Time	Pos X	Pos Y	Vel X	Vel Y	Acc X	Acc Y
0.01624386	0.485332	0.1202199	29.87788	7.400944	1839.334	455.615
1.086275	0.485332	0.1202199	0	0	-27.50489	-6.813138
1.11666	0.4998821	-0.01085939	0.4788648	-4.314028	0.4351671	-3.920362
1.139089	0.4913889	-0.09239581	-0.3786592	-3.635198	-16.23664	12.85319
1.155664	0.4849299	-0.1218318	-0.389695	-1.776008	-0.2829404	47.6667
1.176078	0.4763595	-0.1519266	-0.4198302	-1.474213	-0.8147204	8.159194
1.1985	0.4608141	-0.194037	-0.6932917	-1.878037	-6.383817	-9.427077
1.223271	0.4608141	-0.194037	0	0	14.69051	39.79468
1.251622	0.460355	-0.1951236	-0.01619356	-0.03832949	-0.304839	-0.7215413
1.303203	0.459947	-0.1960836	-0.007910939	-0.01861139	0.1036209	0.2466861
1.326849	0.4593534	-0.1974701	-0.02510171	-0.05863347	-0.2285204	-0.5320216
1.347867	0.4588695	-0.1985921	-0.02302503	-0.05338052	0.04649529	0.1176094
1.367576	0.4583151	-0.1998682	-0.02812842	-0.06474814	-0.1253047	-0.2791117
1.387414	0.4576575	-0.2013693	-0.03314744	-0.0756717	-0.1269149	-0.2762215
1.409351	0.4575171	-0.2016883	-0.006401443	-0.01454114	0.6402487	1.46335
1.447488	0.4574394	-0.2018643	-0.002038009	-0.004615998	0.07263377	0.165214
1.464091	0.4577878	-0.2010731	0.02098336	0.04765683	0.4205543	0.9549197
1.480623	0.4578058	-0.2010321	0.00108883	0.002480513	-0.6004053	-1.363394
1.497648	0.4579538	-0.2006945	0.008698194	0.01982782	0.2267582	0.5169478
1.513757	0.4579538	-0.2006945	0	0	-0.2625158	-0.5984135
1.530324	0.4578889	-0.2008426	-0.003921738	-0.008939943	-0.1200216	-0.2735997
1.546891	0.4578889	-0.2008426	0	0	0.11836	0.2698119
1.563464	0.458037	-0.2005046	0.008939233	0.02039785	0.269739	0.6154999
1.594991	0.458037	-0.2005046	0	0	-0.1858469	-0.4240718
1.611557	0.458037	-0.2005046	0	0	0	0
1.62813	0.458037	-0.2005046	0	0	0	0
1.644853	0.458037	-0.2005046	0	0	0	0
1.661259	0.458037	-0.2005046	0	0	0	0
1.678116	0.4581664	-0.2002088	0.007673105	0.01754295	0.2306793	0.5273998
1.695523	0.4582764	-0.1999569	0.006319383	0.01447243	-0.03950929	-0.08961505
1.712095	0.4585319	-0.1993704	0.01541842	0.03539188	0.26778	0.6156485
1.728656	0.4585954	-0.1992242	0.003834886	0.008825996	-0.3496019	-0.8017831
1.78586	0.4586588	-0.1990783	0.001108126	0.002551244	-0.03696547	-0.08506404
1.80497	0.4590361	-0.1982066	0.01974567	0.04561653	0.244223	0.5643198
1.828226	0.4592229	-0.1977733	0.00803343	0.01862849	-0.2764535	-0.6370208
1.848636	0.4597152	-0.1966264	0.02411776	0.05619641	0.368343	0.8603331
1.868558	0.4605998	-0.1945451	0.04440558	0.104472	0.503027	1.19697
1.889111	0.4609535	-0.1937058	0.01720703	0.04083679	-0.6719858	-1.572214
1.928094	0.4613252	-0.1928188	0.009535554	0.02275407	-0.1288534	-0.3037252
1.944662	0.4616361	-0.1920733	0.01876322	0.04499773	0.1661118	0.4004193
1.961229	0.4616361	-0.1920733	0	0	-0.5662711	-1.358024
1.977796	0.4616361	-0.1920733	0	0	0	0
1.994362	0.4616361	-0.1920733	0	0	0	0
2.010931	0.4616361	-0.1920733	0	0	0	0
2.027496	0.4616361	-0.1920733	0	0	0	0
2.044061	0.4612672	-0.1929573	-0.02226572	-0.05336864	-0.6720726	-1.610889
2.076831	0.4604809	-0.1948264	-0.02399418	-0.05703529	-0.03503462	-0.07432025
2.093445	0.4591184	-0.198016	-0.08201247	-0.1919837	-1.174831	-2.732615
2.109964	0.4589305	-0.198451	-0.01137479	-0.02633791	2.131942	4.999415
2.126533	0.4587413	-0.1988879	-0.01141645	-0.02636379	-0.001259178	-0.0007819199
2.1431	0.4587608	-0.1988431	0.001174697	0.002702883	0.3799907	0.8772085
2.15989	0.4586338	-0.1991357	-0.007563225	-0.01742861	-0.2619524	-0.603518
2.176391	0.4585701	-0.1992823	-0.003859574	-0.008884967	0.1112497	0.2566326
2.192818	0.4585701	-0.1992823	0	0	0.1172134	0.2698322
2.20937	0.4585701	-0.1992823	0	0	0	0
2.240815	0.4585701	-0.1992823	0	0	0	0
2.257387	0.4585701	-0.1992823	0	0	0	0
2.27395	0.4585701	-0.1992823	0	0	0	0
2.290517	0.4585701	-0.1992823	0	0	0	0
2.307087	0.4585701	-0.1992823	0	0	0	0
2.323655	0.4585701	-0.1992823	0	0	0	0
2.34022	0.4586338	-0.1991357	0.003844687	0.008850696	0.1160404	0.2671318
2.356787	0.4586338	-0.1991357	0	0	-0.1160396	-0.2671299
2.385146	0.4586338	-0.1991357	0	0	0	0
4.801859	0.4586338	-0.1991357	0	0	0	0
4.957584	0.2561544	0.4011976	-1.300237	3.855086	-0.5054494	1.498612
4.996383	0.2335329	0.2415169	-0.5830371	-4.115557	3.686944	-40.97505
5.013065	0.2361943	0.2308716	0.1595318	-0.6381297	13.3841	62.67731
5.029522	0.2375249	0.2255489	0.08085956	-0.3234373	-2.374024	9.496205
5.046085	0.2388556	0.2162342	0.08033902	-0.5623651	-0.01576422	-7.235844
5.062654	0.2401863	0.2015968	0.08031269	-0.8834378	-0.0007947088	-9.690691
5.079463	0.2401863	0.1869594	0	-0.8708333	-2.406216	0.3776358
5.095841	0.2361943	0.1709913	-0.2437307	-0.9749183	-7.344076	-3.136281
5.112517	0.2335329	0.1616766	-0.159592	-0.558571	2.54543	12.59566
5.128924	0.2295409	0.1550233	-0.243318	-0.4055307	-2.530828	4.626022
5.172497	0.2255489	0.1497006	-0.09161571	-0.1221544	2.529218	4.724519
5.189081	0.2109115	0.1377245	-0.8826503	-0.7221699	-13.14954	-9.974189
5.205635	0.2082502	0.1363939	-0.1607642	-0.08038209	21.78437	19.36724
5.222203	0.2069195	0.1337325	-0.080315	-0.1606291	2.428835	-2.422732
5.238769	0.2055888	0.1337325	-0.08032656	0	-0.0003487613	4.847866
5.255335	0.2055888	0.1324019	-8.995136E-07	-0.08032746	2.424443	-2.424497
5.271903	0.2055888	0.1324019	0	0	2.714815E-05	2.424357
5.288785	0.2055888	0.1324019	0	0	0	0
5.314882	0.2055888	0.1324019	0	0	0	0
5.33145	0.2069195	0.1324019	0.08031731	0	1.88251	0
5.348019	0.2069195	0.1324019	0	0	-2.423807	0
5.364701	0.2095808	0.1324019	0.1595372	8.932655E-07	4.797995	2.686447E-05
5.381153	0.2135729	0.1324019	0.2426419	0	2.508142	-2.695919E-05
5.397719	0.2175649	0.1324019	0.2409709	-8.994876E-07	-0.0506079	-2.724186E-05
5.414534	0.2228875	0.1324019	0.3165589	0	2.264434	2.694649E-05
5.430852	0.2268796	0.1337325	0.2446343	0.08154568	-2.170814	2.461195
5.447863	0.2308716	0.1337325	0.2346763	0	-0.2987774	-2.446688
5.464383	0.2348636	0.1324019	0.2416483	-0.08055004	0.2079283	-2.402277
5.480953	0.245509	0.1297405	0.642446	-0.1606106	12.11231	-2.419471
5.497519	0.2481703	0.1284098	0.1606421	-0.08032194	-14.53983	2.422943
5.514704	0.249501	0.1284098	0.07743562	0	-2.465302	2.379838
5.530653	0.2508317	0.1284098	0.08343424	0	0.1810465	0
5.547219	0.2521623	0.1284098	0.08032425	-8.994876E-07	-0.09564776	-2.766373E-05
5.564085	0.2521623	0.1270792	0	-0.07889497	-2.402581	-2.359803
5.580353	0.253493	0.1270792	0.08179996	0	2.468763	2.381089
5.59692	0.253493	0.1270792	0	0	-2.491279	0
5.613482	0.253493	0.1270792	0	0	0	0
5.630053	0.253493	0.1270792	0	0	0	0
5.64662	0.253493	0.1270792	0	0	0	0
5.663186	0.253493	0.1270792	0	0	0	0
5.679753	0.253493	0.1270792	0	0	0	0
5.69632	0.253493	0.1270792	0	0	0	0
5.712887	0.253493	0.1270792	0	0	0	0
5.729453	0.253493	0.1270792	0	0	0	0
5.746019	0.253493	0.1270792	0	0	0	0
5.762586	0.253493	0.1270792	0	0	0	0
5.779403	0.253493	0.1270792	0	0	0	0
5.795716	0.253493	0.1270792	0	0	0	0
5.812344	0.253493	0.1270792	0	0	0	0
5.828853	0.253493	0.1270792	0	0	0	0
5.845424	0.253493	0.1270792	0	0	0	0
5.861985	0.253493	0.1270792	0	0	0	0
5.878626	0.253493	0.1270792	0	0	0	0
5.895563	0.253493	0.1270792	0	0	0	0
5.912138	0.253493	0.1270792	0	0	0	0
5.93338	0.253493	0.1270792	0	0	0	0
5.949952	0.253493	0.1270792	0	0	0	0
5.966518	0.253493	0.1270792	0	0	0	0
5.983131	0.2548237	0.1257485	0.08009651	-0.08009831	2.414087	-2.414141
5.999651	0.257485	0.1217565	0.1610983	-0.241647	2.444744	-4.875759
6.016333	0.2628077	0.1137725	0.3190653	-0.4785975	4.757731	-7.136598
6.032785	0.2721224	0.09780438	0.5661792	-0.970595	7.458018	-14.84873
6.049879	0.2774451	0.08982036	0.3113755	-0.4670619	-7.595656	15.01024
6.065918	0.2787758	0.08715902	0.08296543	-0.1659309	-6.893727	9.088546
6.090055	0.2787758	0.08715902	0	0	-2.065054	4.130107
6.106627	0.2787758	0.08848969	0	0.08029651	0	1.97245
6.123195	0.2787758	0.09381237	0	0.3212683	0	7.271393
6.13976	0.2787758	0.1111111	0	1.044245	0	21.8201
6.156327	0.2787758	0.1430472	0	1.927779	0	26.66704
6.172893	0.2840985	0.1856287	0.321297	2.570372	9.697321	19.39462
6.18946	0.2920825	0.2242182	0.4819298	2.329333	4.848117	-7.274908
6.206027	0.3040586	0.2681304	0.7228974	2.650622	7.272626	9.696816
6.222594	0.3080506	0.2814371	0.2409589	0.8031945	-14.54514	-55.75628
6.247122	0.3186959	0.3013972	0.4339996	0.8137503	4.697341	0.2568589
6.263691	0.3639388	0.3359947	2.730628	2.088128	55.88289	31.0089
6.280594	0.3675763	0.3389509	0.2151947	0.1748868	-75.15023	-57.15935
6.296827	0.3687111	0.3377161	0.06990424	-0.07606556	-4.384623	-7.573321
6.313395	0.3687111	0.3377161	0	0	-2.131214	2.319058
6.329961	0.3687111	0.3377161	0	0	0	0
6.346529	0.3687111	0.3377161	0	0	0	0
6.363254	0.3687111	0.3377161	0	0	0	0
6.379661	0.3687111	0.3377161	0	0	0	0
6.40576	0.3687111	0.3377161	0	0	0	0
6.432014	0.3686037	0.3378333	-0.004088944	0.004463556	-0.0781042	0.08525977
6.448586	0.3684506	0.3380002	-0.009236347	0.01007078	-0.1201956	0.1309328
6.465152	0.371042	0.3351534	0.1564218	-0.171835	4.998925	-5.489216
6.481719	0.3776652	0.3276721	0.3997759	-0.4515726	7.344546	-8.442618
6.498285	0.3831367	0.3212573	0.3302906	-0.3872316	-2.09716	1.941898
6.514849	0.3853083	0.3186495	0.1311068	-0.1574465	-6.012331	6.936025
6.531468	0.3851376	0.3188558	-0.01027321	0.01241428	-4.260602	5.118896
6.557884	0.3850529	0.318958	-0.003205273	0.003870923	0.1642368	-0.1985211
6.574456	0.3850529	0.318958	0	0	0.07456234	-0.09004696
6.59116	0.3850529	0.318958	0	0	0	0
6.60759	0.3850529	0.318958	0	0	0	0
6.624685	0.3850529	0.318958	0	0	0	0
6.640723	0.3850529	0.318958	0	0	0	0
6.65729	0.3844841	0.3196436	-0.03433507	0.04137765	-1.053071	1.26907
6.673953	0.3860997	0.3176901	0.09696049	-0.1172358	3.951136	-4.773225
6.690422	0.3885974	0.3146299	0.1516583	-0.1858081	1.650901	-2.069664
6.717512	0.3949167	0.3066609	0.2332672	-0.2941698	1.873502	-2.487669
6.734369	0.4101109	0.2860229	0.9013765	-1.224322	15.2027	-21.16544
6.755991	0.4123729	0.2827519	0.1046164	-0.1512771	-20.70618	27.88627
6.772558	0.4011976	0.2747838	-0.6745657	-0.4809692	-20.4031	-8.633076
6.78913	0.3918829	0.2707917	-0.5620882	-0.2408965	3.394188	7.244575
6.805996	0.3878909	0.2667997	-0.2366826	-0.2366791	9.73155	0.1261248
6.82226	0.3759148	0.2468396	-0.7363774	-1.227296	-15.08277	-29.90074
6.838826	0.3546241	0.1976048	-1.285221	-2.972078	-16.71812	-53.14713
6.855393	0.3439787	0.164338	-0.6425385	-2.00793	19.39676	29.09888
6.883345	0.3413174	0.1363939	-0.0952123	-0.9997281	12.2941	22.64634
6.899913	0.3532934	0.07252162	0.722835	-3.855115	18.37487	-64.13731
6.916543	0.3612775	0.05655356	0.4801075	-0.9602135	-7.311536	87.20141
6.93305	0.3719228	0.02727878	0.6448939	-1.773461	4.972905	-24.5421
6.949617	0.3785762	0.01131071	0.4015981	-0.9638341	-7.356019	24.47898
6.966184	0.3812375	0.005988024	0.1606485	-0.3212966	-7.272084	19.39238
6.98275	0.3825682	0.005988024	0.08032013	2.810818E-08	-2.424419	9.697171
6.999317	0.3825682	0.005988024	0	0	-2.424136	-8.48331E-07
7.015883	0.3825682	0.005988024	0	0	0	0
7.042785	0.3825682	0.005988024	0	0	0	0
7.059357	0.3825682	0.005988024	0	0	0	0
7.087633	0.3825682	0.005988024	0	0	0	0
7.104282	0.3825682	0.005988024	0	0	0	0
7.121413	0.3825682	0.005988024	0	0	0	0
7.137394	0.3825682	0.005988024	0	0	0	0
7.154583	0.3825682	0.005988024	0	0	0	0
7.170467	0.3825682	0.005988024	0	0	0	0
7.194194	0.3838989	0.005988024	0.05608169	-1.962545E-08	1.415782	-4.954444E-07
7.210763	0.3865602	0.008649368	0.1606254	0.1606252	2.594389	3.986125
7.227332	0.3865602	0.009980041	1.798665E-06	0.08031032	-4.847141	-2.423663
7.244532	0.3865602	0.009980041	0	0	-5.326358E-05	-2.378217
7.261041	0.3865602	0.009980041	0	0	0	0
7.277032	0.3865602	0.01131071	0	0.08321518	0	2.560484
7.293598	0.3865602	0.01131071	0	0	0	-2.555984
7.310166	0.3865602	0.01131071	0	0	0	0
7.326732	0.3865602	0.01131071	0	0	0	0
7.352069	0.3865602	0.01131071	0	0	0	0
7.368891	0.3865602	0.01131071	0	0	0	0
7.388021	0.3865602	0.01131071	0	0	0	0
7.406263	0.3865602	0.01131071	0	0	0	0
7.424604	0.3865602	0.01397206	-1.624896E-06	0.145103	-4.441734E-05	3.966463
7.441175	0.3865602	0.01397206	0	0	4.654184E-05	-4.15618
7.458286	0.3865602	0.01397206	0	0	0	0
7.474445	0.3865602	0.01397206	0	0	0	0
7.490876	0.3865602	0.01397206	0	0	0	0
7.518705	0.3865602	0.01397206	0	0	0	0
7.535278	0.3865602	0.0166334	0	0.1605881	0	3.616677
7.551845	0.3865602	0.01796407	0	0.08032183	0	-2.422093
7.568421	0.3865602	0.01929474	1.797889E-06	0.08027572	5.424633E-05	-0.001391067
7.584978	0.3865602	0.02062542	-1.79996E-06	0.08036809	-0.0001085864	0.002787657
7.601544	0.3865602	0.02328676	1.798975E-06	0.1606483	0.000108652	2.423663
7.618111	0.3865602	0.0259481	-1.798975E-06	0.1606483	-0.0001085926	0
7.634677	0.3865602	0.02860945	0	0.1606438	5.429553E-05	-0.0001362704
7.65142	0.3865602	0.02994012	1.780018E-06	0.07947759	5.343882E-05	-2.43673
7.680111	0.3865602	0.03260146	-1.038741E-06	0.0927595	-6.20414E-05	0.2923371
7.696683	0.3865602	0.03393213	0	0.08029398	2.294886E-05	-0.2754003
7.713249	0.3865602	0.03393213	0	0	0	-2.423033
7.73004	0.3865602	0.03393213	0	0	0	0
7.760356	0.3865602	0.03393213	0	0	0	0
7.776927	0.3892216	0.03659348	0.1606133	0.1606115	3.425546	3.425508
7.793492	0.3918829	0.03659348	0.1606559	-2.248849E-07	0.001286606	-4.847132
7.810058	0.4038589	0.0405855	0.7229164	0.2409725	16.97052	7.2732
7.838971	0.4091816	0.04191617	0.1840933	0.04602321	-11.84766	-4.286551
7.8559	0.4171657	0.04457751	0.4716284	0.1572092	6.272347	2.425435
7.872582	0.4171657	0.04590818	0	0.07976405	-14.03184	-2.304142
7.888678	0.4171657	0.04590818	0	0	0	-2.433479
7.90524	0.4171657	0.04590818	0	0	0	0
7.921809	0.4171657	0.04590818	0	0	0	0
7.938481	0.4171657	0.04590818	0	0	0	0
7.955185	0.4171657	0.04590818	0	0	0	0
7.971509	0.4171657	0.04590818	0	0	0	0
8.000419	0.4171657	0.04590818	0	0	0	0
8.017064	0.4171657	0.04590818	0	0	0	0
8.033557	0.4171657	0.04590818	0	0	0	0
8.050124	0.4171657	0.04590818	0	0	0	0
8.06669	0.4171657	0.04590818	0	0	0	0
8.083257	0.4171657	0.04590818	0	0	0	0
8.099824	0.4171657	0.04590818	0	0	0	0
8.116392	0.4171657	0.04590818	0	0	0	0
8.133514	0.4171657	0.04590818	0	0	0	0
8.157822	0.4171657	0.04590818	0	0	0	0
8.174417	0.4171657	0.04590818	0	0	0	0
8.19317	0.4171657	0.04590818	0	0	0	0
8.209737	0.4171657	0.04590818	0	0	0	0
8.226389	0.4171657	0.04590818	0	0	0	0
8.242876	0.4171657	0.04590818	0	0	0	0
8.259583	0.4171657	0.04590818	0	0	0	0
8.276009	0.4171657	0.04590818	0	0	0	0
8.292755	0.4171657	0.04590818	0	0	0	0
8.317429	0.4171657	0.04590818	0	0	0	0
8.334001	0.4171657	0.04590818	0	0	0	0
8.350567	0.4171657	0.04590818	0	0	0	0
8.367285	0.4171657	0.04590818	0	0	0	0
8.3837	0.4171657	0.04590818	0	0	0	0
8.413792	0.4171657	0.04590818	0	0	0	0
8.430723	0.4171657	0.04590818	0	0	0	0
8.447441	0.4171657	0.04590818	0	0	0	0
8.471811	0.4171657	0.04590818	0	0	0	0
8.488381	0.4171657	0.04590818	0	0	0	0
8.504949	0.4171657	0.04590818	0	0	0	0
8.521583	0.4171657	0.04590818	0	0	0	0
8.538081	0.4184963	0.04723886	0.0806539	0.0806539	2.43428	2.43428
8.555046	0.4184963	0.04723886	0	0	-2.410207	-2.410207
8.571216	0.4184963	0.04723886	0	0	0	0
8.587783	0.4184963	0.04856953	0	0.0803194	0	2.453491
8.604348	0.4184963	0.0499002	0	0.08032887	0	0.0002860371
8.621685	0.4184963	0.0499002	0	0	0	-2.369432
8.638256	0.4184963	0.0499002	0	0	0	0
8.654822	0.4184963	0.0499002	0	0	0	0
8.672214	0.4184963	0.0499002	0	0	0	0
8.687956	0.4184963	0.0499002	0	0	0	0
8.704523	0.4184963	0.0499002	0	0	0	0
8.721089	0.4184963	0.0499002	0	0	0	0
8.737754	0.4184963	0.0499002	0	0	0	0
8.754222	0.4184963	0.0499002	0	0	0	0
8.770784	0.4184963	0.0499002	0	0	0	0
8.787355	0.4184963	0.0499002	0	0	0	0
8.803923	0.4184963	0.0499002	0	0	0	0
8.820674	0.4184963	0.0499002	0	0	0	0
8.837055	0.4184963	0.0499002	0	0	0	0
8.853969	0.4184963	0.0499002	0	0	0	0
8.87019	0.4184963	0.0499002	0	0	0	0
8.886757	0.4184963	0.0499002	0	0	0	0
8.903391	0.4184963	0.0499002	0	0	0	0
8.919924	0.4184963	0.0499002	0	0	0	0
8.936457	0.4184963	0.0499002	0	0	0	0
8.953023	0.4184963	0.0499002	0	0	0	0
8.96959	0.4184963	0.0499002	0	0	0	0
8.986157	0.4184963	0.0499002	0	0	0	0
9.002725	0.4184963	0.0499002	0	0	0	0
9.019291	0.4184963	0.0499002	0	0	0	0
9.039078	0.4184963	0.0499002	0	0	0	0
9.055649	0.4184963	0.0499002	0	0	0	0
9.072511	0.4184963	0.0499002	0	0	0	0
9.088778	0.4184963	0.0499002	0	0	0	0
9.105949	0.4184963	0.0499002	0	0	0	0
9.121912	0.4184963	0.0499002	0	0	0	0
9.138535	0.4184963	0.0499002	0	0	0	0
9.15551	0.4184963	0.0499002	0	0	0	0
9.171612	0.4184963	0.0499002	0	0	0	0
9.189133	0.4184963	0.0499002	0	0	0	0
9.2057	0.4184963	0.0499002	0	0	0	0
9.222273	0.4184963	0.0499002	0	0	0	0
9.255434	0.4184963	0.0499002	0	0	0	0
9.272001	0.4184963	0.0499002	0	0	0	0
9.288853	0.4184963	0.0499002	0	0	0	0
9.30542	0.4184963	0.0499002	0	0	0	0
9.321987	0.4184963	0.0499002	0	0	0	0
9.338554	0.4184963	0.0499002	0	0	0	0
9.355187	0.4184963	0.0499002	0	0	0	0
9.371755	0.4184963	0.0499002	0	0	0	0
9.405576	0.4184963	0.0499002	0	0	0	0
9.422142	0.4184963	0.0499002	0	0	0	0
9.438711	0.4184963	0.0499002	0	0	0	0
9.455618	0.4184963	0.0499002	0	0	0	0
9.472244	0.4184963	0.0499002	0	0	0	0
9.488811	0.4184963	0.0499002	0	0	0	0
9.562062	0.4184963	0.0499002	0	0	0	0
9.601013	0.4184963	0.0499002	0	0	0	0
9.618901	0.4184963	0.0499002	0	0	0	0
9.63547	0.4184963	0.0499002	0	0	0	0
9.652038	0.4184963	0.0499002	0	0	0	0
9.668605	0.4184963	0.0499002	0	0	0	0
9.685259	0.4184963	0.0499002	0	0	0	0
9.703785	0.4184963	0.0499002	0	0	0	0
9.721106	0.4184963	0.0499002	0	0	0	0
9.757965	0.4184963	0.0499002	0	0	0	0
9.789846	0.4184963	0.0499002	0	0	0	0
9.80654	0.4184963	0.0499002	0	0	0	0
9.822988	0.4184963	0.0499002	0	0	0	0
9.839603	0.4184963	0.0499002	0	0	0	0
9.856119	0.4184963	0.0499002	0	0	0	0
9.872685	0.4184963	0.0499002	0	0	0	0
9.889253	0.4184963	0.0499002	0	0	0	0
9.914399	0.4184963	0.0499002	0	0	0	0
9.931264	0.4184963	0.0499002	0	0	0	0
9.947537	0.4184963	0.0499002	0	0	0	0
9.964104	0.4184963	0.0499002	0	0	0	0
9.980752	0.4184963	0.0499002	0	0	0	0
9.997236	0.4184963	0.0499002	0	0	0	0
10.0138	0.4184963	0.0499002	0	0	0	0
10.03055	0.4184963	0.0499002	0	0	0	0
10.04727	0.4184963	0.0499002	0	0	0	0
10.07148	0.4184963	0.0499002	0	0	0	0
10.08805	0.4184963	0.0499002	0	0	0	0
10.10468	0.4184963	0.0499002	0	0	0	0
10.12119	0.4184963	0.0499002	0	0	0	0
10.13775	0.4184963	0.0499002	0	0	0	0
10.15432	0.4184963	0.0499002	0	0	0	0
10.1714	0.4184963	0.0499002	0	0	0	0
10.18745	0.4184963	0.0499002	0	0	0	0
10.20402	0.4184963	0.0499002	0	0	0	0
10.229	0.4184963	0.0499002	0	0	0	0
10.24557	0.4184963	0.04856953	0	-0.08029651	0	-1.932586
10.26214	0.4184963	0.04856953	0	0	0	2.423074
10.2787	0.4184963	0.04856953	0	0	0	0
10.29527	0.4184963	0.04856953	0	0	0	0
10.31187	0.4184963	0.04856953	0	0	0	0
10.3284	0.4184963	0.04856953	0	0	0	0
10.34517	0.4184963	0.04856953	0	0	0	0
10.3616	0.4184963	0.04856953	0	0	0	0
10.38897	0.4184963	0.04856953	0	0	0	0
10.40554	0.4184963	0.04856953	0	0	0	0
10.43384	0.4184963	0.04856953	0	0	0	0
10.4513	0.4184963	0.04856953	0	0	0	0
10.46774	0.4184963	0.04856953	0	0	0	0
10.48355	0.4184963	0.04856953	0	0	0	0
10.50011	0.4184963	0.04856953	0	0	0	0
10.51668	0.4184963	0.04856953	0	0	0	0
10.54098	0.4184963	0.04856953	0	0	0	0
10.55755	0.4184963	0.04856953	0	0	0	0
10.57411	0.4184963	0.04856953	0	0	0	0
10.59068	0.4184963	0.04856953	0	0	0	0
10.60725	0.4184963	0.04856953	0	0	0	0
10.62382	0.4184963	0.04856953	0	0	0	0
10.64038	0.4184963	0.04856953	0	0	0	0
10.65695	0.4184963	0.04856953	0	0	0	0
10.67352	0.4184963	0.04856953	0	0	0	0
10.69917	0.4184963	0.04856953	0	0	0	0
10.71574	0.4184963	0.04856953	0	0	0	0
10.73231	0.4171657	0.04723885	-0.08031962	-0.08031962	-2.423772	-2.423772
10.74888	0.4171657	0.04723885	0	0	2.424051	2.424051
10.76544	0.4171657	0.04723885	0	0	0	0
10.78201	0.4171657	0.04723885	0	0	0	0
10.79857	0.4171657	0.04723885	0	0	0	0
10.81514	0.4171657	0.04723885	0	0	0	0
10.83171	0.4171657	0.04723885	0	0	0	0
10.86033	0.4171657	0.04723885	0	0	0	0
10.8769	0.4145043	0.04590819	-0.1606375	-0.08031917	-3.554949	-1.777484
10.89346	0.4145043	0.04590819	0	0	4.848048	2.424037
10.91003	0.4145043	0.04590819	0	0	0	0
10.9266	0.4145043	0.04590819	0	0	0	0
10.94318	0.4145043	0.04590819	0	0	0	0
10.95973	0.4145043	0.04590819	0	0	0	0
10.9763	0.4145043	0.04590819	0	0	0	0
10.99286	0.4145043	0.04590819	0	0	0	0
11.02022	0.4145043	0.04590819	0	0	0	0
11.03679	0.4145043	0.04590819	0	0	0	0
11.05336	0.4145043	0.04590819	0	0	0	0
11.07005	0.4145043	0.04590819	0	0	0	0
11.10064	0.4145043	0.04590819	0	0	0	0
11.11721	0.4145043	0.04590819	0	0	0	0
11.13378	0.4145043	0.04590819	0	0	0	0
11.15035	0.4145043	0.04590819	0	0	0	0
11.17518	0.4145043	0.04590819	0	0	0	0
11.19184	0.4145043	0.04590819	0	0	0	0
11.20832	0.4145043	0.04590819	0	0	0	0
11.22488	0.4145043	0.04590819	0	0	0	0
11.24145	0.4145043	0.04590819	0	0	0	0
11.25802	0.4145043	0.04590819	0	0	0	0
11.27458	0.4145043	0.04590819	0	0	0	0
11.29115	0.4145043	0.04590819	0	0	0	0
11.30783	0.4145043	0.04590819	0	0	0	0
11.33206	0.4145043	0.04590819	0	0	0	0
11.34863	0.4145043	0.04590819	0	0	0	0
11.36532	0.4145043	0.04590819	0	0	0	0
11.38176	0.4145043	0.04590819	0	0	0	0
11.39833	0.4145043	0.04590819	0	0	0	0
11.4149	0.4145043	0.04590819	0	0	0	0
11.43146	0.4145043	0.04590819	0	0	0	0
11.44803	0.4145043	0.04590819	0	0	0	0
11.46469	0.4145043	0.04590819	0	0	0	0
11.48909	0.4145043	0.04590819	0	0	0	0
11.50566	0.4145043	0.04590819	0	0	0	0
11.5229	0.4145043	0.04590819	0	0	0	0
11.54015	0.4145043	0.04590819	0	0	0	0
11.55703	0.4145043	0.04590819	0	0	0	0
11.57465	0.4145043	0.04590819	0	0	0	0
11.59461	0.4145043	0.04590819	0	0	0	0
11.61325	0.4145043	0.04590819	0	0	0	0
11.6497	0.4145043	0.04590819	0	0	0	0
11.66627	0.4145043	0.04590819	0	0	0	0
11.68284	0.4145043	0.04590819	0	0	0	0
11.69941	0.4145043	0.04590819	0	0	0	0
11.71597	0.4145043	0.04590819	0	0	0	0
11.73254	0.4145043	0.04590819	0	0	0	0
11.76374	0.4145043	0.04590819	0	0	0	0
11.7881	0.4145043	0.04590819	0	0	0	0
11.80487	0.4145043	0.04590819	0	0	0	0
11.82124	0.4145043	0.04590819	0	0	0	0
11.83829	0.4145043	0.04590819	0	0	0	0
11.85437	0.4145043	0.04590819	0	0	0	0
11.87094	0.4145043	0.04590819	0	0	0	0
11.88751	0.4145043	0.04590819	0	0	0	0
11.90407	0.4145043	0.04590819	0	0	0	0
11.92064	0.4145043	0.04590819	0	0	0	0
11.94594	0.4145043	0.04590819	0	0	0	0
11.96251	0.4145043	0.04590819	0	0	0	0
11.97908	0.4145043	0.04590819	0	0	0	0
11.99586	0.4145043	0.04590819	0	0	0	0
12.01221	0.4145043	0.04590819	0	0	0	0
12.02878	0.4145043	0.04590819	0	0	0	0
12.04534	0.4145043	0.04590819	0	0	0	0
12.06191	0.4145043	0.04590819	0	0	0	0
12.07848	0.4145043	0.04590819	0	0	0	0
12.10384	0.4145043	0.04590819	0	0	0	0
12.12077	0.4145043	0.04590819	0	0	0	0
12.13698	0.4145043	0.04590819	0	0	0	0
12.15355	0.4145043	0.04590819	0	0	0	0
12.17011	0.4145043	0.04590819	0	0	0	0
12.18676	0.4145043	0.04590819	0	0	0	0
12.20325	0.4145043	0.04590819	0	0	0	0
12.21982	0.4145043	0.04590819	0	0	0	0
12.23638	0.4145043	0.04590819	0	0	0	0
12.26103	0.4145043	0.04590819	0	0	0	0
12.2776	0.4145043	0.04590819	0	0	0	0
12.29417	0.4145043	0.04590819	0	0	0	0
12.31113	0.4145043	0.04590819	0	0	0	0
12.3274	0.4145043	0.04590819	0	0	0	0
12.34403	0.4145043	0.04590819	0	0	0	0
12.36044	0.4145043	0.04590819	0	0	0	0
12.37702	0.4145043	0.04590819	0	0	0	0
12.39357	0.4145043	0.04590819	0	0	0	0
12.43645	0.4145043	0.04590819	0	0	0	0
12.45302	0.4145043	0.04590819	0	0	0	0
12.46959	0.4145043	0.04590819	0	0	0	0
12.48659	0.4145043	0.04590819	0	0	0	0
12.50272	0.4145043	0.04590819	0	0	0	0
12.51929	0.4145043	0.04590819	0	0	0	0
12.53585	0.4145043	0.04590819	0	0	0	0
12.55242	0.4145043	0.04590819	0	0	0	0
12.571	0.4145043	0.04590819	0	0	0	0
12.58765	0.4145043	0.04590819	0	0	0	0
12.60435	0.4145043	0.04590819	0	0	0	0
12.62071	0.4145043	0.04590819	0	0	0	0
12.63728	0.4145043	0.04590819	0	0	0	0
12.65384	0.4145043	0.04590819	0	0	0	0
12.67041	0.4145043	0.04590819	0	0	0	0
12.68697	0.4145043	0.04590819	0	0	0	0
12.70354	0.4145043	0.04590819	0	0	0	0
12.72183	0.4145043	0.04590819	0	0	0	0
12.7384	0.4145043	0.04590819	0	0	0	0
12.75497	0.4145043	0.04590819	0	0	0	0
12.77153	0.4145043	0.04590819	0	0	0	0
12.7881	0.4145043	0.04590819	0	0	0	0
12.80467	0.4145043	0.04590819	0	0	0	0
12.82123	0.4145043	0.04590819	0	0	0	0
12.8378	0.4145043	0.04590819	0	0	0	0
12.85441	0.4145043	0.04590819	0	0	0	0
12.87305	0.4145043	0.04590819	0	0	0	0
12.88962	0.4145043	0.04590819	0	0	0	0
12.90618	0.4145043	0.04590819	0	0	0	0
12.92275	0.4145043	0.04590819	0	0	0	0
12.93932	0.4145043	0.04590819	0	0	0	0
12.95588	0.4145043	0.04590819	0	0	0	0
12.97245	0.4145043	0.04590819	0	0	0	0
12.98902	0.4145043	0.04590819	0	0	0	0
13.00558	0.4145043	0.04590819	0	0	0	0
13.02421	0.4145043	0.04590819	0	0	0	0
13.04727	0.4145043	0.04590819	0	0	0	0
13.0641	0.4145043	0.04590819	0	0	0	0
13.0804	0.4145043	0.04590819	0	0	0	0
13.09697	0.4145043	0.04590819	0	0	0	0
13.11354	0.4145043	0.04590819	0	0	0	0
13.13011	0.4145043	0.04590819	0	0	0	0
13.14667	0.4145043	0.04590819	0	0	0	0
13.16324	0.4145043	0.04590819	0	0	0	0
13.18143	0.4145043	0.04590819	0	0	0	0
13.198	0.4145043	0.04590819	0	0	0	0
13.21457	0.4145043	0.04590819	0	0	0	0
13.23113	0.4145043	0.04590819	0	0	0	0
13.2477	0.4145043	0.04590819	0	0	0	0
13.26427	0.4145043	0.04590819	0	0	0	0
13.28128	0.4145043	0.04590819	0	0	0	0
13.2974	0.4145043	0.04590819	0	0	0	0
13.31412	0.4145043	0.04590819	0	0	0	0
13.33322	0.4145043	0.04590819	0	0	0	0
13.34979	0.4145043	0.04590819	0	0	0	0
13.36636	0.4145043	0.04590819	0	0	0	0
13.38293	0.4145043	0.04590819	0	0	0	0
13.3995	0.4145043	0.04590819	0	0	0	0
13.41606	0.4145043	0.04590819	0	0	0	0
13.43263	0.4145043	0.04590819	0	0	0	0
13.4492	0.4145043	0.04590819	0	0	0	0
13.46585	0.4145043	0.04590819	0	0	0	0
13.48317	0.4145043	0.04590819	0	0	0	0
13.49974	0.4145043	0.04590819	0	0	0	0
13.5164	0.4145043	0.04590819	0	0	0	0
13.53287	0.4145043	0.04590819	0	0	0	0
13.5501	0.4145043	0.04590819	0	0	0	0
13.56601	0.4145043	0.04590819	0	0	0	0
13.58258	0.4145043	0.04590819	0	0	0	0
13.59914	0.4145043	0.04590819	0	0	0	0
13.61571	0.4145043	0.04590819	0	0	0	0
13.63351	0.4145043	0.04590819	0	0	0	0
13.65556	0.4145043	0.04590819	0	0	0	0
13.67214	0.4145043	0.04590819	0	0	0	0
13.6887	0.4145043	0.04590819	0	0	0	0
13.70527	0.4145043	0.04590819	0	0	0	0
13.72184	0.4145043	0.04590819	0	0	0	0
13.7384	0.4145043	0.04590819	0	0	0	0
13.75497	0.4145043	0.04590819	0	0	0	0
13.77154	0.4145043	0.04590819	0	0	0	0
13.78987	0.4145043	0.04590819	0	0	0	0
13.80644	0.4145043	0.04590819	0	0	0	0
13.82301	0.4145043	0.04590819	0	0	0	0
13.83958	0.4145043	0.04590819	0	0	0	0
13.85614	0.4145043	0.04590819	0	0	0	0
13.87279	0.4145043	0.04590819	0	0	0	0
13.88928	0.4145043	0.04590819	0	0	0	0
13.90592	0.4145043	0.04590819	0	0	0	0
13.92244	0.4145043	0.04590819	0	0	0	0
13.94004	0.4145043	0.04590819	0	0	0	0
13.95661	0.4145043	0.04590819	0	0	0	0
13.9732	0.4145043	0.04590819	0	0	0	0
13.98975	0.4145043	0.04590819	0	0	0	0
14.00631	0.4145043	0.04590819	0	0	0	0
14.02288	0.4145043	0.04590819	0	0	0	0
14.03952	0.4145043	0.04590819	0	0	0	0
14.05601	0.4145043	0.04590819	0	0	0	0
14.07258	0.4145043	0.04590819	0	0	0	0
14.09064	0.4145043	0.04590819	0	0	0	0
14.10722	0.4145043	0.04590819	0	0	0	0
14.12378	0.4145043	0.04590819	0	0	0	0
14.14064	0.4145043	0.04590819	0	0	0	0
14.15692	0.4145043	0.04590819	0	0	0	0
14.1741	0.4145043	0.04590819	0	0	0	0
14.19005	0.4145043	0.04590819	0	0	0	0
14.20706	0.4145043	0.04590819	0	0	0	0
14.22318	0.4145043	0.04590819	0	0	0	0
14.3766	0.4145043	0.04590819	0	0	0	0
14.40102	0.411843	0.05522288	-0.1089717	0.3813959	-0.6127703	2.144668
14.43062	0.4105123	0.07252162	-0.04494528	0.5843009	1.185049	3.755518
14.4472	0.3998669	0.09780439	-0.6422982	1.525456	-12.93538	20.38025
14.46517	0.3785762	0.1377245	-1.184726	2.221361	-15.70208	20.14489
14.48254	0.3333333	0.2188955	-2.603908	4.671714	-40.1511	69.32471
14.50161	0.3147039	0.2628077	-0.9772531	2.30353	44.64172	-64.99216
14.51946	0.3040585	0.2814371	-0.5963528	1.043613	10.31862	-34.13128
14.53795	0.3027279	0.2867598	-0.07195138	0.287812	14.42862	-20.79545
14.58075	0.3027279	0.2880905	0	0.03109124	1.173899	-4.188443
14.59816	0.3027279	0.2880905	0	0	0	-0.5164025
14.61473	0.3027279	0.2880905	0	0	0	0
14.63129	0.3027279	0.2880905	0	0	0	0
14.64786	0.3027279	0.2880905	0	0	0	0
14.66452	0.3027279	0.2880905	0	0	0	0
14.68117	0.3027279	0.2880905	0	0	0	0
14.69774	0.3027279	0.2880905	0	0	0	0
14.72604	0.3027279	0.2880905	0	0	0	0
14.74279	0.3027279	0.2880905	0	0	0	0
14.75918	0.3027279	0.2880905	0	0	0	0
14.776	0.3027279	0.2880905	0	0	0	0
14.79231	0.3027279	0.2880905	0	0	0	0
14.80888	0.3027279	0.2880905	0	0	0	0
14.82545	0.3027279	0.2880905	0	0	0	0
14.8427	0.3027279	0.2880905	0	0	0	0
14.85895	0.3027279	0.2880905	0	0	0	0
14.88398	0.3027279	0.2880905	0	0	0	0
14.90055	0.3027279	0.2880905	0	0	0	0
14.91723	0.3027279	0.2880905	0	0	0	0
14.93368	0.3027279	0.2880905	0	0	0	0
14.95025	0.3027279	0.2880905	0	0	0	0
14.96682	0.3027279	0.2880905	0	0	0	0
14.98338	0.3027279	0.2880905	0	0	0	0
14.99995	0.3027279	0.2880905	0	0	0	0
15.01652	0.3027279	0.2880905	0	0	0	0
15.03308	0.3027279	0.2880905	0	0	0	0
15.04975	0.3027279	0.2880905	0	0	0	0
15.06622	0.3027279	0.2880905	0	0	0	0
15.08569	0.3027279	0.2880905	0	0	0	0
15.10226	0.3027279	0.2880905	0	0	0	0
15.11883	0.3027279	0.2880905	0	0	0	0
15.13539	0.3027279	0.2880905	0	0	0	0
15.15196	0.3027279	0.2880905	0	0	0	0
15.16853	0.3027279	0.2880905	0	0	0	0
15.18509	0.3027279	0.2880905	0	0	0	0
15.20166	0.3027279	0.2880905	0	0	0	0
15.21894	0.3027279	0.2880905	0	0	0	0
15.2348	0.3027279	0.2880905	0	0	0	0
15.25136	0.3027279	0.2880905	0	0	0	0
15.26793	0.3027279	0.2880905	0	0	0	0
15.28451	0.3027279	0.2880905	0	0	0	0
15.30153	0.3027279	0.2880905	0	0	0	0
15.31763	0.3027279	0.2880905	0	0	0	0
15.33419	0.3027279	0.2880905	0	0	0	0
15.36619	0.3027279	0.2880905	0	0	0	0
15.38276	0.3027279	0.2880905	0	0	0	0
15.39962	0.3027279	0.2880905	0	0	0	0
15.41673	0.3027279	0.2880905	0	0	0	0
15.43275	0.3027279	0.2880905	0	0	0	0
15.44932	0.3027279	0.2880905	0	0	0	0
15.46588	0.3027279	0.2880905	0	0	0	0
15.48245	0.3027279	0.2880905	0	0	0	0
15.49923	0.3027279	0.2880905	0	0	0	0
15.52042	0.3027279	0.2880905	0	0	0	0
15.53699	0.3027279	0.2880905	0	0	0	0
15.55358	0.3027279	0.2880905	0	0	0	0
15.57061	0.3027279	0.2880905	0	0	0	0
15.58675	0.3027279	0.2880905	0	0	0	0
15.60326	0.3027279	0.2880905	0	0	0	0
15.61982	0.3027279	0.2880905	0	0	0	0
15.63639	0.3027279	0.2880905	0	0	0	0
15.65296	0.3027279	0.2880905	0	0	0	0
15.67427	0.3027279	0.2880905	0	0	0	0
15.69084	0.3027279	0.2880905	0	0	0	0
15.70741	0.3027279	0.2880905	0	0	0	0
15.73323	0.3027279	0.2880905	0	0	0	0
15.7498	0.3027279	0.2880905	0	0	0	0
15.76637	0.3027279	0.2880905	0	0	0	0
15.78293	0.3027279	0.2880905	0	0	0	0
15.7995	0.3027279	0.2880905	0	0	0	0
15.81607	0.3027279	0.2880905	0	0	0	0
15.83709	0.3027279	0.2880905	0	0	0	0
15.85366	0.3027279	0.2880905	0	0	0	0
15.87022	0.3027279	0.2880905	0	0	0	0
15.88901	0.3027279	0.2880905	0	0	0	0
15.90599	0.3027279	0.2880905	0	0	0	0
15.92347	0.3027279	0.2880905	0	0	0	0
15.94068	0.3027279	0.2880905	0	0	0	0
15.9579	0.3027279	0.2880905	0	0	0	0
15.97641	0.3027279	0.2880905	0	0	0	0
16.01256	0.3027279	0.2880905	0	0	0	0
16.02913	0.3107119	0.2840984	0.4818623	-0.2409329	9.140347	-4.570207
16.0459	0.3173653	0.2787758	0.3967996	-0.3174393	-2.551626	-2.294965
16.06227	0.3333333	0.2667997	0.9756275	-0.7317201	17.46906	-12.50302
16.07883	0.3466401	0.253493	0.8031963	-0.8031963	-5.23563	-2.170271
16.0954	0.3572854	0.241517	0.6425552	-0.7228757	-4.848157	2.424079
16.11197	0.3652695	0.233533	0.481975	-0.4819714	-4.846598	7.270924
16.12853	0.3705922	0.2282103	0.3212785	-0.3212785	-4.85011	4.850002
16.1451	0.3745842	0.2228875	0.2409848	-0.3213164	-2.423407	-0.001144148
16.17095	0.3799068	0.2149035	0.2058731	-0.3088107	-0.827728	0.2948095
16.18752	0.3838989	0.2082502	0.2409589	-0.4015972	0.8270793	-2.18726
16.20409	0.3852296	0.2069195	0.08032142	-0.08031962	-4.848048	9.696177
16.22066	0.3878909	0.2055888	0.1606375	-0.08031873	2.423943	2.698308E-05
16.23722	0.3878909	0.2042581	0	-0.08032977	-4.848327	-0.0003332602
16.25379	0.3892216	0.2029275	0.08029369	-0.080291	2.42299	0.001170031
16.27053	0.3892216	0.2015968	0	-0.07952311	-2.410779	0.02305542
16.28692	0.3905522	0.2002661	0.0811682	-0.08117002	2.450225	-0.04971517
16.30349	0.3905522	0.1989355	0	-0.08032887	-2.462703	0.02552083
16.33136	0.3918829	0.1976048	0.04773236	-0.04773236	1.07401	0.7334431
16.34793	0.3932136	0.1936128	0.08030114	-0.2409025	0.7327247	-4.345897
16.3649	0.3945442	0.1922821	0.07842359	-0.07842447	-0.05598129	4.844477
16.39275	0.3945442	0.1882901	0	-0.1433633	-1.750013	-1.449102
16.40943	0.3958749	0.1616766	0.07977773	-1.595553	1.791746	-32.61504
16.42593	0.3958749	0.1390552	0	-1.370482	-2.40396	6.782117
16.44675	0.3932136	0.1151031	-0.1278695	-1.150824	-3.426376	5.885924
16.46332	0.4105123	0.06586827	1.043793	-2.970796	31.33965	-48.68065
16.49156	0.4517631	0.02727878	1.460515	-1.366289	9.29832	35.80132
16.50813	0.4517631	0.02727878	0	0	-32.59122	30.48857
16.52485	0.4517631	0.02727878	0	0	0	0
16.54136	0.4517631	0.02727878	0	0	0	0
16.55783	0.4517631	0.02727878	0	0	0	0
16.5744	0.4517631	0.02727878	0	0	0	0
16.59142	0.4517631	0.02727878	0	0	0	0
16.60753	0.4517631	0.02727878	0	0	0	0
16.62417	0.4517631	0.02727878	0	0	0	0
16.65189	0.4517631	0.02727878	0	0	0	0
16.66854	0.4517631	0.02727878	0	0	0	0
16.68503	0.4517631	0.02727878	0	0	0	0
16.7016	0.4517631	0.02727878	0	0	0	0
16.71817	0.4517631	0.02727878	0	0	0	0
16.73473	0.4517631	0.02727878	0	0	0	0
16.75172	0.4517631	0.02727878	0	0	0	0
16.7679	0.4517631	0.02727878	0	0	0	0
16.78443	0.4371257	0.03127079	-0.8852466	0.2414311	-27.06421	7.381154
16.81304	0.4224883	0.03127079	-0.5116146	0	8.27626	-5.347898
16.82961	0.4025283	0.02727878	-1.204791	-0.2409585	-15.34341	-5.333601
16.84708	0.3892216	0.02461743	-0.7616317	-0.1523264	13.01933	2.603876
16.86274	0.3745842	0.02328676	-0.9346266	-0.08496605	-5.221295	2.033056
16.87937	0.3612775	0.01929474	-0.8005217	-0.2401567	4.153938	-4.807078
16.89588	0.3493014	0.01397206	-0.7253838	-0.3223916	2.267799	-2.481997
16.91245	0.3333333	0.00998004	-0.9637227	-0.2409308	-7.205112	2.462604
16.92901	0.3160346	0.004657352	-1.044152	-0.3212781	-2.427207	-2.424746
16.94558	0.2974052	0.000665336	-1.124475	-0.2409586	-2.42416	2.424047
16.96682	0.2867598	-0.001996008	-0.5012335	-0.1253085	16.48544	3.059074
16.98339	0.2787758	-0.004657351	-0.4818068	-0.160602	0.513805	-0.9334587
16.99996	0.2774451	-0.004657352	-0.08031783	-5.621474E-08	12.11557	4.846419
17.01652	0.2761144	-0.004657352	-0.08032142	2.810737E-08	-0.0001086069	2.544846E-06
17.03885	0.2721224	-0.004657352	-0.1788237	0	-2.53279	-7.227247E-07
17.05542	0.2641384	-0.004657352	-0.4816959	0	-7.786224	0
17.07362	0.2641384	-0.004657352	0	0	13.85112	0
17.09422	0.2601464	-0.004657352	-0.1938473	-2.261189E-08	-4.996646	-5.828488E-07
17.13592	0.2601464	-0.004657352	0	0	3.111622	3.629644E-07
17.15518	0.2707918	0.00332668	0.5528727	0.414654	9.069604	6.802195
17.17264	0.2827678	0.01264138	0.6859177	0.5334922	3.623766	3.236814
17.19331	0.3000665	0.0259481	0.836594	0.6435341	3.950877	2.885404
17.21168	0.3280106	0.04457751	1.521209	1.014139	17.533	9.491199
17.23266	0.342648	0.05655356	0.6977183	0.5708607	-20.92809	-11.26542
17.25177	0.3519627	0.06453759	0.4875793	0.4179247	-5.242606	-3.81549
17.29475	0.3519627	0.06586827	0	0.03096016	-7.853516	-6.232898
17.31131	0.3519627	0.06586827	0	0	0	-0.5199244
17.32788	0.3519627	0.06586827	0	0	0	0
17.34445	0.3519627	0.06586827	0	0	0	0
17.36102	0.3359947	0.05921491	-0.9636118	-0.401505	-29.07851	-12.11605
17.37947	0.2867598	0.03925483	-2.668312	-1.081748	-48.6741	-19.4229
17.4003	0.1470393	0.004657352	-6.708225	-1.661084	-102.8493	-14.7489
17.4186	-0.001996008	-0.01397206	-8.144403	-1.01805	-36.70524	16.43438
17.46049	-0.08582834	-0.01397206	-2.001197	-2.223199E-08	102.0632	16.91389
17.47862	-0.2082502	-0.004657352	-6.751977	0.5137374	-79.15018	8.559102
17.49823	-0.2135729	-0.004657352	-0.2714088	0	171.7043	-13.6116
17.51579	-0.2135729	-0.004657352	0	0	7.301743	0
17.53291	-0.2135729	-0.004657352	0	0	0	0
17.55162	-0.2135729	-0.004657352	0	0	0	0
17.57071	-0.2135729	-0.004657352	0	0	0	0
17.60895	-0.2135729	-0.004657352	0	0	0	0
17.62552	-0.2122422	-0.005988024	0.08031962	-0.08031954	1.465278	-1.465276
17.64209	-0.2109115	-0.005988024	0.08031962	0	0	2.424048
17.65866	-0.2109115	-0.005988024	0	0	-2.424051	0
17.67522	-0.2109115	-0.005988024	0	0	0	0
17.69179	-0.2109115	-0.005988024	0	0	0	0
17.70835	-0.2109115	-0.005988024	0	0	0	0
17.72517	-0.2109115	-0.005988024	0	0	0	0
17.74149	-0.2109115	-0.005988024	0	0	0	0
17.76708	-0.2109115	-0.005988024	0	0	0	0
17.79402	-0.2109115	-0.005988024	0	0	0	0
17.81077	-0.2135728	-0.005988024	-0.1589004	2.780328E-08	-3.637179	6.364081E-07
17.82716	-0.2162342	-0.005988024	-0.1623589	-2.840826E-08	-0.1043593	-1.696175E-06
17.84373	-0.2228875	-0.005988024	-0.4015972	2.810737E-08	-7.258668	1.714726E-06
17.86029	-0.233533	-0.007318696	-0.6426319	-0.08032881	-7.274859	-2.424469
17.87686	-0.2601463	-0.007318696	-1.606388	5.621474E-08	-29.08789	2.42447
17.89343	-0.2974052	-0.007318696	-2.248948	0	-19.39249	-1.696564E-06
17.92171	-0.3293413	-0.007318696	-1.129045	-1.646262E-08	24.96818	-3.670332E-07
17.93829	-0.3399867	-0.007318696	-0.6424073	2.81009E-08	10.84863	9.934569E-07
17.95486	-0.3399867	-0.008649368	-1.798458E-06	-0.08030105	19.38337	-2.422933
17.97142	-0.3399867	-0.008649368	0	0	5.427756E-05	2.42349
17.98799	-0.3399867	-0.008649368	0	0	0	0
18.00455	-0.3399867	-0.008649368	0	0	0	0
18.02112	-0.3399867	-0.008649368	0	0	0	0
18.03769	-0.3399867	-0.008649368	0	0	0	0
18.05425	-0.3399867	-0.008649368	0	0	0	0
18.08276	-0.3399867	-0.008649368	0	0	0	0
18.10119	-0.3399867	-0.008649368	0	0	0	0
18.11783	-0.3399867	-0.008649368	0	0	0	0
18.13478	-0.3399867	-0.008649368	0	0	0	0
18.15207	-0.3399867	-0.008649368	0	0	0	0
18.16917	-0.3399867	-0.008649368	0	0	0	0
18.18521	-0.3399867	-0.008649368	0	0	0	0
18.20177	-0.3399867	-0.008649368	0	0	0	0
18.21871	-0.3399867	-0.008649368	0	0	0	0
18.24302	-0.3399867	-0.008649368	0	0	0	0
18.25959	-0.3013972	-0.02195609	2.328463	-0.8029179	56.95821	-19.64075
18.27616	-0.2694611	-0.02727878	1.927669	-0.321278	-12.0939	14.53341
18.29272	-0.1576846	-0.04457751	6.74684	-1.044154	145.4429	-21.81643
18.30929	-0.0499002	-0.0592149	6.50588	-0.8835149	-7.272162	4.848087
18.32586	0.1044578	-0.06852961	9.317064	-0.5622365	84.8417	9.696203
18.34242	0.1457086	-0.06719894	2.490192	0.08032842	-206.0473	19.39376
18.35899	0.1842981	-0.06187625	2.329266	0.3212783	-4.85706	7.2723
18.37556	0.1909514	-0.05389222	0.4015972	0.4819171	-58.17715	4.848088
18.40298	0.1922821	-0.0499002	0.04852303	0.1455672	-8.026039	-7.645864
18.41955	0.1922821	-0.04324684	-8.991253E-07	0.4014592	-1.102896	5.81615
18.4482	0.1922821	-0.04324684	0	0	1.988277E-05	-8.877652
18.46477	0.1922821	-0.04324684	0	0	0	0
18.48139	0.1909514	-0.04191617	-0.08008911	0.08008911	-2.413343	2.413343
18.49811	0.1856287	-0.03925483	-0.3182729	0.1591365	-7.144397	2.37105
18.51447	0.1669993	-0.03526281	-1.13863	0.2439924	-24.79555	2.564796
18.53104	0.1377245	-0.03127079	-1.76703	0.2409586	-19.08378	-0.09213175
18.55697	0.09115104	-0.02727878	-1.796097	0.1539511	-0.6839628	-2.047349
18.57388	-0.1084498	0.004657352	-11.80599	1.888959	-233.6733	40.50241
18.59011	-0.164338	0.01264138	-3.443593	0.4919418	252.3632	-42.15962
18.60668	-0.2734531	0.02062542	-6.585443	0.4818618	-95.79172	-0.3073289
18.62324	-0.2854291	0.02062542	-0.722873	-1.124295E-07	176.9225	-14.54178
18.63981	-0.2947438	0.02062542	-0.5622374	0	4.847993	3.393129E-06
18.65649	-0.2947438	0.02062542	0	0	16.91286	0
18.67294	-0.2947438	0.02062542	0	0	0	0
18.6896	-0.2947438	0.02062542	0	0	0	0
18.71645	-0.2947438	0.02062542	0	0	0	0
18.73302	-0.2947438	0.02062542	0	0	0	0
18.74958	-0.2947438	0.02062542	0	0	0	0
18.76615	-0.2894212	0.01929474	0.3212397	-0.08031026	9.69615	-2.424048
18.78272	-0.2867598	0.01929474	0.1606595	-1.124424E-07	-4.846319	2.423765
18.79928	-0.2801065	0.01796407	0.4015963	-0.0803194	7.271905	-2.42418
18.81586	-0.2707917	0.01530273	0.5621079	-0.1606022	4.843692	-2.422659
18.83247	-0.2654691	0.01530273	0.3203179	1.12094E-07	-7.285495	4.839186
18.84898	-0.2641384	0.01530273	0.08059049	-5.640306E-08	-7.236237	-5.086128E-06
18.8753	-0.2614771	0.01530273	0.1011378	-3.539296E-08	0.4797889	4.905956E-07
18.89186	-0.2614771	0.01530273	0	0	-2.358568	8.25376E-07
18.90843	-0.2614771	0.01530273	0	0	0	0
18.92501	-0.2614771	0.01530273	0	0	0	0
18.9417	-0.2614771	0.01530273	0	0	0	0
18.95814	-0.2614771	0.01530273	0	0	0	0
18.97488	-0.2588157	0.01530273	0.1589212	0	4.789634	0
18.99127	-0.2282103	0.0166334	1.867992	0.08121726	51.58581	2.451424
19.00783	-0.1310712	0.0166334	5.864	0	121.2769	-2.464905
19.03391	-0.06187624	0.0166334	2.65307	0	-75.29192	0
19.05078	-0.007318696	0.01796407	3.235366	0.07891136	13.55943	1.837543
19.06705	-0.000665336	0.01929474	0.4087984	0.08175967	-85.29615	0.08595234
19.09571	-0.000665336	0.01929474	0	0	-9.098662	-1.819732
19.11228	-0.000665336	0.01929474	0	0	0	0
19.12885	-0.000665336	0.01929474	0	0	0	0
19.14541	-0.000665336	0.01929474	0	0	0	0
19.16198	-0.000665336	0.01929474	0	0	0	0
19.18739	-0.000665336	0.01929474	0	0	0	0
19.20396	-0.000665336	0.01929474	0	0	0	0
19.22053	-0.000665336	0.01929474	0	0	0	0
19.23709	-0.000665336	0.01929474	0	0	0	0
19.25366	-0.000665336	0.01929474	0	0	0	0
19.2703	-0.000665336	0.01929474	0	0	0	0
19.28679	-0.000665336	0.01929474	0	0	0	0
19.30336	-0.000665336	0.01929474	0	0	0	0
19.31993	-0.000665336	0.01929474	0	0	0	0
19.34239	-0.000665336	0.01929474	0	0	0	0
19.35896	-0.000665336	0.01929474	0	0	0	0
19.37552	-0.000665336	0.01929474	0	0	0	0
19.39224	-0.000665336	0.01929474	0	0	0	0
19.40866	-0.000665336	0.01929474	0	0	0	0
19.42522	-0.000665336	0.01929474	0	0	0	0
19.44179	-0.000665336	0.01929474	0	0	0	0
19.45836	-0.000665336	0.01929474	0	0	0	0
19.47493	-0.000665336	0.01929474	0	0	0	0
19.49848	-0.000665336	0.01929474	0	0	0	0
19.51505	-0.000665336	0.01929474	0	0	0	0
19.53229	-0.000665336	0.01929474	0	0	0	0
19.54819	-0.000665336	0.01929474	0	0	0	0
19.56475	-0.000665336	0.01929474	0	0	0	0
19.58138	-0.000665336	0.01929474	0	0	0	0
19.59789	-0.000665336	0.01929474	0	0	0	0
19.61445	-0.000665336	0.01929474	0	0	0	0
19.63115	-0.000665336	0.01929474	0	0	0	0
19.65394	-0.000665336	0.01929474	0	0	0	0
19.67051	-0.000665336	0.01929474	0	0	0	0
19.68708	-0.000665336	0.01929474	0	0	0	0
19.70365	-0.000665336	0.01929474	0	0	0	0
19.72021	-0.000665336	0.01929474	0	0	0	0
19.74765	-0.000665336	0.01929474	0	0	0	0
19.76462	-0.000665336	0.01929474	0	0	0	0
19.78286	-0.000665336	0.01929474	0	0	0	0
19.82112	-0.000665336	0.01929474	0	0	0	0
19.83865	-0.000665336	0.01929474	0	0	0	0
19.85654	-0.000665336	0.01929474	0	0	0	0
19.87479	-0.000665336	0.01929474	0	0	0	0
19.89398	-0.000665336	0.01929474	0	0	0	0
19.91192	-0.000665336	0.01929474	0	0	0	0
19.92915	-0.000665336	0.01929474	0	0	0	0
19.9471	-0.000665336	0.01929474	0	0	0	0
19.97782	-0.000665336	0.01929474	0	0	0	0
19.99474	-0.000665336	0.01929474	0	0	0	0
20.01107	-0.000665336	0.01929474	0	0	0	0
20.02752	-0.001996008	0.01929474	-0.08086883	0	-2.466753	0
20.04425	-0.00332668	0.01929474	-0.07953206	0	0.04028092	0
20.06065	-0.00332668	0.01929474	0	0	2.400559	0
20.07722	-0.005988023	0.01929474	-0.160639	0	-4.872778	0
20.09379	-0.007318696	0.01929474	-0.08031957	0	2.424045	0
20.11036	-0.008649368	0.01929474	-0.08031951	0	1.798872E-06	0
20.13861	-0.008649368	0.01796407	0	-0.04708796	1.791786	-1.050449
20.15518	-0.00998004	0.01796407	-0.08031951	-1.124295E-07	-1.791786	1.050447
20.17175	-0.00998004	0.01796407	0	0	2.424047	3.393129E-06
20.18832	-0.01397206	0.01796407	-0.2409586	1.124295E-07	-7.272146	3.393129E-06
20.20488	-0.02328676	0.01796407	-0.5622366	0	-9.696189	-3.393129E-06
20.22156	-0.04191617	0.01796407	-1.11727	0	-16.69712	0
20.23802	-0.06320692	0.02062542	-1.293301	0.1616628	-5.312327	4.878712
20.25459	-0.1044578	0.02195609	-2.489905	0.0803194	-36.22827	-2.462745
20.27142	-0.1523619	0.0259481	-2.845637	0.2371364	-10.65018	4.69491
20.29528	-0.2228876	0.02994012	-2.956167	0.1673302	-2.716292	-1.715504
20.31187	-0.322688	0.03393213	-6.016345	0.2406538	-75.66209	1.812906
20.32842	-0.3293413	0.03393214	-0.4020147	2.250922E-07	169.4213	-7.262102
20.34498	-0.3359947	0.03393213	-0.4015963	-2.24859E-07	0.01263283	-1.358659E-05
20.36178	-0.3359947	0.03393213	0	0	12.03636	6.739316E-06
20.37817	-0.3359947	0.03393213	0	0	0	0
20.39469	-0.3359947	0.03393213	0	0	0	0
20.41793	-0.3359947	0.03393213	0	0	0	0
20.43871	-0.3359947	0.03393213	0	0	0	0
20.45529	-0.3359947	0.03393213	0	0	0	0
20.47185	-0.3359947	0.03393213	0	0	0	0
20.48842	-0.3359947	0.03393213	0	0	0	0
20.50499	-0.3359947	0.03393213	0	0	0	0
20.52174	-0.3359947	0.03393213	0	0	0	0
20.53812	-0.3359947	0.03393213	0	0	0	0
20.55469	-0.3359947	0.03393213	0	0	0	0
20.57125	-0.3359947	0.03393213	0	0	0	0
20.58782	-0.3359947	0.03393213	0	0	0	0
20.60641	-0.3359947	0.03393213	0	0	0	0
20.62335	-0.3359947	0.03393213	0	0	0	0
20.64015	-0.3359947	0.03393213	0	0	0	0
20.65721	-0.3359947	0.03393213	0	0	0	0
20.67519	-0.3359947	0.03393213	0	0	0	0
20.69492	-0.3359947	0.03393213	0	0	0	0
20.75395	-0.3359947	0.03393213	0	0	0	0
20.7957	-0.330672	0.02994012	0.1274949	-0.09562152	1.2651	-0.9488278
20.81483	-0.3240186	0.02860945	0.3478541	-0.06957092	3.619867	0.4279363
20.83228	-0.3213573	0.02860945	0.1524598	0	-5.34113	1.901731
20.85021	-0.3160346	0.02727878	0.2969365	-0.07423434	4.083417	-2.098122
20.86773	-0.261477	0.02328676	3.11284	-0.2277687	79.42888	-4.330781
20.88431	-0.1909514	0.0166334	4.255463	-0.401459	33.50841	-5.09362
20.9012	-0.1576846	0.01397206	1.968776	-0.1575019	-68.32019	7.288795
20.91744	-0.1111111	0.01131071	2.868649	-0.1639229	27.1598	-0.193796
20.94341	-0.08449768	0.009980041	1.024608	-0.05123034	-43.68771	2.66983
20.95998	-0.08316699	0.00998004	0.08030158	-5.62018E-08	-22.1953	1.204134
20.97655	-0.08316699	0.00998004	0	0	-2.423228	1.695979E-06
20.99312	-0.08316699	0.00998004	0	0	0	0
21.00968	-0.08050565	0.00998004	0.1606577	0	4.848939	0
21.02625	-0.07651364	0.009980041	0.240958	5.621474E-08	2.423605	1.696662E-06
21.0462	-0.07385229	0.00998004	0.1334078	-4.668527E-08	-2.945273	-2.817929E-06
21.06413	-0.06852961	0.00998004	0.2968742	0	4.315597	1.232516E-06
21.1081	-0.06586827	0.00998004	0.06053154	0	-3.818422	0
21.127	-0.04324684	0.005988024	1.196665	-0.2111761	18.07114	-3.358931
21.17226	-0.03260146	0.00332668	0.2351977	-0.05879943	-14.98426	2.374758
21.19076	-0.02461743	0.001996008	0.4315839	-0.07193065	3.080048	-0.2059452
21.20939	-0.02461743	0.001996008	0	0	-11.62288	1.937147
21.22786	-0.02461743	0.001996008	0	0	0	0
21.27089	-0.02461743	0.001996008	0	0	0	0
21.28751	-0.03792415	0.001996008	-0.8009821	0	-13.42922	0
21.30408	-0.05655356	0.001996008	-1.124085	0	-9.736133	0
21.32065	-0.07917499	0.001996008	-1.365275	0	-7.277455	0
21.3393	-0.1057884	0.001996008	-1.426843	0	-1.748054	0
21.35732	-0.1576846	0.001996008	-2.880432	0	-39.64104	0
21.37585	-0.2095808	0.00332668	-2.800098	0.07179739	2.197881	1.964333
21.39692	-0.2388556	0.004657352	-1.389627	0.06316482	35.61763	-0.2179924
21.43939	-0.249501	0.004657352	-0.250628	1.096325E-08	17.9253	-0.9940731
21.46019	-0.2508317	0.004657352	-0.06397581	0	2.949885	-1.732652E-07
21.47815	-0.257485	0.004657352	-0.3705419	-2.593378E-08	-7.910276	-6.691653E-07
21.49965	-0.2654691	0.005988024	-0.3713901	0.06189828	-0.02149882	1.568892
21.51747	-0.2761144	0.005988024	-0.5972428	-2.612527E-08	-5.743689	-1.574143
21.53554	-0.2827678	0.005988024	-0.3681175	2.57641E-08	6.38264	1.445458E-06
21.55538	-0.2894212	0.005988024	-0.3354439	0	0.8619049	-6.796382E-07
21.59849	-0.3067199	0.004657352	-0.4012705	-0.03086698	-1.045789	-0.4903848
21.61853	-0.330672	0.008649369	-1.195298	0.1992163	-12.57397	3.643528
21.63577	-0.3333333	0.00998004	-0.1543299	0.07716566	27.92075	-3.273632
21.65318	-0.334664	0.009980041	-0.07645719	5.351027E-08	2.247481	-2.227073
21.67062	-0.334664	0.009980041	0	0	2.194186	-1.53565E-06
21.68919	-0.334664	0.009980041	0	0	0	0
21.70737	-0.334664	0.009980041	0	0	0	0
21.74948	-0.334664	0.009980041	0	0	0	0
21.76835	-0.334664	0.009980041	0	0	0	0
21.78498	-0.3359947	0.009980041	-0.08000645	0	-2.253488	0
21.80213	-0.338656	0.00998004	-0.1551709	-5.430174E-08	-2.224923	-1.607371E-06
21.82027	-0.3413174	0.01131071	-0.1466743	0.07333704	0.2407284	2.077804
21.83824	-0.3453094	0.01264139	-0.2222307	0.0740769	-2.092511	0.02049012
21.85664	-0.3453094	0.01264139	0	0	6.110709	-2.036903
21.87514	-0.3453094	0.01264139	0	0	0	0
21.91912	-0.3466401	0.01264138	-0.03026052	-2.117898E-08	-0.4843457	-3.389877E-07
21.96266	-0.3466401	0.01264138	0	0	0.3457908	2.420148E-07
21.97971	-0.3466401	0.01264138	0	0	0	0
21.99822	-0.3466401	0.01264138	0	0	0	0
22.0154	-0.3466401	0.01264138	0	0	0	0
22.03458	-0.3466401	0.01264138	0	0	0	0
22.07716	-0.3466401	0.01264138	0	0	0	0
22.09465	-0.3466401	0.01264138	0	0	0	0
22.11429	-0.3466401	0.01264138	0	0	0	0
22.13186	-0.3466401	0.01264138	0	0	0	0
22.14931	-0.3466401	0.01264138	0	0	0	0
22.16693	-0.3466401	0.01264138	0	0	0	0
22.18559	-0.3466401	0.01264138	0	0	0	0
22.2239	-0.3466401	0.01264138	0	0	0	0
22.24119	-0.3466401	0.01264138	0	0	0	0
22.25945	-0.3466401	0.01264138	0	0	0	0
22.27761	-0.3466401	0.01264138	0	0	0	0
22.29703	-0.3466401	0.01264138	0	0	0	0
22.31498	-0.3466401	0.01264138	0	0	0	0
22.33441	-0.3466401	0.01264138	0	0	0	0
22.35205	-0.3067199	-0.007318696	2.262666	-1.131333	61.03248	-30.51625
22.3945	-0.2734531	-0.02328676	0.7838123	-0.3762297	-24.61256	12.56719
22.41468	-0.2228876	-0.04324684	2.505756	-0.9891144	27.49739	-9.787039
22.43196	-0.2175649	-0.04457751	0.308016	-0.077004	-58.66846	24.3487
22.44932	-0.2175649	-0.04457751	0	0	-8.891103	2.222776
22.46712	-0.2175649	-0.04457751	0	0	0	0
22.48459	-0.2175649	-0.04457751	0	0	0	0
22.50606	-0.2135728	-0.04457751	0.1859425	0	4.775518	0
22.5496	-0.1736527	-0.03260146	0.9168816	0.2750646	11.24381	4.231231
22.56705	-0.1443779	-0.02062541	1.677423	0.6862185	12.46967	6.741191
22.58421	-0.1443779	-0.02062541	0	0	-48.46538	-19.82675
22.60313	-0.1443779	-0.02062541	0	0	0	0
22.62028	-0.1443779	-0.02062541	0	0	0	0
22.63722	-0.1443779	-0.02062541	0	0	0	0
22.65518	-0.1443779	-0.02062541	0	0	0	0
22.67353	-0.1457086	-0.01929474	-0.07252979	0.07252878	-1.9974	1.997372
22.71762	-0.1523619	-0.01929474	-0.1509226	0	-1.255664	-1.161737
22.76235	-0.1776447	-0.0166334	-0.5651681	0.05949137	-4.663903	0.6698008
22.78626	-0.2149035	-0.01530273	-1.558135	0.05564778	-14.46475	-0.05599029
22.80773	-0.2202262	-0.01530273	-0.2479013	0	28.8703	-1.226169
22.82635	-0.2255489	-0.01530273	-0.2858368	-5.001344E-08	-0.9462011	-1.247452E-06
22.86379	-0.2322022	-0.01397206	-0.177737	0.03554753	1.928459	0.6341546
22.88122	-0.2654691	-0.01264138	-1.908249	0.07632984	-31.54025	0.7432969
22.90029	-0.2854291	-0.01131071	-1.046692	0.06977949	23.60247	-0.1794479
22.91931	-0.3080506	-0.008649368	-1.189344	0.1399229	-3.745155	1.841529
22.93731	-0.338656	-0.00332668	-1.699975	0.295648	-13.79205	4.20611
22.9559	-0.3532934	-0.001996008	-0.7876649	0.07160581	24.93552	-6.123586
22.97477	-0.3599468	-0.001996008	-0.3525653	0	11.61672	-1.911803
22.99401	-0.3639388	-0.001996008	-0.2075107	0	3.806325	0
23.03519	-0.3639388	-0.001996008	0	0	3.434306	0
23.0533	-0.3639388	-0.001996008	0	0	0	0
23.07122	-0.3639388	-0.001996008	0	0	0	0
23.09033	-0.3639388	-0.001996008	0	0	0	0
23.10773	-0.3639388	-0.001996008	0	0	0	0
23.12509	-0.3639388	-0.001996008	0	0	0	0
23.14307	-0.3639388	-0.001996008	0	0	0	0
23.16038	-0.3639388	-0.001996008	0	0	0	0
23.198	-0.3639388	-0.001996008	0	0	0	0
23.21483	-0.3639388	-0.001996008	0	0	0	0
23.23113	-0.3639388	-0.001996008	0	0	0	0
23.2477	-0.3639388	-0.001996008	0	0	0	0
23.26427	-0.3639388	-0.001996008	0	0	0	0
23.28083	-0.3639388	-0.001996008	0	0	0	0
23.2974	-0.3639388	-0.001996008	0	0	0	0
23.31396	-0.3639388	-0.001996008	0	0	0	0
23.33053	-0.3639388	-0.001996008	0	0	0	0
23.35402	-0.3639388	-0.001996008	0	0	0	0
23.37059	-0.3639388	-0.001996008	0	0	0	0
23.38716	-0.3639388	-0.001996008	0	0	0	0
23.40404	-0.3652695	-0.000665336	-0.07885971	0.07885784	-2.358136	2.35808
23.42029	-0.3666001	-0.000665336	-0.08184428	0	-0.09007964	-2.380071
23.43703	-0.3666001	0.000665336	0	0.07953208	2.480919	2.41083
23.45345	-0.3666001	0.000665336	0	0	0	-2.39904
23.48245	-0.3666001	0.000665336	0	0	0	0
23.51145	-0.3666001	0.000665336	0	0	0	0
23.52802	-0.3666001	0.000665336	0	0	0	0
23.54459	-0.3666001	0.000665336	0	0	0	0
23.56115	-0.3666001	0.000665336	0	0	0	0
23.57772	-0.3666001	0.000665336	0	0	0	0
23.59429	-0.3666001	0.000665336	0	0	0	0
23.61085	-0.3666001	0.000665336	0	0	0	0
23.62779	-0.3666001	0.000665336	0	0	0	0
23.64399	-0.3666001	0.000665336	0	0	0	0
23.66823	-0.3666001	0.000665336	0	0	0	0
23.68515	-0.3666001	0.000665336	0	0	0	0
23.70136	-0.3666001	0.000665336	0	0	0	0
23.71803	-0.3666001	0.000665336	0	0	0	0
23.7345	-0.3666001	0.000665336	0	0	0	0
23.75107	-0.3666001	0.000665336	0	0	0	0
23.76765	-0.3666001	0.000665336	0	0	0	0
23.7842	-0.3666001	0.000665336	0	0	0	0
23.80169	-0.3666001	0.000665336	0	0	0	0
23.83891	-0.3666001	0.000665336	0	0	0	0
23.85655	-0.3666001	0.000665336	0	0	0	0
23.87437	-0.3666001	0.000665336	0	0	0	0
23.89344	-0.3666001	0.000665336	0	0	0	0
23.91052	-0.3666001	0.000665336	0	0	0	0
23.92792	-0.3666001	0.000665336	0	0	0	0
23.94669	-0.3666001	0.000665336	0	0	0	0
23.96423	-0.3666001	0.000665336	0	0	0	0
24.00131	-0.3666001	0.000665336	0	0	0	0
24.01875	-0.3666001	0.000665336	0	0	0	0
24.03532	-0.3666001	0.000665336	0	0	0	0
24.05193	-0.3666001	0.000665336	0	0	0	0
24.06898	-0.3666001	0.000665336	0	0	0	0
24.08536	-0.3666001	0.000665336	0	0	0	0
24.1036	-0.3666001	0.000665336	0	0	0	0
24.12126	-0.3666001	0.000665336	0	0	0	0
24.1584	-0.3666001	0.000665336	0	0	0	0
24.20217	-0.3666001	0.000665336	0	0	0	0
24.22126	-0.3666001	0.000665336	0	0	0	0
24.23876	-0.3666001	0.000665336	0	0	0	0
24.25601	-0.3666001	0.000665336	0	0	0	0
24.27384	-0.3666001	0.000665336	0	0	0	0
24.31561	-0.3666001	0.000665336	0	0	0	0
24.33351	-0.3666001	0.000665336	0	0	0	0
24.35156	-0.3666001	0.000665336	0	0	0	0
24.36966	-0.3666001	0.000665336	0	0	0	0
24.38897	-0.3666001	0.000665336	0	0	0	0
24.40668	-0.3666001	0.000665336	0	0	0	0
24.42331	-0.3666001	0.000665336	0	0	0	0
24.44034	-0.3666001	0.000665336	0	0	0	0
24.46357	-0.3666001	0.000665336	0	0	0	0
24.48014	-0.3666001	0.000665336	0	0	0	0
24.4967	-0.3666001	0.000665336	0	0	0	0
24.51344	-0.3666001	0.000665336	0	0	0	0
24.52995	-0.3666001	0.000665336	0	0	0	0
24.54698	-0.3666001	0.000665336	0	0	0	0
24.56297	-0.3666001	0.000665336	0	0	0	0
24.57954	-0.3666001	0.000665336	0	0	0	0
24.5961	-0.3666001	0.000665336	0	0	0	0
24.6326	-0.3666001	0.000665336	0	0	0	0
24.64945	-0.3666001	0.000665336	0	0	0	0
24.66574	-0.3666001	0.000665336	0	0	0	0
24.68231	-0.3666001	0.000665336	0	0	0	0
24.69887	-0.3666001	0.000665336	0	0	0	0
24.71544	-0.3666001	0.000665336	0	0	0	0
24.73201	-0.3666001	0.000665336	0	0	0	0
24.74858	-0.3666001	0.000665336	0	0	0	0
24.76514	-0.3666001	0.000665336	0	0	0	0
24.78879	-0.3666001	0.000665336	0	0	0	0
24.80536	-0.3666001	0.000665336	0	0	0	0
24.82193	-0.3666001	0.000665336	0	0	0	0
24.83849	-0.3666001	0.000665336	0	0	0	0
24.85506	-0.3666001	0.000665336	0	0	0	0
24.88164	-0.3666001	0.000665336	0	0	0	0
24.8982	-0.3666001	0.000665336	0	0	0	0
24.91478	-0.3666001	0.000665336	0	0	0	0
24.93134	-0.3666001	0.000665336	0	0	0	0
24.95425	-0.3666001	0.000665336	0	0	0	0
24.97083	-0.3666001	0.000665336	0	0	0	0
24.98739	-0.3666001	0.000665336	0	0	0	0
25.00425	-0.3666001	0.000665336	0	0	0	0
25.02144	-0.3666001	0.000665336	0	0	0	0
25.03946	-0.3666001	0.000665336	0	0	0	0
25.05777	-0.3666001	0.000665336	0	0	0	0
25.07673	-0.3666001	0.000665336	0	0	0	0
25.11481	-0.3666001	0.000665336	0	0	0	0
25.13362	-0.3666001	0.000665336	0	0	0	0
25.15047	-0.3666001	0.000665336	0	0	0	0
25.16794	-0.3666001	0.000665336	0	0	0	0
25.18752	-0.3666001	0.000665336	0	0	0	0
25.20567	-0.3666001	0.000665336	0	0	0	0
25.22403	-0.3666001	0.000665336	0	0	0	0
25.24236	-0.3666001	0.000665336	0	0	0	0
25.27946	-0.3666001	0.000665336	0	0	0	0
25.29608	-0.3666001	0.000665336	0	0	0	0
25.31261	-0.3666001	0.000665336	0	0	0	0
25.32916	-0.3666001	0.000665336	0	0	0	0
25.34572	-0.3666001	0.000665336	0	0	0	0
25.36229	-0.3666001	0.000665336	0	0	0	0
25.37886	-0.3666001	0.000665336	0	0	0	0
25.39543	-0.3666001	0.000665336	0	0	0	0
25.41199	-0.3666001	0.000665336	0	0	0	0
25.4366	-0.3666001	0.000665336	0	0	0	0
25.45317	-0.3666001	0.000665336	0	0	0	0
25.46973	-0.3666001	0.000665336	0	0	0	0
25.4863	-0.3666001	0.000665336	0	0	0	0
25.50287	-0.3666001	0.000665336	0	0	0	0
25.51944	-0.3666001	0.000665336	0	0	0	0
25.53601	-0.3666001	0.000665336	0	0	0	0
25.55291	-0.3666001	0.000665336	0	0	0	0
25.58263	-0.3666001	0.000665336	0	0	0	0
25.60803	-0.3666001	0.000665336	0	0	0	0
25.6249	-0.3666001	0.000665336	0	0	0	0
25.64117	-0.3666001	0.000665336	0	0	0	0
25.65773	-0.3666001	0.000665336	0	0	0	0
25.6743	-0.3666001	0.000665336	0	0	0	0
25.69087	-0.3666001	0.000665336	0	0	0	0
25.70744	-0.3666001	0.000665336	0	0	0	0
25.724	-0.3666001	0.000665336	0	0	0	0
25.74127	-0.3666001	0.000665336	0	0	0	0
25.76603	-0.3666001	0.000665336	0	0	0	0
25.78261	-0.3666001	0.000665336	0	0	0	0
25.79917	-0.3666001	0.000665336	0	0	0	0
25.81574	-0.3666001	0.000665336	0	0	0	0
25.83231	-0.3666001	0.000665336	0	0	0	0
25.84888	-0.3639388	0.000665336	0.1606375	-3.513421E-09	4.848048	-1.060353E-07
25.86544	-0.338656	0.007318696	1.526249	0.4016438	41.2166	12.12233
25.88201	-0.2308716	0.03393214	6.506629	1.606575	150.3255	36.3691
25.89869	-0.1709914	0.04856953	3.588761	0.877253	-87.7533	-21.93398
25.92698	0.06586827	0.08316699	8.373181	1.223049	106.3834	7.688898
25.94355	0.4344644	0.1510313	22.24083	4.094882	309.1258	64.01647
25.96012	0.4739715	0.15922	2.384656	0.4942724	-599.1569	-108.6478
25.97669	0.4748334	0.1566308	0.05202337	-0.1562842	-70.399	-19.63384
25.99325	0.4740661	0.1589381	-0.04631555	0.1392695	-2.967874	8.919829
26.00982	0.4728822	0.1624267	-0.07146018	0.2105723	-0.7588664	2.151922
26.02639	0.4727008	0.1629538	-0.01094973	0.03181754	1.826209	-5.39483
26.04295	0.4727102	0.1629266	0.0005668404	-0.001647436	0.3476309	-1.010149
26.05951	0.4739917	0.15916	0.07736039	-0.2273739	2.318168	-6.814006
26.08789	0.476685	0.150902	0.09492857	-0.2910641	0.3909501	-1.417318
26.10446	0.4856376	0.1189795	0.5401963	-1.926179	9.907	-36.38055
26.12103	0.4876066	0.1106334	0.1188497	-0.5037713	-12.71407	42.92094
26.13802	0.4906559	0.09621257	0.1794446	-0.8486577	1.805581	-10.27677
26.15416	0.492661	0.08535305	0.1242319	-0.6728333	-1.66642	5.306695
26.17073	0.4935054	0.08032667	0.05097283	-0.3033932	-2.239843	11.29537
26.18729	0.4940296	0.07703752	0.0316422	-0.1985562	-0.5834332	3.164168
26.20473	0.4951013	0.06981906	0.06146586	-0.4140193	0.8771561	-6.337076
26.23536	0.4959598	0.0634341	0.02802694	-0.2084278	-0.6956442	4.277009
26.26402	0.4979317	0.0454309	0.06881636	-0.6282941	0.6879874	-7.081806
26.28059	0.4996593	0.01845527	0.104253	-1.627878	0.7835605	-22.10238
26.29722	0.4998309	0.01300336	0.01032049	-0.3278323	-2.829188	39.15656
26.31372	0.4999849	0.00387939	0.009334181	-0.552952	-0.02977037	-6.794907
26.33028	0.4999883	-0.003423015	0.0002032725	-0.4407741	-0.2761277	3.392372
26.34685	0.4999126	-0.009346291	-0.004569134	-0.3575297	-0.1440315	2.51232
26.36342	0.4997523	-0.01573843	-0.009678614	-0.385786	-0.1541955	-0.8527285
26.37999	0.4989546	-0.03231631	-0.048145	-1.000643	-1.160851	-18.55534
26.39655	0.4981091	-0.04344375	-0.05103579	-0.6716537	-0.08724415	9.928902
26.42414	0.4974474	-0.050459	-0.02399291	-0.2543575	0.6125576	9.45232
26.44088	0.4967417	-0.05698802	-0.04214069	-0.389918	-0.4094266	-3.058338
26.45727	0.4965295	-0.05880865	-0.01294508	-0.1110699	0.8810747	8.415166
26.47384	0.495854	-0.06425604	-0.04077972	-0.3288428	-0.8445725	-6.607773
26.49041	0.4949472	-0.07090342	-0.05473157	-0.4011904	-0.4210675	-2.183453
26.50697	0.4940983	-0.07659553	-0.05123546	-0.3435764	0.1055065	1.738693
26.52365	0.4938296	-0.07830954	-0.01611646	-0.1027836	1.056427	7.243376
26.54032	0.4937587	-0.07875486	-0.004250801	-0.02671006	0.3558125	2.281196
26.55667	0.4936875	-0.07919998	-0.00435415	-0.02722209	-0.003129523	-0.01550486
26.58517	0.4934834	-0.08046173	-0.007162461	-0.04428138	-0.0626218	-0.3804006
26.60174	0.493018	-0.08326627	-0.02808831	-0.169243	-0.4643489	-2.772923
26.61831	0.4928057	-0.08451335	-0.01281156	-0.07527424	0.461	2.835655
26.63504	0.4926043	-0.08568013	-0.01203937	-0.06973672	0.02319	0.1662993
26.65144	0.4923097	-0.0873562	-0.01795812	-0.1021912	-0.1786384	-0.9795349
26.66812	0.4919314	-0.08946256	-0.0226852	-0.1262964	-0.1429021	-0.7287135
26.68487	0.491347	-0.09261812	-0.03488231	-0.1883449	-0.3648335	-1.855961
26.70114	0.490016	-0.09942032	-0.08182012	-0.4181401	-1.421413	-6.958865
26.7177	0.4895323	-0.1017752	-0.02919569	-0.1421428	1.602693	8.40558
26.7457	0.4891655	-0.1035236	-0.01310298	-0.06245502	0.3611356	1.78827
26.76227	0.4890955	-0.1038535	-0.004219182	-0.01990983	0.1993439	0.9546731
26.77884	0.4890955	-0.1038535	0	0	0.1273205	0.6008105
26.79543	0.4890955	-0.1038535	0	0	0	0
26.81197	0.4889172	-0.1046899	-0.01078736	-0.05058254	-0.3255819	-1.526672
26.82854	0.4886473	-0.1059428	-0.01628878	-0.07562187	-0.1661959	-0.756429
26.8451	0.4882626	-0.1077018	-0.02322343	-0.1061739	-0.2092882	-0.9220623
26.86167	0.4882626	-0.1077018	0	0	0.7008846	3.204335
26.88308	0.4882626	-0.1077018	0	0	0	0
26.90207	0.4882626	-0.1077018	0	0	0	0
26.91864	0.4882422	-0.1077937	-0.001226689	-0.005551129	-0.03449759	-0.1561117
26.93527	0.4882219	-0.1078859	-0.001223979	-0.005540164	8.162917E-05	0.0003302757
26.95186	0.4877327	-0.1100763	-0.02949273	-0.1320601	-0.8510459	-3.808951
26.96834	0.4868104	-0.1140858	-0.05594484	-0.2432184	-0.7998458	-3.361149
26.98491	0.4865178	-0.1153277	-0.01766672	-0.07496213	1.158103	5.090585
27.00148	0.4863935	-0.1158505	-0.007499496	-0.03155761	0.3068474	1.309951
27.01805	0.4863935	-0.1158505	0	0	0.2263353	0.9524105
27.03461	0.4863935	-0.1158505	0	0	0	0
27.05118	0.4864463	-0.1156288	0.003184003	0.01338046	0.0960934	0.403823
27.06995	0.4864223	-0.1157296	-0.001276417	-0.005366033	-0.1262168	-0.5304707
27.08652	0.4864992	-0.1154063	0.004638222	0.01950787	0.1673489	0.7037824
27.10323	0.4864992	-0.1154063	0	0	-0.1393641	-0.5861506
27.11988	0.4865758	-0.1150823	0.004605169	0.01946055	0.1380387	0.5833248
27.13622	0.4867527	-0.1143319	0.01082587	0.04592831	0.188566	0.8023084
27.15291	0.487453	-0.1113082	0.0419625	0.181175	0.9427445	4.094954
27.16936	0.4881628	-0.1081531	0.04315813	0.1918539	0.03608413	0.322289
27.18592	0.4885018	-0.1066112	0.02046576	0.09307227	-0.6873894	-2.992258
27.20249	0.4886702	-0.1058368	0.01016183	0.04673963	-0.3109734	-1.398322
27.22157	0.4888377	-0.1050602	0.008783497	0.04071116	-0.03867082	-0.1691365
27.23814	0.4889312	-0.1046244	0.005638665	0.02629234	-0.08821345	-0.4044521
27.25471	0.4889312	-0.1046244	0	0	-0.1701459	-0.7933675
27.2713	0.4889312	-0.1046244	0	0	0	0
27.28784	0.4891171	-0.1037521	0.01124207	0.05275105	0.3393254	1.592213
27.30441	0.48919	-0.1034079	0.004396442	0.02077922	-0.2067919	-0.9658012
27.32097	0.4894465	-0.1021871	0.01548645	0.0737028	0.3347358	1.597421
27.33754	0.4897006	-0.1009621	0.01533368	0.07391395	-0.004610383	0.006371912
27.35439	0.4897909	-0.1005228	0.005362803	0.02607424	-0.2983287	-1.431364
27.39577	0.4897909	-0.1005228	0	0	-0.09209175	-0.4477551
27.41406	0.4897909	-0.1005228	0	0	0	0
27.43066	0.4897909	-0.1005228	0	0	0	0
27.44793	0.4897909	-0.1005228	0	0	0	0
27.46511	0.4897909	-0.1005228	0	0	0	0
27.48182	0.4897909	-0.1005228	0	0	0	0
27.502	0.4897909	-0.1005228	0	0	0	0
27.53739	0.4897909	-0.1005228	0	0	0	0
27.5808	0.4897909	-0.1005228	0	0	0	0
27.59775	0.4889583	-0.1044979	-0.04912925	-0.2345381	-0.8139378	-3.885657
27.61656	0.4886544	-0.1059096	-0.01615259	-0.07504936	0.9221925	4.460104
27.6362	0.4884426	-0.1068827	-0.01078847	-0.04955353	0.139515	0.6631192
27.65362	0.4880122	-0.1088306	-0.02470509	-0.1118088	-0.3755179	-1.679861
27.69598	0.4875732	-0.1107807	-0.01036203	-0.04603289	0.2399149	1.100227
27.71569	0.4855411	-0.1193727	-0.1031156	-0.435996	-1.494364	-6.282742
27.73283	0.4850848	-0.1212137	-0.02662056	-0.1073862	2.075851	8.917503
27.75001	0.4850848	-0.1212137	0	0	0.7755955	3.12872
27.76753	0.4850848	-0.1212137	0	0	0	0
27.78612	0.4850848	-0.1212137	0	0	0	0
27.80269	0.4850848	-0.1212137	0	0	0	0
27.81925	0.4850848	-0.1212137	0	0	0	0
27.84484	0.4850848	-0.1212137	0	0	0	0
27.90589	0.4849764	-0.1216465	-0.001775002	-0.007090124	-0.02048769	-0.08183666
27.92403	0.4850309	-0.1214292	0.003001143	0.01197747	0.06031156	0.2407792
27.94383	0.486084	-0.1171424	0.05319575	0.2165259	1.322966	5.391228
27.96191	0.4870424	-0.1130917	0.05301092	0.224067	-0.004879862	0.1990984
27.98146	0.4880669	-0.1085853	0.05241419	0.2305518	-0.01586016	0.1723574
28.02658	0.4893592	-0.1026039	0.02864044	0.1325589	-0.367624	-1.515308
28.0453	0.490883	-0.09504674	0.08141305	0.4037641	0.826652	4.248271
28.06259	0.4913125	-0.0928009	0.02484142	0.1298913	-1.571132	-7.606112
28.08043	0.491465	-0.09199037	0.008542157	0.04541026	-0.4638501	-2.404191
28.09896	0.491533	-0.09162603	0.003673821	0.01966476	-0.1338302	-0.7077422
28.11724	0.491533	-0.09162603	0	0	-0.09981036	-0.534252
28.13636	0.4916164	-0.09117755	0.004357855	0.02345464	0.1165165	0.6271094
28.17733	0.4916164	-0.09117755	0	0	-0.07253012	-0.3903682
28.1939	0.4916164	-0.09117755	0	0	0	0
28.21046	0.4916164	-0.09117755	0	0	0	0
28.22703	0.4915174	-0.09170968	-0.005971567	-0.03211606	-0.1802119	-0.9692087
28.24525	0.4913173	-0.09277595	-0.01098822	-0.0585373	-0.1442217	-0.7595736
28.26219	0.4910281	-0.09429416	-0.01706368	-0.08959708	-0.1727944	-0.8833823
28.28017	0.490838	-0.09527895	-0.0105758	-0.05477536	0.1857738	0.9970843
28.29984	0.4906456	-0.09626444	-0.009781159	-0.0501148	0.0211097	0.123808
28.34234	0.4905574	-0.09671322	-0.002075573	-0.01055895	0.1239513	0.6362917
28.384	0.49054	-0.09680176	-0.0004191654	-0.002125154	0.01968035	0.1002049
28.40073	0.4902724	-0.09814774	-0.01600101	-0.08048399	-0.2668684	-1.342042
28.42025	0.4902724	-0.09814774	0	0	0.4414175	2.220299
28.43832	0.4902724	-0.09814774	0	0	0	0
28.4571	0.4902724	-0.09814774	0	0	0	0
28.49828	0.4902724	-0.09814774	0	0	0	0
28.51635	0.4902724	-0.09814774	0	0	0	0
28.53293	0.4902724	-0.09814774	0	0	0	0
28.5495	0.4902724	-0.09814774	0	0	0	0
28.56705	0.4902724	-0.09814774	0	0	0	0
28.5841	0.4902724	-0.09814774	0	0	0	0
28.6028	0.4902724	-0.09814774	0	0	0	0
28.61981	0.4902724	-0.09814774	0	0	0	0
28.65732	0.4902724	-0.09814774	0	0	0	0
28.67505	0.4902724	-0.09814774	0	0	0	0
28.69397	0.4902724	-0.09814774	0	0	0	0
28.71089	0.4902724	-0.09814774	0	0	0	0
28.72889	0.4902724	-0.09814774	0	0	0	0
28.74546	0.4902724	-0.09814774	0	0	0	0
28.76203	0.4902724	-0.09814774	0	0	0	0
28.77859	0.4902724	-0.09814774	0	0	0	0
28.80445	0.4902724	-0.09814774	0	0	0	0
28.82119	0.4903083	-0.09796856	0.002144363	0.01070801	0.05034093	0.2513806
28.83797	0.4903083	-0.09796856	0	0	-0.06398042	-0.3194903
28.85416	0.4903083	-0.09796856	0	0	0	0
28.87072	0.4903083	-0.09796856	0	0	0	0
28.88729	0.4903083	-0.09796856	0	0	0	0
28.91053	0.4903083	-0.09796856	0	0	0	0
28.9343	0.4903083	-0.09796856	0	0	0	0
28.9597	0.4903083	-0.09796856	0	0	0	0
28.97718	0.4903083	-0.09796856	0	0	0	0
28.99375	0	0	-29.58825	5.912033	-868.8192	173.5989
29.01365	0	0	0	0	811.2947	-162.1049
29.03022	0	0	0	0	0	0
29.04679	0	0	0	0	0	0
29.06335	0	0	0	0	0	0
29.07992	0	0	0	0	0	0
29.09649	0	0	0	0	0	0
29.11329	0	0	0	0	0	0
29.12986	0	0	0	0	0	0
29.14643	0	0	0	0	0	0
29.163	0	0	0	0	0	0
29.17957	0	0	0	0	0	0
29.19783	0	0	0	0	0	0
29.21989	0	0	0	0	0	0
29.23709	0	0	0	0	0	0
29.25555	0	0	0	0	0	0
29.29279	0	0	0	0	0	0
29.31156	0	0	0	0	0	0
29.32945	0	0	0	0	0	0
29.34602	0	0	0	0	0	0
29.36259	0	0	0	0	0	0
29.37915	0	0	0	0	0	0
29.39762	0	0	0	0	0	0
29.41469	0	0	0	0	0	0
29.4518	0	0	0	0	0	0
29.46926	0	0	0	0	0	0
29.48952	0	0	0	0	0	0
29.50668	0	0	0	0	0	0
29.52357	0	0	0	0	0	0
29.54049	0	0	0	0	0	0
29.55828	0	0	0	0	0	0
29.57546	0	0	0	0	0	0
29.61375	0	0	0	0	0	0
29.63033	0	0	0	0	0	0
29.64689	0	0	0	0	0	0
29.66346	0	0	0	0	0	0
29.68157	0	0	0	0	0	0
29.72637	0	0	0	0	0	0
29.76476	0	0	0	0	0	0
29.78133	0	0	0	0	0	0
29.7979	0	0	0	0	0	0
29.81447	0	0	0	0	0	0
29.83104	0	0	0	0	0	0
29.8476	0	0	0	0	0	0
29.8644	0	0	0	0	0	0
29.88073	0	0	0	0	0	0
29.8973	0	0	0	0	0	0
29.9203	0	0	0	0	0	0
29.93687	0	0	0	0	0	0
29.95343	0	0	0	0	0	0
29.97	0	0	0	0	0	0
29.98657	0	0	0	0	0	0
30.0035	0	0	0	0	0	0
30.0197	0	0	0	0	0	0
30.03627	0	0	0	0	0	0
30.05283	0	0	0	0	0	0
30.07539	0	0	0	0	0	0
30.09196	0	0	0	0	0	0
30.10853	0	0	0	0	0	0
30.12543	0	0	0	0	0	0
30.14175	0	0	0	0	0	0
30.15823	0	0	0	0	0	0
30.17495	0	0	0	0	0	0
30.19136	0	0	0	0	0	0
30.20793	0	0	0	0	0	0
30.23061	0	0	0	0	0	0
30.24721	0	0	0	0	0	0
30.26375	0	0	0	0	0	0
30.28081	0	0	0	0	0	0
30.29688	0	0	0	0	0	0
30.31344	0	0	0	0	0	0
30.33024	0	0	0	0	0	0
30.34658	0	0	0	0	0	0
30.36315	0	0	0	0	0	0
30.40146	0	0	0	0	0	0
30.41806	0	0	0	0	0	0
30.4346	0	0	0	0	0	0
30.45117	0	0	0	0	0	0
30.46774	0	0	0	0	0	0
30.4847	0	0	0	0	0	0
30.50091	0	0	0	0	0	0
30.51744	0	0	0	0	0	0
30.53807	0	0	0	0	0	0
30.55464	0	0	0	0	0	0
30.57121	0	0	0	0	0	0
30.58781	0	0	0	0	0	0
30.60434	0	0	0	0	0	0
30.62091	0	0	0	0	0	0
30.63748	0	0	0	0	0	0
30.65404	0	0	0	0	0	0
30.67123	0	0	0	0	0	0
30.69315	0	0	0	0	0	0
30.70973	0	0	0	0	0	0
30.72629	0	0	0	0	0	0
30.74286	0	0	0	0	0	0
30.75943	0	0	0	0	0	0
30.77599	0	0	0	0	0	0
30.7926	0	0	0	0	0	0
30.80913	0	0	0	0	0	0
30.82613	0	0	0	0	0	0
30.84747	0	0	0	0	0	0
30.86404	0	0	0	0	0	0
30.88061	0	0	0	0	0	0
30.89717	0	0	0	0	0	0
30.91374	0	0	0	0	0	0
30.93031	0	0	0	0	0	0
30.94692	0	0	0	0	0	0
30.96344	0	0	0	0	0	0
30.98001	0	0	0	0	0	0
31.00209	0	0	0	0	0	0
31.02829	0	0	0	0	0	0
31.04486	0	0	0	0	0	0
31.06143	0	0	0	0	0	0
31.078	0	0	0	0	0	0
31.09456	0	0	0	0	0	0
31.11113	0	0	0	0	0	0
31.12769	0	0	0	0	0	0
31.14439	0	0	0	0	0	0
31.16544	0	0	0	0	0	0
31.18203	0	0	0	0	0	0
31.19857	0	0	0	0	0	0
31.21514	0	0	0	0	0	0
31.23171	0	0	0	0	0	0
31.24827	0	0	0	0	0	0
31.26484	0	0	0	0	0	0
31.28141	0	0	0	0	0	0
31.29813	0	0	0	0	0	0
31.31926	0	0	0	0	0	0
31.33583	0	0	0	0	0	0
31.35267	0	0	0	0	0	0
31.36896	0	0	0	0	0	0
31.38553	0	0	0	0	0	0
31.4021	0	0	0	0	0	0
31.4193	0	0	0	0	0	0
31.43603	0	0	0	0	0	0
31.4544	0	0	0	0	0	0
31.4907	0	0	0	0	0	0
31.51016	0	0	0	0	0	0
31.52784	0	0	0	0	0	0
31.5457	0	0	0	0	0	0
31.56254	0	0	0	0	0	0
31.5797	0	0	0	0	0	0
31.59857	0	0	0	0	0	0
31.61768	0	0	0	0	0	0
31.65541	0	0	0	0	0	0
31.67261	0	0	0	0	0	0
31.71981	0	0	0	0	0	0
31.73863	0	0	0	0	0	0
31.75574	0	0	0	0	0	0
31.77235	0	0	0	0	0	0
31.80076	0	0	0	0	0	0
31.81733	0	0	0	0	0	0
31.834	0	0	0	0	0	0
31.85047	0	0	0	0	0	0
31.86703	0	0	0	0	0	0
31.8836	0	0	0	0	0	0
31.90017	0	0	0	0	0	0
31.91674	0	0	0	0	0	0
31.93343	0	0	0	0	0	0
32.02121	0	0	0	0	0	0
32.03915	0	0	0	0	0	0
32.05796	0	0	0	0	0	0
32.07529	0	0	0	0	0	0
32.09454	0	0	0	0	0	0
32.1282	0	0	0	0	0	0
32.14563	0	0	0	0	0	0
32.16282	0	0	0	0	0	0
32.17939	0	0	0	0	0	0
32.19616	0	0	0	0	0	0
32.21252	0	0	0	0	0	0
32.22909	0	0	0	0	0	0
32.24566	0	0	0	0	0	0
32.26222	0	0	0	0	0	0
32.28502	0	0	0	0	0	0
32.30158	0	0	0	0	0	0
32.31815	0	0	0	0	0	0
32.33472	0	0	0	0	0	0
32.35128	0	0	0	0	0	0
32.36785	0	0	0	0	0	0
32.38445	0	0	0	0	0	0
32.40099	0	0	0	0	0	0
32.41755	0	0	0	0	0	0
32.44051	0	0	0	0	0	0
32.46186	0	0	0	0	0	0
32.47844	0	0	0	0	0	0
32.495	0	0	0	0	0	0
32.51157	0	0	0	0	0	0
32.52814	0	0	0	0	0	0
32.54485	0	0	0	0	0	0
32.56127	0	0	0	0	0	0
32.57784	0	0	0	0	0	0
32.59567	0	0	0	0	0	0
32.61224	0	0	0	0	0	0
32.62918	0	0	0	0	0	0
32.64538	0	0	0	0	0	0
32.66195	0	0	0	0	0	0
32.67851	0	0	0	0	0	0
32.69508	0	0	0	0	0	0
32.71165	0	0	0	0	0	0
32.72821	0	0	0	0	0	0
32.74686	0	0	0	0	0	0
32.76347	0	0	0	0	0	0
32.78054	0	0	0	0	0	0
32.7966	0	0	0	0	0	0
32.81317	0	0	0	0	0	0
32.82973	0	0	0	0	0	0
32.8463	0	0	0	0	0	0
32.86287	0	0	0	0	0	0
32.87944	0	0	0	0	0	0
32.90403	0	0	0	0	0	0
32.9206	0	0	0	0	0	0
32.93718	0	0	0	0	0	0
32.95374	0	0	0	0	0	0
32.9703	0	0	0	0	0	0
32.98687	0	0	0	0	0	0
33.00344	0	0	0	0	0	0
33.02041	0	0	0	0	0	0
33.03664	0	0	0	0	0	0
33.05971	0	0	0	0	0	0
33.08777	0	0	0	0	0	0
33.10434	0	0	0	0	0	0
33.12091	0	0	0	0	0	0
33.13773	0	0	0	0	0	0
33.15405	0	0	0	0	0	0
33.17061	0	0	0	0	0	0
33.18718	0	0	0	0	0	0
33.20937	0	0	0	0	0	0
33.22612	0	0	0	0	0	0
33.2425	0	0	0	0	0	0
33.25907	0	0	0	0	0	0
33.27564	0	0	0	0	0	0
33.2922	0	0	0	0	0	0
33.30877	0	0	0	0	0	0
33.32534	0	0	0	0	0	0
33.342	0	0	0	0	0	0
33.36542	0	0	0	0	0	0
33.38203	0	0	0	0	0	0
33.39861	0	0	0	0	0	0
33.41512	0	0	0	0	0	0
33.43169	0	0	0	0	0	0
33.44826	0	0	0	0	0	0
33.46482	0	0	0	0	0	0
33.48139	0	0	0	0	0	0
33.49796	0	0	0	0	0	0
33.52069	0	0	0	0	0	0
33.53726	0	0	0	0	0	0
33.55383	0	0	0	0	0	0
33.57039	0	0	0	0	0	0
33.58704	0	0	0	0	0	0
33.60381	0	0	0	0	0	0
33.62009	0	0	0	0	0	0
33.63666	0	0	0	0	0	0
33.65322	0	0	0	0	0	0
33.67646	0	0	0	0	0	0
33.69569	0	0	0	0	0	0
33.71226	0	0	0	0	0	0
33.7542	0	0	0	0	0	0
33.7887	0	0	0	0	0	0
33.81754	0	0	0	0	0	0
33.84059	0	0	0	0	0	0
33.86159	0	0	0	0	0	0
33.91539	-0.003000022	0	-0.05576387	0	-0.7454823	0
33.93888	-0.02000004	0	-0.7238025	0	-8.643747	0
33.96286	-0.02700004	0	-0.2919197	0	9.098729	0
33.98717	-0.03400004	0	-0.2878444	0	0.08437944	0
34.03631	-0.03699997	0	-0.06105714	0	3.087557	0
34.05662	-0.04800003	0	-0.5415209	0	-6.918467	0
34.07327	-0.04800003	0	0	0	14.64979	0
34.08976	-0.04800003	0	0	0	0	0
34.10633	-0.04800003	0	0	0	0	0
34.16113	-0.04800003	0	0	0	0	0
34.22914	0.003000022	0	0.7499079	0	6.106226	0
34.25341	0.102	0	4.078619	0	36.07134	0
34.26998	0.115	0	0.7846791	0	-80.65446	0
34.28667	0.115	0	0	0	-23.59203	0
34.30311	0.115	0	0	0	0	0
34.31968	0.115	0	0	0	0	0
34.33886	0.115	0	0	0	0	0
34.35565	0.115	0	0	0	0	0
34.40366	0.112	0	-0.0624851	0	-0.9641588	0
34.42659	0.06799999	0	-1.919189	0	-26.17358	0
34.44316	0.04100003	0	-1.629721	0	7.329515	0
34.45972	0.03699997	0	-0.2414439	0	41.89828	0
34.47629	0.03400004	0	-0.1810767	0	1.821886	0
34.4973	0.03400004	0	0	0	4.819592	0
34.51386	0.02700004	0	-0.4225208	0	-11.24594	0
34.53051	0.02700004	0	0	0	12.71949	0
34.55069	0.02400002	0	-0.148693	0	-4.0376	0
34.56726	0.02400002	0	0	0	4.046822	0
34.58416	0.02400002	0	0	0	0	0
34.60091	0.02400002	0	0	0	0	0
34.61696	0.02400002	0	0	0	0	0
34.63561	0.03400004	0	0.5360829	0	15.44805	0
34.65218	0.06099999	0	1.62972	0	31.05064	0
34.75498	0.08100003	0	0.1945486	0	-12.02293	0
34.79494	0.109	0	0.7007188	0	3.545572	0
34.82002	0.05099997	0	-2.312803	0	-46.33566	0
34.84266	-0.01700002	0	-3.004009	0	-14.48637	0
34.85922	-0.05099997	0	-2.052241	0	24.27754	0
34.87579	-0.05099997	0	0	0	61.93676	0
34.89236	-0.05099997	0	0	0	0	0
34.90892	-0.05099997	0	0	0	0	0
34.92549	-0.05099997	0	0	0	0	0
34.94206	-0.05099997	0	0	0	0	0
34.95863	-0.05099997	0	0	0	0	0
34.98707	-0.04399997	0	0.2461114	0	5.467975	0
35.00364	-0.01399999	0	1.810385	0	34.75128	0
35.02021	0	0	0.8450414	0	-29.13079	0
35.03688	0.003000022	0	0.1800041	0	-20.01097	0
35.05337	0.003000022	0	0	0	-5.428784	0
35.06991	0.003000022	0	0	0	0	0
35.08648	0.003000022	0	0	0	0	0
35.10304	0.003000022	0	0	0	0	0
35.11961	0.003000022	0	0	0	0	0
35.14575	0.003000022	0	0	0	0	0
35.16232	0.003000022	0	0	0	0	0
35.17889	0.003000022	0	0	0	0	0
35.21547	0.003000022	0	0	0	0	0
35.24414	-0.01399999	0	-0.5929288	0	-9.085914	0
35.30162	-0.02000004	0	-0.1043852	0	5.670775	0
35.33	-0.04800003	0	-0.9866958	0	-10.27647	0
35.35543	-0.06799999	0	-0.7863911	0	3.722435	0
35.37247	-0.09500002	0	-1.585195	0	-18.81079	0
35.38857	-0.129	0	-2.111558	0	-15.88565	0
35.40514	-0.156	0	-1.629726	0	14.74888	0
35.4217	-0.177	0	-1.267561	0	10.93014	0
35.43871	-0.187	0	-0.5880317	0	20.24027	0
35.45484	-0.197	0	-0.6200174	0	-0.9653304	0
35.47141	-0.204	0	-0.4225208	0	6.040433	0
35.48797	-0.207	0	-0.1810798	0	7.286703	0
35.50454	-0.21	0	-0.1810816	0	-5.441587E-05	0
35.52111	-0.21	0	0	0	5.464425	0
35.53768	-0.214	0	-0.2414383	0	-7.285783	0
35.5544	-0.221	0	-0.4185693	0	-5.32071	0
35.58886	-0.224	0	-0.08706272	0	6.477041	0
35.60543	-0.227	0	-0.1810399	0	-1.841636	0
35.622	-0.231	0	-0.2414392	0	-1.822642	0
35.63881	-0.234	-4.060889E-08	-0.1784924	-2.416109E-06	1.886057	-7.239324E-05
35.65513	-0.238	-4.060889E-08	-0.2449931	-2.175987E-13	-2.006994	7.29183E-05
35.6718	-0.238	-4.060889E-08	0	0	7.425536	6.595237E-12
35.68827	-0.238	-4.060889E-08	0	0	0	0
35.70483	-0.238	-4.060889E-08	0	0	0	0
35.72165	-0.238	-4.060889E-08	0	0	0	0
35.73797	-0.241	-4.060889E-08	-0.18379	2.176496E-13	-5.546794	6.568677E-12
35.75455	-0.244	-4.060889E-08	-0.1808716	-2.141956E-13	0.08868098	-1.312225E-11
35.7711	-0.248	-4.060889E-08	-0.241775	2.147389E-13	-1.83828	1.294676E-11
35.78767	-0.251	-4.060889E-08	-0.1810372	0	1.834125	-6.484565E-12
35.80423	-0.251	-4.060889E-08	0	0	5.463715	0
35.82081	-0.255	-4.060889E-08	-0.2412743	0	-7.279996	0
35.83747	-0.255	-4.060889E-08	0	0	7.259108	0
35.85404	-0.255	-4.060889E-08	0	0	0	0
35.87952	-0.258	-4.060889E-08	-0.1177466	0	-2.800197	0
35.9095	-0.272	-4.060889E-08	-0.4669241	0	-6.29581	0
35.92607	-0.285	-4.060889E-08	-0.7844998	0	-6.821581	0
35.94273	-0.292	-4.060889E-08	-0.420295	0	10.96144	0
35.95921	-0.302	-4.060889E-08	-0.6069565	0	-5.634106	0
35.97577	-0.312	-4.060889E-08	-0.6036024	-2.144422E-13	0.1015084	-6.489811E-12
35.99234	-0.316	-4.060888E-08	-0.2414374	4.288844E-13	10.93016	1.941564E-11
36.00891	-0.316	-4.060888E-08	0	0	7.286594	-1.294376E-11
36.02547	-0.319	-4.060889E-08	-0.1811251	-4.289832E-13	-5.466997	-1.294823E-11
36.04204	-0.323	-4.060889E-08	-0.2413818	2.143929E-13	-1.81855	1.941713E-11
36.05868	-0.326	-4.060888E-08	-0.1803342	2.135571E-13	1.838398	-2.516774E-14
36.08588	-0.329	-4.060889E-08	-0.1102678	-1.305837E-13	1.598147	-7.849512E-12
36.10253	-0.346	-4.060889E-08	-1.021418	-2.134592E-13	-20.77881	-1.889981E-12
36.12783	-0.35	-4.060889E-08	-0.158085	1.404074E-13	20.5818	8.436161E-12
36.14494	-0.356	-4.060889E-08	-0.3507732	-2.076991E-13	-4.543677	-8.208512E-12
36.16096	-0.356	-4.060889E-08	0	0	10.58636	6.26837E-12
36.17759	-0.356	-4.060889E-08	0	0	0	0
36.1941	-0.356	-4.060889E-08	0	0	0	0
36.21077	-0.356	-4.060889E-08	0	0	0	0
36.22746	-0.356	-4.060889E-08	0	0	0	0
36.24464	-0.356	-4.060889E-08	0	0	0	0
36.2604	-0.356	-4.060889E-08	0	0	0	0
36.28798	-0.356	-4.060889E-08	0	0	0	0
36.30455	-0.356	-4.060889E-08	0	0	0	0
36.32112	-0.356	-4.060889E-08	0	0	0	0
36.33775	-0.356	-4.060889E-08	0	0	0	0
36.35426	-0.356	-4.060889E-08	0	0	0	0
36.37082	-0.356	-4.060889E-08	0	0	0	0
36.38739	-0.356	-4.060889E-08	0	0	0	0
36.40396	-0.356	-4.060889E-08	0	0	0	0
36.42052	-0.356	-4.060889E-08	0	0	0	0
36.44827	-0.356	-4.060889E-08	0	0	0	0
36.46484	-0.356	-4.060889E-08	0	0	0	0
36.4814	-0.356	-4.060889E-08	0	0	0	0
36.49797	-0.356	-4.060889E-08	0	0	0	0
36.51487	-0.356	-4.060889E-08	0	0	0	0
36.5311	-0.356	-4.060889E-08	0	0	0	0
36.54831	-0.356	-4.060889E-08	0	0	0	0
36.56423	-0.356	-4.060889E-08	0	0	0	0
36.58082	-0.356	-4.060889E-08	0	0	0	0
36.6102	-0.356	-4.060889E-08	0	0	0	0
36.88243	-0.356	-4.060889E-08	0	0	0	0
36.92789	-0.356	-4.060889E-08	0	0	0	0
36.95712	-0.356	-4.060889E-08	0	0	0	0
36.9761	-0.356	-4.060889E-08	0	0	0	0
37.01897	-0.356	-4.060889E-08	0	0	0	0
37.03611	-0.356	-4.060889E-08	0	0	0	0
37.06926	-0.356	-4.060889E-08	0	0	0	0
37.08616	-0.356	-4.060889E-08	0	0	0	0
37.10267	-0.356	-4.060889E-08	0	0	0	0
37.11896	-0.356	-4.060889E-08	0	0	0	0
37.13553	-0.356	-4.060889E-08	0	0	0	0
37.1521	-0.356	-4.060889E-08	0	0	0	0
37.16869	-0.356	-4.060889E-08	0	0	0	0
37.18916	-0.356	-4.060889E-08	0	0	0	0
37.23308	-0.356	-4.060889E-08	0	0	0	0
37.24988	-0.356	-4.060889E-08	0	0	0	0
37.26645	-0.356	-4.060889E-08	0	0	0	0
37.28302	-0.356	-4.060889E-08	0	0	0	0
37.29958	-0.356	-4.060889E-08	0	0	0	0
37.31615	-0.356	-4.060889E-08	0	0	0	0
37.33363	-0.356	-4.060889E-08	0	0	0	0
37.35065	-0.356	-4.060889E-08	0	0	0	0
37.39113	-0.356	-4.060889E-08	0	0	0	0
37.40809	-0.356	-4.060889E-08	0	0	0	0
37.42427	-0.356	-4.060889E-08	0	0	0	0
37.44123	-0.356	-4.060889E-08	0	0	0	0
37.45743	-0.356	-4.060889E-08	0	0	0	0
37.47398	-0.356	-4.060889E-08	0	0	0	0
37.4927	-0.356	-4.060889E-08	0	0	0	0
37.50969	-0.356	-4.060889E-08	0	0	0	0
37.54797	-0.356	-4.060889E-08	0	0	0	0
37.56454	-0.356	-4.060889E-08	0	0	0	0
37.58123	-0.356	-4.060889E-08	0	0	0	0
37.59767	-0.356	-4.060889E-08	0	0	0	0
37.6145	-0.356	-4.060889E-08	0	0	0	0
37.63081	-0.356	-4.060889E-08	0	0	0	0
37.64737	-0.356	-4.060889E-08	0	0	0	0
37.66394	-0.356	-4.060889E-08	0	0	0	0
37.68051	-0.356	-4.060889E-08	0	0	0	0
37.70853	-0.356	-4.060889E-08	0	0	0	0
37.73828	-0.356	-4.060889E-08	0	0	0	0
37.75485	-0.356	-4.060889E-08	0	0	0	0
37.77142	-0.356	-4.060889E-08	0	0	0	0
37.78842	-0.356	-4.060889E-08	0	0	0	0
37.80456	-0.356	-4.060889E-08	0	0	0	0
37.8212	-0.356	-4.060889E-08	0	0	0	0
37.83768	-0.356	-4.060889E-08	0	0	0	0
37.86288	-0.356	-4.060889E-08	0	0	0	0
37.87946	-0.356	-4.060889E-08	0	0	0	0
37.89602	-0.356	-4.060889E-08	0	0	0	0
37.91259	-0.356	-4.060889E-08	0	0	0	0
37.92916	-0.356	-4.060889E-08	0	0	0	0
37.94572	-0.356	-4.060889E-08	0	0	0	0
37.96229	-0.356	-4.060889E-08	0	0	0	0
37.9789	-0.356	-4.060889E-08	0	0	0	0
37.99548	-0.356	-4.060889E-08	0	0	0	0
38.02038	-0.356	-4.060889E-08	0	0	0	0
38.03695	-0.356	-4.060889E-08	0	0	0	0
38.05352	-0.356	-4.060889E-08	0	0	0	0
38.07009	-0.356	-4.060889E-08	0	0	0	0
38.08665	-0.356	-4.060889E-08	0	0	0	0
38.10322	-0.356	-4.060889E-08	0	0	0	0
38.12011	-0.356	-4.060889E-08	0	0	0	0
38.13635	-0.356	-4.060889E-08	0	0	0	0
38.15292	-0.356	-4.060889E-08	0	0	0	0
38.17011	-0.356	-4.060889E-08	0	0	0	0
38.18715	-0.356	-4.060889E-08	0	0	0	0
38.2038	-0.356	-4.060889E-08	0	0	0	0
38.21981	-0.356	-4.060889E-08	0	0	0	0
38.23638	-0.356	-4.060889E-08	0	0	0	0
38.25295	-0.356	-4.060889E-08	0	0	0	0
38.26952	-0.356	-4.060889E-08	0	0	0	0
38.28608	-0.356	-4.060889E-08	0	0	0	0
38.30302	-0.356	-4.060889E-08	0	0	0	0
38.31921	-0.356	-4.060889E-08	0	0	0	0
38.34823	-0.356	-4.060889E-08	0	0	0	0
38.37481	-0.356	-4.060889E-08	0	0	0	0
38.39137	-0.356	-4.060889E-08	0	0	0	0
38.40794	-0.356	-4.060889E-08	0	0	0	0
38.42463	-0.356	-4.060889E-08	0	0	0	0
38.44107	-0.356	-4.060889E-08	0	0	0	0
38.45766	-0.356	-4.060889E-08	0	0	0	0
38.47482	-0.356	-4.060889E-08	0	0	0	0
38.51707	-0.356	-4.060889E-08	0	0	0	0
38.53413	-0.356	-4.060889E-08	0	0	0	0
38.55194	-0.356	-4.060889E-08	0	0	0	0
38.56851	-0.356	-4.060889E-08	0	0	0	0
38.58793	-0.356	-4.060889E-08	0	0	0	0
38.60555	-0.356	-4.060889E-08	0	0	0	0
38.62428	-0.356	-4.060889E-08	0	0	0	0
38.6415	-0.356	-4.060889E-08	0	0	0	0
38.68573	-0.356	-4.060889E-08	0	0	0	0
38.7023	-0.356	-4.060889E-08	0	0	0	0
38.71921	-0.356	-4.060889E-08	0	0	0	0
38.73543	-0.356	-4.060889E-08	0	0	0	0
38.752	-0.356	-4.060889E-08	0	0	0	0
38.76857	-0.356	-4.060889E-08	0	0	0	0
38.78513	-0.356	-4.060889E-08	0	0	0	0
38.8017	-0.356	-4.060889E-08	0	0	0	0
38.82764	-0.356	-4.060889E-08	0	0	0	0
38.84422	-0.356	-4.060889E-08	0	0	0	0
38.86084	-0.356	-4.060889E-08	0	0	0	0
38.87735	-0.356	-4.060889E-08	0	0	0	0
38.89391	-0.356	-4.060889E-08	0	0	0	0
38.91082	-0.356	-4.060889E-08	0	0	0	0
38.92705	-0.356	-4.060889E-08	0	0	0	0
38.94384	-0.356	-4.060889E-08	0	0	0	0
38.96018	-0.356	-4.060889E-08	0	0	0	0
38.98579	-0.356	-4.060889E-08	0	0	0	0
39.0032	-0.356	-4.060889E-08	0	0	0	0
39.01893	-0.356	-4.060889E-08	0	0	0	0
39.0355	-0.356	-4.060889E-08	0	0	0	0
39.05207	-0.356	-4.060889E-08	0	0	0	0
39.07904	-0.356	-4.060889E-08	0	0	0	0
39.09562	-0.356	-4.060889E-08	0	0	0	0
39.11229	-0.356	-4.060889E-08	0	0	0	0
39.14006	-0.356	-4.060889E-08	0	0	0	0
39.1567	-0.356	-4.060889E-08	0	0	0	0
39.17319	-0.356	-4.060889E-08	0	0	0	0
39.19001	-0.356	-4.060889E-08	0	0	0	0
39.20633	-0.356	-4.060889E-08	0	0	0	0
39.2514	-0.356	-4.060889E-08	0	0	0	0
39.27116	-0.336	-4.060889E-08	1.01214	1.79792E-13	15.61202	2.773251E-12
39.29706	-0.319	-4.060889E-08	0.6563236	-1.371609E-13	-7.792399	-6.941295E-12
39.31445	-0.309	-4.060889E-08	0.5751306	0	-1.875596	3.16848E-12
39.3386	-0.302	-4.060889E-08	0.2897991	1.470819E-13	-6.868497	3.540554E-12
39.3653	-0.292	-4.060889E-08	0.3744922	0	1.665301	-2.892037E-12
39.3895	-0.282	-4.060889E-08	0.4133455	0	0.7633917	0
39.40749	-0.278	-4.060889E-08	0.2222506	-1.973977E-13	-4.529332	-4.678719E-12
39.42498	-0.272	-4.060889E-08	0.3430446	2.031238E-13	3.403787	1.128607E-11
39.46332	-0.268	-4.060889E-08	0.1043361	0	-4.275776	-3.63838E-12
39.48049	-0.261	-4.060889E-08	0.4077795	0	5.467069	0
39.49833	-0.258	-4.060889E-08	0.1681859	0	-6.844814	0
39.52031	-0.255	-4.060889E-08	0.1364619	0	-0.796655	0
39.54239	-0.244	-4.060889E-08	0.4982001	-1.609058E-13	8.209463	-3.651674E-12
39.55972	-0.231	0	0.7499725	2.342733E-06	6.387981	5.943993E-05
39.57769	-0.221	0	0.5566883	0	-5.475876	-6.637126E-05
39.59769	-0.207	0	0.6999832	0	3.774507	0
39.62378	-0.18	0	1.034626	0	7.259575	0
39.64941	-0.143	0	1.443998	0	7.915195	0
39.66597	-0.112	0	1.871164	0	10.1247	0
39.71144	-0.08799998	0	0.5278069	0	-21.65364	0
39.73803	-0.02000004	0	2.558234	0	28.18003	0
39.7699	-0.006999997	0	0.4078854	0	-36.78791	0
39.79029	0	0	0.3433129	0	-1.23557	0
39.80686	0	0	0	0	-9.287659	0
39.82347	0	0	0	0	0	0
39.84004	0	0	0	0	0	0
39.85656	0	0	0	0	0	0
39.87313	0	0	0	0	0	0
39.88981	0	0	0	0	0	0
39.90626	0	0	0	0	0	0
39.92852	0	0	0	0	0	0
39.94513	0	0	0	0	0	0
39.96166	0	0	0	0	0	0
39.97823	0	0	0	0	0	0
39.99686	0	0	0	0	0	0
40.01343	0	0	0	0	0	0
40.02999	0	0	0	0	0	0
40.04656	0	0	0	0	0	0
40.06401	0	0	0	0	0	0
40.10511	0	0	0	0	0	0
40.12509	0	0	0	0	0	0
40.14246	0	0	0	0	0	0
40.15981	0	0	0	0	0	0
40.17707	0	0	0	0	0	0
40.19601	0	0	0	0	0	0
40.2146	0	0	0	0	0	0
40.26384	0	0	0	0	0	0
40.29959	0	0	0	0	0	0
40.31621	0	0	0	0	0	0
40.33273	0	0	0	0	0	0
40.3493	0	0	0	0	0	0
40.36586	0	0	0	0	0	0
40.38443	0	0	0	0	0	0
40.4137	0	0	0	0	0	0
40.43029	0	0	0	0	0	0
40.44726	0	0	0	0	0	0
40.4634	0	0	0	0	0	0
40.47997	0	0	0	0	0	0
40.49654	0	0	0	0	0	0
40.5131	0	0	0	0	0	0
40.52967	0	0	0	0	0	0
40.54624	0	0	0	0	0	0
40.56282	0	0	0	0	0	0
40.57937	0	0	0	0	0	0
40.59594	0	0	0	0	0	0
40.61251	0	0	0	0	0	0
40.62926	0	0	0	0	0	0
40.64581	0	0	0	0	0	0
40.66221	0	0	0	0	0	0
40.67878	0	0	0	0	0	0
40.69534	0	0	0	0	0	0
40.71191	0	0	0	0	0	0
40.72847	0	0	0	0	0	0
40.74504	0	0	0	0	0	0
40.76161	0	0	0	0	0	0
40.77818	0	0	0	0	0	0
40.7953	0	0	0	0	0	0
40.81158	0	0	0	0	0	0
40.82788	0	0	0	0	0	0
40.84484	0	0	0	0	0	0
40.86101	0	0	0	0	0	0
40.87758	0	0	0	0	0	0
40.89415	0	0	0	0	0	0
40.91078	0	0	0	0	0	0
40.92728	0	0	0	0	0	0
40.94385	0	0	0	0	0	0
40.97115	0	0	0	0	0	0
40.98772	0	0	0	0	0	0
41.00429	0	0	0	0	0	0
41.02085	0	0	0	0	0	0
41.03742	0	0	0	0	0	0
41.055	0	0	0	0	0	0
41.07068	0	0	0	0	0	0
41.08712	0	0	0	0	0	0
41.10369	0	0	0	0	0	0
41.12026	0	0	0	0	0	0
41.13683	0	0	0	0	0	0
41.1537	0	0	0	0	0	0
41.16996	0	0	0	0	0	0
41.18667	0	0	0	0	0	0
41.20309	0	0	0	0	0	0
41.21973	0	0	0	0	0	0
41.23642	0	0	0	0	0	0
41.25327	0	0	0	0	0	0
41.26948	0	0	0	0	0	0
41.28593	0	0	0	0	0	0
41.30249	0	0	0	0	0	0
41.3193	0	0	0	0	0	0
41.33563	0	0	0	0	0	0
41.35232	0	0	0	0	0	0
41.36884	0	0	0	0	0	0
41.38594	0	0	0	0	0	0
41.40212	0	0	0	0	0	0
41.41846	0	0	0	0	0	0
41.43503	0	0	0	0	0	0
41.45162	0	0	0	0	0	0
41.46816	0	0	0	0	0	0
41.53517	0	0	0	0	0	0
41.55263	0	0	0	0	0	0
41.56928	0	0	0	0	0	0
41.59237	0	0	0	0	0	0
41.61948	0	0	0	0	0	0
41.63625	0	0	0	0	0	0
41.65396	0	0	0	0	0	0
41.67137	0	0	0	0	0	0
41.68892	0	0	0	0	0	0
41.71603	0	0	0	0	0	0
41.7463	0	0	0	0	0	0
41.76287	0	0	0	0	0	0
41.77944	0	0	0	0	0	0
41.79601	0	0	0	0	0	0
41.81257	0	0	0	0	0	0
41.82914	0	0	0	0	0	0
41.84571	0	0	0	0	0	0
41.86227	0	0	0	0	0	0
41.87897	0	0	0	0	0	0
41.8955	0	0	0	0	0	0
41.91206	0	0	0	0	0	0
41.92888	0	0	0	0	0	0
41.94511	0	0	0	0	0	0
41.96207	0	0	0	0	0	0
41.97824	0	0	0	0	0	0
41.99481	0	0	0	0	0	0
42.01138	0	0	0	0	0	0
42.02795	0	0	0	0	0	0
42.04482	0	0	0	0	0	0
42.06149	0	0	0	0	0	0
42.07765	0	0	0	0	0	0
42.09422	0	0	0	0	0	0
42.11104	0	0	0	0	0	0
42.1279	0	0	0	0	0	0
42.14392	0	0	0	0	0	0
42.16048	0	0	0	0	0	0
42.17705	0	0	0	0	0	0
42.19445	0	0	0	0	0	0
42.21019	0	0	0	0	0	0
42.22675	0	0	0	0	0	0
42.24332	0	0	0	0	0	0
42.25995	0	0	0	0	0	0
42.27645	0	0	0	0	0	0
42.29301	0	0	0	0	0	0
42.30958	0	0	0	0	0	0
42.32615	0	0	0	0	0	0
42.34272	0	0	0	0	0	0
42.35933	0	0	0	0	0	0
42.37585	0	0	0	0	0	0
42.4156	0	0	0	0	0	0
42.43241	0	0	0	0	0	0
42.44898	0	0	0	0	0	0
42.46695	0	0	0	0	0	0
42.48352	0	0	0	0	0	0
42.50009	0	0	0	0	0	0
42.51666	0	0	0	0	0	0
42.53323	0	0	0	0	0	0
42.5498	0	0	0	0	0	0
42.56636	0	0	0	0	0	0
42.58293	0	0	0	0	0	0
42.59949	0	0	0	0	0	0
42.61654	0	0	0	0	0	0
42.63263	0	0	0	0	0	0
42.64919	0	0	0	0	0	0
42.66576	0	0	0	0	0	0
42.68246	0	0	0	0	0	0
42.70134	0	0	0	0	0	0
42.71837	0	0	0	0	0	0
42.73592	0	0	0	0	0	0
42.75357	0	0	0	0	0	0
42.77353	0	0	0	0	0	0
42.79454	0	0	0	0	0	0
42.8122	0	0	0	0	0	0
42.82975	0	0	0	0	0	0
42.84865	0	0	0	0	0	0
42.86638	0	0	0	0	0	0
42.88408	0	0	0	0	0	0
42.90444	0	0	0	0	0	0
42.92203	0	0	0	0	0	0
42.94086	0	0	0	0	0	0
42.95868	0	0	0	0	0	0
42.9761	0	0	0	0	0	0
42.99444	0	0	0	0	0	0
43.0141	0	0	0	0	0	0
43.03081	0	0	0	0	0	0
43.04802	0	0	0	0	0	0
43.0651	0	0	0	0	0	0
43.08167	0	0	0	0	0	0
43.09834	0	0	0	0	0	0
43.12646	0	0	0	0	0	0
43.14302	0	0	0	0	0	0
43.15959	0	0	0	0	0	0
43.17616	0	0	0	0	0	0
43.19273	0	0	0	0	0	0
43.20929	0	0	0	0	0	0
43.22586	0	0	0	0	0	0
43.24243	0	0	0	0	0	0
43.259	0	0	0	0	0	0
43.27556	0	0	0	0	0	0
43.2922	0	0	0	0	0	0
43.3087	0	0	0	0	0	0
43.32526	0	0	0	0	0	0
43.34183	0	0	0	0	0	0
43.3584	0	0	0	0	0	0
43.37497	0	0	0	0	0	0
43.39154	0	0	0	0	0	0
43.4081	0	0	0	0	0	0
43.42474	0	0	0	0	0	0
43.44123	0	0	0	0	0	0
43.4578	0	0	0	0	0	0
43.47448	0	0	0	0	0	0
43.49093	0	0	0	0	0	0
43.5075	0	0	0	0	0	0
43.52407	0	0	0	0	0	0
43.54063	0	0	0	0	0	0
43.5572	0	0	0	0	0	0
43.57377	0	0	0	0	0	0
43.59034	0	0	0	0	0	0
43.6069	0	0	0	0	0	0
43.62354	0	0	0	0	0	0
43.64003	0	0	0	0	0	0
43.6566	0	0	0	0	0	0
43.67317	0	0	0	0	0	0
43.68974	0	0	0	0	0	0
43.7063	0	0	0	0	0	0
43.72287	0	0	0	0	0	0
43.73944	0	0	0	0	0	0
43.75607	0	0	0	0	0	0
43.77257	0	0	0	0	0	0
43.78914	0	0	0	0	0	0
43.80571	0	0	0	0	0	0
43.83324	0	0	0	0	0	0
43.84981	0	0	0	0	0	0
43.86638	0	0	0	0	0	0
43.88295	0	0	0	0	0	0
43.89951	0	0	0	0	0	0
43.91608	0	0	0	0	0	0
43.93265	0	0	0	0	0	0
43.94921	0	0	0	0	0	0
43.96578	0	0	0	0	0	0
43.9827	0	0	0	0	0	0
43.99892	0	0	0	0	0	0
44.01548	0	0	0	0	0	0
44.03205	0	0	0	0	0	0
44.04902	0	0	0	0	0	0
44.06553	0	0	0	0	0	0
44.08175	0	0	0	0	0	0
44.09832	0	0	0	0	0	0
44.11513	0	0	0	0	0	0
44.13145	0	0	0	0	0	0
44.14802	0	0	0	0	0	0
44.16487	0	0	0	0	0	0
44.18115	0	0	0	0	0	0
44.19772	0	0	0	0	0	0
44.21429	0	0	0	0	0	0
44.23085	0	0	0	0	0	0
44.24742	0	0	0	0	0	0
44.26402	0	0	0	0	0	0
44.28055	0	0	0	0	0	0
44.29712	0	0	0	0	0	0
44.31368	0	0	0	0	0	0
44.33053	0	0	0	0	0	0
44.34682	0	0	0	0	0	0
44.36338	0	0	0	0	0	0
44.37995	0	0	0	0	0	0
44.39652	0	0	0	0	0	0
44.41309	0	0	0	0	0	0
44.42966	0	0	0	0	0	0
44.44622	0	0	0	0	0	0
44.46279	0	0	0	0	0	0
44.47936	0	0	0	0	0	0
44.49619	0	0	0	0	0	0
44.52394	0	0	0	0	0	0
44.54051	0	0	0	0	0	0
44.55708	0	0	0	0	0	0
44.57365	0	0	0	0	0	0
44.59032	0	0	0	0	0	0
44.60678	0	0	0	0	0	0
44.62335	0	0	0	0	0	0
44.63992	0	0	0	0	0	0
44.65648	0	0	0	0	0	0
44.67305	0	0	0	0	0	0
44.68962	0	0	0	0	0	0
44.70618	0	0	0	0	0	0
44.72275	0	0	0	0	0	0
44.73932	0	0	0	0	0	0
44.756	0	0	0	0	0	0
44.77245	0	0	0	0	0	0
44.78902	0	0	0	0	0	0
44.80559	0	0	0	0	0	0
44.82218	0	0	0	0	0	0
44.83872	0	0	0	0	0	0
44.85529	0	0	0	0	0	0
44.87186	0	0	0	0	0	0
44.88842	0	0	0	0	0	0
44.90499	0	0	0	0	0	0
44.92167	0	0	0	0	0	0
44.93813	0	0	0	0	0	0
44.95473	0	0	0	0	0	0
44.97126	0	0	0	0	0	0
44.98783	0	0	0	0	0	0
45.0046	0	0	0	0	0	0
45.02096	0	0	0	0	0	0
45.03758	0	0	0	0	0	0
45.05422	0	0	0	0	0	0
45.07066	0	0	0	0	0	0
45.08723	0	0	0	0	0	0
45.10379	0	0	0	0	0	0
45.12036	0	0	0	0	0	0
45.13693	0	0	0	0	0	0
45.15364	0	0	0	0	0	0
45.17006	0	0	0	0	0	0
45.18663	0	0	0	0	0	0
45.21438	0	0	0	0	0	0
45.23095	0	0	0	0	0	0
45.24757	0	0	0	0	0	0
45.26412	0	0	0	0	0	0
45.28065	0	0	0	0	0	0
45.29722	0	0	0	0	0	0
45.31379	0	0	0	0	0	0
45.33035	0	0	0	0	0	0
45.34692	0	0	0	0	0	0
45.36349	0	0	0	0	0	0
45.38005	0	0	0	0	0	0
45.39662	0	0	0	0	0	0
45.41319	0	0	0	0	0	0
45.42976	0	0	0	0	0	0
45.44632	0	0	0	0	0	0
45.46289	0	0	0	0	0	0
45.47946	0	0	0	0	0	0
45.49605	0	0	0	0	0	0
45.51259	0	0	0	0	0	0
45.5294	0	0	0	0	0	0
45.54572	0	0	0	0	0	0
45.56229	0	0	0	0	0	0
45.57886	0	0	0	0	0	0
45.59542	0	0	0	0	0	0
45.61199	0	0	0	0	0	0
45.62856	0	0	0	0	0	0
45.64523	0	0	0	0	0	0
45.66169	0	0	0	0	0	0
45.67826	0	0	0	0	0	0
45.69483	0	0	0	0	0	0
45.7118	0	0	0	0	0	0
45.72803	0	0	0	0	0	0
45.74453	0	0	0	0	0	0
45.7611	0	0	0	0	0	0
45.77767	0	0	0	0	0	0
45.79423	0	0	0	0	0	0
45.8108	0	0	0	0	0	0
45.82736	0	0	0	0	0	0
45.84393	0	0	0	0	0	0
45.8605	0	0	0	0	0	0
45.87706	0	0	0	0	0	0
45.9057	0	0	0	0	0	0
45.92227	0	0	0	0	0	0
45.93884	0	0	0	0	0	0
45.9554	0	0	0	0	0	0
45.97197	0	0	0	0	0	0
45.98853	0	0	0	0	0	0
46.00528	0	0	0	0	0	0
46.02167	0	0	0	0	0	0
46.03824	0	0	0	0	0	0
46.0548	0	0	0	0	0	0
46.07152	0	0	0	0	0	0
46.08793	0	0	0	0	0	0
46.1045	0	0	0	0	0	0
46.12107	0	0	0	0	0	0
46.13804	0	0	0	0	0	0
46.15466	0	0	0	0	0	0
46.17087	0	0	0	0	0	0
46.18733	0	0	0	0	0	0
46.20423	0	0	0	0	0	0
46.22067	0	0	0	0	0	0
46.23703	0	0	0	0	0	0
46.25395	0	0	0	0	0	0
46.27016	0	0	0	0	0	0
46.28673	0	0	0	0	0	0
46.30342	0	0	0	0	0	0
46.31986	0	0	0	0	0	0
46.33643	0	0	0	0	0	0
46.35345	0	0	0	0	0	0
46.36956	0	0	0	0	0	0
46.38613	0	0	0	0	0	0
46.40269	0	0	0	0	0	0
46.41926	0	0	0	0	0	0
46.43583	0	0	0	0	0	0
46.4526	0	0	0	0	0	0
46.46906	0	0	0	0	0	0
46.48552	0	0	0	0	0	0
46.50209	0	0	0	0	0	0
46.51866	0	0	0	0	0	0
46.53522	0	0	0	0	0	0
46.55179	0	0	0	0	0	0
46.56862	0	0	0	0	0	0
46.60538	0	0	0	0	0	0
46.62195	0	0	0	0	0	0
46.63869	0	0	0	0	0	0
46.65519	0	0	0	0	0	0
46.6717	0	0	0	0	0	0
46.68822	0	0	0	0	0	0
46.70479	0	0	0	0	0	0
46.72136	0	0	0	0	0	0
46.73793	0	0	0	0	0	0
46.75449	0	0	0	0	0	0
46.77125	0	0	0	0	0	0
46.78762	0	0	0	0	0	0
46.80422	0	0	0	0	0	0
46.82076	0	0	0	0	0	0
46.83732	0	0	0	0	0	0
46.85389	0	0	0	0	0	0
46.87046	0	0	0	0	0	0
46.88702	0	0	0	0	0	0
46.90359	0	0	0	0	0	0
46.92016	0	0	0	0	0	0
46.99218	0	0	0	0	0	0
47.0093	0	0	0	0	0	0
47.02954	0	0	0	0	0	0
47.04631	0	0	0	0	0	0
47.06351	0	0	0	0	0	0
47.08073	0	0	0	0	0	0
47.0973	0	0	0	0	0	0
47.11386	0	0	0	0	0	0
47.13127	0	0	0	0	0	0
47.147	0	0	0	0	0	0
47.1639	0	0	0	0	0	0
47.18015	0	0	0	0	0	0
47.19669	0	0	0	0	0	0
47.21326	0	0	0	0	0	0
47.22995	0	0	0	0	0	0
47.24672	0	0	0	0	0	0
47.26296	0	0	0	0	0	0
47.27953	0	0	0	0	0	0
47.29609	0	0	0	0	0	0
47.31275	0	0	0	0	0	0
47.32926	0	0	0	0	0	0
47.35569	0	0	0	0	0	0
47.37229	0	0	0	0	0	0
47.38882	0	0	0	0	0	0
47.4054	0	0	0	0	0	0
47.42196	0	0	0	0	0	0
47.43853	0	0	0	0	0	0
47.4551	0	0	0	0	0	0
47.47192	0	0	0	0	0	0
47.4883	0	0	0	0	0	0
47.5048	0	0	0	0	0	0
47.52136	0	0	0	0	0	0
47.53793	0	0	0	0	0	0
47.55466	0	0	0	0	0	0
47.57106	0	0	0	0	0	0
47.58763	0	0	0	0	0	0
47.6042	0	0	0	0	0	0
47.62077	0	0	0	0	0	0
47.63734	0	0	0	0	0	0
47.6539	0	0	0	0	0	0
47.67047	0	0	0	0	0	0
47.68706	0	0	0	0	0	0
47.7036	0	0	0	0	0	0
47.72017	0	0	0	0	0	0
47.73683	0	0	0	0	0	0
47.7533	0	0	0	0	0	0
47.76987	0	0	0	0	0	0
47.78643	0	0	0	0	0	0
47.803	0	0	0	0	0	0
47.81957	0	0	0	0	0	0
47.83614	0	0	0	0	0	0
47.8527	0	0	0	0	0	0
47.86927	0	0	0	0	0	0
47.88584	0	0	0	0	0	0
47.9024	0	0	0	0	0	0
47.91897	0	0	0	0	0	0
47.93554	0	0	0	0	0	0
47.95211	0	0	0	0	0	0
47.96867	0	0	0	0	0	0
47.98524	0	0	0	0	0	0
48.00181	0	0	0	0	0	0
48.01838	0	0	0	0	0	0
48.04565	0	0	0	0	0	0
48.06222	0	0	0	0	0	0
48.07878	0	0	0	0	0	0
48.09535	0	0	0	0	0	0
48.11192	0	0	0	0	0	0
48.12848	0	0	0	0	0	0
48.14505	0	0	0	0	0	0
48.16171	0	0	0	0	0	0
48.17818	0	0	0	0	0	0
48.19486	0	0	0	0	0	0
48.21141	0	0	0	0	0	0
48.22817	0	0	0	0	0	0
48.24445	0	0	0	0	0	0
48.26101	0	0	0	0	0	0
48.27758	0	0	0	0	0	0
48.29455	0	0	0	0	0	0
48.31092	0	0	0	0	0	0
48.32728	0	0	0	0	0	0
48.34385	0	0	0	0	0	0
48.36042	0	0	0	0	0	0
48.37743	0	0	0	0	0	0
48.39355	0	0	0	0	0	0
48.41018	0	0	0	0	0	0
48.42921	0	0	0	0	0	0
48.45494	0	0	0	0	0	0
48.47152	0	0	0	0	0	0
48.48808	0	0	0	0	0	0
48.50465	0	0	0	0	0	0
48.52163	0	0	0	0	0	0
48.53786	0.4903083	-0.09796856	30.20714	-6.035692	909.4544	-181.7182
48.55484	0.4903083	-0.09796856	0	0	-909.6633	181.76
48.571	0.4903083	-0.09796856	0	0	0	0
48.58757	0.4903083	-0.09796856	0	0	0	0
48.6044	0.4903083	-0.09796856	0	0	0	0
48.6207	0.4903083	-0.09796856	0	0	0	0
48.63727	0.4903083	-0.09796856	0	0	0	0
48.65384	0.4903083	-0.09796856	0	0	0	0
48.67688	0.4903083	-0.09796856	0	0	0	0
48.69448	0.4903083	-0.09796856	0	0	0	0
48.71111	0.4903083	-0.09796856	0	0	0	0
48.72762	0.4903083	-0.09796856	0	0	0	0
48.74419	0.4903083	-0.09796856	0	0	0	0
48.76091	0.4903083	-0.09796856	0	0	0	0
48.77751	0.4903083	-0.09796856	0	0	0	0
48.79407	0.4903083	-0.09796856	0	0	0	0
48.81046	0.4903083	-0.09796856	0	0	0	0
48.82702	0.4903083	-0.09796856	0	0	0	0
48.84359	0.4903083	-0.09796856	0	0	0	0
48.86016	0.4903083	-0.09796856	0	0	0	0
48.87672	0.4903083	-0.09796856	0	0	0	0
48.89329	0.4903083	-0.09796856	0	0	0	0
48.90986	0.4903083	-0.09796856	0	0	0	0
48.92669	0.4903083	-0.09796856	0	0	0	0
48.94299	0.4903083	-0.09796856	0	0	0	0
48.95956	0.4903083	-0.09796856	0	0	0	0
48.97626	0.4903083	-0.09796856	0	0	0	0
48.99269	0.4903083	-0.09796856	0	0	0	0
49.00926	0.4903083	-0.09796856	0	0	0	0
49.02583	0.4903083	-0.09796856	0	0	0	0
49.0424	0.4903083	-0.09796856	0	0	0	0
49.05896	0.4903083	-0.09796856	0	0	0	0
49.07553	0.4903083	-0.09796856	0	0	0	0
49.0924	0.4903083	-0.09796856	0	0	0	0
49.10867	0.4903083	-0.09796856	0	0	0	0
49.12645	0.4903083	-0.09796856	0	0	0	0
49.14422	0.4903083	-0.09796856	0	0	0	0
49.16526	0.4903083	-0.09796856	0	0	0	0
49.18285	0.4903083	-0.09796856	0	0	0	0
49.20156	0.4903083	-0.09796856	0	0	0	0
49.22179	0.4903083	-0.09796856	0	0	0	0
49.23853	0.4903083	-0.09796856	0	0	0	0
49.26769	0.4903083	-0.09796856	0	0	0	0
49.29992	0.4677589	-0.1766398	-0.6997144	-2.441194	-11.39787	-39.76538
49.32678	0.4677589	-0.1766398	0	0	11.84157	41.31338
49.35071	0.4677589	-0.1766398	0	0	0	0
49.36728	0.4676292	-0.1769829	-0.00782509	-0.02070025	-0.1932272	-0.5111573
49.38385	0.4673676	-0.1776726	-0.0157923	-0.04163399	-0.2404231	-0.6317087
49.40041	0.4655114	-0.1824805	-0.1120373	-0.290203	-2.904681	-7.501827
49.41698	0.4624995	-0.1899848	-0.1818012	-0.4529622	-2.105477	-4.912083
49.43355	0.4576055	-0.2014874	-0.2953999	-0.6942979	-3.428417	-7.283526
49.45012	0.4506901	-0.2165144	-0.4174174	-0.9070298	-3.682495	-6.420261
49.46668	0.3772455	-0.2029275	-4.433122	0.8201065	-121.1942	52.12508
49.48325	0.2974052	-0.1816367	-4.819172	1.285112	-11.65102	14.0339
49.49982	0.1976048	-0.1483699	-6.023963	2.007989	-36.36068	21.81646
49.51663	0.172322	-0.1390552	-1.503568	0.5539458	135.4125	-43.55715
49.53295	0.1310712	-0.1257485	-2.527736	0.8153991	-30.90947	7.890677
49.54952	0.0924817	-0.1111111	-2.329266	0.8835145	6.035002	2.071227
49.56609	0.07119095	-0.09913506	-1.285112	0.7228757	31.51264	-4.848089
49.58265	0.06453759	-0.0924817	-0.4015977	0.4015977	26.66452	-9.69619
49.59922	0.06320692	-0.08982036	-0.08031962	0.1606388	9.696191	-7.272153
49.61585	0.06320692	-0.08715902	0	0.1600496	2.419594	-0.0177487
49.63245	0.06320692	-0.08050565	0	0.4008593	0	7.247624
49.64892	0.06320692	-0.07385229	0	0.4038293	0	0.0898005
49.66549	0.05788423	-0.06320692	-0.3212041	0.6424082	-9.719696	7.219442
49.68229	0.05655356	-0.06187625	-0.07924288	0.07924288	7.252307	-16.87976
49.69862	0.05389221	-0.05788423	-0.1628896	0.2443344	-2.524754	4.983047
49.71542	0.05123087	-0.05655356	-0.15845	0.07922466	0.1339885	-4.983023
49.73176	0.04856953	-0.05522289	-0.1628892	0.08144481	-0.133975	0.06700415
49.74833	0.04723885	-0.05522289	-0.08031985	0	2.50928	-2.475106
49.76489	0.04457751	-0.05256154	-0.1606388	0.160639	-2.424031	4.848095
49.78146	0.04191617	-0.05256154	-0.160639	0	-6.745769E-06	-4.848095
49.79803	0.0405855	-0.05123087	-0.08031962	0.08031962	2.424044	2.424051
49.81459	0.0405855	-0.05123087	0	0	2.42433	-2.42433
49.83209	0.0405855	-0.05123087	0	0	0	0
49.84803	0.0405855	-0.05123087	0	0	0	0
49.86429	0.0405855	-0.05123087	0	0	0	0
49.88099	0.0405855	-0.04856953	0	0.1593548	0	4.834383
49.89743	0.03659348	-0.03792415	-0.2429163	0.6477767	-7.331229	14.7406
49.91399	0.02062542	-0.01397206	-0.9638341	1.445751	-21.84537	24.18035
49.93072	-0.02727878	0.03260146	-2.863808	2.784257	-57.06539	40.20181
49.94713	-0.1124418	0.1031271	-5.18944	4.297505	-70.17965	45.66466
49.96399	-0.2015968	0.156354	-5.290053	3.15824	-3.02467	-34.24904
49.99061	-0.241517	0.1803061	-1.499474	0.8996851	87.18764	-51.94933
50.00718	-0.2548237	0.1869594	-0.8030095	0.4015048	16.12418	-11.5336
50.02375	-0.2548237	0.1869594	0	0	24.23209	-12.11604
50.04031	-0.2548237	0.1869594	0	0	0	0
50.05688	-0.2548237	0.1869594	0	0	0	0
50.07345	-0.2548237	0.1869594	0	0	0	0
50.09002	-0.2548237	0.1869594	0	0	0	0
50.10658	-0.2548237	0.1869594	0	0	0	0
50.12315	-0.2548237	0.1869594	0	0	0	0
50.14056	-0.2548237	0.1869594	0	0	0	0
50.15722	-0.2548237	0.1869594	0	0	0	0
50.17397	-0.2548237	0.1869594	0	0	0	0
50.19026	-0.2548237	0.1869594	0	0	0	0
50.20716	-0.2548237	0.1869594	0	0	0	0
50.22349	-0.2548237	0.1869594	0	0	0	0
50.23996	-0.2548237	0.1869594	0	0	0	0
50.25653	-0.2548237	0.1869594	0	0	0	0
50.2731	-0.2548237	0.1869594	0	0	0	0
50.28966	-0.2548237	0.1869594	0	0	0	0
50.30662	-0.2548237	0.1869594	0	0	0	0
50.3228	-0.2548237	0.1869594	0	0	0	0
50.33969	-0.2548237	0.1869594	0	0	0	0
50.35593	-0.2548237	0.1869594	0	0	0	0
50.37292	-0.2548237	0.1869594	0	0	0	0
50.38914	-0.2548237	0.1869594	0	0	0	0
50.40567	-0.2548237	0.1869594	0	0	0	0
50.42224	-0.2548237	0.1869594	0	0	0	0
50.43876	-0.2548237	0.1869594	0	0	0	0
50.45533	-0.2548237	0.1869594	0	0	0	0
50.4719	-0.2548237	0.1869594	0	0	0	0
50.48861	-0.2548237	0.1869594	0	0	0	0
50.50518	-0.2548237	0.1869594	0	0	0	0
50.52317	-0.2548237	0.1869594	0	0	0	0
50.54991	-0.2548237	0.1869594	0	0	0	0
50.57092	-0.2548237	0.1869594	0	0	0	0
50.58749	-0.2548237	0.1869594	0	0	0	0
50.60416	-0.2548237	0.1869594	0	0	0	0
50.63353	-0.2548237	0.1869594	0	0	0	0
50.6501	-0.2548237	0.1869594	0	0	0	0
50.66667	-0.2548237	0.1869594	0	0	0	0
50.68324	-0.2548237	0.1869594	0	0	0	0
50.69981	-0.2548237	0.1869594	0	0	0	0
50.71666	-0.2548237	0.1869594	0	0	0	0
50.73294	-0.2548237	0.1869594	0	0	0	0
50.74951	-0.2548237	0.1869594	0	0	0	0
50.76608	-0.2548237	0.1869594	0	0	0	0
50.78264	-0.2508317	0.1842981	0.2409589	-0.1606392	7.272153	-4.848102
50.79921	-0.2468397	0.1789754	0.240958	-0.3212785	-2.698308E-05	-4.848102
50.81578	-0.241517	0.1736527	0.3212785	-0.3212776	2.424078	2.698308E-05
50.83234	-0.2361943	0.1696607	0.3212767	-0.240958	-5.396615E-05	2.424051
50.84891	-0.2295409	0.164338	0.401599	-0.3212785	2.424133	-2.424078
50.86548	-0.2242182	0.160346	0.3212776	-0.240958	-2.424106	2.424078
50.88205	-0.2175649	0.156354	0.4015972	-0.2409598	2.424052	-5.396615E-05
50.89861	-0.2149035	0.1550233	0.1606392	-0.08031962	-7.272127	4.848129
50.91518	-0.2122422	0.1550233	0.1606402	8.994359E-07	2.743279E-05	2.424078
50.9321	-0.2095808	0.1536926	0.1573069	-0.07865347	-0.09954218	-2.348914
50.94835	-0.2002661	0.1483699	0.5730554	-0.3274613	12.53288	-7.500399
50.96488	-0.1896207	0.1443779	0.6441886	-0.2415698	2.170038	2.620264
50.98144	-0.1896207	0.1443779	0	0	-19.46855	7.300678
50.99801	-0.1882901	0.1443779	0.08031962	-8.994359E-07	2.42433	-2.714815E-05
51.01477	-0.1882901	0.1430472	-8.889963E-07	-0.07938649	-2.409928	-2.381876
51.03126	-0.1869594	0.1430472	0.08070988	0	2.427472	2.387642
51.04771	-0.1869594	0.1430472	0	0	-2.450216	0
51.06432	-0.1842981	0.1417166	0.1602702	-0.08013511	4.848128	-2.424064
51.08149	-0.1829674	0.1403859	0.07749927	-0.07750014	-2.450633	0.07801449
51.09741	-0.1829674	0.1403859	0	0	-2.341629	2.341655
51.11426	-0.180306	0.1403859	0.1579846	0	4.820711	0
51.13055	-0.180306	0.1390552	0	-0.08167364	-4.767437	-2.464632
51.14714	-0.1776447	0.1390552	0.1603808	0	4.876795	2.4835
51.16368	-0.172322	0.1363939	0.3218705	-0.1609357	4.874331	-4.857608
51.18025	-0.1576846	0.1310712	0.8835149	-0.3212776	16.96609	-4.843589
51.19682	-0.1403859	0.1230872	1.043913	-0.4818068	4.840262	-4.844224
51.21537	-0.1337325	0.1204258	0.358729	-0.1434908	-19.51085	9.633664
51.23275	-0.1270792	0.1164338	0.3827379	-0.2296437	0.6682014	-2.397756
51.25422	-0.1244178	0.1151031	0.1239837	-0.0619915	-6.660534	4.315497
51.31552	-0.1217565	0.1137725	0.04341346	-0.02170667	-0.9734527	0.4867229
51.33209	-0.09647372	0.09514305	1.52572	-1.124215	19.03486	-14.15773
51.34866	-0.08715902	0.08715902	0.5622365	-0.4819173	-29.07464	19.38234
51.36522	-0.06320692	0.07385229	1.446084	-0.8033803	26.67765	-9.70289
51.38179	-0.03925483	0.05522289	1.445751	-1.124473	-0.01005685	-9.691719
51.39841	-0.01929474	0.04191617	1.200922	-0.8006143	-7.37708	9.758353
51.41547	-0.009980039	0.03393213	0.5460184	-0.4680158	-19.44489	9.875263
51.43932	-0.007318696	0.03260146	0.1115534	-0.05577665	-10.61835	10.07515
51.45589	0.00332668	0.0259481	0.6424083	-0.4015052	13.13082	-8.551677
51.47246	0.0166334	0.01530273	0.8031953	-0.6425561	4.852004	-7.274093
51.48903	0.03526281	0.005988024	1.124473	-0.5622367	9.696187	2.424046
51.5056	0.04191617	-0.000665336	0.4015977	-0.4015976	-21.81643	4.848097
51.52216	0.04723885	-0.00332668	0.3212778	-0.160639	-2.424058	7.272144
51.53874	0.04856953	-0.004657352	0.08028265	-0.08028255	-7.271574	2.424605
51.5553	0.04856953	-0.004657352	0	0	-2.422935	2.422932
51.57187	0.04856953	-0.004657352	0	0	0	0
51.59656	0.0499002	-0.005988024	0.05388971	-0.05388966	1.306108	-1.306107
51.61313	0.0499002	-0.007318696	-2.247555E-07	-0.08028254	-1.305872	-0.6395577
51.6297	0.0499002	-0.007318696	0	0	6.781572E-06	2.422374
51.64628	0.0499002	-0.007318696	0	0	0	0
51.66283	0.0499002	-0.007318696	0	0	0	0
51.6794	0.0499002	-0.007318696	0	0	0	0
51.69596	0.0499002	-0.007318696	0	0	0	0
51.71254	0.0499002	-0.007318696	0	0	0	0
51.73032	0.0499002	-0.007318696	0	0	0	0
51.76662	0.0499002	-0.007318696	0	0	0	0
51.78461	0.0499002	-0.007318696	0	0	0	0
51.80153	0.0499002	-0.007318696	0	0	0	0
51.8181	0.05123087	-0.007318696	0.08030114	-2.81009E-08	2.39782	-8.391027E-07
51.83469	0.05123087	-0.007318696	0	0	-2.421542	8.47404E-07
51.85123	0.05123087	-0.007318696	0	0	0	0
51.86783	0.05123087	-0.007318696	0	0	0	0
51.88436	0.05123087	-0.007318696	0	0	0	0
51.90807	0.05123087	-0.007318696	0	0	0	0
51.92475	0.05123087	-0.007318696	0	0	0	0
51.94121	0.05123087	-0.007318696	0	0	0	0
51.95994	0.05123087	-0.007318696	0	0	0	0
51.97651	0.05123087	-0.007318696	0	0	0	0
51.99308	0.05123087	-0.007318696	0	0	0	0
52.00998	0.05123087	-0.007318696	0	0	0	0
52.02621	0.05123087	-0.007318696	0	0	0	0
52.04278	0.05123087	-0.007318696	0	0	0	0
52.05935	0.05123087	-0.007318696	0	0	0	0
52.07592	0.05123087	-0.007318696	0	0	0	0
52.09248	0.05123087	-0.007318696	0	0	0	0
52.10905	0.05123087	-0.007318696	0	0	0	0
52.12562	0.05123087	-0.007318696	0	0	0	0
52.14219	0.05123087	-0.007318696	0	0	0	0
52.15875	0.05123087	-0.007318696	0	0	0	0
52.17532	0.05123087	-0.007318696	0	0	0	0
52.19189	0.05123087	-0.007318696	0	0	0	0
52.2085	0.05123087	-0.007318696	0	0	0	0
52.22502	0.05123087	-0.007318696	0	0	0	0
52.24159	0.05123087	-0.007318696	0	0	0	0
52.25816	0.05123087	-0.007318696	0	0	0	0
52.2773	0.05123087	-0.007318696	0	0	0	0
52.3022	0.05123087	-0.007318696	0	0	0	0
52.31916	0.05123087	-0.007318696	0	0	0	0
52.33658	0.05123087	-0.007318696	0	0	0	0
52.35353	0.05123087	-0.007318696	0	0	0	0
52.36972	0.05123087	-0.007318696	0	0	0	0
52.39167	0.05123087	-0.007318696	0	0	0	0
52.45301	0.05123087	-0.007318696	0	0	0	0
52.47026	0.06986028	0.06586827	1.080201	4.243646	13.74603	54.00225
52.48942	0.06986028	0.08449767	0	0.9720513	-29.66665	-89.85112
52.50701	0.06986028	0.09381237	0	0.5295582	0	-12.03912
52.52647	0.06586827	0.09913506	-0.2051926	0.2735903	-5.539081	-6.909738
52.55765	0.04856953	0.1071191	-0.5547108	0.2560204	-6.902003	-0.3469562
52.57422	-0.01397206	0.09248171	-3.775017	-0.883514	-67.43761	-23.86341
52.59088	-0.03792415	0.07119095	-1.437806	-1.27805	70.34282	-11.87431
52.60742	-0.09514305	-0.01264138	-3.458518	-5.067131	-60.85908	-114.1182
52.62401	-0.1177645	-0.08183633	-1.363548	-4.170853	63.22631	27.04972
52.64049	-0.1151031	-0.1111111	0.1615314	-1.776849	46.12257	72.40122
52.66962	-0.09647372	-0.1217565	0.6394642	-0.3654083	10.47902	30.94686
52.68619	0.156354	-0.1204258	15.26071	0.08032008	319.9392	9.75334
52.7105	0.2295409	-0.1137725	3.009966	0.273633	-299.6602	4.728546
52.72716	0.4717232	-0.0405855	14.53782	4.393296	281.3478	100.5442
52.74364	0.4995813	-0.02045842	1.690468	1.221341	-387.6891	-95.71876
52.76021	0.4997218	0.01667798	0.008479881	2.241557	-50.89727	30.87194
52.77681	0.4974766	0.05017079	-0.1352706	2.017913	-4.334407	-6.743401
52.79334	0.4930177	0.08326788	-0.2696349	2.001431	-4.055121	-0.4974168
52.80991	0.4859292	0.1177831	-0.4278652	2.083342	-4.779804	2.47436
52.82648	0.4839772	0.1255629	-0.1178189	0.469591	9.357216	-48.70311
52.84304	0.4796827	0.1410832	-0.2592156	0.9368047	-4.267361	14.10054
52.86722	0.4768679	0.1503232	-0.1164441	0.3822325	3.504373	-13.61215
52.88379	0.4720379	0.1648642	-0.2914688	0.877498	-4.295636	12.15531
52.90036	0.468016	0.1759575	-0.2427649	0.6695913	1.469717	-6.273915
52.91692	0.4649566	0.1838896	-0.184665	0.4787814	1.75346	-5.758655
52.93349	0.4634694	0.1876063	-0.0897655	0.22434	2.864072	-7.679057
52.95006	0.4627809	0.1892983	-0.04156113	0.1021318	1.454811	-3.688249
52.96663	0.4621895	0.1907377	-0.03569321	0.08688371	0.1770942	-0.4601896
52.98319	0.4608427	0.1939693	-0.08131333	0.195102	-1.376976	3.26641
52.99976	0.4594373	0.197275	-0.0848294	0.1995327	-0.1061272	0.1337336
53.02852	0.4589414	0.1984259	-0.01724138	0.04001523	1.49102	-3.519022
53.04512	0.4583073	0.1998861	-0.03819544	0.08795615	-0.4619057	1.056796
53.06165	0.4569946	0.2028694	-0.07939944	0.1804446	-1.243539	2.791307
53.07861	0.4543909	0.2086358	-0.1535521	0.340074	-2.214224	4.76659
53.0951	0.4523808	0.2129592	-0.1218652	0.2621063	0.9472596	-2.330798
53.11167	0.4507291	0.216433	-0.09969527	0.209681	0.6705578	-1.585667
53.12792	0.4494119	0.2191551	-0.08107463	0.1675459	0.5674598	-1.284056
53.14449	0.4485731	0.2208669	-0.05063104	0.1033245	0.9277615	-1.957134
53.16105	0.4488623	0.2202787	0.01745445	-0.03550703	2.054824	-4.189944
53.18734	0.4490029	0.2199918	0.005350049	-0.01091267	-0.2824548	0.5739063
53.20405	0.4483823	0.2212541	-0.03713657	0.07553391	-0.9880778	2.01042
53.2208	0.4483823	0.2212541	0	0	1.109922	-2.257526
53.23705	0.4483823	0.2212541	0	0	0	0
53.25361	0.4518042	0.2141798	0.206594	-0.4271064	6.296638	-13.01748
53.27018	0.4549336	0.2074497	0.1888959	-0.4062284	-0.5341911	0.6301715
53.2869	0.4574992	0.2017287	0.1534094	-0.3420927	-1.065953	1.926527
53.30341	0.4590967	0.1980662	0.09673496	-0.221781	-1.705138	3.619763
53.32734	0.4602222	0.1954368	0.04704941	-0.1099169	-1.228752	2.766461
53.34578	0.4613503	0.1927588	0.0611621	-0.1451937	0.3331133	-0.8326675
53.36235	0.461827	0.1916136	0.02877835	-0.06912705	-0.9249515	2.172633
53.37898	0.4621275	0.190888	0.01806372	-0.04362815	-0.3227366	0.7680549
53.39548	0.4627261	0.1894325	0.03626394	-0.08817906	0.5492205	-1.344394
53.41205	0.4634982	0.1875352	0.0466159	-0.1145452	0.3130355	-0.7972936
53.42862	0.4658491	0.1816168	0.1419004	-0.3572388	2.876023	-7.32535
53.44518	0.4694522	0.1720891	0.2175337	-0.5752218	2.28288	-6.579498
53.46175	0.4787541	0.144203	0.5614675	-1.683207	10.38114	-33.44291
53.47831	0.4850447	0.121374	0.3797022	-1.377964	-5.485685	9.212249
53.49488	0.4877584	0.1099624	0.1637963	-0.6888064	-6.516056	20.79882
53.51394	0.4925409	0.08604349	0.2508896	-1.254791	2.444432	-15.88539
53.53088	0.495198	0.0691302	0.1568782	-0.9985853	-2.61148	7.116968
53.54708	0.4958055	0.06462926	0.0374989	-0.2778184	-3.602459	21.75028
53.56365	0.4964742	0.05927343	0.04036668	-0.3232786	0.08751728	-1.387326
53.58042	0.4971816	0.0530136	0.04217364	-0.3732035	0.05419721	-1.497426
53.59678	0.4976362	0.0485616	0.0277883	-0.2721703	-0.4342004	3.049537
53.61335	0.4981474	0.04300206	0.03085965	-0.3355744	0.09328395	-1.925731
53.62991	0.4984521	0.03931316	0.01838807	-0.2226621	-0.376393	3.407699
53.64684	0.4986617	0.03655877	0.01238623	-0.1627698	-0.179217	1.788404
53.6643	0.4989859	0.03182932	0.0185613	-0.2707571	0.1795627	-3.140126
53.68087	0.4992647	0.02710716	0.01682277	-0.2849646	-0.05107522	-0.4173931
53.69773	0.4993171	0.02612419	0.003111564	-0.05831176	-0.410169	6.78029
53.72158	0.4996971	0.01740239	0.0159286	-0.3656436	0.3148341	-7.549212
53.74243	0.4999093	0.009526856	0.01017841	-0.3777718	-0.1286379	-0.271322
53.76343	0.4999695	0.0055273	0.002868131	-0.1904559	-0.1746896	4.476185
53.78631	0.4999875	0.003531698	0.0007894572	-0.08723281	-0.04737541	2.352574
53.8097	0.4999998	0.0005045406	0.000522277	-0.1293904	-0.005774088	-0.9110761
53.8498	0.4999421	-0.007613331	-0.001439106	-0.2024787	-0.03089375	-1.151215
53.8687	0.49913	-0.02948229	-0.04296008	-1.156976	-0.7038134	-16.17949
53.88527	0.4986296	-0.03699342	-0.0301997	-0.4532681	0.3597221	19.83793
53.90201	0.4982909	-0.04130638	-0.02023169	-0.2576022	0.2992162	5.873425
53.91843	0.4981065	-0.04347302	-0.01122684	-0.1319637	0.271548	3.788726
53.93505	0.4980147	-0.04451235	-0.005523248	-0.0625186	0.1726117	2.101664
53.95153	0.4978156	-0.0466866	-0.01208044	-0.1319368	-0.1980789	-2.096976
53.9681	0.49729	-0.05198703	-0.0317267	-0.3199341	-0.5944995	-5.688834
53.99294	0.496478	-0.05924183	-0.03269849	-0.2921356	-0.02347277	0.671446
54.02298	0.4943247	-0.07512055	-0.07166037	-0.5284386	-0.7099202	-4.305651
54.03955	0.4920605	-0.08874944	-0.1366378	-0.8224522	-1.393785	-6.306677
54.05612	0.4910817	-0.09401458	-0.05907854	-0.3178044	2.340474	15.22855
54.07269	0.4900464	-0.09926985	-0.06249101	-0.317209	-0.1029883	0.01796983
54.08926	0.4887393	-0.1055173	-0.07889492	-0.377097	-0.4950711	-1.807424
54.10582	0.4880812	-0.1085207	-0.03973363	-0.1813298	1.182026	5.908947
54.12239	0.4871248	-0.1127361	-0.0577161	-0.2543806	-0.542712	-2.204677
54.14708	0.4868391	-0.1139634	-0.01157327	-0.04971942	1.118453	4.960767
54.17658	0.4858339	-0.1181758	-0.03406896	-0.1427602	-0.4151141	-1.716886
54.19434	0.4836462	-0.1268321	-0.1232223	-0.4875825	-1.886432	-7.296239
54.21417	0.4809409	-0.1367329	-0.1364084	-0.4992171	-0.3508241	-0.3095441
54.23074	0.4791591	-0.1428516	-0.1075491	-0.3693246	0.7928414	3.568492
54.2473	0.4778095	-0.1473026	-0.08146011	-0.2686633	0.7873687	3.037963
54.26394	0.4775114	-0.148266	-0.01792216	-0.0579227	1.913833	6.34774
54.28043	0.4771176	-0.1495285	-0.02387103	-0.07652547	-0.1795578	-0.5614974
54.31331	0.4767193	-0.1507936	-0.01211581	-0.0384796	0.2380869	0.7705708
54.32988	0.4757995	-0.1536711	-0.05551678	-0.1736883	-0.8778107	-2.734676
54.34644	0.4757995	-0.1536711	0	0	1.6755	5.241922
54.36301	0.4757995	-0.1536711	0	0	0	0
54.37958	0.4757995	-0.1536711	0	0	0	0
54.39614	0.4757995	-0.1536711	0	0	0	0
54.41271	0.4757995	-0.1536711	0	0	0	0
54.42959	0.4757995	-0.1536711	0	0	0	0
54.44584	0.4757995	-0.1536711	0	0	0	0
54.47292	0.4756995	-0.1539806	-0.003693302	-0.01142822	-0.08523434	-0.2637414
54.48949	0.4752868	-0.1552497	-0.02490684	-0.07658911	-0.4859741	-1.49275
54.50618	0.4752868	-0.1552497	0	0	0.7490167	2.303244
54.52263	0.4752868	-0.1552497	0	0	0	0
54.5393	0.4752868	-0.1552497	0	0	0	0
54.55584	0.4752868	-0.1552497	0	0	0	0
54.57233	0.4752868	-0.1552497	0	0	0	0
54.58889	0.4752868	-0.1552497	0	0	0	0
54.60546	0.4752868	-0.1552497	0	0	0	0
54.63249	0.4752868	-0.1552497	0	0	0	0
54.66193	0.4752868	-0.1552497	0	0	0	0
54.6785	0.4752868	-0.1552497	0	0	0	0
54.69507	0.4752868	-0.1552497	0	0	0	0
54.71163	0.4752868	-0.1552497	0	0	0	0
54.7282	0.4746582	-0.1571611	-0.0379418	-0.1153679	-1.145481	-3.483014
54.74476	0.4746582	-0.1571611	0	0	1.145086	3.481811
54.76133	0.4743416	-0.1581139	-0.01910762	-0.05751173	-0.576669	-1.735707
54.78935	0.4743416	-0.1581139	0	0	0.4285547	1.2899
54.80592	0.4743416	-0.1581139	0	0	0	0
54.82249	0.4743416	-0.1581139	0	0	0	0
54.83905	0.4743416	-0.1581139	0	0	0	0
54.85595	0.4740236	-0.1590648	-0.01882728	-0.05629481	-0.5627019	-1.682516
54.87367	0.4740236	-0.1590648	0	0	0.5439121	1.626333
54.89024	0.4740236	-0.1590648	0	0	0	0
54.90953	0.4737041	-0.1600138	-0.01655466	-0.04917366	-0.4615724	-1.371047
54.94147	0.473812	-0.1596941	0.003375806	0.01000705	0.3889704	1.154993
54.95804	0.4740258	-0.1590585	0.01290511	0.03836903	0.1964493	0.5846904
54.97461	0.4741317	-0.1587424	0.006394989	0.01907614	-0.1964757	-0.5822608
54.99171	0.474237	-0.1584276	0.006160057	0.01841568	-0.006978591	-0.01961873
55.00829	0.4743416	-0.1581139	0.00630823	0.0189166	0.004399439	0.01487308
55.02486	0.4745491	-0.15749	0.01252554	0.03765578	0.1875525	0.5652893
55.04194	0.474652	-0.1571798	0.006017666	0.01815504	-0.1933803	-0.5794608
55.05851	0.4747542	-0.1568708	0.00617013	0.0186534	0.004530439	0.01480878
55.07508	0.4748558	-0.1565629	0.006135952	0.01858414	-0.001031498	-0.002090177
55.10706	0.4749568	-0.1562562	0.003157987	0.009591372	-0.06133854	-0.1852283
55.12555	0.4752564	-0.1553427	0.01620376	0.04941334	0.2584937	0.7890468
55.16298	0.4754532	-0.1547393	0.00525823	0.01611985	-0.1957502	-0.5954214
55.17954	0.4755507	-0.1544393	0.005887707	0.01811014	0.01165763	0.03685925
55.19787	0.4756477	-0.1541404	0.005290713	0.01630788	-0.0171074	-0.0516453
55.21449	0.4757441	-0.1538426	0.005798858	0.01791926	0.0145391	0.0461049
55.23101	0.4757441	-0.1538426	0	0	-0.1750099	-0.5408044
55.25583	0.47584	-0.1535458	0.003863021	0.01195651	0.09346264	0.2892781
55.28335	0.4761243	-0.1526621	0.01032896	0.03210921	0.1235338	0.3850237
55.29992	0.4764036	-0.1517879	0.01686262	0.05276451	0.1481884	0.4684773
55.3167	0.4764957	-0.1514986	0.005485259	0.01722975	-0.3410919	-1.065327
55.3332	0.4764957	-0.1514986	0	0	-0.1647866	-0.5176112
55.34972	0.4764957	-0.1514986	0	0	0	0
55.36619	0.4764957	-0.1514986	0	0	0	0
55.38276	0.4765873	-0.1512104	0.00552666	0.01739378	0.1672571	0.5263999
55.40562	0.4766783	-0.1509232	0.00397924	0.01256074	-0.03923845	-0.1225531
55.4222	0.4767688	-0.1506371	0.005461916	0.01726789	0.0375967	0.1193608
55.43903	0.4767688	-0.1506371	0	0	-0.1634858	-0.5168616
55.45533	0.4768588	-0.1503519	0.005522882	0.01749674	0.1666809	0.5280528
55.4719	0.4768588	-0.1503519	0	0	-0.1680546	-0.5324047
55.48846	0.4768588	-0.1503519	0	0	0	0
55.50503	0.4769483	-0.1500678	0.005400213	0.01714774	0.1629788	0.51752
55.5216	0.4769483	-0.1500678	0	0	-0.1629788	-0.51752
55.53817	0.4770373	-0.1497848	0.00537323	0.01708658	0.1621644	0.5156741
55.56075	0.4771258	-0.1495027	0.003917465	0.01248865	-0.03718042	-0.1174318
55.57737	0.4773012	-0.1489416	0.01055477	0.03376808	0.1693032	0.5427921
55.59389	0.4773012	-0.1489416	0	0	-0.3185068	-1.019005
55.61046	0.4775607	-0.1481074	0.01566817	0.05035222	0.4735206	1.521735
55.62703	0.4775415	-0.148169	-0.001158473	-0.003722765	-0.5078292	-1.631986
55.65714	0.4778791	-0.1470768	0.01121049	0.03627522	0.2649925	0.8569166
55.6737	0.4783716	-0.1454669	0.02972636	0.09717325	0.3966839	1.304679
55.69089	0.4781648	-0.1461453	-0.01203083	-0.03946647	-1.237021	-4.047834
55.71684	0.4782232	-0.1459543	0.002250845	0.007361757	0.3310511	1.085484
55.73341	0.4782232	-0.1459543	0	0	-0.05293313	-0.1731264
55.75	0.4782232	-0.1459543	0	0	0	0
55.76655	0.4782232	-0.1459543	0	0	0	0
55.78325	0.4782232	-0.1459543	0	0	0	0
55.79968	0.4782232	-0.1459543	0	0	0	0
55.81625	0.4782232	-0.1459543	0	0	0	0
55.83282	0.4783029	-0.1456927	0.004813781	0.0157905	0.1452802	0.4765581
55.85835	0.4783823	-0.145432	0.003108889	0.01021217	-0.04050087	-0.132517
55.8806	0.4784611	-0.1451721	0.003542006	0.0116759	0.009064262	0.03063289
55.89727	0.4785396	-0.1449132	0.004710031	0.01553738	0.03000987	0.09921243
55.91374	0.4783594	-0.1455068	-0.01093895	-0.03604009	-0.4722327	-1.556432
55.93031	0.4785938	-0.1447342	0.01414633	0.04663755	0.7592604	2.502418
55.9472	0.478748	-0.1442234	0.009130462	0.03023727	-0.1499121	-0.4901648
55.96349	0.478748	-0.1442234	0	0	-0.2751777	-0.9113036
55.98001	0.478748	-0.1442234	0	0	0	0
55.99657	0.4785701	-0.1448123	-0.01073747	-0.03554481	-0.3245057	-1.074228
56.02547	0.4786233	-0.1446364	0.001840722	0.006085727	0.2766421	0.9156132
56.05526	0.4787511	-0.144213	0.00428847	0.01421419	0.04170973	0.1385093
56.07357	0.4789501	-0.1435509	0.01086978	0.03617127	0.1368486	0.4565652
56.09014	0.4791696	-0.1428165	0.01324744	0.0443131	0.06817123	0.2334387
56.1067	0.479242	-0.1425734	0.00436946	0.01467789	-0.2679071	-0.8942892
56.12327	0.479242	-0.1425734	0	0	-0.1318706	-0.4429797
56.14012	0.479314	-0.142331	0.004273262	0.014386	0.1278779	0.4305027
56.1564	0.4795986	-0.1413693	0.01747928	0.05906876	0.3986042	1.348684
56.17297	0.4795007	-0.1417006	-0.005905696	-0.01999806	-0.7119069	-2.407025
56.18954	0.479641	-0.1412252	0.00846729	0.0286947	0.4337776	1.46955
56.21056	0.479641	-0.1412252	0	0	-0.2252308	-0.763282
56.22713	0.4797105	-0.1409886	0.0041976	0.01427526	0.1116453	0.3796848
56.2437	0.4797105	-0.1409886	0	0	-0.1266692	-0.4307785
56.26027	0.4797105	-0.1409886	0	0	0	0
56.27684	0.4797798	-0.1407528	0.004182377	0.01423267	0.1262244	0.4295429
56.2934	0.4797798	-0.1407528	0	0	-0.1262244	-0.4295429
56.30997	0.4797798	-0.1407528	0	0	0	0
56.32658	0.4797798	-0.1407528	0	0	0	0
56.34312	0.4797798	-0.1407528	0	0	0	0
56.36375	0.4797798	-0.1407528	0	0	0	0
56.38032	0.4804372	-0.1384922	0.03966858	0.1364193	1.066552	3.667846
56.39688	0.4807099	-0.1375428	0.01646147	0.05730576	-0.7003112	-2.387377
56.41965	0.4819218	-0.1332343	0.0532229	0.1892205	0.9345216	3.353438
56.43623	0.483492	-0.1274185	0.09475714	0.3509627	1.05575	4.111293
56.45279	0.4836471	-0.1268284	0.009363128	0.03561586	-2.5769	-9.516091
56.46936	0.4835202	-0.1273116	-0.007663194	-0.02916421	-0.5138554	-1.955066
56.48593	0.4610778	-0.1190951	-1.354622	0.4959453	-40.65131	15.84784
56.50249	0.4397871	-0.1084498	-1.285114	0.6425565	2.097769	4.424735
56.52069	0.4184963	-0.09780439	-1.169825	0.5849133	3.316035	-1.657982
56.53727	0.3532934	-0.07518297	-3.93475	1.365117	-79.51822	22.43838
56.55383	0.3359947	-0.07119095	-1.044153	0.2409584	87.22835	-33.92328
56.5704	0.3080506	-0.06586827	-1.68671	0.321278	-19.39241	2.424051
56.58697	0.2974052	-0.06320692	-0.642557	0.1606392	31.51261	-4.848088
56.60353	0.2934132	-0.06187625	-0.2409571	0.0803194	12.12031	-2.424058
56.6201	0.2880905	-0.06054558	-0.3212785	0.0803194	-2.424105	0
56.63667	0.2814371	-0.05788423	-0.4015981	0.160639	-2.424052	2.424051
56.65324	0.2667997	-0.05389221	-0.8835158	0.2409591	-14.5443	2.424065
56.67172	0.241517	-0.0499002	-1.367669	0.2159475	-13.81192	-0.7135323
56.68843	0.2029275	-0.04191617	-2.309589	0.4778461	-26.76336	7.441487
