Time	Pos X	Pos Y	Vel X	Vel Y	Acc X	Acc Y
0.01656435	0.007334067	0.02016868	-0.0003865082	-0.001062898	2.038694E-05	5.606408E-05
0.06682467	0.007334067	0.02016868	0	0	-2.042323E-05	-5.616389E-05
0.1055526	0.007334067	0.02016868	0	0	0	0
0.1274268	0.007334067	0.02016868	0	0	0	0
0.1439959	0.007334067	0.02016868	0	0	0	0
0.163667	0.007334067	0.02016868	0	0	0	0
0.1804868	0.007334067	0.02016868	0	0	0	0
0.1985725	0.007334067	0.02016868	0	0	0	0
0.2155253	0.007334067	0.02016868	0	0	0	0
0.2317103	0.007334067	0.02016868	0	0	0	0
0.2482766	0.007334067	0.02016868	0	0	0	0
0.2681731	0.007334067	0.02016868	0	0	0	0
0.2847872	0.007334067	0.02016868	0	0	0	0
0.305408	0.007334067	0.02016868	0	0	0	0
0.3256918	0.007334067	0.02016868	0	0	0	0
0.3469202	0.007334067	0.02016868	0	0	0	0
0.3678635	0.007334067	0.02016868	0	0	0	0
0.3849995	0.007334067	0.02016868	0	0	0	0
0.4059223	0.007334067	0.02016868	0	0	0	0
0.4255772	0.007334067	0.02016868	0	0	0	0
0.4460749	0.007334067	0.02016868	0	0	0	0
0.4654176	0.007334067	0.02016868	0	0	0	0
0.483191	0.007334067	0.02016868	0	0	0	0
0.5024271	0.007334067	0.02016868	0	0	0	0
0.522969	0.007334067	0.02016868	0	0	0	0
0.542556	0.007334067	0.02016868	0	0	0	0
0.560648	0.007334067	0.02016868	0	0	0	0
0.5845939	0.007334067	0.02016868	0	0	0	0
0.6011595	0.007334067	0.02016868	0	0	0	0
0.6178126	0.007334067	0.02016868	0	0	0	0
0.6343197	0.007334067	0.02016868	0	0	0	0
0.6538373	0.007334067	0.02016868	0	0	0	0
0.6704063	0.007334067	0.02016868	0	0	0	0
0.6930788	0.007334067	0.02016868	0	0	0	0
0.7125536	0.007334067	0.02016868	0	0	0	0
0.7291188	0.007334067	0.02016868	0	0	0	0
0.7456898	0.007334067	0.02016868	0	0	0	0
0.7666249	0.007334067	0.02016868	0	0	0	0
0.7831932	0.007334067	0.02016868	0	0	0	0
0.8005163	0.007334067	0.02016868	0	0	0	0
0.817087	0.007334067	0.02016868	0	0	0	0
0.8336537	0.007334067	0.02016868	0	0	0	0
0.8531657	0.007334067	0.02016868	0	0	0	0
0.869734	0.007334067	0.02016868	0	0	0	0
0.8925284	0.007334067	0.02016868	0	0	0	0
0.9112749	0.007334067	0.02016868	0	0	0	0
0.9299761	0.007334067	0.02016868	0	0	0	0
0.9465408	0.007334067	0.02016868	0	0	0	0
0.9631115	0.007334067	0.02016868	0	0	0	0
0.9796786	0.007334067	0.02016868	0	0	0	0
0.996245	0.007334067	0.02016868	0	0	0	0
1.016634	0.007334067	0.02016868	0	0	0	0
1.0332	0.007334067	0.02016868	0	0	0	0
1.049771	0.007334067	0.02016868	0	0	0	0
1.069576	0.007334067	0.02016868	0	0	0	0
1.088235	0.007334067	0.02016868	0	0	0	0
1.105911	0.007334067	0.02016868	0	0	0	0
1.123653	0.007334067	0.02016868	0	0	0	0
1.141603	0.007334067	0.02016868	0	0	0	0
1.159136	0.007334067	0.02016868	0	0	0	0
1.179421	0.007334067	0.02016868	0	0	0	0
1.196205	0.007334067	0.02016868	0	0	0	0
1.21473	0.007334067	0.02016868	0	0	0	0
1.231392	0.007334067	0.02016868	0	0	0	0
1.247963	0.007334067	0.02016868	0	0	0	0
1.264766	0.007334067	0.02016868	0	0	0	0
1.281096	0.007334067	0.02016868	0	0	0	0
1.298535	0.007334067	0.02016868	0	0	0	0
1.316563	0.007334067	0.02016868	0	0	0	0
1.336609	0.007334067	0.02016868	0	0	0	0
1.356003	0.007334067	0.02016868	0	0	0	0
1.375805	0.007334067	0.02016868	0	0	0	0
1.39379	0.007334067	0.02016868	0	0	0	0
1.414591	0.007334067	0.02016868	0	0	0	0
1.431157	0.007334067	0.02016868	0	0	0	0
1.449088	0.007334067	0.02016868	0	0	0	0
1.465659	0.007334067	0.02016868	0	0	0	0
1.482417	0.007334067	0.02016868	0	0	0	0
1.498932	0.007334067	0.02016868	0	0	0	0
1.516865	0.007334067	0.02016868	0	0	0	0
1.533724	0.007334067	0.02016868	0	0	0	0
1.553599	0.007334067	0.02016868	0	0	0	0
1.573655	0.007334067	0.02016868	0	0	0	0
1.592785	0.007334067	0.02016868	0	0	0	0
1.628724	0.007334067	0.02016868	0	0	0	0
1.645295	0.007334067	0.02016868	0	0	0	0
1.662044	0.007334067	0.02016868	0	0	0	0
1.68331	0.007334067	0.02016868	0	0	0	0
1.699876	0.007334067	0.02016868	0	0	0	0
1.7179	0.007334067	0.02016868	0	0	0	0
1.737182	0.007334067	0.02016868	0	0	0	0
1.754111	0.007334067	0.02016868	0	0	0	0
1.774555	0.007334067	0.02016868	0	0	0	0
1.792816	0.007334067	0.02016868	0	0	0	0
1.812043	0.007334067	0.02016868	0	0	0	0
1.82861	0.007334067	0.02016868	0	0	0	0
1.850597	0.007334067	0.02016868	0	0	0	0
1.867166	0.007334067	0.02016868	0	0	0	0
1.883859	0.007334067	0.02016868	0	0	0	0
1.901261	0.007334067	0.02016868	0	0	0	0
1.917831	0.007334067	0.02016868	0	0	0	0
1.934398	0.007334067	0.02016868	0	0	0	0
1.953664	0.007334067	0.02016868	0	0	0	0
1.970264	0.007334067	0.02016868	0	0	0	0
1.992843	0.007334067	0.02016868	0	0	0	0
2.012885	0.007334067	0.02016868	0	0	0	0
2.02979	0.007334067	0.02016868	0	0	0	0
2.046021	0.007334067	0.02016868	0	0	0	0
2.062832	0.007334067	0.02016868	0	0	0	0
2.079154	0.007334067	0.02016868	0	0	0	0
2.099038	0.007334067	0.02016868	0	0	0	0
2.115605	0.007334067	0.02016868	0	0	0	0
2.133166	0.007334067	0.02016868	0	0	0	0
2.149736	0.007334067	0.02016868	0	0	0	0
2.166402	0.007334067	0.02016868	0	0	0	0
2.188134	0.007334067	0.02016868	0	0	0	0
2.204702	0.007334067	0.02016868	0	0	0	0
2.225693	0.007334067	0.02016868	0	0	0	0
2.245672	0.007334067	0.02016868	0	0	0	0
2.262237	0.007334067	0.02016868	0	0	0	0
2.278981	0.007334067	0.02016868	0	0	0	0
2.295375	0.007334067	0.02016868	0	0	0	0
2.314755	0.007334067	0.02016868	0	0	0	0
2.331323	0.007334067	0.02016868	0	0	0	0
2.352453	0.007334067	0.02016868	0	0	0	0
2.374006	0.007334067	0.02016868	0	0	0	0
2.39439	0.007334067	0.02016868	0	0	0	0
2.410956	0.007334067	0.02016868	0	0	0	0
2.427527	0.007334067	0.02016868	0	0	0	0
2.444094	0.007334067	0.02016868	0	0	0	0
2.46407	0.007334067	0.02016868	0	0	0	0
2.486066	0.007334067	0.02016868	0	0	0	0
2.502637	0.007334067	0.02016868	0	0	0	0
2.519203	0.007334067	0.02016868	0	0	0	0
2.537368	0.007334067	0.02016868	0	0	0	0
2.557276	0.007334067	0.02016868	0	0	0	0
2.575864	0.01466813	0.01650165	0.3945679	-0.197284	10.24958	-5.12479
2.595072	0.02566923	-0.003055861	0.5727367	-1.018199	4.714017	-21.71988
2.615535	0.03667034	-0.02750275	0.5375973	-1.19466	-0.8857621	-4.448081
2.637396	0.04767143	-0.06295074	0.503244	-1.621565	-0.8116779	-10.08662
2.659744	0.05500551	-0.1020658	0.3281699	-1.750238	-3.960168	-2.910589
2.682744	0.05989487	-0.1216233	0.2125878	-0.8503531	-2.548796	19.84412
2.702588	0.06845129	-0.1558489	0.4311826	-1.72473	5.102186	-20.40871
2.725428	0.07578535	-0.1864075	0.3211026	-1.337927	-2.578931	9.061953
2.744471	0.08189708	-0.2108544	0.3209359	-1.283744	-0.003980407	1.293659
2.761346	0.08678646	-0.2243002	0.2897485	-0.796809	-0.868295	13.55684
2.779603	0.08923115	-0.2316343	0.1339068	-0.4017201	-4.435989	11.24609
2.797533	0.08923116	-0.2365237	4.155254E-07	-0.2726852	-3.700383	3.565763
2.814104	0.0904535	-0.2401907	0.07376587	-0.2212976	2.138062	1.48945
2.830872	0.0904535	-0.2401907	0	0	-2.21263	6.637889
2.847377	0.09045349	-0.2426354	-4.514069E-07	-0.1481156	-1.356667E-05	-4.451498
2.863801	0.09167583	-0.2463024	0.07442118	-0.2232635	2.260002	-2.282056
2.881611	0.09167584	-0.2524142	4.1834E-07	-0.3431668	-2.173851	-3.502409
2.899284	0.09412053	-0.2646376	0.1383328	-0.691662	3.898619	-9.821631
2.91662	0.09534287	-0.2829728	0.07050837	-1.057627	-1.937361	-10.45356
2.936364	0.09778757	-0.3013079	0.123817	-0.9286262	1.437645	3.478943
2.955512	0.0990099	-0.3147537	0.06383897	-0.7022345	-1.542187	5.821101
2.975855	0.0990099	-0.3171984	0	-0.1201686	-1.616547	14.73923
2.997272	0.09900991	-0.3196431	3.478871E-07	-0.1141487	8.33054E-06	0.144154
3.016533	0.0990099	-0.3269772	-3.868244E-07	-0.3807761	-1.806184E-05	-6.554657
3.038774	0.0990099	-0.3330888	0	-0.274795	9.320675E-06	2.553653
3.058245	0.09900991	-0.3428676	3.826421E-07	-0.5022132	9.173368E-06	-5.452067
3.080006	0.0990099	-0.347757	-3.423832E-07	-0.2246855	-1.75839E-05	6.730823
3.096572	0.0990099	-0.3587581	0	-0.6640761	8.933217E-06	-11.46426
3.114585	0.09778756	-0.3599805	-0.06785979	-0.06785979	-1.962468	17.24225
3.131155	0.09778756	-0.3599805	0	0	1.962211	1.962211
3.147722	0.09778756	-0.3599805	0	0	0	0
3.164285	0.09778756	-0.3599805	0	0	0	0
3.180856	0.09778756	-0.3599805	0	0	0	0
3.200072	0.09778756	-0.3599805	0	0	0	0
3.216638	0.09778756	-0.3599805	0	0	0	0
3.236612	0.09778756	-0.3599805	0	0	0	0
3.26319	0.09778756	-0.3599805	0	0	0	0
3.279756	0.09778756	-0.3599805	0	0	0	0
3.301681	0.09778756	-0.3599805	0	0	0	0
3.318247	0.09778756	-0.3599805	0	0	0	0
3.336078	0.09778756	-0.3599805	0	0	0	0
3.366183	0.09778756	-0.3599805	0	0	0	0
3.382748	0.09778756	-0.3599805	0	0	0	0
3.399329	0.09778756	-0.3599805	0	0	0	0
3.415885	0.09778756	-0.3599805	0	0	0	0
3.432793	0.09778756	-0.3599805	0	0	0	0
3.449016	0.09778756	-0.3599805	0	0	0	0
3.466934	0.09778756	-0.3599805	0	0	0	0
3.487974	0.09778756	-0.3599805	0	0	0	0
3.507395	0.09778756	-0.3599805	0	0	0	0
3.525141	0.09778756	-0.3599805	0	0	0	0
3.543367	0.09778756	-0.3599805	0	0	0	0
3.563283	0.09778756	-0.3599805	0	0	0	0
3.579884	0.09778756	-0.3599805	0	0	0	0
3.599567	0.09778756	-0.3599805	0	0	0	0
3.621255	0.09778756	-0.3599805	0	0	0	0
3.642033	0.09778756	-0.3599805	0	0	0	0
3.662166	0.09778756	-0.3599805	0	0	0	0
3.680211	0.09778756	-0.3599805	0	0	0	0
3.696781	0.09778756	-0.3599805	0	0	0	0
3.713494	0.09778756	-0.3599805	0	0	0	0
3.732902	0.09778756	-0.3599805	0	0	0	0
3.749467	0.09778756	-0.3599805	0	0	0	0
3.769007	0.09778756	-0.3599805	0	0	0	0
3.786803	0.09778756	-0.3599805	0	0	0	0
3.803368	0.09778756	-0.3599805	0	0	0	0
3.820067	0.09778756	-0.3599805	0	0	0	0
3.836504	0.09778756	-0.3599805	0	0	0	0
3.855577	0.09778756	-0.3599805	0	0	0	0
3.875238	0.09778756	-0.3599805	0	0	0	0
3.894812	0.09778756	-0.3599805	0	0	0	0
3.911379	0.09778756	-0.3599805	0	0	0	0
3.934094	0.09656521	-0.3599804	-0.05381336	1.312033E-06	-1.369946	3.34009E-05
3.952291	0.09534287	-0.3575357	-0.06717075	0.1343415	-0.3264897	3.283626
3.974267	0.09289818	-0.3502017	-0.1112434	0.3337289	-1.097057	4.963153
3.996196	0.09167583	-0.34409	-0.05574299	0.2787146	1.264122	-1.253049
4.016828	0.08678646	-0.3245325	-0.2369741	0.9478978	-4.258167	15.72299
4.038175	0.07945239	-0.2976409	-0.343564	1.259734	-2.539091	7.428277
4.057529	0.07456301	-0.2793057	-0.2526305	0.9473644	2.234188	-7.674746
4.07717	0.06845129	-0.2560812	-0.3111727	1.182458	-1.501283	6.028842
4.099725	0.06478425	-0.241413	-0.1625797	0.6503174	3.521473	-12.61108
4.116357	0.05745019	-0.2071874	-0.4409585	2.057808	-7.103779	35.91689
4.13734	0.05133847	-0.1815182	-0.2912806	1.223378	3.979278	-22.18382
4.157342	0.04522674	-0.1558489	-0.3055429	1.283279	-0.3479878	1.461534
4.175966	0.04278206	-0.1448478	-0.1312663	0.5907	4.51182	-17.93008
4.195671	0.04155971	-0.1362914	-0.06203284	0.4342293	1.80631	-4.082342
4.215803	0.03789268	-0.1118445	-0.1821491	1.214326	-3.015203	19.58228
4.235017	0.03544799	-0.0947317	-0.1272367	0.8906583	1.395639	-8.226254
4.254962	0.03178095	-0.07517418	-0.1838518	0.9805417	-1.445764	2.295327
4.292933	0.03055861	-0.06661777	-0.03219145	0.2253406	2.618597	-13.03945
4.31056	0.02689158	-0.0482826	-0.2080379	1.040189	-3.162832	14.65613
4.335199	0.02566924	-0.04094854	-0.04961076	0.297665	3.748387	-17.56813
4.370229	0.02444689	-0.03728151	-0.03489437	0.1046829	0.2466356	-3.234235
4.391968	0.02322455	-0.03116979	-0.05622815	0.2811409	-0.3758005	3.108357
4.416701	0.0220022	-0.0287251	-0.04942146	0.09884291	0.1464685	-3.922743
4.434705	0.0220022	-0.02016868	0	0.4752396	1.156396	8.80718
4.457834	0.01833517	-0.01038993	-0.1585504	0.422801	-3.854586	-1.274858
4.478349	0.01589048	0.00550055	-0.1191661	0.7745799	0.90241	8.060287
4.500546	0.01466813	0.009167585	-0.05506619	0.1651987	1.500723	-14.26698
4.522452	0.01344579	0.01161227	-0.05579981	0.1115996	-0.01663396	-1.215299
4.541311	0.01344579	0.01283462	-9.876738E-08	0.06481516	1.368821	-1.147667
4.55961	0.01222345	0.01527931	-0.06679793	0.1335962	-1.79767	1.851041
4.582949	0.01222344	0.01772399	-3.99053E-08	0.1047499	1.604276	-0.6927959
4.599833	0.01222344	0.01772399	0	0	9.921221E-07	-2.604284
4.620732	0.01222344	0.01772399	0	0	0	0
4.640093	0.01222344	0.01772399	0	0	0	0
4.657926	0.01222344	0.01772399	0	0	0	0
4.678685	0.01222344	0.01772399	0	0	0	0
4.695251	0.01222344	0.01772399	0	0	0	0
4.711821	0.01222344	0.01772399	0	0	0	0
4.728388	0.01222344	0.01772399	0	0	0	0
4.74869	0.01222344	0.01772399	0	0	0	0
4.765256	0.01222344	0.01772399	0	0	0	0
4.783448	0.01222344	0.01772399	0	0	0	0
4.800016	0.01222344	0.01772399	0	0	0	0
4.816585	0.01222344	0.01772399	0	0	0	0
4.833152	0.01222344	0.01772399	0	0	0	0
4.85148	0.01222344	0.01772399	0	0	0	0
4.87121	0.01222344	0.01772399	0	0	0	0
4.891228	0.01222344	0.01772399	0	0	0	0
4.910757	0.01222344	0.01772399	0	0	0	0
4.927322	0.01222344	0.01772399	0	0	0	0
4.943892	0.01222344	0.01772399	0	0	0	0
4.960459	0.01222344	0.01772399	0	0	0	0
4.981916	0.01222344	0.01772399	0	0	0	0
4.998486	0.01222344	0.01772399	0	0	0	0
5.015953	0.01222344	0.01772399	0	0	0	0
5.032523	0.01222344	0.01772399	0	0	0	0
5.04909	0.01222344	0.01772399	0	0	0	0
5.068607	0.01222344	0.01772399	0	0	0	0
5.085462	0.01222344	0.01772399	0	0	0	0
5.107589	0.01222344	0.01772399	0	0	0	0
5.125947	0.01222344	0.01772399	0	0	0	0
5.146044	0.01222344	0.01772399	0	0	0	0
5.16261	0.01222344	0.01772399	0	0	0	0
5.17918	0.01222344	0.01772399	0	0	0	0
5.205173	0.01222344	0.01772399	0	0	0	0
5.224048	0.01222344	0.01772399	0	0	0	0
5.24168	0.01222344	0.01772399	0	0	0	0
5.260777	0.01222344	0.01772399	0	0	0	0
5.277342	0.01222344	0.01772399	0	0	0	0
5.293913	0.01222344	0.01772399	0	0	0	0
5.310619	0.01222344	0.01772399	0	0	0	0
5.330929	0.01222344	0.01772399	0	0	0	0
5.398092	0.01222344	0.01772399	0	0	0	0
5.418955	0.01222344	0.01772399	0	0	0	0
5.443018	0.01222344	0.01772399	0	0	0	0
5.463872	0.01222344	0.01772399	0	0	0	0
5.480726	0.01222344	0.01772399	0	0	0	0
5.498394	0.01222344	0.01772399	0	0	0	0
5.514965	0.01222344	0.01772399	0	0	0	0
5.534628	0.01222344	0.01772399	0	0	0	0
5.557569	0.01222344	0.01772399	0	0	0	0
5.577141	0.01222344	0.01772399	0	0	0	0
5.622659	0.01222344	0.01772399	0	0	0	0
5.64812	0.01222344	0.01772399	0	0	0	0
5.681279	0.01222344	0.01772399	0	0	0	0
5.697879	0.01222344	0.01772399	0	0	0	0
5.715519	0.01222344	0.01772399	0	0	0	0
5.732939	0.01222344	0.01772399	0	0	0	0
5.749509	0.01222344	0.01772399	0	0	0	0
5.766076	0.01222344	0.01772399	0	0	0	0
5.787958	0.01222344	0.01772399	0	0	0	0
5.804525	0.01222344	0.01772399	0	0	0	0
5.825092	0.01222344	0.01772399	0	0	0	0
5.845151	0.01222344	0.01772399	0	0	0	0
5.861994	0.01222344	0.01772399	0	0	0	0
5.878287	0.01222344	0.01772399	0	0	0	0
5.895035	0.01222344	0.01772399	0	0	0	0
5.918167	0.01222344	0.01772399	0	0	0	0
5.935046	0.01222344	0.01772399	0	0	0	0
5.951572	0.01222344	0.01772399	0	0	0	0
5.970771	0.01222344	0.01772399	0	0	0	0
5.98734	0.01222344	0.01772399	0	0	0	0
6.009829	0.01222344	0.01772399	0	0	0	0
6.030033	0.01222344	0.01772399	0	0	0	0
6.046598	0.01222344	0.01772399	0	0	0	0
6.064133	0.01222344	0.01772399	0	0	0	0
6.080703	0.01222344	0.01772399	0	0	0	0
6.09727	0.01222344	0.01772399	0	0	0	0
6.11611	0.01222344	0.01772399	0	0	0	0
6.135233	0.01222344	0.01772399	0	0	0	0
6.151803	0.01222344	0.01772399	0	0	0	0
6.16837	0.01222344	0.01772399	0	0	0	0
6.18985	0.01222344	0.01772399	0	0	0	0
6.207657	0.01222344	0.01772399	0	0	0	0
6.226108	0.01222344	0.01772399	0	0	0	0
6.242742	0.01222344	0.01772399	0	0	0	0
6.259312	0.01222344	0.01772399	0	0	0	0
6.280011	0.01222344	0.01772399	0	0	0	0
6.296817	0.01222344	0.01772399	0	0	0	0
6.31333	0.01222344	0.01772399	0	0	0	0
6.332282	0.01222344	0.01772399	0	0	0	0
6.34946	0.01222344	0.01772399	0	0	0	0
6.370765	0.01222344	0.01772399	0	0	0	0
6.390985	0.01222344	0.01772399	0	0	0	0
6.410075	0.01222344	0.01772399	0	0	0	0
6.42664	0.01222344	0.01772399	0	0	0	0
6.44321	0.01222344	0.01772399	0	0	0	0
6.459778	0.01222344	0.01772399	0	0	0	0
6.476344	0.01222344	0.01772399	0	0	0	0
6.495982	0.01222344	0.01772399	0	0	0	0
6.512547	0.01222344	0.01772399	0	0	0	0
6.529118	0.01222344	0.01772399	0	0	0	0
6.545684	0.01222344	0.01772399	0	0	0	0
6.565394	0.01222344	0.01772399	0	0	0	0
6.582002	0.01222344	0.01772399	0	0	0	0
6.599469	0.01222344	0.01772399	0	0	0	0
6.616049	0.01222344	0.01772399	0	0	0	0
6.632606	0.01222344	0.01772399	0	0	0	0
6.651758	0.01222344	0.01772399	0	0	0	0
6.668327	0.01222344	0.01772399	0	0	0	0
6.691057	0.01222344	0.01772399	0	0	0	0
6.712863	0.01222344	0.01772399	0	0	0	0
6.733552	0.01222344	0.01772399	0	0	0	0
6.75671	0.01222344	0.01772399	0	0	0	0
6.776608	0.01222344	0.01772399	0	0	0	0
6.798812	0.01222344	0.01772399	0	0	0	0
6.820521	0.01222344	0.01772399	0	0	0	0
6.840382	0.01222344	0.01772399	0	0	0	0
6.859541	0.01222344	0.01772399	0	0	0	0
6.876551	0.01222344	0.01772399	0	0	0	0
6.894444	0.01222344	0.01772399	0	0	0	0
6.912158	0.01222344	0.01772399	0	0	0	0
6.928729	0.01222344	0.01772399	0	0	0	0
6.945296	0.01222344	0.01772399	0	0	0	0
6.961862	0.01222344	0.01772399	0	0	0	0
6.98373	0.01222344	0.01772399	0	0	0	0
7.002047	0.01222344	0.01772399	0	0	0	0
7.018826	0.01222344	0.01772399	0	0	0	0
7.035183	0.01222344	0.01772399	0	0	0	0
7.054216	0.01222344	0.01772399	0	0	0	0
7.073072	0.01222344	0.01772399	0	0	0	0
7.091656	0.01222344	0.01772399	0	0	0	0
7.111435	0.01222344	0.01772399	0	0	0	0
7.128001	0.01222344	0.01772399	0	0	0	0
7.144571	0.01222344	0.01772399	0	0	0	0
7.161138	0.01222344	0.01772399	0	0	0	0
7.184863	0.01222344	0.01772399	0	0	0	0
7.201439	0.01222344	0.01772399	0	0	0	0
7.218966	0.01222344	0.01772399	0	0	0	0
7.235536	0.01222344	0.01772399	0	0	0	0
7.252101	0.01222344	0.01772399	0	0	0	0
7.271394	0.01222344	0.01772399	0	0	0	0
7.290584	0.01222344	0.01772399	0	0	0	0
7.309263	0.01222344	0.01772399	0	0	0	0
7.330312	0.01222344	0.01772399	0	0	0	0
7.34688	0.01222344	0.01772399	0	0	0	0
7.368684	0.01222344	0.01772399	0	0	0	0
7.390079	0.01222344	0.01772399	0	0	0	0
7.407845	0.01222344	0.01772399	0	0	0	0
7.427632	0.01222344	0.01772399	0	0	0	0
7.444199	0.01222344	0.01772399	0	0	0	0
7.460769	0.01222344	0.01772399	0	0	0	0
7.477335	0.01222344	0.01772399	0	0	0	0
7.496955	0.01222344	0.01772399	0	0	0	0
7.513521	0.01222344	0.01772399	0	0	0	0
7.530091	0.01222344	0.01772399	0	0	0	0
7.546697	0.01222344	0.01772399	0	0	0	0
7.563224	0.01222344	0.01772399	0	0	0	0
7.584921	0.01222344	0.01772399	0	0	0	0
7.60149	0.01222344	0.01772399	0	0	0	0
7.622688	0.01222344	0.01772399	0	0	0	0
7.641642	0.01222344	0.01772399	0	0	0	0
7.661053	0.01222344	0.01772399	0	0	0	0
7.677635	0.01222344	0.01772399	0	0	0	0
7.694206	0.01222344	0.01772399	0	0	0	0
7.710812	0.01222344	0.01772399	0	0	0	0
7.727339	0.01222344	0.01772399	0	0	0	0
7.747018	0.01222344	0.01772399	0	0	0	0
7.763584	0.01222344	0.01772399	0	0	0	0
7.782431	0.01222344	0.01772399	0	0	0	0
7.799905	0.01222344	0.01772399	0	0	0	0
7.816475	0.01222344	0.01772399	0	0	0	0
7.833042	0.01222344	0.01772399	0	0	0	0
7.869106	0.01222344	0.01772399	0	0	0	0
7.8859	0.008556411	0.01772399	-0.2183512	0	-4.130836	0
7.910774	0.008556411	0.01772399	0	0	5.240268	0
7.928897	0.008556411	0.01772399	0	0	0	0
7.952004	0.008556411	0.01772399	0	0	0	0
7.976192	0.007334067	0.02750275	-0.05053504	0.4042806	-1.068505	8.548046
8.000433	0.004889378	0.07517418	-0.1008495	1.966564	-1.038932	32.25925
8.023614	0.003667033	0.1399584	-0.05273054	2.794718	1.014698	17.46352
8.043771	0.008556411	0.1925192	0.2425664	2.607589	6.813839	-4.31792
8.065194	0.01466813	0.2243002	0.2852834	1.483474	1.02734	-27.03486
8.096413	0.01833517	0.2463024	0.1174634	0.7047799	-3.187958	-14.7923
8.115581	0.02566923	0.2866398	0.3826222	2.104423	5.262506	27.77818
8.137432	0.02933627	0.3147537	0.167816	1.286588	-5.236694	-19.93774
8.156469	0.0330033	0.3318665	0.192624	0.8989126	0.6067187	-9.481217
8.177906	0.03789268	0.3526464	0.2280845	0.9693589	0.8761314	1.740535
8.197961	0.04033737	0.3599804	0.1219005	0.3657003	-2.559174	-14.54897
8.219762	0.04278206	0.3697592	0.1121365	0.4485469	-0.2332756	1.979331
8.239873	0.04767144	0.3880944	0.2431187	0.911696	3.125164	11.05049
8.260403	0.05011612	0.4003178	0.1190801	0.5954006	-3.052068	-7.7827
8.28152	0.05378316	0.4088742	0.1736515	0.4051859	1.310332	-4.567312
8.301993	0.05378316	0.4125413	0	0.1791125	-4.175248	-5.435673
8.322257	0.05622784	0.4162083	0.1206439	0.1809656	2.96152	0.04548793
8.339977	0.05622785	0.418653	2.102282E-07	0.1379602	-3.17618	-1.132201
8.359108	0.05622785	0.4198753	0	0.06389426	-5.704827E-06	-2.009879
8.381183	0.05622785	0.4198753	0	0	0	-1.550628
8.401294	0.05622785	0.4198753	0	0	0	0
8.419234	0.05622785	0.4198753	0	0	0	0
8.438807	0.05622785	0.4198753	0	0	0	0
8.456612	0.05622785	0.4198753	0	0	0	0
8.477262	0.05622785	0.4198753	0	0	0	0
8.493855	0.05622785	0.4198753	0	0	0	0
8.510399	0.05622785	0.4198753	0	0	0	0
8.526965	0.05622785	0.4198753	0	0	0	0
8.543531	0.05622785	0.4198753	0	0	0	0
8.566002	0.05622785	0.4198753	0	0	0	0
8.582567	0.05622785	0.4198753	0	0	0	0
8.599137	0.05622785	0.4198753	0	0	0	0
8.616639	0.05622785	0.4198753	0	0	0	0
8.636237	0.05622785	0.4198753	0	0	0	0
8.655731	0.05622785	0.4198753	0	0	0	0
8.678695	0.05622785	0.4198753	0	0	0	0
8.697899	0.05622785	0.4198753	0	0	0	0
8.714838	0.05622785	0.4198753	0	0	0	0
8.73608	0.05622785	0.4198753	0	0	0	0
8.755577	0.05622785	0.4198753	0	0	0	0
8.773382	0.05622785	0.4198753	0	0	0	0
8.810109	0.05622785	0.4198753	0	0	0	0
8.826679	0.05622785	0.4198753	0	0	0	0
8.843246	0.05622785	0.4198753	0	0	0	0
8.863678	0.05622785	0.4198753	0	0	0	0
8.881428	0.05622785	0.4198753	0	0	0	0
8.902446	0.05622785	0.4198753	0	0	0	0
8.922581	0.05622785	0.4198753	0	0	0	0
8.940419	0.05622785	0.4198753	0	0	0	0
8.959549	0.05622785	0.4198753	0	0	0	0
8.976114	0.05622785	0.4198753	0	0	0	0
8.992685	0.05622785	0.4198753	0	0	0	0
9.009294	0.05622785	0.4198753	0	0	0	0
9.029641	0.05622785	0.4198753	0	0	0	0
9.048196	0.05622785	0.4198753	0	0	0	0
9.07059	0.05622785	0.4198753	0	0	0	0
9.090299	0.05622785	0.4198753	0	0	0	0
9.110638	0.05622785	0.4198753	0	0	0	0
9.131311	0.05622785	0.4198753	0	0	0	0
9.151068	0.05622785	0.4198753	0	0	0	0
9.17224	0.05622785	0.4198753	0	0	0	0
9.192486	0.05622785	0.4198753	0	0	0	0
9.209051	0.05622785	0.4198753	0	0	0	0
9.225885	0.05622785	0.4198753	0	0	0	0
9.242189	0.05622785	0.4198753	0	0	0	0
9.262719	0.05622785	0.4198753	0	0	0	0
9.279285	0.05622784	0.4162083	-2.248719E-07	-0.2213549	-6.061887E-06	-5.967079
9.295935	0.0550055	0.414986	-0.07341728	-0.07341728	-2.210324	4.453871
9.312422	0.0550055	0.4100966	-2.259515E-07	-0.2965587	2.215604	-6.734033
9.328988	0.05256081	0.4003178	-0.1475702	-0.5902798	-4.464592	-8.88626
9.345552	0.04767144	0.3697592	-0.2951741	-1.84484	-4.455208	-37.86707
9.362823	0.04522675	0.3489793	-0.1415486	-1.203163	4.540376	18.96467
9.38125	0.04522675	0.3294218	0	-1.061355	3.965176	3.972443
9.400773	0.04522674	0.312309	-1.908187E-07	-0.8765632	-5.028219E-06	4.869402
9.42055	0.0440044	0.2976409	-0.06180513	-0.7416639	-1.572646	3.432556
9.439389	0.0440044	0.2890845	0	-0.4541881	1.600498	7.444439
9.458481	0.04278206	0.2719716	-0.06402531	-0.8963547	-1.687964	-11.65729
9.481117	0.04033737	0.2597482	-0.1079979	-0.5399894	-1.05379	8.540194
9.498601	0.03789268	0.2438577	-0.1398268	-0.908875	-0.7933416	-9.19453
9.520597	0.03544799	0.2316343	-0.11114	-0.5556992	0.7266117	8.945642
9.53964	0.0330033	0.2132991	-0.1283775	-0.9628311	-0.4200205	-9.920497
9.558706	0.03055861	0.2010757	-0.1282233	-0.6411166	0.004046625	8.441995
9.581558	0.02689158	0.1766288	-0.1604693	-1.069795	-0.7692691	-10.22664
9.599111	0.02444689	0.1619606	-0.1392796	-0.835679	0.5244415	5.794325
9.621662	0.02077986	0.1424031	-0.1626069	-0.8672361	-0.5816697	-0.7868829
9.646114	0.01833517	0.1362914	-0.09997814	-0.2499451	1.33242	13.1328
9.662691	0.01711282	0.1252903	-0.0737385	-0.6636463	0.6395392	-10.08315
9.679703	0.01222344	0.1057328	-0.2874137	-1.149654	-6.361574	-14.46951
9.707069	0.0110011	0.1008434	-0.04466548	-0.1786619	5.469977	21.8799
9.723638	0.006111722	0.08495294	-0.2951065	-0.9590964	-5.700284	-17.76346
9.744942	0.004889378	0.08006357	-0.05737594	-0.2295033	6.277159	19.26455
9.765467	0.004889378	0.07517418	0	-0.2382163	1.371675	-0.2082983
9.789804	0.003667034	0.07395184	-0.05022614	-0.05022606	-1.119575	4.19043
9.810246	0.003667034	0.07028481	0	-0.1793872	1.12165	-2.884424
9.830801	0.002444689	0.06050605	-0.05946558	-0.4757245	-1.450468	-7.228179
9.85049	0.002444689	0.05439433	0	-0.3104193	1.477622	4.107564
9.869714	-0.001222344	0.04706026	-0.1907512	-0.3815025	-4.902021	-1.826734
9.89012	-0.001222344	0.04339323	0	-0.1797058	4.813312	5.092029
9.90999	-0.001222344	0.03361447	0	-0.4921179	0	-7.756682
9.930572	-0.001222344	0.02628041	0	-0.356347	0	3.356347
9.949707	-0.001222344	0.02139103	0	-0.2555138	0	2.538809
9.969194	-0.001222344	0.02016868	0	-0.0627249	0	4.991576
9.98947	-0.001222344	0.01894634	0	-0.06028506	0	0.0613589
10.00787	-0.001222344	0.017724	0	-0.0664345	0	-0.1590015
10.02879	-0.001222344	0.017724	0	0	0	1.689791
10.04753	-0.001222344	0.017724	0	0	0	0
10.06791	-0.001222344	0.017724	0	0	0	0
10.08899	-0.001222344	0.017724	0	0	0	0
10.1067	-0.001222344	0.01650165	0	-0.06902486	0	-1.779374
10.12588	-0.001222344	0.01650165	0	0	0	1.871146
10.14586	-0.001222344	0.01650165	0	0	0	0
10.16253	-0.001222344	0.01650165	0	0	0	0
10.18106	-0.001222344	0.01650165	0	0	0	0
10.19763	-0.001222344	0.01527931	0	-0.07376391	0	-2.101594
10.21458	-0.001222344	0.01405696	0	-0.07210806	0	0.04939493
10.23076	-0.001222345	0.01283462	-7.194572E-09	-0.07554197	-2.171451E-07	-0.1036417
10.24732	-0.001222345	0.01283462	0	0	2.197063E-07	2.306885
10.26623	-0.001222344	0.01161227	6.158325E-09	-0.06466157	1.736253E-07	-1.823042
10.28795	-0.001222344	0.01161227	0	0	-1.515874E-07	1.591647
10.30584	-0.001222344	0.01161227	0	0	0	0
10.32353	-0.001222344	0.01161227	0	0	0	0
10.34302	-0.001222344	0.01161227	0	0	0	0
10.35967	-0.001222344	0.01161227	0	0	0	0
10.37619	-0.001222344	0.01161227	0	0	0	0
10.39272	-0.001222344	0.01161227	0	0	0	0
10.41355	-0.001222344	0.01161227	0	0	0	0
10.43022	-0.001222344	0.01161227	0	0	0	0
10.44675	-0.001222344	0.01161227	0	0	0	0
10.46326	-0.001222344	0.01161227	0	0	0	0
10.48536	-0.001222344	0.01161227	0	0	0	0
10.50193	-0.001222344	0.01161227	0	0	0	0
10.52292	-0.001222344	0.01161227	0	0	0	0
10.54184	-0.001222344	0.01161227	0	0	0	0
10.5584	-0.001222344	0.01161227	0	0	0	0
10.57498	-0.001222344	0.01161227	0	0	0	0
10.59154	-0.001222344	0.01161227	0	0	0	0
10.61502	-0.001222344	0.01161227	0	0	0	0
10.63159	-0.001222344	0.01161227	0	0	0	0
10.65309	-0.001222344	0.01161227	0	0	0	0
10.67217	-0.001222344	0.01161227	0	0	0	0
10.69181	-0.001222344	0.01161227	0	0	0	0
10.70837	-0.001222344	0.01161227	0	0	0	0
10.72494	-0.001222344	0.01161227	0	0	0	0
10.74151	-0.001222344	0.01161227	0	0	0	0
10.7603	-0.001222344	0.01161227	0	0	0	0
10.77687	-0.001222344	0.01161227	0	0	0	0
10.79344	-0.001222344	0.01161227	0	0	0	0
10.8487	-0.001222344	0.01161227	0	0	0	0
10.86583	-0.001222344	0.01161227	0	0	0	0
10.88985	-0.001222344	0.01161227	0	0	0	0
10.93612	-0.001222344	0.01161227	0	0	0	0
10.95434	-0.001222344	0.01161227	0	0	0	0
10.97126	-0.001222344	0.01161227	0	0	0	0
10.992	-0.001222344	0.01161227	0	0	0	0
11.01318	-0.001222344	0.01161227	0	0	0	0
11.03083	-0.001222344	0.01161227	0	0	0	0
11.05064	-0.001222344	0.01161227	0	0	0	0
11.0703	-0.001222344	0.01161227	0	0	0	0
11.08934	-0.001222344	0.01161227	0	0	0	0
11.1073	-0.001222344	0.01161227	0	0	0	0
11.12701	-0.001222344	0.01161227	0	0	0	0
11.14358	-0.001222344	0.01161227	0	0	0	0
11.16148	-0.001222344	0.01161227	0	0	0	0
11.17826	-0.001222344	0.01161227	0	0	0	0
11.19461	-0.001222344	0.01161227	0	0	0	0
11.21118	-0.001222344	0.01161227	0	0	0	0
11.22778	-0.001222344	0.01161227	0	0	0	0
11.24994	-0.001222344	0.01161227	0	0	0	0
11.26651	-0.001222344	0.01161227	0	0	0	0
11.28307	-0.001222344	0.01161227	0	0	0	0
11.29964	-0.001222344	0.01161227	0	0	0	0
11.31621	-0.001222344	0.01161227	0	0	0	0
11.33506	-0.001222344	0.01161227	0	0	0	0
11.35582	-0.001222344	0.01161227	0	0	0	0
11.37328	-0.001222344	0.01161227	0	0	0	0
11.39556	-0.001222344	0.01161227	0	0	0	0
11.41212	-0.001222344	0.01161227	0	0	0	0
11.42982	-0.001222344	0.01161227	0	0	0	0
11.44639	-0.001222344	0.01161227	0	0	0	0
11.46295	-0.001222344	0.01161227	0	0	0	0
11.48108	-0.001222344	0.01161227	0	0	0	0
11.49765	-0.001222344	0.01161227	0	0	0	0
11.51422	-0.001222344	0.01161227	0	0	0	0
11.53078	-0.001222344	0.01161227	0	0	0	0
11.55087	-0.001222344	0.01161227	0	0	0	0
11.56753	-0.001222344	0.01161227	0	0	0	0
11.58972	-0.001222344	0.01161227	0	0	0	0
11.60972	-0.001222344	0.01161227	0	0	0	0
11.62629	-0.001222344	0.01161227	0	0	0	0
11.6447	-0.001222344	0.01161227	0	0	0	0
11.66162	-0.001222344	0.01161227	0	0	0	0
11.67861	-0.001222344	0.01161227	0	0	0	0
11.69476	-0.001222344	0.01161227	0	0	0	0
11.71162	-0.001222344	0.01161227	0	0	0	0
11.72789	-0.001222344	0.01161227	0	0	0	0
11.74747	-0.001222344	0.01161227	0	0	0	0
11.76403	-0.001222344	0.01161227	0	0	0	0
11.78815	-0.001222344	0.01161227	0	0	0	0
11.80614	-0.001222344	0.01161227	0	0	0	0
11.82584	-0.001222344	0.01161227	0	0	0	0
11.84273	-0.001222344	0.01161227	0	0	0	0
11.85897	-0.001222344	0.01161227	0	0	0	0
11.87575	-0.001222344	0.01161227	0	0	0	0
11.8921	-0.001222344	0.01161227	0	0	0	0
11.91246	-0.001222344	0.01161227	0	0	0	0
11.92903	-0.001222344	0.01161227	0	0	0	0
11.94608	-0.001222344	0.01161227	0	0	0	0
11.96265	-0.001222344	0.01161227	0	0	0	0
11.97922	-0.001222344	0.01161227	0	0	0	0
11.99753	-0.001222344	0.01161227	0	0	0	0
12.01457	-0.001222344	0.01161227	0	0	0	0
12.03659	-0.001222344	0.01161227	0	0	0	0
12.05614	-0.001222344	0.01161227	0	0	0	0
12.07852	-0.001222344	0.01161227	0	0	0	0
12.09509	-0.001222344	0.01161227	0	0	0	0
12.11263	-0.001222344	0.01161227	0	0	0	0
12.1292	-0.001222344	0.01161227	0	0	0	0
12.14594	-0.001222344	0.01161227	0	0	0	0
12.16573	-0.001222344	0.01161227	0	0	0	0
12.18246	-0.001222344	0.01161227	0	0	0	0
12.20478	-0.001222344	0.01161227	0	0	0	0
12.22276	-0.001222344	0.01161227	0	0	0	0
12.24198	-0.001222344	0.01161227	0	0	0	0
12.26214	-0.001222344	0.01161227	0	0	0	0
12.28207	-0.001222344	0.01161227	0	0	0	0
12.30144	-0.001222344	0.01161227	0	0	0	0
12.32171	-0.001222344	0.01161227	0	0	0	0
12.37095	-0.001222344	0.01161227	0	0	0	0
12.39016	-0.001222344	0.01161227	0	0	0	0
12.41527	-0.001222344	0.01161227	0	0	0	0
12.43184	-0.001222344	0.01161227	0	0	0	0
12.4519	-0.001222344	0.017724	0	0.304635	0	8.316835
12.47254	0.01344579	0.05561667	0.7105869	1.835683	17.45711	37.61351
12.49587	0.03667033	0.1851852	0.9954504	5.553566	6.478151	84.54929
12.51384	0.05133847	0.3575358	0.8165564	9.594537	-4.332194	97.85831
12.53535	0.05133847	0.4626574	-1.731724E-07	4.886643	-20.68518	-119.2613
12.5549	0.03236442	0.4989515	-0.9705237	1.856444	-23.63536	-73.79507
12.57243	0.024141	0.4994169	-0.4691448	0.0265523	13.52196	-49.35134
12.59416	0.01923503	0.4996299	-0.2257748	0.009802227	6.199244	-0.4266664
12.61346	0.01566052	0.4997547	-0.1851853	0.006466156	0.9892203	-0.08130444
12.63293	0.01534958	0.4997644	-0.01597194	0.0004975383	4.364575	-0.1539505
12.65205	0.01416615	0.4997993	-0.061873	0.001827695	-1.189324	0.03446515
12.6712	0.01414111	0.4998	-0.001307695	3.26948E-05	1.582619	-0.04690476
12.69019	0.01502416	0.4997742	0.04649924	-0.001355898	1.2537	-0.03641478
12.7115	0.01590706	0.4997469	0.04141514	-0.001279133	-0.1261285	0.001904406
12.73028	0.01678982	0.499718	0.04701995	-0.0015398	0.1397972	-0.006501629
12.75041	0.01855485	0.4996556	0.08768095	-0.003100128	1.045157	-0.04010694
12.76989	0.02824835	0.4992014	0.4976439	-0.02332007	10.35026	-0.5104892
12.78944	0.0536235	0.4971162	1.297623	-0.1066325	20.49448	-2.134362
12.8091	0.07714833	0.4940123	1.19699	-0.1579332	-2.566624	-1.30841
12.82566	0.1353104	0.481343	3.510872	-0.7647606	63.8848	-16.75412
12.84484	0.1610349	0.473358	1.341463	-0.4163968	-60.69505	9.746417
12.8614	0.1774407	0.4674557	0.990365	-0.3563058	-9.823176	1.681252
12.87798	0.1835358	0.4650964	0.367817	-0.1423767	-18.78746	6.456021
12.89454	0.1894301	0.4627269	0.3558058	-0.1430275	-0.3624648	-0.01964063
12.91111	0.2039184	0.4565274	0.8745107	-0.3742013	15.65499	-6.977039
12.92767	0.2211003	0.4484581	1.03728	-0.487152	4.91281	-3.409154
12.94504	0.2414275	0.4378502	1.170298	-0.6107262	3.919952	-3.641641
12.96227	0.277549	0.4158925	2.09631	-1.274316	26.76314	-19.17875
12.97999	0.3029953	0.3977359	1.436082	-1.02468	-18.89049	7.142596
13.00091	0.3196143	0.3845084	0.7944161	-0.6322968	-16.60666	10.1551
13.02086	0.3410637	0.3656167	1.075419	-0.947181	6.876379	-7.705484
13.03882	0.3528776	0.3542279	0.6578731	-0.6342041	-11.01622	8.257349
13.05925	0.3640335	0.3427529	0.5460414	-0.5616554	-2.913176	1.889867
13.08069	0.3774102	0.3279658	0.6238422	-0.6896195	1.858021	-3.056008
13.10122	0.3878898	0.3155019	0.5104844	-0.6071422	-2.700848	1.965093
13.12124	0.3960235	0.3052301	0.4061875	-0.5129691	-2.57186	2.322217
13.1392	0.4104249	0.2855721	0.8019207	-1.094623	10.41871	-15.31355
13.1593	0.4149791	0.2789129	0.2266033	-0.3313414	-15.11751	20.0566
13.18009	0.4170639	0.2757857	0.1002827	-0.1504255	-3.089514	4.42479
13.20161	0.4193863	0.2722411	0.1079202	-0.1647172	0.1805175	-0.3377957
13.22105	0.4257522	0.2621737	0.3274865	-0.5179009	5.360714	-8.622986
13.23893	0.4320509	0.2516585	0.3522517	-0.5880517	0.6635888	-1.879702
13.25876	0.4383881	0.2404493	0.3194573	-0.5650577	-0.8694447	0.6096164
13.28066	0.4465124	0.2250038	0.371015	-0.7053598	1.235368	-3.361761
13.3221	0.4484236	0.2211702	0.04612095	-0.0925098	-5.129582	9.675968
13.33878	0.4484236	0.2211702	0	0	-0.793511	1.591631
13.3602	0.4484236	0.2211702	0	0	0	0
13.38291	0.4485933	0.2208259	0.007468091	-0.0151566	0.1692318	-0.3434584
13.4053	0.4489302	0.2201401	0.0150499	-0.03063296	0.1681066	-0.3431476
13.42669	0.4502585	0.2174105	0.06210567	-0.1276224	1.074956	-2.215655
13.44325	0.4527597	0.2121526	0.1509877	-0.3174052	2.341874	-5.000419
13.45982	0.4533128	0.210968	0.03338117	-0.07148779	-3.549168	7.421375
13.47639	0.4537277	0.2100743	0.02504678	-0.05394988	-0.251518	0.5292648
13.49969	0.4550601	0.2071721	0.05717593	-0.1245415	0.805881	-1.770618
13.51884	0.456078	0.2049216	0.05316142	-0.1175299	-0.09456823	0.1651696
13.54223	0.4560484	0.2049875	-0.001267684	0.002815023	-1.279493	2.82901
13.56891	0.4561794	0.2046959	0.004909693	-0.01093147	0.1233753	-0.2745465
13.59527	0.4561794	0.2046959	0	0	-0.09257829	0.2061262
13.61934	0.455859	0.2054083	-0.01330973	0.02959959	-0.2639482	0.5869962
13.64636	0.4555402	0.2061145	-0.01179788	0.02613413	0.0295905	-0.06782777
13.66999	0.4547997	0.2077432	-0.03133955	0.06892797	-0.3858131	0.8448833
13.69719	0.4533163	0.2109605	-0.0545251	0.1182586	-0.4560973	0.9704131
13.72056	0.4519852	0.2137974	-0.05695521	0.121391	-0.04804948	0.06193666
13.74793	0.4513951	0.2150407	-0.0215625	0.04542356	0.6975275	-1.497184
13.7716	0.450945	0.2159829	-0.01901796	0.03981142	0.04985598	-0.1099605
13.80234	0.450649	0.2165998	-0.009629332	0.02007121	0.1725746	-0.3628495
13.82267	0.450649	0.2165998	0	0	0.1885438	-0.3929974
13.85098	0.450649	0.2165998	0	0	0	0
13.87372	0.450649	0.2165998	0	0	0	0
13.89547	0.450649	0.2165998	0	0	0	0
13.91278	0.450649	0.2165998	0	0	0	0
13.93134	0.450649	0.2165998	0	0	0	0
13.95004	0.450649	0.2165998	0	0	0	0
13.97051	0.450649	0.2165998	0	0	0	0
13.99587	0.450649	0.2165998	0	0	0	0
14.01818	0.4531797	0.2112538	0.113461	-0.2396822	2.380306	-5.02831
14.03984	0.454825	0.2076879	0.07593726	-0.1645793	-0.8533726	1.708007
14.05853	0.4573736	0.2020132	0.1363505	-0.3035898	1.496912	-3.444386
14.0761	0.4600865	0.195756	0.1544212	-0.3561781	0.4983718	-1.450326
14.09544	0.4630305	0.1886869	0.152243	-0.3655612	-0.05902235	-0.2542484
14.11406	0.4656636	0.1820917	0.1414189	-0.3542123	-0.2851664	0.2989922
14.13311	0.4680966	0.175743	0.1277271	-0.3333046	-0.3634924	0.5550612
14.15361	0.4719815	0.1650256	0.1895179	-0.5228193	1.562466	-4.792141
14.17625	0.4751415	0.1556937	0.1395275	-0.4120426	-1.158604	2.56742
14.20339	0.4781024	0.1463491	0.1090955	-0.3443018	-0.6112258	1.360572
14.22768	0.4815588	0.1345404	0.1423017	-0.4861737	0.6456598	-2.758558
14.25185	0.4835885	0.1270519	0.08397451	-0.309828	-1.203638	3.639067
14.2745	0.4852268	0.1206438	0.07232549	-0.2828956	-0.2487959	0.5752136
14.30145	0.4865978	0.1149898	0.05087927	-0.2098271	-0.4324032	1.473223
14.3228	0.4888093	0.1051925	0.1035962	-0.4589335	1.091581	-5.158116
14.35055	0.4891749	0.1034793	0.01316982	-0.06172608	-1.841573	8.089306
14.39097	0.4895349	0.1017623	0.008908241	-0.04248245	-0.06251261	0.2822826
14.42185	0.4900293	0.09935457	0.01600859	-0.07796336	0.0995848	-0.4976316
14.43886	0.4900293	0.09935457	0	0	-0.3342472	1.627815
14.46551	0.4900293	0.09935457	0	0	0	0
14.48207	0.4900293	0.09935457	0	0	0	0
14.50118	0.4902036	0.09849045	0.009123746	-0.04522103	0.2557459	-1.267581
14.5193	0.4905483	0.09675951	0.0190231	-0.09555228	0.2659414	-1.352125
14.54047	0.4910226	0.09432326	0.02240428	-0.1150718	0.08606447	-0.4968488
14.55827	0.4918113	0.09012011	0.04430683	-0.2361149	0.561995	-3.105831
14.57642	0.492442	0.08660811	0.03474028	-0.1934648	-0.2660739	1.186226
14.59475	0.4933194	0.08146141	0.0478875	-0.2808885	0.3604334	-2.396738
14.61575	0.4941489	0.07626881	0.03949818	-0.2472678	-0.2133445	0.8549925
14.63468	0.4945351	0.07372236	0.02040665	-0.1345295	-0.4781437	2.823509
14.65349	0.4946679	0.07282611	0.007056196	-0.04763249	-0.3537058	2.30224
14.67391	0.4946679	0.07282611	0	0	-0.1798439	1.214027
14.69205	0.4946679	0.07282611	0	0	0	0
14.70876	0.4946679	0.07282611	0	0	0	0
14.72533	0.4946679	0.07282611	0	0	0	0
14.75139	0.4945351	0.07372236	-0.005094922	0.03439301	-0.1195197	0.8068119
14.77174	0.4935625	0.0799754	-0.04779842	0.3072967	-0.9201814	5.880569
14.79982	0.4929731	0.08353156	-0.0209858	0.1266308	0.5536208	-3.730345
14.81891	0.4923597	0.08707471	-0.03213996	0.1856241	-0.236464	1.250634
14.84395	0.4920439	0.08884126	-0.01260733	0.07053383	0.4425836	-2.607794
14.86969	0.4913948	0.09236404	-0.02521371	0.1368468	-0.2482161	1.305684
14.89706	0.4902029	0.09849448	-0.04355463	0.2240112	-0.3453438	1.641231
14.91897	0.4900268	0.09936655	-0.008038358	0.03981321	0.7208408	-3.738496
14.94269	0.4900268	0.09936655	0	0	0.1761805	-0.8726051
14.96812	0.4900268	0.09936655	0	0	0	0
14.99107	0.4898494	0.1002377	-0.007731357	0.03795051	-0.1597894	0.7843499
15.01726	0.4896705	0.1011079	-0.006830247	0.03323385	0.01833797	-0.0959859
15.03803	0.4896705	0.1011079	0	0	0.1454426	-0.7076787
15.06228	0.4896705	0.1011079	0	0	0	0
15.08537	0.4896705	0.1011079	0	0	0	0
15.10958	0.4896705	0.1011079	0	0	0	0
15.13394	0.4896705	0.1011079	0	0	0	0
15.15547	0.4896705	0.1011079	0	0	0	0
15.18265	0.4896705	0.1011079	0	0	0	0
15.20516	0.4896705	0.1011079	0	0	0	0
15.23129	0.4896705	0.1011079	0	0	0	0
15.25187	0.4896705	0.1011079	0	0	0	0
15.27606	0.4896705	0.1011079	0	0	0	0
15.29725	0.4896705	0.1011079	0	0	0	0
15.32223	0.4896705	0.1011079	0	0	0	0
15.34936	0.4896705	0.1011079	0	0	0	0
15.36985	0.4896705	0.1011079	0	0	0	0
15.39766	0.4896705	0.1011079	0	0	0	0
15.42026	0.4896705	0.1011079	0	0	0	0
15.44568	0.4896705	0.1011079	0	0	0	0
15.46733	0.4896705	0.1011079	0	0	0	0
15.48655	0.4896705	0.1011079	0	0	0	0
15.50737	0.4896705	0.1011079	0	0	0	0
15.52457	0.4896705	0.1011079	0	0	0	0
15.54139	0.4896705	0.1011079	0	0	0	0
15.56234	0.4896705	0.1011079	0	0	0	0
15.58019	0.4896705	0.1011079	0	0	0	0
15.59891	0.4896705	0.1011079	0	0	0	0
15.61823	0.4896705	0.1011079	0	0	0	0
15.63845	0.4896705	0.1011079	0	0	0	0
15.66536	0.4896705	0.1011079	0	0	0	0
15.68604	0.4896705	0.1011079	0	0	0	0
15.70935	0.4896705	0.1011079	0	0	0	0
15.72607	0.4896705	0.1011079	0	0	0	0
15.74283	0.4896705	0.1011079	0	0	0	0
15.76126	0.4896705	0.1011079	0	0	0	0
15.78334	0.4896705	0.1011079	0	0	0	0
15.80046	0.4896705	0.1011079	0	0	0	0
15.82102	0.4896705	0.1011079	0	0	0	0
15.84555	0.4896705	0.1011079	0	0	0	0
15.87026	0.4896705	0.1011079	0	0	0	0
15.89488	0.4896705	0.1011079	0	0	0	0
15.91786	0.4896705	0.1011079	0	0	0	0
15.94032	0.4896705	0.1011079	0	0	0	0
15.95767	0.4896705	0.1011079	0	0	0	0
15.97516	0.4896705	0.1011079	0	0	0	0
15.99428	0.4896705	0.1011079	0	0	0	0
16.01344	0.4896705	0.1011079	0	0	0	0
16.03387	0.4896705	0.1011079	0	0	0	0
16.05293	0.4896705	0.1011079	0	0	0	0
16.07243	0.4896705	0.1011079	0	0	0	0
16.10023	0.4896705	0.1011079	0	0	0	0
16.11877	0.4896705	0.1011079	0	0	0	0
16.1435	0.4896705	0.1011079	0	0	0	0
16.16451	0.4896705	0.1011079	0	0	0	0
16.19027	0.4896705	0.1011079	0	0	0	0
16.20887	0.4896705	0.1011079	0	0	0	0
16.22544	0.4896705	0.1011079	0	0	0	0
16.24413	0.4896705	0.1011079	0	0	0	0
16.26528	0.4896705	0.1011079	0	0	0	0
16.28565	0.4896705	0.1011079	0	0	0	0
16.30953	0.4896705	0.1011079	0	0	0	0
16.33428	0.4896705	0.1011079	0	0	0	0
16.35634	0.4896705	0.1011079	0	0	0	0
16.38273	0.4896705	0.1011079	0	0	0	0
