Time	Pos X	Pos Y	Vel X	Vel Y	Acc X	Acc Y
0.02000623	-0.01466813	-0.009167585	0.0008217842	0.0005136151	-4.608609E-05	-2.880381E-05
0.1155076	-0.01466813	-0.009167585	0	0	4.628823E-05	2.893015E-05
0.1441534	-0.01344579	-0.009167583	0.04267096	6.502321E-08	0.3437127	5.237591E-07
0.1755183	-0.01344579	-0.009167583	0	0	-0.7110549	-1.083525E-06
0.1929555	-0.01344579	-0.009167583	0	0	0	0
0.212308	-0.01344579	-0.009167583	0	0	0	0
0.2350534	-0.01344579	-0.01038993	0	-0.05374025	0	-1.276553
0.2576477	-0.01344579	-0.01038993	0	0	0	1.185281
0.2758207	-0.01344579	-0.01038993	0	0	0	0
0.2961167	-0.01344579	-0.01038993	0	0	0	0
0.3164687	-0.01344579	-0.01038993	0	0	0	0
0.3373635	-0.01344579	-0.01038993	0	0	0	0
0.3539831	-0.01344579	-0.01038993	0	0	0	0
0.3761163	-0.01344579	-0.01038993	0	0	0	0
0.392683	-0.01344579	-0.01038993	0	0	0	0
0.4133623	-0.01344579	-0.01038993	0	0	0	0
0.434434	-0.01344579	-0.01038993	0	0	0	0
0.4561906	-0.01344579	-0.01038993	0	0	0	0
0.4729689	-0.01344579	-0.01038993	0	0	0	0
0.4905482	-0.01344579	-0.01038993	0	0	0	0
0.5371179	-0.01344579	-0.01038993	0	0	0	0
0.5538954	-0.01344579	-0.01038993	0	0	0	0
0.5704665	-0.01344579	-0.01038993	0	0	0	0
0.5900416	-0.01344579	-0.01038993	0	0	0	0
0.6075131	-0.01344579	-0.01038993	0	0	0	0
0.6241031	-0.01344579	-0.01038993	0	0	0	0
0.6428592	-0.01344579	-0.01038993	0	0	0	0
0.659429	-0.01344579	-0.01038993	0	0	0	0
0.6761268	-0.01344579	-0.01038993	0	0	0	0
0.6951966	-0.01344579	-0.01038993	0	0	0	0
0.7117653	-0.01344579	-0.01038993	0	0	0	0
0.7333111	-0.01344579	-0.01038993	0	0	0	0
0.7525985	-0.01344579	-0.01038993	0	0	0	0
0.7691637	-0.01344579	-0.01038993	0	0	0	0
0.7857351	-0.01344579	-0.01038993	0	0	0	0
0.8023027	-0.01344579	-0.01038993	0	0	0	0
0.8188698	-0.01344579	-0.01038993	0	0	0	0
0.8403946	-0.01344579	-0.01038993	0	0	0	0
0.8633438	-0.01344579	-0.01038993	0	0	0	0
0.882632	-0.01344579	-0.01038993	0	0	0	0
0.9006237	-0.01344579	-0.01038993	0	0	0	0
0.9241922	-0.01344579	-0.01038993	0	0	0	0
0.9411668	-0.01344579	-0.01038993	0	0	0	0
0.962396	-0.01344579	-0.01038993	0	0	0	0
0.9832742	-0.01344579	-0.01038993	0	0	0	0
1.001689	-0.01344579	-0.01038993	0	0	0	0
1.03721	-0.01344579	-0.01038993	0	0	0	0
1.054636	-0.01344579	-0.01038993	0	0	0	0
1.071207	-0.01344579	-0.01038993	0	0	0	0
1.087926	-0.01344579	-0.01038993	0	0	0	0
1.107557	-0.01344579	-0.01038993	0	0	0	0
1.124429	-0.01344579	-0.01038993	0	0	0	0
1.140693	-0.01344579	-0.01038993	0	0	0	0
1.157467	-0.01344579	-0.01038993	0	0	0	0
1.176557	-0.01344579	-0.01038993	0	0	0	0
1.193125	-0.01344579	-0.01038993	0	0	0	0
1.21261	-0.01344579	-0.01038993	0	0	0	0
1.23365	-0.01344579	-0.01038993	0	0	0	0
1.253721	-0.01344579	-0.01038993	0	0	0	0
1.270287	-0.01344579	-0.01038993	0	0	0	0
1.286856	-0.01344579	-0.01038993	0	0	0	0
1.304068	-0.01344579	-0.01038993	0	0	0	0
1.325799	-0.01344579	-0.01038993	0	0	0	0
1.3426	-0.01344579	-0.01038993	0	0	0	0
1.363292	-0.01344579	-0.01038993	0	0	0	0
1.382632	-0.01344579	-0.01038993	0	0	0	0
1.402248	-0.01344579	-0.01038993	0	0	0	0
1.424039	-0.01344579	-0.01038993	0	0	0	0
1.440651	-0.01344579	-0.01038993	0	0	0	0
1.458084	-0.01344579	-0.01038993	0	0	0	0
1.474654	-0.01344579	-0.01038993	0	0	0	0
1.491221	-0.01344579	-0.01038993	0	0	0	0
1.510363	-0.01344579	-0.01038993	0	0	0	0
1.526931	-0.01344579	-0.01038993	0	0	0	0
1.546333	-0.01344579	-0.01038993	0	0	0	0
1.566983	-0.01344579	-0.01038993	0	0	0	0
1.586424	-0.01344579	-0.01038993	0	0	0	0
1.602989	-0.01344579	-0.01038993	0	0	0	0
1.61956	-0.01344579	-0.01038993	0	0	0	0
1.636127	-0.01344579	-0.01038993	0	0	0	0
1.655959	-0.01344579	-0.01038993	0	0	0	0
1.672525	-0.01344579	-0.01038993	0	0	0	0
1.689095	-0.01344579	-0.01038993	0	0	0	0
1.705853	-0.01344579	-0.01038993	0	0	0	0
1.727531	-0.01344579	-0.01038993	0	0	0	0
1.744379	-0.01344579	-0.01038993	0	0	0	0
1.765188	-0.01344579	-0.01038993	0	0	0	0
1.783834	-0.01344579	-0.01038993	0	0	0	0
1.805795	-0.01344579	-0.01038993	0	0	0	0
1.822361	-0.01344579	-0.01038993	0	0	0	0
1.841931	-0.01344579	-0.01038993	0	0	0	0
1.858877	-0.01344579	-0.01038993	0	0	0	0
1.875474	-0.01344579	-0.01038993	0	0	0	0
1.908236	-0.01344579	-0.01038993	0	0	0	0
1.924804	-0.01344579	-0.01038993	0	0	0	0
1.948284	-0.01344579	-0.01038993	0	0	0	0
1.966067	-0.01344579	-0.01038993	0	0	0	0
2.002903	-0.01344579	-0.01038993	0	0	0	0
2.020468	-0.01344579	-0.01038993	0	0	0	0
2.037038	-0.01344579	-0.01038993	0	0	0	0
2.053604	-0.01344579	-0.01038993	0	0	0	0
2.073735	-0.01344579	-0.01038993	0	0	0	0
2.0903	-0.01344579	-0.01038993	0	0	0	0
2.10849	-0.01344579	-0.01038993	0	0	0	0
2.125061	-0.01344579	-0.01038993	0	0	0	0
2.143431	-0.01344579	-0.01038993	0	0	0	0
2.162694	-0.01344579	-0.01038993	0	0	0	0
2.181495	-0.01344579	-0.01038993	0	0	0	0
2.199546	-0.01344579	-0.01038993	0	0	0	0
2.220912	-0.01344579	-0.01038993	0	0	0	0
2.237477	-0.01344579	-0.01038993	0	0	0	0
2.255179	-0.01344579	-0.01038993	0	0	0	0
2.271749	-0.01344579	-0.01038993	0	0	0	0
2.288316	-0.01344579	-0.01038993	0	0	0	0
2.304884	-0.01344579	-0.01038993	0	0	0	0
2.321446	-0.01344579	-0.01038993	0	0	0	0
2.339008	-0.01344579	-0.01038993	0	0	0	0
2.356415	-0.01344579	-0.01038993	0	0	0	0
2.372984	-0.01344579	-0.01038993	0	0	0	0
2.389552	-0.01344579	-0.01038993	0	0	0	0
2.410973	-0.01344579	-0.01038993	0	0	0	0
2.427543	-0.01344579	-0.01038993	0	0	0	0
2.444818	-0.01344579	-0.01038993	0	0	0	0
2.464819	-0.01344579	-0.01038993	0	0	0	0
2.482594	-0.01344579	-0.01038993	0	0	0	0
2.500379	-0.01344579	-0.01038993	0	0	0	0
2.522815	-0.01344579	-0.01038993	0	0	0	0
2.539381	-0.01344579	-0.01038993	0	0	0	0
2.55595	-0.01344579	-0.01038993	0	0	0	0
2.572517	-0.01344579	-0.01038993	0	0	0	0
2.589084	-0.01344579	-0.01038993	0	0	0	0
2.60829	-0.01344579	-0.01038993	0	0	0	0
2.624857	-0.01344579	-0.01038993	0	0	0	0
2.646569	-0.01344579	-0.01038993	0	0	0	0
2.665828	-0.01344579	-0.01038993	0	0	0	0
2.684074	-0.01344579	-0.01038993	0	0	0	0
2.703599	-0.01344579	-0.01038993	0	0	0	0
2.720165	-0.01344579	-0.01038993	0	0	0	0
2.736735	-0.01466813	-0.01038993	-0.07376609	0	-2.226153	0
2.753594	-0.01466813	-0.01038993	0	0	2.206624	0
2.790682	-0.01466813	-0.01038993	0	0	0	0
2.80725	-0.01466813	-0.01038993	0	0	0	0
2.825191	-0.01466813	-0.01038993	0	0	0	0
2.842625	-0.01466813	-0.01038993	0	0	0	0
2.859195	-0.01466813	-0.01038993	0	0	0	0
2.875762	-0.01466813	-0.01038993	0	0	0	0
2.896164	-0.01466813	-0.01038993	0	0	0	0
2.914766	-0.01466813	-0.01038993	0	0	0	0
2.933685	-0.01466813	-0.01038993	0	0	0	0
2.95518	-0.01466813	-0.007945239	4.332624E-08	0.1137299	1.072045E-06	2.814081
2.973377	-0.0330033	0.004278206	-1.007629	0.6717528	-25.38625	14.05885
2.993469	-0.05011613	0.01405696	-0.8517128	0.486693	4.072137	-4.833287
3.014364	-0.06111722	0.01772399	-0.5265	0.1755	7.93453	-7.592477
3.033158	-0.06233957	0.01772399	-0.06503813	0	11.62693	-4.421873
3.052998	-0.06233957	0.01772399	0	0	1.683409	0
3.069564	-0.06233957	0.01772399	0	0	0	0
3.086135	-0.05989488	0.01405696	0.1475277	-0.2212916	4.452107	-6.678162
3.102843	-0.05256082	0.003055861	0.4389452	-0.6584184	8.756689	-13.13505
3.119352	-0.02566923	-0.02994744	1.62897	-1.999189	35.82607	-40.36435
3.135834	-0.01589048	-0.04339323	0.5932779	-0.8157569	-31.39322	35.87145
3.156621	-0.007334067	-0.0507273	0.4116279	-0.352824	-4.873978	12.42127
3.173745	0	-0.05928371	0.4282992	-0.4996824	0.4397562	-3.873821
3.193492	0.007334067	-0.06906246	0.3713878	-0.4951837	-1.54351	0.1220086
3.213432	0.01955751	-0.08617529	0.6130143	-0.85822	6.088208	-9.147341
3.232986	0.03422565	-0.1057328	0.7501295	-1.000173	3.471793	-3.594279
3.252972	0.04155971	-0.1155116	0.366975	-0.4892997	-9.690462	12.92062
3.273035	0.04889378	-0.1301797	0.3655446	-0.7310893	-0.03571567	-6.037404
3.291564	0.05500551	-0.1399585	0.3298474	-0.5277565	-0.9249821	5.268734
3.31077	0.05989488	-0.1472925	0.254581	-0.3818712	-1.994632	3.866099
3.331714	0.06111722	-0.1485149	0.05836075	-0.05836075	-4.887158	8.057511
3.349763	0.06478426	-0.1534042	0.2031766	-0.2709021	3.713882	-5.45074
3.371178	0.0660066	-0.1558489	0.0570788	-0.1141576	-3.702098	3.971884
3.389807	0.0660066	-0.1570713	0	-0.06561392	-1.425391	1.212249
3.409938	0.0660066	-0.1570713	0	0	0	1.692817
3.431365	0.0660066	-0.1582936	0	-0.05704768	0	-1.372739
3.449146	0.0660066	-0.1619606	0	-0.2062335	0	-3.805013
3.468702	0.06356191	-0.1680724	-0.1250065	-0.312516	-3.348011	-2.846532
3.489919	0.05867253	-0.1717394	-0.2304502	-0.1728374	-2.586106	3.42575
3.506871	0.0550055	-0.1741841	-0.2163119	-0.1442078	0.3704117	0.7500718
3.530306	0.04767144	-0.1839629	-0.3129519	-0.4172699	-2.392813	-6.761033
3.548761	0.02811392	-0.2096321	-1.059767	-1.390943	-17.82813	-23.24376
3.566736	0.006111722	-0.2279672	-1.224038	-1.020031	-4.509287	10.18161
3.586612	-0.006111722	-0.2365237	-0.614985	-0.4304903	16.09077	15.57526
3.603178	-0.01833517	-0.2463024	-0.7378617	-0.5902892	-3.371838	-4.385015
3.619748	-0.0330033	-0.2573035	-0.8852047	-0.6639032	-4.446564	-2.221549
3.636315	-0.04767144	-0.2646376	-0.885396	-0.4426989	-0.005773921	6.675432
3.65288	-0.05989488	-0.269527	-0.7379148	-0.2951654	4.451376	4.452955
3.669446	-0.07578535	-0.2780834	-0.959206	-0.5164948	-6.679254	-6.680408
3.689983	-0.08189708	-0.2817504	-0.2975939	-0.1785573	17.83157	9.107988
3.706553	-0.09045349	-0.2841951	-0.5163991	-0.1475423	-5.896679	0.8358369
3.723283	-0.09412052	-0.2854174	-0.2191909	-0.07306363	8.925384	2.236651
3.739687	-0.09778756	-0.2866398	-0.2235435	-0.0745142	-0.131364	-0.04377887
3.758875	-0.1038993	-0.2890845	-0.3185071	-0.1274027	-2.668057	-1.485932
3.778458	-0.1161227	-0.2927515	-0.6242101	-0.1872641	-7.884854	-1.543978
3.797751	-0.1234568	-0.2939738	-0.3801256	-0.06335265	6.278532	3.187346
3.816949	-0.1295685	-0.2951962	-0.3183564	-0.06367283	1.604748	-0.008318235
3.839927	-0.1307909	-0.2964185	-0.05319779	-0.05319715	6.28706	0.2483845
3.856784	-0.1442367	-0.2988632	-0.7976429	-0.1450257	-18.68845	-2.305251
3.877669	-0.149126	-0.3000856	-0.2341092	-0.05852731	14.93125	2.291839
3.897845	-0.152793	-0.3000856	-0.1817525	0	1.275098	1.425377
3.915873	-0.1540154	-0.3000856	-0.06780235	0	2.98268	0
3.939815	-0.1552377	-0.3000856	-0.05105494	0	0.3990328	0
3.957489	-0.1589048	-0.3000856	-0.207477	0	-3.758661	0
3.979887	-0.1601271	-0.3000856	-0.05457191	0	3.815672	0
3.999293	-0.1613495	-0.3000856	-0.06299068	0	-0.2013876	0
4.021085	-0.1637942	-0.3000856	-0.112183	0	-1.194067	0
4.037651	-0.1662389	-0.3000856	-0.1475751	-1.799027E-06	-0.9226848	-4.690129E-05
4.054221	-0.1662389	-0.3000856	0	0	4.453633	5.42924E-05
4.071023	-0.1662389	-0.3000856	0	0	0	0
4.090798	-0.1674612	-0.3000856	-0.06180904	1.507005E-06	-1.689801	4.120009E-05
4.109181	-0.1772399	-0.2988632	-0.5319447	0.06649461	-12.32047	1.742532
4.131604	-0.1870187	-0.2988632	-0.4361084	-1.329108E-06	2.348594	-1.62957
4.149806	-0.1882411	-0.2988632	-0.06715398	0	9.081934	3.271644E-05
4.169888	-0.1882411	-0.2988632	0	0	1.75413	0
4.186453	-0.1894634	-0.2988632	-0.07378832	0	-2.013524	0
4.20371	-0.1906857	-0.2988632	-0.0708308	0	0.08744238	0
4.22028	-0.1906857	-0.2988632	0	0	2.093924	0
4.236847	-0.1906857	-0.2988632	0	0	0	0
4.253652	-0.1919081	-0.2976409	-0.07273608	0.07273608	-2.179528	2.179528
4.273271	-0.1919081	-0.2976409	0	0	1.996945	-1.996945
4.290062	-0.1919081	-0.2976409	0	0	0	0
4.311092	-0.1919081	-0.2976409	0	0	0	0
4.33261	-0.1931304	-0.2964185	-0.05680622	0.05680622	-1.335104	1.335104
4.360669	-0.1931304	-0.2964185	0	0	1.145824	-1.145824
4.390389	-0.1931304	-0.2964185	0	0	0	0
4.411509	-0.1931304	-0.2964185	0	0	0	0
4.432663	-0.1931304	-0.2964185	0	0	0	0
4.452939	-0.1931304	-0.2964185	0	0	0	0
4.469505	-0.1931304	-0.2964185	0	0	0	0
4.486075	-0.1931304	-0.2964185	0	0	0	0
4.502641	-0.1931304	-0.2964185	0	0	0	0
4.519208	-0.1931304	-0.2964185	0	0	0	0
4.538813	-0.1931304	-0.2964185	0	0	0	0
4.555378	-0.1931304	-0.2964185	0	0	0	0
4.578521	-0.1931304	-0.2964185	0	0	0	0
4.598083	-0.1931304	-0.2964185	0	0	0	0
4.615872	-0.1931304	-0.2964185	0	0	0	0
4.638549	-0.1931304	-0.2964185	0	0	0	0
4.655527	-0.1931304	-0.2964185	0	0	0	0
4.674781	-0.1931304	-0.2964185	0	0	0	0
4.694328	-0.1931304	-0.2964185	0	0	0	0
4.713909	-0.1931304	-0.2964185	0	0	0	0
4.732368	-0.1931304	-0.2964185	0	0	0	0
4.752476	-0.1931304	-0.2964185	0	0	0	0
4.773024	-0.1931304	-0.2964185	0	0	0	0
4.792275	-0.1931304	-0.2964185	0	0	0	0
4.81288	-0.1931304	-0.2964185	0	0	0	0
4.832159	-0.1931304	-0.2964185	0	0	0	0
4.851496	-0.1931304	-0.2964185	0	0	0	0
4.872721	-0.1931304	-0.2964185	0	0	0	0
4.892912	-0.1931304	-0.2964185	0	0	0	0
4.912898	-0.1931304	-0.2964185	0	0	0	0
4.932117	-0.1931304	-0.2964185	0	0	0	0
4.951605	-0.1931304	-0.2964185	0	0	0	0
4.968173	-0.1931304	-0.2964185	0	0	0	0
4.990672	-0.1931304	-0.2964185	0	0	0	0
5.007946	-0.1931304	-0.2964185	0	0	0	0
5.031981	-0.1931304	-0.2964185	0	0	0	0
5.052069	-0.1931304	-0.2964185	0	0	0	0
5.072827	-0.1931304	-0.2964185	0	0	0	0
5.094125	-0.1931304	-0.2964185	0	0	0	0
5.114312	-0.1931304	-0.2964185	0	0	0	0
5.134511	-0.1931304	-0.2964185	0	0	0	0
5.155452	-0.1931304	-0.2964185	0	0	0	0
5.172875	-0.1931304	-0.2964185	0	0	0	0
5.193809	-0.1931304	-0.2964185	0	0	0	0
5.21349	-0.1931304	-0.2964185	0	0	0	0
5.232501	-0.1931304	-0.2964185	0	0	0	0
5.253078	-0.1931304	-0.2964185	0	0	0	0
5.27201	-0.1931304	-0.2964185	0	0	0	0
5.293108	-0.1931304	-0.2964185	0	0	0	0
5.313625	-0.1931304	-0.2964185	0	0	0	0
5.332489	-0.1931304	-0.2964185	0	0	0	0
5.356559	-0.1931304	-0.2964185	0	0	0	0
5.374818	-0.1931304	-0.2964185	0	0	0	0
5.396327	-0.1931304	-0.2964185	0	0	0	0
5.416602	-0.1931304	-0.2964185	0	0	0	0
5.439425	-0.1931304	-0.2964185	0	0	0	0
5.457625	-0.1931304	-0.2964185	0	0	0	0
5.478177	-0.1931304	-0.2964185	0	0	0	0
5.499002	-0.1931304	-0.2964185	0	0	0	0
5.541748	-0.1931304	-0.2964185	0	0	0	0
5.559829	-0.1931304	-0.2964185	0	0	0	0
5.581437	-0.1931304	-0.2964185	0	0	0	0
5.603634	-0.1931304	-0.2964185	0	0	0	0
5.620583	-0.1931304	-0.2964185	0	0	0	0
5.637154	-0.1931304	-0.2964185	0	0	0	0
5.653719	-0.1931304	-0.2964185	0	0	0	0
5.670286	-0.1931304	-0.2964185	0	0	0	0
5.686851	-0.1931304	-0.2964185	0	0	0	0
5.70342	-0.1931304	-0.2964185	0	0	0	0
5.724203	-0.1931304	-0.2964185	0	0	0	0
5.741061	-0.1931304	-0.2964185	0	0	0	0
5.762658	-0.1931304	-0.2964185	0	0	0	0
5.781689	-0.1931304	-0.2964185	0	0	0	0
5.800505	-0.1931304	-0.2964185	0	0	0	0
5.824202	-0.1931304	-0.2964185	0	0	0	0
5.845007	-0.1931304	-0.2964185	0	0	0	0
5.863998	-0.1931304	-0.2964185	0	0	0	0
5.881685	-0.1931304	-0.2964185	0	0	0	0
5.901534	-0.1931304	-0.2964185	0	0	0	0
5.919071	-0.1931304	-0.2964185	0	0	0	0
5.94153	-0.1931304	-0.2964185	0	0	0	0
5.964233	-0.1931304	-0.2964185	0	0	0	0
5.982285	-0.1919081	-0.2964185	0.06771466	1.650993E-06	1.661533	4.051088E-05
6.005042	-0.1919081	-0.2964185	0	0	-1.65934	-4.045739E-05
6.023778	-0.1919081	-0.2964185	0	0	0	0
6.044795	-0.1906857	-0.2964185	0.05816152	0	1.463056	0
6.064754	-0.1870187	-0.2951962	0.1837238	0.06123979	3.064286	1.494526
6.084383	-0.184574	-0.2939739	0.1245453	0.06227226	-1.494844	0.02608012
6.105366	-0.180907	-0.2927515	0.1747679	0.05825597	1.236668	-0.09889589
6.125618	-0.1796847	-0.2915292	0.06035521	0.06035594	-2.774684	0.05092747
6.146611	-0.1735729	-0.2878622	0.2911284	0.1746766	5.595118	2.771715
6.164826	-0.1625718	-0.2793057	0.6039687	0.4697554	7.979004	7.525997
6.184512	-0.1540154	-0.2719716	0.4346395	0.3725475	-4.467678	-2.564789
6.206164	-0.149126	-0.2670823	0.2258187	0.2258187	-5.051551	-3.549493
6.227706	-0.1405696	-0.2609705	0.397196	0.2837119	3.967635	1.340311
6.247035	-0.1271238	-0.2511918	0.6956419	0.5059208	7.302202	5.436882
6.265379	-0.1112334	-0.2328566	0.8662079	0.9994696	4.527483	13.1007
6.286673	-0.08800881	-0.2084097	1.09068	1.148085	5.662979	3.749262
6.306406	-0.06356192	-0.1802958	1.238857	1.424686	3.611681	6.741911
6.329939	-0.0550055	-0.1680724	0.3635942	0.5194198	-20.22966	-20.92312
6.347929	-0.04644909	-0.1509596	0.4756174	0.9512348	2.69786	10.39942
6.367454	-0.04155971	-0.1399584	0.2504217	0.5634494	-6.002869	-10.33689
6.389122	-0.03911502	-0.131402	0.1128252	0.3948877	-3.340325	-4.092045
6.409774	-0.0330033	-0.1130669	0.2959341	0.8878028	4.326745	11.64726
6.430863	-0.03178095	-0.1069551	0.05796127	0.2898053	-5.701128	-14.32625
6.44953	-0.03055861	-0.1020658	0.06548412	0.2619365	0.1892287	-0.7010078
6.490817	-0.02933627	-0.09839873	0.02960602	0.08881825	-0.598435	-2.887556
6.508634	-0.02811392	-0.08373059	0.06860358	0.8232434	0.6598076	12.42589
6.53281	-0.02811392	-0.07517418	7.704483E-08	0.3539199	-1.633665	-11.17607
6.555461	-0.02811392	-0.06906246	0	0.2698188	-1.645297E-06	-1.795984
6.574128	-0.02689158	-0.06539543	0.06548412	0.1964525	1.584902	-1.775674
6.59636	-0.02566924	-0.06050605	0.05497989	0.2199199	-0.2568346	0.5737928
6.615641	-0.02444689	-0.05683902	0.06339669	0.1901899	0.2027487	-0.7161541
6.639371	-0.02444689	-0.05317198	0	0.1545329	-1.473974	-0.8290265
6.656246	-0.0220022	-0.04339323	0.1448722	0.5794891	3.567878	10.46572
6.677862	-0.02077986	-0.03361448	0.056547	0.4523754	-2.294683	-3.302405
6.697561	-0.01833517	-0.02016868	0.1241015	0.6825588	1.635087	5.57135
6.715889	-0.01589048	-0.01527931	0.133384	0.2667682	0.2441012	-10.93401
6.738523	-0.01589048	-0.01283462	8.229575E-08	0.1080118	-3.256306	-3.875724
6.755348	-0.01589048	-0.01161227	0	0.07265167	-2.08564E-06	-0.896139
6.77518	-0.01589048	-0.01161227	0	0	0	-1.981914
6.794163	-0.01589048	-0.01161227	0	0	0	0
6.813583	-0.01589048	-0.01161227	0	0	0	0
6.832055	-0.01589048	-0.01161227	0	0	0	0
6.851492	-0.01589048	-0.01161227	0	0	0	0
6.868058	-0.01589048	-0.01161227	0	0	0	0
6.884629	-0.01589048	-0.01161227	0	0	0	0
6.904832	-0.01589048	-0.01161227	0	0	0	0
6.923428	-0.01589048	-0.01161227	0	0	0	0
6.942277	-0.01589048	-0.01161227	0	0	0	0
6.963181	-0.01589048	-0.01161227	0	0	0	0
6.980743	-0.01589048	-0.01161227	0	0	0	0
6.99838	-0.01589048	-0.01161227	0	0	0	0
7.017853	-0.01589048	-0.01161227	0	0	0	0
7.034418	-0.01589048	-0.01161227	0	0	0	0
7.050989	-0.01589048	-0.01161227	0	0	0	0
7.067637	-0.01589048	-0.01161227	0	0	0	0
7.087459	-0.01589048	-0.01161227	0	0	0	0
7.104025	-0.01589048	-0.01161227	0	0	0	0
7.122191	-0.01589048	-0.01161227	0	0	0	0
7.138762	-0.01589048	-0.01161227	0	0	0	0
7.155328	-0.01589048	-0.01161227	0	0	0	0
7.174755	-0.01589048	-0.01161227	0	0	0	0
7.191323	-0.01589048	-0.01161227	0	0	0	0
7.21217	-0.01589048	-0.01161227	0	0	0	0
7.232549	-0.01589048	-0.01161227	0	0	0	0
7.252152	-0.01589048	-0.01161227	0	0	0	0
7.268718	-0.01589048	-0.01161227	0	0	0	0
7.285289	-0.01589048	-0.01161227	0	0	0	0
7.303608	-0.01589048	-0.01161227	0	0	0	0
7.323239	-0.01589048	-0.01161227	0	0	0	0
7.342884	-0.01589048	-0.01161227	0	0	0	0
7.359449	-0.01589048	-0.01161227	0	0	0	0
7.392041	-0.01589048	-0.01161227	0	0	0	0
7.412514	-0.01589048	-0.01161227	0	0	0	0
7.430811	-0.01589048	-0.01161227	0	0	0	0
7.448719	-0.01589048	-0.01161227	0	0	0	0
7.468719	-0.01589048	-0.01161227	0	0	0	0
7.485289	-0.01589048	-0.01161227	0	0	0	0
7.506415	-0.01589048	-0.01161227	0	0	0	0
7.529237	-0.01589048	-0.01161227	0	0	0	0
7.547615	-0.01589048	-0.01161227	0	0	0	0
7.565921	-0.01589048	-0.01161227	0	0	0	0
7.585669	-0.01589048	-0.01161227	0	0	0	0
7.602499	-0.01589048	-0.01161227	0	0	0	0
7.620772	-0.01589048	-0.01161227	0	0	0	0
7.637342	-0.01589048	-0.01161227	0	0	0	0
7.654059	-0.01589048	-0.01161227	0	0	0	0
7.670476	-0.01589048	-0.01161227	0	0	0	0
7.687041	-0.01589048	-0.01161227	0	0	0	0
7.703687	-0.01589048	-0.01161227	0	0	0	0
7.722244	-0.01589048	-0.01161227	0	0	0	0
7.741132	-0.01589048	-0.01161227	0	0	0	0
7.759934	-0.01589048	-0.01161227	0	0	0	0
7.779415	-0.01589048	-0.01161227	0	0	0	0
7.797177	-0.01589048	-0.01161227	0	0	0	0
7.817565	-0.01589048	-0.01161227	0	0	0	0
7.834187	-0.01589048	-0.01161227	0	0	0	0
7.850758	-0.01589048	-0.01161227	0	0	0	0
7.867324	-0.01589048	-0.01161227	0	0	0	0
7.883891	-0.01589048	-0.01161227	0	0	0	0
7.903294	-0.01589048	-0.01161227	0	0	0	0
7.919859	-0.01589048	-0.01161227	0	0	0	0
7.936427	-0.01589048	-0.01161227	0	0	0	0
7.952997	-0.01589048	-0.01161227	0	0	0	0
7.969563	-0.01589048	-0.01161227	0	0	0	0
7.988966	-0.01589048	-0.01161227	0	0	0	0
8.005532	-0.01589048	-0.01161227	0	0	0	0
8.022312	-0.01589048	-0.01161227	0	0	0	0
8.03867	-0.01589048	-0.01161227	0	0	0	0
8.058462	-0.01589048	-0.01161227	0	0	0	0
8.075348	-0.01589048	-0.01161227	0	0	0	0
8.096622	-0.01589048	-0.01161227	0	0	0	0
8.114552	-0.01589048	-0.01161227	0	0	0	0
8.136193	-0.01589048	-0.01161227	0	0	0	0
8.15276	-0.01589048	-0.01161227	0	0	0	0
8.173781	-0.01589048	-0.01161227	0	0	0	0
8.194274	-0.01589048	-0.01161227	0	0	0	0
8.215238	-0.01589048	-0.01161227	0	0	0	0
8.236771	-0.01589048	-0.01161227	0	0	0	0
8.253336	-0.01589048	-0.01161227	0	0	0	0
8.273972	-0.01589048	-0.01161227	0	0	0	0
8.2931	-0.01466813	-0.01161227	0.06390072	4.868693E-08	1.606983	1.224385E-06
8.312791	-0.01466813	-0.01161227	0	0	-1.646106	-1.254194E-06
8.331246	-0.01466813	-0.01161227	0	0	0	0
8.350822	-0.01466813	-0.01161227	0	0	0	0
8.367541	-0.01466813	-0.01161227	0	0	0	0
8.383959	-0.01466813	-0.01161227	0	0	0	0
8.400586	-0.01466813	-0.01161227	0	0	0	0
8.41709	-0.01466813	-0.01161227	0	0	0	0
8.433901	-0.01466813	-0.01161227	0	0	0	0
8.45047	-0.01466813	-0.01161227	0	0	0	0
8.472849	-0.01466813	-0.01161227	0	0	0	0
8.489415	-0.01344579	-0.01161227	0.07378503	-1.12436E-07	1.894586	-2.88703E-06
8.505985	-0.01344579	-0.01161227	0	0	-2.226708	3.393129E-06
8.539595	-0.01344579	-0.01161227	0	0	0	0
8.556172	-0.01344579	-0.01161227	0	0	0	0
8.577439	-0.01344579	-0.01161227	0	0	0	0
8.596259	-0.01344579	-0.01161227	0	0	0	0
8.613951	-0.01344579	-0.01161227	0	0	0	0
8.636031	-0.01344579	-0.01161227	0	0	0	0
8.652742	-0.01222344	-0.01283462	0.07314511	-0.07314494	1.885589	-1.885584
8.670524	-0.01222344	-0.01283462	0	0	-2.12061	2.120605
8.734751	-0.01222344	-0.01283462	0	0	0	0
8.751721	-0.01222344	-0.01283462	0	0	0	0
8.769659	-0.01222344	-0.01283462	0	0	0	0
8.790942	-0.01222344	-0.01283462	0	0	0	0
8.80751	-0.01222344	-0.01283462	0	0	0	0
8.828269	-0.01222344	-0.01283462	0	0	0	0
8.846407	-0.01222344	-0.01283462	0	0	0	0
8.863998	-0.01222344	-0.01283462	0	0	0	0
8.882737	-0.01222344	-0.01283462	0	0	0	0
8.899302	-0.01222344	-0.01283462	0	0	0	0
8.915871	-0.01222344	-0.01283462	0	0	0	0
8.935726	-0.01222344	-0.01283462	0	0	0	0
8.952843	-0.01222344	-0.01283462	0	0	0	0
8.969481	-0.01222344	-0.01283462	0	0	0	0
8.98919	-0.01222344	-0.01283462	0	0	0	0
9.005761	-0.01222344	-0.01283462	0	0	0	0
9.022518	-0.01222344	-0.01283462	0	0	0	0
9.038894	-0.01222344	-0.01283462	0	0	0	0
9.060948	-0.01222344	-0.01283462	0	0	0	0
9.079606	-0.01222344	-0.01283462	0	0	0	0
9.09723	-0.01222344	-0.01283462	0	0	0	0
9.116055	-0.01222344	-0.01283462	0	0	0	0
9.138773	-0.01222344	-0.01283462	0	0	0	0
9.157853	-0.01222344	-0.01283462	0	0	0	0
9.174623	-0.01222344	-0.01283462	0	0	0	0
9.190989	-0.01222344	-0.01283462	0	0	0	0
9.20989	-0.01222344	-0.01283462	0	0	0	0
9.229865	-0.01222344	-0.01283462	0	0	0	0
9.248357	-0.01222344	-0.01283462	0	0	0	0
9.267078	-0.01222344	-0.01283462	0	0	0	0
9.285815	-0.01222344	-0.01283462	0	0	0	0
9.302382	-0.01222344	-0.01283462	0	0	0	0
9.318952	-0.01222344	-0.01283462	0	0	0	0
9.335518	-0.01222344	-0.01283462	0	0	0	0
9.354326	-0.01222344	-0.01283462	0	0	0	0
9.370893	-0.01222344	-0.01283462	0	0	0	0
9.388534	-0.01222344	-0.01283462	0	0	0	0
9.405104	-0.01222344	-0.01283462	0	0	0	0
9.421671	-0.01222344	-0.01283462	0	0	0	0
9.440781	-0.01222344	-0.01283462	0	0	0	0
9.45735	-0.01222344	-0.01283462	0	0	0	0
9.479241	-0.01222344	-0.01283462	0	0	0	0
9.497128	-0.01222344	-0.01283462	0	0	0	0
9.515557	-0.01222344	-0.01283462	0	0	0	0
9.537763	-0.01222344	-0.01283462	0	0	0	0
9.55438	-0.01222344	-0.01283462	0	0	0	0
9.571845	-0.01222344	-0.01283462	0	0	0	0
9.588416	-0.01222344	-0.01283462	0	0	0	0
9.604981	-0.01222344	-0.01283462	0	0	0	0
9.627161	-0.01222344	-0.01283462	0	0	0	0
9.643959	-0.01222344	-0.01283462	0	0	0	0
9.664373	-0.01222344	-0.01283462	0	0	0	0
9.685068	-0.01222344	-0.01283462	0	0	0	0
9.701984	-0.01222344	-0.01283462	0	0	0	0
9.720303	-0.01222344	-0.01283462	0	0	0	0
9.736872	-0.01222344	-0.01283462	0	0	0	0
9.753538	-0.01222344	-0.01283462	0	0	0	0
9.772784	-0.01222344	-0.01283462	0	0	0	0
9.789351	-0.01222344	-0.01283462	0	0	0	0
9.81179	-0.01222344	-0.01283462	0	0	0	0
9.832483	-0.01222344	-0.01283462	0	0	0	0
9.849049	-0.01222344	-0.01283462	0	0	0	0
9.86562	-0.01222344	-0.01283462	0	0	0	0
9.882186	-0.01222344	-0.01283462	0	0	0	0
9.90292	-0.01222344	-0.01283462	0	0	0	0
9.919486	-0.01222344	-0.01283462	0	0	0	0
9.937057	-0.01222344	-0.01283462	0	0	0	0
9.953628	-0.01222344	-0.01283462	0	0	0	0
9.970195	-0.01222344	-0.01283462	0	0	0	0
9.990021	-0.01222344	-0.01283462	0	0	0	0
10.00833	-0.01222344	-0.01283462	0	0	0	0
10.02523	-0.01222344	-0.01283462	0	0	0	0
10.04363	-0.01222344	-0.01283462	0	0	0	0
10.06226	-0.01222344	-0.01283462	0	0	0	0
10.0801	-0.01222344	-0.01283462	0	0	0	0
10.09995	-0.01222344	-0.01283462	0	0	0	0
10.11652	-0.01222344	-0.01283462	0	0	0	0
10.14105	-0.01222344	-0.01283462	0	0	0	0
10.16218	-0.01222344	-0.01283462	0	0	0	0
10.18032	-0.01222344	-0.01283462	0	0	0	0
10.19942	-0.01222344	-0.01283462	0	0	0	0
10.22018	-0.01222344	-0.01283462	0	0	0	0
10.24107	-0.01222344	-0.01283462	0	0	0	0
10.26157	-0.01222344	-0.01283462	0	0	0	0
10.27949	-0.01222344	-0.01283462	0	0	0	0
10.29716	-0.01222344	-0.01283462	0	0	0	0
10.31624	-0.01222344	-0.01283462	0	0	0	0
10.33733	-0.01222344	-0.01283462	0	0	0	0
10.35664	-0.01222344	-0.01283462	0	0	0	0
10.37538	-0.01222344	-0.01283462	0	0	0	0
10.39472	-0.01222344	-0.01283462	0	0	0	0
10.4128	-0.01222344	-0.01283462	0	0	0	0
10.43241	-0.01222344	-0.01283462	0	0	0	0
10.44897	-0.01222344	-0.01283462	0	0	0	0
10.46734	-0.01222344	-0.01283462	0	0	0	0
10.48417	-0.01222344	-0.01283462	0	0	0	0
10.50074	-0.01222344	-0.01283462	0	0	0	0
10.51731	-0.01222344	-0.01283462	0	0	0	0
10.5368	-0.01222344	-0.01283462	0	0	0	0
10.55359	-0.01222344	-0.01283462	0	0	0	0
10.57108	-0.01222344	-0.01283462	0	0	0	0
10.58765	-0.01222344	-0.01283462	0	0	0	0
10.60421	-0.01222344	-0.01283462	0	0	0	0
10.62597	-0.01222344	-0.01283462	0	0	0	0
10.64254	-0.01222344	-0.01283462	0	0	0	0
10.66331	-0.01222344	-0.01283462	0	0	0	0
10.68258	-0.01222344	-0.01283462	0	0	0	0
10.69914	-0.01222344	-0.01283462	0	0	0	0
10.71571	-0.01222344	-0.01283462	0	0	0	0
10.73228	-0.01222344	-0.01283462	0	0	0	0
10.75207	-0.01222344	-0.01283462	0	0	0	0
10.76874	-0.01222344	-0.01283462	0	0	0	0
10.78628	-0.01222344	-0.01283462	0	0	0	0
10.80285	-0.01222344	-0.01283462	0	0	0	0
10.81941	-0.01222344	-0.01283462	0	0	0	0
10.8386	-0.01222344	-0.01283462	0	0	0	0
10.85517	-0.01222344	-0.01283462	0	0	0	0
10.87414	-0.01222344	-0.01283462	0	0	0	0
10.91492	-0.01222344	-0.01283462	0	0	0	0
10.93149	-0.01222344	-0.01283462	0	0	0	0
10.94805	-0.01222344	-0.01283462	0	0	0	0
10.96779	-0.01222344	-0.01283462	0	0	0	0
10.98439	-0.01222344	-0.01283462	0	0	0	0
11.00093	-0.01222344	-0.01283462	0	0	0	0
11.0175	-0.01222344	-0.01283462	0	0	0	0
11.03723	-0.01222344	-0.01283462	0	0	0	0
11.05394	-0.01222344	-0.01283462	0	0	0	0
11.07047	-0.01222344	-0.01283462	0	0	0	0
11.08698	-0.01222344	-0.01283462	0	0	0	0
11.10548	-0.01222344	-0.01283462	0	0	0	0
11.12205	-0.01222344	-0.01283462	0	0	0	0
11.14332	-0.01222344	-0.01283462	0	0	0	0
11.16286	-0.01222344	-0.01283462	0	0	0	0
11.18146	-0.01222344	-0.01283462	0	0	0	0
11.20078	-0.01222344	-0.01283462	0	0	0	0
11.21735	-0.01222344	-0.01283462	0	0	0	0
11.23512	-0.01222344	-0.01283462	0	0	0	0
11.25169	-0.01222344	-0.01283462	0	0	0	0
11.26825	-0.01222344	-0.01283462	0	0	0	0
11.28745	-0.01222344	-0.01283462	0	0	0	0
11.30402	-0.01222344	-0.01283462	0	0	0	0
11.32059	-0.01222344	-0.01283462	0	0	0	0
11.33716	-0.01222344	-0.01283462	0	0	0	0
11.35599	-0.01222344	-0.01283462	0	0	0	0
11.37268	-0.01222344	-0.01283462	0	0	0	0
11.39504	-0.01222344	-0.01283462	0	0	0	0
11.41329	-0.01222344	-0.01283462	0	0	0	0
11.43481	-0.01222344	-0.01283462	0	0	0	0
11.45137	-0.01222344	-0.01283462	0	0	0	0
11.46907	-0.01222344	-0.01283462	0	0	0	0
11.49137	-0.01222344	-0.01283462	0	0	0	0
11.50793	-0.01466813	-0.01283462	-0.1475618	-1.124295E-07	-3.796863	-2.892885E-06
11.52716	-0.02322455	-0.01405696	-0.4449537	-0.06356476	-8.307706	-1.775692
11.54405	-0.03667033	-0.017724	-0.7962799	-0.2171673	-9.727812	-4.253076
11.56121	-0.05622785	-0.01894634	-1.139498	-0.07121857	-10.0801	4.286429
11.5787	-0.09045349	-0.02505806	-1.956933	-0.3494522	-23.58935	-8.029202
11.59597	-0.1051216	-0.02750275	-0.8493846	-0.1415641	31.86403	5.980915
11.61356	-0.113678	-0.02750275	-0.4863689	0	10.41306	4.060751
11.63161	-0.1197898	-0.02994744	-0.3387389	-0.1354956	4.142837	-3.802319
11.64927	-0.1295685	-0.03116979	-0.5535698	-0.06919638	-6.016412	1.856732
11.66625	-0.1405696	-0.03361447	-0.6477334	-0.1439406	-2.717651	-2.157188
11.68377	-0.1466813	-0.03483682	-0.3488818	-0.0697764	8.661856	2.149559
11.70078	-0.1540154	-0.03605916	-0.4313632	-0.0718938	-2.389371	-0.06133796
11.71872	-0.1613495	-0.03728151	-0.4087982	-0.06813304	0.6457722	0.1076266
11.7365	-0.1711282	-0.0397262	-0.5499177	-0.1374796	-3.95041	-1.941245
11.77677	-0.1784623	-0.04094854	-0.1821101	-0.03035162	6.33551	1.845287
11.79552	-0.1955751	-0.04461557	-0.9125817	-0.1955533	-12.37567	-2.798851
11.81459	-0.2077986	-0.0482826	-0.6410212	-0.1923061	7.180186	0.08585712
11.83774	-0.216355	-0.0507273	-0.3696453	-0.1056133	6.428225	2.053539
11.8546	-0.2334678	-0.05683902	-1.014709	-0.3623957	-16.1216	-6.417578
11.87617	-0.2456912	-0.06050605	-0.566756	-0.170027	11.65569	5.005415
11.89531	-0.2566923	-0.06539544	-0.574936	-0.255527	-0.2009727	-2.100643
11.91344	-0.259137	-0.06539543	-0.1348255	4.109031E-07	11.80974	6.856718
11.9362	-0.2628041	-0.06661777	-0.1611009	-0.0537003	-0.6425161	-1.313152
11.95425	-0.2664711	-0.06784012	-0.2031481	-0.0677159	-1.03023	-0.3434064
11.97464	-0.2774722	-0.07150716	-0.5395968	-0.1798655	-8.752841	-2.917614
11.99454	-0.2823616	-0.07395184	-0.2456444	-0.1228229	7.295591	1.415736
12.01236	-0.290918	-0.07761887	-0.4802774	-0.2058329	-6.220433	-2.200704
12.03218	-0.2970297	-0.07884122	-0.3083723	-0.06167446	4.56771	3.83045
12.04874	-0.3031414	-0.08128592	-0.3689479	-0.1475793	-1.664869	-2.361024
12.06567	-0.3092532	-0.08250826	-0.3610272	-0.07220544	0.2364816	2.250371
12.08188	-0.3129202	-0.08495294	-0.2262407	-0.1508259	4.067512	-2.372566
12.09845	-0.3178096	-0.08739763	-0.2951569	-0.1475789	-2.10277	0.09907366
12.116	-0.3251436	-0.09106466	-0.4178609	-0.2089305	-3.596593	-1.798283
12.13271	-0.3410341	-0.0971764	-0.9509945	-0.3657678	-15.56106	-4.577755
12.1525	-0.3434788	-0.09839873	-0.1234931	-0.0617454	22.66773	8.328079
12.16907	-0.3495905	-0.1008434	-0.3689443	-0.1475789	-6.750269	-2.360547
12.18564	-0.3544799	-0.1032881	-0.2950585	-0.1475279	2.229748	0.001537947
12.20221	-0.3593693	-0.1057328	-0.2951381	-0.1475704	-0.002400387	-0.001281136
12.21877	-0.361814	-0.1069551	-0.147553	-0.07377648	4.454128	2.227105
12.23623	-0.3642586	-0.1081775	-0.1400326	-0.07001589	0.2210159	0.1105204
12.25357	-0.365481	-0.1081775	-0.07049382	0	1.998376	2.012086
12.27179	-0.3667033	-0.1093998	-0.06709164	-0.06709246	0.09567787	-1.886809
12.29129	-0.369148	-0.1106222	-0.1253882	-0.06269374	-1.545677	0.1166277
12.31122	-0.3715928	-0.1118445	-0.122632	-0.0613149	0.06989701	0.0349673
12.32978	-0.3728151	-0.1118445	-0.06585252	0	1.474909	1.59272
12.34919	-0.3740374	-0.1118445	-0.06298063	3.838878E-07	0.07563648	1.01104E-05
12.36576	-0.3801491	-0.1179562	-0.3689461	-0.368947	-8.50529	-10.25607
12.38387	-0.3850385	-0.1191786	-0.2699776	-0.06749441	2.854125	8.693507
12.40218	-0.3862609	-0.1204009	-0.06675086	-0.06674923	5.579669	0.02045913
12.42616	-0.3862609	-0.1204009	0	0	1.578382	1.578344
12.44768	-0.3887056	-0.1216233	-0.1135722	-0.05678643	-2.495893	-1.247954
12.46835	-0.3935949	-0.124068	-0.2366323	-0.1183165	-2.916967	-1.458484
12.48491	-0.3948173	-0.124068	-0.07379102	0	4.374204	3.17819
12.50148	-0.3948173	-0.124068	0	0	2.226953	0
12.51805	-0.3948173	-0.124068	0	0	0	0
12.53462	-0.3948173	-0.124068	0	0	0	0
12.56123	-0.3948173	-0.124068	0	0	0	0
12.59154	-0.3948173	-0.124068	0	0	0	0
12.60856	-0.3948173	-0.124068	0	0	0	0
12.63296	-0.3948173	-0.124068	0	0	0	0
12.66683	-0.3948173	-0.124068	0	0	0	0
12.6834	-0.3948173	-0.124068	0	0	0	0
12.70012	-0.3948173	-0.124068	0	0	0	0
12.71663	-0.3948173	-0.124068	0	0	0	0
12.73608	-0.3948173	-0.124068	0	0	0	0
12.75361	-0.3948173	-0.124068	0	0	0	0
12.77427	-0.3948173	-0.124068	0	0	0	0
12.79457	-0.3948173	-0.124068	0	0	0	0
12.81234	-0.3948173	-0.124068	0	0	0	0
12.83253	-0.3948173	-0.124068	0	0	0	0
12.84921	-0.3948173	-0.124068	0	0	0	0
12.86757	-0.3948173	-0.124068	0	0	0	0
12.88444	-0.3948173	-0.124068	0	0	0	0
12.90101	-0.3948173	-0.124068	0	0	0	0
12.9211	-0.3948173	-0.124068	0	0	0	0
12.93779	-0.3948173	-0.124068	0	0	0	0
12.95424	-0.3948173	-0.124068	0	0	0	0
12.9708	-0.3948173	-0.124068	0	0	0	0
12.99051	-0.3948173	-0.124068	0	0	0	0
13.0097	-0.3948173	-0.124068	0	0	0	0
13.02879	-0.3948173	-0.124068	0	0	0	0
13.04661	-0.3948173	-0.124068	0	0	0	0
13.06718	-0.3948173	-0.124068	0	0	0	0
13.08375	-0.3948173	-0.124068	0	0	0	0
13.10157	-0.3948173	-0.124068	0	0	0	0
13.11842	-0.3948173	-0.124068	0	0	0	0
13.13471	-0.3948173	-0.124068	0	0	0	0
13.15429	-0.3948173	-0.124068	0	0	0	0
13.17085	-0.3948173	-0.124068	0	0	0	0
13.19206	-0.3948173	-0.124068	0	0	0	0
13.21109	-0.3948173	-0.124068	0	0	0	0
13.22954	-0.3948173	-0.124068	0	0	0	0
13.2485	-0.3948173	-0.124068	0	0	0	0
13.26507	-0.3948173	-0.124068	0	0	0	0
13.28164	-0.3948173	-0.124068	0	0	0	0
13.2982	-0.3948173	-0.124068	0	0	0	0
13.32035	-0.3948173	-0.124068	0	0	0	0
13.33692	-0.3948173	-0.124068	0	0	0	0
13.35358	-0.3948173	-0.124068	0	0	0	0
13.3701	-0.3948173	-0.124068	0	0	0	0
13.38918	-0.3948173	-0.124068	0	0	0	0
13.40574	-0.3948173	-0.124068	0	0	0	0
13.42874	-0.3948173	-0.124068	0	0	0	0
13.44709	-0.3948173	-0.124068	0	0	0	0
13.46662	-0.3948173	-0.124068	0	0	0	0
13.48319	-0.3948173	-0.124068	0	0	0	0
13.50182	-0.3948173	-0.124068	0	0	0	0
13.52659	-0.3948173	-0.124068	0	0	0	0
13.54316	-0.3948173	-0.124068	0	0	0	0
13.56176	-0.3948173	-0.124068	0	0	0	0
13.57934	-0.3948173	-0.124068	0	0	0	0
13.59846	-0.3948173	-0.124068	0	0	0	0
13.61502	-0.3948173	-0.124068	0	0	0	0
13.63159	-0.3948173	-0.124068	0	0	0	0
13.64816	-0.3948173	-0.124068	0	0	0	0
13.66768	-0.3948173	-0.124068	0	0	0	0
13.68424	-0.3948173	-0.124068	0	0	0	0
13.70187	-0.3948173	-0.124068	0	0	0	0
13.72012	-0.3948173	-0.124068	0	0	0	0
13.73678	-0.3948173	-0.124068	0	0	0	0
13.75336	-0.3948173	-0.124068	0	0	0	0
13.76992	-0.3948173	-0.124068	0	0	0	0
13.78926	-0.3948173	-0.124068	0	0	0	0
13.80878	-0.3948173	-0.124068	0	0	0	0
13.8287	-0.3948173	-0.124068	0	0	0	0
13.84655	-0.3948173	-0.124068	0	0	0	0
13.86534	-0.3948173	-0.124068	0	0	0	0
13.8819	-0.3948173	-0.124068	0	0	0	0
13.89849	-0.3948173	-0.124068	0	0	0	0
13.91504	-0.3948173	-0.124068	0	0	0	0
13.93438	-0.3948173	-0.124068	0	0	0	0
13.95094	-0.3948173	-0.124068	0	0	0	0
13.96752	-0.3948173	-0.124068	0	0	0	0
13.98408	-0.3935949	-0.124068	0.07381652	0	2.227595	0
14.00333	-0.3935949	-0.124068	0	0	-2.061366	0
14.02074	-0.3911502	-0.124068	0.1404162	4.279415E-07	3.830208	1.167319E-05
14.04315	-0.3911502	-0.124068	0	0	-3.526297	-1.074698E-05
14.06172	-0.3899279	-0.124068	0.06581853	0	1.606063	0
14.07985	-0.3887056	-0.1228456	0.06744304	0.06744468	0.04427002	1.837956
14.1	-0.3838162	-0.1216233	0.242589	0.06064724	4.57556	-0.1775783
14.12024	-0.3825938	-0.1216233	0.06039438	3.681148E-07	-4.510349	-1.501354
14.14222	-0.3813715	-0.1216233	0.0556205	-3.390253E-07	-0.1130816	-1.67504E-05
14.16108	-0.3813715	-0.1216233	0	0	-1.362066	8.302245E-06
14.17888	-0.3789268	-0.1204009	0.1372878	0.06864431	3.744289	1.872156
14.1981	-0.3777045	-0.1204009	0.0635947	-3.876402E-07	-1.990233	-1.853891
14.21982	-0.3764821	-0.1204009	0.05629502	3.4312E-07	-0.1783256	1.785191E-05
14.23745	-0.3752598	-0.1204009	0.06932162	0	0.3310724	-8.720428E-06
14.26045	-0.3752598	-0.1191786	0	0.05315215	-1.706194	1.308219
14.27871	-0.3715927	-0.1191786	0.200781	0	4.866153	-1.288202
14.29794	-0.3667034	-0.1167339	0.2542336	0.1271172	1.42557	3.390188
14.31906	-0.3581469	-0.1142892	0.4052056	0.1157726	3.741742	-0.2811674
14.3402	-0.3520352	-0.1106222	0.2890399	0.1734247	-2.74876	1.364186
14.3601	-0.3422565	-0.1057328	0.4915052	0.2457518	4.933313	1.76234
14.37823	-0.3373671	-0.1032881	0.2697236	0.1348618	-5.832828	-2.916394
14.39616	-0.3312553	-0.1008434	0.3407558	0.1363019	1.969658	0.03993248
14.43807	-0.3263659	-0.09839872	0.1166797	0.05834003	-3.744574	-1.302834
14.45642	-0.3104755	-0.09228701	0.8658012	0.3330005	12.43192	4.558081
14.47846	-0.3055861	-0.08984232	0.2218562	0.1109284	-15.94242	-5.497931
14.4984	-0.294585	-0.08373059	0.5517794	0.306544	7.85981	4.66018
14.5201	-0.2799169	-0.07761887	0.6759229	0.2816349	2.981468	-0.5982262
14.54261	-0.2652487	-0.07150716	0.6515308	0.2714704	-0.5516789	-0.2298913
14.56106	-0.2456912	-0.06417309	1.06004	0.3975151	9.972593	3.077026
14.57936	-0.223689	-0.05561667	1.20224	0.4675378	3.869307	1.905338
14.59893	-0.2090209	-0.05194964	0.7494344	0.1873588	-11.95581	-7.397805
14.61944	-0.1967975	-0.04706027	0.5960104	0.238404	-3.827845	1.273552
14.6412	-0.1784623	-0.04094854	0.8428314	0.2809438	5.840117	1.006548
14.66063	-0.1625718	-0.03483682	0.8175044	0.3144248	-0.6148522	0.812801
14.6785	-0.1479037	-0.03116979	0.8211776	0.2052943	0.09847681	-2.925741
14.69697	-0.1344579	-0.02750275	0.7277614	0.1984806	-2.570769	-0.1875103
14.71663	-0.1246791	-0.0262804	0.4973942	0.06217428	-6.04075	-3.57426
14.73678	-0.1161227	-0.02261337	0.424732	0.182028	-1.825435	3.010991
14.75627	-0.1112334	-0.02139103	0.2507769	0.06269422	-4.388115	-3.010262
14.77711	-0.1038993	-0.01894634	0.3520568	0.1173523	2.511343	1.355305
14.7957	-0.0990099	-0.01894634	0.2629175	0	-2.260772	-2.976315
14.81558	-0.09167583	-0.01527931	0.3689114	0.1844558	2.75474	4.79393
14.83753	-0.08434177	-0.01283462	0.3341584	0.1113862	-0.8308539	-1.7469
14.86954	-0.07456301	-0.01161227	0.3055173	0.03818967	-0.5308307	-1.356619
14.88679	-0.06356192	-0.009167584	0.6376367	0.141697	6.742151	2.10124
14.90773	-0.05745019	-0.00794524	0.291831	0.05836615	-9.053544	-2.181688
14.93001	-0.05256081	-0.00794524	0.2194727	0	-1.674165	-1.350427
14.95073	-0.04522675	-0.007945239	0.3539852	4.495109E-08	3.128458	1.045462E-06
14.9673	-0.04155971	-0.00794524	0.2213554	-5.621798E-08	-3.557204	-2.713409E-06
14.98387	-0.04033737	-0.00794524	0.07376798	0	-4.45394	1.696564E-06
15.00075	-0.03789268	-0.00794524	0.1448027	0	2.123418	0
15.01726	-0.03789268	-0.00794524	0	0	-4.335958	0
15.03358	-0.03667034	-0.00794524	0.07490613	0	2.281554	0
15.05176	-0.03544799	-0.00794524	0.06723262	0	-0.2224259	0
15.06833	-0.0330033	-0.00794524	0.1475449	0	2.311146	0
15.08712	-0.0330033	-0.00794524	0	0	-4.17261	0
15.10617	-0.0330033	-0.00794524	0	0	0	0
15.12731	-0.03178096	-0.00794524	0.05782103	0	1.438735	0
15.14495	-0.03178096	-0.00794524	0	0	-1.49092	0
15.16326	-0.03178096	-0.00794524	0	0	0	0
15.18345	-0.03055861	-0.007945239	0.06054724	4.613172E-08	1.572857	1.19838E-06
15.2024	-0.02933627	-0.00794524	0.06448899	-4.913522E-08	0.1007022	-2.433842E-06
15.2245	-0.02811392	-0.00794524	0.05531811	0	-0.2234026	1.196934E-06
15.2444	-0.02811392	-0.00794524	0	0	-1.317104	0
15.26192	-0.02689158	-0.00794524	0.06977629	0	1.864618	0
15.28098	-0.02689158	-0.00794524	0	0	-1.907345	0
15.29755	-0.02689158	-0.00794524	0	0	0	0
15.31412	-0.02689158	-0.00794524	0	0	0	0
15.33069	-0.02689158	-0.00794524	0	0	0	0
15.36539	-0.02566923	-0.007945239	0.03522286	2.683675E-08	0.6870007	5.234347E-07
15.38202	-0.02444689	-0.00794524	0.07350558	-5.600519E-08	0.7457798	-1.613831E-06
15.39854	-0.02444689	-0.00794524	0	0	-2.217573	1.689608E-06
15.41509	-0.02444689	-0.00794524	0	0	0	0
15.43249	-0.02444689	-0.00794524	0	0	0	0
15.44906	-0.02444689	-0.00794524	0	0	0	0
15.46563	-0.02444689	-0.00794524	0	0	0	0
15.486	-0.02444689	-0.00794524	0	0	0	0
15.55318	-0.02444689	-0.00794524	0	0	0	0
15.57053	-0.02322455	-0.00794524	0.07044367	0	0.8333019	0
15.59134	-0.02322455	-0.00794524	0	0	-1.846039	0
15.61161	-0.02322455	-0.00794524	0	0	0	0
15.63303	-0.02322455	-0.00794524	0	0	0	0
15.64969	-0.02322455	-0.00794524	0	0	0	0
15.66867	-0.02322455	-0.00794524	0	0	0	0
15.68524	-0.02322455	-0.00794524	0	0	0	0
15.70181	-0.02322455	-0.00794524	0	0	0	0
15.71838	-0.02322455	-0.00794524	0	0	0	0
15.73752	-0.02322455	-0.00794524	0	0	0	0
15.75409	-0.02322455	-0.00794524	0	0	0	0
15.77346	-0.02322455	-0.00794524	0	0	0	0
15.79392	-0.02322455	-0.00794524	0	0	0	0
15.81254	-0.02322455	-0.00794524	0	0	0	0
15.83569	-0.02322455	-0.00794524	0	0	0	0
15.85241	-0.02322455	-0.00794524	0	0	0	0
15.87152	-0.02322455	-0.00794524	0	0	0	0
15.89201	-0.02322455	-0.00794524	0	0	0	0
15.91071	-0.02322455	-0.00794524	0	0	0	0
15.9299	-0.02322455	-0.00794524	0	0	0	0
15.94885	-0.02322455	-0.00794524	0	0	0	0
15.96542	-0.02322455	-0.00794524	0	0	0	0
15.98485	-0.02322455	-0.00794524	0	0	0	0
16.00144	-0.02322455	-0.00794524	0	0	0	0
16.01967	-0.02322455	-0.00794524	0	0	0	0
16.03624	-0.02322455	-0.00794524	0	0	0	0
16.05301	-0.02322455	-0.00794524	0	0	0	0
16.06937	-0.02322455	-0.00794524	0	0	0	0
16.08602	-0.02322455	-0.00794524	0	0	0	0
16.10528	-0.02322455	-0.00794524	0	0	0	0
16.12185	-0.02322455	-0.00794524	0	0	0	0
16.14414	-0.02322455	-0.00794524	0	0	0	0
16.16235	-0.02322455	-0.00794524	0	0	0	0
16.18257	-0.02322455	-0.00794524	0	0	0	0
16.19959	-0.02322455	-0.00794524	0	0	0	0
16.21786	-0.02322455	-0.00794524	0	0	0	0
16.23442	-0.02322455	-0.00794524	0	0	0	0
16.25114	-0.02322455	-0.00794524	0	0	0	0
16.28295	-0.02322455	-0.00794524	0	0	0	0
16.29952	-0.02322455	-0.009167584	0	-0.07376385	0	-1.52486
16.31608	-0.02322455	-0.009167584	0	0	0	2.225941
16.33524	-0.02322455	-0.009167584	0	0	0	0
16.35181	-0.02322455	-0.009167584	0	0	0	0
16.36939	-0.02322455	-0.009167584	0	0	0	0
16.38596	-0.02322455	-0.009167584	0	0	0	0
16.40253	-0.02322455	-0.009167584	0	0	0	0
16.42412	-0.02322455	-0.009167584	0	0	0	0
16.44172	-0.02322455	-0.009167584	0	0	0	0
16.45936	-0.02322455	-0.009167584	0	0	0	0
16.477	-0.02322455	-0.009167584	0	0	0	0
16.49448	-0.02322455	-0.009167584	0	0	0	0
16.51231	-0.02322455	-0.009167584	0	0	0	0
16.53472	-0.02322455	-0.009167584	0	0	0	0
16.55129	-0.02322455	-0.009167584	0	0	0	0
16.57123	-0.02322455	-0.009167584	0	0	0	0
16.59221	-0.02322455	-0.009167584	0	0	0	0
16.6116	-0.02322455	-0.009167584	0	0	0	0
16.63469	-0.02322455	-0.009167584	0	0	0	0
16.65125	-0.0220022	-0.009167584	0.07378945	0	1.860574	0
16.66878	-0.0220022	-0.009167584	0	0	-2.164424	0
16.68545	-0.0220022	-0.009167584	0	0	0	0
16.70196	-0.0220022	-0.009167584	0	0	0	0
16.72318	-0.0220022	-0.009167584	0	0	0	0
16.73999	-0.0220022	-0.009167584	0	0	0	0
16.76088	-0.0220022	-0.009167584	0	0	0	0
16.77922	-0.0220022	-0.009167584	0	0	0	0
16.79967	-0.02077986	-0.009167584	0.05975936	0	1.540672	0
16.81624	-0.02077986	-0.009167584	0	0	-1.614257	0
16.83281	-0.02077986	-0.009167584	0	0	0	0
16.84937	-0.02077986	-0.009167584	0	0	0	0
16.86608	-0.02077986	-0.009167584	0	0	0	0
16.88259	-0.02077986	-0.009167584	0	0	0	0
16.90228	-0.02077986	-0.009167584	0	0	0	0
16.91923	-0.02077986	-0.009167584	0	0	0	0
16.93991	-0.02077986	-0.009167584	0	0	0	0
16.96002	-0.02077986	-0.009167584	0	0	0	0
16.97767	-0.02077986	-0.009167584	0	0	0	0
16.99542	-0.02077986	-0.009167584	0	0	0	0
17.01541	-0.02077986	-0.009167584	0	0	0	0
17.03198	-0.02077986	-0.009167584	0	0	0	0
17.05298	-0.02077986	-0.009167584	0	0	0	0
