Time	Pos X	Pos Y	Vel X	Vel Y	Acc X	Acc Y
0.01656831	0.05316039	-0.1231595	-0.0007793627	0.001805591	1.142869E-05	-2.647746E-05
0.03328348	0.05316039	-0.1231595	0	0	-1.142872E-05	2.647752E-05
0.04997811	0.05289797	-0.1233561	-0.01571864	-0.01177258	-0.4704799	-0.352369
0.06681131	0.05289797	-0.1233561	0	0	0.4688236	0.3511285
0.08332396	0.05289797	-0.1233561	0	0	0	0
0.09967871	0.05032589	-0.1253224	-0.1572682	-0.1202266	-4.78493	-3.657928
0.1163544	0.05032589	-0.1253224	0	0	4.761312	3.639873
0.1328418	0.05032589	-0.1253224	0	0	0	0
0.1493785	0.04938088	-0.1259912	-0.05714654	-0.04044835	-1.730449	-1.224813
0.1659456	0.04938088	-0.1259912	0	0	1.726281	1.221862
0.1830311	0.04938088	-0.1259912	0	0	0	0
0.1990787	0.04940713	-0.1259322	0.001635888	0.003678949	0.04937326	0.1110355
0.2156458	0.04940713	-0.1259322	0	0	-0.05015792	-0.1128002
0.2324482	0.04940713	-0.1259322	0	0	0	0
0.248925	0.04943338	-0.1259519	0.001593284	-0.00119468	0.04787637	-0.03589878
0.265442	0.04943338	-0.1259519	0	0	-0.04829053	0.03620933
0.2819128	0.04943338	-0.1259519	0	0	0	0
0.2984787	0.04943338	-0.1259519	0	0	0	0
0.3150463	0.04943338	-0.1259519	0	0	0	0
0.3316134	0.04943338	-0.1259519	0	0	0	0
0.348179	0.04940713	-0.1259716	-0.001584741	-0.001187375	-0.04783011	-0.03583695
0.36502	0.04940713	-0.1259716	0	0	0.04743789	0.03554308
0.381312	0.04940713	-0.1259716	0	0	0	0
0.3978792	0.04943338	-0.1259519	0.00158459	0.001187262	0.04822375	0.03613188
0.4145533	0.04943338	-0.1259519	0	0	-0.04766939	-0.03571653
0.4310564	0.04943338	-0.1259519	0	0	0	0
0.4475786	0.04943338	-0.1259519	0	0	0	0
0.4641453	0.04943338	-0.1259519	0	0	0	0
0.4807132	0.04943338	-0.1259519	0	0	0	0
0.4972784	0.04943338	-0.1259519	0	0	0	0
0.5138471	0.04943338	-0.1259519	0	0	0	0
0.5306688	0.04943338	-0.1259519	0	0	0	0
0.5469782	0.04940713	-0.1259322	-0.001609633	0.001206939	-0.04858372	0.03642917
0.5641544	0.04940713	-0.1259322	0	0	0.04806943	-0.03604354
0.5801606	0.04940713	-0.1259322	0	0	0	0
0.5966787	0.04940713	-0.1259322	0	0	0	0
0.6132458	0.04940713	-0.1259322	0	0	0	0
0.6302125	0.04940713	-0.1259322	0	0	0	0
0.6463785	0.04940713	-0.1259322	0	0	0	0
0.6629468	0.04940713	-0.1259322	0	0	0	0
0.6795139	0.04940713	-0.1259322	0	0	0	0
0.6962544	0.04938088	-0.1259125	-0.001568186	0.001174971	-0.04708199	0.03527641
0.7127789	0.04938088	-0.1259125	0	0	0.0471423	-0.03532161
0.7292236	0.04938088	-0.1259125	0	0	0	0
0.7457785	0.04940713	-0.1259322	0.001585762	-0.00118814	0.04805393	-0.03600465
0.7627574	0.04940713	-0.1259322	0	0	-0.04728854	0.03543118
0.7789139	0.04940713	-0.1259322	0	0	0	0
0.7954787	0.04940713	-0.1259322	0	0	0	0
0.8120474	0.04940713	-0.1259322	0	0	0	0
0.8286142	0.04940713	-0.1259322	0	0	0	0
0.8451785	0.04938088	-0.1259519	-0.001584855	-0.00118836	-0.04783583	-0.03586839
0.8618633	0.04938088	-0.1259519	0	0	0.04766604	0.03574108
0.8783401	0.04938088	-0.1259519	0	0	0	0
0.8948792	0.04938088	-0.1259519	0	0	0	0
0.9114471	0.04938088	-0.1259519	0	0	0	0
0.9280139	0.04938088	-0.1259519	0	0	0	0
0.9448664	0.04938088	-0.1259519	0	0	0	0
0.961147	0.04938088	-0.1259519	0	0	0	0
0.9777129	0.04938088	-0.1259519	0	0	0	0
0.9942788	0.04938088	-0.1259519	0	0	0	0
1.010909	0.04938088	-0.1259519	0	0	0	0
1.027413	0.04938088	-0.1259519	0	0	0	0
1.043978	0.04940713	-0.1259716	0.001584821	-0.001187435	0.04792447	-0.03590764
1.060547	0.04940713	-0.1259716	0	0	-0.04783153	0.03583801
1.077114	0.04940713	-0.1259716	0	0	0	0
1.093679	0.04943338	-0.1259912	0.001584775	-0.0011883	0.04783119	-0.03586491
1.110246	0.04943338	-0.1259912	0	0	-0.04783222	0.03586568
1.126812	0.04943338	-0.1259912	0	0	0	0
1.143502	0.04943338	-0.1259912	0	0	0	0
1.160031	0.04943338	-0.1259912	0	0	0	0
1.176564	0.04943338	-0.1259912	0	0	0	0
1.193643	0.04943338	-0.1259912	0	0	0	0
1.210211	0.04943338	-0.1259912	0	0	0	0
1.226778	0.04943338	-0.1259912	0	0	0	0
1.243871	0.04943338	-0.1259912	0	0	0	0
1.260439	0.04943338	-0.1259912	0	0	0	0
1.277178	0.04943338	-0.1259912	0	0	0	0
1.293572	0.04943338	-0.1259912	0	0	0	0
1.310231	0.04943338	-0.1259912	0	0	0	0
1.326748	0.04943338	-0.1259912	0	0	0	0
1.343272	0.04943338	-0.1259912	0	0	0	0
1.359839	0.04943338	-0.1259912	0	0	0	0
1.376406	0.04943338	-0.1259912	0	0	0	0
1.392972	0.04943338	-0.1259912	0	0	0	0
1.409539	0.04943338	-0.1259912	0	0	0	0
1.426106	0.04943338	-0.1259912	0	0	0	0
1.442672	0.04948588	-0.1260306	0.003169188	-0.002374699	0.09565042	-0.07167164
1.459316	0.04948588	-0.1260306	0	0	-0.09542622	0.07150365
1.475806	0.04948588	-0.1260306	0	0	0	0
1.492372	0.04948588	-0.1260699	0	-0.00237553	0	-0.07186428
1.508939	0.04948588	-0.1260699	0	0	0	0.07169569
1.525506	0.04948588	-0.1260699	0	0	0	0
1.542072	0.04945963	-0.1260503	-0.001584661	0.001187315	-0.04782757	0.03583505
1.558639	0.04945963	-0.1260503	0	0	0.04782705	-0.03583466
1.575206	0.04945963	-0.1260503	0	0	0	0
1.591773	0.04948588	-0.1260306	0.001584627	0.001188189	0.04782499	0.03586026
1.608411	0.04948588	-0.1260306	0	0	-0.04772197	-0.03578302
1.624906	0.04948588	-0.1260306	0	0	0	0
1.641472	0.04948588	-0.1260306	0	0	0	0
1.658476	0.04948588	-0.1260306	0	0	0	0
1.674606	0.04948588	-0.1260306	0	0	0	0
1.691173	0.04948588	-0.1260306	0	0	0	0
1.707739	0.04948588	-0.1260306	0	0	0	0
1.724306	0.04948588	-0.1260306	0	0	0	0
1.741035	0.04948588	-0.1260306	0	0	0	0
1.757551	0.04948588	-0.1260306	0	0	0	0
1.774007	0.04948588	-0.1260306	0	0	0	0
1.790573	0.04948588	-0.1260306	0	0	0	0
1.80714	0.04948588	-0.1260306	0	0	0	0
1.823708	0.04948588	-0.1260306	0	0	0	0
1.840273	0.04945963	-0.1260503	-0.001584775	-0.0011883	-0.0478305	-0.03586439
1.856878	0.04945963	-0.1260503	0	0	0.04777704	0.03582431
1.873406	0.04945963	-0.1260503	0	0	0	0
1.889973	0.04948588	-0.1260699	0.001584627	-0.001187289	0.04788201	-0.03587583
1.90654	0.04948588	-0.1260699	0	0	-0.04782499	0.03583311
1.923405	0.04948588	-0.1260699	0	0	0	0
1.939917	0.04953839	-0.1261486	0.00317971	-0.004766632	0.09526635	-0.1428117
1.956241	0.04953839	-0.1261486	0	0	-0.09683656	0.1451655
1.972806	0.04953839	-0.1261486	0	0	0	0
1.989451	0.04961714	-0.126247	0.004731559	-0.005911539	0.1424738	-0.1780046
2.005939	0.04961714	-0.126247	0	0	-0.1428049	0.1784183
2.022506	0.04961714	-0.126247	0	0	0	0
2.039073	0.04966964	-0.1263257	0.00316912	-0.004751094	0.09564836	-0.1433945
2.05564	0.04966964	-0.1263257	0	0	-0.09564629	0.1433914
2.072528	0.04966964	-0.1263257	0	0	0	0
2.088773	0.04969589	-0.1263454	0.001616	-0.001211713	0.04877343	-0.03657142
2.10534	0.04969589	-0.1263454	0	0	-0.04925045	0.0369291
2.122247	0.04969589	-0.1263454	0	0	0	0
2.138759	0.04969589	-0.1263848	0	-0.002383264	0	-0.07131335
2.155041	0.04969589	-0.1263848	0	0	0	0.07267379
2.171778	0.04969589	-0.1263848	0	0	0	0
2.188172	0.04969589	-0.1263848	0	0	0	0
2.204823	0.04969589	-0.1263848	0	0	0	0
2.221306	0.04969589	-0.1263848	0	0	0	0
2.237873	0.04966964	-0.1265619	-0.001584672	-0.01069131	-0.04794868	-0.3234954
2.25444	0.04966964	-0.1265619	0	0	0.04782688	0.3226737
2.271007	0.04966964	-0.1265619	0	0	0	0
2.287854	0.04935462	-0.1269949	-0.01869813	-0.02570122	-0.5595795	-0.7691612
2.304141	0.04935462	-0.1269949	0	0	0.5643268	0.7756866
2.320707	0.04935462	-0.1269949	0	0	0	0
2.337402	0.03827078	-0.135355	-0.6639012	-0.5007533	-19.96017	-15.05513
2.35384	0.03827078	-0.135355	0	0	20.03744	15.11342
2.371258	0.03827078	-0.135355	0	0	0	0
2.386973	0.00781563	-0.1582966	-1.937922	-1.459818	-58.48872	-44.05899
2.403541	0.00781563	-0.1582966	0	0	60.02951	45.21966
2.420292	0.00781563	-0.1582966	0	0	0	0
2.436801	-0.01134162	-0.1728205	-1.160459	-0.8797948	-34.89041	-26.45195
2.453346	-0.01134162	-0.1728205	0	0	35.10861	26.61738
2.469807	-0.01134162	-0.1728205	0	0	0	0
2.486373	-0.01473578	-0.1752904	-0.2048864	-0.1490922	-6.203615	-4.514262
2.502941	-0.01473578	-0.1752904	0	0	6.183573	4.499677
2.519507	-0.01473578	-0.1752904	0	0	0	0
2.536072	-0.01460422	-0.1751899	0.007941188	0.006063708	0.2396845	0.1830176
2.55264	-0.01460422	-0.1751899	0	0	-0.2396759	-0.183011
2.569207	-0.01460422	-0.1751899	0	0	0	0
2.585773	-0.01457791	-0.17521	0.001588158	-0.001212509	0.04793277	-0.03659518
2.60234	-0.01457791	-0.17521	0	0	-0.04793208	0.03659466
2.618953	-0.01457791	-0.17521	0	0	0	0
2.635473	-0.01457791	-0.17521	0	0	0	0
2.65204	-0.01457791	-0.17521	0	0	0	0
2.668607	-0.01457791	-0.17521	0	0	0	0
2.685173	-0.01457791	-0.17521	0	0	0	0
2.701741	-0.01457791	-0.17521	0	0	0	0
2.718534	-0.01457791	-0.17521	0	0	0	0
2.734873	-0.01457791	-0.17521	0	0	0	0
2.751575	-0.01457791	-0.17521	0	0	0	0
2.768068	-0.01457791	-0.17521	0	0	0	0
2.784578	-0.0145516	-0.1752301	0.00159365	-0.001216659	0.0482872	-0.03686447
2.80114	-0.0145516	-0.1752301	0	0	-0.04818833	0.036789
2.817706	-0.0145516	-0.1752301	0	0	0	0
2.834273	-0.01452529	-0.1752502	0.001588066	-0.001213339	0.04792932	-0.0366197
2.851126	-0.01452529	-0.1752502	0	0	-0.04751866	0.03630594
2.867407	-0.01452529	-0.1752502	0	0	0	0
2.884154	-0.01444636	-0.1753105	0.00471298	-0.003598172	0.1426949	-0.1089419
2.90054	-0.01444636	-0.1753105	0	0	-0.1422411	0.1085954
2.917347	-0.01444636	-0.1753105	0	0	0	0
2.933673	-0.01418326	-0.1755114	0.01611571	-0.01230723	0.4864045	-0.371457
2.950241	-0.01418326	-0.1755114	0	0	-0.48993	0.3741494
2.966862	-0.01418326	-0.1755114	0	0	0	0
2.983373	-0.0137886	-0.175853	0.02390291	-0.02068984	0.7214431	-0.6244654
3.000368	-0.0137886	-0.175853	0	0	-0.7133835	0.6174892
3.016506	-0.0137886	-0.175853	0	0	0	0
3.033072	0.004842068	-0.1901673	1.124614	-0.8640604	34.38729	-26.42035
3.04964	0.004842068	-0.1901673	0	0	-33.94189	26.07815
3.066931	0.004842068	-0.1901673	0	0	0	0
3.082914	0.03827078	-0.2161117	2.091628	-1.623336	62.86084	-48.78701
3.099428	0.03827078	-0.2161117	0	0	-64.3648	49.95424
3.115907	0.03827078	-0.2161117	0	0	0	0
3.132473	0.06013792	-0.233237	1.319979	-1.033744	39.94455	-31.28265
3.342051	0.06013792	-0.233237	0	0	-5.836908	4.571186
3.358731	0.06013792	-0.233237	0	0	0	0
3.375237	0.06464663	-0.2372874	0.2731564	-0.2453931	8.231084	-7.394487
3.391782	0.06464663	-0.2372874	0	0	-8.26469	7.424678
3.408799	0.06464663	-0.2372874	0	0	0	0
3.424886	0.06501351	-0.2381978	0.02280702	-0.05659468	0.6889518	-1.709606
3.441452	0.06501351	-0.2381978	0	0	-0.6984796	1.733248
3.458019	0.06501351	-0.2381978	0	0	0	0
3.474585	0.06815742	-0.2658747	0.1897775	-1.67068	5.727662	-50.42266
3.491152	0.06815742	-0.2658747	0	0	-5.727662	50.42266
3.507877	0.06815742	-0.2658747	0	0	0	0
3.524286	0.07150944	-0.333513	0.2042801	-4.122043	6.165408	-124.408
3.540881	0.07150944	-0.333513	0	0	-6.189458	124.8933
3.557419	0.07150944	-0.333513	0	0	0	0
3.573985	0.07705764	-0.3731996	0.3349002	-2.395553	10.11655	-72.36405
3.590553	0.07705764	-0.3731996	0	0	-10.10738	72.29844
3.607119	0.07705764	-0.3731996	0	0	0	0
3.623686	0.08717325	-0.3868032	0.6105965	-0.8211438	18.42877	-24.78342
3.640252	0.08717325	-0.3868032	0	0	-18.42863	24.78324
3.656819	0.08717325	-0.3868032	0	0	0	0
3.673385	0.1074529	-0.4045495	1.224155	-1.07123	36.94668	-32.33119
3.690003	0.1074529	-0.4045495	0	0	-36.88961	32.28125
3.706519	0.1074529	-0.4045495	0	0	0	0
3.723085	0.132043	-0.4278113	1.484344	-1.404165	44.86796	-42.44436
3.739652	0.132043	-0.4278113	0	0	-44.80016	42.38022
3.756219	0.132043	-0.4278113	0	0	0	0
3.77305	0.1194549	-0.4459093	-0.7479057	-1.075264	-22.39347	-32.19508
3.789559	0.1194549	-0.4459093	0	0	22.4327	32.25149
3.805919	0.1194549	-0.4459093	0	0	0	0
3.822485	0.09291589	-0.4698916	-1.601942	-1.447621	-48.65197	-43.96514
3.839052	0.09291589	-0.4698916	0	0	48.34809	43.69054
3.855619	0.09291589	-0.4698916	0	0	0	0
3.872185	0.07132617	-0.4896976	-1.303252	-1.195575	-39.33364	-36.08382
3.888753	0.07132617	-0.4896976	0	0	39.33364	36.08382
3.905319	0.07132617	-0.4896976	0	0	0	0
3.921885	0.06739777	-0.4933738	-0.2371358	-0.221914	-7.157133	-6.697715
3.938453	0.06739777	-0.4933738	0	0	7.156979	6.69757
3.95502	0.06739777	-0.4933738	0	0	0	0
3.971586	0.06745016	-0.4934223	0.003162644	-0.002925176	0.0954536	-0.08828643
3.988153	0.06745016	-0.4934223	0	0	-0.09545153	0.08828452
4.004719	0.06745016	-0.4934223	0	0	0	0
4.021286	0.06742396	-0.493398	-0.001581299	0.001462567	-0.0477268	0.04414321
4.037853	0.06742396	-0.493398	0	0	0.04772439	-0.04414099
4.054762	0.06742396	-0.493398	0	0	0	0
4.070986	0.06737157	-0.4933496	-0.003229433	0.002985113	-0.09747009	0.09009608
4.087552	0.06737157	-0.4933496	0	0	0.09848923	-0.09103812
4.10412	0.06737157	-0.4933496	0	0	0	0
4.120686	0.06737157	-0.4933496	0	0	0	0
4.137252	0.06737157	-0.4933496	0	0	0	0
4.15382	0.06737157	-0.4933496	0	0	0	0
4.170386	0.06737157	-0.4933496	0	0	0	0
4.187311	0.06737157	-0.4933496	0	0	0	0
4.20352	0.06737157	-0.4933496	0	0	0	0
4.220339	0.06737157	-0.4933496	0	0	0	0
4.236654	0.06737157	-0.4933496	0	0	0	0
4.25322	0.06737157	-0.4933496	0	0	0	0
4.269875	0.06734537	-0.4933254	-0.001572878	0.001454778	-0.04734624	0.04379123
4.286354	0.06734537	-0.4933254	0	0	0.04747025	-0.04390593
4.302919	0.06734537	-0.4933254	0	0	0	0
4.319485	0.06731918	-0.4933012	-0.001581345	0.00146081	-0.0477292	0.04409114
4.336053	0.06731918	-0.4933012	0	0	0.04772645	-0.0440886
4.352927	0.06731918	-0.4933012	0	0	0	0
4.369424	0.06731918	-0.4933012	0	0	0	0
4.385752	0.06731918	-0.4933012	0	0	0	0
4.40245	0.06731918	-0.4933012	0	0	0	0
4.41896	0.06731918	-0.4933012	0	0	0	0
4.435452	0.06731918	-0.4933012	0	0	0	0
4.452022	0.06731918	-0.4933012	0	0	0	0
4.469009	0.06729298	-0.493277	-0.001542105	0.001426316	-0.04595423	0.04250374
4.485152	0.06729298	-0.493277	0	0	0.04654619	-0.04305125
4.50186	0.06729298	-0.493277	0	0	0	0
4.518285	0.06724058	-0.4932285	-0.003190322	0.002948541	-0.09628964	0.08899228
4.534907	0.06724058	-0.4932285	0	0	0.09653834	-0.08922212
4.551418	0.06724058	-0.4932285	0	0	0	0
4.567985	0.06724058	-0.4932285	0	0	0	0
4.584552	0.06724058	-0.4932285	0	0	0	0
4.601423	0.06724058	-0.4932285	0	0	0	0
4.621231	0.06721438	-0.4932043	-0.00132252	0.001223219	-0.03605729	0.03334991
4.634319	0.06721438	-0.4932043	0	0	0.04020303	-0.03718437
4.650831	0.06721438	-0.4932043	0	0	0	0
4.667386	0.06721438	-0.4932043	0	0	0	0
4.683953	0.06721438	-0.4932043	0	0	0	0
4.70052	0.06721438	-0.4932043	0	0	0	0
4.717085	0.06718819	-0.4931801	-0.001581345	0.00146081	-0.04772783	0.04408987
4.733653	0.06718819	-0.4931801	0	0	0.04772645	-0.0440886
4.75022	0.06718819	-0.4931801	0	0	0	0
4.766932	0.06718819	-0.4931801	0	0	0	0
4.783353	0.06718819	-0.4931801	0	0	0	0
4.799965	0.06718819	-0.4931801	0	0	0	0
4.816485	0.06718819	-0.4931801	0	0	0	0
4.833053	0.06718819	-0.4931801	0	0	0	0
4.84962	0.06718819	-0.4931801	0	0	0	0
4.866467	0.06716199	-0.4931559	-0.001554894	0.001438144	-0.04653302	0.04303908
4.882753	0.06716199	-0.4931559	0	0	0.04692881	-0.04340514
4.899319	0.06716199	-0.4931559	0	0	0	0
4.916093	0.0671358	-0.4931317	-0.0015617	0.001442663	-0.04684168	0.04327127
4.932454	0.0671358	-0.4931317	0	0	0.04713153	-0.04353903
4.94902	0.0671358	-0.4931317	0	0	0	0
4.965611	0.0671358	-0.4931317	0	0	0	0
4.982158	0.0671358	-0.4931317	0	0	0	0
4.99872	0.0671358	-0.4931317	0	0	0	0
5.015286	0.0671096	-0.4931074	-0.001581345	0.001462609	-0.0477347	0.04415052
5.031852	0.0671096	-0.4931074	0	0	0.04772851	-0.04414481
5.048681	0.0671096	-0.4931074	0	0	0	0
5.064986	0.06700481	-0.4930106	-0.006427211	0.005940543	-0.1939792	0.1792911
5.081553	0.06700481	-0.4930106	0	0	0.195524	-0.180719
5.09812	0.06700481	-0.4930106	0	0	0	0
5.114712	0.06637603	-0.4924296	-0.03789633	0.0350148	-1.142875	1.055974
5.131253	0.06637603	-0.4924296	0	0	1.143763	-1.056794
5.14782	0.06637603	-0.4924296	0	0	0	0
5.167054	0.05895791	-0.4855497	-0.3856739	0.3576942	-10.77273	9.991199
5.181262	0.05895791	-0.4855497	0	0	11.53245	-10.6958
5.197519	0.05895791	-0.4855497	0	0	0	0
5.214086	0.04630897	-0.4739925	-0.7635353	0.6976336	-23.2618	21.25405
5.230814	0.04630897	-0.4739925	0	0	22.93265	-20.95331
5.24722	0.04630897	-0.4739925	0	0	0	0
5.263817	0.0341709	-0.4629573	-0.7313082	0.6648579	-22.15862	20.14518
5.280357	0.0341709	-0.4629573	0	0	22.0687	-20.06343
5.296919	0.0341709	-0.4629573	0	0	0	0
5.313485	0.02257511	-0.4522667	-0.6999636	0.6453266	-21.1292	19.47992
5.330052	0.02257511	-0.4522667	0	0	21.12555	-19.47656
5.34662	0.02257511	-0.4522667	0	0	0	0
5.363185	0.005868354	-0.4359254	-1.008509	0.9864479	-30.43817	29.77234
5.379919	0.005868354	-0.4359254	0	0	30.28606	-29.62355
5.396412	0.005868354	-0.4359254	0	0	0	0
5.413208	-0.004289447	-0.4063263	-0.6047881	1.762307	-18.16809	52.94046
5.429949	-0.004289447	-0.4063263	0	0	18.03325	-52.54754
5.446342	-0.004289447	-0.4063263	0	0	0	0
5.462962	0.01444636	-0.3515411	1.127262	3.296213	34.14614	99.84632
5.479486	0.01444636	-0.3515411	0	0	-34.01105	-99.45129
5.496509	0.01444636	-0.3515411	0	0	0	0
5.512609	0.05134956	-0.2988438	2.292134	3.273142	69.19964	98.81634
5.529176	0.05134956	-0.2988438	0	0	-70.16733	-100.1982
5.545742	0.05134956	-0.2988438	0	0	0	0
5.562533	0.08889666	-0.2686264	2.236099	1.799579	67.03412	53.94806
5.579046	0.08889666	-0.2686264	0	0	-67.14162	-54.03457
5.595542	0.08889666	-0.2686264	0	0	0	0
5.612069	0.1048249	-0.2557005	0.9637874	0.7821255	29.18586	23.68469
5.628579	0.1048249	-0.2557005	0	0	-29.17281	-23.6741
5.645143	0.1048249	-0.2557005	0	0	0	0
5.661709	0.1140295	-0.2400199	0.5556074	0.9465108	16.77044	28.56945
5.678615	0.1140295	-0.2400199	0	0	-16.59914	-28.27764
5.694843	0.1140295	-0.2400199	0	0	0	0
5.713673	0.1001376	-0.1908146	-0.7377779	2.613221	-21.04448	74.53989
5.730319	0.1001376	-0.1908146	0	0	20.7967	-73.66222
5.74683	0.1001376	-0.1908146	0	0	0	0
5.763373	0.07802548	-0.1516055	-1.336692	2.370215	-40.43979	71.70763
5.780373	0.07802548	-0.1516055	0	0	39.8511	-70.66376
5.796507	0.07802548	-0.1516055	0	0	0	0
5.813073	0.06210424	-0.1394667	-0.9610632	0.7327433	-29.38983	22.40768
5.82964	0.06210424	-0.1394667	0	0	29.00578	-22.11487
5.846421	0.06210424	-0.1394667	0	0	0	0
5.862773	0.03813939	-0.1214307	-1.465545	1.102973	-44.23215	33.28922
5.879435	0.03813939	-0.1214307	0	0	44.39186	-33.40943
5.895947	0.03813939	-0.1214307	0	0	0	0
5.912477	0.02144408	-0.1089901	-1.010028	0.7526224	-30.56847	22.77811
5.929466	0.02144408	-0.1089901	0	0	30.13274	-22.45343
5.945608	0.02144408	-0.1089901	0	0	0	0
5.962175	0.005947298	-0.0967263	-0.9353607	0.7402252	-28.59632	22.63054
5.978981	0.005947298	-0.0967263	0	0	28.02677	-22.17981
5.995307	0.005947298	-0.0967263	0	0	0	0
6.011873	-0.0005526315	-0.06726309	-0.3923591	1.778505	-11.9288	54.07147
6.028821	-0.0005526315	-0.06726309	0	0	11.70748	-53.06825
6.045325	-0.0005526315	-0.06726309	0	0	0	0
6.061573	0.02828193	-0.02887934	1.77468	2.362404	54.18456	72.12893
6.07887	0.02828193	-0.02887934	0	0	-52.90444	-70.42488
6.095382	0.02828193	-0.02887934	0	0	0	0
6.111273	0.05119208	-0.01258749	1.441699	1.02522	44.49277	31.63968
6.128405	0.05119208	-0.01258749	0	0	-43.65757	-31.04575
6.144409	0.05119208	-0.01258749	0	0	0	0
6.160974	0.05140205	-0.01277645	0.012676	-0.01140733	0.389211	-0.3502571
6.177542	0.05140205	-0.01277645	0	0	-0.3825789	0.3442888
6.194109	0.05140205	-0.01277645	0	0	0	0
6.210829	0.05148079	-0.01294653	0.00470938	-0.01017231	0.1414779	-0.3055938
6.227399	0.05148079	-0.01294653	0	0	-0.1414657	0.3055675
6.243966	0.05148079	-0.01294653	0	0	0	0
6.26053	0.05134956	-0.01315441	-0.007922703	-0.01255022	-0.2391386	-0.3788155
6.277408	0.05134956	-0.01315441	0	0	0.2369086	0.375283
6.293665	0.05134956	-0.01315441	0	0	0	0
6.310229	0.05006339	-0.01411839	-0.07764865	-0.05819803	-2.365775	-1.77316
6.32695	0.05006339	-0.01411839	0	0	2.332866	1.748494
6.343458	0.05006339	-0.01411839	0	0	0	0
6.35997	0.0500109	-0.01423182	-0.003179419	-0.006869752	-0.09628902	-0.2080511
6.376498	0.0500109	-0.01423182	0	0	0.09622926	0.207922
6.393066	0.0500109	-0.01423182	0	0	0	0
6.40963	0.05003715	-0.01432635	0.001584721	-0.005706998	0.04783111	-0.1722524
6.426198	0.05003715	-0.01432635	0	0	-0.0478318	0.1722549
6.443019	0.05003715	-0.01432635	0	0	0	0
6.462491	0.05003715	-0.01432635	0	0	0	0
6.479059	0.05003715	-0.01432635	0	0	0	0
6.495626	0.05003715	-0.01432635	0	0	0	0
6.512192	0.05006339	-0.01442088	0.001584447	-0.005706181	0.04782078	-0.1722203
6.532143	0.05006339	-0.01442088	0	0	-0.04338914	0.1562603
6.545326	0.05006339	-0.01442088	0	0	0	0
6.561893	0.05008965	-0.01485576	0.001584672	-0.02625059	0.05326739	-0.8823908
6.578708	0.05008965	-0.01485576	0	0	-0.04747095	0.7863711
6.595028	0.05008965	-0.01485576	0	0	0	0
6.611592	0.04956464	-0.01636882	-0.03169507	-0.09134466	-0.9638413	-2.777774
6.62816	0.04956464	-0.01636882	0	0	0.956628	2.756986
6.644751	0.04956464	-0.01636882	0	0	0	0
6.661293	0.05095585	-0.01899949	0.0841021	-0.1590298	2.538352	-4.799805
6.677859	0.05095585	-0.01899949	0	0	-2.54018	4.803261
6.694427	0.05095585	-0.01899949	0	0	0	0
6.71206	0.05095585	-0.01899949	0	0	0	0
6.728814	0.05095585	-0.01899949	0	0	0	0
6.745194	0.05095585	-0.01899949	0	0	0	0
6.761832	0.05092961	-0.01905629	-0.001577367	-0.003413897	-0.04777278	-0.1033947
6.778329	0.05092961	-0.01905629	0	0	0.04760434	0.1030301
6.794894	0.05092961	-0.01905629	0	0	0	0
6.814405	0.05092961	-0.01909416	0	-0.00194081	0	-0.053797
6.830973	0.05092961	-0.01909416	0	0	0	0.05379345
6.84754	0.05092961	-0.01909416	0	0	0	0
6.864106	0.05092961	-0.01909416	0	0	0	0
6.880926	0.05092961	-0.01909416	0	0	0	0
6.897419	0.05092961	-0.01909416	0	0	0	0
6.913806	0.05087711	-0.01913202	-0.003203566	-0.002310832	-0.09743115	-0.07028013
6.930444	0.05087711	-0.01913202	0	0	0.09700629	0.06997367
6.946948	0.05087711	-0.01913202	0	0	0	0
6.963507	0.05085086	-0.01926457	-0.001585177	-0.008004404	-0.04794425	-0.242096
6.980074	0.05085086	-0.01926457	0	0	0.04785246	0.2416325
6.996641	0.05085086	-0.01926457	0	0	0	0
7.013206	0.05085086	-0.01937818	0	-0.006858538	0	-0.207006
7.030038	0.05085086	-0.01937818	0	0	0	0.2053656
7.046524	0.05085086	-0.01937818	0	0	0	0
7.062906	0.05085086	-0.01937818	0	0	0	0
7.079474	0.05085086	-0.01937818	0	0	0	0
7.096045	0.05085086	-0.01937818	0	0	0	0
7.112606	0.05079836	-0.01941605	-0.003169899	-0.002286772	-0.09567737	-0.06902187
7.129173	0.05079836	-0.01941605	0	0	0.09568425	0.06902684
7.145741	0.05079836	-0.01941605	0	0	0	0
7.162307	0.05079836	-0.01941605	0	0	0	0
7.179133	0.05079836	-0.01941605	0	0	0	0
7.195441	0.05079836	-0.01941605	0	0	0	0
7.21214	0.05077212	-0.01947286	-0.001571691	-0.003402059	-0.04761739	-0.1030719
7.228574	0.05077212	-0.01947286	0	0	0.04743647	0.1026803
7.245162	0.05077212	-0.01947286	0	0	0	0
7.262186	0.05071962	-0.01954861	-0.003083686	-0.004449375	-0.09174421	-0.1323755
7.278274	0.05071962	-0.01954861	0	0	0.09312747	0.1343713
7.29484	0.05071962	-0.01954861	0	0	0	0
7.311406	0.05064088	-0.01964329	-0.004753479	-0.005715622	-0.1434706	-0.1725102
7.327973	0.05064088	-0.01964329	0	0	0.1434665	0.1725052
7.34475	0.05064088	-0.01964329	0	0	0	0
7.363236	0.05058838	-0.01975692	-0.00283981	-0.006146641	-0.08053324	-0.1743106
7.379804	0.05058838	-0.01975692	0	0	0.08101306	0.1753491
7.39637	0.05058838	-0.01975692	0	0	0	0
7.412937	0.05053588	-0.01987055	-0.003168804	-0.006858846	-0.09563744	-0.2070063
7.429503	0.05053588	-0.01987055	0	0	0.09563882	0.2070093
7.446071	0.05053588	-0.01987055	0	0	0	0
7.462636	0.05053588	-0.01987055	0	0	0	0
7.479351	0.05053588	-0.01987055	0	0	0	0
7.495771	0.05053588	-0.01987055	0	0	0	0
7.512347	0.05053588	-0.01987055	0	0	0	0
7.528904	0.05053588	-0.01987055	0	0	0	0
7.545471	0.05053588	-0.01987055	0	0	0	0
7.562037	0.05053588	-0.01987055	0	0	0	0
7.578604	0.05053588	-0.01987055	0	0	0	0
7.59517	0.05053588	-0.01987055	0	0	0	0
7.611919	0.05053588	-0.01987055	0	0	0	0
7.628519	0.05053588	-0.01987055	0	0	0	0
7.64501	0.05053588	-0.01987055	0	0	0	0
7.66151	0.05053588	-0.01987055	0	0	0	0
7.678005	0.05053588	-0.01987055	0	0	0	0
7.694572	0.05053588	-0.01987055	0	0	0	0
7.711137	0.05053588	-0.01987055	0	0	0	0
7.727705	0.05053588	-0.01987055	0	0	0	0
7.744271	0.05053588	-0.01987055	0	0	0	0
7.760837	0.05053588	-0.01987055	0	0	0	0
7.777616	0.05053588	-0.01987055	0	0	0	0
7.793971	0.05053588	-0.01987055	0	0	0	0
7.810616	0.05053588	-0.01987055	0	0	0	0
7.827129	0.05053588	-0.01987055	0	0	0	0
7.843675	0.05053588	-0.01987055	0	0	0	0
7.860237	0.05050964	-0.01985161	-0.001584858	0.001143433	-0.047869	0.0345362
7.876805	0.05050964	-0.01985161	0	0	0.04783731	-0.03451333
7.899494	0.05050964	-0.01985161	0	0	0	0
7.910428	0.05050964	-0.01985161	0	0	0	0
7.926998	0.05050964	-0.01985161	0	0	0	0
7.943717	0.05050964	-0.01985161	0	0	0	0
7.960129	0.05050964	-0.01985161	0	0	0	0
7.976699	0.05050964	-0.01985161	0	0	0	0
7.993271	0.05050964	-0.01985161	0	0	0	0
8.00983	0.05050964	-0.01985161	0	0	0	0
8.026399	0.05050964	-0.01985161	0	0	0	0
8.042965	0.05050964	-0.01985161	0	0	0	0
8.059529	0.05050964	-0.01985161	0	0	0	0
8.076311	0.05050964	-0.01985161	0	0	0	0
8.092665	0.05050964	-0.01985161	0	0	0	0
8.109229	0.05050964	-0.01985161	0	0	0	0
8.125862	0.05050964	-0.01985161	0	0	0	0
8.142365	0.05050964	-0.01985161	0	0	0	0
8.158929	0.05050964	-0.01985161	0	0	0	0
8.175496	0.05050964	-0.01985161	0	0	0	0
8.192062	0.05050964	-0.01985161	0	0	0	0
8.208629	0.05050964	-0.01985161	0	0	0	0
8.225528	0.05050964	-0.01985161	0	0	0	0
8.241762	0.05050964	-0.01985161	0	0	0	0
8.259041	0.05050964	-0.01985161	0	0	0	0
8.274895	0.05050964	-0.01985161	0	0	0	0
8.291462	0.05050964	-0.01985161	0	0	0	0
8.308027	0.05050964	-0.01985161	0	0	0	0
8.324594	0.05050964	-0.01985161	0	0	0	0
8.341161	0.05050964	-0.01985161	0	0	0	0
8.358113	0.05050964	-0.01985161	0	0	0	0
8.374294	0.05050964	-0.01985161	0	0	0	0
8.391132	0.05050964	-0.01985161	0	0	0	0
8.407652	0.05050964	-0.01985161	0	0	0	0
8.423994	0.05050964	-0.01985161	0	0	0	0
8.446622	0.05050964	-0.01985161	0	0	0	0
8.457382	0.05050964	-0.01985161	0	0	0	0
8.473949	0.05050964	-0.01985161	0	0	0	0
8.49069	0.05050964	-0.01985161	0	0	0	0
8.507083	0.05050964	-0.01985161	0	0	0	0
8.523692	0.05050964	-0.01985161	0	0	0	0
8.540219	0.05050964	-0.01985161	0	0	0	0
8.556783	0.05050964	-0.01985161	0	0	0	0
8.57335	0.05050964	-0.01985161	0	0	0	0
8.589916	0.05050964	-0.01985161	0	0	0	0
8.606751	0.05050964	-0.01985161	0	0	0	0
8.623051	0.05050964	-0.01985161	0	0	0	0
8.639617	0.05050964	-0.01985161	0	0	0	0
8.656276	0.05053588	-0.01987055	0.001575649	-0.001136789	0.04742351	-0.03421479
8.672791	0.05053588	-0.01987055	0	0	-0.04749577	0.03426692
8.689326	0.05053588	-0.01987055	0	0	0	0
8.705883	0.05053588	-0.01990842	0	-0.002287815	0	-0.06913593
8.722689	0.05053588	-0.01990842	0	0	0	0.06857467
8.739017	0.05053588	-0.01990842	0	0	0	0
8.755583	0.0514283	-0.02062818	0.05386919	-0.04344728	1.637653	-1.320821
8.772218	0.0514283	-0.02062818	0	0	-1.622506	1.308605
8.788717	0.0514283	-0.02062818	0	0	0	0
8.805284	0.07179743	-0.03542002	1.229554	-0.8928881	37.18508	-27.00338
8.82185	0.07179743	-0.03542002	0	0	-37.11015	26.94897
8.83876	0.07179743	-0.03542002	0	0	0	0
8.854982	0.09800084	-0.05472549	1.615301	-1.19008	48.75268	-35.91875
8.87155	0.09800084	-0.05472549	0	0	-49.26315	36.29484
8.888302	0.09800084	-0.05472549	0	0	0	0
8.904683	0.1187025	-0.07032429	1.263739	-0.9522344	38.14081	-28.73932
8.921328	0.1187025	-0.07032429	0	0	-38.26527	28.8331
8.937838	0.1187025	-0.07032429	0	0	0	0
8.954383	0.1346022	-0.08252558	0.9609826	-0.7374475	29.07196	-22.30951
8.971366	0.1346022	-0.08252558	0	0	-28.66181	21.99476
8.990979	0.1346022	-0.08252558	0	0	0	0
9.004384	0.1256244	-0.09309133	-0.6697418	-0.7882038	-20.28407	-23.87186
9.02065	0.1256244	-0.09309133	0	0	22.57249	26.56504
9.037217	0.1256244	-0.09309133	0	0	0	0
9.053782	0.09056735	-0.1193301	-2.116293	-1.583956	-63.87354	-47.80664
9.07035	0.09056735	-0.1193301	0	0	63.87354	47.80664
9.086916	0.09056735	-0.1193301	0	0	0	0
9.103958	0.05197945	-0.148426	-2.264261	-1.707288	-67.3718	-50.79939
9.120454	0.05197945	-0.148426	0	0	67.51357	50.90628
9.136616	0.05197945	-0.148426	0	0	0	0
9.153476	0.03014876	-0.1650269	-1.294821	-0.9846375	-39.21095	-29.81769
9.169748	0.03014876	-0.1650269	0	0	39.08003	29.71813
9.186316	0.03014876	-0.1650269	0	0	0	0
9.202882	0.02552077	-0.1791915	-0.2793618	-0.8550215	-8.431397	-25.80534
9.219524	0.02552077	-0.1791915	0	0	8.412269	25.7468
9.236038	0.02552077	-0.1791915	0	0	0	0
9.252583	0.03905907	-0.2327622	0.8183039	-3.238008	24.75346	-97.94879
9.277731	0.03905907	-0.2327622	0	0	-19.62701	77.6636
9.285716	0.03905907	-0.2327622	0	0	0	0
9.302596	0.0490396	-0.303593	0.5912622	-4.196133	23.77875	-168.7556
9.318851	0.0490396	-0.303593	0	0	-17.84433	126.6395
9.335608	0.0490396	-0.303593	0	0	0	0
9.351982	0.04184398	-0.3392533	-0.4394637	-2.177906	-13.26419	-65.73501
9.368548	0.04184398	-0.3392533	0	0	13.34138	66.11755
9.385116	0.04184398	-0.3392533	0	0	0	0
9.401683	0.03480173	-0.3457371	-0.4250709	-0.3913643	-12.82867	-11.8114
9.418249	0.03480173	-0.3457371	0	0	12.82903	11.81174
9.434815	0.03480173	-0.3457371	0	0	0	0
9.451381	0.02383759	-0.362124	-0.6618732	-0.9892289	-19.9771	-29.85756
9.467949	0.02383759	-0.362124	0	0	19.97595	29.85585
9.484516	0.02383759	-0.362124	0	0	0	0
9.501225	0.03196279	-0.3949722	0.4862953	-1.965973	14.61417	-59.0815
9.517648	0.03196279	-0.3949722	0	0	-14.67769	59.3383
9.534267	0.03196279	-0.3949722	0	0	0	0
9.550781	0.04336753	-0.4232407	0.6906174	-1.711809	20.84347	-51.66399
9.567348	0.04336753	-0.4232407	0	0	-20.87652	51.74591
9.583915	0.04336753	-0.4232407	0	0	0	0
9.600482	0.05539065	-0.433881	0.725717	-0.6422512	21.90281	-19.38374
9.617048	0.05539065	-0.433881	0	0	-21.90281	19.38374
9.633615	0.05539065	-0.433881	0	0	0	0
9.650258	0.06535416	-0.4454412	0.598642	-0.694573	18.02606	-20.9147
9.666749	0.06535416	-0.4454412	0	0	-18.06705	20.96225
9.683315	0.06535416	-0.4454412	0	0	0	0
9.699882	0.05903658	-0.4637867	-0.3813519	-1.107399	-11.50989	-33.42329
9.716449	0.05903658	-0.4637867	0	0	11.50956	33.42233
9.733015	0.05903658	-0.4637867	0	0	0	0
9.74985	0.05284549	-0.4693442	-0.3677464	-0.3301139	-11.00988	-9.883207
9.766149	0.05284549	-0.4693442	0	0	11.09893	9.963142
9.782716	0.05284549	-0.4693442	0	0	0	0
9.799283	0.05512829	-0.4714161	0.1377904	-0.1250612	4.158524	-3.774353
9.815849	0.05512829	-0.4714161	0	0	-4.158643	3.774462
9.832416	0.05512829	-0.4714161	0	0	0	0
9.849933	0.07679604	-0.4912684	1.236949	-1.133311	36.29186	-33.25115
9.8665	0.07679604	-0.4912684	0	0	-36.29085	33.25022
9.883067	0.07679604	-0.4912684	0	0	0	0
9.899633	0.08265337	-0.4966959	0.3535697	-0.3276222	10.67106	-9.887941
9.916201	0.08265337	-0.4966959	0	0	-10.67106	9.887941
9.932768	0.08265337	-0.4966959	0	0	0	0
9.949332	0.08265337	-0.4966959	0	0	0	0
9.965899	0.08265337	-0.4966959	0	0	0	0
9.982468	0.08265337	-0.4966959	0	0	0	0
9.999033	0.08265337	-0.4966959	0	0	0	0
10.0156	0.08265337	-0.4966959	0	0	0	0
10.03217	0.08265337	-0.4966959	0	0	0	0
10.04873	0.08265337	-0.4966959	0	0	0	0
10.0653	0.08265337	-0.4966959	0	0	0	0
10.08187	0.08265337	-0.4966959	0	0	0	0
10.09843	0.0826011	-0.4966474	-0.003155584	0.002930699	-0.09524121	0.08845378
10.115	0.0826011	-0.4966474	0	0	0.09524121	-0.08845378
10.13211	0.0826011	-0.4966474	0	0	0	0
10.14813	0.0826011	-0.4966474	0	0	0	0
10.1647	0.0826011	-0.4966474	0	0	0	0
10.18126	0.0826011	-0.4966474	0	0	0	0
10.19783	0.0826011	-0.4966474	0	0	0	0
10.21464	0.0826011	-0.4966474	0	0	0	0
10.23097	0.0826011	-0.4966474	0	0	0	0
10.24766	0.0826011	-0.4966474	0	0	0	0
10.2641	0.0826011	-0.4966474	0	0	0	0
10.28066	0.0826011	-0.4966474	0	0	0	0
10.29723	0.0826011	-0.4966474	0	0	0	0
10.3138	0.0826011	-0.4966474	0	0	0	0
10.33036	0.0826011	-0.4966474	0	0	0	0
10.34693	0.0826011	-0.4966474	0	0	0	0
10.3635	0.0826011	-0.4966474	0	0	0	0
10.38027	0.0826011	-0.4966474	0	0	0	0
10.39678	0.0826011	-0.4966474	0	0	0	0
10.4132	0.0826011	-0.4966474	0	0	0	0
10.42976	0.0826011	-0.4966474	0	0	0	0
10.44633	0.08257496	-0.4966231	-0.001577701	0.001466165	-0.04761786	0.04425149
10.4629	0.08257496	-0.4966231	0	0	0.04761649	-0.04425022
10.47946	0.08257496	-0.4966231	0	0	0	0
10.49603	0.08254883	-0.4965988	-0.001577701	0.001466165	-0.04761786	0.04425149
10.5126	0.08254883	-0.4965988	0	0	0.04761512	-0.04424894
10.52916	0.08254883	-0.4965988	0	0	0	0
10.54573	0.08252269	-0.4965745	-0.001577701	0.001464366	-0.04761786	0.04419719
10.56239	0.08252269	-0.4965745	0	0	0.04748528	-0.04407414
10.57887	0.08252269	-0.4965745	0	0	0	0
10.59544	0.08249655	-0.4965502	-0.001576431	0.001464984	-0.0476907	0.04431918
10.612	0.08249655	-0.4965502	0	0	0.04757815	-0.04421458
10.62856	0.08249655	-0.4965502	0	0	0	0
10.64514	0.08249655	-0.4965502	0	0	0	0
10.6617	0.08249655	-0.4965502	0	0	0	0
10.67837	0.08249655	-0.4965502	0	0	0	0
10.69483	0.08249655	-0.4965502	0	0	0	0
10.71141	0.08249655	-0.4965502	0	0	0	0
10.72796	0.08249655	-0.4965502	0	0	0	0
10.76132	0.08249655	-0.4965502	0	0	0	0
10.77788	0.08249655	-0.4965502	0	0	0	0
10.79448	0.08247042	-0.496526	-0.00157471	0.001461589	-0.04747974	0.04406899
10.81148	0.08247042	-0.496526	0	0	0.04687455	-0.04350728
10.82759	0.08247042	-0.496526	0	0	0	0
10.84467	0.082392	-0.4964531	-0.004591098	0.004264378	-0.1383327	0.1284884
10.86153	0.082392	-0.4964531	0	0	0.1352697	-0.1256434
10.8778	0.082392	-0.4964531	0	0	0	0
10.89437	0.0821829	-0.4962589	-0.01262351	0.01172347	-0.3843971	0.35699
10.91105	0.0821829	-0.4962589	0	0	0.3797107	-0.3526378
10.9275	0.0821829	-0.4962589	0	0	0	0
10.94407	0.08100656	-0.4951672	-0.07100825	0.06590186	-2.150523	1.995873
10.96063	0.08100656	-0.4951672	0	0	2.143033	-1.988922
10.9772	0.08100656	-0.4951672	0	0	0	0
10.99378	0.08087584	-0.495046	-0.007886215	0.007314021	-0.2379517	0.2206868
11.01063	0.08087584	-0.495046	0	0	0.2358814	-0.2187668
11.0269	0.08087584	-0.495046	0	0	0	0
11.04364	0.08069283	-0.4948762	-0.01093065	0.0101372	-0.3311265	0.3070905
11.06003	0.08069283	-0.4948762	0	0	0.3298971	-0.3059502
11.0766	0.08069283	-0.4948762	0	0	0	0
11.09317	0.08050981	-0.4947065	-0.01104751	0.01024516	-0.3334336	0.3092175
11.10973	0.08050981	-0.4947065	0	0	0.333424	-0.3092086
11.1263	0.08050981	-0.4947065	0	0	0	0
11.14287	0.08043137	-0.4946338	-0.004735176	0.004389753	-0.1429202	0.1324944
11.16023	0.08043137	-0.4946338	0	0	0.1395461	-0.1293665
11.176	0.08043137	-0.4946338	0	0	0	0
11.19257	0.08037908	-0.4945368	-0.003156752	0.005853866	-0.0976285	0.1810418
11.20979	0.08037908	-0.4945368	0	0	0.0934184	-0.1732346
11.2257	0.08037908	-0.4945368	0	0	0	0
11.24227	0.08037908	-0.4945368	0	0	0	0
11.25899	0.08037908	-0.4945368	0	0	0	0
11.27549	0.08037908	-0.4945368	0	0	0	0
11.29201	0.08037908	-0.4945368	0	0	0	0
11.30854	0.08037908	-0.4945368	0	0	0	0
11.3251	0.08037908	-0.4945368	0	0	0	0
11.34204	0.07935929	-0.4934949	-0.06022983	0.06153543	-1.798023	1.836999
11.35823	0.07935929	-0.4934949	0	0	1.817949	-1.857357
11.37512	0.07935929	-0.4934949	0	0	0	0
11.39208	0.06467284	-0.4797828	-0.8657929	0.8083519	-25.57827	23.88128
11.4081	0.06467284	-0.4797828	0	0	26.24905	-24.50756
11.42461	0.06467284	-0.4797828	0	0	0	0
11.44107	0.04365645	-0.4606141	-1.276857	1.164606	-38.73632	35.33092
11.45764	0.04365645	-0.4606141	0	0	38.65914	-35.26053
11.4742	0.04365645	-0.4606141	0	0	0	0
11.49077	0.02507369	-0.4437574	-1.121722	1.017529	-33.85657	30.71175
11.50765	0.02507369	-0.4437574	0	0	33.53991	-30.4245
11.52416	0.02507369	-0.4437574	0	0	0	0
11.54331	0.003105253	-0.4234481	-1.147133	1.060494	-32.16021	29.73126
11.5602	0.003105253	-0.4234481	0	0	31.83591	-29.43145
11.57671	0.003105253	-0.4234481	0	0	0	0
11.59302	-0.007973515	-0.4123553	-0.6792335	0.6800982	-20.69588	20.72223
11.60958	-0.007973515	-0.4123553	0	0	20.65986	-20.68616
11.62615	-0.007973515	-0.4123553	0	0	0	0
11.64272	-0.01923447	-0.3993223	-0.6797516	0.7867171	-20.51613	23.74454
11.65928	-0.01923447	-0.3993223	0	0	20.51494	-23.74317
11.67585	-0.01923447	-0.3993223	0	0	0	0
11.69242	-5.263158E-05	-0.3780719	1.158018	1.282898	34.95207	38.72128
11.70898	-5.263158E-05	-0.3780719	0	0	-34.95006	-38.71906
11.72555	-5.263158E-05	-0.3780719	0	0	0	0
11.74212	0.04465451	-0.3404562	2.698994	2.270883	81.46519	68.54328
11.75868	0.04465451	-0.3404562	0	0	-81.46284	-68.54131
11.77533	0.04465451	-0.3404562	0	0	0	0
11.79186	0.06433216	-0.3241256	1.19028	0.9878209	35.87524	29.77308
11.80904	0.06433216	-0.3241256	0	0	-35.30492	-29.29976
11.82506	0.06433216	-0.3241256	0	0	0	0
11.84152	0.06514453	-0.3232373	0.04936176	0.05397448	1.52006	1.662105
11.85808	0.06514453	-0.3232373	0	0	-1.494731	-1.63441
11.87465	0.06514453	-0.3232373	0	0	0	0
11.89122	0.05644	-0.3159313	-0.5254976	0.4410624	-15.86	13.31167
11.90778	0.05644	-0.3159313	0	0	15.86046	-13.31206
11.92435	0.05644	-0.3159313	0	0	0	0
11.94092	0.03306689	-0.2968366	-1.410966	1.152695	-42.58671	34.79141
11.95748	0.03306689	-0.2968366	0	0	42.58426	-34.78941
11.97471	0.03306689	-0.2968366	0	0	0	0
11.99118	0.007184087	-0.275618	-1.571607	1.288394	-46.64053	38.23563
12.00719	0.007184087	-0.275618	0	0	48.39225	-39.67168
12.02375	0.007184087	-0.275618	0	0	0	0
12.04032	-0.02331157	-0.2507374	-1.840933	1.50197	-55.57067	45.33868
12.05688	-0.02331157	-0.2507374	0	0	55.56427	-45.33346
12.07412	-0.02331157	-0.2507374	0	0	0	0
12.09002	-0.05963971	-0.2112855	-2.285112	2.481604	-68.96681	74.89713
12.10658	-0.05963971	-0.2112855	0	0	70.38906	-76.44167
12.12377	-0.05963971	-0.2112855	0	0	0	0
12.1398	-0.07006931	-0.1771194	-0.6505399	2.131086	-19.58261	64.15013
12.15628	-0.07006931	-0.1771194	0	0	20.00823	-65.54442
12.17285	-0.07006931	-0.1771194	0	0	0	0
12.18981	-0.05804	-0.167108	0.7090699	0.5901277	21.14658	17.59937
12.20598	-0.05804	-0.167108	0	0	-21.39977	-17.81009
12.22255	-0.05804	-0.167108	0	0	0	0
12.23912	-0.04129231	-0.1543712	1.010951	0.7688371	30.51233	23.20489
12.25568	-0.04129231	-0.1543712	0	0	-30.51233	-23.20489
12.27225	-0.04129231	-0.1543712	0	0	0	0
12.28882	-0.01526197	-0.1347033	1.571375	1.187294	47.42555	35.83364
12.30541	-0.01526197	-0.1347033	0	0	-47.386	-35.80375
12.32195	-0.01526197	-0.1347033	0	0	0	0
12.33852	0.01186786	-0.114429	1.637654	1.223828	49.47007	36.96924
12.35508	0.01186786	-0.114429	0	0	-49.42735	-36.93732
12.37195	0.01186786	-0.114429	0	0	0	0
12.38822	0.04139739	-0.09217852	1.815003	1.367606	54.77848	41.2756
12.40547	0.04139739	-0.09217852	0	0	-54.13958	-40.7942
12.42148	0.04139739	-0.09217852	0	0	0	0
12.43801	0.04859329	-0.0760321	0.4352476	0.9766234	13.37525	30.01184
12.4545	0.04859329	-0.0760321	0	0	-13.18133	-29.5767
12.47105	0.04859329	-0.0760321	0	0	0	0
12.48761	0.04428681	-0.07290678	-0.2599546	0.1886554	-7.849965	5.69691
12.50418	0.04428681	-0.07290678	0	0	7.845898	-5.693959
12.52075	0.04428681	-0.07290678	0	0	0	0
12.53759	0.04428681	-0.07294535	0	-0.002290168	0	-0.06855702
12.55407	0.04428681	-0.07294535	0	0	0	0.06873166
12.57045	0.04428681	-0.07294535	0	0	0	0
12.58711	0.04373525	-0.07254046	-0.03310185	0.02429915	-1.001813	0.7354028
12.60358	0.04373525	-0.07254046	0	0	0.9990732	-0.7333919
12.62178	0.04373525	-0.07254046	0	0	0	0
12.63671	0.04276339	-0.07182724	-0.06506667	0.04775043	-1.963773	1.441152
12.65328	0.04276339	-0.07182724	0	0	2.065367	-1.51571
12.66985	0.04276339	-0.07182724	0	0	0	0
12.71991	0.04278966	-0.07203926	0.0005247424	-0.004234995	0.007875424	-0.06355954
12.73648	0.04278966	-0.07203926	0	0	-0.007875311	0.06355863
12.75305	0.04284219	-0.07215492	0.003170961	-0.006980971	0.0956998	-0.2106861
12.76961	0.04284219	-0.07215492	0	0	-0.09570256	0.2106922
12.78618	0.04284219	-0.07215492	0	0	0	0
12.80276	0.04286846	-0.07217419	0.00158384	-0.001162216	0.04777562	-0.03505759
12.81931	0.04286846	-0.07217419	0	0	-0.04780312	0.03507777
12.83627	0.04286846	-0.07217419	0	0	0	0
12.8528	0.04286846	-0.07217419	0	0	0	0
12.86901	0.04286846	-0.07217419	0	0	0	0
12.88558	0.04286846	-0.07217419	0	0	0	0
12.91062	0.04286846	-0.07217419	0	0	0	0
12.91871	0.04286846	-0.07217419	0	0	0	0
12.93528	0.04286846	-0.07217419	0	0	0	0
12.95184	0.04286846	-0.07217419	0	0	0	0
12.96841	0.04286846	-0.07217419	0	0	0	0
12.98498	0.04286846	-0.07217419	0	0	0	0
13.00154	0.04286846	-0.07217419	0	0	0	0
13.01811	0.04286846	-0.07217419	0	0	0	0
13.03501	0.04286846	-0.07221275	0	-0.002280941	0	-0.06815046
13.05124	0.04286846	-0.07221275	0	0	0	0.06884093
13.06802	0.04286846	-0.07221275	0	0	0	0
13.08456	0.04286846	-0.07228985	0	-0.004662451	0	-0.1399477
13.10094	0.04286846	-0.07228985	0	0	0	0.141622
13.11751	0.04286846	-0.07228985	0	0	0	0
13.13408	0.04286846	-0.0723284	0	-0.002327109	0	-0.07023632
13.15064	0.04286846	-0.0723284	0	0	0	0.07023632
13.16759	0.04286846	-0.0723284	0	0	0	0
13.18498	0.04281592	-0.07240552	-0.003019731	-0.004432594	-0.08793651	-0.12908
13.20155	0.04281592	-0.07240552	0	0	0.08890685	0.1305043
13.21812	0.04281592	-0.07240552	0	0	0	0
13.23468	0.04265832	-0.07263686	-0.009513656	-0.01396455	-0.287131	-0.421463
13.25125	0.04265832	-0.07263686	0	0	0.287131	0.421463
13.26782	0.04265832	-0.07263686	0	0	0	0
13.28438	0.04255324	-0.07275254	-0.006342737	-0.006982723	-0.1914352	-0.2107511
13.30095	0.04255324	-0.07275254	0	0	0.1914297	0.2107451
13.31784	0.04255324	-0.07275254	0	0	0	0
13.33435	0.04247444	-0.07284894	-0.004774255	-0.005840417	-0.1429436	-0.174865
13.35065	0.04247444	-0.07284894	0	0	0.1455282	0.1780268
13.36722	0.04247444	-0.07284894	0	0	0	0
13.38388	0.04226429	-0.07304175	-0.0126112	-0.01157098	-0.3795144	-0.3482106
13.40035	0.04226429	-0.07304175	0	0	0.3806177	0.3492228
13.41693	0.04226429	-0.07304175	0	0	0	0
13.43348	0.04053042	-0.07439183	-0.1047589	-0.08157096	-3.16181	-2.461958
13.45005	0.04053042	-0.07439183	0	0	3.163176	2.463022
13.46662	0.04053042	-0.07439183	0	0	0	0
13.48342	0.04058297	-0.07443042	0.003126818	-0.002296177	0.09369873	-0.06880762
13.49975	0.04058297	-0.07443042	0	0	-0.09437026	0.06930076
13.51632	0.04058297	-0.07443042	0	0	0	0
13.53288	0.04063552	-0.074469	0.003172001	-0.002328908	0.09573945	-0.07029264
13.54945	0.04063552	-0.074469	0	0	-0.09573669	0.07029062
13.56602	0.04063552	-0.074469	0	0	0	0
13.58299	0.04068806	-0.07450759	0.003096024	-0.002273725	0.0923143	-0.06779576
13.59915	0.04068806	-0.07450759	0	0	-0.09344089	0.06862313
13.61572	0.04068806	-0.07450759	0	0	0	0
13.63228	0.04071433	-0.07456546	0.001586022	-0.00349361	0.04786898	-0.1054434
13.64885	0.04071433	-0.07456546	0	0	-0.0478676	0.1054404
13.66542	0.04071433	-0.07456546	0	0	0	0
13.68198	0.04071433	-0.07456546	0	0	0	0
13.69857	0.04071433	-0.07456546	0	0	0	0
13.71512	0.04071433	-0.07456546	0	0	0	0
13.73168	0.04071433	-0.07456546	0	0	0	0
13.74862	0.04071433	-0.07456546	0	0	0	0
13.76482	0.04071433	-0.07456546	0	0	0	0
13.78138	0.04071433	-0.07456546	0	0	0	0
13.79817	0.04071433	-0.07456546	0	0	0	0
13.81467	0.04071433	-0.07456546	0	0	0	0
13.83118	0.04071433	-0.07456546	0	0	0	0
13.8477	0.04071433	-0.07456546	0	0	0	0
13.86423	0.04071433	-0.07456546	0	0	0	0
13.88078	0.04071433	-0.07456546	0	0	0	0
13.89735	0.04071433	-0.07456546	0	0	0	0
13.91392	0.04071433	-0.07456546	0	0	0	0
13.93048	0.04071433	-0.07456546	0	0	0	0
13.94705	0.04071433	-0.07456546	0	0	0	0
13.96362	0.04071433	-0.07456546	0	0	0	0
13.98018	0.04071433	-0.07456546	0	0	0	0
13.99902	0.04071433	-0.07456546	0	0	0	0
14.01332	0.04071433	-0.07456546	0	0	0	0
14.02988	0.04071433	-0.07456546	0	0	0	0
14.04645	0.04071433	-0.07456546	0	0	0	0
14.06301	0.04071433	-0.07456546	0	0	0	0
14.07958	0.04071433	-0.07456546	0	0	0	0
14.09615	0.04071433	-0.07456546	0	0	0	0
14.11272	0.04071433	-0.07456546	0	0	0	0
14.12928	0.04071433	-0.07456546	0	0	0	0
14.14588	0.04071433	-0.07456546	0	0	0	0
14.16242	0.04071433	-0.07456546	0	0	0	0
14.17898	0.04071433	-0.07456546	0	0	0	0
14.19555	0.04071433	-0.07456546	0	0	0	0
14.21212	0.04071433	-0.07456546	0	0	0	0
14.22868	0.04071433	-0.07456546	0	0	0	0
14.24525	0.04071433	-0.07456546	0	0	0	0
14.26181	0.04071433	-0.07456546	0	0	0	0
14.27838	0.04071433	-0.07456546	0	0	0	0
14.29523	0.04071433	-0.07456546	0	0	0	0
14.31151	0.04071433	-0.07456546	0	0	0	0
14.32808	0.04068806	-0.07450759	-0.001586022	0.00349361	-0.04827893	0.1063464
14.34465	0.04068806	-0.07450759	0	0	0.0478676	-0.1054404
14.36128	0.04068806	-0.07450759	0	0	0	0
14.37779	0.04066179	-0.0744883	-0.001591845	0.001168828	-0.04803229	0.03526818
14.39479	0.04066179	-0.0744883	0	0	0.04751004	-0.03488471
14.41091	0.04066179	-0.0744883	0	0	0	0
14.42748	0.04063552	-0.07404461	-0.001585797	0.0267827	-0.04851149	0.8193159
14.44405	0.04063552	-0.07404461	0	0	0.04786219	-0.8083498
14.46061	0.04063552	-0.07404461	0	0	0	0
14.47718	0.04042533	-0.07311889	-0.01268727	0.05587977	-0.3829247	1.686552
14.49375	0.04042533	-0.07311889	0	0	0.3829027	-1.686455
14.51031	0.04042533	-0.07311889	0	0	0	0
14.52688	0.04281592	-0.05982606	0.144288	0.8023106	4.354495	24.21309
14.54345	0.04281592	-0.05982606	0	0	-4.35487	-24.21518
14.56011	0.04281592	-0.05982606	0	0	0	0
14.57658	0.03432861	-0.01799617	-0.51547	2.540505	-15.55826	76.67921
14.59314	0.03432861	-0.01799617	0	0	15.60497	-76.90944
14.60971	0.03432861	-0.01799617	0	0	0	0
14.62628	0.02525778	0.009802859	-0.5475478	1.678049	-16.5255	50.64509
14.64284	0.02525778	0.009802859	0	0	16.52598	-50.64655
14.65941	0.02525778	0.009802859	0	0	0	0
14.67598	0.02381129	0.03271915	-0.08731574	1.38331	-2.635346	41.75077
14.69272	0.02381129	0.03271915	0	0	2.621687	-41.53439
14.70911	0.02381129	0.03271915	0	0	0	0
14.72572	0.02212797	0.06772624	-0.1013313	2.107331	-3.069936	63.84377
14.74225	0.02212797	0.06772624	0	0	3.057657	-63.58839
14.75881	0.02212797	0.06772624	0	0	0	0
14.77578	0.02060235	0.1129478	-0.08990774	2.664994	-2.681546	79.48486
14.79194	0.02060235	0.1129478	0	0	2.713499	-80.432
14.80851	0.02060235	0.1129478	0	0	0	0
14.82508	0.01605125	0.1550843	-0.2747362	2.543656	-8.292271	76.77432
14.84164	0.01605125	0.1550843	0	0	8.291794	-76.76991
14.85821	0.01605125	0.1550843	0	0	0	0
14.87478	0.01147318	0.1956762	-0.2763807	2.450555	-8.341668	73.96215
14.89135	0.01147318	0.1956762	0	0	8.341428	-73.96002
14.90791	0.01147318	0.1956762	0	0	0	0
14.92448	0.006131502	0.2209749	-0.32248	1.5273	-9.733307	46.09798
14.94105	0.006131502	0.2209749	0	0	9.732746	-46.09533
14.95762	0.006131502	0.2209749	0	0	0	0
14.97418	-0.002684204	0.2359752	-0.532577	0.9062014	-16.07552	27.35315
14.99114	-0.002684204	0.2359752	0	0	15.89026	-27.03793
15.00731	-0.002684204	0.2359752	0	0	0	0
15.02388	-0.01939231	0.2474393	-1.008735	0.6921332	-30.81352	21.14237
15.04044	-0.01939231	0.2474393	0	0	30.44632	-20.89042
15.05719	-0.01939231	0.2474393	0	0	0	0
15.07358	-0.03779778	0.2607726	-1.122915	0.8134646	-33.89256	24.55253
15.09014	-0.03779778	0.2607726	0	0	34.07007	-24.68112
15.10671	-0.03779778	0.2607726	0	0	0	0
15.12328	-0.04095078	0.2735556	-0.1903045	0.7715384	-5.743567	23.28575
15.13984	-0.04095078	0.2735556	0	0	5.743401	-23.28508
15.15715	-0.04095078	0.2735556	0	0	0	0
15.17315	-0.03351376	0.2819107	0.4648472	0.5222304	13.95721	15.68016
15.19018	-0.03351376	0.2819107	0	0	-14.07164	-15.80872
15.20611	-0.03351376	0.2819107	0	0	0	0
15.2227	-0.03340862	0.2819107	0.006339346	0	0.1949808	0
15.23924	-0.03340862	0.2819107	0	0	-0.1913329	0
15.25581	-0.03340862	0.2819107	0	0	0	0
15.27238	-0.03343491	0.2819286	-0.001586921	0.001079385	-0.04789613	0.03257778
15.28894	-0.03343491	0.2819286	0	0	0.04789613	-0.03257778
15.30551	-0.03343491	0.2819286	0	0	0	0
15.32227	-0.03351376	0.2819822	-0.004704033	0.003200023	-0.1411312	0.09600764
15.33864	-0.03351376	0.2819822	0	0	0.1419721	-0.09657966
15.35521	-0.03351376	0.2819822	0	0	0	0
15.37178	-0.03354005	0.2820001	-0.001586696	0.001079385	-0.04788797	0.03257685
15.38834	-0.03354005	0.2820001	0	0	0.04788797	-0.03257685
15.40491	-0.03354005	0.2820001	0	0	0	0
15.42148	-0.03356634	0.282018	-0.001586921	0.001081184	-0.04789613	0.03263208
15.43804	-0.03356634	0.282018	0	0	0.04789613	-0.03263208
15.45461	-0.03356634	0.282018	0	0	0	0
15.47118	-0.03322461	0.2817855	0.02062891	-0.01403821	0.6226177	-0.4236985
15.4878	-0.03322461	0.2817855	0	0	-0.6215799	0.4229923
15.50431	-0.03322461	0.2817855	0	0	0	0
15.52088	-0.03085862	0.2805692	0.1428196	-0.07342158	4.317637	-2.219637
15.53744	-0.03085862	0.2805692	0	0	-4.310554	2.215995
15.55401	-0.03085862	0.2805692	0	0	0	0
15.57057	-0.027309	0.2796211	0.2142804	-0.0572341	6.467368	-1.727428
15.58736	-0.027309	0.2796211	0	0	-6.424467	1.715969
15.60371	-0.027309	0.2796211	0	0	0	0
15.62039	-0.02396909	0.2802114	0.200237	0.03539165	6.062882	1.071607
15.64417	-0.02396909	0.2802114	0	0	-4.948822	-0.8746986
15.65341	-0.02396909	0.2802114	0	0	0	0
15.66998	0.03585305	0.2780647	3.611079	-0.1295838	139.9398	-5.021748
15.68654	0.03585305	0.2780647	0	0	-108.9889	3.911072
15.70332	0.03585305	0.2780647	0	0	0	0
15.71985	0.1020391	0.2836456	4.003295	0.3375652	120.1832	10.13407
15.73635	0.1020391	0.2836456	0	0	-121.2104	-10.22069
15.75286	0.1020391	0.2836456	0	0	0	0
15.76938	0.1373663	0.2882951	2.138753	0.2814864	64.75458	8.522503
15.78594	0.1373663	0.2882951	0	0	-64.64632	-8.508254
15.80251	0.1373663	0.2882951	0	0	0	0
15.81907	0.1474484	0.2896718	0.6085925	0.08310546	18.36841	2.508272
15.83593	0.1474484	0.2896718	0	0	-18.2122	-2.48694
15.85243	0.1474484	0.2896718	0	0	0	0
15.86877	0.1472166	0.289797	-0.01418142	0.007660208	-0.4317112	0.2331923
15.88534	0.1472166	0.289797	0	0	0.430948	-0.2327801
15.90191	0.1472166	0.289797	0	0	0	0
15.91876	0.1471909	0.2898149	-0.001528187	0.001061241	-0.04573246	0.03175865
15.93533	0.1471909	0.2898149	0	0	0.04572985	-0.03175684
15.95251	0.1471909	0.2898149	0	0	0	0
15.96846	0.1470106	0.2899043	-0.01130476	0.005605188	-0.341198	0.1691747
15.98503	0.1470106	0.2899043	0	0	0.3477033	-0.1724001
16.00159	0.1470106	0.2899043	0	0	0	0
16.01816	0.1467016	0.2900831	-0.0186568	0.01079392	-0.5631281	0.3257986
16.03472	0.1467016	0.2900831	0	0	0.5631281	-0.3257986
16.05129	0.1467016	0.2900831	0	0	0	0
16.06786	0.1467274	0.2900652	0.001554225	-0.001079323	0.04690661	-0.03257403
16.0846	0.1467274	0.2900652	0	0	-0.04666485	0.03240614
16.10099	0.1467274	0.2900652	0	0	0	0
16.11812	0.1466244	0.2900294	-0.006014233	-0.002086233	-0.1794032	-0.06223186
16.13412	0.1466244	0.2900294	0	0	0.1815204	0.06296627
16.15069	0.1466244	0.2900294	0	0	0	0
16.16726	0.1464183	0.2900652	-0.0124365	0.002156847	-0.3753343	0.06509378
16.18383	0.1464183	0.2900652	0	0	0.3753343	-0.06509378
16.20122	0.1464183	0.2900652	0	0	0	0
16.2172	0.1462895	0.2900831	-0.008059613	0.001119002	-0.2415157	0.0335322
16.23353	0.1462895	0.2900831	0	0	0.2494427	-0.03463279
16.2501	0.1462895	0.2900831	0	0	0	0
16.26672	0.1462123	0.2900294	-0.004647523	-0.003225032	-0.1400207	-0.09716385
16.28323	0.1462123	0.2900294	0	0	0.1402625	0.09733164
16.33598	0.1462123	0.2900294	0	0	0	0
16.35255	0.146032	0.2899758	-0.01088317	-0.003237969	-0.1569975	-0.04671
16.36931	0.146032	0.2899758	0	0	0.3265936	0.09716836
16.38582	0.146032	0.2899758	0	0	0	0
16.40225	0.1459032	0.2898864	-0.007837889	-0.00544046	-0.2379037	-0.1651345
16.41886	0.1459032	0.2898864	0	0	0.2371897	0.1646388
16.43538	0.1459032	0.2898864	0	0	0	0
16.45195	0.1457486	0.2899221	-0.009328949	0.002158646	-0.2819377	0.06523819
16.46852	0.1457486	0.2899221	0	0	0.281532	-0.06514432
16.48509	0.1457486	0.2899221	0	0	0	0
16.50165	0.145594	0.2898864	-0.009329848	-0.002158646	-0.2815916	-0.06515182
16.51822	0.145594	0.2898864	0	0	0.2815754	0.06514806
16.53496	0.145594	0.2898864	0	0	0	0
16.55147	0.1445892	0.2892964	-0.06086367	-0.03573569	-1.830547	-1.074793
16.56792	0.1445892	0.2892964	0	0	1.846649	1.084247
16.58449	0.1445892	0.2892964	0	0	0	0
16.60105	0.142527	0.2880805	-0.1244873	-0.07339882	-3.757249	-2.215308
16.61762	0.142527	0.2880805	0	0	3.757249	2.215308
16.6345	0.142527	0.2880805	0	0	0	0
16.65075	0.1424754	0.2880805	-0.003173226	0	-0.09577368	0
16.66732	0.1424754	0.2880805	0	0	0.0966865	0
16.68406	0.1424754	0.2880805	0	0	0	0
16.70057	0.1423981	0.2879911	-0.004684612	-0.005412888	-0.1408629	-0.1627617
16.71702	0.1423981	0.2879911	0	0	0.1421428	0.1642405
16.73359	0.1423981	0.2879911	0	0	0	0
16.75327	0.1419855	0.2876693	-0.0209633	-0.01635333	-0.5783418	-0.4511605
16.76983	0.1419855	0.2876693	0	0	0.5783114	0.4511368
16.7864	0.1419855	0.2876693	0	0	0	0
16.80297	0.1354032	0.2830018	-0.3973051	-0.2817321	-11.99069	-8.502692
16.81954	0.1354032	0.2830018	0	0	11.99069	8.502692
16.8361	0.1354032	0.2830018	0	0	0	0
16.85267	0.1024037	0.2598412	-1.992085	-1.398134	-60.12471	-42.19821
16.86924	0.1024037	0.2598412	0	0	60.12471	42.19821
16.8858	0.1024037	0.2598412	0	0	0	0
16.90405	0.07328955	0.2390622	-1.595505	-1.138723	-45.82832	-32.70798
16.92062	0.07328955	0.2390622	0	0	45.82832	32.70798
16.93719	0.07328955	0.2390622	0	0	0	0
16.95375	0.07365599	0.20721	0.02212057	-1.922825	0.6676387	-58.03431
16.97032	0.07365599	0.20721	0	0	-0.6676771	58.03765
16.98688	0.07365599	0.20721	0	0	0	0
17.00345	0.1067505	0.130459	1.997591	-4.632703	60.28742	-139.8152
17.02002	0.1067505	0.130459	0	0	-60.29089	139.8233
17.03693	0.1067505	0.130459	0	0	0	0
17.05315	0.1413407	0.02001662	2.132298	-6.808183	64.3529	-205.4714
17.06972	0.1413407	0.02001662	0	0	-65.03045	207.6347
17.08628	0.1413407	0.02001662	0	0	0	0
17.10285	0.1488385	-0.08558442	0.4525673	-6.374091	13.65851	-192.3705
17.11942	0.1488385	-0.08558442	0	0	-13.65851	192.3705
17.136	0.1488385	-0.08558442	0	0	0	0
17.15255	0.12464	-0.1683294	-1.461969	-4.999104	-44.12232	-150.8733
17.16912	0.12464	-0.1683294	0	0	44.14265	150.9428
17.18569	0.12464	-0.1683294	0	0	0	0
17.20255	0.08160783	-0.2272999	-2.551601	-3.496664	-76.32209	-104.5903
17.21906	0.08160783	-0.2272999	0	0	76.45294	104.7696
17.23539	0.08160783	-0.2272999	0	0	0	0
17.25196	0.04562621	-0.2636301	-2.171855	-2.192897	-66.02942	-66.66914
17.2686	0.04562621	-0.2636301	0	0	65.39613	66.02972
17.28509	0.04562621	-0.2636301	0	0	0	0
17.30361	0.02849229	-0.2779402	-0.9248543	-0.7724313	-26.41301	-22.05994
17.32018	0.02849229	-0.2779402	0	0	26.35272	22.00959
17.33675	0.02849229	-0.2779402	0	0	0	0
17.35332	0.02304855	-0.2823604	-0.3285846	-0.2668015	-9.916703	-8.052085
17.36988	0.02304855	-0.2823604	0	0	9.916703	8.052085
17.38672	0.02304855	-0.2823604	0	0	0	0
17.40323	0.02304855	-0.2823604	0	0	0	0
17.41974	0.02304855	-0.2823604	0	0	0	0
17.43628	0.02304855	-0.2823604	0	0	0	0
17.45272	0.02304855	-0.2823604	0	0	0	0
17.46929	0.02304855	-0.2823604	0	0	0	0
17.48586	0.02304855	-0.2823604	0	0	0	0
17.50242	0.02304855	-0.2823604	0	0	0	0
17.51899	0.02304855	-0.2823604	0	0	0	0
17.53583	0.02304855	-0.2823604	0	0	0	0
17.55235	0.02304855	-0.2823604	0	0	0	0
17.56869	0.02304855	-0.2823604	0	0	0	0
17.58525	0.02304855	-0.2823604	0	0	0	0
17.60543	0.02304855	-0.2823604	0	0	0	0
17.62213	0.02304855	-0.2823604	0	0	0	0
17.63865	0.02304855	-0.2823604	0	0	0	0
17.65513	0.02304855	-0.2823604	0	0	0	0
17.6717	0.02304855	-0.2823604	0	0	0	0
17.68826	0.02304855	-0.2823604	0	0	0	0
17.70483	0.02304855	-0.2823604	0	0	0	0
17.72171	0.02304855	-0.2823604	0	0	0	0
17.73796	0.02291704	-0.2822545	-0.008089783	0.006511792	-0.2441782	0.1965489
17.75453	0.02291704	-0.2822545	0	0	0.2464627	-0.1983877
17.7711	0.02291704	-0.2822545	0	0	0	0
17.78766	0.02278553	-0.2821487	-0.007937972	0.006389592	-0.2395685	0.1928383
17.80425	0.02278553	-0.2821487	0	0	0.2394306	-0.1927273
17.8208	0.02278553	-0.2821487	0	0	0	0
17.83736	0.02260141	-0.2820005	-0.0111132	0.008945789	-0.3356097	0.2701555
17.85393	0.02260141	-0.2820005	0	0	0.3353779	-0.2699689
17.8705	0.02260141	-0.2820005	0	0	0	0
17.88707	0.02152299	-0.2810481	-0.06509375	0.05748834	-1.964646	1.735102
17.90398	0.02152299	-0.2810481	0	0	1.944165	-1.717013
17.9202	0.02152299	-0.2810481	0	0	0	0
17.93701	0.006210446	-0.2686054	-0.9109479	0.7402186	-27.58137	22.41209
17.95333	0.006210446	-0.2686054	0	0	27.49246	-22.33984
17.97001	0.006210446	-0.2686054	0	0	0	0
17.98647	-0.03204166	-0.2382392	-2.324962	1.845656	-70.17153	55.7052
18.00303	-0.03204166	-0.2382392	0	0	70.41068	-55.89505
18.0196	-0.03204166	-0.2382392	0	0	0	0
18.03617	-0.06344107	-0.2132269	-1.895272	1.509746	-57.19942	45.56424
18.05273	-0.06344107	-0.2132269	0	0	57.19942	-45.56424
18.0693	-0.06344107	-0.2132269	0	0	0	0
18.08587	-0.07585418	-0.2029475	-0.7492571	0.6204659	-22.61262	18.7257
18.10244	-0.07585418	-0.2029475	0	0	22.61262	-18.7257
18.11901	-0.07585418	-0.2029475	0	0	0	0
18.13635	-0.08100656	-0.1977654	-0.2970451	0.2987564	-8.758629	8.809088
18.15292	-0.08100656	-0.1977654	0	0	8.759122	-8.809584
18.16949	-0.08100656	-0.1977654	0	0	0	0
18.18605	-0.06600922	-0.1860449	0.9052408	0.7074495	27.32022	21.35087
18.20262	-0.06600922	-0.1860449	0	0	-27.32022	-21.35087
18.21984	-0.06600922	-0.1860449	0	0	0	0
18.23575	-0.03311946	-0.1607707	2.066847	1.588273	62.38117	47.93693
18.25232	-0.03311946	-0.1607707	0	0	-63.63399	-48.89967
18.26889	-0.03311946	-0.1607707	0	0	0	0
18.28545	-0.001499999	-0.1367379	1.908555	1.450623	57.60029	43.77988
18.30202	-0.001499999	-0.1367379	0	0	-57.60029	-43.77988
18.31891	-0.001499999	-0.1367379	0	0	0	0
18.33542	0.01707729	-0.1213717	1.125214	0.9307209	33.69138	27.86784
18.35172	0.01707729	-0.1213717	0	0	-34.29262	-28.36516
18.36829	0.01707729	-0.1213717	0	0	0	0
18.38486	-0.001605262	-0.09316903	-1.127681	1.702318	-34.03348	51.37606
18.40145	-0.001605262	-0.09316903	0	0	34.00021	-51.32584
18.41799	-0.001605262	-0.09316903	0	0	0	0
18.43456	-0.03756127	-0.06635884	-2.170309	1.618266	-65.56422	48.88721
18.45112	-0.03756127	-0.06635884	0	0	65.50006	-48.83937
18.46769	-0.03756127	-0.06635884	0	0	0	0
18.48442	-0.06870747	-0.04346304	-1.861769	1.3686	-55.91471	41.10332
18.50083	-0.06870747	-0.04346304	0	0	56.1883	-41.30444
18.51747	-0.06870747	-0.04346304	0	0	0	0
18.53397	-0.08840058	-0.02912627	-1.193488	0.8688706	-36.01332	26.21804
18.55053	-0.08840058	-0.02912627	0	0	36.10058	-26.28157
18.56709	-0.08840058	-0.02912627	0	0	0	0
18.584	-0.1112753	-0.01011313	-1.35284	1.124463	-40.4124	33.59024
18.60023	-0.1112753	-0.01011313	0	0	40.8288	-33.93635
18.61679	-0.1112753	-0.01011313	0	0	0	0
18.63336	-0.1373663	0.00884553	-1.575036	1.144479	-47.54016	34.54441
18.64993	-0.1373663	0.00884553	0	0	47.53743	-34.54242
18.66649	-0.1373663	0.00884553	0	0	0	0
18.68306	-0.1567816	0.02357039	-1.172047	0.8888968	-35.37448	26.8285
18.6999	-0.1567816	0.02357039	0	0	35.07964	-26.60489
18.71643	-0.1567816	0.02357039	0	0	0	0
18.73292	-0.1476801	0.04158468	0.5518451	1.092249	16.71437	33.0822
18.74943	-0.1476801	0.04158468	0	0	-16.72017	-33.09367
18.76589	-0.1476801	0.04158468	0	0	0	0
18.78246	-0.1217631	0.05934646	1.564175	1.07198	47.35684	32.45516
18.79947	-0.1217631	0.05934646	0	0	-46.58478	-31.92604
18.81559	-0.1217631	0.05934646	0	0	0	0
18.83216	-0.1157176	0.06328879	0.3649499	0.2379869	11.16394	7.280102
18.84873	-0.1157176	0.06328879	0	0	-11.01484	-7.182872
18.86552	-0.1157176	0.06328879	0	0	0	0
18.88203	-0.1144191	0.0623637	0.07866395	-0.05604457	2.362252	-1.683
18.89843	-0.1144191	0.0623637	0	0	-2.390596	1.703194
18.91505	-0.1144191	0.0623637	0	0	0	0
18.93157	-0.1127825	0.0611978	0.09909306	-0.07059355	2.989946	-2.130027
18.94813	-0.1127825	0.0611978	0	0	-2.996154	2.134449
18.9656	-0.1127825	0.0611978	0	0	0	0
18.9816	-0.1106254	0.05966124	0.1347624	-0.09599591	4.025656	-2.867615
18.99783	-0.1106254	0.05966124	0	0	-4.180974	2.978253
19.01439	-0.1106254	0.05966124	0	0	0	0
19.03114	-0.07802548	0.036484	1.947336	-1.384477	58.46447	-41.56585
19.04753	-0.07802548	0.036484	0	0	-58.77749	41.78839
19.06409	-0.07802548	0.036484	0	0	0	0
19.08067	-0.03180506	0.003509584	2.788586	-1.989424	84.14031	-60.0271
19.09723	-0.03180506	0.003509584	0	0	-84.15969	60.04092
19.11379	-0.03180506	0.003509584	0	0	0	0
19.13036	-0.01042068	-0.01181287	1.290764	-0.9248652	38.95758	-27.91409
19.14693	-0.01042068	-0.01181287	0	0	-38.95533	27.91249
19.16349	-0.01042068	-0.01181287	0	0	0	0
19.18006	-0.009710222	-0.01251191	0.04288802	-0.04219914	1.294437	-1.273646
19.19663	-0.009710222	-0.01251191	0	0	-1.294437	1.273646
19.21319	-0.009710222	-0.01251191	0	0	0	0
19.22976	-0.004947328	-0.01945392	0.2875219	-0.4190688	8.677929	-12.64825
19.24633	-0.004947328	-0.01945392	0	0	-8.677929	12.64825
19.26289	-0.004947328	-0.01945392	0	0	0	0
19.27946	0.02644121	-0.04342487	1.894834	-1.447056	57.18949	-43.67476
19.29603	0.02644121	-0.04342487	0	0	-57.18949	43.67476
19.31259	0.02644121	-0.04342487	0	0	0	0
19.32916	0.06868128	-0.07429538	2.549616	-1.863347	76.94756	-56.23594
19.34573	0.06868128	-0.07429538	0	0	-76.94756	56.23594
19.3623	0.06868128	-0.07429538	0	0	0	0
19.37886	0.09815722	-0.09618171	1.779171	-1.321061	53.6955	-39.86971
19.39543	0.09815722	-0.09618171	0	0	-53.6955	39.86971
19.412	0.09815722	-0.09618171	0	0	0	0
19.42856	0.1055276	-0.1016912	0.4448758	-0.3325516	13.42638	-10.03643
19.44513	0.1055276	-0.1016912	0	0	-13.42638	10.03643
19.4617	0.1055276	-0.1016912	0	0	0	0
19.48527	0.1055016	-0.1016717	-0.001104105	0.0008268935	-0.02750756	0.02060114
19.49483	0.1055016	-0.1016717	0	0	0.0333258	-0.02495857
19.5114	0.1054755	-0.1016912	-0.001570865	-0.001176462	-0.06012451	-0.04502884
19.52796	0.1054755	-0.1016912	0	0	0.04740879	0.0355057
19.54491	0.1054755	-0.1016912	0	0	0	0
19.5611	0.1053975	-0.1017496	-0.004823662	-0.003612107	-0.1455868	-0.1090199
19.57766	0.1053975	-0.1017496	0	0	0.1472739	0.1102833
19.59423	0.1053975	-0.1017496	0	0	0	0
19.6108	0.1053454	-0.1017496	-0.003141729	0	-0.09482304	0
19.62736	0.1053454	-0.1017496	0	0	0.09481758	0
19.64396	0.1053454	-0.1017496	0	0	0	0
19.6605	0.1052673	-0.1018081	-0.004721836	-0.003535857	-0.1425053	-0.1067124
19.67706	0.1052673	-0.1018081	0	0	0.1426449	0.1068169
19.69363	0.1052673	-0.1018081	0	0	0	0
19.7102	0.0954981	-0.1092051	-0.5897399	-0.4465368	-17.79941	-13.47728
19.72676	0.0954981	-0.1092051	0	0	17.79941	13.47728
19.74333	0.0954981	-0.1092051	0	0	0	0
19.76133	0.04368272	-0.1481082	-2.879604	-2.162013	-83.31908	-62.55616
19.77789	0.04368272	-0.1481082	0	0	83.31908	62.55616
19.79446	0.04368272	-0.1481082	0	0	0	0
19.81103	0.01586709	-0.1691708	-1.679148	-1.271488	-50.67971	-38.3758
19.8277	0.01586709	-0.1691708	0	0	50.51685	38.25248
19.8442	0.01586709	-0.1691708	0	0	0	0
19.86073	0.01110481	-0.1727202	-0.2881486	-0.2147567	-8.724971	-6.502707
19.87774	0.01110481	-0.1727202	0	0	8.591008	6.402865
19.89386	0.01110481	-0.1727202	0	0	0	0
19.91076	0.01134162	-0.1724593	0.01400702	0.01543022	0.4241242	0.4672179
19.92699	0.01134162	-0.1724593	0	0	-0.4227327	-0.4656849
19.94356	0.01134162	-0.1724593	0	0	0	0
19.96028	0.01197311	-0.1719778	0.03777342	0.0288033	1.134843	0.8653501
19.97669	0.01197311	-0.1719778	0	0	-1.140135	-0.8693855
19.99326	0.01197311	-0.1719778	0	0	0	0
20.00983	0.01202574	-0.1719376	0.003175317	0.002421345	0.09581472	0.07306371
20.03087	0.01202574	-0.1719376	0	0	-0.08442093	-0.06437535
20.04296	0.01202574	-0.1719376	0	0	0	0
20.05952	0.01205205	-0.1719176	0.001588179	0.001210641	0.05542589	0.04225018
20.07609	0.01205205	-0.1719176	0	0	-0.04793134	-0.03653721
20.0929	0.01205205	-0.1719176	0	0	0	0
20.10922	0.01205205	-0.1719176	0	0	0	0
20.1259	0.01205205	-0.1719176	0	0	0	0
20.14241	0.01205205	-0.1719176	0	0	0	0
20.15893	0.01205205	-0.1719176	0	0	0	0
20.17549	0.01205205	-0.1719176	0	0	0	0
20.19206	0.01205205	-0.1719176	0	0	0	0
20.20863	0.01205205	-0.1719176	0	0	0	0
20.22519	0.01205205	-0.1719176	0	0	0	0
20.24176	0.01205205	-0.1719176	0	0	0	0
20.25833	0.01205205	-0.1719176	0	0	0	0
20.275	0.01205205	-0.1719176	0	0	0	0
20.29146	0.01205205	-0.1719176	0	0	0	0
20.30803	0.01205205	-0.1719176	0	0	0	0
20.32459	0.01205205	-0.1719176	0	0	0	0
20.34154	0.01205205	-0.1719176	0	0	0	0
20.35773	0.01205205	-0.1719176	0	0	0	0
20.37429	0.01205205	-0.1719176	0	0	0	0
20.39108	0.01205205	-0.1719176	0	0	0	0
20.40742	0.01205205	-0.1719176	0	0	0	0
20.42408	0.01205205	-0.1719176	0	0	0	0
20.44061	0.01205205	-0.1719176	0	0	0	0
20.45712	0.01205205	-0.1719176	0	0	0	0
20.47369	0.01205205	-0.1719176	0	0	0	0
20.49026	0.01205205	-0.1719176	0	0	0	0
20.50682	0.01205205	-0.1719176	0	0	0	0
20.52339	0.01205205	-0.1719176	0	0	0	0
20.54018	0.01205205	-0.1719176	0	0	0	0
20.55652	0.01202574	-0.1718975	-0.001609676	0.001227027	-0.04858291	0.03703389
20.57664	0.01202574	-0.1718975	0	0	0.04415265	-0.03365678
20.58966	0.01202574	-0.1718975	0	0	0	0
20.60644	0.01202574	-0.1718975	0	0	0	0
20.62279	0.01202574	-0.1718975	0	0	0	0
20.63936	0.01202574	-0.1718975	0	0	0	0
20.65598	0.01202574	-0.1718975	0	0	0	0
20.6725	0.01202574	-0.1718975	0	0	0	0
20.68906	0.01202574	-0.1718975	0	0	0	0
20.70562	0.01202574	-0.1718975	0	0	0	0
20.72253	0.01202574	-0.1718975	0	0	0	0
20.73876	0.01202574	-0.1718975	0	0	0	0
20.75555	0.01202574	-0.1718975	0	0	0	0
20.77189	0.01202574	-0.1718975	0	0	0	0
20.7886	0.01202574	-0.1718975	0	0	0	0
20.80507	0.01202574	-0.1718975	0	0	0	0
20.8216	0.01202574	-0.1718975	0	0	0	0
20.83816	0.01202574	-0.1718975	0	0	0	0
20.85472	0.01202574	-0.1718975	0	0	0	0
20.87129	0.01202574	-0.1718975	0	0	0	0
20.88786	0.01202574	-0.1718975	0	0	0	0
20.90442	0.01202574	-0.1718975	0	0	0	0
20.92099	0.01202574	-0.1718975	0	0	0	0
20.93756	0.01202574	-0.1718975	0	0	0	0
20.95412	0.01202574	-0.1718975	0	0	0	0
20.97069	0.01202574	-0.1718975	0	0	0	0
20.98726	0.01202574	-0.1718975	0	0	0	0
21.00382	0.01202574	-0.1718975	0	0	0	0
21.02039	0.01202574	-0.1718975	0	0	0	0
21.03696	0.01202574	-0.1718975	0	0	0	0
21.05429	0.01202574	-0.1718975	0	0	0	0
21.07085	0.01202574	-0.1718975	0	0	0	0
21.08742	0.01202574	-0.1718975	0	0	0	0
21.10425	0.01202574	-0.1718975	0	0	0	0
21.1269	0.01202574	-0.1718975	0	0	0	0
21.13739	0.01202574	-0.1718975	0	0	0	0
21.15395	0.01202574	-0.1718975	0	0	0	0
21.17052	0.01202574	-0.1718975	0	0	0	0
21.18709	0.01202574	-0.1718975	0	0	0	0
21.20402	0.01202574	-0.1718975	0	0	0	0
21.22052	0.01202574	-0.1718975	0	0	0	0
21.23679	0.01202574	-0.1718975	0	0	0	0
21.25356	0.01202574	-0.1718975	0	0	0	0
21.27007	0.01202574	-0.1718975	0	0	0	0
21.28649	0.01202574	-0.1718975	0	0	0	0
21.30311	0.01202574	-0.1718975	0	0	0	0
21.31962	0.01202574	-0.1718975	0	0	0	0
21.33619	0.01202574	-0.1718975	0	0	0	0
21.35276	0.01202574	-0.1718975	0	0	0	0
21.36932	0.01202574	-0.1718975	0	0	0	0
21.38589	0.01202574	-0.1718975	0	0	0	0
21.40246	0.01202574	-0.1718975	0	0	0	0
21.41902	0.01202574	-0.1718975	0	0	0	0
21.43559	0.01202574	-0.1718975	0	0	0	0
21.45219	0.01202574	-0.1718975	0	0	0	0
21.46872	0.01202574	-0.1718975	0	0	0	0
21.48529	0.01202574	-0.1718975	0	0	0	0
21.50186	0.01202574	-0.1718975	0	0	0	0
21.51842	0.01202574	-0.1718975	0	0	0	0
21.53528	0.01202574	-0.1718975	0	0	0	0
21.55156	0.01202574	-0.1718975	0	0	0	0
21.56879	0.01202574	-0.1718975	0	0	0	0
21.58469	0.01202574	-0.1718975	0	0	0	0
21.60126	0.01202574	-0.1718975	0	0	0	0
21.61783	0.01202574	-0.1718975	0	0	0	0
21.63439	0.01202574	-0.1718975	0	0	0	0
21.65096	0.01202574	-0.1718975	0	0	0	0
21.67501	0.01202574	-0.1718975	0	0	0	0
21.68409	0.01202574	-0.1718975	0	0	0	0
21.70066	0.01202574	-0.1718975	0	0	0	0
21.71741	0.01202574	-0.1718975	0	0	0	0
21.73379	0.01202574	-0.1718975	0	0	0	0
21.75044	0.01202574	-0.1718975	0	0	0	0
21.76693	0.01202574	-0.1718975	0	0	0	0
21.78349	0.01202574	-0.1718975	0	0	0	0
21.80006	0.01202574	-0.1718975	0	0	0	0
21.81699	0.01202574	-0.1718975	0	0	0	0
21.83319	0.01202574	-0.1718975	0	0	0	0
21.84976	0.01202574	-0.1718975	0	0	0	0
21.86633	0.01202574	-0.1718975	0	0	0	0
21.88303	0.01202574	-0.1718975	0	0	0	0
21.89955	0.01202574	-0.1718975	0	0	0	0
21.91603	0.01202574	-0.1718975	0	0	0	0
21.93259	0.01202574	-0.1718975	0	0	0	0
21.94916	0.01202574	-0.1718975	0	0	0	0
21.9661	0.01202574	-0.1718975	0	0	0	0
21.98229	0.01202574	-0.1718975	0	0	0	0
21.99886	0.01202574	-0.1718975	0	0	0	0
22.01543	0.01202574	-0.1718975	0	0	0	0
22.03199	0.01202574	-0.1718975	0	0	0	0
22.04856	0.01202574	-0.1718975	0	0	0	0
22.06513	0.01202574	-0.1718975	0	0	0	0
22.08219	0.01202574	-0.1718975	0	0	0	0
22.09826	0.01202574	-0.1718975	0	0	0	0
22.11483	0.01202574	-0.1718975	0	0	0	0
22.13139	0.01202574	-0.1718975	0	0	0	0
22.14796	0.01202574	-0.1718975	0	0	0	0
22.16453	0.01202574	-0.1718975	0	0	0	0
22.18109	0.01202574	-0.1718975	0	0	0	0
22.19766	0.01202574	-0.1718975	0	0	0	0
22.21605	0.01202574	-0.1718975	0	0	0	0
22.23079	0.01202574	-0.1718975	0	0	0	0
22.24779	0.01202574	-0.1718975	0	0	0	0
22.26392	0.01202574	-0.1718975	0	0	0	0
22.28082	0.01202574	-0.1718975	0	0	0	0
22.29706	0.01202574	-0.1718975	0	0	0	0
22.31362	0.01202574	-0.1718975	0	0	0	0
22.33019	0.01202574	-0.1718975	0	0	0	0
22.34676	0.01202574	-0.1718975	0	0	0	0
22.36333	0.01202574	-0.1718975	0	0	0	0
22.37989	0.01202574	-0.1718975	0	0	0	0
22.39646	0.01202574	-0.1718975	0	0	0	0
22.41303	0.01202574	-0.1718975	0	0	0	0
22.42959	0.01202574	-0.1718975	0	0	0	0
22.44616	0.01202574	-0.1718975	0	0	0	0
22.46273	0.01202574	-0.1718975	0	0	0	0
22.47949	0.01202574	-0.1718975	0	0	0	0
22.4996	0.01202574	-0.1718975	0	0	0	0
22.51617	0.01202574	-0.1718975	0	0	0	0
22.53273	0.01202574	-0.1718975	0	0	0	0
22.5493	0.01202574	-0.1718975	0	0	0	0
22.56587	0.01202574	-0.1718975	0	0	0	0
22.58244	0.01202574	-0.1718975	0	0	0	0
22.599	0.01202574	-0.1718975	0	0	0	0
22.61557	0.01202574	-0.1718975	0	0	0	0
22.63213	0.01202574	-0.1718975	0	0	0	0
22.6487	0.01202574	-0.1718975	0	0	0	0
22.66527	0.01202574	-0.1718975	0	0	0	0
22.68184	0.01199942	-0.1718774	-0.001587504	0.001210982	-0.04789994	0.03653911
22.69887	0.01199942	-0.1718774	0	0	0.04725003	-0.03604335
22.71497	0.01199942	-0.1718774	0	0	0	0
22.73153	0.01181524	-0.171737	-0.01111864	0.00847636	-0.3403417	0.2594613
22.7481	0.01181524	-0.171737	0	0	0.3355807	-0.2558318
22.76467	0.01181524	-0.171737	0	0	0	0
22.78141	0.01192049	-0.1709348	0.006288339	0.04793269	0.1888151	1.439238
22.7978	0.01192049	-0.1709348	0	0	-0.1897934	-1.446695
22.81446	0.01192049	-0.1709348	0	0	0	0
22.83093	0.005447315	-0.1658071	-0.3930292	0.3113347	-11.86233	9.39664
22.8475	0.005447315	-0.1658071	0	0	11.89657	-9.423765
22.86407	0.005447315	-0.1658071	0	0	0	0
22.88064	-0.002526311	-0.1597528	-0.481289	0.3654381	-14.52533	11.02894
22.8972	-0.002526311	-0.1597528	0	0	14.52617	-11.02958
22.91377	-0.002526311	-0.1597528	0	0	0	0
22.93053	-0.002342101	-0.1598925	0.01099236	-0.008336238	0.3298513	-0.2501482
22.94704	-0.002342101	-0.1598925	0	0	-0.3303997	0.2505641
22.96347	-0.002342101	-0.1598925	0	0	0	0
22.98006	-0.002210523	-0.1599923	0.007929294	-0.006012931	0.2401082	-0.1820785
22.9966	-0.002210523	-0.1599923	0	0	-0.2393204	0.1814811
23.01317	-0.002210523	-0.1599923	0	0	0	0
23.02974	-0.002157891	-0.1599125	0.003176836	0.004818278	0.09587709	0.1454159
23.0463	-0.002157891	-0.1599125	0	0	-0.09587709	-0.1454159
23.06287	-0.002157891	-0.1599125	0	0	0	0
23.07944	0	-0.1581969	0.1302656	0.1035667	3.931649	3.125829
23.096	0	-0.1581969	0	0	-3.931649	-3.125829
23.11265	0	-0.1581969	0	0	0	0
23.12914	0.007289344	-0.1437439	0.4420724	0.8765191	13.34177	26.4534
23.1457	0.007289344	-0.1437439	0	0	-13.37333	-26.51598
23.16227	0.007289344	-0.1437439	0	0	0	0
23.17919	0.0009210524	-0.06672435	-0.3763322	4.551445	-11.23741	135.9077
23.1954	0.0009210524	-0.06672435	0	0	11.35838	-137.3708
23.21197	0.0009210524	-0.06672435	0	0	0	0
23.22874	-0.007052515	-0.002795481	-0.4755369	3.812665	-14.26551	114.3752
23.2451	-0.007052515	-0.002795481	0	0	14.35256	-115.0731
23.26167	-0.007052515	-0.002795481	0	0	0	0
23.27827	-0.004842068	0.04085909	0.1331469	2.629546	4.014223	79.27771
23.2948	-0.004842068	0.04085909	0	0	-4.018613	-79.36443
23.31137	-0.004842068	0.04085909	0	0	0	0
23.32794	0.004263132	0.0945652	0.5495909	3.241707	16.58669	97.83492
23.34451	0.004263132	0.0945652	0	0	-16.58669	-97.83492
23.36107	0.004263132	0.0945652	0	0	0	0
23.37846	0.01723514	0.1386736	0.74614	2.537083	21.97586	74.72401
23.39447	0.01723514	0.1386736	0	0	-22.33853	-75.95717
23.41077	0.01723514	0.1386736	0	0	0	0
23.42734	0.02173342	0.1590391	0.2715482	1.229406	8.262883	37.40933
23.4439	0.02173342	0.1590391	0	0	-8.195814	-37.10568
23.46047	0.02173342	0.1590391	0	0	0	0
23.47704	-5.263158E-05	0.1760628	-1.31516	1.027672	-39.69389	31.01698
23.4936	-5.263158E-05	0.1760628	0	0	39.69389	-31.01698
23.51017	-5.263158E-05	0.1760628	0	0	0	0
23.52674	-0.02070757	0.2045263	-1.246878	1.718258	-37.63301	51.86011
23.54355	-0.02070757	0.2045263	0	0	37.35774	-51.48077
23.55987	-0.02070757	0.2045263	0	0	0	0
23.5766	-0.01439374	0.2245341	0.3774098	1.195966	11.41917	36.18599
23.593	-0.01439374	0.2245341	0	0	-11.39091	-36.09641
23.60957	-0.01439374	0.2245341	0	0	0	0
23.62614	-0.01481471	0.2252529	-0.02540934	0.04338969	-0.7668555	1.309503
23.6427	-0.01481471	0.2252529	0	0	0.7668555	-1.309503
23.65927	-0.01481471	0.2252529	0	0	0	0
23.67584	-0.01510411	0.2257381	-0.01747074	0.029289	-0.5272984	0.8839948
23.6924	-0.01510411	0.2257381	0	0	0.5272984	-0.8839948
23.70918	-0.01510411	0.2257381	0	0	0	0
23.72554	-0.02183863	0.241036	-0.4116623	0.9351181	-12.42471	28.22355
23.74272	-0.02183863	0.241036	0	0	12.27211	-27.87691
23.75872	-0.02183863	0.241036	0	0	0	0
23.77525	-0.02857117	0.2544841	-0.4075027	0.8139809	-12.52925	25.027
23.7918	-0.02857117	0.2544841	0	0	12.31902	-24.60707
23.80837	-0.02857117	0.2544841	0	0	0	0
23.82494	-0.0284134	0.2543766	0.009522777	-0.006490329	0.287398	-0.1958785
23.84177	-0.0284134	0.2543766	0	0	-0.2851166	0.1943237
23.85807	-0.0284134	0.2543766	0	0	0	0
23.87464	-0.02838711	0.2543587	0.001587167	-0.001081122	0.04828716	-0.0328915
23.89121	-0.02838711	0.2543587	0	0	-0.0479008	0.03262833
23.90783	-0.02838711	0.2543587	0	0	0	0
23.92434	-0.02830823	0.2543049	0.004778995	-0.003257164	0.1442387	-0.09830707
23.94135	-0.02830823	0.2543049	0	0	-0.1425969	0.0971881
23.95747	-0.02830823	0.2543049	0	0	0	0
23.97404	-0.02830823	0.2543049	0	0	0	0
23.99061	-0.02830823	0.2543049	0	0	0	0
24.00718	-0.02830823	0.2543049	0	0	0	0
24.02374	-0.02822934	0.2542512	0.004762049	-0.003245538	0.1437189	-0.09795054
24.04042	-0.02822934	0.2542512	0	0	-0.1432571	0.09763581
24.05688	-0.02822934	0.2542512	0	0	0	0
24.07344	-0.02804528	0.2540899	0.01111017	-0.009735494	0.3364094	-0.294785
24.09001	-0.02804528	0.2540899	0	0	-0.3353249	0.2938347
24.10658	-0.02804528	0.2540899	0	0	0	0
24.12347	-0.02754566	0.2537135	0.02956783	-0.02227255	0.8835599	-0.6655588
24.13971	-0.02754566	0.2537135	0	0	-0.8924103	0.6722255
24.15627	-0.02754566	0.2537135	0	0	0	0
24.17284	-0.02751937	0.2536598	0.001587167	-0.003245165	0.0479008	-0.09793926
24.19004	-0.02751937	0.2536598	0	0	-0.04700518	0.09610806
24.20604	-0.02751937	0.2536598	0	0	0	0
24.22254	-0.02751937	0.2536598	0	0	0	0
24.23911	-0.02751937	0.2536598	0	0	0	0
24.25568	-0.02751937	0.2536598	0	0	0	0
24.27224	-0.02751937	0.2536239	0	-0.002164043	0	-0.06531094
24.28881	-0.02751937	0.2536239	0	0	0	0.06531094
24.30538	-0.02751937	0.2536239	0	0	0	0
24.32194	-0.02749307	0.2535702	0.001587462	-0.003245538	0.04791246	-0.09795618
24.33862	-0.02749307	0.2535702	0	0	-0.04776124	0.09764701
24.35508	-0.02749307	0.2535702	0	0	0	0
24.37164	-0.02699344	0.2528712	0.03016458	-0.04220045	0.9133657	-1.277805
24.38821	-0.02699344	0.2528712	0	0	-0.9104213	1.273686
24.40478	-0.02699344	0.2528712	0	0	0	0
24.42134	-0.01436743	0.2406054	0.7620198	-0.7402791	22.9978	-22.34167
24.43831	-0.01436743	0.2406054	0	0	-22.7257	22.07733
24.45448	-0.01436743	0.2406054	0	0	0	0
24.47132	0.03574792	0.204094	2.974627	-2.167158	90.09076	-65.63544
24.48761	0.03574792	0.204094	0	0	-89.77958	65.40873
24.50418	0.03574792	0.204094	0	0	0	0
24.52084	0.09236799	0.165057	3.397256	-2.342251	102.2234	-70.4783
24.53737	0.09236799	0.165057	0	0	-102.3467	70.56335
24.55389	0.09236799	0.165057	0	0	0	0
24.57044	0.1263755	0.1406935	2.054592	-1.471944	62.1329	-44.51304
24.58701	0.1263755	0.1406935	0	0	-62.03271	44.44127
24.60357	0.1263755	0.1406935	0	0	0	0
24.6204	0.1279291	0.1131856	0.09234782	-1.635154	2.765729	-48.97129
24.63695	0.1279291	0.1131856	0	0	-2.767152	48.99648
24.65346	0.1279291	0.1131856	0	0	0	0
24.66995	0.09536771	0.04441126	-1.974273	-4.16995	-59.82129	-126.3512
24.68641	0.09536771	0.04441126	0	0	59.91824	126.556
24.70297	0.09536771	0.04441126	0	0	0	0
24.71954	0.05447238	-0.03136848	-2.468732	-4.574601	-74.51505	-138.0776
24.7361	0.05447238	-0.03136848	0	0	74.51077	138.0697
24.75267	0.05447238	-0.03136848	0	0	0	0
24.76924	0.006157817	-0.08411264	-2.916273	-3.183644	-88.01328	-96.08257
24.78581	0.006157817	-0.08411264	0	0	88.01328	96.08257
24.80238	0.006157817	-0.08411264	0	0	0	0
24.81894	-0.02759825	-0.1100066	-2.037755	-1.563142	-61.49957	-47.17573
24.83558	-0.02759825	-0.1100066	0	0	61.36534	47.07276
24.85213	-0.02759825	-0.1100066	0	0	0	0
24.86914	-0.03482801	-0.1154281	-0.424989	-0.3186916	-12.66363	-9.49623
24.88521	-0.03482801	-0.1154281	0	0	12.84838	9.634769
24.90178	-0.03482801	-0.1154281	0	0	0	0
24.91834	-0.03480173	-0.1154477	0.00158638	-0.001182758	0.04787704	-0.03569571
24.94215	-0.03480173	-0.1154477	0	0	-0.0392951	0.02929726
24.99149	-0.03480173	-0.1154477	0	0	0	0
25.00806	-0.03477545	-0.1154281	0.001586605	0.001182758	0.02407217	0.01794496
25.02477	-0.03477545	-0.1154281	0	0	-0.04766979	-0.03553616
25.04119	-0.03477545	-0.1154281	0	0	0	0
25.05776	-0.0346966	-0.1154868	0.004759913	-0.003548233	0.1443024	-0.1075689
25.07433	-0.0346966	-0.1154868	0	0	-0.1436627	0.1070921
25.09089	-0.0346966	-0.1154868	0	0	0	0
25.10746	-0.03464403	-0.1154868	0.003173575	0	0.09578972	0
25.12402	-0.03464403	-0.1154868	0	0	-0.09578419	0
25.14059	-0.03464403	-0.1154868	0	0	0	0
25.15734	-0.03459146	-0.1154868	0.003138657	0	0.09420966	0
25.17373	-0.03459146	-0.1154868	0	0	-0.09472486	0
25.19029	-0.03459146	-0.1154868	0	0	0	0
25.20686	-0.03459146	-0.1154868	0	0	0	0
25.22343	-0.03459146	-0.1154868	0	0	0	0
25.23999	-0.03459146	-0.1154868	0	0	0	0
25.25674	-0.03459146	-0.1154868	0	0	0	0
25.27312	-0.03459146	-0.1154868	0	0	0	0
25.29027	-0.03459146	-0.1154868	0	0	0	0
25.30626	-0.03459146	-0.1154477	0	0.002451428	0	0.07398851
25.32282	-0.03459146	-0.1154477	0	0	0	-0.07531082
25.3398	-0.03459146	-0.1154477	0	0	0	0
25.35596	-0.03411834	-0.115095	0.0292895	0.02183146	0.8840096	0.6589127
25.37252	-0.03411834	-0.115095	0	0	-0.8951402	-0.6672091
25.38909	-0.03411834	-0.115095	0	0	0	0
25.40566	-0.03403948	-0.1150754	0.004760363	0.001182894	0.1436763	0.03570188
25.42234	-0.03403948	-0.1150754	0	0	-0.1431653	-0.03557491
25.43885	-0.03403948	-0.1150754	0	0	0	0
25.45536	-0.03396062	-0.1151342	0.004778519	-0.003561315	0.1447409	-0.1078719
25.47193	-0.03396062	-0.1151342	0	0	-0.1444905	0.1076853
25.48849	-0.03396062	-0.1151342	0	0	0	0
25.50519	-0.03377662	-0.1152713	0.01101745	-0.008211779	0.3311917	-0.2468515
25.52177	-0.03377662	-0.1152713	0	0	-0.3310588	0.2467525
25.53889	-0.03377662	-0.1152713	0	0	0	0
25.5549	-0.01810328	-0.1265422	0.9794211	-0.7043132	29.5675	-21.26233
25.57146	-0.01810328	-0.1265422	0	0	-30.07489	21.62721
25.58803	-0.01810328	-0.1265422	0	0	0	0
25.60493	0.027309	-0.1603515	2.687562	-2.000884	80.30643	-59.78794
25.62116	0.027309	-0.1603515	0	0	-81.11546	60.39026
25.63793	0.027309	-0.1603515	0	0	0	0
25.65429	0.06194695	-0.1866305	2.117074	-1.606171	63.89711	-48.47712
25.67086	0.06194695	-0.1866305	0	0	-64.28941	48.77475
25.68743	0.06194695	-0.1866305	0	0	0	0
25.70399	0.06718819	-0.190673	0.3163979	-0.2440343	9.550558	-7.366241
25.72099	0.06718819	-0.190673	0	0	-9.426278	7.270385
25.73713	0.06718819	-0.190673	0	0	0	0
25.75401	0.0671358	-0.1906325	-0.003102762	0.002396786	-0.09396065	0.07258166
25.77026	0.0671358	-0.1906325	0	0	0.09364692	-0.07233932
25.78683	0.0671358	-0.1906325	0	0	0	0
25.80339	0.067031	-0.1905516	-0.006324555	0.004883375	-0.1908754	0.1473805
25.81996	0.067031	-0.1905516	0	0	0.1908754	-0.1473805
25.83659	0.067031	-0.1905516	0	0	0	0
25.8531	0.06692621	-0.1904707	-0.006348672	0.004902899	-0.1915702	0.1479442
25.86966	0.06692621	-0.1904707	0	0	0.1919901	-0.1482685
25.88623	0.06692621	-0.1904707	0	0	0	0
25.90279	0.06650703	-0.1896212	-0.02530741	0.05128505	-0.763867	1.547964
25.91936	0.06650703	-0.1896212	0	0	0.763867	-1.547964
25.93593	0.06650703	-0.1896212	0	0	0	0
25.95268	0.0562826	-0.1784067	-0.6101931	0.6692827	-18.31131	20.08453
25.96906	0.0562826	-0.1784067	0	0	18.41673	-20.20015
25.98568	0.0562826	-0.1784067	0	0	0	0
26.00219	0.04079315	-0.164887	-0.9380773	0.8187864	-28.31449	24.71387
26.0192	0.04079315	-0.164887	0	0	27.98422	-24.4256
26.03576	0.04079315	-0.164887	0	0	0	0
26.05615	0.03735104	-0.1622685	-0.1688329	0.1284323	-4.569329	3.475919
26.07272	0.03735104	-0.1622685	0	0	4.568621	-3.475381
26.08928	0.03735104	-0.1622685	0	0	0	0
26.10626	0.03735104	-0.1622685	0	0	0	0
26.12242	0.03735104	-0.1622685	0	0	0	0
26.13898	0.03737732	-0.1622485	0.001586338	0.001206282	0.04848137	0.03686618
26.15555	0.03737732	-0.1622485	0	0	-0.04787853	-0.03640777
26.17234	0.03737732	-0.1622485	0	0	0	0
26.18884	0.03761383	-0.1620688	0.01433692	0.01089812	0.4306809	0.3273793
26.20525	0.03761383	-0.1620688	0	0	-0.4356482	-0.3311552
26.22188	0.03761383	-0.1620688	0	0	0	0
26.23838	0.03829706	-0.1615095	0.04139208	0.03387975	1.249287	1.022552
26.25495	0.03829706	-0.1615095	0	0	-1.251521	-1.02438
26.27152	0.03829706	-0.1615095	0	0	0	0
26.28808	0.05602027	-0.1480288	1.069775	0.8136981	32.28588	24.55746
26.30491	0.05602027	-0.1480288	0	0	-32.03143	-24.36391
26.32122	0.05602027	-0.1480288	0	0	0	0
26.33795	0.07444113	-0.134111	1.100734	0.8316555	33.31802	25.17332
26.35446	0.07444113	-0.134111	0	0	-33.11537	-25.0202
26.37092	0.07444113	-0.134111	0	0	0	0
26.38748	0.08618074	-0.1253027	0.7086855	0.5317321	21.45858	16.10054
26.40405	0.08618074	-0.1253027	0	0	-21.3894	-16.04863
26.42062	0.08618074	-0.1253027	0	0	0	0
26.4375	0.0887139	-0.1233954	0.1500006	0.1129389	4.483667	3.375855
26.45403	0.0887139	-0.1233954	0	0	-4.488786	-3.379709
26.47054	0.0887139	-0.1233954	0	0	0	0
26.48704	0.0887139	-0.123592	0	-0.01191752	0	-0.3610848
26.50345	0.0887139	-0.123592	0	0	0	0.3621732
26.52011	0.0887139	-0.123592	0	0	0	0
26.53658	0.08761721	-0.1253617	-0.0665872	-0.1074529	-2.009837	-3.243307
26.55315	0.08761721	-0.1253617	0	0	2.015406	3.252295
26.56972	0.08761721	-0.1253617	0	0	0	0
26.5909	0.08746052	-0.1254404	-0.007398446	-0.003714877	-0.1960039	-0.09841666
26.60296	0.08746052	-0.1254404	0	0	0.2225809	0.1117614
26.61945	0.08746052	-0.125401	0	0.002385496	0	0.08355181
26.63598	0.08746052	-0.125401	0	0	0	-0.07223142
26.65255	0.08746052	-0.125401	0	0	0	0
26.66912	0.0874344	-0.1253814	-0.001576443	0.001187392	-0.04757988	0.03583762
26.68568	0.0874344	-0.1253814	0	0	0.04757988	-0.03583762
26.70251	0.0874344	-0.1253814	0	0	0	0
26.71881	0.08740829	-0.1253617	-0.001602084	0.001206705	-0.04835376	0.03642052
26.73553	0.08740829	-0.1253617	0	0	0.04852696	-0.03655098
26.75206	0.08740829	-0.1253617	0	0	0	0
26.76857	0.0874344	-0.1253814	0.001581359	-0.001191095	0.0478605	-0.036049
26.78508	0.0874344	-0.1253814	0	0	-0.04787985	0.03606357
26.80165	0.0874344	-0.1253814	0	0	0	0
26.81821	0.08740829	-0.125401	-0.001576261	-0.001187255	-0.04757714	-0.03583556
26.83478	0.08740829	-0.125401	0	0	0.04757166	0.03583144
26.85163	0.08740829	-0.125401	0	0	0	0
26.87015	0.08740829	-0.125401	0	0	0	0
26.88672	0.08740829	-0.125401	0	0	0	0
26.90329	0.08740829	-0.125401	0	0	0	0
26.91985	0.08740829	-0.125401	0	0	0	0
26.98281	0.08740829	-0.125401	0	0	0	0
26.99972	0.08740829	-0.125401	0	0	0	0
27.01595	0.0874344	-0.1254207	0.001608861	-0.00121181	0.04855831	-0.03657459
27.03251	0.0874344	-0.1254207	0	0	-0.04905248	0.03694681
27.04908	0.0874344	-0.1254207	0	0	0	0
27.06565	0.08740829	-0.1254404	-0.001576443	-0.001187392	-0.04757988	-0.03583762
27.08221	0.08740829	-0.1254404	0	0	0.04757988	0.03583762
27.09881	0.08740829	-0.1254404	0	0	0	0
27.11535	0.08740829	-0.1254404	0	0	0	0
27.13191	0.08740829	-0.1254404	0	0	0	0
27.14848	0.08740829	-0.1254404	0	0	0	0
27.16867	0.08735606	-0.1254797	-0.002586456	-0.001948144	-0.07036363	-0.05299857
27.18536	0.08735606	-0.1254797	0	0	0.07012711	0.05282042
27.20185	0.08732995	-0.1254994	-0.00158392	-0.001193024	-0.04774234	-0.03596
27.21887	0.08732995	-0.1254994	0	0	0.04726949	0.03560384
27.23494	0.08732995	-0.1254994	0	0	0	0
27.25151	0.08732995	-0.1254994	0	0	0	0
27.26841	0.08732995	-0.1254994	0	0	0	0
27.28494	0.08732995	-0.1254994	0	0	0	0
27.30121	0.08730383	-0.1255191	-0.001605089	-0.001209884	-0.04893747	-0.0368881
27.31796	0.08730383	-0.1255191	0	0	0.04860675	0.03663881
27.33434	0.08730383	-0.1255191	0	0	0	0
27.35098	0.08730383	-0.1255191	0	0	0	0
27.36748	0.08730383	-0.1255191	0	0	0	0
27.38404	0.08730383	-0.1255191	0	0	0	0
27.40104	0.0872516	-0.1255584	-0.003073016	-0.002314295	-0.09155276	-0.06894859
27.41718	0.0872516	-0.1255584	0	0	0.09273846	0.06984156
27.43375	0.0872516	-0.1255584	0	0	0	0
27.45178	0.08722548	-0.1255781	-0.001448366	-0.001090924	-0.04186345	-0.03153196
27.46834	0.08722548	-0.1255781	0	0	0.04186345	0.03153196
27.48491	0.08722548	-0.1255781	0	0	0	0
27.50148	0.08722548	-0.1255781	0	0	0	0
27.51805	0.08722548	-0.1255781	0	0	0	0
27.53482	0.08722548	-0.1255781	0	0	0	0
27.55118	0.08722548	-0.1255781	0	0	0	0
27.56783	0.08722548	-0.1255781	0	0	0	0
27.58436	0.08722548	-0.1255781	0	0	0	0
27.60088	0.08722548	-0.1255781	0	0	0	0
27.61744	0.08722548	-0.1255781	0	0	0	0
27.63437	0.08722548	-0.1255781	0	0	0	0
27.65058	0.08722548	-0.1255781	0	0	0	0
27.66714	0.08722548	-0.1255781	0	0	0	0
27.68371	0.08722548	-0.1255781	0	0	0	0
27.70043	0.08722548	-0.1255781	0	0	0	0
27.71692	0.08722548	-0.1255781	0	0	0	0
27.73351	0.08722548	-0.1255781	0	0	0	0
27.74998	0.08722548	-0.1255781	0	0	0	0
27.76654	0.08722548	-0.1255781	0	0	0	0
27.78311	0.08722548	-0.1255781	0	0	0	0
27.79968	0.08722548	-0.1255781	0	0	0	0
27.81625	0.08722548	-0.1255781	0	0	0	0
27.83309	0.08722548	-0.1255781	0	0	0	0
27.84938	0.08722548	-0.1255781	0	0	0	0
27.86595	0.08722548	-0.1255781	0	0	0	0
27.88313	0.08722548	-0.1255781	0	0	0	0
27.89914	0.08722548	-0.1255781	0	0	0	0
27.91565	0.08722548	-0.1255781	0	0	0	0
27.93221	0.08722548	-0.1255781	0	0	0	0
27.94878	0.08719937	-0.1255977	-0.001576443	-0.001187392	-0.04757988	-0.03583762
27.96568	0.08719937	-0.1255977	0	0	0.04710533	0.03548019
27.98219	0.08719937	-0.1255977	0	0	0	0
27.99885	0.08719937	-0.1255977	0	0	0	0
28.01536	0.08719937	-0.1255977	0	0	0	0
28.03189	0.08719937	-0.1255977	0	0	0	0
28.04818	0.08719937	-0.1255977	0	0	0	0
28.06491	0.08719937	-0.1255977	0	0	0	0
28.08142	0.08719937	-0.1255977	0	0	0	0
28.09788	0.08719937	-0.1255977	0	0	0	0
28.11445	0.08719937	-0.1255977	0	0	0	0
28.13101	0.08719937	-0.1255977	0	0	0	0
28.14758	0.08719937	-0.1255977	0	0	0	0
28.16447	0.08719937	-0.1255977	0	0	0	0
28.18101	0.08719937	-0.1255977	0	0	0	0
28.19728	0.08719937	-0.1255977	0	0	0	0
28.214	0.08719937	-0.1255977	0	0	0	0
28.23041	0.08719937	-0.1255977	0	0	0	0
28.24698	0.08719937	-0.1255977	0	0	0	0
28.26355	0.08719937	-0.1255977	0	0	0	0
28.28011	0.08719937	-0.1255977	0	0	0	0
28.29668	0.08719937	-0.1255977	0	0	0	0
28.31325	0.08719937	-0.1255977	0	0	0	0
28.32989	0.08719937	-0.1255977	0	0	0	0
28.34638	0.08719937	-0.1255977	0	0	0	0
28.36295	0.08719937	-0.1255977	0	0	0	0
28.37951	0.08719937	-0.1255977	0	0	0	0
28.39643	0.08719937	-0.1255977	0	0	0	0
28.41265	0.08719937	-0.1255977	0	0	0	0
28.42947	0.08719937	-0.1255977	0	0	0	0
28.44578	0.08719937	-0.1255977	0	0	0	0
28.46299	0.08719937	-0.1255977	0	0	0	0
28.47898	0.08719937	-0.1255977	0	0	0	0
28.49548	0.08719937	-0.1255977	0	0	0	0
28.51205	0.08719937	-0.1255977	0	0	0	0
28.52861	0.08719937	-0.1255977	0	0	0	0
28.54518	0.08719937	-0.1255977	0	0	0	0
28.56174	0.08719937	-0.1255977	0	0	0	0
28.57856	0.08719937	-0.1255977	0	0	0	0
28.59506	0.08719937	-0.1255977	0	0	0	0
28.61144	0.08719937	-0.1255977	0	0	0	0
28.62807	0.08719937	-0.1255977	0	0	0	0
28.64458	0.08717325	-0.1256174	-0.001582724	-0.001192686	-0.04776946	-0.03599741
28.66114	0.08717325	-0.1256174	0	0	0.04785762	0.03606384
28.67771	0.08717325	-0.1256174	0	0	0	0
28.69428	0.08717325	-0.1256174	0	0	0	0
28.71116	0.08717325	-0.1256174	0	0	0	0
28.72741	0.08717325	-0.1256174	0	0	0	0
28.74417	0.08717325	-0.1256174	0	0	0	0
28.76054	0.08717325	-0.1256174	0	0	0	0
28.7772	0.08717325	-0.1256174	0	0	0	0
28.79367	0.08717325	-0.1256174	0	0	0	0
28.81125	0.08717325	-0.1256174	0	0	0	0
28.82693	0.08717325	-0.1256174	0	0	0	0
28.84338	0.08717325	-0.1256174	0	0	0	0
28.85994	0.08717325	-0.1256174	0	0	0	0
28.87651	0.08717325	-0.1256174	0	0	0	0
28.89308	0.08717325	-0.1256174	0	0	0	0
28.90964	0.08717325	-0.1256174	0	0	0	0
28.92647	0.08717325	-0.1256174	0	0	0	0
28.94278	0.08717325	-0.1256174	0	0	0	0
28.95951	0.08717325	-0.1256174	0	0	0	0
28.97591	0.08717325	-0.1256174	0	0	0	0
28.99252	0.08717325	-0.1256174	0	0	0	0
29.00904	0.08717325	-0.1256174	0	0	0	0
29.02561	0.08717325	-0.1256174	0	0	0	0
29.04239	0.08717325	-0.1256174	0	0	0	0
29.05874	0.08717325	-0.1256174	0	0	0	0
29.07531	0.08717325	-0.1256174	0	0	0	0
29.09193	0.08714713	-0.1256371	-0.001571557	-0.001183712	-0.04735881	-0.03567111
29.1085	0.08714713	-0.1256371	0	0	0.04735609	0.03566907
29.12506	0.08714713	-0.1256371	0	0	0	0
29.14197	0.08714713	-0.1256371	0	0	0	0
29.1582	0.08714713	-0.1256371	0	0	0	0
29.17499	0.08714713	-0.1256371	0	0	0	0
29.19133	0.08714713	-0.1256371	0	0	0	0
29.2079	0.08714713	-0.1256371	0	0	0	0
29.22446	0.08714713	-0.1256371	0	0	0	0
29.24105	0.08714713	-0.1256371	0	0	0	0
29.2576	0.08714713	-0.1256371	0	0	0	0
29.27417	0.08714713	-0.1256371	0	0	0	0
29.29073	0.08714713	-0.1256371	0	0	0	0
29.30759	0.08714713	-0.1256371	0	0	0	0
29.32387	0.08714713	-0.1256371	0	0	0	0
29.34065	0.08712102	-0.1256568	-0.001555665	-0.001171742	-0.04704756	-0.03543667
29.35937	0.08712102	-0.1256568	0	0	0.04381265	0.03300012
29.37365	0.08712102	-0.1256568	0	0	0	0
29.39016	0.08712102	-0.1256568	0	0	0	0
29.4067	0.08712102	-0.1256568	0	0	0	0
29.42327	0.08712102	-0.1256568	0	0	0	0
29.43983	0.08712102	-0.1256568	0	0	0	0
29.4564	0.08712102	-0.1256568	0	0	0	0
29.47297	0.08712102	-0.1256568	0	0	0	0
29.48953	0.0870949	-0.1256764	-0.001576893	-0.001187392	-0.04759346	-0.03583762
29.5061	0.0870949	-0.1256764	0	0	0.04759346	0.03583762
29.52273	0.0870949	-0.1256764	0	0	0	0
29.53926	0.08534481	-0.1270736	-0.1059156	-0.08455861	-3.194333	-2.550222
29.5558	0.08534481	-0.1270736	0	0	3.202992	2.557136
29.57237	0.08534481	-0.1270736	0	0	0	0
29.58931	0.08440425	-0.1288459	-0.05551334	-0.1045994	-1.65661	-3.121418
29.6055	0.08440425	-0.1288459	0	0	1.675396	3.156815
29.62207	0.08440425	-0.1288459	0	0	0	0
29.64174	0.08448264	-0.128905	0.003985807	-0.003004983	0.1100021	-0.0829329
29.65831	0.08448264	-0.128905	0	0	-0.1099674	0.08290672
29.67487	0.08448264	-0.128905	0	0	0	0
29.69144	0.08450877	-0.1289247	0.001577161	-0.001189054	0.04761251	-0.03589606
29.70837	0.08450877	-0.1289247	0	0	-0.04708117	0.03549546
29.72457	0.08450877	-0.1289247	0	0	0	0
29.74114	0.08401231	-0.129693	-0.02996951	-0.04638565	-0.9145898	-1.415567
29.75771	0.08401231	-0.129693	0	0	0.9045336	1.400002
29.77427	0.08401231	-0.129693	0	0	0	0
29.79142	0.05190072	-0.1619489	-1.872509	-1.880921	-55.53735	-55.78686
29.80743	0.05190072	-0.1619489	0	0	56.47991	56.73365
29.82397	0.05190072	-0.1619489	0	0	0	0
29.84054	0.009710222	-0.2164393	-2.546623	-3.289045	-76.90152	-99.32074
29.85711	0.009710222	-0.2164393	0	0	76.85725	99.26357
29.87398	0.009710222	-0.2164393	0	0	0	0
29.8905	-0.02125995	-0.2508624	-1.874543	-2.083539	-56.13115	-62.38932
29.90686	-0.02125995	-0.2508624	0	0	57.0169	63.37383
29.92338	-0.02125995	-0.2508624	0	0	0	0
29.93994	-0.03551138	-0.2622678	-0.8603169	-0.6885147	-26.00633	-20.81296
29.95651	-0.03551138	-0.2622678	0	0	25.96442	20.77942
29.97308	-0.03551138	-0.2622678	0	0	0	0
29.98994	-0.05003715	-0.2754492	-0.8614053	-0.781683	-25.76883	-23.38394
30.00621	-0.05003715	-0.2754492	0	0	25.99876	23.5926
30.02278	-0.05003715	-0.2754492	0	0	0	0
30.03934	-0.05670231	-0.3156294	-0.4023566	-2.425558	-12.14384	-73.20769
30.05597	-0.05670231	-0.3156294	0	0	12.12012	73.06468
30.07248	-0.05670231	-0.3156294	0	0	0	0
30.08904	-0.05748921	-0.3463517	-0.04750288	-1.854618	-1.436534	-56.08549
30.10601	-0.05748921	-0.3463517	0	0	1.416597	55.30709
30.12218	-0.05748921	-0.3463517	0	0	0	0
30.13874	-0.05211068	-0.3582718	0.3246865	-0.7195812	9.91954	-21.98402
30.15531	-0.05211068	-0.3582718	0	0	-9.799622	21.71825
30.17188	-0.05211068	-0.3582718	0	0	0	0
30.19715	-0.05468227	-0.3610604	-0.1017553	-0.1103408	-2.432034	-2.637234
30.21454	-0.05468227	-0.3610604	0	0	2.384956	2.586185
30.23054	-0.05468227	-0.3610604	0	0	0	0
30.24685	-0.05468227	-0.3610604	0	0	0	0
30.26341	-0.05468227	-0.3610604	0	0	0	0
30.27998	-0.05476099	-0.360994	-0.004751592	0.004010147	-0.1434116	0.1210334
30.29659	-0.05476099	-0.360994	0	0	0.1432384	-0.1208873
30.31311	-0.05476099	-0.360994	0	0	0	0
30.32968	-0.05478722	-0.3609718	-0.001583682	0.001336562	-0.04785621	0.04038866
30.34625	-0.05478722	-0.3609718	0	0	0.04779561	-0.04033751
30.36281	-0.05478722	-0.3609718	0	0	0	0
30.37938	-0.05473475	-0.3610161	0.003167363	-0.002673123	0.09559122	-0.08067503
30.39595	-0.05473475	-0.3610161	0	0	-0.09559122	0.08067503
30.41252	-0.05473475	-0.3610161	0	0	0	0
30.42908	-0.05470851	-0.3610383	0.001583682	-0.001336562	0.04779561	-0.04033751
30.44618	-0.05470851	-0.3610383	0	0	-0.04703746	0.03969767
30.46301	-0.05470851	-0.3610383	0	0	0	0
30.47878	-0.05468227	-0.3610604	0.001662741	-0.001403285	0.05100371	-0.04304501
30.49535	-0.05468227	-0.3610604	0	0	-0.0514037	0.04338259
30.51192	-0.05468227	-0.3610604	0	0	0	0
30.52926	-0.05468227	-0.3610604	0	0	0	0
30.54505	-0.05468227	-0.3610604	0	0	0	0
30.56162	-0.05468227	-0.3610604	0	0	0	0
30.57818	-0.05468227	-0.3610604	0	0	0	0
30.59475	-0.05468227	-0.3610604	0	0	0	0
30.61132	-0.05468227	-0.3610604	0	0	0	0
30.62789	-0.05468227	-0.3610604	0	0	0	0
30.64445	-0.05468227	-0.3610604	0	0	0	0
30.66102	-0.05468227	-0.3610604	0	0	0	0
30.67788	-0.05468227	-0.3610604	0	0	0	0
30.69415	-0.05468227	-0.3610604	0	0	0	0
30.71072	-0.05468227	-0.3610604	0	0	0	0
30.72728	-0.05470851	-0.3610383	-0.001583864	0.001336716	-0.04780386	0.04034448
30.74385	-0.05470851	-0.3610383	0	0	0.04780386	-0.04034448
30.76053	-0.05470851	-0.3610383	0	0	0	0
30.77704	-0.05470851	-0.3610383	0	0	0	0
30.79405	-0.05470851	-0.3610383	0	0	0	0
30.81012	-0.05470851	-0.3610383	0	0	0	0
30.82668	-0.05470851	-0.3610383	0	0	0	0
30.84325	-0.05470851	-0.3610383	0	0	0	0
30.8601	-0.05470851	-0.3610383	0	0	0	0
30.87638	-0.05470851	-0.3610383	0	0	0	0
30.89295	-0.05470851	-0.3610383	0	0	0	0
30.90952	-0.05470851	-0.3610383	0	0	0	0
30.92614	-0.05470851	-0.3610383	0	0	0	0
30.94266	-0.05470851	-0.3610383	0	0	0	0
30.95922	-0.05470851	-0.3610383	0	0	0	0
30.97578	-0.05470851	-0.3610383	0	0	0	0
30.99235	-0.05470851	-0.3610383	0	0	0	0
31.00944	-0.05470851	-0.3610383	0	0	0	0
31.02548	-0.05473475	-0.3610161	-0.001634878	0.001379769	-0.04934638	0.0416463
31.04205	-0.05473475	-0.3610161	0	0	0.05012554	-0.04230388
31.05862	-0.05473475	-0.3610161	0	0	0	0
31.07549	-0.05489217	-0.3607946	-0.009327894	0.01312444	-0.2789154	0.3924366
31.09175	-0.05489217	-0.3607946	0	0	0.2815326	-0.396119
31.10852	-0.05489217	-0.3607946	0	0	0	0
31.12488	-0.055207	-0.3601747	-0.01923604	0.03787984	-0.5805783	1.143282
31.14146	-0.055207	-0.3601747	0	0	0.5839398	-1.149901
31.15802	-0.055207	-0.3601747	0	0	0	0
31.17458	-0.05510206	-0.3591124	0.006335231	0.06412817	0.1912637	1.936061
31.19115	-0.05510206	-0.3591124	0	0	-0.1912087	-1.935503
31.20772	-0.05510206	-0.3591124	0	0	0	0
31.22428	-0.05510206	-0.3581392	0	0.05874712	0	1.773094
31.24085	-0.05510206	-0.3581392	0	0	0	-1.773094
31.25764	-0.05510206	-0.3581392	0	0	0	0
31.27516	-0.05759413	-0.3553334	-0.1422496	0.1601541	-4.145623	4.66742
31.29173	-0.05759413	-0.3553334	0	0	4.173228	-4.698499
31.3083	-0.05759413	-0.3553334	0	0	0	0
31.32486	-0.06729298	-0.343237	-0.5854239	0.7301422	-17.66813	22.03574
31.34143	-0.06729298	-0.343237	0	0	17.66813	-22.03574
31.358	-0.06729298	-0.343237	0	0	0	0
31.37523	-0.0875911	-0.2985447	-1.178001	2.593719	-34.85393	76.74129
31.39124	-0.0875911	-0.2985447	0	0	35.4318	-78.01363
31.4077	-0.0875911	-0.2985447	0	0	0	0
31.42427	-0.08949713	-0.2576642	-0.1149952	2.466416	-3.481586	74.673
31.44083	-0.08949713	-0.2576642	0	0	3.470763	-74.44087
31.4574	-0.08949713	-0.2576642	0	0	0	0
31.47397	-0.0926289	-0.2325351	-0.1890344	1.516792	-5.70507	45.77686
31.49053	-0.0926289	-0.2325351	0	0	5.70507	-45.77686
31.5071	-0.0926289	-0.2325351	0	0	0	0
31.52367	-0.0999292	-0.1952298	-0.4406467	2.251757	-13.29874	67.95818
31.54024	-0.0999292	-0.1952298	0	0	13.29874	-67.95818
31.5568	-0.0999292	-0.1952298	0	0	0	0
31.57337	-0.1066465	-0.1497171	-0.4054554	2.747148	-12.23737	82.91386
31.59034	-0.1066465	-0.1497171	0	0	12.09051	-81.91882
31.6065	-0.1066465	-0.1497171	0	0	0	0
31.62307	-0.1006066	-0.1084625	0.3646121	2.49042	11.13996	76.08958
31.63963	-0.1006066	-0.1084625	0	0	-11.00465	-75.16534
31.6562	-0.1006066	-0.1084625	0	0	0	0
31.67277	-0.06957175	-0.07977944	1.873265	1.731314	56.53524	52.25116
31.68941	-0.06957175	-0.07977944	0	0	-56.40536	-52.13112
31.70592	-0.06957175	-0.07977944	0	0	0	0
31.72247	-0.03422347	-0.05390181	2.136332	1.563958	64.62714	47.312
31.73903	-0.03422347	-0.05390181	0	0	-64.51546	-47.23024
31.7556	-0.03422347	-0.05390181	0	0	0	0
31.77217	0.002815782	-0.02705652	2.235694	1.620385	67.47337	48.90331
31.78874	0.002815782	-0.02705652	0	0	-67.47337	-48.90331
31.80539	0.002815782	-0.02705652	0	0	0	0
31.82187	0.0147884	-0.01888589	0.7266001	0.4958634	21.92883	14.96519
31.83844	0.0147884	-0.01888589	0	0	-21.98832	-15.00578
31.85501	0.0147884	-0.01888589	0	0	0	0
31.87157	0.01344656	-0.02064713	-0.08100279	-0.106321	-2.44481	-3.208957
31.88845	0.01344656	-0.02064713	0	0	2.42222	3.179308
31.90471	0.01344656	-0.02064713	0	0	0	0
31.92147	0.01228886	-0.02140495	-0.0690523	-0.04520118	-2.090984	-1.368744
31.93796	0.01228886	-0.02140495	0	0	2.076353	1.359167
31.9545	0.01228886	-0.02140495	0	0	0	0
31.971	0.01231517	-0.021386	0.00159442	0.00114824	0.04825302	0.03474996
31.98754	0.01231517	-0.021386	0	0	-0.04826416	-0.03475799
32.0041	0.01231517	-0.021386	0	0	0	0
32.02067	0.0128414	-0.02176498	0.03176346	-0.02287524	0.9586232	-0.6903761
32.03724	0.0128414	-0.02176498	0	0	-0.9586232	0.6903761
32.05381	0.0128414	-0.02176498	0	0	0	0
32.07037	0.02136517	-0.02791084	0.5144957	-0.3709643	15.52751	-11.19573
32.08694	0.02136517	-0.02791084	0	0	-15.52751	11.19573
32.104	0.02136517	-0.02791084	0	0	0	0
32.12008	0.0477794	-0.04701495	1.643563	-1.188709	49.60284	-35.87529
32.13664	0.0477794	-0.04701495	0	0	-50.3565	36.42038
32.15321	0.0477794	-0.04701495	0	0	0	0
32.16978	0.07658675	-0.06809063	1.738815	-1.272131	52.47754	-38.39298
32.18657	0.07658675	-0.06809063	0	0	-52.11753	38.12959
32.20291	0.07658675	-0.06809063	0	0	0	0
32.21948	0.08215676	-0.07219347	0.3362069	-0.2476475	10.21732	-7.526004
32.23609	0.08215676	-0.07219347	0	0	-10.13274	7.463706
32.25261	0.08215676	-0.07219347	0	0	0	0
32.26918	0.08199993	-0.07207781	-0.009466562	0.006980971	-0.2860967	0.2109776
32.28575	0.08199993	-0.07207781	0	0	0.2857014	-0.2106861
32.30264	0.08199993	-0.07207781	0	0	0	0
32.31888	0.08197378	-0.07205854	-0.001609562	0.001186645	-0.04858228	0.03581714
32.33545	0.08197378	-0.07205854	0	0	0.04905675	-0.03616694
32.35201	0.08197378	-0.07205854	0	0	0	0
32.36858	0.08197378	-0.07205854	0	0	0	0
32.38514	0.08197378	-0.07205854	0	0	0	0
32.40224	0.08197378	-0.07205854	0	0	0	0
32.41827	0.08197378	-0.07205854	0	0	0	0
32.43484	0.08197378	-0.07205854	0	0	0	0
32.45141	0.08197378	-0.07205854	0	0	0	0
32.46825	0.08194765	-0.07207781	-0.001551531	-0.001144188	-0.04643505	-0.03424387
32.48479	0.08194765	-0.07207781	0	0	0.04648282	0.03427909
32.50111	0.08194765	-0.07207781	0	0	0	0
32.51767	0.08192151	-0.07205854	-0.001578337	0.001163956	-0.04799347	0.03539313
32.53424	0.08192151	-0.07205854	0	0	0.0476398	-0.03513232
32.55083	0.08192151	-0.07205854	0	0	0	0
32.56738	0.08186923	-0.07205854	-0.003159308	0	-0.09535909	0
32.58437	0.08186923	-0.07205854	0	0	0.09417713	0
32.60087	0.08186923	-0.07205854	0	0	0	0
32.61707	0.08186923	-0.07205854	0	0	0	0
32.63364	0.08186923	-0.07205854	0	0	0	0
32.65087	0.08186923	-0.07205854	0	0	0	0
32.66743	0.08184309	-0.07203926	-0.00157806	0.00116342	-0.0466959	0.03442642
32.684	0.08184309	-0.07203926	0	0	0.04762595	-0.03511209
32.70057	0.08184309	-0.07203926	0	0	0	0
32.71713	0.0817908	-0.07200071	-0.003156397	0.002327377	-0.09527124	0.07024845
32.7337	0.0817908	-0.07200071	0	0	0.09527124	-0.07024845
32.75099	0.0817908	-0.07200071	0	0	0	0
32.76683	0.0817908	-0.07200071	0	0	0	0
32.7834	0.0817908	-0.07200071	0	0	0	0
32.79997	0.0817908	-0.07200071	0	0	0	0
32.81654	0.0817908	-0.07200071	0	0	0	0
32.8331	0.0817908	-0.07200071	0	0	0	0
32.84967	0.0817908	-0.07200071	0	0	0	0
32.86655	0.0817908	-0.07200071	0	0	0	0
32.8828	0.0817908	-0.07200071	0	0	0	0
32.89959	0.0817908	-0.07200071	0	0	0	0
32.91611	0.08173853	-0.07196216	-0.003163233	0.002332749	-0.09495277	0.07002361
32.93262	0.08173853	-0.07196216	0	0	0.09575318	-0.07061388
32.94907	0.08173853	-0.07196216	0	0	0	0
32.96565	0.08166011	-0.07190434	-0.004729375	0.003487049	-0.1431944	0.1055797
32.9822	0.08166011	-0.07190434	0	0	0.1427328	-0.1052394
32.99877	0.08166011	-0.07190434	0	0	0	0
33.01534	0.08160783	-0.07186579	-0.003155671	0.002326841	-0.09523834	0.07022419
33.03191	0.08160783	-0.07186579	0	0	0.09523834	-0.07022419
33.04847	0.08160783	-0.07186579	0	0	0	0
33.0652	0.08158168	-0.07184651	-0.001562589	0.001152014	-0.04692672	0.03459659
33.08161	0.08158168	-0.07184651	0	0	0.04715903	-0.03476786
33.09825	0.08158168	-0.07184651	0	0	0	0
33.11476	0.08158168	-0.07184651	0	0	0	0
33.13131	0.08158168	-0.07184651	0	0	0	0
33.14787	0.08158168	-0.07184651	0	0	0	0
33.16445	0.08150326	-0.0717887	-0.004731552	0.003488205	-0.1427821	0.1052621
33.181	0.08150326	-0.0717887	0	0	0.142815	-0.1052864
33.19757	0.08150326	-0.0717887	0	0	0	0
33.21414	0.08147712	-0.07176942	-0.00157761	0.00116342	-0.04761238	0.03511209
33.23088	0.08147712	-0.07176942	0	0	0.04736156	-0.03492712
33.24727	0.08147712	-0.07176942	0	0	0	0
33.26384	0.08145098	-0.07175015	-0.00157806	0.00116342	-0.04788506	0.03530312
33.28043	0.08145098	-0.07175015	0	0	0.04759308	-0.03508786
33.29697	0.08145098	-0.07175015	0	0	0	0
33.31354	0.08142483	-0.07173087	-0.00157806	0.00116342	-0.04765887	0.03513636
33.33045	0.08142483	-0.07173087	0	0	0.04713754	-0.03475201
33.34667	0.08142483	-0.07173087	0	0	0	0
33.36324	0.08142483	-0.07173087	0	0	0	0
33.37999	0.08142483	-0.07173087	0	0	0	0
33.39637	0.08142483	-0.07173087	0	0	0	0
33.41294	0.08142483	-0.07173087	0	0	0	0
33.42953	0.08142483	-0.07173087	0	0	0	0
33.44608	0.08142483	-0.07173087	0	0	0	0
33.46264	0.08142483	-0.07173087	0	0	0	0
33.47921	0.08142483	-0.07173087	0	0	0	0
33.49577	0.08142483	-0.07173087	0	0	0	0
33.51234	0.0813987	-0.07175015	-0.00157761	-0.00116342	-0.04761238	-0.03511209
33.52891	0.0813987	-0.07175015	0	0	0.04761238	0.03511209
33.54562	0.0813987	-0.07175015	0	0	0	0
33.56213	0.0813987	-0.07175015	0	0	0	0
33.57861	0.0813987	-0.07175015	0	0	0	0
33.59517	0.0813987	-0.07175015	0	0	0	0
33.61174	0.0813987	-0.07175015	0	0	0	0
33.62865	0.0813987	-0.07175015	0	0	0	0
33.64487	0.0813987	-0.07175015	0	0	0	0
33.66144	0.0813987	-0.07175015	0	0	0	0
33.67822	0.0813987	-0.07175015	0	0	0	0
33.69457	0.0813987	-0.07175015	0	0	0	0
33.71114	0.0813987	-0.07175015	0	0	0	0
33.72777	0.0813987	-0.07175015	0	0	0	0
33.74427	0.0813987	-0.07175015	0	0	0	0
33.76084	0.0813987	-0.07175015	0	0	0	0
33.7774	0.0813987	-0.07175015	0	0	0	0
33.79397	0.0813987	-0.07175015	0	0	0	0
33.81054	0.0813987	-0.07175015	0	0	0	0
33.82785	0.0813987	-0.07175015	0	0	0	0
33.84367	0.0813987	-0.07175015	0	0	0	0
33.86024	0.0813987	-0.07175015	0	0	0	0
33.87687	0.0813987	-0.07175015	0	0	0	0
33.89337	0.0813987	-0.07175015	0	0	0	0
33.90994	0.0813987	-0.07175015	0	0	0	0
33.92651	0.0813987	-0.07175015	0	0	0	0
33.94307	0.0813987	-0.07175015	0	0	0	0
33.95964	0.0813987	-0.07175015	0	0	0	0
33.97644	0.0813987	-0.07175015	0	0	0	0
33.99638	0.0813987	-0.07175015	0	0	0	0
34.00933	0.0813987	-0.07175015	0	0	0	0
34.0259	0.0813987	-0.07175015	0	0	0	0
34.04247	0.0813987	-0.07175015	0	0	0	0
34.05946	0.0813987	-0.07175015	0	0	0	0
34.0756	0.0813987	-0.07175015	0	0	0	0
34.09217	0.0813987	-0.07175015	0	0	0	0
34.10874	0.0813987	-0.07175015	0	0	0	0
34.12555	0.0813987	-0.07175015	0	0	0	0
34.14207	0.0813987	-0.07175015	0	0	0	0
34.15844	0.0813987	-0.07175015	0	0	0	0
34.17508	0.0813987	-0.07175015	0	0	0	0
34.19157	0.0813987	-0.07175015	0	0	0	0
34.20813	0.0813987	-0.07175015	0	0	0	0
34.22511	0.0813987	-0.07175015	0	0	0	0
34.24212	0.0813987	-0.07175015	0	0	0	0
34.25783	0.0813987	-0.07175015	0	0	0	0
34.2744	0.0813987	-0.07175015	0	0	0	0
34.29118	0.0813987	-0.07175015	0	0	0	0
34.30766	0.0813987	-0.07175015	0	0	0	0
34.3241	0.0813987	-0.07175015	0	0	0	0
34.3407	0.0813987	-0.07175015	0	0	0	0
34.35769	0.08142483	-0.07176942	0.001537949	-0.001134172	0.04577769	-0.03375909
34.37379	0.08142483	-0.07176942	0	0	-0.04646889	0.03426882
34.39036	0.08142483	-0.07176942	0	0	0	0
34.40693	0.08142483	-0.07176942	0	0	0	0
34.4235	0.08142483	-0.07176942	0	0	0	0
34.44006	0.08142483	-0.07176942	0	0	0	0
34.45727	0.08142483	-0.07176942	0	0	0	0
34.47328	0.08142483	-0.07176942	0	0	0	0
34.48977	0.08142483	-0.07176942	0	0	0	0
34.50633	0.08142483	-0.07176942	0	0	0	0
34.5229	0.08142483	-0.07176942	0	0	0	0
34.53947	0.08142483	-0.07176942	0	0	0	0
34.55752	0.0813987	-0.0717887	-0.001447615	-0.001067554	-0.04181177	-0.03083439
34.57409	0.0813987	-0.0717887	0	0	0.04181177	0.03083439
34.59066	0.0813987	-0.0717887	0	0	0	0
34.60722	0.0813987	-0.0717887	0	0	0	0
34.62379	0.0813987	-0.0717887	0	0	0	0
34.64038	0.0813987	-0.0717887	0	0	0	0
34.65736	0.08142483	-0.07180797	0.001539331	-0.001134752	0.04586048	-0.03380707
34.67349	0.08142483	-0.07180797	0	0	-0.04648922	0.03427056
34.69006	0.08142483	-0.07180797	0	0	0	0
34.70662	0.0813987	-0.07182724	-0.00157761	-0.00116342	-0.04761238	-0.03511209
34.72319	0.0813987	-0.07182724	0	0	0.04761238	0.03511209
34.73991	0.0813987	-0.07182724	0	0	0	0
34.75645	0.0813987	-0.07182724	0	0	0	0
34.77289	0.0813987	-0.07182724	0	0	0	0
34.78946	0.0813987	-0.07182724	0	0	0	0
34.80602	0.08137255	-0.07184651	-0.00157806	-0.00116342	-0.04762595	-0.03511209
34.82259	0.08137255	-0.07184651	0	0	0.04762595	0.03511209
34.83916	0.08137255	-0.07184651	0	0	0	0
34.85586	0.08137255	-0.07184651	0	0	0	0
34.87229	0.08137255	-0.07184651	0	0	0	0
34.88886	0.08137255	-0.07184651	0	0	0	0
34.90542	0.08137255	-0.07184651	0	0	0	0
34.92199	0.08137255	-0.07184651	0	0	0	0
34.93856	0.08137255	-0.07184651	0	0	0	0
34.95512	0.08137255	-0.07184651	0	0	0	0
34.97195	0.08137255	-0.07184651	0	0	0	0
34.98844	0.08137255	-0.07184651	0	0	0	0
35.00483	0.08137255	-0.07184651	0	0	0	0
35.02146	0.08137255	-0.07184651	0	0	0	0
35.03797	0.08137255	-0.07184651	0	0	0	0
35.055	0.08137255	-0.07184651	0	0	0	0
35.07109	0.08137255	-0.07184651	0	0	0	0
35.09327	0.08137255	-0.07184651	0	0	0	0
35.10422	0.08137255	-0.07184651	0	0	0	0
35.12119	0.08137255	-0.07184651	0	0	0	0
35.1382	0.08137255	-0.07184651	0	0	0	0
35.15392	0.08137255	-0.07184651	0	0	0	0
35.17072	0.08137255	-0.07184651	0	0	0	0
35.18706	0.08137255	-0.07184651	0	0	0	0
35.20375	0.08137255	-0.07184651	0	0	0	0
35.22026	0.08137255	-0.07184651	0	0	0	0
35.23676	0.08137255	-0.07184651	0	0	0	0
35.25333	0.08137255	-0.07184651	0	0	0	0
35.2699	0.08137255	-0.07184651	0	0	0	0
35.28646	0.08137255	-0.07184651	0	0	0	0
35.30303	0.08137255	-0.07184651	0	0	0	0
35.3196	0.08137255	-0.07184651	0	0	0	0
35.33635	0.08137255	-0.07184651	0	0	0	0
35.35273	0.08137255	-0.07184651	0	0	0	0
35.3693	0.08137255	-0.07184651	0	0	0	0
35.38587	0.08137255	-0.07184651	0	0	0	0
35.40244	0.08137255	-0.07184651	0	0	0	0
35.419	0.08137255	-0.07184651	0	0	0	0
35.43557	0.08137255	-0.07184651	0	0	0	0
35.45243	0.08137255	-0.07184651	0	0	0	0
35.4687	0.08137255	-0.07184651	0	0	0	0
35.48527	0.08137255	-0.07184651	0	0	0	0
35.50196	0.08137255	-0.07184651	0	0	0	0
35.51841	0.08137255	-0.07184651	0	0	0	0
35.53497	0.08137255	-0.07184651	0	0	0	0
35.55154	0.08137255	-0.07184651	0	0	0	0
35.5681	0.08137255	-0.07184651	0	0	0	0
35.58504	0.08137255	-0.07184651	0	0	0	0
35.60154	0.08137255	-0.07184651	0	0	0	0
35.61781	0.08137255	-0.07184651	0	0	0	0
35.63507	0.08137255	-0.07184651	0	0	0	0
35.65094	0.08137255	-0.07184651	0	0	0	0
35.66756	0.08137255	-0.07184651	0	0	0	0
35.68407	0.08137255	-0.07184651	0	0	0	0
35.70063	0.08137255	-0.07184651	0	0	0	0
35.7172	0.08137255	-0.07184651	0	0	0	0
35.73377	0.08137255	-0.07184651	0	0	0	0
35.75033	0.08137255	-0.07184651	0	0	0	0
35.7669	0.08137255	-0.07184651	0	0	0	0
35.78347	0.08137255	-0.07184651	0	0	0	0
35.80003	0.08134641	-0.07182724	-0.00157806	0.00116342	-0.04762595	0.03511209
35.8166	0.08134641	-0.07182724	0	0	0.04762595	-0.03511209
35.83317	0.08134641	-0.07182724	0	0	0	0
35.85004	0.08134641	-0.07182724	0	0	0	0
35.8663	0.08134641	-0.07182724	0	0	0	0
35.88287	0.08134641	-0.07182724	0	0	0	0
35.89943	0.08118956	-0.07167306	-0.009467462	0.009306463	-0.2857286	0.2808696
35.92259	0.08118956	-0.07167306	0	0	0.2383404	-0.2342873
35.93256	0.08118956	-0.07167306	0	0	0	0
35.94913	0.07799933	-0.06928427	-0.1925625	0.1441877	-7.254828	5.432298
35.9657	0.07799933	-0.06928427	0	0	5.811547	-4.351592
35.98243	0.07799933	-0.06928427	0	0	0	0
35.99894	0.0671358	-0.06068983	-0.6579969	0.5205593	-19.79685	15.66183
36.01545	0.0671358	-0.06068983	0	0	19.92721	-15.76496
36.03196	0.0671358	-0.06068983	0	0	0	0
36.04897	0.03340862	-0.0340689	-1.983706	1.565743	-59.18023	46.71106
36.0651	0.03340862	-0.0340689	0	0	59.86837	-47.25421
36.082	0.03340862	-0.0340689	0	0	0	0
36.09851	0.00155263	-0.006886067	-1.929495	1.646446	-57.74696	49.27571
36.1148	0.00155263	-0.006886067	0	0	58.82829	-50.19841
36.13155	0.00155263	-0.006886067	0	0	0	0
36.14793	-0.005868354	-0.001458186	-0.453043	0.3313662	-13.67286	10.00065
36.1645	-0.005868354	-0.001458186	0	0	13.75043	-10.05739
36.18109	-0.005868354	-0.001458186	0	0	0	0
36.19763	-0.005736779	-0.001514681	0.007952865	-0.003414725	0.2400456	-0.1030685
36.21421	-0.005736779	-0.001514681	0	0	-0.2401285	0.1031041
36.23077	-0.005736779	-0.001514681	0	0	0	0
36.24733	-0.005052588	-0.002079678	0.04129782	-0.03410333	1.246658	-1.029477
36.2639	-0.005052588	-0.002079678	0	0	-1.246371	1.02924
36.28063	-0.005052588	-0.002079678	0	0	0	0
36.29703	-0.005447315	-0.003115758	-0.02406957	-0.06317796	-0.7265048	-1.906934
36.31368	-0.005447315	-0.003115758	0	0	0.7283498	1.911777
36.33069	-0.005447315	-0.003115758	0	0	0	0
36.34673	-0.006868313	-0.004736461	-0.08856544	-0.1010123	-2.679388	-3.055945
36.3633	-0.006868313	-0.004736461	0	0	2.715744	3.09741
36.37987	-0.006868313	-0.004736461	0	0	0	0
36.39643	-0.008289284	-0.007301065	-0.08576998	-0.1547998	-2.588543	-4.671867
36.413	-0.008289284	-0.007301065	0	0	2.588543	4.671867
36.42976	-0.008289284	-0.007301065	0	0	0	0
36.44625	-0.005157849	-0.009660014	0.1898444	-0.1430121	5.709138	-4.300764
36.46962	-0.005157849	-0.009660014	0	0	-4.762806	3.58788
36.47927	-0.005157849	-0.009660014	0	0	0	0
36.49585	-0.005763094	-0.02929723	-0.03651585	-1.184759	-1.392351	-45.1749
36.51241	-0.005763094	-0.02929723	0	0	1.102051	35.7561
36.52897	-0.005763094	-0.02929723	0	0	0	0
36.54554	-0.03761383	-0.09128542	-1.922514	-3.741615	-58.0216	-112.9222
36.56211	-0.03761383	-0.09128542	0	0	58.0216	112.9222
36.57867	-0.03761383	-0.09128542	0	0	0	0
36.59524	-0.08510969	-0.1295748	-2.866856	-2.311152	-86.52187	-69.75069
36.61181	-0.08510969	-0.1295748	0	0	86.52187	69.75069
36.62838	-0.08510969	-0.1295748	0	0	0	0
36.64494	-0.122126	-0.1578379	-2.234311	-1.705965	-67.43164	-51.48614
36.66177	-0.122126	-0.1578379	0	0	66.9002	51.08036
36.67831	-0.122126	-0.1578379	0	0	0	0
36.69464	-0.1591684	-0.1871758	-2.267203	-1.795645	-68.97224	-54.62661
36.71121	-0.1591684	-0.1871758	0	0	68.90028	54.56961
36.72784	-0.1591684	-0.1871758	0	0	0	0
36.74435	-0.1976486	-0.2190415	-2.331258	-1.930527	-70.35749	-58.26342
36.76137	-0.1976486	-0.2190415	0	0	69.53296	57.58062
36.77748	-0.1976486	-0.2190415	0	0	0	0
36.79439	-0.2231672	-0.2406	-1.509035	-1.274855	-45.69532	-38.6041
36.81062	-0.2231672	-0.2406	0	0	45.54276	38.47521
36.82718	-0.2231672	-0.2406	0	0	0	0
36.84375	-0.2143655	-0.2505083	0.5312725	-0.5980709	16.03383	-18.04982
36.86032	-0.2143655	-0.2505083	0	0	-16.03383	18.04982
36.87694	-0.2143655	-0.2505083	0	0	0	0
36.89346	-0.1859072	-0.2740996	1.722507	-1.427916	51.9674	-43.07972
36.91002	-0.1859072	-0.2740996	0	0	-52.07528	43.16914
36.92659	-0.1859072	-0.2740996	0	0	0	0
36.94315	-0.1688505	-0.2882562	1.029543	-0.8544928	31.07167	-25.78864
36.95972	-0.1688505	-0.2882562	0	0	-31.07167	25.78864
36.97629	-0.1688505	-0.2882562	0	0	0	0
36.99285	-0.1689528	-0.2882562	-0.006176049	0	-0.186415	0
37.00942	-0.1689528	-0.2882562	0	0	0.186415	0
37.0263	-0.1689528	-0.2882562	0	0	0	0
37.04255	-0.1689272	-0.2882349	0.001573134	0.001305445	0.04747729	0.0393984
37.05912	-0.1689272	-0.2882349	0	0	-0.04792976	-0.03977389
37.07569	-0.1689272	-0.2882349	0	0	0	0
37.09225	-0.1689272	-0.2882349	0	0	0	0
37.10882	-0.1689272	-0.2882349	0	0	0	0
37.12539	-0.1689272	-0.2882349	0	0	0	0
37.14195	-0.1690295	-0.28815	-0.006173728	0.005128583	-0.1863235	0.154781
37.15852	-0.1690295	-0.28815	0	0	0.1863235	-0.154781
37.17509	-0.1690295	-0.28815	0	0	0	0
37.19193	-0.1690295	-0.28815	0	0	0	0
37.20822	-0.1690295	-0.28815	0	0	0	0
37.22479	-0.1690295	-0.28815	0	0	0	0
37.24146	-0.1690295	-0.28815	0	0	0	0
37.25792	-0.1690295	-0.28815	0	0	0	0
37.27449	-0.1690295	-0.28815	0	0	0	0
37.29499	-0.1690295	-0.28815	0	0	0	0
37.31156	-0.1690295	-0.28815	0	0	0	0
37.32813	-0.1690295	-0.28815	0	0	0	0
37.34504	-0.1690295	-0.28815	0	0	0	0
37.36155	-0.1690295	-0.28815	0	0	0	0
37.37805	-0.1690295	-0.28815	0	0	0	0
37.39439	-0.1690295	-0.28815	0	0	0	0
37.41096	-0.1690295	-0.28815	0	0	0	0
37.4276	-0.1691062	-0.2880863	-0.004609071	0.003828358	-0.1387825	0.1152746
37.4441	-0.1691062	-0.2880863	0	0	0.13907	-0.1155135
37.46066	-0.1691062	-0.2880863	0	0	0	0
37.47723	-0.1692341	-0.28798	-0.00771716	0.006411179	-0.2329848	0.1935566
37.49379	-0.1692341	-0.28798	0	0	0.2329043	-0.1934898
37.51036	-0.1692341	-0.28798	0	0	0	0
37.52693	-0.1692852	-0.2879376	-0.003086864	0.002563392	-0.09316174	0.07736333
37.5435	-0.1692852	-0.2879376	0	0	0.09316174	-0.07736333
37.56006	-0.1692852	-0.2879376	0	0	0	0
37.57663	-0.169413	-0.2878739	-0.00771626	0.003845988	-0.2328772	0.1160721
37.5932	-0.169413	-0.2878739	0	0	0.2328772	-0.1160721
37.60986	-0.169413	-0.2878739	0	0	0	0
37.62633	-0.1694642	-0.2878314	-0.003104017	0.002577637	-0.09367942	0.07779323
37.6429	-0.1694642	-0.2878314	0	0	0.09393898	-0.07800877
37.65947	-0.1694642	-0.2878314	0	0	0	0
37.67603	-0.1694897	-0.2878101	-0.001542532	0.001282596	-0.04655372	0.03870881
37.6926	-0.1694897	-0.2878101	0	0	0.04655372	-0.03870881
37.7094	-0.1694897	-0.2878101	0	0	0	0
37.72573	-0.1694897	-0.2877677	0	0.002601124	0	0.07851113
37.7423	-0.1694897	-0.2877677	0	0	0	-0.07907563
37.75894	-0.1694897	-0.2877677	0	0	0	0
37.77544	-0.1694897	-0.2877677	0	0	0	0
37.79244	-0.1694897	-0.2877677	0	0	0	0
37.80857	-0.1694897	-0.2877677	0	0	0	0
37.82679	-0.1694897	-0.2877677	0	0	0	0
37.84349	-0.1694897	-0.2877677	0	0	0	0
37.85992	-0.1694897	-0.2877677	0	0	0	0
37.87649	-0.1694642	-0.2877889	0.001542177	-0.0012823	0.04672591	-0.03885198
37.89305	-0.1694642	-0.2877889	0	0	-0.04654301	0.0386999
37.90962	-0.1694642	-0.2877889	0	0	0	0
37.92619	-0.1694642	-0.2877889	0	0	0	0
37.94276	-0.1694642	-0.2877889	0	0	0	0
37.95932	-0.1694642	-0.2877889	0	0	0	0
37.97589	-0.1694642	-0.2877889	0	0	0	0
37.99246	-0.1694642	-0.2877889	0	0	0	0
38.00903	-0.1694642	-0.2877889	0	0	0	0
38.02559	-0.1694642	-0.2877889	0	0	0	0
38.04216	-0.1694642	-0.2877889	0	0	0	0
38.05916	-0.1694642	-0.2877889	0	0	0	0
38.07569	-0.169413	-0.2877889	0.003094702	0	0.09230375	0
38.09186	-0.169413	-0.2877889	0	0	-0.09465145	0
38.16261	-0.169413	-0.2877889	0	0	0	0
38.17917	-0.1685692	-0.2873006	0.05093505	0.02947811	0.5833509	0.337608
38.19577	-0.1685692	-0.2873006	0	0	-1.535985	-0.8889348
38.21231	-0.1685692	-0.2873006	0	0	0	0
38.22887	-0.1664201	-0.2856029	0.1297193	0.1024727	3.918095	3.095128
38.24544	-0.1664201	-0.2856029	0	0	-3.914938	-3.092633
38.26234	-0.1664201	-0.2856029	0	0	0	0
38.27884	-0.153288	-0.2746899	0.7959546	0.6614469	23.83536	19.80744
38.29514	-0.153288	-0.2746899	0	0	-24.26782	-20.16682
38.3117	-0.153288	-0.2746899	0	0	0	0
38.32827	-0.1166522	-0.2448522	2.211341	1.80101	66.73842	54.35458
38.34488	-0.1166522	-0.2448522	0	0	-66.64634	-54.27959
38.3614	-0.1166522	-0.2448522	0	0	0	0
38.37797	-0.08516194	-0.2196156	1.900755	1.523285	57.44427	46.03642
38.39454	-0.08516194	-0.2196156	0	0	-57.36491	-45.97282
38.41111	-0.08516194	-0.2196156	0	0	0	0
38.42767	-0.06275958	-0.2015644	1.352209	1.089574	40.80975	32.8834
38.44424	-0.06275958	-0.2015644	0	0	-40.80975	-32.8834
38.46087	-0.06275958	-0.2015644	0	0	0	0
38.47738	-0.02723011	-0.1743061	2.151996	1.651013	64.9324	49.81621
38.49394	-0.02723011	-0.1743061	0	0	-65.08223	-49.93116
38.51051	-0.02723011	-0.1743061	0	0	0	0
38.52707	0.0273353	-0.1333017	3.293575	2.475029	99.40028	74.69653
38.54364	0.0273353	-0.1333017	0	0	-99.40028	-74.69653
38.56021	0.0273353	-0.1333017	0	0	0	0
38.57677	0.05845963	-0.1103781	1.878668	1.383674	56.69833	41.75937
38.59334	0.05845963	-0.1103781	0	0	-56.69833	-41.75937
38.60991	0.05845963	-0.1103781	0	0	0	0
38.6265	0.05893168	-0.1100262	0.02844738	0.02120959	0.8578522	0.6395913
38.64304	0.05893168	-0.1100262	0	0	-0.8585436	-0.6401067
38.66236	0.05893168	-0.1100262	0	0	0	0
38.67617	0.05885301	-0.1100066	-0.005695671	0.001415355	-0.1719155	0.04272041
38.69313	0.05885301	-0.1100066	0	0	0.1851315	-0.04600456
38.70931	0.05885301	-0.1100066	0	0	0	0
38.72588	0.05880056	-0.1099675	-0.003165789	0.00236012	-0.09666776	0.07206654
38.74244	0.05880056	-0.1099675	0	0	0.09554371	-0.07122856
38.75901	0.05880056	-0.1099675	0	0	0	0
38.77567	0.05882679	-0.1099871	0.001574307	-0.001173575	0.04738177	-0.03532096
38.79219	0.05882679	-0.1099871	0	0	-0.0474526	0.03537375
38.80871	0.05882679	-0.1099871	0	0	0	0
38.82528	0.05877433	-0.1100653	-0.003166014	-0.004720239	-0.09567166	-0.1426377
38.84185	0.05877433	-0.1100653	0	0	0.0955505	0.1424571
38.85841	0.05877433	-0.1100653	0	0	0	0
38.87498	0.05809246	-0.1106128	-0.04115818	-0.03304797	-1.242157	-0.9973899
38.89155	0.05809246	-0.1106128	0	0	1.242157	0.9973899
38.90812	0.05809246	-0.1106128	0	0	0	0
38.92481	0.05413128	-0.1135674	-0.2372942	-0.1769984	-7.134448	-5.321604
38.94268	0.05413128	-0.1135674	0	0	6.864406	5.120179
38.95782	0.05413128	-0.1135674	0	0	0	0
38.97477	0.05413128	-0.1135674	0	0	0	0
38.99095	0.05413128	-0.1135674	0	0	0	0
39.00751	0.05413128	-0.1135674	0	0	0	0
39.02408	0.05415751	-0.113587	0.001583682	-0.001181859	0.04779561	-0.03566857
39.04134	0.05415751	-0.113587	0	0	-0.04682525	0.03494442
39.05783	0.05415751	-0.113587	0	0	0	0
39.07384	0.05415751	-0.113587	0	0	0	0
39.09035	0.05415751	-0.113587	0	0	0	0
39.10691	0.05415751	-0.113587	0	0	0	0
39.12348	0.05415751	-0.113587	0	0	0	0
39.14005	0.05415751	-0.113587	0	0	0	0
39.15661	0.05415751	-0.113587	0	0	0	0
39.17342	0.05413128	-0.1136066	-0.001561392	-0.001165224	-0.04678891	-0.03491729
39.18974	0.05413128	-0.1136066	0	0	0.04712832	0.03517058
39.20631	0.05413128	-0.1136066	0	0	0	0
39.22287	0.05413128	-0.1136066	0	0	0	0
39.23944	0.05413128	-0.1136066	0	0	0	0
39.25601	0.05413128	-0.1136066	0	0	0	0
39.27258	0.05413128	-0.1136066	0	0	0	0
39.28949	0.05413128	-0.1136066	0	0	0	0
39.30571	0.05413128	-0.1136066	0	0	0	0
39.32228	0.05410504	-0.1136262	-0.001583682	-0.001181409	-0.04830164	-0.03603249
39.33884	0.05410504	-0.1136262	0	0	0.04779561	0.035655
39.35541	0.05410504	-0.1136262	0	0	0	0
39.37198	0.05405256	-0.1136653	-0.003167588	-0.002363717	-0.095598	-0.07133713
39.38855	0.05405256	-0.1136653	0	0	0.095576	0.07132071
39.40511	0.05405256	-0.1136653	0	0	0	0
39.42168	0.05400008	-0.1137045	-0.003167588	-0.002363717	-0.09562002	-0.07135356
39.43825	0.05400008	-0.1137045	0	0	0.095598	0.07133713
39.45481	0.05400008	-0.1137045	0	0	0	0
39.47408	0.05392136	-0.1137632	-0.004086285	-0.003049196	-0.1140419	-0.0850983
39.48797	0.05392136	-0.1137632	0	0	0.1232392	0.09196138
39.50452	0.05392136	-0.1137632	0	0	0	0
39.52108	0.05386889	-0.1138024	-0.003168318	-0.002364262	-0.09569714	-0.07141111
39.53765	0.05386889	-0.1138024	0	0	0.09563103	0.07136178
39.55421	0.05386889	-0.1138024	0	0	0	0
39.57078	0.05384265	-0.113822	-0.001583907	-0.001181859	-0.0478024	-0.03566857
39.58735	0.05384265	-0.113822	0	0	0.0478024	0.03566857
39.60392	0.05384265	-0.113822	0	0	0	0
39.62055	0.05384265	-0.113822	0	0	0	0
39.63705	0.05384265	-0.113822	0	0	0	0
39.65361	0.05384265	-0.113822	0	0	0	0
39.67018	0.05381641	-0.1138415	-0.001583682	-0.001181859	-0.04780662	-0.03567678
39.68675	0.05381641	-0.1138415	0	0	0.04779561	0.03566857
39.70332	0.05381641	-0.1138415	0	0	0	0
39.72012	0.05381641	-0.1138807	0	-0.002329919	0	-0.06981077
39.73663	0.05381641	-0.1138807	0	0	0	0.06994668
39.75302	0.05381641	-0.1138807	0	0	0	0
39.76958	0.05379017	-0.1139003	-0.001583907	-0.001181859	-0.0480569	-0.03585847
39.78615	0.05379017	-0.1139003	0	0	0.0478024	0.03566857
39.80272	0.05379017	-0.1139003	0	0	0	0
39.81928	0.05376393	-0.1139199	-0.001584271	-0.001182581	-0.04781891	-0.03569447
39.83585	0.05376393	-0.1139199	0	0	0.04781891	0.03569447
39.85281	0.05376393	-0.1139199	0	0	0	0
39.86898	0.05376393	-0.1139199	0	0	0	0
39.88584	0.05376393	-0.1139199	0	0	0	0
39.90212	0.05376393	-0.1139199	0	0	0	0
39.91885	0.05373769	-0.1139394	-0.001567798	-0.001170005	-0.04748571	-0.0354373
39.93536	0.05373769	-0.1139394	0	0	0.04716961	0.0352014
39.95182	0.05373769	-0.1139394	0	0	0	0
39.9689	0.05373769	-0.1139394	0	0	0	0
39.98495	0.05373769	-0.1139394	0	0	0	0
40.00191	0.05373769	-0.1139394	0	0	0	0
40.01808	0.05373769	-0.1139394	0	0	0	0
40.03957	0.05373769	-0.1139394	0	0	0	0
40.05122	0.05373769	-0.1139394	0	0	0	0
40.06778	0.05373769	-0.1139394	0	0	0	0
40.08447	0.05373769	-0.1139394	0	0	0	0
40.10091	0.05373769	-0.1139394	0	0	0	0
40.11748	0.05371145	-0.113959	-0.001583907	-0.001181859	-0.0479847	-0.0358046
40.13405	0.05371145	-0.113959	0	0	0.0478024	0.03566857
40.15062	0.05371145	-0.113959	0	0	0	0
40.16754	0.05371145	-0.113959	0	0	0	0
40.18375	0.05371145	-0.113959	0	0	0	0
40.20031	0.05371145	-0.113959	0	0	0	0
40.21688	0.05368521	-0.1139786	-0.001583907	-0.001181859	-0.0478024	-0.03566857
40.23345	0.05368521	-0.1139786	0	0	0.0478024	0.03566857
