Time	Pos X	Pos Y	Vel X	Vel Y	Acc X	Acc Y
0.01772377	0.08618074	-0.03085529	-0.00134316	0.0004808915	2.093907E-05	-7.496813E-06
0.04555684	0.08618074	-0.03085529	0	0	-2.094275E-05	7.49813E-06
0.06212594	0.08618074	-0.03085529	0	0	0	0
0.0786911	0.07752851	-0.02457085	-0.5223153	0.3793772	-15.76361	11.4497
0.09525941	0.07752851	-0.02457085	0	0	15.76398	-11.44997
0.1118261	0.07752851	-0.02457085	0	0	0	0
0.1283964	0.07781623	-0.02477949	0.01736401	-0.01259147	0.5240064	-0.3799819
0.1452837	0.07781623	-0.02477949	0	0	-0.518986	0.3763414
0.1615327	0.07781623	-0.02477949	0	0	0	0
0.1782731	0.0778947	-0.0248364	0.004687426	-0.003399296	0.1420889	-0.1030421
0.1947881	0.0778947	-0.0248364	0	0	-0.1409522	0.1022177
0.2112325	0.0778947	-0.0248364	0	0	0	0
0.2280037	0.07786855	-0.02485537	-0.001559311	-0.001131056	-0.04694519	-0.03405198
0.2445728	0.07786855	-0.02485537	0	0	0.04676953	0.03392456
0.2611395	0.07786855	-0.02485537	0	0	0	0
0.2816428	0.07786855	-0.02485537	0	0	0	0
0.2946993	0.07786855	-0.02485537	0	0	0	0
0.3108378	0.0778947	-0.02487434	0.001620451	-0.001175404	0.05550437	-0.04026043
0.3274045	0.0778947	-0.02487434	0	0	-0.04954726	0.0359394
0.3442413	0.0778947	-0.02487434	0	0	0	0
0.3607365	0.07786855	-0.0248933	-0.001585394	-0.001149976	-0.04756366	-0.0345006
0.3771051	0.07786855	-0.0248933	0	0	0.04824128	0.03499211
0.3936715	0.07786855	-0.0248933	0	0	0	0
0.4107861	0.07786855	-0.0248933	0	0	0	0
0.4268049	0.07786855	-0.0248933	0	0	0	0
0.4433713	0.07786855	-0.0248933	0	0	0	0
0.4599384	0.07786855	-0.0248933	0	0	0	0
0.4765051	0.07786855	-0.0248933	0	0	0	0
0.4930715	0.07786855	-0.0248933	0	0	0	0
0.5098553	0.07784239	-0.02491227	-0.00155858	-0.001130092	-0.04673374	-0.03388562
0.5263699	0.07784239	-0.02491227	0	0	0.04680636	0.03393827
0.5427721	0.07784239	-0.02491227	0	0	0	0
0.559338	0.07786855	-0.02493124	0.001579085	-0.001145073	0.04789743	-0.0347328
0.5759059	0.07786855	-0.02493124	0	0	-0.04765773	0.03455898
0.5924723	0.07786855	-0.02493124	0	0	0	0
0.6090374	0.0778947	-0.02495021	0.001578709	-0.001145239	0.04764981	-0.03456648
0.6256049	0.0778947	-0.02495021	0	0	-0.04764809	0.03456523
0.6421717	0.0778947	-0.02495021	0	0	0	0
0.6589769	0.07786855	-0.02496918	-0.00155616	-0.00112877	-0.04663081	-0.03382395
0.6754721	0.07786855	-0.02496918	0	0	0.04673089	0.03389654
0.6919832	0.07786855	-0.02496918	0	0	0	0
0.7084379	0.07786855	-0.02496918	0	0	0	0
0.725005	0.07786855	-0.02496918	0	0	0	0
0.7415717	0.07786855	-0.02496918	0	0	0	0
0.7581381	0.07786855	-0.02496918	0	0	0	0
0.7747052	0.07786855	-0.02496918	0	0	0	0
0.7912731	0.07786855	-0.02496918	0	0	0	0
0.8080645	0.07786855	-0.02496918	0	0	0	0
0.8317329	0.07786855	-0.02496918	0	0	0	0
0.8409721	0.07786855	-0.02496918	0	0	0	0
0.8576068	0.07786855	-0.02496918	0	0	0	0
0.8741048	0.07786855	-0.02496918	0	0	0	0
0.8906719	0.07786855	-0.02496918	0	0	0	0
0.9076449	0.07786855	-0.02496918	0	0	0	0
0.9238058	0.07786855	-0.02496918	0	0	0	0
0.9403725	0.07786855	-0.02496918	0	0	0	0
0.9569381	0.07786855	-0.02496918	0	0	0	0
0.9735056	0.07786855	-0.02496918	0	0	0	0
0.9900727	0.07786855	-0.02496918	0	0	0	0
1.006741	0.07786855	-0.02496918	0	0	0	0
1.023205	0.07786855	-0.02496918	0	0	0	0
1.039772	0.07786855	-0.02496918	0	0	0	0
1.056338	0.07784239	-0.02498815	-0.001579039	-0.00114504	-0.04765739	-0.03455873
1.072906	0.07784239	-0.02498815	0	0	0.04765636	0.03455798
1.089473	0.07784239	-0.02498815	0	0	0	0
1.106038	0.07784239	-0.02498815	0	0	0	0
1.122624	0.07784239	-0.02498815	0	0	0	0
1.139172	0.07784239	-0.02498815	0	0	0	0
1.155738	0.07784239	-0.02498815	0	0	0	0
1.172306	0.07784239	-0.02498815	0	0	0	0
1.188872	0.07784239	-0.02498815	0	0	0	0
1.205696	0.07781623	-0.02500712	-0.00155485	-0.001127499	-0.0465656	-0.03376703
1.222005	0.07781623	-0.02500712	0	0	0.04692749	0.03402944
1.238571	0.07781623	-0.02500712	0	0	0	0
1.255201	0.07781623	-0.02500712	0	0	0	0
1.271706	0.07781623	-0.02500712	0	0	0	0
1.288273	0.07781623	-0.02500712	0	0	0	0
1.304838	0.07781623	-0.02504506	0	-0.002290356	0	-0.06912832
1.321405	0.07781623	-0.02504506	0	0	0	0.06912757
1.338292	0.07781623	-0.02504506	0	0	0	0
1.354539	0.07781623	-0.02504506	0	0	0	0
1.371306	0.07781623	-0.02504506	0	0	0	0
1.387672	0.07781623	-0.02504506	0	0	0	0
1.404514	0.07781623	-0.02504506	0	0	0	0
1.420806	0.07781623	-0.02504506	0	0	0	0
1.437372	0.07781623	-0.02504506	0	0	0	0
1.453938	0.07781623	-0.02504506	0	0	0	0
1.47056	0.07781623	-0.02504506	0	0	0	0
1.487072	0.07781623	-0.02504506	0	0	0	0
1.503638	0.07781623	-0.02504506	0	0	0	0
1.520205	0.07781623	-0.02504506	0	0	0	0
1.536772	0.07781623	-0.02504506	0	0	0	0
1.553607	0.07781623	-0.02504506	0	0	0	0
1.569906	0.07781623	-0.02504506	0	0	0	0
1.586472	0.07781623	-0.02504506	0	0	0	0
1.603038	0.07781623	-0.02504506	0	0	0	0
1.619673	0.07781623	-0.02504506	0	0	0	0
1.636681	0.07781623	-0.02504506	0	0	0	0
1.65567	0.07781623	-0.02504506	0	0	0	0
1.672238	0.07781623	-0.02504506	0	0	0	0
1.688805	0.07781623	-0.02504506	0	0	0	0
1.705371	0.07781623	-0.02504506	0	0	0	0
1.721939	0.07781623	-0.02504506	0	0	0	0
1.738752	0.07781623	-0.02504506	0	0	0	0
1.755071	0.07784239	-0.02506403	0.001602997	-0.001162413	0.04838238	-0.03508446
1.771639	0.07784239	-0.02506403	0	0	-0.04874296	0.03534593
1.788205	0.07784239	-0.02506403	0	0	0	0
1.804795	0.07784239	-0.02506403	0	0	0	0
1.821338	0.07784239	-0.02506403	0	0	0	0
1.837904	0.07784239	-0.02506403	0	0	0	0
1.854471	0.07784239	-0.02506403	0	0	0	0
1.871038	0.07784239	-0.02506403	0	0	0	0
1.887605	0.07784239	-0.02506403	0	0	0	0
1.904389	0.07784239	-0.02506403	0	0	0	0
1.920738	0.07784239	-0.02506403	0	0	0	0
1.937305	0.07784239	-0.02506403	0	0	0	0
1.953871	0.07784239	-0.02506403	0	0	0	0
1.970439	0.07784239	-0.02506403	0	0	0	0
1.987298	0.07784239	-0.02506403	0	0	0	0
2.003785	0.07784239	-0.02506403	0	0	0	0
2.020138	0.07784239	-0.02506403	0	0	0	0
2.036706	0.07784239	-0.02506403	0	0	0	0
2.053271	0.07784239	-0.02506403	0	0	0	0
2.069838	0.07784239	-0.02506403	0	0	0	0
2.086867	0.07784239	-0.02506403	0	0	0	0
2.102971	0.07784239	-0.02506403	0	0	0	0
2.119538	0.07784239	-0.02506403	0	0	0	0
2.136105	0.07784239	-0.02506403	0	0	0	0
2.152671	0.07784239	-0.02506403	0	0	0	0
2.169917	0.07784239	-0.02506403	0	0	0	0
2.185925	0.07784239	-0.02506403	0	0	0	0
2.207014	0.07784239	-0.02506403	0	0	0	0
2.218938	0.07784239	-0.02506403	0	0	0	0
2.235505	0.07784239	-0.02506403	0	0	0	0
2.252072	0.07784239	-0.02506403	0	0	0	0
2.268638	0.07784239	-0.02506403	0	0	0	0
2.285487	0.07784239	-0.02506403	0	0	0	0
2.302018	0.07784239	-0.02506403	0	0	0	0
2.318338	0.07784239	-0.02506403	0	0	0	0
2.334904	0.07784239	-0.02506403	0	0	0	0
2.351519	0.07784239	-0.02506403	0	0	0	0
2.368039	0.07784239	-0.02506403	0	0	0	0
2.384605	0.07784239	-0.02506403	0	0	0	0
2.401172	0.07784239	-0.02506403	0	0	0	0
2.417739	0.07784239	-0.02506403	0	0	0	0
2.434305	0.07784239	-0.02506403	0	0	0	0
2.450872	0.07784239	-0.02506403	0	0	0	0
2.467438	0.07784239	-0.02506403	0	0	0	0
2.4874	0.07784239	-0.02506403	0	0	0	0
2.503967	0.07784239	-0.02506403	0	0	0	0
2.52089	0.07784239	-0.02506403	0	0	0	0
2.537398	0.07784239	-0.02506403	0	0	0	0
2.553668	0.07784239	-0.02506403	0	0	0	0
2.570234	0.07784239	-0.02506403	0	0	0	0
2.5868	0.07784239	-0.02506403	0	0	0	0
2.603367	0.07784239	-0.02506403	0	0	0	0
2.619934	0.07784239	-0.02506403	0	0	0	0
2.6365	0.07784239	-0.02506403	0	0	0	0
2.653068	0.07784239	-0.02506403	0	0	0	0
2.669635	0.07784239	-0.02506403	0	0	0	0
2.6862	0.07784239	-0.02506403	0	0	0	0
2.702768	0.07784239	-0.02506403	0	0	0	0
2.719543	0.07784239	-0.02506403	0	0	0	0
2.735901	0.07784239	-0.02506403	0	0	0	0
2.753947	0.07784239	-0.02506403	0	0	0	0
2.769035	0.07784239	-0.02506403	0	0	0	0
2.785698	0.07781623	-0.02504506	-0.00156981	0.001138347	-0.04944067	0.03585188
2.802168	0.07781623	-0.02504506	0	0	0.04737902	-0.03435687
2.818735	0.07781623	-0.02504506	0	0	0	0
2.835301	0.07768545	-0.0248364	-0.007894916	0.01259582	-0.2382776	0.3801562
2.851869	0.07768545	-0.0248364	0	0	0.238269	-0.3801426
2.868435	0.07768545	-0.0248364	0	0	0	0
2.885001	0.05885301	-0.009867684	-1.136794	0.9035653	-34.31121	27.27181
2.90178	0.05885301	-0.009867684	0	0	34.09189	-27.09749
2.918287	0.05885301	-0.009867684	0	0	0	0
2.934701	0.00639465	0.043742	-3.195873	3.266014	-97.07683	99.2074
2.951268	0.00639465	0.043742	0	0	96.89788	-99.02453
2.96784	0.00639465	0.043742	0	0	0	0
2.984401	-0.008710306	0.1065413	-0.9121176	3.792157	-27.52975	114.4558
3.000968	-0.008710306	0.1065413	0	0	27.53331	-114.4706
3.017535	-0.008710306	0.1065413	0	0	0	0
3.034101	0.02133887	0.1382004	1.813902	1.911083	54.74643	57.6795
3.050669	0.02133887	0.1382004	0	0	-54.74446	-57.67743
3.067235	0.02133887	0.1382004	0	0	0	0
3.083915	0.04265832	0.1551932	1.278181	1.018781	38.44639	30.64389
3.100423	0.04265832	0.1551932	0	0	-38.51295	-30.69694
3.11742	0.04265832	0.1551932	0	0	0	0
3.133501	0.04489087	0.1570257	0.1388331	0.11396	4.197149	3.445195
3.150068	0.04489087	0.1570257	0	0	-4.252474	-3.490608
3.166634	0.04489087	0.1570257	0	0	0	0
3.183201	0.04489087	0.1570257	0	0	0	0
3.199768	0.04489087	0.1570257	0	0	0	0
3.216522	0.04489087	0.1570257	0	0	0	0
3.232901	0.04489087	0.1570257	0	0	0	0
3.249542	0.04489087	0.1570257	0	0	0	0
3.266034	0.04489087	0.1570257	0	0	0	0
3.28261	0.04491714	0.1570076	0.00158448	-0.001094078	0.04791556	-0.03308553
3.303995	0.04491714	0.1570076	0	0	-0.04174021	0.02882147
3.315734	0.04491714	0.1570076	0	0	0	0
3.332304	0.04491714	0.1570076	0	0	0	0
3.348868	0.04491714	0.1570076	0	0	0	0
3.365435	0.04491714	0.1570076	0	0	0	0
3.382001	0.04491714	0.1569713	0	-0.002190284	0	-0.06610528
3.398568	0.04491714	0.1569713	0	0	0	0.06610481
3.415149	0.04491714	0.1569713	0	0	0	0
3.431701	0.04491714	0.1569713	0	0	0	0
3.448268	0.04491714	0.1569713	0	0	0	0
3.464834	0.04491714	0.1569713	0	0	0	0
3.481401	0.04491714	0.1569713	0	0	0	0
3.497968	0.04491714	0.1569713	0	0	0	0
3.514734	0.04491714	0.1569713	0	0	0	0
3.531248	0.04481208	0.1570439	-0.006361346	0.004394291	-0.1911468	0.1320404
3.54767	0.04481208	0.1570439	0	0	0.1931393	-0.1334168
3.564272	0.04481208	0.1570439	0	0	0	0
3.583147	0.03204166	0.1666149	-0.6765828	0.5070792	-19.0712	14.29331
3.599715	0.03204166	0.1666149	0	0	19.08941	-14.30696
3.616802	0.03204166	0.1666149	0	0	0	0
3.632848	0.01034174	0.203085	-1.352353	2.272839	-40.81616	68.59789
3.649415	0.01034174	0.203085	0	0	41.46634	-69.69061
3.665982	0.01034174	0.203085	0	0	0	0
3.682804	0.0128414	0.221748	0.1485898	1.1094	4.450218	33.22617
3.699861	0.0128414	0.221748	0	0	-4.385861	-32.74567
3.715682	0.0128414	0.221748	0	0	0	0
3.732249	0.0171036	0.2246239	0.2572815	0.1736011	7.943793	5.360089
3.748872	0.0171036	0.2246239	0	0	-7.751829	-5.230561
3.765394	0.0171036	0.2246239	0	0	0	0
3.781947	0.01715621	0.224588	0.003178515	-0.00217122	0.09609927	-0.0656447
3.798515	0.01715621	0.224588	0	0	-0.09596714	0.06555445
3.815083	0.01715621	0.224588	0	0	0	0
3.831925	0.01715621	0.224588	0	0	0	0
3.848398	0.01715621	0.224588	0	0	0	0
3.864901	0.01715621	0.224588	0	0	0	0
3.881397	0.01715621	0.224588	0	0	0	0
3.897945	0.01715621	0.224588	0	0	0	0
3.914482	0.01715621	0.224588	0	0	0	0
3.931049	0.01715621	0.224588	0	0	0	0
3.947617	0.01715621	0.224588	0	0	0	0
3.964183	0.01715621	0.224588	0	0	0	0
3.980747	0.01723514	0.2245341	0.004764822	-0.003254815	0.1438192	-0.09824181
3.997495	0.01723514	0.2245341	0	0	-0.1430369	0.09770744
4.013882	0.01723514	0.2245341	0	0	0	0
4.030447	0.01739298	0.2244262	0.009528821	-0.006509967	0.2891701	-0.1975572
4.047017	0.01739298	0.2244262	0	0	-0.2875763	0.1964684
4.063582	0.01739298	0.2244262	0	0	0	0
4.080147	0.01757714	0.2243004	0.01111717	-0.00759413	0.3355602	-0.229221
4.096717	0.01757714	0.2243004	0	0	-0.3355167	0.2291913
4.113284	0.01757714	0.2243004	0	0	0	0
4.13325	0.01760344	0.2242825	0.001317538	-0.0009000645	0.03606446	-0.02463711
4.149818	0.01760344	0.2242825	0	0	-0.03606258	0.02463582
4.166384	0.01760344	0.2242825	0	0	0	0
4.18295	0.01760344	0.2242825	0	0	0	0
4.199567	0.01760344	0.2242825	0	0	0	0
4.216112	0.01760344	0.2242825	0	0	0	0
4.23265	0.01762975	0.2242645	0.001590747	-0.001086627	0.04808357	-0.03284553
4.249218	0.01762975	0.2242645	0	0	-0.04805102	0.0328233
4.265784	0.01762975	0.2242645	0	0	0	0
4.282351	0.01776129	0.2241387	0.007939658	-0.007593937	0.2396263	-0.2291921
4.298919	0.01776129	0.2241387	0	0	-0.2396159	0.2291822
4.315649	0.01776129	0.2241387	0	0	0	0
4.332051	0.01794544	0.2239769	0.01122759	-0.009861871	0.3388736	-0.2976533
4.348618	0.01794544	0.2239769	0	0	-0.3405548	0.2991299
4.365211	0.01794544	0.2239769	0	0	0	0
4.381751	0.01841897	0.2236174	0.02862913	-0.02173365	0.8640662	-0.6559511
4.398318	0.01841897	0.2236174	0	0	-0.8647382	0.6564612
4.415239	0.01841897	0.2236174	0	0	0	0
4.432242	0.0185242	0.2235456	0.006188502	-0.004228421	0.1824194	-0.1246418
4.448018	0.0185242	0.2235456	0	0	-0.1887935	0.128997
4.464776	0.0185242	0.2235456	0	0	0	0
4.481273	0.01857681	0.2235096	0.003189381	-0.00217872	0.09590791	-0.06551631
4.497718	0.01857681	0.2235096	0	0	-0.09681722	0.06613748
4.514286	0.01857681	0.2235096	0	0	0	0
4.530851	0.01881357	0.2229165	0.01429245	-0.03580707	0.4313655	-1.080706
4.547419	0.01881357	0.2229165	0	0	-0.4313655	1.080706
4.564329	0.01881357	0.2229165	0	0	0	0
4.580551	0.03721965	0.1818659	1.134637	-2.530546	34.24636	-76.37864
4.597121	0.03721965	0.1818659	0	0	-34.60093	77.16941
4.614379	0.03721965	0.1818659	0	0	0	0
4.630251	0.06336243	0.08837219	1.647101	-5.890482	49.71532	-177.7956
4.64682	0.06336243	0.08837219	0	0	-50.77347	181.5798
4.666888	0.06336243	0.08837219	0	0	0	0
4.681272	0.06197317	0.00908958	-0.09658545	-5.51194	-2.803443	-159.987
4.69784	0.06197317	0.00908958	0	0	3.120542	178.0831
4.714407	0.06197317	0.00908958	0	0	0	0
4.730973	0.04008378	-0.005283157	-1.32136	-0.867615	-39.88045	-26.1858
4.74754	0.04008378	-0.005283157	0	0	39.87988	26.18543
4.764107	0.04008378	-0.005283157	0	0	0	0
4.780673	0.01236779	-0.02639221	-1.673133	-1.274292	-50.49889	-38.46097
4.797241	0.01236779	-0.02639221	0	0	50.49598	38.45876
4.813808	0.01236779	-0.02639221	0	0	0	0
4.830373	-0.01797175	-0.04854397	-1.831509	-1.337236	-55.27903	-40.36078
4.846941	-0.01797175	-0.04854397	0	0	55.27744	40.35962
4.863509	-0.01797175	-0.04854397	0	0	0	0
4.880159	-0.04108214	-0.06535874	-1.387995	-1.009884	-41.78453	-30.40179
4.896642	-0.04108214	-0.06535874	0	0	41.89157	30.47967
4.913208	-0.04108214	-0.06535874	0	0	0	0
4.929773	-0.04454945	-0.06785966	-0.2093239	-0.1509824	-6.318043	-4.557118
4.946343	-0.04454945	-0.06785966	0	0	6.317407	4.556659
4.963265	-0.04454945	-0.06785966	0	0	0	0
4.979473	-0.04457572	-0.06784042	-0.001620374	0.001187355	-0.04890931	0.03583908
4.996041	-0.04457572	-0.06784042	0	0	0.049438	-0.03622648
5.012608	-0.04457572	-0.06784042	0	0	0	0
5.02929	-0.04452319	-0.06784042	0.003148804	0	0.09470265	0
5.045817	-0.04452319	-0.06784042	0	0	-0.09481551	0
5.062312	-0.04452319	-0.06784042	0	0	0	0
5.078872	-0.04452319	-0.06784042	0	0	0	0
5.095442	-0.04452319	-0.06784042	0	0	0	0
5.112007	-0.04452319	-0.06784042	0	0	0	0
5.128868	-0.04452319	-0.06784042	0	0	0	0
5.14514	-0.04452319	-0.06784042	0	0	0	0
5.162395	-0.04452319	-0.06784042	0	0	0	0
5.178961	-0.04452319	-0.06784042	0	0	0	0
5.195531	-0.04452319	-0.06784042	0	0	0	0
5.212097	-0.04452319	-0.06784042	0	0	0	0
5.232698	-0.04449692	-0.06785966	0.001274868	-0.0009341799	0.03430145	-0.02513493
5.249266	-0.04449692	-0.06785966	0	0	-0.03429969	0.02513365
5.266099	-0.04449692	-0.06785966	0	0	0	0
5.282667	-0.04449692	-0.06785966	0	0	0	0
5.299234	-0.04449692	-0.06785966	0	0	0	0
5.315991	-0.04426055	-0.06768645	0.01410554	0.01033634	0.4232816	0.3101748
5.332368	-0.04426055	-0.06768645	0	0	-0.4257121	-0.3119559
5.348933	-0.04426055	-0.06768645	0	0	0	0
5.365499	-0.04181771	-0.06666664	0.1474584	0.06155958	4.450688	1.858032
5.382067	-0.04181771	-0.06666664	0	0	-4.450431	-1.857925
5.398634	-0.04181771	-0.06666664	0	0	0	0
5.4152	0.001763156	-0.07365885	2.630774	-0.4220873	79.40034	-12.73917
5.431768	0.001763156	-0.07365885	0	0	-79.39806	12.7388
5.448334	0.001763156	-0.07365885	0	0	0	0
5.4649	0.05510206	-0.09233387	3.219635	-1.127259	97.17437	-34.02269
5.481466	0.05510206	-0.09233387	0	0	-97.17437	34.02269
5.498033	0.05510206	-0.09233387	0	0	0	0
5.514598	0.07169271	-0.09861378	1.0015	-0.3790892	30.2275	-11.44176
5.531166	0.07169271	-0.09861378	0	0	-30.2262	11.44126
5.547732	0.07169271	-0.09861378	0	0	0	0
5.565318	0.07166652	-0.09863325	-0.001488822	-0.001107083	-0.04359455	-0.03241678
5.581885	0.07166652	-0.09863325	0	0	0.04359272	0.03241542
5.598453	0.07166652	-0.09863325	0	0	0	0
5.615018	0.07161416	-0.09867218	-0.003160891	-0.002349979	-0.09539999	-0.07092558
5.632091	0.07161416	-0.09867218	0	0	0.09396785	0.06986085
5.648152	0.07161416	-0.09867218	0	0	0	0
5.665403	0.07153562	-0.09861378	-0.004552883	0.003385078	-0.1366707	0.101615
5.681971	0.07153562	-0.09861378	0	0	0.1346242	-0.1000934
5.698538	0.07153562	-0.09861378	0	0	0	0
5.715151	0.07153562	-0.09861378	0	0	0	0
5.731671	0.07153562	-0.09861378	0	0	0	0
5.748238	0.07153562	-0.09861378	0	0	0	0
5.769565	0.07150944	-0.09863325	-0.001227641	-0.0009128703	-0.03239732	-0.02409055
5.786132	0.07150944	-0.09863325	0	0	0.0323965	0.02408994
5.802699	0.07143089	-0.09869165	-0.004741199	-0.003525092	-0.1430917	-0.106389
5.819465	0.07143089	-0.09869165	0	0	0.1422382	0.1057544
5.835967	0.07143089	-0.09869165	0	0	0	0
5.852464	0.07135235	-0.09875005	-0.00476107	-0.003539866	-0.1442811	-0.1072733
5.868975	0.07135235	-0.09875005	0	0	0.1442374	0.1072408
5.885532	0.07135235	-0.09875005	0	0	0	0
5.902098	0.0712738	-0.09884738	-0.004741336	-0.005875622	-0.1431432	-0.1773879
5.918666	0.0712738	-0.09884738	0	0	0.1430979	0.1773317
5.935232	0.0712738	-0.09884738	0	0	0	0
5.951798	0.07111671	-0.09900313	-0.009482848	-0.009401445	-0.2862094	-0.2837525
5.968365	0.07111671	-0.09900313	0	0	0.2862094	0.2837525
5.985072	0.07111671	-0.09900313	0	0	0	0
6.001498	0.07098579	-0.09910047	-0.007970347	-0.005926052	-0.2405559	-0.1788563
6.018081	0.07098579	-0.09910047	0	0	0.2414559	0.1795255
6.034632	0.07098579	-0.09910047	0	0	0	0
6.051198	0.07090724	-0.09915888	-0.004741199	-0.003525542	-0.1431638	-0.1064562
6.067765	0.07090724	-0.09915888	0	0	0.1430959	0.1064057
6.084332	0.07090724	-0.09915888	0	0	0	0
6.100976	0.0708025	-0.09923676	-0.006293154	-0.004679353	-0.1894915	-0.1408987
6.117468	0.0708025	-0.09923676	0	0	0.1899223	0.1412191
6.134033	0.0708025	-0.09923676	0	0	0	0
6.150599	0.07077632	-0.09925623	-0.001580445	-0.001175664	-0.04770274	-0.03548519
6.167165	0.07077632	-0.09925623	0	0	0.04770137	0.03548417
6.183732	0.07077632	-0.09925623	0	0	0	0
6.200298	0.07077632	-0.09925623	0	0	0	0
6.216866	0.07077632	-0.09925623	0	0	0	0
6.233433	0.07077632	-0.09925623	0	0	0	0
6.250081	0.07077632	-0.09925623	0	0	0	0
6.266589	0.07077632	-0.09925623	0	0	0	0
6.283133	0.07077632	-0.09925623	0	0	0	0
6.299699	0.07075013	-0.0992757	-0.001580804	-0.001175147	-0.0477438	-0.03549205
6.316266	0.07075013	-0.0992757	0	0	0.04771013	0.03546702
6.333076	0.07075013	-0.0992757	0	0	0	0
6.349592	0.07075013	-0.0992757	0	0	0	0
6.366107	0.07075013	-0.0992757	0	0	0	0
6.382599	0.07075013	-0.0992757	0	0	0	0
6.399136	0.07075013	-0.0992757	0	0	0	0
6.415667	0.07075013	-0.0992757	0	0	0	0
6.432652	0.07075013	-0.0992757	0	0	0	0
6.448799	0.07072395	-0.09929517	-0.001621375	-0.00120565	-0.04893602	-0.03638868
6.465366	0.07072395	-0.09929517	0	0	0.04956084	0.03685329
6.481933	0.07072395	-0.09929517	0	0	0	0
6.4985	0.07069777	-0.09931464	-0.001580354	-0.001175147	-0.04769656	-0.03546702
6.515196	0.07069777	-0.09931464	0	0	0.04751126	0.03532923
6.531633	0.07069777	-0.09931464	0	0	0	0
6.54822	0.07067158	-0.09933411	-0.001578895	-0.001174177	-0.04781009	-0.03555493
6.564773	0.07067158	-0.09933411	0	0	0.04764361	0.03543112
6.581333	0.07067158	-0.09933411	0	0	0	0
6.599866	0.07067158	-0.09933411	0	0	0	0
6.616434	0.07067158	-0.09933411	0	0	0	0
6.633001	0.07067158	-0.09933411	0	0	0	0
6.649567	0.07067158	-0.09933411	0	0	0	0
6.666134	0.07067158	-0.09933411	0	0	0	0
6.682701	0.07067158	-0.09933411	0	0	0	0
6.699267	0.0706454	-0.09935358	-0.001580445	-0.001175214	-0.04770068	-0.03547008
6.715835	0.0706454	-0.09935358	0	0	0.04769931	0.03546906
6.732401	0.0706454	-0.09935358	0	0	0	0
6.748967	0.0706454	-0.09935358	0	0	0	0
6.765534	0.0706454	-0.09935358	0	0	0	0
6.782101	0.0706454	-0.09935358	0	0	0	0
6.798666	0.07061921	-0.09937306	-0.001580941	-0.001175698	-0.04771632	-0.03548519
6.815404	0.07061921	-0.09937306	0	0	0.04747172	0.03530329
6.831917	0.07061921	-0.09937306	0	0	0	0
6.848368	0.07061921	-0.09937306	0	0	0	0
6.864936	0.07061921	-0.09937306	0	0	0	0
6.882134	0.07061921	-0.09937306	0	0	0	0
6.898068	0.07061921	-0.09937306	0	0	0	0
6.91467	0.07061921	-0.09937306	0	0	0	0
6.931208	0.07061921	-0.09937306	0	0	0	0
6.95397	0.07059303	-0.09939253	-0.001150182	-0.0008552721	-0.02926604	-0.02176214
6.970538	0.07059303	-0.09939253	0	0	0.02924404	0.02174578
6.987228	0.07059303	-0.09939253	0	0	0	0
7.003672	0.07059303	-0.09939253	0	0	0	0
7.020258	0.07059303	-0.09939253	0	0	0	0
7.036805	0.07059303	-0.09939253	0	0	0	0
7.053372	0.07059303	-0.09939253	0	0	0	0
7.069939	0.07059303	-0.09939253	0	0	0	0
7.086505	0.07059303	-0.09939253	0	0	0	0
7.103072	0.07059303	-0.09939253	0	0	0	0
7.119813	0.07059303	-0.09939253	0	0	0	0
7.137695	0.07056684	-0.09941199	-0.001464544	-0.001088721	-0.04229957	-0.03144489
7.154263	0.07056684	-0.09941199	0	0	0.04251269	0.03160332
7.17083	0.07056684	-0.09941199	0	0	0	0
7.187397	0.07059303	-0.09943147	0.00158085	-0.00117563	0.04771082	-0.03548111
7.203964	0.07059303	-0.09943147	0	0	-0.04771151	0.03548162
7.220891	0.07059303	-0.09943147	0	0	0	0
7.237096	0.07054066	-0.09947041	-0.003231665	-0.002403174	-0.09753885	-0.07253316
7.253664	0.07054066	-0.09947041	0	0	0.09860748	0.07332783
7.27023	0.07054066	-0.09947041	0	0	0	0
7.286797	0.07043592	-0.0995483	-0.006322317	-0.004701487	-0.1908134	-0.1418952
7.303364	0.07043592	-0.0995483	0	0	0.1908107	0.1418932
7.319931	0.07043592	-0.0995483	0	0	0	0
7.336496	0.07035736	-0.09960672	-0.004742372	-0.003526644	-0.1431374	-0.1064435
7.353063	0.07035736	-0.09960672	0	0	0.1431333	0.1064405
7.369631	0.07035736	-0.09960672	0	0	0	0
7.386504	0.0700955	-0.09980146	-0.01551946	-0.01154135	-0.4640906	-0.3451299
7.404785	0.0700955	-0.09980146	0	0	0.4414665	0.3283051
7.419331	0.0700955	-0.09980146	0	0	0	0
7.435896	0.06807884	-0.1013014	-0.1217401	-0.09054809	-3.913117	-2.910507
7.452463	0.06807884	-0.1013014	0	0	3.674387	2.732944
7.469304	0.06807884	-0.1013014	0	0	0	0
7.485596	0.06792168	-0.1014183	-0.009646835	-0.007176817	-0.2911546	-0.2166061
7.502163	0.06792168	-0.1014183	0	0	0.2935841	0.2184135
7.51873	0.06792168	-0.1014183	0	0	0	0
7.535295	0.06792168	-0.1014183	0	0	0	0
7.551863	0.06792168	-0.1014183	0	0	0	0
7.568871	0.06792168	-0.1014183	0	0	0	0
7.584996	0.06792168	-0.1014183	0	0	0	0
7.601563	0.06792168	-0.1014183	0	0	0	0
7.61813	0.06792168	-0.1014183	0	0	0	0
7.634696	0.06792168	-0.1014183	0	0	0	0
7.651263	0.06792168	-0.1014183	0	0	0	0
7.66783	0.06792168	-0.1014183	0	0	0	0
7.688338	0.06792168	-0.1014183	0	0	0	0
7.704906	0.06792168	-0.1014183	0	0	0	0
7.721473	0.06792168	-0.1014183	0	0	0	0
7.73804	0.06792168	-0.1014183	0	0	0	0
7.754607	0.06792168	-0.1014183	0	0	0	0
7.771173	0.06792168	-0.1014183	0	0	0	0
7.78774	0.06792168	-0.1014183	0	0	0	0
7.804307	0.06792168	-0.1014183	0	0	0	0
7.820873	0.06792168	-0.1014183	0	0	0	0
7.83744	0.06792168	-0.1014183	0	0	0	0
7.854007	0.06792168	-0.1014183	0	0	0	0
7.870573	0.06792168	-0.1014183	0	0	0	0
7.88714	0.06792168	-0.1014183	0	0	0	0
7.903707	0.06792168	-0.1014183	0	0	0	0
7.920273	0.06792168	-0.1014183	0	0	0	0
7.93684	0.06792168	-0.1014183	0	0	0	0
7.953408	0.06792168	-0.1014183	0	0	0	0
7.969973	0.06792168	-0.1014183	0	0	0	0
7.98654	0.06792168	-0.1014183	0	0	0	0
8.003217	0.06792168	-0.1014183	0	0	0	0
8.019745	0.06792168	-0.1014183	0	0	0	0
8.036245	0.06792168	-0.1014183	0	0	0	0
8.052808	0.06792168	-0.1014183	0	0	0	0
8.069373	0.06792168	-0.1014183	0	0	0	0
8.085939	0.06792168	-0.1014183	0	0	0	0
8.102507	0.06792168	-0.1014183	0	0	0	0
8.119298	0.06792168	-0.1014183	0	0	0	0
8.135807	0.06792168	-0.1014183	0	0	0	0
8.152824	0.06792168	-0.1014183	0	0	0	0
8.168773	0.06789548	-0.1014378	-0.001642573	-0.001221652	-0.04982679	-0.03705832
8.238519	0.06789548	-0.1014378	0	0	0.01916782	0.01425593
8.255086	0.06789548	-0.1014378	0	0	0	0
8.271653	0.06792168	-0.1014183	0.001581208	0.001176012	0.04772096	0.03549213
8.28822	0.06792168	-0.1014183	0	0	-0.04772096	-0.03549213
8.304787	0.06792168	-0.1014183	0	0	0	0
8.321353	0.06789548	-0.1014378	-0.001581299	-0.00117608	-0.04772645	-0.03549621
8.33792	0.06789548	-0.1014378	0	0	0.04772508	0.03549519
8.354495	0.06789548	-0.1014378	0	0	0	0
8.371052	0.06789548	-0.1014378	0	0	0	0
8.387619	0.06789548	-0.1014378	0	0	0	0
8.404186	0.06789548	-0.1014378	0	0	0	0
8.420753	0.06792168	-0.1014183	0.001581299	0.00117608	0.04772508	0.03549519
8.437319	0.06792168	-0.1014183	0	0	-0.04772645	-0.03549621
8.454027	0.06792168	-0.1014183	0	0	0	0
8.470451	0.06792168	-0.1014183	0	0	0	0
8.487019	0.06792168	-0.1014183	0	0	0	0
8.503585	0.06792168	-0.1014183	0	0	0	0
8.522353	0.06792168	-0.1014183	0	0	0	0
8.536717	0.06792168	-0.1014183	0	0	0	0
8.553285	0.06792168	-0.1014183	0	0	0	0
8.570108	0.06789548	-0.1014378	-0.001557097	-0.00115808	-0.04663224	-0.0346824
8.586418	0.06789548	-0.1014378	0	0	0.04699463	0.03495193
8.602984	0.06789548	-0.1014378	0	0	0	0
8.619551	0.06789548	-0.1014378	0	0	0	0
8.636118	0.06789548	-0.1014378	0	0	0	0
8.652684	0.06789548	-0.1014378	0	0	0	0
8.66925	0.06792168	-0.1014183	0.001581299	0.00117608	0.04772645	0.03549621
8.685818	0.06792168	-0.1014183	0	0	-0.04772508	-0.03549519
8.702384	0.06792168	-0.1014183	0	0	0	0
8.71895	0.06792168	-0.1014183	0	0	0	0
8.735714	0.06792168	-0.1014183	0	0	0	0
8.752084	0.06792168	-0.1014183	0	0	0	0
8.768761	0.06789548	-0.1014378	-0.00157081	-0.001168279	-0.047533	-0.03535233
8.785216	0.06789548	-0.1014378	0	0	0.04740986	0.03526075
8.801783	0.06789548	-0.1014378	0	0	0	0
8.818349	0.06789548	-0.1014378	0	0	0	0
8.834916	0.06789548	-0.1014378	0	0	0	0
8.851483	0.06789548	-0.1014378	0	0	0	0
8.868051	0.06789548	-0.1014378	0	0	0	0
8.884616	0.06789548	-0.1014378	0	0	0	0
8.901339	0.06789548	-0.1014378	0	0	0	0
8.917749	0.06789548	-0.1014378	0	0	0	0
8.934317	0.06789548	-0.1014378	0	0	0	0
8.950883	0.06789548	-0.1014378	0	0	0	0
8.967449	0.06789548	-0.1014378	0	0	0	0
8.984016	0.06789548	-0.1014378	0	0	0	0
9.0009	0.06789548	-0.1014378	0	0	0	0
9.017149	0.06789548	-0.1014378	0	0	0	0
9.033716	0.06789548	-0.1014378	0	0	0	0
9.050282	0.06789548	-0.1014378	0	0	0	0
9.066957	0.06789548	-0.1014378	0	0	0	0
9.083414	0.06789548	-0.1014378	0	0	0	0
9.099982	0.06789548	-0.1014378	0	0	0	0
9.116548	0.06789548	-0.1014378	0	0	0	0
9.133115	0.06789548	-0.1014378	0	0	0	0
9.149682	0.06789548	-0.1014378	0	0	0	0
9.166248	0.06789548	-0.1014378	0	0	0	0
9.182815	0.06789548	-0.1014378	0	0	0	0
9.199382	0.06789548	-0.1014378	0	0	0	0
9.216055	0.06792168	-0.1014183	0.001571169	0.001168546	0.04726697	0.03515447
9.232513	0.06792168	-0.1014183	0	0	-0.04742207	-0.03526983
9.249081	0.06792168	-0.1014183	0	0	0	0
9.265647	0.06789548	-0.1014378	-0.001581299	-0.00117608	-0.04772508	-0.03549519
9.282214	0.06789548	-0.1014378	0	0	0.04772508	0.03549519
9.298779	0.06789548	-0.1014378	0	0	0	0
9.315346	0.06789548	-0.1014378	0	0	0	0
9.331913	0.06789548	-0.1014378	0	0	0	0
9.348479	0.06789548	-0.1014378	0	0	0	0
9.365046	0.06789548	-0.1014378	0	0	0	0
9.381612	0.06789548	-0.1014378	0	0	0	0
9.398449	0.06789548	-0.1014378	0	0	0	0
9.414744	0.06789548	-0.1014378	0	0	0	0
9.431467	0.06789548	-0.1014378	0	0	0	0
9.447878	0.06789548	-0.1014378	0	0	0	0
9.464444	0.06789548	-0.1014378	0	0	0	0
9.48101	0.06789548	-0.1014378	0	0	0	0
9.497577	0.06789548	-0.1014378	0	0	0	0
9.514143	0.06789548	-0.1014378	0	0	0	0
9.53071	0.06789548	-0.1014378	0	0	0	0
9.547276	0.06789548	-0.1014378	0	0	0	0
9.564091	0.06789548	-0.1014378	0	0	0	0
9.581095	0.06789548	-0.1014378	0	0	0	0
9.596976	0.06789548	-0.1014378	0	0	0	0
9.613543	0.06789548	-0.1014378	0	0	0	0
9.63011	0.06789548	-0.1014378	0	0	0	0
9.646677	0.06789548	-0.1014378	0	0	0	0
9.663243	0.06789548	-0.1014378	0	0	0	0
9.679811	0.06789548	-0.1014378	0	0	0	0
9.696377	0.06789548	-0.1014378	0	0	0	0
9.712944	0.06789548	-0.1014378	0	0	0	0
9.72951	0.06789548	-0.1014378	0	0	0	0
9.746078	0.06789548	-0.1014378	0	0	0	0
9.762744	0.06789548	-0.1014378	0	0	0	0
9.779211	0.06789548	-0.1014378	0	0	0	0
9.795782	0.06789548	-0.1014378	0	0	0	0
9.812345	0.06789548	-0.1014378	0	0	0	0
9.828912	0.06789548	-0.1014378	0	0	0	0
9.845479	0.06789548	-0.1014378	0	0	0	0
9.862305	0.06789548	-0.1014378	0	0	0	0
9.87885	0.06789548	-0.1014378	0	0	0	0
9.896292	0.06789548	-0.1014378	0	0	0	0
9.911744	0.06789548	-0.1014378	0	0	0	0
9.928313	0.06789548	-0.1014378	0	0	0	0
9.94488	0.06789548	-0.1014378	0	0	0	0
9.961444	0.06789548	-0.1014378	0	0	0	0
9.978012	0.06789548	-0.1014378	0	0	0	0
9.994904	0.06789548	-0.1014378	0	0	0	0
10.01114	0.06792168	-0.1014183	0.001613057	0.0011997	0.04868636	0.03621014
10.02771	0.06792168	-0.1014183	0	0	-0.04916469	-0.03656589
10.04428	0.06792168	-0.1014183	0	0	0	0
10.06097	0.06794787	-0.1011261	0.001569553	0.01751239	0.04719398	0.52657
10.07749	0.06794787	-0.1011261	0	0	-0.0472631	-0.5273412
10.094	0.06794787	-0.1011261	0	0	0	0
10.11054	0.06899557	-0.08252558	0.06333047	1.124345	1.915894	34.01405
10.12711	0.06899557	-0.08252558	0	0	-1.912583	-33.95527
10.14404	0.06899557	-0.08252558	0	0	0	0
10.16024	0.07485985	-0.002795481	0.361991	4.921591	10.92585	148.5468
10.17705	0.07485985	-0.002795481	0	0	-10.96911	-149.1349
10.19338	0.07485985	-0.002795481	0	0	0	0
10.20994	0.09035854	0.09469375	0.9355567	5.8848	28.43732	178.8753
10.22651	0.09035854	0.09469375	0	0	-28.23597	-177.6087
10.24309	0.09035854	0.09469375	0	0	0	0
10.25965	0.1146269	0.1662346	1.465937	4.321446	44.24334	130.4253
10.27621	0.1146269	0.1662346	0	0	-44.25991	-130.4741
10.29278	0.1146269	0.1662346	0	0	0	0
10.30964	0.1142113	0.2243543	-0.02465346	3.447977	-0.7375894	103.1576
10.32615	0.1142113	0.2243543	0	0	0.7388542	-103.3345
10.34265	0.1142113	0.2243543	0	0	0	0
10.35918	0.1018829	0.2426686	-0.7456931	1.107745	-22.57263	33.53217
10.37561	0.1018829	0.2426686	0	0	22.62161	-33.60493
10.39222	0.1018829	0.2426686	0	0	0	0
10.40875	0.103289	0.2414845	0.08507606	-0.07163735	2.567674	-2.162082
10.42531	0.103289	0.2414845	0	0	-2.570708	2.164636
10.44588	0.103289	0.2414845	0	0	0	0
10.45844	0.1031849	0.2415563	-0.008286775	0.005710275	-0.250117	0.1723513
10.47501	0.1031849	0.2415563	0	0	0.2844293	-0.1959953
10.49158	0.1031849	0.2415563	0	0	0	0
10.50814	0.1029766	0.2416998	-0.01257349	0.008663865	-0.3794905	0.261491
10.52471	0.1029766	0.2416998	0	0	0.3794905	-0.261491
10.54128	0.1029766	0.2416998	0	0	0	0
10.55809	0.1028203	0.2418075	-0.00929108	0.006401713	-0.2783305	0.1917745
10.57441	0.1028203	0.2418075	0	0	0.2804134	-0.1932096
10.59115	0.1028203	0.2418075	0	0	0	0
10.60754	0.1028464	0.2417895	0.001588036	-0.001094132	0.04792977	-0.03302286
10.62411	0.1028464	0.2417895	0	0	-0.04817522	0.03319196
10.64068	0.1028464	0.2417895	0	0	0	0
10.65724	0.1028464	0.2417895	0	0	0	0
10.67381	0.1028464	0.2417895	0	0	0	0
10.69071	0.1028464	0.2417895	0	0	0	0
10.70694	0.1028464	0.2417537	0	-0.002211284	0	-0.06674053
10.72372	0.1028464	0.2417537	0	0	0	0.06700476
10.74024	0.1028464	0.2417537	0	0	0	0
10.75664	0.1028464	0.2417537	0	0	0	0
10.77321	0.1028464	0.2417537	0	0	0	0
10.78977	0.1028464	0.2417537	0	0	0	0
10.80655	0.1028464	0.2417178	0	-0.002139486	0	-0.06417637
10.82311	0.1028464	0.2417178	0	0	0	0.06417454
10.83968	0.1028464	0.2417178	0	0	0	0
10.85633	0.1028203	0.2417357	-0.001563395	0.001077154	-0.04705874	0.03242273
10.87284	0.1028203	0.2417357	0	0	0.04715078	-0.03248614
10.88938	0.1028203	0.2417357	0	0	0	0
10.90939	0.1027943	0.2417178	-0.00130109	-0.0008966873	-0.03559611	-0.02453218
10.92595	0.1027943	0.2417178	0	0	0.03557291	0.02451619
10.94252	0.1027683	0.2416998	-0.001571855	-0.001082983	-0.04744003	-0.03268544
10.95909	0.1027683	0.2416998	0	0	0.04744003	0.03268544
10.97574	0.1027683	0.2416998	0	0	0	0
10.99226	0.1027162	0.2415922	-0.003152238	-0.006515528	-0.09502807	-0.1964185
11.00879	0.1027162	0.2415922	0	0	0.09537906	0.197144
11.02535	0.1027162	0.2415922	0	0	0	0
11.0421	0.1024818	0.2413231	-0.01399921	-0.0160754	-0.4203075	-0.4826421
11.05861	0.1024818	0.2413231	0	0	0.4209584	0.4833894
11.07564	0.1024818	0.2413231	0	0	0	0
11.09162	0.1023777	0.2412154	-0.006519432	-0.006737197	-0.1974958	-0.2040927
11.10863	0.1023777	0.2412154	0	0	0.1976328	0.2042343
11.12475	0.1023777	0.2412154	0	0	0	0
11.14132	0.1021954	0.2409463	-0.01100343	-0.01624565	-0.3366087	-0.4969745
11.15789	0.1021954	0.2409463	0	0	0.3321034	0.4903228
11.17469	0.1021954	0.2409463	0	0	0	0
11.19169	0.09171566	0.2205434	-0.6163081	-1.199885	-18.23133	-35.49442
11.20759	0.09171566	0.2205434	0	0	18.73339	36.47189
11.22423	0.09171566	0.2205434	0	0	0	0
11.24074	0.07410092	0.1228156	-1.066913	-5.919309	-32.18096	-178.5423
11.25729	0.07410092	0.1228156	0	0	32.27566	179.0677
11.27409	0.07410092	0.1228156	0	0	0	0
11.29042	0.0641225	0.03240213	-0.6109502	-5.535757	-18.43904	-167.0743
11.30698	0.0641225	0.03240213	0	0	18.57053	168.2657
11.32355	0.0641225	0.03240213	0	0	0	0
11.34012	0.06102938	0.02392557	-0.1867116	-0.5116755	-5.635292	-15.44329
11.35673	0.06102938	0.02392557	0	0	5.627193	15.42109
11.37325	0.06102938	0.02392557	0	0	0	0
11.38982	0.0577515	0.02065282	-0.1978648	-0.1975553	-5.98035	-5.970994
11.40638	0.0577515	0.02065282	0	0	5.971915	5.962573
11.42327	0.0577515	0.02065282	0	0	0	0
11.43952	0.0632576	0.01668404	0.3389036	-0.2442805	10.22843	-7.372612
11.45608	0.0632576	0.01668404	0	0	-10.32801	7.444393
11.47285	0.0632576	0.01668404	0	0	0	0
11.48934	0.08006532	0.004675191	1.01921	-0.7282093	30.64427	-21.89485
11.50586	0.08006532	0.004675191	0	0	-30.87801	22.06185
11.52239	0.08006532	0.004675191	0	0	0	0
11.53892	0.08678149	-0.0001590782	0.4064182	-0.292538	12.2951	-8.849957
11.55558	0.08678149	-0.0001590782	0	0	-12.24599	8.814609
11.57209	0.08678149	-0.0001590782	0	0	0	0
11.58862	0.08680761	-0.0001402543	0.00158035	0.001138837	0.04782445	0.03446342
11.60518	0.08680761	-0.0001402543	0	0	-0.04776104	-0.03441772
11.62175	0.08680761	-0.0001402543	0	0	0	0
11.63832	0.08678149	-0.0001214305	-0.001576711	0.001136207	-0.0475866	0.0342918
11.65488	0.08678149	-0.0001214305	0	0	0.0475866	-0.0342918
11.67145	0.08678149	-0.0001214305	0	0	0	0
11.68802	0.08672925	-4.613627E-05	-0.003153154	0.004545029	-0.09516511	0.1371732
11.70458	0.08672925	-4.613627E-05	0	0	0.09516785	-0.1371772
11.72115	0.08672925	-4.613627E-05	0	0	0	0
11.73771	0.08670314	1.033328E-05	-0.001576352	0.003408705	-0.04757714	0.1028809
11.75428	0.08670314	1.033328E-05	0	0	0.04757577	-0.1028779
11.77086	0.08670314	1.033328E-05	0	0	0	0
11.78741	0.0866509	4.797911E-05	-0.003155879	0.002274402	-0.0952501	0.06864553
11.80398	0.0866509	4.797911E-05	0	0	0.0952885	-0.06867321
11.82055	0.0866509	4.797911E-05	0	0	0	0
11.84133	0.08659866	8.562452E-05	-0.002513811	0.001811652	-0.0673116	0.04851007
11.8579	0.08659866	8.562452E-05	0	0	0.06729442	-0.04849768
11.87446	0.08662478	6.680187E-05	0.001576988	-0.001136661	0.04759221	-0.03430352
11.89103	0.08662478	6.680187E-05	0	0	-0.04760591	0.03431339
11.9076	0.08662478	6.680187E-05	0	0	0	0
11.92447	0.08662478	6.680187E-05	0	0	0	0
11.94096	0.08662478	6.680187E-05	0	0	0	0
11.95748	0.08662478	6.680187E-05	0	0	0	0
11.97386	0.0866509	4.797911E-05	0.001594054	-0.001148641	0.0484531	-0.03491425
11.99049	0.0866509	4.797911E-05	0	0	-0.04828932	0.03479623
12.007	0.0866509	4.797911E-05	0	0	0	0
12.02356	0.08667701	2.915625E-05	0.001576443	-0.001136281	0.04766082	-0.03435335
12.04013	0.08667701	2.915625E-05	0	0	-0.04758125	0.03429599
12.05669	0.08667701	2.915625E-05	0	0	0	0
12.07326	0.08667701	2.915625E-05	0	0	0	0
12.08983	0.08667701	2.915625E-05	0	0	0	0
12.10639	0.08667701	2.915625E-05	0	0	0	0
12.12296	0.08667701	2.915625E-05	0	0	0	0
12.1396	0.08667701	2.915625E-05	0	0	0	0
12.1561	0.08667701	2.915625E-05	0	0	0	0
12.17266	0.08667701	2.915625E-05	0	0	0	0
12.18923	0.08667701	2.915625E-05	0	0	0	0
12.20579	0.08667701	2.915625E-05	0	0	0	0
12.22236	0.08667701	2.915625E-05	0	0	0	0
12.23917	0.08667701	2.915625E-05	0	0	0	0
12.2557	0.08667701	2.915625E-05	0	0	0	0
12.27218	0.08667701	-8.489796E-06	0	-0.002284418	0	-0.0692008
12.28871	0.08667701	-8.489796E-06	0	0	0	0.0692168
12.30523	0.08667701	-8.489796E-06	0	0	0	0
12.32176	0.08667701	-8.489796E-06	0	0	0	0
12.33833	0.08667701	-8.489796E-06	0	0	0	0
12.35489	0.08667701	-8.489796E-06	0	0	0	0
12.37533	0.08667701	-8.489796E-06	0	0	0	0
12.38803	0.08667701	-8.489796E-06	0	0	0	0
12.40479	0.08667701	-8.489796E-06	0	0	0	0
12.42116	0.08667701	-8.489796E-06	0	0	0	0
12.43781	0.08667701	-8.489796E-06	0	0	0	0
12.45858	0.08670314	-2.731298E-05	0.001257778	-0.0009063479	0.03361306	-0.02422139
12.47534	0.08670314	-2.731298E-05	0	0	-0.03351824	0.02415306
12.49185	0.08670314	-6.495966E-05	0	-0.002279312	0	-0.06850193
12.50828	0.08670314	-6.495966E-05	0	0	0	0.06918605
12.52486	0.08670314	-6.495966E-05	0	0	0	0
12.54141	0.08672925	-8.378316E-05	0.00157726	-0.001136909	0.04760455	-0.03431394
12.55798	0.08672925	-8.378316E-05	0	0	-0.04761825	0.03432382
12.57455	0.08672925	-8.378316E-05	0	0	0	0
12.59192	0.08672925	-8.378316E-05	0	0	0	0
12.60768	0.08672925	-8.378316E-05	0	0	0	0
12.62425	0.08672925	-8.378316E-05	0	0	0	0
12.64094	0.08675537	-0.0001026068	0.001565	-0.001127756	0.04705707	-0.03390983
12.65816	0.08675537	-0.0001026068	0	0	-0.04614925	0.03325565
12.67395	0.08675537	-0.0001026068	0	0	0	0
12.69051	0.08675537	-0.0001026068	0	0	0	0
12.70708	0.08675537	-0.0001026068	0	0	0	0
12.72365	0.08675537	-0.0001026068	0	0	0	0
12.74021	0.08675537	-0.0001026068	0	0	0	0
12.75678	0.08675537	-0.0001026068	0	0	0	0
12.77375	0.08675537	-0.0001026068	0	0	0	0
12.79025	0.08675537	-0.0001026068	0	0	0	0
12.80648	0.08675537	-0.0001026068	0	0	0	0
12.82377	0.08675537	-0.0001026068	0	0	0	0
12.83961	0.08672925	-0.0001214305	-0.001648945	-0.001188255	-0.04976669	-0.03586263
12.85618	0.08672925	-0.0001214305	0	0	0.05088117	0.03666575
12.87282	0.08672925	-0.0001214305	0	0	0	0
12.88934	0.08672925	-0.0001214305	0	0	0	0
12.90588	0.08672925	-0.0001214305	0	0	0	0
12.92425	0.08672925	-0.0001214305	0	0	0	0
12.93901	0.08675537	-0.0001402543	0.001769192	-0.001274913	0.05339584	-0.03847805
12.95558	0.08675537	-0.0001402543	0	0	-0.05646765	0.04069165
12.97214	0.08675537	-0.0001402543	0	0	0	0
12.98951	0.08678149	-0.0001590782	0.001503889	-0.001084047	0.04432227	-0.03194878
13.00553	0.08678149	-0.0001590782	0	0	-0.04504905	0.03247266
13.02204	0.08678149	-0.0001590782	0	0	0	0
13.03855	0.08680761	-0.0001779023	0.001581445	-0.001139632	0.04788383	-0.0345064
13.05505	0.08680761	-0.0001779023	0	0	-0.0478949	0.03451438
13.07207	0.08680761	-0.0001779023	0	0	0	0
13.08811	0.08680761	-0.0001779023	0	0	0	0
13.10468	0.08680761	-0.0001779023	0	0	0	0
13.1216	0.08680761	-0.0001779023	0	0	0	0
13.13781	0.08683372	-0.0001967264	0.001611133	-0.001161364	0.04862688	-0.03505205
13.15438	0.08683372	-0.0001967264	0	0	-0.04915748	0.03543453
13.17094	0.08683372	-0.0001967264	0	0	0	0
13.18751	0.08685984	-0.0002155507	0.001576802	-0.001136299	0.04758934	-0.03429456
13.20408	0.08685984	-0.0002155507	0	0	-0.04758934	0.03429456
13.22083	0.08685984	-0.0002155507	0	0	0	0
13.23736	0.08688596	-0.000234375	0.001580355	-0.001139191	0.04748474	-0.03422915
13.25387	0.08688596	-0.000234375	0	0	-0.04784117	0.03448608
13.27034	0.08688596	-0.000234375	0	0	0	0
13.28691	0.08688596	-0.000272024	0	-0.002272629	0	-0.06878012
13.30348	0.08688596	-0.000272024	0	0	0	0.06859007
13.32004	0.08688596	-0.000272024	0	0	0	0
13.33661	0.08693819	-0.0003096735	0.003153336	-0.002272788	0.09517607	-0.06859881
13.35318	0.08693819	-0.0003096735	0	0	-0.09517334	0.06859683
13.36974	0.08693819	-0.0003096735	0	0	0	0
13.38631	0.08696432	-0.0003284984	0.001576802	-0.001136338	0.04759071	-0.03429671
13.40287	0.08696432	-0.0003284984	0	0	-0.04758934	0.03429572
13.41944	0.08696432	-0.0003284984	0	0	0	0
13.43601	0.08701655	-0.0003661485	0.003152704	-0.002272694	0.09515702	-0.06859598
13.45761	0.08701655	-0.0003661485	0	0	-0.08260289	0.05954606
13.46914	0.08701655	-0.0003661485	0	0	0	0
13.48576	0.08704267	-0.0004226244	0.001571825	-0.00339833	0.05583448	-0.1207157
13.50227	0.08704267	-0.0004226244	0	0	-0.04743778	0.1025618
13.51884	0.08704267	-0.0004226244	0	0	0	0
13.53541	0.0870949	-0.0004602755	0.003152886	-0.00227289	0.09515975	-0.06859991
13.55197	0.0870949	-0.0004602755	0	0	-0.09515975	0.06859991
13.56854	0.0870949	-0.0004602755	0	0	0	0
13.58532	0.08712102	-0.0004791013	0.001556816	-0.001121985	0.04668784	-0.03364755
13.60167	0.08712102	-0.0004791013	0	0	-0.04698751	0.03386353
13.61835	0.08712102	-0.0004791013	0	0	0	0
13.63488	0.08714713	-0.0004979271	0.001579717	-0.001138823	0.04757736	-0.03429867
13.65137	0.08714713	-0.0004979271	0	0	-0.04783013	0.0344809
13.66794	0.08714713	-0.0004979271	0	0	0	0
13.68451	0.08714713	-0.0005355791	0	-0.002272808	0	-0.06859744
13.70107	0.08714713	-0.0005355791	0	0	0	0.06859547
13.71793	0.08714713	-0.0005355791	0	0	0	0
13.73443	0.08719937	-0.0005732315	0.003165729	-0.002281901	0.09491085	-0.06841305
13.75077	0.08719937	-0.0005732315	0	0	-0.09638523	0.06947579
13.76734	0.08719937	-0.0005732315	0	0	0	0
13.78397	0.08722548	-0.0005920579	0.001570115	-0.001131929	0.04729361	-0.03409496
13.80047	0.08722548	-0.0005920579	0	0	-0.04738754	0.03416267
13.81704	0.08722548	-0.0005920579	0	0	0	0
13.8336	0.08722548	-0.0005920579	0	0	0	0
13.85017	0.08722548	-0.0005920579	0	0	0	0
13.86674	0.08722548	-0.0005920579	0	0	0	0
13.88331	0.08722548	-0.0005920579	0	0	0	0
13.90004	0.08722548	-0.0005920579	0	0	0	0
13.91644	0.08722548	-0.0005920579	0	0	0	0
13.933	0.08719937	-0.0006108844	-0.001576352	-0.001136436	-0.04782492	-0.03447831
13.9496	0.08719937	-0.0006108844	0	0	0.04753883	0.03427206
13.96614	0.08719937	-0.0006108844	0	0	0	0
13.9827	0.08719937	-0.0006108844	0	0	0	0
14.00512	0.08719937	-0.0006108844	0	0	0	0
14.01584	0.08719937	-0.0006108844	0	0	0	0
14.0324	0.08717325	-0.000629711	-0.001576802	-0.001136439	-0.05779894	-0.0416571
14.04897	0.08717325	-0.000629711	0	0	0.04758798	0.03429781
14.06554	0.08717325	-0.000629711	0	0	0	0
14.0821	0.08717325	-0.000629711	0	0	0	0
14.09867	0.08717325	-0.000629711	0	0	0	0
14.11555	0.08717325	-0.000629711	0	0	0	0
14.1318	0.08714713	-0.0006485377	-0.001606407	-0.001158114	-0.04848425	-0.03495396
14.14837	0.08714713	-0.0006485377	0	0	0.04894066	0.03528301
14.16506	0.08714713	-0.0006485377	0	0	0	0
14.1815	0.08714713	-0.0006485377	0	0	0	0
14.19807	0.08714713	-0.0006485377	0	0	0	0
14.21464	0.08714713	-0.0006485377	0	0	0	0
14.2312	0.08714713	-0.0006861914	0	-0.002272914	0	-0.0686026
14.24777	0.08714713	-0.0006861914	0	0	0	0.06859865
14.26434	0.08714713	-0.0006861914	0	0	0	0
14.2809	0.08714713	-0.0006861914	0	0	0	0
14.29747	0.08714713	-0.0006861914	0	0	0	0
14.31417	0.08714713	-0.0006861914	0	0	0	0
14.33068	0.08712102	-0.0007050184	-0.001581085	-0.00113988	-0.04760352	-0.03431965
14.34718	0.08712102	-0.0007050184	0	0	0.04789368	0.03452884
14.36374	0.08712102	-0.0007050184	0	0	0	0
14.3803	0.08712102	-0.0007050184	0	0	0	0
14.39687	0.08712102	-0.0007050184	0	0	0	0
14.41344	0.08712102	-0.0007050184	0	0	0	0
14.43	0.0870949	-0.0007238455	-0.001576802	-0.001136471	-0.04759071	-0.03430074
14.44657	0.0870949	-0.0007238455	0	0	0.04758934	0.03429975
14.46314	0.0870949	-0.0007238455	0	0	0	0
14.47978	0.0870949	-0.0007238455	0	0	0	0
14.49627	0.0870949	-0.0007238455	0	0	0	0
14.5133	0.0870949	-0.0007238455	0	0	0	0
14.5294	0.0870949	-0.0007238455	0	0	0	0
14.54632	0.0870949	-0.0007238455	0	0	0	0
14.56318	0.0870949	-0.0007238455	0	0	0	0
14.5791	0.0870949	-0.0007615001	0	-0.002364294	0	-0.07212468
14.59571	0.0870949	-0.0007615001	0	0	0	0.07268718
14.61323	0.0870949	-0.0007615001	0	0	0	0
14.62922	0.0870949	-0.0007615001	0	0	0	0
14.64579	0.0870949	-0.0007615001	0	0	0	0
14.66236	0.0870949	-0.0007615001	0	0	0	0
14.67892	0.08712102	-0.0007803275	0.001576802	-0.001136492	0.04759071	-0.03430137
14.69549	0.08712102	-0.0007803275	0	0	-0.04759071	0.03430137
14.71231	0.08712102	-0.0007803275	0	0	0	0
14.72862	0.08714713	-0.000799155	0.001600305	-0.001153765	0.04830007	-0.03482269
14.74519	0.08714713	-0.000799155	0	0	-0.04866426	0.03508526
14.76176	0.08714713	-0.000799155	0	0	0	0
14.77833	0.08719937	-0.0008368104	0.003152065	-0.002272231	0.09511583	-0.0685662
14.79489	0.08719937	-0.0008368104	0	0	-0.09513225	0.06857804
14.81146	0.08719937	-0.0008368104	0	0	0	0
14.82997	0.08751275	-0.00110041	0.0169299	-0.01424031	0.4826483	-0.4059718
14.84654	0.08751275	-0.00110041	0	0	-0.4826221	0.4059497
14.86314	0.08751275	-0.00110041	0	0	0	0
14.87967	0.08813947	-0.001552344	0.03791796	-0.02734333	1.144399	-0.8252472
14.89667	0.08813947	-0.001552344	0	0	-1.130891	0.8155061
14.9128	0.08813947	-0.001552344	0	0	0	0
14.92937	0.0881917	-0.001590008	0.003152886	-0.002273656	0.09642537	-0.06953571
14.94594	0.0881917	-0.001590008	0	0	-0.09515702	0.06862105
14.9625	0.0881917	-0.001590008	0	0	0	0
14.97922	0.08827003	-0.001646505	0.004684916	-0.003378841	0.1407429	-0.1015062
14.99564	0.08827003	-0.001646505	0	0	-0.1413951	0.1019766
15.01225	0.08827003	-0.001646505	0	0	0	0
15.02877	0.08827003	-0.00168417	0	-0.002280422	0	-0.06882525
15.0458	0.08827003	-0.00168417	0	0	0	0.06798191
15.0619	0.08827003	-0.00168417	0	0	0	0
15.07847	0.08829614	-0.001703003	0.001575902	-0.001136805	0.04823414	-0.03479454
15.09504	0.08829614	-0.001703003	0	0	-0.0475622	0.03430982
15.1116	0.08829614	-0.001703003	0	0	0	0
15.12817	0.08832225	-0.001721835	0.001576352	-0.001136812	0.04757714	-0.03431102
15.14474	0.08832225	-0.001721835	0	0	-0.04757714	0.03431102
15.1615	0.08832225	-0.001721835	0	0	0	0
15.17787	0.08834836	-0.001740668	0.001594629	-0.001150335	0.04812739	-0.03471818
15.19451	0.08834836	-0.001740668	0	0	-0.04830257	0.03484455
15.21103	0.08834836	-0.001740668	0	0	0	0
15.22758	0.08834836	-0.001778334	0	-0.002276936	0	-0.06886274
15.24414	0.08834836	-0.001778334	0	0	0	0.06878339
15.2607	0.08834836	-0.001778334	0	0	0	0
15.27727	0.08834836	-0.001816001	0	-0.002273687	0	-0.06862396
15.29408	0.08834836	-0.001816001	0	0	0	0.06811032
15.3104	0.08834836	-0.001816001	0	0	0	0
15.32709	0.08834836	-0.001816001	0	0	0	0
15.34354	0.08834836	-0.001816001	0	0	0	0
15.3601	0.08834836	-0.001816001	0	0	0	0
15.37667	0.08837447	-0.001834834	0.001576443	-0.001136919	0.04757988	-0.03431427
15.39324	0.08837447	-0.001834834	0	0	-0.04757851	0.03431328
15.4098	0.08837447	-0.001834834	0	0	0	0
15.42637	0.08837447	-0.001834834	0	0	0	0
15.44294	0.08837447	-0.001834834	0	0	0	0
15.4595	0.08837447	-0.001834834	0	0	0	0
15.47607	0.08834836	-0.001853668	-0.001576443	-0.001136919	-0.04758125	-0.03431526
15.49264	0.08834836	-0.001853668	0	0	0.04757714	0.0343123
15.5092	0.08834836	-0.001853668	0	0	0	0
15.52577	0.08834836	-0.001853668	0	0	0	0
15.54234	0.08834836	-0.001853668	0	0	0	0
15.5591	0.08834836	-0.001853668	0	0	0	0
15.57547	0.08837447	-0.001872502	0.001594991	-0.001150311	0.04814109	-0.03471944
15.59212	0.08837447	-0.001872502	0	0	-0.04829819	0.03483274
15.60862	0.08837447	-0.001872502	0	0	0	0
15.62517	0.08834836	-0.001891335	-0.001578442	-0.001138382	-0.04775982	-0.03444468
15.64174	0.08834836	-0.001891335	0	0	0.04767178	0.03438119
15.6583	0.08834836	-0.001891335	0	0	0	0
15.67487	0.08834836	-0.001891335	0	0	0	0
15.69166	0.08834836	-0.001891335	0	0	0	0
15.708	0.08834836	-0.001891335	0	0	0	0
15.72521	0.08834836	-0.001891335	0	0	0	0
15.74123	0.08834836	-0.001891335	0	0	0	0
15.75772	0.08834836	-0.001891335	0	0	0	0
15.77427	0.08834836	-0.001891335	0	0	0	0
15.79083	0.08834836	-0.001891335	0	0	0	0
15.8074	0.08834836	-0.001891335	0	0	0	0
15.82397	0.08834836	-0.001891335	0	0	0	0
15.84053	0.08834836	-0.001891335	0	0	0	0
15.8573	0.08834836	-0.001891335	0	0	0	0
15.87431	0.08881834	-0.002230361	0.02762712	-0.01992903	0.8178518	-0.5899636
15.89023	0.08881834	-0.002230361	0	0	-0.8389068	0.6051518
15.90682	0.08881834	-0.002230361	0	0	0	0
15.92337	0.08931439	-0.002362214	0.0299741	-0.007967358	0.9046983	-0.2404761
15.93993	0.08931439	-0.002362214	0	0	-0.9051412	0.2405939
15.9565	0.08931439	-0.002362214	0	0	0	0
15.97307	0.1065164	-0.01001872	1.038374	-0.4621745	31.3391	-13.94886
15.98963	0.1065164	-0.01001872	0	0	-31.3391	13.94886
16.00639	0.1065164	-0.01001872	0	0	0	0
16.0229	0.1869745	-0.02136706	4.873854	-0.6874403	146.5281	-20.66728
16.03933	0.1869745	-0.02136706	0	0	-147.9363	20.8659
16.05593	0.1869745	-0.02136706	0	0	0	0
16.07247	0.3198862	-0.01075515	8.040157	0.6419404	242.6664	19.37491
16.08903	0.3198862	-0.01075515	0	0	-242.9181	-19.39501
16.1056	0.3198862	-0.01075515	0	0	0	0
16.12217	0.3853291	-0.002588259	3.950141	0.4929544	119.2155	14.87739
16.13873	0.3853291	-0.002588259	0	0	-119.2155	-14.87739
16.1553	0.3853291	-0.002588259	0	0	0	0
16.17251	0.3868197	-0.003643341	0.0866024	-0.06129955	2.563783	-1.814716
16.18852	0.3868197	-0.003643341	0	0	-2.606763	1.845138
16.205	0.3868197	-0.003643341	0	0	0	0
16.22157	0.3836784	-0.006150517	-0.1896337	-0.1513508	-5.739346	-4.580698
16.23854	0.3836784	-0.006150517	0	0	5.653192	4.511936
16.2547	0.3836784	-0.006150517	0	0	0	0
16.27158	0.3815722	-0.007791586	-0.1247476	-0.09719759	-3.775757	-2.941896
16.28783	0.3815722	-0.007791586	0	0	3.764889	2.933429
16.30459	0.3815722	-0.007791586	0	0	0	0
16.32097	0.379871	-0.006904929	-0.1038773	0.05414204	-3.135204	1.634104
16.33761	0.379871	-0.006904929	0	0	3.145707	-1.639578
16.3541	0.379871	-0.006904929	0	0	0	0
16.37068	0.3230132	-0.02040087	-3.429971	-0.8141482	-103.7317	-24.62206
16.38724	0.3230132	-0.02040087	0	0	103.5167	24.57104
16.4038	0.3230132	-0.02040087	0	0	0	0
16.42069	0.1815829	-0.06418598	-8.373826	-2.592435	-250.2877	-77.48602
16.43694	0.1815829	-0.06418598	0	0	252.7226	78.23983
16.4535	0.1815829	-0.06418598	0	0	0	0
16.47021	0.03035909	-0.08593311	-9.052844	-1.301868	-272.0877	-39.12827
16.48673	0.03035909	-0.08593311	0	0	272.4313	39.17768
16.5037	0.03035909	-0.08593311	0	0	0	0
16.51977	-0.0278875	-0.05813765	-3.623827	1.729302	-109.6893	52.3441
16.53634	-0.0278875	-0.05813765	0	0	111.0226	-52.98032
16.55291	-0.0278875	-0.05813765	0	0	0	0
16.56947	-0.0309112	-0.0548596	-0.1825108	0.1978635	-5.508188	5.971533
16.58604	-0.0309112	-0.0548596	0	0	5.508188	-5.971533
16.60261	-0.0309112	-0.0548596	0	0	0	0
16.61917	-0.02935998	-0.05583687	0.09363195	-0.05898838	2.825818	-1.780273
16.63574	-0.02935998	-0.05583687	0	0	-2.825818	1.780273
16.65231	-0.02935998	-0.05583687	0	0	0	0
16.66887	-0.02907076	-0.05562606	0.01745972	0.01272623	0.5269658	0.3841006
16.68582	-0.02907076	-0.05562606	0	0	-0.521027	-0.3797719
16.70201	-0.02907076	-0.05562606	0	0	0	0
16.71858	-0.02746678	-0.05438066	0.0968164	0.07517238	2.955612	2.294863
16.73514	-0.02746678	-0.05438066	0	0	-2.921925	-2.268707
16.75171	-0.02746678	-0.05438066	0	0	0	0
16.77061	0.0005263158	-0.03410696	1.481272	1.072796	41.76687	30.24922
16.78718	0.0005263158	-0.03410696	0	0	-41.76687	-30.24922
16.80374	0.0005263158	-0.03410696	0	0	0	0
16.82031	0.03364519	-0.0102453	1.99929	1.440459	60.34216	43.47563
16.83723	0.03364519	-0.0102453	0	0	-59.70288	-43.01505
16.85344	0.03364519	-0.0102453	0	0	0	0
16.87001	0.05880056	0.008019382	1.518381	1.102458	46.32347	33.63432
16.88728	0.05880056	0.008019382	0	0	-44.87423	-32.58206
16.90314	0.05880056	0.008019382	0	0	0	0
16.91971	0.09573279	0.03536613	2.22949	1.650843	68.75044	50.90679
16.93629	0.09573279	0.03536613	0	0	-67.26292	-49.80534
16.95284	0.09573279	0.03536613	0	0	0	0
16.96941	0.1382183	0.07911235	2.564726	2.640831	77.43924	79.73717
16.98597	0.1382183	0.07911235	0	0	-77.40804	-79.70503
17.00284	0.1382183	0.07911235	0	0	0	0
17.01936	0.1426301	0.1224139	0.2670057	2.620629	7.997479	78.4943
17.03587	0.1426301	0.1224139	0	0	-8.083841	-79.34193
17.05224	0.1426301	0.1224139	0	0	0	0
17.06887	0.120674	0.1567536	-1.320261	2.064901	-40.00444	62.56736
17.08538	0.120674	0.1567536	0	0	39.83637	-62.3045
17.10194	0.120674	0.1567536	0	0	0	0
17.1189	0.09768806	0.1939807	-1.354832	2.194232	-40.41434	65.45344
17.13507	0.09768806	0.1939807	0	0	40.89128	-66.22588
17.15164	0.09768806	0.1939807	0	0	0	0
17.1682	0.08740829	0.2085785	-0.6205599	0.8812302	-18.72961	26.59711
17.18477	0.08740829	0.2085785	0	0	18.72961	-26.59711
17.20134	0.08740829	0.2085785	0	0	0	0
17.21791	0.08615462	0.2094067	-0.07567134	0.04999065	-2.283766	1.508721
17.2345	0.08615462	0.2094067	0	0	2.281926	-1.507506
17.25104	0.08615462	0.2094067	0	0	0	0
17.2676	0.08552769	0.2098388	-0.03784632	0.02608215	-1.143191	0.787841
17.28417	0.08552769	0.2098388	0	0	1.14227	-0.787206
17.30074	0.08552769	0.2098388	0	0	0	0
17.3173	0.08092812	0.2130426	-0.2776622	0.1934055	-8.380343	5.837325
17.33387	0.08092812	0.2130426	0	0	8.380343	-5.837325
17.35151	0.08092812	0.2130426	0	0	0	0
17.36808	0.08016991	0.2137804	-0.045766	0.04453287	-1.337788	1.301742
17.38465	0.08016991	0.2137804	0	0	1.38122	-1.344005
17.40122	0.08016991	0.2137804	0	0	0	0
17.41778	0.06904795	0.2324563	-0.6713228	1.127279	-20.26056	34.02135
17.43435	0.06904795	0.2324563	0	0	20.26173	-34.02331
17.45125	0.06904795	0.2324563	0	0	0	0
17.46776	0.06627123	0.2517599	-0.168184	1.169207	-5.034075	34.99665
17.48425	0.06627123	0.2517599	0	0	5.095456	-35.42336
17.50127	0.06627123	0.2517599	0	0	0	0
17.51718	0.0671096	0.2513297	0.05269083	-0.02703751	1.60016	-0.8210983
17.53375	0.0671096	0.2513297	0	0	-1.622338	0.8324783
17.55032	0.0671096	0.2513297	0	0	0	0
17.56688	0.06716199	0.2512939	0.003162417	-0.002164043	0.09544742	-0.0653147
17.58345	0.06716199	0.2512939	0	0	-0.09544192	0.06531094
17.60002	0.06716199	0.2512939	0	0	0	0
17.62116	0.06716199	0.2512939	0	0	0	0
17.63339	0.06716199	0.2512939	0	0	0	0
17.64987	0.06716199	0.2512939	0	0	0	0
17.66628	0.06716199	0.2512939	0	0	0	0
17.68291	0.06716199	0.2512939	0	0	0	0
17.69942	0.06718819	0.251276	0.001587055	-0.00108512	0.04790018	-0.03275086
17.71598	0.06718819	0.251276	0	0	-0.04798581	0.03280941
17.73255	0.06718819	0.251276	0	0	0	0
17.74912	0.06726678	0.2511863	0.004744171	-0.005411629	0.1431876	-0.1633327
17.76569	0.06726678	0.2511863	0	0	-0.1431794	0.1633233
17.78225	0.06726678	0.2511863	0	0	0	0
17.79882	0.06750255	0.2509891	0.01423132	-0.01190134	0.429527	-0.3592037
17.81551	0.06750255	0.2509891	0	0	-0.4279502	0.3578852
17.83204	0.06750255	0.2509891	0	0	0	0
17.84853	0.06839316	0.2502721	0.05400619	-0.04348109	1.635465	-1.316734
17.86509	0.06839316	0.2502721	0	0	-1.634143	1.31567
17.88505	0.06839316	0.2502721	0	0	0	0
17.89822	0.07022643	0.2490171	0.1391775	-0.09527268	4.200387	-2.875335
17.91508	0.07022643	0.2490171	0	0	-4.634137	3.172255
17.93157	0.07022643	0.2490171	0	0	0	0
17.94792	0.07033117	0.2489096	0.006404719	-0.006577844	0.195035	-0.200307
17.96449	0.07033117	0.2489096	0	0	-0.1945491	0.1998079
17.98111	0.07033117	0.2489096	0	0	0	0
17.99762	0.07035736	0.2488199	0.001586604	-0.005431015	0.04788655	-0.1639178
18.01419	0.07035736	0.2488199	0	0	-0.04797216	0.1642108
18.03075	0.07035736	0.2488199	0	0	0	0
18.04768	0.07033117	0.2486944	-0.001547618	-0.00741712	-0.04621242	-0.2214778
18.06389	0.07033117	0.2486944	0	0	0.0467099	0.223862
18.08071	0.07033117	0.2486944	0	0	0	0
18.09721	0.06975506	0.2468296	-0.03491468	-0.1130144	-1.047816	-3.391648
18.11372	0.06975506	0.2468296	0	0	1.057685	3.423591
18.13024	0.06975506	0.2468296	0	0	0	0
18.14673	0.08644194	0.2214424	1.011531	-1.538933	30.63918	-46.61415
18.16338	0.08644194	0.2214424	0	0	-30.52103	46.43441
18.17986	0.08644194	0.2214424	0	0	0	0
18.19642	0.1149385	0.1343038	1.720256	-5.260303	52.06127	-159.1961
18.2139	0.1149385	0.1343038	0	0	-50.53564	154.5309
18.22991	0.1149385	0.1343038	0	0	0	0
18.24612	0.1247177	0.01201683	0.6031193	-7.541886	18.71608	-234.0408
18.26293	0.1247177	0.01201683	0	0	-18.26315	228.377
18.27925	0.1247177	0.01201683	0	0	0	0
18.29582	0.1080512	-0.07533728	-1.005993	-5.272705	-30.58453	-160.3025
18.31247	0.1080512	-0.07533728	0	0	30.29119	158.765
18.32898	0.1080512	-0.07533728	0	0	0	0
18.34552	0.07935929	-0.0979715	-1.734244	-1.368094	-52.46339	-41.38684
18.36209	0.07935929	-0.0979715	0	0	52.37575	41.3177
18.37866	0.07935929	-0.0979715	0	0	0	0
18.39555	0.07339425	-0.1028412	-0.3530995	-0.2882634	-10.55269	-8.615004
18.41179	0.07339425	-0.1028412	0	0	10.65718	8.700306
18.42835	0.07339425	-0.1028412	0	0	0	0
18.44492	0.07237338	-0.1035627	-0.061627	-0.04355435	-1.860121	-1.314624
18.46493	0.07237338	-0.1035627	0	0	1.684934	1.190813
18.47805	0.07237338	-0.1035627	0	0	0	0
18.49463	0.07237338	-0.1035627	0	0	0	0
18.51163	0.07237338	-0.1035627	0	0	0	0
18.52775	0.07237338	-0.1035627	0	0	0	0
18.54432	0.07237338	-0.1035627	0	0	0	0
18.56115	0.07237338	-0.1035627	0	0	0	0
18.57767	0.07237338	-0.1035627	0	0	0	0
18.59427	0.07239955	-0.1035822	0.001576954	-0.001174748	0.04761176	-0.03546825
18.61084	0.07239955	-0.1035822	0	0	-0.04754878	0.03542134
18.62741	0.07239955	-0.1035822	0	0	0	0
18.64397	0.07239955	-0.1035822	0	0	0	0
18.66054	0.07239955	-0.1035822	0	0	0	0
18.67724	0.07239955	-0.1035822	0	0	0	0
18.69367	0.07239955	-0.1035432	0	0.002374503	0	0.07166676
18.71076	0.07239955	-0.1035432	0	0	0	-0.07085506
18.72727	0.07239955	-0.1035432	0	0	0	0
18.74746	0.07239955	-0.1035432	0	0	0	0
18.76429	0.07239955	-0.1035432	0	0	0	0
18.78059	0.07239955	-0.1035432	0	0	0	0
18.79716	0.07239955	-0.1035432	0	0	0	0
18.81383	0.07239955	-0.1035432	0	0	0	0
18.83035	0.07239955	-0.1035432	0	0	0	0
18.84686	0.07239955	-0.1035432	0	0	0	0
18.86343	0.07239955	-0.1035432	0	0	0	0
18.87999	0.07239955	-0.1035432	0	0	0	0
18.89656	0.07239955	-0.1035432	0	0	0	0
18.91313	0.07239955	-0.1035432	0	0	0	0
18.92992	0.07239955	-0.1035432	0	0	0	0
18.94626	0.07239955	-0.1035432	0	0	0	0
18.96283	0.07239955	-0.1035432	0	0	0	0
18.97939	0.07239955	-0.1035432	0	0	0	0
18.99596	0.07239955	-0.1035432	0	0	0	0
19.01256	0.07239955	-0.1035432	0	0	0	0
19.0291	0.07239955	-0.1035432	0	0	0	0
19.04566	0.07239955	-0.1035432	0	0	0	0
19.06223	0.07239955	-0.1035432	0	0	0	0
19.07879	0.07239955	-0.1035432	0	0	0	0
19.09536	0.07239955	-0.1035432	0	0	0	0
19.11213	0.07239955	-0.1035432	0	0	0	0
19.12849	0.07239955	-0.1035432	0	0	0	0
19.14506	0.07239955	-0.1035432	0	0	0	0
19.16163	0.07239955	-0.1035432	0	0	0	0
19.17819	0.07239955	-0.1035432	0	0	0	0
19.19476	0.07239955	-0.1035432	0	0	0	0
19.21133	0.07239955	-0.1035432	0	0	0	0
19.22789	0.07242573	-0.1035627	0.001580491	-0.001177497	0.04770205	-0.03553898
19.24446	0.07242573	-0.1035627	0	0	-0.04770205	0.03553898
19.26103	0.07242573	-0.1035627	0	0	0	0
19.2776	0.07242573	-0.1035627	0	0	0	0
19.29426	0.07242573	-0.1035627	0	0	0	0
19.31077	0.07242573	-0.1035627	0	0	0	0
19.3273	0.07239955	-0.1035432	-0.001584139	0.001180215	-0.04794187	0.03571765
19.34386	0.07239955	-0.1035432	0	0	0.04787554	-0.03566824
19.36043	0.07239955	-0.1035432	0	0	0	0
19.377	0.07239955	-0.1035432	0	0	0	0
19.39356	0.07239955	-0.1035432	0	0	0	0
19.41033	0.07239955	-0.1035432	0	0	0	0
19.42669	0.07239955	-0.1035432	0	0	0	0
19.44335	0.07239955	-0.1035432	0	0	0	0
19.45983	0.07239955	-0.1035432	0	0	0	0
19.4764	0.07239955	-0.1035432	0	0	0	0
19.49296	0.07239955	-0.1035432	0	0	0	0
19.50953	0.07239955	-0.1035432	0	0	0	0
19.52708	0.07239955	-0.1035432	0	0	0	0
19.54392	0.07239955	-0.1035432	0	0	0	0
19.56021	0.07239955	-0.1035432	0	0	0	0
19.57694	0.07239955	-0.1035432	0	0	0	0
19.59335	0.07239955	-0.1035432	0	0	0	0
19.61067	0.07239955	-0.1035432	0	0	0	0
19.62666	0.07239955	-0.1035432	0	0	0	0
19.64305	0.07239955	-0.1035432	0	0	0	0
19.65961	0.07239955	-0.1035432	0	0	0	0
19.67763	0.07239955	-0.1035822	0	-0.002165084	0	-0.06260701
19.69422	0.07239955	-0.1035822	0	0	0	0.06257249
19.71076	0.07239955	-0.1035822	0	0	0	0
19.72733	0.07239955	-0.1035432	0	0.002354273	0	0.07109304
19.7439	0.07239955	-0.1035432	0	0	0	-0.07105211
19.76047	0.07239955	-0.1035432	0	0	0	0
19.77703	0.07239955	-0.1035432	0	0	0	0
19.7936	0.07239955	-0.1035432	0	0	0	0
19.81031	0.07239955	-0.1035432	0	0	0	0
19.8271	0.07239955	-0.1035432	0	0	0	0
19.84367	0.07239955	-0.1035432	0	0	0	0
19.86034	0.07239955	-0.1035432	0	0	0	0
19.87681	0.07239955	-0.1035432	0	0	0	0
19.89365	0.07239955	-0.1035432	0	0	0	0
19.91016	0.07239955	-0.1035432	0	0	0	0
19.92665	0.07239955	-0.1035432	0	0	0	0
19.94307	0.07239955	-0.1035432	0	0	0	0
19.95964	0.07239955	-0.1035432	0	0	0	0
19.97806	0.07239955	-0.1035432	0	0	0	0
19.99463	0.07239955	-0.1035432	0	0	0	0
20.01119	0.07239955	-0.1035432	0	0	0	0
20.02776	0.07239955	-0.1035432	0	0	0	0
20.04474	0.07239955	-0.1035432	0	0	0	0
20.06128	0.07239955	-0.1035432	0	0	0	0
20.07746	0.07239955	-0.1035432	0	0	0	0
20.09402	0.07239955	-0.1035432	0	0	0	0
20.11059	0.07239955	-0.1035432	0	0	0	0
20.12716	0.07239955	-0.1035432	0	0	0	0
20.14373	0.07239955	-0.1035432	0	0	0	0
20.16029	0.07239955	-0.1035432	0	0	0	0
20.17686	0.07239955	-0.1035432	0	0	0	0
20.19343	0.07239955	-0.1035432	0	0	0	0
20.21079	0.07239955	-0.1035432	0	0	0	0
20.2382	0.07239955	-0.1035432	0	0	0	0
20.25533	0.07239955	-0.1035432	0	0	0	0
20.27134	0.07239955	-0.1035432	0	0	0	0
20.28791	0.07239955	-0.1035432	0	0	0	0
20.30447	0.07239955	-0.1035432	0	0	0	0
20.32104	0.07239955	-0.1035432	0	0	0	0
20.33761	0.07239955	-0.1035432	0	0	0	0
20.35439	0.07239955	-0.1035432	0	0	0	0
20.37074	0.07239955	-0.1035432	0	0	0	0
20.38731	0.07239955	-0.1035432	0	0	0	0
20.40388	0.07239955	-0.1035432	0	0	0	0
20.42044	0.07239955	-0.1035432	0	0	0	0
20.43703	0.07239955	-0.1035432	0	0	0	0
20.45404	0.07239955	-0.1035432	0	0	0	0
20.47014	0.07239955	-0.1035432	0	0	0	0
20.48671	0.07239955	-0.1035432	0	0	0	0
20.50327	0.07239955	-0.1035432	0	0	0	0
20.52008	0.07239955	-0.1035432	0	0	0	0
20.53641	0.07239955	-0.1035432	0	0	0	0
20.55311	0.07239955	-0.1035432	0	0	0	0
20.56954	0.07239955	-0.1035432	0	0	0	0
20.58611	0.07239955	-0.1035432	0	0	0	0
20.60312	0.07239955	-0.1035432	0	0	0	0
20.61924	0.07239955	-0.1035432	0	0	0	0
20.63581	0.07239955	-0.1035432	0	0	0	0
20.65237	0.07239955	-0.1035432	0	0	0	0
20.66917	0.07239955	-0.1035432	0	0	0	0
20.68551	0.07239955	-0.1035432	0	0	0	0
20.70219	0.07239955	-0.1035432	0	0	0	0
20.7187	0.07239955	-0.1035432	0	0	0	0
20.73524	0.07239955	-0.1035432	0	0	0	0
20.75177	0.07239955	-0.1035432	0	0	0	0
20.76834	0.07239955	-0.1035432	0	0	0	0
20.78491	0.07239955	-0.1035432	0	0	0	0
20.8018	0.07239955	-0.1035432	0	0	0	0
20.81804	0.07239955	-0.1035432	0	0	0	0
20.8348	0.07239955	-0.1035432	0	0	0	0
20.85118	0.07239955	-0.1035432	0	0	0	0
20.86834	0.07239955	-0.1035432	0	0	0	0
20.88435	0.07239955	-0.1035432	0	0	0	0
20.90088	0.07239955	-0.1035432	0	0	0	0
20.91744	0.07239955	-0.1035432	0	0	0	0
20.93401	0.07239955	-0.1035432	0	0	0	0
20.95057	0.07239955	-0.1035432	0	0	0	0
20.97115	0.07239955	-0.1035432	0	0	0	0
20.98371	0.07239955	-0.1035432	0	0	0	0
21.0006	0.07239955	-0.1035432	0	0	0	0
21.01684	0.07239955	-0.1035432	0	0	0	0
21.03341	0.07239955	-0.1035432	0	0	0	0
21.04997	0.07239955	-0.1035432	0	0	0	0
21.06654	0.07239955	-0.1035432	0	0	0	0
21.08311	0.07239955	-0.1035432	0	0	0	0
21.09969	0.07239955	-0.1035432	0	0	0	0
21.11624	0.07239955	-0.1035432	0	0	0	0
21.13281	0.07239955	-0.1035432	0	0	0	0
21.14937	0.07239955	-0.1035432	0	0	0	0
21.16594	0.07239955	-0.1035432	0	0	0	0
21.18274	0.07239955	-0.1035432	0	0	0	0
21.19907	0.07237338	-0.1035237	-0.001602365	0.001193678	-0.04836226	0.03602734
21.21578	0.07237338	-0.1035237	0	0	0.04848787	-0.03612091
21.23226	0.07237338	-0.1035237	0	0	0	0
21.24883	0.07237338	-0.1035237	0	0	0	0
21.26534	0.07237338	-0.1035237	0	0	0	0
21.28191	0.07237338	-0.1035237	0	0	0	0
21.29847	0.07239955	-0.1035432	0.001579859	-0.001176912	0.04768024	-0.03551927
21.31504	0.07239955	-0.1035432	0	0	-0.04768024	0.03551927
21.33161	0.07239955	-0.1035432	0	0	0	0
21.34817	0.07239955	-0.1035432	0	0	0	0
21.36474	0.07239955	-0.1035432	0	0	0	0
21.38131	0.07239955	-0.1035432	0	0	0	0
21.39787	0.07237338	-0.1035627	-0.001579859	-0.001177362	-0.04768024	-0.03553284
21.41445	0.07237338	-0.1035627	0	0	0.04767475	0.03552875
21.43101	0.07237338	-0.1035627	0	0	0	0
21.44757	0.07237338	-0.1035627	0	0	0	0
21.46414	0.07237338	-0.1035627	0	0	0	0
21.48097	0.07237338	-0.1035627	0	0	0	0
21.49727	0.07237338	-0.1035627	0	0	0	0
21.51398	0.07237338	-0.1035627	0	0	0	0
21.53051	0.07237338	-0.1035627	0	0	0	0
21.54704	0.07237338	-0.1035627	0	0	0	0
21.56354	0.07237338	-0.1035627	0	0	0	0
21.58011	0.07237338	-0.1035627	0	0	0	0
21.59757	0.07237338	-0.1035627	0	0	0	0
21.61324	0.07237338	-0.1035627	0	0	0	0
21.63008	0.07237338	-0.1035627	0	0	0	0
21.6466	0.07237338	-0.1035627	0	0	0	0
21.66294	0.07237338	-0.1035627	0	0	0	0
21.67951	0.07237338	-0.1035627	0	0	0	0
21.69608	0.07237338	-0.1035627	0	0	0	0
21.71315	0.07237338	-0.1035627	0	0	0	0
21.72921	0.07237338	-0.1035627	0	0	0	0
21.74578	0.07237338	-0.1035627	0	0	0	0
21.76234	0.07237338	-0.1035627	0	0	0	0
21.77891	0.07237338	-0.1035627	0	0	0	0
21.79943	0.07237338	-0.1035627	0	0	0	0
21.81204	0.07237338	-0.1035627	0	0	0	0
21.82877	0.07237338	-0.1035627	0	0	0	0
21.84518	0.07237338	-0.1035627	0	0	0	0
21.86174	0.07237338	-0.1035627	0	0	0	0
21.87831	0.07237338	-0.1035627	0	0	0	0
21.89488	0.07237338	-0.1035627	0	0	0	0
21.91181	0.07237338	-0.1035627	0	0	0	0
21.92832	0.07237338	-0.1035627	0	0	0	0
21.94458	0.07237338	-0.1035627	0	0	0	0
21.96115	0.07237338	-0.1035627	0	0	0	0
21.97771	0.07237338	-0.1035627	0	0	0	0
21.99438	0.07237338	-0.1035627	0	0	0	0
22.01088	0.07237338	-0.1035627	0	0	0	0
22.02741	0.07237338	-0.1035627	0	0	0	0
22.04398	0.07237338	-0.1035627	0	0	0	0
22.06055	0.07237338	-0.1035627	0	0	0	0
22.07711	0.07237338	-0.1035627	0	0	0	0
22.09368	0.07237338	-0.1035627	0	0	0	0
22.11028	0.07237338	-0.1035627	0	0	0	0
22.12682	0.07237338	-0.1035627	0	0	0	0
22.14338	0.07237338	-0.1035627	0	0	0	0
22.15995	0.07237338	-0.1035627	0	0	0	0
22.17652	0.07237338	-0.1035627	0	0	0	0
22.19308	0.07237338	-0.1035627	0	0	0	0
22.20987	0.07237338	-0.1035627	0	0	0	0
22.22636	0.07237338	-0.1035627	0	0	0	0
22.24278	0.07237338	-0.1035627	0	0	0	0
22.25942	0.07237338	-0.1035627	0	0	0	0
22.27592	0.07237338	-0.1035627	0	0	0	0
22.29248	0.07237338	-0.1035627	0	0	0	0
22.30905	0.07237338	-0.1035627	0	0	0	0
22.32562	0.07237338	-0.1035627	0	0	0	0
22.34516	0.07237338	-0.1035627	0	0	0	0
22.35875	0.07237338	-0.1035627	0	0	0	0
22.37538	0.07237338	-0.1035627	0	0	0	0
22.39191	0.07237338	-0.1035627	0	0	0	0
22.40845	0.07237338	-0.1035627	0	0	0	0
22.42501	0.07237338	-0.1035627	0	0	0	0
22.44158	0.07237338	-0.1035627	0	0	0	0
22.45815	0.07237338	-0.1035627	0	0	0	0
22.47496	0.07237338	-0.1035627	0	0	0	0
22.49128	0.07237338	-0.1035627	0	0	0	0
22.50785	0.07237338	-0.1035627	0	0	0	0
22.52449	0.07237338	-0.1035627	0	0	0	0
22.54101	0.07237338	-0.1035627	0	0	0	0
22.55755	0.07237338	-0.1035627	0	0	0	0
22.57412	0.07237338	-0.1035627	0	0	0	0
22.59069	0.07237338	-0.1035627	0	0	0	0
22.60725	0.07237338	-0.1035627	0	0	0	0
22.62447	0.07237338	-0.1035627	0	0	0	0
22.64038	0.07237338	-0.1035627	0	0	0	0
22.65711	0.07237338	-0.1035627	0	0	0	0
22.67364	0.07237338	-0.1035627	0	0	0	0
22.69008	0.07237338	-0.1035627	0	0	0	0
22.70714	0.07237338	-0.1035627	0	0	0	0
22.72321	0.07237338	-0.1035627	0	0	0	0
22.73978	0.07237338	-0.1035627	0	0	0	0
22.75635	0.07237338	-0.1035627	0	0	0	0
22.77291	0.07237338	-0.1035627	0	0	0	0
22.78948	0.07237338	-0.1035627	0	0	0	0
22.80621	0.07237338	-0.1035627	0	0	0	0
22.82261	0.07237338	-0.1035627	0	0	0	0
22.83918	0.07237338	-0.1035627	0	0	0	0
22.85576	0.07237338	-0.1035627	0	0	0	0
22.87231	0.07237338	-0.1035627	0	0	0	0
22.88888	0.07237338	-0.1035627	0	0	0	0
22.90557	0.07237338	-0.1035627	0	0	0	0
22.92207	0.07237338	-0.1035627	0	0	0	0
22.93858	0.07237338	-0.1035627	0	0	0	0
22.9556	0.07237338	-0.1035627	0	0	0	0
22.97171	0.07237338	-0.1035627	0	0	0	0
22.98828	0.07237338	-0.1035627	0	0	0	0
23.00485	0.07237338	-0.1035627	0	0	0	0
23.02141	0.07237338	-0.1035627	0	0	0	0
23.03798	0.07237338	-0.1035627	0	0	0	0
23.05455	0.07237338	-0.1035627	0	0	0	0
23.07112	0.07237338	-0.1035627	0	0	0	0
23.08769	0.07237338	-0.1035627	0	0	0	0
23.10425	0.07237338	-0.1035627	0	0	0	0
23.12121	0.07234719	-0.1035432	-0.001543351	0.001149827	-0.04604304	0.03430298
23.13738	0.07234719	-0.1035432	0	0	0.04657842	-0.03470185
23.15395	0.07234719	-0.1035432	0	0	0	0
23.17512	0.07234719	-0.1035432	0	0	0	0
23.19168	0.07234719	-0.1035432	0	0	0	0
23.20826	0.07234719	-0.1035432	0	0	0	0
23.22482	0.07234719	-0.1035432	0	0	0	0
23.24138	0.07234719	-0.1035432	0	0	0	0
23.25832	0.07239955	-0.1035432	0.003091825	0	0.09229142	0
23.27452	0.07239955	-0.1035432	0	0	-0.09331682	0
23.29108	0.07239955	-0.1035432	0	0	0	0
23.30765	0.07239955	-0.1035432	0	0	0	0
23.32421	0.07239955	-0.1035432	0	0	0	0
23.34078	0.07239955	-0.1035432	0	0	0	0
23.35788	0.07239955	-0.1035432	0	0	0	0
23.37391	0.07239955	-0.1035432	0	0	0	0
23.39048	0.07239955	-0.1035432	0	0	0	0
23.40866	0.07266133	-0.1035822	0.01440299	-0.002145998	0.4145657	-0.06176894
23.42545	0.07266133	-0.1035822	0	0	-0.4119199	0.06137471
23.44179	0.07266133	-0.1035822	0	0	0	0
23.45955	0.07370833	-0.1043625	0.05895539	-0.04393367	1.728628	-1.288177
23.47612	0.07370833	-0.1043625	0	0	-1.717391	1.279803
23.49269	0.07370833	-0.1043625	0	0	0	0
23.50925	0.08450877	-0.1124321	0.6519907	-0.4871411	19.67825	-14.70279
23.52582	0.08450877	-0.1124321	0	0	-19.67712	14.70195
23.54239	0.08450877	-0.1124321	0	0	0	0
23.55903	0.1474741	-0.1604913	3.783608	-2.88789	113.9337	-86.96146
23.57552	0.1474741	-0.1604913	0	0	-114.1961	87.16171
23.59209	0.1474741	-0.1604913	0	0	0	0
23.60866	0.2318342	-0.2279381	5.09257	-4.071569	153.7029	-122.8873
23.62522	0.2318342	-0.2279381	0	0	-153.7029	122.8873
23.64179	0.2318342	-0.2279381	0	0	0	0
23.65861	0.2857978	-0.2736569	3.208127	-2.717975	96.09134	-81.41006
23.67492	0.2857978	-0.2736569	0	0	-96.82706	82.03337
23.69149	0.2857978	-0.2736569	0	0	0	0
23.70806	0.3123981	-0.2970927	1.605596	-1.414584	48.45697	-42.69223
23.72462	0.3123981	-0.2970927	0	0	-48.45418	42.68978
23.74119	0.3123981	-0.2970927	0	0	0	0
23.75776	0.3270307	-0.3099665	0.8834279	-0.777243	26.66498	-23.45994
23.77432	0.3270307	-0.3099665	0	0	-26.66344	23.45859
23.79092	0.3270307	-0.3099665	0	0	0	0
23.80746	0.3358775	-0.3178954	0.5351058	-0.4795819	16.15045	-14.47464
23.82403	0.3358775	-0.3178954	0	0	-16.16534	14.48799
23.84059	0.3358775	-0.3178954	0	0	0	0
23.85743	0.340795	-0.3224793	0.292111	-0.2722992	8.745948	-8.152772
23.87446	0.340795	-0.3224793	0	0	-8.624784	8.039825
23.89029	0.340795	-0.3224793	0	0	0	0
23.90698	0.3408183	-0.322501	0.00140016	-0.001298363	0.04305496	-0.03992469
23.924	0.3408183	-0.322501	0	0	-0.04154426	0.03852382
23.93999	0.3408183	-0.322501	0	0	0	0
23.95656	0.340795	-0.3225226	-0.00141064	-0.001306282	-0.04332387	-0.04011879
23.97313	0.340795	-0.3225226	0	0	0.04257566	0.03942593
23.99004	0.340795	-0.3225226	0	0	0	0
24.00946	0.3407716	-0.322501	-0.001204165	0.001113661	-0.03313717	0.0306466
24.02631	0.3407716	-0.322501	0	0	0.0331999	-0.03070462
24.04279	0.3407716	-0.322501	0	0	0	0
24.05932	0.3406781	-0.3224144	-0.00565739	0.005240795	-0.1713717	0.1587524
24.07582	0.3406781	-0.3224144	0	0	0.1712728	-0.1586607
24.09233	0.3406781	-0.3224144	0	0	0	0
24.10887	0.3406079	-0.3223494	-0.004243338	0.003927881	-0.128419	0.1188721
24.12543	0.3406079	-0.3223494	0	0	0.128197	-0.1186666
24.142	0.3406079	-0.3223494	0	0	0	0
24.15887	0.3405378	-0.3223278	-0.004156656	0.001284271	-0.1243104	0.03840784
24.17514	0.3405378	-0.3223278	0	0	0.1254409	-0.03875714
24.19192	0.3405378	-0.3223278	0	0	0	0
24.20841	0.3405144	-0.3223061	-0.001418647	0.001312023	-0.04264303	0.03943802
24.22493	0.3405144	-0.3223061	0	0	0.04296821	-0.03973876
24.24143	0.3405144	-0.3223061	0	0	0	0
24.25798	0.3404443	-0.3222845	-0.00423909	0.00130974	-0.1282831	0.03963526
24.28136	0.3404443	-0.3222845	0	0	0.1061773	-0.03280532
24.29112	0.3404443	-0.3222845	0	0	0	0
24.30812	0.3402806	-0.3222195	-0.009625631	0.003819055	-0.3596752	0.1427043
24.32423	0.3402806	-0.3222195	0	0	0.2906527	-0.1153191
24.3408	0.3402806	-0.3222195	0	0	0	0
24.35737	0.3396491	-0.3216784	-0.03812428	0.03266408	-1.150659	0.9858605
24.37417	0.3396491	-0.3216784	0	0	1.142504	-0.978873
24.39068	0.3396491	-0.3216784	0	0	0	0
24.41002	0.3237466	-0.3071096	-0.8224804	0.7535051	-22.9456	21.02132
24.42658	0.3237466	-0.3071096	0	0	22.90903	-20.98782
24.44315	0.3237466	-0.3071096	0	0	0	0
24.45971	0.2720568	-0.2614928	-3.120364	2.753749	-94.17818	83.11311
24.47628	0.2720568	-0.2614928	0	0	94.17276	-83.10832
24.49327	0.2720568	-0.2614928	0	0	0	0
24.50942	0.1667528	-0.1751297	-6.521333	5.348355	-196.8255	161.423
24.52598	0.1667528	-0.1751297	0	0	199.3387	-163.484
24.54255	0.1667528	-0.1751297	0	0	0	0
24.56106	0.05271428	-0.08827828	-6.160007	4.691442	-175.5991	133.7357
24.57763	0.05271428	-0.08827828	0	0	175.5991	-133.7357
24.5942	0.05271428	-0.08827828	0	0	0	0
24.61076	-0.03401319	-0.02504506	-5.235483	3.817204	-158.0163	115.2101
24.62735	-0.03401319	-0.02504506	0	0	157.9345	-115.1504
24.6439	-0.03401319	-0.02504506	0	0	0	0
24.66046	-0.03035909	-0.02806274	0.2205874	-0.1821684	6.661176	-5.50102
24.67741	-0.03035909	-0.02806274	0	0	-6.583068	5.436516
24.69393	-0.03035909	-0.02806274	0	0	0	0
24.71043	-0.01376229	-0.04014412	1.005605	-0.7320145	30.44914	-22.16497
24.72673	-0.01376229	-0.04014412	0	0	-30.65629	22.31576
24.7433	-0.01376229	-0.04014412	0	0	0	0
24.75986	-0.006315705	-0.04550583	0.4495284	-0.3236707	13.56758	-9.768964
24.77643	-0.006315705	-0.04550583	0	0	-13.56758	9.768964
24.793	-0.006315705	-0.04550583	0	0	0	0
24.80956	-0.005973613	-0.04575411	0.02064871	-0.01498662	0.6231794	-0.4522972
24.82613	-0.005973613	-0.04575411	0	0	-0.6231794	0.4522972
24.843	-0.005973613	-0.04575411	0	0	0	0
24.85926	-0.005920983	-0.04579231	0.003235987	-0.002348698	0.09766791	-0.07088792
24.87583	-0.005920983	-0.04579231	0	0	-0.09856442	0.0715386
24.8924	-0.005920983	-0.04579231	0	0	0	0
24.90897	-0.005736779	-0.04592601	0.0111186	-0.008070189	0.3355601	-0.2435588
24.92554	-0.005736779	-0.04592601	0	0	-0.3355407	0.2435448
24.94256	-0.005736779	-0.04592601	0	0	0	0
24.95867	-0.003578932	-0.04749269	0.1339807	-0.09727483	4.044012	-2.936098
24.97523	-0.003578932	-0.04749269	0	0	-4.10067	2.977235
24.9918	-0.003578932	-0.04749269	0	0	0	0
25.00837	-0.002184207	-0.04850573	0.08418576	-0.0611477	2.540731	-1.845441
25.02493	-0.002184207	-0.04850573	0	0	-2.540731	1.845441
25.04163	-0.002184207	-0.04850573	0	0	0	0
25.05807	-0.002184207	-0.04854397	0	-0.002326207	0	-0.07020506
25.07467	-0.002184207	-0.04854397	0	0	0	0.07041583
25.0912	-0.002184207	-0.04854397	0	0	0	0
25.11216	0.006499908	-0.05489792	0.4144345	-0.3032314	11.05485	-8.088558
25.12873	0.006499908	-0.05489792	0	0	-11.04529	8.081568
25.14529	0.02615193	-0.06924576	1.186198	-0.8660371	35.79954	-26.13705
25.16186	0.02615193	-0.06924576	0	0	-35.79954	26.13705
25.17843	0.02615193	-0.06924576	0	0	0	0
25.19526	0.03443375	-0.07531799	0.4920738	-0.3607885	14.73378	-10.8028
25.21156	0.03443375	-0.07531799	0	0	-14.85167	10.88925
25.22828	0.03443375	-0.07531799	0	0	0	0
25.24478	0.03451261	-0.07537588	0.004779398	-0.003508851	0.1438616	-0.1056177
25.26126	0.03451261	-0.07537588	0	0	-0.144935	0.1064057
25.27783	0.03451261	-0.07537588	0	0	0	0
25.29439	0.03464403	-0.07547237	0.007933488	-0.005824968	0.2394469	-0.175808
25.31133	0.03464403	-0.07547237	0	0	-0.2368023	0.1738663
25.32783	0.03464403	-0.07547237	0	0	0	0
25.34409	0.0420016	-0.08088143	0.4523852	-0.3325796	13.80801	-10.15122
25.36066	0.0420016	-0.08088143	0	0	-13.77913	10.12999
25.37723	0.0420016	-0.08088143	0	0	0	0
25.39555	0.05465604	-0.0902568	0.6904536	-0.5115403	19.78664	-14.65944
25.41212	0.05465604	-0.0902568	0	0	-19.78664	14.65944
25.42892	0.05465604	-0.0902568	0	0	0	0
25.44526	0.05969216	-0.09398503	0.3082035	-0.2281625	9.301599	-6.885957
25.46182	0.05969216	-0.09398503	0	0	-9.365755	6.933452
25.47839	0.05969216	-0.09398503	0	0	0	0
25.49496	0.06226153	-0.09589001	0.1550339	-0.1149451	4.678125	-3.468451
25.51152	0.06226153	-0.09589001	0	0	-4.679203	3.469249
25.52809	0.06226153	-0.09589001	0	0	0	0
25.54465	0.06226153	-0.09589001	0	0	0	0
25.56122	0.06226153	-0.09589001	0	0	0	0
25.57804	0.06226153	-0.09589001	0	0	0	0
25.59453	0.06226153	-0.09589001	0	0	0	0
25.61104	0.06226153	-0.09589001	0	0	0	0
25.62755	0.06226153	-0.09589001	0	0	0	0
25.64408	0.06226153	-0.09589001	0	0	0	0
25.66414	0.06226153	-0.09589001	0	0	0	0
25.67719	0.06226153	-0.09589001	0	0	0	0
25.69375	0.06226153	-0.09589001	0	0	0	0
25.71062	0.06226153	-0.09589001	0	0	0	0
25.72712	0.06226153	-0.09589001	0	0	0	0
25.74365	0.06226153	-0.09589001	0	0	0	0
25.76015	0.06226153	-0.09589001	0	0	0	0
25.77659	0.06226153	-0.09589001	0	0	0	0
25.79318	0.06226153	-0.09589001	0	0	0	0
25.81018	0.06226153	-0.09589001	0	0	0	0
25.82671	0.06226153	-0.09589001	0	0	0	0
25.84285	0.06226153	-0.09589001	0	0	0	0
25.85942	0.06226153	-0.09589001	0	0	0	0
25.87599	0.06226153	-0.09589001	0	0	0	0
25.89276	0.06223531	-0.09590945	-0.001562722	-0.001159217	-0.04686897	-0.03476709
25.90927	0.06223531	-0.09590945	0	0	0.04694954	0.03482686
25.92569	0.06223531	-0.09590945	0	0	0	0
25.94226	0.06223531	-0.09590945	0	0	0	0
25.95882	0.06223531	-0.09590945	0	0	0	0
25.97539	0.06223531	-0.09590945	0	0	0	0
25.99233	0.0622091	-0.0959289	-0.001547241	-0.001147733	-0.04617485	-0.0342522
26.00852	0.0622091	-0.0959289	0	0	0.04669851	0.03464065
26.02509	0.0622091	-0.0959289	0	0	0	0
26.04186	0.0622091	-0.0959289	0	0	0	0
26.05836	0.0622091	-0.0959289	0	0	0	0
26.07479	0.0622091	-0.0959289	0	0	0	0
26.09136	0.0622091	-0.09596779	0	-0.002347528	0	-0.07113927
26.10792	0.0622091	-0.09596779	0	0	0	0.07084852
26.12449	0.0622091	-0.09596779	0	0	0	0
26.14106	0.06218288	-0.09598724	-0.001582515	-0.001173899	-0.04776314	-0.03543038
26.15762	0.06218288	-0.09598724	0	0	0.04776314	0.03543038
26.17419	0.06218288	-0.09598724	0	0	0	0
26.19076	0.06218288	-0.09602613	0	-0.002347528	0	-0.07084852
26.20749	0.06218288	-0.09602613	0	0	0	0.07050356
26.22389	0.06218288	-0.09602613	0	0	0	0
26.24046	0.06215667	-0.09604558	-0.001582108	-0.001173764	-0.04798566	-0.0356005
26.25703	0.06215667	-0.09604558	0	0	0.04773437	0.03541407
26.27405	0.06215667	-0.09604558	0	0	0	0
26.29016	0.06215667	-0.09608447	0	-0.00241452	0	-0.07289555
26.30705	0.06215667	-0.09608447	0	0	0	0.07316942
26.32329	0.06215667	-0.09608447	0	0	0	0
26.33986	0.06215667	-0.09608447	0	0	0	0
26.35643	0.06215667	-0.09608447	0	0	0	0
26.37299	0.06215667	-0.09608447	0	0	0	0
26.3896	0.06215667	-0.09612336	0	-0.002341328	0	-0.07057205
26.40613	0.06215667	-0.09612336	0	0	0	0.07066142
26.42269	0.06215667	-0.09612336	0	0	0	0
26.43926	0.06215667	-0.09612336	0	0	0	0
26.45583	0.06215667	-0.09612336	0	0	0	0
26.47269	0.06215667	-0.09612336	0	0	0	0
26.48914	0.06215667	-0.09612336	0	0	0	0
26.50571	0.06215667	-0.09612336	0	0	0	0
26.52228	0.06215667	-0.09612336	0	0	0	0
26.53884	0.06213046	-0.09614281	-0.001582697	-0.001174034	-0.04777139	-0.0354365
26.55541	0.06213046	-0.09614281	0	0	0.04776864	0.03543446
26.57198	0.06213046	-0.09614281	0	0	0	0
26.58854	0.06213046	-0.09614281	0	0	0	0
26.60511	0.06213046	-0.09614281	0	0	0	0
26.62168	0.06213046	-0.09614281	0	0	0	0
26.63833	0.06213046	-0.09614281	0	0	0	0
26.65485	0.06213046	-0.09614281	0	0	0	0
26.67186	0.06213046	-0.09614281	0	0	0	0
26.68794	0.06213046	-0.09614281	0	0	0	0
26.70451	0.06213046	-0.09614281	0	0	0	0
26.72108	0.06213046	-0.09614281	0	0	0	0
26.73764	0.06215667	-0.09616226	0.001582333	-0.001174213	0.04775489	-0.03543783
26.75421	0.06215667	-0.09616226	0	0	-0.04775489	0.03543783
26.77078	0.06215667	-0.09616226	0	0	0	0
26.78735	0.06213046	-0.09618171	-0.001582333	-0.001173764	-0.04775489	-0.03542426
26.80391	0.06213046	-0.09618171	0	0	0.04775489	0.03542426
26.82048	0.06213046	-0.09618171	0	0	0	0
26.83727	0.06213046	-0.0962206	0	-0.002316327	0	-0.06943921
26.85361	0.06213046	-0.0962206	0	0	0	0.06991091
26.87033	0.06213046	-0.0962206	0	0	0	0
26.88675	0.06215667	-0.09624005	0.001596485	-0.001184716	0.04818202	-0.0357548
26.90332	0.06215667	-0.09624005	0	0	-0.04838254	0.0359036
26.91988	0.06215667	-0.09624005	0	0	0	0
26.93645	0.06215667	-0.09627894	0	-0.002347528	0	-0.07086892
26.95302	0.06215667	-0.09627894	0	0	0	0.07084852
26.96988	0.06215667	-0.09627894	0	0	0	0
26.98877	0.06218288	-0.0962984	0.0013881	-0.001030224	0.03882858	-0.02881791
27.00533	0.06218288	-0.0962984	0	0	-0.03915447	0.02905978
27.0219	0.06218288	-0.0962984	0	0	0	0
27.03847	0.06215667	-0.09631784	-0.001581926	-0.001173629	-0.04774261	-0.03542019
27.05546	0.06215667	-0.09631784	0	0	0.04714287	0.03497524
27.0716	0.06215667	-0.09631784	0	0	0	0
27.08817	0.06218288	-0.09633729	0.001582472	-0.001174034	0.04837733	-0.03589108
27.10474	0.06218288	-0.09633729	0	0	-0.04776185	0.03543446
27.1213	0.06218288	-0.09633729	0	0	0	0
27.13787	0.0622091	-0.09635674	0.001582515	-0.001174349	0.04776314	-0.03544396
27.15444	0.0622091	-0.09635674	0	0	-0.04776314	0.03544396
27.17103	0.0622091	-0.09635674	0	0	0	0
27.18844	0.06218288	-0.09637619	-0.001505547	-0.001116805	-0.04427283	-0.0328413
27.20501	0.06218288	-0.09637619	0	0	0.04430265	0.03286342
27.22158	0.06218288	-0.09637619	0	0	0	0
27.23814	0.06218288	-0.09637619	0	0	0	0
27.25471	0.06218288	-0.09637619	0	0	0	0
27.27189	0.06218288	-0.09637619	0	0	0	0
27.28789	0.06218288	-0.09637619	0	0	0	0
27.30441	0.06218288	-0.09637619	0	0	0	0
27.32098	0.06218288	-0.09637619	0	0	0	0
27.33792	0.0622091	-0.09639563	0.001546719	-0.001147346	0.04614876	-0.03423284
27.35442	0.0622091	-0.09639563	0	0	-0.04625405	0.03431094
27.37068	0.0622091	-0.09639563	0	0	0	0
27.38724	0.0622091	-0.09639563	0	0	0	0
27.40381	0.0622091	-0.09639563	0	0	0	0
27.42038	0.0622091	-0.09639563	0	0	0	0
27.437	0.0622091	-0.09639563	0	0	0	0
27.45351	0.0622091	-0.09639563	0	0	0	0
27.47008	0.0622091	-0.09639563	0	0	0	0
27.48664	0.0622091	-0.09639563	0	0	0	0
27.50321	0.0622091	-0.09639563	0	0	0	0
27.51978	0.0622091	-0.09639563	0	0	0	0
27.53635	0.0622091	-0.09639563	0	0	0	0
27.55308	0.0622091	-0.09639563	0	0	0	0
27.56948	0.0622091	-0.09639563	0	0	0	0
27.5862	0.0622091	-0.09639563	0	0	0	0
27.60261	0.0622091	-0.09639563	0	0	0	0
27.61923	0.0622091	-0.09639563	0	0	0	0
27.63575	0.0622091	-0.09639563	0	0	0	0
27.65232	0.0622091	-0.09639563	0	0	0	0
27.66927	0.0622091	-0.09639563	0	0	0	0
27.68545	0.0622091	-0.09639563	0	0	0	0
27.70202	0.0622091	-0.09639563	0	0	0	0
27.71878	0.0622091	-0.09639563	0	0	0	0
27.73515	0.0622091	-0.09639563	0	0	0	0
27.75172	0.0622091	-0.09639563	0	0	0	0
27.76828	0.0622091	-0.09639563	0	0	0	0
27.78485	0.0622091	-0.09639563	0	0	0	0
27.80142	0.0622091	-0.09639563	0	0	0	0
27.81884	0.0622091	-0.09639563	0	0	0	0
27.83455	0.0622091	-0.09639563	0	0	0	0
27.85112	0.0622091	-0.09639563	0	0	0	0
27.86769	0.0622091	-0.09639563	0	0	0	0
27.88425	0.0622091	-0.09639563	0	0	0	0
27.90144	0.0622091	-0.09639563	0	0	0	0
27.91742	0.0622091	-0.09639563	0	0	0	0
27.93395	0.0622091	-0.09639563	0	0	0	0
27.95052	0.0622091	-0.09639563	0	0	0	0
27.96709	0.0622091	-0.09639563	0	0	0	0
27.98365	0.0622091	-0.09639563	0	0	0	0
28.00048	0.0622091	-0.09639563	0	0	0	0
28.01679	0.0622091	-0.09639563	0	0	0	0
28.03353	0.0622091	-0.09639563	0	0	0	0
28.05001	0.0622091	-0.09639563	0	0	0	0
28.06654	0.0622091	-0.09639563	0	0	0	0
28.08305	0.0622091	-0.09639563	0	0	0	0
28.09962	0.0622091	-0.09639563	0	0	0	0
28.1162	0.0622091	-0.09639563	0	0	0	0
28.13275	0.0622091	-0.09639563	0	0	0	0
28.14932	0.0622091	-0.09639563	0	0	0	0
28.16589	0.0622091	-0.09639563	0	0	0	0
28.18245	0.0622091	-0.09639563	0	0	0	0
28.19902	0.0622091	-0.09639563	0	0	0	0
28.21628	0.0622091	-0.09639563	0	0	0	0
28.23215	0.0622091	-0.09639563	0	0	0	0
28.24872	0.0622091	-0.09639563	0	0	0	0
28.26529	0.0622091	-0.09639563	0	0	0	0
28.28185	0.0622091	-0.09639563	0	0	0	0
28.29842	0.0622091	-0.09639563	0	0	0	0
28.31499	0.0622091	-0.09639563	0	0	0	0
28.33187	0.0622091	-0.09639563	0	0	0	0
28.34812	0.0622091	-0.09639563	0	0	0	0
28.36489	0.0622091	-0.09639563	0	0	0	0
28.38139	0.0622091	-0.09639563	0	0	0	0
28.39782	0.0622091	-0.09639563	0	0	0	0
28.41439	0.0622091	-0.09639563	0	0	0	0
28.43118	0.0622091	-0.09639563	0	0	0	0
28.44769	0.0622091	-0.09639563	0	0	0	0
28.46409	0.0622091	-0.09639563	0	0	0	0
28.48065	0.0622091	-0.09639563	0	0	0	0
28.49722	0.0622091	-0.09639563	0	0	0	0
28.51379	0.0622091	-0.09639563	0	0	0	0
28.53035	0.0622091	-0.09639563	0	0	0	0
28.54727	0.0622091	-0.09639563	0	0	0	0
28.56377	0.0622091	-0.09639563	0	0	0	0
28.58005	0.0622091	-0.09639563	0	0	0	0
28.59681	0.0622091	-0.09639563	0	0	0	0
28.61319	0.0622091	-0.09639563	0	0	0	0
28.62976	0.0622091	-0.09639563	0	0	0	0
28.64632	0.0622091	-0.09639563	0	0	0	0
28.66289	0.0622091	-0.09639563	0	0	0	0
28.67956	0.0622091	-0.09639563	0	0	0	0
28.69602	0.0622091	-0.09639563	0	0	0	0
28.71259	0.0622091	-0.09639563	0	0	0	0
28.72915	0.0622091	-0.09639563	0	0	0	0
28.74572	0.0622091	-0.09639563	0	0	0	0
28.76229	0.0622091	-0.09639563	0	0	0	0
28.77914	0.0622091	-0.09639563	0	0	0	0
28.79542	0.0622091	-0.09639563	0	0	0	0
28.81199	0.0622091	-0.09639563	0	0	0	0
28.8287	0.0622091	-0.09639563	0	0	0	0
28.84517	0.0622091	-0.09639563	0	0	0	0
28.86171	0.0622091	-0.09639563	0	0	0	0
28.87826	0.0622091	-0.09639563	0	0	0	0
28.89482	0.0622091	-0.09639563	0	0	0	0
28.91139	0.0622091	-0.09639563	0	0	0	0
28.92796	0.0622091	-0.09639563	0	0	0	0
28.94473	0.0622091	-0.09639563	0	0	0	0
28.96109	0.0622091	-0.09639563	0	0	0	0
28.97766	0.0622091	-0.09639563	0	0	0	0
28.99422	0.0622091	-0.09639563	0	0	0	0
29.01079	0.0622091	-0.09639563	0	0	0	0
29.02736	0.0622091	-0.09639563	0	0	0	0
29.04393	0.0622091	-0.09639563	0	0	0	0
29.06049	0.0622091	-0.09639563	0	0	0	0
29.07706	0.0622091	-0.09639563	0	0	0	0
29.09363	0.0622091	-0.09639563	0	0	0	0
29.11038	0.0622091	-0.09639563	0	0	0	0
29.12676	0.0622091	-0.09639563	0	0	0	0
29.1434	0.0622091	-0.09639563	0	0	0	0
29.15993	0.0622091	-0.09639563	0	0	0	0
29.17646	0.0622091	-0.09639563	0	0	0	0
29.19303	0.0622091	-0.09639563	0	0	0	0
29.21117	0.0622091	-0.09639563	0	0	0	0
29.22616	0.0622091	-0.09639563	0	0	0	0
29.24273	0.0622091	-0.09639563	0	0	0	0
29.2593	0.0622091	-0.09639563	0	0	0	0
29.27586	0.06223531	-0.09641509	0.001582333	-0.001174213	0.04775489	-0.03543783
29.29253	0.06223531	-0.09641509	0	0	-0.04761784	0.03533613
29.30901	0.06223531	-0.09641509	0	0	0	0
29.32556	0.06223531	-0.09641509	0	0	0	0
29.34213	0.06223531	-0.09641509	0	0	0	0
29.3587	0.06223531	-0.09641509	0	0	0	0
29.37527	0.06223531	-0.09641509	0	0	0	0
29.39183	0.06223531	-0.09641509	0	0	0	0
29.4084	0.06223531	-0.09641509	0	0	0	0
29.42509	0.06223531	-0.09641509	0	0	0	0
29.44153	0.06223531	-0.09641509	0	0	0	0
29.4581	0.06223531	-0.09641509	0	0	0	0
29.47466	0.06223531	-0.09641509	0	0	0	0
29.49123	0.06223531	-0.09641509	0	0	0	0
29.50811	0.06223531	-0.09641509	0	0	0	0
29.52436	0.06223531	-0.09641509	0	0	0	0
29.54093	0.06223531	-0.09641509	0	0	0	0
29.5575	0.06223531	-0.09641509	0	0	0	0
29.57406	0.06223531	-0.09641509	0	0	0	0
29.59063	0.06223531	-0.09641509	0	0	0	0
29.6072	0.06223531	-0.09641509	0	0	0	0
29.62376	0.06223531	-0.09641509	0	0	0	0
29.64033	0.06223531	-0.09641509	0	0	0	0
29.65721	0.06223531	-0.09641509	0	0	0	0
29.67373	0.06223531	-0.09641509	0	0	0	0
29.69003	0.06223531	-0.09641509	0	0	0	0
29.70675	0.06223531	-0.09641509	0	0	0	0
29.72325	0.06223531	-0.09641509	0	0	0	0
29.73977	0.06223531	-0.09641509	0	0	0	0
29.7563	0.06223531	-0.09641509	0	0	0	0
29.77648	0.06223531	-0.09641509	0	0	0	0
29.79305	0.06223531	-0.09641509	0	0	0	0
29.80978	0.06223531	-0.09641509	0	0	0	0
29.82619	0.06223531	-0.09641509	0	0	0	0
29.84275	0.06223531	-0.09641509	0	0	0	0
29.85932	0.06223531	-0.09641509	0	0	0	0
29.87589	0.06223531	-0.09641509	0	0	0	0
29.89284	0.06223531	-0.09641509	0	0	0	0
29.90933	0.06223531	-0.09641509	0	0	0	0
29.92586	0.06223531	-0.09641509	0	0	0	0
29.94215	0.06223531	-0.09641509	0	0	0	0
29.95872	0.0622091	-0.09639563	-0.001582515	0.001174349	-0.0481568	0.03573608
29.97529	0.0622091	-0.09639563	0	0	0.04776314	-0.03544396
29.99191	0.0622091	-0.09639563	0	0	0	0
30.00842	0.06215667	-0.09635674	-0.003175775	0.002355936	-0.09585059	0.07110638
30.02499	0.06215667	-0.09635674	0	0	0.09601641	-0.0712294
30.04173	0.06215667	-0.09635674	0	0	0	0
30.05812	0.06186831	-0.09614281	-0.01758994	0.01304992	-0.5308655	0.3938474
30.07469	0.06186831	-0.09614281	0	0	0.5336919	-0.3959442
30.09125	0.06186831	-0.09614281	0	0	0	0
30.10827	0.05064088	-0.08779357	-0.6596155	0.4905202	-19.63819	14.60385
30.12439	0.05064088	-0.08779357	0	0	19.90723	-14.80393
30.14095	0.05064088	-0.08779357	0	0	0	0
30.15752	0.007920887	-0.05654608	-2.578584	1.886102	-77.82181	56.92268
30.17409	0.007920887	-0.05654608	0	0	77.82181	-56.92268
30.19066	0.007920887	-0.05654608	0	0	0	0
30.20746	-0.03488058	-0.02650608	-2.547139	1.787697	-76.32799	53.57042
30.22403	-0.03488058	-0.02650608	0	0	76.32362	-53.56736
30.24087	-0.03488058	-0.02650608	0	0	0	0
30.25716	-0.08623298	-0.01266308	-3.152628	0.8498505	-95.15199	25.65001
30.27373	-0.08623298	-0.01266308	0	0	95.95293	-25.86592
30.2903	-0.08623298	-0.01266308	0	0	0	0
30.30691	-0.1574491	-0.008093482	-4.286767	0.2750613	-129.1964	8.289913
30.32345	-0.1574491	-0.008093482	0	0	129.293	-8.296113
30.34	-0.1574491	-0.008093482	0	0	0	0
30.35657	-0.1974209	-2.731298E-05	-2.412703	0.4868749	-72.86164	14.70323
30.37313	-0.1974209	-2.731298E-05	0	0	72.81551	-14.69391
30.39002	-0.1974209	-2.731298E-05	0	0	0	0
30.40627	-0.2010619	0.002456431	-0.2240537	0.15284	-6.761954	4.612721
30.42283	-0.2010619	0.002456431	0	0	6.827192	-4.657224
30.4394	-0.2010619	0.002456431	0	0	0	0
30.45681	-0.2010619	0.002456431	0	0	0	0
30.47338	-0.2010619	0.002456431	0	0	0	0
30.48994	-0.2010619	0.002456431	0	0	0	0
30.50707	-0.2010113	0.002494049	0.002950461	0.002196545	0.08756814	0.06519231
30.52364	-0.2010113	0.002494049	0	0	-0.08756814	-0.06519231
30.5402	-0.2010113	0.002494049	0	0	0	0
30.55677	-0.2009608	0.002494049	0.003049987	0	0.09204879	0
30.57364	-0.2009608	0.002494049	0	0	-0.09122435	0
30.5899	-0.2009608	0.002494049	0	0	0	0
30.60647	-0.2009355	0.00247524	0.001525619	-0.001135444	0.04646588	-0.03458229
30.62304	-0.2009355	0.00247524	0	0	-0.04604592	0.03426973
30.6396	-0.2009355	0.00247524	0	0	0	0
30.65675	-0.2009608	0.002456431	-0.001473696	-0.001096813	-0.04370884	-0.03253075
30.67333	-0.2009608	0.002456431	0	0	0.04369648	0.03252156
30.68989	-0.2009608	0.002456431	0	0	0	0
30.70646	-0.2009355	0.00247524	0.001525443	0.001135327	0.04605122	0.0342741
30.72302	-0.2009355	0.00247524	0	0	-0.04603797	-0.03426424
30.73959	-0.2009355	0.00247524	0	0	0	0
30.75616	-0.2009355	0.00247524	0	0	0	0
30.77272	-0.2009355	0.00247524	0	0	0	0
30.78929	-0.2009355	0.00247524	0	0	0	0
30.80594	-0.2009103	0.002456431	0.001517208	-0.001129864	0.04567898	-0.03401711
30.82243	-0.2009103	0.002456431	0	0	-0.04578151	0.03409347
30.83899	-0.2009103	0.002456431	0	0	0	0
30.85596	-0.2008345	0.002588093	0.004469305	0.007761292	0.1333183	0.2315175
30.87246	-0.2008345	0.002588093	0	0	-0.1335234	-0.2318738
30.88869	-0.2008345	0.002588093	0	0	0	0
30.90526	-0.1997982	0.004825563	0.06255397	0.1350695	1.907538	4.118846
30.92182	-0.1997982	0.004825563	0	0	-1.887991	-4.076641
30.93839	-0.1997982	0.004825563	0	0	0	0
30.95502	-0.2075718	0.03663303	-0.4674382	1.912636	-14.07976	57.61071
30.97153	-0.2075718	0.03663303	0	0	14.10813	-57.72679
30.98809	-0.2075718	0.03663303	0	0	0	0
31.00466	-0.2045209	0.06260425	0.1841965	1.567987	5.559382	47.32467
31.02123	-0.2045209	0.06260425	0	0	-5.559382	-47.32467
31.03779	-0.2045209	0.06260425	0	0	0	0
31.05459	-0.1979775	0.06717183	0.3895348	0.2719117	11.67486	8.149549
31.07111	-0.1979775	0.06717183	0	0	-11.69157	-8.161212
31.08749	-0.1979775	0.06717183	0	0	0	0
31.10406	-0.197851	0.06707941	0.00763619	-0.005578944	0.2317816	-0.1693379
31.12063	-0.197851	0.06707941	0	0	-0.2304607	0.1683729
31.13963	-0.197851	0.06707941	0	0	0	0
31.15376	-0.197851	0.06707941	0	0	0	0
31.17033	-0.197851	0.06707941	0	0	0	0
31.18689	-0.197851	0.06707941	0	0	0	0
31.20346	-0.1977751	0.06702396	0.004582254	-0.003347186	0.1383086	-0.1010299
31.22003	-0.1977751	0.06702396	0	0	-0.1382927	0.1010183
31.23675	-0.1977751	0.06702396	0	0	0	0
31.25316	-0.1976739	0.06691307	0.006166998	-0.00675818	0.1861418	-0.2039858
31.26974	-0.1976739	0.06691307	0	0	-0.1869166	0.2048348
31.28629	-0.1976739	0.06691307	0	0	0	0
31.30286	-0.1975727	0.06680217	0.006108969	-0.006694051	0.1844752	-0.2021432
31.31942	-0.1975727	0.06680217	0	0	-0.184369	0.2020269
31.3363	-0.1975727	0.06680217	0	0	0	0
31.35281	-0.1974968	0.06674672	0.004598668	-0.003359176	0.1377493	-0.1006214
31.36933	-0.1974968	0.06674672	0	0	-0.1392208	0.1016963
31.38584	-0.1974968	0.06674672	0	0	0	0
31.40226	-0.1974209	0.06669126	0.004623243	-0.003377581	0.1404189	-0.1025852
31.41883	-0.1974209	0.06669126	0	0	-0.1401591	0.1023954
31.43539	-0.1974209	0.06669126	0	0	0	0
31.45196	-0.197345	0.06659885	0.004581726	-0.005578301	0.1382768	-0.1683535
31.46853	-0.197345	0.06659885	0	0	-0.1382768	0.1683535
31.4854	-0.197345	0.06659885	0	0	0	0
31.5019	-0.197269	0.06654339	0.004600634	-0.003360404	0.1378476	-0.1006869
31.51823	-0.197269	0.06654339	0	0	-0.1401463	0.1023659
31.53479	-0.197269	0.06654339	0	0	0	0
31.55145	-0.1968135	0.06621066	0.02734151	-0.01997129	0.8228948	-0.6010739
31.56799	-0.1968135	0.06621066	0	0	-0.823604	0.6015919
31.585	-0.1968135	0.06621066	0	0	0	0
31.60106	-0.194332	0.0643986	0.154537	-0.1128446	4.673081	-3.412337
31.61802	-0.194332	0.0643986	0	0	-4.680911	3.418054
31.63419	-0.194332	0.0643986	0	0	0	0
31.65076	-0.1931663	0.06351078	0.07035927	-0.05358929	2.148804	-1.636641
31.66753	-0.1931663	0.06351078	0	0	-2.110689	1.607611
31.68389	-0.1931663	0.06351078	0	0	0	0
31.70046	-0.1931663	0.06351078	0	0	0	0
31.7173	-0.1931663	0.06351078	0	0	0	0
31.73359	-0.1931663	0.06351078	0	0	0	0
31.75034	-0.1931916	0.06349228	-0.001513561	-0.001104695	-0.04581121	-0.03343599
31.76673	-0.1931916	0.06349228	0	0	0.04568198	0.03334167
31.78335	-0.1931916	0.06349228	0	0	0	0
31.79986	-0.1931916	0.06349228	0	0	0	0
31.81688	-0.1931916	0.06349228	0	0	0	0
31.83299	-0.1931916	0.06349228	0	0	0	0
31.84956	-0.193217	0.06351078	-0.001530117	0.001116778	-0.04682866	0.03417859
31.8664	-0.193217	0.06351078	0	0	0.04579676	-0.03342544
31.88342	-0.193217	0.06351078	0	0	0	0
31.89926	-0.1931916	0.06349228	0.001600128	-0.001167877	0.04870126	-0.03554533
31.91583	-0.1931916	0.06349228	0	0	-0.04937484	0.03603695
31.93297	-0.1931916	0.06349228	0	0	0	0
31.94897	-0.1897169	0.06103121	0.2170817	-0.1537544	6.549278	-4.638714
31.96553	-0.1897169	0.06103121	0	0	-6.667058	4.722135
31.98215	-0.1897169	0.06103121	0	0	0	0
31.99866	-0.1359716	0.0220371	3.254567	-2.361301	98.21171	-71.256
32.01522	-0.1359716	0.0220371	0	0	-98.40428	71.39572
32.03179	-0.1359716	0.0220371	0	0	0	0
32.04836	-0.05074587	-0.03966756	5.144235	-3.724501	155.2533	-112.4057
32.06493	-0.05074587	-0.03966756	0	0	-155.2533	112.4057
32.08149	-0.05074587	-0.03966756	0	0	0	0
32.09826	0.006210446	-0.08124886	3.396441	-2.479592	101.8831	-74.38039
32.11473	0.006210446	-0.08124886	0	0	-102.1872	74.60234
32.1312	0.006210446	-0.08124886	0	0	0	0
32.14776	0.01563031	-0.08818133	0.5685839	-0.418445	17.2134	-12.66807
32.16433	0.01563031	-0.08818133	0	0	-17.1599	12.62869
32.18131	0.01563031	-0.08818133	0	0	0	0
32.19746	0.01570923	-0.08827828	0.004886733	-0.006002377	0.1474819	-0.1811521
32.21432	0.01570923	-0.08827828	0	0	-0.1480444	0.181843
32.23588	0.01570923	-0.08827828	0	0	0	0
32.24965	0.01573554	-0.08829767	0.001910913	-0.001408696	0.05409074	-0.03987488
32.26622	0.01573554	-0.08829767	0	0	-0.06299476	0.04643879
32.28278	0.01573554	-0.08829767	0	0	0	0
32.29935	0.01570923	-0.08831706	-0.001587954	-0.001170166	-0.04792455	-0.03531568
32.31592	0.01570923	-0.08831706	0	0	0.04792455	0.03531568
32.33249	0.01570923	-0.08831706	0	0	0	0
32.34905	0.01570923	-0.08831706	0	0	0	0
32.36562	0.01570923	-0.08831706	0	0	0	0
32.38219	0.01570923	-0.08831706	0	0	0	0
32.39875	0.01568292	-0.08833645	-0.001588066	-0.001170616	-0.04792794	-0.03532926
32.41544	0.01568292	-0.08833645	0	0	0.04775202	0.03519958
32.43199	0.01568292	-0.08833645	0	0	0	0
32.44846	0.01568292	-0.08833645	0	0	0	0
32.46502	0.01568292	-0.08833645	0	0	0	0
32.48159	0.01568292	-0.08833645	0	0	0	0
32.49855	0.01568292	-0.08833645	0	0	0	0
32.51472	0.01568292	-0.08833645	0	0	0	0
32.53129	0.01568292	-0.08833645	0	0	0	0
32.54786	0.01568292	-0.08833645	0	0	0	0
32.56443	0.01568292	-0.08833645	0	0	0	0
32.58099	0.01568292	-0.08833645	0	0	0	0
32.59756	0.01568292	-0.08837523	0	-0.002340782	0	-0.07064494
32.6151	0.01568292	-0.08837523	0	0	0	0.06862245
32.63111	0.01568292	-0.08837523	0	0	0	0
32.64726	0.01570923	-0.08839462	0.001629334	-0.001200574	0.05066669	-0.03733373
32.66383	0.01570923	-0.08839462	0	0	-0.04980413	0.03669815
32.6804	0.01570923	-0.08839462	0	0	0	0
32.69696	0.01570923	-0.08843341	0	-0.002341232	0	-0.07065851
32.71353	0.01570923	-0.08843341	0	0	0	0.07065851
32.73019	0.01570923	-0.08843341	0	0	0	0
32.74666	0.01570923	-0.08847219	0	-0.002353789	0	-0.07104568
32.76323	0.01570923	-0.08847219	0	0	0	0.07123432
32.77979	0.01570923	-0.08847219	0	0	0	0
32.80126	0.01565661	-0.08851097	-0.002451385	-0.001806649	-0.06446142	-0.0475075
32.81783	0.01565661	-0.08851097	0	0	0.06445496	0.04750273
32.83439	0.01565661	-0.08851097	0	0	0	0
32.85096	0.01565661	-0.08851097	0	0	0	0
32.86753	0.01565661	-0.08851097	0	0	0	0
32.88409	0.01563031	-0.08853036	-0.001587954	-0.001170616	-0.04792455	-0.03532926
32.90066	0.01563031	-0.08853036	0	0	0.04792455	0.03532926
32.91723	0.01563031	-0.08853036	0	0	0	0
32.93384	0.015604	-0.08854976	-0.001583691	-0.00116739	-0.04772994	-0.0351833
32.95036	0.015604	-0.08854976	0	0	0.04779588	0.03523191
32.96738	0.015604	-0.08854976	0	0	0	0
32.98388	0.01557769	-0.08860793	-0.001593939	-0.003524382	-0.04755223	-0.1051435
33.00006	0.01557769	-0.08860793	0	0	0.04876768	0.1078309
33.01663	0.01557769	-0.08860793	0	0	0	0
33.03341	0.01541983	-0.08876307	-0.009409073	-0.009247367	-0.2821796	-0.27733
33.04976	0.01541983	-0.08876307	0	0	0.2839664	0.2790861
33.06754	0.01541983	-0.08876307	0	0	0	0
33.0829	0.0153409	-0.08889883	-0.00514054	-0.008841712	-0.1551418	-0.2668434
33.09946	0.0153409	-0.08889883	0	0	0.1610375	0.2769839
33.11603	0.0153409	-0.08889883	0	0	0	0
33.1326	0.01523566	-0.0890152	-0.006352209	-0.007024144	-0.1917101	-0.2119891
33.14931	0.01523566	-0.0890152	0	0	0.190875	0.2110657
33.16573	0.01523566	-0.0890152	0	0	0	0
33.18233	0.01520935	-0.08907339	-0.001584782	-0.003505034	-0.04798904	-0.1061365
33.19887	0.01520935	-0.08907339	0	0	0.04782882	0.1057821
33.21544	0.01520935	-0.08907339	0	0	0	0
33.232	0.01515673	-0.08911218	-0.003176133	-0.002341232	-0.09585588	-0.07065851
33.24857	0.01515673	-0.08911218	0	0	0.09585588	0.07065851
33.2654	0.01515673	-0.08911218	0	0	0	0
33.2817	0.01510411	-0.08915097	-0.003226654	-0.002378929	-0.09738061	-0.07179622
33.29842	0.01510411	-0.08915097	0	0	0.09769554	0.07202841
33.31495	0.01510411	-0.08915097	0	0	0	0
33.33141	0.01510411	-0.08918977	0	-0.002357423	0	-0.07147632
33.34798	0.01510411	-0.08918977	0	0	0	0.07137726
33.36454	0.01510411	-0.08918977	0	0	0	0
33.38111	0.0150778	-0.08920916	-0.001588066	-0.001170616	-0.04793346	-0.03533332
33.39767	0.0150778	-0.08920916	0	0	0.04792794	0.03532926
33.41424	0.0150778	-0.08920916	0	0	0	0
33.43081	0.0150515	-0.08922856	-0.00158801	-0.001171065	-0.04792624	-0.03534283
33.44738	0.0150515	-0.08922856	0	0	0.04792624	0.03534283
33.46394	0.0150515	-0.08922856	0	0	0	0
33.48051	0.0150515	-0.08926735	0	-0.002341232	0	-0.07065851
33.49708	0.0150515	-0.08926735	0	0	0	0.07065851
33.51365	0.0150515	-0.08926735	0	0	0	0
33.53021	0.0150778	-0.08928675	0.00158801	-0.001171065	0.04792624	-0.03534283
33.54678	0.0150778	-0.08928675	0	0	-0.04792624	0.03534283
33.56335	0.0150778	-0.08928675	0	0	0	0
33.57991	0.0150515	-0.08930615	-0.00158801	-0.001170616	-0.04792624	-0.03532926
33.59648	0.0150515	-0.08930615	0	0	0.04792624	0.03532926
33.61367	0.0150515	-0.08930615	0	0	0	0
33.63061	0.01502519	-0.08932555	-0.001553722	-0.001145739	-0.04552861	-0.03357352
33.64769	0.01502519	-0.08932555	0	0	0.04567156	0.03367893
33.66374	0.01502519	-0.08932555	0	0	0	0
33.68031	0.01502519	-0.08932555	0	0	0	0
33.69688	0.01502519	-0.08932555	0	0	0	0
33.71344	0.01502519	-0.08932555	0	0	0	0
33.73025	0.01502519	-0.08936434	0	-0.002308198	0	-0.06915994
33.74657	0.01502519	-0.08936434	0	0	0	0.06966958
33.76326	0.01502519	-0.08936434	0	0	0	0
33.77979	0.01491995	-0.08944193	-0.006365513	-0.004693088	-0.1916482	-0.1412961
33.79627	0.01491995	-0.08944193	0	0	0.1927997	0.142145
33.81284	0.01491995	-0.08944193	0	0	0	0
33.82941	0.01436743	-0.08988813	-0.03334973	-0.02693271	-1.006497	-0.8128307
33.84597	0.01436743	-0.08988813	0	0	1.006497	0.8128307
33.86254	0.01436743	-0.08988813	0	0	0	0
33.87911	0.01213098	-0.09161544	-0.1349923	-0.1042604	-4.074075	-3.146584
33.89568	0.01213098	-0.09161544	0	0	4.074075	3.146584
33.91224	0.01213098	-0.09161544	0	0	0	0
33.92881	0.0121573	-0.09163485	0.001588179	-0.001171965	0.04793134	-0.03536997
33.94538	0.0121573	-0.09163485	0	0	-0.04793134	0.03536997
33.96194	0.0121573	-0.09163485	0	0	0	0
33.97887	0.01220992	-0.09167369	0.003109766	-0.00229479	0.09285869	-0.06852322
33.99508	0.01220992	-0.09167369	0	0	-0.09385292	0.06925689
34.01189	0.01220992	-0.09167369	0	0	0	0
34.0284	0.01228886	-0.09173193	0.004781106	-0.003527629	0.1434846	-0.1058668
34.0449	0.01228886	-0.09173193	0	0	-0.1448444	0.1068701
34.06134	0.01228886	-0.09173193	0	0	0	0
34.07792	0.01244673	-0.09184843	0.009524687	-0.007028553	0.2884519	-0.2128573
34.09447	0.01244673	-0.09184843	0	0	-0.2874887	0.2121466
34.11104	0.01244673	-0.09184843	0	0	0	0
34.12761	0.01607756	-0.0944903	0.2191577	-0.1594637	6.614192	-4.812624
34.14448	0.01607756	-0.0944903	0	0	-6.553829	4.768703
34.16886	0.01607756	-0.0944903	0	0	0	0
34.18542	0.03524855	-0.108697	1.157163	-0.8575181	28.26269	-20.94412
34.20201	0.03524855	-0.108697	0	0	-34.90718	25.86804
34.21856	0.03524855	-0.108697	0	0	0	0
34.23513	0.04641401	-0.1170156	0.6739484	-0.5021114	20.34917	-15.16074
34.25169	0.04641401	-0.1170156	0	0	-20.3398	15.15375
34.26826	0.04641401	-0.1170156	0	0	0	0
34.28483	0.04822574	-0.1183687	0.1093561	-0.08167507	3.300374	-2.464959
34.3014	0.04822574	-0.1183687	0	0	-3.300374	2.464959
34.31796	0.04822574	-0.1183687	0	0	0	0
34.33462	0.04812072	-0.1182903	-0.006304162	0.004709952	-0.1897357	0.1417549
34.3511	0.04812072	-0.1182903	0	0	0.19026	-0.1421466
34.36766	0.04812072	-0.1182903	0	0	0	0
34.38423	0.04791068	-0.1180549	-0.01267822	0.01420704	-0.3826295	0.4287693
34.40116	0.04791068	-0.1180549	0	0	0.3785331	-0.4241788
34.41737	0.04791068	-0.1180549	0	0	0	0
34.43646	0.04788442	-0.1180745	-0.001375187	-0.001027098	-0.03895582	-0.02909526
34.45303	0.04788442	-0.1180745	0	0	0.03855996	0.02879961
34.4696	0.04788442	-0.1180745	0	0	0	0
34.48628	0.04788442	-0.1180745	0	0	0	0
34.5028	0.04788442	-0.1180745	0	0	0	0
34.5193	0.04788442	-0.1180745	0	0	0	0
34.53586	0.04793693	-0.1181137	0.003171072	-0.002368856	0.09591296	-0.07164893
34.55244	0.04793693	-0.1181137	0	0	-0.09570315	0.07149221
34.569	0.04793693	-0.1181137	0	0	0	0
34.58557	0.04793693	-0.1181137	0	0	0	0
34.60239	0.04793693	-0.1181137	0	0	0	0
34.61871	0.04793693	-0.1181137	0	0	0	0
34.63538	0.04791068	-0.1180941	-0.001574294	0.001175806	-0.04771554	0.03563771
34.65192	0.04791068	-0.1180941	0	0	0.04740313	-0.03540438
34.66842	0.04791068	-0.1180941	0	0	0	0
34.68497	0.04791068	-0.1180941	0	0	0	0
34.70154	0.04791068	-0.1180941	0	0	0	0
34.71811	0.04791068	-0.1180941	0	0	0	0
34.73467	0.04791068	-0.1180941	0	0	0	0
34.75164	0.04791068	-0.1180941	0	0	0	0
34.76781	0.04791068	-0.1180941	0	0	0	0
34.78437	0.04793693	-0.1180745	0.001584806	0.001184107	0.04840916	0.0361695
34.80094	0.04793693	-0.1180745	0	0	-0.04782954	-0.03573643
34.81771	0.04793693	-0.1180745	0	0	0	0
34.83419	0.04793693	-0.1180745	0	0	0	0
34.85064	0.04793693	-0.1180745	0	0	0	0
34.86721	0.04793693	-0.1180745	0	0	0	0
34.88378	0.04793693	-0.1180745	0	0	0	0
34.90034	0.04793693	-0.1180745	0	0	0	0
34.91691	0.04793693	-0.1180745	0	0	0	0
34.93377	0.04793693	-0.1180745	0	0	0	0
34.95005	0.04793693	-0.1180745	0	0	0	0
34.96678	0.04793693	-0.1180745	0	0	0	0
34.98592	0.04793693	-0.1180745	0	0	0	0
35.00249	0.04793693	-0.1180745	0	0	0	0
35.01906	0.04793693	-0.1180745	0	0	0	0
35.03638	0.04793693	-0.1180745	0	0	0	0
35.05241	0.04793693	-0.1180745	0	0	0	0
35.06876	0.04793693	-0.1180745	0	0	0	0
35.08542	0.04793693	-0.1180745	0	0	0	0
35.10189	0.04793693	-0.1180745	0	0	0	0
35.11847	0.04793693	-0.1180745	0	0	0	0
35.13503	0.04793693	-0.1180745	0	0	0	0
35.15159	0.04793693	-0.1180745	0	0	0	0
35.16816	0.04793693	-0.1180745	0	0	0	0
35.18473	0.04793693	-0.1180745	0	0	0	0
35.20129	0.04793693	-0.1180745	0	0	0	0
35.21786	0.04793693	-0.1180745	0	0	0	0
35.2377	0.04793693	-0.1180745	0	0	0	0
35.25427	0.04793693	-0.1180745	0	0	0	0
35.27083	0.04793693	-0.1180745	0	0	0	0
35.28757	0.04793693	-0.1180745	0	0	0	0
35.30397	0.04793693	-0.1180745	0	0	0	0
35.3206	0.04793693	-0.1180745	0	0	0	0
35.3371	0.04793693	-0.1180745	0	0	0	0
35.35367	0.04793693	-0.1180745	0	0	0	0
35.37024	0.04793693	-0.1180745	0	0	0	0
35.3868	0.04793693	-0.1180745	0	0	0	0
35.40337	0.04793693	-0.1180745	0	0	0	0
35.42017	0.04793693	-0.1180745	0	0	0	0
35.4365	0.04793693	-0.1180745	0	0	0	0
35.45307	0.04793693	-0.1180745	0	0	0	0
35.4697	0.04793693	-0.1180745	0	0	0	0
35.48696	0.04793693	-0.1180745	0	0	0	0
35.50371	0.04793693	-0.1180745	0	0	0	0
35.52025	0.04793693	-0.1180745	0	0	0	0
35.53983	0.04793693	-0.1180745	0	0	0	0
35.5564	0.04793693	-0.1180745	0	0	0	0
35.57296	0.04793693	-0.1180745	0	0	0	0
35.5898	0.04793693	-0.1180745	0	0	0	0
35.60629	0.04793693	-0.1180745	0	0	0	0
35.62266	0.04793693	-0.1180745	0	0	0	0
35.63923	0.04793693	-0.1180745	0	0	0	0
35.6558	0.04793693	-0.1180745	0	0	0	0
35.67236	0.04793693	-0.1180745	0	0	0	0
35.68893	0.04793693	-0.1180745	0	0	0	0
35.7055	0.04793693	-0.1180745	0	0	0	0
35.7224	0.04793693	-0.1180745	0	0	0	0
35.73889	0.04793693	-0.1180745	0	0	0	0
35.7552	0.04793693	-0.1180745	0	0	0	0
35.77176	0.04793693	-0.1180745	0	0	0	0
35.78833	0.04793693	-0.1180745	0	0	0	0
35.80803	0.04793693	-0.1180745	0	0	0	0
35.82151	0.04793693	-0.1180745	0	0	0	0
35.83803	0.04793693	-0.1180745	0	0	0	0
35.8546	0.04793693	-0.1180745	0	0	0	0
35.87117	0.04793693	-0.1180745	0	0	0	0
35.88773	0.04793693	-0.1180745	0	0	0	0
35.9043	0.04793693	-0.1180745	0	0	0	0
35.92109	0.04793693	-0.1180745	0	0	0	0
35.93744	0.04793693	-0.1180745	0	0	0	0
35.9541	0.04793693	-0.1180745	0	0	0	0
35.97063	0.04793693	-0.1180745	0	0	0	0
35.98764	0.04793693	-0.1180745	0	0	0	0
36.00414	0.04793693	-0.1180745	0	0	0	0
36.02066	0.04793693	-0.1180745	0	0	0	0
36.03715	0.04793693	-0.1180745	0	0	0	0
36.05367	0.04793693	-0.1180745	0	0	0	0
36.07018	0.04793693	-0.1180745	0	0	0	0
36.08653	0.04793693	-0.1180745	0	0	0	0
36.1031	0.04793693	-0.1180745	0	0	0	0
36.11967	0.04793693	-0.1180745	0	0	0	0
36.13623	0.04793693	-0.1180745	0	0	0	0
36.1528	0.04793693	-0.1180745	0	0	0	0
36.16937	0.04793693	-0.1180745	0	0	0	0
36.18593	0.04793693	-0.1180745	0	0	0	0
36.2025	0.04793693	-0.1180745	0	0	0	0
36.21907	0.04793693	-0.1180745	0	0	0	0
36.23577	0.04793693	-0.1180745	0	0	0	0
36.25279	0.04793693	-0.1180745	0	0	0	0
36.26878	0.04793693	-0.1180745	0	0	0	0
36.28533	0.04793693	-0.1180745	0	0	0	0
36.3019	0.04793693	-0.1180745	0	0	0	0
36.31847	0.04793693	-0.1180745	0	0	0	0
36.33532	0.04796319	-0.1180941	0.00155755	-0.001163743	0.04659922	-0.03481718
36.3516	0.04796319	-0.1180941	0	0	-0.04701236	0.03512586
36.36835	0.04796319	-0.1180941	0	0	0	0
36.38486	0.04796319	-0.1180941	0	0	0	0
36.4013	0.04796319	-0.1180941	0	0	0	0
36.41787	0.04796319	-0.1180941	0	0	0	0
36.43444	0.04796319	-0.1180941	0	0	0	0
36.45142	0.04796319	-0.1180941	0	0	0	0
36.46757	0.04796319	-0.1180941	0	0	0	0
36.48812	0.04796319	-0.1180941	0	0	0	0
36.50469	0.04796319	-0.1180941	0	0	0	0
36.52126	0.04796319	-0.1180941	0	0	0	0
36.53796	0.04796319	-0.1180941	0	0	0	0
36.55455	0.04796319	-0.1180941	0	0	0	0
36.57095	0.04796319	-0.1180941	0	0	0	0
36.58752	0.04796319	-0.1180941	0	0	0	0
36.60409	0.04796319	-0.1180941	0	0	0	0
36.62066	0.04793693	-0.1180745	-0.001584806	0.001184107	-0.04782954	0.03573643
36.63897	0.04793693	-0.1180745	0	0	0.04543885	-0.03395019
36.65395	0.04793693	-0.1180745	0	0	0	0
36.67045	0.04840952	-0.1175646	0.0286441	0.03090544	0.9097261	0.9815453
36.68692	0.04840952	-0.1175646	0	0	-0.8688821	-0.9374768
36.70349	0.04840952	-0.1175646	0	0	0	0
36.72005	0.05205819	-0.1129606	0.2202341	0.277901	6.646677	8.387068
36.73662	0.05205819	-0.1129606	0	0	-6.646677	-8.387068
36.75319	0.05205819	-0.1129606	0	0	0	0
36.76976	0.07792086	-0.0789484	1.561074	2.052978	47.11331	61.95898
36.78632	0.07792086	-0.0789484	0	0	-47.11331	-61.95898
36.80307	0.07792086	-0.0789484	0	0	0	0
36.81945	0.1046947	-0.01807188	1.634516	3.716445	49.33548	112.1754
36.83602	0.1046947	-0.01807188	0	0	-49.60966	-112.7989
36.85259	0.1046947	-0.01807188	0	0	0	0
36.86916	0.1111973	0.04139864	0.3923147	3.587996	11.83736	108.261
36.88572	0.1111973	0.04139864	0	0	-11.84008	-108.2859
36.90229	0.1111973	0.04139864	0	0	0	0
36.92334	0.09701031	0.09665823	-0.6741046	2.625697	-17.92216	69.80839
36.9399	0.09701031	0.09665823	0	0	17.92216	-69.80839
36.95647	0.09106324	0.1115391	-0.3589662	0.8982113	-10.83362	27.10807
36.97304	0.09106324	0.1115391	0	0	10.83362	-27.10807
36.9896	0.09106324	0.1115391	0	0	0	0
37.00617	0.08633746	0.1368897	-0.2852484	1.530164	-8.608814	46.18044
37.02274	0.08633746	0.1368897	0	0	8.608814	-46.18044
37.03931	0.08633746	0.1368897	0	0	0	0
37.05587	0.08667701	0.1639699	0.02049544	1.634565	0.6185538	49.33128
37.07244	0.08667701	0.1639699	0	0	-0.6185538	-49.33128
37.08901	0.08667701	0.1639699	0	0	0	0
37.10577	0.08281019	0.1883863	-0.2306407	1.456338	-6.919327	43.69081
37.12227	0.08281019	0.1883863	0	0	6.93361	-43.78099
37.13871	0.08281019	0.1883863	0	0	0	0
37.15531	0.07964694	0.2046704	-0.190495	0.9806563	-5.765745	29.6817
37.17184	0.07964694	0.2046704	0	0	5.74915	-29.59627
37.18914	0.07964694	0.2046704	0	0	0	0
37.20498	0.07412709	0.2182957	-0.3486742	0.8606673	-10.52301	25.97499
37.22154	0.07412709	0.2182957	0	0	10.76214	-26.56526
37.23811	0.07412709	0.2182957	0	0	0	0
37.25468	0.06087207	0.2273912	-0.8000743	0.5490049	-24.14629	16.569
37.27124	0.06087207	0.2273912	0	0	24.14629	-16.569
37.28781	0.06087207	0.2273912	0	0	0	0
37.30438	0.04704421	0.2368906	-0.8346513	0.5733904	-25.18983	17.30496
37.32095	0.04704421	0.2368906	0	0	25.18983	-17.30496
37.33751	0.04704421	0.2368906	0	0	0	0
37.35408	0.04636149	0.2380752	-0.041209	0.07149976	-1.24369	2.157867
37.37065	0.04636149	0.2380752	0	0	1.243547	-2.157619
37.38738	0.04636149	0.2380752	0	0	0	0
37.40378	0.05245185	0.2420228	0.3712907	0.2406577	11.20686	7.2639
37.42041	0.05245185	0.2420228	0	0	-11.24181	-7.286552
37.43692	0.05245185	0.2420228	0	0	0	0
37.45348	0.05284549	0.2417537	0.02376587	-0.01624665	0.718579	-0.4912299
37.47549	0.05284549	0.2417537	0	0	-0.6161076	0.4211791
37.48661	0.05284549	0.2417537	0	0	0	0
37.50353	0.05344905	0.2413769	0.03567503	-0.02226959	1.27238	-0.7942638
37.51974	0.05344905	0.2413769	0	0	-1.076674	0.6720975
37.53655	0.05344905	0.2413769	0	0	0	0
37.55288	0.05436742	0.2415384	0.05626246	0.00989206	1.6982	0.2985773
37.56944	0.05436742	0.2415384	0	0	-1.710608	-0.300759
37.58601	0.05436742	0.2415384	0	0	0	0
37.60257	0.07496452	0.2495371	1.24353	0.482914	37.53413	14.57605
37.61914	0.07496452	0.2495371	0	0	-37.53413	-14.57605
37.63571	0.07496452	0.2495371	0	0	0	0
37.65227	0.09708852	0.2539286	1.335715	0.2651347	40.31659	8.002702
37.66884	0.09708852	0.2539286	0	0	-40.31659	-8.002702
37.68566	0.09708852	0.2539286	0	0	0	0
37.70216	0.1073229	0.2516882	0.6203179	-0.135793	18.61835	-4.075717
37.71854	0.1073229	0.2516882	0	0	-18.86457	4.129619
37.73519	0.1073229	0.2516882	0	0	0	0
37.75346	0.1073749	0.2517599	0.002846728	0.003923372	0.08151311	0.1123417
37.77003	0.1073749	0.2517599	0	0	-0.08170052	-0.1126
37.7867	0.1073749	0.2517599	0	0	0	0
37.80317	0.1073749	0.2517599	0	0	0	0
37.81973	0.1073749	0.2517599	0	0	0	0
37.83631	0.1073749	0.2517599	0	0	0	0
37.85321	0.1082593	0.2511505	0.05234454	-0.03607262	1.563739	-1.077632
37.86974	0.1082593	0.2511505	0	0	-1.56588	1.079108
37.886	0.1082593	0.2511505	0	0	0	0
37.90257	0.1203627	0.2427941	0.7307346	-0.5045045	22.26121	-15.3693
37.91974	0.1203627	0.2427941	0	0	-21.65717	14.95227
37.93575	0.1203627	0.2427941	0	0	0	0
37.95226	0.1212704	0.2421663	0.05497722	-0.03802998	1.690551	-1.169423
37.96883	0.1212704	0.2421663	0	0	-1.661894	1.1496
37.9854	0.1212704	0.2421663	0	0	0	0
38.00196	0.1212704	0.2421663	0	0	0	0
38.01853	0.1212704	0.2421663	0	0	0	0
38.03532	0.1212704	0.2421663	0	0	0	0
38.05167	0.1212704	0.2421663	0	0	0	0
38.06837	0.1212704	0.2421663	0	0	0	0
38.0849	0.1212704	0.2421663	0	0	0	0
38.10139	0.1212445	0.2421842	-0.001573439	0.001088434	-0.04765105	0.03296286
38.11794	0.1212445	0.2421842	0	0	0.04763454	-0.03295144
38.1345	0.1212445	0.2421842	0	0	0	0
38.15142	0.1211926	0.2422201	-0.003065547	0.002120913	-0.09155917	0.06334564
38.16763	0.1211926	0.2422201	0	0	0.09252906	-0.06401666
38.18496	0.1211926	0.2422201	0	0	0	0
38.20097	0.1211148	0.2422739	-0.004860004	0.003362577	-0.145769	0.1008558
38.21733	0.1211148	0.2422739	0	0	0.1501498	-0.1038868
38.23389	0.1211148	0.2422739	0	0	0	0
38.25046	0.1210889	0.2422919	-0.001565468	0.001082921	-0.04725136	0.03268638
38.26703	0.1210889	0.2422919	0	0	0.04724592	-0.03268262
38.2836	0.1210889	0.2422919	0	0	0	0
38.30255	0.1210889	0.242256	0	-0.001892986	0	-0.05328985
38.31912	0.1210889	0.242256	0	0	0	0.05328985
38.33569	0.1210889	0.242256	0	0	0	0
38.35225	0.1211148	0.242238	0.001565468	-0.001082921	0.04724592	-0.03268262
38.36882	0.1211148	0.242238	0	0	-0.04724592	0.03268262
38.38543	0.1211148	0.242238	0	0	0	0
38.40195	0.121063	0.2421304	-0.00313916	-0.006514626	-0.09475096	-0.1966344
38.41852	0.121063	0.2421304	0	0	0.09487111	0.1968838
38.43548	0.121063	0.2421304	0	0	0	0
38.45165	0.1205184	0.2413948	-0.03367908	-0.04548814	-1.016554	-1.372993
38.46822	0.1205184	0.2413948	0	0	1.028754	1.389471
38.48501	0.1205184	0.2413948	0	0	0	0
38.50152	0.1310085	0.2304988	0.6355253	-0.6601174	19.08352	-19.82197
38.51792	0.1310085	0.2304988	0	0	-19.3136	20.06096
38.53455	0.1310085	0.2304988	0	0	0	0
38.55105	0.1548041	0.2139063	1.44195	-1.005458	43.51813	-30.3448
38.56797	0.1548041	0.2139063	0	0	-43.14066	30.08159
38.58419	0.1548041	0.2139063	0	0	0	0
38.60075	0.1593993	0.2097128	0.2774319	-0.2531829	8.464515	-7.724673
38.61732	0.1593993	0.2097128	0	0	-8.373876	7.641956
38.63411	0.1593993	0.2097128	0	0	0	0
38.65045	0.1236294	0.1809081	-2.18932	-1.763008	-66.0738	-53.2077
38.66764	0.1236294	0.1809081	0	0	65.29204	52.57816
38.68365	0.1236294	0.1809081	0	0	0	0
38.70018	0.08006532	0.1015199	-2.634995	-4.801834	-80.97868	-147.57
38.71672	0.08006532	0.1015199	0	0	79.68025	145.2038
38.73329	0.08006532	0.1015199	0	0	0	0
38.74986	0.03947948	0.02678444	-2.449766	-4.511042	-73.9341	-136.1435
38.76642	0.03947948	0.02678444	0	0	73.9341	136.1435
38.78299	0.03947948	0.02678444	0	0	0	0
38.79956	0.005394685	-0.01746625	-2.057362	-2.670976	-62.09131	-80.61023
38.81612	0.005394685	-0.01746625	0	0	62.09131	80.61023
38.83269	0.005394685	-0.01746625	0	0	0	0
38.84931	-0.007578802	-0.05081985	-0.7807443	-2.007219	-23.52769	-60.48747
38.86583	-0.007578802	-0.05081985	0	0	23.56291	60.578
38.88308	-0.007578802	-0.05081985	0	0	0	0
38.89896	0.005052588	-0.07333101	0.7952073	-1.417186	23.9994	-42.77077
38.91558	0.005052588	-0.07333101	0	0	-24.467	43.6041
38.93211	0.005052588	-0.07333101	0	0	0	0
38.94866	0.01912924	-0.08405457	0.8504519	-0.6478721	25.70516	-19.58213
38.96523	0.01912924	-0.08405457	0	0	-25.67851	19.56183
38.98179	0.01912924	-0.08405457	0	0	0	0
38.99914	0.02822934	-0.09076136	0.5245241	-0.3865753	15.46691	-11.39915
39.01517	0.02822934	-0.09076136	0	0	-15.71618	11.58286
39.03149	0.02822934	-0.09076136	0	0	0	0
39.04818	0.02822934	-0.09080017	0	-0.002325978	0	-0.07045773
39.06463	0.02822934	-0.09080017	0	0	0	0.07019816
39.0812	0.02822934	-0.09080017	0	0	0	0
39.09776	0.02822934	-0.09080017	0	0	0	0
39.11472	0.02822934	-0.09080017	0	0	0	0
39.13709	0.02822934	-0.09080017	0	0	0	0
39.14837	0.02822934	-0.09080017	0	0	0	0
39.16494	0.02822934	-0.09080017	0	0	0	0
39.18151	0.02822934	-0.09080017	0	0	0	0
39.19807	0.02820305	-0.09078076	-0.001587167	0.001171515	-0.0479008	0.0353564
39.21464	0.02820305	-0.09078076	0	0	0.0479008	-0.0353564
39.23121	0.02820305	-0.09078076	0	0	0	0
39.24778	0.02820305	-0.09078076	0	0	0	0
39.26434	0.02820305	-0.09078076	0	0	0	0
39.28136	0.02820305	-0.09078076	0	0	0	0
39.29747	0.02817675	-0.09083898	-0.001631495	-0.003612703	-0.04924428	-0.1090442
39.31404	0.02817675	-0.09083898	0	0	0.04991674	0.1105332
39.33061	0.02817675	-0.09083898	0	0	0	0
39.34874	0.02801898	-0.09095544	-0.008701536	-0.006422753	-0.2507757	-0.1851018
39.36541	0.02801898	-0.09095544	0	0	0.2500609	0.1845742
39.38192	0.02801898	-0.09095544	0	0	0	0
39.39844	0.02801898	-0.09095544	0	0	0	0
39.41501	0.02801898	-0.09095544	0	0	0	0
39.43158	0.02801898	-0.09095544	0	0	0	0
39.44814	0.02801898	-0.09095544	0	0	0	0
39.46471	0.02801898	-0.09095544	0	0	0	0
39.48127	0.02801898	-0.09095544	0	0	0	0
39.49784	0.02801898	-0.09095544	0	0	0	0
39.51452	0.02801898	-0.09095544	0	0	0	0
39.53154	0.02801898	-0.09095544	0	0	0	0
39.54802	0.02801898	-0.09095544	0	0	0	0
39.56411	0.02801898	-0.09095544	0	0	0	0
39.58106	0.02801898	-0.09095544	0	0	0	0
39.59758	0.02801898	-0.09095544	0	0	0	0
39.61381	0.02801898	-0.09095544	0	0	0	0
39.6311	0.02801898	-0.09095544	0	0	0	0
39.64948	0.02801898	-0.09095544	0	0	0	0
39.66604	0.02801898	-0.09095544	0	0	0	0
39.68263	0.02801898	-0.09095544	0	0	0	0
39.70271	0.02801898	-0.09095544	0	0	0	0
39.71927	0.02801898	-0.09095544	0	0	0	0
39.73584	0.02799269	-0.09093603	-0.001587167	0.001171515	-0.0479008	0.0353564
39.75241	0.02799269	-0.09093603	0	0	0.0479008	-0.0353564
39.76897	0.02799269	-0.09093603	0	0	0	0
39.78621	0.02801898	-0.09095544	0.00152569	-0.001126138	0.04513603	-0.03331568
39.80275	0.02801898	-0.09095544	0	0	-0.04517682	0.03334579
39.81876	0.02801898	-0.09095544	0	0	0	0
39.83526	0.02801898	-0.09095544	0	0	0	0
39.85181	0.02801898	-0.09095544	0	0	0	0
39.86838	0.02801898	-0.09095544	0	0	0	0
39.88494	0.02801898	-0.09095544	0	0	0	0
39.90151	0.02801898	-0.09095544	0	0	0	0
39.91832	0.02801898	-0.09095544	0	0	0	0
39.93465	0.02801898	-0.09095544	0	0	0	0
39.95121	0.02801898	-0.09095544	0	0	0	0
39.96833	0.02801898	-0.09095544	0	0	0	0
39.98436	0.02801898	-0.09095544	0	0	0	0
40.00092	0.02801898	-0.09095544	0	0	0	0
40.01748	0.02801898	-0.09095544	0	0	0	0
40.03405	0.02801898	-0.09095544	0	0	0	0
40.05062	0.02801898	-0.09095544	0	0	0	0
40.0674	0.02801898	-0.09095544	0	0	0	0
40.08392	0.02801898	-0.09095544	0	0	0	0
40.10032	0.02801898	-0.09095544	0	0	0	0
40.11693	0.02801898	-0.09095544	0	0	0	0
40.13345	0.02801898	-0.09095544	0	0	0	0
40.15045	0.02801898	-0.09095544	0	0	0	0
40.16658	0.02801898	-0.09095544	0	0	0	0
40.18315	0.02801898	-0.09095544	0	0	0	0
40.19972	0.02801898	-0.09095544	0	0	0	0
40.21629	0.02801898	-0.09095544	0	0	0	0
40.23285	0.02801898	-0.09095544	0	0	0	0
40.24942	0.02801898	-0.09095544	0	0	0	0
40.26599	0.02801898	-0.09095544	0	0	0	0
40.28267	0.02801898	-0.09095544	0	0	0	0
40.29912	0.02801898	-0.09095544	0	0	0	0
40.3157	0.02801898	-0.09095544	0	0	0	0
40.33225	0.02801898	-0.09095544	0	0	0	0
40.34882	0.02801898	-0.09095544	0	0	0	0
40.36539	0.02801898	-0.09095544	0	0	0	0
40.38195	0.02801898	-0.09095544	0	0	0	0
40.39852	0.02801898	-0.09095544	0	0	0	0
40.41509	0.02801898	-0.09095544	0	0	0	0
40.43166	0.02801898	-0.09095544	0	0	0	0
40.44822	0.02801898	-0.09095544	0	0	0	0
40.46481	0.02801898	-0.09095544	0	0	0	0
40.48136	0.02801898	-0.09095544	0	0	0	0
40.49792	0.02801898	-0.09095544	0	0	0	0
40.51449	0.02801898	-0.09095544	0	0	0	0
40.53106	0.02804528	-0.09097485	0.001587167	-0.001171965	0.0479008	-0.03536997
40.54788	0.02804528	-0.09097485	0	0	-0.04753957	0.03510324
40.56419	0.02804528	-0.09097485	0	0	0	0
40.58076	0.02804528	-0.09097485	0	0	0	0
40.59733	0.02804528	-0.09097485	0	0	0	0
40.6139	0.02804528	-0.09097485	0	0	0	0
40.63046	0.02801898	-0.09099426	-0.001587167	-0.001171515	-0.0479008	-0.0353564
40.64703	0.02801898	-0.09099426	0	0	0.0479008	0.0353564
40.6636	0.02801898	-0.09099426	0	0	0	0
40.68016	0.02801898	-0.09099426	0	0	0	0
40.69673	0.02801898	-0.09099426	0	0	0	0
40.7133	0.02801898	-0.09099426	0	0	0	0
40.72987	0.02799269	-0.09101367	-0.001587167	-0.001171515	-0.0479008	-0.0353564
40.74643	0.02799269	-0.09101367	0	0	0.0479008	0.0353564
40.76353	0.02799269	-0.09101367	0	0	0	0
40.77956	0.02799269	-0.09101367	0	0	0	0
40.79655	0.02799269	-0.09101367	0	0	0	0
40.8127	0.02799269	-0.09101367	0	0	0	0
40.82927	0.02799269	-0.09101367	0	0	0	0
40.84583	0.02799269	-0.09101367	0	0	0	0
40.8624	0.02799269	-0.09101367	0	0	0	0
40.87897	0.02799269	-0.09101367	0	0	0	0
40.89561	0.02799269	-0.09101367	0	0	0	0
40.9121	0.02799269	-0.09101367	0	0	0	0
40.92867	0.02796639	-0.09103308	-0.001587167	-0.001171515	-0.0480058	-0.03543391
40.94524	0.02796639	-0.09103308	0	0	0.0479008	0.0353564
40.9618	0.02796639	-0.09103308	0	0	0	0
40.97837	0.02796639	-0.09103308	0	0	0	0
40.99494	0.02796639	-0.09103308	0	0	0	0
41.01151	0.02796639	-0.09103308	0	0	0	0
41.02822	0.0279401	-0.09105249	-0.001573041	-0.001161089	-0.04726227	-0.03488509
41.04464	0.0279401	-0.09105249	0	0	0.04747448	0.03504173
41.06121	0.0279401	-0.09105249	0	0	0	0
41.07777	0.0279401	-0.09105249	0	0	0	0
41.09434	0.0279401	-0.09105249	0	0	0	0
41.11097	0.0279401	-0.09105249	0	0	0	0
41.12748	0.0279401	-0.09105249	0	0	0	0
41.14404	0.0279401	-0.09105249	0	0	0	0
41.16061	0.0279401	-0.09105249	0	0	0	0
