Time	Pos X	Pos Y	Vel X	Vel Y	Acc X	Acc Y
0.01656634	0.03690429	-0.1196833	-0.0005788301	0.001877189	9.081095E-06	-2.945066E-05
0.0348629	0.03690429	-0.1196833	0	0	-9.081342E-06	2.945146E-05
0.05143042	0.03690429	-0.1196833	0	0	0	0
0.06800071	0.03690429	-0.1196833	0	0	0	0
0.08499654	0.03690429	-0.1196833	0	0	0	0
0.1031644	0.03748244	-0.1192516	0.03182248	0.02376388	0.9049813	0.6758072
0.1197363	0.03748244	-0.1192516	0	0	-0.9160258	-0.6840548
0.1363022	0.03748244	-0.1192516	0	0	0	0
0.1528654	0.0401626	-0.1172509	0.1618146	0.1207932	4.884361	3.646133
0.1694337	0.0401626	-0.1172509	0	0	-4.884011	-3.645873
0.1864138	0.0401626	-0.1172509	0	0	0	0
0.2025652	0.04068806	-0.1168588	0.03253303	0.02427701	0.9819364	0.732747
0.2191331	0.04068806	-0.1168588	0	0	-0.994305	-0.7419767
0.2357018	0.04068806	-0.1168588	0	0	0	0
0.2522654	0.05722692	-0.1045771	0.998508	0.7414879	30.13701	22.37962
0.2689601	0.05722692	-0.1045771	0	0	-30.0229	-22.29488
0.2854711	0.05722692	-0.1045771	0	0	0	0
0.3019988	0.07153562	-0.09394617	0.8657427	0.6432189	26.20387	19.46863
0.3185335	0.07153562	-0.09394617	0	0	-26.18511	-19.45469
0.3351003	0.07153562	-0.09394617	0	0	0	0
0.351665	0.07365599	-0.0923727	0.1280048	0.09498876	3.86354	2.867024
0.3685333	0.07365599	-0.0923727	0	0	-3.828687	-2.841161
0.3855679	0.07365599	-0.0923727	0	0	0	0
0.4013652	0.07365599	-0.0923727	0	0	0	0
0.4179324	0.07365599	-0.0923727	0	0	0	0
0.4345804	0.07365599	-0.0923727	0	0	0	0
0.4510658	0.07336807	-0.09258633	-0.01746469	-0.01295875	-0.527101	-0.3911075
0.4676322	0.07336807	-0.09258633	0	0	0.5284042	0.3920745
0.4844322	0.07336807	-0.09258633	0	0	0	0
0.5007653	0.0725828	-0.09320788	-0.048079	-0.03805474	-1.451087	-1.148542
0.517332	0.0725828	-0.09320788	0	0	1.461377	1.156686
0.5338988	0.0725828	-0.09320788	0	0	0	0
0.5504655	0.07211158	-0.09355757	-0.02844323	-0.02110812	-0.8584431	-0.6370626
0.5670326	0.07211158	-0.09355757	0	0	0.8584338	0.6370558
0.5840139	0.07211158	-0.09355757	0	0	0	0
0.6001657	0.07205923	-0.09355757	-0.00324144	0	-0.09783089	0
0.6167321	0.07205923	-0.09355757	0	0	0.09907151	0
0.6335593	0.07205923	-0.09355757	0	0	0	0
0.6542315	0.07205923	-0.09355757	0	0	0	0
0.6707999	0.07205923	-0.09355757	0	0	0	0
0.6873666	0.07205923	-0.09355757	0	0	0	0
0.7039334	0.07205923	-0.09355757	0	0	0	0
0.7204997	0.07205923	-0.09355757	0	0	0	0
0.7370905	0.07205923	-0.09355757	0	0	0	0
0.7536328	0.07205923	-0.09355757	0	0	0	0
0.7701995	0.07205923	-0.09355757	0	0	0	0
0.7867663	0.07205923	-0.09355757	0	0	0	0
0.8033334	0.07205923	-0.09355757	0	0	0	0
0.8199017	0.07205923	-0.09355757	0	0	0	0
0.8364665	0.07208541	-0.093577	0.001580542	-0.001172588	0.04770282	-0.03539023
0.8531635	0.07208541	-0.093577	0	0	-0.04751827	0.03525331
0.8696884	0.07208541	-0.093577	0	0	0	0
0.8861963	0.07208541	-0.093577	0	0	0	0
0.902735	0.07208541	-0.093577	0	0	0	0
0.9193037	0.07208541	-0.093577	0	0	0	0
0.9358665	0.07208541	-0.093577	0	0	0	0
0.9524336	0.07208541	-0.093577	0	0	0	0
0.9690003	0.07208541	-0.093577	0	0	0	0
0.9855659	0.07208541	-0.093577	0	0	0	0
1.002137	0.07208541	-0.093577	0	0	0	0
1.019036	0.07208541	-0.093577	0	0	0	0
1.03556	0.07205923	-0.09355757	-0.00158447	0.001175502	-0.04740733	0.03517101
1.051838	0.07205923	-0.09355757	0	0	0.0483048	-0.03583683
1.068404	0.07205923	-0.09355757	0	0	0	0
1.084967	0.07208541	-0.093577	0.00158073	-0.001172727	0.04771407	-0.03539857
1.101596	0.07208541	-0.093577	0	0	-0.04762393	0.0353317
1.118101	0.07208541	-0.093577	0	0	0	0
1.134666	0.07208541	-0.093577	0	0	0	0
1.151233	0.07208541	-0.093577	0	0	0	0
1.16866	0.07208541	-0.093577	0	0	0	0
1.184366	0.07205923	-0.09355757	-0.001666907	0.001236661	-0.05030952	0.03732412
1.201669	0.07205923	-0.09355757	0	0	0.0504972	-0.03746335
1.2175	0.07205923	-0.09355757	0	0	0	0
1.234066	0.07205923	-0.09355757	0	0	0	0
1.250633	0.07205923	-0.09355757	0	0	0	0
1.267227	0.07205923	-0.09355757	0	0	0	0
1.283767	0.07208541	-0.093577	0.001582917	-0.00117435	0.04777391	-0.03544296
1.300334	0.07208541	-0.093577	0	0	-0.0478121	0.03547129
1.3169	0.07208541	-0.093577	0	0	0	0
1.333467	0.07205923	-0.09359643	-0.001580388	-0.001172923	-0.04769862	-0.03540068
1.350033	0.07205923	-0.09359643	0	0	0.0476981	0.0354003
1.366795	0.07205923	-0.09359643	0	0	0	0
1.383166	0.07205923	-0.09359643	0	0	0	0
1.399733	0.07205923	-0.09359643	0	0	0	0
1.416336	0.07205923	-0.09359643	0	0	0	0
1.432866	0.07203305	-0.09361586	-0.001583865	-0.001175503	-0.04780371	-0.03547868
1.449433	0.07203305	-0.09361586	0	0	0.04785502	0.03551676
1.466	0.07203305	-0.09361586	0	0	0	0
1.484017	0.07200687	-0.09363528	-0.001453171	-0.001078092	-0.04201883	-0.03117333
1.500584	0.07200687	-0.09363528	0	0	0.04201839	0.03117301
1.517151	0.07200687	-0.09363528	0	0	0	0
1.533903	0.07200687	-0.09363528	0	0	0	0
1.550284	0.07200687	-0.09363528	0	0	0	0
1.566919	0.07200687	-0.09363528	0	0	0	0
1.58342	0.07198069	-0.09365471	-0.001586251	-0.00117761	-0.04787108	-0.03553879
1.599984	0.07198069	-0.09365471	0	0	0.04797446	0.03561554
1.616551	0.07198069	-0.09365471	0	0	0	0
1.633117	0.07198069	-0.09365471	0	0	0	0
1.649685	0.07198069	-0.09365471	0	0	0	0
1.666516	0.07198069	-0.09365471	0	0	0	0
1.682817	0.07195451	-0.09367415	-0.001606068	-0.001191982	-0.04847437	-0.03597643
1.699384	0.07195451	-0.09367415	0	0	0.04886326	0.03626505
1.715951	0.07195451	-0.09367415	0	0	0	0
1.732541	0.07195451	-0.09367415	0	0	0	0
1.749085	0.07195451	-0.09367415	0	0	0	0
1.765651	0.07195451	-0.09367415	0	0	0	0
1.782217	0.07195451	-0.09367415	0	0	0	0
1.798784	0.07195451	-0.09367415	0	0	0	0
1.815351	0.07195451	-0.09367415	0	0	0	0
1.832109	0.07192833	-0.09369358	-0.001562267	-0.001159474	-0.04687877	-0.03479221
1.848485	0.07192833	-0.09369358	0	0	0.04715015	0.03499362
1.86513	0.07192833	-0.09369358	0	0	0	0
1.881617	0.07192833	-0.09369358	0	0	0	0
1.898185	0.07192833	-0.09369358	0	0	0	0
1.965512	0.07192833	-0.09369358	0	0	0	0
1.982079	0.07187597	-0.09373243	-0.00316064	-0.002345296	-0.03767421	-0.02795546
1.99923	0.07187597	-0.09373243	0	0	0.09373618	0.06955524
2.015213	0.07187597	-0.09373243	0	0	0	0
2.035632	0.07187597	-0.09373243	0	0	0	0
2.048347	0.07187597	-0.09373243	0	0	0	0
2.064912	0.07187597	-0.09373243	0	0	0	0
2.081479	0.07187597	-0.09373243	0	0	0	0
2.098277	0.07187597	-0.09373243	0	0	0	0
2.114613	0.07187597	-0.09373243	0	0	0	0
2.131179	0.07187597	-0.09373243	0	0	0	0
2.147778	0.07187597	-0.09373243	0	0	0	0
2.164312	0.07187597	-0.09373243	0	0	0	0
2.18088	0.07187597	-0.09373243	0	0	0	0
2.197847	0.07187597	-0.09373243	0	0	0	0
2.214013	0.07187597	-0.09373243	0	0	0	0
2.230582	0.07187597	-0.09373243	0	0	0	0
2.247146	0.07187597	-0.09373243	0	0	0	0
2.263712	0.07187597	-0.09373243	0	0	0	0
2.28028	0.07187597	-0.09373243	0	0	0	0
2.296846	0.07187597	-0.09373243	0	0	0	0
2.313413	0.07187597	-0.09373243	0	0	0	0
2.329979	0.07187597	-0.09373243	0	0	0	0
2.346547	0.07187597	-0.09373243	0	0	0	0
2.363454	0.07187597	-0.09373243	0	0	0	0
2.379965	0.07187597	-0.09373243	0	0	0	0
2.396477	0.07187597	-0.09373243	0	0	0	0
2.412813	0.07187597	-0.09373243	0	0	0	0
2.429503	0.07187597	-0.09373243	0	0	0	0
2.445947	0.07187597	-0.09373243	0	0	0	0
2.462522	0.07150944	-0.09314961	-0.02211305	0.03516198	-0.6697008	1.064892
2.479079	0.07150944	-0.09314961	0	0	0.6674166	-1.061259
2.495646	0.07150944	-0.09314961	0	0	0	0
2.512213	0.07025262	-0.08430625	-0.07586594	0.5338167	-2.289705	16.11108
2.52878	0.07025262	-0.08430625	0	0	2.289705	-16.11108
2.545347	0.07025262	-0.08430625	0	0	0	0
2.562092	0.08477005	-0.04086863	0.8669661	2.594052	26.02539	77.87064
2.57848	0.08477005	-0.04086863	0	0	-26.16622	-78.29202
2.595046	0.08477005	-0.04086863	0	0	0	0
2.612022	0.1362041	0.01265449	3.029872	3.152936	90.33155	94.00056
2.628181	0.1362041	0.01265449	0	0	-91.4404	-95.15444
2.644747	0.1362041	0.01265449	0	0	0	0
2.661313	0.1894631	0.05135724	3.215047	2.336338	97.0387	70.5169
2.677881	0.1894631	0.05135724	0	0	-97.0331	-70.51284
2.694586	0.1894631	0.05135724	0	0	0	0
2.711588	0.2057569	0.06343678	0.9583094	0.7104531	28.43025	21.07708
2.727595	0.2057569	0.06343678	0	0	-29.03129	-21.52267
2.744147	0.2057569	0.06343678	0	0	0	0
2.760712	0.2055047	0.06362177	-0.01522269	0.01116717	-0.4596597	0.3372006
2.77728	0.2055047	0.06362177	0	0	0.4594414	-0.3370405
2.793848	0.2055047	0.06362177	0	0	0	0
2.810642	0.1930396	0.0727311	-0.7422485	0.5424247	-22.24822	16.25869
2.827167	0.1930396	0.0727311	0	0	22.27751	-16.28009
2.843547	0.1930396	0.0727311	0	0	0	0
2.860281	0.1696431	0.08965929	-1.398166	1.011626	-42.22226	30.54939
2.876848	0.1696431	0.08965929	0	0	41.98557	-30.37814
2.893416	0.1696431	0.08965929	0	0	0	0
2.910215	0.1743434	0.08734225	0.2797825	-0.1379212	8.385026	-4.133472
2.926728	0.1743434	0.08734225	0	0	-8.398768	4.140247
2.943117	0.1743434	0.08734225	0	0	0	0
2.959683	0.20442	0.1064131	1.815608	1.151234	55.09406	34.93385
2.97628	0.20442	0.1064131	0	0	-54.74867	-34.71484
2.992821	0.20442	0.1064131	0	0	0	0
3.009382	0.2314104	0.1260823	1.629732	1.187662	49.23323	35.87856
3.025949	0.2314104	0.1260823	0	0	-49.1939	-35.8499
3.042808	0.2314104	0.1260823	0	0	0	0
3.059082	0.2357689	0.129274	0.267829	0.1961284	8.08362	5.919549
3.075649	0.2357689	0.129274	0	0	-8.155334	-5.972064
3.092216	0.2357689	0.129274	0	0	0	0
3.108782	0.2357689	0.129274	0	0	0	0
3.125349	0.2357689	0.129274	0	0	0	0
3.141925	0.2357689	0.129274	0	0	0	0
3.159423	0.2357191	0.1293104	-0.002844315	0.002083844	-0.08347625	0.0611576
3.175049	0.2357191	0.1293104	0	0	0.0858688	-0.06291046
3.191616	0.2357191	0.1293104	0	0	0	0
3.208182	0.2356694	0.1293469	-0.003003432	0.002201078	-0.09064703	0.06643105
3.224749	0.2356694	0.1293469	0	0	0.09064703	-0.06643105
3.241465	0.2356694	0.1293469	0	0	0	0
3.257881	0.2356196	0.1295292	-0.003030826	0.01110577	-0.09147643	0.3351944
3.274449	0.2356196	0.1295292	0	0	0.09188837	-0.3367038
3.291016	0.2356196	0.1295292	0	0	0	0
3.307582	0.2359431	0.129985	0.01952338	0.02751263	0.5892422	0.8303686
3.324564	0.2359431	0.129985	0	0	-0.5819433	-0.8200829
3.340716	0.2359431	0.129985	0	0	0	0
3.357556	0.2370871	0.1321357	0.06793655	0.1277121	2.059175	3.870987
3.373849	0.2370871	0.1321357	0	0	-2.050447	-3.85458
3.390605	0.2370871	0.1321357	0	0	0	0
3.410122	0.2346241	0.1339759	-0.1261971	0.09428483	-3.479047	2.599277
3.423549	0.2346241	0.1339759	0	0	3.830661	-2.861976
3.440234	0.2346241	0.1339759	0	0	0	0
3.456744	0.2301385	0.1405661	-0.2716941	0.3991716	-8.184785	12.02505
3.473267	0.2301385	0.1405661	0	0	8.224896	-12.08398
3.489816	0.2301385	0.1405661	0	0	0	0
3.506382	0.2218404	0.1711234	-0.5009121	1.844576	-15.12648	55.70229
3.522949	0.2218404	0.1711234	0	0	15.1181	-55.67142
3.539515	0.2218404	0.1711234	0	0	0	0
3.556082	0.211273	0.1917795	-0.6378641	1.24684	-19.25175	37.63161
3.57283	0.211273	0.1917795	0	0	19.14662	-37.42612
3.589348	0.211273	0.1917795	0	0	0	0
3.605837	0.2173785	0.2069759	0.3702727	0.9216057	11.21796	27.9214
3.622349	0.2173785	0.2069759	0	0	-11.22006	-27.92665
3.638917	0.2173785	0.2069759	0	0	0	0
3.655482	0.2107698	0.2316662	-0.39894	1.490457	-12.04055	44.98402
3.672049	0.2107698	0.2316662	0	0	12.04081	-44.98499
3.688907	0.2107698	0.2316662	0	0	0	0
3.705183	0.2006323	0.244265	-0.6228722	0.7741041	-18.79886	23.36318
3.721749	0.2006323	0.244265	0	0	18.9659	-23.57078
3.738438	0.2006323	0.244265	0	0	0	0
3.754952	0.1806408	0.2584619	-1.210595	0.8596944	-36.46055	25.89216
3.771449	0.1806408	0.2584619	0	0	36.67227	-26.04251
3.788016	0.1806408	0.2584619	0	0	0	0
3.804583	0.1599892	0.2729293	-1.2466	0.8733054	-37.62354	26.35717
3.82115	0.1599892	0.2729293	0	0	37.62354	-26.35717
3.838526	0.1599892	0.2729293	0	0	0	0
3.854282	0.1553178	0.2761503	-0.2964865	0.2044318	-8.948496	6.170119
3.870849	0.1553178	0.2761503	0	0	9.172719	-6.324723
3.887416	0.1553178	0.2761503	0	0	0	0
3.903982	0.1553435	0.2761324	0.001550739	-0.0010812	0.04680308	-0.03263185
3.92055	0.1553435	0.2761324	0	0	-0.04680308	0.03263185
3.937117	0.1553435	0.2761324	0	0	0	0
3.957712	0.1553949	0.2760966	0.002494761	-0.00173794	0.0671315	-0.04676621
3.974279	0.1553949	0.2760966	0	0	-0.0671315	0.04676621
3.991092	0.1555233	0.2759714	0.007638338	-0.007448664	0.2288312	-0.2231489
4.007412	0.1555233	0.2759714	0	0	-0.2305354	0.2248108
4.02398	0.1555233	0.2759714	0	0	0	0
4.040658	0.1555747	0.2758998	0.003079702	-0.004292106	0.09263366	-0.1291013
4.057114	0.1555747	0.2758998	0	0	-0.09294694	0.1295379
4.07368	0.1555747	0.2758998	0	0	0	0
4.090246	0.1556517	0.275703	0.004651384	-0.01188077	0.1403912	-0.3585935
4.106813	0.1556517	0.275703	0	0	-0.1403851	0.358578
4.12338	0.1556517	0.275703	0	0	0	0
4.140226	0.155549	0.2755598	-0.006098036	-0.008496915	-0.1825052	-0.2543002
4.156513	0.155549	0.2755598	0	0	0.184047	0.2564485
4.173264	0.155549	0.2755598	0	0	0	0
4.189757	0.1549068	0.2750409	-0.03893579	-0.03146232	-1.171208	-0.9464021
4.206279	0.1549068	0.2750409	0	0	1.17931	0.9529493
4.222779	0.1549068	0.2750409	0	0	0	0
4.239347	0.1547527	0.274862	-0.009303497	-0.01080011	-0.281351	-0.3266108
4.255912	0.1547527	0.274862	0	0	0.2807882	0.3259575
4.27248	0.1547527	0.274862	0	0	0	0
4.289046	0.1545728	0.2747009	-0.01085592	-0.009721663	-0.3276369	-0.2934046
4.305613	0.1545728	0.2747009	0	0	0.3276464	0.293413
4.32218	0.1545728	0.2747009	0	0	0	0
4.338747	0.1542902	0.2744683	-0.01705968	-0.0140428	-0.514877	-0.4238248
4.355313	0.1542902	0.2744683	0	0	0.5148919	0.423837
4.37188	0.1542902	0.2744683	0	0	0	0
4.388447	0.1541104	0.2743072	-0.01085709	-0.009721103	-0.3276724	-0.2933877
4.405014	0.1541104	0.2743072	0	0	0.3276724	0.2933877
4.42158	0.1541104	0.2743072	0	0	0	0
4.438364	0.1537249	0.274003	-0.02296562	-0.01812425	-0.6886145	-0.5434483
4.454911	0.1537249	0.274003	0	0	0.6890283	0.5437748
4.47128	0.1537249	0.274003	0	0	0	0
4.487923	0.1507425	0.2713185	-0.1792002	-0.1612988	-5.42835	-4.886079
4.504413	0.1507425	0.2713185	0	0	5.408507	4.868218
4.520979	0.1507425	0.2713185	0	0	0	0
4.537737	0.1077911	0.2407489	-2.563042	-1.824183	-76.91113	-54.73964
4.554253	0.1077911	0.2407489	0	0	77.03017	54.82437
4.570777	0.1077911	0.2407489	0	0	0	0
4.587246	0.05127082	0.2016615	-3.431919	-2.373393	-104.0186	-71.93557
4.603813	0.05127082	0.2016615	0	0	103.885	71.84316
4.620379	0.05127082	0.2016615	0	0	0	0
4.636946	0.0168142	0.148493	-2.079925	-3.20944	-62.77497	-96.86528
4.653513	0.0168142	0.148493	0	0	62.77316	96.8625
4.670079	0.0168142	0.148493	0	0	0	0
4.686842	0.02254881	0.04411383	0.3420947	-6.226684	10.26417	-186.8247
4.703213	0.02254881	0.04411383	0	0	-10.32459	187.9244
4.719779	0.02254881	0.04411383	0	0	0	0
4.736376	0.05182198	-0.05673779	1.763683	-6.076223	53.18215	-183.2226
4.752912	0.05182198	-0.05673779	0	0	-53.23037	183.3887
4.769727	0.05182198	-0.05673779	0	0	0	0
4.786045	0.08842669	-0.09480128	2.243298	-2.332698	67.70579	-70.40401
4.802612	0.08842669	-0.09480128	0	0	-68.21728	70.93589
4.819179	0.08842669	-0.09480128	0	0	0	0
4.835745	0.09435061	-0.09929517	0.3575783	-0.2712592	10.79205	-8.186855
4.852334	0.09435061	-0.09929517	0	0	-10.78506	8.181557
4.868878	0.09435061	-0.09929517	0	0	0	0
4.885446	0.09427236	-0.09939253	-0.004722938	-0.005876464	-0.142635	-0.1774721
4.902012	0.09427236	-0.09939253	0	0	0.1425406	0.1773546
4.91858	0.09427236	-0.09939253	0	0	0	0
4.935145	0.09427236	-0.09947041	0	-0.004701893	0	-0.1419116
4.951714	0.09427236	-0.09947041	0	0	0	0.1419034
4.968281	0.09427236	-0.09947041	0	0	0	0
4.984845	0.09424628	-0.09948988	-0.00157478	-0.00117535	-0.04753174	-0.0354757
5.001415	0.09424628	-0.09948988	0	0	0.04752832	0.03547315
5.01798	0.09424628	-0.09948988	0	0	0	0
5.034545	0.09414195	-0.09952883	-0.006298125	-0.002350946	-0.1900997	-0.07095987
5.051113	0.09414195	-0.09952883	0	0	0.1900887	0.07095579
5.06768	0.09414195	-0.09952883	0	0	0	0
5.084246	0.09411586	-0.0995483	-0.001574644	-0.001175698	-0.0475249	-0.03548417
5.100813	0.09411586	-0.0995483	0	0	0.0475249	0.03548417
5.117381	0.09411586	-0.0995483	0	0	0	0
5.134046	0.09408978	-0.09956777	-0.001565227	-0.00116822	-0.0470997	-0.03515324
5.150569	0.09408978	-0.09956777	0	0	0.04716196	0.03519971
5.167579	0.09408978	-0.09956777	0	0	0	0
5.183646	0.09408978	-0.09956777	0	0	0	0
5.200216	0.09408978	-0.09956777	0	0	0	0
5.217097	0.09408978	-0.09956777	0	0	0	0
5.233609	0.09408978	-0.09956777	0	0	0	0
5.249913	0.09408978	-0.09956777	0	0	0	0
5.267141	0.09408978	-0.09956777	0	0	0	0
5.283157	0.09406369	-0.09958725	-0.001628651	-0.001216022	-0.04899062	-0.03657855
5.299613	0.09406369	-0.09958725	0	0	0.05015534	0.03744817
5.316223	0.09406369	-0.09958725	0	0	0	0
5.332746	0.09408978	-0.09960672	0.001578688	-0.001178718	0.04764833	-0.03557634
5.349313	0.09408978	-0.09960672	0	0	-0.04770807	0.03562094
5.366273	0.09408978	-0.09960672	0	0	0	0
5.382447	0.09406369	-0.09962619	-0.001612805	-0.00120373	-0.04867596	-0.0363297
5.399014	0.09406369	-0.09962619	0	0	0.04926082	0.03676622
5.415795	0.09406369	-0.09962619	0	0	0	0
5.432147	0.09403761	-0.09964567	-0.00159476	-0.001191058	-0.04813202	-0.03594774
5.448714	0.09403761	-0.09964567	0	0	0.04844507	0.03618154
5.465371	0.09403761	-0.09964567	0	0	0	0
5.481862	0.09406369	-0.09966514	0.001581295	-0.001181001	0.04770435	-0.03562833
5.498414	0.09406369	-0.09966514	0	0	-0.04785511	0.03574093
5.515399	0.09406369	-0.09966514	0	0	0	0
5.531547	0.09401153	-0.09966514	-0.003230197	0	-0.09749316	0
5.548113	0.09401153	-0.09966514	0	0	0.09873796	0
5.564931	0.09401153	-0.09966514	0	0	0	0
5.581247	0.09401153	-0.09966514	0	0	0	0
5.597814	0.09401153	-0.09966514	0	0	0	0
5.614445	0.09401153	-0.09966514	0	0	0	0
5.631036	0.09401153	-0.09966514	0	0	0	0
5.647961	0.09401153	-0.09966514	0	0	0	0
5.664171	0.09401153	-0.09966514	0	0	0	0
5.680737	0.09401153	-0.09966514	0	0	0	0
5.697304	0.09401153	-0.09966514	0	0	0	0
5.713871	0.09401153	-0.09966514	0	0	0	0
5.730436	0.09398545	-0.09968461	-0.001574598	-0.001175214	-0.0475249	-0.03547059
5.747004	0.09398545	-0.09968461	0	0	0.04752284	0.03546906
5.763571	0.09398545	-0.09968461	0	0	0	0
5.780137	0.09395936	-0.09970409	-0.001574553	-0.00117563	-0.04752216	-0.03548213
5.796704	0.09395936	-0.09970409	0	0	0.04752148	0.03548162
5.813271	0.09395936	-0.09970409	0	0	0	0
5.829837	0.09398545	-0.09972356	0.001574598	-0.001175664	0.04752421	-0.03548366
5.846404	0.09398545	-0.09972356	0	0	-0.04752353	0.03548315
5.862971	0.09398545	-0.09972356	0	0	0	0
5.883895	0.09398545	-0.09972356	0	0	0	0
5.900465	0.09398545	-0.09972356	0	0	0	0
5.917135	0.09398545	-0.09972356	0	0	0	0
5.933625	0.09398545	-0.09972356	0	0	0	0
5.950164	0.09398545	-0.09972356	0	0	0	0
5.966729	0.09398545	-0.09972356	0	0	0	0
5.983299	0.09398545	-0.09972356	0	0	0	0
5.999864	0.09398545	-0.09972356	0	0	0	0
6.016429	0.09398545	-0.09972356	0	0	0	0
6.033202	0.09398545	-0.09972356	0	0	0	0
6.049563	0.09398545	-0.09972356	0	0	0	0
6.066247	0.09398545	-0.09972356	0	0	0	0
6.082696	0.09398545	-0.09972356	0	0	0	0
6.099757	0.09398545	-0.09972356	0	0	0	0
6.115829	0.09395936	-0.09974303	-0.001622997	-0.001211337	-0.04898427	-0.03655981
6.132396	0.09395936	-0.09974303	0	0	0.04972567	0.03711316
6.149017	0.09395936	-0.09974303	0	0	0	0
6.165536	0.09395936	-0.09974303	0	0	0	0
6.182096	0.09395936	-0.09974303	0	0	0	0
6.198662	0.09395936	-0.09974303	0	0	0	0
6.215583	0.09395936	-0.09974303	0	0	0	0
6.231796	0.09395936	-0.09974303	0	0	0	0
6.248363	0.09395936	-0.09974303	0	0	0	0
6.264929	0.09395936	-0.09974303	0	0	0	0
6.281496	0.09395936	-0.09974303	0	0	0	0
6.298063	0.09395936	-0.09974303	0	0	0	0
6.314642	0.09395936	-0.09974303	0	0	0	0
6.331196	0.09395936	-0.09974303	0	0	0	0
6.347763	0.09395936	-0.09974303	0	0	0	0
6.36433	0.09395936	-0.09974303	0	0	0	0
6.380895	0.09395936	-0.09974303	0	0	0	0
6.397463	0.09395936	-0.09974303	0	0	0	0
6.414028	0.09393328	-0.09976251	-0.001574644	-0.001175698	-0.0475249	-0.03548417
6.430595	0.09393328	-0.09976251	0	0	0.04752558	0.03548468
6.447162	0.09393328	-0.09976251	0	0	0	0
6.463729	0.09393328	-0.09976251	0	0	0	0
6.480599	0.09393328	-0.09976251	0	0	0	0
6.496862	0.09393328	-0.09976251	0	0	0	0
6.513642	0.09393328	-0.09976251	0	0	0	0
6.529995	0.09393328	-0.09976251	0	0	0	0
6.546653	0.09393328	-0.09976251	0	0	0	0
6.563143	0.09393328	-0.09976251	0	0	0	0
6.579695	0.09393328	-0.09976251	0	0	0	0
6.596262	0.09393328	-0.09976251	0	0	0	0
6.612829	0.09393328	-0.09976251	0	0	0	0
6.629396	0.09393328	-0.09976251	0	0	0	0
6.645964	0.09393328	-0.09976251	0	0	0	0
6.662529	0.09393328	-0.09976251	0	0	0	0
6.679259	0.09393328	-0.09976251	0	0	0	0
6.695662	0.09393328	-0.09976251	0	0	0	0
6.712259	0.09393328	-0.09976251	0	0	0	0
6.728795	0.09393328	-0.09976251	0	0	0	0
6.745778	0.09393328	-0.09976251	0	0	0	0
6.761928	0.09393328	-0.09976251	0	0	0	0
6.778496	0.09393328	-0.09976251	0	0	0	0
6.795341	0.09393328	-0.09976251	0	0	0	0
6.812346	0.09393328	-0.09976251	0	0	0	0
6.828196	0.09393328	-0.09976251	0	0	0	0
6.844763	0.09393328	-0.09976251	0	0	0	0
6.861328	0.09393328	-0.09976251	0	0	0	0
6.877895	0.09393328	-0.09976251	0	0	0	0
6.894462	0.09393328	-0.09976251	0	0	0	0
6.911028	0.09390719	-0.09978198	-0.001574553	-0.00117563	-0.04752216	-0.03548213
6.927596	0.09390719	-0.09978198	0	0	0.04752079	0.03548111
6.944162	0.09390719	-0.09978198	0	0	0	0
6.967736	0.09390719	-0.09978198	0	0	0	0
6.984467	0.09390719	-0.09978198	0	0	0	0
7.001486	0.09390719	-0.09978198	0	0	0	0
7.018054	0.09390719	-0.09978198	0	0	0	0
7.034981	0.09390719	-0.09978198	0	0	0	0
7.051507	0.09390719	-0.09978198	0	0	0	0
7.067755	0.09390719	-0.09978198	0	0	0	0
7.084321	0.09390719	-0.09978198	0	0	0	0
7.101042	0.09390719	-0.09978198	0	0	0	0
7.117455	0.09390719	-0.09978198	0	0	0	0
7.134086	0.09390719	-0.09978198	0	0	0	0
7.150588	0.09390719	-0.09978198	0	0	0	0
7.167155	0.09390719	-0.09978198	0	0	0	0
7.183722	0.09390719	-0.09978198	0	0	0	0
7.200287	0.09390719	-0.09978198	0	0	0	0
7.216855	0.09390719	-0.09978198	0	0	0	0
7.23342	0.09390719	-0.09978198	0	0	0	0
7.249986	0.09390719	-0.09978198	0	0	0	0
7.266557	0.09390719	-0.09978198	0	0	0	0
7.283122	0.09390719	-0.09978198	0	0	0	0
7.299686	0.09390719	-0.09978198	0	0	0	0
7.316256	0.09390719	-0.09978198	0	0	0	0
7.332941	0.09390719	-0.09978198	0	0	0	0
7.349387	0.09388111	-0.09980146	-0.001586012	-0.001184186	-0.04787075	-0.0357424
7.365955	0.09388111	-0.09980146	0	0	0.04804014	0.03586888
7.382522	0.09388111	-0.09980146	0	0	0	0
7.399087	0.09388111	-0.09980146	0	0	0	0
7.415655	0.09388111	-0.09980146	0	0	0	0
7.43222	0.09388111	-0.09980146	0	0	0	0
7.448787	0.09388111	-0.09980146	0	0	0	0
7.465354	0.09388111	-0.09980146	0	0	0	0
7.482041	0.09388111	-0.09980146	0	0	0	0
7.504753	0.09388111	-0.09980146	0	0	0	0
7.515054	0.09388111	-0.09980146	0	0	0	0
7.531621	0.09388111	-0.09980146	0	0	0	0
7.548188	0.09388111	-0.09980146	0	0	0	0
7.564754	0.09388111	-0.09980146	0	0	0	0
7.581321	0.09388111	-0.09980146	0	0	0	0
7.597887	0.09388111	-0.09980146	0	0	0	0
7.614454	0.09388111	-0.09980146	0	0	0	0
7.631266	0.09388111	-0.09980146	0	0	0	0
7.647589	0.09388111	-0.09980146	0	0	0	0
7.664272	0.09388111	-0.09980146	0	0	0	0
7.68072	0.09388111	-0.09980146	0	0	0	0
7.697288	0.09388111	-0.09980146	0	0	0	0
7.713854	0.09388111	-0.09980146	0	0	0	0
7.730421	0.09388111	-0.09980146	0	0	0	0
7.746988	0.09388111	-0.09980146	0	0	0	0
7.763859	0.09388111	-0.09980146	0	0	0	0
7.782532	0.09388111	-0.09980146	0	0	0	0
7.799101	0.09388111	-0.09980146	0	0	0	0
7.815901	0.09388111	-0.09980146	0	0	0	0
7.832403	0.09388111	-0.09980146	0	0	0	0
7.848801	0.09388111	-0.09980146	0	0	0	0
7.865367	0.09388111	-0.09980146	0	0	0	0
7.881943	0.09388111	-0.09984041	0	-0.002349908	0	-0.07090404
7.8985	0.09388111	-0.09984041	0	0	0	0.07092343
7.915067	0.09388111	-0.09984041	0	0	0	0
7.931633	0.09388111	-0.09984041	0	0	0	0
7.9482	0.09388111	-0.09984041	0	0	0	0
7.964994	0.09388111	-0.09984041	0	0	0	0
7.981497	0.09388111	-0.09984041	0	0	0	0
7.9979	0.09388111	-0.09984041	0	0	0	0
8.014543	0.09388111	-0.09984041	0	0	0	0
8.031034	0.09388111	-0.09984041	0	0	0	0
8.053668	0.09388111	-0.09984041	0	0	0	0
8.064411	0.09388111	-0.09984041	0	0	0	0
8.080897	0.09388111	-0.09984041	0	0	0	0
8.097425	0.09388111	-0.09984041	0	0	0	0
8.113933	0.09388111	-0.09984041	0	0	0	0
8.130449	0.09388111	-0.09984041	0	0	0	0
8.147465	0.09388111	-0.09984041	0	0	0	0
8.163568	0.09388111	-0.09984041	0	0	0	0
8.180136	0.09388111	-0.09984041	0	0	0	0
8.197483	0.09388111	-0.09984041	0	0	0	0
8.213267	0.09388111	-0.09984041	0	0	0	0
8.229834	0.09388111	-0.09984041	0	0	0	0
8.246531	0.09388111	-0.09984041	0	0	0	0
8.263052	0.09388111	-0.09984041	0	0	0	0
8.279532	0.09388111	-0.09984041	0	0	0	0
8.2961	0.09388111	-0.09984041	0	0	0	0
8.312666	0.09388111	-0.09984041	0	0	0	0
8.330859	0.09388111	-0.09984041	0	0	0	0
8.347427	0.09388111	-0.09984041	0	0	0	0
8.364028	0.09388111	-0.09984041	0	0	0	0
8.38056	0.09388111	-0.09984041	0	0	0	0
8.398058	0.09388111	-0.09984041	0	0	0	0
8.414048	0.09388111	-0.09984041	0	0	0	0
8.43026	0.09388111	-0.09984041	0	0	0	0
8.446826	0.09388111	-0.09984041	0	0	0	0
8.463392	0.09388111	-0.09984041	0	0	0	0
8.479959	0.09388111	-0.09984041	0	0	0	0
8.496526	0.09388111	-0.09984041	0	0	0	0
8.513092	0.09388111	-0.09984041	0	0	0	0
8.529659	0.09385502	-0.09985988	-0.001574463	-0.001175113	-0.04751874	-0.035466
8.546227	0.09385502	-0.09985988	0	0	0.04751601	0.03546396
8.562794	0.09385502	-0.09985988	0	0	0	0
8.579358	0.09385502	-0.09985988	0	0	0	0
8.595925	0.09385502	-0.09985988	0	0	0	0
8.61272	0.09385502	-0.09985988	0	0	0	0
8.636078	0.09385502	-0.09985988	0	0	0	0
8.652722	0.09385502	-0.09985988	0	0	0	0
8.669241	0.09385502	-0.09985988	0	0	0	0
8.68578	0.09385502	-0.09985988	0	0	0	0
8.702347	0.09385502	-0.09985988	0	0	0	0
8.718913	0.09385502	-0.09985988	0	0	0	0
8.735793	0.09385502	-0.09985988	0	0	0	0
8.752046	0.09385502	-0.09985988	0	0	0	0
8.768611	0.09385502	-0.09985988	0	0	0	0
8.785179	0.09385502	-0.09985988	0	0	0	0
8.801745	0.09385502	-0.09985988	0	0	0	0
8.818311	0.09385502	-0.09985988	0	0	0	0
8.834886	0.09385502	-0.09985988	0	0	0	0
8.851445	0.09385502	-0.09985988	0	0	0	0
8.86852	0.09385502	-0.09985988	0	0	0	0
8.885088	0.09385502	-0.09985988	0	0	0	0
8.901654	0.09385502	-0.09985988	0	0	0	0
8.918221	0.09385502	-0.09985988	0	0	0	0
8.935089	0.09385502	-0.09985988	0	0	0	0
8.9516	0.09385502	-0.09985988	0	0	0	0
8.967921	0.09385502	-0.09985988	0	0	0	0
8.984624	0.09385502	-0.09985988	0	0	0	0
9.001056	0.09385502	-0.09985988	0	0	0	0
9.017644	0.09380285	-0.09985988	-0.003144942	0	-0.0952435	0
9.034188	0.09380285	-0.09985988	0	0	0.09492001	0
9.050755	0.09380285	-0.09985988	0	0	0	0
9.067321	0.09377677	-0.09984041	-0.001574553	0.001175181	-0.04752284	0.03546906
9.08419	0.09377677	-0.09984041	0	0	0.0470918	-0.03514735
9.100454	0.09377677	-0.09984041	0	0	0	0
9.117021	0.09367242	-0.09976251	-0.006298662	0.004702521	-0.1918555	0.1432375
9.133728	0.09367242	-0.09976251	0	0	0.1892985	-0.1413285
9.150253	0.09367242	-0.09976251	0	0	0	0
9.16672	0.09315069	-0.09976251	-0.03168345	0	-0.9603267	0
9.183288	0.09315069	-0.09976251	0	0	0.9591069	0
9.199855	0.09315069	-0.09976251	0	0	0	0
9.21852	0.07608966	-0.110867	-0.9140501	-0.5949268	-25.94335	-16.88572
9.235389	0.07608966	-0.110867	0	0	25.72332	16.74251
9.251903	0.07608966	-0.110867	0	0	0	0
9.268223	0.02152299	-0.1291414	-3.343499	-1.119737	-101.8302	-34.10291
9.284925	0.02152299	-0.1291414	0	0	101.2509	33.90889
9.301356	0.02152299	-0.1291414	0	0	0	0
9.317947	-0.05116583	-0.1111213	-4.381201	1.086132	-132.6717	32.89029
9.334489	-0.05116583	-0.1111213	0	0	132.2325	-32.78141
9.351055	-0.05116583	-0.1111213	0	0	0	0
9.367621	-0.1181316	-0.08748341	-4.042296	1.426866	-122.0038	43.06539
9.384189	-0.1181316	-0.08748341	0	0	122.0002	-43.06415
9.400756	-0.1181316	-0.08748341	0	0	0	0
9.417321	-0.1718921	-0.07632166	-3.245361	0.6738018	-97.95081	20.33655
9.43389	-0.1718921	-0.07632166	0	0	97.94518	-20.33538
9.45056	-0.1718921	-0.07632166	0	0	0	0
9.467024	-0.2338025	-0.05882824	-3.760298	1.06251	-113.4893	32.06755
9.483591	-0.2338025	-0.05882824	0	0	113.8399	-32.16661
9.500157	-0.2338025	-0.05882824	0	0	0	0
9.517126	-0.2832281	-0.03901957	-2.912749	1.167364	-86.85699	34.8103
9.533289	-0.2832281	-0.03901957	0	0	87.91454	-35.23414
9.550136	-0.2832281	-0.03901957	0	0	0	0
9.568932	-0.2941586	-0.03041819	-0.5815332	0.4576183	-16.31567	12.83907
9.5855	-0.2941586	-0.03041819	0	0	16.44414	-12.94018
9.602173	-0.2941586	-0.03041819	0	0	0	0
9.618632	-0.2990444	-0.02652506	-0.2968361	0.2365282	-8.959046	7.138846
9.635705	-0.2990444	-0.02652506	0	0	8.852284	-7.053775
9.651768	-0.2990444	-0.02652506	0	0	0	0
9.669205	-0.3091061	-0.01837474	-0.5770311	0.4674158	-17.22495	13.95283
9.684898	-0.3091061	-0.01837474	0	0	17.41684	-14.10826
9.701735	-0.3091061	-0.01837474	0	0	0	0
9.723845	-0.3105382	-0.01716347	-0.06477248	0.0547816	-1.663088	1.406564
9.734599	-0.3105382	-0.01716347	0	0	1.970891	-1.666889
9.751336	-0.3105382	-0.01712563	0	0.002261173	0	0.08225255
9.767733	-0.3105382	-0.01712563	0	0	0	-0.06824432
9.784874	-0.3105382	-0.01712563	0	0	0	0
9.800869	-0.3104905	-0.01716347	0.002984886	-0.002366062	0.09007884	-0.07140379
9.817432	-0.3104905	-0.01716347	0	0	-0.09167778	0.07267123
9.834001	-0.3104905	-0.01716347	0	0	0	0
9.850566	-0.3102758	-0.01722024	0.01296236	-0.003426908	0.3912162	-0.1034273
9.867132	-0.3102758	-0.01722024	0	0	-0.3912387	0.1034332
9.883698	-0.3102758	-0.01722024	0	0	0	0
9.900269	-0.310061	-0.01716347	0.01296223	0.003425922	0.3911784	0.1033886
9.916832	-0.310061	-0.01716347	0	0	-0.3912122	-0.1033975
9.933463	-0.310061	-0.01716347	0	0	0	0
9.949979	-0.3098939	-0.01714455	0.01011592	0.001145733	0.3051849	0.03456534
9.966533	-0.3098939	-0.01714455	0	0	-0.3058977	-0.03464609
9.983098	-0.3098939	-0.01714455	0	0	0	0
9.99974	-0.3097268	-0.01712563	0.01004119	0.001137066	0.3023823	0.03424181
10.01623	-0.3097268	-0.01712563	0	0	-0.3030524	-0.0343177
10.0328	-0.3097268	-0.01712563	0	0	0	0
10.04936	-0.3094881	-0.01716347	0.01441062	-0.002284605	0.4349385	-0.06895349
10.06593	-0.3094881	-0.01716347	0	0	-0.434951	0.06895548
10.0825	-0.3094881	-0.01716347	0	0	0	0
10.09906	-0.3089866	-0.01752302	0.0302713	-0.02170487	0.9136423	-0.6550921
10.11586	-0.3089866	-0.01752302	0	0	-0.9074259	0.6506349
10.13237	-0.3089866	-0.01752302	0	0	0	0
10.14885	-0.3085089	-0.01786368	0.02898427	-0.02066954	0.8785909	-0.6265489
10.16537	-0.3085089	-0.01786368	0	0	-0.8781339	0.6262231
10.1819	-0.3085089	-0.01786368	0	0	0	0
10.19846	-0.302765	-0.02225772	0.3467654	-0.2652708	10.47897	-8.016272
10.21503	-0.302765	-0.02225772	0	0	-10.466	8.00635
10.23196	-0.302765	-0.02225772	0	0	0	0
10.24816	-0.2949538	-0.02846152	0.4821967	-0.3829713	14.5544	-11.55943
10.26499	-0.2949538	-0.02846152	0	0	-14.60106	11.59648
10.2813	-0.2949538	-0.02846152	0	0	0	0
10.29786	-0.2948816	-0.02851849	0.004362515	-0.003439079	0.1327037	-0.1046136
10.31451	-0.2948816	-0.02851849	0	0	-0.1313397	0.1035383
10.331	-0.2948816	-0.02851849	0	0	0	0
10.34756	-0.2871296	-0.0343543	0.4679333	-0.3522705	14.15811	-10.65854
10.36413	-0.2871296	-0.0343543	0	0	-14.12307	10.63216
10.38069	-0.2871296	-0.0343543	0	0	0	0
10.39759	-0.2465632	-0.06416676	2.401052	-1.764542	71.7555	-52.73339
10.41383	-0.2465632	-0.06416676	0	0	-72.46388	53.25399
10.4304	-0.2465632	-0.06416676	0	0	0	0
10.44712	-0.1903767	-0.0902956	3.358937	-1.562034	100.888	-46.91676
10.46363	-0.1903767	-0.0902956	0	0	-101.0588	46.99619
10.48015	-0.1903767	-0.0902956	0	0	0	0
10.49666	-0.1337752	-0.08008872	3.427921	0.6181522	103.7834	18.71512
10.51323	-0.1337752	-0.08008872	0	0	-103.6308	-18.6876
10.53838	-0.1337752	-0.08008872	0	0	0	0
10.55012	-0.05769904	-0.05961495	6.475495	1.742698	175.5079	47.23304
10.56669	-0.05769904	-0.05961495	0	0	-228.6751	-61.5415
10.58326	-0.05769904	-0.05961495	0	0	0	0
10.60017	-0.0002105263	-0.05629688	3.399948	0.1962352	101.567	5.862155
10.61639	-0.0002105263	-0.05629688	0	0	-102.6136	-5.92256
10.63369	-0.0002105263	-0.05629688	0	0	0	0
10.64953	0.03201537	-0.06837936	2.034518	-0.7628034	61.4054	-23.02278
10.66619	0.03201537	-0.06837936	0	0	-62.59085	23.46724
10.68271	0.03201537	-0.06837936	0	0	0	0
10.69923	0.03984732	-0.07504783	0.4741565	-0.4037177	14.35345	-12.22116
10.71579	0.03984732	-0.07504783	0	0	-14.3307	12.20178
10.73236	0.03984732	-0.07504783	0	0	0	0
10.74893	0.03656265	-0.07726777	-0.1982973	-0.1340193	-5.985142	-4.04506
10.76549	0.03656265	-0.07726777	0	0	5.98497	4.044943
10.78206	0.03656265	-0.07726777	0	0	0	0
10.79863	0.03651008	-0.07722915	-0.003173125	0.002331606	-0.09577338	0.07037409
10.81519	0.03651008	-0.07722915	0	0	0.09577063	-0.07037206
10.83176	0.03651008	-0.07722915	0	0	0	0
10.84833	0.03645752	-0.07722915	-0.003173083	0	-0.09576935	0
10.86489	0.03645752	-0.07722915	0	0	0.09576935	0
10.88146	0.03645752	-0.07722915	0	0	0	0
10.89829	0.03637868	-0.07720984	-0.004685817	0.001147764	-0.1403237	0.03437149
10.91459	0.03637868	-0.07720984	0	0	0.1414305	-0.03464258
10.93116	0.03637868	-0.07720984	0	0	0	0
10.94783	0.03632612	-0.07717121	-0.003152255	0.002316271	-0.09482957	0.06968058
10.96433	0.03632612	-0.07717121	0	0	0.09503952	-0.06983485
10.98086	0.03632612	-0.07717121	0	0	0	0
10.99743	0.0363524	-0.07719053	0.001586471	-0.001165736	0.04793222	-0.0352205
11.01399	0.0363524	-0.07719053	0	0	-0.04788118	0.03518299
11.03056	0.0363524	-0.07719053	0	0	0	0
11.04712	0.0363524	-0.07719053	0	0	0	0
11.06369	0.0363524	-0.07719053	0	0	0	0
11.08026	0.0363524	-0.07719053	0	0	0	0
11.10029	0.03637868	-0.07720984	0.001311752	-0.0009638726	0.03583824	-0.02633386
11.11686	0.03637868	-0.07720984	0	0	-0.03583637	0.02633249
11.13343	0.03637868	-0.07720984	0	0	0	0
11.15045	0.03637868	-0.07720984	0	0	0	0
11.16694	0.03637868	-0.07720984	0	0	0	0
11.18313	0.03637868	-0.07720984	0	0	0	0
11.1997	0.03637868	-0.07720984	0	0	0	0
11.21648	0.03637868	-0.07720984	0	0	0	0
11.2335	0.0363524	-0.07722915	-0.001544331	-0.001134772	-0.04568109	-0.03356637
11.24952	0.0363524	-0.07722915	0	0	0.04674525	0.03434831
11.26603	0.0363524	-0.07722915	0	0	0	0
11.28253	0.03629984	-0.07726777	-0.003185596	-0.00234077	-0.0965193	-0.07092219
11.2991	0.03629984	-0.07726777	0	0	0.09633002	0.07078311
11.31566	0.03629984	-0.07726777	0	0	0	0
11.33223	0.03627356	-0.07732571	-0.001586429	-0.003497611	-0.04788404	-0.1055703
11.34879	0.03627356	-0.07732571	0	0	0.04788266	0.1055672
11.36536	0.03627356	-0.07732571	0	0	0	0
11.38193	0.03624728	-0.07734502	-0.001585832	-0.001165266	-0.04785363	-0.03516275
11.47197	0.03624728	-0.07734502	0	0	0.01487451	0.01092976
11.48855	0.03624728	-0.07734502	0	0	0	0
11.50511	0.03624728	-0.07734502	0	0	0	0
11.52168	0.03624728	-0.07734502	0	0	0	0
11.53824	0.03624728	-0.07734502	0	0	0	0
11.55481	0.03619471	-0.07738364	-0.003172943	-0.002331472	-0.09576511	-0.07036801
11.57137	0.03619471	-0.07738364	0	0	0.09576511	0.07036801
11.58794	0.03619471	-0.07738364	0	0	0	0
11.60461	0.03619471	-0.07742227	0	-0.002317464	0	-0.06973247
11.62107	0.03619471	-0.07742227	0	0	0	0.06994321
11.63764	0.03619471	-0.07742227	0	0	0	0
11.65421	0.03616843	-0.07740296	-0.001586654	0.00116587	-0.04788669	0.03518705
11.67077	0.03616843	-0.07740296	0	0	0.04789083	-0.03519008
11.68734	0.03616843	-0.07740296	0	0	0	0
11.70391	0.03616843	-0.07740296	0	0	0	0
11.72048	0.03616843	-0.07740296	0	0	0	0
11.73704	0.03616843	-0.07740296	0	0	0	0
11.75361	0.03616843	-0.07740296	0	0	0	0
11.77017	0.03616843	-0.07740296	0	0	0	0
11.78674	0.03616843	-0.07740296	0	0	0	0
11.80331	0.03619471	-0.07742227	0.001586471	-0.001165736	0.04788256	-0.03518401
11.82025	0.03619471	-0.07742227	0	0	-0.04734158	0.0347865
11.83644	0.03619471	-0.07742227	0	0	0	0
11.85301	0.03616843	-0.07748021	-0.001586471	-0.003497658	-0.04843463	-0.1067827
11.86957	0.03616843	-0.07748021	0	0	0.04788256	0.1055656
11.88614	0.03616843	-0.07748021	0	0	0	0
11.90271	0.03614215	-0.07749952	-0.001586471	-0.001165736	-0.04788256	-0.03518401
11.91927	0.03614215	-0.07749952	0	0	0.04788256	0.03518401
11.93584	0.03614215	-0.07749952	0	0	0	0
11.9524	0.03614215	-0.07753815	0	-0.002331472	0	-0.07036801
11.96897	0.03614215	-0.07753815	0	0	0	0.07036599
11.98554	0.03614215	-0.07753815	0	0	0	0
12.0021	0.03614215	-0.07753815	0	0	0	0
12.01867	0.03614215	-0.07753815	0	0	0	0
12.03541	0.03614215	-0.07753815	0	0	0	0
12.0518	0.03611587	-0.07755746	-0.001602949	-0.00117801	-0.04837709	-0.03555243
12.06837	0.03611587	-0.07755746	0	0	0.04863324	0.03574068
12.08494	0.03611587	-0.07755746	0	0	0	0
12.1015	0.03611587	-0.07755746	0	0	0	0
12.11807	0.03611587	-0.07755746	0	0	0	0
12.13464	0.03611587	-0.07755746	0	0	0	0
12.1512	0.03611587	-0.07755746	0	0	0	0
12.16777	0.03611587	-0.07755746	0	0	0	0
12.18503	0.03611587	-0.07755746	0	0	0	0
12.20102	0.03608959	-0.07757678	-0.001643621	-0.001208195	-0.04942959	-0.03633478
12.21747	0.03608959	-0.07757678	0	0	0.05066918	0.03724598
12.23405	0.03608959	-0.07757678	0	0	0	0
12.2506	0.03608959	-0.07757678	0	0	0	0
12.26717	0.03608959	-0.07757678	0	0	0	0
12.28458	0.03608959	-0.07757678	0	0	0	0
12.30031	0.03608959	-0.07757678	0	0	0	0
12.31688	0.03608959	-0.07757678	0	0	0	0
12.3336	0.03608959	-0.07757678	0	0	0	0
12.35001	0.03608959	-0.07757678	0	0	0	0
12.36657	0.03608959	-0.07757678	0	0	0	0
12.38314	0.03608959	-0.07757678	0	0	0	0
12.39971	0.03608959	-0.07757678	0	0	0	0
12.41627	0.03608959	-0.07757678	0	0	0	0
12.43284	0.03608959	-0.07757678	0	0	0	0
12.44941	0.03608959	-0.07757678	0	0	0	0
12.46597	0.03608959	-0.07757678	0	0	0	0
12.48272	0.03608959	-0.07757678	0	0	0	0
12.50067	0.03606331	-0.07759609	-0.001464014	-0.001075754	-0.04219592	-0.03100548
12.51724	0.03606331	-0.07759609	0	0	0.04241158	0.03116395
12.5338	0.03606331	-0.07759609	0	0	0	0
12.55075	0.03606331	-0.07759609	0	0	0	0
12.56694	0.03606331	-0.07759609	0	0	0	0
12.5838	0.03606331	-0.07759609	0	0	0	0
12.6003	0.03606331	-0.07759609	0	0	0	0
12.61665	0.03606331	-0.07759609	0	0	0	0
12.63333	0.03606331	-0.07759609	0	0	0	0
12.64977	0.03608959	-0.0776154	0.001598804	-0.001174798	0.04827147	-0.03546978
12.66634	0.03608959	-0.0776154	0	0	-0.04844023	0.03559379
12.6829	0.03608959	-0.0776154	0	0	0	0
12.69947	0.03608959	-0.0776154	0	0	0	0
12.71604	0.03608959	-0.0776154	0	0	0	0
12.7326	0.03608959	-0.0776154	0	0	0	0
12.74917	0.03608959	-0.0776154	0	0	0	0
12.76574	0.03608959	-0.0776154	0	0	0	0
12.78231	0.03608959	-0.0776154	0	0	0	0
12.7989	0.03606331	-0.07763472	-0.001583645	-0.001164108	-0.04775465	-0.03510356
12.81544	0.03606331	-0.07763472	0	0	0.04779726	0.03513488
12.83201	0.03606331	-0.07763472	0	0	0	0
12.84857	0.03606331	-0.07763472	0	0	0	0
12.86514	0.03606331	-0.07763472	0	0	0	0
12.88171	0.03606331	-0.07763472	0	0	0	0
12.89847	0.03606331	-0.07763472	0	0	0	0
12.91484	0.03606331	-0.07763472	0	0	0	0
12.932	0.03606331	-0.07763472	0	0	0	0
12.94797	0.03606331	-0.07763472	0	0	0	0
12.96455	0.03606331	-0.07763472	0	0	0	0
12.98111	0.03606331	-0.07763472	0	0	0	0
13.00039	0.03603702	-0.07765403	-0.001362735	-0.001001335	-0.03801664	-0.02793455
13.01706	0.03603702	-0.07765403	0	0	0.0379047	0.0278523
13.0407	0.03603702	-0.07765403	0	0	0	0
13.05298	0.03603702	-0.07765403	0	0	0	0
13.06961	0.03603702	-0.07765403	0	0	0	0
13.08664	0.03603702	-0.07765403	0	0	0	0
13.10268	0.03606331	-0.07767335	0.001637955	-0.001203566	0.04952624	-0.03639178
13.11925	0.03606331	-0.07767335	0	0	-0.0502243	0.03690472
13.13582	0.03606331	-0.07767335	0	0	0	0
13.15238	0.03603702	-0.07769267	-0.001586471	-0.001166186	-0.04788256	-0.03519758
13.16895	0.03603702	-0.07769267	0	0	0.04788118	0.03519657
13.1857	0.03603702	-0.07769267	0	0	0	0
13.2022	0.03603702	-0.07769267	0	0	0	0
13.21865	0.03603702	-0.07769267	0	0	0	0
13.23524	0.03603702	-0.07769267	0	0	0	0
13.25179	0.03603702	-0.07769267	0	0	0	0
13.26835	0.03603702	-0.07769267	0	0	0	0
13.28526	0.03603702	-0.07769267	0	0	0	0
13.30177	0.03603702	-0.07769267	0	0	0	0
13.31805	0.03603702	-0.07769267	0	0	0	0
13.33462	0.03603702	-0.07769267	0	0	0	0
13.35118	0.03603702	-0.07769267	0	0	0	0
13.36775	0.03603702	-0.07769267	0	0	0	0
13.38432	0.03603702	-0.07769267	0	0	0	0
13.40088	0.03603702	-0.07773129	0	-0.002331472	0	-0.07036599
13.41746	0.03603702	-0.07773129	0	0	0	0.07035384
13.43402	0.03603702	-0.07773129	0	0	0	0
13.45058	0.03603702	-0.07773129	0	0	0	0
13.46715	0.03603702	-0.07773129	0	0	0	0
13.48372	0.03603702	-0.07773129	0	0	0	0
13.50028	0.03603702	-0.07773129	0	0	0	0
13.51692	0.03603702	-0.07773129	0	0	0	0
13.53344	0.03603702	-0.07773129	0	0	0	0
13.54998	0.03603702	-0.07773129	0	0	0	0
13.56696	0.03603702	-0.07773129	0	0	0	0
13.58312	0.03603702	-0.07773129	0	0	0	0
13.59998	0.03603702	-0.07773129	0	0	0	0
13.61649	0.03603702	-0.07773129	0	0	0	0
13.633	0.03603702	-0.07773129	0	0	0	0
13.64938	0.03601074	-0.07775061	-0.001604669	-0.001179563	-0.04878992	-0.03586457
13.66595	0.03601074	-0.07775061	0	0	0.04870377	0.03580124
13.68252	0.03601074	-0.07775061	0	0	0	0
13.69908	0.03601074	-0.07775061	0	0	0	0
13.71565	0.03601074	-0.07775061	0	0	0	0
13.73222	0.03601074	-0.07775061	0	0	0	0
13.75008	0.03603702	-0.07776992	0.001471283	-0.001081096	0.04273195	-0.03139935
13.76665	0.03603702	-0.07776992	0	0	-0.04273195	0.03139935
13.78321	0.03603702	-0.07776992	0	0	0	0
13.79978	0.03603702	-0.07776992	0	0	0	0
13.81635	0.03603702	-0.07776992	0	0	0	0
13.83318	0.03603702	-0.07776992	0	0	0	0
13.84966	0.03603702	-0.07776992	0	0	0	0
13.86605	0.03603702	-0.07776992	0	0	0	0
13.88262	0.03603702	-0.07776992	0	0	0	0
13.89933	0.03601074	-0.07778924	-0.00157253	-0.001155938	-0.04724828	-0.03473133
13.91575	0.03601074	-0.07778924	0	0	0.04746316	0.03488929
13.93231	0.03601074	-0.07778924	0	0	0	0
13.94888	0.03601074	-0.07778924	0	0	0	0
13.96545	0.03601074	-0.07778924	0	0	0	0
13.98238	0.03601074	-0.07778924	0	0	0	0
13.99858	0.03601074	-0.07778924	0	0	0	0
14.0154	0.03601074	-0.07778924	0	0	0	0
14.03194	0.03601074	-0.07778924	0	0	0	0
14.04828	0.03601074	-0.07778924	0	0	0	0
14.06485	0.03601074	-0.07778924	0	0	0	0
14.08142	0.03601074	-0.07778924	0	0	0	0
14.09798	0.03601074	-0.07778924	0	0	0	0
14.11481	0.03601074	-0.07778924	0	0	0	0
14.13112	0.03601074	-0.07778924	0	0	0	0
14.14768	0.03601074	-0.07778924	0	0	0	0
14.16425	0.03601074	-0.07778924	0	0	0	0
14.18133	0.03601074	-0.07778924	0	0	0	0
14.19738	0.03601074	-0.07778924	0	0	0	0
14.21395	0.03601074	-0.07778924	0	0	0	0
14.23052	0.03601074	-0.07778924	0	0	0	0
14.24708	0.03603702	-0.07780855	0.001586563	-0.001165803	0.04788945	-0.03518907
14.26365	0.03603702	-0.07780855	0	0	-0.04788256	0.03518401
14.28022	0.03603702	-0.07780855	0	0	0	0
14.29678	0.03603702	-0.07780855	0	0	0	0
14.31335	0.03603702	-0.07780855	0	0	0	0
14.32992	0.03603702	-0.07780855	0	0	0	0
14.35017	0.03601074	-0.07782787	-0.001297608	-0.0009538475	-0.03524153	-0.0259054
14.36674	0.03601074	-0.07782787	0	0	0.03523879	0.02590339
14.3833	0.03601074	-0.07782787	0	0	0	0
14.39987	0.03601074	-0.07782787	0	0	0	0
14.41644	0.03601074	-0.07782787	0	0	0	0
14.433	0.03601074	-0.07782787	0	0	0	0
14.44957	0.03601074	-0.07782787	0	0	0	0
14.46614	0.03601074	-0.07782787	0	0	0	0
14.48301	0.03601074	-0.07782787	0	0	0	0
14.49927	0.03601074	-0.07782787	0	0	0	0
14.51584	0.03601074	-0.07782787	0	0	0	0
14.5324	0.03601074	-0.07782787	0	0	0	0
14.54898	0.03601074	-0.07782787	0	0	0	0
14.56557	0.03601074	-0.07782787	0	0	0	0
14.5821	0.03603702	-0.07784718	0.001589674	-0.00116809	0.04799304	-0.03526519
14.59908	0.03603702	-0.07784718	0	0	-0.04743716	0.03485673
14.61524	0.03603702	-0.07784718	0	0	0	0
14.6318	0.03608959	-0.07788581	0.003172943	-0.002331922	0.09696525	-0.07126362
14.6491	0.03608959	-0.07788581	0	0	-0.0936913	0.06885746
14.66512	0.03608959	-0.07788581	0	0	0	0
14.68151	0.03611587	-0.07794376	0.001603549	-0.003535763	0.04948914	-0.1091216
14.69814	0.03611587	-0.07794376	0	0	-0.04855452	0.1070608
14.72155	0.03611587	-0.07794376	0	0	0	0
14.7361	0.03611587	-0.07794376	0	0	0	0
14.75268	0.03611587	-0.07794376	0	0	0	0
14.76923	0.03611587	-0.07794376	0	0	0	0
14.7858	0.03611587	-0.07794376	0	0	0	0
14.80237	0.03611587	-0.07794376	0	0	0	0
14.81893	0.03611587	-0.07794376	0	0	0	0
14.8355	0.03611587	-0.07794376	0	0	0	0
14.85207	0.03611587	-0.07794376	0	0	0	0
14.86863	0.03611587	-0.07794376	0	0	0	0
14.8852	0.03611587	-0.07794376	0	0	0	0
14.90177	0.03611587	-0.07794376	0	0	0	0
14.91833	0.03611587	-0.07794376	0	0	0	0
14.93532	0.03608959	-0.07792445	-0.001547627	0.001137632	-0.04612992	0.03390925
14.95147	0.03608959	-0.07792445	0	0	0.04671017	-0.03433578
14.96803	0.03608959	-0.07792445	0	0	0	0
14.98485	0.03608959	-0.07792445	0	0	0	0
15.00569	0.03608959	-0.07792445	0	0	0	0
15.01773	0.03608959	-0.07792445	0	0	0	0
15.0343	0.03611587	-0.07794376	0.001586471	-0.001166186	0.05546413	-0.04077066
15.05087	0.03611587	-0.07794376	0	0	-0.04788118	0.03519657
15.06743	0.03611587	-0.07794376	0	0	0	0
15.08451	0.03611587	-0.07794376	0	0	0	0
15.10056	0.03611587	-0.07794376	0	0	0	0
15.11713	0.03611587	-0.07794376	0	0	0	0
15.1337	0.03614215	-0.07792445	0.001586246	0.001166186	0.04787577	0.03519758
15.15026	0.03614215	-0.07792445	0	0	-0.04787577	-0.03519758
15.16683	0.03614215	-0.07792445	0	0	0	0
15.18356	0.03614215	-0.07792445	0	0	0	0
15.20007	0.03614215	-0.07792445	0	0	0	0
15.21654	0.03614215	-0.07792445	0	0	0	0
15.2331	0.03616843	-0.07794376	0.001586654	-0.00116632	0.04803185	-0.03530733
15.24966	0.03616843	-0.07794376	0	0	-0.04790048	0.03521076
15.26623	0.03616843	-0.07794376	0	0	0	0
15.2828	0.03648381	-0.07817557	0.01903721	-0.01399243	0.5745771	-0.4223167
15.29936	0.03648381	-0.07817557	0	0	-0.5745771	0.4223167
15.31593	0.03648381	-0.07817557	0	0	0	0
15.33249	0.03672033	-0.0783108	0.01427816	-0.00816377	0.4309407	-0.2463972
15.34906	0.03672033	-0.0783108	0	0	-0.4309283	0.2463901
15.36563	0.03672033	-0.0783108	0	0	0	0
15.3822	0.06590442	-0.09859432	1.761656	-1.224386	53.16996	-36.95416
15.39876	0.06590442	-0.09859432	0	0	-53.16843	36.9531
15.41533	0.06590442	-0.09859432	0	0	0	0
15.4319	0.1325601	-0.1462425	4.02358	-2.876216	121.4389	-86.80936
15.44846	0.1325601	-0.1462425	0	0	-121.4354	86.80686
15.46527	0.1325601	-0.1462425	0	0	0	0
15.4816	0.2178552	-0.1816079	5.224506	-2.16621	157.6804	-65.37822
15.49816	0.2178552	-0.1816079	0	0	-158.8279	65.85398
15.51482	0.2178552	-0.1816079	0	0	0	0
15.5313	0.2583079	-0.1803591	2.455016	0.07579003	74.09892	2.287545
15.54786	0.2583079	-0.1803591	0	0	-74.28924	-2.29342
15.56443	0.2583079	-0.1803591	0	0	0	0
15.581	0.2744479	-0.1831599	0.9741553	-0.1690455	29.40176	-5.102098
15.59756	0.2744479	-0.1831599	0	0	-29.40007	5.101804
15.61413	0.2744479	-0.1831599	0	0	0	0
15.63089	0.2878798	-0.1943379	0.8012519	-0.6668003	24.03999	-20.00603
15.64741	0.2878798	-0.1943379	0	0	-24.07374	20.03412
15.66393	0.2878798	-0.1943379	0	0	0	0
15.68044	0.2985396	-0.2033138	0.6456558	-0.543661	19.55234	-16.46364
15.69696	0.2985396	-0.2033138	0	0	-19.54218	16.45508
15.71353	0.2985396	-0.2033138	0	0	0	0
15.7301	0.2984675	-0.2032527	-0.004353771	0.003685413	-0.1314084	0.1112356
15.74666	0.2984675	-0.2032527	0	0	0.1314009	-0.1112292
15.76323	0.2984675	-0.2032527	0	0	0	0
15.7798	0.2984675	-0.2032527	0	0	0	0
15.79636	0.2984675	-0.2032527	0	0	0	0
15.81301	0.2984675	-0.2032527	0	0	0	0
15.8295	0.2984675	-0.2032527	0	0	0	0
15.84606	0.2984675	-0.2032527	0	0	0	0
15.86263	0.2984675	-0.2032527	0	0	0	0
15.8792	0.2985396	-0.2033138	0.00435352	-0.003685201	0.1313933	-0.1112228
15.89576	0.2985396	-0.2033138	0	0	-0.1313933	0.1112228
15.91233	0.2985396	-0.2033138	0	0	0	0
15.9289	0.3008938	-0.2051868	0.1421047	-0.1130611	4.288974	-3.412387
15.94546	0.3008938	-0.2051868	0	0	-4.288974	3.412387
15.96203	0.3008938	-0.2051868	0	0	0	0
15.97859	0.3228475	-0.2237007	1.325208	-1.11757	39.99716	-33.73028
15.99516	0.3228475	-0.2237007	0	0	-39.99601	33.72931
16.01173	0.3228475	-0.2237007	0	0	0	0
16.0283	0.3377528	-0.2365428	0.8996859	-0.775151	27.15336	-23.39478
16.04519	0.3377528	-0.2365428	0	0	-26.88944	23.16739
16.06143	0.3377528	-0.2365428	0	0	0	0
16.078	0.3387364	-0.2373701	0.05936816	-0.04993668	1.809547	-1.522074
16.09471	0.3387364	-0.2373701	0	0	-1.783726	1.500355
16.11113	0.3387364	-0.2373701	0	0	0	0
16.12812	0.338713	-0.2373495	-0.001376922	0.001217305	-0.04121397	0.0364363
16.14538	0.338713	-0.2373495	0	0	0.04020181	-0.03554147
16.16125	0.338713	-0.2373495	0	0	0	0
16.17782	0.338713	-0.2373495	0	0	0	0
16.19439	0.338713	-0.2373495	0	0	0	0
16.21096	0.338713	-0.2373495	0	0	0	0
16.22752	0.3386662	-0.2373081	-0.002826028	0.002497733	-0.08528968	0.07538174
16.24409	0.3386662	-0.2373081	0	0	0.08528968	-0.07538174
16.26099	0.3386662	-0.2373081	0	0	0	0
16.27722	0.3385959	-0.237246	-0.004327121	0.003822259	-0.1306003	0.1153627
16.29379	0.3385959	-0.237246	0	0	0.1319217	-0.1165299
16.31051	0.3385959	-0.237246	0	0	0	0
16.32693	0.3384086	-0.2370805	-0.01140836	0.01007965	-0.344285	0.3041869
16.34353	0.3384086	-0.2370805	0	0	0.3454383	-0.3052059
16.36006	0.3384086	-0.2370805	0	0	0	0
16.37705	0.3379871	-0.2367496	-0.0248137	0.01947819	-0.7403554	0.581162
16.39319	0.3379871	-0.2367496	0	0	0.748922	-0.5878866
16.41006	0.3379871	-0.2367496	0	0	0	0
16.42658	0.3377294	-0.2365222	-0.01560515	0.01377678	-0.4674661	0.4126959
16.44289	0.3377294	-0.2365222	0	0	0.4753422	-0.4196492
16.45946	0.3377294	-0.2365222	0	0	0	0
16.47611	0.337706	-0.2365428	-0.001406787	-0.001242125	-0.04234965	-0.03739269
16.49262	0.337706	-0.2365428	0	0	0.04242029	0.03745506
16.50916	0.337706	-0.2365428	0	0	0	0
16.52573	0.3375185	-0.2363774	-0.0113131	0.009985537	-0.3417449	0.3016419
16.54316	0.3375185	-0.2363774	0	0	0.3327718	-0.2937218
16.55886	0.3375185	-0.2363774	0	0	0	0
16.57543	0.3372139	-0.2361913	-0.01838838	0.01123345	-0.5698215	0.3481034
16.592	0.3372139	-0.2361913	0	0	0.5549945	-0.3390456
16.60872	0.3372139	-0.2361913	0	0	0	0
16.62523	0.3366748	-0.2357985	-0.0326506	0.02378765	-0.9825127	0.7158113
16.6417	0.3366748	-0.2357985	0	0	0.9900132	-0.7212757
16.66433	0.3366748	-0.2357985	0	0	0	0
16.67646	0.3362293	-0.2354058	-0.036741	0.03238925	-1.056889	0.9317071
16.69303	0.3362293	-0.2354058	0	0	1.28052	-1.12885
16.70959	0.3362293	-0.2354058	0	0	0	0
16.72616	0.3339058	-0.2333608	-0.140267	0.1234501	-4.23351	3.725946
16.7428	0.3339058	-0.2333608	0	0	4.224026	-3.717599
16.75932	0.3339058	-0.2333608	0	0	0	0
16.77586	0.3339058	-0.2334021	0	-0.002497224	0	-0.07554032
16.79243	0.3339058	-0.2334021	0	0	0	0.07544021
16.80899	0.3339058	-0.2334021	0	0	0	0
16.82587	0.3339292	-0.2334228	0.001391557	-0.001222911	0.04160926	-0.03656652
16.84213	0.3339292	-0.2334228	0	0	-0.04199728	0.03690752
16.8588	0.3339292	-0.2334228	0	0	0	0
16.87526	0.3339292	-0.233464	0	-0.0025088	0	-0.0757201
16.89233	0.3339292	-0.233464	0	0	0	0.07482842
16.90839	0.3339292	-0.233464	0	0	0	0
16.92499	0.3339058	-0.2334434	-0.001415067	0.001243571	-0.04332532	0.0380746
16.94186	0.3339058	-0.2334434	0	0	0.04227848	-0.03715463
16.9581	0.3339058	-0.2334434	0	0	0	0
16.97487	0.3214505	-0.2225709	-0.7423971	0.6480609	-22.49104	19.63311
16.99138	0.3214505	-0.2225709	0	0	22.30161	-19.46774
17.0084	0.3214505	-0.2225709	0	0	0	0
17.02491	0.253875	-0.1659472	-4.09253	3.429262	-122.0723	102.2883
17.04093	0.253875	-0.1659472	0	0	125.8085	-105.419
17.0575	0.253875	-0.1659472	0	0	0	0
17.07444	0.1857801	-0.1123343	-4.017708	3.163246	-119.8746	94.38036
17.09063	0.1857801	-0.1123343	0	0	121.2616	-95.47244
17.10747	0.1857801	-0.1123343	0	0	0	0
17.12398	0.1484267	-0.0861656	-2.262211	1.584835	-67.83244	47.52131
17.14033	0.1484267	-0.0861656	0	0	68.84433	-48.23021
17.15689	0.1484267	-0.0861656	0	0	0	0
17.17346	0.1400766	-0.08020472	-0.5040695	0.359841	-15.21372	10.86065
17.19003	0.1400766	-0.08020472	0	0	15.21372	-10.86065
17.20659	0.1400766	-0.08020472	0	0	0	0
17.22316	0.1401024	-0.08037871	0.001558002	-0.01050347	0.04702331	-0.3170137
17.24371	0.1401024	-0.08037871	0	0	-0.04197112	0.2829537
17.25629	0.1401024	-0.08037871	0	0	0	0
17.27286	0.1404636	-0.08064939	0.02180574	-0.01634013	0.7482483	-0.5607001
17.28942	0.1404636	-0.08064939	0	0	-0.6581363	0.4931746
17.30599	0.1404636	-0.08064939	0	0	0	0
17.32256	0.1405152	-0.08064939	0.003115105	0	0.09401947	0
17.33913	0.1405152	-0.08064939	0	0	-0.09399241	0
17.35569	0.1405152	-0.08064939	0	0	0	0
17.37226	0.1406184	-0.08072674	0.006228594	-0.004668522	0.1880334	-0.1409368
17.38882	0.1406184	-0.08072674	0	0	-0.1879793	0.1408963
17.40539	0.1406184	-0.08072674	0	0	0	0
17.42196	0.14067	-0.08076541	0.003115105	-0.002334755	0.09401947	-0.07046709
17.43869	0.14067	-0.08076541	0	0	-0.09355629	0.07011995
17.45509	0.14067	-0.08076541	0	0	0	0
17.47165	0.14067	-0.08080408	0	-0.002334305	0	-0.07080815
17.48822	0.14067	-0.08080408	0	0	0	0.07045352
17.50479	0.14067	-0.08080408	0	0	0	0
17.52525	0.1406184	-0.08080408	-0.002522581	0	-0.06813452	0
17.54181	0.1406184	-0.08080408	0	0	0.06813803	0
17.55838	0.1405152	-0.08088143	-0.006228594	-0.004668972	-0.1879901	-0.140918
17.57495	0.1405152	-0.08088143	0	0	0.1879793	0.1409098
17.59151	0.1405152	-0.08088143	0	0	0	0
17.60808	0.1403346	-0.08101679	-0.01090116	-0.008170475	-0.3289977	-0.2465854
17.62482	0.1403346	-0.08101679	0	0	0.3272833	0.2453005
17.64121	0.1403346	-0.08101679	0	0	0	0
17.65778	0.1400766	-0.08121018	-0.01557463	-0.01167288	-0.4725459	-0.3541638
17.67438	0.1400766	-0.08121018	0	0	0.4696108	0.351964
17.69091	0.1400766	-0.08121018	0	0	0	0
17.70748	0.1396895	-0.08150029	-0.02336285	-0.01751112	-0.7057421	-0.5289738
17.72405	0.1396895	-0.08150029	0	0	0.7050921	0.5284865
17.74062	0.1396895	-0.08150029	0	0	0	0
17.75718	0.1243032	-0.09299421	-0.928722	-0.693774	-28.02888	-20.93814
17.77375	0.1243032	-0.09299421	0	0	28.02888	20.93814
17.79032	0.1243032	-0.09299421	0	0	0	0
17.80688	0.09698425	-0.1134891	-1.649163	-1.237217	-49.7747	-37.34143
17.82345	0.09698425	-0.1134891	0	0	49.7747	37.34143
17.84002	0.09698425	-0.1134891	0	0	0	0
17.85658	0.07899318	-0.1269752	-1.086068	-0.8141165	-32.7795	-24.5715
17.87315	0.07899318	-0.1269752	0	0	32.7795	24.5715
17.88991	0.07899318	-0.1269752	0	0	0	0
17.90639	0.07724076	-0.1282156	-0.1063272	-0.07525984	-3.198467	-2.263918
17.92285	0.07724076	-0.1282156	0	0	3.228101	2.284894
17.93942	0.07724076	-0.1282156	0	0	0	0
17.95598	0.07745003	-0.128058	0.01263313	0.00951083	0.3812906	0.2870539
17.97255	0.07745003	-0.128058	0	0	-0.3812906	-0.2870539
17.98912	0.07745003	-0.128058	0	0	0	0
18.00568	0.0777116	-0.1279005	0.0157887	0.009508836	0.4765038	0.2869772
18.02225	0.0777116	-0.1279005	0	0	-0.4765038	-0.2869772
18.03882	0.0777116	-0.1279005	0	0	0	0
18.05538	0.07802548	-0.1276642	0.0189479	0.0142631	0.5718817	0.4304859
18.0722	0.07802548	-0.1276642	0	0	-0.5675688	-0.4272394
18.08852	0.07802548	-0.1276642	0	0	0	0
18.10525	0.07823473	-0.1275067	0.01250935	0.009415978	0.3785791	0.2849621
18.12165	0.07823473	-0.1275067	0	0	-0.3775548	-0.2841911
18.13825	0.07823473	-0.1275067	0	0	0	0
18.15478	0.09056735	-0.118153	0.7459441	0.5657672	22.51394	17.07587
18.17135	0.09056735	-0.118153	0	0	-22.53599	-17.0926
18.18792	0.09056735	-0.118153	0	0	0	0
18.20448	0.1116132	-0.1023149	1.270473	0.9560993	38.34517	28.8568
18.22105	0.1116132	-0.1023149	0	0	-38.34517	-28.8568
18.23785	0.1116132	-0.1023149	0	0	0	0
18.25418	0.1229815	-0.09382958	0.6960502	0.5195299	21.00805	15.68035
18.27075	0.1229815	-0.09382958	0	0	-21.15663	-15.79125
18.28732	0.1229815	-0.09382958	0	0	0	0
18.30388	0.1237072	-0.09332444	0.04380253	0.03049043	1.321963	0.9202029
18.32045	0.1237072	-0.09332444	0	0	-1.321963	-0.9202029
18.34226	0.1237072	-0.09332444	0	0	0	0
18.35424	0.1236553	-0.09340215	-0.004326043	-0.006486577	-0.1280395	-0.1919857
18.37081	0.1236553	-0.09340215	0	0	0.1515395	0.2272222
18.38737	0.1236553	-0.09340215	0	0	0	0
18.40394	0.123448	-0.09363528	-0.01251619	-0.01407374	-0.3777612	-0.4247709
18.42051	0.123448	-0.09363528	0	0	0.3777612	0.4247709
18.43707	0.123448	-0.09363528	0	0	0	0
18.45364	0.1230333	-0.09402389	-0.02503328	-0.02345909	-0.7555494	-0.7080374
18.47021	0.1230333	-0.09402389	0	0	0.7555494	0.7080374
18.48677	0.1230333	-0.09402389	0	0	0	0
18.50334	0.1228519	-0.09415992	-0.01095198	-0.008210951	-0.3305314	-0.247807
18.52002	0.1228519	-0.09415992	0	0	0.3294127	0.2469682
18.53653	0.1228519	-0.09415992	0	0	0	0
18.55304	0.1223853	-0.09454861	-0.02826491	-0.02354492	-0.8559932	-0.7130498
18.56961	0.1223853	-0.09454861	0	0	0.8545617	0.7118573
18.58617	0.1223853	-0.09454861	0	0	0	0
18.60274	0.122152	-0.09472353	-0.01408454	-0.01055969	-0.4250967	-0.3187105
18.61931	0.122152	-0.09472353	0	0	0.4250722	0.3186922
18.63587	0.122152	-0.09472353	0	0	0	0
18.65244	0.1212963	-0.09540391	-0.05165111	-0.04107252	-1.559103	-1.239785
18.66901	0.1212963	-0.09540391	0	0	1.558833	1.239571
18.68557	0.1212963	-0.09540391	0	0	0	0
18.70236	0.1194289	-0.09688191	-0.1112323	-0.08803663	-3.33492	-2.639478
18.71887	0.1194289	-0.09688191	0	0	3.34046	2.643862
18.73538	0.1194289	-0.09688191	0	0	0	0
18.7519	0.1194549	-0.09690136	0.001571164	-0.001178147	0.04757391	-0.0356736
18.7684	0.1194549	-0.09690136	0	0	-0.04758215	0.03567978
18.78497	0.1194549	-0.09690136	0	0	0	0
18.80154	0.1194808	-0.09692082	0.001565918	-0.001174213	0.04726221	-0.03543987
18.8181	0.1194808	-0.09692082	0	0	-0.04725949	0.03543783
18.83467	0.1194808	-0.09692082	0	0	0	0
18.85124	0.1195068	-0.09694027	0.001566098	-0.001174349	0.04726766	-0.03544396
18.8678	0.1195068	-0.09694027	0	0	-0.04726766	0.03544396
18.88437	0.1195068	-0.09694027	0	0	0	0
18.90094	0.1195068	-0.09694027	0	0	0	0
18.9175	0.1195068	-0.09694027	0	0	0	0
18.93438	0.1195068	-0.09694027	0	0	0	0
18.95063	0.1195068	-0.09694027	0	0	0	0
18.9672	0.1195068	-0.09694027	0	0	0	0
18.98377	0.1195068	-0.09694027	0	0	0	0
19.00033	0.1195068	-0.09694027	0	0	0	0
19.01744	0.1195068	-0.09694027	0	0	0	0
19.03347	0.1195068	-0.09694027	0	0	0	0
19.05003	0.1195068	-0.09694027	0	0	0	0
19.0666	0.1195068	-0.09694027	0	0	0	0
19.08317	0.1195068	-0.09694027	0	0	0	0
19.09973	0.1195068	-0.09694027	0	0	0	0
19.11652	0.1195068	-0.09694027	0	0	0	0
19.13287	0.1195068	-0.09694027	0	0	0	0
19.15333	0.1195068	-0.09694027	0	0	0	0
19.166	0.1195068	-0.09694027	0	0	0	0
19.18291	0.1195068	-0.09694027	0	0	0	0
19.19942	0.1195068	-0.09694027	0	0	0	0
19.21593	0.1195068	-0.09694027	0	0	0	0
19.23227	0.1195068	-0.09694027	0	0	0	0
19.24883	0.1195068	-0.09694027	0	0	0	0
19.2654	0.1195068	-0.09694027	0	0	0	0
19.28197	0.1195068	-0.09694027	0	0	0	0
19.29854	0.1195068	-0.09694027	0	0	0	0
19.3151	0.1195068	-0.09694027	0	0	0	0
19.33167	0.1195068	-0.09694027	0	0	0	0
19.34853	0.1195068	-0.09694027	0	0	0	0
19.3648	0.1195068	-0.09694027	0	0	0	0
19.38137	0.1195068	-0.09694027	0	0	0	0
19.39794	0.1195068	-0.09694027	0	0	0	0
19.41451	0.1195068	-0.09694027	0	0	0	0
19.43146	0.1195068	-0.09694027	0	0	0	0
19.44764	0.1195068	-0.09694027	0	0	0	0
19.4642	0.1195068	-0.09694027	0	0	0	0
19.48077	0.1195327	-0.09695973	0.001566098	-0.001174349	0.04726766	-0.03544396
19.49734	0.1195327	-0.09695973	0	0	-0.04726766	0.03544396
19.51404	0.1195327	-0.09695973	0	0	0	0
19.53053	0.1195327	-0.09695973	0	0	0	0
19.54704	0.1195327	-0.09695973	0	0	0	0
19.56361	0.1195327	-0.09695973	0	0	0	0
19.58017	0.1195327	-0.09695973	0	0	0	0
19.59674	0.1195327	-0.09695973	0	0	0	0
19.61364	0.1195327	-0.09695973	0	0	0	0
19.63011	0.1195327	-0.09695973	0	0	0	0
19.64661	0.1195327	-0.09695973	0	0	0	0
19.66366	0.1195327	-0.09695973	0	0	0	0
19.68013	0.1195327	-0.09695973	0	0	0	0
19.69614	0.1195327	-0.09695973	0	0	0	0
19.7127	0.1195327	-0.09695973	0	0	0	0
19.72927	0.1195327	-0.09695973	0	0	0	0
19.74584	0.1195327	-0.09695973	0	0	0	0
19.76241	0.1195327	-0.09695973	0	0	0	0
19.77897	0.1195327	-0.09695973	0	0	0	0
19.79554	0.1195327	-0.09695973	0	0	0	0
19.81211	0.1195327	-0.09695973	0	0	0	0
19.82867	0.1195327	-0.09695973	0	0	0	0
19.84525	0.1195327	-0.09695973	0	0	0	0
19.86181	0.1195327	-0.09695973	0	0	0	0
19.87837	0.1195327	-0.09695973	0	0	0	0
19.8953	0.1195327	-0.09695973	0	0	0	0
19.9115	0.1195327	-0.09695973	0	0	0	0
19.92833	0.1195586	-0.09697918	0.001541684	-0.001156374	0.0466759	-0.03501028
19.94483	0.1195586	-0.09697918	0	0	-0.04626447	0.03470168
19.9612	0.1195586	-0.09697918	0	0	0	0
19.98127	0.1195586	-0.09697918	0	0	0	0
19.99784	0.1195586	-0.09697918	0	0	0	0
20.0148	0.1195586	-0.09697918	0	0	0	0
20.03098	0.1195586	-0.09697918	0	0	0	0
20.04785	0.1195586	-0.09697918	0	0	0	0
20.06432	0.1195586	-0.09697918	0	0	0	0
20.08068	0.1195586	-0.09697918	0	0	0	0
20.09724	0.1195586	-0.09697918	0	0	0	0
20.11386	0.1195586	-0.09697918	0	0	0	0
20.13039	0.1195586	-0.09697918	0	0	0	0
20.14695	0.1195586	-0.09697918	0	0	0	0
20.16351	0.1195586	-0.09697918	0	0	0	0
20.18008	0.1195586	-0.09697918	0	0	0	0
20.19665	0.1195586	-0.09697918	0	0	0	0
20.21395	0.1195586	-0.09697918	0	0	0	0
20.22999	0.1195586	-0.09697918	0	0	0	0
20.24635	0.1195586	-0.09697918	0	0	0	0
20.26479	0.1195586	-0.09697918	0	0	0	0
20.28136	0.1195586	-0.09697918	0	0	0	0
20.29793	0.1195586	-0.09697918	0	0	0	0
20.31449	0.1195586	-0.09697918	0	0	0	0
20.33124	0.1195586	-0.09697918	0	0	0	0
20.34776	0.1195586	-0.09697918	0	0	0	0
20.36419	0.1195586	-0.09701809	0	-0.002367507	0	-0.07184438
20.38076	0.1195586	-0.09701809	0	0	0	0.07174058
20.39733	0.1195586	-0.09701809	0	0	0	0
20.41389	0.1196105	-0.09705699	0.003132196	-0.002348698	0.09453531	-0.07088792
20.43081	0.1196105	-0.09705699	0	0	-0.09354979	0.07014891
20.44781	0.1196105	-0.09705699	0	0	0	0
20.46385	0.1196105	-0.09705699	0	0	0	0
20.48084	0.1196105	-0.09705699	0	0	0	0
20.49687	0.1196105	-0.09705699	0	0	0	0
20.51329	0.1196365	-0.09707645	0.001579373	-0.001184303	0.04867426	-0.0364987
20.52986	0.1196365	-0.09707645	0	0	-0.04786396	0.0358911
20.54643	0.1196365	-0.09707645	0	0	0	0
20.5634	0.1196624	-0.09709591	0.001527827	-0.001146419	0.04555397	-0.03418184
20.57956	0.1196624	-0.09709591	0	0	-0.0461099	0.03459898
20.59613	0.1196624	-0.09709591	0	0	0	0
20.61269	0.1196624	-0.09709591	0	0	0	0
20.62947	0.1196624	-0.09709591	0	0	0	0
20.64648	0.1196624	-0.09709591	0	0	0	0
20.66247	0.1196624	-0.09709591	0	0	0	0
20.67896	0.1196624	-0.09709591	0	0	0	0
20.69553	0.1196624	-0.09709591	0	0	0	0
20.71209	0.1196883	-0.09711536	0.001566279	-0.001174484	0.04727582	-0.03545007
20.72901	0.1196883	-0.09711536	0	0	-0.04678028	0.03507849
20.74553	0.1196883	-0.09711536	0	0	0	0
20.76179	0.1196883	-0.09711536	0	0	0	0
20.77836	0.1196883	-0.09711536	0	0	0	0
20.79508	0.1196883	-0.09711536	0	0	0	0
20.81513	0.1197143	-0.09713481	0.001293662	-0.0009700608	0.03517902	-0.02637921
20.8317	0.1197143	-0.09713481	0	0	-0.0353256	0.02648913
20.84997	0.1197402	-0.09715427	0.00141938	-0.001064637	0.04074037	-0.03055821
20.86654	0.1197402	-0.09715427	0	0	-0.04073815	0.03055653
20.88311	0.1197402	-0.09715427	0	0	0	0
20.89968	0.1197662	-0.09717372	0.001565918	-0.001174213	0.04725949	-0.03543783
20.91624	0.1197662	-0.09717372	0	0	-0.04726221	0.03543987
20.93312	0.1197662	-0.09717372	0	0	0	0
20.94938	0.1197662	-0.09717372	0	0	0	0
20.96594	0.1197662	-0.09717372	0	0	0	0
20.98251	0.1197662	-0.09717372	0	0	0	0
20.99908	0.1197662	-0.09717372	0	0	0	0
21.01564	0.1197662	-0.09717372	0	0	0	0
21.03221	0.1197662	-0.09717372	0	0	0	0
21.04878	0.1197662	-0.09717372	0	0	0	0
21.06534	0.1197662	-0.09717372	0	0	0	0
21.08191	0.1197662	-0.09717372	0	0	0	0
21.09848	0.1197662	-0.09717372	0	0	0	0
21.11504	0.1197662	-0.09717372	0	0	0	0
21.13194	0.1197662	-0.09717372	0	0	0	0
21.14843	0.1197662	-0.09717372	0	0	0	0
21.16474	0.1197662	-0.09717372	0	0	0	0
21.18146	0.1197662	-0.09717372	0	0	0	0
21.19788	0.1197921	-0.09719317	0.001580107	-0.001184853	0.04769047	-0.03576101
21.21444	0.1197921	-0.09719317	0	0	-0.04790281	0.03592023
21.23101	0.1197921	-0.09719317	0	0	0	0
21.24758	0.1197921	-0.09719317	0	0	0	0
21.26414	0.1197921	-0.09719317	0	0	0	0
21.28103	0.1197921	-0.09719317	0	0	0	0
21.29753	0.1197921	-0.09719317	0	0	0	0
21.31384	0.1197921	-0.09719317	0	0	0	0
21.33057	0.1197921	-0.09719317	0	0	0	0
21.34708	0.12407	-0.1002884	0.2591072	-0.1874734	7.796086	-5.640749
21.36393	0.12407	-0.1002884	0	0	-7.766668	5.619463
21.38011	0.12407	-0.1002884	0	0	0	0
21.39667	0.164167	-0.1302646	2.420542	-1.809576	73.92444	-55.26526
21.41324	0.164167	-0.1302646	0	0	-73.0563	54.61624
21.42981	0.164167	-0.1302646	0	0	0	0
21.4465	0.2271428	-0.1793324	3.772994	-2.939739	113.4447	-88.39077
21.46294	0.2271428	-0.1793324	0	0	-113.8692	88.7215
21.47952	0.2271428	-0.1793324	0	0	0	0
21.49607	0.2921568	-0.2333402	3.926962	-3.262172	118.5228	-98.4582
21.51264	0.2921568	-0.2333402	0	0	-118.5569	98.48655
21.52921	0.2921568	-0.2333402	0	0	0	0
21.54778	0.3427805	-0.2790813	2.726392	-2.463433	77.60121	-70.11662
21.56434	0.3427805	-0.2790813	0	0	-77.597	70.11282
21.58091	0.3427805	-0.2790813	0	0	0	0
21.59748	0.3675547	-0.3019872	1.49537	-1.382602	45.13034	-41.72701
21.61414	0.3675547	-0.3019872	0	0	-45.00341	41.60965
21.63061	0.3675547	-0.3019872	0	0	0	0
21.64739	0.3685627	-0.3028863	0.06006187	-0.05357321	1.806121	-1.611
21.66374	0.3685627	-0.3028863	0	0	-1.812775	1.616936
21.68041	0.3685627	-0.3028863	0	0	0	0
21.69692	0.3685169	-0.3028006	-0.002774769	0.005188475	-0.08364158	0.1563994
21.71344	0.3685169	-0.3028006	0	0	0.08399411	-0.1570586
21.73001	0.3685169	-0.3028006	0	0	0	0
21.74658	0.3684711	-0.3028006	-0.002765184	0	-0.08345823	0
21.76314	0.3684711	-0.3028006	0	0	0.08346304	0
21.77971	0.3684711	-0.3028006	0	0	0	0
21.79627	0.3683795	-0.3028435	-0.005528569	-0.002585276	-0.1668622	-0.07802828
21.813	0.3683795	-0.3028435	0	0	0.1660877	0.07766613
21.82941	0.3683795	-0.3028435	0	0	0	0
21.84601	0.36799	-0.3029933	-0.02344916	-0.009024707	-0.710191	-0.2733259
21.86254	0.36799	-0.3029933	0	0	0.7076972	0.2723662
21.87911	0.36799	-0.3029933	0	0	0	0
21.9085	0.3642503	-0.3064872	-0.1272182	-0.1188563	-2.767823	-2.585895
21.92507	0.3642503	-0.3064872	0	0	2.767823	2.585895
21.94164	0.3459516	-0.3235839	-1.104516	-1.031955	-33.33437	-31.14447
21.9591	0.3459516	-0.3235839	0	0	32.45444	30.32235
21.97477	0.3459516	-0.3235839	0	0	0	0
21.99162	0.3366279	-0.3322497	-0.5534721	-0.514422	-17.02228	-15.82128
22.00813	0.3366279	-0.3322497	0	0	16.59113	15.42054
22.02447	0.3366279	-0.3322497	0	0	0	0
22.04104	0.3366279	-0.3322497	0	0	0	0
22.05761	0.3366279	-0.3322497	0	0	0	0
22.07417	0.3366279	-0.3322497	0	0	0	0
22.09074	0.33637	-0.3319666	-0.01556744	0.01708389	-0.4698532	0.5156224
22.10731	0.33637	-0.3319666	0	0	0.4698532	-0.5156224
22.12422	0.33637	-0.3319666	0	0	0	0
22.14044	0.3358306	-0.3310308	-0.03325641	0.05769528	-1.00368	1.741247
22.15773	0.3358306	-0.3310308	0	0	0.9925392	-1.721918
22.17357	0.3358306	-0.3310308	0	0	0	0
22.19014	0.3359948	-0.330748	0.009909985	0.01707309	0.3057365	0.5267281
22.20678	0.3359948	-0.330748	0	0	-0.2984826	-0.5142308
22.22327	0.3359948	-0.330748	0	0	0	0
22.23984	0.3360182	-0.3307262	0.001415712	0.001313176	0.042815	0.03971404
22.25679	0.3360182	-0.3307262	0	0	-0.04223998	-0.03918066
22.27297	0.3360182	-0.3307262	0	0	0	0
22.28954	0.3359948	-0.330748	-0.001415712	-0.001313176	-0.04322642	-0.04009566
22.30611	0.3359948	-0.330748	0	0	0.04272873	0.03963402
22.32267	0.3359948	-0.330748	0	0	0	0
22.33934	0.3360182	-0.3307697	0.001407448	-0.001305511	0.04235253	-0.03928507
22.35581	0.3360182	-0.3307697	0	0	-0.04247687	0.0394004
22.37238	0.3360182	-0.3307697	0	0	0	0
22.38894	0.3360182	-0.3307697	0	0	0	0
22.40551	0.3360182	-0.3307697	0	0	0	0
22.42208	0.3360182	-0.3307697	0	0	0	0
22.43864	0.3359948	-0.330748	-0.001415875	0.001313328	-0.04273365	0.03963859
22.45543	0.3359948	-0.330748	0	0	0.0424429	-0.03936889
22.47178	0.3359948	-0.330748	0	0	0	0
22.48848	0.3338118	-0.324429	-0.1306674	0.3782342	-3.95402	11.44544
22.50547	0.3338118	-0.324429	0	0	3.877921	-11.22516
22.52147	0.3338118	-0.324429	0	0	0	0
22.53804	0.3086762	-0.2745212	-1.51719	3.012439	-46.57987	92.48614
22.55461	0.3086762	-0.2745212	0	0	45.78888	-90.9156
22.57118	0.3086762	-0.2745212	0	0	0	0
22.58774	0.2546145	-0.2049424	-3.263542	4.200273	-98.49956	126.7718
22.60431	0.2546145	-0.2049424	0	0	98.49956	-126.7718
22.62107	0.2546145	-0.2049424	0	0	0	0
22.63744	0.1911378	-0.1496973	-3.877893	3.375011	-117.0418	101.8639
22.65401	0.1911378	-0.1496973	0	0	117.7399	-102.4715
22.67058	0.1911378	-0.1496973	0	0	0	0
22.68761	0.1312671	-0.1041479	-3.51506	2.674244	-104.6153	79.59093
22.70371	0.1312671	-0.1041479	0	0	106.0908	-80.71348
22.72035	0.1312671	-0.1041479	0	0	0	0
22.73684	0.1033411	-0.08389969	-1.693027	1.227553	-51.09859	37.04976
22.75341	0.1033411	-0.08389969	0	0	51.20766	-37.12884
22.77038	0.1033411	-0.08389969	0	0	0	0
22.78654	0.1019349	-0.08300935	-0.087008	0.05509228	-2.626058	1.662784
22.80311	0.1019349	-0.08300935	0	0	2.658348	-1.68323
22.81968	0.1019349	-0.08300935	0	0	0	0
22.83624	0.101961	-0.0830287	0.001572214	-0.001167918	0.04745224	-0.03524985
22.85281	0.101961	-0.0830287	0	0	-0.04744951	0.03524782
22.86938	0.101961	-0.0830287	0	0	0	0
22.88594	0.101987	-0.08304805	0.001571945	-0.001168502	0.04744686	-0.03526951
22.90251	0.101987	-0.08304805	0	0	-0.04744413	0.03526748
22.91952	0.101987	-0.08304805	0	0	0	0
22.93564	0.1020652	-0.0830674	0.004845154	-0.001199968	0.1462355	-0.03621719
22.95221	0.1020652	-0.0830674	0	0	-0.1482063	0.0367053
22.96877	0.1020652	-0.0830674	0	0	0	0
22.98534	0.1021172	-0.08310611	0.00314434	-0.002336554	0.09490184	-0.07052139
23.00191	0.1021172	-0.08310611	0	0	-0.09490184	0.07052139
23.01857	0.1021172	-0.08310611	0	0	0	0
23.03558	0.1022214	-0.08318352	0.006123938	-0.004551013	0.1818479	-0.1351406
23.05161	0.1022214	-0.08318352	0	0	-0.1853757	0.1377622
23.06817	0.1022214	-0.08318352	0	0	0	0
23.08474	0.1022214	-0.08322223	0	-0.002336285	0	-0.07051733
23.10131	0.1022214	-0.08322223	0	0	0	0.07050921
23.11787	0.1022214	-0.08322223	0	0	0	0
23.13444	0.1022214	-0.08322223	0	0	0	0
23.15101	0.1022214	-0.08322223	0	0	0	0
23.16757	0.1022214	-0.08322223	0	0	0	0
23.1842	0.1021954	-0.08320288	-0.001566534	0.001164031	-0.0471993	0.03507198
23.20071	0.1021954	-0.08320288	0	0	0.04728081	-0.03513255
23.21727	0.1021954	-0.08320288	0	0	0	0
23.23384	0.1021954	-0.08320288	0	0	0	0
23.25041	0.1021954	-0.08320288	0	0	0	0
23.26697	0.1021954	-0.08320288	0	0	0	0
23.28354	0.1021954	-0.08320288	0	0	0	0
23.3001	0.1021954	-0.08320288	0	0	0	0
23.31667	0.1021954	-0.08320288	0	0	0	0
23.33324	0.1021954	-0.08320288	0	0	0	0
23.34981	0.1021954	-0.08320288	0	0	0	0
23.36637	0.1021954	-0.08320288	0	0	0	0
23.38294	0.1021954	-0.08320288	0	0	0	0
23.39951	0.1021954	-0.08320288	0	0	0	0
23.41629	0.1021954	-0.08320288	0	0	0	0
23.43264	0.1021693	-0.08326094	-0.001593039	-0.003552089	-0.04808078	-0.1072084
23.44921	0.1021693	-0.08326094	0	0	0.0484012	0.1079229
23.46577	0.1021693	-0.08326094	0	0	0	0
23.48234	0.1021172	-0.08333835	-0.00314434	-0.004673108	-0.09490184	-0.1410428
23.49891	0.1021172	-0.08333835	0	0	0.09490184	0.1410428
23.51547	0.1021172	-0.08333835	0	0	0	0
23.53204	0.1020912	-0.08339642	-0.001571764	-0.003505102	-0.04743594	-0.1057842
23.54861	0.1020912	-0.08339642	0	0	0.04743594	0.1057842
23.56518	0.1020912	-0.08339642	0	0	0	0
23.58174	0.1020912	-0.08339642	0	0	0	0
23.59831	0.1020912	-0.08339642	0	0	0	0
23.61488	0.1020912	-0.08339642	0	0	0	0
23.63144	0.1020912	-0.08339642	0	0	0	0
23.64801	0.1020912	-0.08339642	0	0	0	0
23.66458	0.1020912	-0.08339642	0	0	0	0
23.75462	0.1020912	-0.08343513	0	-0.0004298811	0	-0.004032447
23.77118	0.1020912	-0.08343513	0	0	0	0.004032447
23.78775	0.1021172	-0.08345448	0.001571764	-0.001168367	0.04743594	-0.03526139
23.80432	0.1021172	-0.08345448	0	0	-0.04743594	0.03526139
23.82089	0.1021172	-0.08345448	0	0	0	0
23.84309	0.1021693	-0.08353191	0.002345696	-0.003486837	0.06049883	-0.08993047
23.85402	0.1021693	-0.08353191	0	0	-0.07079325	0.1052329
23.87059	0.1022474	-0.08358997	0.004715293	-0.003504652	0.171488	-0.1274589
23.88716	0.1022474	-0.08358997	0	0	-0.1423078	0.1057706
23.90372	0.1022474	-0.08358997	0	0	0	0
23.92029	0.1022735	-0.08360933	0.001572395	-0.001168502	0.04745771	-0.03526748
23.93709	0.1022735	-0.08360933	0	0	-0.04712134	0.03501751
23.95342	0.1022735	-0.08360933	0	0	0	0
23.97013	0.1022995	-0.08362868	0.001558843	-0.001158762	0.04718721	-0.0350765
23.98664	0.1022995	-0.08362868	0	0	-0.0469298	0.03488516
24.00314	0.1022995	-0.08362868	0	0	0	0
24.01969	0.1022735	-0.08364804	-0.001573576	-0.001169714	-0.04761395	-0.03539372
24.03625	0.1022735	-0.08364804	0	0	0.04751796	0.03532237
24.05282	0.1022735	-0.08364804	0	0	0	0
24.06939	0.1022735	-0.08364804	0	0	0	0
24.08596	0.1022735	-0.08364804	0	0	0	0
24.10252	0.1022735	-0.08364804	0	0	0	0
24.12086	0.1022735	-0.08364804	0	0	0	0
24.13743	0.1022735	-0.08364804	0	0	0	0
24.154	0.1022735	-0.08364804	0	0	0	0
24.17057	0.1022995	-0.0836674	0.001571402	-0.001168098	0.0474141	-0.03524516
24.18713	0.1022995	-0.0836674	0	0	-0.04743321	0.03525936
24.2037	0.1022995	-0.0836674	0	0	0	0
24.22026	0.1022735	-0.08368676	-0.001571945	-0.001168952	-0.04744413	-0.03528106
24.23749	0.1022735	-0.08368676	0	0	0.04652021	0.034594
24.2534	0.1022735	-0.08368676	0	0	0	0
24.26996	0.1022995	-0.08370612	0.001571945	-0.001168502	0.04840549	-0.03598211
24.28653	0.1022995	-0.08370612	0	0	-0.04744413	0.03526748
24.3031	0.1022995	-0.08370612	0	0	0	0
24.31966	0.1022995	-0.08370612	0	0	0	0
24.33623	0.1022995	-0.08370612	0	0	0	0
24.35307	0.1022995	-0.08370612	0	0	0	0
24.3696	0.1022995	-0.08370612	0	0	0	0
24.38596	0.1022995	-0.08370612	0	0	0	0
24.4025	0.1022995	-0.08370612	0	0	0	0
24.41906	0.1022735	-0.08372547	-0.001571945	-0.001168502	-0.0474824	-0.03529593
24.43563	0.1022735	-0.08372547	0	0	0.04744413	0.03526748
24.45248	0.1022735	-0.08372547	0	0	0	0
24.46876	0.1022735	-0.08372547	0	0	0	0
24.4855	0.1022735	-0.08372547	0	0	0	0
24.5019	0.1022735	-0.08372547	0	0	0	0
24.51851	0.1022995	-0.08370612	0.001567253	0.001165014	0.04747745	0.03529225
24.53505	0.1022995	-0.08370612	0	0	-0.04726715	-0.03513592
24.5516	0.1022995	-0.08370612	0	0	0	0
24.56816	0.1022735	-0.08372547	-0.001571764	-0.001168367	-0.04747146	-0.0352878
24.58509	0.1022735	-0.08372547	0	0	0.04692808	0.03488388
24.60157	0.1022735	-0.08372547	0	0	0	0
24.61786	0.1022735	-0.08372547	0	0	0	0
24.63443	0.1022735	-0.08372547	0	0	0	0
24.65179	0.1022735	-0.08372547	0	0	0	0
24.66756	0.1022735	-0.08372547	0	0	0	0
24.68413	0.1022735	-0.08372547	0	0	0	0
24.7007	0.1022735	-0.08372547	0	0	0	0
24.71726	0.1022735	-0.08372547	0	0	0	0
24.73408	0.1022735	-0.08372547	0	0	0	0
24.75113	0.1022735	-0.08372547	0	0	0	0
24.76711	0.1022735	-0.08372547	0	0	0	0
24.78353	0.1022735	-0.08372547	0	0	0	0
24.80064	0.1022735	-0.08372547	0	0	0	0
24.81666	0.1022735	-0.08372547	0	0	0	0
24.83323	0.1022735	-0.08372547	0	0	0	0
24.8498	0.1022735	-0.08372547	0	0	0	0
24.86636	0.1022735	-0.08372547	0	0	0	0
24.88293	0.1022735	-0.08372547	0	0	0	0
24.89971	0.1022735	-0.08372547	0	0	0	0
24.91606	0.1022995	-0.08374483	0.001592667	-0.001183905	0.04806956	-0.03573239
24.93273	0.1022995	-0.08374483	0	0	-0.04823339	0.03585417
24.9492	0.1022995	-0.08374483	0	0	0	0
24.96576	0.1022995	-0.08374483	0	0	0	0
24.98233	0.1022995	-0.08374483	0	0	0	0
24.9989	0.1022995	-0.08374483	0	0	0	0
25.01546	0.1022995	-0.08374483	0	0	0	0
25.03228	0.1022995	-0.08374483	0	0	0	0
25.0486	0.1022995	-0.08374483	0	0	0	0
25.06516	0.1022995	-0.08374483	0	0	0	0
25.08184	0.1022995	-0.08374483	0	0	0	0
25.0983	0.1022995	-0.08374483	0	0	0	0
25.11486	0.1022995	-0.08374483	0	0	0	0
25.13143	0.1022995	-0.08374483	0	0	0	0
25.148	0.1022995	-0.08374483	0	0	0	0
25.16456	0.1022995	-0.08374483	0	0	0	0
25.1814	0.1022995	-0.08374483	0	0	0	0
25.2055	0.1022995	-0.08374483	0	0	0	0
25.21766	0.1022995	-0.08374483	0	0	0	0
25.23446	0.1022995	-0.08374483	0	0	0	0
25.2508	0.1022995	-0.08374483	0	0	0	0
25.26736	0.1022995	-0.08374483	0	0	0	0
25.28393	0.1022995	-0.08374483	0	0	0	0
25.30101	0.1022995	-0.08374483	0	0	0	0
25.31707	0.1022995	-0.08374483	0	0	0	0
25.33363	0.1022995	-0.08374483	0	0	0	0
25.3502	0.1022995	-0.08374483	0	0	0	0
25.36704	0.1022735	-0.08376419	-0.001546132	-0.001149313	-0.04627874	-0.03440119
25.38333	0.1022735	-0.08376419	0	0	0.04666504	0.03468835
25.3999	0.1022735	-0.08376419	0	0	0	0
25.41657	0.1022735	-0.08376419	0	0	0	0
25.43308	0.1022735	-0.08376419	0	0	0	0
25.4496	0.1022735	-0.08376419	0	0	0	0
25.46617	0.1022735	-0.08376419	0	0	0	0
25.48306	0.1022735	-0.08376419	0	0	0	0
25.49957	0.1022735	-0.08376419	0	0	0	0
25.51587	0.1022735	-0.08376419	0	0	0	0
25.5326	0.1022735	-0.08376419	0	0	0	0
25.5491	0.1022735	-0.08376419	0	0	0	0
25.56562	0.1022995	-0.08378354	0.001576665	-0.00117201	0.04775428	-0.03549803
25.58262	0.1022995	-0.08378354	0	0	-0.04703156	0.0349608
25.59915	0.1022995	-0.08378354	0	0	0	0
25.61526	0.1022995	-0.08378354	0	0	0	0
25.63183	0.1022995	-0.08378354	0	0	0	0
25.6484	0.1022995	-0.08378354	0	0	0	0
25.66497	0.1022995	-0.08378354	0	0	0	0
25.68153	0.1022995	-0.08378354	0	0	0	0
25.6981	0.1022995	-0.08378354	0	0	0	0
25.71467	0.1022995	-0.08378354	0	0	0	0
25.73123	0.1022995	-0.08378354	0	0	0	0
25.7478	0.1022995	-0.08378354	0	0	0	0
25.76587	0.1022995	-0.08382226	0	-0.002142829	0	-0.06187132
25.78244	0.1022995	-0.08382226	0	0	0	0.06186792
25.799	0.1022995	-0.08382226	0	0	0	0
25.81557	0.1022995	-0.08382226	0	0	0	0
25.83214	0.1022995	-0.08382226	0	0	0	0
25.84871	0.1022995	-0.08382226	0	0	0	0
25.86527	0.1022995	-0.08382226	0	0	0	0
25.88184	0.1022995	-0.08382226	0	0	0	0
25.8984	0.1022995	-0.08382226	0	0	0	0
25.91541	0.1022995	-0.08382226	0	0	0	0
25.93154	0.1022995	-0.08382226	0	0	0	0
25.94845	0.1022995	-0.08382226	0	0	0	0
25.96467	0.1022995	-0.08382226	0	0	0	0
25.98124	0.1022995	-0.08382226	0	0	0	0
25.9978	0.1022995	-0.08382226	0	0	0	0
26.01437	0.1023256	-0.08384162	0.001571945	-0.001168952	0.04744413	-0.03528106
26.03103	0.1023256	-0.08384162	0	0	-0.04730524	0.03517778
26.04756	0.1023256	-0.08384162	0	0	0	0
26.06407	0.1023256	-0.08384162	0	0	0	0
26.08064	0.1023256	-0.08384162	0	0	0	0
26.0976	0.1023256	-0.08384162	0	0	0	0
26.11377	0.1023256	-0.08384162	0	0	0	0
26.13061	0.1023256	-0.08384162	0	0	0	0
26.1469	0.1023256	-0.08384162	0	0	0	0
26.16347	0.1023256	-0.08384162	0	0	0	0
26.18003	0.1023256	-0.08384162	0	0	0	0
26.19666	0.1023256	-0.08384162	0	0	0	0
26.21318	0.1023256	-0.08384162	0	0	0	0
26.22973	0.1023256	-0.08384162	0	0	0	0
26.2463	0.1023256	-0.08384162	0	0	0	0
26.26287	0.1023256	-0.08384162	0	0	0	0
26.28021	0.1023256	-0.08384162	0	0	0	0
26.29875	0.1023256	-0.08384162	0	0	0	0
26.31257	0.1023256	-0.08384162	0	0	0	0
26.32913	0.1023256	-0.08384162	0	0	0	0
26.34576	0.1023256	-0.08384162	0	0	0	0
26.36227	0.1023256	-0.08384162	0	0	0	0
26.37884	0.1023256	-0.08384162	0	0	0	0
26.3954	0.1023256	-0.08384162	0	0	0	0
26.41197	0.1023256	-0.08384162	0	0	0	0
26.42855	0.1023256	-0.08384162	0	0	0	0
26.4451	0.1023256	-0.08384162	0	0	0	0
26.46167	0.1023256	-0.08384162	0	0	0	0
26.47824	0.1023256	-0.08384162	0	0	0	0
26.4948	0.1023256	-0.08384162	0	0	0	0
26.51137	0.1023256	-0.08384162	0	0	0	0
26.5281	0.1023256	-0.08384162	0	0	0	0
26.54464	0.1023256	-0.08384162	0	0	0	0
26.56164	0.1023256	-0.08384162	0	0	0	0
26.57766	0.1023256	-0.08384162	0	0	0	0
26.5942	0.1023256	-0.08384162	0	0	0	0
26.61077	0.1023256	-0.08384162	0	0	0	0
26.62733	0.1023256	-0.08384162	0	0	0	0
26.64421	0.1023256	-0.08384162	0	0	0	0
26.66047	0.1023256	-0.08384162	0	0	0	0
26.67723	0.1023256	-0.08384162	0	0	0	0
26.6936	0.1023256	-0.08384162	0	0	0	0
26.71042	0.1022995	-0.08386098	-0.001548236	-0.001150877	-0.04665334	-0.03467965
26.72699	0.1022995	-0.08386098	0	0	0.04637084	0.03446965
26.74356	0.1022995	-0.08386098	0	0	0	0
26.76027	0.1022995	-0.08386098	0	0	0	0
26.77669	0.1022995	-0.08386098	0	0	0	0
26.79332	0.1022995	-0.08386098	0	0	0	0
26.80982	0.1023256	-0.08388034	0.001578123	-0.001173094	0.04763059	-0.03540609
26.82639	0.1023256	-0.08388034	0	0	-0.04772125	0.03547348
26.84296	0.1023256	-0.08388034	0	0	0	0
26.86394	0.1023256	-0.08388034	0	0	0	0
26.88051	0.1023256	-0.08388034	0	0	0	0
26.89708	0.1023256	-0.08388034	0	0	0	0
26.91364	0.1023256	-0.08388034	0	0	0	0
26.93021	0.1023256	-0.08388034	0	0	0	0
26.94678	0.1023256	-0.08388034	0	0	0	0
26.96345	0.1023256	-0.08388034	0	0	0	0
26.97991	0.1023256	-0.08388034	0	0	0	0
26.99747	0.1044865	-0.08548757	0.1230802	-0.09154289	3.617934	-2.690897
27.01304	0.1044865	-0.08548757	0	0	-3.714781	2.762929
27.02998	0.1044865	-0.08548757	0	0	0	0
27.04618	0.1443057	-0.1174666	2.458688	-1.974585	74.20762	-59.59652
27.06274	0.1443057	-0.1174666	0	0	-75.04573	60.26961
27.07931	0.1443057	-0.1174666	0	0	0	0
27.09588	0.183695	-0.2165826	2.377544	-5.982657	71.75441	-180.5569
27.11245	0.183695	-0.2165826	0	0	-71.75441	180.5569
27.12901	0.183695	-0.2165826	0	0	0	0
27.14602	0.1727349	-0.3195805	-0.6444125	-6.055911	-19.19319	-180.3693
27.16215	0.1727349	-0.3195805	0	0	19.44953	182.7783
27.17871	0.1727349	-0.3195805	0	0	0	0
27.19528	0.1266345	-0.3740925	-2.782948	-3.290728	-83.99438	-99.32008
27.21185	0.1266345	-0.3740925	0	0	83.99438	99.32008
27.22841	0.1266345	-0.3740925	0	0	0	0
27.24509	0.1046947	-0.393118	-1.315352	-1.140638	-39.56304	-34.30799
27.2616	0.1046947	-0.393118	0	0	39.6358	34.37109
27.27811	0.1046947	-0.393118	0	0	0	0
27.29468	0.1084153	-0.3968512	0.2245747	-0.2253357	6.788621	-6.811623
27.31125	0.1084153	-0.3968512	0	0	-6.777679	6.800644
27.32781	0.1084153	-0.3968512	0	0	0	0
27.34438	0.1103135	-0.3985057	0.1145737	-0.09986617	3.457842	-3.013967
27.36116	0.1103135	-0.3985057	0	0	-3.435888	2.994831
27.37768	0.1103135	-0.3985057	0	0	0	0
27.39418	0.1103135	-0.3985057	0	0	0	0
27.41076	0.1103135	-0.3985057	0	0	0	0
27.42726	0.1103135	-0.3985057	0	0	0	0
27.44378	0.1103395	-0.398483	0.001573595	0.001372893	0.04765579	0.04157759
27.46035	0.1103395	-0.398483	0	0	-0.04756238	-0.04149609
27.47731	0.1103395	-0.398483	0	0	0	0
27.4938	0.1103395	-0.398483	0	0	0	0
27.51033	0.1103395	-0.398483	0	0	0	0
27.52661	0.1103395	-0.398483	0	0	0	0
27.54318	0.1103395	-0.398483	0	0	0	0
27.55987	0.1103395	-0.398483	0	0	0	0
27.57638	0.1103395	-0.398483	0	0	0	0
27.59288	0.1103395	-0.398483	0	0	0	0
27.60945	0.1103395	-0.398483	0	0	0	0
27.62642	0.1103395	-0.398483	0	0	0	0
27.64292	0.1103395	-0.398483	0	0	0	0
27.65915	0.1103395	-0.398483	0	0	0	0
27.68288	0.1103395	-0.398483	0	0	0	0
27.69546	0.1103395	-0.398483	0	0	0	0
27.71203	0.1103395	-0.398483	0	0	0	0
27.72859	0.1103395	-0.398483	0	0	0	0
27.7455	0.1103395	-0.398483	0	0	0	0
27.76201	0.1103395	-0.398483	0	0	0	0
27.77829	0.1103395	-0.398483	0	0	0	0
27.79551	0.1103395	-0.398483	0	0	0	0
27.81152	0.1103395	-0.398483	0	0	0	0
27.82805	0.1103395	-0.398483	0	0	0	0
27.84456	0.1103395	-0.398483	0	0	0	0
27.86112	0.1103395	-0.398483	0	0	0	0
27.87807	0.1103395	-0.398483	0	0	0	0
27.89426	0.1103395	-0.398483	0	0	0	0
27.91083	0.1103395	-0.398483	0	0	0	0
27.92761	0.1103395	-0.398483	0	0	0	0
27.94412	0.1103135	-0.3984604	-0.001574868	0.001372198	-0.04730631	0.04121845
27.96064	0.1103135	-0.3984604	0	0	0.04768056	-0.04154455
27.97715	0.1103135	-0.3984604	0	0	0	0
27.99366	0.1103135	-0.3984604	0	0	0	0
28.01023	0.1103135	-0.3984604	0	0	0	0
28.0272	0.1103135	-0.3984604	0	0	0	0
28.04369	0.1103135	-0.3984604	0	0	0	0
28.05993	0.1103135	-0.3984604	0	0	0	0
28.07673	0.1103135	-0.3984604	0	0	0	0
28.09323	0.1103395	-0.3983923	0.00157505	0.004122486	0.04729552	0.1237898
28.10974	0.1103395	-0.3983923	0	0	-0.04771363	-0.1248842
28.12626	0.1103395	-0.3983923	0	0	0	0
28.14276	0.1104175	-0.3978256	0.00472724	0.03435332	0.1431546	1.040319
28.15933	0.1104175	-0.3978256	0	0	-0.1429564	-1.038878
28.1759	0.1104175	-0.3978256	0	0	0	0
28.19279	0.1088054	-0.3850936	-0.09539274	0.7534107	-2.850409	22.51249
28.20903	0.1088054	-0.3850936	0	0	2.879124	-22.73929
28.22579	0.1088054	-0.3850936	0	0	0	0
28.24216	0.1070107	-0.3339489	-0.1096303	3.12415	-3.30884	94.29246
28.25882	0.1070107	-0.3339489	0	0	3.31935	-94.59195
28.27533	0.1070107	-0.3339489	0	0	0	0
28.29186	0.1140295	-0.2712979	0.4245842	3.789911	12.84948	114.6966
28.30843	0.1140295	-0.2712979	0	0	-12.82801	-114.505
28.325	0.1140295	-0.2712979	0	0	0	0
28.34156	0.1315775	-0.218447	1.059199	3.190088	31.96669	96.27704
28.35813	0.1315775	-0.218447	0	0	-31.96669	-96.27704
28.3747	0.1315775	-0.218447	0	0	0	0
28.39126	0.1534422	-0.1761545	1.319757	2.55278	39.83033	77.04305
28.40783	0.1534422	-0.1761545	0	0	-39.83033	-77.04305
28.42443	0.1534422	-0.1761545	0	0	0	0
28.44096	0.1668808	-0.1445368	0.8130247	1.912849	24.53855	57.73322
28.45753	0.1668808	-0.1445368	0	0	-24.56542	-57.79644
28.47448	0.1668808	-0.1445368	0	0	0	0
28.49859	0.1590914	-0.1301069	-0.3230384	0.5984374	-7.867934	14.57556
28.50754	0.1590914	-0.1301069	0	0	9.770127	-18.09942
28.5238	0.1524654	-0.1250273	-0.4075478	0.3124304	-16.16648	12.39339
28.54107	0.1524654	-0.1250273	0	0	12.15498	-9.318134
28.55693	0.1524654	-0.1250273	0	0	0	0
28.5735	0.1512055	-0.124221	-0.0760518	0.04866623	-2.345197	1.500713
28.59007	0.1512055	-0.124221	0	0	2.295248	-1.46875
28.60663	0.1512055	-0.124221	0	0	0	0
28.62364	0.1511026	-0.124575	-0.006048839	-0.02081041	-0.1801485	-0.6197823
28.63977	0.1511026	-0.124575	0	0	0.1825648	0.6280955
28.65666	0.1511026	-0.124575	0	0	0	0
28.6729	0.1521055	-0.1258142	0.06175857	-0.07630722	1.863877	-2.302957
28.68947	0.1521055	-0.1258142	0	0	-1.882516	2.325986
28.70604	0.1521055	-0.1258142	0	0	0	0
28.7227	0.1520798	-0.1258338	-0.001543364	-0.001181219	-0.04644249	-0.03554492
28.73921	0.1520798	-0.1258338	0	0	0.04652259	0.03560622
28.75573	0.1520798	-0.1258338	0	0	0	0
28.77897	0.1520541	-0.1258929	-0.001106178	-0.002540041	-0.02782096	-0.06388337
28.79554	0.1520541	-0.1258929	0	0	0.02778897	0.06380991
28.81228	0.1520798	-0.1259912	0.001535616	-0.005877179	0.04610347	-0.1764493
28.82877	0.1520798	-0.1259912	0	0	-0.04620666	0.1768443
28.84528	0.1520798	-0.1259912	0	0	0	0
28.8618	0.1520798	-0.1259912	0	0	0	0
28.87837	0.1520798	-0.1259912	0	0	0	0
28.89494	0.1520798	-0.1259912	0	0	0	0
28.9115	0.1521055	-0.1259322	0.001552605	0.003563975	0.04686041	0.1075672
28.92833	0.1521055	-0.1259322	0	0	-0.04649373	-0.1067255
28.94464	0.1521055	-0.1259322	0	0	0	0
28.96121	0.1520283	-0.1258732	-0.00465638	0.003562666	-0.1416469	0.1083761
28.97777	0.1520283	-0.1258732	0	0	0.1405298	-0.1075215
28.99438	0.1520283	-0.1258732	0	0	0	0
29.01091	0.1505881	-0.1247323	-0.08715121	0.06903792	-2.63038	2.083688
29.02747	0.1505881	-0.1247323	0	0	2.633564	-2.08621
29.05185	0.1505881	-0.1247323	0	0	0	0
29.06385	0.1185208	-0.1007559	-2.672893	1.998498	-73.48535	54.94435
29.08041	0.1185208	-0.1007559	0	0	93.5741	-69.96452
29.09698	0.1185208	-0.1007559	0	0	0	0
29.11355	0.07679604	-0.07572328	-2.518514	1.510971	-76.00892	45.60119
29.13032	0.07679604	-0.07572328	0	0	75.53497	-45.31685
29.14684	0.07679604	-0.07572328	0	0	0	0
29.16325	0.05268803	-0.05790749	-1.46886	1.085485	-44.61277	32.96877
29.17982	0.05268803	-0.05790749	0	0	44.53794	-32.91348
29.19638	0.05268803	-0.05790749	0	0	0	0
29.21295	0.05253058	-0.0577157	-0.009505209	0.01157775	-0.2868843	0.3494372
29.22952	0.05253058	-0.0577157	0	0	0.2868843	-0.3494372
29.24608	0.05253058	-0.0577157	0	0	0	0
29.26265	0.05507582	-0.05953819	0.1536492	-0.1100182	4.637409	-3.320546
29.27921	0.05507582	-0.05953819	0	0	-4.637409	3.320546
29.29578	0.05507582	-0.05953819	0	0	0	0
29.31235	0.05630883	-0.06044027	0.0744245	-0.0544496	2.246136	-1.643292
29.32897	0.05630883	-0.06044027	0	0	-2.242393	1.640553
29.34548	0.05630883	-0.06044027	0	0	0	0
29.36205	0.05780395	-0.06153466	0.09025619	-0.06606533	2.728649	-1.997305
29.37862	0.05780395	-0.06153466	0	0	-2.724094	1.99397
29.39518	0.05780395	-0.06153466	0	0	0	0
29.41175	0.05785641	-0.06157307	0.003166239	-0.002318296	0.09555729	-0.06996631
29.42855	0.05785641	-0.06157307	0	0	-0.09490174	0.06948632
29.44507	0.05785641	-0.06157307	0	0	0	0
29.46145	0.05793509	-0.06163068	0.004804001	-0.003517536	0.146002	-0.106904
29.47802	0.05793509	-0.06163068	0	0	-0.145816	0.1067679
29.49459	0.05793509	-0.06163068	0	0	0	0
29.51115	0.05801377	-0.06168829	0.00475034	-0.003478245	0.1433655	-0.1049736
29.52772	0.05801377	-0.06168829	0	0	-0.1433821	0.1049857
29.54465	0.05801377	-0.06168829	0	0	0	0
29.56085	0.05806623	-0.0617267	0.003238572	-0.002371487	0.09774593	-0.07157575
29.57742	0.05806623	-0.0617267	0	0	-0.09884413	0.07237993
29.59399	0.05806623	-0.0617267	0	0	0	0
29.6148	0.05809246	-0.06174591	0.001260196	-0.0009227715	0.03371463	-0.02468735
29.63137	0.05809246	-0.06174591	0	0	-0.03371291	0.02468609
29.64793	0.05811869	-0.06176511	0.001583414	-0.001159281	0.04778754	-0.03498719
29.6645	0.05811869	-0.06176511	0	0	-0.04779029	0.0349892
29.68119	0.05811869	-0.06176511	0	0	0	0
29.6977	0.05814491	-0.06178432	0.001588494	-0.001163391	0.04784719	-0.03504263
29.7142	0.05814491	-0.06178432	0	0	-0.04812088	0.03524308
29.73077	0.05814491	-0.06178432	0	0	0	0
29.74733	0.05817114	-0.06180352	0.001583189	-0.001159281	0.0477835	-0.0349892
29.76425	0.05817114	-0.06180352	0	0	-0.04728536	0.03462444
29.78047	0.05817114	-0.06180352	0	0	0	0
29.79819	0.05822359	-0.06180352	0.002960172	0	0.08722435	0
29.81475	0.05822359	-0.06180352	0	0	-0.08633158	0
29.83132	0.05822359	-0.06180352	0	0	0	0
29.84789	0.05824982	-0.06182273	0.001583414	-0.001159281	0.04779029	-0.0349892
29.86445	0.05824982	-0.06182273	0	0	-0.04779029	0.0349892
29.88102	0.05824982	-0.06182273	0	0	0	0
29.90912	0.05827605	-0.06184193	0.0009332791	-0.0006835209	0.02089359	-0.01530218
29.92569	0.05827605	-0.06184193	0	0	-0.0208927	0.01530153
29.9427	0.05827605	-0.06184193	0	0	0	0
29.95883	0.05827605	-0.06184193	0	0	0	0
29.97539	0.05827605	-0.06184193	0	0	0	0
29.99222	0.05830227	-0.06186114	0.001558074	-0.001140891	0.04665482	-0.03416273
30.00852	0.05830227	-0.06186114	0	0	-0.04702546	0.03443412
30.02525	0.05830227	-0.06186114	0	0	0	0
30.04175	0.05835472	-0.06189955	0.003178823	-0.002327901	0.09565625	-0.07005055
30.05822	0.05835472	-0.06189955	0	0	-0.09641437	0.07060573
30.07479	0.05835472	-0.06189955	0	0	0	0
30.09136	0.05895791	-0.06234132	0.03640826	-0.02666558	1.098867	-0.804815
30.10792	0.05895791	-0.06234132	0	0	-1.098804	0.8047687
30.12449	0.05895791	-0.06234132	0	0	0	0
30.14106	0.05895791	-0.06234132	0	0	0	0
30.16203	0.05895791	-0.06234132	0	0	0	0
30.17419	0.05895791	-0.06234132	0	0	0	0
30.19076	0.05895791	-0.06234132	0	0	0	0
30.20732	0.05895791	-0.06234132	0	0	0	0
30.22389	0.05895791	-0.06234132	0	0	0	0
30.24047	0.05895791	-0.06234132	0	0	0	0
30.25702	0.05895791	-0.06234132	0	0	0	0
30.27359	0.05895791	-0.06234132	0	0	0	0
30.29048	0.05895791	-0.06234132	0	0	0	0
30.30672	0.05895791	-0.06234132	0	0	0	0
30.32353	0.05895791	-0.06234132	0	0	0	0
30.34005	0.05895791	-0.06234132	0	0	0	0
30.35643	0.05895791	-0.06234132	0	0	0	0
30.37304	0.05895791	-0.06234132	0	0	0	0
30.38956	0.05895791	-0.06234132	0	0	0	0
30.40613	0.05895791	-0.06234132	0	0	0	0
30.42308	0.05895791	-0.06234132	0	0	0	0
30.44188	0.05895791	-0.06234132	0	0	0	0
30.45844	0.05895791	-0.06234132	0	0	0	0
30.47528	0.05895791	-0.06234132	0	0	0	0
30.49178	0.05895791	-0.06234132	0	0	0	0
30.50815	0.05895791	-0.06234132	0	0	0	0
30.52471	0.05895791	-0.06234132	0	0	0	0
30.54128	0.05895791	-0.06234132	0	0	0	0
30.55834	0.05895791	-0.06234132	0	0	0	0
30.57441	0.05895791	-0.06234132	0	0	0	0
30.59098	0.05895791	-0.06234132	0	0	0	0
30.60755	0.05895791	-0.06234132	0	0	0	0
30.62437	0.05895791	-0.06234132	0	0	0	0
30.64068	0.05898413	-0.06232211	0.001607771	0.001177905	0.04852541	0.03555129
30.65725	0.05898413	-0.06232211	0	0	-0.04890265	-0.03582767
30.6739	0.05898413	-0.06232211	0	0	0	0
30.69043	0.05898413	-0.06232211	0	0	0	0
30.71065	0.05898413	-0.06232211	0	0	0	0
30.72372	0.05898413	-0.06232211	0	0	0	0
30.74008	0.05898413	-0.06232211	0	0	0	0
30.75673	0.05898413	-0.06232211	0	0	0	0
30.77321	0.05898413	-0.06232211	0	0	0	0
30.78978	0.05898413	-0.06232211	0	0	0	0
30.80635	0.05898413	-0.06232211	0	0	0	0
30.82291	0.05898413	-0.06232211	0	0	0	0
30.83948	0.05898413	-0.06232211	0	0	0	0
30.85605	0.05898413	-0.06232211	0	0	0	0
30.87262	0.05898413	-0.06232211	0	0	0	0
30.89043	0.05898413	-0.06232211	0	0	0	0
30.907	0.05898413	-0.06232211	0	0	0	0
30.92356	0.05898413	-0.06232211	0	0	0	0
30.94054	0.05898413	-0.06232211	0	0	0	0
30.95711	0.05898413	-0.06232211	0	0	0	0
30.97368	0.05898413	-0.06232211	0	0	0	0
30.99418	0.05898413	-0.06232211	0	0	0	0
31.01091	0.05898413	-0.06232211	0	0	0	0
31.02741	0.05898413	-0.06232211	0	0	0	0
31.04394	0.05898413	-0.06232211	0	0	0	0
31.06045	0.05898413	-0.06232211	0	0	0	0
31.07701	0.05898413	-0.06232211	0	0	0	0
31.09358	0.05898413	-0.06232211	0	0	0	0
31.11015	0.05898413	-0.06232211	0	0	0	0
31.12671	0.05898413	-0.06232211	0	0	0	0
31.14328	0.05898413	-0.06232211	0	0	0	0
31.15985	0.05898413	-0.06232211	0	0	0	0
31.17654	0.05898413	-0.06232211	0	0	0	0
31.19298	0.05898413	-0.06232211	0	0	0	0
31.20955	0.05898413	-0.06232211	0	0	0	0
31.22611	0.05898413	-0.06232211	0	0	0	0
31.24268	0.05898413	-0.06232211	0	0	0	0
31.25925	0.05898413	-0.06232211	0	0	0	0
31.27741	0.05898413	-0.06232211	0	0	0	0
31.29398	0.05898413	-0.06232211	0	0	0	0
31.31054	0.05898413	-0.06232211	0	0	0	0
31.32711	0.05898413	-0.06232211	0	0	0	0
31.34368	0.05898413	-0.06232211	0	0	0	0
31.36025	0.05898413	-0.06232211	0	0	0	0
31.37718	0.05898413	-0.06232211	0	0	0	0
31.39367	0.05898413	-0.06232211	0	0	0	0
31.40995	0.05898413	-0.06232211	0	0	0	0
31.42651	0.05898413	-0.06232211	0	0	0	0
31.44322	0.05898413	-0.06232211	0	0	0	0
31.45965	0.05898413	-0.06232211	0	0	0	0
31.47621	0.05901036	-0.06234132	0.001583189	-0.001159731	0.04798515	-0.03515049
31.49326	0.05901036	-0.06234132	0	0	-0.04710557	0.03450616
31.51029	0.05901036	-0.06234132	0	0	0	0
31.52591	0.05901036	-0.06234132	0	0	0	0
31.54248	0.05901036	-0.06234132	0	0	0	0
31.55906	0.05901036	-0.06234132	0	0	0	0
31.57561	0.05901036	-0.06234132	0	0	0	0
31.59218	0.05901036	-0.06234132	0	0	0	0
31.60874	0.05901036	-0.06234132	0	0	0	0
31.62557	0.05901036	-0.06234132	0	0	0	0
31.64211	0.05901036	-0.06234132	0	0	0	0
31.65912	0.05901036	-0.06234132	0	0	0	0
31.67511	0.05901036	-0.06234132	0	0	0	0
31.69158	0.05901036	-0.06234132	0	0	0	0
31.70819	0.05901036	-0.06234132	0	0	0	0
31.72471	0.05901036	-0.06234132	0	0	0	0
31.74128	0.05901036	-0.06234132	0	0	0	0
31.75823	0.05901036	-0.06234132	0	0	0	0
31.77469	0.05901036	-0.06234132	0	0	0	0
31.79098	0.05901036	-0.06234132	0	0	0	0
31.8114	0.05901036	-0.06234132	0	0	0	0
31.82423	0.05901036	-0.06234132	0	0	0	0
31.84123	0.05901036	-0.06234132	0	0	0	0
31.85724	0.05901036	-0.06234132	0	0	0	0
31.87382	0.05901036	-0.06234132	0	0	0	0
31.89038	0.05901036	-0.06234132	0	0	0	0
31.90694	0.05901036	-0.06234132	0	0	0	0
31.92351	0.05901036	-0.06234132	0	0	0	0
31.94008	0.05901036	-0.06234132	0	0	0	0
31.95664	0.05901036	-0.06234132	0	0	0	0
31.97333	0.05901036	-0.06234132	0	0	0	0
31.98977	0.05901036	-0.06234132	0	0	0	0
32.00636	0.05901036	-0.06234132	0	0	0	0
32.02291	0.05901036	-0.06234132	0	0	0	0
32.03947	0.05901036	-0.06234132	0	0	0	0
32.05604	0.05901036	-0.06234132	0	0	0	0
32.07261	0.05901036	-0.06234132	0	0	0	0
32.09157	0.05901036	-0.06234132	0	0	0	0
32.10574	0.05901036	-0.06234132	0	0	0	0
32.12231	0.05901036	-0.06234132	0	0	0	0
32.13888	0.05901036	-0.06234132	0	0	0	0
32.15545	0.05901036	-0.06234132	0	0	0	0
32.17201	0.05901036	-0.06234132	0	0	0	0
32.18858	0.05901036	-0.06234132	0	0	0	0
32.20515	0.05901036	-0.06234132	0	0	0	0
32.22171	0.05901036	-0.06234132	0	0	0	0
32.2388	0.05901036	-0.06234132	0	0	0	0
32.25485	0.05901036	-0.06234132	0	0	0	0
32.27142	0.05901036	-0.06234132	0	0	0	0
32.28798	0.05901036	-0.06234132	0	0	0	0
32.30455	0.05901036	-0.06234132	0	0	0	0
32.32137	0.05901036	-0.06234132	0	0	0	0
32.33768	0.05901036	-0.06234132	0	0	0	0
32.3549	0.05901036	-0.06234132	0	0	0	0
32.3763	0.05901036	-0.06234132	0	0	0	0
32.39287	0.05901036	-0.06234132	0	0	0	0
32.40959	0.05901036	-0.06234132	0	0	0	0
32.42609	0.05901036	-0.06234132	0	0	0	0
32.4426	0.05901036	-0.06234132	0	0	0	0
32.45914	0.05901036	-0.06234132	0	0	0	0
32.4757	0.05901036	-0.06234132	0	0	0	0
32.49227	0.05901036	-0.06234132	0	0	0	0
32.50883	0.05906281	-0.06237974	0.003166519	-0.002319505	0.09557673	-0.07001085
32.5254	0.05906281	-0.06237974	0	0	-0.09557673	0.07001085
32.54197	0.05906281	-0.06237974	0	0	0	0
32.55867	0.05914148	-0.06243737	0.004710609	-0.003450536	0.1415959	-0.1037194
32.57521	0.05914148	-0.06243737	0	0	-0.1417259	0.1038147
32.59221	0.05914148	-0.06243737	0	0	0	0
32.60823	0.05945616	-0.0626679	0.01963632	-0.01438506	0.5946106	-0.4355963
32.6248	0.05945616	-0.0626679	0	0	-0.6024747	0.4413573
32.64178	0.05945616	-0.0626679	0	0	0	0
32.65793	0.07797317	-0.07605141	1.147005	-0.8290185	34.62066	-25.02271
32.6745	0.07797317	-0.07605141	0	0	-35.06477	25.3437
32.69106	0.07797317	-0.07605141	0	0	0	0
32.70763	0.111873	-0.1009117	2.046671	-1.500918	61.77577	-45.30301
32.72419	0.111873	-0.1009117	0	0	-61.77577	45.30301
32.74076	0.111873	-0.1009117	0	0	0	0
32.75735	0.1833389	-0.1547694	4.306744	-3.245625	129.8881	-97.88554
32.77389	0.1833389	-0.1547694	0	0	-129.9928	97.96444
32.79045	0.1833389	-0.1547694	0	0	0	0
32.80739	0.2819661	-0.2352198	5.824408	-4.750978	173.8594	-141.8174
32.82359	0.2819661	-0.2352198	0	0	-175.781	143.3848
32.84016	0.2819661	-0.2352198	0	0	0	0
32.85672	0.3386662	-0.2863242	3.422422	-3.084666	103.2889	-93.09542
32.87329	0.3386662	-0.2863242	0	0	-103.2889	93.09542
32.88986	0.3386662	-0.2863242	0	0	0	0
32.90643	0.3523646	-0.2991429	0.8268406	-0.7737379	24.9541	-23.35146
32.92299	0.3523646	-0.2991429	0	0	-24.9541	23.35146
32.93956	0.3523646	-0.2991429	0	0	0	0
32.95613	0.3532221	-0.3001903	0.05175534	-0.06321955	1.561979	-1.90797
32.97269	0.3532221	-0.3001903	0	0	-1.561979	1.90797
32.98937	0.3532221	-0.3001903	0	0	0	0
33.00583	0.3529209	-0.3004255	-0.01829917	-0.01428882	-0.5522702	-0.4312374
33.0224	0.3529209	-0.3004255	0	0	0.5540562	0.432632
33.03896	0.3529209	-0.3004255	0	0	0	0
33.05553	0.3445302	-0.3079468	-0.5064633	-0.4539903	-15.28509	-13.70145
33.0721	0.3445302	-0.3079468	0	0	15.28509	13.70145
33.08867	0.3445302	-0.3079468	0	0	0	0
33.10523	0.3142319	-0.3357806	-1.828807	-1.680051	-55.1935	-50.70404
33.1218	0.3142319	-0.3357806	0	0	55.1935	50.70404
33.13837	0.3142319	-0.3357806	0	0	0	0
33.15565	0.2868634	-0.3608389	-1.583076	-1.449445	-46.75987	-42.81275
33.17165	0.2868634	-0.3608389	0	0	47.55832	43.5438
33.18819	0.2868634	-0.3608389	0	0	0	0
33.20842	0.2662365	-0.3797068	-1.019653	-0.9326973	-27.73354	-25.36844
33.22499	0.2662365	-0.3797068	0	0	27.71054	25.3474
33.24171	0.2612083	-0.3843069	-0.3006601	-0.2750663	-9.031309	-8.262516
33.25824	0.2612083	-0.3843069	0	0	9.042707	8.272943
33.27476	0.2612083	-0.3843069	0	0	0	0
33.29125	0.2613557	-0.3840822	0.008934768	0.01362624	0.2706177	0.4127138
33.30782	0.2613557	-0.3840822	0	0	-0.2702742	-0.4121899
33.32439	0.2613557	-0.3840822	0	0	0	0
33.34095	0.2614294	-0.3839249	0.00444861	0.009492646	0.1342593	0.2864886
33.35752	0.2614294	-0.3839249	0	0	-0.1342593	-0.2864886
33.37429	0.2614294	-0.3839249	0	0	0	0
33.39065	0.2615276	-0.3837901	0.006005131	0.008240657	0.1812561	0.2487321
33.40732	0.2615276	-0.3837901	0	0	-0.1818423	-0.2495366
33.42386	0.2615276	-0.3837901	0	0	0	0
33.44114	0.2615521	-0.3837676	0.001419984	0.001300933	0.04198988	0.03846946
33.4637	0.2615521	-0.3837676	0	0	-0.03564154	-0.03265337
33.4747	0.2615521	-0.3837676	0	0	0	0
33.49084	0.2615521	-0.3837676	0	0	0	0
33.50741	0.2615521	-0.3837676	0	0	0	0
33.52398	0.2615521	-0.3837676	0	0	0	0
33.54075	0.2615521	-0.3837676	0	0	0	0
33.55711	0.2615521	-0.3837676	0	0	0	0
33.57367	0.2615521	-0.3837676	0	0	0	0
33.59028	0.2615276	-0.3837452	-0.001476731	0.001351128	-0.04451146	0.04072556
33.60681	0.2615276	-0.3837452	0	0	0.04456783	-0.04077713
33.6238	0.2615276	-0.3837452	0	0	0	0
33.6403	0.2615276	-0.3837452	0	0	0	0
33.65651	0.2615276	-0.3837452	0	0	0	0
33.67307	0.2615276	-0.3837452	0	0	0	0
33.68964	0.2615276	-0.3837452	0	0	0	0
33.70621	0.2615276	-0.3837452	0	0	0	0
33.72277	0.2615276	-0.3837452	0	0	0	0
33.73934	0.2615276	-0.3837452	0	0	0	0
33.75591	0.2615276	-0.3837452	0	0	0	0
33.77247	0.2615276	-0.3837452	0	0	0	0
33.78963	0.261724	-0.3835205	0.01144525	0.01308971	0.3393241	0.3880785
33.8062	0.261724	-0.3835205	0	0	-0.3393241	-0.3880785
33.82277	0.261724	-0.3835205	0	0	0	0
33.83946	0.2617486	-0.3834981	0.001471092	0.001344336	0.04422962	0.04041857
33.85646	0.2617486	-0.3834981	0	0	-0.04366373	-0.03990144
33.87247	0.2617486	-0.3834981	0	0	0	0
33.88951	0.261724	-0.3835205	-0.001441124	-0.001316949	-0.04360364	-0.03984653
33.90561	0.261724	-0.3835205	0	0	0.0434932	0.03974561
33.92217	0.261724	-0.3835205	0	0	0	0
33.94053	0.261724	-0.3835205	0	0	0	0
33.9571	0.261724	-0.3835205	0	0	0	0
33.97367	0.261724	-0.3835205	0	0	0	0
33.99023	0.261724	-0.3835205	0	0	0	0
34.01373	0.261724	-0.3835205	0	0	0	0
34.02357	0.261724	-0.3835205	0	0	0	0
34.03993	0.2616995	-0.3834981	-0.001501283	0.001371925	-0.05730231	0.05236485
34.0565	0.2616995	-0.3834981	0	0	0.04559753	-0.04166861
34.07306	0.2616995	-0.3834981	0	0	0	0
34.08965	0.2616995	-0.3834532	0	0.00270716	0	0.08164584
34.1062	0.2616995	-0.3834532	0	0	0	-0.08170224
34.12276	0.2616995	-0.3834532	0	0	0	0
34.13933	0.2616749	-0.3834756	-0.00148227	-0.00135455	-0.04473501	-0.04088042
34.15618	0.2616749	-0.3834756	0	0	0.04435711	0.04053508
34.17268	0.2616749	-0.3834756	0	0	0	0
34.18903	0.2616749	-0.3834756	0	0	0	0
34.2056	0.2616749	-0.3834756	0	0	0	0
34.22225	0.2616749	-0.3834756	0	0	0	0
34.23873	0.2616749	-0.3834756	0	0	0	0
34.25529	0.2616749	-0.3834756	0	0	0	0
34.27186	0.2616749	-0.3834756	0	0	0	0
34.28843	0.261503	-0.3833184	-0.01037409	0.009489048	-0.3130908	0.2863801
34.305	0.261503	-0.3833184	0	0	0.3130908	-0.2863801
34.32156	0.261503	-0.3833184	0	0	0	0
34.33829	0.2604713	-0.3823306	-0.06166282	0.05904262	-1.85182	1.773132
34.3547	0.2604713	-0.3823306	0	0	1.860988	-1.78191
34.37127	0.2604713	-0.3823306	0	0	0	0
34.38835	0.2562405	-0.3784749	-0.2476191	0.2256642	-7.357953	6.705568
34.4044	0.2562405	-0.3784749	0	0	7.473159	-6.810559
34.42136	0.2562405	-0.3784749	0	0	0	0
34.43851	0.2258184	-0.3512108	-1.773791	1.589658	-52.00634	46.60768
34.45507	0.2258184	-0.3512108	0	0	52.60648	-47.14552
34.47164	0.2258184	-0.3512108	0	0	0	0
34.4884	0.186263	-0.3160176	-2.35986	2.09961	-70.80499	62.99648
34.50493	0.186263	-0.3160176	0	0	70.89426	-63.07589
34.52147	0.186263	-0.3160176	0	0	0	0
34.53794	0.1241477	-0.2484062	-3.77012	4.103713	-114.2032	124.3083
34.55473	0.1241477	-0.2484062	0	0	113.3388	-123.3674
34.64175	0.1241477	-0.2484062	0	0	0	0
34.65852	-0.01294664	-0.06812913	-8.175264	10.75035	-78.76714	103.5776
34.67489	-0.01294664	-0.06812913	0	0	246.7016	-324.4089
34.69146	-0.01294664	-0.06812913	0	0	0	0
34.70814	-0.007578802	-0.07271398	0.3217073	-0.2747807	9.674618	-8.263405
34.72471	-0.007578802	-0.07271398	0	0	-9.673508	8.262457
34.74128	-0.007578802	-0.07271398	0	0	0	0
34.75808	0.007315659	-0.08388034	0.8863777	-0.6645161	26.56437	-19.91527
34.77441	0.007315659	-0.08388034	0	0	-26.75093	20.05514
34.79112	0.007315659	-0.08388034	0	0	0	0
34.80763	0.01092062	-0.08653374	0.2184004	-0.1607521	6.574685	-4.83925
34.82414	0.01092062	-0.08653374	0	0	-6.614182	4.868321
34.84068	0.01092062	-0.08653374	0	0	0	0
34.85927	0.01092062	-0.08653374	0	0	0	0
34.87584	0.01092062	-0.08653374	0	0	0	0
34.89241	0.01092062	-0.08653374	0	0	0	0
34.90897	0.01094693	-0.08655312	0.001588235	-0.001169716	0.04793303	-0.03530211
34.92554	0.01094693	-0.08655312	0	0	-0.04793303	0.03530211
34.9422	0.01094693	-0.08655312	0	0	0	0
34.9587	0.01078906	-0.08666939	-0.009564647	-0.00704425	-0.2884292	-0.2124247
34.97574	0.01078906	-0.08666939	0	0	0.2851166	0.209985
34.99181	0.01078906	-0.08666939	0	0	0	0
35.00837	0.008657678	-0.08816195	-0.1286798	-0.0901114	-3.943955	-2.761857
35.02494	0.008657678	-0.08816195	0	0	3.884012	2.719881
35.04177	0.008657678	-0.08816195	0	0	0	0
35.05807	0.008657678	-0.08816195	0	0	0	0
35.0748	0.008657678	-0.08816195	0	0	0	0
35.09121	0.008657678	-0.08816195	0	0	0	0
35.10782	0.008657678	-0.08816195	0	0	0	0
35.12435	0.008657678	-0.08816195	0	0	0	0
35.14091	0.008657678	-0.08816195	0	0	0	0
35.15754	0.008657678	-0.08816195	0	0	0	0
35.17455	0.008657678	-0.08816195	0	0	0	0
35.19061	0.008657678	-0.08816195	0	0	0	0
35.20717	0.008657678	-0.08816195	0	0	0	0
35.22374	0.008657678	-0.08816195	0	0	0	0
35.2403	0.008657678	-0.08816195	0	0	0	0
35.25687	0.008657678	-0.08816195	0	0	0	0
35.27343	0.008657678	-0.08816195	0	0	0	0
35.29012	0.008657678	-0.08816195	0	0	0	0
35.30658	0.008683993	-0.08818133	0.001598654	-0.001177759	0.04823638	-0.03553666
35.32314	0.008683993	-0.08818133	0	0	-0.0484147	0.03566804
35.3397	0.008683993	-0.08818133	0	0	0	0
35.35627	0.008683993	-0.08818133	0	0	0	0
35.37284	0.008683993	-0.08818133	0	0	0	0
35.3894	0.008683993	-0.08818133	0	0	0	0
35.40619	0.008710306	-0.08820072	0.001568072	-0.00115527	0.04702136	-0.03464276
35.42254	0.008710306	-0.08820072	0	0	-0.04732451	0.03486611
35.43911	0.008710306	-0.08820072	0	0	0	0
35.45567	0.00873662	-0.08822011	0.001588291	-0.001170616	0.04793473	-0.03532926
35.47224	0.00873662	-0.08822011	0	0	-0.04793473	0.03532926
35.48881	0.00873662	-0.08822011	0	0	0	0
35.50537	0.008762933	-0.0882395	0.001588291	-0.001170166	0.04793473	-0.03531568
35.52194	0.008762933	-0.0882395	0	0	-0.04793473	0.03531568
35.53883	0.008762933	-0.0882395	0	0	0	0
35.55507	0.008789247	-0.08829767	0.001620378	-0.003582335	0.04890874	-0.1081275
35.57164	0.008789247	-0.08829767	0	0	-0.04939214	0.1091962
35.58821	0.008789247	-0.08829767	0	0	0	0
35.6049	0.008789247	-0.08829767	0	0	0	0
35.62134	0.008789247	-0.08829767	0	0	0	0
35.63791	0.008789247	-0.08829767	0	0	0	0
35.65448	0.008789247	-0.08829767	0	0	0	0
35.67145	0.008789247	-0.08829767	0	0	0	0
35.68761	0.008789247	-0.08829767	0	0	0	0
35.70418	0.008789247	-0.08833645	0	-0.002340782	0	-0.07152604
35.72075	0.008789247	-0.08833645	0	0	0	0.07064494
35.73731	0.008789247	-0.08833645	0	0	0	0
35.75388	0.008789247	-0.08837523	0	-0.002341321	0	-0.07066935
35.77044	0.008789247	-0.08837523	0	0	0	0.07066935
35.78701	0.008789247	-0.08837523	0	0	0	0
35.80358	0.008789247	-0.08841401	0	-0.002340782	0	-0.07064494
35.82014	0.008789247	-0.08841401	0	0	0	0.07064494
35.83671	0.008789247	-0.08841401	0	0	0	0
35.85328	0.008920816	-0.08851097	0.007941512	-0.00585218	0.2396753	-0.1766191
35.86985	0.008920816	-0.08851097	0	0	-0.2396753	0.1766191
35.88641	0.008920816	-0.08851097	0	0	0	0
35.90298	0.01202574	-0.09080017	0.1874134	-0.1381763	5.656147	-4.170169
35.91955	0.01202574	-0.09080017	0	0	-5.656147	4.170169
35.93614	0.01202574	-0.09080017	0	0	0	0
35.95885	0.04528481	-0.1154673	1.464584	-1.086231	37.26408	-27.63747
35.97542	0.04528481	-0.1154673	0	0	-37.28941	27.65626
35.99198	0.06192074	-0.1279202	1.004378	-0.7518348	30.31568	-22.69303
36.00855	0.06192074	-0.1279202	0	0	-30.31568	22.69303
36.02512	0.06192074	-0.1279202	0	0	0	0
36.0417	0.08095427	-0.1422381	1.147545	-0.8632345	34.61305	-26.03748
36.05825	0.08095427	-0.1422381	0	0	-34.63696	26.05547
36.07481	0.08095427	-0.1422381	0	0	0	0
36.09138	0.08213062	-0.1431296	0.07100461	-0.05381055	2.142924	-1.624006
36.10795	0.08213062	-0.1431296	0	0	-2.142924	1.624006
36.12452	0.08213062	-0.1431296	0	0	0	0
36.14128	0.08210448	-0.1431098	-0.00155859	0.001181827	-0.04675307	0.0354513
36.15765	0.08210448	-0.1431098	0	0	0.04703835	-0.03566762
36.17481	0.08210448	-0.1431098	0	0	0	0
36.19078	0.08202606	-0.1430503	-0.004909635	0.003721526	-0.1481901	0.1123288
36.20735	0.08202606	-0.1430503	0	0	0.1508829	-0.11437
36.22392	0.08202606	-0.1430503	0	0	0	0
36.2406	0.08194765	-0.1429909	-0.00470081	0.003563236	-0.1413824	0.1071685
36.25705	0.08194765	-0.1429909	0	0	0.1418707	-0.1075387
36.27362	0.08194765	-0.1429909	0	0	0	0
36.29062	0.08192151	-0.1429711	-0.001536914	0.001165391	-0.04577807	0.03471199
36.30675	0.08192151	-0.1429711	0	0	0.04638416	-0.03517156
36.32332	0.08192151	-0.1429711	0	0	0	0
36.33988	0.08192151	-0.1429711	0	0	0	0
36.35645	0.08192151	-0.1429711	0	0	0	0
36.37302	0.08192151	-0.1429711	0	0	0	0
36.38958	0.08192151	-0.1429711	0	0	0	0
36.40615	0.08192151	-0.1429711	0	0	0	0
36.42323	0.08192151	-0.1429711	0	0	0	0
36.43974	0.08192151	-0.1429711	0	0	0	0
36.45584	0.08192151	-0.1429711	0	0	0	0
36.47274	0.08192151	-0.1429711	0	0	0	0
36.48898	0.08192151	-0.1429711	0	0	0	0
36.50575	0.08192151	-0.1429711	0	0	0	0
36.52226	0.08192151	-0.1429711	0	0	0	0
36.53867	0.08192151	-0.1429711	0	0	0	0
36.55528	0.08192151	-0.1429711	0	0	0	0
36.57181	0.08192151	-0.1429711	0	0	0	0
36.58838	0.08192151	-0.1429711	0	0	0	0
36.60494	0.08192151	-0.1429711	0	0	0	0
36.62151	0.08192151	-0.1429711	0	0	0	0
36.63835	0.08192151	-0.1429711	0	0	0	0
36.65486	0.08192151	-0.1429711	0	0	0	0
36.67188	0.08192151	-0.1429711	0	0	0	0
36.68777	0.08192151	-0.1429711	0	0	0	0
36.70434	0.08192151	-0.1429711	0	0	0	0
36.72091	0.08192151	-0.1429711	0	0	0	0
36.74055	0.08192151	-0.1429711	0	0	0	0
36.75713	0.08192151	-0.1429711	0	0	0	0
36.77369	0.08192151	-0.1429711	0	0	0	0
36.79043	0.08189537	-0.1429513	-0.001561877	0.001183092	-0.04689996	0.03552582
36.80694	0.08189537	-0.1429513	0	0	0.04697529	-0.03558288
36.82345	0.08189537	-0.1429513	0	0	0	0
36.83996	0.08189537	-0.1429513	0	0	0	0
36.85653	0.08189537	-0.1429513	0	0	0	0
36.87309	0.08189537	-0.1429513	0	0	0	0
36.88966	0.08189537	-0.1429513	0	0	0	0
36.90623	0.08189537	-0.1429513	0	0	0	0
36.92306	0.08189537	-0.1429513	0	0	0	0
36.94058	0.08189537	-0.1429513	0	0	0	0
36.95715	0.08189537	-0.1429513	0	0	0	0
36.97372	0.08189537	-0.1429513	0	0	0	0
36.99028	0.08189537	-0.1429513	0	0	0	0
37.00685	0.08189537	-0.1429513	0	0	0	0
37.02362	0.08189537	-0.1429513	0	0	0	0
37.03998	0.08189537	-0.1429513	0	0	0	0
37.05668	0.08189537	-0.1429513	0	0	0	0
37.07316	0.08189537	-0.1429513	0	0	0	0
37.08968	0.08189537	-0.1429513	0	0	0	0
37.10625	0.08189537	-0.1429513	0	0	0	0
37.12282	0.08189537	-0.1429513	0	0	0	0
37.13938	0.08189537	-0.1429513	0	0	0	0
37.15595	0.08189537	-0.1429513	0	0	0	0
37.17271	0.08189537	-0.1429513	0	0	0	0
37.18923	0.08189537	-0.1429513	0	0	0	0
37.20576	0.08189537	-0.1429513	0	0	0	0
37.22227	0.08189537	-0.1429513	0	0	0	0
37.25822	0.08189537	-0.1429513	0	0	0	0
37.2748	0.08189537	-0.1429513	0	0	0	0
37.29136	0.08189537	-0.1429513	0	0	0	0
37.30793	0.08189537	-0.1429513	0	0	0	0
37.32449	0.08189537	-0.1429513	0	0	0	0
37.34573	0.08189537	-0.1429513	0	0	0	0
37.36229	0.08189537	-0.1429513	0	0	0	0
37.37889	0.08189537	-0.1429513	0	0	0	0
37.39543	0.08189537	-0.1429513	0	0	0	0
37.41199	0.08189537	-0.1429513	0	0	0	0
37.42939	0.08189537	-0.1429513	0	0	0	0
37.44543	0.08189537	-0.1429513	0	0	0	0
37.4617	0.08189537	-0.1429513	0	0	0	0
37.47826	0.08189537	-0.1429513	0	0	0	0
37.49483	0.08189537	-0.1429513	0	0	0	0
37.5114	0.08189537	-0.1429513	0	0	0	0
37.52799	0.08189537	-0.1429513	0	0	0	0
37.54453	0.08189537	-0.1429513	0	0	0	0
37.56152	0.08189537	-0.1429513	0	0	0	0
37.57766	0.08189537	-0.1429513	0	0	0	0
37.59423	0.08189537	-0.1429513	0	0	0	0
37.6108	0.08189537	-0.1429513	0	0	0	0
37.62736	0.08189537	-0.1429513	0	0	0	0
37.64429	0.08189537	-0.1429513	0	0	0	0
37.6608	0.08189537	-0.1429513	0	0	0	0
37.67706	0.08189537	-0.1429513	0	0	0	0
37.69363	0.08189537	-0.1429513	0	0	0	0
37.71019	0.08189537	-0.1429513	0	0	0	0
37.72676	0.08189537	-0.1429513	0	0	0	0
37.74339	0.08189537	-0.1429513	0	0	0	0
37.7599	0.08189537	-0.1429513	0	0	0	0
37.77646	0.08189537	-0.1429513	0	0	0	0
37.79303	0.08189537	-0.1429513	0	0	0	0
37.8096	0.08189537	-0.1429513	0	0	0	0
37.82616	0.08189537	-0.1429513	0	0	0	0
37.84293	0.08189537	-0.1429513	0	0	0	0
37.85929	0.08189537	-0.1429513	0	0	0	0
37.87586	0.08189537	-0.1429513	0	0	0	0
37.89261	0.08189537	-0.1429513	0	0	0	0
37.90918	0.08189537	-0.1429513	0	0	0	0
37.92574	0.08189537	-0.1429513	0	0	0	0
37.94231	0.08189537	-0.1429513	0	0	0	0
37.95888	0.08189537	-0.1429513	0	0	0	0
37.97553	0.08189537	-0.1429513	0	0	0	0
37.99207	0.08189537	-0.1429513	0	0	0	0
38.00858	0.08189537	-0.1429513	0	0	0	0
38.02514	0.08189537	-0.1429513	0	0	0	0
38.04171	0.08189537	-0.1429513	0	0	0	0
38.05828	0.08189537	-0.1429513	0	0	0	0
38.07484	0.08189537	-0.1429513	0	0	0	0
38.09161	0.08189537	-0.1429513	0	0	0	0
38.10798	0.08189537	-0.1429513	0	0	0	0
38.12463	0.08189537	-0.1429513	0	0	0	0
38.14114	0.08189537	-0.1429513	0	0	0	0
38.15768	0.08189537	-0.1429513	0	0	0	0
38.17842	0.08189537	-0.1429513	0	0	0	0
38.19518	0.08189537	-0.1429513	0	0	0	0
38.2117	0.08189537	-0.1429513	0	0	0	0
38.2282	0.08189537	-0.1429513	0	0	0	0
38.24469	0.08189537	-0.1429513	0	0	0	0
38.26126	0.08189537	-0.1429513	0	0	0	0
38.27826	0.08189537	-0.1429513	0	0	0	0
38.2944	0.08189537	-0.1429513	0	0	0	0
38.31096	0.08189537	-0.1429513	0	0	0	0
38.32753	0.08189537	-0.1429513	0	0	0	0
38.34429	0.08189537	-0.1429513	0	0	0	0
38.3608	0.08189537	-0.1429513	0	0	0	0
38.37723	0.08189537	-0.1429513	0	0	0	0
38.3938	0.08189537	-0.1429513	0	0	0	0
38.41036	0.08189537	-0.1429513	0	0	0	0
38.42693	0.08189537	-0.1429513	0	0	0	0
38.4435	0.08189537	-0.1429513	0	0	0	0
38.4602	0.08189537	-0.1429513	0	0	0	0
38.47663	0.08189537	-0.1429513	0	0	0	0
38.49319	0.08189537	-0.1429513	0	0	0	0
38.50976	0.08189537	-0.1429513	0	0	0	0
38.52633	0.08189537	-0.1429513	0	0	0	0
38.5429	0.08189537	-0.1429513	0	0	0	0
38.55946	0.08189537	-0.1429513	0	0	0	0
38.57603	0.08189537	-0.1429513	0	0	0	0
38.5926	0.08189537	-0.1429513	0	0	0	0
38.60917	0.08189537	-0.1429513	0	0	0	0
38.62573	0.08189537	-0.1429513	0	0	0	0
38.64233	0.08189537	-0.1429513	0	0	0	0
38.65887	0.08189537	-0.1429513	0	0	0	0
38.67543	0.08189537	-0.1429513	0	0	0	0
38.692	0.08189537	-0.1429513	0	0	0	0
38.70857	0.08189537	-0.1429513	0	0	0	0
38.72514	0.08189537	-0.1429513	0	0	0	0
38.7417	0.08189537	-0.1429513	0	0	0	0
38.75827	0.08189537	-0.1429513	0	0	0	0
38.77493	0.08189537	-0.1429513	0	0	0	0
38.79145	0.08189537	-0.1429513	0	0	0	0
38.80797	0.08189537	-0.1429513	0	0	0	0
38.82454	0.08189537	-0.1429513	0	0	0	0
38.8411	0.08189537	-0.1429513	0	0	0	0
38.85767	0.08189537	-0.1429513	0	0	0	0
38.87423	0.08189537	-0.1429513	0	0	0	0
38.8908	0.08189537	-0.1429513	0	0	0	0
38.90752	0.08189537	-0.1429513	0	0	0	0
38.92403	0.08189537	-0.1429513	0	0	0	0
38.94103	0.08189537	-0.1429513	0	0	0	0
38.95708	0.08189537	-0.1429513	0	0	0	0
38.97363	0.08189537	-0.1429513	0	0	0	0
38.9902	0.08189537	-0.1429513	0	0	0	0
39.00932	0.08189537	-0.1429513	0	0	0	0
39.02589	0.08189537	-0.1429513	0	0	0	0
39.04246	0.08189537	-0.1429513	0	0	0	0
39.05911	0.08189537	-0.1429513	0	0	0	0
39.07563	0.08189537	-0.1429513	0	0	0	0
39.09216	0.08189537	-0.1429513	0	0	0	0
39.10872	0.08186923	-0.1429314	-0.00157761	0.00119625	-0.04766726	0.0361445
39.12529	0.08186923	-0.1429314	0	0	0.04761238	-0.03610289
39.14186	0.08186923	-0.1429314	0	0	0	0
39.15842	0.08186923	-0.1429314	0	0	0	0
39.17519	0.08186923	-0.1429314	0	0	0	0
39.19156	0.08186923	-0.1429314	0	0	0	0
39.20812	0.08186923	-0.1428126	0	0.007175699	0	0.2178926
39.22472	0.08186923	-0.1428126	0	0	0	-0.2163389
39.24126	0.08186923	-0.1428126	0	0	0	0
39.25782	0.08257496	-0.1423569	0.04259818	0.02750205	1.286949	0.8308744
39.27971	0.08257496	-0.1423569	0	0	-1.107713	-0.715157
39.29096	0.08257496	-0.1423569	0	0	0	0
39.30753	0.08576279	-0.1420796	0.1924177	0.0167376	6.918274	0.6017916
39.32409	0.08576279	-0.1420796	0	0	-5.807177	-0.5051419
39.34092	0.08576279	-0.1420796	0	0	0	0
39.35744	0.1385797	-0.1522618	3.196869	-0.6163009	95.85268	-18.47873
39.37379	0.1385797	-0.1522618	0	0	-97.26555	18.75111
39.39036	0.1385797	-0.1522618	0	0	0	0
39.40693	0.2356694	-0.1461631	5.860344	0.3681166	176.8655	11.10978
39.42349	0.2356694	-0.1461631	0	0	-176.8655	-11.10978
39.4405	0.2356694	-0.1461631	0	0	0	0
39.45662	0.3061899	-0.1310925	4.374476	0.934849	132.0371	28.21705
39.47353	0.3061899	-0.1310925	0	0	-132.4642	-28.30831
39.49005	0.3061899	-0.1310925	0	0	0	0
39.50632	0.3414494	-0.1184472	2.166678	0.7770507	66.05973	23.69146
39.52305	0.3414494	-0.1184472	0	0	-65.65502	-23.54632
39.53946	0.3414494	-0.1184472	0	0	0	0
39.55609	0.3710107	-0.1080522	1.777367	0.6249955	53.79588	18.91685
39.57259	0.3710107	-0.1080522	0	0	-53.64104	-18.8624
39.58916	0.3710107	-0.1080522	0	0	0	0
39.60588	0.3884888	-0.09452917	1.045116	0.8086187	31.39348	24.28951
39.62239	0.3884888	-0.09452917	0	0	-31.45475	-24.33692
39.63886	0.3884888	-0.09452917	0	0	0	0
39.65858	0.397449	-0.08655312	0.4544142	0.4045024	12.55501	11.176
39.67515	0.397449	-0.08655312	0	0	-12.52334	-11.1478
39.69172	0.397449	-0.08655312	0	0	0	0
39.70844	0.3974266	-0.08653374	-0.001338013	0.001158513	-0.040187	0.03479573
39.72546	0.3974266	-0.08653374	0	0	0.03965541	-0.03433546
39.74198	0.3974266	-0.08653374	0	0	0	0
39.75901	0.3973595	-0.08647561	-0.003941252	0.003413593	-0.1174597	0.1017341
39.77558	0.3973595	-0.08647561	0	0	0.117313	-0.101607
39.79214	0.3973595	-0.08647561	0	0	0	0
39.80871	0.3967776	-0.08597185	-0.03512297	0.03040678	-1.060013	0.9176784
39.82528	0.3967776	-0.08597185	0	0	1.060013	-0.9176784
39.84186	0.3967776	-0.08597185	0	0	0	0
39.8586	0.3924269	-0.08221602	-0.259917	0.2243779	-7.801199	6.734523
39.87508	0.3924269	-0.08221602	0	0	7.824492	-6.754631
39.89158	0.3924269	-0.08221602	0	0	0	0
39.90811	0.3785766	-0.07042062	-0.8377437	0.7134503	-25.35906	21.59662
39.92468	0.3785766	-0.07042062	0	0	25.30938	-21.55431
39.94162	0.3785766	-0.07042062	0	0	0	0
39.95883	0.3639286	-0.05806093	-0.8514135	0.7184075	-24.93219	21.03733
39.9754	0.3639286	-0.05806093	0	0	25.211	-21.27259
39.99196	0.3639286	-0.05806093	0	0	0	0
40.00875	0.356762	-0.05210201	-0.4268792	0.3549411	-12.79778	10.64109
40.02532	0.356762	-0.05210201	0	0	12.79778	-10.64109
40.0422	0.356762	-0.05210201	0	0	0	0
40.05845	0.3559761	-0.05145129	-0.04835864	0.0400425	-1.459467	1.208485
40.07502	0.3559761	-0.05145129	0	0	1.473547	-1.220144
40.09159	0.3559761	-0.05145129	0	0	0	0
40.10825	0.3559761	-0.05145129	0	0	0	0
40.12472	0.3559761	-0.05145129	0	0	0	0
40.14129	0.3559761	-0.05145129	0	0	0	0
40.15785	0.3559761	-0.05145129	0	0	0	0
40.17442	0.3559761	-0.05145129	0	0	0	0
40.19099	0.3559761	-0.05145129	0	0	0	0
40.20755	0.3559761	-0.05148957	0	-0.002310201	0	-0.069722
40.22412	0.3559761	-0.05148957	0	0	0	0.069722
40.24083	0.3559761	-0.05148957	0	0	0	0
40.25734	0.3559299	-0.05160439	-0.00279972	-0.006954623	-0.08429192	-0.2093847
40.27382	0.3559299	-0.05160439	0	0	0.08484737	0.2107645
40.29039	0.3559299	-0.05160439	0	0	0	0
40.30696	0.3557912	-0.05183405	-0.008373748	-0.01386233	-0.2527202	-0.418366
40.32352	0.3557912	-0.05183405	0	0	0.2527202	0.418366
40.34009	0.3557912	-0.05183405	0	0	0	0
40.35666	0.3557912	-0.05187233	0	-0.002310651	0	-0.06973557
40.37323	0.3557912	-0.05187233	0	0	0	0.06973557
40.38979	0.3557912	-0.05187233	0	0	0	0
40.40636	0.355768	-0.05189146	-0.001395924	-0.001155101	-0.04212908	-0.034861
40.42293	0.355768	-0.05189146	0	0	0.04212908	0.034861
40.43974	0.355768	-0.05189146	0	0	0	0
40.45606	0.355768	-0.05192975	0	-0.002346307	0	-0.07081985
40.47263	0.355768	-0.05192975	0	0	0	0.07135388
40.48933	0.355768	-0.05192975	0	0	0	0
40.50576	0.355768	-0.05192975	0	0	0	0
40.52232	0.355768	-0.05192975	0	0	0	0
40.53889	0.355768	-0.05192975	0	0	0	0
40.55545	0.355768	-0.05192975	0	0	0	0
40.57202	0.355768	-0.05192975	0	0	0	0
40.58886	0.355768	-0.05192975	0	0	0	0
40.60516	0.355768	-0.05192975	0	0	0	0
40.62187	0.355768	-0.05192975	0	0	0	0
40.63829	0.355768	-0.05192975	0	0	0	0
40.65786	0.3557449	-0.05194889	-0.001181774	-0.0009780854	-0.03283813	-0.02717821
40.67443	0.3557449	-0.05194889	0	0	0.03270294	0.02706632
40.69099	0.3557449	-0.05194889	0	0	0	0
40.70775	0.3557449	-0.05194889	0	0	0	0
40.72413	0.3557449	-0.05194889	0	0	0	0
40.74078	0.3557449	-0.05194889	0	0	0	0
40.75863	0.3556986	-0.05198716	-0.00259192	-0.002144972	-0.07512784	-0.06217289
40.7752	0.3556986	-0.05198716	0	0	0.07531939	0.0623314
40.79182	0.3556986	-0.05198716	0	0	0	0
40.80833	0.3556755	-0.0520063	-0.001400439	-0.001159062	-0.04226533	-0.03498055
40.8249	0.3556755	-0.0520063	0	0	0.04233357	0.03503702
40.84146	0.3556755	-0.0520063	0	0	0	0
40.85803	0.355583	-0.05208287	-0.005584984	-0.004622366	-0.1685746	-0.1395193
40.8746	0.355583	-0.05208287	0	0	0.1685746	0.1395193
40.89116	0.355583	-0.05208287	0	0	0	0
40.90773	0.3555368	-0.05212115	-0.002791849	-0.002310651	-0.08425817	-0.06973557
40.9243	0.3555368	-0.05212115	0	0	0.08425817	0.06973557
40.94108	0.3555368	-0.05212115	0	0	0	0
40.95759	0.3554905	-0.05212115	-0.002801525	0	-0.08415297	0
40.974	0.3554905	-0.05212115	0	0	0.08509883	0
40.99112	0.3554905	-0.05212115	0	0	0	0
41.00713	0.3554211	-0.05214029	-0.00433242	-0.001195231	-0.1307527	-0.03607213
41.0237	0.3554211	-0.05214029	0	0	0.1329881	0.03668882
41.04026	0.3554211	-0.05214029	0	0	0	0
41.05683	0.3553749	-0.05217857	-0.002791849	-0.002310876	-0.08425817	-0.06974237
41.0734	0.3553749	-0.05217857	0	0	0.08425817	0.06974237
41.08997	0.3553749	-0.05217857	0	0	0	0
41.10653	0.3552361	-0.05225514	-0.008377345	-0.004621526	-0.2528288	-0.1394779
41.1231	0.3552361	-0.05225514	0	0	0.2528288	0.1394779
41.13973	0.3552361	-0.05225514	0	0	0	0
41.15623	0.3547734	-0.05256142	-0.02803904	-0.01856011	-0.8463172	-0.5602096
41.1728	0.3547734	-0.05256142	0	0	0.8478792	0.5612435
41.18937	0.3547734	-0.05256142	0	0	0	0
41.21167	0.3517386	-0.05457223	-0.1360374	-0.09013682	-3.499303	-2.318597
41.22826	0.3517386	-0.05457223	0	0	3.497244	2.317233
41.2448	0.3509498	-0.0549554	-0.0476876	-0.02316543	-1.43938	-0.6992146
41.26137	0.3509498	-0.0549554	0	0	1.440375	0.699698
41.27794	0.3509498	-0.0549554	0	0	0	0
41.29485	0.3501838	-0.05531945	-0.04530615	-0.02153307	-1.353474	-0.6432781
41.31137	0.3501838	-0.05531945	0	0	1.355328	0.644159
41.32785	0.3501838	-0.05531945	0	0	0	0
41.34434	0.3336004	-0.06784042	-1.005379	-0.7590881	-30.48982	-23.02064
41.36088	0.3336004	-0.06784042	0	0	30.43349	22.97811
41.37738	0.3336004	-0.06784042	0	0	0	0
41.3939	0.2999813	-0.06743628	-2.034402	0.02445599	-61.61118	0.7406414
41.41047	0.2999813	-0.06743628	0	0	61.47624	-0.7390192
41.42704	0.2999813	-0.06743628	0	0	0	0
41.4436	0.2538503	-0.05712125	-2.784472	0.6226165	-84.03552	18.7906
41.46017	0.2538503	-0.05712125	0	0	84.03552	-18.7906
41.47674	0.2538503	-0.05712125	0	0	0	0
41.4933	0.2250684	-0.03905768	-1.73768	1.09057	-52.44933	32.91726
41.50987	0.2250684	-0.03905768	0	0	52.44933	-32.91726
41.52644	0.2250684	-0.03905768	0	0	0	0
41.54311	0.1946359	-0.02337615	-1.824724	0.9402606	-54.88702	28.28269
41.55957	0.1946359	-0.02337615	0	0	55.07027	-28.37712
41.57615	0.1946359	-0.02337615	0	0	0	0
