Time	Pos X	Pos Y	Vel X	Vel Y	Acc X	Acc Y
0.01656634	0.02983325	-0.1284716	-0.000496701	0.002138955	8.271877E-06	-3.562137E-05
0.03332137	0.02983325	-0.1284716	0	0	-8.272004E-06	3.562192E-05
0.04983324	0.02983325	-0.1284716	0	0	0	0
0.06626615	0.02983325	-0.1284716	0	0	0	0
0.08283485	0.02983325	-0.1284716	0	0	0	0
0.09940001	0.02983325	-0.1284716	0	0	0	0
0.1159675	0.02983325	-0.1284716	0	0	0	0
0.1328982	0.02983325	-0.1284716	0	0	0	0
0.1491006	0.02983325	-0.1284716	0	0	0	0
0.1659192	0.02983325	-0.1284716	0	0	0	0
0.1822341	0.02983325	-0.1284716	0	0	0	0
0.1989469	0.02983325	-0.1284716	0	0	0	0
0.215366	0.02983325	-0.1284716	0	0	0	0
0.2319339	0.02983325	-0.1284716	0	0	0	0
0.2484991	0.02983325	-0.1284716	0	0	0	0
0.265249	0.02985954	-0.1284913	0.001569635	-0.001176086	0.04711488	-0.03530195
0.2816333	0.02985954	-0.1284913	0	0	-0.04737196	0.03549457
0.2981993	0.02985954	-0.1284913	0	0	0	0
0.3149756	0.02985954	-0.1284913	0	0	0	0
0.3314689	0.02985954	-0.1284913	0	0	0	0
0.3478995	0.02985954	-0.1284913	0	0	0	0
0.3644662	0.02985954	-0.1284913	0	0	0	0
0.3810329	0.02985954	-0.1284913	0	0	0	0
0.3975993	0.02985954	-0.1284913	0	0	0	0
0.4141656	0.02985954	-0.1284913	0	0	0	0
0.4307328	0.02985954	-0.1284913	0	0	0	0
0.4475873	0.02985954	-0.1284913	0	0	0	0
0.4640912	0.02985954	-0.1284913	0	0	0	0
0.4806007	0.02985954	-0.1284913	0	0	0	0
0.4969993	0.02985954	-0.1284913	0	0	0	0
0.5179455	0.02985954	-0.1284913	0	0	0	0
0.5346361	0.02985954	-0.1284913	0	0	0	0
0.5510797	0.02985954	-0.1284913	0	0	0	0
0.5676594	0.02985954	-0.1284913	0	0	0	0
0.5842136	0.02985954	-0.1284913	0	0	0	0
0.6007795	0.02988584	-0.128511	0.00158718	-0.001189148	0.04792206	-0.0359042
0.6173466	0.02988584	-0.128511	0	0	-0.04790326	0.03589012
0.6339129	0.02988584	-0.128511	0	0	0	0
0.6504797	0.02988584	-0.128511	0	0	0	0
0.6672304	0.02988584	-0.128511	0	0	0	0
0.6836131	0.02988584	-0.128511	0	0	0	0
0.7002434	0.02988584	-0.128511	0	0	0	0
0.7167805	0.02988584	-0.128511	0	0	0	0
0.7333133	0.02988584	-0.128511	0	0	0	0
0.7498797	0.02988584	-0.128511	0	0	0	0
0.7664468	0.02988584	-0.128511	0	0	0	0
0.7830135	0.02988584	-0.128511	0	0	0	0
0.8048791	0.02988584	-0.128511	0	0	0	0
0.8214458	0.02988584	-0.128511	0	0	0	0
0.8380126	0.02988584	-0.128511	0	0	0	0
0.8545805	0.02988584	-0.128511	0	0	0	0
0.871148	0.02988584	-0.128511	0	0	0	0
0.8877132	0.02988584	-0.128511	0	0	0	0
0.9042795	0.02988584	-0.128511	0	0	0	0
0.9208471	0.02988584	-0.128511	0	0	0	0
0.9374229	0.02988584	-0.128511	0	0	0	0
0.9539805	0.02988584	-0.128511	0	0	0	0
0.9705473	0.02988584	-0.128511	0	0	0	0
0.9871132	0.02988584	-0.128511	0	0	0	0
1.00368	0.02988584	-0.128511	0	0	0	0
1.020247	0.02988584	-0.128511	0	0	0	0
1.036813	0.02991213	-0.1285307	0.001587135	-0.001189114	0.04790119	-0.03588857
1.05338	0.02991213	-0.1285307	0	0	-0.04790171	0.03588896
1.069947	0.02991213	-0.1285307	0	0	0	0
1.086514	0.02993842	-0.1285504	0.001586919	-0.001188138	0.04789418	-0.03585871
1.10308	0.02993842	-0.1285504	0	0	-0.04789418	0.03585871
1.119647	0.02993842	-0.1285504	0	0	0	0
1.136213	0.02993842	-0.1285504	0	0	0	0
1.152781	0.02993842	-0.1285504	0	0	0	0
1.169558	0.02993842	-0.1285504	0	0	0	0
1.186064	0.02996471	-0.1285701	0.001592912	-0.001193442	0.04785842	-0.03585652
1.20248	0.02996471	-0.1285701	0	0	-0.04838454	0.0362507
1.219047	0.02996471	-0.1285701	0	0	0	0
1.235613	0.02996471	-0.1285701	0	0	0	0
1.252181	0.02996471	-0.1285701	0	0	0	0
1.268747	0.02996471	-0.1285701	0	0	0	0
1.285656	0.029991	-0.1285898	0.001554866	-0.001165021	0.04644802	-0.03480229
1.30188	0.029991	-0.1285898	0	0	-0.04692798	0.0351619
1.318447	0.029991	-0.1285898	0	0	0	0
1.335013	0.029991	-0.1285898	0	0	0	0
1.351579	0.029991	-0.1285898	0	0	0	0
1.368148	0.029991	-0.1285898	0	0	0	0
1.384713	0.029991	-0.1285898	0	0	0	0
1.40128	0.029991	-0.1285898	0	0	0	0
1.418092	0.029991	-0.1285898	0	0	0	0
1.434613	0.029991	-0.1285898	0	0	0	0
1.450981	0.029991	-0.1285898	0	0	0	0
1.467637	0.029991	-0.1285898	0	0	0	0
1.484113	0.0300173	-0.1286095	0.001595804	-0.00119561	0.0481639	-0.03608539
1.50068	0.0300173	-0.1286095	0	0	-0.04829456	0.03618329
1.517247	0.0300173	-0.1286095	0	0	0	0
1.533813	0.0300173	-0.1286095	0	0	0	0
1.55038	0.0300173	-0.1286095	0	0	0	0
1.566947	0.0300173	-0.1286095	0	0	0	0
1.583513	0.0300173	-0.1286095	0	0	0	0
1.60008	0.0300173	-0.1286095	0	0	0	0
1.616731	0.0300173	-0.1286095	0	0	0	0
1.636256	0.0300173	-0.1286095	0	0	0	0
1.652824	0.0300173	-0.1286095	0	0	0	0
1.669391	0.0300173	-0.1286095	0	0	0	0
1.763762	0.03004359	-0.1286292	0.0002785949	-0.0002087439	0.002511268	-0.001881627
1.780373	0.03004359	-0.1286292	0	0	-0.002510267	0.001880877
1.797398	0.03004359	-0.1286292	0	0	0	0
1.813911	0.03004359	-0.1286292	0	0	0	0
1.83003	0.03004359	-0.1286292	0	0	0	0
1.846596	0.03004359	-0.1286292	0	0	0	0
1.863164	0.03004359	-0.1286292	0	0	0	0
1.879731	0.03004359	-0.1286292	0	0	0	0
1.896296	0.03004359	-0.1286292	0	0	0	0
1.912864	0.03004359	-0.1286292	0	0	0	0
1.92943	0.03004359	-0.1286292	0	0	0	0
1.946239	0.03004359	-0.1286292	0	0	0	0
1.962564	0.03004359	-0.1286292	0	0	0	0
1.979131	0.03004359	-0.1286292	0	0	0	0
1.995696	0.03004359	-0.1286292	0	0	0	0
2.012265	0.03004359	-0.1286292	0	0	0	0
2.028832	0.03004359	-0.1286292	0	0	0	0
2.045799	0.03004359	-0.1286292	0	0	0	0
2.062307	0.03004359	-0.1286292	0	0	0	0
2.078536	0.03004359	-0.1286292	0	0	0	0
2.09534	0.03004359	-0.1286292	0	0	0	0
2.111665	0.03004359	-0.1286292	0	0	0	0
2.128232	0.03004359	-0.1286292	0	0	0	0
2.144861	0.03004359	-0.1286292	0	0	0	0
2.16139	0.03004359	-0.1286292	0	0	0	0
2.177932	0.03004359	-0.1286292	0	0	0	0
2.198675	0.03004359	-0.1286292	0	0	0	0
2.211063	0.03004359	-0.1286292	0	0	0	0
2.228065	0.03004359	-0.1286292	0	0	0	0
2.244569	0.03004359	-0.1286292	0	0	0	0
2.260764	0.03004359	-0.1286292	0	0	0	0
2.277581	0.03004359	-0.1286292	0	0	0	0
2.293897	0.03004359	-0.1286292	0	0	0	0
2.310463	0.03004359	-0.1286292	0	0	0	0
2.32703	0.03004359	-0.1286292	0	0	0	0
2.343597	0.03004359	-0.1286292	0	0	0	0
2.360165	0.03004359	-0.1286292	0	0	0	0
2.37673	0.03004359	-0.1286292	0	0	0	0
2.393296	0.03004359	-0.1286292	0	0	0	0
2.409864	0.03004359	-0.1286292	0	0	0	0
2.42643	0.03004359	-0.1286292	0	0	0	0
2.442997	0.03004359	-0.1286292	0	0	0	0
2.459563	0.03004359	-0.1286292	0	0	0	0
2.476241	0.03004359	-0.1286292	0	0	0	0
2.492697	0.03004359	-0.1286292	0	0	0	0
2.509265	0.03004359	-0.1286292	0	0	0	0
2.525836	0.03004359	-0.1286292	0	0	0	0
2.542397	0.03004359	-0.1286292	0	0	0	0
2.559319	0.03004359	-0.1286292	0	0	0	0
2.575811	0.03004359	-0.1286292	0	0	0	0
2.592098	0.03004359	-0.1286292	0	0	0	0
2.608664	0.03004359	-0.1286292	0	0	0	0
2.625231	0.03006988	-0.1286489	0.001586988	-0.001188189	0.04789677	-0.03586065
2.641869	0.03006988	-0.1286489	0	0	-0.04779428	0.03578392
2.658401	0.03006988	-0.1286489	0	0	0	0
2.674931	0.03006988	-0.1286489	0	0	0	0
2.691498	0.03006988	-0.1286489	0	0	0	0
2.708064	0.03006988	-0.1286489	0	0	0	0
2.724632	0.03006988	-0.1286489	0	0	0	0
2.741197	0.03006988	-0.1286489	0	0	0	0
2.757962	0.03006988	-0.1286489	0	0	0	0
2.774472	0.03006988	-0.1286489	0	0	0	0
2.790897	0.03006988	-0.1286489	0	0	0	0
2.807464	0.03006988	-0.1286489	0	0	0	0
2.824031	0.03006988	-0.1286489	0	0	0	0
2.840597	0.03006988	-0.1286489	0	0	0	0
2.857164	0.03006988	-0.1286489	0	0	0	0
2.873732	0.03006988	-0.1286489	0	0	0	0
2.890298	0.03006988	-0.1286489	0	0	0	0
2.906864	0.03006988	-0.1286489	0	0	0	0
2.92343	0.03006988	-0.1286489	0	0	0	0
2.939997	0.03006988	-0.1286489	0	0	0	0
2.956564	0.03006988	-0.1286489	0	0	0	0
2.973131	0.03006988	-0.1286489	0	0	0	0
2.989697	0.03006988	-0.1286489	0	0	0	0
3.006608	0.03006988	-0.1286489	0	0	0	0
3.030846	0.03006988	-0.1286489	0	0	0	0
3.039397	0.03006988	-0.1286489	0	0	0	0
3.056287	0.03006988	-0.1286489	0	0	0	0
3.072532	0.03006988	-0.1286489	0	0	0	0
3.08932	0.03006988	-0.1286489	0	0	0	0
3.105664	0.03006988	-0.1286489	0	0	0	0
3.122231	0.03006988	-0.1286489	0	0	0	0
3.138798	0.03006988	-0.1286489	0	0	0	0
3.155364	0.03006988	-0.1286489	0	0	0	0
3.171932	0.03006988	-0.1286489	0	0	0	0
3.188498	0.03006988	-0.1286489	0	0	0	0
3.205064	0.03006988	-0.1286489	0	0	0	0
3.221631	0.03006988	-0.1286489	0	0	0	0
3.238198	0.03006988	-0.1286489	0	0	0	0
3.254912	0.03006988	-0.1286489	0	0	0	0
3.271331	0.03006988	-0.1286489	0	0	0	0
3.287898	0.03006988	-0.1286489	0	0	0	0
3.304464	0.03009617	-0.1286686	0.001587146	-0.001189123	0.04790223	-0.03588934
3.321031	0.03009617	-0.1286686	0	0	-0.04790154	0.03588882
3.337698	0.03009617	-0.1286686	0	0	0	0
3.354221	0.03009617	-0.1286686	0	0	0	0
3.370731	0.03009617	-0.1286686	0	0	0	0
3.387298	0.03009617	-0.1286686	0	0	0	0
3.403864	0.03009617	-0.1286686	0	0	0	0
3.420431	0.03009617	-0.1286686	0	0	0	0
3.436997	0.03009617	-0.1286686	0	0	0	0
3.453564	0.03009617	-0.1286686	0	0	0	0
3.470284	0.03009617	-0.1286686	0	0	0	0
3.486697	0.03009617	-0.1286686	0	0	0	0
3.503266	0.03009617	-0.1286686	0	0	0	0
3.519831	0.03009617	-0.1286686	0	0	0	0
3.536398	0.03009617	-0.1286686	0	0	0	0
3.552964	0.03009617	-0.1286686	0	0	0	0
3.569874	0.03009617	-0.1286686	0	0	0	0
3.590598	0.03009617	-0.1286686	0	0	0	0
3.603399	0.03012246	-0.1286883	0.002053739	-0.001538813	0.0612595	-0.04590014
3.619967	0.03012246	-0.1286883	0	0	-0.06992851	0.0523956
3.636534	0.03012246	-0.1286883	0	0	0	0
3.653388	0.03361891	-0.1317038	0.2074542	-0.1789195	6.207251	-5.353461
3.669905	0.03361891	-0.1317038	0	0	-6.216608	5.361532
3.686234	0.03361891	-0.1317038	0	0	0	0
3.70291	0.04152874	-0.1666075	0.4743123	-2.092999	14.37072	-63.4137
3.719368	0.04152874	-0.1666075	0	0	-14.31519	63.16867
3.735935	0.04152874	-0.1666075	0	0	0	0
3.752501	0.01099956	-0.2444992	-1.842931	-4.702025	-55.62217	-141.9135
3.769068	0.01099956	-0.2444992	0	0	55.62257	141.9146
3.785635	0.01099956	-0.2444992	0	0	0	0
3.8022	-0.02567857	-0.3081616	-2.214183	-3.843165	-66.82849	-115.9945
3.818767	-0.02567857	-0.3081616	0	0	66.82849	115.9945
3.835334	-0.02567857	-0.3081616	0	0	0	0
3.852033	-0.03540625	-0.3433028	-0.582545	-2.104438	-17.51206	-63.26217
3.86853	-0.03540625	-0.3433028	0	0	17.54854	63.39393
3.885037	-0.03540625	-0.3433028	0	0	0	0
3.901602	-0.02985954	-0.3676079	0.3348481	-1.46727	10.12504	-44.3669
3.918169	-0.02985954	-0.3676079	0	0	-10.10639	44.28517
3.934735	-0.02985954	-0.3676079	0	0	0	0
3.9513	-0.009762848	-0.3846889	1.213196	-1.03115	36.61776	-31.12307
3.968088	-0.009762848	-0.3846889	0	0	-36.3751	30.91683
3.984626	-0.009762848	-0.3846889	0	0	0	0
4.001144	-0.000736842	-0.3924176	0.5464228	-0.4678853	16.52985	-14.15401
4.017567	-0.000736842	-0.3924176	0	0	-16.58787	14.20369
4.034134	-0.000736842	-0.3924176	0	0	0	0
4.0507	-0.0006842104	-0.3924628	0.003177121	-0.002727325	0.09589121	-0.08231557
4.067267	-0.0006842104	-0.3924628	0	0	-0.09588845	0.0823132
4.083835	-0.0006842104	-0.3924628	0	0	0	0
4.100401	0.003131569	-0.3957416	0.2303408	-0.1979272	6.951898	-5.973626
4.116968	0.003131569	-0.3957416	0	0	-6.952098	5.973797
4.137989	0.003131569	-0.3957416	0	0	0	0
4.150315	0.00634202	-0.3985057	0.2604466	-0.2242346	7.810054	-6.724157
4.166827	0.00634202	-0.3985057	0	0	-9.03117	7.775491
4.183235	0.00634202	-0.3985057	0	0	0	0
4.1998	0.02131256	-0.4114631	0.9037278	-0.7822017	27.40827	-23.72263
4.216368	0.02131256	-0.4114631	0	0	-27.27574	23.60791
4.232934	0.02131256	-0.4114631	0	0	0	0
4.2495	0.03327718	-0.4218584	0.7222483	-0.627515	21.79907	-18.9398
4.266067	0.03327718	-0.4218584	0	0	-21.79844	18.93926
4.282633	0.03327718	-0.4218584	0	0	0	0
4.2992	0.0332509	-0.4218354	-0.001586696	0.001388809	-0.04788934	0.04191675
4.315767	0.0332509	-0.4218354	0	0	0.04788728	-0.04191494
4.332334	0.0332509	-0.4218354	0	0	0	0
4.34946	0.03322461	-0.4218124	-0.001534831	0.001345153	-0.04555364	0.039924
4.365468	0.03322461	-0.4218124	0	0	0.04632263	-0.04059796
4.382454	0.03322461	-0.4218124	0	0	0	0
4.3986	0.03322461	-0.4218124	0	0	0	0
4.415501	0.03322461	-0.4218124	0	0	0	0
4.431734	0.03322461	-0.4218124	0	0	0	0
4.448503	0.03322461	-0.4218124	0	0	0	0
4.465025	0.03322461	-0.4218124	0	0	0	0
4.481434	0.03322461	-0.4218124	0	0	0	0
4.498	0.0332509	-0.4217893	0.001586696	0.001390608	0.04811787	0.04217133
4.514567	0.0332509	-0.4217893	0	0	-0.04788797	-0.04196984
4.531134	0.0332509	-0.4217893	0	0	0	0
4.5477	0.03322461	-0.4217663	-0.00158665	0.001388769	-0.04788727	0.04191494
4.564268	0.03322461	-0.4217663	0	0	0.04788589	-0.04191374
4.580833	0.03322461	-0.4217663	0	0	0	0
4.5974	0.03322461	-0.4217663	0	0	0	0
4.613967	0.03322461	-0.4217663	0	0	0	0
4.630534	0.03322461	-0.4217663	0	0	0	0
4.6471	0.03322461	-0.4217663	0	0	0	0
4.663667	0.03322461	-0.4217663	0	0	0	0
4.680479	0.03322461	-0.4217663	0	0	0	0
4.6968	0.03322461	-0.4217663	0	0	0	0
4.713368	0.03322461	-0.4217663	0	0	0	0
4.729934	0.03322461	-0.4217663	0	0	0	0
4.7465	0.03322461	-0.4217663	0	0	0	0
4.763067	0.03322461	-0.4217663	0	0	0	0
4.779633	0.03322461	-0.4217663	0	0	0	0
4.7962	0.03322461	-0.4217663	0	0	0	0
4.813564	0.03322461	-0.4217663	0	0	0	0
4.829333	0.03322461	-0.4217663	0	0	0	0
4.8459	0.03322461	-0.4217663	0	0	0	0
4.862618	0.03322461	-0.4217663	0	0	0	0
4.879034	0.03322461	-0.4217663	0	0	0	0
4.89564	0.0332509	-0.4217433	0.001582824	0.001387214	0.04793251	0.04200887
4.912167	0.0332509	-0.4217433	0	0	-0.04777109	-0.04186741
4.928734	0.0332509	-0.4217433	0	0	0	0
4.9453	0.03311946	-0.4215821	-0.007934388	0.009729419	-0.2394741	0.2936513
4.961869	0.03311946	-0.4215821	0	0	0.2394603	-0.2936344
4.978436	0.03311946	-0.4215821	0	0	0	0
4.995	0.03075346	-0.4184543	-0.1428328	0.1888242	-4.311073	5.699217
5.011569	0.03075346	-0.4184543	0	0	4.310763	-5.698806
5.028135	0.03075346	-0.4184543	0	0	0	0
5.0447	0.009999666	-0.3994811	-1.252846	1.145353	-37.81531	34.5708
5.061361	0.009999666	-0.3994811	0	0	37.70623	-34.47108
5.077835	0.009999666	-0.3994811	0	0	0	0
5.0944	-0.03354005	-0.3597983	-2.628365	2.395535	-79.55318	72.50607
5.110968	-0.03354005	-0.3597983	0	0	79.32764	-72.30051
5.127534	-0.03354005	-0.3597983	0	0	0	0
5.1441	-0.0750692	-0.3016447	-2.506921	3.510461	-75.66555	105.9551
5.160666	-0.0750692	-0.3016447	0	0	75.66447	-105.9536
5.177234	-0.0750692	-0.3016447	0	0	0	0
5.193799	-0.08220904	-0.2145562	-0.4310112	5.257277	-13.0085	158.6718
5.210371	-0.08220904	-0.2145562	0	0	13.00701	-158.6535
5.226933	-0.08220904	-0.2145562	0	0	0	0
5.245354	-0.04688666	-0.1430701	1.917488	3.88065	54.81099	110.9276
5.261924	-0.04688666	-0.1430701	0	0	-54.79979	-110.9049
5.278491	-0.04688666	-0.1430701	0	0	0	0
5.295055	-0.001447367	-0.09643453	2.743116	2.815336	82.79456	84.97433
5.311796	-0.001447367	-0.09643453	0	0	-82.36308	-84.53149
5.3283	-0.001447367	-0.09643453	0	0	0	0
5.344755	0.01576185	-0.08405457	1.045855	0.7523668	31.73154	22.82704
5.361327	0.01576185	-0.08405457	0	0	-31.66695	-22.78057
5.377889	0.01576185	-0.08405457	0	0	0	0
5.394455	0.01591971	-0.08440307	0.009528723	-0.02103677	0.2876312	-0.6350097
5.411026	0.01591971	-0.08440307	0	0	-0.2875526	0.6348361
5.42759	0.01591971	-0.08440307	0	0	0	0
5.444901	0.01591971	-0.08451924	0	-0.006710693	0	-0.1981045
5.460724	0.01591971	-0.08451924	0	0	0	0.202532
5.477398	0.01591971	-0.08451924	0	0	0	0
5.493855	0.0158934	-0.08449987	-0.001598696	0.00117664	-0.0482529	0.03551413
5.510424	0.0158934	-0.08449987	0	0	0.04840826	-0.03562848
5.526989	0.0158934	-0.08449987	0	0	0	0
5.543555	0.01584078	-0.0845386	-0.003176386	-0.002337903	-0.09587318	-0.07056516
5.560331	0.01584078	-0.0845386	0	0	0.09526715	0.07011911
5.576843	0.01584078	-0.0845386	0	0	0	0
5.593255	0.01581447	-0.0848678	-0.001603155	-0.02005913	-0.04869374	-0.6092699
5.609858	0.01581447	-0.0848678	0	0	0.04855871	0.6075803
5.626389	0.01581447	-0.0848678	0	0	0	0
5.642955	0.01576185	-0.0848678	-0.003176203	0	-0.09596711	0
5.659524	0.01576185	-0.0848678	0	0	0.09585387	0
5.676408	0.01576185	-0.0848678	0	0	0	0
5.692655	0.01576185	-0.0848678	0	0	0	0
5.709435	0.01576185	-0.0848678	0	0	0	0
5.725789	0.01576185	-0.0848678	0	0	0	0
5.742487	0.01581447	-0.08490653	0.00315099	-0.00231921	0.09533302	-0.07016759
5.759509	0.01581447	-0.08490653	0	0	-0.09344567	0.06877845
5.775981	0.01581447	-0.08490653	0	0	0	0
5.792055	0.01728775	-0.08606873	0.0916606	-0.07230665	2.816336	-2.221673
5.808621	0.01728775	-0.08606873	0	0	-2.808231	2.215279
5.825494	0.01728775	-0.08606873	0	0	0	0
5.841754	0.01928708	-0.0876191	0.1229589	-0.09534824	3.711067	-2.87774
5.858323	0.01928708	-0.0876191	0	0	-3.745512	2.90445
5.874888	0.01928708	-0.0876191	0	0	0	0
5.891455	0.01926078	-0.08763848	-0.001587933	-0.001169784	-0.04792736	-0.03530668
5.908022	0.01926078	-0.08763848	0	0	0.04792529	0.03530516
5.924598	0.01926078	-0.08763848	0	0	0	0
5.941154	0.01923447	-0.08765787	-0.001588848	-0.001170908	-0.04795428	-0.03534009
5.957722	0.01923447	-0.08765787	0	0	0.04796671	0.03534925
5.974288	0.01923447	-0.08765787	0	0	0	0
5.991126	0.01923447	-0.08765787	0	0	0	0
6.007648	0.01923447	-0.08765787	0	0	0	0
6.024164	0.01923447	-0.08765787	0	0	0	0
6.040555	0.01923447	-0.08765787	0	0	0	0
6.057122	0.01923447	-0.08765787	0	0	0	0
6.073689	0.01923447	-0.08765787	0	0	0	0
6.090446	0.01920816	-0.08767726	-0.001569903	-0.001156946	-0.04711062	-0.03471835
6.106822	0.01920816	-0.08767726	0	0	0.04738114	0.03491771
6.12349	0.01920816	-0.08767726	0	0	0	0
6.139979	0.01920816	-0.08767726	0	0	0	0
6.157494	0.01920816	-0.08767726	0	0	0	0
6.173089	0.01920816	-0.08767726	0	0	0	0
6.189655	0.01920816	-0.08767726	0	0	0	0
6.206223	0.01920816	-0.08767726	0	0	0	0
6.222789	0.01920816	-0.08767726	0	0	0	0
6.239356	0.01918186	-0.08769664	-0.001587887	-0.0011702	-0.0479246	-0.03531822
6.256063	0.01918186	-0.08769664	0	0	0.04772063	0.0351679
6.272489	0.01918186	-0.08769664	0	0	0	0
6.289106	0.01918186	-0.08769664	0	0	0	0
6.305623	0.01918186	-0.08769664	0	0	0	0
6.322188	0.01918186	-0.08769664	0	0	0	0
6.338756	0.01918186	-0.08769664	0	0	0	0
6.355323	0.01918186	-0.08769664	0	0	0	0
6.372081	0.01918186	-0.08769664	0	0	0	0
6.388456	0.01920816	-0.08771603	0.001606475	-0.001183898	0.04848561	-0.03573167
6.4051	0.01920816	-0.08771603	0	0	-0.04865226	0.03585447
6.421613	0.01920816	-0.08771603	0	0	0	0
6.438156	0.01918186	-0.08773541	-0.001590222	-0.00117192	-0.04810791	-0.03545331
6.454723	0.01918186	-0.08773541	0	0	0.04802823	0.03539459
6.47129	0.01918186	-0.08773541	0	0	0	0
6.487856	0.01918186	-0.08773541	0	0	0	0
6.504423	0.01918186	-0.08773541	0	0	0	0
6.520989	0.01918186	-0.08773541	0	0	0	0
6.537555	0.01918186	-0.08773541	0	0	0	0
6.554123	0.01918186	-0.08773541	0	0	0	0
6.570689	0.01918186	-0.08773541	0	0	0	0
6.587255	0.01918186	-0.08773541	0	0	0	0
6.604246	0.01918186	-0.08773541	0	0	0	0
6.620389	0.01918186	-0.08773541	0	0	0	0
6.636955	0.01918186	-0.08773541	0	0	0	0
6.653522	0.01918186	-0.08773541	0	0	0	0
6.670089	0.01918186	-0.08773541	0	0	0	0
6.686655	0.01915555	-0.0877548	-0.001587933	-0.001170233	-0.04792598	-0.03531924
6.703222	0.01915555	-0.0877548	0	0	0.04792598	0.03531924
6.719789	0.01915555	-0.0877548	0	0	0	0
6.736842	0.01915555	-0.0877548	0	0	0	0
6.752922	0.01915555	-0.0877548	0	0	0	0
6.769489	0.01915555	-0.0877548	0	0	0	0
6.786055	0.01915555	-0.0877548	0	0	0	0
6.802622	0.01915555	-0.0877548	0	0	0	0
6.819189	0.01915555	-0.0877548	0	0	0	0
6.835755	0.01915555	-0.0877548	0	0	0	0
6.852669	0.01915555	-0.0877548	0	0	0	0
6.868888	0.01915555	-0.0877548	0	0	0	0
6.885455	0.01915555	-0.0877548	0	0	0	0
6.902021	0.01915555	-0.0877548	0	0	0	0
6.918588	0.01915555	-0.0877548	0	0	0	0
6.935222	0.01915555	-0.0877548	0	0	0	0
6.951721	0.01915555	-0.0877548	0	0	0	0
6.96872	0.01915555	-0.0877548	0	0	0	0
6.984855	0.01915555	-0.0877548	0	0	0	0
7.001421	0.01915555	-0.0877548	0	0	0	0
7.018285	0.01915555	-0.0877548	0	0	0	0
7.034554	0.01915555	-0.0877548	0	0	0	0
7.051277	0.01915555	-0.0877548	0	0	0	0
7.067799	0.01915555	-0.0877548	0	0	0	0
7.084307	0.01915555	-0.0877548	0	0	0	0
7.101315	0.01915555	-0.0877548	0	0	0	0
7.11739	0.01915555	-0.0877548	0	0	0	0
7.179915	0.01912924	-0.08777419	-0.0004207281	-0.0003100572	-0.005352779	-0.003944751
7.196912	0.01912924	-0.08777419	0	0	0.005290736	0.003899028
7.21305	0.01912924	-0.08777419	0	0	0	0
7.229617	0.01912924	-0.08777419	0	0	0	0
7.246183	0.01912924	-0.08777419	0	0	0	0
7.262749	0.01912924	-0.08777419	0	0	0	0
7.27949	0.01912924	-0.08777419	0	0	0	0
7.295992	0.01912924	-0.08777419	0	0	0	0
7.312449	0.01912924	-0.08777419	0	0	0	0
7.329016	0.01912924	-0.08777419	0	0	0	0
7.346025	0.01912924	-0.08777419	0	0	0	0
7.36215	0.01912924	-0.08777419	0	0	0	0
7.378716	0.01912924	-0.08777419	0	0	0	0
7.395283	0.01912924	-0.08777419	0	0	0	0
7.414508	0.01915555	-0.08779357	0.001368287	-0.001008364	0.03822848	-0.02817263
7.431076	0.01915555	-0.08779357	0	0	-0.03822797	0.02817225
7.447643	0.01915555	-0.08779357	0	0	0	0
7.464209	0.01915555	-0.08779357	0	0	0	0
7.480776	0.01915555	-0.08779357	0	0	0	0
7.497343	0.01915555	-0.08779357	0	0	0	0
7.513909	0.01915555	-0.08779357	0	0	0	0
7.530476	0.01915555	-0.08779357	0	0	0	0
7.547044	0.01915555	-0.08779357	0	0	0	0
7.563609	0.01915555	-0.08779357	0	0	0	0
7.580176	0.01915555	-0.08779357	0	0	0	0
7.596744	0.01915555	-0.08779357	0	0	0	0
7.613465	0.01915555	-0.08779357	0	0	0	0
7.629877	0.01915555	-0.08779357	0	0	0	0
7.646443	0.01915555	-0.08779357	0	0	0	0
7.663012	0.01915555	-0.08779357	0	0	0	0
7.680008	0.01915555	-0.08779357	0	0	0	0
7.696143	0.01915555	-0.08779357	0	0	0	0
7.712709	0.01915555	-0.08779357	0	0	0	0
7.729276	0.01915555	-0.08779357	0	0	0	0
7.745843	0.01915555	-0.08779357	0	0	0	0
7.76241	0.01912924	-0.08781296	-0.001587887	-0.0011702	-0.04792391	-0.03531772
7.779071	0.01912924	-0.08781296	0	0	0.04778706	0.03521686
7.795544	0.01912924	-0.08781296	0	0	0	0
7.812602	0.01912924	-0.08781296	0	0	0	0
7.828677	0.01912924	-0.08781296	0	0	0	0
7.845244	0.01912924	-0.08781296	0	0	0	0
7.862128	0.01912924	-0.08781296	0	0	0	0
7.878377	0.01912924	-0.08781296	0	0	0	0
7.894944	0.01912924	-0.08781296	0	0	0	0
7.91151	0.01912924	-0.08781296	0	0	0	0
7.928077	0.01912924	-0.08781296	0	0	0	0
7.948656	0.01912924	-0.08781296	0	0	0	0
7.961372	0.01912924	-0.08781296	0	0	0	0
7.977777	0.01912924	-0.08781296	0	0	0	0
7.994344	0.01912924	-0.08781296	0	0	0	0
8.011889	0.01912924	-0.08781296	0	0	0	0
8.027476	0.01912924	-0.08781296	0	0	0	0
8.044044	0.01912924	-0.08781296	0	0	0	0
8.060916	0.01912924	-0.08781296	0	0	0	0
8.077178	0.01912924	-0.08781296	0	0	0	0
8.093743	0.01912924	-0.08781296	0	0	0	0
8.110309	0.01912924	-0.08781296	0	0	0	0
8.126878	0.01912924	-0.08781296	0	0	0	0
8.143477	0.01912924	-0.08781296	0	0	0	0
8.160009	0.01912924	-0.08781296	0	0	0	0
8.177015	0.01912924	-0.08781296	0	0	0	0
8.193527	0.01912924	-0.08781296	0	0	0	0
8.209709	0.01912924	-0.08781296	0	0	0	0
8.226528	0.01912924	-0.08781296	0	0	0	0
8.242844	0.01912924	-0.08781296	0	0	0	0
8.25955	0.01912924	-0.08781296	0	0	0	0
8.275977	0.01912924	-0.08781296	0	0	0	0
8.292542	0.01912924	-0.08781296	0	0	0	0
8.309109	0.01912924	-0.08781296	0	0	0	0
8.325675	0.01912924	-0.08781296	0	0	0	0
8.342241	0.01912924	-0.08781296	0	0	0	0
8.358808	0.01912924	-0.08781296	0	0	0	0
8.375375	0.01912924	-0.08781296	0	0	0	0
8.392643	0.01912924	-0.08781296	0	0	0	0
8.408507	0.01912924	-0.08781296	0	0	0	0
8.425075	0.01912924	-0.08781296	0	0	0	0
8.441677	0.01912924	-0.08781296	0	0	0	0
8.458207	0.01912924	-0.08781296	0	0	0	0
8.474776	0.01912924	-0.08781296	0	0	0	0
8.495095	0.01912924	-0.08781296	0	0	0	0
8.507907	0.01912924	-0.08781296	0	0	0	0
8.524718	0.01912924	-0.08781296	0	0	0	0
8.541227	0.01912924	-0.08781296	0	0	0	0
8.558258	0.01912924	-0.08781296	0	0	0	0
8.574265	0.01912924	-0.08781296	0	0	0	0
8.59074	0.01912924	-0.08781296	0	0	0	0
8.607306	0.01910294	-0.08783235	-0.001587933	-0.001170233	-0.04805809	-0.0354166
8.623874	0.01910294	-0.08783235	0	0	0.04792529	0.03531873
8.640443	0.01910294	-0.08783235	0	0	0	0
8.657006	0.01910294	-0.08783235	0	0	0	0
8.673573	0.01910294	-0.08783235	0	0	0	0
8.69035	0.01910294	-0.08783235	0	0	0	0
8.706706	0.01910294	-0.08783235	0	0	0	0
8.723355	0.01910294	-0.08783235	0	0	0	0
8.739871	0.01910294	-0.08783235	0	0	0	0
8.756406	0.01910294	-0.08783235	0	0	0	0
8.772972	0.01910294	-0.08783235	0	0	0	0
8.789538	0.01910294	-0.08783235	0	0	0	0
8.806433	0.01910294	-0.08783235	0	0	0	0
8.822942	0.01910294	-0.08783235	0	0	0	0
8.839239	0.01910294	-0.08783235	0	0	0	0
8.855805	0.01910294	-0.08783235	0	0	0	0
8.872478	0.01910294	-0.08783235	0	0	0	0
8.888982	0.01910294	-0.08783235	0	0	0	0
8.905505	0.01910294	-0.08783235	0	0	0	0
8.922517	0.01910294	-0.08783235	0	0	0	0
8.939005	0.01910294	-0.08783235	0	0	0	0
8.955205	0.01910294	-0.08783235	0	0	0	0
8.972037	0.01910294	-0.08783235	0	0	0	0
8.988545	0.01910294	-0.08783235	0	0	0	0
9.005063	0.01910294	-0.08783235	0	0	0	0
9.021472	0.01910294	-0.08783235	0	0	0	0
9.03804	0.01910294	-0.08783235	0	0	0	0
9.054763	0.01910294	-0.08783235	0	0	0	0
9.071279	0.01910294	-0.08783235	0	0	0	0
9.087738	0.01910294	-0.08783235	0	0	0	0
9.104306	0.01910294	-0.08783235	0	0	0	0
9.120872	0.01910294	-0.08783235	0	0	0	0
9.137439	0.01910294	-0.08783235	0	0	0	0
9.154005	0.01910294	-0.08783235	0	0	0	0
9.170571	0.01910294	-0.08783235	0	0	0	0
9.187139	0.01910294	-0.08783235	0	0	0	0
9.203904	0.01910294	-0.08783235	0	0	0	0
9.220274	0.01910294	-0.08783235	0	0	0	0
9.23684	0.01910294	-0.08783235	0	0	0	0
9.253405	0.01910294	-0.08783235	0	0	0	0
9.269971	0.01910294	-0.08783235	0	0	0	0
9.286538	0.01910294	-0.08783235	0	0	0	0
9.303104	0.01910294	-0.08783235	0	0	0	0
9.319672	0.01910294	-0.08783235	0	0	0	0
9.336238	0.01910294	-0.08783235	0	0	0	0
9.3529	0.01910294	-0.08783235	0	0	0	0
9.369399	0.01910294	-0.08783235	0	0	0	0
9.385939	0.01910294	-0.08783235	0	0	0	0
9.402505	0.01910294	-0.08783235	0	0	0	0
9.419922	0.01910294	-0.08783235	0	0	0	0
9.435935	0.01910294	-0.08783235	0	0	0	0
9.452204	0.01912924	-0.08785173	0.001616975	-0.001191636	0.05008927	-0.03691348
9.468989	0.01912924	-0.08785173	0	0	-0.04891868	0.03605082
9.485338	0.01912924	-0.08785173	0	0	0	0
9.501994	0.01868204	-0.08864672	-0.02684979	-0.04772983	-0.8135127	-1.44615
9.518516	0.01868204	-0.08864672	0	0	0.8092802	1.438626
9.535039	0.01868204	-0.08864672	0	0	0	0
9.551603	0.0001842105	-0.1395062	-1.116724	-3.070416	-33.75039	-92.79621
9.568171	0.0001842105	-0.1395062	0	0	33.7057	92.67334
9.584737	0.0001842105	-0.1395062	0	0	0	0
9.601303	-0.0273353	-0.2483438	-1.661176	-6.569826	-50.13729	-198.2892
9.61787	-0.0273353	-0.2483438	0	0	50.13585	198.2834
9.641994	-0.0273353	-0.2483438	0	0	0	0
9.656992	-0.04339379	-0.3351698	-1.070678	-5.789006	-27.36794	-147.9746
9.673559	-0.04339379	-0.3351698	0	0	33.91908	183.3957
9.690125	-0.04339379	-0.3351698	0	0	0	0
9.706693	-0.03527484	-0.372731	0.4900612	-2.267197	14.7905	-68.42612
9.723261	-0.03527484	-0.372731	0	0	-14.78965	68.42217
9.740302	-0.03527484	-0.372731	0	0	0	0
9.756392	-0.001105263	-0.4166862	2.123727	-2.731931	64.10159	-82.45934
9.77296	-0.001105263	-0.4166862	0	0	-65.03005	83.6537
9.789526	-0.001105263	-0.4166862	0	0	0	0
9.806091	0.02712492	-0.4415154	1.704174	-1.498861	51.4365	-45.23963
9.82286	0.02712492	-0.4415154	0	0	-51.12453	44.96524
9.839227	0.02712492	-0.4415154	0	0	0	0
9.855791	0.02754566	-0.4418888	0.02540018	-0.02254376	0.7713076	-0.6845687
9.872358	0.02754566	-0.4418888	0	0	-0.7666452	0.6804307
9.889091	0.02754566	-0.4418888	0	0	0	0
9.905603	0.02751937	-0.4418654	-0.001592484	0.001413235	-0.04790133	0.04250959
9.922542	0.02751937	-0.4418654	0	0	0.04760771	-0.04224902
9.93887	0.02751937	-0.4418654	0	0	0	0
9.955192	0.02749307	-0.4418421	-0.001611208	0.00142975	-0.04934789	0.04379022
9.971758	0.02749307	-0.4418421	0	0	0.04899157	-0.04347403
9.988324	0.02749307	-0.4418421	0	0	0	0
10.00489	0.02746678	-0.4418188	-0.001587258	0.001408598	-0.04790631	0.04251401
10.02146	0.02746678	-0.4418188	0	0	0.04790631	-0.04251401
10.03802	0.02746678	-0.4418188	0	0	0	0
10.05496	0.02746678	-0.4418188	0	0	0	0
10.07147	0.02746678	-0.4418188	0	0	0	0
10.08772	0.02746678	-0.4418188	0	0	0	0
10.10451	0.02741418	-0.4417721	-0.003133968	0.00278279	-0.09485637	0.08422718
10.12086	0.02741418	-0.4417721	0	0	0.09458335	-0.08398476
10.13742	0.02741418	-0.4417721	0	0	0	0
10.15402	0.02741418	-0.4417254	0	0.002811692	0	0.08477895
10.17056	0.02741418	-0.4417254	0	0	0	-0.08486192
10.18712	0.02741418	-0.4417254	0	0	0	0
10.20923	0.02741418	-0.4417254	0	0	0	0
10.2258	0.02741418	-0.4417254	0	0	0	0
10.24291	0.02741418	-0.4417254	0	0	0	0
10.25894	0.02741418	-0.4417254	0	0	0	0
10.2755	0.02741418	-0.4417254	0	0	0	0
10.29207	0.02738789	-0.4417021	-0.00158735	0.001408679	-0.04791321	0.04252013
10.30864	0.02738789	-0.4417021	0	0	0.04790631	-0.04251401
10.32547	0.02738789	-0.4417021	0	0	0	0
10.34197	0.02736159	-0.4416787	-0.001593333	0.001413888	-0.04779388	0.04241123
10.3585	0.02736159	-0.4416787	0	0	0.04823821	-0.04280552
10.37503	0.02736159	-0.4416787	0	0	0	0
10.39147	0.027309	-0.4416321	-0.003200051	0.002839755	-0.09706946	0.08614033
10.40803	0.027309	-0.4416321	0	0	0.09696847	-0.08605072
10.4246	0.027309	-0.4416321	0	0	0	0
10.44116	0.0272827	-0.4416087	-0.001587371	0.001408598	-0.04790971	0.04251401
10.46133	0.0272827	-0.4416087	0	0	0.04321975	-0.03835225
10.4743	0.0272827	-0.4416087	0	0	0	0
10.4911	0.02657269	-0.4409321	-0.04225552	0.0402708	-1.419132	1.352476
10.50743	0.02657269	-0.4409321	0	0	1.275311	-1.21541
10.52411	0.02657269	-0.4409321	0	0	0	0
10.54057	0.01563031	-0.4307041	-0.6649622	0.6215481	-20.06975	18.75944
10.55714	0.01563031	-0.4307041	0	0	20.12943	-18.81522
10.5737	0.01563031	-0.4307041	0	0	0	0
10.59027	-0.01181524	-0.4051871	-1.656712	1.540297	-50.01982	46.505
10.60683	-0.01181524	-0.4051871	0	0	50.00254	-46.48893
10.62368	-0.01181524	-0.4051871	0	0	0	0
10.63997	-0.04546864	-0.3759915	-2.066172	1.792481	-62.35899	54.09874
10.65653	-0.04546864	-0.3759915	0	0	62.88935	-54.55885
10.6731	-0.04546864	-0.3759915	0	0	0	0
10.68973	-0.09043685	-0.3361734	-2.703858	2.394194	-81.44788	72.11991
10.70625	-0.09043685	-0.3361734	0	0	81.56738	-72.22572
10.7228	-0.09043685	-0.3361734	0	0	0	0
10.74157	-0.1239922	-0.2615975	-1.787511	3.972692	-50.60453	112.4671
10.75814	-0.1239922	-0.2615975	0	0	50.58131	-112.4155
10.7747	-0.1239922	-0.2615975	0	0	0	0
10.79195	-0.1044084	-0.2020524	1.135352	3.452068	33.57407	102.0828
10.80797	-0.1044084	-0.2020524	0	0	-34.13041	-103.7744
10.82448	-0.1044084	-0.2020524	0	0	0	0
10.84099	-0.06634983	-0.1537541	2.305182	2.925397	69.81771	88.60232
10.85754	-0.06634983	-0.1537541	0	0	-69.72306	-88.48219
10.8741	-0.06634983	-0.1537541	0	0	0	0
10.89067	-0.04118722	-0.1253617	1.518906	1.713868	45.84463	51.72909
10.90753	-0.04118722	-0.1253617	0	0	-45.43657	-51.26866
10.92407	-0.04118722	-0.1253617	0	0	0	0
10.94037	-0.02049713	-0.1094201	1.269389	0.9780554	38.65851	29.78611
10.95707	-0.02049713	-0.1094201	0	0	-38.46857	-29.63976
10.97359	-0.02049713	-0.1094201	0	0	0	0
10.99007	-0.009683908	-0.1014378	0.6561623	0.4843782	19.88313	14.6777
11.0071	-0.009683908	-0.1014378	0	0	-19.58264	-14.45588
11.0232	-0.009683908	-0.1014378	0	0	0	0
11.0401	-0.009447088	-0.1016132	0.01401457	-0.01037904	0.424635	-0.3144802
11.05663	-0.009447088	-0.1016132	0	0	-0.4192202	0.31047
11.07313	-0.009447088	-0.1016132	0	0	0	0
11.08947	-0.008578737	-0.1022954	0.05315729	-0.04175986	1.618827	-1.271735
11.10617	-0.008578737	-0.1022954	0	0	-1.608875	1.263917
11.1226	-0.008578737	-0.1022954	0	0	0	0
11.13917	-0.007947201	-0.1028412	0.03811742	-0.03294669	1.155174	-0.9984713
11.15574	-0.007947201	-0.1028412	0	0	-1.150452	0.9943902
11.1723	-0.007947201	-0.1028412	0	0	0	0
11.18887	-0.00410524	-0.1056894	0.2319279	-0.1719339	7.000001	-5.189275
11.20573	-0.00410524	-0.1056894	0	0	-6.937302	5.142794
11.222	-0.00410524	-0.1056894	0	0	0	0
11.23857	-0.004078925	-0.1056699	0.001588495	0.001178329	0.04838091	0.03588844
11.25513	-0.004078925	-0.1056699	0	0	-0.04794364	-0.03556408
11.27178	-0.004078925	-0.1056699	0	0	0	0
11.29068	-0.003210515	-0.106236	0.04594547	-0.02995074	1.292587	-0.8426065
11.30725	-0.003210515	-0.106236	0	0	-1.295403	0.8444417
11.32381	-0.003210515	-0.106236	0	0	0	0
11.34076	0.009499714	-0.1156828	0.7501345	-0.5575347	22.38462	-16.63728
11.35727	0.009499714	-0.1156828	0	0	-22.42099	16.66431
11.37379	0.009499714	-0.1156828	0	0	0	0
11.39008	0.02515259	-0.1273689	0.9609619	-0.7174349	29.28935	-21.86684
11.40681	0.02515259	-0.1273689	0	0	-29.10745	21.73104
11.42334	0.02515259	-0.1273689	0	0	0	0
11.43978	0.02557337	-0.1276839	0.02558851	-0.01915632	0.7759926	-0.5809313
11.45685	0.02557337	-0.1276839	0	0	-0.7636251	0.5716726
11.47291	0.02557337	-0.1276839	0	0	0	0
11.48948	0.02554707	-0.1277036	-0.001587483	-0.001188223	-0.04864255	-0.0364087
11.5064	0.02554707	-0.1277036	0	0	0.04740415	0.03548177
11.52293	0.02554707	-0.1277036	0	0	0	0
11.53918	0.02554707	-0.1277036	0	0	0	0
11.55575	0.02554707	-0.1277036	0	0	0	0
11.57231	0.02554707	-0.1277036	0	0	0	0
11.58888	0.02552077	-0.1276839	-0.001587483	0.001188223	-0.0479131	0.03586271
11.60545	0.02552077	-0.1276839	0	0	0.04791172	-0.03586168
11.62201	0.02552077	-0.1276839	0	0	0	0
11.63858	0.02549447	-0.1277036	-0.001587483	-0.001188223	-0.04791172	-0.03586168
11.65515	0.02549447	-0.1277036	0	0	0.04791172	0.03586168
11.67171	0.02549447	-0.1277036	0	0	0	0
11.68828	0.02544188	-0.127743	-0.003174966	-0.002377346	-0.09582619	-0.07175257
11.70485	0.02544188	-0.127743	0	0	0.09582619	0.07175257
11.72141	0.02544188	-0.127743	0	0	0	0
11.73798	0.02536298	-0.1277627	-0.00476245	-0.001189123	-0.1437352	-0.03588882
11.75457	0.02536298	-0.1277627	0	0	0.1436277	0.03586199
11.77112	0.02536298	-0.1277627	0	0	0	0
11.78768	0.02531038	-0.1278021	-0.003174966	-0.002376446	-0.0958952	-0.07177707
11.80425	0.02531038	-0.1278021	0	0	0.09582619	0.07172542
11.82671	0.02531038	-0.1278021	0	0	0	0
11.83854	0.02531038	-0.1278021	0	0	0	0
11.85516	0.02531038	-0.1278021	0	0	0	0
11.87169	0.02531038	-0.1278021	0	0	0	0
11.88824	0.02531038	-0.1278021	0	0	0	0
11.90521	0.02531038	-0.1278021	0	0	0	0
11.92137	0.02531038	-0.1278021	0	0	0	0
11.93794	0.02531038	-0.1278021	0	0	0	0
11.95475	0.02531038	-0.1278021	0	0	0	0
11.97107	0.02531038	-0.1278021	0	0	0	0
11.98777	0.02531038	-0.1278021	0	0	0	0
12.00428	0.02531038	-0.1278021	0	0	0	0
12.0208	0.02531038	-0.1278021	0	0	0	0
12.03734	0.02531038	-0.1278021	0	0	0	0
12.05432	0.02531038	-0.1278021	0	0	0	0
12.07047	0.02531038	-0.1278021	0	0	0	0
12.08704	0.02531038	-0.1278021	0	0	0	0
12.1036	0.02531038	-0.1278021	0	0	0	0
12.12017	0.02531038	-0.1278021	0	0	0	0
12.13674	0.02531038	-0.1278021	0	0	0	0
12.15331	0.02531038	-0.1278021	0	0	0	0
12.16987	0.02531038	-0.1278021	0	0	0	0
12.18644	0.02528408	-0.1278218	-0.001587596	-0.001189123	-0.04791649	-0.03588986
12.20314	0.02528408	-0.1278218	0	0	0.0477146	0.03573864
12.21957	0.02528408	-0.1278218	0	0	0	0
12.23619	0.02528408	-0.1278218	0	0	0	0
12.2527	0.02528408	-0.1278218	0	0	0	0
12.26927	0.02528408	-0.1278218	0	0	0	0
12.28584	0.02528408	-0.1278218	0	0	0	0
12.3024	0.02528408	-0.1278218	0	0	0	0
12.31897	0.02528408	-0.1278218	0	0	0	0
12.33554	0.02528408	-0.1278218	0	0	0	0
12.3521	0.02528408	-0.1278218	0	0	0	0
12.3688	0.02528408	-0.1278218	0	0	0	0
12.38532	0.02528408	-0.1278218	0	0	0	0
12.4018	0.02528408	-0.1278218	0	0	0	0
12.41837	0.02528408	-0.1278218	0	0	0	0
12.43494	0.02525778	-0.1278414	-0.001587483	-0.001188223	-0.0479131	-0.03586271
12.4515	0.02525778	-0.1278414	0	0	0.0479131	0.03586271
12.46807	0.02525778	-0.1278414	0	0	0	0
12.48488	0.02525778	-0.1278414	0	0	0	0
12.5014	0.02525778	-0.1278414	0	0	0	0
12.51777	0.02525778	-0.1278414	0	0	0	0
12.53434	0.02525778	-0.1278414	0	0	0	0
12.5509	0.02525778	-0.1278414	0	0	0	0
12.56747	0.02525778	-0.1278414	0	0	0	0
12.64058	0.02525778	-0.1278414	0	0	0	0
12.65715	0.02525778	-0.1278414	0	0	0	0
12.67371	0.02525778	-0.1278414	0	0	0	0
12.69053	0.02525778	-0.1278414	0	0	0	0
12.70703	0.02525778	-0.1278414	0	0	0	0
12.72341	0.02525778	-0.1278414	0	0	0	0
12.73998	0.02525778	-0.1278414	0	0	0	0
12.75657	0.02525778	-0.1278414	0	0	0	0
12.77311	0.02525778	-0.1278414	0	0	0	0
12.78968	0.02525778	-0.1278414	0	0	0	0
12.80624	0.02525778	-0.1278414	0	0	0	0
12.82312	0.02525778	-0.1278414	0	0	0	0
12.83938	0.02525778	-0.1278414	0	0	0	0
12.85595	0.02525778	-0.1278414	0	0	0	0
12.87251	0.02525778	-0.1278414	0	0	0	0
12.88917	0.02525778	-0.1278414	0	0	0	0
12.90567	0.02525778	-0.1278414	0	0	0	0
12.92724	0.02525778	-0.1278414	0	0	0	0
12.93878	0.02525778	-0.1278414	0	0	0	0
12.95534	0.02525778	-0.1278414	0	0	0	0
12.97191	0.02525778	-0.1278414	0	0	0	0
12.98864	0.02525778	-0.1278414	0	0	0	0
13.00504	0.02525778	-0.1278414	0	0	0	0
13.02161	0.02525778	-0.1278414	0	0	0	0
13.03818	0.02525778	-0.1278414	0	0	0	0
13.05474	0.02525778	-0.1278414	0	0	0	0
13.07169	0.02525778	-0.1278414	0	0	0	0
13.08788	0.02525778	-0.1278414	0	0	0	0
13.1047	0.02525778	-0.1278414	0	0	0	0
13.12101	0.02525778	-0.1278414	0	0	0	0
13.13774	0.02525778	-0.1278414	0	0	0	0
13.15426	0.02525778	-0.1278414	0	0	0	0
13.17071	0.02525778	-0.1278414	0	0	0	0
13.18728	0.02525778	-0.1278414	0	0	0	0
13.20384	0.02525778	-0.1278414	0	0	0	0
13.22041	0.02525778	-0.1278414	0	0	0	0
13.2374	0.02525778	-0.1278414	0	0	0	0
13.25354	0.02525778	-0.1278414	0	0	0	0
13.27011	0.02525778	-0.1278414	0	0	0	0
13.28668	0.02525778	-0.1278414	0	0	0	0
13.30324	0.02523149	-0.1278611	-0.001587483	-0.001188223	-0.0479131	-0.03586271
13.31981	0.02523149	-0.1278611	0	0	0.04791172	0.03586168
13.33698	0.02523149	-0.1278611	0	0	0	0
13.35294	0.02523149	-0.1278611	0	0	0	0
13.36951	0.02523149	-0.1278611	0	0	0	0
13.38608	0.02523149	-0.1278611	0	0	0	0
13.40302	0.02523149	-0.1278611	0	0	0	0
13.41954	0.02523149	-0.1278611	0	0	0	0
13.43605	0.02523149	-0.1278611	0	0	0	0
13.45234	0.02523149	-0.1278611	0	0	0	0
13.46907	0.02523149	-0.1278611	0	0	0	0
13.48548	0.02523149	-0.1278611	0	0	0	0
13.50641	0.02523149	-0.1278611	0	0	0	0
13.52298	0.02523149	-0.1278611	0	0	0	0
13.53955	0.02523149	-0.1278611	0	0	0	0
13.55613	0.02523149	-0.1278611	0	0	0	0
13.57268	0.02523149	-0.1278611	0	0	0	0
13.58924	0.02523149	-0.1278611	0	0	0	0
13.60581	0.02523149	-0.1278611	0	0	0	0
13.62238	0.02523149	-0.1278611	0	0	0	0
13.63894	0.02523149	-0.1278611	0	0	0	0
13.65575	0.02523149	-0.1278611	0	0	0	0
13.67273	0.02523149	-0.1278611	0	0	0	0
13.68865	0.02523149	-0.1278611	0	0	0	0
13.70522	0.02523149	-0.1278611	0	0	0	0
13.72178	0.02523149	-0.1278611	0	0	0	0
13.73835	0.02523149	-0.1278611	0	0	0	0
13.75491	0.02523149	-0.1278611	0	0	0	0
13.7718	0.02523149	-0.1278611	0	0	0	0
13.78828	0.02520519	-0.1278808	-0.001595659	-0.001195246	-0.0478185	-0.035819
13.80461	0.02520519	-0.1278808	0	0	0.04863016	0.03642698
13.82133	0.02520519	-0.1278808	0	0	0	0
13.83774	0.02520519	-0.1278808	0	0	0	0
13.85431	0.02520519	-0.1278808	0	0	0	0
13.87088	0.02520519	-0.1278808	0	0	0	0
13.88744	0.02520519	-0.1278808	0	0	0	0
13.90401	0.02520519	-0.1278808	0	0	0	0
13.92058	0.02520519	-0.1278808	0	0	0	0
13.9374	0.02520519	-0.1278808	0	0	0	0
13.95371	0.02520519	-0.1278808	0	0	0	0
13.97042	0.02520519	-0.1278808	0	0	0	0
13.98685	0.02520519	-0.1278808	0	0	0	0
14.00341	0.02520519	-0.1278808	0	0	0	0
14.01998	0.02520519	-0.1278808	0	0	0	0
14.03654	0.02517889	-0.1279005	-0.001587483	-0.001188223	-0.04791172	-0.03586168
14.05311	0.02517889	-0.1279005	0	0	0.0479131	0.03586271
14.06968	0.02517889	-0.1279005	0	0	0	0
14.08624	0.02517889	-0.1279005	0	0	0	0
14.10281	0.02517889	-0.1279005	0	0	0	0
14.11963	0.02517889	-0.1279005	0	0	0	0
14.13613	0.02517889	-0.1279005	0	0	0	0
14.15251	0.02517889	-0.1279005	0	0	0	0
14.16916	0.02517889	-0.1279005	0	0	0	0
14.18564	0.02517889	-0.1279005	0	0	0	0
14.20221	0.02517889	-0.1279005	0	0	0	0
14.21878	0.02517889	-0.1279005	0	0	0	0
14.23535	0.02515259	-0.1279202	-0.001587139	-0.001188781	-0.04789581	-0.03587437
14.25191	0.02515259	-0.1279202	0	0	0.04790132	0.0358785
14.26848	0.02515259	-0.1279202	0	0	0	0
14.28504	0.02515259	-0.1279202	0	0	0	0
14.30161	0.02515259	-0.1279202	0	0	0	0
14.31818	0.02515259	-0.1279202	0	0	0	0
14.33498	0.02515259	-0.1279202	0	0	0	0
14.35131	0.02515259	-0.1279202	0	0	0	0
14.36801	0.02515259	-0.1279202	0	0	0	0
14.38451	0.02515259	-0.1279202	0	0	0	0
14.40101	0.02515259	-0.1279202	0	0	0	0
14.41758	0.02515259	-0.1279202	0	0	0	0
14.43414	0.02515259	-0.1279202	0	0	0	0
14.45106	0.02515259	-0.1279202	0	0	0	0
14.46758	0.02515259	-0.1279202	0	0	0	0
14.48408	0.02515259	-0.1279202	0	0	0	0
14.50041	0.02515259	-0.1279202	0	0	0	0
14.51698	0.02515259	-0.1279202	0	0	0	0
14.53354	0.02515259	-0.1279202	0	0	0	0
14.55013	0.02515259	-0.1279202	0	0	0	0
14.56668	0.02515259	-0.1279202	0	0	0	0
14.58324	0.02515259	-0.1279202	0	0	0	0
14.60069	0.02515259	-0.1279202	0	0	0	0
14.61726	0.02515259	-0.1279202	0	0	0	0
14.63383	0.02515259	-0.1279202	0	0	0	0
14.6504	0.02515259	-0.1279202	0	0	0	0
14.66696	0.02515259	-0.1279202	0	0	0	0
14.68353	0.02515259	-0.1279202	0	0	0	0
14.70022	0.02515259	-0.1279202	0	0	0	0
14.71666	0.02515259	-0.1279202	0	0	0	0
14.73327	0.02515259	-0.1279202	0	0	0	0
14.74979	0.02515259	-0.1279202	0	0	0	0
14.76636	0.02515259	-0.1279202	0	0	0	0
14.7833	0.02515259	-0.1279202	0	0	0	0
14.7995	0.02515259	-0.1279202	0	0	0	0
14.81633	0.02515259	-0.1279202	0	0	0	0
14.83335	0.02515259	-0.1279202	0	0	0	0
14.84935	0.02515259	-0.1279202	0	0	0	0
14.87024	0.02515259	-0.1279202	0	0	0	0
14.88237	0.02515259	-0.1279202	0	0	0	0
14.89889	0.02515259	-0.1279202	0	0	0	0
14.91546	0.02515259	-0.1279202	0	0	0	0
14.93203	0.02512629	-0.1279399	-0.001587575	-0.001188292	-0.04791586	-0.03586477
14.94859	0.02512629	-0.1279399	0	0	0.04791586	0.03586477
14.96516	0.02512629	-0.1279399	0	0	0	0
14.98173	0.02512629	-0.1279399	0	0	0	0
14.99829	0.02512629	-0.1279399	0	0	0	0
15.01486	0.02512629	-0.1279399	0	0	0	0
15.03146	0.02512629	-0.1279399	0	0	0	0
15.04799	0.02512629	-0.1279399	0	0	0	0
15.06456	0.02512629	-0.1279399	0	0	0	0
15.08113	0.02512629	-0.1279399	0	0	0	0
15.09802	0.02512629	-0.1279399	0	0	0	0
15.11452	0.02512629	-0.1279399	0	0	0	0
15.13083	0.02512629	-0.1279399	0	0	0	0
15.14739	0.02512629	-0.1279399	0	0	0	0
15.16396	0.02512629	-0.1279399	0	0	0	0
15.18053	0.0241532	-0.1270933	-0.05873935	0.05110259	-1.772808	1.542324
15.19709	0.0241532	-0.1270933	0	0	1.772808	-1.542324
15.21366	0.0241532	-0.1270933	0	0	0	0
15.23023	0.02396909	-0.1255781	-0.01111317	0.0914653	-0.3354154	2.760587
15.24679	0.02396909	-0.1255781	0	0	0.3354154	-2.760587
15.26363	0.02396909	-0.1255781	0	0	0	0
15.28015	0.05263555	-0.1004637	1.734905	1.519933	52.00627	45.56219
15.29665	0.05263555	-0.1004637	0	0	-52.54706	-46.03597
15.31306	0.05263555	-0.1004637	0	0	0	0
15.32966	0.09114153	-0.04697674	2.319286	3.221616	70.24487	97.57401
15.34619	0.09114153	-0.04697674	0	0	-69.9982	-97.23137
15.36276	0.09114153	-0.04697674	0	0	0	0
15.37933	0.1014401	0.007625014	0.6216584	3.295958	18.76277	99.47794
15.39623	0.1014401	0.007625014	0	0	-18.57351	-98.47454
15.41769	0.1014401	0.007625014	0	0	0	0
15.43096	0.09513301	0.05237765	-0.4752068	3.371886	-13.68253	97.08604
15.44753	0.09513301	0.05237765	0	0	15.92491	-112.9971
15.4641	0.09513301	0.05237765	0	0	0	0
15.48066	0.08469167	0.08095486	-0.6302773	1.725023	-19.0229	52.06429
15.49723	0.08469167	0.08095486	0	0	19.02235	-52.06279
15.514	0.08469167	0.08095486	0	0	0	0
15.53049	0.08197378	0.1099653	-0.164763	1.758665	-4.953312	52.87118
15.54693	0.08197378	0.1099653	0	0	5.002941	-53.40091
15.5635	0.08197378	0.1099653	0	0	0	0
15.58006	0.07779007	0.1398929	-0.2526019	1.806955	-7.623761	54.53557
15.59663	0.07779007	0.1398929	0	0	7.624639	-54.54185
15.61355	0.07779007	0.1398929	0	0	0	0
15.62976	0.06564239	0.1750137	-0.74906	2.16565	-22.60798	65.3632
15.64656	0.06564239	0.1750137	0	0	22.68765	-65.59354
15.66356	0.06564239	0.1750137	0	0	0	0
15.67957	0.05995438	0.1851178	-0.355294	0.6311385	-10.76369	19.12044
15.69603	0.05995438	0.1851178	0	0	10.94263	-19.43831
15.7126	0.05995438	0.1851178	0	0	0	0
15.72916	0.05995438	0.1850817	0	-0.002180358	0	-0.06580713
15.74573	0.05995438	0.1850817	0	0	0	0.06580523
15.7623	0.05995438	0.1850817	0	0	0	0
15.77886	0.05992816	0.1852082	-0.001582648	0.007632153	-0.04776718	0.2303521
15.79543	0.05992816	0.1852082	0	0	0.04776443	-0.2303388
15.812	0.05992816	0.1852082	0	0	0	0
15.82869	0.06068854	0.1858403	0.04555856	0.03787373	1.369913	1.138836
15.84521	0.06068854	0.1858403	0	0	-1.371683	-1.140307
15.86172	0.06068854	0.1858403	0	0	0	0
15.87826	0.06178967	0.1869238	0.06657518	0.06551094	2.01417	1.981973
15.89574	0.06178967	0.1869238	0	0	-1.957412	-1.926122
15.9114	0.06178967	0.1869238	0	0	0	0
15.92796	0.07849628	0.2014272	1.008529	0.8755298	31.29497	27.16796
15.94453	0.07849628	0.2014272	0	0	-30.43922	-26.42506
15.96408	0.07849628	0.2014272	0	0	0	0
15.97766	0.07488602	0.2272654	-0.2657517	1.901949	-8.020864	57.40424
15.99423	0.07488602	0.2272654	0	0	8.813082	-63.07405
16.01084	0.07488602	0.2272654	0	0	0	0
16.02736	0.08045752	0.2416101	0.3372281	0.8682491	10.17844	26.20607
16.04393	0.08045752	0.2416101	0	0	-10.19165	-26.24006
16.0605	0.08045752	0.2416101	0	0	0	0
16.07706	0.09108934	0.2565807	0.641812	0.9037268	19.37104	27.2761
16.09388	0.09108934	0.2565807	0	0	-19.22385	-27.06885
16.1102	0.09108934	0.2565807	0	0	0	0
16.1269	0.1117171	0.2705847	1.234859	0.8383353	37.4016	25.39163
16.14333	0.1117171	0.2705847	0	0	-37.26812	-25.30101
16.1599	0.1117171	0.2705847	0	0	0	0
16.17646	0.1276184	0.2808375	0.9599161	0.6189317	28.97199	18.68047
16.19303	0.1276184	0.2808375	0	0	-28.97199	-18.68047
16.20959	0.1276184	0.2808375	0	0	0	0
16.22616	0.1412891	0.2891891	0.8251632	0.504105	24.90491	15.2148
16.24298	0.1412891	0.2891891	0	0	-24.71709	-15.10005
16.25929	0.1412891	0.2891891	0	0	0	0
16.27616	0.1420628	0.2892606	0.04587922	0.004241122	1.382727	0.1278207
16.29243	0.1420628	0.2892606	0	0	-1.384717	-0.1280047
16.30899	0.1420628	0.2892606	0	0	0	0
16.32556	0.1420886	0.2892785	0.001556203	0.001079447	0.04696901	0.03257966
16.34213	0.1420886	0.2892785	0	0	-0.04696901	-0.03257966
16.35874	0.1420886	0.2892785	0	0	0	0
16.37526	0.142037	0.2892785	-0.003121573	0	-0.09420925	0
16.39183	0.142037	0.2892785	0	0	0.09433959	0
16.40839	0.142037	0.2892785	0	0	0	0
16.42496	0.1418565	0.2894036	-0.01089667	0.007553462	-0.328881	0.2279771
16.44153	0.1418565	0.2894036	0	0	0.328862	-0.227964
16.45832	0.1418565	0.2894036	0	0	0	0
16.47466	0.1414439	0.2890818	-0.02525112	-0.01969356	-0.7621241	-0.5943869
16.49123	0.1414439	0.2890818	0	0	0.7672476	0.5983828
16.5078	0.1414439	0.2890818	0	0	0	0
16.52436	0.1304394	0.2816066	-0.6643864	-0.4513059	-20.05353	-13.62201
16.54093	0.1304394	0.2816066	0	0	20.05238	13.62122
16.5575	0.1304394	0.2816066	0	0	0	0
16.57413	0.08372487	0.2605577	-2.809342	-1.265853	-84.63021	-38.13326
16.59063	0.08372487	0.2605577	0	0	84.79099	38.2057
16.6072	0.08372487	0.2605577	0	0	0	0
16.62376	0.01202574	0.2695107	-4.329264	0.5405912	-130.665	16.31601
16.64066	0.01202574	0.2695107	0	0	129.3765	-16.15512
16.6569	0.01202574	0.2695107	0	0	0	0
16.67437	-0.03645752	0.2800862	-2.775627	0.6054372	-82.35585	17.96398
16.69003	-0.03645752	0.2800862	0	0	83.76859	-18.27213
16.7066	-0.03645752	0.2800862	0	0	0	0
16.72317	-0.05260931	0.2888315	-0.9750357	0.5279289	-29.42833	15.93384
16.73973	-0.05260931	0.2888315	0	0	29.42664	-15.93293
16.7563	-0.05260931	0.2888315	0	0	0	0
16.77287	-0.05945616	0.2934977	-0.4133244	0.2816818	-12.47487	8.501662
16.78943	-0.05945616	0.2934977	0	0	12.47487	-8.501662
16.806	-0.05945616	0.2934977	0	0	0	0
16.82261	-0.05942993	0.2935155	0.001578826	0.001076473	0.04758881	0.03244692
16.83913	-0.05942993	0.2935155	0	0	-0.04764908	-0.03248801
16.8557	-0.05942993	0.2935155	0	0	0	0
16.87227	-0.05937749	0.2934798	0.003165564	-0.002158646	0.09553692	-0.06514806
16.88883	-0.05937749	0.2934798	0	0	-0.09554242	0.06515182
16.9054	-0.05937749	0.2934798	0	0	0	0
16.92197	-0.05924637	0.2933904	0.007914136	-0.005394816	0.2388491	-0.1628159
16.93854	-0.05924637	0.2933904	0	0	-0.2388491	0.1628159
16.95522	-0.05924637	0.2933904	0	0	0	0
16.97167	-0.05893168	0.2931759	0.01912908	-0.01303986	0.5773167	-0.3935436
16.98825	-0.05893168	0.2931759	0	0	-0.5792172	0.3948391
17.00576	-0.05893168	0.2931759	0	0	0	0
17.02137	-0.05866943	0.2929971	0.01680241	-0.01145286	0.5072438	-0.3457475
17.03794	-0.05866943	0.2929971	0	0	-0.5222184	0.3559545
17.0545	-0.05866943	0.2929971	0	0	0	0
17.07107	-0.05859076	0.2929435	0.004749343	-0.003238342	0.1433437	-0.09773898
17.08764	-0.05859076	0.2929435	0	0	-0.1433437	0.09773898
17.1042	-0.05859076	0.2929435	0	0	0	0
17.12085	-0.05848585	0.292872	0.006300836	-0.004294235	0.1896901	-0.1292803
17.13734	-0.05848585	0.292872	0	0	-0.1901596	0.1296003
17.1539	-0.05848585	0.292872	0	0	0	0
17.17047	-0.05824982	0.2927111	0.01424706	-0.009712108	0.430002	-0.2931289
17.18704	-0.05824982	0.2927111	0	0	-0.4299773	0.293112
17.20391	-0.05824982	0.2927111	0	0	0	0
17.22043	-0.05806623	0.292586	0.01111477	-0.007574336	0.3328577	-0.2268312
17.23674	-0.05806623	0.292586	0	0	-0.3385823	0.2307323
17.25343	-0.05806623	0.292586	0	0	0	0
17.27047	-0.05796132	0.2925144	0.006159233	-0.004199328	0.1826271	-0.124514
17.28646	-0.05796132	0.2925144	0	0	-0.1864764	0.1271385
17.30301	-0.05796132	0.2925144	0	0	0	0
17.31957	-0.05788264	0.2924608	0.004749471	-0.00323617	0.1434384	-0.09773532
17.33614	-0.05788264	0.2924608	0	0	-0.1433393	0.09766781
17.35271	-0.05788264	0.2924608	0	0	0	0
17.36928	-0.05780395	0.2924072	0.004749246	-0.003237969	0.1433325	-0.09772211
17.38584	-0.05780395	0.2924072	0	0	-0.1433325	0.09772211
17.40241	-0.05780395	0.2924072	0	0	0	0
17.41911	-0.05777773	0.2923893	0.001571113	-0.001071061	0.04723412	-0.0322005
17.43554	-0.05777773	0.2923893	0	0	-0.04741902	0.03232656
17.45211	-0.05777773	0.2923893	0	0	0	0
17.46868	-0.05769904	0.2923357	0.004749246	-0.00323617	0.1433325	-0.09766781
17.48524	-0.05769904	0.2923357	0	0	-0.1433325	0.09766781
17.50181	-0.05769904	0.2923357	0	0	0	0
17.51871	-0.05764659	0.2922999	0.003105109	-0.00211697	0.09279893	-0.0632675
17.53494	-0.05764659	0.2922999	0	0	-0.09371778	0.06389394
17.55151	-0.05764659	0.2922999	0	0	0	0
17.56808	-0.05759413	0.2922642	0.003166829	-0.002158895	0.09558058	-0.06515932
17.58474	-0.05759413	0.2922642	0	0	-0.09531172	0.06497604
17.60859	-0.05759413	0.2922642	0	0	0	0
17.61916	-0.05730561	0.2920675	0.02729476	-0.01860227	0.792991	-0.5404491
17.63573	-0.05730561	0.2920675	0	0	-1.005785	0.6854754
17.65229	-0.05730561	0.2920675	0	0	0	0
17.66886	-0.05363273	0.2895288	0.2216954	-0.1532369	6.690781	-4.624699
17.68543	-0.05363273	0.2895288	0	0	-6.690781	4.624699
17.70199	-0.05363273	0.2895288	0	0	0	0
17.71879	-0.05352776	0.2894215	0.00624929	-0.00638769	0.1873101	-0.1914583
17.73513	-0.05352776	0.2894215	0	0	-0.1886148	0.192792
17.75169	-0.05352776	0.2894215	0	0	0	0
17.76826	-0.05302918	0.28876	0.03009445	-0.03993136	0.9082523	-1.205131
17.78484	-0.05302918	0.28876	0	0	-0.9079387	1.204715
17.8014	-0.05302918	0.28876	0	0	0	0
17.81839	-0.02212797	0.2664673	1.818514	-1.311906	54.20574	-39.10491
17.83453	-0.02212797	0.2664673	0	0	-54.88601	39.59566
17.8511	-0.02212797	0.2664673	0	0	0	0
17.8679	0.03493315	0.1963615	3.395353	-4.171565	101.7341	-124.9915
17.88423	0.03493315	0.1963615	0	0	-102.4779	125.9053
17.9008	0.03493315	0.1963615	0	0	0	0
17.91736	0.06032147	0.07345086	1.532618	-7.419755	46.25717	-223.9415
17.93393	0.06032147	0.07345086	0	0	-46.25717	223.9415
17.9505	0.06032147	0.07345086	0	0	0	0
17.96706	0.05895791	-0.05735135	-0.08231393	-7.896145	-2.484382	-238.3199
17.98363	0.05895791	-0.05735135	0	0	2.484382	238.3199
18.0002	0.05895791	-0.05735135	0	0	0	0
18.01676	0.04037279	-0.1545902	-1.121929	-5.870026	-33.86184	-177.1679
18.06995	0.04037279	-0.1545902	0	0	16.08504	84.15828
18.08655	0.04037279	-0.1545902	0	0	0	0
18.10308	-0.0001052632	-0.2445823	-2.448616	-5.44384	-73.89938	-164.2954
18.12008	-0.0001052632	-0.2445823	0	0	73.03334	162.37
18.13664	-0.0001052632	-0.2445823	0	0	0	0
18.15278	-0.00376314	-0.2474287	-0.2266077	-0.1763384	-6.929179	-5.39205
18.16941	-0.00376314	-0.2474287	0	0	6.914258	5.380439
18.18591	-0.00376314	-0.2474287	0	0	0	0
18.20248	-0.00376314	-0.2474287	0	0	0	0
18.21905	-0.00376314	-0.2474287	0	0	0	0
18.23561	-0.00376314	-0.2474287	0	0	0	0
18.25218	-0.003736825	-0.2474495	0.001588404	-0.001255612	0.04793812	-0.03789446
18.26875	-0.003736825	-0.2474495	0	0	-0.04793812	0.03789446
18.28532	-0.003736825	-0.2474495	0	0	0	0
18.30188	-0.003736825	-0.2474495	0	0	0	0
18.31845	-0.003736825	-0.2474495	0	0	0	0
18.33502	-0.003736825	-0.2474495	0	0	0	0
18.35198	-0.003710509	-0.2474703	0.001551257	-0.00122537	0.04626309	-0.03654417
18.36855	-0.003710509	-0.2474703	0	0	-0.04626309	0.03654417
18.38511	-0.003710509	-0.2474703	0	0	0	0
18.40208	-0.003736825	-0.2474495	-0.001550908	0.001225094	-0.04624743	0.03653181
18.41825	-0.003736825	-0.2474495	0	0	0.04680918	-0.03697554
18.44013	-0.003736825	-0.2474495	0	0	0	0
18.45138	-0.003736825	-0.2474495	0	0	0	0
18.46795	-0.003736825	-0.2474495	0	0	0	0
18.48451	-0.003736825	-0.2474495	0	0	0	0
18.50108	-0.003736825	-0.2474495	0	0	0	0
18.51765	-0.003736825	-0.2474495	0	0	0	0
18.53422	-0.003736825	-0.2474495	0	0	0	0
18.55078	-0.003736825	-0.2474495	0	0	0	0
18.56735	-0.003736825	-0.2474495	0	0	0	0
18.58392	-0.003736825	-0.2474495	0	0	0	0
18.60061	-0.003736825	-0.2474495	0	0	0	0
18.61705	-0.003736825	-0.2474495	0	0	0	0
18.63362	-0.003736825	-0.2474495	0	0	0	0
18.65018	-0.003736825	-0.2474495	0	0	0	0
18.66675	-0.003736825	-0.2474495	0	0	0	0
18.68332	-0.003736825	-0.2474495	0	0	0	0
18.69988	-0.00376314	-0.2474287	-0.001588404	0.001255612	-0.04793812	0.03789446
18.71645	-0.00376314	-0.2474287	0	0	0.04793812	-0.03789446
18.73302	-0.00376314	-0.2474287	0	0	0	0
18.74958	-0.003789456	-0.2473663	-0.001588587	0.003765472	-0.0479464	0.1136487
18.76615	-0.003789456	-0.2473663	0	0	0.0479464	-0.1136487
18.78292	-0.003789456	-0.2473663	0	0	0	0
18.79944	-0.003894717	-0.2467011	-0.006374149	0.04028157	-0.1914794	1.210058
18.81585	-0.003894717	-0.2467011	0	0	0.1935981	-1.223447
18.83242	-0.003894717	-0.2467011	0	0	0	0
18.84898	-0.01134162	-0.2313591	-0.4495476	0.9261514	-13.56816	27.95291
18.86555	-0.01134162	-0.2313591	0	0	13.56816	-27.95291
18.88212	-0.01134162	-0.2313591	0	0	0	0
18.89868	-0.04641401	-0.1946014	-2.117217	2.21896	-63.90142	66.97219
18.91554	-0.04641401	-0.1946014	0	0	63.35074	-66.39504
18.93181	-0.04641401	-0.1946014	0	0	0	0
18.94838	-0.06155372	-0.1213914	-0.91394	4.419472	-27.82785	134.5651
18.96495	-0.06155372	-0.1213914	0	0	27.58435	-133.3876
18.98151	-0.06155372	-0.1213914	0	0	0	0
19.00166	-0.04880332	-0.0186587	0.633038	5.100521	17.24484	138.9453
19.01822	-0.04880332	-0.0186587	0	0	-17.24484	-138.9453
19.03479	-0.03527484	0.008357376	0.816581	1.630694	24.64446	49.21444
19.05158	-0.03527484	0.008357376	0	0	-24.47679	-48.8796
19.0681	-0.03527484	0.008357376	0	0	0	0
19.08449	-0.02073387	0.02220542	0.8872968	0.8450141	26.9665	25.68145
19.10106	-0.02073387	0.02220542	0	0	-26.92436	-25.64132
19.11762	-0.02073387	0.02220542	0	0	0	0
19.13621	-0.02070757	0.02196228	0.001415479	-0.01308341	0.04026908	-0.3722109
19.15277	-0.02070757	0.02196228	0	0	-0.04026689	0.3721907
19.16967	-0.02070757	0.02196228	0	0	0	0
19.18616	-0.02289074	0.02377603	-0.1323708	0.1099716	-3.964832	3.293922
19.20267	-0.02289074	0.02377603	0	0	4.011353	-3.332571
19.21921	-0.02289074	0.02377603	0	0	0	0
19.23561	-0.03112153	0.02973435	-0.5019547	0.3633679	-15.23938	11.03187
19.25217	-0.03112153	0.02973435	0	0	15.22615	-11.0223
19.26874	-0.03112153	0.02973435	0	0	0	0
19.28531	-0.03064829	0.02865175	0.0285644	-0.0653457	0.8621249	-1.972251
19.30187	-0.03064829	0.02865175	0	0	-0.8621249	1.972251
19.31844	-0.03064829	0.02865175	0	0	0	0
19.33501	-0.02759825	0.02585042	0.1841008	-0.1690885	5.556173	-5.103102
19.35157	-0.02759825	0.02585042	0	0	-5.556173	5.103102
19.36845	-0.02759825	0.02585042	0	0	0	0
19.38471	-0.02765085	0.02585042	-0.003234398	0	-0.09761994	0
19.40127	-0.02765085	0.02585042	0	0	0.09852745	0
19.41784	-0.02765085	0.02585042	0	0	0	0
19.43449	-0.02857117	0.02515909	-0.05526453	-0.04151369	-1.663578	-1.249649
19.45097	-0.02857117	0.02515909	0	0	1.667983	1.252958
19.46754	-0.02857117	0.02515909	0	0	0	0
19.48411	-0.03143701	0.02315908	-0.1729824	-0.1207205	-5.22062	-3.643351
19.50068	-0.03143701	0.02315908	0	0	5.22062	3.643351
19.51724	-0.03143701	0.02315908	0	0	0	0
19.53439	-0.0314633	0.02317778	-0.001533512	0.001090647	-0.04549065	0.03235335
19.55095	-0.0314633	0.02317778	0	0	0.04549065	-0.03235335
19.56752	-0.0314633	0.02317778	0	0	0	0
19.58409	-0.0314633	0.02314039	0	-0.002257394	0	-0.06813221
19.60065	-0.0314633	0.02314039	0	0	0	0.06813221
19.61723	-0.0314633	0.02314039	0	0	0	0
19.63417	-0.03180506	0.02289732	-0.02017357	-0.01434784	-0.6019098	-0.4280901
19.65035	-0.03180506	0.02289732	0	0	0.6090148	0.4331433
19.66692	-0.03180506	0.02289732	0	0	0	0
19.68349	-0.05268803	0.007925489	-1.260499	-0.9037015	-38.04192	-27.27377
19.70005	-0.05268803	0.007925489	0	0	38.04192	27.27377
19.71662	-0.05268803	0.007925489	0	0	0	0
19.73319	-0.1082853	-0.03271839	-3.356244	-2.453552	-101.2975	-74.05261
19.74975	-0.1082853	-0.03271839	0	0	101.2975	74.05261
19.76632	-0.1082853	-0.03271839	0	0	0	0
19.78288	-0.1488899	-0.07545307	-2.451466	-2.580064	-73.99391	-77.87546
19.79945	-0.1488899	-0.07545307	0	0	73.99391	77.87546
19.81897	-0.1488899	-0.07545307	0	0	0	0
19.83278	-0.1330255	-0.1247126	1.149305	-3.568633	34.48956	-107.0913
19.84915	-0.1330255	-0.1247126	0	0	-38.08172	118.2451
19.8658	-0.1330255	-0.1247126	0	0	0	0
19.88281	-0.09359417	-0.1580971	2.318684	-1.963111	68.88753	-58.32354
19.89885	-0.09359417	-0.1580971	0	0	-70.16381	59.40411
19.91542	-0.09359417	-0.1580971	0	0	0	0
19.93198	-0.08667701	-0.1633075	0.4175684	-0.3145356	12.60297	-9.493251
19.94855	-0.08667701	-0.1633075	0	0	-12.60297	9.493251
19.96586	-0.08667701	-0.1633075	0	0	0	0
19.98168	-0.08667701	-0.1633075	0	0	0	0
19.99838	-0.08667701	-0.1633075	0	0	0	0
20.01482	-0.08667701	-0.1633075	0	0	0	0
20.03138	-0.08680761	-0.1632076	-0.007883564	0.006032311	-0.2388614	0.182771
20.04795	-0.08680761	-0.1632076	0	0	0.2379401	-0.182066
20.06452	-0.08680761	-0.1632076	0	0	0	0
20.08108	-0.08685984	-0.1631676	-0.003152973	0.002412287	-0.0951569	0.07280297
20.09803	-0.08685984	-0.1631676	0	0	0.0940792	-0.07197844
20.11422	-0.08685984	-0.1631676	0	0	0	0
20.13103	-0.08683372	-0.1631876	0.001553814	-0.001188627	0.04708663	-0.03602006
20.14735	-0.08683372	-0.1631876	0	0	-0.04689419	0.03587285
20.16407	-0.08683372	-0.1631876	0	0	0	0
20.18048	-0.08680761	-0.1631676	0.001590729	0.001217214	0.04801107	0.03673771
20.19709	-0.08680761	-0.1631676	0	0	-0.04817747	-0.03686504
20.21411	-0.08680761	-0.1631676	0	0	0	0
20.23018	-0.08623298	-0.162728	0.03574627	0.02734746	1.080006	0.8262516
20.24714	-0.08623298	-0.162728	0	0	-1.082188	-0.8279215
20.26362	-0.08623298	-0.162728	0	0	0	0
20.28015	-0.08411683	-0.16119	0.1279816	0.09301642	3.876999	2.817784
20.29645	-0.08411683	-0.16119	0	0	-3.897719	-2.832843
20.31302	-0.08411683	-0.16119	0	0	0	0
20.32968	-0.0353274	-0.1271917	2.929086	2.041096	88.16148	61.43419
20.34615	-0.0353274	-0.1271917	0	0	-88.40509	-61.60395
20.36351	-0.0353274	-0.1271917	0	0	0	0
20.37928	0.03235712	-0.07970212	4.290434	3.010306	129.493	90.85644
20.39585	0.03235712	-0.07970212	0	0	-132.6546	-93.07467
20.41242	0.03235712	-0.07970212	0	0	0	0
20.42926	0.07608966	-0.05727464	2.596947	1.331799	77.73611	39.86562
20.44555	0.07608966	-0.05727464	0	0	-78.37601	-40.19378
20.46212	0.07608966	-0.05727464	0	0	0	0
20.47878	0.08620686	-0.06017153	0.6071804	-0.1738558	18.27215	-5.231921
20.49525	0.08620686	-0.06017153	0	0	-18.32474	5.24698
20.51182	0.08620686	-0.06017153	0	0	0	0
20.52839	0.08607626	-0.06022912	-0.007883105	-0.00347587	-0.2379263	-0.104908
20.54495	0.08607626	-0.06022912	0	0	0.2379126	0.104902
20.56152	0.08607626	-0.06022912	0	0	0	0
20.57809	0.08466554	-0.05915441	-0.08516119	0.06487681	-2.570318	1.958099
20.59465	0.08466554	-0.05915441	0	0	2.570318	-1.958099
20.6114	0.08466554	-0.05915441	0	0	0	0
20.62788	0.08147712	-0.05681448	-0.1934554	0.1419742	-5.822743	4.273228
20.64435	0.08147712	-0.05681448	0	0	5.869921	-4.307851
20.66092	0.08147712	-0.05681448	0	0	0	0
20.67749	0.08155555	-0.056872	0.004733731	-0.003471598	0.1428643	-0.104773
20.69406	0.08155555	-0.056872	0	0	-0.1428643	0.104773
20.71062	0.08155555	-0.056872	0	0	0	0
20.72719	0.0817908	-0.0570829	0.01420029	-0.01273017	0.4285657	-0.3841971
20.74376	0.0817908	-0.0570829	0	0	-0.4285657	0.3841971
20.7605	0.0817908	-0.0570829	0	0	0	0
20.77689	0.08199993	-0.0573897	0.01276078	-0.01872109	0.3851433	-0.565036
20.79353	0.08199993	-0.0573897	0	0	-0.3863666	0.5668307
20.81002	0.08199993	-0.0573897	0	0	0	0
20.82659	0.08210448	-0.05765817	0.006310892	-0.01620491	0.1908916	-0.4901656
20.84316	0.08210448	-0.05765817	0	0	-0.1904631	0.4890652
20.86006	0.08210448	-0.05765817	0	0	0	0
20.87629	0.08210448	-0.05788831	0	-0.0141803	0	-0.4279622
20.89286	0.08210448	-0.05788831	0	0	0	0.4323676
20.90964	0.08210448	-0.05788831	0	0	0	0
20.92599	0.08199993	-0.05804175	-0.006394075	-0.009383566	-0.1929736	-0.2831966
20.94256	0.08199993	-0.05804175	0	0	0.194237	0.2850507
20.95962	0.08199993	-0.05804175	0	0	0	0
20.97569	0.08194765	-0.05804175	-0.003251887	0	-0.0981478	0
20.99226	0.08194765	-0.05804175	0	0	0.09961586	0
21.00915	0.08194765	-0.05804175	0	0	0	0
21.02539	0.08189537	-0.05808011	-0.003218288	-0.002361545	-0.0971337	-0.07127568
21.04196	0.08189537	-0.05808011	0	0	0.09808229	0.07197174
21.05869	0.08189537	-0.05808011	0	0	0	0
21.07509	0.08168624	-0.05827192	-0.01275336	-0.01169739	-0.3849193	-0.3530484
21.09166	0.08168624	-0.05827192	0	0	0.3868792	0.354846
21.10823	0.08168624	-0.05827192	0	0	0	0
21.12479	0.08168624	-0.05834865	0	-0.004631953	0	-0.1398007
21.14136	0.08168624	-0.05834865	0	0	0	0.1398007
21.15793	0.08168624	-0.05834865	0	0	0	0
21.17449	0.08171239	-0.05840619	0.001578242	-0.003473796	0.04763418	-0.1048454
21.19106	0.08171239	-0.05840619	0	0	-0.04763418	0.1048454
21.20763	0.08171239	-0.05840619	0	0	0	0
21.22419	0.08184309	-0.05850211	0.007888952	-0.005789444	0.2380891	-0.1747258
21.24076	0.08184309	-0.05850211	0	0	-0.2380891	0.1747258
21.25733	0.08184309	-0.05850211	0	0	0	0
21.27408	0.08194765	-0.05861721	0.006241639	-0.006870962	0.1873271	-0.2062146
21.29046	0.08194765	-0.05861721	0	0	-0.188373	0.207366
21.30711	0.08194765	-0.05861721	0	0	0	0
21.3236	0.08199993	-0.05865558	0.00317027	-0.002326536	0.09567895	-0.07021501
21.34016	0.08199993	-0.05865558	0	0	-0.09589976	0.07037706
21.35673	0.08199993	-0.05865558	0	0	0	0
21.37366	0.08197378	-0.05867476	-0.001544802	-0.001133618	-0.04612571	-0.0338483
21.38986	0.08197378	-0.05867476	0	0	0.04662491	0.03421463
21.40643	0.08197378	-0.05867476	0	0	0	0
21.423	0.08197378	-0.05867476	0	0	0	0
21.43972	0.08197378	-0.05867476	0	0	0	0
21.45655	0.08197378	-0.05867476	0	0	0	0
21.47273	0.08197378	-0.05867476	0	0	0	0
21.48927	0.08197378	-0.05867476	0	0	0	0
21.50583	0.08197378	-0.05867476	0	0	0	0
21.5224	0.08197378	-0.05867476	0	0	0	0
21.53927	0.08197378	-0.05867476	0	0	0	0
21.55553	0.08197378	-0.05867476	0	0	0	0
21.5721	0.08197378	-0.05871313	0	-0.002316089	0	-0.07055359
21.58867	0.08197378	-0.05871313	0	0	0	0.06989971
21.60524	0.08197378	-0.05871313	0	0	0	0
21.6218	0.08199993	-0.05873232	0.001578424	-0.00115829	0.04764241	-0.0349613
21.63837	0.08199993	-0.05873232	0	0	-0.04763966	0.03495929
21.65493	0.08199993	-0.05873232	0	0	0	0
21.6715	0.08202606	-0.05878987	0.001577792	-0.003474471	0.04762335	-0.1048718
21.68807	0.08202606	-0.05878987	0	0	-0.04761786	0.1048597
21.70464	0.08202606	-0.05878987	0	0	0	0
21.7212	0.08202606	-0.05878987	0	0	0	0
21.73777	0.08202606	-0.05878987	0	0	0	0
21.75433	0.08202606	-0.05878987	0	0	0	0
21.7711	0.08202606	-0.05878987	0	0	0	0
21.78761	0.08202606	-0.05878987	0	0	0	0
21.80413	0.08202606	-0.05878987	0	0	0	0
21.8206	0.08202606	-0.05878987	0	0	0	0
21.83717	0.08202606	-0.05878987	0	0	0	0
21.85374	0.08202606	-0.05878987	0	0	0	0
21.8703	0.0820522	-0.05884743	0.001577974	-0.003474871	0.04762609	-0.1048779
21.88687	0.0820522	-0.05884743	0	0	-0.04762883	0.1048839
21.90343	0.0820522	-0.05884743	0	0	0	0
21.92	0.08207835	-0.05886661	0.00157806	-0.001158024	0.04762595	-0.03494922
21.93657	0.08207835	-0.05886661	0	0	-0.04762595	0.03494922
21.95314	0.08207835	-0.05886661	0	0	0	0
21.96975	0.08210448	-0.0588858	0.001573263	-0.001154833	0.04741568	-0.03480484
21.98627	0.08210448	-0.0588858	0	0	-0.04748118	0.03485292
22.00497	0.08210448	-0.0588858	0	0	0	0
22.01941	0.08213062	-0.05890498	0.001810906	-0.001329271	0.05465325	-0.04011748
22.03597	0.08213062	-0.05890498	0	0	-0.05841606	0.04287952
22.05254	0.08213062	-0.05890498	0	0	0	0
22.06911	0.0821829	-0.05894336	0.003156034	-0.002316539	0.09525478	-0.06991731
22.08567	0.0821829	-0.05894336	0	0	-0.09525478	0.06991731
22.10263	0.0821829	-0.05894336	0	0	0	0
22.1188	0.0821829	-0.05898173	0	-0.00237203	0	-0.07159214
22.13537	0.0821829	-0.05898173	0	0	0	0.07244288
22.15194	0.0821829	-0.05898173	0	0	0	0
22.16851	0.08220904	-0.05900092	0.001577792	-0.001158382	0.04761786	-0.03496004
22.18507	0.08220904	-0.05900092	0	0	-0.04762061	0.03496205
22.20171	0.08220904	-0.05900092	0	0	0	0
22.21821	0.08220904	-0.05900092	0	0	0	0
22.23477	0.08220904	-0.05900092	0	0	0	0
22.25134	0.08220904	-0.05900092	0	0	0	0
22.26826	0.08223517	-0.0590201	0.001544884	-0.001134002	0.04613604	-0.03386554
22.28447	0.08223517	-0.0590201	0	0	-0.04662739	0.03422621
22.30104	0.08223517	-0.0590201	0	0	0	0
22.31761	0.08223517	-0.0590201	0	0	0	0
22.33417	0.08223517	-0.0590201	0	0	0	0
22.35074	0.08223517	-0.0590201	0	0	0	0
22.36732	0.08223517	-0.0590201	0	0	0	0
22.38387	0.08223517	-0.0590201	0	0	0	0
22.40044	0.08223517	-0.0590201	0	0	0	0
22.41701	0.08226132	-0.05903929	0.00157806	-0.001158249	0.04762595	-0.03495601
22.43358	0.08226132	-0.05903929	0	0	-0.04762595	0.03495601
22.45014	0.08226132	-0.05903929	0	0	0	0
22.4669	0.08226132	-0.05903929	0	0	0	0
22.48328	0.08226132	-0.05903929	0	0	0	0
22.50043	0.08226132	-0.05903929	0	0	0	0
22.51643	0.08226132	-0.05903929	0	0	0	0
22.53298	0.08226132	-0.05903929	0	0	0	0
22.54954	0.08226132	-0.05903929	0	0	0	0
22.56958	0.08226132	-0.05903929	0	0	0	0
22.58615	0.08226132	-0.05903929	0	0	0	0
22.60271	0.08226132	-0.05903929	0	0	0	0
22.61928	0.08226132	-0.05903929	0	0	0	0
22.63585	0.08226132	-0.05903929	0	0	0	0
22.65265	0.08226132	-0.05903929	0	0	0	0
22.66898	0.08226132	-0.05903929	0	0	0	0
22.68555	0.08226132	-0.05903929	0	0	0	0
22.70219	0.08226132	-0.05903929	0	0	0	0
22.71868	0.08226132	-0.05903929	0	0	0	0
22.73525	0.08226132	-0.05903929	0	0	0	0
22.75182	0.08226132	-0.05903929	0	0	0	0
22.76875	0.08226132	-0.05903929	0	0	0	0
22.78527	0.08226132	-0.05903929	0	0	0	0
22.80152	0.08226132	-0.05903929	0	0	0	0
22.81808	0.08226132	-0.05903929	0	0	0	0
22.83465	0.08226132	-0.05903929	0	0	0	0
22.85469	0.08226132	-0.05903929	0	0	0	0
22.87126	0.08226132	-0.05903929	0	0	0	0
22.88782	0.08226132	-0.05903929	0	0	0	0
22.90439	0.08226132	-0.05903929	0	0	0	0
22.92096	0.08226132	-0.05903929	0	0	0	0
22.93804	0.08226132	-0.05903929	0	0	0	0
22.95409	0.08226132	-0.05903929	0	0	0	0
22.97066	0.08226132	-0.05903929	0	0	0	0
22.98756	0.08228745	-0.05905848	0.001545756	-0.001134641	0.04617785	-0.03389622
23.00379	0.08228745	-0.05905848	0	0	-0.046651	0.03424354
23.02036	0.08228745	-0.05905848	0	0	0	0
23.03711	0.08228745	-0.05905848	0	0	0	0
23.05349	0.08228745	-0.05905848	0	0	0	0
23.07006	0.08228745	-0.05905848	0	0	0	0
23.08664	0.08228745	-0.05905848	0	0	0	0
23.10942	0.08228745	-0.05905848	0	0	0	0
23.12029	0.08228745	-0.05905848	0	0	0	0
23.13633	0.08228745	-0.05905848	0	0	0	0
23.15289	0.08228745	-0.05905848	0	0	0	0
23.16984	0.08228745	-0.05905848	0	0	0	0
23.18634	0.08228745	-0.05905848	0	0	0	0
23.20259	0.08228745	-0.05905848	0	0	0	0
23.21916	0.08228745	-0.05905848	0	0	0	0
23.23591	0.08228745	-0.05905848	0	0	0	0
23.25229	0.08228745	-0.05905848	0	0	0	0
23.26892	0.08228745	-0.05905848	0	0	0	0
23.28543	0.08228745	-0.05905848	0	0	0	0
23.30199	0.08228745	-0.05905848	0	0	0	0
23.31856	0.08228745	-0.05905848	0	0	0	0
23.33513	0.08228745	-0.05905848	0	0	0	0
23.35169	0.08228745	-0.05905848	0	0	0	0
23.36826	0.08228745	-0.05905848	0	0	0	0
23.385	0.08228745	-0.05905848	0	0	0	0
23.40177	0.08228745	-0.05905848	0	0	0	0
23.41796	0.08228745	-0.05905848	0	0	0	0
23.43453	0.08226132	-0.05907766	-0.00157761	-0.001158024	-0.04816131	-0.03535216
23.4511	0.08226132	-0.05907766	0	0	0.04761238	0.03494922
23.46766	0.08226132	-0.05907766	0	0	0	0
23.53445	0.08226132	-0.05907766	0	0	0	0
23.55102	0.08226132	-0.05907766	0	0	0	0
23.56759	0.08226132	-0.05907766	0	0	0	0
23.58416	0.08226132	-0.05907766	0	0	0	0
23.60072	0.08226132	-0.05907766	0	0	0	0
23.61729	0.08226132	-0.05907766	0	0	0	0
23.63394	0.08226132	-0.05907766	0	0	0	0
23.65042	0.08226132	-0.05907766	0	0	0	0
23.66699	0.08228745	-0.05909685	0.001577792	-0.001158382	0.04774153	-0.03505083
23.68403	0.08228745	-0.05909685	0	0	-0.04695297	0.03447189
23.70073	0.08228745	-0.05909685	0	0	0	0
23.71669	0.08228745	-0.05909685	0	0	0	0
23.73326	0.08228745	-0.05909685	0	0	0	0
23.74982	0.08228745	-0.05909685	0	0	0	0
23.76639	0.08228745	-0.05909685	0	0	0	0
23.78296	0.08228745	-0.05909685	0	0	0	0
23.79953	0.08228745	-0.05909685	0	0	0	0
23.81609	0.08228745	-0.05909685	0	0	0	0
23.83282	0.08228745	-0.05909685	0	0	0	0
23.84934	0.08228745	-0.05909685	0	0	0	0
23.86579	0.08228745	-0.05909685	0	0	0	0
23.88236	0.08228745	-0.05909685	0	0	0	0
23.89893	0.08228745	-0.05909685	0	0	0	0
23.91549	0.08228745	-0.05909685	0	0	0	0
23.93206	0.08228745	-0.05909685	0	0	0	0
23.94863	0.08228745	-0.05909685	0	0	0	0
23.97267	0.08228745	-0.05909685	0	0	0	0
23.98176	0.08228745	-0.05909685	0	0	0	0
23.99833	0.08228745	-0.05909685	0	0	0	0
24.015	0.08228745	-0.05909685	0	0	0	0
24.03146	0.08228745	-0.05909685	0	0	0	0
24.04803	0.08228745	-0.05909685	0	0	0	0
24.0646	0.08228745	-0.05909685	0	0	0	0
24.08116	0.08228745	-0.05909685	0	0	0	0
24.09773	0.08228745	-0.05909685	0	0	0	0
24.11456	0.08228745	-0.05909685	0	0	0	0
24.13109	0.08228745	-0.05909685	0	0	0	0
24.14743	0.07951619	-0.06893767	-0.1696564	-0.6024551	-5.161839	-18.32985
24.16411	0.07951619	-0.06893767	0	0	5.137986	18.24515
24.18056	0.07951619	-0.06893767	0	0	0	0
24.19763	0.06262852	-0.1290035	-0.9896063	-3.519813	-29.52981	-105.0311
24.2137	0.06262852	-0.1290035	0	0	29.86638	106.2282
24.23026	0.06262852	-0.1290035	0	0	0	0
24.24683	0.05368521	-0.1849147	-0.5398813	-3.375197	-16.29459	-101.8695
24.2634	0.05368521	-0.1849147	0	0	16.29459	101.8695
24.27996	0.05368521	-0.1849147	0	0	0	0
24.29653	0.05859076	-0.1963451	0.2961338	-0.6900196	8.93785	-20.82603
24.31335	0.05859076	-0.1963451	0	0	-8.868418	20.66425
24.32966	0.05859076	-0.1963451	0	0	0	0
24.34623	0.05861698	-0.1963654	0.001583007	-0.001225032	0.04815501	-0.03726541
24.36279	0.05861698	-0.1963654	0	0	-0.04777525	0.03697153
24.37936	0.05861698	-0.1963654	0	0	0	0
24.39593	0.05822359	-0.1960206	-0.02374533	0.02081295	-0.7166355	0.6281359
24.4125	0.05822359	-0.1960206	0	0	0.7166355	-0.6281359
24.42906	0.05822359	-0.1960206	0	0	0	0
24.44563	0.05743676	-0.1952095	-0.04749883	0.04896283	-1.4336	1.477786
24.4622	0.05743676	-0.1952095	0	0	1.4336	-1.477786
24.47876	0.05743676	-0.1952095	0	0	0	0
24.49547	0.05733184	-0.1949257	-0.006279431	0.01698595	-0.1887098	0.5104624
24.5119	0.05733184	-0.1949257	0	0	0.1895136	-0.5126368
24.52863	0.05733184	-0.1949257	0	0	0	0
24.54503	0.05785641	-0.1847331	0.03197992	0.6213781	0.9652115	18.75431
24.56163	0.05785641	-0.1847331	0	0	-0.9690608	-18.8291
24.57817	0.05785641	-0.1847331	0	0	0	0
24.59473	0.05048339	-0.1260306	-0.4450879	3.543698	-13.44594	107.0538
24.61164	0.05048339	-0.1260306	0	0	13.29578	-105.8583
24.62786	0.05048339	-0.1260306	0	0	0	0
24.64443	0.04927587	-0.07479699	-0.07288601	3.092466	-2.222864	94.31345
24.661	0.04927587	-0.07479699	0	0	2.199704	-93.3308
24.67756	0.04927587	-0.07479699	0	0	0	0
24.69413	0.05457732	-0.06685903	0.3199966	0.4791362	9.657516	14.46036
24.71075	0.05457732	-0.06685903	0	0	-9.641974	-14.43709
24.72728	0.05457732	-0.06685903	0	0	0	0
24.74425	0.05470851	-0.06699371	0.007728011	-0.007933638	0.2306954	-0.2368338
24.7604	0.05470851	-0.06699371	0	0	-0.233299	0.2395066
24.77731	0.05470851	-0.06699371	0	0	0	0
24.79427	0.05468227	-0.06697447	-0.001546819	0.001134143	-0.04567349	0.03348827
24.81083	0.05468227	-0.06697447	0	0	0.04613337	-0.03382546
24.8274	0.05468227	-0.06697447	0	0	0	0
24.84397	0.05465604	-0.06695522	-0.001583864	0.001161755	-0.04780386	0.03506386
24.86066	0.05465604	-0.06695522	0	0	0.04762566	-0.03493314
24.8771	0.05465604	-0.06695522	0	0	0	0
24.89367	0.05518077	-0.06683978	0.03167638	0.006968732	0.959641	0.2111188
24.91023	0.05518077	-0.06683978	0	0	-0.9560502	-0.2103289
24.92723	0.05518077	-0.06683978	0	0	0	0
24.94337	0.07273985	-0.06226449	1.087925	0.2834759	32.83553	8.555813
24.95993	0.07273985	-0.06226449	0	0	-33.26254	-8.667077
24.9765	0.07273985	-0.06226449	0	0	0	0
24.99307	0.1129644	-0.05831028	2.427958	0.2386763	73.27591	7.203266
25.00977	0.1129644	-0.05831028	0	0	-72.9902	-7.175179
25.0262	0.1129644	-0.05831028	0	0	0	0
25.04277	0.1537249	-0.04821899	2.459743	0.6089715	74.51831	18.44889
25.05934	0.1537249	-0.04821899	0	0	-74.23947	-18.37985
25.0759	0.1537249	-0.04821899	0	0	0	0
25.09247	0.1836187	-0.03055121	1.804392	1.066429	54.45667	32.18489
25.10904	0.1836187	-0.03055121	0	0	-54.45667	-32.18489
25.12573	0.1836187	-0.03055121	0	0	0	0
25.14217	0.2149935	-0.02221982	1.908067	0.5066757	57.58889	15.29238
25.15877	0.2149935	-0.02221982	0	0	-57.7518	-15.33564
25.1753	0.2149935	-0.02221982	0	0	0	0
25.19187	0.2808732	-0.03686694	3.976508	-0.884102	120.115	-26.70531
25.20879	0.2808732	-0.03686694	0	0	-118.7399	26.3996
25.22501	0.2808732	-0.03686694	0	0	0	0
25.24157	0.3244087	-0.04693852	2.628109	-0.6079919	80.17957	-18.5489
25.25814	0.3244087	-0.04693852	0	0	-79.32104	18.35029
25.27485	0.3244087	-0.04693852	0	0	0	0
25.29185	0.3427338	-0.04468473	1.078057	0.1325896	31.98348	3.933632
25.30787	0.3427338	-0.04468473	0	0	-32.64103	-4.014504
25.32441	0.3427338	-0.04468473	0	0	0	0
25.34097	0.3648935	-0.027683	1.33756	1.026227	40.41184	31.00549
25.36399	0.3648935	-0.027683	0	0	-33.78947	-25.92456
25.38089	0.3648935	-0.027683	0	0	0	0
25.39739	0.3918202	-0.04109745	1.631684	-0.8128803	48.85621	-24.33943
25.41369	0.3918202	-0.04109745	0	0	-49.73676	24.7781
25.43026	0.3918202	-0.04109745	0	0	0	0
25.44691	0.4013802	-0.04906019	0.5741355	-0.4782093	17.28367	-14.39592
25.46342	0.4013802	-0.04906019	0	0	-17.3125	14.41994
25.47996	0.4013802	-0.04906019	0	0	0	0
25.49653	0.4053205	-0.05152784	0.237836	-0.1489475	7.184523	-4.499388
25.51348	0.4053205	-0.05152784	0	0	-7.09419	4.442816
25.52966	0.4053205	-0.05152784	0	0	0	0
25.5465	0.4103323	-0.05585604	0.2977159	-0.2571068	9.018829	-7.788641
25.56279	0.4103323	-0.05585604	0	0	-8.985601	7.759946
25.57936	0.4103323	-0.05585604	0	0	0	0
25.59602	0.4111286	-0.05654608	0.04780717	-0.04142692	1.43893	-1.246893
25.6125	0.4111286	-0.05654608	0	0	-1.442823	1.250267
25.62906	0.4111286	-0.05654608	0	0	0	0
25.64563	0.4110402	-0.05646941	-0.005339666	0.004628805	-0.1611607	0.1397057
25.6622	0.4110402	-0.05646941	0	0	0.1611607	-0.1397057
25.67954	0.4110402	-0.05646941	0	0	0	0
25.69533	0.410642	-0.05612437	-0.02521251	0.02185028	-0.7609589	0.6594806
25.71189	0.410642	-0.05612437	0	0	0.7791699	-0.675263
25.72846	0.410642	-0.05612437	0	0	0	0
25.74509	0.4102216	-0.05576021	-0.02528464	0.02190247	-0.7617328	0.6598404
25.7616	0.4102216	-0.05576021	0	0	0.7630921	-0.6610178
25.77816	0.4102216	-0.05576021	0	0	0	0
25.79473	0.4098896	-0.05547275	-0.02004174	0.01735302	-0.6049305	0.5237753
25.81162	0.4098896	-0.05547275	0	0	0.5989308	-0.5185806
25.82814	0.4098896	-0.05547275	0	0	0	0
25.84443	0.4094911	-0.05516616	-0.02446575	0.0188225	-0.7458483	0.5738115
25.86099	0.4094911	-0.05516616	0	0	0.7446359	-0.5728788
25.87756	0.4094911	-0.05516616	0	0	0	0
25.89413	0.4091146	-0.05484044	-0.02272956	0.01966258	-0.6860191	0.5934521
25.91069	0.4091146	-0.05484044	0	0	0.6860191	-0.5934521
25.92726	0.4091146	-0.05484044	0	0	0	0
25.94383	0.4081617	-0.05405503	-0.05752375	0.04741292	-1.73617	1.431007
25.96039	0.4081617	-0.05405503	0	0	1.73617	-1.431007
25.97696	0.4081617	-0.05405503	0	0	0	0
25.99353	0.3991482	-0.04630805	-0.544058	0.4676086	-16.4197	14.11246
26.0101	0.3991482	-0.04630805	0	0	16.4197	-14.11246
26.02666	0.3991482	-0.04630805	0	0	0	0
26.04329	0.3972924	-0.04472291	-0.1116284	0.09534997	-3.363144	2.872707
26.0598	0.3972924	-0.04472291	0	0	3.369146	-2.877833
26.07636	0.3972924	-0.04472291	0	0	0	0
26.09332	0.3972924	-0.04472291	0	0	0	0
26.1095	0.3972924	-0.04472291	0	0	0	0
26.12606	0.3972924	-0.04472291	0	0	0	0
26.14263	0.3972924	-0.04472291	0	0	0	0
26.1592	0.3972924	-0.04472291	0	0	0	0
26.17995	0.3972924	-0.04472291	0	0	0	0
26.19233	0.39727	-0.044742	-0.00180807	-0.001542337	-0.05457081	-0.0465505
26.2089	0.39727	-0.044742	0	0	0.06244726	0.05326935
26.22546	0.39727	-0.044742	0	0	0	0
26.24203	0.3972476	-0.0447611	-0.001351108	-0.00115276	-0.04078827	-0.03480038
26.2586	0.3972476	-0.0447611	0	0	0.04077888	0.03479236
26.27516	0.3972476	-0.0447611	0	0	0	0
26.29173	0.3971358	-0.04470382	-0.006752965	0.003457431	-0.2038049	0.1043455
26.3083	0.3971358	-0.04470382	0	0	0.2038049	-0.1043455
26.32499	0.3971358	-0.04470382	0	0	0	0
26.34144	0.3885564	-0.03783829	-0.5215127	0.4173349	-15.73657	12.59302
26.358	0.3885564	-0.03783829	0	0	15.7984	-12.6425
26.375	0.3885564	-0.03783829	0	0	0	0
26.39113	0.3343285	-0.002531746	-3.361439	2.188555	-101.4543	66.05452
26.4077	0.3343285	-0.002531746	0	0	102.7976	-66.92914
26.42426	0.3343285	-0.002531746	0	0	0	0
26.44105	0.2523457	0.01280451	-4.885494	0.9139143	-146.5	27.4053
26.4574	0.2523457	0.01280451	0	0	147.453	-27.58357
26.47396	0.2523457	0.01280451	0	0	0	0
26.49053	0.1781949	-0.01998418	-4.475754	-1.979129	-135.0785	-59.73024
26.5071	0.1781949	-0.01998418	0	0	135.0785	59.73024
26.52367	0.1781949	-0.01998418	0	0	0	0
26.54023	0.1114312	-0.06959238	-4.032184	-2.996082	-121.6986	-90.42712
26.5568	0.1114312	-0.06959238	0	0	121.7266	90.44795
26.57337	0.1114312	-0.06959238	0	0	0	0
26.5902	0.06687382	-0.1025488	-2.646529	-1.957478	-79.22935	-58.60116
26.6065	0.06687382	-0.1025488	0	0	79.87241	59.0768
26.659	0.06687382	-0.1025488	0	0	0	0
26.67577	0.06553759	-0.1035822	-0.07967364	-0.06161906	-1.15014	-0.8895106
26.69229	0.06553759	-0.1035822	0	0	2.393807	1.851354
26.70881	0.06553759	-0.1035822	0	0	0	0
26.72531	0.06558999	-0.1035822	0.003176848	0	0.09619866	0
26.74184	0.06558999	-0.1035822	0	0	-0.09619866	0
26.7584	0.06558999	-0.1035822	0	0	0	0
26.77497	0.0656686	-0.1035627	0.004744524	0.001176912	0.14319	0.03551927
26.79189	0.0656686	-0.1035627	0	0	-0.1416893	-0.035147
26.80811	0.0656686	-0.1035627	0	0	0	0
26.82467	0.06585202	-0.1036212	0.01107243	-0.003532042	0.3377636	-0.1077446
26.84142	0.06585202	-0.1036212	0	0	-0.3323301	0.1060114
26.85795	0.06585202	-0.1036212	0	0	0	0
26.87437	0.06645463	-0.1040699	0.0366909	-0.02731381	1.113551	-0.8289611
26.89096	0.06645463	-0.1040699	0	0	-1.111428	0.8273805
26.90751	0.06645463	-0.1040699	0	0	0	0
26.9245	0.06760734	-0.1049283	0.06782041	-0.05050596	2.022032	-1.50581
26.94064	0.06760734	-0.1049283	0	0	-2.046942	1.524361
26.9572	0.06760734	-0.1049283	0	0	0	0
26.97377	0.06765972	-0.1050063	0.003161967	-0.004711245	0.09542835	-0.1421857
26.99054	0.06765972	-0.1050063	0	0	-0.09484417	0.1413153
27.01322	0.06765972	-0.1050063	0	0	0	0
27.0274	0.06763352	-0.1050258	-0.001847011	-0.001375803	-0.05010948	-0.03732558
27.04429	0.06763352	-0.1050258	0	0	0.05943812	0.0442743
27.06054	0.06763352	-0.1050258	0	0	0	0
27.0773	0.06760734	-0.1050063	-0.001562411	0.001164141	-0.04733896	0.03527191
27.09367	0.06760734	-0.1050063	0	0	0.04715366	-0.03513384
27.11024	0.06760734	-0.1050063	0	0	0	0
27.1268	0.06760734	-0.1050063	0	0	0	0
27.14338	0.06760734	-0.1050063	0	0	0	0
27.15994	0.06760734	-0.1050063	0	0	0	0
27.17651	0.06758114	-0.1050258	-0.001580662	-0.001177405	-0.04770723	-0.03553619
27.19307	0.06758114	-0.1050258	0	0	0.04770723	0.03553619
27.20964	0.06758114	-0.1050258	0	0	0	0
27.2262	0.06758114	-0.1050258	0	0	0	0
27.24277	0.06758114	-0.1050258	0	0	0	0
27.25934	0.06758114	-0.1050258	0	0	0	0
27.27593	0.06760734	-0.1050453	0.001578845	-0.001176051	0.04761675	-0.03546879
27.29247	0.06760734	-0.1050453	0	0	-0.04765239	0.03549534
27.30904	0.06760734	-0.1050453	0	0	0	0
27.32568	0.06760734	-0.1050453	0	0	0	0
27.34217	0.06760734	-0.1050453	0	0	0	0
27.35874	0.06760734	-0.1050453	0	0	0	0
27.3753	0.06760734	-0.1050453	0	0	0	0
27.39187	0.06760734	-0.1050453	0	0	0	0
27.40844	0.06760734	-0.1050453	0	0	0	0
27.42526	0.06763352	-0.1050649	0.00155639	-0.001160097	0.04660972	-0.03474181
27.44157	0.06763352	-0.1050649	0	0	-0.04697193	0.03501179
27.45827	0.06763352	-0.1050649	0	0	0	0
27.4747	0.06763352	-0.1050649	0	0	0	0
27.49127	0.06763352	-0.1050649	0	0	0	0
27.50785	0.06763352	-0.1050649	0	0	0	0
27.5244	0.06765972	-0.1050844	0.001582301	-0.001178625	0.04775669	-0.03557303
27.54097	0.06765972	-0.1050844	0	0	-0.04777044	0.03558328
27.55754	0.06765972	-0.1050844	0	0	0	0
27.57422	0.06768592	-0.1051039	0.001570002	-0.001169464	0.04721424	-0.03516897
27.59071	0.06768592	-0.1051039	0	0	-0.04732282	0.03524984
27.60724	0.06768592	-0.1051039	0	0	0	0
27.62381	0.06768592	-0.1051039	0	0	0	0
27.64037	0.06768592	-0.1051039	0	0	0	0
27.65694	0.06768592	-0.1051039	0	0	0	0
27.67351	0.06768592	-0.1051039	0	0	0	0
27.69007	0.06768592	-0.1051039	0	0	0	0
27.70664	0.06768592	-0.1051039	0	0	0	0
27.72321	0.06771211	-0.1051234	0.001581208	-0.001177811	0.04772096	-0.03554641
27.73977	0.06771211	-0.1051234	0	0	-0.04772096	0.03554641
27.75634	0.06771211	-0.1051234	0	0	0	0
27.77291	0.06771211	-0.1051234	0	0	0	0
27.78947	0.06771211	-0.1051234	0	0	0	0
27.80604	0.06771211	-0.1051234	0	0	0	0
27.82261	0.06768592	-0.1051429	-0.001581208	-0.001177811	-0.04772096	-0.03554641
27.83918	0.06768592	-0.1051429	0	0	0.04772096	0.03554641
27.85574	0.06768592	-0.1051429	0	0	0	0
27.87231	0.06768592	-0.1051429	0	0	0	0
27.88889	0.06768592	-0.1051429	0	0	0	0
27.90545	0.06768592	-0.1051429	0	0	0	0
27.92201	0.06768592	-0.1051429	0	0	0	0
27.93858	0.06768592	-0.1051429	0	0	0	0
27.95548	0.06768592	-0.1051429	0	0	0	0
27.97171	0.06768592	-0.1051429	0	0	0	0
27.98828	0.06768592	-0.1051429	0	0	0	0
28.00502	0.06768592	-0.1051429	0	0	0	0
28.02141	0.06768592	-0.1051429	0	0	0	0
28.03798	0.06768592	-0.1051429	0	0	0	0
28.05455	0.06768592	-0.1051429	0	0	0	0
28.07111	0.06771211	-0.1051624	0.001581755	-0.001178218	0.04774019	-0.03556074
28.08768	0.06771211	-0.1051624	0	0	-0.04774569	0.03556484
28.10855	0.06771211	-0.1051624	0	0	0	0
28.12087	0.06771211	-0.1051624	0	0	0	0
28.13739	0.06771211	-0.1051624	0	0	0	0
28.15395	0.06771211	-0.1051624	0	0	0	0
28.17051	0.06768592	-0.105182	-0.001581572	-0.001178532	-0.04775119	-0.03558252
28.18708	0.06768592	-0.105182	0	0	0.04773745	0.03557227
28.20395	0.06768592	-0.105182	0	0	0	0
28.22021	0.06768592	-0.105221	0	-0.002400392	0	-0.07244813
28.23678	0.06768592	-0.105221	0	0	0	0.07312588
28.25334	0.06768592	-0.105221	0	0	0	0
28.26997	0.06768592	-0.10526	0	-0.002348232	0	-0.07075168
28.28648	0.06768592	-0.10526	0	0	0	0.07086979
28.30304	0.06768592	-0.10526	0	0	0	0
28.32003	0.06768592	-0.10526	0	0	0	0
28.33618	0.06768592	-0.10526	0	0	0	0
28.35274	0.06768592	-0.10526	0	0	0	0
28.36931	0.06768592	-0.10526	0	0	0	0
28.38588	0.06768592	-0.10526	0	0	0	0
28.40273	0.06768592	-0.10526	0	0	0	0
28.41901	0.06768592	-0.105299	0	-0.002397298	0	-0.07235476
28.43558	0.06768592	-0.105299	0	0	0	0.07298499
28.45226	0.06768592	-0.105299	0	0	0	0
28.46871	0.06768592	-0.105299	0	0	0	0
28.48528	0.06768592	-0.105299	0	0	0	0
28.50185	0.06768592	-0.105299	0	0	0	0
28.51841	0.06771211	-0.1053186	0.001581937	-0.001178804	0.04774569	-0.03557842
28.53498	0.06771211	-0.1053186	0	0	-0.04775394	0.03558457
28.55154	0.06771211	-0.1053186	0	0	0	0
28.56832	0.06771211	-0.1053186	0	0	0	0
28.58467	0.06771211	-0.1053186	0	0	0	0
28.60124	0.06771211	-0.1053186	0	0	0	0
28.61781	0.06771211	-0.1053186	0	0	0	0
28.63438	0.06771211	-0.1053186	0	0	0	0
28.65113	0.06771211	-0.1053186	0	0	0	0
28.66751	0.06771211	-0.1053186	0	0	0	0
28.68408	0.06771211	-0.1053186	0	0	0	0
28.70064	0.06771211	-0.1053186	0	0	0	0
28.71721	0.06771211	-0.1053576	0	-0.002355623	0	-0.07109283
28.73378	0.06771211	-0.1053576	0	0	0	0.07109283
28.75035	0.06771211	-0.1053576	0	0	0	0
28.76691	0.06768592	-0.1053771	-0.001581208	-0.001178261	-0.04772096	-0.03555999
28.78348	0.06768592	-0.1053771	0	0	0.04772096	0.03555999
28.80005	0.06768592	-0.1053771	0	0	0	0
28.81673	0.06768592	-0.1053771	0	0	0	0
28.83323	0.06768592	-0.1053771	0	0	0	0
28.84975	0.06768592	-0.1053771	0	0	0	0
28.86631	0.06768592	-0.1053771	0	0	0	0
28.88288	0.06768592	-0.1053771	0	0	0	0
28.89945	0.06768592	-0.1053771	0	0	0	0
28.9163	0.06768592	-0.1053771	0	0	0	0
28.9739	0.06768592	-0.1053771	0	0	0	0
28.99054	0.06768592	-0.1053771	0	0	0	0
29.00704	0.06771211	-0.1053966	0.001587973	-0.00118285	0.04791408	-0.03569026
29.0236	0.06771211	-0.1053966	0	0	-0.04803849	0.03578293
29.04017	0.06771211	-0.1053966	0	0	0	0
29.05673	0.06771211	-0.1053966	0	0	0	0
29.0733	0.06771211	-0.1053966	0	0	0	0
29.08987	0.06771211	-0.1053966	0	0	0	0
29.10644	0.06771211	-0.1053966	0	0	0	0
29.12312	0.06771211	-0.1053966	0	0	0	0
29.13957	0.06771211	-0.1053966	0	0	0	0
29.15614	0.06771211	-0.1053966	0	0	0	0
29.17317	0.06771211	-0.1053966	0	0	0	0
29.18927	0.06771211	-0.1053966	0	0	0	0
29.20584	0.06771211	-0.1053966	0	0	0	0
29.2224	0.06771211	-0.1053966	0	0	0	0
29.23921	0.06771211	-0.1053966	0	0	0	0
29.25554	0.06771211	-0.1053966	0	0	0	0
29.2721	0.06771211	-0.1053966	0	0	0	0
29.28876	0.06771211	-0.1053966	0	0	0	0
29.30529	0.06771211	-0.1053966	0	0	0	0
29.3218	0.06771211	-0.1053966	0	0	0	0
29.33837	0.06771211	-0.1053966	0	0	0	0
29.35493	0.06771211	-0.1053966	0	0	0	0
29.3715	0.06771211	-0.1053966	0	0	0	0
29.38833	0.06771211	-0.1053966	0	0	0	0
29.40464	0.06771211	-0.1053966	0	0	0	0
29.4212	0.06771211	-0.1053966	0	0	0	0
29.43836	0.06771211	-0.1053966	0	0	0	0
29.45434	0.06771211	-0.1053966	0	0	0	0
29.47091	0.06771211	-0.1053966	0	0	0	0
29.48747	0.06771211	-0.1053966	0	0	0	0
29.50422	0.06771211	-0.1053966	0	0	0	0
29.52061	0.06771211	-0.1053966	0	0	0	0
29.53717	0.06771211	-0.1053966	0	0	0	0
29.55374	0.06771211	-0.1053966	0	0	0	0
29.57031	0.06771211	-0.1053966	0	0	0	0
29.58687	0.06771211	-0.1053966	0	0	0	0
29.60344	0.06768592	-0.1054161	-0.001581208	-0.001178261	-0.04772371	-0.03556203
29.62001	0.06768592	-0.1054161	0	0	0.04772096	0.03555999
29.6373	0.06768592	-0.1054161	0	0	0	0
29.65314	0.06768592	-0.1054161	0	0	0	0
29.66971	0.06768592	-0.1054161	0	0	0	0
29.68634	0.06768592	-0.1054161	0	0	0	0
29.70284	0.06768592	-0.1054161	0	0	0	0
29.71987	0.06768592	-0.1054161	0	0	0	0
29.73597	0.06768592	-0.1054161	0	0	0	0
29.75254	0.06771211	-0.1054357	0.00158139	-0.001177947	0.04840918	-0.03605906
29.77534	0.06771211	-0.1054357	0	0	-0.04017171	0.02992313
29.78567	0.06771211	-0.1054357	0	0	0	0
29.80242	0.06771211	-0.1054357	0	0	0	0
29.81895	0.06771211	-0.1054357	0	0	0	0
29.83596	0.06771211	-0.1054357	0	0	0	0
29.85351	0.06771211	-0.1054357	0	0	0	0
29.87008	0.06771211	-0.1054357	0	0	0	0
29.88664	0.06771211	-0.1054357	0	0	0	0
29.90321	0.06771211	-0.1054357	0	0	0	0
29.91978	0.06771211	-0.1054357	0	0	0	0
29.93635	0.06771211	-0.1054357	0	0	0	0
29.95304	0.06771211	-0.1054357	0	0	0	0
29.96955	0.06771211	-0.1054357	0	0	0	0
29.98606	0.06771211	-0.1054357	0	0	0	0
30.00261	0.06771211	-0.1054357	0	0	0	0
30.01918	0.06771211	-0.1054357	0	0	0	0
30.03609	0.06771211	-0.1054357	0	0	0	0
30.0561	0.06771211	-0.1054357	0	0	0	0
30.07266	0.06771211	-0.1054357	0	0	0	0
30.08923	0.06771211	-0.1054357	0	0	0	0
30.1058	0.06771211	-0.1054357	0	0	0	0
30.12237	0.06771211	-0.1054357	0	0	0	0
30.13914	0.06771211	-0.1054357	0	0	0	0
30.1555	0.06771211	-0.1054357	0	0	0	0
30.17207	0.06771211	-0.1054357	0	0	0	0
30.18863	0.06771211	-0.1054357	0	0	0	0
30.2052	0.06771211	-0.1054357	0	0	0	0
30.22177	0.06771211	-0.1054357	0	0	0	0
30.23833	0.06771211	-0.1054357	0	0	0	0
30.2549	0.06771211	-0.1054357	0	0	0	0
30.27147	0.06771211	-0.1054357	0	0	0	0
30.28803	0.06771211	-0.1054357	0	0	0	0
30.3046	0.06771211	-0.1054357	0	0	0	0
30.32141	0.06771211	-0.1054357	0	0	0	0
30.33773	0.06771211	-0.1054357	0	0	0	0
30.35441	0.06771211	-0.1054357	0	0	0	0
30.37087	0.06771211	-0.1054357	0	0	0	0
30.38743	0.06771211	-0.1054357	0	0	0	0
30.40445	0.06771211	-0.1054357	0	0	0	0
30.42057	0.06771211	-0.1054357	0	0	0	0
30.43747	0.06771211	-0.1054357	0	0	0	0
30.4537	0.06771211	-0.1054357	0	0	0	0
30.47052	0.06771211	-0.1054357	0	0	0	0
30.487	0.06771211	-0.1054357	0	0	0	0
30.5034	0.06771211	-0.1054357	0	0	0	0
30.51997	0.06771211	-0.1054357	0	0	0	0
30.53653	0.06771211	-0.1054357	0	0	0	0
30.55355	0.06771211	-0.1054357	0	0	0	0
30.56967	0.06771211	-0.1054357	0	0	0	0
30.59157	0.06771211	-0.1054357	0	0	0	0
30.6028	0.06771211	-0.1054357	0	0	0	0
30.61937	0.06771211	-0.1054357	0	0	0	0
30.63594	0.06771211	-0.1054357	0	0	0	0
30.6525	0.06771211	-0.1054357	0	0	0	0
30.66907	0.06771211	-0.1054357	0	0	0	0
30.68564	0.06771211	-0.1054357	0	0	0	0
30.7022	0.06771211	-0.1054357	0	0	0	0
30.71877	0.06771211	-0.1054357	0	0	0	0
30.73533	0.06771211	-0.1054357	0	0	0	0
30.7519	0.06771211	-0.1054357	0	0	0	0
30.76847	0.06771211	-0.1054357	0	0	0	0
30.78504	0.06771211	-0.1054357	0	0	0	0
30.8016	0.06771211	-0.1054357	0	0	0	0
30.81817	0.06771211	-0.1054357	0	0	0	0
30.83474	0.06771211	-0.1054357	0	0	0	0
30.85167	0.06771211	-0.1054357	0	0	0	0
30.87227	0.06771211	-0.1054357	0	0	0	0
30.88884	0.06771211	-0.1054357	0	0	0	0
30.90541	0.06771211	-0.1054357	0	0	0	0
30.92197	0.06771211	-0.1054357	0	0	0	0
30.93854	0.06771211	-0.1054357	0	0	0	0
30.95522	0.06771211	-0.1054357	0	0	0	0
30.97176	0.06771211	-0.1054357	0	0	0	0
30.98824	0.06771211	-0.1054357	0	0	0	0
31.00481	0.06771211	-0.1054357	0	0	0	0
31.02138	0.06771211	-0.1054357	0	0	0	0
31.03794	0.06771211	-0.1054357	0	0	0	0
31.05451	0.06771211	-0.1054357	0	0	0	0
31.07108	0.06771211	-0.1054357	0	0	0	0
31.08764	0.06771211	-0.1054357	0	0	0	0
31.10421	0.06771211	-0.1054357	0	0	0	0
31.12078	0.06771211	-0.1054357	0	0	0	0
31.13734	0.06771211	-0.1054357	0	0	0	0
31.15391	0.06771211	-0.1054357	0	0	0	0
31.17048	0.06771211	-0.1054357	0	0	0	0
31.18704	0.06771211	-0.1054357	0	0	0	0
31.20361	0.06771211	-0.1053966	0	0.002356343	0	0.07111868
31.22028	0.06771211	-0.1053966	0	0	0	-0.07090642
31.23678	0.06771211	-0.1053966	0	0	0	0
31.25331	0.06771211	-0.1053186	0	0.004723114	0	0.1429883
31.26987	0.06771211	-0.1053186	0	0	0	-0.1427164
31.28644	0.06771211	-0.1053186	0	0	0	0
31.30301	0.0686027	-0.1039138	0.05375613	0.08479117	1.622363	2.559003
31.31958	0.0686027	-0.1039138	0	0	-1.62227	-2.558855
31.33614	0.0686027	-0.1039138	0	0	0	0
31.35287	0.09401153	-0.07011241	1.519163	2.020945	45.63304	60.7057
31.36938	0.09401153	-0.07011241	0	0	-45.70112	-60.79626
31.38639	0.09401153	-0.07011241	0	0	0	0
31.40873	0.1176645	-0.005245451	1.058464	2.90278	26.89965	73.77084
31.4253	0.1176645	-0.005245451	0	0	-27.19893	-74.59161
31.44187	0.1262978	0.04872148	0.5211707	3.257825	15.72896	98.32137
31.45868	0.1262978	0.04872148	0	0	-15.61213	-97.59106
31.475	0.1262978	0.04872148	0	0	0	0
31.49157	0.1169637	0.1125819	-0.5634755	3.855069	-17.13494	117.2302
31.50814	0.1169637	0.1125819	0	0	17.0067	-116.3529
31.52473	0.1169637	0.1125819	0	0	0	0
31.54127	0.09747954	0.1748329	-1.177829	3.763104	-35.54899	113.5772
31.55784	0.09747954	0.1748329	0	0	35.57356	-113.6558
31.5744	0.09747954	0.1748329	0	0	0	0
31.59127	0.0875911	0.2180978	-0.5862043	2.564825	-17.53222	76.7089
31.60778	0.0875911	0.2180978	0	0	17.56429	-76.84918
31.6241	0.0875911	0.2180978	0	0	0	0
31.64067	0.09056735	0.2251451	0.1796677	0.4254219	5.462949	12.93531
31.65735	0.09056735	0.2251451	0	0	-5.403409	-12.79433
31.6738	0.09056735	0.2251451	0	0	0	0
31.69175	0.09056735	0.2251451	0	0	0	0
31.70836	0.09056735	0.2251451	0	0	0	0
31.72488	0.09056735	0.2251451	0	0	0	0
31.74145	0.09056735	0.2251451	0	0	0	0
31.75802	0.09056735	0.2251451	0	0	0	0
31.77458	0.09056735	0.2251451	0	0	0	0
31.79115	0.09054125	0.2251271	-0.001575725	-0.001084969	-0.04756095	-0.03274821
31.80771	0.09054125	0.2251271	0	0	0.04756095	0.03274821
31.82428	0.09054125	0.2251271	0	0	0	0
31.84085	0.09054125	0.2251271	0	0	0	0
31.85747	0.09054125	0.2251271	0	0	0	0
31.87398	0.09054125	0.2251271	0	0	0	0
31.89055	0.09056735	0.2251091	0.001575543	-0.001084845	0.04762676	-0.03279353
31.90711	0.09056735	0.2251091	0	0	-0.04755273	0.03274256
31.92368	0.09056735	0.2251091	0	0	0	0
31.94025	0.09056735	0.2250732	0	-0.002169439	0	-0.06547381
31.95682	0.09056735	0.2250732	0	0	0	0.06547381
31.97346	0.09056735	0.2250732	0	0	0	0
31.98995	0.09067175	0.2250013	0.006332798	-0.004360465	0.1911242	-0.1315991
32.00652	0.09067175	0.2250013	0	0	-0.1916095	0.1319333
32.02308	0.09067175	0.2250013	0	0	0	0
32.03997	0.09067175	0.2249654	0	-0.002128275	0	-0.06361626
32.05621	0.09067175	0.2249654	0	0	0	0.06423888
32.07278	0.09067175	0.2249654	0	0	0	0
32.08953	0.09080225	0.2248396	0.007789376	-0.007508325	0.2337651	-0.2253305
32.10592	0.09080225	0.2248396	0	0	-0.2350838	0.2266017
32.12254	0.09080225	0.2248396	0	0	0	0
32.13905	0.09106324	0.2246239	0.01580412	-0.01305963	0.4769692	-0.3941405
32.15562	0.09106324	0.2246239	0	0	-0.4777392	0.3947768
32.17218	0.09106324	0.2246239	0	0	0	0
32.18875	0.09108934	0.22457	0.001575362	-0.003254159	0.04754452	-0.09821071
32.20559	0.09108934	0.22457	0	0	-0.04716442	0.09742557
32.22189	0.09108934	0.22457	0	0	0	0
32.23845	0.09108934	0.2244981	0	-0.004338879	0	-0.1320115
32.25526	0.09108934	0.2244981	0	0	0	0.1300195
32.27174	0.09108934	0.2244981	0	0	0	0
32.2915	0.09111543	0.2244083	0.001320178	-0.004547113	0.03642147	-0.1254471
32.30807	0.09111543	0.2244083	0	0	-0.03633734	0.1251573
32.32464	0.09111543	0.2244083	0	0	0	0
32.3413	0.09108934	0.2243543	-0.00156554	-0.003234793	-0.04710708	-0.09733491
32.35784	0.09108934	0.2243543	0	0	0.04715579	0.09743556
32.37435	0.09108934	0.2243543	0	0	0	0
32.3909	0.09111543	0.2241566	0.001576001	-0.01194106	0.04766257	-0.3611304
32.40747	0.09111543	0.2241566	0	0	-0.04758023	0.3605065
32.42404	0.09111543	0.2241566	0	0	0	0
32.44061	0.09189831	0.2234377	0.04725501	-0.04339508	1.426159	-1.309666
32.45717	0.09189831	0.2234377	0	0	-1.426159	1.309666
32.47374	0.09189831	0.2234377	0	0	0	0
32.49281	0.09223753	0.219033	0.01778832	-0.2309798	0.4991546	-6.481478
32.50938	0.09223753	0.219033	0	0	-0.4991546	6.481478
32.52605	0.09223753	0.219033	0	0	0	0
32.54251	0.1092475	0.2067058	1.033147	-0.7487284	31.18044	-22.59667
32.55908	0.1092475	0.2067058	0	0	-31.27766	22.66713
32.57565	0.1092475	0.2067058	0	0	0	0
32.5926	0.1316551	0.1634987	1.321487	-2.548135	39.41966	-76.01028
32.60878	0.1316551	0.1634987	0	0	-39.88257	76.90288
32.62535	0.1316551	0.1634987	0	0	0	0
32.64191	0.1160551	0.08610968	-0.9416176	-4.671213	-28.41808	-140.9775
32.65849	0.1160551	0.08610968	0	0	28.4148	140.9613
32.67505	0.1160551	0.08610968	0	0	0	0
32.69162	0.08610238	0.02407511	-1.807949	-3.744414	-54.57029	-113.0197
32.70818	0.08610238	0.02407511	0	0	54.564	113.0066
32.72475	0.08610238	0.02407511	0	0	0	0
32.74132	0.05696462	-0.007338795	-1.758759	-1.896147	-53.07944	-57.22584
32.75788	0.05696462	-0.007338795	0	0	53.07944	57.22584
32.7748	0.05696462	-0.007338795	0	0	0	0
32.79102	0.04158128	-0.0184126	-0.9484126	-0.6827216	-28.62644	-20.60695
32.80781	0.04158128	-0.0184126	0	0	28.72899	20.68077
32.82415	0.04158128	-0.0184126	0	0	0	0
32.84072	0.04184398	-0.01829903	0.01585661	0.0068555	0.4818261	0.2083144
32.85735	0.04184398	-0.01829903	0	0	-0.4776185	-0.2064953
32.87385	0.04184398	-0.01829903	0	0	0	0
32.89042	0.04187025	-0.01831795	0.001585705	-0.001142508	0.04795053	-0.03454859
32.90699	0.04187025	-0.01831795	0	0	-0.04785668	0.03448097
32.92355	0.04187025	-0.01831795	0	0	0	0
32.94012	0.04187025	-0.01831795	0	0	0	0
32.95668	0.04187025	-0.01831795	0	0	0	0
32.97325	0.04187025	-0.01831795	0	0	0	0
32.98993	0.04197533	-0.01839367	0.006299085	-0.004539017	0.1894524	-0.1365163
33.00639	0.04197533	-0.01839367	0	0	-0.1900849	0.136972
33.02295	0.04197533	-0.01839367	0	0	0	0
33.03952	0.04208041	-0.01846939	0.006342372	-0.004570483	0.1914572	-0.1379692
33.05608	0.04208041	-0.01846939	0	0	-0.1914132	0.1379375
33.07265	0.04208041	-0.01846939	0	0	0	0
33.08946	0.04210668	-0.01848832	0.001562677	-0.001126027	0.04681674	-0.03373501
33.10579	0.04210668	-0.01848832	0	0	-0.04716169	0.03398357
33.12249	0.04210668	-0.01848832	0	0	0	0
33.13892	0.04210668	-0.01848832	0	0	0	0
33.15549	0.04210668	-0.01848832	0	0	0	0
33.17205	0.04210668	-0.01848832	0	0	0	0
33.18903	0.04213295	-0.01850726	0.00154723	-0.001115006	0.04612201	-0.03323767
33.20554	0.04213295	-0.01850726	0	0	-0.04620608	0.03329825
33.22206	0.04213295	-0.01850726	0	0	0	0
33.23832	0.04213295	-0.01850726	0	0	0	0
33.25489	0.04213295	-0.01850726	0	0	0	0
33.27146	0.04213295	-0.01850726	0	0	0	0
33.2881	0.04213295	-0.01854512	0	-0.002274766	0	-0.06849486
33.30464	0.04213295	-0.01854512	0	0	0	0.06855786
33.32116	0.04213295	-0.01854512	0	0	0	0
33.33773	0.04215921	-0.01856405	0.001585846	-0.001142996	0.04792713	-0.03454342
33.35429	0.04215921	-0.01856405	0	0	-0.04786643	0.03449968
33.37117	0.04215921	-0.01856405	0	0	0	0
33.38767	0.04215921	-0.01856405	0	0	0	0
33.404	0.04215921	-0.01856405	0	0	0	0
33.42056	0.04215921	-0.01856405	0	0	0	0
33.43713	0.04218549	-0.01858298	0.001585705	-0.001142621	0.04785668	-0.03448436
33.4537	0.04218549	-0.01858298	0	0	-0.04785668	0.03448436
33.47026	0.04218549	-0.01858298	0	0	0	0
33.48683	0.04218549	-0.01858298	0	0	0	0
33.5034	0.04218549	-0.01858298	0	0	0	0
33.51997	0.04218549	-0.01858298	0	0	0	0
33.53653	0.04218549	-0.01858298	0	0	0	0
33.5533	0.04218549	-0.01858298	0	0	0	0
33.56984	0.04218549	-0.01858298	0	0	0	0
33.59026	0.04218549	-0.01858298	0	0	0	0
33.6028	0.04218549	-0.01858298	0	0	0	0
33.61977	0.04218549	-0.01858298	0	0	0	0
33.63594	0.04218549	-0.01858298	0	0	0	0
33.6525	0.04218549	-0.01858298	0	0	0	0
33.66979	0.04218549	-0.01858298	0	0	0	0
33.68579	0.04218549	-0.01858298	0	0	0	0
33.70231	0.04218549	-0.01858298	0	0	0	0
33.71881	0.04218549	-0.01858298	0	0	0	0
33.73534	0.04218549	-0.01858298	0	0	0	0
33.7519	0.04218549	-0.01858298	0	0	0	0
33.76886	0.04218549	-0.01858298	0	0	0	0
33.78503	0.04218549	-0.01858298	0	0	0	0
33.8016	0.04218549	-0.01858298	0	0	0	0
33.81817	0.04218549	-0.01858298	0	0	0	0
33.83491	0.04218549	-0.01858298	0	0	0	0
33.85141	0.04218549	-0.01858298	0	0	0	0
33.87048	0.04218549	-0.01858298	0	0	0	0
33.88704	0.04218549	-0.01858298	0	0	0	0
33.90361	0.04218549	-0.01858298	0	0	0	0
33.92018	0.04218549	-0.01858298	0	0	0	0
33.93674	0.04218549	-0.01858298	0	0	0	0
33.95331	0.04218549	-0.01858298	0	0	0	0
33.96998	0.04218549	-0.01858298	0	0	0	0
33.98645	0.04218549	-0.01858298	0	0	0	0
34.00301	0.04218549	-0.01858298	0	0	0	0
34.02003	0.04221175	-0.01860191	0.001543888	-0.001112756	0.04597536	-0.03313668
34.03614	0.04221175	-0.01860191	0	0	-0.04660001	0.0335869
34.05271	0.04221175	-0.01860191	0	0	0	0
34.06927	0.04221175	-0.01860191	0	0	0	0
34.08584	0.04221175	-0.01860191	0	0	0	0
34.10241	0.04221175	-0.01860191	0	0	0	0
34.11898	0.04221175	-0.01860191	0	0	0	0
34.13662	0.04221175	-0.01860191	0	0	0	0
34.15319	0.04221175	-0.01860191	0	0	0	0
34.17013	0.04221175	-0.01860191	0	0	0	0
34.18664	0.04221175	-0.01860191	0	0	0	0
34.20289	0.04221175	-0.01860191	0	0	0	0
34.21945	0.04221175	-0.01860191	0	0	0	0
34.23602	0.04221175	-0.01860191	0	0	0	0
34.25259	0.04221175	-0.01860191	0	0	0	0
34.26915	0.04221175	-0.01860191	0	0	0	0
34.28621	0.04221175	-0.01860191	0	0	0	0
34.30229	0.04221175	-0.01860191	0	0	0	0
34.31886	0.04221175	-0.01860191	0	0	0	0
34.33542	0.04221175	-0.01860191	0	0	0	0
34.35199	0.04221175	-0.01860191	0	0	0	0
34.36856	0.04221175	-0.01860191	0	0	0	0
34.38512	0.04221175	-0.01860191	0	0	0	0
34.40169	0.04221175	-0.01860191	0	0	0	0
34.41845	0.04223802	-0.01862084	0.001567301	-0.001129359	0.0470305	-0.03388904
34.43493	0.04223802	-0.01862084	0	0	-0.04714382	0.0339707
34.45145	0.04223802	-0.01862084	0	0	0	0
34.46796	0.04223802	-0.01862084	0	0	0	0
34.48452	0.04223802	-0.01862084	0	0	0	0
34.50109	0.04223802	-0.01862084	0	0	0	0
34.51797	0.04223802	-0.01862084	0	0	0	0
34.53499	0.04223802	-0.01862084	0	0	0	0
34.55079	0.04223802	-0.01862084	0	0	0	0
34.56753	0.04223802	-0.01862084	0	0	0	0
34.58392	0.04223802	-0.01862084	0	0	0	0
34.60052	0.04223802	-0.01862084	0	0	0	0
34.61705	0.04223802	-0.01862084	0	0	0	0
34.63362	0.04223802	-0.01862084	0	0	0	0
34.65019	0.04223802	-0.01862084	0	0	0	0
34.67403	0.04223802	-0.01862084	0	0	0	0
34.68411	0.04223802	-0.01862084	0	0	0	0
34.69989	0.04223802	-0.01862084	0	0	0	0
34.71646	0.04223802	-0.01862084	0	0	0	0
34.73303	0.04223802	-0.01862084	0	0	0	0
34.74959	0.04223802	-0.01862084	0	0	0	0
34.76616	0.04223802	-0.01862084	0	0	0	0
34.78272	0.04223802	-0.01862084	0	0	0	0
34.79929	0.04223802	-0.01862084	0	0	0	0
34.81586	0.04223802	-0.01862084	0	0	0	0
34.83274	0.04223802	-0.01862084	0	0	0	0
34.84899	0.04223802	-0.01862084	0	0	0	0
34.86556	0.04223802	-0.01862084	0	0	0	0
34.88225	0.04223802	-0.01862084	0	0	0	0
34.89877	0.04223802	-0.01862084	0	0	0	0
34.91526	0.04223802	-0.01862084	0	0	0	0
34.93182	0.04223802	-0.01862084	0	0	0	0
34.94839	0.04223802	-0.01862084	0	0	0	0
34.96516	0.04223802	-0.01862084	0	0	0	0
34.98152	0.04223802	-0.01862084	0	0	0	0
34.99822	0.04223802	-0.01862084	0	0	0	0
35.01466	0.04223802	-0.01862084	0	0	0	0
35.03122	0.04223802	-0.01862084	0	0	0	0
35.04779	0.04223802	-0.01862084	0	0	0	0
35.06436	0.04223802	-0.01862084	0	0	0	0
35.08125	0.04223802	-0.01862084	0	0	0	0
35.09749	0.04223802	-0.01862084	0	0	0	0
35.11427	0.04223802	-0.01862084	0	0	0	0
35.13062	0.04223802	-0.01862084	0	0	0	0
35.14731	0.04223802	-0.01862084	0	0	0	0
35.16382	0.04223802	-0.01862084	0	0	0	0
35.18032	0.04223802	-0.01862084	0	0	0	0
35.19689	0.04223802	-0.01862084	0	0	0	0
35.21346	0.04223802	-0.01862084	0	0	0	0
35.23002	0.04223802	-0.01862084	0	0	0	0
35.24659	0.04221175	-0.01863977	-0.001585705	-0.001142733	-0.04785668	-0.03448776
35.26353	0.04221175	-0.01863977	0	0	0.04732815	0.03410687
35.28004	0.04221175	-0.01863977	0	0	0	0
35.29629	0.04221175	-0.01863977	0	0	0	0
35.31285	0.04221175	-0.01863977	0	0	0	0
35.32942	0.04221175	-0.01863977	0	0	0	0
35.34599	0.04221175	-0.01863977	0	0	0	0
35.36256	0.04221175	-0.01863977	0	0	0	0
35.37913	0.04221175	-0.01863977	0	0	0	0
35.39569	0.04221175	-0.01863977	0	0	0	0
35.41225	0.04221175	-0.01863977	0	0	0	0
35.42882	0.04221175	-0.01863977	0	0	0	0
35.44565	0.04221175	-0.01863977	0	0	0	0
35.46215	0.04221175	-0.01863977	0	0	0	0
35.47852	0.04221175	-0.01863977	0	0	0	0
35.49591	0.04221175	-0.01863977	0	0	0	0
35.51248	0.04221175	-0.01863977	0	0	0	0
35.52905	0.04221175	-0.01863977	0	0	0	0
35.54562	0.04221175	-0.01863977	0	0	0	0
35.56242	0.04221175	-0.01863977	0	0	0	0
35.57875	0.04221175	-0.01863977	0	0	0	0
35.59546	0.04221175	-0.01863977	0	0	0	0
35.61197	0.04221175	-0.01863977	0	0	0	0
35.62844	0.04221175	-0.01863977	0	0	0	0
35.64501	0.04221175	-0.01863977	0	0	0	0
35.66158	0.04221175	-0.01863977	0	0	0	0
35.67815	0.04221175	-0.01863977	0	0	0	0
35.69471	0.04221175	-0.01863977	0	0	0	0
35.71128	0.04221175	-0.01863977	0	0	0	0
35.72805	0.04221175	-0.01863977	0	0	0	0
35.74442	0.04221175	-0.01863977	0	0	0	0
35.76098	0.04221175	-0.01863977	0	0	0	0
35.77755	0.04221175	-0.01863977	0	0	0	0
35.79442	0.04223802	-0.0186587	0.001557376	-0.001122318	0.04657808	-0.03356634
35.81099	0.04223802	-0.0186587	0	0	-0.04657808	0.03356634
35.82755	0.04223802	-0.0186587	0	0	0	0
35.84412	0.04223802	-0.0186587	0	0	0	0
35.86069	0.04223802	-0.0186587	0	0	0	0
35.87725	0.04223802	-0.0186587	0	0	0	0
35.89384	0.04223802	-0.0186587	0	0	0	0
35.91039	0.04223802	-0.0186587	0	0	0	0
35.92696	0.04223802	-0.0186587	0	0	0	0
35.94352	0.04223802	-0.0186587	0	0	0	0
35.96009	0.04223802	-0.0186587	0	0	0	0
35.97666	0.04223802	-0.0186587	0	0	0	0
35.99343	0.04223802	-0.0186587	0	0	0	0
36.00994	0.04223802	-0.0186587	0	0	0	0
36.02636	0.04223802	-0.0186587	0	0	0	0
36.04292	0.04223802	-0.0186587	0	0	0	0
36.05949	0.04223802	-0.0186587	0	0	0	0
36.07606	0.04223802	-0.0186587	0	0	0	0
36.09262	0.04223802	-0.0186587	0	0	0	0
36.10919	0.04223802	-0.0186587	0	0	0	0
36.12576	0.04223802	-0.0186587	0	0	0	0
36.14248	0.04223802	-0.0186587	0	0	0	0
36.15899	0.04223802	-0.0186587	0	0	0	0
36.17551	0.04223802	-0.0186587	0	0	0	0
36.19202	0.04226429	-0.01875336	0.001590608	-0.005732032	0.04814877	-0.1735124
36.20859	0.04226429	-0.01875336	0	0	-0.04808214	0.1732723
36.22516	0.04226429	-0.01875336	0	0	0	0
36.24206	0.04877707	-0.02527271	0.3853049	-0.3856934	11.5119	-11.5235
36.25829	0.04877707	-0.02527271	0	0	-11.62986	11.64159
36.27486	0.04877707	-0.02527271	0	0	0	0
36.29142	0.05741053	-0.07101786	0.5211165	-2.761183	15.72733	-83.33267
36.30799	0.05741053	-0.07101786	0	0	-15.72733	83.33267
36.32456	0.05741053	-0.07101786	0	0	0	0
36.34521	0.0563613	-0.09353814	-0.05080326	-1.090424	-1.364945	-29.29673
36.36178	0.0563613	-0.09353814	0	0	1.364945	29.29673
36.37835	0.0563613	-0.09353814	0	0	0	0
36.39491	0.0563613	-0.09353814	0	0	0	0
36.41158	0.0563613	-0.09353814	0	0	0	0
36.42859	0.05638753	-0.09351871	0.001541699	0.001142096	0.04577496	0.03391026
36.44461	0.05638753	-0.09351871	0	0	-0.04666826	-0.03457202
36.46118	0.05638753	-0.09351871	0	0	0	0
36.47775	0.05644	-0.09313018	0.003166914	0.02345189	0.09557765	0.7077795
36.49432	0.05644	-0.09313018	0	0	-0.09556665	-0.707698
36.51088	0.05644	-0.09313018	0	0	0	0
36.52745	0.05762036	-0.09210084	0.07124679	0.06213078	2.15048	1.875327
36.54402	0.05762036	-0.09210084	0	0	-2.150232	-1.875111
36.5607	0.05762036	-0.09210084	0	0	0	0
36.57715	0.05759413	-0.09208142	-0.001594614	0.001180843	-0.04812555	0.03563793
36.59372	0.05759413	-0.09208142	0	0	0.04829793	-0.03576557
36.61029	0.05759413	-0.09208142	0	0	0	0
36.62685	0.0573843	-0.09184843	-0.01266541	0.01406358	-0.3822427	0.4244397
36.64375	0.0573843	-0.09184843	0	0	0.3785384	-0.4203264
36.66027	0.0573843	-0.09184843	0	0	0	0
36.67655	0.05735807	-0.09182901	-0.001610676	0.00119228	-0.04909641	0.03634292
36.69312	0.05735807	-0.09182901	0	0	0.04902799	-0.03629227
36.70969	0.05735807	-0.09182901	0	0	0	0
36.72625	0.05735807	-0.09182901	0	0	0	0
36.74282	0.05735807	-0.09182901	0	0	0	0
36.75985	0.05735807	-0.09182901	0	0	0	0
36.77595	0.05735807	-0.09179018	0	0.002411105	0	0.07277568
36.79252	0.05735807	-0.09179018	0	0	0	-0.07379531
36.80909	0.05735807	-0.09179018	0	0	0	0
36.82586	0.0573843	-0.09177076	0.001563788	0.001157572	0.04690363	0.03471974
36.84222	0.0573843	-0.09177076	0	0	-0.04719522	-0.03493559
36.8589	0.0573843	-0.09177076	0	0	0	0
36.88018	0.05741053	-0.09163485	0.001232696	0.006387048	0.03247676	0.168274
36.89192	0.05741053	-0.09163485	0	0	-0.03733177	-0.1934296
36.90849	0.05743676	-0.09157661	0.001583232	0.003515445	0.05592707	0.1241818
36.92505	0.05743676	-0.09157661	0	0	-0.04778203	-0.1060963
36.94162	0.05743676	-0.09157661	0	0	0	0
36.95819	0.05746298	-0.09147955	0.001583007	0.005858925	0.04777525	0.1768227
36.97498	0.05746298	-0.09147955	0	0	-0.04745293	-0.1756297
36.99149	0.05746298	-0.09147955	0	0	0	0
37.008	0.05748921	-0.09138248	0.001589086	0.00588059	0.0481305	0.1781122
37.02445	0.05748921	-0.09138248	0	0	-0.04821406	-0.1784215
37.04102	0.05748921	-0.09138248	0	0	0	0
37.05758	0.05748921	-0.09138248	0	0	0	0
37.07415	0.05748921	-0.09138248	0	0	0	0
37.09071	0.05748921	-0.09138248	0	0	0	0
37.10757	0.05748921	-0.09138248	0	0	0	0
37.16229	0.05748921	-0.09138248	0	0	0	0
37.17886	0.05748921	-0.09138248	0	0	0	0
37.19543	0.05748921	-0.09142131	0	-0.00234348	0	-0.07072637
37.21214	0.05748921	-0.09142131	0	0	0	0.07041831
37.22856	0.05748921	-0.09142131	0	0	0	0
37.24512	0.05746298	-0.0914019	-0.001583232	0.001171515	-0.04799755	0.03551586
37.26169	0.05746298	-0.0914019	0	0	0.04778203	-0.0353564
37.27826	0.05746298	-0.0914019	0	0	0	0
37.29483	0.05746298	-0.0914019	0	0	0	0
37.31139	0.05746298	-0.0914019	0	0	0	0
37.32796	0.05746298	-0.0914019	0	0	0	0
37.34453	0.05748921	-0.09138248	0.001583232	0.001171965	0.04778203	0.03536997
37.36123	0.05748921	-0.09138248	0	0	-0.04758482	-0.03522398
37.37766	0.05748921	-0.09138248	0	0	0	0
37.39423	0.05748921	-0.09138248	0	0	0	0
37.4108	0.05748921	-0.09138248	0	0	0	0
37.42736	0.05748921	-0.09138248	0	0	0	0
37.44494	0.05662362	-0.08973292	-0.04925356	0.09386192	-1.442628	2.7492
37.46151	0.05662362	-0.08973292	0	0	1.442628	-2.7492
37.47807	0.05662362	-0.08973292	0	0	0	0
37.49464	0.04966964	-0.07273325	-0.4197429	1.026102	-12.66787	30.96782
37.51121	0.04966964	-0.07273325	0	0	12.66787	-30.96782
37.52777	0.04966964	-0.07273325	0	0	0	0
37.54434	0.03890142	-0.02823364	-0.6499711	2.686002	-19.61617	81.06371
37.56091	0.03890142	-0.02823364	0	0	19.61617	-81.06371
37.57748	0.03890142	-0.02823364	0	0	0	0
37.59404	0.03017505	-0.0002531995	-0.5267247	1.688903	-15.89658	50.97118
37.61061	0.03017505	-0.0002531995	0	0	15.89658	-50.97118
37.62718	0.03017505	-0.0002531995	0	0	0	0
37.64396	0.02744048	0.03111512	-0.1629948	1.869717	-4.88824	56.07313
37.66047	0.02744048	0.03111512	0	0	4.895521	-56.15665
37.67688	0.02744048	0.03111512	0	0	0	0
37.69344	0.006920942	0.08344099	-1.238562	3.158396	-37.56583	95.7948
37.71006	0.006920942	0.08344099	0	0	37.32829	-95.18906
37.72658	0.006920942	0.08344099	0	0	0	0
37.74314	-0.02076017	0.1153983	-1.670835	1.928948	-50.49568	58.2963
37.75971	-0.02076017	0.1153983	0	0	50.42591	-58.21576
37.77663	-0.02076017	0.1153983	0	0	0	0
37.79285	-0.02809787	0.1204601	-0.4524892	0.3121403	-13.65615	9.420412
37.80964	-0.02809787	0.1204601	0	0	13.70982	-9.457431
37.82598	-0.02809787	0.1204601	0	0	0	0
37.84255	-0.01755083	0.1305866	0.6366204	0.6112368	19.3424	18.57117
37.85917	-0.01755083	0.1305866	0	0	-19.18012	-18.41536
37.87568	-0.01755083	0.1305866	0	0	0	0
37.89225	0.04349886	0.1717569	3.684967	2.485046	111.4049	75.12858
37.90882	0.04349886	0.1717569	0	0	-111.2125	-74.99883
37.92538	0.04349886	0.1717569	0	0	0	0
37.94222	0.09408978	0.2058413	3.005236	2.024702	89.97311	60.61713
37.95875	0.09408978	0.2058413	0	0	-90.07598	-60.68644
37.97509	0.09408978	0.2058413	0	0	0	0
37.99382	0.1164705	0.2214244	1.194658	0.8318117	34.06269	23.71704
38.01039	0.1164705	0.2214244	0	0	-33.84184	-23.56326
38.02695	0.1164705	0.2214244	0	0	0	0
38.04352	0.1419597	0.2395108	1.538886	1.091952	46.44902	32.95896
38.0603	0.1419597	0.2395108	0	0	-46.15144	-32.74781
38.07681	0.1419597	0.2395108	0	0	0	0
38.09332	0.1655754	0.2568853	1.430718	1.052599	43.32879	31.87761
38.10978	0.1655754	0.2568853	0	0	-43.39396	-31.92556
38.12635	0.1655754	0.2568853	0	0	0	0
38.14292	0.169592	0.2599487	0.2424438	0.1849096	7.31697	5.580584
38.1599	0.169592	0.2599487	0	0	-7.226287	-5.511421
38.17605	0.169592	0.2599487	0	0	0	0
38.19289	0.169771	0.2599666	0.01062606	0.001063491	0.3220671	0.03223353
38.20918	0.169771	0.2599666	0	0	-0.3207321	-0.03209992
38.22575	0.169771	0.2599666	0	0	0	0
38.24243	0.1698732	0.2600024	0.00613099	0.002147901	0.1844179	0.06460808
38.25896	0.1698732	0.2600024	0	0	-0.1846086	-0.06467488
38.27547	0.1698732	0.2600024	0	0	0	0
38.29513	0.1698988	0.2599845	0.001300568	-0.0009110036	0.03595992	-0.0251887
38.3117	0.1698988	0.2599845	0	0	-0.03589933	0.02514627
38.32826	0.1698988	0.2599845	0	0	0	0
38.34502	0.1698988	0.2599845	0	0	0	0
38.3614	0.1698988	0.2599845	0	0	0	0
38.37796	0.1698988	0.2599845	0	0	0	0
38.39455	0.1699243	0.2599666	0.001540759	-0.001079879	0.04647344	-0.03257205
38.4111	0.1699243	0.2599666	0	0	-0.04650019	0.0325908
38.42767	0.1699243	0.2599666	0	0	0	0
38.44459	0.1699499	0.2599487	0.001511074	-0.001058456	0.0451212	-0.03160588
38.46111	0.1699499	0.2599487	0	0	-0.04518296	0.03164914
38.47763	0.1699499	0.2599487	0	0	0	0
38.49414	0.170001	0.2599129	0.00309666	-0.002169738	0.09374879	-0.065687
38.5105	0.170001	0.2599129	0	0	-0.09421667	0.06601483
38.52707	0.170001	0.2599129	0	0	0	0
38.54363	0.1700522	0.2598412	0.003085965	-0.004326287	0.0931346	-0.1305676
38.5602	0.1700522	0.2598412	0	0	-0.0931346	0.1305676
38.57722	0.1700522	0.2598412	0	0	0	0
38.59333	0.1700777	0.2597875	0.001586365	-0.003335529	0.04787659	-0.1006664
38.61025	0.1700777	0.2597875	0	0	-0.04803142	0.100992
38.62647	0.1700777	0.2597875	0	0	0	0
38.64304	0.17018	0.25968	0.006171929	-0.006486732	0.1882632	-0.1978657
38.6596	0.17018	0.25968	0	0	-0.1862692	0.19577
38.67617	0.17018	0.25968	0	0	0	0
38.69274	0.1701544	0.2596263	-0.001543432	-0.003243366	-0.04658087	-0.09788498
38.7093	0.1701544	0.2596263	0	0	0.04658087	0.09788498
38.72587	0.1701544	0.2596263	0	0	0	0
38.74244	0.1701289	0.2596084	-0.001542532	-0.001081122	-0.04655372	-0.03262833
38.75901	0.1701289	0.2596084	0	0	0.04655372	0.03262833
38.77557	0.1701289	0.2596084	0	0	0	0
38.79214	0.1700777	0.2595725	-0.003085965	-0.002164043	-0.0931346	-0.06531094
38.80871	0.1700777	0.2595725	0	0	0.0931346	0.06531094
38.82528	0.1700777	0.2595725	0	0	0	0
38.84184	0.1698221	0.2593576	-0.01542982	-0.01297346	-0.465673	-0.3915399
38.85841	0.1698221	0.2593576	0	0	0.465673	0.3915399
38.87498	0.1698221	0.2593576	0	0	0	0
38.89154	0.1676995	0.2577273	-0.1281201	-0.09840188	-3.866673	-2.969775
38.90827	0.1676995	0.2577273	0	0	3.848067	2.955484
38.92468	0.1676995	0.2577273	0	0	0	0
38.94129	0.1683902	0.2556668	0.04157308	-0.1240295	1.259027	-3.756191
38.95781	0.1683902	0.2556668	0	0	-1.254823	3.743649
38.97438	0.1683902	0.2556668	0	0	0	0
38.99094	0.1719942	0.2527816	0.217543	-0.1741542	6.56546	-5.255983
39.00787	0.1719942	0.2527816	0	0	-6.494429	5.19912
39.02408	0.1719942	0.2527816	0	0	0	0
39.0409	0.1818883	0.2426686	0.5880018	-0.6010117	17.80126	-18.19513
39.05721	0.1818883	0.2426686	0	0	-17.74593	18.13857
39.07378	0.1818883	0.2426686	0	0	0	0
39.09592	0.1535193	0.1994987	-1.281097	-1.949479	-33.09341	-50.35911
39.10691	0.1535193	0.1994987	0	0	38.66359	58.8354
39.12355	0.1310602	0.1500553	-1.350039	-2.972092	-48.86835	-107.583
39.14006	0.1310602	0.1500553	0	0	40.73019	89.66694
39.15662	0.1310602	0.1500553	0	0	0	0
39.17358	0.1054755	0.09256306	-1.508517	-3.389842	-45.00896	-101.1412
39.18975	0.1054755	0.09256306	0	0	45.52714	102.3056
39.2066	0.1054755	0.09256306	0	0	0	0
39.22311	0.06813123	0.04508041	-2.262964	-2.877321	-67.84338	-86.26173
39.23945	0.06813123	0.04508041	0	0	68.89125	87.59407
39.25614	0.06813123	0.04508041	0	0	0	0
39.27259	0.04320993	0.01780774	-1.515067	-1.658017	-45.72482	-50.03904
39.28915	0.04320993	0.01780774	0	0	45.8886	50.21827
39.30572	0.04320993	0.01780774	0	0	0	0
39.32229	0.04187025	0.01576609	-0.08086311	-0.123234	-2.440454	-3.719208
39.33886	0.04187025	0.01576609	0	0	2.440454	3.719208
39.35571	0.04187025	0.01576609	0	0	0	0
39.37199	0.04628271	0.01182926	0.271144	-0.2419165	8.184084	-7.301896
39.38855	0.04628271	0.01182926	0	0	-8.256332	7.366357
39.40512	0.04628271	0.01182926	0	0	0	0
39.42169	0.06514453	-0.001759501	1.138502	-0.8202195	34.36005	-24.75427
39.43826	0.06514453	-0.001759501	0	0	-34.36005	24.75427
39.4553	0.06514453	-0.001759501	0	0	0	0
39.47139	0.08975817	-0.01979479	1.52971	-1.120873	46.17207	-33.83192
39.48795	0.08975817	-0.01979479	0	0	-46.84084	34.32195
39.50486	0.08975817	-0.01979479	0	0	0	0
39.52109	0.1148087	-0.03806689	1.543324	-1.125716	46.57759	-33.97417
39.53785	0.1148087	-0.03806689	0	0	-46.78226	34.12346
39.55436	0.1148087	-0.03806689	0	0	0	0
39.57079	0.1287574	-0.04833368	0.8489836	-0.6248846	25.77072	-18.96824
39.58736	0.1287574	-0.04833368	0	0	-25.72901	18.93754
39.60392	0.1287574	-0.04833368	0	0	0	0
39.62049	0.1372113	-0.05466802	0.5102797	-0.3823412	15.40027	-11.53908
39.63706	0.1372113	-0.05466802	0	0	-15.40027	11.53908
39.65362	0.1372113	-0.05466802	0	0	0	0
39.67019	0.1369272	-0.05445729	-0.01714685	0.0127196	-0.5175524	0.3839224
39.68676	0.1369272	-0.05445729	0	0	0.5174928	-0.3838782
39.70332	0.1369272	-0.05445729	0	0	0	0
39.71989	0.1369014	-0.05447644	-0.001558722	-0.001156225	-0.04704233	-0.03489494
39.73646	0.1369014	-0.05447644	0	0	0.04704233	0.03489494
39.75303	0.1369014	-0.05447644	0	0	0	0
39.76959	0.1369014	-0.05447644	0	0	0	0
39.78616	0.1369014	-0.05447644	0	0	0	0
39.80275	0.1369014	-0.05447644	0	0	0	0
39.81929	0.1369014	-0.05447644	0	0	0	0
39.83586	0.1369014	-0.05447644	0	0	0	0
39.85242	0.1369014	-0.05447644	0	0	0	0
39.8693	0.1369272	-0.0544956	0.001530183	-0.001135055	0.04575435	-0.03393954
39.88556	0.1369272	-0.0544956	0	0	-0.04618103	0.03425603
39.90213	0.1369272	-0.0544956	0	0	0	0
39.9204	0.1369014	-0.05451476	-0.001412968	-0.001048312	-0.04055192	-0.03008634
39.93737	0.1369014	-0.05451476	0	0	0.04008671	0.02974119
39.95354	0.1369014	-0.05451476	0	0	0	0
39.9701	0.1368756	-0.0544956	-0.001558722	0.00115645	-0.04762351	0.03533291
39.98667	0.1368756	-0.0544956	0	0	0.04704233	-0.03490172
40.00343	0.1368756	-0.0544956	0	0	0	0
40.02043	0.1367206	-0.05461054	-0.009113999	-0.006760565	-0.2699944	-0.2002759
40.03637	0.1367206	-0.05461054	0	0	0.2766215	0.2051918
40.05294	0.1367206	-0.05461054	0	0	0	0
40.06951	0.1362041	-0.05499372	-0.03118074	-0.02312832	-0.9410367	-0.6980141
40.08607	0.1362041	-0.05499372	0	0	0.9410367	0.6980141
40.10264	0.1362041	-0.05499372	0	0	0	0
40.11921	0.1361782	-0.0550512	-0.001558722	-0.003469574	-0.04704233	-0.1047119
40.13578	0.1361782	-0.0550512	0	0	0.04704233	0.1047119
40.15234	0.1361782	-0.0550512	0	0	0	0
40.16891	0.1361524	-0.05507036	-0.001559622	-0.00115645	-0.04706948	-0.03490172
40.18556	0.1361524	-0.05507036	0	0	0.04695056	0.03481355
40.20258	0.1361524	-0.05507036	0	0	0	0
40.21861	0.1360233	-0.05520448	-0.008056989	-0.008367482	-0.2437779	-0.2531723
40.23518	0.1360233	-0.05520448	0	0	0.2471728	0.2566981
40.25175	0.1360233	-0.05520448	0	0	0	0
40.26862	0.1359716	-0.05524281	-0.00306125	-0.002270994	-0.0915351	-0.06790548
40.28488	0.1359716	-0.05524281	0	0	0.0923887	0.06853872
40.30145	0.1359716	-0.05524281	0	0	0	0
40.31802	0.1357132	-0.05543443	-0.01559352	-0.0115663	-0.4706134	-0.3490715
40.33467	0.1357132	-0.05543443	0	0	0.4693705	0.3481496
40.35115	0.1357132	-0.05543443	0	0	0	0
40.36772	0.113458	-0.07194289	-1.343329	-0.9964526	-40.64939	-30.15284
40.38428	0.113458	-0.07194289	0	0	40.54175	30.073
40.40085	0.113458	-0.07194289	0	0	0	0
40.41742	0.06192074	-0.1100653	-3.110796	-2.30107	-93.884	-69.44644
40.43399	0.06192074	-0.1100653	0	0	93.884	69.44644
40.45055	0.06192074	-0.1100653	0	0	0	0
40.46795	0.02807157	-0.1349995	-1.945485	-1.433098	-57.27731	-42.19205
40.48453	0.02807157	-0.1349995	0	0	57.26445	42.18258
40.50109	0.02807157	-0.1349995	0	0	0	0
40.51774	0.02904446	-0.1342294	0.05841447	0.04623529	1.7587	1.392018
40.53425	0.02904446	-0.1342294	0	0	-1.76133	-1.3941
40.55079	0.02904446	-0.1342294	0	0	0	0
40.56778	0.02904446	-0.1342294	0	0	0	0
40.58429	0.02904446	-0.1342294	0	0	0	0
40.60049	0.02904446	-0.1342294	0	0	0	0
40.61706	0.02909705	-0.1342294	0.003174109	0	0.09685411	0
40.63363	0.02909705	-0.1342294	0	0	-0.0957948	0
40.65019	0.02909705	-0.1342294	0	0	0	0
40.66685	0.02912334	-0.1342097	0.001578694	0.001185474	0.04751925	0.0356832
40.68333	0.02912334	-0.1342097	0	0	-0.04764508	-0.03577769
40.69989	0.02912334	-0.1342097	0	0	0	0
40.71646	0.02909705	-0.13419	-0.001587055	0.001190853	-0.0478974	0.03594002
40.73303	0.02909705	-0.13419	0	0	0.0478974	-0.03594002
40.7496	0.02909705	-0.13419	0	0	0	0
40.76616	0.02899187	-0.134111	-0.006348331	0.00476701	-0.191593	0.1438686
40.78273	0.02899187	-0.134111	0	0	0.191593	-0.1438686
40.7993	0.02899187	-0.134111	0	0	0	0
40.81596	0.02883411	-0.1339531	-0.009470219	0.009479835	-0.2850242	0.2853136
40.83243	0.02883411	-0.1339531	0	0	0.2858447	-0.2861349
40.849	0.02883411	-0.1339531	0	0	0	0
40.86556	0.02707233	-0.1326703	-0.1063413	0.07742524	-3.209387	2.336699
40.88213	0.02707233	-0.1326703	0	0	3.209387	-2.336699
40.89903	0.02707233	-0.1326703	0	0	0	0
40.91526	0.02575746	-0.1316841	-0.08100718	0.06076216	-2.445083	1.834017
40.93183	0.02575746	-0.1316841	0	0	2.469824	-1.852574
40.94904	0.02575746	-0.1316841	0	0	0	0
40.96506	0.02575746	-0.1316841	0	0	0	0
40.98153	0.02575746	-0.1316841	0	0	0	0
40.9981	0.02575746	-0.1316841	0	0	0	0
41.01684	0.02578376	-0.1317038	0.001403225	-0.001051897	0.03974146	-0.02979132
41.03341	0.02578376	-0.1317038	0	0	-0.03973287	0.02978488
41.0501	0.02578376	-0.1317038	0	0	0	0
41.0666	0.02578376	-0.1317038	0	0	0	0
41.08311	0.02578376	-0.1317038	0	0	0	0
41.09967	0.02578376	-0.1317038	0	0	0	0
41.11663	0.02578376	-0.1317038	0	0	0	0
41.13281	0.02578376	-0.1317038	0	0	0	0
41.14938	0.02578376	-0.1317038	0	0	0	0
41.16594	0.02578376	-0.1317038	0	0	0	0
41.18251	0.02578376	-0.1317038	0	0	0	0
41.19907	0.02578376	-0.1317038	0	0	0	0
41.21564	0.02581006	-0.1317235	0.001587757	-0.001191127	0.04792413	-0.03595243
41.2322	0.02581006	-0.1317235	0	0	-0.04792413	0.03595243
41.24877	0.02581006	-0.1317235	0	0	0	0
41.26534	0.02583635	-0.1317432	0.001587279	-0.001189954	0.04790419	-0.03591287
41.28226	0.02583635	-0.1317432	0	0	-0.04740212	0.03553648
41.29847	0.02583635	-0.1317432	0	0	0	0
41.31527	0.02583635	-0.1317432	0	0	0	0
41.33161	0.02583635	-0.1317432	0	0	0	0
41.34818	0.02583635	-0.1317432	0	0	0	0
41.36474	0.02581006	-0.1317235	-0.001587279	0.001189954	-0.04790419	0.03591287
41.38131	0.02581006	-0.1317235	0	0	0.04790419	-0.03591287
41.39788	0.02581006	-0.1317235	0	0	0	0
41.41444	0.02583635	-0.1317432	0.001587279	-0.001189954	0.04790419	-0.03591287
41.43101	0.02583635	-0.1317432	0	0	-0.04790419	0.03591287
41.44758	0.02583635	-0.1317432	0	0	0	0
41.4644	0.02581006	-0.1317235	-0.001563164	0.001171875	-0.04681528	0.03509654
41.48071	0.02581006	-0.1317235	0	0	0.04717639	-0.03536726
41.49728	0.02581006	-0.1317235	0	0	0	0
41.51385	0.02581006	-0.1317235	0	0	0	0
41.53046	0.02581006	-0.1317235	0	0	0	0
41.54698	0.02581006	-0.1317235	0	0	0	0
41.56355	0.02581006	-0.1317235	0	0	0	0
41.58011	0.02581006	-0.1317235	0	0	0	0
41.597	0.02581006	-0.1317235	0	0	0	0
41.61352	0.02581006	-0.1317235	0	0	0	0
41.62981	0.02581006	-0.1317235	0	0	0	0
41.64653	0.02581006	-0.1317235	0	0	0	0
41.66304	0.02581006	-0.1317235	0	0	0	0
