Time	Pos X	Pos Y	Vel X	Vel Y	Acc X	Acc Y
0.01656476	0.08024835	-0.08620435	-0.001235844	0.001327568	1.903715E-05	-2.045008E-05
0.03383297	0.08024835	-0.08620435	0	0	-1.903735E-05	2.04503E-05
0.05178215	0.08024835	-0.08620435	0	0	0	0
0.06835085	0.08024835	-0.08620435	0	0	0	0
0.0849168	0.08024835	-0.08620435	0	0	0	0
0.1014827	0.0802222	-0.08622372	-0.001578632	-0.001169357	-0.0476469	-0.035294
0.1181738	0.0802222	-0.08622372	0	0	0.04746762	0.0351612
0.1346849	0.0802222	-0.08622372	0	0	0	0
0.1511829	0.0802222	-0.08622372	0	0	0	0
0.1677497	0.0802222	-0.08622372	0	0	0	0
0.1843164	0.0802222	-0.08622372	0	0	0	0
0.2008832	0.0802222	-0.08622372	0	0	0	0
0.2174499	0.0802222	-0.08622372	0	0	0	0
0.234017	0.0802222	-0.08622372	0	0	0	0
0.2507677	0.08024835	-0.0862431	0.001561223	-0.001156906	0.04685851	-0.03472336
0.2671505	0.08024835	-0.0862431	0	0	-0.04711921	0.03491655
0.2837887	0.08024835	-0.0862431	0	0	0	0
0.3002828	0.08024835	-0.0862431	0	0	0	0
0.3168499	0.08024835	-0.0862431	0	0	0	0
0.3334166	0.08024835	-0.0862431	0	0	0	0
0.3547193	0.08024835	-0.0862431	0	0	0	0
0.3718256	0.08024835	-0.0862431	0	0	0	0
0.3878547	0.08024835	-0.0862431	0	0	0	0
0.4044206	0.08024835	-0.0862431	0	0	0	0
0.420987	0.08024835	-0.0862431	0	0	0	0
0.4375537	0.08024835	-0.0862431	0	0	0	0
0.4541208	0.08024835	-0.0862431	0	0	0	0
0.4706876	0.08024835	-0.0862431	0	0	0	0
0.4874225	0.08024835	-0.0862431	0	0	0	0
0.5039182	0.08024835	-0.0862431	0	0	0	0
0.5209507	0.08024835	-0.0862431	0	0	0	0
0.5369542	0.08024835	-0.0862431	0	0	0	0
0.5535209	0.08024835	-0.0862431	0	0	0	0
0.5700889	0.08024835	-0.0862431	0	0	0	0
0.5869931	0.08024835	-0.0862431	0	0	0	0
0.6032255	0.08024835	-0.0862431	0	0	0	0
0.620074	0.08024835	-0.0862431	0	0	0	0
0.6402863	0.08024835	-0.0862431	0	0	0	0
0.6568546	0.08024835	-0.0862431	0	0	0	0
0.6735607	0.08024835	-0.0862431	0	0	0	0
0.6899885	0.08024835	-0.0862431	0	0	0	0
0.7065647	0.08024835	-0.0862431	0	0	0	0
0.7231212	0.08024835	-0.0862431	0	0	0	0
0.7396875	0.08024835	-0.0862431	0	0	0	0
0.7562558	0.08024835	-0.0862431	0	0	0	0
0.7728209	0.08024835	-0.0862431	0	0	0	0
0.7893877	0.08024835	-0.0862431	0	0	0	0
0.8061447	0.08024835	-0.0862431	0	0	0	0
0.8225216	0.08024835	-0.0862431	0	0	0	0
0.8391787	0.08024835	-0.0862431	0	0	0	0
0.8556546	0.08024835	-0.0862431	0	0	0	0
0.8722214	0.08024835	-0.0862431	0	0	0	0
0.8887881	0.08024835	-0.0862431	0	0	0	0
0.9074482	0.08024835	-0.0862431	0	0	0	0
0.9220905	0.08024835	-0.0862431	0	0	0	0
0.9384875	0.08024835	-0.0862431	0	0	0	0
0.9550546	0.08024835	-0.0862431	0	0	0	0
0.9716222	0.08024835	-0.08628185	0	-0.002338941	0	-0.070589
0.9881877	0.08024835	-0.08628185	0	0	0	0.0705923
1.004755	0.08024835	-0.08628185	0	0	0	0
1.021649	0.08027449	-0.08630122	0.001547571	-0.001146676	0.04625028	-0.03426923
1.037888	0.08027449	-0.08630122	0	0	-0.04670764	0.03460811
1.054454	0.08027449	-0.08630122	0	0	0	0
1.071021	0.08027449	-0.08630122	0	0	0	0
1.087588	0.08027449	-0.08630122	0	0	0	0
1.104234	0.08027449	-0.08630122	0	0	0	0
1.120721	0.08030064	-0.0863206	0.001585774	-0.001175434	0.04786064	-0.03547607
1.137288	0.08030064	-0.0863206	0	0	-0.04797612	0.03556167
1.153855	0.08030064	-0.0863206	0	0	0	0
1.170421	0.08032679	-0.08633997	0.001578589	-0.001169326	0.04764381	-0.03529171
1.187237	0.08032679	-0.08633997	0	0	-0.04728839	0.03502844
1.204239	0.08032679	-0.08633997	0	0	0	0
1.220121	0.08032679	-0.08633997	0	0	0	0
1.236765	0.08032679	-0.08633997	0	0	0	0
1.253256	0.08032679	-0.08633997	0	0	0	0
1.269825	0.08032679	-0.08633997	0	0	0	0
1.286389	0.08032679	-0.08633997	0	0	0	0
1.303331	0.08032679	-0.08633997	0	0	0	0
1.319521	0.08032679	-0.08637873	0	-0.002393864	0	-0.07225268
1.336089	0.08032679	-0.08637873	0	0	0	0.07307538
1.352897	0.08032679	-0.08637873	0	0	0	0
1.369221	0.08032679	-0.08637873	0	0	0	0
1.385789	0.08032679	-0.08637873	0	0	0	0
1.402356	0.08032679	-0.08637873	0	0	0	0
1.418921	0.08032679	-0.08637873	0	0	0	0
1.435489	0.08032679	-0.08637873	0	0	0	0
1.452056	0.08032679	-0.08637873	0	0	0	0
1.479406	0.08032679	-0.08637873	0	0	0	0
1.495973	0.08032679	-0.08637873	0	0	0	0
1.512541	0.08032679	-0.08637873	0	0	0	0
1.529108	0.08032679	-0.08637873	0	0	0	0
1.545674	0.08032679	-0.08637873	0	0	0	0
1.56224	0.08035293	-0.0863981	0.00157814	-0.001169326	0.04763144	-0.0352926
1.578807	0.08035293	-0.0863981	0	0	-0.04763024	0.03529171
1.595374	0.08035293	-0.0863981	0	0	0	0
1.612033	0.08035293	-0.0863981	0	0	0	0
1.628508	0.08035293	-0.0863981	0	0	0	0
1.645074	0.08035293	-0.0863981	0	0	0	0
1.661641	0.08035293	-0.0863981	0	0	0	0
1.678207	0.08035293	-0.0863981	0	0	0	0
1.694774	0.08035293	-0.0863981	0	0	0	0
1.711597	0.08035293	-0.0863981	0	0	0	0
1.727907	0.08035293	-0.0863981	0	0	0	0
1.745264	0.08035293	-0.0863981	0	0	0	0
1.812385	0.08037908	-0.08641748	0.000389506	-0.0002887162	0.00461077	-0.003417672
1.828952	0.08037908	-0.08641748	0	0	-0.004654229	0.003449886
1.845519	0.08037908	-0.08641748	0	0	0	0
1.862087	0.08037908	-0.08641748	0	0	0	0
1.878992	0.08037908	-0.08641748	0	0	0	0
1.898756	0.08037908	-0.08641748	0	0	0	0
1.915323	0.08037908	-0.08641748	0	0	0	0
1.932007	0.08037908	-0.08641748	0	0	0	0
1.948524	0.08037908	-0.08641748	0	0	0	0
1.965024	0.08037908	-0.08641748	0	0	0	0
1.981591	0.08037908	-0.08641748	0	0	0	0
1.99854	0.08035293	-0.08643686	-0.001542532	-0.001143381	-0.04602383	-0.03411456
2.014724	0.08035293	-0.08643686	0	0	0.04655571	0.0345088
2.031563	0.08035293	-0.08643686	0	0	0	0
2.051427	0.08035293	-0.08643686	0	0	0	0
2.068164	0.08035293	-0.08643686	0	0	0	0
2.085209	0.08035293	-0.08643686	0	0	0	0
2.101129	0.08035293	-0.08643686	0	0	0	0
2.117695	0.08035293	-0.08643686	0	0	0	0
2.134263	0.08035293	-0.08643686	0	0	0	0
2.151234	0.08035293	-0.08643686	0	0	0	0
2.167396	0.08035293	-0.08643686	0	0	0	0
2.183962	0.08035293	-0.08643686	0	0	0	0
2.200528	0.08035293	-0.08643686	0	0	0	0
2.217095	0.08035293	-0.08643686	0	0	0	0
2.233782	0.08035293	-0.08643686	0	0	0	0
2.250228	0.08035293	-0.08643686	0	0	0	0
2.266795	0.08035293	-0.08643686	0	0	0	0
2.283817	0.08035293	-0.08643686	0	0	0	0
2.299928	0.08035293	-0.08643686	0	0	0	0
2.316494	0.08035293	-0.08643686	0	0	0	0
2.333062	0.08035293	-0.08643686	0	0	0	0
2.349909	0.08035293	-0.08643686	0	0	0	0
2.366195	0.08035293	-0.08643686	0	0	0	0
2.382762	0.08035293	-0.08643686	0	0	0	0
2.399328	0.08035293	-0.08643686	0	0	0	0
2.415895	0.08035293	-0.08643686	0	0	0	0
2.432467	0.08035293	-0.08643686	0	0	0	0
2.449029	0.08035293	-0.08643686	0	0	0	0
2.465595	0.08035293	-0.08643686	0	0	0	0
2.482162	0.08035293	-0.08643686	0	0	0	0
2.498729	0.08035293	-0.08643686	0	0	0	0
2.515296	0.08035293	-0.08643686	0	0	0	0
2.531862	0.08035293	-0.08643686	0	0	0	0
2.548429	0.08035293	-0.08643686	0	0	0	0
2.564996	0.08035293	-0.08643686	0	0	0	0
2.583219	0.08035293	-0.08643686	0	0	0	0
2.598129	0.08035293	-0.08643686	0	0	0	0
2.615006	0.08035293	-0.08643686	0	0	0	0
2.631264	0.08035293	-0.08643686	0	0	0	0
2.649112	0.08035293	-0.08643686	0	0	0	0
2.66568	0.08035293	-0.08643686	0	0	0	0
2.682538	0.08035293	-0.08643686	0	0	0	0
2.698813	0.08035293	-0.08643686	0	0	0	0
2.715381	0.08035293	-0.08643686	0	0	0	0
2.732079	0.08035293	-0.08643686	0	0	0	0
2.748513	0.08037908	-0.08645623	0.001590766	-0.001178681	0.04801182	-0.03557445
2.765083	0.08037908	-0.08645623	0	0	-0.04819842	0.03571271
2.781648	0.08037908	-0.08645623	0	0	0	0
2.798214	0.08037908	-0.08645623	0	0	0	0
2.814781	0.08037908	-0.08645623	0	0	0	0
2.832167	0.08037908	-0.08645623	0	0	0	0
2.85068	0.08037908	-0.08645623	0	0	0	0
2.867247	0.08037908	-0.08645623	0	0	0	0
2.883815	0.08037908	-0.08645623	0	0	0	0
2.90038	0.08040523	-0.08647561	0.001578669	-0.001169834	0.04764672	-0.03530744
2.916948	0.08040523	-0.08647561	0	0	-0.04764638	0.03530719
2.933515	0.08040523	-0.08647561	0	0	0	0
2.950081	0.08040523	-0.08651437	0	-0.002339601	0	-0.07061184
2.966648	0.08040523	-0.08651437	0	0	0	0.07061134
2.983214	0.08040523	-0.08651437	0	0	0	0
2.999808	0.08040523	-0.08651437	0	0	0	0
3.016348	0.08040523	-0.08651437	0	0	0	0
3.032915	0.08040523	-0.08651437	0	0	0	0
3.049481	0.08040523	-0.08651437	0	0	0	0
3.066048	0.08040523	-0.08651437	0	0	0	0
3.0829	0.08040523	-0.08651437	0	0	0	0
3.099181	0.08040523	-0.08651437	0	0	0	0
3.115908	0.08040523	-0.08651437	0	0	0	0
3.132317	0.08040523	-0.08651437	0	0	0	0
3.148881	0.08043137	-0.08653374	0.001578378	-0.001169502	0.04786978	-0.0354692
3.165448	0.08043137	-0.08653374	0	0	-0.04764035	0.0352992
3.182212	0.08043137	-0.08653374	0	0	0	0
3.198581	0.08043137	-0.08653374	0	0	0	0
3.215148	0.08043137	-0.08653374	0	0	0	0
3.231725	0.08043137	-0.08653374	0	0	0	0
3.248281	0.08043137	-0.08653374	0	0	0	0
3.264849	0.08043137	-0.08653374	0	0	0	0
3.281762	0.08043137	-0.08653374	0	0	0	0
3.297981	0.08043137	-0.08653374	0	0	0	0
3.314548	0.08043137	-0.08653374	0	0	0	0
3.331299	0.08043137	-0.08653374	0	0	0	0
3.347824	0.08043137	-0.08653374	0	0	0	0
3.364248	0.08043137	-0.08653374	0	0	0	0
3.380815	0.08043137	-0.08653374	0	0	0	0
3.397384	0.08043137	-0.08653374	0	0	0	0
3.413948	0.08043137	-0.08653374	0	0	0	0
3.430564	0.08043137	-0.08653374	0	0	0	0
3.447081	0.08045752	-0.08655312	0.001582821	-0.001173245	0.04777169	-0.03541014
3.463649	0.08045752	-0.08655312	0	0	-0.04784123	0.03546168
3.480215	0.08045752	-0.08655312	0	0	0	0
3.496782	0.08050981	-0.08659188	0.003156661	-0.0023395	0.09527233	-0.0706093
3.513349	0.08050981	-0.08659188	0	0	-0.09526891	0.07060676
3.529915	0.08050981	-0.08659188	0	0	0	0
3.546481	0.0805621	-0.08663063	0.003156211	-0.0023395	0.09526081	-0.07061082
3.563147	0.0805621	-0.08663063	0	0	-0.09497309	0.07039756
3.579615	0.0805621	-0.08663063	0	0	0	0
3.596182	0.08058824	-0.08665001	0.001578106	-0.00116975	0.04777169	-0.03541014
3.613175	0.08058824	-0.08665001	0	0	-0.04702302	0.03485519
3.629691	0.08058824	-0.08665001	0	0	0	0
3.648658	0.08058824	-0.08665001	0	0	0	0
3.665226	0.08058824	-0.08665001	0	0	0	0
3.681939	0.08058824	-0.08665001	0	0	0	0
3.698431	0.08061439	-0.08666939	0.001585246	-0.001175043	0.04774115	-0.0353875
3.714926	0.08061439	-0.08666939	0	0	-0.04805549	0.0356205
3.731955	0.08061439	-0.08666939	0	0	0	0
3.748058	0.08066668	-0.08670814	0.003247054	-0.002406373	0.09800403	-0.07263023
3.764627	0.08066668	-0.08670814	0	0	-0.09938359	0.07365262
3.781501	0.08066668	-0.08670814	0	0	0	0
3.797758	0.08087584	-0.08690194	0.01286544	-0.01192045	0.3883159	-0.3597936
3.814505	0.08087584	-0.08690194	0	0	-0.3898111	0.361179
3.831037	0.08087584	-0.08690194	0	0	0	0
3.847458	0.08252269	-0.0882395	0.1002861	-0.08145136	3.043283	-2.471724
3.864543	0.08252269	-0.0882395	0	0	-2.993087	2.430954
3.880592	0.08252269	-0.0882395	0	0	0	0
3.897159	0.08487456	-0.08998515	0.1419629	-0.1053706	4.352569	-3.230651
3.91409	0.08487456	-0.08998515	0	0	-4.237977	3.145597
3.930292	0.08487456	-0.08998515	0	0	0	0
3.946858	0.08516194	-0.09015977	0.01734752	-0.0105411	0.5293925	-0.3216816
3.963438	0.08516194	-0.09015977	0	0	-0.5233722	0.3180233
3.979992	0.08516194	-0.09015977	0	0	0	0
3.996559	0.101961	-0.1025683	1.014022	-0.7490011	30.61535	-22.61385
4.013126	0.101961	-0.1025683	0	0	-30.60412	22.60555
4.029693	0.101961	-0.1025683	0	0	0	0
4.049839	0.1432747	-0.1336767	2.050628	-1.544085	55.85473	-42.05758
4.066407	0.1432747	-0.1336767	0	0	-55.85328	42.05649
4.083488	0.1864409	-0.167108	2.527179	-1.957242	75.10526	-58.16731
4.09954	0.1864409	-0.167108	0	0	-76.27369	59.07224
4.116108	0.1864409	-0.167108	0	0	0	0
4.133021	0.243616	-0.2129202	3.380554	-2.70871	100.9704	-80.90377
4.14924	0.243616	-0.2129202	0	0	-102.0312	81.75375
4.165808	0.243616	-0.2129202	0	0	0	0
4.182565	0.3036758	-0.2638188	3.584163	-3.03745	107.5542	-91.14835
4.199072	0.3036758	-0.2638188	0	0	-107.7485	91.31299
4.215507	0.3036758	-0.2638188	0	0	0	0
4.234698	0.3465802	-0.3022012	2.235622	-1.999992	62.75181	-56.13791
4.251432	0.3465802	-0.3022012	0	0	-62.22958	55.67072
4.267941	0.3465802	-0.3022012	0	0	0	0
4.28443	0.3611679	-0.3155647	0.8847424	-0.8104955	26.81271	-24.5626
4.300967	0.3611679	-0.3155647	0	0	-26.78948	24.54133
4.317533	0.3611679	-0.3155647	0	0	0	0
4.334471	0.3692037	-0.3231723	0.4744306	-0.4491515	14.16061	-13.4061
4.350974	0.3692037	-0.3231723	0	0	-14.18707	13.43114
4.367232	0.3692037	-0.3231723	0	0	0	0
4.383798	0.3709878	-0.3248625	0.1076939	-0.1020289	3.280945	-3.108359
4.400522	0.3709878	-0.3248625	0	0	-3.234984	3.064815
4.417027	0.3709878	-0.3248625	0	0	0	0
4.433498	0.3709649	-0.3248409	-0.001387803	0.001315428	-0.04208567	0.03989085
4.450065	0.3709649	-0.3248409	0	0	0.0420067	-0.039816
4.466632	0.3709649	-0.3248409	0	0	0	0
4.483199	0.3708735	-0.3247975	-0.005519097	0.002617434	-0.1665691	0.07899544
4.500085	0.3708735	-0.3247975	0	0	0.1649807	-0.07824215
4.516332	0.3708735	-0.3247975	0	0	0	0
4.533258	0.3707821	-0.3247541	-0.005401713	0.002561764	-0.1628319	0.07722306
4.549465	0.3707821	-0.3247541	0	0	0.1630287	-0.07731642
4.566287	0.3707821	-0.3247541	0	0	0	0
4.582598	0.3707135	-0.3247325	-0.004206011	0.00132831	-0.1269431	0.04009021
4.59931	0.3707135	-0.3247325	0	0	0.1273666	-0.04022393
4.615734	0.3707135	-0.3247325	0	0	0	0
4.632298	0.3706678	-0.3247325	-0.002759866	0	-0.08366135	0
4.648867	0.3706678	-0.3247325	0	0	0.08329653	0
4.665432	0.3706678	-0.3247325	0	0	0	0
4.682355	0.3706678	-0.3247325	0	0	0	0
4.698565	0.3706678	-0.3247325	0	0	0	0
4.715374	0.3706678	-0.3247325	0	0	0	0
4.731699	0.370622	-0.3247758	-0.002800497	-0.002656273	-0.0845228	-0.08016993
4.748403	0.370622	-0.3247758	0	0	0.08478881	0.08042225
4.764932	0.370622	-0.3247758	0	0	0	0
4.785504	0.370622	-0.3247758	0	0	0	0
4.802073	0.370622	-0.3247758	0	0	0	0
4.820211	0.370622	-0.3247758	0	0	0	0
4.836996	0.370622	-0.3247758	0	0	0	0
4.853346	0.370622	-0.3247758	0	0	0	0
4.870016	0.370622	-0.3247758	0	0	0	0
4.886537	0.370622	-0.3247758	0	0	0	0
4.903059	0.370622	-0.3247758	0	0	0	0
4.920126	0.3705306	-0.3247325	-0.005358939	0.00254065	-0.1595427	0.07563854
4.936694	0.3705306	-0.3247325	0	0	0.1593279	-0.07553667
4.953261	0.3705306	-0.3247325	0	0	0	0
4.969827	0.3703705	-0.3246241	-0.009662297	0.006542873	-0.2916171	0.19747
4.986394	0.3703705	-0.3246241	0	0	0.2916171	-0.19747
5.00296	0.3703705	-0.3246241	0	0	0	0
5.020129	0.3702333	-0.324494	-0.007991945	0.007575337	-0.2369084	0.2245587
5.036135	0.3702333	-0.324494	0	0	0.2409062	-0.2283481
5.05305	0.3702333	-0.324494	0	0	0	0
5.069228	0.3692953	-0.3236922	-0.05798124	0.04956268	-1.752046	1.497658
5.085794	0.3692953	-0.3236922	0	0	1.770748	-1.513645
5.102582	0.3692953	-0.3236922	0	0	0	0
5.119105	0.3689061	-0.3234106	-0.02355023	0.01704447	-0.7069727	0.5116713
5.135494	0.3689061	-0.3234106	0	0	0.7155458	-0.5178761
5.152062	0.3689061	-0.3234106	0	0	0	0
5.168644	0.3686543	-0.3233456	-0.01518828	0.003919729	-0.4581655	0.1182415
5.185648	0.3686543	-0.3233456	0	0	0.4522201	-0.1167071
5.201763	0.3686543	-0.3233456	0	0	0	0
5.218327	0.368494	-0.3232806	-0.009678081	0.003922331	-0.2961595	0.1200275
5.235684	0.368494	-0.3232806	0	0	0.2853063	-0.1156289
5.251713	0.368494	-0.3232806	0	0	0	0
5.268028	0.3683336	-0.3232156	-0.009827849	0.003984115	-0.3038596	0.1231817
5.284595	0.3683336	-0.3232156	0	0	0.298889	-0.1211667
5.30177	0.3683336	-0.3232156	0	0	0	0
5.319384	0.3646409	-0.3198183	-0.2096457	0.1928719	-6.026109	5.543958
5.334297	0.3646409	-0.3198183	0	0	6.445289	-5.929599
5.350862	0.3646409	-0.3198183	0	0	0	0
5.367756	0.3490457	-0.3055863	-0.9231019	0.8424111	-27.58889	25.17727
5.383995	0.3490457	-0.3055863	0	0	27.86007	-25.42475
5.400563	0.3490457	-0.3055863	0	0	0	0
5.417127	0.3402105	-0.2974769	-0.5334163	0.4895965	-16.09993	14.77733
5.433808	0.3402105	-0.2974769	0	0	16.0452	-14.72709
5.450261	0.3402105	-0.2974769	0	0	0	0
5.469787	0.337542	-0.2950448	-0.1366639	0.1245589	-3.798457	3.462009
5.486354	0.337542	-0.2950448	0	0	3.786363	-3.450986
5.502921	0.337542	-0.2950448	0	0	0	0
5.519488	0.337542	-0.2950448	0	0	0	0
5.536055	0.337542	-0.2950448	0	0	0	0
5.552622	0.337542	-0.2950448	0	0	0	0
5.569188	0.337542	-0.2950448	0	0	0	0
5.585921	0.337542	-0.2950448	0	0	0	0
5.602429	0.337542	-0.2950448	0	0	0	0
5.618889	0.337542	-0.2950448	0	0	0	0
5.635457	0.337542	-0.2950448	0	0	0	0
5.652022	0.337542	-0.2950448	0	0	0	0
5.668587	0.3375654	-0.2950661	0.001415875	-0.001286341	0.04273673	-0.03882689
5.685155	0.3375654	-0.2950661	0	0	-0.04273243	0.03882298
5.701723	0.3375654	-0.2950661	0	0	0	0
5.718506	0.3375654	-0.2950661	0	0	0	0
5.734858	0.3375654	-0.2950661	0	0	0	0
5.751423	0.3375654	-0.2950661	0	0	0	0
5.768042	0.337542	-0.2951301	-0.001411325	-0.00385021	-0.04253022	-0.1160259
5.784554	0.337542	-0.2951301	0	0	0.04259755	0.1162096
5.801123	0.337542	-0.2951301	0	0	0	0
5.818063	0.3374717	-0.2952367	-0.00414837	-0.006292926	-0.1237995	-0.1877993
5.834257	0.3374717	-0.2952367	0	0	0.1251999	0.1899236
5.850823	0.3374717	-0.2952367	0	0	0	0
5.867387	0.3374248	-0.2952793	-0.002830114	-0.00257463	-0.08542407	-0.07771256
5.884106	0.3374248	-0.2952793	0	0	0.08503122	0.07735517
5.900523	0.3374248	-0.2952793	0	0	0	0
5.917088	0.3374014	-0.2953006	-0.001414076	-0.001286341	-0.04287434	-0.03900146
5.933655	0.3374014	-0.2953006	0	0	0.04267935	0.03882409
5.950665	0.3374014	-0.2953006	0	0	0	0
5.966787	0.337378	-0.295322	-0.001452886	-0.001323495	-0.04385136	-0.03994602
5.983681	0.337378	-0.295322	0	0	0.04400526	0.04008621
5.999921	0.337378	-0.295322	0	0	0	0
6.016487	0.337378	-0.2953646	0	-0.002574334	0	-0.07847048
6.033054	0.337378	-0.2953646	0	0	0	0.0776969
6.049717	0.337378	-0.2953646	0	0	0	0
6.066187	0.3373545	-0.2953859	-0.001422305	-0.001293827	-0.04292711	-0.03904947
6.082754	0.3373545	-0.2953859	0	0	0.04305289	0.03916389
6.09932	0.3373545	-0.2953859	0	0	0	0
6.115887	0.3373545	-0.2953859	0	0	0	0
6.138503	0.3373545	-0.2953859	0	0	0	0
6.149765	0.3373545	-0.2953859	0	0	0	0
6.165753	0.3373311	-0.2954073	-0.001467014	-0.001334665	-0.05383479	-0.04897803
6.182154	0.3373311	-0.2954073	0	0	0.04529468	0.04120837
6.198792	0.3373311	-0.2954073	0	0	0	0
6.2153	0.3373311	-0.2954073	0	0	0	0
6.231854	0.3373311	-0.2954073	0	0	0	0
6.24842	0.3373311	-0.2954073	0	0	0	0
6.264987	0.3373077	-0.2954286	-0.001413954	-0.001288029	-0.04267506	-0.03887448
6.281554	0.3373077	-0.2954286	0	0	0.04267444	0.03887392
6.29812	0.3373077	-0.2954286	0	0	0	0
6.314859	0.3373077	-0.2954286	0	0	0	0
6.331254	0.3373077	-0.2954286	0	0	0	0
6.34788	0.3373077	-0.2954286	0	0	0	0
6.364387	0.3373077	-0.2954286	0	0	0	0
6.380954	0.3373077	-0.2954286	0	0	0	0
6.39752	0.3373077	-0.2954286	0	0	0	0
6.414086	0.3372842	-0.2954499	-0.001414035	-0.001286304	-0.04267874	-0.03882353
6.430654	0.3372842	-0.2954499	0	0	0.0426769	0.03882186
6.44722	0.3372842	-0.2954499	0	0	0	0
6.463787	0.3372842	-0.2954499	0	0	0	0
6.480353	0.3372842	-0.2954499	0	0	0	0
6.49692	0.3372842	-0.2954499	0	0	0	0
6.513664	0.3372842	-0.2954499	0	0	0	0
6.530054	0.3372842	-0.2954499	0	0	0	0
6.546672	0.3372842	-0.2954499	0	0	0	0
6.563187	0.3371671	-0.2955565	-0.007095628	-0.006456805	-0.2141526	-0.1948724
6.579753	0.3371671	-0.2955565	0	0	0.2144953	0.1951842
6.596719	0.3371671	-0.2955565	0	0	0	0
6.612887	0.3206686	-0.310375	-1.020433	-0.9165217	-30.79716	-27.66108
6.629748	0.3206686	-0.310375	0	0	30.89453	27.74853
6.646022	0.3206686	-0.310375	0	0	0	0
6.662587	0.269638	-0.354164	-3.080657	-2.64349	-93.81279	-80.50008
6.679269	0.269638	-0.354164	0	0	92.65971	79.51064
6.69572	0.269638	-0.354164	0	0	0	0
6.712287	0.2028299	-0.371393	-4.032544	-1.039944	-122.1295	-31.49571
6.728854	0.2028299	-0.371393	0	0	121.7042	31.38602
6.74542	0.2028299	-0.371393	0	0	0	0
6.761987	0.1136399	-0.3170102	-5.383831	3.28274	-162.4937	99.07898
6.778555	0.1136399	-0.3170102	0	0	162.4843	-99.07328
6.79512	0.1136399	-0.3170102	0	0	0	0
6.811686	0.01347287	-0.236212	-6.046613	4.87741	-182.5055	147.2153
6.828253	0.01347287	-0.236212	0	0	182.495	-147.2069
6.845033	0.01347287	-0.236212	0	0	0	0
6.861578	-0.0500109	-0.1822528	-3.837189	3.261492	-115.1471	97.87144
6.877953	-0.0500109	-0.1822528	0	0	116.5614	-99.07361
6.894568	-0.0500109	-0.1822528	0	0	0	0
6.911095	-0.05507582	-0.1536745	-0.3064782	1.729268	-9.247535	52.17815
6.927654	-0.05507582	-0.1536745	0	0	9.263261	-52.26688
6.94422	-0.05507582	-0.1536745	0	0	0	0
6.963554	-0.02312746	-0.1301069	1.652459	1.218983	46.02934	33.95484
6.980122	-0.02312746	-0.1301069	0	0	-46.0275	-33.95349
6.996698	-0.02312746	-0.1301069	0	0	0	0
7.013255	-0.009736534	-0.1222949	0.808813	0.4718416	24.41108	14.24082
7.029822	-0.009736534	-0.1222949	0	0	-24.41811	-14.24492
7.046389	-0.009736534	-0.1222949	0	0	0	0
7.06323	-0.009683908	-0.1223342	0.0031249	-0.002333265	0.09353836	-0.06984215
7.079522	-0.009683908	-0.1223342	0	0	-0.09431376	0.07042111
7.096271	-0.009683908	-0.1223342	0	0	0	0
7.112763	-0.009657594	-0.1223539	0.001595547	-0.001191324	0.04799898	-0.0358387
7.129221	-0.009657594	-0.1223539	0	0	-0.04842269	0.03615506
7.145788	-0.009657594	-0.1223539	0	0	0	0
7.162354	-0.009578655	-0.1223735	0.004765092	-0.001185974	0.143819	-0.03579484
7.178921	-0.009578655	-0.1223735	0	0	-0.143817	0.03579433
7.195841	-0.009578655	-0.1223735	0	0	0	0
7.212329	-0.00939446	-0.1222753	0.01117136	0.005957997	0.3343853	0.178337
7.237125	-0.00939446	-0.1222753	0	0	-0.2705972	-0.144317
7.245187	-0.00939446	-0.1222753	0	0	0	0
7.261753	-0.009262893	-0.1223735	0.007942086	-0.005930043	0.3224861	-0.2407877
7.278321	-0.009262893	-0.1223735	0	0	-0.2396995	0.1789742
7.294925	-0.009262893	-0.1223735	0	0	0	0
7.311454	-0.004736807	-0.1254404	0.2738256	-0.1855419	8.26443	-5.599908
7.328021	-0.004736807	-0.1254404	0	0	-8.273599	5.60612
7.344588	-0.004736807	-0.1254404	0	0	0	0
7.361154	0.007341973	-0.1340913	0.7291606	-0.5222285	22.00738	-15.7618
7.377721	0.007341973	-0.1340913	0	0	-22.00706	15.76157
7.394288	0.007341973	-0.1340913	0	0	0	0
7.411013	0.01528828	-0.1396645	0.4751274	-0.3332365	14.2718	-10.00971
7.427422	0.01528828	-0.1396645	0	0	-14.33979	10.05739
7.444038	0.01528828	-0.1396645	0	0	0	0
7.460555	0.01636696	-0.1404363	0.06530829	-0.04672794	1.971093	-1.410313
7.477122	0.01636696	-0.1404363	0	0	-1.974019	1.412407
7.493688	0.01636696	-0.1404363	0	0	0	0
7.510302	0.01634065	-0.1404165	-0.001583533	0.001191125	-0.04772587	0.03589915
7.526821	0.01634065	-0.1404165	0	0	0.04779318	-0.03594979
7.543388	0.01634065	-0.1404165	0	0	0	0
7.560338	0.01634065	-0.1403769	0	0.002335882	0	0.06969269
7.576521	0.01634065	-0.1403769	0	0	0	-0.0705011
7.593089	0.01634065	-0.1403769	0	0	0	0
7.609654	0.01670897	-0.1401394	0.02223448	0.01433686	0.6710669	0.432706
7.626869	0.01670897	-0.1401394	0	0	-0.6582031	-0.4244114
7.642875	0.01670897	-0.1401394	0	0	0	0
7.659353	0.01741929	-0.1396447	0.04310688	0.03002105	1.327017	0.9241781
7.6769	0.01741929	-0.1396447	0	0	-1.266929	-0.8823308
7.692487	0.01741929	-0.1396447	0	0	0	0
7.709054	0.03908535	-0.1240244	1.307841	0.9428965	40.67479	29.32475
7.725621	0.03908535	-0.1240244	0	0	-39.47186	-28.45749
7.742188	0.03908535	-0.1240244	0	0	0	0
7.758985	0.06068854	-0.1080131	1.286093	0.9531933	38.54697	28.56926
7.775321	0.06068854	-0.1080131	0	0	-38.81491	-28.76785
7.791886	0.06068854	-0.1080131	0	0	0	0
7.808517	0.0732372	-0.09863325	0.7545499	0.564012	22.73049	16.99062
7.825021	0.0732372	-0.09863325	0	0	-22.77236	-17.02192
7.841587	0.0732372	-0.09863325	0	0	0	0
7.858153	0.07525236	-0.09713481	0.1216427	0.09045113	3.671394	2.729978
7.875061	0.07525236	-0.09713481	0	0	-3.634	-2.702172
7.891288	0.07525236	-0.09713481	0	0	0	0
7.907854	0.0752262	-0.09715427	-0.001579546	-0.001174315	-0.0481671	-0.03580987
7.925094	0.0752262	-0.09715427	0	0	0.04672404	0.03473704
7.941113	0.0752262	-0.09715427	0	0	0	0
7.957625	0.07517386	-0.09715427	-0.0031694	0	-0.0974263	0
7.974131	0.07517386	-0.09715427	0	0	0.09598975	0
7.990687	0.07517386	-0.09715427	0	0	0	0
8.007665	0.07512153	-0.09719317	-0.003082519	-0.002291702	-0.09192336	-0.06834052
8.023821	0.07512153	-0.09719317	0	0	0.09303328	0.06916568
8.040386	0.07512153	-0.09719317	0	0	0	0
8.062126	0.0750692	-0.09719317	-0.002407221	0	-0.06284305	0
8.07352	0.0750692	-0.09719317	0	0	0.07265215	0
8.09037	0.0750692	-0.09719317	0	0	0	0
8.106888	0.0750692	-0.09719317	0	0	0	0
8.12322	0.0750692	-0.09719317	0	0	0	0
8.139787	0.07504302	-0.09717372	-0.00157995	0.001174281	-0.0480244	0.03569363
8.156353	0.07504302	-0.09717372	0	0	0.04768573	-0.03544192
8.17292	0.07504302	-0.09717372	0	0	0	0
8.189487	0.07499069	-0.09713481	-0.003158819	0.002348427	-0.09533334	0.07087567
8.206054	0.07499069	-0.09713481	0	0	0.09533608	-0.07087771
8.222965	0.07499069	-0.09713481	0	0	0	0
8.239186	0.07488602	-0.09725154	-0.006452926	-0.007196099	-0.1947609	-0.2171912
8.255754	0.07488602	-0.09725154	0	0	0.1968059	0.2194717
8.27232	0.07488602	-0.09725154	0	0	0	0
8.288886	0.07488602	-0.09729046	0	-0.002349012	0	-0.07089741
8.305453	0.07488602	-0.09729046	0	0	0	0.07089537
8.32202	0.07488602	-0.09729046	0	0	0	0
8.338585	0.07491218	-0.097271	0.001579591	0.001174798	0.04767628	0.03545855
8.355151	0.07491218	-0.097271	0	0	-0.04767628	-0.03545855
8.371718	0.07491218	-0.097271	0	0	0	0
8.388285	0.07485985	-0.097271	-0.003159001	0	-0.09534157	0
8.404851	0.07485985	-0.097271	0	0	0.09534431	0
8.421417	0.07485985	-0.097271	0	0	0	0
8.437984	0.07485985	-0.097271	0	0	0	0
8.454625	0.07485985	-0.097271	0	0	0	0
8.471118	0.07485985	-0.097271	0	0	0	0
8.488159	0.07480751	-0.09730991	-0.003071398	-0.002283546	-0.09159043	-0.06809634
8.504683	0.07480751	-0.09730991	0	0	0.09150455	0.0680325
8.521198	0.07480751	-0.09730991	0	0	0	0
8.537385	0.07480751	-0.09730991	0	0	0	0
8.60435	0.07480751	-0.09730991	0	0	0	0
8.621244	0.07480751	-0.09730991	0	0	0	0
8.637485	0.0746505	-0.09746556	-0.00966825	-0.009584294	-0.2917883	-0.2892545
8.654268	0.0746505	-0.09746556	0	0	0.2927658	0.2902235
8.670619	0.0746505	-0.09746556	0	0	0	0
8.687292	0.07449348	-0.09758231	-0.009417631	-0.007002338	-0.2851768	-0.2120389
8.703808	0.07449348	-0.09758231	0	0	0.2837591	0.2109848
8.72032	0.07449348	-0.09758231	0	0	0	0
8.736886	0.07438879	-0.09766014	-0.006318901	-0.004698024	-0.1910292	-0.1420278
8.753453	0.07438879	-0.09766014	0	0	0.1907103	0.1417907
8.77002	0.07438879	-0.09766014	0	0	0	0
8.786868	0.07425794	-0.09775744	-0.00776651	-0.005774803	-0.232427	-0.1728215
8.803372	0.07425794	-0.09775744	0	0	0.232859	0.1731427
8.819719	0.07425794	-0.09775744	0	0	0	0
8.836286	0.07412709	-0.09785473	-0.00789885	-0.005873205	-0.2399903	-0.1784452
8.852853	0.07412709	-0.09785473	0	0	0.2383946	0.1772588
8.869419	0.07412709	-0.09785473	0	0	0	0
8.885985	0.07407475	-0.09789366	-0.00315945	-0.002349462	-0.09535789	-0.07091098
8.905999	0.07407475	-0.09789366	0	0	0.08637077	0.06422789
8.919119	0.07407475	-0.09789366	0	0	0	0
8.935686	0.07373451	-0.09818558	-0.02053682	-0.0176204	-0.6917799	-0.5935406
8.952347	0.07373451	-0.09818558	0	0	0.6180591	0.5302889
8.968838	0.07373451	-0.09818558	0	0	0	0
8.985385	0.07216395	-0.09935358	-0.09491393	-0.07058626	-2.872859	-2.136508
9.001952	0.07216395	-0.09935358	0	0	2.866241	2.131586
9.018518	0.07216395	-0.09935358	0	0	0	0
9.035085	0.07095961	-0.1002105	-0.07269839	-0.05172369	-2.194168	-1.561114
9.051653	0.07095961	-0.1002105	0	0	2.194042	1.561024
9.068219	0.07095961	-0.1002105	0	0	0	0
9.084785	0.07093342	-0.100191	-0.0015804	0.00117563	-0.04769931	0.03548264
9.101444	0.07093342	-0.100191	0	0	0.0475665	-0.03538385
9.117919	0.07093342	-0.100191	0	0	0	0
9.134485	0.07093342	-0.100152	0	0.002351261	0	0.07116191
9.151052	0.07093342	-0.100152	0	0	0	-0.07096323
9.16762	0.07093342	-0.100152	0	0	0	0
9.184994	0.07095961	-0.1001715	0.001506923	-0.001120972	0.04439796	-0.03302683
9.200756	0.07095961	-0.1001715	0	0	-0.04547641	0.03382907
9.21732	0.07095961	-0.1001715	0	0	0	0
9.233887	0.07093342	-0.100191	-0.0015804	-0.00117563	-0.04770205	-0.03548468
9.250543	0.07093342	-0.100191	0	0	0.0475706	0.03538689
9.267068	0.07093342	-0.100191	0	0	0	0
9.283587	0.07093342	-0.100191	0	0	0	0
9.300155	0.07093342	-0.100191	0	0	0	0
9.317089	0.07093342	-0.100191	0	0	0	0
9.333286	0.07093342	-0.100191	0	0	0	0
9.349854	0.07093342	-0.100191	0	0	0	0
9.366423	0.07093342	-0.100191	0	0	0	0
9.383132	0.07093342	-0.100191	0	0	0	0
9.399652	0.07093342	-0.100191	0	0	0	0
9.416146	0.07093342	-0.100191	0	0	0	0
9.437754	0.07082869	-0.1003078	-0.004847081	-0.005408786	-0.1272128	-0.1419549
9.449265	0.07082869	-0.1003078	0	0	0.1463568	0.1633174
9.465819	0.07075013	-0.1003663	-0.004745377	-0.003529779	-0.1690811	-0.1257685
9.482386	0.07075013	-0.1003663	0	0	0.1432735	0.1065719
9.498952	0.07075013	-0.1003663	0	0	0	0
9.515517	0.07072395	-0.1003858	-0.001580491	-0.001175698	-0.04770342	-0.0354857
9.532085	0.07072395	-0.1003858	0	0	0.04770068	0.03548366
9.548652	0.07072395	-0.1003858	0	0	0	0
9.565218	0.07072395	-0.1003858	0	0	0	0
9.582037	0.07072395	-0.1003858	0	0	0	0
9.598541	0.07072395	-0.1003858	0	0	0	0
9.614918	0.07072395	-0.1003858	0	0	0	0
9.631485	0.07072395	-0.1003858	0	0	0	0
9.648075	0.07072395	-0.1003858	0	0	0	0
9.664618	0.07069777	-0.1004052	-0.001582678	-0.001177775	-0.04776805	-0.03554737
9.681184	0.07069777	-0.1004052	0	0	0.04780245	0.03557297
9.69775	0.07069777	-0.1004052	0	0	0	0
9.714316	0.07069777	-0.1004052	0	0	0	0
9.730884	0.07069777	-0.1004052	0	0	0	0
9.747451	0.07069777	-0.1004052	0	0	0	0
9.764017	0.07069777	-0.1004052	0	0	0	0
9.780585	0.07069777	-0.1004052	0	0	0	0
9.797558	0.07069777	-0.1004052	0	0	0	0
9.814044	0.07069777	-0.1004052	0	0	0	0
9.830283	0.07069777	-0.1004052	0	0	0	0
9.847083	0.07069777	-0.1004052	0	0	0	0
9.863417	0.07067158	-0.1004247	-0.001603371	-0.001192379	-0.04839123	-0.03598711
9.879983	0.07067158	-0.1004247	0	0	0.0487349	0.03624268
9.896604	0.07067158	-0.1004247	0	0	0	0
9.913116	0.07067158	-0.1004247	0	0	0	0
9.929683	0.07067158	-0.1004247	0	0	0	0
9.946249	0.07067158	-0.1004247	0	0	0	0
9.962815	0.0706454	-0.1004442	-0.0015804	-0.00117563	-0.04769931	-0.03548264
9.979383	0.0706454	-0.1004442	0	0	0.04769794	0.03548162
9.995949	0.0706454	-0.1004442	0	0	0	0
10.01252	0.07067158	-0.1004637	0.0015804	-0.00117608	0.04769931	-0.03549621
10.0294	0.07067158	-0.1004637	0	0	-0.04724241	0.03515621
10.04565	0.07067158	-0.1004637	0	0	0	0
10.06243	0.07067158	-0.1004637	0	0	0	0
10.07878	0.07067158	-0.1004637	0	0	0	0
10.09546	0.07067158	-0.1004637	0	0	0	0
10.11191	0.0706454	-0.1004442	-0.00159084	0.001183849	-0.04801441	0.0357307
10.12848	0.0706454	-0.1004442	0	0	0.04817109	-0.0358473
10.14505	0.0706454	-0.1004442	0	0	0	0
10.16161	0.0706454	-0.1004442	0	0	0	0
10.17851	0.0706454	-0.1004442	0	0	0	0
10.19504	0.0706454	-0.1004442	0	0	0	0
10.21132	0.0706454	-0.1004442	0	0	0	0
10.22788	0.0706454	-0.1004442	0	0	0	0
10.24458	0.0706454	-0.1004442	0	0	0	0
10.26122	0.0706454	-0.1004442	0	0	0	0
10.27779	0.0706454	-0.1004442	0	0	0	0
10.29435	0.0706454	-0.1004442	0	0	0	0
10.31111	0.07061921	-0.1004637	-0.001562411	-0.001162363	-0.04687975	-0.0348764
10.32762	0.07061921	-0.1004637	0	0	0.04696038	0.03493639
10.34405	0.07061921	-0.1004637	0	0	0	0
10.36064	0.07061921	-0.1004637	0	0	0	0
10.37719	0.07061921	-0.1004637	0	0	0	0
10.39375	0.07061921	-0.1004637	0	0	0	0
10.41032	0.07059303	-0.1004442	-0.0015804	0.00117608	-0.04769931	0.03549621
10.42719	0.07059303	-0.1004442	0	0	0.04725993	-0.03516924
10.44371	0.07059303	-0.1004442	0	0	0	0
10.46072	0.07061921	-0.1004637	0.001539025	-0.00114529	0.04590092	-0.03415791
10.47673	0.07061921	-0.1004637	0	0	-0.04661019	0.03468572
10.49325	0.07061921	-0.1004637	0	0	0	0
10.50972	0.07061921	-0.1004637	0	0	0	0
10.5327	0.07061921	-0.1004637	0	0	0	0
10.5429	0.07061921	-0.1004637	0	0	0	0
10.55942	0.07061921	-0.1004637	0	0	0	0
10.57599	0.07061921	-0.1004637	0	0	0	0
10.59293	0.07061921	-0.1004637	0	0	0	0
10.60948	0.07061921	-0.1004637	0	0	0	0
10.62605	0.07061921	-0.1004637	0	0	0	0
10.64261	0.07061921	-0.1004637	0	0	0	0
10.65918	0.07059303	-0.1004831	-0.0015804	-0.00117563	-0.04770068	-0.03548366
10.67575	0.07059303	-0.1004831	0	0	0.04769794	0.03548162
10.69231	0.07059303	-0.1004831	0	0	0	0
10.70899	0.07056684	-0.1005026	-0.001570183	-0.001168145	-0.04723054	-0.03513737
10.72545	0.07056684	-0.1005026	0	0	0.04738959	0.0352557
10.74201	0.07056684	-0.1005026	0	0	0	0
10.75858	0.07056684	-0.1005026	0	0	0	0
10.77515	0.07056684	-0.1005026	0	0	0	0
10.79171	0.07056684	-0.1005026	0	0	0	0
10.8111	0.07054066	-0.1004831	-0.001350242	0.001004805	-0.03755123	0.02794436
10.82767	0.07054066	-0.1004831	0	0	0.03755123	-0.02794436
10.84446	0.07054066	-0.1004831	0	0	0	0
10.86099	0.07054066	-0.1004831	0	0	0	0
10.8775	0.07054066	-0.1004831	0	0	0	0
10.89402	0.07054066	-0.1004831	0	0	0	0
10.91051	0.07054066	-0.1004831	0	0	0	0
10.92707	0.07054066	-0.1004831	0	0	0	0
10.94364	0.07054066	-0.1004831	0	0	0	0
10.96021	0.07056684	-0.1005026	0.001580309	-0.001176012	0.04769519	-0.03549315
10.97677	0.07056684	-0.1005026	0	0	-0.04769519	0.03549315
10.99334	0.07056684	-0.1005026	0	0	0	0
11.00991	0.07056684	-0.1005026	0	0	0	0
11.02647	0.07056684	-0.1005026	0	0	0	0
11.04312	0.07056684	-0.1005026	0	0	0	0
11.05963	0.07056684	-0.1005026	0	0	0	0
11.07617	0.07056684	-0.1005026	0	0	0	0
11.09514	0.07056684	-0.1005026	0	0	0	0
11.10938	0.07056684	-0.1005026	0	0	0	0
11.12587	0.07056684	-0.1005026	0	0	0	0
11.14244	0.07056684	-0.1005026	0	0	0	0
11.15901	0.07054066	-0.1005221	-0.0015804	-0.00117563	-0.04769931	-0.03548264
11.17557	0.07054066	-0.1005221	0	0	0.04769794	0.03548162
11.19214	0.07054066	-0.1005221	0	0	0	0
11.20896	0.07054066	-0.1004831	0	0.002316768	0	0.06939886
11.22527	0.07054066	-0.1004831	0	0	0	-0.06992421
11.24184	0.07054066	-0.1004831	0	0	0	0
11.25848	0.07056684	-0.1004637	0.001573786	0.001170711	0.04739873	0.03525905
11.27499	0.07056684	-0.1004637	0	0	-0.04746827	-0.03531077
11.29154	0.07056684	-0.1004637	0	0	0	0
11.3081	0.07056684	-0.1004637	0	0	0	0
11.32501	0.07056684	-0.1004637	0	0	0	0
11.34124	0.07056684	-0.1004637	0	0	0	0
11.3578	0.07056684	-0.1004637	0	0	0	0
11.37437	0.07056684	-0.1004637	0	0	0	0
11.3911	0.07056684	-0.1004637	0	0	0	0
11.40762	0.07056684	-0.1004637	0	0	0	0
11.42407	0.07056684	-0.1004637	0	0	0	0
11.44064	0.07056684	-0.1004637	0	0	0	0
11.4572	0.07056684	-0.1004637	0	0	0	0
11.47377	0.07056684	-0.1004637	0	0	0	0
11.49034	0.07056684	-0.1004637	0	0	0	0
11.5069	0.07056684	-0.1004637	0	0	0	0
11.52372	0.07056684	-0.1004637	0	0	0	0
11.54004	0.07056684	-0.1004637	0	0	0	0
11.55674	0.07054066	-0.1004831	-0.001567406	-0.001165965	-0.04746837	-0.03531085
11.57325	0.07054066	-0.1004831	0	0	0.04718627	0.035101
11.58974	0.07054066	-0.1004831	0	0	0	0
11.6063	0.07056684	-0.1004637	0.0015804	0.00117563	0.04782043	0.03557274
11.62287	0.07056684	-0.1004637	0	0	-0.04769656	-0.0354806
11.64327	0.07056684	-0.1004637	0	0	0	0
11.656	0.07056684	-0.1004637	0	0	0	0
11.67257	0.07056684	-0.1004637	0	0	0	0
11.68913	0.07056684	-0.1004637	0	0	0	0
11.7057	0.07056684	-0.1004637	0	0	0	0
11.72227	0.07056684	-0.1004637	0	0	0	0
11.73883	0.07056684	-0.1004637	0	0	0	0
11.7554	0.07054066	-0.1004831	-0.0015804	-0.00117563	-0.04769794	-0.03548162
11.77197	0.07054066	-0.1004831	0	0	0.04769794	0.03548162
11.78854	0.07054066	-0.1004831	0	0	0	0
11.80522	0.07054066	-0.1004831	0	0	0	0
11.82167	0.07054066	-0.1004831	0	0	0	0
11.83823	0.07054066	-0.1004831	0	0	0	0
11.8548	0.07054066	-0.1004831	0	0	0	0
11.87137	0.07054066	-0.1004831	0	0	0	0
11.88827	0.07054066	-0.1004831	0	0	0	0
11.9045	0.07054066	-0.1004831	0	0	0	0
11.92128	0.07054066	-0.1004831	0	0	0	0
11.93763	0.07054066	-0.1004831	0	0	0	0
11.9542	0.07056684	-0.1005026	0.0015804	-0.00117608	0.04800467	-0.03572346
11.97077	0.07056684	-0.1005026	0	0	-0.04769794	0.03549519
11.98733	0.07056684	-0.1005026	0	0	0	0
12.0039	0.07056684	-0.1005026	0	0	0	0
12.02047	0.07056684	-0.1005026	0	0	0	0
12.03737	0.07056684	-0.1005026	0	0	0	0
12.0536	0.07056684	-0.1005026	0	0	0	0
12.07017	0.07056684	-0.1005026	0	0	0	0
12.08673	0.07056684	-0.1005026	0	0	0	0
12.1033	0.07056684	-0.1005026	0	0	0	0
12.11987	0.07056684	-0.1005026	0	0	0	0
12.13645	0.07056684	-0.1005026	0	0	0	0
12.153	0.07056684	-0.1005026	0	0	0	0
12.16957	0.07056684	-0.1005026	0	0	0	0
12.18613	0.07056684	-0.1005026	0	0	0	0
12.20645	0.07054066	-0.1004831	-0.001288698	0.0009590052	-0.03494072	0.0260017
12.22302	0.07054066	-0.1004831	0	0	0.03493981	-0.02600103
12.24005	0.07054066	-0.1004831	0	0	0	0
12.25615	0.07054066	-0.1004831	0	0	0	0
12.27272	0.07054066	-0.1004831	0	0	0	0
12.28928	0.07056684	-0.1005026	0.0015804	-0.00117608	0.04769931	-0.03549621
12.30585	0.07056684	-0.1005026	0	0	-0.04769931	0.03549621
12.32242	0.07056684	-0.1005026	0	0	0	0
12.33912	0.07056684	-0.1005026	0	0	0	0
12.35555	0.07056684	-0.1005026	0	0	0	0
12.37212	0.07056684	-0.1005026	0	0	0	0
12.38868	0.07059303	-0.1005221	0.001581669	-0.00117624	0.04773761	-0.03550103
12.40525	0.07059303	-0.1005221	0	0	-0.04774861	0.03550921
12.42182	0.07059303	-0.1005221	0	0	0	0
12.43918	0.07056684	-0.1005026	-0.001507931	0.001121403	-0.04443765	0.03304695
12.45519	0.07056684	-0.1005026	0	0	0.04518821	-0.03360511
12.47152	0.07056684	-0.1005026	0	0	0	0
12.48808	0.07054066	-0.1004831	-0.001580309	0.001176012	-0.04803669	0.03574729
12.50465	0.07054066	-0.1004831	0	0	0.04769382	-0.03549213
12.52122	0.07054066	-0.1004831	0	0	0	0
12.53778	0.07054066	-0.1004442	0	0.002351711	0	0.07097885
12.55472	0.07054066	-0.1004442	0	0	0	-0.07019291
12.57092	0.07054066	-0.1004442	0	0	0	0
12.58748	0.07051447	-0.1004247	-0.001580941	0.001175698	-0.04825453	0.03588545
12.60405	0.07051447	-0.1004247	0	0	0.04771563	-0.03548468
12.62062	0.07051447	-0.1004247	0	0	0	0
12.63718	0.07054066	-0.1004052	0.00158085	0.00117563	0.04771288	0.03548264
12.65375	0.07054066	-0.1004052	0	0	-0.04771288	-0.03548264
12.67032	0.07054066	-0.1004052	0	0	0	0
12.68688	0.07051447	-0.1003858	-0.001580759	0.001176012	-0.04770876	0.03549315
12.70345	0.07051447	-0.1003858	0	0	0.04770876	-0.03549315
12.72036	0.07051447	-0.1003858	0	0	0	0
12.73658	0.07051447	-0.1003858	0	0	0	0
12.75315	0.07051447	-0.1003858	0	0	0	0
12.76972	0.07051447	-0.1003858	0	0	0	0
12.78639	0.07051447	-0.1003858	0	0	0	0
12.80285	0.07051447	-0.1003858	0	0	0	0
12.81942	0.07051447	-0.1003858	0	0	0	0
12.83598	0.07054066	-0.1004052	0.001580759	-0.001176012	0.04770876	-0.03549315
12.85255	0.07054066	-0.1004052	0	0	-0.04770876	0.03549315
12.86997	0.07054066	-0.1004052	0	0	0	0
12.88568	0.07054066	-0.1004052	0	0	0	0
12.90225	0.07054066	-0.1004052	0	0	0	0
12.919	0.07054066	-0.1004052	0	0	0	0
12.9355	0.07054066	-0.1004052	0	0	0	0
12.95195	0.07054066	-0.1004052	0	0	0	0
12.96854	0.07054066	-0.1004052	0	0	0	0
12.98508	0.07054066	-0.1004052	0	0	0	0
13.00165	0.07054066	-0.1004052	0	0	0	0
13.01822	0.07054066	-0.1004052	0	0	0	0
13.03478	0.07056684	-0.1004247	0.001580582	-0.001175766	0.04770343	-0.0354857
13.05157	0.07056684	-0.1004247	0	0	-0.04739377	0.03525535
13.06811	0.07056684	-0.1004247	0	0	0	0
13.08448	0.07056684	-0.1004247	0	0	0	0
13.10111	0.07056684	-0.1004247	0	0	0	0
13.11762	0.07056684	-0.1004247	0	0	0	0
13.13418	0.07056684	-0.1004247	0	0	0	0
13.15164	0.07056684	-0.1004247	0	0	0	0
13.16732	0.07056684	-0.1004247	0	0	0	0
13.18418	0.07054066	-0.1004442	-0.001552252	-0.001154692	-0.04770101	-0.03548391
13.20045	0.07054066	-0.1004442	0	0	0.0468484	0.03484966
13.2172	0.07054066	-0.1004442	0	0	0	0
13.23358	0.07054066	-0.1004442	0	0	0	0
13.25023	0.07054066	-0.1004442	0	0	0	0
13.26672	0.07054066	-0.1004442	0	0	0	0
13.28328	0.07056684	-0.1004637	0.001580491	-0.001176148	0.04781353	-0.03558121
13.29985	0.07056684	-0.1004637	0	0	-0.04770205	0.03549825
13.31642	0.07056684	-0.1004637	0	0	0	0
13.33298	0.07056684	-0.1004637	0	0	0	0
13.35032	0.07056684	-0.1004637	0	0	0	0
13.36612	0.07056684	-0.1004637	0	0	0	0
13.38268	0.07056684	-0.1004637	0	0	0	0
13.39925	0.07056684	-0.1004637	0	0	0	0
13.41584	0.07056684	-0.1004637	0	0	0	0
13.43238	0.07059303	-0.1004831	0.001583311	-0.001177461	0.04778853	-0.0355389
13.44895	0.07059303	-0.1004831	0	0	-0.04782157	0.03556347
13.46552	0.07059303	-0.1004831	0	0	0	0
13.48241	0.07059303	-0.1004831	0	0	0	0
13.49865	0.07059303	-0.1004831	0	0	0	0
13.51522	0.07059303	-0.1004831	0	0	0	0
13.53192	0.07059303	-0.1004831	0	0	0	0
13.54835	0.07059303	-0.1004831	0	0	0	0
13.56995	0.07059303	-0.1004831	0	0	0	0
13.58151	0.07059303	-0.1005221	0	-0.003367535	0	-0.1015476
13.59809	0.07059303	-0.1005221	0	0	0	0.1196664
13.61465	0.07059303	-0.1005221	0	0	0	0
13.63122	0.07056684	-0.1005806	-0.001581123	-0.0035284	-0.04772662	-0.1065057
13.64778	0.07056684	-0.1005806	0	0	0.04772112	0.1064935
13.66435	0.07056684	-0.1005806	0	0	0	0
13.68092	0.07056684	-0.1005806	0	0	0	0
13.69819	0.07056684	-0.1005806	0	0	0	0
13.71405	0.07056684	-0.1005806	0	0	0	0
13.73071	0.07075013	-0.1007169	0.01100082	-0.008184545	0.3382557	-0.2516602
13.74718	0.07075013	-0.1007169	0	0	-0.3320149	0.2470172
13.76375	0.07075013	-0.1007169	0	0	0	0
13.78074	0.08777389	-0.1133912	1.002229	-0.7461663	29.87077	-22.23899
13.79688	0.08777389	-0.1133912	0	0	-30.24733	22.51934
13.81345	0.08777389	-0.1133912	0	0	0	0
13.83002	0.1420628	-0.1547097	3.277076	-2.494131	98.9109	-75.27952
13.84658	0.1420628	-0.1547097	0	0	-98.90237	75.27302
13.86315	0.1420628	-0.1547097	0	0	0	0
13.87979	0.1867712	-0.1898234	2.686231	-2.109756	80.88903	-63.52992
13.89628	0.1867712	-0.1898234	0	0	-81.07296	63.67438
13.91285	0.1867712	-0.1898234	0	0	0	0
13.92941	0.1977498	-0.1987196	0.6627065	-0.537004	20.00167	-16.20775
13.94598	0.1977498	-0.1987196	0	0	-20.00167	16.20775
13.96255	0.1977498	-0.1987196	0	0	0	0
13.97911	0.1976992	-0.198679	-0.003053761	0.002451104	-0.09216533	0.07397659
13.99568	0.1976992	-0.198679	0	0	0.09216798	-0.07397872
14.01225	0.1976992	-0.198679	0	0	0	0
14.02881	0.1976992	-0.1986384	0	0.002451104	0	0.07397659
14.04538	0.1976992	-0.1986384	0	0	0	-0.07397659
14.06196	0.1976992	-0.1986384	0	0	0	0
14.07851	0.1975727	-0.1985369	-0.007641049	0.006132639	-0.2306206	0.1850941
14.09508	0.1975727	-0.1985369	0	0	0.230687	-0.1851474
14.11199	0.1975727	-0.1985369	0	0	0	0
14.1304	0.1962313	-0.197461	-0.07285003	0.05843088	-2.062388	1.654181
14.14732	0.1962313	-0.197461	0	0	2.062277	-1.654092
14.16354	0.1962313	-0.197461	0	0	0	0
14.18011	0.1933437	-0.1951081	-0.1743063	0.1420282	-5.315962	4.33155
14.19667	0.1933437	-0.1951081	0	0	5.260878	-4.286666
14.21336	0.1933437	-0.1951081	0	0	0	0
14.2298	0.1782459	-0.1830994	-0.9182851	0.7303981	-27.7147	22.04409
14.24637	0.1782459	-0.1830994	0	0	27.82039	-22.12816
14.26294	0.1782459	-0.1830994	0	0	0	0
14.2799	0.1604765	-0.1691308	-1.047831	0.8237069	-31.25567	24.57029
14.29693	0.1604765	-0.1691308	0	0	30.82252	-24.22979
14.31295	0.1604765	-0.1691308	0	0	0	0
14.3292	0.1532109	-0.1634674	-0.4470978	0.3485008	-13.85472	10.79938
14.34577	0.1532109	-0.1634674	0	0	13.62362	-10.61925
14.36234	0.1532109	-0.1634674	0	0	0	0
14.37897	0.1525425	-0.1629478	-0.04017499	0.03123388	-1.210011	0.9407179
14.39547	0.1525425	-0.1629478	0	0	1.212518	-0.9426674
14.41204	0.1525425	-0.1629478	0	0	0	0
14.42903	0.1501508	-0.1610103	-0.1407443	0.1140137	-4.193716	3.397232
14.44517	0.1501508	-0.1610103	0	0	4.247792	-3.441038
14.46174	0.1501508	-0.1610103	0	0	0	0
14.4783	0.1236035	-0.1405748	-1.60249	1.233559	-48.36604	37.23103
14.49487	0.1236035	-0.1405748	0	0	48.36465	-37.22996
14.51208	0.1236035	-0.1405748	0	0	0	0
14.52808	0.09956443	-0.1223342	-1.50282	1.140324	-45.2575	34.34092
14.54457	0.09956443	-0.1223342	0	0	46.25516	-35.09793
14.56114	0.09956443	-0.1223342	0	0	0	0
14.5777	0.09654105	-0.1200562	-0.182502	0.1375078	-5.508238	4.150233
14.59427	0.09654105	-0.1200562	0	0	5.508238	-4.150233
14.61084	0.09654105	-0.1200562	0	0	0	0
14.62899	0.09714066	-0.1203114	0.03303564	-0.01405979	0.9515282	-0.4049652
14.64556	0.09714066	-0.1203114	0	0	-0.9515282	0.4049652
14.66398	0.09714066	-0.1203114	0	0	0	0
14.67869	0.09849603	-0.1192516	0.09213037	0.07204304	2.78066	2.174388
14.69526	0.09849603	-0.1192516	0	0	-2.945475	-2.303268
14.71182	0.09849603	-0.1192516	0	0	0	0
14.72839	0.1207518	-0.1025098	1.343436	1.010594	40.54733	30.50154
14.74496	0.1207518	-0.1025098	0	0	-40.54733	-30.50154
14.76152	0.1207518	-0.1025098	0	0	0	0
14.77809	0.1728882	-0.06378236	3.147141	2.337728	94.98363	70.5548
14.79466	0.1728882	-0.06378236	0	0	-94.98363	-70.5548
14.8118	0.1728882	-0.06378236	0	0	0	0
14.82781	0.2123798	-0.03574361	2.467814	1.752131	74.4445	52.85509
14.84436	0.2123798	-0.03574361	0	0	-75.80977	-53.82443
14.86133	0.2123798	-0.03574361	0	0	0	0
14.87782	0.2425995	-0.01347571	1.832403	1.350234	54.75362	40.34602
14.89406	0.2425995	-0.01347571	0	0	-55.99179	-41.25838
14.91087	0.2425995	-0.01347571	0	0	0	0
14.92737	0.2805088	0.002362383	2.297597	0.9599121	68.97829	28.81842
14.94376	0.2805088	0.002362383	0	0	-69.85835	-29.18609
14.96038	0.2805088	0.002362383	0	0	0	0
14.97689	0.3366279	-0.006754033	3.398705	-0.5521113	102.5761	-16.66323
14.99345	0.3366279	-0.006754033	0	0	-102.7476	16.6911
15.01002	0.3366279	-0.006754033	0	0	0	0
15.02659	0.3564847	-0.01894269	1.198692	-0.7357934	36.17868	-22.20757
15.04315	0.3564847	-0.01894269	0	0	-36.17868	22.20757
15.05993	0.3564847	-0.01894269	0	0	0	0
15.07695	0.3566926	-0.0186587	0.0122243	0.01669073	0.3617562	0.4939322
15.09297	0.3566926	-0.0186587	0	0	-0.3700271	-0.5052249
15.10942	0.3566926	-0.0186587	0	0	0	0
15.12965	0.3567388	-0.01858298	0.002283926	0.003744073	0.06226911	0.1020786
15.14621	0.3567388	-0.01858298	0	0	-0.06207542	-0.1017611
15.16278	0.3567388	-0.01858298	0	0	0	0
15.17935	0.3567388	-0.01858298	0	0	0	0
15.19591	0.3567388	-0.01858298	0	0	0	0
15.21466	0.3567388	-0.01858298	0	0	0	0
15.23123	0.3567388	-0.01858298	0	0	0	0
15.24789	0.3567388	-0.01858298	0	0	0	0
15.26436	0.3567388	-0.01858298	0	0	0	0
15.28093	0.3567388	-0.01858298	0	0	0	0
15.29749	0.3567388	-0.01858298	0	0	0	0
15.31407	0.3567388	-0.01858298	0	0	0	0
15.33063	0.3567388	-0.01858298	0	0	0	0
15.34746	0.3567388	-0.01858298	0	0	0	0
15.36376	0.3566926	-0.01858298	-0.002834592	0	-0.08555553	0
15.38033	0.3566926	-0.01858298	0	0	0.08625068	0
15.39689	0.3566926	-0.01858298	0	0	0	0
15.41346	0.3566926	-0.01858298	0	0	0	0
15.43003	0.3566926	-0.01858298	0	0	0	0
15.44659	0.3566926	-0.01858298	0	0	0	0
15.46401	0.3566695	-0.01860191	-0.001327385	-0.001086626	-0.03905343	-0.03196996
15.47972	0.3566695	-0.01860191	0	0	0.04006172	0.03279537
15.49629	0.3566695	-0.01860191	0	0	0	0
15.51286	0.3566464	-0.01862084	-0.001394126	-0.001142621	-0.04207601	-0.03448536
15.52942	0.3566464	-0.01862084	0	0	0.04207601	0.03448536
15.54599	0.3566464	-0.01862084	0	0	0	0
15.56256	0.3566233	-0.01863977	-0.001394206	-0.001142799	-0.04207964	-0.03449173
15.57912	0.3566233	-0.01863977	0	0	0.04207843	0.03449073
15.59627	0.3566233	-0.01863977	0	0	0	0
15.61226	0.3565771	-0.01867763	-0.00289193	-0.002368805	-0.08728366	-0.0714948
15.62882	0.3565771	-0.01867763	0	0	0.08884357	0.07277253
15.64539	0.3565771	-0.01867763	0	0	0	0
15.66196	0.3565309	-0.01867763	-0.002790211	0	-0.08421358	0
15.67852	0.3565309	-0.01867763	0	0	0.08421358	0
15.69509	0.3565309	-0.01867763	0	0	0	0
15.71166	0.3565077	-0.01869657	-0.001396005	-0.001142799	-0.04213272	-0.03449073
15.72822	0.3565077	-0.01869657	0	0	0.04213393	0.03449173
15.74536	0.3565077	-0.01869657	0	0	0	0
15.76883	0.3564153	-0.01873443	-0.003939748	-0.00161362	-0.09702259	-0.03973798
15.78584	0.3564153	-0.01873443	0	0	0.09733578	0.03986625
15.80196	0.3562304	-0.01888589	-0.01146782	-0.009394085	-0.3461095	-0.2835222
15.81853	0.3562304	-0.01888589	0	0	0.3508047	0.2873684
15.8351	0.3562304	-0.01888589	0	0	0	0
15.85189	0.3552592	-0.01968116	-0.05782936	-0.04735424	-1.733469	-1.419471
15.8684	0.3552592	-0.01968116	0	0	1.736497	1.421951
15.8848	0.3552592	-0.01968116	0	0	0	0
15.90141	0.3541716	-0.02053347	-0.06545015	-0.05128878	-1.982422	-1.553488
15.91793	0.3541716	-0.02053347	0	0	1.975346	1.547943
15.9345	0.3541716	-0.02053347	0	0	0	0
15.95106	0.3527586	-0.02165128	-0.08528942	-0.06747529	-2.574188	-2.036525
15.96763	0.3527586	-0.02165128	0	0	2.574114	2.036467
15.9842	0.3527586	-0.02165128	0	0	0	0
16.00076	0.3527586	-0.02165128	0	0	0	0
16.01733	0.3527586	-0.02165128	0	0	0	0
16.0339	0.3527586	-0.02165128	0	0	0	0
16.05046	0.3527355	-0.02163234	-0.001397723	0.001143745	-0.04218337	0.0345183
16.06703	0.3527355	-0.02163234	0	0	0.0421858	-0.03452028
16.08401	0.3527355	-0.02163234	0	0	0	0
16.10053	0.3527355	-0.02163234	0	0	0	0
16.11673	0.3527355	-0.02163234	0	0	0	0
16.1333	0.3527355	-0.02163234	0	0	0	0
16.15007	0.3527355	-0.02163234	0	0	0	0
16.16643	0.3527355	-0.02163234	0	0	0	0
16.183	0.3527355	-0.02163234	0	0	0	0
16.20012	0.3527355	-0.02163234	0	0	0	0
16.2171	0.3527355	-0.02163234	0	0	0	0
16.23325	0.3527355	-0.02163234	0	0	0	0
16.24982	0.3527355	-0.02163234	0	0	0	0
16.26717	0.3527355	-0.02163234	0	0	0	0
16.28316	0.3527355	-0.02163234	0	0	0	0
16.29955	0.3527586	-0.02165128	0.001413344	-0.001156527	0.04364982	-0.03571828
16.31611	0.3527586	-0.02165128	0	0	-0.04288935	0.03509599
16.33268	0.3527586	-0.02165128	0	0	0	0
16.34925	0.3526196	-0.02176498	-0.008392703	-0.006863711	-0.2533214	-0.2071711
16.36621	0.3526196	-0.02176498	0	0	0.2503096	0.204708
16.38238	0.3526196	-0.02176498	0	0	0	0
16.39895	0.3524573	-0.02185974	-0.009794856	-0.005719176	-0.2991917	-0.1746968
16.41573	0.3524573	-0.02185974	0	0	0.2937157	0.1714994
16.43208	0.3524573	-0.02185974	0	0	0	0
16.44864	0.3521328	-0.02204925	-0.01959197	-0.01144034	-0.5951926	-0.3475509
16.46521	0.3521328	-0.02204925	0	0	0.5912868	0.3452702
16.48178	0.3521328	-0.02204925	0	0	0	0
16.49835	0.3388066	-0.03298464	-0.8044617	-0.6601378	-24.2801	-19.92415
16.51582	0.3388066	-0.03298464	0	0	23.6365	19.39601
16.53148	0.3388066	-0.03298464	0	0	0	0
16.54805	0.2765923	-0.08328029	-3.75613	-3.03655	-116.5401	-94.21392
16.56462	0.2765923	-0.08328029	0	0	113.3668	91.64854
16.58118	0.2765923	-0.08328029	0	0	0	0
16.60223	0.2113234	-0.1347428	-3.101016	-2.445054	-82.44133	-65.0024
16.6188	0.2113234	-0.1347428	0	0	82.43715	64.99911
16.63537	0.2047227	-0.1400405	-0.398415	-0.3197692	-12.0235	-9.650099
16.65193	0.2047227	-0.1400405	0	0	12.02419	9.650655
16.6685	0.2047227	-0.1400405	0	0	0	0
16.68507	0.2131089	-0.1467187	0.5062482	-0.4031457	15.27948	-12.16766
16.70195	0.2131089	-0.1467187	0	0	-15.13312	12.05111
16.7182	0.2131089	-0.1467187	0	0	0	0
16.73477	0.2443098	-0.1805806	1.883292	-2.043909	57.39623	-62.29127
16.75133	0.2443098	-0.1805806	0	0	-56.83786	61.68528
16.7679	0.2443098	-0.1805806	0	0	0	0
16.78447	0.2534065	-0.2021134	0.5491391	-1.299874	16.57401	-39.23254
16.80103	0.2534065	-0.2021134	0	0	-16.57401	39.23254
16.8176	0.2534065	-0.2021134	0	0	0	0
16.83417	0.2469096	-0.2051868	-0.3921522	-0.185505	-11.83586	-5.598876
16.85073	0.2469096	-0.2051868	0	0	11.83518	5.598554
16.868	0.2469096	-0.2051868	0	0	0	0
16.88421	0.2468849	-0.2051664	-0.001526295	0.001256138	-0.04558869	0.03751941
16.90043	0.2468849	-0.2051664	0	0	0.04705506	-0.03872623
16.917	0.2468849	-0.2051664	0	0	0	0
16.93375	0.2464889	-0.2048405	-0.02364035	0.01945607	-0.7095869	0.5839918
16.95013	0.2464889	-0.2048405	0	0	0.7135084	-0.5872192
16.96681	0.2464889	-0.2048405	0	0	0	0
16.9833	0.2413593	-0.2006292	-0.3110569	0.2553692	-9.37746	7.698637
16.99983	0.2413593	-0.2006292	0	0	9.420797	-7.734215
17.0164	0.2413593	-0.2006292	0	0	0	0
17.03296	0.2279171	-0.1897223	-0.8114646	0.6584188	-24.49146	19.87226
17.04953	0.2279171	-0.1897223	0	0	24.49146	-19.87226
17.0661	0.2279171	-0.1897223	0	0	0	0
17.08266	0.2133603	-0.1779641	-0.8786544	0.7097278	-26.51784	21.41963
17.09923	0.2133603	-0.1779641	0	0	26.51784	-21.41963
17.1158	0.2133603	-0.1779641	0	0	0	0
17.13237	0.1805134	-0.1520032	-1.982639	1.567002	-59.83617	47.29221
17.14893	0.1805134	-0.1520032	0	0	59.83617	-47.29221
17.16645	0.1805134	-0.1520032	0	0	0	0
17.18207	0.148195	-0.1270343	-2.069138	1.598599	-62.45031	48.2486
17.19867	0.148195	-0.1270343	0	0	64.21738	-49.61383
17.21547	0.148195	-0.1270343	0	0	0	0
17.23177	0.1372888	-0.1187218	-0.6691614	0.5100186	-20.21628	15.40836
17.24833	0.1372888	-0.1187218	0	0	20.36059	-15.51835
17.26504	0.1372888	-0.1187218	0	0	0	0
17.28147	0.1373146	-0.1187415	0.001571751	-0.001194458	0.04743554	-0.03604882
17.29804	0.1373146	-0.1187415	0	0	-0.04763021	0.03619675
17.31461	0.1373146	-0.1187415	0	0	0	0
17.33117	0.1373404	-0.1187611	0.001559081	-0.00118438	0.04705859	-0.03574878
17.34774	0.1373404	-0.1187611	0	0	-0.04705588	0.03574672
17.36431	0.1373404	-0.1187611	0	0	0	0
17.38087	0.1373146	-0.1187415	-0.001558902	0.001184244	-0.04705046	0.0357426
17.39744	0.1373146	-0.1187415	0	0	0.04704775	-0.03574055
17.41411	0.1373146	-0.1187415	0	0	0	0
17.43304	0.1373146	-0.1187415	0	0	0	0
17.44961	0.1373146	-0.1187415	0	0	0	0
17.46618	0.1373146	-0.1187415	0	0	0	0
17.48274	0.1373404	-0.1187611	0.001558902	-0.001184244	0.04705046	-0.0357426
17.49931	0.1373404	-0.1187611	0	0	-0.04705046	0.0357426
17.51588	0.1373404	-0.1187611	0	0	0	0
17.53244	0.1373404	-0.1187611	0	0	0	0
17.54921	0.1373404	-0.1187611	0	0	0	0
17.56558	0.1373404	-0.1187611	0	0	0	0
17.58222	0.1374179	-0.1188199	0.00465277	-0.003535228	0.1409238	-0.1070755
17.59874	0.1374179	-0.1188199	0	0	-0.1402997	0.1066013
17.61528	0.1374179	-0.1188199	0	0	0	0
17.63184	0.137547	-0.118918	0.007794509	-0.005922118	0.2354692	-0.1789049
17.64841	0.137547	-0.118918	0	0	-0.2352523	0.1787402
17.66498	0.137547	-0.118918	0	0	0	0
17.68183	0.137547	-0.118918	0	0	0	0
17.69975	0.137547	-0.118918	0	0	0	0
17.71482	0.137547	-0.118918	0	0	0	0
17.73132	0.137547	-0.118918	0	0	0	0
17.74781	0.137547	-0.118918	0	0	0	0
17.76438	0.137547	-0.118918	0	0	0	0
17.78094	0.137547	-0.118918	0	0	0	0
17.79787	0.137547	-0.118918	0	0	0	0
17.81437	0.137547	-0.118918	0	0	0	0
17.83064	0.137547	-0.118918	0	0	0	0
17.84721	0.137547	-0.118918	0	0	0	0
17.86392	0.137547	-0.118918	0	0	0	0
17.88046	0.137547	-0.118918	0	0	0	0
17.89703	0.137547	-0.118918	0	0	0	0
17.9136	0.137547	-0.118918	0	0	0	0
17.93046	0.137547	-0.118918	0	0	0	0
17.94673	0.137547	-0.118918	0	0	0	0
17.9633	0.137547	-0.118918	0	0	0	0
17.97986	0.137547	-0.118918	0	0	0	0
17.99657	0.137547	-0.118918	0	0	0	0
18.013	0.137547	-0.118918	0	0	0	0
18.02959	0.137547	-0.118918	0	0	0	0
18.04662	0.137547	-0.118918	0	0	0	0
18.06313	0.137547	-0.118918	0	0	0	0
18.07926	0.137547	-0.118918	0	0	0	0
18.09583	0.137547	-0.118918	0	0	0	0
18.11265	0.137547	-0.118918	0	0	0	0
18.12974	0.137547	-0.118918	0	0	0	0
18.14631	0.137547	-0.118918	0	0	0	0
18.16287	0.137547	-0.118918	0	0	0	0
18.17944	0.137547	-0.118918	0	0	0	0
18.196	0.137547	-0.118918	0	0	0	0
18.21257	0.137547	-0.118918	0	0	0	0
18.22914	0.1375212	-0.1189376	-0.001558902	-0.001184244	-0.04705046	-0.0357426
18.2457	0.1375212	-0.1189376	0	0	0.04705046	0.0357426
18.26273	0.1375212	-0.1189376	0	0	0	0
18.27925	0.1375212	-0.1189376	0	0	0	0
18.2954	0.1375212	-0.1189376	0	0	0	0
18.31197	0.1375212	-0.1189376	0	0	0	0
18.32991	0.1375212	-0.1189376	0	0	0	0
18.34648	0.1375212	-0.1189376	0	0	0	0
18.36304	0.1375212	-0.1189376	0	0	0	0
18.37961	0.137547	-0.1189573	0.001558902	-0.001184693	0.04705317	-0.03575823
18.39632	0.137547	-0.1189573	0	0	-0.04684014	0.03559634
18.41274	0.137547	-0.1189573	0	0	0	0
18.42931	0.1375728	-0.1189769	0.001559081	-0.00118438	0.04727086	-0.03591003
18.44587	0.1375728	-0.1189769	0	0	-0.04705859	0.03574878
18.46244	0.1375728	-0.1189769	0	0	0	0
18.47901	0.1376245	-0.1190161	0.003116904	-0.002368937	0.09407376	-0.07149877
18.49589	0.1376245	-0.1190161	0	0	-0.09319392	0.07083007
18.51214	0.1376245	-0.1190161	0	0	0	0
18.52871	0.1376245	-0.1190161	0	0	0	0
18.54527	0.1376245	-0.1190161	0	0	0	0
18.56184	0.1376245	-0.1190161	0	0	0	0
18.57841	0.1376503	-0.1190358	0.001558722	-0.001184557	0.04704233	-0.03575001
18.59498	0.1376503	-0.1190358	0	0	-0.04704233	0.03575001
18.61154	0.1376503	-0.1190358	0	0	0	0
18.62854	0.1376245	-0.1190161	-0.001519024	0.001154388	-0.04525292	0.03439013
18.64506	0.1376245	-0.1190161	0	0	0.04532761	-0.0344469
18.66124	0.1376245	-0.1190161	0	0	0	0
18.67781	0.1376503	-0.1190358	0.001558722	-0.001184557	0.04759023	-0.03616638
18.69438	0.1376503	-0.1190358	0	0	-0.04704233	0.03575001
18.71111	0.1376503	-0.1190358	0	0	0	0
18.72751	0.1376503	-0.1190358	0	0	0	0
18.74413	0.1376503	-0.1190358	0	0	0	0
18.76065	0.1376503	-0.1190358	0	0	0	0
18.77721	0.1376503	-0.1190358	0	0	0	0
18.79995	0.1376503	-0.1190358	0	0	0	0
18.81034	0.1376503	-0.1190358	0	0	0	0
18.82691	0.1376503	-0.1190358	0	0	0	0
18.84371	0.1376503	-0.1190358	0	0	0	0
18.86004	0.1376503	-0.1190358	0	0	0	0
18.87674	0.1376761	-0.1190946	0.001546791	-0.003525577	0.04683592	-0.1067524
18.89324	0.1376761	-0.1190946	0	0	-0.04659642	0.1062065
18.90974	0.1376761	-0.1190946	0	0	0	0
18.92631	0.1377019	-0.1191535	0.001557823	-0.003553221	0.04710739	-0.1074467
18.94327	0.1377019	-0.1191535	0	0	-0.04645892	0.1059677
18.95944	0.1377019	-0.1191535	0	0	0	0
18.97601	0.1377019	-0.1191535	0	0	0	0
18.99257	0.1377019	-0.1191535	0	0	0	0
19.00914	0.1377019	-0.1191535	0	0	0	0
19.02571	0.1377019	-0.1191535	0	0	0	0
19.04233	0.1377019	-0.1191535	0	0	0	0
19.05887	0.1377019	-0.1191535	0	0	0	0
19.07541	0.1377019	-0.1191535	0	0	0	0
19.09197	0.1377019	-0.1191535	0	0	0	0
19.10854	0.1377019	-0.1191535	0	0	0	0
19.12511	0.1377019	-0.1191535	0	0	0	0
19.14192	0.1377019	-0.1191535	0	0	0	0
19.15844	0.1377019	-0.1191535	0	0	0	0
19.17481	0.1377019	-0.1191535	0	0	0	0
19.19144	0.1377019	-0.1191535	0	0	0	0
19.20794	0.1377019	-0.1191535	0	0	0	0
19.22451	0.1377019	-0.1191535	0	0	0	0
19.24108	0.1377019	-0.1191535	0	0	0	0
19.25799	0.1377019	-0.1191535	0	0	0	0
19.2745	0.1377019	-0.1191535	0	0	0	0
19.29078	0.1377019	-0.1191535	0	0	0	0
19.30753	0.1377019	-0.1191535	0	0	0	0
19.32391	0.1377278	-0.1191731	0.001576142	-0.001197341	0.04756807	-0.03613581
19.34054	0.1377278	-0.1191731	0	0	-0.04774948	0.03627362
19.35707	0.1377278	-0.1191731	0	0	0	0
19.37361	0.1377019	-0.1191535	-0.001560879	0.001185745	-0.04719163	0.03584984
19.39018	0.1377019	-0.1191535	0	0	0.04713998	-0.0358106
19.40674	0.1377019	-0.1191535	0	0	0	0
19.42331	0.1377019	-0.1191535	0	0	0	0
19.43988	0.1377019	-0.1191535	0	0	0	0
19.45644	0.1377019	-0.1191535	0	0	0	0
19.47301	0.1377278	-0.1191731	0.001558902	-0.001184244	0.04705046	-0.0357426
19.48992	0.1377278	-0.1191731	0	0	-0.04657323	0.03538007
19.50614	0.1377278	-0.1191731	0	0	0	0
19.52271	0.1377536	-0.119232	0.001558722	-0.003553221	0.0475321	-0.1083529
19.53943	0.1377536	-0.119232	0	0	-0.04682133	0.1067326
19.55597	0.1377536	-0.119232	0	0	0	0
19.57241	0.1377536	-0.119232	0	0	0	0
19.58898	0.1377536	-0.119232	0	0	0	0
19.60554	0.1377536	-0.119232	0	0	0	0
19.62269	0.1377536	-0.119232	0	0	0	0
19.63926	0.1377536	-0.119232	0	0	0	0
19.65583	0.1377536	-0.119232	0	0	0	0
19.6724	0.1377278	-0.1192123	-0.001558722	0.001184107	-0.04704233	0.03573643
19.68912	0.1377278	-0.1192123	0	0	0.04682133	-0.03556854
19.70553	0.1377278	-0.1192123	0	0	0	0
19.7221	0.1377536	-0.119232	0.001558902	-0.001184244	0.04727362	-0.03591213
19.73916	0.1377536	-0.119232	0	0	-0.04635925	0.03521751
19.75523	0.1377536	-0.119232	0	0	0	0
19.7718	0.1377536	-0.119232	0	0	0	0
19.78836	0.1377536	-0.119232	0	0	0	0
19.80523	0.1377536	-0.119232	0	0	0	0
19.82173	0.1377536	-0.119232	0	0	0	0
19.83806	0.1377536	-0.119232	0	0	0	0
19.85463	0.1377536	-0.119232	0	0	0	0
19.8712	0.1377536	-0.119232	0	0	0	0
19.88777	0.1377536	-0.119232	0	0	0	0
19.90433	0.1377536	-0.119232	0	0	0	0
19.9209	0.1377536	-0.119232	0	0	0	0
19.93769	0.1377536	-0.119232	0	0	0	0
19.95403	0.1377536	-0.119232	0	0	0	0
19.9706	0.1377536	-0.119232	0	0	0	0
19.98716	0.1377536	-0.119232	0	0	0	0
20.00376	0.1377536	-0.119232	0	0	0	0
20.02077	0.1377536	-0.119232	0	0	0	0
20.03687	0.1377536	-0.119232	0	0	0	0
20.05378	0.1377536	-0.119232	0	0	0	0
20.07	0.1377536	-0.119232	0	0	0	0
20.08657	0.1377536	-0.119232	0	0	0	0
20.10313	0.1377536	-0.119232	0	0	0	0
20.11984	0.1377536	-0.119232	0	0	0	0
20.13627	0.1377536	-0.119232	0	0	0	0
20.15284	0.1377536	-0.119232	0	0	0	0
20.1694	0.1377536	-0.119232	0	0	0	0
20.18597	0.1377536	-0.119232	0	0	0	0
20.20253	0.1377536	-0.119232	0	0	0	0
20.21931	0.1377536	-0.119232	0	0	0	0
20.23567	0.1377536	-0.119232	0	0	0	0
20.25234	0.1377536	-0.119232	0	0	0	0
20.2688	0.1377536	-0.119232	0	0	0	0
20.28537	0.1377536	-0.119232	0	0	0	0
20.30194	0.1377536	-0.119232	0	0	0	0
20.3185	0.1377536	-0.119232	0	0	0	0
20.3354	0.1377536	-0.119232	0	0	0	0
20.35164	0.1377536	-0.119232	0	0	0	0
20.3682	0.1377536	-0.119232	0	0	0	0
20.38494	0.1377536	-0.119232	0	0	0	0
20.40134	0.1377536	-0.119232	0	0	0	0
20.41791	0.1377794	-0.1192516	0.001558722	-0.001184557	0.04727911	-0.03592994
20.43497	0.1377794	-0.1192516	0	0	-0.04635128	0.03522484
20.45104	0.1377794	-0.1192516	0	0	0	0
20.46761	0.1377794	-0.1192516	0	0	0	0
20.48417	0.1377794	-0.1192516	0	0	0	0
20.50089	0.1377794	-0.1192516	0	0	0	0
20.51731	0.1377794	-0.1192516	0	0	0	0
20.53388	0.1377794	-0.1192516	0	0	0	0
20.55044	0.1377794	-0.1192516	0	0	0	0
20.56701	0.1377536	-0.119232	-0.001558722	0.001184557	-0.04704233	0.03575001
20.58358	0.1377536	-0.119232	0	0	0.04704233	-0.03575001
20.60015	0.1377536	-0.119232	0	0	0	0
20.61671	0.1377536	-0.119232	0	0	0	0
20.63328	0.1377536	-0.119232	0	0	0	0
20.64985	0.1377536	-0.119232	0	0	0	0
20.66641	0.1377536	-0.119232	0	0	0	0
20.68304	0.1377536	-0.119232	0	0	0	0
20.69958	0.1377536	-0.119232	0	0	0	0
20.71611	0.1377536	-0.119232	0	0	0	0
20.73268	0.1377536	-0.119232	0	0	0	0
20.74925	0.1377536	-0.119232	0	0	0	0
20.76581	0.1377794	-0.1192516	0.001558902	-0.001184693	0.04705046	-0.03575618
20.78263	0.1377794	-0.1192516	0	0	-0.04669829	0.03548855
20.79917	0.1377794	-0.1192516	0	0	0	0
20.81567	0.1377794	-0.1192516	0	0	0	0
20.83208	0.1377794	-0.1192516	0	0	0	0
20.84871	0.1377794	-0.1192516	0	0	0	0
20.86522	0.1377794	-0.1192516	0	0	0	0
20.88178	0.1377794	-0.1192516	0	0	0	0
20.89834	0.1377794	-0.1192516	0	0	0	0
20.91491	0.1377536	-0.119232	-0.001558722	0.001184557	-0.04704504	0.03575206
20.93148	0.1377536	-0.119232	0	0	0.04704233	-0.03575001
20.94805	0.1377536	-0.119232	0	0	0	0
20.96461	0.1377536	-0.119232	0	0	0	0
20.98118	0.1377536	-0.119232	0	0	0	0
20.99775	0.1377536	-0.119232	0	0	0	0
21.01608	0.1377536	-0.119232	0	0	0	0
21.03285	0.1377536	-0.119232	0	0	0	0
21.04922	0.1377536	-0.119232	0	0	0	0
21.0659	0.1377536	-0.119232	0	0	0	0
21.08235	0.1377536	-0.119232	0	0	0	0
21.09892	0.1377536	-0.119232	0	0	0	0
21.11548	0.1377536	-0.119232	0	0	0	0
21.13205	0.1377536	-0.119232	0	0	0	0
21.14863	0.1377536	-0.119232	0	0	0	0
21.16603	0.1377536	-0.119232	0	0	0	0
21.1826	0.1377536	-0.119232	0	0	0	0
21.19916	0.1377536	-0.119232	0	0	0	0
21.21573	0.1377794	-0.1192516	0.001558722	-0.001184557	0.04704233	-0.03575001
21.2325	0.1377794	-0.1192516	0	0	-0.04675436	0.03553116
21.24886	0.1377794	-0.1192516	0	0	0	0
21.26553	0.1377794	-0.1192516	0	0	0	0
21.282	0.1377794	-0.1192516	0	0	0	0
21.29866	0.1377794	-0.1192516	0	0	0	0
21.31516	0.1377794	-0.1192516	0	0	0	0
21.3317	0.1377794	-0.1192516	0	0	0	0
21.34826	0.1377794	-0.1192516	0	0	0	0
21.36483	0.1377794	-0.1192516	0	0	0	0
21.3814	0.1377794	-0.1192516	0	0	0	0
21.39796	0.1377794	-0.1192516	0	0	0	0
21.41453	0.1377794	-0.1192516	0	0	0	0
21.4311	0.1377794	-0.1192516	0	0	0	0
21.44776	0.1377794	-0.1192516	0	0	0	0
21.46428	0.1377794	-0.1192516	0	0	0	0
21.4808	0.1377794	-0.1192516	0	0	0	0
21.49737	0.1377794	-0.1192516	0	0	0	0
21.51393	0.1377794	-0.1192516	0	0	0	0
21.5305	0.1377794	-0.1192516	0	0	0	0
21.54733	0.1377794	-0.1192516	0	0	0	0
21.56881	0.1377794	-0.1192516	0	0	0	0
21.58538	0.1377794	-0.1192516	0	0	0	0
21.60194	0.1377794	-0.1192516	0	0	0	0
21.61851	0.1377794	-0.1192516	0	0	0	0
21.63508	0.1377794	-0.1192516	0	0	0	0
21.65165	0.1377794	-0.1192516	0	0	0	0
21.66821	0.1377794	-0.1192516	0	0	0	0
21.68478	0.1377794	-0.1192516	0	0	0	0
21.70135	0.1377794	-0.1192516	0	0	0	0
21.71791	0.1377794	-0.1192516	0	0	0	0
21.73448	0.1377794	-0.1192516	0	0	0	0
21.75149	0.1378052	-0.1192712	0.001517467	-0.00115387	0.04519625	-0.03436689
21.76761	0.1378052	-0.1192712	0	0	-0.04579723	0.03482388
21.78418	0.1378052	-0.1192712	0	0	0	0
21.801	0.137831	-0.1193301	0.001535738	-0.003500826	0.04600438	-0.1048704
21.8212	0.137831	-0.1193301	0	0	-0.04148216	0.09456162
21.83403	0.137831	-0.1193301	0	0	0	0
21.85045	0.1378569	-0.1193497	0.001573212	-0.001195568	0.05379353	-0.0408806
21.86702	0.1378569	-0.1193497	0	0	-0.04769929	0.03624926
21.88359	0.1378569	-0.1193497	0	0	0	0
21.90015	0.1379085	-0.119389	0.003117622	-0.002369933	0.09409544	-0.07152882
21.91672	0.1379085	-0.119389	0	0	-0.09410627	0.07153706
21.9336	0.1379085	-0.119389	0	0	0	0
21.94985	0.1379085	-0.119389	0	0	0	0
21.96662	0.1379085	-0.119389	0	0	0	0
21.98298	0.1379085	-0.119389	0	0	0	0
21.99965	0.1378827	-0.1193693	-0.001549269	0.001177373	-0.04690824	0.0356481
22.01612	0.1378827	-0.1193693	0	0	0.04675703	-0.03553319
22.03268	0.1378827	-0.1193693	0	0	0	0
22.04925	0.1378827	-0.1193693	0	0	0	0
22.06582	0.1378827	-0.1193693	0	0	0	0
22.08239	0.1378827	-0.1193693	0	0	0	0
22.09895	0.1378827	-0.1193693	0	0	0	0
22.11576	0.1378827	-0.1193693	0	0	0	0
22.13209	0.1378827	-0.1193693	0	0	0	0
22.14865	0.1378827	-0.1193693	0	0	0	0
22.16534	0.1378827	-0.1193693	0	0	0	0
22.18179	0.1378827	-0.1193693	0	0	0	0
22.19836	0.1378827	-0.1193693	0	0	0	0
22.21492	0.1378827	-0.1193693	0	0	0	0
22.23149	0.1378827	-0.1193693	0	0	0	0
22.24805	0.1378827	-0.1193693	0	0	0	0
22.26462	0.1378827	-0.1193693	0	0	0	0
22.28119	0.1378827	-0.1193693	0	0	0	0
22.29794	0.1378569	-0.1193497	-0.001540794	0.001171608	-0.04624569	0.03516488
22.31432	0.1378569	-0.1193497	0	0	0.04650125	-0.0353592
22.33089	0.1378569	-0.1193497	0	0	0	0
22.34811	0.1378569	-0.1193497	0	0	0	0
22.36497	0.1378569	-0.1193497	0	0	0	0
22.38124	0.1378569	-0.1193497	0	0	0	0
22.39805	0.1378569	-0.1193497	0	0	0	0
22.41438	0.1378569	-0.1193497	0	0	0	0
22.43109	0.1378569	-0.1193497	0	0	0	0
22.44751	0.137831	-0.1193301	-0.001572481	0.001195013	-0.04746031	0.03606764
22.46408	0.137831	-0.1193301	0	0	0.04766611	-0.03622404
22.48065	0.137831	-0.1193301	0	0	0	0
22.49721	0.1378052	-0.1193105	-0.00155962	0.001185239	-0.04707214	0.03577265
22.51377	0.1378052	-0.1193105	0	0	0.04708298	-0.03578089
22.53065	0.1378052	-0.1193105	0	0	0	0
22.54777	0.1376503	-0.1191927	-0.009050451	0.006878378	-0.2662464	0.2023483
22.56433	0.1376503	-0.1191927	0	0	0.2686887	-0.2042045
22.5809	0.1376503	-0.1191927	0	0	0	0
22.59747	0.1368498	-0.1185845	-0.04832506	0.03671605	-1.458537	1.108156
22.61404	0.1368498	-0.1185845	0	0	1.458453	-1.108093
22.6306	0.1368498	-0.1185845	0	0	0	0
22.64763	0.1138736	-0.101243	-1.349704	1.018707	-40.18135	30.32741
22.66424	0.1138736	-0.101243	0	0	40.13121	-30.28957
22.68077	0.1138736	-0.101243	0	0	0	0
22.69733	0.07467666	-0.07211637	-2.36757	1.7593	-71.54401	53.16312
22.7139	0.07467666	-0.07211637	0	0	71.47809	-53.11414
22.73046	0.07467666	-0.07211637	0	0	0	0
22.74729	0.04725427	-0.05202544	-1.630072	1.194266	-48.8191	35.76714
22.7636	0.04725427	-0.05202544	0	0	49.19849	-36.04511
22.78016	0.04725427	-0.05202544	0	0	0	0
22.79673	0.04465451	-0.05013116	-0.1569219	0.1143392	-4.735912	3.450764
22.81334	0.04465451	-0.05013116	0	0	4.72965	-3.446202
22.82986	0.04465451	-0.05013116	0	0	0	0
22.84643	0.04510098	-0.05049461	0.026952	-0.02194067	0.8145383	-0.6630867
22.863	0.04510098	-0.05049461	0	0	-0.8134598	0.6622088
22.87988	0.04510098	-0.05049461	0	0	0	0
22.89767	0.04489087	-0.0506094	-0.01181659	-0.006455872	-0.3408505	-0.1862201
22.91423	0.04489087	-0.0506094	0	0	0.3440113	0.1879469
22.9308	0.04489087	-0.0506094	0	0	0	0
22.94737	0.03332976	-0.0588858	-0.6978303	-0.4995642	-21.06177	-15.07775
22.96393	0.03332976	-0.0588858	0	0	21.06056	15.07688
22.98062	0.03332976	-0.0588858	0	0	0	0
22.99713	0.006131502	-0.07871653	-1.64738	-1.201134	-49.62946	-36.18572
23.01363	0.006131502	-0.07871653	0	0	49.8961	36.38013
23.0302	0.006131502	-0.07871653	0	0	0	0
23.04677	-0.01052593	-0.09093603	-1.005444	-0.7375702	-30.34437	-22.25991
23.06334	-0.01052593	-0.09093603	0	0	30.34437	22.25991
23.0799	-0.01052593	-0.09093603	0	0	0	0
23.09647	-0.01213098	-0.09219793	-0.09688144	-0.07616872	-2.923888	-2.298777
23.11304	-0.01213098	-0.09219793	0	0	2.923719	2.298644
23.12972	-0.01213098	-0.09219793	0	0	0	0
23.14617	-0.01210467	-0.09217852	0.001599597	0.00118039	0.04828148	0.03562836
23.16274	-0.01210467	-0.09217852	0	0	-0.04844044	-0.03574566
23.1793	-0.01210467	-0.09217852	0	0	0	0
23.19792	-0.01192049	-0.09204259	0.009894049	0.007301806	0.2812629	0.2075719
23.21452	-0.01192049	-0.09204259	0	0	-0.2809734	-0.2073583
23.23105	-0.01192049	-0.09204259	0	0	0	0
23.24762	-0.01184155	-0.09202317	0.004764593	0.001171965	0.1439283	0.03540258
23.26419	-0.01184155	-0.09202317	0	0	-0.1437957	-0.03536997
23.28076	-0.01184155	-0.09202317	0	0	0	0
23.29755	-0.01184155	-0.09202317	0	0	0	0
23.31389	-0.01184155	-0.09202317	0	0	0	0
23.33057	-0.01184155	-0.09202317	0	0	0	0
23.3471	-0.01176262	-0.09196492	0.004777243	0.003525229	0.1438628	0.1061594
23.36359	-0.01176262	-0.09196492	0	0	-0.1446855	-0.1067665
23.38016	-0.01176262	-0.09196492	0	0	0	0
23.39672	-0.01176262	-0.09196492	0	0	0	0
23.41329	-0.01176262	-0.09196492	0	0	0	0
23.42986	-0.01176262	-0.09196492	0	0	0	0
23.44667	-0.01168368	-0.09190667	0.004694867	0.003464443	0.140647	0.1037864
23.46317	-0.01168368	-0.09190667	0	0	-0.1409449	-0.1040063
23.47956	-0.01168368	-0.09190667	0	0	0	0
23.49692	-0.01149949	-0.09177076	0.0106082	0.007827948	0.3142942	0.2319224
23.51269	-0.01149949	-0.09177076	0	0	-0.3201375	-0.2362343
23.52926	-0.01149949	-0.09177076	0	0	0	0
23.54582	-0.008657678	-0.08975232	0.1715718	0.1218611	5.178942	3.678412
23.56271	-0.008657678	-0.08975232	0	0	-5.129329	-3.643174
23.57895	-0.008657678	-0.08975232	0	0	0	0
23.59572	-0.007394602	-0.08893763	0.07534596	0.04859901	2.282354	1.472145
23.6121	-0.007394602	-0.08893763	0	0	-2.273291	-1.466299
23.62876	-0.007394602	-0.08893763	0	0	0	0
23.64525	-0.007315659	-0.08899581	0.004786506	-0.003527687	0.1443905	-0.1064168
23.66179	-0.007315659	-0.08899581	0	0	-0.1448907	0.1067854
23.67836	-0.007315659	-0.08899581	0	0	0	0
23.69529	-0.007289344	-0.0890152	0.001553822	-0.001145171	0.04638182	-0.03418351
23.71149	-0.007289344	-0.0890152	0	0	-0.04689714	0.03456331
23.72806	-0.007289344	-0.0890152	0	0	0	0
23.74573	-0.003894717	-0.08682442	0.1920745	0.1239583	5.609534	3.620201
23.7623	-0.003894717	-0.08682442	0	0	-5.60891	-3.619798
23.77887	-0.003894717	-0.08682442	0	0	0	0
23.79751	0.02097061	-0.08239014	1.33394	0.237884	37.88767	6.756579
23.81408	0.02097061	-0.08239014	0	0	-37.88767	-6.756579
23.83064	0.02097061	-0.08239014	0	0	0	0
23.84721	0.04869831	-0.09015977	1.67384	-0.4690298	50.5195	-14.15616
23.86378	0.04869831	-0.09015977	0	0	-50.5195	14.15616
23.88043	0.04869831	-0.09015977	0	0	0	0
23.89773	0.06003304	-0.09828289	0.6551998	-0.4695536	19.29742	-13.82964
23.9143	0.06003304	-0.09828289	0	0	-19.34524	13.8639
23.93086	0.06003304	-0.09828289	0	0	0	0
23.94748	0.05982327	-0.09816612	-0.01262837	0.007029815	-0.380621	0.2118797
23.964	0.05982327	-0.09816612	0	0	0.3811249	-0.2121602
23.98057	0.05982327	-0.09816612	0	0	0	0
23.99713	0.05977083	-0.09812719	-0.003165704	0.002350047	-0.09554664	0.07092863
24.0137	0.05977083	-0.09812719	0	0	0.09554664	-0.07092863
24.03027	0.05977083	-0.09812719	0	0	0	0
24.04683	0.05971838	-0.09816612	-0.003166658	-0.002350588	-0.09556994	-0.07094089
24.06355	0.05971838	-0.09816612	0	0	0.09517002	0.07064403
24.07997	0.05971838	-0.09816612	0	0	0	0
24.09657	0.05953483	-0.09830235	-0.01105656	-0.008206087	-0.3348249	-0.2485042
24.1131	0.05953483	-0.09830235	0	0	0.333707	0.2476745
24.12967	0.05953483	-0.09830235	0	0	0	0
24.14623	0.05922015	-0.09857485	-0.01899406	-0.01644843	-0.5732419	-0.4964148
24.1628	0.05922015	-0.09857485	0	0	0.5732749	0.4964433
24.17937	0.05922015	-0.09857485	0	0	0	0
24.19615	0.05903658	-0.09867218	-0.01093537	-0.005797903	-0.3278597	-0.1738303
24.21266	0.05903658	-0.09867218	0	0	0.3284044	0.1741191
24.22906	0.05903658	-0.09867218	0	0	0	0
24.24567	0.05898413	-0.09871112	-0.003158517	-0.002344827	-0.09569329	-0.07104101
24.2622	0.05898413	-0.09871112	0	0	0.09532971	0.07077109
24.27876	0.05898413	-0.09871112	0	0	0	0
24.29573	0.05895791	-0.09869165	-0.001545245	0.001147244	-0.04607596	0.0342084
24.3119	0.05895791	-0.09869165	0	0	0.04663828	-0.03462589
24.32876	0.05895791	-0.09869165	0	0	0	0
24.34503	0.05893168	-0.09871112	-0.001612147	-0.001196744	-0.04866029	-0.03612197
24.3616	0.05893168	-0.09871112	0	0	0.04909556	0.03644508
24.37831	0.05893168	-0.09871112	0	0	0	0
24.39473	0.05890546	-0.09873058	-0.001596568	-0.001184894	-0.04818729	-0.03576224
24.4113	0.05890546	-0.09873058	0	0	0.04838505	0.03590901
24.42787	0.05890546	-0.09873058	0	0	0	0
24.44443	0.05880056	-0.09880845	-0.006335451	-0.004702709	-0.1912373	-0.1419526
24.461	0.05880056	-0.09880845	0	0	0.1912483	0.1419607
24.47792	0.05880056	-0.09880845	0	0	0	0
24.49413	0.05859076	-0.09892526	-0.01294224	-0.007205811	-0.390665	-0.2175094
24.5109	0.05859076	-0.09892526	0	0	0.39245	0.2185032
24.52742	0.05859076	-0.09892526	0	0	0	0
24.54383	0.05853831	-0.09896419	-0.003197303	-0.002373452	-0.09708719	-0.07207069
24.5604	0.05853831	-0.09896419	0	0	0.09696925	0.07198314
24.5772	0.05853831	-0.09896419	0	0	0	0
24.59353	0.05851208	-0.09898366	-0.001605746	-0.001191992	-0.04846429	-0.03597647
24.6102	0.05851208	-0.09898366	0	0	0.04865756	0.03611995
24.6267	0.05851208	-0.09898366	0	0	0	0
24.64323	0.05845963	-0.0990226	-0.003173687	-0.002355922	-0.09607518	-0.07131945
24.6598	0.05845963	-0.0990226	0	0	0.09589799	0.07118791
24.67636	0.05845963	-0.0990226	0	0	0	0
24.69293	0.05835472	-0.09910047	-0.006332029	-0.004700452	-0.191101	-0.1418599
24.7095	0.05835472	-0.09910047	0	0	0.191101	0.1418599
24.72607	0.05835472	-0.09910047	0	0	0	0
24.7428	0.05827605	-0.09915888	-0.004701926	-0.003490379	-0.1411973	-0.1048149
24.7592	0.05827605	-0.09915888	0	0	0.1419126	0.1053459
24.77582	0.05827605	-0.09915888	0	0	0	0
24.79234	0.05822359	-0.09919782	-0.003176846	-0.00235855	-0.09587187	-0.07117709
24.8089	0.05822359	-0.09919782	0	0	0.09604879	0.07130843
24.82547	0.05822359	-0.09919782	0	0	0	0
24.84205	0.05817114	-0.09923676	-0.003163465	-0.002348333	-0.09543511	-0.07084429
24.85861	0.05817114	-0.09923676	0	0	0.09543511	0.07084429
24.87518	0.05817114	-0.09923676	0	0	0	0
24.89175	0.05809246	-0.09929517	-0.004749246	-0.003525789	-0.1433325	-0.1064085
24.90832	0.05809246	-0.09929517	0	0	0.1433325	0.1064085
24.92492	0.05809246	-0.09929517	0	0	0	0
24.94145	0.05759413	-0.09966514	-0.0301451	-0.0223806	-0.9098333	-0.6754867
24.95802	0.05759413	-0.09966514	0	0	0.910777	0.6761874
24.97458	0.05759413	-0.09966514	0	0	0	0
24.99115	0.05743676	-0.09978198	-0.009500036	-0.007053289	-0.2867282	-0.2128809
25.00772	0.05743676	-0.09978198	0	0	0.2867282	0.2128809
25.02428	0.05743676	-0.09978198	0	0	0	0
25.04085	0.05743676	-0.09978198	0	0	0	0
25.05742	0.05743676	-0.09978198	0	0	0	0
25.07404	0.05743676	-0.09978198	0	0	0	0
25.09055	0.05743676	-0.09978198	0	0	0	0
25.10755	0.05743676	-0.09978198	0	0	0	0
25.12368	0.05743676	-0.09978198	0	0	0	0
25.14025	0.05743676	-0.09978198	0	0	0	0
25.15682	0.05743676	-0.09978198	0	0	0	0
25.17338	0.05743676	-0.09978198	0	0	0	0
25.18995	0.05741053	-0.09980146	-0.001583232	-0.001175563	-0.04778203	-0.03547855
25.20666	0.05741053	-0.09980146	0	0	0.04757936	0.03532806
25.22315	0.05741053	-0.09980146	0	0	0	0
25.23965	0.0573843	-0.09982093	-0.001589454	-0.001180182	-0.04817224	-0.03576828
25.25718	0.0573843	-0.09982093	0	0	0.04670617	0.03467971
25.27279	0.0573843	-0.09982093	0	0	0	0
25.28935	0.0573843	-0.09982093	0	0	0	0
25.30592	0.0573843	-0.09982093	0	0	0	0
25.32249	0.0573843	-0.09982093	0	0	0	0
25.33905	0.0573843	-0.09982093	0	0	0	0
25.35624	0.0573843	-0.09982093	0	0	0	0
25.37218	0.0573843	-0.09982093	0	0	0	0
25.38875	0.05741053	-0.09984041	0.001583232	-0.001175563	0.048693	-0.03615495
25.40972	0.05741053	-0.09984041	0	0	-0.04217619	0.03131616
25.42189	0.05741053	-0.09984041	0	0	0	0
25.43845	0.0573843	-0.09985988	-0.001583414	-0.001175248	-0.05511653	-0.04090882
25.45502	0.0573843	-0.09985988	0	0	0.04779029	0.0354711
25.47159	0.0573843	-0.09985988	0	0	0	0
25.48833	0.05735807	-0.09987935	-0.001566639	-0.001163242	-0.04703217	-0.03492177
25.50472	0.05735807	-0.09987935	0	0	0.04728397	0.03510873
25.52129	0.05735807	-0.09987935	0	0	0	0
25.5379	0.05735807	-0.09987935	0	0	0	0
25.55442	0.05735807	-0.09987935	0	0	0	0
25.57099	0.05735807	-0.09987935	0	0	0	0
25.58755	0.05735807	-0.09987935	0	0	0	0
25.60442	0.05735807	-0.09987935	0	0	0	0
25.62069	0.05735807	-0.09987935	0	0	0	0
25.63745	0.05733184	-0.09989883	-0.0015645	-0.001161654	-0.04735572	-0.03516201
25.65382	0.05733184	-0.09989883	0	0	0.04721941	0.0350608
25.67047	0.05733184	-0.09989883	0	0	0	0
25.68714	0.05733184	-0.09989883	0	0	0	0
25.70371	0.05733184	-0.09989883	0	0	0	0
25.72028	0.05733184	-0.09989883	0	0	0	0
25.73702	0.05733184	-0.09989883	0	0	0	0
25.75341	0.05733184	-0.09989883	0	0	0	0
25.77004	0.05733184	-0.09989883	0	0	0	0
25.78655	0.05733184	-0.09989883	0	0	0	0
25.80311	0.05733184	-0.09989883	0	0	0	0
25.82009	0.05733184	-0.09989883	0	0	0	0
25.83624	0.05733184	-0.09989883	0	0	0	0
25.85309	0.05733184	-0.09989883	0	0	0	0
25.86938	0.05733184	-0.09989883	0	0	0	0
25.88613	0.05733184	-0.09989883	0	0	0	0
25.90264	0.05733184	-0.09989883	0	0	0	0
25.91908	0.05733184	-0.09989883	0	0	0	0
25.93568	0.05733184	-0.09989883	0	0	0	0
25.95221	0.05733184	-0.09989883	0	0	0	0
25.96878	0.05733184	-0.09989883	0	0	0	0
25.98553	0.05733184	-0.09989883	0	0	0	0
26.00206	0.05733184	-0.09989883	0	0	0	0
26.01858	0.05733184	-0.09989883	0	0	0	0
26.03504	0.05733184	-0.09989883	0	0	0	0
26.05161	0.05733184	-0.09989883	0	0	0	0
26.06818	0.05733184	-0.09989883	0	0	0	0
26.08474	0.05733184	-0.09989883	0	0	0	0
26.10131	0.05733184	-0.09989883	0	0	0	0
26.11788	0.05733184	-0.09989883	0	0	0	0
26.13465	0.05733184	-0.09989883	0	0	0	0
26.15101	0.05733184	-0.09989883	0	0	0	0
26.16758	0.05733184	-0.09989883	0	0	0	0
26.18414	0.05733184	-0.09989883	0	0	0	0
26.20119	0.05733184	-0.09989883	0	0	0	0
26.21771	0.05733184	-0.09989883	0	0	0	0
26.236	0.05733184	-0.09989883	0	0	0	0
26.25041	0.05733184	-0.09989883	0	0	0	0
26.26723	0.05733184	-0.09989883	0	0	0	0
26.28354	0.05733184	-0.09989883	0	0	0	0
26.30011	0.05733184	-0.09989883	0	0	0	0
26.31676	0.05733184	-0.09989883	0	0	0	0
26.33327	0.05733184	-0.09989883	0	0	0	0
26.34981	0.05733184	-0.09989883	0	0	0	0
26.36637	0.05733184	-0.09989883	0	0	0	0
26.3833	0.05733184	-0.09989883	0	0	0	0
26.39951	0.05733184	-0.09989883	0	0	0	0
26.41632	0.05733184	-0.09989883	0	0	0	0
26.43264	0.05730561	-0.09991831	-0.001607288	-0.001193424	-0.04851083	-0.03601969
26.44935	0.05730561	-0.09991831	0	0	0.04865648	0.03612784
26.46586	0.05730561	-0.09991831	0	0	0	0
26.48237	0.05730561	-0.09991831	0	0	0	0
26.49938	0.05730561	-0.09991831	0	0	0	0
26.51874	0.05730561	-0.09991831	0	0	0	0
26.53204	0.05730561	-0.09991831	0	0	0	0
26.54942	0.05730561	-0.09991831	0	0	0	0
26.56517	0.05730561	-0.09991831	0	0	0	0
26.58194	0.05730561	-0.09991831	0	0	0	0
26.59845	0.05730561	-0.09991831	0	0	0	0
26.61487	0.05730561	-0.09991831	0	0	0	0
26.63147	0.05730561	-0.09991831	0	0	0	0
26.64801	0.05730561	-0.09991831	0	0	0	0
26.66458	0.05730561	-0.09991831	0	0	0	0
26.68114	0.05727938	-0.09993778	-0.001583597	-0.001175833	-0.04779854	-0.03549081
26.69771	0.05727938	-0.09993778	0	0	0.04779854	0.03549081
26.71453	0.05727938	-0.09993778	0	0	0	0
26.73084	0.05727938	-0.09993778	0	0	0	0
26.74741	0.05727938	-0.09993778	0	0	0	0
26.76398	0.05727938	-0.09993778	0	0	0	0
26.78054	0.05727938	-0.09993778	0	0	0	0
26.79711	0.05727938	-0.09993778	0	0	0	0
26.81407	0.05727938	-0.09993778	0	0	0	0
26.83058	0.05727938	-0.09993778	0	0	0	0
26.84681	0.05727938	-0.09993778	0	0	0	0
26.86338	0.05727938	-0.09993778	0	0	0	0
26.88014	0.05727938	-0.09993778	0	0	0	0
26.89651	0.05727938	-0.09993778	0	0	0	0
26.91313	0.05727938	-0.09993778	0	0	0	0
26.92964	0.05727938	-0.09993778	0	0	0	0
26.94621	0.05727938	-0.09993778	0	0	0	0
26.96316	0.05727938	-0.09993778	0	0	0	0
26.97935	0.05727938	-0.09993778	0	0	0	0
26.99619	0.05727938	-0.09993778	0	0	0	0
27.0127	0.05727938	-0.09993778	0	0	0	0
27.02905	0.05725315	-0.09995726	-0.001604662	-0.001191475	-0.04884209	-0.03626565
27.04561	0.05725315	-0.09995726	0	0	0.04875435	0.0362005
27.06224	0.05725315	-0.09995726	0	0	0	0
27.08406	0.05725315	-0.09995726	0	0	0	0
27.09531	0.05725315	-0.09995726	0	0	0	0
27.11188	0.05725315	-0.09995726	0	0	0	0
27.12929	0.05725315	-0.09995726	0	0	0	0
27.14529	0.05725315	-0.09995726	0	0	0	0
27.16158	0.05725315	-0.09995726	0	0	0	0
27.17815	0.05725315	-0.09995726	0	0	0	0
27.19472	0.05725315	-0.09995726	0	0	0	0
27.21135	0.05725315	-0.09995726	0	0	0	0
27.22785	0.05725315	-0.09995726	0	0	0	0
27.24442	0.05725315	-0.09995726	0	0	0	0
27.26098	0.05725315	-0.09995726	0	0	0	0
27.27755	0.05725315	-0.09995726	0	0	0	0
27.29412	0.05725315	-0.09995726	0	0	0	0
27.31068	0.05725315	-0.09995726	0	0	0	0
27.32725	0.05725315	-0.09995726	0	0	0	0
27.34394	0.05725315	-0.09995726	0	0	0	0
27.36164	0.05725315	-0.09995726	0	0	0	0
27.37859	0.05725315	-0.09995726	0	0	0	0
27.39478	0.05725315	-0.09995726	0	0	0	0
27.41134	0.05725315	-0.09995726	0	0	0	0
27.42791	0.05725315	-0.09995726	0	0	0	0
27.44448	0.05725315	-0.09995726	0	0	0	0
27.46104	0.05725315	-0.09995726	0	0	0	0
27.47761	0.05725315	-0.09995726	0	0	0	0
27.49418	0.05725315	-0.09995726	0	0	0	0
27.51074	0.05725315	-0.09995726	0	0	0	0
27.52775	0.05725315	-0.09995726	0	0	0	0
27.54388	0.05725315	-0.09995726	0	0	0	0
27.56044	0.05725315	-0.09995726	0	0	0	0
27.57701	0.05725315	-0.09995726	0	0	0	0
27.59358	0.05725315	-0.09995726	0	0	0	0
27.61025	0.05725315	-0.09995726	0	0	0	0
27.62677	0.05725315	-0.09995726	0	0	0	0
27.64328	0.05725315	-0.09995726	0	0	0	0
27.65984	0.05725315	-0.09995726	0	0	0	0
27.67641	0.05725315	-0.09995726	0	0	0	0
27.69298	0.05725315	-0.09995726	0	0	0	0
27.70954	0.05725315	-0.09995726	0	0	0	0
27.72611	0.05725315	-0.09995726	0	0	0	0
27.74268	0.05725315	-0.09995726	0	0	0	0
27.75934	0.05722692	-0.09997673	-0.001573407	-0.001168433	-0.04734107	-0.03515613
27.77586	0.05722692	-0.09997673	0	0	0.04742	0.03521473
27.79238	0.05722692	-0.09997673	0	0	0	0
27.80894	0.05720069	-0.09999621	-0.001583414	-0.001175698	-0.04785917	-0.03553582
27.8259	0.05720069	-0.09999621	0	0	0.04722751	0.03506681
27.84208	0.05720069	-0.09999621	0	0	0	0
27.85864	0.05720069	-0.09999621	0	0	0	0
27.87521	0.05720069	-0.09999621	0	0	0	0
27.89178	0.05720069	-0.09999621	0	0	0	0
27.90834	0.05720069	-0.09999621	0	0	0	0
27.926	0.05720069	-0.09999621	0	0	0	0
27.94195	0.05720069	-0.09999621	0	0	0	0
27.95847	0.05720069	-0.09999621	0	0	0	0
27.97461	0.05720069	-0.09999621	0	0	0	0
27.99146	0.05720069	-0.09999621	0	0	0	0
28.00799	0.05720069	-0.09999621	0	0	0	0
28.02431	0.05720069	-0.09999621	0	0	0	0
28.04101	0.05720069	-0.09999621	0	0	0	0
28.05751	0.05717446	-0.1000157	-0.001590005	-0.001180592	-0.04788996	-0.03555869
28.07401	0.05717446	-0.1000157	0	0	0.04818894	0.03578068
28.09058	0.05717446	-0.1000157	0	0	0	0
28.10755	0.05714823	-0.1000352	-0.001545904	-0.001147683	-0.04609559	-0.0342215
28.12371	0.05714823	-0.1000352	0	0	0.04665816	0.03463914
28.14058	0.05714823	-0.1000352	0	0	0	0
28.15684	0.057122	-0.1000936	-0.001612565	-0.003592028	-0.04867011	-0.1084139
28.1736	0.057122	-0.1000936	0	0	0.04883033	0.1087708
28.19013	0.057122	-0.1000936	0	0	0	0
28.21115	0.05709577	-0.1001131	-0.001247569	-0.0009263302	-0.03322086	-0.02466676
28.22809	0.05709577	-0.1001131	0	0	0.03286036	0.02439908
28.24429	0.05709577	-0.1001131	0	0	0	0
28.26085	0.05709577	-0.1001131	0	0	0	0
28.27813	0.05709577	-0.1001131	0	0	0	0
28.29414	0.05693839	-0.1002299	-0.009827736	-0.007297932	-0.295242	-0.2192424
28.31065	0.05693839	-0.1002299	0	0	0.30215	0.2243721
28.32717	0.05693839	-0.1002299	0	0	0	0
28.34369	0.05649246	-0.100678	-0.02700334	-0.02712989	-0.8174564	-0.8212875
28.36025	0.05649246	-0.100678	0	0	0.8162781	0.8201036
28.37682	0.05649246	-0.100678	0	0	0	0
28.39339	0.05376393	-0.1254994	-0.1647135	-1.498397	-4.971351	-45.22432
28.40995	0.05376393	-0.1254994	0	0	4.971351	45.22432
28.42675	0.05376393	-0.1254994	0	0	0	0
28.44309	0.06275958	-0.2295243	0.5505852	-6.366916	16.61765	-192.165
28.45976	0.06275958	-0.2295243	0	0	-16.67814	192.8644
28.47622	0.06275958	-0.2295243	0	0	0	0
28.49284	0.07501686	-0.3247758	0.7374735	-5.730922	22.29292	-173.2388
28.50936	0.07501686	-0.3247758	0	0	-22.25699	172.9596
28.52592	0.07501686	-0.3247758	0	0	0	0
28.54249	0.07831319	-0.3684754	0.1990132	-2.63832	6.006576	-79.62924
28.55906	0.07831319	-0.3684754	0	0	-6.006921	79.63383
28.57562	0.07831319	-0.3684754	0	0	0	0
28.59241	0.07841781	-0.3697665	0.006231272	-0.07690191	0.1868127	-2.30551
28.60876	0.07841781	-0.3697665	0	0	-0.1880602	2.320904
28.62532	0.07841781	-0.3697665	0	0	0	0
28.64189	0.07839166	-0.3697888	-0.001578692	-0.001343912	-0.04764776	-0.04056168
28.65846	0.07839166	-0.3697888	0	0	0.04764776	0.04056168
28.67502	0.07839166	-0.3697888	0	0	0	0
28.69197	0.07572336	-0.3720618	-0.157487	-0.1341608	-4.699673	-4.003579
28.70816	0.07572336	-0.3720618	0	0	4.753241	4.049213
28.72472	0.07572336	-0.3720618	0	0	0	0
28.74129	0.07143089	-0.3757233	-0.2591236	-0.2210312	-7.820816	-6.67112
28.75794	0.07143089	-0.3757233	0	0	7.801504	6.654647
28.77445	0.07143089	-0.3757233	0	0	0	0
28.79099	0.07140471	-0.375701	-0.00158286	0.001351332	-0.04788935	0.04088448
28.80756	0.07140471	-0.375701	0	0	0.04780934	-0.04081617
28.82413	0.07140471	-0.375701	0	0	0	0
28.84069	0.07140471	-0.375701	0	0	0	0
28.85749	0.07140471	-0.375701	0	0	0	0
28.87401	0.07140471	-0.375701	0	0	0	0
28.89039	0.07140471	-0.375701	0	0	0	0
28.90703	0.07140471	-0.375701	0	0	0	0
28.92354	0.07140471	-0.375701	0	0	0	0
28.94009	0.07137853	-0.3756786	-0.001581948	0.001350553	-0.04784795	0.04084913
28.95666	0.07137853	-0.3756786	0	0	0.04776803	-0.04078091
28.97359	0.07137853	-0.3756786	0	0	0	0
28.98986	0.07137853	-0.3756786	0	0	0	0
29.00662	0.07137853	-0.3756786	0	0	0	0
29.02313	0.07137853	-0.3756786	0	0	0	0
29.03956	0.07137853	-0.3756786	0	0	0	0
29.05612	0.07137853	-0.3756786	0	0	0	0
29.07281	0.07137853	-0.3756786	0	0	0	0
29.08926	0.07137853	-0.3756786	0	0	0	0
29.10584	0.07137853	-0.3756786	0	0	0	0
29.12285	0.07137853	-0.3756786	0	0	0	0
29.13896	0.07137853	-0.3756786	0	0	0	0
29.15552	0.07137853	-0.3756786	0	0	0	0
29.17289	0.07137853	-0.3756786	0	0	0	0
29.18866	0.07137853	-0.3756786	0	0	0	0
29.20522	0.07137853	-0.3756786	0	0	0	0
29.22179	0.07137853	-0.3756786	0	0	0	0
29.23836	0.07135235	-0.3756562	-0.001580309	0.001349154	-0.04769382	0.04071754
29.25495	0.07135235	-0.3756562	0	0	0.04766363	-0.04069178
29.27149	0.07135235	-0.3756562	0	0	0	0
29.28806	0.07135235	-0.3756562	0	0	0	0
29.30498	0.07135235	-0.3756562	0	0	0	0
29.32148	0.07135235	-0.3756562	0	0	0	0
29.33776	0.07132617	-0.3755892	-0.001608456	0.004119551	-0.04906867	0.1256739
29.35433	0.07132617	-0.3755892	0	0	0.04897178	-0.1254257
29.3709	0.07132617	-0.3755892	0	0	0	0
29.38746	0.0712738	-0.3755445	-0.003160618	0.002698308	-0.09538763	0.08143508
29.40404	0.0712738	-0.3755445	0	0	0.09536018	-0.08141165
29.4206	0.0712738	-0.3755445	0	0	0	0
29.43716	0.0712738	-0.3755445	0	0	0	0
29.45373	0.0712738	-0.3755445	0	0	0	0
29.47063	0.0712738	-0.3755445	0	0	0	0
29.48686	0.0712738	-0.3755445	0	0	0	0
29.50343	0.0712738	-0.3755445	0	0	0	0
29.52	0.0712738	-0.3755445	0	0	0	0
29.53667	0.0712738	-0.3755445	0	0	0	0
29.55313	0.0712738	-0.3755445	0	0	0	0
29.5697	0.0712738	-0.3755445	0	0	0	0
29.58626	0.0712738	-0.3755445	0	0	0	0
29.60283	0.0712738	-0.3755445	0	0	0	0
29.6194	0.0712738	-0.3755445	0	0	0	0
29.63596	0.0712738	-0.3755445	0	0	0	0
29.65253	0.0712738	-0.3755445	0	0	0	0
29.6691	0.0712738	-0.3755445	0	0	0	0
29.68566	0.0712738	-0.3755445	0	0	0	0
29.70227	0.0712738	-0.3755445	0	0	0	0
29.7188	0.0712738	-0.3755445	0	0	0	0
29.73536	0.07124762	-0.3755221	-0.001580309	0.001349154	-0.04775154	0.04076682
29.75193	0.07124762	-0.3755221	0	0	0.04769656	-0.04071989
29.7685	0.07124762	-0.3755221	0	0	0	0
29.78506	0.07124762	-0.3755221	0	0	0	0
29.80163	0.07124762	-0.3755221	0	0	0	0
29.8182	0.07124762	-0.3755221	0	0	0	0
29.83485	0.07124762	-0.3755221	0	0	0	0
29.85133	0.07124762	-0.3755221	0	0	0	0
29.8679	0.07124762	-0.3755221	0	0	0	0
29.88492	0.07124762	-0.3755221	0	0	0	0
29.90103	0.07124762	-0.3755221	0	0	0	0
29.9176	0.07124762	-0.3755221	0	0	0	0
29.93443	0.0712738	-0.3755445	0.001555418	-0.001327904	0.04656998	-0.03975809
29.95094	0.0712738	-0.3755445	0	0	-0.0466419	0.03981949
29.9673	0.0712738	-0.3755445	0	0	0	0
29.98386	0.0712738	-0.3755445	0	0	0	0
30.00043	0.0712738	-0.3755445	0	0	0	0
30.017	0.0712738	-0.3755445	0	0	0	0
30.03357	0.07124762	-0.3755221	-0.001580309	0.001349154	-0.04769382	0.04071754
30.05013	0.07124762	-0.3755221	0	0	0.04769382	-0.04071754
30.0667	0.07124762	-0.3755221	0	0	0	0
30.08327	0.0712738	-0.3755445	0.001580491	-0.001349309	0.04770205	-0.04072458
30.09983	0.0712738	-0.3755445	0	0	-0.04770205	0.04072458
30.1164	0.0712738	-0.3755445	0	0	0	0
30.13297	0.0712738	-0.3755445	0	0	0	0
30.14957	0.0712738	-0.3755445	0	0	0	0
30.1661	0.0712738	-0.3755445	0	0	0	0
30.18271	0.07124762	-0.3755221	-0.001576497	0.0013459	-0.04758152	0.04062168
30.19923	0.07124762	-0.3755221	0	0	0.04757879	-0.04061934
30.2158	0.07124762	-0.3755221	0	0	0	0
30.23237	0.07124762	-0.3755221	0	0	0	0
30.24893	0.07124762	-0.3755221	0	0	0	0
30.2655	0.07124762	-0.3755221	0	0	0	0
30.28231	0.07124762	-0.3755221	0	0	0	0
30.29882	0.07124762	-0.3755221	0	0	0	0
30.3152	0.07124762	-0.3755221	0	0	0	0
30.33183	0.07124762	-0.3755221	0	0	0	0
30.34834	0.07124762	-0.3755221	0	0	0	0
30.3649	0.07124762	-0.3755221	0	0	0	0
30.38147	0.0712738	-0.3755445	0.001580491	-0.001349309	0.04770754	-0.04072926
30.39803	0.0712738	-0.3755445	0	0	-0.04770205	0.04072458
30.41492	0.0712738	-0.3755445	0	0	0	0
30.43117	0.07124762	-0.3755221	-0.001611288	0.001375602	-0.04862877	0.04151574
30.44806	0.07124762	-0.3755221	0	0	0.04861198	-0.04150141
30.4643	0.07124762	-0.3755221	0	0	0	0
30.48109	0.07124762	-0.3755221	0	0	0	0
30.4976	0.07124762	-0.3755221	0	0	0	0
30.514	0.07124762	-0.3755221	0	0	0	0
30.53061	0.07124762	-0.3755221	0	0	0	0
30.54713	0.07124762	-0.3755221	0	0	0	0
30.5637	0.07124762	-0.3755221	0	0	0	0
30.58027	0.07124762	-0.3755221	0	0	0	0
30.59683	0.07124762	-0.3755221	0	0	0	0
30.6134	0.07124762	-0.3755221	0	0	0	0
30.63019	0.07124762	-0.3755221	0	0	0	0
30.64653	0.07124762	-0.3755221	0	0	0	0
30.66323	0.07124762	-0.3755221	0	0	0	0
30.67967	0.07124762	-0.3755221	0	0	0	0
30.69624	0.07124762	-0.3755221	0	0	0	0
30.7142	0.07124762	-0.3755221	0	0	0	0
30.72937	0.07124762	-0.3755221	0	0	0	0
30.74594	0.07124762	-0.3755221	0	0	0	0
30.7625	0.07124762	-0.3755221	0	0	0	0
30.7793	0.07124762	-0.3755221	0	0	0	0
30.79564	0.07124762	-0.3755221	0	0	0	0
30.81285	0.07124762	-0.3755221	0	0	0	0
30.82877	0.07124762	-0.3755221	0	0	0	0
30.84534	0.07124762	-0.3755221	0	0	0	0
30.86191	0.07124762	-0.3755221	0	0	0	0
30.87847	0.07124762	-0.3755221	0	0	0	0
30.89504	0.07124762	-0.3755221	0	0	0	0
30.91193	0.07124762	-0.3755221	0	0	0	0
30.92817	0.0712738	-0.3755445	0.001612045	-0.001376248	0.04865441	-0.04153764
30.94474	0.0712738	-0.3755445	0	0	-0.04913527	0.04194815
30.96145	0.0712738	-0.3755445	0	0	0	0
30.97787	0.07124762	-0.3755221	-0.001594814	0.001361537	-0.04813435	0.04109364
30.99444	0.07124762	-0.3755221	0	0	0.04835146	-0.04127899
31.01105	0.07124762	-0.3755221	0	0	0	0
31.02757	0.0712738	-0.3755445	0.001584139	-0.001352424	0.0478094	-0.04081623
31.04414	0.0712738	-0.3755445	0	0	-0.04786726	0.04086563
31.06071	0.0712738	-0.3755445	0	0	0	0
31.07759	0.07124762	-0.3755221	-0.001550849	0.001324003	-0.04636434	0.03958253
31.09384	0.07124762	-0.3755221	0	0	0.04680471	-0.03995849
31.11062	0.07124762	-0.3755221	0	0	0	0
31.12697	0.07124762	-0.3755221	0	0	0	0
31.14354	0.07124762	-0.3755221	0	0	0	0
31.16017	0.07124762	-0.3755221	0	0	0	0
31.17667	0.07124762	-0.3755221	0	0	0	0
31.19324	0.07124762	-0.3755221	0	0	0	0
31.20981	0.07124762	-0.3755221	0	0	0	0
31.22637	0.07124762	-0.3755221	0	0	0	0
31.24294	0.07124762	-0.3755221	0	0	0	0
31.26202	0.07124762	-0.3755221	0	0	0	0
31.27608	0.07124762	-0.3755221	0	0	0	0
31.29264	0.07124762	-0.3755221	0	0	0	0
31.30972	0.07124762	-0.3755221	0	0	0	0
31.32578	0.07124762	-0.3755221	0	0	0	0
31.34234	0.07124762	-0.3755221	0	0	0	0
31.35891	0.07124762	-0.3755221	0	0	0	0
31.37547	0.07124762	-0.3755221	0	0	0	0
31.39204	0.07124762	-0.3755221	0	0	0	0
31.40861	0.07124762	-0.3755221	0	0	0	0
31.4258	0.07124762	-0.3755221	0	0	0	0
31.44181	0.07124762	-0.3755221	0	0	0	0
31.45831	0.07124762	-0.3755221	0	0	0	0
31.47689	0.0712738	-0.3755445	0.001409009	-0.00120291	0.04016782	-0.03429239
31.49346	0.0712738	-0.3755445	0	0	-0.04008499	0.03422168
31.51036	0.0712738	-0.3755445	0	0	0	0
31.52659	0.0712738	-0.3755445	0	0	0	0
31.54316	0.0712738	-0.3755445	0	0	0	0
31.55973	0.0712738	-0.3755445	0	0	0	0
31.57629	0.0712738	-0.3755445	0	0	0	0
31.59301	0.0712738	-0.3755445	0	0	0	0
31.60943	0.0712738	-0.3755445	0	0	0	0
31.62599	0.0712738	-0.3755445	0	0	0	0
31.64256	0.0712738	-0.3755445	0	0	0	0
31.65913	0.0712738	-0.3755445	0	0	0	0
31.67569	0.0712738	-0.3755445	0	0	0	0
31.69226	0.0712738	-0.3755445	0	0	0	0
31.70907	0.0712738	-0.3755445	0	0	0	0
31.72539	0.07122143	-0.3754551	-0.003208722	0.005477971	-0.09685057	0.1653445
31.74196	0.07122143	-0.3754551	0	0	0.09755258	-0.166543
31.75861	0.07122143	-0.3754551	0	0	0	0
31.77509	0.07187597	-0.3741818	0.03972266	0.07727493	1.199039	2.332565
31.79214	0.07187597	-0.3741818	0	0	-1.184985	-2.305224
31.80823	0.07187597	-0.3741818	0	0	0	0
31.82844	0.069886	-0.3713707	-0.09843536	0.1390535	-2.711241	3.830002
31.84501	0.069886	-0.3713707	0	0	2.676094	-3.780352
31.86158	0.06231396	-0.3625452	-0.4570495	0.5327089	-13.79378	16.07719
31.87814	0.06231396	-0.3625452	0	0	13.79457	-16.07811
31.89471	0.06231396	-0.3625452	0	0	0	0
31.91128	0.03204166	-0.2930205	-1.827239	4.196519	-55.14619	126.6512
31.92784	0.03204166	-0.2930205	0	0	55.14619	-126.6512
31.94441	0.03204166	-0.2930205	0	0	0	0
31.96098	0.00826297	-0.1957164	-1.435285	5.873287	-43.31698	177.2561
31.97754	0.00826297	-0.1957164	0	0	43.31698	-177.2561
31.99411	0.00826297	-0.1957164	0	0	0	0
32.01077	0.007947201	-0.133361	-0.01895292	3.742667	-0.5703912	112.6362
32.02724	0.007947201	-0.133361	0	0	0.572033	-112.9604
32.04381	0.007947201	-0.133361	0	0	0	0
32.06038	0.01949753	-0.1211361	0.6971791	0.7378954	21.04091	22.26973
32.07695	0.01949753	-0.1211361	0	0	-21.04091	-22.26973
32.09351	0.01949753	-0.1211361	0	0	0	0
32.11008	0.02049713	-0.1217253	0.06033596	-0.0355637	1.820943	-1.073314
32.1272	0.02049713	-0.1217253	0	0	-1.791044	1.055691
32.14322	0.02049713	-0.1217253	0	0	0	0
32.15978	0.02041822	-0.1217842	-0.004763187	-0.003556819	-0.1461938	-0.1091674
32.17726	0.02041822	-0.1217842	0	0	0.1399194	0.1044822
32.19291	0.02041822	-0.1217842	0	0	0	0
32.20948	0.02039191	-0.1218038	-0.001587842	-0.001185906	-0.04927704	-0.03680339
32.22605	0.02039191	-0.1218038	0	0	0.04792115	0.03579072
32.24261	0.02039191	-0.1218038	0	0	0	0
32.25918	0.02041822	-0.1220199	0.001588207	-0.01304527	0.04793771	-0.3937525
32.27575	0.02041822	-0.1220199	0	0	-0.04793771	0.3937525
32.29232	0.02041822	-0.1220199	0	0	0	0
32.30888	0.02039191	-0.1220396	-0.001588207	-0.001186179	-0.04793219	-0.03579896
32.32545	0.02039191	-0.1220396	0	0	0.04793771	0.03580309
32.34201	0.02039191	-0.1220396	0	0	0	0
32.35928	0.02047082	-0.1220985	0.004571715	-0.003414192	0.135143	-0.1009258
32.37584	0.02047082	-0.1220985	0	0	-0.135143	0.1009258
32.39241	0.02047082	-0.1220985	0	0	0	0
32.40897	0.02081278	-0.1224325	0.02064546	-0.02016415	0.6231529	-0.6086253
32.42554	0.02081278	-0.1224325	0	0	-0.6231529	0.6086253
32.44211	0.02081278	-0.1224325	0	0	0	0
32.45881	0.02320636	-0.124221	0.1432887	-0.1070709	4.306614	-3.218067
32.47583	0.02320636	-0.124221	0	0	-4.248647	3.174752
32.49184	0.02320636	-0.124221	0	0	0	0
32.50837	0.02396909	-0.1247913	0.04613435	-0.03449199	1.417801	-1.060008
32.52494	0.02396909	-0.1247913	0	0	-1.393782	1.04205
32.54151	0.02396909	-0.1247913	0	0	0	0
32.55838	0.02396909	-0.1247913	0	0	0	0
32.57464	0.02396909	-0.1247913	0	0	0	0
32.59121	0.02396909	-0.1247913	0	0	0	0
32.60777	0.02396909	-0.1247913	0	0	0	0
32.62434	0.02396909	-0.1247913	0	0	0	0
32.64091	0.02396909	-0.1247913	0	0	0	0
32.65774	0.02396909	-0.1247913	0	0	0	0
32.67426	0.02396909	-0.1247913	0	0	0	0
32.69076	0.02396909	-0.1247913	0	0	0	0
32.70729	0.02394279	-0.1247716	-0.001591168	0.001189545	-0.04817685	0.03601663
32.72374	0.02394279	-0.1247716	0	0	0.04824372	-0.03606662
32.74031	0.02394279	-0.1247716	0	0	0	0
32.75688	0.02394279	-0.1247716	0	0	0	0
32.77345	0.02394279	-0.1247716	0	0	0	0
32.79001	0.02394279	-0.1247716	0	0	0	0
32.80658	0.02394279	-0.1247716	0	0	0	0
32.82336	0.02394279	-0.1247716	0	0	0	0
32.83971	0.02394279	-0.1247716	0	0	0	0
32.85628	0.02394279	-0.1247716	0	0	0	0
32.8729	0.02394279	-0.1247716	0	0	0	0
32.88942	0.02394279	-0.1247716	0	0	0	0
32.90598	0.02394279	-0.1247716	0	0	0	0
32.92255	0.02394279	-0.1247716	0	0	0	0
32.93949	0.02394279	-0.1247716	0	0	0	0
32.95568	0.02394279	-0.1247716	0	0	0	0
32.97252	0.02394279	-0.1247716	0	0	0	0
32.98903	0.02394279	-0.1247716	0	0	0	0
33.00539	0.02394279	-0.1247716	0	0	0	0
33.02195	0.02394279	-0.1247716	0	0	0	0
33.03857	0.02394279	-0.1247716	0	0	0	0
33.05508	0.02394279	-0.1247716	0	0	0	0
33.07196	0.02394279	-0.1247716	0	0	0	0
33.08848	0.02394279	-0.1247716	0	0	0	0
33.10478	0.02394279	-0.1247716	0	0	0	0
33.12149	0.02394279	-0.1247716	0	0	0	0
33.13792	0.02394279	-0.1247716	0	0	0	0
33.15448	0.02394279	-0.1247716	0	0	0	0
33.17153	0.02394279	-0.1247716	0	0	0	0
33.18761	0.02394279	-0.1247716	0	0	0	0
33.20428	0.02394279	-0.1247716	0	0	0	0
33.22079	0.02394279	-0.1247716	0	0	0	0
33.23732	0.02394279	-0.1247716	0	0	0	0
33.25432	0.02394279	-0.1247716	0	0	0	0
33.27045	0.02394279	-0.1247716	0	0	0	0
33.28735	0.02394279	-0.1247716	0	0	0	0
33.30358	0.02396909	-0.1247913	0.001619956	-0.001211066	0.04889036	-0.03655005
33.32015	0.02396909	-0.1247913	0	0	-0.049385	0.03691984
33.33672	0.02396909	-0.1247913	0	0	0	0
33.35338	0.02394279	-0.1247716	-0.001578418	0.001180013	-0.04750004	0.03551066
33.36985	0.02394279	-0.1247716	0	0	0.04763676	-0.03561287
33.38642	0.02394279	-0.1247716	0	0	0	0
33.40298	0.02394279	-0.1247716	0	0	0	0
33.41955	0.02394279	-0.1247716	0	0	0	0
33.43612	0.02394279	-0.1247716	0	0	0	0
33.45269	0.02394279	-0.1247716	0	0	0	0
33.46925	0.02394279	-0.1247716	0	0	0	0
33.48582	0.02394279	-0.1247716	0	0	0	0
33.50265	0.02391649	-0.124752	-0.001563031	0.001168953	-0.04680595	0.03500502
33.51896	0.02391649	-0.124752	0	0	0.04717238	-0.03527906
33.53552	0.02391649	-0.124752	0	0	0	0
33.55209	0.02391649	-0.124752	0	0	0	0
33.56866	0.02391649	-0.124752	0	0	0	0
33.58523	0.02391649	-0.124752	0	0	0	0
33.60179	0.02396909	-0.1247913	0.003176471	-0.002375155	0.09587713	-0.07169057
33.61835	0.02396909	-0.1247913	0	0	-0.09588818	0.07169882
33.63492	0.02396909	-0.1247913	0	0	0	0
33.65179	0.02396909	-0.1247913	0	0	0	0
33.66829	0.02396909	-0.1247913	0	0	0	0
33.68462	0.02396909	-0.1247913	0	0	0	0
33.70119	0.02396909	-0.1247913	0	0	0	0
33.7178	0.02396909	-0.1247913	0	0	0	0
33.73432	0.02396909	-0.1247913	0	0	0	0
33.75089	0.02396909	-0.1247913	0	0	0	0
33.76772	0.02396909	-0.1247913	0	0	0	0
33.78402	0.02396909	-0.1247913	0	0	0	0
33.80059	0.02394279	-0.1247716	-0.001587504	0.001186806	-0.04829462	0.03610468
33.81726	0.02394279	-0.1247716	0	0	0.04775703	-0.03570278
33.83372	0.02394279	-0.1247716	0	0	0	0
33.85029	0.02394279	-0.1247716	0	0	0	0
33.8673	0.02394279	-0.1247716	0	0	0	0
33.88382	0.02394279	-0.1247716	0	0	0	0
33.89999	0.02394279	-0.1247716	0	0	0	0
33.91656	0.02394279	-0.1247716	0	0	0	0
33.93334	0.02394279	-0.1247716	0	0	0	0
33.94969	0.02394279	-0.1247716	0	0	0	0
33.96626	0.02394279	-0.1247716	0	0	0	0
33.98282	0.02394279	-0.1247716	0	0	0	0
34.00204	0.02396909	-0.1247913	0.001368506	-0.001023084	0.03824172	-0.0285892
34.01642	0.02396909	-0.1247913	0	0	-0.04073414	0.03045252
34.03252	0.02396909	-0.1247913	0	0	0	0
34.04943	0.02396909	-0.1247913	0	0	0	0
34.06595	0.02396909	-0.1247913	0	0	0	0
34.08222	0.02396909	-0.1247913	0	0	0	0
34.09879	0.02396909	-0.1247913	0	0	0	0
34.11536	0.02396909	-0.1247913	0	0	0	0
34.13192	0.02396909	-0.1247913	0	0	0	0
34.14853	0.02399539	-0.124811	0.001584221	-0.0011848	0.04776241	-0.03572033
34.16506	0.02399539	-0.124811	0	0	-0.0478119	0.03575734
34.18163	0.02399539	-0.124811	0	0	0	0
34.19819	0.02399539	-0.124811	0	0	0	0
34.21476	0.02399539	-0.124811	0	0	0	0
34.23133	0.02399539	-0.124811	0	0	0	0
34.24789	0.02399539	-0.124811	0	0	0	0
34.26446	0.02399539	-0.124811	0	0	0	0
34.28103	0.02399539	-0.124811	0	0	0	0
34.29759	0.02404799	-0.1248503	0.00317574	-0.002374608	0.09585506	-0.07167406
34.31453	0.02404799	-0.1248503	0	0	-0.0948071	0.07089047
34.33106	0.02404799	-0.1248503	0	0	0	0
34.34729	0.02404799	-0.1248503	0	0	0	0
34.36407	0.02404799	-0.1248503	0	0	0	0
34.38043	0.02404799	-0.1248503	0	0	0	0
34.397	0.02404799	-0.1248503	0	0	0	0
34.41356	0.02404799	-0.1248503	0	0	0	0
34.43013	0.02404799	-0.1248503	0	0	0	0
34.4467	0.02404799	-0.1248503	0	0	0	0
34.46326	0.02404799	-0.1248503	0	0	0	0
34.47983	0.02404799	-0.1248503	0	0	0	0
34.4964	0.02404799	-0.1248503	0	0	0	0
34.51318	0.02404799	-0.1248503	0	0	0	0
34.52953	0.02404799	-0.1248503	0	0	0	0
34.54623	0.02404799	-0.1248503	0	0	0	0
34.56274	0.02404799	-0.1248503	0	0	0	0
34.57923	0.02404799	-0.1248503	0	0	0	0
34.59579	0.02404799	-0.1248503	0	0	0	0
34.61236	0.02404799	-0.1248503	0	0	0	0
34.62927	0.02404799	-0.1248503	0	0	0	0
34.64549	0.02404799	-0.1248503	0	0	0	0
34.66206	0.02404799	-0.1248503	0	0	0	0
34.67863	0.02404799	-0.1248503	0	0	0	0
34.69519	0.0242584	-0.1249683	0.01269992	-0.007122633	0.3832844	-0.2149615
34.71176	0.0242584	-0.1249683	0	0	-0.3832844	0.2149615
34.72834	0.0242584	-0.1249683	0	0	0	0
34.7449	0.04171263	-0.1380228	1.054025	-0.7883354	31.81054	-23.79201
34.76146	0.04171263	-0.1380228	0	0	-31.81787	23.79749
34.77888	0.04171263	-0.1380228	0	0	0	0
34.79459	0.08354194	-0.169752	2.662127	-2.019327	80.35242	-60.95044
34.81116	0.08354194	-0.169752	0	0	-82.46996	62.55667
34.82773	0.08354194	-0.169752	0	0	0	0
34.84598	0.1062562	-0.1872768	1.244389	-0.9600885	35.7372	-27.57246
34.86255	0.1062562	-0.1872768	0	0	-35.7372	27.57246
34.87912	0.1062562	-0.1872768	0	0	0	0
34.89568	0.107479	-0.1882264	0.07380681	-0.05731745	2.227494	-1.729844
34.91225	0.107479	-0.1882264	0	0	-2.227494	1.729844
34.92882	0.107479	-0.1882264	0	0	0	0
34.94538	0.1074529	-0.1882062	-0.001570415	0.001219635	-0.04739522	0.03680866
34.962	0.1074529	-0.1882062	0	0	0.04732983	-0.03675788
34.97852	0.1074529	-0.1882062	0	0	0	0
34.9955	0.1074529	-0.1882062	0	0	0	0
35.01165	0.1074529	-0.1882062	0	0	0	0
35.02821	0.1074529	-0.1882062	0	0	0	0
35.04478	0.1074529	-0.1882062	0	0	0	0
35.06135	0.1074529	-0.1882062	0	0	0	0
35.07859	0.1074529	-0.1882062	0	0	0	0
35.09459	0.1074529	-0.1882062	0	0	0	0
35.11105	0.1074529	-0.1882062	0	0	0	0
35.12761	0.1074529	-0.1882062	0	0	0	0
35.14418	0.1074009	-0.1882062	-0.00314038	0	-0.09477687	0
35.16075	0.1074009	-0.1882062	0	0	0.09477687	0
35.17731	0.1074009	-0.1882062	0	0	0	0
35.19388	0.1073749	-0.188186	-0.001569965	0.001219635	-0.04738165	0.03680866
35.21045	0.1073749	-0.188186	0	0	0.04738165	-0.03680866
35.22702	0.1073749	-0.188186	0	0	0	0
35.24358	0.1073749	-0.188186	0	0	0	0
35.26015	0.1073749	-0.188186	0	0	0	0
35.27671	0.1073749	-0.188186	0	0	0	0
35.29328	0.1073749	-0.188186	0	0	0	0
35.30985	0.1073749	-0.188186	0	0	0	0
35.32674	0.1073749	-0.188186	0	0	0	0
35.34327	0.1072448	-0.1880849	-0.007872929	0.006115973	-0.2355983	0.1830212
35.35955	0.1072448	-0.1880849	0	0	0.2399815	-0.1864263
35.37611	0.1072448	-0.1880849	0	0	0	0
35.39268	0.1069327	-0.187802	-0.01884318	0.01707489	-0.5687538	0.5153806
35.40965	0.1069327	-0.187802	0	0	0.5619599	-0.5092241
35.42582	0.1069327	-0.187802	0	0	0	0
35.44238	0.09860028	-0.1811446	-0.5029434	0.4018463	-15.36281	12.27472
35.45895	0.09860028	-0.1811446	0	0	15.17886	-12.12775
35.47552	0.09860028	-0.1811446	0	0	0	0
35.49208	0.06296927	-0.1536944	-2.150692	1.656896	-64.908	50.00521
35.50919	0.06296927	-0.1536944	0	0	63.87118	-49.20644
35.52522	0.06296927	-0.1536944	0	0	0	0
35.54222	0.04102959	-0.136323	-1.29041	1.021721	-39.06608	30.93176
35.55835	0.04102959	-0.136323	0	0	38.94913	-30.83917
35.57492	0.04102959	-0.136323	0	0	0	0
35.59148	0.04158128	-0.1362242	0.03330004	0.00596326	1.004997	0.1799715
35.60826	0.04158128	-0.1362242	0	0	-0.9985593	-0.1788187
35.62478	0.04158128	-0.1362242	0	0	0	0
35.64313	0.0420016	-0.1365403	0.02290263	-0.01722615	0.6568696	-0.4940625
35.66035	0.0420016	-0.1365403	0	0	-0.6438379	0.4842607
35.67627	0.0420016	-0.1365403	0	0	0	0
35.69283	0.04229056	-0.136481	0.01744164	0.003577956	0.5369607	0.1101515
35.7094	0.04229056	-0.136481	0	0	-0.5263896	-0.1079829
35.72597	0.04229056	-0.136481	0	0	0	0
35.74253	0.04307859	-0.1370739	0.04756577	-0.03578585	1.435538	-1.080019
35.7591	0.04307859	-0.1370739	0	0	-1.435538	1.080019
35.77567	0.04307859	-0.1370739	0	0	0	0
35.79224	0.04339379	-0.1373111	0.01902554	-0.01431722	0.574192	-0.4320945
35.8088	0.04339379	-0.1373111	0	0	-0.574192	0.4320945
35.82537	0.04339379	-0.1373111	0	0	0	0
35.84198	0.04373525	-0.1376076	0.020563	-0.01785676	0.6198789	-0.5382983
35.85851	0.04373525	-0.1376076	0	0	-0.6205926	0.538918
35.87508	0.04373525	-0.1376076	0	0	0	0
35.89164	0.04428681	-0.1381019	0.03330006	-0.02984116	1.004998	-0.9006079
35.90821	0.04428681	-0.1381019	0	0	-1.005114	0.9007117
35.92477	0.04428681	-0.1381019	0	0	0	0
35.94134	0.04675537	-0.1399613	0.1490026	-0.1122343	4.497424	-3.387628
35.9579	0.04675537	-0.1399613	0	0	-4.496906	3.387238
35.97508	0.04675537	-0.1399613	0	0	0	0
35.99104	0.04672911	-0.1400207	-0.001645658	-0.003720416	-0.04967179	-0.1122953
36.0076	0.04672911	-0.1400207	0	0	0.05059811	0.1143895
36.02417	0.04672911	-0.1400207	0	0	0	0
36.04073	0.04670286	-0.1400405	-0.001585171	-0.001194726	-0.04784606	-0.03606105
36.0573	0.04670286	-0.1400405	0	0	0.04784606	0.03606105
36.07414	0.04670286	-0.1400405	0	0	0	0
36.09044	0.04670286	-0.14008	0	-0.002429174	0	-0.0733126
36.10717	0.04670286	-0.14008	0	0	0	0.07355819
36.12369	0.04670286	-0.14008	0	0	0	0
36.14013	0.04680789	-0.1401592	0.006386732	-0.004813268	0.1937333	-0.1460043
36.1567	0.04680789	-0.1401592	0	0	-0.1934647	0.1458019
36.17327	0.04680789	-0.1401592	0	0	0	0
36.19405	0.04704421	-0.1403769	0.01137327	-0.01047738	0.3045387	-0.2805499
36.21122	0.04704421	-0.1403769	0	0	-0.2996717	0.2760663
36.22721	0.04709673	-0.1404165	0.003284018	-0.002475884	0.09902065	-0.07465357
36.24376	0.04709673	-0.1404165	0	0	-0.1009363	0.0760978
36.26031	0.04709673	-0.1404165	0	0	0	0
36.27688	0.04712299	-0.1404759	0.001585031	-0.003583353	0.04785285	-0.1081832
36.29345	0.04712299	-0.1404759	0	0	-0.04783633	0.1081458
36.31001	0.04712299	-0.1404759	0	0	0	0
36.32658	0.04709673	-0.1404957	-0.001585031	-0.00119535	-0.04783633	-0.03607574
36.34315	0.04709673	-0.1404957	0	0	0.04783633	0.03607574
36.35971	0.04709673	-0.1404957	0	0	0	0
36.37632	0.04712299	-0.1406342	0.00158139	-0.008343743	0.04767155	-0.2515251
36.39285	0.04712299	-0.1406342	0	0	-0.04772643	0.2518147
36.40942	0.04712299	-0.1406342	0	0	0	0
36.42598	0.05326536	-0.1453498	0.3707545	-0.2846355	11.18939	-8.590316
36.44255	0.05326536	-0.1453498	0	0	-11.18939	8.590316
36.45912	0.05326536	-0.1453498	0	0	0	0
36.47805	0.07847012	-0.164627	1.331575	-1.018417	37.51365	-28.69122
36.49461	0.07847012	-0.164627	0	0	-37.51365	28.69122
36.51192	0.07847012	-0.164627	0	0	0	0
36.52774	0.09638463	-0.1785475	1.131883	-0.8795342	34.16422	-26.54745
36.54431	0.09638463	-0.1785475	0	0	-34.94068	27.1508
36.56095	0.09638463	-0.1785475	0	0	0	0
36.57747	0.1026901	-0.1834623	0.3816558	-0.2974811	11.50912	-8.970768
36.59401	0.1026901	-0.1834623	0	0	-11.54498	8.998717
36.61058	0.1026901	-0.1834623	0	0	0	0
36.62714	0.1027422	-0.1835027	0.003143528	-0.002433873	0.09487188	-0.07345445
36.64371	0.1027422	-0.1835027	0	0	-0.09487188	0.07345445
36.66028	0.1027422	-0.1835027	0	0	0	0
36.67702	0.1027162	-0.1834825	-0.001555291	0.001204182	-0.0466915	0.03615084
36.69341	0.1027162	-0.1834825	0	0	0.04693877	-0.03634229
36.71056	0.1027162	-0.1834825	0	0	0	0
36.72682	0.1026641	-0.1834422	-0.00320252	0.002480464	-0.09585767	0.07424512
36.74432	0.1026641	-0.1834422	0	0	0.09485047	-0.073465
36.76011	0.1026641	-0.1834422	0	0	0	0
36.77662	0.102586	-0.1833413	-0.004732728	0.006108086	-0.1465631	0.1891551
36.79309	0.102586	-0.1833413	0	0	0.1434948	-0.1851952
36.80966	0.102586	-0.1833413	0	0	0	0
36.82623	0.1023516	-0.1831599	-0.01414633	0.01095333	-0.426937	0.3305722
36.84317	0.1023516	-0.1831599	0	0	0.4220777	-0.3268097
36.85967	0.1023516	-0.1831599	0	0	0	0
36.87593	0.101961	-0.1828575	-0.02402637	0.01860006	-0.7335626	0.5678888
36.89249	0.101961	-0.1828575	0	0	0.7319429	-0.5666349
36.90922	0.101961	-0.1828575	0	0	0	0
36.92562	0.09987709	-0.1810841	-0.1270126	0.1080835	-3.833689	3.262342
36.94219	0.09987709	-0.1810841	0	0	3.851873	-3.277816
36.95876	0.09987709	-0.1810841	0	0	0	0
36.97533	0.09857421	-0.1796746	-0.07864173	0.08508304	-2.373412	2.567811
36.99226	0.09857421	-0.1796746	0	0	2.347467	-2.539741
37.00846	0.09857421	-0.1796746	0	0	0	0
37.02768	0.0746505	-0.1610303	-1.244584	0.9699306	-35.13842	27.38411
37.04425	0.0746505	-0.1610303	0	0	34.77513	-27.10099
37.06081	0.0746505	-0.1610303	0	0	0	0
37.0776	0.06404387	-0.1528387	-0.6317798	0.487928	-18.94068	14.62802
37.09395	0.06404387	-0.1528387	0	0	19.06715	-14.7257
37.11113	0.06404387	-0.1528387	0	0	0	0
37.12714	0.06417491	-0.1529382	0.00818284	-0.006212036	0.2465329	-0.1871564
37.14365	0.06417491	-0.1529382	0	0	-0.2515931	0.1909979
37.16022	0.06417491	-0.1529382	0	0	0	0
37.17678	0.06451561	-0.1531969	0.02056425	-0.01561331	0.6206304	-0.4712105
37.19335	0.06451561	-0.1531969	0	0	-0.6206304	0.4712105
37.21051	0.06451561	-0.1531969	0	0	0	0
37.22649	0.06501351	-0.1536148	0.03116605	-0.02615919	0.9405934	-0.7894859
37.24305	0.06501351	-0.1536148	0	0	-0.957683	0.8038301
37.25962	0.06501351	-0.1536148	0	0	0	0
37.27619	0.06511833	-0.153774	0.006326632	-0.009610472	0.1909381	-0.2900446
37.29778	0.06511833	-0.153774	0	0	-0.1657826	0.251832
37.30932	0.06511833	-0.153774	0	0	0	0
37.32589	0.06517074	-0.1538536	0.003163316	-0.004805686	0.1125467	-0.1709802
37.34246	0.06517074	-0.1538536	0	0	-0.09546907	0.1450359
37.35902	0.06517074	-0.1538536	0	0	0	0
37.37559	0.06522314	-0.1538934	0.003163316	-0.002403293	0.09546907	-0.07253151
37.39216	0.06522314	-0.1538934	0	0	-0.09546907	0.07253151
37.40873	0.06522314	-0.1538934	0	0	0	0
37.42529	0.06524935	-0.1539531	0.001581658	-0.00360404	0.04773453	-0.1087701
37.44186	0.06524935	-0.1539531	0	0	-0.04773453	0.1087701
37.45843	0.06524935	-0.1539531	0	0	0	0
37.47499	0.06540657	-0.1541124	0.009489948	-0.009612272	0.2864072	-0.2900989
37.49156	0.06540657	-0.1541124	0	0	-0.2864072	0.2900989
37.50813	0.06540657	-0.1541124	0	0	0	0
37.52475	0.06745016	-0.1557453	0.122955	-0.09824707	3.704391	-2.959991
37.54127	0.06745016	-0.1557453	0	0	-3.710789	2.965103
37.55783	0.06745016	-0.1557453	0	0	0	0
37.57761	0.068917	-0.1571003	0.07416074	-0.06850591	2.0406	-1.885002
37.59418	0.068917	-0.1571003	0	0	-2.040385	1.884804
37.61074	0.068917	-0.1571003	0	0	0	0
37.62731	0.06883842	-0.1571601	-0.004742725	-0.003609436	-0.1431357	-0.108933
37.64388	0.06883842	-0.1571601	0	0	0.1431357	0.108933
37.66045	0.06883842	-0.1571601	0	0	0	0
37.67701	0.06881224	-0.1571801	-0.001580759	-0.001203445	-0.04770739	-0.03632005
37.69358	0.06881224	-0.1571801	0	0	0.04770739	0.03632005
37.71015	0.06881224	-0.1571801	0	0	0	0
37.72672	0.06878604	-0.1572	-0.001581208	-0.001202546	-0.04772096	-0.0362929
37.74328	0.06878604	-0.1572	0	0	0.04772096	0.0362929
37.75991	0.06878604	-0.1572	0	0	0	0
37.77642	0.06878604	-0.1572	0	0	0	0
37.79298	0.06878604	-0.1572	0	0	0	0
37.80955	0.06878604	-0.1572	0	0	0	0
37.82612	0.06878604	-0.1572	0	0	0	0
37.84269	0.06878604	-0.1572	0	0	0	0
37.86003	0.06878604	-0.1572	0	0	0	0
37.87624	0.06878604	-0.1572	0	0	0	0
37.89305	0.06878604	-0.1572	0	0	0	0
37.90956	0.06878604	-0.1572	0	0	0	0
37.92595	0.06875985	-0.1572199	-0.001598425	-0.001216895	-0.04858737	-0.03698998
37.94251	0.06875985	-0.1572199	0	0	0.04850862	0.03693003
37.95911	0.06875985	-0.1572199	0	0	0	0
37.97564	0.06875985	-0.1572199	0	0	0	0
37.99221	0.06875985	-0.1572199	0	0	0	0
38.00878	0.06875985	-0.1572199	0	0	0	0
38.02534	0.06875985	-0.1572199	0	0	0	0
38.04191	0.06875985	-0.1572199	0	0	0	0
38.05848	0.06875985	-0.1572199	0	0	0	0
38.07519	0.06873366	-0.1572399	-0.001567405	-0.001193279	-0.04710373	-0.03586048
38.09161	0.06873366	-0.1572399	0	0	0.04730438	0.03601324
38.10822	0.06873366	-0.1572399	0	0	0	0
38.12598	0.06873366	-0.1572399	0	0	0	0
38.14254	0.06873366	-0.1572399	0	0	0	0
38.15944	0.06873366	-0.1572399	0	0	0	0
38.17568	0.06870747	-0.1572598	-0.001613531	-0.001227128	-0.04869646	-0.03703479
38.19248	0.06870747	-0.1572598	0	0	0.04883702	0.03714169
38.20901	0.06870747	-0.1572598	0	0	0	0
38.22552	0.06870747	-0.1572598	0	0	0	0
38.24195	0.06870747	-0.1572598	0	0	0	0
38.25851	0.06870747	-0.1572598	0	0	0	0
38.27508	0.06870747	-0.1572598	0	0	0	0
38.29165	0.06870747	-0.1572598	0	0	0	0
38.30821	0.06870747	-0.1572598	0	0	0	0
38.32478	0.06868128	-0.1572797	-0.001580759	-0.001203445	-0.04770739	-0.03632005
38.3416	0.06868128	-0.1572797	0	0	0.04734221	0.03604204
38.35791	0.06868128	-0.1572797	0	0	0	0
38.3746	0.06865509	-0.1572997	-0.001569914	-0.001195189	-0.04758279	-0.03622519
38.39105	0.06865509	-0.1572997	0	0	0.0473801	0.03607088
38.40762	0.06865509	-0.1572997	0	0	0	0
38.42418	0.06865509	-0.1572997	0	0	0	0
38.44075	0.06865509	-0.1572997	0	0	0	0
38.45732	0.06865509	-0.1572997	0	0	0	0
38.47388	0.06862889	-0.1573196	-0.001581572	-0.001203722	-0.04773745	-0.0363326
38.49045	0.06862889	-0.1573196	0	0	0.04773745	0.0363326
38.50702	0.06862889	-0.1573196	0	0	0	0
38.52365	0.06862889	-0.1573196	0	0	0	0
38.54015	0.06862889	-0.1573196	0	0	0	0
38.55671	0.06862889	-0.1573196	0	0	0	0
38.57328	0.06862889	-0.1573196	0	0	0	0
38.58984	0.06862889	-0.1573196	0	0	0	0
38.60641	0.06862889	-0.1573196	0	0	0	0
38.62372	0.06862889	-0.1573196	0	0	0	0
38.63972	0.06862889	-0.1573196	0	0	0	0
38.65624	0.06862889	-0.1573196	0	0	0	0
38.67347	0.06862889	-0.1573196	0	0	0	0
38.69022	0.06862889	-0.1573196	0	0	0	0
38.7066	0.06862889	-0.1573196	0	0	0	0
38.72376	0.06862889	-0.1573196	0	0	0	0
38.73977	0.06862889	-0.1573196	0	0	0	0
38.7563	0.06862889	-0.1573196	0	0	0	0
38.77286	0.06862889	-0.1573196	0	0	0	0
38.78943	0.06862889	-0.1573196	0	0	0	0
38.806	0.06862889	-0.1573196	0	0	0	0
38.82256	0.06862889	-0.1573196	0	0	0	0
38.83913	0.06862889	-0.1573196	0	0	0	0
38.85585	0.06862889	-0.1573196	0	0	0	0
38.87237	0.06862889	-0.1573196	0	0	0	0
38.88883	0.06862889	-0.1573196	0	0	0	0
38.9059	0.06862889	-0.1573196	0	0	0	0
38.92196	0.0686027	-0.1573395	-0.00163031	-0.001240241	-0.04920851	-0.03743487
38.9432	0.0686027	-0.1573395	0	0	0.04371238	0.03325374
38.95514	0.0686027	-0.1573395	0	0	0	0
38.97166	0.0686027	-0.1573395	0	0	0	0
38.98823	0.0686027	-0.1573395	0	0	0	0
39.00566	0.0686027	-0.1573395	0	0	0	0
39.02137	0.0686027	-0.1573395	0	0	0	0
39.03793	0.0686027	-0.1573395	0	0	0	0
39.0545	0.0686027	-0.1573395	0	0	0	0
39.07107	0.0686027	-0.1573395	0	0	0	0
39.08772	0.0686027	-0.1573395	0	0	0	0
39.10424	0.0686027	-0.1573395	0	0	0	0
39.12077	0.0686027	-0.1573395	0	0	0	0
39.13734	0.0686027	-0.1573395	0	0	0	0
39.1539	0.0686027	-0.1573395	0	0	0	0
39.17047	0.0686027	-0.1573395	0	0	0	0
39.1873	0.0686027	-0.1573395	0	0	0	0
39.20361	0.0686027	-0.1573395	0	0	0	0
39.22017	0.0686027	-0.1573395	0	0	0	0
39.2368	0.0686027	-0.1573395	0	0	0	0
39.2533	0.0686027	-0.1573395	0	0	0	0
39.26987	0.0686027	-0.1573395	0	0	0	0
39.28644	0.0686027	-0.1573395	0	0	0	0
39.30301	0.0686027	-0.1573395	0	0	0	0
39.31958	0.0686027	-0.1573395	0	0	0	0
39.33614	0.0686027	-0.1573395	0	0	0	0
39.3534	0.0686027	-0.1573395	0	0	0	0
39.36927	0.0686027	-0.1573395	0	0	0	0
39.38592	0.0686027	-0.1573395	0	0	0	0
39.40243	0.0686027	-0.1573395	0	0	0	0
39.41897	0.0686027	-0.1573395	0	0	0	0
39.43554	0.0686027	-0.1573395	0	0	0	0
39.45211	0.0686027	-0.1573395	0	0	0	0
39.46867	0.0686027	-0.1573395	0	0	0	0
39.48524	0.0686027	-0.1573395	0	0	0	0
39.50181	0.0686027	-0.1573395	0	0	0	0
39.51859	0.06857651	-0.1573993	-0.001560724	-0.003563565	-0.04679567	-0.1068475
39.53494	0.06857651	-0.1573993	0	0	0.04710818	0.107561
39.55151	0.06857651	-0.1573993	0	0	0	0
39.56807	0.06852412	-0.1574392	-0.003161967	-0.002405991	-0.09542835	-0.07261295
39.58464	0.06852412	-0.1574392	0	0	0.09542835	0.07261295
39.60163	0.06852412	-0.1574392	0	0	0	0
39.61777	0.06844555	-0.157499	-0.004867121	-0.00370503	-0.14689	-0.111818
39.63434	0.06844555	-0.157499	0	0	0.1487914	0.1132655
39.65091	0.06844555	-0.157499	0	0	0	0
39.66748	0.06834078	-0.1575787	-0.006323934	-0.004812881	-0.1908567	-0.145253
39.68404	0.06834078	-0.1575787	0	0	0.1908567	0.145253
39.70061	0.06834078	-0.1575787	0	0	0	0
39.71722	0.06815742	-0.1577183	-0.01104213	-0.008404764	-0.332869	-0.2533646
39.73375	0.06815742	-0.1577183	0	0	0.3332139	0.2536271
39.75031	0.06815742	-0.1577183	0	0	0	0
39.76688	0.06805264	-0.1577981	-0.006324383	-0.004813781	-0.1908922	-0.1452969
39.78345	0.06805264	-0.1577981	0	0	0.1908703	0.1452802
39.8003	0.06805264	-0.1577981	0	0	0	0
39.81731	0.06800026	-0.1578379	-0.0030804	-0.002344802	-0.0909766	-0.06925143
39.83315	0.06800026	-0.1578379	0	0	0.09377637	0.07138261
39.84983	0.06800026	-0.1578379	0	0	0	0
39.86633	0.06797406	-0.157818	-0.001588156	0.001208733	-0.04786452	0.03642931
39.88286	0.06797406	-0.157818	0	0	0.04809121	-0.03660184
39.89941	0.06797406	-0.157818	0	0	0	0
39.91598	0.06789548	-0.1578379	-0.004743175	-0.001203445	-0.1431988	-0.0363326
39.93287	0.06789548	-0.1578379	0	0	0.141762	0.03596807
39.94912	0.06789548	-0.1578379	0	0	0	0
39.96568	0.06752875	-0.1580373	-0.02213602	-0.01203535	-0.6746685	-0.3668172
39.98243	0.06752875	-0.1580373	0	0	0.6645469	0.3613141
39.99894	0.06752875	-0.1580373	0	0	0	0
40.01538	0.06409629	-0.160611	-0.20877	-0.15654	-6.334971	-4.75009
40.03195	0.06409629	-0.160611	0	0	6.324721	4.742404
40.04852	0.06409629	-0.160611	0	0	0	0
40.06801	0.06399146	-0.1605711	-0.00537673	0.002048278	-0.149088	0.05679541
40.08458	0.06399146	-0.1605711	0	0	0.149088	-0.05679541
40.10115	0.06399146	-0.1605711	0	0	0	0
40.11801	0.05806623	-0.165127	-0.3514169	-0.2702011	-10.51259	-8.083032
40.13428	0.05806623	-0.165127	0	0	10.607	8.155625
40.15084	0.05806623	-0.165127	0	0	0	0
40.16741	-0.005789409	-0.2145767	-3.854334	-2.984792	-116.324	-90.08121
40.18398	-0.005789409	-0.2145767	0	0	116.324	90.08121
40.20057	-0.005789409	-0.2145767	0	0	0	0
40.21711	-0.07391771	-0.2847758	-4.118871	-4.244068	-124.3078	-128.0862
40.23368	-0.07391771	-0.2847758	0	0	124.408	128.1895
40.25025	-0.07391771	-0.2847758	0	0	0	0
40.26682	-0.08605014	-0.3562829	-0.7323148	-4.316175	-22.10131	-130.2624
40.28338	-0.08605014	-0.3562829	0	0	22.10131	130.2624
40.30014	-0.08605014	-0.3562829	0	0	0	0
40.31664	-0.08064053	-0.3789899	0.3277318	-1.375666	9.853531	-41.36055
40.33472	-0.08064053	-0.3789899	0	0	-9.477434	39.78187
40.34965	-0.08064053	-0.3789899	0	0	0	0
40.36621	-0.08082355	-0.3790123	-0.01104687	-0.001352752	-0.3507171	-0.04294728
40.38278	-0.08082355	-0.3790123	0	0	0.3333952	0.04082612
40.39954	-0.08082355	-0.3790123	0	0	0	0
40.41592	-0.0810327	-0.3791467	-0.01277152	-0.008205581	-0.3854452	-0.2476449
40.43248	-0.0810327	-0.3791467	0	0	0.3876768	0.2490787
40.44905	-0.0810327	-0.3791467	0	0	0	0
40.46562	-0.08111113	-0.3791243	-0.004733731	0.001350953	-0.1428643	0.04077183
40.48219	-0.08111113	-0.3791243	0	0	0.1428643	-0.04077183
40.49875	-0.08111113	-0.3791243	0	0	0	0
40.51532	-0.08132027	-0.3790795	-0.01262403	0.002703704	-0.3809941	0.08159795
40.53189	-0.08132027	-0.3790795	0	0	0.3809941	-0.08159795
40.54867	-0.08132027	-0.3790795	0	0	0	0
40.56516	-0.08166011	-0.3792811	-0.02061697	-0.01222952	-0.6197243	-0.3676063
40.58158	-0.08166011	-0.3792811	0	0	0.6264042	0.3715687
40.59819	-0.08166011	-0.3792811	0	0	0	0
40.61472	-0.08168624	-0.3793035	-0.001581251	-0.001355874	-0.04772776	-0.04092506
40.63173	-0.08168624	-0.3793035	0	0	0.04713618	0.0404178
40.64824	-0.08168624	-0.3793035	0	0	0	0
40.66441	-0.08166011	-0.3793259	0.001616316	-0.001384097	0.04945809	-0.04235237
40.68098	-0.08166011	-0.3793259	0	0	-0.04937165	0.04227834
40.69755	-0.08166011	-0.3793259	0	0	0	0
40.71427	-0.08166011	-0.3793259	0	0	0	0
40.73068	-0.08166011	-0.3793259	0	0	0	0
40.74725	-0.08166011	-0.3793259	0	0	0	0
40.76381	-0.08166011	-0.3793259	0	0	0	0
40.78082	-0.08166011	-0.3793259	0	0	0	0
40.79734	-0.08166011	-0.3793259	0	0	0	0
40.8139	-0.08168624	-0.3793035	-0.001578701	0.001351887	-0.04771671	0.04086117
40.83008	-0.08168624	-0.3793035	0	0	0.04822268	-0.04129445
40.84665	-0.08168624	-0.3793035	0	0	0	0
40.86322	-0.08173853	-0.3793483	-0.00315612	-0.002703704	-0.0952519	-0.08159795
40.87989	-0.08173853	-0.3793483	0	0	0.09495673	0.0813451
40.89635	-0.08173853	-0.3793483	0	0	0	0
40.91292	-0.08173853	-0.3793483	0	0	0	0
40.92949	-0.08173853	-0.3793483	0	0	0	0
40.94609	-0.08173853	-0.3793483	0	0	0	0
40.96308	-0.08173853	-0.3793483	0	0	0	0
40.97918	-0.08173853	-0.3793483	0	0	0	0
40.99612	-0.08173853	-0.3793483	0	0	0	0
41.01231	-0.08173853	-0.3793483	0	0	0	0
41.02914	-0.08173853	-0.3793483	0	0	0	0
41.04565	-0.08173853	-0.3793483	0	0	0	0
41.06202	-0.08173853	-0.3793483	0	0	0	0
41.07858	-0.08173853	-0.3793483	0	0	0	0
41.09515	-0.08173853	-0.3793483	0	0	0	0
41.11172	-0.08252269	-0.3795275	-0.04733191	-0.01081841	-1.42848	-0.3265004
41.12828	-0.08252269	-0.3795275	0	0	1.42848	0.3265004
41.14485	-0.08252269	-0.3795275	0	0	0	0
41.16204	-0.1123668	-0.3844867	-1.735844	-0.2884419	-51.41707	-8.543878
41.17861	-0.1123668	-0.3844867	0	0	51.41707	8.543878
41.19576	-0.1123668	-0.3844867	0	0	0	0
41.21177	-0.1495333	-0.3525105	-2.321415	1.99723	-70.02015	60.24185
41.22876	-0.1495333	-0.3525105	0	0	70.33578	-60.5134
41.24488	-0.1495333	-0.3525105	0	0	0	0
