Time	Pos X	Pos Y	Vel X	Vel Y	Acc X	Acc Y
0.01650042	0.001947366	-0.1261093	-3.025359E-05	0.001959189	4.701316E-07	-3.04452E-05
0.03973024	0.001947366	-0.1261093	0	0	-4.701787E-07	3.044825E-05
0.05629895	0.001947366	-0.1261093	0	0	0	0
0.07286489	0.001973682	-0.126129	0.001588541	-0.001188247	0.047942	-0.03586117
0.09006876	0.001973682	-0.126129	0	0	-0.04704028	0.03518667
0.1060627	0.001973682	-0.126129	0	0	0	0
0.1225663	0.001947366	-0.1261093	-0.001594545	0.001192738	-0.04906666	0.03670242
0.1395882	0.001947366	-0.1261093	0	0	0.0475622	-0.03557707
0.1556997	0.001947366	-0.1261093	0	0	0	0
0.1722645	0.001947366	-0.1261093	0	0	0	0
0.1891316	0.001947366	-0.1261093	0	0	0	0
0.2053995	0.001947366	-0.1261093	0	0	0	0
0.2219643	0.001947366	-0.1261093	0	0	0	0
0.238533	0.001947366	-0.1261093	0	0	0	0
0.2552043	0.001947366	-0.1261093	0	0	0	0
0.2717	0.001947366	-0.1261093	0	0	0	0
0.2882316	0.001947366	-0.1261093	0	0	0	0
0.3052128	0.001947366	-0.1261093	0	0	0	0
0.3213647	0.001947366	-0.1261093	0	0	0	0
0.3379314	0.001947366	-0.1261093	0	0	0	0
0.3544981	0.001947366	-0.1261093	0	0	0	0
0.3712745	0.001947366	-0.1261093	0	0	0	0
0.387632	0.001947366	-0.1261093	0	0	0	0
0.4041987	0.001947366	-0.1261093	0	0	0	0
0.4213299	0.001947366	-0.1261093	0	0	0	0
0.4373318	0.001947366	-0.1261093	0	0	0	0
0.4538989	0.001947366	-0.1261093	0	0	0	0
0.4704645	0.001947366	-0.1261093	0	0	0	0
0.4873553	0.001947366	-0.1261093	0	0	0	0
0.5035987	0.001947366	-0.1261093	0	0	0	0
0.5201651	0.00192105	-0.1260896	-0.001588503	0.001187319	-0.04841557	0.03618799
0.5367318	0.00192105	-0.1260896	0	0	0.04794312	-0.03583485
0.5532994	0.00192105	-0.1260896	0	0	0	0
0.5698645	0.00192105	-0.1260896	0	0	0	0
0.586432	0.00192105	-0.1260896	0	0	0	0
0.6029984	0.00192105	-0.1260896	0	0	0	0
0.6197463	0.00192105	-0.1260896	0	0	0	0
0.6361319	0.00192105	-0.1260896	0	0	0	0
0.6526986	0.00192105	-0.1260896	0	0	0	0
0.669265	0.00192105	-0.1260896	0	0	0	0
0.6858325	0.00192105	-0.1260896	0	0	0	0
0.7023988	0.00192105	-0.1260896	0	0	0	0
0.718964	0.00192105	-0.1260896	0	0	0	0
0.7355323	0.00192105	-0.1260896	0	0	0	0
0.7528293	0.00192105	-0.1260896	0	0	0	0
0.7686645	0.001947366	-0.1260699	0.001661845	0.001243079	0.0501579	0.03751869
0.7853631	0.001947366	-0.1260699	0	0	-0.05108052	-0.03820881
0.8017988	0.001947366	-0.1260699	0	0	0	0
0.8183734	0.001947366	-0.1260699	0	0	0	0
0.8349311	0.001947366	-0.1260699	0	0	0	0
0.8517919	0.001947366	-0.1260699	0	0	0	0
0.8680649	0.001947366	-0.1260699	0	0	0	0
0.8847943	0.001947366	-0.1260699	0	0	0	0
0.9011988	0.001947366	-0.1260699	0	0	0	0
0.9177644	0.001947366	-0.1260699	0	0	0	0
0.9343327	0.001947366	-0.1260699	0	0	0	0
0.9508982	0.001947366	-0.1260699	0	0	0	0
0.967465	0.001947366	-0.1260699	0	0	0	0
0.9843562	0.001947366	-0.1260699	0	0	0	0
1.000598	0.001947366	-0.1260699	0	0	0	0
1.017379	0.001973682	-0.1260503	0.001568253	0.001172183	0.04749048	0.03549654
1.033731	0.001973682	-0.1260503	0	0	-0.047332	-0.03537808
1.050298	0.001973682	-0.1260503	0	0	0	0
1.066909	0.001999997	-0.1260306	0.0015842	0.001185	0.0477489	0.03571672
1.083433	0.001999997	-0.1260306	0	0	-0.04780988	-0.03576234
1.1	0.001999997	-0.1260306	0	0	0	0
1.116564	0.001999997	-0.1260699	0	-0.00237582	0	-0.07170963
1.133132	0.001999997	-0.1260699	0	0	0	0.07170885
1.149699	0.001999997	-0.1260699	0	0	0	0
1.166413	0.001999997	-0.1260699	0	0	0	0
1.182921	0.001999997	-0.1260699	0	0	0	0
1.199466	0.001999997	-0.1260699	0	0	0	0
1.215966	0.001999997	-0.1260699	0	0	0	0
1.232531	0.001999997	-0.1260699	0	0	0	0
1.2495	0.001999997	-0.1260699	0	0	0	0
1.265664	0.001999997	-0.1260699	0	0	0	0
1.282503	0.001999997	-0.1260699	0	0	0	0
1.298799	0.001999997	-0.1260699	0	0	0	0
1.315364	0.001999997	-0.1260699	0	0	0	0
1.332027	0.001999997	-0.1260699	0	0	0	0
1.348498	0.001999997	-0.1260699	0	0	0	0
1.365073	0.001999997	-0.1260699	0	0	0	0
1.381632	0.001999997	-0.1260699	0	0	0	0
1.398278	0.001999997	-0.1260699	0	0	0	0
1.414774	0.001999997	-0.1260699	0	0	0	0
1.431332	0.001999997	-0.1260699	0	0	0	0
1.447899	0.001999997	-0.1260699	0	0	0	0
1.464465	0.001999997	-0.1260699	0	0	0	0
1.481033	0.001999997	-0.1260699	0	0	0	0
1.497599	0.001999997	-0.1260699	0	0	0	0
1.514164	0.001999997	-0.1260699	0	0	0	0
1.531399	0.001999997	-0.1260699	0	0	0	0
1.547376	0.001999997	-0.1260699	0	0	0	0
1.563883	0.001999997	-0.1260699	0	0	0	0
1.580433	0.001999997	-0.1260699	0	0	0	0
1.597	0.001999997	-0.1260699	0	0	0	0
1.613565	0.001999997	-0.1260699	0	0	0	0
1.630134	0.001999997	-0.1260699	0	0	0	0
1.646698	0.001999997	-0.1260699	0	0	0	0
1.663265	0.001999997	-0.1260699	0	0	0	0
1.679832	0.001999997	-0.1260699	0	0	0	0
1.696398	0.001999997	-0.1260699	0	0	0	0
1.713105	0.001999997	-0.1260699	0	0	0	0
1.729607	0.001999997	-0.1260699	0	0	0	0
1.74664	0.001999997	-0.1260699	0	0	0	0
1.762664	0.001999997	-0.1260699	0	0	0	0
1.779232	0.001999997	-0.1260699	0	0	0	0
1.795798	0.001999997	-0.1260699	0	0	0	0
1.812364	0.001999997	-0.1260699	0	0	0	0
1.828931	0.001999997	-0.1260699	0	0	0	0
1.845498	0.001999997	-0.1260699	0	0	0	0
1.862217	0.001999997	-0.1260699	0	0	0	0
1.878632	0.001999997	-0.1260699	0	0	0	0
1.895198	0.001999997	-0.1260699	0	0	0	0
1.911765	0.001999997	-0.1260699	0	0	0	0
1.928331	0.001999997	-0.1260699	0	0	0	0
1.944985	0.001999997	-0.1260699	0	0	0	0
1.961465	0.001999997	-0.1260699	0	0	0	0
1.978031	0.001999997	-0.1260699	0	0	0	0
1.994598	0.001999997	-0.1260699	0	0	0	0
2.011524	0.001999997	-0.1260699	0	0	0	0
2.027732	0.001999997	-0.1260699	0	0	0	0
2.044558	0.001999997	-0.1260699	0	0	0	0
2.060865	0.001999997	-0.1260699	0	0	0	0
2.077431	0.001999997	-0.1260699	0	0	0	0
2.094109	0.001999997	-0.1260699	0	0	0	0
2.110564	0.001999997	-0.1260699	0	0	0	0
2.127132	0.001999997	-0.1260699	0	0	0	0
2.144129	0.001999997	-0.1260699	0	0	0	0
2.160265	0.001999997	-0.1260699	0	0	0	0
2.177152	0.001999997	-0.1260699	0	0	0	0
2.193398	0.001999997	-0.1260699	0	0	0	0
2.209965	0.001999997	-0.1260699	0	0	0	0
2.226593	0.001999997	-0.1260699	0	0	0	0
2.243098	0.001999997	-0.1260699	0	0	0	0
2.259665	0.001999997	-0.1260699	0	0	0	0
2.276625	0.001999997	-0.1260699	0	0	0	0
2.293157	0.001999997	-0.1260699	0	0	0	0
2.309365	0.001999997	-0.1260699	0	0	0	0
2.325932	0.001999997	-0.1260699	0	0	0	0
2.342706	0.001999997	-0.1260699	0	0	0	0
2.359066	0.001999997	-0.1260699	0	0	0	0
2.375707	0.001999997	-0.1260699	0	0	0	0
2.392205	0.001999997	-0.1260699	0	0	0	0
2.408766	0.001973682	-0.1260503	-0.001589035	0.001187717	-0.04806682	0.03592731
2.425333	0.001973682	-0.1260503	0	0	0.0479665	-0.03585233
2.441899	0.001973682	-0.1260503	0	0	0	0
2.460596	0.001973682	-0.1260503	0	0	0	0
2.475032	0.001973682	-0.1260503	0	0	0	0
2.491839	0.001973682	-0.1260503	0	0	0	0
2.508166	0.001973682	-0.1260503	0	0	0	0
2.524865	0.001973682	-0.1260503	0	0	0	0
2.5413	0.001973682	-0.1260503	0	0	0	0
2.557911	0.001999997	-0.1260699	0.0015842	-0.001184103	0.04793958	-0.03583221
2.574433	0.001999997	-0.1260699	0	0	-0.04781332	0.03573784
2.591	0.001999997	-0.1260699	0	0	0	0
2.607566	0.001999997	-0.1260699	0	0	0	0
2.624133	0.001999997	-0.1260699	0	0	0	0
2.6407	0.001999997	-0.1260699	0	0	0	0
2.657266	0.001999997	-0.1260699	0	0	0	0
2.674473	0.001999997	-0.1260699	0	0	0	0
2.690399	0.001999997	-0.1260699	0	0	0	0
2.706966	0.001973682	-0.1260503	-0.001588464	0.001187289	-0.04888544	0.03653919
2.723535	0.001973682	-0.1260503	0	0	0.04793889	-0.03583169
2.7401	0.001973682	-0.1260503	0	0	0	0
2.756857	0.001999997	-0.1260699	0.001570361	-0.001173759	0.04712571	-0.03522389
2.773363	0.001999997	-0.1260699	0	0	-0.0472105	0.03528726
2.7898	0.001999997	-0.1260699	0	0	0	0
2.806384	0.001999997	-0.1260699	0	0	0	0
2.822934	0.001999997	-0.1260699	0	0	0	0
2.839898	0.001999997	-0.1260699	0	0	0	0
2.856066	0.001999997	-0.1260699	0	0	0	0
2.872933	0.001999997	-0.1260699	0	0	0	0
2.8892	0.001999997	-0.1260699	0	0	0	0
2.905951	0.001999997	-0.1260699	0	0	0	0
2.922462	0.001999997	-0.1260699	0	0	0	0
2.9389	0.001999997	-0.1260699	0	0	0	0
2.955466	0.001973682	-0.1260503	-0.001588532	0.001187341	-0.04813213	0.03597613
2.972033	0.001973682	-0.1260503	0	0	0.04794441	-0.03583582
2.989511	0.001973682	-0.1260503	0	0	0	0
3.009436	0.001973682	-0.1260503	0	0	0	0
3.026004	0.001973682	-0.1260503	0	0	0	0
3.042571	0.001973682	-0.1260503	0	0	0	0
3.059137	0.001999997	-0.1260699	0.001588509	-0.001187324	0.04794338	-0.03583505
3.075705	0.001999997	-0.1260699	0	0	-0.04794269	0.03583453
3.092641	0.001999997	-0.1260699	0	0	0	0
3.109152	0.001973682	-0.1260503	-0.001593854	0.001191319	-0.04765308	0.03561807
3.125668	0.001973682	-0.1260503	0	0	0.04825922	-0.03607112
3.142176	0.001973682	-0.1260503	0	0	0	0
3.158538	0.00192105	-0.1260503	-0.003216786	0	-0.09786445	0
3.175105	0.00192105	-0.1260503	0	0	0.09768943	0
3.191672	0.00192105	-0.1260503	0	0	0	0
3.208238	0.00173684	-0.1259519	-0.01111973	0.005938503	-0.3356111	0.1792334
3.224805	0.00173684	-0.1259519	0	0	0.3356062	-0.1792308
3.241757	0.00173684	-0.1259519	0	0	0	0
3.257938	0.000736842	-0.125283	-0.06179898	0.04133638	-1.865151	1.24757
3.27476	0.000736842	-0.125283	0	0	1.872507	-1.252491
3.291378	0.000736842	-0.125283	0	0	0	0
3.307881	-0.01594602	-0.1132738	-1.010864	0.7276757	-30.52044	21.97031
3.324205	-0.01594602	-0.1132738	0	0	30.79286	-22.16641
3.340772	-0.01594602	-0.1132738	0	0	0	0
3.357439	-0.03582677	-0.09929517	-1.192795	0.83868	-35.89119	25.23587
3.373905	-0.03582677	-0.09929517	0	0	35.9994	-25.31196
3.390476	-0.03582677	-0.09929517	0	0	0	0
3.407038	-0.04935462	-0.1079741	-0.8168368	-0.5240479	-24.65378	-15.81682
3.423605	-0.04935462	-0.1079741	0	0	24.65644	15.81853
3.440171	-0.04935462	-0.1079741	0	0	0	0
3.456738	-0.1052934	-0.1219413	-3.376663	-0.8431145	-101.9138	-25.44671
3.473508	-0.1052934	-0.1219413	0	0	101.2898	25.29093
3.489872	-0.1052934	-0.1219413	0	0	0	0
3.507032	-0.1704611	-0.1308559	-3.797564	-0.5194852	-113.2796	-15.49601
3.523055	-0.1704611	-0.1308559	0	0	114.4427	15.65512
3.540054	-0.1704611	-0.1308559	0	0	0	0
3.559316	-0.2089069	-0.1430899	-1.995933	-0.6351349	-55.0434	-17.51561
3.575883	-0.2089069	-0.1430899	0	0	55.70635	17.72657
3.592451	-0.2089069	-0.1430899	0	0	0	0
3.609454	-0.234649	-0.148009	-1.513946	-0.2892981	-45.09715	-8.617561
3.625583	-0.234649	-0.148009	0	0	45.6936	8.731538
3.64215	-0.234649	-0.148009	0	0	0	0
3.658716	-0.2774201	-0.1683294	-2.581854	-1.226635	-77.92442	-37.0218
3.675499	-0.2774201	-0.1683294	0	0	77.41969	36.782
3.692037	-0.2774201	-0.1683294	0	0	0	0
3.708537	-0.2980587	-0.1725998	-1.250863	-0.2588145	-37.86119	-7.83381
3.725567	-0.2980587	-0.1725998	0	0	37.3066	7.719059
3.741563	-0.2980587	-0.1725998	0	0	0	0
3.758116	-0.2992606	-0.1737238	-0.07260551	-0.06790382	-2.23061	-2.086163
3.774684	-0.2992606	-0.1737238	0	0	2.192106	2.050153
3.791249	-0.2992606	-0.1737238	0	0	0	0
3.807816	-0.3035321	-0.1772602	-0.2578325	-0.213463	-7.782017	-6.442835
3.824383	-0.3035321	-0.1772602	0	0	7.781513	6.442418
3.84095	-0.3035321	-0.1772602	0	0	0	0
3.857516	-0.3168003	-0.1886306	-0.8008969	-0.6863388	-24.17216	-20.71464
3.874084	-0.3168003	-0.1886306	0	0	24.17094	20.7136
3.89065	-0.3168003	-0.1886306	0	0	0	0
3.907216	-0.3168716	-0.1886912	-0.004303211	-0.003660068	-0.1298805	-0.110469
3.92381	-0.3168716	-0.1886912	0	0	0.1297722	0.1103769
3.940351	-0.3168716	-0.1886912	0	0	0	0
3.956917	-0.3168003	-0.1887114	0.004303211	-0.001220622	0.1299797	-0.03686923
3.973842	-0.3168003	-0.1887114	0	0	-0.1284881	0.03644613
3.990051	-0.3168003	-0.1887114	0	0	0	0
4.006617	-0.3165389	-0.1889338	0.01577904	-0.01342235	0.4814398	-0.409534
4.023184	-0.3165389	-0.1889338	0	0	-0.4762295	0.4051018
4.039901	-0.3165389	-0.1889338	0	0	0	0
4.0564	-0.3161824	-0.189237	0.02160884	-0.01837916	0.6505552	-0.5533227
4.072885	-0.3161824	-0.189237	0	0	-0.6551354	0.5572183
4.089924	-0.3161824	-0.189237	0	0	0	0
4.107085	-0.3145175	-0.1906528	0.09702019	-0.08249886	2.836832	-2.412234
4.123652	-0.3145175	-0.1906528	0	0	-2.876537	2.445996
4.140463	-0.3145175	-0.1906528	0	0	0	0
4.156786	-0.3134701	-0.1915431	0.06417064	-0.05454668	1.936729	-1.64627
4.173484	-0.3134701	-0.1915431	0	0	-1.94333	1.65188
4.190006	-0.3134701	-0.1915431	0	0	0	0
4.206485	-0.3134463	-0.1915229	0.001444993	0.001227972	0.0437864	0.03721022
4.223053	-0.3134463	-0.1915229	0	0	-0.04372638	-0.03715921
4.23962	-0.3134463	-0.1915229	0	0	0	0
4.256186	-0.3134463	-0.1915229	0	0	0	0
4.272753	-0.3134463	-0.1915229	0	0	0	0
4.289546	-0.3134463	-0.1915229	0	0	0	0
4.305885	-0.3134224	-0.1915026	0.001457391	0.001239421	0.04398731	0.03740848
4.323096	-0.3134224	-0.1915026	0	0	-0.04343965	-0.03694273
4.339123	-0.3134224	-0.1915026	0	0	0	0
4.355585	-0.3134224	-0.1915026	0	0	0	0
4.372379	-0.3134224	-0.1915026	0	0	0	0
4.388719	-0.3134224	-0.1915026	0	0	0	0
4.405285	-0.3133986	-0.1914824	0.001439222	0.001221539	0.04373729	0.03712202
4.421853	-0.3133986	-0.1914824	0	0	-0.04343705	-0.03686719
4.438418	-0.3133986	-0.1914824	0	0	0	0
4.455424	-0.3133272	-0.1914621	0.004200782	0.001189959	0.1251304	0.03544578
4.471553	-0.3133272	-0.1914621	0	0	-0.1267799	-0.03591303
4.48812	-0.3133272	-0.1914621	0	0	0	0
4.504685	-0.3133034	-0.1914419	0.001437464	0.001221575	0.04338587	0.03686985
4.521252	-0.3133034	-0.1914419	0	0	-0.04338587	-0.03686985
4.537819	-0.3133034	-0.1914419	0	0	0	0
4.554385	-0.3132795	-0.1914217	0.001437381	0.001221504	0.0433815	0.03686613
4.571015	-0.3132795	-0.1914217	0	0	-0.04329987	-0.03679676
4.587519	-0.3132795	-0.1914217	0	0	0	0
4.604084	-0.3132795	-0.1914217	0	0	0	0
4.620652	-0.3132795	-0.1914217	0	0	0	0
4.649752	-0.3132795	-0.1914217	0	0	0	0
4.666939	-0.3132795	-0.1914217	0	0	0	0
4.683508	-0.3132795	-0.1914217	0	0	0	0
4.700102	-0.3132795	-0.1914217	0	0	0	0
4.71664	-0.3132795	-0.1914217	0	0	0	0
4.733208	-0.3132795	-0.1914217	0	0	0	0
4.749774	-0.3132795	-0.1914217	0	0	0	0
4.766341	-0.3132557	-0.1914419	0.001437257	-0.001221399	0.04337838	-0.03686348
4.78315	-0.3132557	-0.1914419	0	0	-0.04306231	0.03659488
4.799474	-0.3132557	-0.1914419	0	0	0	0
4.81604	-0.3132081	-0.1914014	0.002876727	0.002443149	0.08746552	0.07428279
4.832689	-0.3132081	-0.1914014	0	0	-0.0866104	-0.07355655
4.849174	-0.3132081	-0.1914014	0	0	0	0
4.86574	-0.3126363	-0.1911586	0.03451154	0.01465895	1.044175	0.4435186
4.882732	-0.3126363	-0.1911586	0	0	-1.028404	-0.4368195
4.898873	-0.3126363	-0.1911586	0	0	0	0
4.91544	-0.304155	-0.197461	0.5119632	-0.3804356	15.65291	-11.63155
4.93226	-0.304155	-0.197461	0	0	-15.33456	11.39499
4.949021	-0.304155	-0.197461	0	0	0	0
4.965139	-0.2914809	-0.2072041	0.786306	-0.6044675	23.91454	-18.38414
4.981707	-0.2914809	-0.2072041	0	0	-24.05618	18.49303
4.998274	-0.2914809	-0.2072041	0	0	0	0
5.01484	-0.2686109	-0.1880647	1.380559	1.155356	41.66775	34.87072
5.031407	-0.2686109	-0.1880647	0	0	-41.66655	-34.86972
5.048121	-0.2686109	-0.1880647	0	0	0	0
5.064622	-0.2173283	-0.1467584	3.107856	2.503269	93.56905	75.36659
5.081132	-0.2173283	-0.1467584	0	0	-94.14617	-75.83145
5.098152	-0.2173283	-0.1467584	0	0	0	0
5.115222	-0.1758489	-0.1144486	2.430052	1.892856	71.28433	55.52596
5.132181	-0.1758489	-0.1144486	0	0	-71.41219	-55.62556
5.148356	-0.1758489	-0.1144486	0	0	0	0
5.164922	-0.1499707	-0.09408219	1.562147	1.229425	47.71144	37.5494
5.18149	-0.1499707	-0.09408219	0	0	-47.14703	-37.1052
5.198056	-0.1499707	-0.09408219	0	0	0	0
5.217646	-0.1164445	-0.06861038	1.711444	1.300284	47.33538	35.96346
5.234214	-0.1164445	-0.06861038	0	0	-47.33288	-35.96156
5.25078	-0.1164445	-0.06861038	0	0	0	0
5.26776	-0.05607274	-0.02451395	3.555328	2.596864	105.9823	77.411
5.283913	-0.05607274	-0.02451395	0	0	-107.3031	-78.37576
5.300784	-0.05607274	-0.02451395	0	0	0	0
5.317045	0.003447355	0.01780774	3.660275	2.602633	110.4753	78.55328
5.333808	0.003447355	0.01780774	0	0	-110.8374	-78.81075
5.350179	0.003447355	0.01780774	0	0	0	0
5.366826	0.0314633	0.03613004	1.682957	1.100646	50.97071	33.33463
5.383313	0.0314633	0.03613004	0	0	-50.79246	-33.21805
5.399879	0.0314633	0.03613004	0	0	0	0
5.416446	0.05701708	0.02435548	1.542474	-0.7107343	46.55396	-21.45093
5.433012	0.05701708	0.02435548	0	0	-46.55463	21.45124
5.449579	0.05701708	0.02435548	0	0	0	0
5.466146	0.08563218	0.0036036	1.727261	-1.252622	52.12958	-37.80476
5.487419	0.08563218	0.0036036	0	0	-45.64656	33.10322
5.499279	0.08563218	0.0036036	0	0	0	0
5.515846	0.092655	-0.001495849	0.4239222	-0.3078211	14.91285	-10.82861
5.532413	0.092655	-0.001495849	0	0	-12.79437	9.290325
5.548979	0.092655	-0.001495849	0	0	0	0
5.565547	0.09249844	-0.00160884	-0.009449202	-0.006819966	-0.2851816	-0.2058299
5.582113	0.09249844	-0.00160884	0	0	0.2851816	0.2058299
5.599023	0.09249844	-0.00160884	0	0	0	0
5.615246	0.09242018	-0.001627673	-0.004824544	-0.001160841	-0.1456113	-0.03503577
5.63203	0.09242018	-0.001627673	0	0	0.1461709	0.03517041
5.648379	0.09242018	-0.001627673	0	0	0	0
5.664946	0.09242018	-0.001627673	0	0	0	0
5.681513	0.09242018	-0.001627673	0	0	0	0
5.69808	0.09242018	-0.001627673	0	0	0	0
5.714645	0.09228972	-0.001721835	-0.007875241	-0.005684167	-0.2376924	-0.1715608
5.731215	0.09228972	-0.001721835	0	0	0.237665	0.1715411
5.748121	0.09228972	-0.001721835	0	0	0	0
5.768441	0.09208097	-0.001872502	-0.01027305	-0.007414867	-0.27597	-0.1991892
5.785145	0.09208097	-0.001872502	0	0	0.27747	0.2002718
5.801646	0.09195051	-0.001966671	-0.007906643	-0.005706929	-0.2381124	-0.1718669
5.818142	0.09195051	-0.001966671	0	0	0.2396161	0.1729523
5.834709	0.09195051	-0.001966671	0	0	0	0
5.851275	0.09158517	-0.002268033	-0.02205274	-0.01819125	-0.6655817	-0.5490368
5.867843	0.09158517	-0.002268033	0	0	0.6655626	0.5490209
5.884718	0.09158517	-0.002268033	0	0	0	0
5.900975	0.08354194	-0.008074612	-0.4947607	-0.3571783	-14.93298	-10.78044
5.917542	0.08354194	-0.008074612	0	0	15.07312	10.88161
5.93411	0.08354194	-0.008074612	0	0	0	0
5.95076	0.04840952	-0.03351722	-2.10997	-1.528022	-63.51905	-45.99995
5.967242	0.04840952	-0.03351722	0	0	63.68268	46.11845
5.984797	0.04840952	-0.03351722	0	0	0	0
6.000798	0.008815561	-0.06234132	-2.474507	-1.801423	-73.74368	-53.68486
6.017309	0.008815561	-0.06234132	0	0	76.11124	55.40842
6.036532	0.008815561	-0.06234132	0	0	0	0
6.050105	-0.024311	-0.08651437	-2.440677	-1.781006	-74.42017	-54.30573
6.066642	-0.024311	-0.08651437	0	0	81.059	59.15021
6.083654	-0.024311	-0.08651437	0	0	0	0
6.099775	-0.03041167	-0.09097485	-0.3784324	-0.2766893	-11.42161	-8.350861
6.116343	-0.03041167	-0.09097485	0	0	11.57689	8.464394
6.13291	-0.03041167	-0.09097485	0	0	0	0
6.14968	-0.03030651	-0.09089721	0.006271348	0.004630008	0.1881191	0.1388845
6.166696	-0.03030651	-0.09089721	0	0	-0.1856207	-0.13704
6.182713	-0.03030651	-0.09089721	0	0	0	0
6.199209	-0.03025392	-0.09093603	0.003187554	-0.002353122	0.09803895	-0.07237448
6.215743	-0.03025392	-0.09093603	0	0	-0.09650612	0.07124291
6.23231	-0.03025392	-0.09093603	0	0	0	0
6.248875	-0.03022763	-0.09091662	0.001587171	0.001171684	0.04790366	0.03536353
6.265442	-0.03022763	-0.09091662	0	0	-0.04790435	-0.03536404
6.282269	-0.03022763	-0.09091662	0	0	0	0
6.298786	-0.03020134	-0.09089721	0.001591865	0.001175066	0.04774167	0.03524144
6.315142	-0.03020134	-0.09089721	0	0	-0.04842378	-0.03574495
6.331709	-0.03020134	-0.09089721	0	0	0	0
6.348275	-0.03020134	-0.09089721	0	0	0	0
6.364842	-0.03020134	-0.09089721	0	0	0	0
6.381409	-0.03020134	-0.09089721	0	0	0	0
6.397975	-0.03014876	-0.09093603	0.003174159	-0.002343233	0.09580043	-0.07072195
6.414862	-0.03014876	-0.09093603	0	0	-0.09488416	0.07004555
6.431109	-0.03014876	-0.09093603	0	0	0	0
6.447676	-0.03014876	-0.09097485	0	-0.002343548	0	-0.07142012
6.46442	-0.03014876	-0.09097485	0	0	0	0.07035379
6.481421	-0.03014876	-0.09097485	0	0	0	0
6.497445	-0.03012246	-0.09099426	0.001640797	-0.001211186	0.04968308	-0.03667454
6.513943	-0.03012246	-0.09099426	0	0	-0.0504516	0.03724183
6.53051	-0.03012246	-0.09099426	0	0	0	0
6.547076	-0.03009617	-0.09101367	0.001587079	-0.001171616	0.04790021	-0.03536098
6.568506	-0.03009617	-0.09101367	0	0	-0.04176932	0.03083502
6.580209	-0.03009617	-0.09101367	0	0	0	0
6.596897	-0.03009617	-0.09101367	0	0	0	0
6.613343	-0.03009617	-0.09101367	0	0	0	0
6.62991	-0.03009617	-0.09101367	0	0	0	0
6.646476	-0.03009617	-0.09101367	0	0	0	0
6.663457	-0.03009617	-0.09101367	0	0	0	0
6.67961	-0.03009617	-0.09101367	0	0	0	0
6.696176	-0.03012246	-0.09099426	-0.001587079	0.001171616	-0.04850686	0.03580881
6.712747	-0.03012246	-0.09099426	0	0	0.04789539	-0.03535742
6.729481	-0.03012246	-0.09099426	0	0	0	0
6.745876	-0.03012246	-0.09099426	0	0	0	0
6.762444	-0.03012246	-0.09099426	0	0	0	0
6.779075	-0.03012246	-0.09099426	0	0	0	0
6.795576	-0.03012246	-0.09099426	0	0	0	0
6.812144	-0.03012246	-0.09099426	0	0	0	0
6.82871	-0.03012246	-0.09099426	0	0	0	0
6.848613	-0.03009617	-0.09101367	0.001320988	-0.0009751821	0.03622223	-0.02674004
6.865181	-0.03009617	-0.09101367	0	0	-0.03622034	0.02673864
6.881749	-0.03009617	-0.09101367	0	0	0	0
6.898592	-0.03009617	-0.09101367	0	0	0	0
6.915104	-0.03009617	-0.09101367	0	0	0	0
6.931615	-0.03009617	-0.09101367	0	0	0	0
6.948148	-0.03009617	-0.09101367	0	0	0	0
6.96465	-0.03009617	-0.09101367	0	0	0	0
6.981161	-0.03009617	-0.09101367	0	0	0	0
6.997713	-0.03009617	-0.09101367	0	0	0	0
7.01428	-0.03009617	-0.09101367	0	0	0	0
7.030847	-0.03009617	-0.09101367	0	0	0	0
7.047412	-0.03009617	-0.09101367	0	0	0	0
7.064214	-0.03009617	-0.09101367	0	0	0	0
7.080547	-0.03009617	-0.09101367	0	0	0	0
7.097113	-0.03012246	-0.09099426	-0.001587079	0.001171616	-0.0482411	0.03561263
7.11618	-0.03012246	-0.09099426	0	0	0.04453948	-0.03288001
7.130247	-0.03012246	-0.09099426	0	0	0	0
7.146813	-0.03012246	-0.09099426	0	0	0	0
7.16338	-0.03012246	-0.09099426	0	0	0	0
7.179951	-0.03012246	-0.09099426	0	0	0	0
7.196513	-0.03012246	-0.09099426	0	0	0	0
7.213314	-0.03012246	-0.09099426	0	0	0	0
7.229829	-0.03012246	-0.09099426	0	0	0	0
7.246213	-0.03012246	-0.09099426	0	0	0	0
7.262867	-0.03012246	-0.09099426	0	0	0	0
7.279373	-0.03012246	-0.09099426	0	0	0	0
7.296369	-0.03012246	-0.09099426	0	0	0	0
7.312888	-0.03012246	-0.09099426	0	0	0	0
7.329048	-0.03012246	-0.09099426	0	0	0	0
7.34591	-0.03012246	-0.09099426	0	0	0	0
7.362181	-0.03012246	-0.09099426	0	0	0	0
7.378749	-0.03012246	-0.09099426	0	0	0	0
7.395358	-0.03012246	-0.09099426	0	0	0	0
7.411883	-0.03012246	-0.09099426	0	0	0	0
7.428449	-0.03012246	-0.09099426	0	0	0	0
7.445014	-0.03012246	-0.09099426	0	0	0	0
7.461892	-0.03012246	-0.09099426	0	0	0	0
7.478149	-0.03012246	-0.09099426	0	0	0	0
7.494714	-0.03012246	-0.09099426	0	0	0	0
7.51144	-0.03012246	-0.09099426	0	0	0	0
7.527848	-0.03012246	-0.09099426	0	0	0	0
7.544414	-0.03012246	-0.09099426	0	0	0	0
7.56098	-0.03012246	-0.09099426	0	0	0	0
7.577548	-0.03012246	-0.09099426	0	0	0	0
7.594115	-0.03012246	-0.09099426	0	0	0	0
7.61101	-0.03012246	-0.09099426	0	0	0	0
7.627247	-0.03012246	-0.09099426	0	0	0	0
7.643814	-0.03012246	-0.09099426	0	0	0	0
7.668783	-0.03012246	-0.09099426	0	0	0	0
7.678672	-0.03012246	-0.09099426	0	0	0	0
7.695243	-0.03012246	-0.09099426	0	0	0	0
7.71181	-0.03012246	-0.09099426	0	0	0	0
7.728374	-0.03012246	-0.09099426	0	0	0	0
7.744939	-0.03012246	-0.09099426	0	0	0	0
7.761507	-0.03012246	-0.09099426	0	0	0	0
7.778344	-0.03012246	-0.09099426	0	0	0	0
7.794639	-0.03012246	-0.09099426	0	0	0	0
7.811328	-0.03012246	-0.09099426	0	0	0	0
7.827846	-0.03012246	-0.09099426	0	0	0	0
7.84434	-0.03012246	-0.09099426	0	0	0	0
7.860907	-0.03012246	-0.09099426	0	0	0	0
7.877473	-0.03012246	-0.09099426	0	0	0	0
7.894039	-0.03012246	-0.09099426	0	0	0	0
7.910607	-0.03012246	-0.09099426	0	0	0	0
7.927415	-0.03012246	-0.09099426	0	0	0	0
7.943936	-0.03012246	-0.09099426	0	0	0	0
7.960421	-0.03012246	-0.09099426	0	0	0	0
7.976873	-0.03012246	-0.09099426	0	0	0	0
7.99344	-0.03012246	-0.09099426	0	0	0	0
8.010007	-0.03012246	-0.09099426	0	0	0	0
8.026573	-0.03012246	-0.09099426	0	0	0	0
8.043139	-0.03012246	-0.09099426	0	0	0	0
8.059972	-0.03012246	-0.09099426	0	0	0	0
8.076273	-0.03012246	-0.09099426	0	0	0	0
8.093015	-0.03012246	-0.09099426	0	0	0	0
8.109527	-0.03012246	-0.09099426	0	0	0	0
8.126042	-0.03012246	-0.09099426	0	0	0	0
8.14254	-0.03012246	-0.09099426	0	0	0	0
8.159106	-0.03012246	-0.09099426	0	0	0	0
8.175673	-0.03012246	-0.09099426	0	0	0	0
8.192239	-0.03022763	-0.09114954	-0.006348359	-0.009373111	-0.1916049	-0.2828973
8.208806	-0.03022763	-0.09114954	0	0	0.1915994	0.2828892
8.225372	-0.03022763	-0.09114954	0	0	0	0
8.241948	-0.02941257	-0.09179018	0.04917198	-0.03864897	1.483672	-1.16616
8.258506	-0.02941257	-0.09179018	0	0	-1.484056	1.166462
8.275322	-0.02941257	-0.09179018	0	0	0	0
8.29188	0.0003947368	-0.1128627	1.800209	-1.272672	53.94073	-38.13382
8.308344	0.0003947368	-0.1128627	0	0	-54.51556	38.5402
8.324844	0.0003947368	-0.1128627	0	0	0	0
8.341337	0.08077126	-0.1515458	4.873418	-2.345451	147.7092	-71.08867
8.357904	0.08077126	-0.1515458	0	0	-147.411	70.94512
8.3749	0.08077126	-0.1515458	0	0	0	0
8.391037	0.1771497	-0.165407	5.972465	-0.8589613	180.2597	-25.925
8.407604	0.1771497	-0.165407	0	0	-182.6199	26.26443
8.424435	0.1771497	-0.165407	0	0	0	0
8.440738	0.2243932	-0.1609704	2.897831	0.2721337	87.45923	8.213247
8.457304	0.2243932	-0.1609704	0	0	-88.16213	-8.279256
8.47397	0.2243932	-0.1609704	0	0	0	0
8.490438	0.226893	-0.1594934	0.1518087	0.08969241	4.581728	2.707
8.507004	0.226893	-0.1594934	0	0	-4.595617	-2.715206
8.523995	0.226893	-0.1594934	0	0	0	0
8.540137	0.2343254	-0.165487	0.460439	-0.3713075	13.89648	-11.2064
8.557014	0.2343254	-0.165487	0	0	-13.94504	11.24557
8.573271	0.2343254	-0.165487	0	0	0	0
8.590034	0.2365152	-0.1672881	0.130635	-0.1074478	3.956237	-3.254019
8.606544	0.2365152	-0.1672881	0	0	-3.926187	3.229303
8.622972	0.2365152	-0.1672881	0	0	0	0
8.639538	0.2362664	-0.1672881	-0.01501425	0	-0.4550562	0
8.656111	0.2362664	-0.1672881	0	0	0.4530657	0
8.67312	0.2362664	-0.1672881	0	0	0	0
8.689239	0.2346241	-0.1685698	-0.1018879	-0.07951352	-3.075603	-2.400206
8.705806	0.2346241	-0.1685698	0	0	3.11715	2.43263
8.722373	0.2346241	-0.1685698	0	0	0	0
8.739147	0.2344748	-0.1684496	-0.008903825	0.007165345	-0.2670501	0.2149083
8.755506	0.2344748	-0.1684496	0	0	0.2687334	-0.216263
8.772243	0.2344748	-0.1684496	0	0	0	0
8.788639	0.2337776	-0.1678888	-0.04252341	0.03420377	-1.283396	1.032302
8.805264	0.2337776	-0.1678888	0	0	1.28777	-1.03582
8.821774	0.2337776	-0.1678888	0	0	0	0
8.83834	0.2296645	-0.164587	-0.2482811	0.1993121	-7.506533	6.026004
8.854906	0.2296645	-0.164587	0	0	7.493569	-6.015597
8.871817	0.2296645	-0.164587	0	0	0	0
8.888039	0.1918987	-0.135197	-2.32806	1.811737	-70.26502	54.68147
8.904821	0.1918987	-0.135197	0	0	70.53709	-54.89319
8.921173	0.1918987	-0.135197	0	0	0	0
8.937739	0.1414181	-0.1008143	-3.047192	2.075461	-92.56923	63.04946
8.954306	0.1414181	-0.1008143	0	0	91.96972	-62.64113
8.970872	0.1414181	-0.1008143	0	0	0	0
8.987902	0.1195846	-0.08604935	-1.282079	0.8670103	-38.1616	25.80692
9.004005	0.1195846	-0.08604935	0	0	38.69432	-26.16718
9.020572	0.1195846	-0.08604935	0	0	0	0
9.037138	0.1197402	-0.08620435	0.009395149	-0.009356471	0.2835625	-0.2823951
9.053704	0.1197402	-0.08620435	0	0	-0.2835625	0.2823951
9.071067	0.1197402	-0.08620435	0	0	0	0
9.086838	0.119818	-0.08622372	0.004934484	-0.001228306	0.1489273	-0.03707142
9.103405	0.119818	-0.08622372	0	0	-0.1525902	0.0379832
9.120102	0.119818	-0.08622372	0	0	0	0
9.136601	0.119818	-0.08622372	0	0	0	0
9.153105	0.119818	-0.08622372	0	0	0	0
9.169671	0.119818	-0.08622372	0	0	0	0
9.186237	0.1198959	-0.08628185	0.004697574	-0.003508901	0.1417812	-0.1059049
9.202805	0.1198959	-0.08628185	0	0	-0.1417772	0.1059019
9.219371	0.1198959	-0.08628185	0	0	0	0
9.236184	0.1199218	-0.08633997	0.001542559	-0.003456909	0.04621269	-0.1035637
9.252504	0.1199218	-0.08633997	0	0	-0.04655586	0.1043327
9.269071	0.1199218	-0.08633997	0	0	0	0
9.285637	0.1199218	-0.08633997	0	0	0	0
9.302204	0.1199218	-0.08633997	0	0	0	0
9.31923	0.1199218	-0.08633997	0	0	0	0
9.335337	0.119844	-0.08628185	-0.004831177	0.00360858	-0.1458136	0.1089134
9.351904	0.119844	-0.08628185	0	0	0.1478607	-0.1104425
9.36847	0.119844	-0.08628185	0	0	0	0
9.385277	0.119844	-0.08628185	0	0	0	0
9.401603	0.119844	-0.08628185	0	0	0	0
9.418169	0.119844	-0.08628185	0	0	0	0
9.434735	0.119844	-0.08628185	0	0	0	0
9.451308	0.119844	-0.08628185	0	0	0	0
9.468348	0.119844	-0.08628185	0	0	0	0
9.484436	0.1195586	-0.08661126	-0.01773627	-0.02047458	-0.5353897	-0.6180487
9.501003	0.1195586	-0.08661126	0	0	0.5431292	0.6269832
9.517871	0.1195586	-0.08661126	0	0	0	0
9.534136	0.1020912	-0.09962619	-1.073933	-0.8001846	-32.41323	-24.15101
9.550702	0.1020912	-0.09962619	0	0	32.71076	24.37269
9.567912	0.1020912	-0.09962619	0	0	0	0
9.58392	0.08027449	-0.1158787	-1.362912	-1.015314	-41.03002	-30.56569
9.600402	0.08027449	-0.1158787	0	0	41.94895	31.25025
9.616969	0.08027449	-0.1158787	0	0	0	0
9.633535	0.07747619	-0.1179764	-0.1689157	-0.126624	-5.098032	-3.82163
9.650391	0.07747619	-0.1179764	0	0	5.0541	3.788697
9.666915	0.07747619	-0.1179764	0	0	0	0
9.683235	0.07750235	-0.1179568	0.001602857	0.001201572	0.04880131	0.03658361
9.699802	0.07750235	-0.1179568	0	0	-0.04873763	-0.03653587
9.716369	0.07750235	-0.1179568	0	0	0	0
9.732934	0.07760698	-0.1179176	0.006316116	0.002368038	0.1906372	0.07147369
9.749501	0.07760698	-0.1179176	0	0	-0.1906317	-0.07147163
9.766068	0.07760698	-0.1179176	0	0	0	0
9.782635	0.07779007	-0.1177803	0.01105245	0.00828653	0.3335733	0.2500952
9.799202	0.07779007	-0.1177803	0	0	-0.3335733	-0.2500952
9.815768	0.07779007	-0.1177803	0	0	0	0
9.832516	0.07784239	-0.1177411	0.003123932	0.002342282	0.09377306	0.07030976
9.848902	0.07784239	-0.1177411	0	0	-0.09428318	-0.07069224
9.86547	0.07784239	-0.1177411	0	0	0	0
9.882035	0.07786855	-0.1177607	0.001579141	-0.001183794	0.04765996	-0.035728
9.898603	0.07786855	-0.1177607	0	0	-0.04765996	0.035728
9.915541	0.07786855	-0.1177607	0	0	0	0
9.931735	0.07786855	-0.1177607	0	0	0	0
9.948575	0.07786855	-0.1177607	0	0	0	0
9.964869	0.07786855	-0.1177607	0	0	0	0
9.981436	0.07784239	-0.1177803	-0.001579051	-0.001184175	-0.04805278	-0.03603616
9.998089	0.07784239	-0.1177803	0	0	0.04753408	0.03564717
10.01457	0.07784239	-0.1177803	0	0	0	0
10.03114	0.07781623	-0.1177607	-0.001579051	0.001184175	-0.04778237	0.03583337
10.0477	0.07781623	-0.1177607	0	0	0.04765859	-0.03574054
10.06464	0.07781623	-0.1177607	0	0	0	0
10.08084	0.07781623	-0.1177607	0	0	0	0
10.0974	0.07781623	-0.1177607	0	0	0	0
10.11397	0.07781623	-0.1177607	0	0	0	0
10.13053	0.07784239	-0.1177803	0.001579051	-0.001184175	0.04765859	-0.03574054
10.14711	0.07784239	-0.1177803	0	0	-0.04764213	0.0357282
10.16367	0.07784239	-0.1177803	0	0	0	0
10.18023	0.07784239	-0.1177803	0	0	0	0
10.19714	0.07784239	-0.1177803	0	0	0	0
10.21337	0.07784239	-0.1177803	0	0	0	0
10.22993	0.07784239	-0.1177803	0	0	0	0
10.24669	0.07784239	-0.1177803	0	0	0	0
10.26307	0.07784239	-0.1177803	0	0	0	0
10.2797	0.07781623	-0.1177607	-0.001572893	0.001179558	-0.04764555	0.03573077
10.2962	0.07781623	-0.1177607	0	0	0.04747138	-0.03560016
10.31277	0.07781623	-0.1177607	0	0	0	0
10.32933	0.07781623	-0.1177607	0	0	0	0
10.34625	0.07781623	-0.1177607	0	0	0	0
10.36247	0.07781623	-0.1177607	0	0	0	0
10.37929	0.07781623	-0.1177607	0	0	0	0
10.3956	0.07781623	-0.1177607	0	0	0	0
10.41217	0.07781623	-0.1177607	0	0	0	0
10.42873	0.07781623	-0.1177607	0	0	0	0
10.4453	0.07781623	-0.1177607	0	0	0	0
10.46187	0.07781623	-0.1177607	0	0	0	0
10.47844	0.07784239	-0.1177803	0.001579232	-0.001184312	0.04766544	-0.03574569
10.495	0.07784239	-0.1177803	0	0	-0.04766407	0.03574466
10.51157	0.07784239	-0.1177803	0	0	0	0
10.52835	0.07784239	-0.1177803	0	0	0	0
10.5447	0.07784239	-0.1177803	0	0	0	0
10.56127	0.07784239	-0.1177803	0	0	0	0
10.57784	0.07784239	-0.1177803	0	0	0	0
10.59441	0.07784239	-0.1177803	0	0	0	0
10.61097	0.07784239	-0.1177803	0	0	0	0
10.6279	0.07784239	-0.1177803	0	0	0	0
10.6441	0.07784239	-0.1177803	0	0	0	0
10.66067	0.07784239	-0.1177803	0	0	0	0
10.67743	0.07784239	-0.1177803	0	0	0	0
10.69389	0.07784239	-0.1177803	0	0	0	0
10.71039	0.07784239	-0.1177803	0	0	0	0
10.72694	0.07784239	-0.1177803	0	0	0	0
10.7435	0.07784239	-0.1177803	0	0	0	0
10.76007	0.07784239	-0.1177803	0	0	0	0
10.77664	0.07784239	-0.1177803	0	0	0	0
10.79345	0.07784239	-0.1177803	0	0	0	0
10.80977	0.07784239	-0.1177803	0	0	0	0
10.82634	0.07784239	-0.1177803	0	0	0	0
10.84299	0.07784239	-0.1177803	0	0	0	0
10.85947	0.07784239	-0.1177803	0	0	0	0
10.87604	0.07784239	-0.1177803	0	0	0	0
10.8926	0.07784239	-0.1177803	0	0	0	0
10.90917	0.07784239	-0.1177803	0	0	0	0
10.92573	0.07784239	-0.1177803	0	0	0	0
10.94256	0.07784239	-0.1177803	0	0	0	0
10.95887	0.07784239	-0.1177803	0	0	0	0
10.97543	0.07784239	-0.1177803	0	0	0	0
10.992	0.07784239	-0.1177803	0	0	0	0
11.00857	0.07784239	-0.1177803	0	0	0	0
11.02514	0.07784239	-0.1177803	0	0	0	0
11.04193	0.07784239	-0.1177803	0	0	0	0
11.05827	0.07784239	-0.1177803	0	0	0	0
11.07492	0.07784239	-0.1177803	0	0	0	0
11.0914	0.07784239	-0.1177803	0	0	0	0
11.10797	0.07784239	-0.1177803	0	0	0	0
11.12453	0.07784239	-0.1177803	0	0	0	0
11.1411	0.07784239	-0.1177803	0	0	0	0
11.15799	0.07784239	-0.1177803	0	0	0	0
11.17449	0.07784239	-0.1177803	0	0	0	0
11.19102	0.07784239	-0.1177803	0	0	0	0
11.20754	0.07784239	-0.1177803	0	0	0	0
11.22859	0.07784239	-0.1177803	0	0	0	0
11.24516	0.07784239	-0.1177803	0	0	0	0
11.26172	0.07784239	-0.1177803	0	0	0	0
11.27829	0.07784239	-0.1177803	0	0	0	0
11.29521	0.07784239	-0.1177803	0	0	0	0
11.31142	0.07784239	-0.1177803	0	0	0	0
11.32799	0.07784239	-0.1177803	0	0	0	0
11.34475	0.07784239	-0.1177803	0	0	0	0
11.36112	0.07784239	-0.1177803	0	0	0	0
11.37776	0.07784239	-0.1177803	0	0	0	0
11.3943	0.07784239	-0.1177803	0	0	0	0
11.41082	0.07784239	-0.1177803	0	0	0	0
11.42781	0.07784239	-0.1177803	0	0	0	0
11.44396	0.07784239	-0.1177803	0	0	0	0
11.46053	0.07784239	-0.1177803	0	0	0	0
11.47735	0.07784239	-0.1177803	0	0	0	0
11.49436	0.07784239	-0.1177803	0	0	0	0
11.51396	0.07784239	-0.1177803	0	0	0	0
11.53089	0.07784239	-0.1177803	0	0	0	0
11.5471	0.07784239	-0.1177803	0	0	0	0
11.56366	0.07784239	-0.1177803	0	0	0	0
11.5804	0.07784239	-0.1177803	0	0	0	0
11.5968	0.07784239	-0.1177803	0	0	0	0
11.61344	0.07784239	-0.1177803	0	0	0	0
11.62993	0.07784239	-0.1177803	0	0	0	0
11.64649	0.07784239	-0.1177803	0	0	0	0
11.66306	0.07784239	-0.1177803	0	0	0	0
11.67963	0.07784239	-0.1177803	0	0	0	0
11.69619	0.07784239	-0.1177803	0	0	0	0
11.71276	0.07784239	-0.1177803	0	0	0	0
11.72933	0.07784239	-0.1177803	0	0	0	0
11.74589	0.07784239	-0.1177803	0	0	0	0
11.76246	0.07784239	-0.1177803	0	0	0	0
11.77903	0.07784239	-0.1177803	0	0	0	0
11.79605	0.07784239	-0.1177803	0	0	0	0
11.81216	0.07784239	-0.1177803	0	0	0	0
11.82873	0.07784239	-0.1177803	0	0	0	0
11.84529	0.07784239	-0.1177803	0	0	0	0
11.86186	0.07784239	-0.1177803	0	0	0	0
11.87861	0.07784239	-0.1177803	0	0	0	0
11.89499	0.07784239	-0.1177803	0	0	0	0
11.91156	0.07784239	-0.1177803	0	0	0	0
11.92813	0.07784239	-0.1177803	0	0	0	0
11.9447	0.07784239	-0.1177803	0	0	0	0
11.96218	0.07784239	-0.1177803	0	0	0	0
11.97869	0.07784239	-0.1177803	0	0	0	0
11.9944	0.07784239	-0.1177803	0	0	0	0
12.01096	0.07784239	-0.1177803	0	0	0	0
12.02753	0.07784239	-0.1177803	0	0	0	0
12.05321	0.07784239	-0.1177803	0	0	0	0
12.07149	0.07784239	-0.1177803	0	0	0	0
12.08806	0.07784239	-0.1177803	0	0	0	0
12.10463	0.07784239	-0.1177803	0	0	0	0
12.12144	0.07784239	-0.1177803	0	0	0	0
12.13776	0.07784239	-0.1177803	0	0	0	0
12.15446	0.07784239	-0.1177803	0	0	0	0
12.17098	0.07786855	-0.1177999	0.00158434	-0.001187691	0.04769743	-0.03575609
12.18746	0.07786855	-0.1177999	0	0	-0.04801727	0.03599586
12.20403	0.07786855	-0.1177999	0	0	0	0
12.22059	0.0778947	-0.1178195	0.001578601	-0.001183726	0.04764501	-0.03572697
12.23752	0.0778947	-0.1178195	0	0	-0.04712549	0.03533741
12.25373	0.0778947	-0.1178195	0	0	0	0
12.27029	0.07797317	-0.1178784	0.004736702	-0.003551627	0.1445474	-0.1083831
12.28686	0.07797317	-0.1178784	0	0	-0.1429581	0.1071914
12.30343	0.07797317	-0.1178784	0	0	0	0
12.32008	0.07797317	-0.1178784	0	0	0	0
12.33736	0.07797317	-0.1178784	0	0	0	0
12.35374	0.07797317	-0.1178784	0	0	0	0
12.36975	0.07794701	-0.1178588	-0.001634666	0.001225883	-0.05046878	0.03784799
12.38626	0.07794701	-0.1178588	0	0	0.05027338	-0.03770146
12.40283	0.07794701	-0.1178588	0	0	0	0
12.41939	0.07792086	-0.1178392	-0.001578601	0.001183726	-0.04764501	0.03572697
12.4363	0.07792086	-0.1178392	0	0	0.0471604	-0.03536358
12.45253	0.07792086	-0.1178392	0	0	0	0
12.46909	0.07786855	-0.1177999	-0.003157833	0.002367588	-0.09629582	0.07219786
12.48582	0.07786855	-0.1177999	0	0	0.09484226	-0.07110806
12.50235	0.07786855	-0.1177999	0	0	0	0
12.51879	0.07779007	-0.1177019	-0.00477204	0.005962672	-0.1447412	0.1808543
12.53537	0.07779007	-0.1177019	0	0	0.1445071	-0.1805618
12.55193	0.07779007	-0.1177019	0	0	0	0
12.56849	0.07632513	-0.1157024	-0.08842953	0.1206964	-2.669731	3.643883
12.58506	0.07632513	-0.1157024	0	0	2.668809	-3.642625
12.60163	0.07632513	-0.1157024	0	0	0	0
12.62123	0.04376152	-0.08430625	-1.660931	1.601383	-45.91769	44.27144
12.6378	0.04376152	-0.08430625	0	0	45.91648	-44.27028
12.65437	0.04376152	-0.08430625	0	0	0	0
12.67094	0.02496849	-0.05321239	-1.134088	1.876397	-34.22389	56.6249
12.6875	0.02496849	-0.05321239	0	0	34.22783	-56.63142
12.70446	0.02496849	-0.05321239	0	0	0	0
12.72097	0.03191022	-0.03934355	0.4204798	0.8400748	12.5614	25.09636
12.7372	0.03191022	-0.03934355	0	0	-12.84464	-25.66225
12.75377	0.03191022	-0.03934355	0	0	0	0
12.77033	0.04517976	-0.02973416	0.8009974	0.5800568	24.17554	17.50716
12.78702	0.04517976	-0.02973416	0	0	-24.08887	-17.44439
12.80347	0.04517976	-0.02973416	0	0	0	0
12.82003	0.06650703	-0.01425073	1.287465	0.9346896	38.99607	28.31084
12.8366	0.06650703	-0.01425073	0	0	-38.85801	-28.21061
12.85317	0.06650703	-0.01425073	0	0	0	0
12.87008	0.09166346	0.004637597	1.48745	1.116829	44.42968	33.35936
12.89019	0.09166346	0.004637597	0	0	-40.17163	-30.16227
12.90287	0.09166346	0.004637597	0	0	0	0
12.91943	0.09231581	0.04126841	0.03937777	2.211168	1.346769	75.62469
12.93611	0.09231581	0.04126841	0	0	-1.184571	-66.51684
12.95257	0.09231581	0.04126841	0	0	0	0
12.96915	0.0601117	0.0689457	-1.942055	1.669067	-58.77712	50.51503
12.9857	0.0601117	0.0689457	0	0	58.61134	-50.37254
13.00227	0.0601117	0.0689457	0	0	0	0
13.01884	0.03790289	0.08454547	-1.340449	0.9415499	-40.45484	28.41603
13.0354	0.03790289	0.08454547	0	0	40.45716	-28.41767
13.05197	0.03790289	0.08454547	0	0	0	0
13.06872	0.03493315	0.08662483	-0.177244	0.1241031	-5.319076	3.724322
13.0851	0.03493315	0.08662483	0	0	5.349389	-3.745547
13.10176	0.03493315	0.08662483	0	0	0	0
13.11823	0.03330347	0.08831703	-0.09891982	0.1027148	-2.985578	3.100118
13.1348	0.03330347	0.08831703	0	0	2.993764	-3.108618
13.15137	0.03330347	0.08831703	0	0	0	0
13.16793	0.01386753	0.1219027	-1.173223	2.027354	-35.40999	61.18917
13.18478	0.01386753	0.1219027	0	0	35.10984	-60.67052
13.20107	0.01386753	0.1219027	0	0	0	0
13.21779	-0.002342101	0.1406389	-0.9690992	1.120149	-29.35732	33.93312
13.2342	-0.002342101	0.1406389	0	0	29.24831	-33.80713
13.25085	-0.002342101	0.1406389	0	0	0	0
13.26736	-0.003210515	0.1416031	-0.05259015	0.05839049	-1.58585	1.760759
13.2839	-0.003210515	0.1416031	0	0	1.591204	-1.766703
13.30047	-0.003210515	0.1416031	0	0	0	0
13.31703	-0.002763151	0.1424943	0.02700452	0.05379926	0.8150448	1.623758
13.3339	-0.002763151	0.1424943	0	0	-0.8076522	-1.60903
13.35017	-0.002763151	0.1424943	0	0	0	0
13.36693	-0.005631519	0.1537412	-0.1711353	0.6710224	-5.182025	20.31875
13.3833	-0.005631519	0.1537412	0	0	5.165021	-20.25208
13.39987	-0.005631519	0.1537412	0	0	0	0
13.41647	-0.01255197	0.1717388	-0.4168555	1.084089	-12.56806	32.68496
13.433	-0.01255197	0.1717388	0	0	12.58145	-32.71976
13.44957	-0.01255197	0.1717388	0	0	0	0
13.46688	-0.02036561	0.184305	-0.4512164	0.725665	-13.31686	21.41673
13.48338	-0.02036561	0.184305	0	0	13.3424	-21.4578
13.49943	-0.02036561	0.184305	0	0	0	0
13.51583	-0.04286846	0.1998592	-1.371937	0.9482964	-42.28135	29.22528
13.53293	-0.04286846	0.1998592	0	0	40.9537	-28.30759
13.54899	-0.04286846	0.1998592	0	0	0	0
13.56553	-0.06244502	0.2149139	-1.183756	0.9103299	-36.30896	27.92225
13.5821	-0.06244502	0.2149139	0	0	35.75774	-27.49835
13.59867	-0.06244502	0.2149139	0	0	0	0
13.61523	-0.05811869	0.2370701	0.2611682	1.337505	7.882527	40.36829
13.6318	-0.05811869	0.2370701	0	0	-7.882527	-40.36829
13.64899	-0.05811869	0.2370701	0	0	0	0
13.665	-0.05420999	0.2460944	0.2440928	0.5635524	7.351079	16.9719
13.6815	-0.05420999	0.2460944	0	0	-7.508284	-17.33485
13.69807	-0.05420999	0.2460944	0	0	0	0
13.71586	-0.0532916	0.2467579	0.05162729	0.03729963	1.502669	1.085646
13.73243	-0.0532916	0.2467579	0	0	-1.502669	-1.085646
13.74899	-0.0532916	0.2467579	0	0	0	0
13.7656	-0.0540788	0.2472959	-0.04738719	0.03238382	-1.428257	0.9760533
13.78262	-0.0540788	0.2472959	0	0	1.409299	-0.9630976
13.79869	-0.0540788	0.2472959	0	0	0	0
13.81526	-0.06448939	0.2543049	-0.6284209	0.4230938	-19.2517	12.96149
13.83215	-0.06448939	0.2543049	0	0	18.78305	-12.64597
13.84865	-0.06448939	0.2543049	0	0	0	0
13.86496	-0.07399623	0.2592322	-0.5830978	0.3022088	-17.77236	9.211084
13.88168	-0.07399623	0.2592322	0	0	17.65484	-9.150177
13.89809	-0.07399623	0.2592322	0	0	0	0
13.91466	-0.07718844	0.2570465	-0.1926932	-0.131935	-5.843242	-4.000807
13.93123	-0.07718844	0.2570465	0	0	5.81566	3.981922
13.94822	-0.07718844	0.2570465	0	0	0	0
13.96436	-0.07713612	0.2570465	0.003241705	0	0.09784048	0
13.98126	-0.07713612	0.2570465	0	0	-0.09810309	0
13.99758	-0.07713612	0.2570465	0	0	0	0
14.0141	-0.07710996	0.2570286	0.001583243	-0.001084055	0.04821675	-0.03301426
14.03063	-0.07710996	0.2570286	0	0	-0.04790647	0.03280181
14.04719	-0.07710996	0.2570286	0	0	0	0
14.06412	-0.07700533	0.2571003	0.006182731	0.004235109	0.1846132	0.1264582
14.08033	-0.07700533	0.2571003	0	0	-0.1866059	-0.1278232
14.09689	-0.07700533	0.2571003	0	0	0	0
14.11346	-0.07527854	0.2570644	0.1042413	-0.002162493	3.146191	-0.06526792
14.13002	-0.07527854	0.2570644	0	0	-3.146281	0.0652698
14.14659	-0.07527854	0.2570644	0	0	0	0
14.16318	-0.05400008	0.2623667	1.282893	0.3196764	38.69551	9.642303
14.18012	-0.05400008	0.2623667	0	0	-38.2586	-9.533433
14.19631	-0.05400008	0.2623667	0	0	0	0
14.21315	0.01320976	0.2517599	3.990862	-0.6298205	120.827	-19.06839
14.22965	0.01320976	0.2517599	0	0	-119.714	18.89274
14.24601	0.01320976	0.2517599	0	0	0	0
14.26317	0.05874811	0.2388289	2.653686	-0.753535	79.15658	-22.47714
14.28166	0.05874811	0.2388289	0	0	-74.43268	21.13575
14.29571	0.05874811	0.2388289	0	0	0	0
14.31237	0.06488249	0.2416281	0.3681735	0.167998	11.989	5.470598
14.32885	0.06488249	0.2416281	0	0	-11.11214	-5.070483
14.34541	0.06488249	0.2416281	0	0	0	0
14.36198	0.06514453	0.2417716	0.01581794	0.008663865	0.4774139	0.261491
14.37854	0.06514453	0.2417716	0	0	-0.4774001	-0.2614835
14.39593	0.06514453	0.2417716	0	0	0	0
14.41168	0.06603543	0.2422739	0.05656505	0.03189335	1.707186	0.962571
14.42825	0.06603543	0.2422739	0	0	-1.749949	-0.9866822
14.44498	0.06603543	0.2422739	0	0	0	0
14.46148	0.08267951	0.2429915	1.008703	0.04348757	30.3571	1.308766
14.47799	0.08267951	0.2429915	0	0	-30.55441	-1.317272
14.49501	0.08267951	0.2429915	0	0	0	0
14.51108	0.1483752	0.2344673	4.088485	-0.5304942	123.5721	-16.03388
14.52765	0.1483752	0.2344673	0	0	-125.2802	16.25551
14.54451	0.1483752	0.2344673	0	0	0	0
14.56193	0.1765121	0.2278223	1.615315	-0.3814784	47.11359	-11.12651
14.5785	0.1765121	0.2278223	0	0	-47.52738	11.22423
14.59507	0.1765121	0.2278223	0	0	0	0
14.61163	0.1828554	0.2233478	0.3829047	-0.2700964	11.55675	-8.151994
14.6282	0.1828554	0.2233478	0	0	-11.55609	8.151525
14.64477	0.1828554	0.2233478	0	0	0	0
14.66133	0.1828554	0.2233478	0	0	0	0
14.67812	0.1828554	0.2233478	0	0	0	0
14.69465	0.1828554	0.2233478	0	0	0	0
14.71103	0.1828809	0.2233299	0.001553857	-0.001097162	0.04721759	-0.03333982
14.72765	0.1828809	0.2233299	0	0	-0.04708796	0.03324829
14.74417	0.1828809	0.2233299	0	0	0	0
14.76073	0.1885746	0.2193027	0.3436924	-0.2430919	10.3897	-7.348585
14.7773	0.1885746	0.2193027	0	0	-10.37325	7.336952
14.79387	0.1885746	0.2193027	0	0	0	0
14.81043	0.2008345	0.2105949	0.740136	-0.5256995	22.33799	-15.8661
14.82983	0.2008345	0.2105949	0	0	-20.581	14.61815
14.84357	0.2008345	0.2105949	0	0	0	0
14.86024	0.2011882	0.2102709	0.02121008	-0.01942761	0.6973874	-0.6387796
14.8767	0.2011882	0.2102709	0	0	-0.6401399	0.5863432
14.89327	0.2011882	0.2102709	0	0	0	0
14.90983	0.2010619	0.2102168	-0.007625417	-0.003260455	-0.2301422	-0.09840357
14.9264	0.2010619	0.2102168	0	0	0.2301355	0.09840073
14.94297	0.2010619	0.2102168	0	0	0	0
14.95953	0.2007839	0.2101268	-0.01677724	-0.005432906	-0.5063819	-0.1639796
14.9761	0.2007839	0.2101268	0	0	0.5063236	0.1639607
14.99267	0.2007839	0.2101268	0	0	0	0
15.00923	0.1998235	0.2094427	-0.05797711	-0.04129696	-1.749904	-1.246452
15.0258	0.1998235	0.2094427	0	0	1.749753	1.246345
15.04239	0.1998235	0.2094427	0	0	0	0
15.05893	0.1996971	0.2093527	-0.00764003	-0.005440695	-0.2306031	-0.1642194
15.0755	0.1996971	0.2093527	0	0	0.2307227	0.1643045
15.0944	0.1996971	0.2093527	0	0	0	0
15.10863	0.1994949	0.2092807	-0.01420569	-0.005058656	-0.4287655	-0.1526837
15.1252	0.1994949	0.2092807	0	0	0.4611685	0.1642225
15.14177	0.1994949	0.2092807	0	0	0	0
15.15864	0.1989639	0.2089026	-0.03147435	-0.02241114	-0.9413093	-0.6702543
15.1749	0.1989639	0.2089026	0	0	0.9499251	0.6763891
15.19164	0.1989639	0.2089026	0	0	0	0
15.20816	0.1984581	0.2085785	-0.03061328	-0.0196149	-0.9203081	-0.5896707
15.2246	0.1984581	0.2085785	0	0	0.9288294	0.5951306
15.24117	0.1984581	0.2085785	0	0	0	0
15.25773	0.1978763	0.2082004	-0.03512364	-0.02282713	-1.060125	-0.6889836
15.27471	0.1978763	0.2082004	0	0	1.047164	0.6805601
15.29087	0.1978763	0.2082004	0	0	0	0
15.30743	0.1961554	0.2069759	-0.1038929	-0.07392391	-3.174971	-2.259117
15.324	0.1961554	0.2069759	0	0	3.135764	2.231221
15.34056	0.1961554	0.2069759	0	0	0	0
15.35713	0.1959022	0.2067958	-0.0152823	-0.01087121	-0.4612471	-0.3281126
15.3737	0.1959022	0.2067958	0	0	0.4612471	0.3281126
15.39026	0.1959022	0.2067958	0	0	0	0
15.40683	0.1860343	0.1997871	-0.5956641	-0.4230713	-17.9777	-12.76869
15.4234	0.1860343	0.1997871	0	0	17.97821	12.76905
15.43996	0.1860343	0.1997871	0	0	0	0
15.45653	0.1411601	0.1681362	-2.708764	-1.910559	-81.75536	-57.66412
15.4731	0.1411601	0.1681362	0	0	81.75301	57.66246
15.48966	0.1411601	0.1681362	0	0	0	0
15.50688	0.1102875	0.1459307	-1.793181	-1.289767	-53.07946	-38.17802
15.5228	0.1102875	0.1459307	0	0	54.11987	38.92635
15.53938	0.1102875	0.1459307	0	0	0	0
15.55593	0.08732995	0.1193458	-1.387478	-1.606703	-41.87537	-48.4918
15.5725	0.08732995	0.1193458	0	0	41.9007	48.52113
15.58906	0.08732995	0.1193458	0	0	0	0
15.60563	0.08751275	0.06426914	0.01103491	-3.324626	0.3330536	-100.3432
15.62248	0.08751275	0.06426914	0	0	-0.3302305	99.49267
15.64048	0.08751275	0.06426914	0	0	0	0
15.65777	0.1147048	0.01164168	1.573301	-3.044964	44.58476	-86.28929
15.67465	0.1147048	0.01164168	0	0	-46.04827	89.12177
15.6909	0.1147048	0.01164168	0	0	0	0
15.70747	0.1501765	-0.01442088	2.141078	-1.57314	65.24129	-47.9355
15.72404	0.1501765	-0.01442088	0	0	-64.61787	47.47745
15.7406	0.1501765	-0.01442088	0	0	0	0
15.75719	0.1663689	-0.02637324	0.9758571	-0.7203259	29.4294	-21.72322
15.77373	0.1663689	-0.02637324	0	0	-29.45312	21.74073
15.7903	0.1663689	-0.02637324	0	0	0	0
15.80687	0.1699243	-0.02908828	0.2146187	-0.1638898	6.47739	-4.946346
15.82344	0.1699243	-0.02908828	0	0	-6.477017	4.946062
15.84	0.1699243	-0.02908828	0	0	0	0
15.85657	0.1586296	-0.03743828	-0.6817918	-0.5040364	-20.57889	-15.2136
15.87327	0.1586296	-0.03743828	0	0	20.49394	15.1508
15.88978	0.1586296	-0.03743828	0	0	0	0
15.90628	0.1278773	-0.06020992	-1.86286	-1.379422	-56.42423	-41.78136
15.9233	0.1278773	-0.06020992	0	0	55.56869	41.14783
15.9394	0.1278773	-0.06020992	0	0	0	0
15.95597	0.1079732	-0.07489346	-1.201485	-0.8863511	-36.77959	-27.13279
15.97253	0.1079732	-0.07489346	0	0	36.26193	26.7509
15.9891	0.1079732	-0.07489346	0	0	0	0
16.00567	0.09724493	-0.08281583	-0.6475956	-0.4782225	-19.5456	-14.43361
16.02223	0.09724493	-0.08281583	0	0	19.54504	14.4332
16.0389	0.09724493	-0.08281583	0	0	0	0
16.05753	0.09283762	-0.08604935	-0.2365823	-0.173574	-6.702905	-4.917738
16.0741	0.09283762	-0.08604935	0	0	6.721794	4.931596
16.09066	0.09283762	-0.08604935	0	0	0	0
16.10744	0.09275936	-0.08599123	-0.004666267	0.003465164	-0.1399581	0.1039327
16.12394	0.09275936	-0.08599123	0	0	0.140247	-0.1041472
16.14036	0.09275936	-0.08599123	0	0	0	0
16.15693	0.09273326	-0.08597185	-0.001574912	0.001169267	-0.04773152	0.03543745
16.1735	0.09273326	-0.08597185	0	0	0.04753095	-0.03528854
16.19051	0.09273326	-0.08597185	0	0	0	0
16.20663	0.09270717	-0.08595248	-0.001618515	0.001201639	-0.04884687	0.03626553
16.2232	0.09270717	-0.08595248	0	0	0.04951382	-0.03676069
16.23977	0.09270717	-0.08595248	0	0	0	0
16.25654	0.09270717	-0.08591373	0	0.002310521	0	0.06930478
16.2729	0.09270717	-0.08591373	0	0	0	-0.06973165
16.28947	0.09270717	-0.08591373	0	0	0	0
16.30607	0.09268108	-0.08589436	-0.001571836	0.001166983	-0.04739172	0.03518518
16.3226	0.09268108	-0.08589436	0	0	0.04744083	-0.03522164
16.33917	0.09268108	-0.08589436	0	0	0	0
16.35573	0.0926289	-0.08585562	-0.003149737	0.002338802	-0.09506474	0.07058926
16.3723	0.0926289	-0.08585562	0	0	0.09506474	-0.07058926
16.38915	0.0926289	-0.08585562	0	0	0	0
16.40543	0.09260281	-0.08587499	-0.0016024	-0.001189674	-0.04836331	-0.03590651
16.422	0.09260281	-0.08587499	0	0	0.0487789	0.03621506
16.43857	0.09260281	-0.08587499	0	0	0	0
16.45585	0.09257672	-0.08585562	-0.001510066	0.001121123	-0.04461592	0.03312432
16.47241	0.09257672	-0.08585562	0	0	0.04461592	-0.03312432
16.48917	0.09257672	-0.08585562	0	0	0	0
16.50555	0.09257672	-0.08585562	0	0	0	0
16.5222	0.09257672	-0.08585562	0	0	0	0
16.53869	0.09257672	-0.08585562	0	0	0	0
16.55525	0.09260281	-0.08583625	0.001576182	0.00117021	0.04769007	0.03540668
16.57181	0.09260281	-0.08583625	0	0	-0.04758846	-0.03533123
16.58838	0.09260281	-0.08583625	0	0	0	0
16.60495	0.09255063	-0.0857975	-0.003149824	0.002338533	-0.09506189	0.07057708
16.62152	0.09255063	-0.0857975	0	0	0.09506189	-0.07057708
16.63808	0.09255063	-0.0857975	0	0	0	0
16.65465	0.09255063	-0.0857975	0	0	0	0
16.67122	0.09255063	-0.0857975	0	0	0	0
16.68783	0.09255063	-0.0857975	0	0	0	0
16.70435	0.09252454	-0.08577813	-0.001578911	0.001172236	-0.0476489	0.03537611
16.72092	0.09252454	-0.08577813	0	0	0.04771481	-0.03542504
16.73748	0.09252454	-0.08577813	0	0	0	0
16.75436	0.09252454	-0.08577813	0	0	0	0
16.77062	0.09252454	-0.08577813	0	0	0	0
16.78738	0.09252454	-0.08577813	0	0	0	0
16.80375	0.09252454	-0.08577813	0	0	0	0
16.8204	0.09252454	-0.08577813	0	0	0	0
16.83688	0.09252454	-0.08577813	0	0	0	0
16.85345	0.09252454	-0.08577813	0	0	0	0
16.87002	0.09252454	-0.08577813	0	0	0	0
16.88697	0.09252454	-0.08577813	0	0	0	0
16.90315	0.09252454	-0.08577813	0	0	0	0
16.91972	0.09252454	-0.08577813	0	0	0	0
16.93649	0.09252454	-0.08577813	0	0	0	0
16.953	0.09252454	-0.08577813	0	0	0	0
16.96951	0.09252454	-0.08577813	0	0	0	0
16.98598	0.09252454	-0.08577813	0	0	0	0
17.00535	0.09249844	-0.08575875	-0.001347354	0.001000705	-0.03759856	0.02792514
17.01957	0.09249844	-0.08575875	0	0	0.04011595	-0.02979485
17.03568	0.09249844	-0.08575875	0	0	0	0
17.05225	0.09249844	-0.08575875	0	0	0	0
17.06882	0.09249844	-0.08575875	0	0	0	0
17.08539	0.09249844	-0.08575875	0	0	0	0
17.10195	0.09249844	-0.08575875	0	0	0	0
17.11852	0.09249844	-0.08575875	0	0	0	0
17.13516	0.09249844	-0.08575875	0	0	0	0
17.15167	0.09249844	-0.08575875	0	0	0	0
17.16822	0.09249844	-0.08575875	0	0	0	0
17.18479	0.09249844	-0.08575875	0	0	0	0
17.2017	0.09249844	-0.08575875	0	0	0	0
17.21822	0.09249844	-0.08575875	0	0	0	0
17.23449	0.09249844	-0.08575875	0	0	0	0
17.25124	0.09247236	-0.08577813	-0.001557251	-0.00115693	-0.0471581	-0.0350352
17.26762	0.09247236	-0.08577813	0	0	0.04699794	0.03491621
17.28419	0.09247236	-0.08577813	0	0	0	0
17.30075	0.09247236	-0.08577813	0	0	0	0
17.31733	0.09247236	-0.08577813	0	0	0	0
17.33434	0.09247236	-0.08577813	0	0	0	0
17.35046	0.09249844	-0.08575875	0.001618627	0.001202528	0.04885589	0.03629654
17.36702	0.09249844	-0.08575875	0	0	-0.04952593	-0.03679433
17.38359	0.09249844	-0.08575875	0	0	0	0
17.40038	0.09247236	-0.08577813	-0.001553889	-0.001154432	-0.04658807	-0.03461171
17.41672	0.09247236	-0.08577813	0	0	0.04689918	0.03484283
17.43329	0.09247236	-0.08577813	0	0	0	0
17.44992	0.09247236	-0.08577813	0	0	0	0
17.46643	0.09247236	-0.08577813	0	0	0	0
17.48299	0.09247236	-0.08577813	0	0	0	0
17.49956	0.09247236	-0.08577813	0	0	0	0
17.51612	0.09247236	-0.08577813	0	0	0	0
17.53298	0.09247236	-0.08577813	0	0	0	0
17.54926	0.09249844	-0.0857975	0.001602881	-0.001190372	0.04837783	-0.03592755
17.56582	0.09249844	-0.0857975	0	0	-0.04880772	0.03624681
17.58252	0.09249844	-0.0857975	0	0	0	0
17.59896	0.09247236	-0.08577813	-0.001586886	0.001178493	-0.04789231	0.03556698
17.61555	0.09247236	-0.08577813	0	0	0.04804164	-0.03567788
17.63256	0.09247236	-0.08577813	0	0	0	0
17.64866	0.09249844	-0.0857975	0.001619778	-0.00120292	0.04892723	-0.03633556
17.66523	0.09249844	-0.0857975	0	0	-0.04957849	0.03681921
17.68179	0.09249844	-0.0857975	0	0	0	0
17.69836	0.09247236	-0.08577813	-0.001574644	0.001169401	-0.04752558	0.03529463
17.71512	0.09247236	-0.08577813	0	0	0.04725355	-0.03509261
17.73149	0.09247236	-0.08577813	0	0	0	0
17.74814	0.09247236	-0.08577813	0	0	0	0
17.76466	0.09247236	-0.08577813	0	0	0	0
17.78119	0.09247236	-0.08577813	0	0	0	0
17.79776	0.09247236	-0.08577813	0	0	0	0
17.81432	0.09247236	-0.08577813	0	0	0	0
17.83089	0.09247236	-0.08577813	0	0	0	0
17.84772	0.09247236	-0.08577813	0	0	0	0
17.86424	0.09247236	-0.08577813	0	0	0	0
17.88059	0.09247236	-0.08577813	0	0	0	0
17.89716	0.09247236	-0.08577813	0	0	0	0
17.91372	0.09247236	-0.08577813	0	0	0	0
17.93029	0.09247236	-0.08577813	0	0	0	0
17.94686	0.09247236	-0.08577813	0	0	0	0
17.96342	0.09247236	-0.08577813	0	0	0	0
17.97999	0.09247236	-0.08577813	0	0	0	0
17.99656	0.09247236	-0.08577813	0	0	0	0
18.01312	0.09247236	-0.08577813	0	0	0	0
18.02969	0.09247236	-0.08577813	0	0	0	0
18.04626	0.09247236	-0.08577813	0	0	0	0
18.06282	0.09247236	-0.08577813	0	0	0	0
18.07939	0.09247236	-0.08577813	0	0	0	0
18.10002	0.09247236	-0.08577813	0	0	0	0
18.11658	0.09247236	-0.08577813	0	0	0	0
18.13315	0.09247236	-0.08577813	0	0	0	0
18.14972	0.09247236	-0.08577813	0	0	0	0
18.16629	0.09247236	-0.08577813	0	0	0	0
18.18285	0.09247236	-0.08577813	0	0	0	0
18.1995	0.09247236	-0.08577813	0	0	0	0
18.216	0.09247236	-0.08577813	0	0	0	0
18.23255	0.09247236	-0.08577813	0	0	0	0
18.24912	0.09247236	-0.08577813	0	0	0	0
18.26569	0.09247236	-0.08577813	0	0	0	0
18.28225	0.09244627	-0.08575875	-0.001575094	0.001169851	-0.04753916	0.03530821
18.29957	0.09244627	-0.08575875	0	0	0.04648481	-0.03452513
18.31557	0.09244627	-0.08575875	0	0	0	0
18.33195	0.09244627	-0.08575875	0	0	0	0
18.3486	0.09244627	-0.08575875	0	0	0	0
18.36509	0.09244627	-0.08575875	0	0	0	0
18.38166	0.09244627	-0.08575875	0	0	0	0
18.39862	0.09244627	-0.08575875	0	0	0	0
18.41479	0.09244627	-0.08575875	0	0	0	0
18.43136	0.09244627	-0.08575875	0	0	0	0
18.44817	0.09244627	-0.08575875	0	0	0	0
18.46449	0.09244627	-0.08575875	0	0	0	0
18.48106	0.09244627	-0.08575875	0	0	0	0
18.49769	0.09244627	-0.08575875	0	0	0	0
18.5142	0.09244627	-0.08575875	0	0	0	0
18.53076	0.09247236	-0.08577813	0.001576364	-0.001170795	0.04766805	-0.03540394
18.54733	0.09247236	-0.08577813	0	0	-0.04759394	0.0353489
18.56424	0.09247236	-0.08577813	0	0	0	0
18.58046	0.09247236	-0.08577813	0	0	0	0
18.59727	0.09247236	-0.08577813	0	0	0	0
18.61359	0.09247236	-0.08577813	0	0	0	0
18.63029	0.09247236	-0.08577813	0	0	0	0
18.64673	0.09247236	-0.08577813	0	0	0	0
18.66329	0.09247236	-0.08577813	0	0	0	0
18.68028	0.09244627	-0.08575875	-0.001536008	0.001140821	-0.0457849	0.03400529
18.69642	0.09244627	-0.08575875	0	0	0.04635948	-0.03443204
18.71299	0.09244627	-0.08575875	0	0	0	0
18.72979	0.09244627	-0.08575875	0	0	0	0
18.74612	0.09244627	-0.08575875	0	0	0	0
18.76281	0.09244627	-0.08575875	0	0	0	0
18.77934	0.09244627	-0.08575875	0	0	0	0
18.79582	0.09244627	-0.08575875	0	0	0	0
18.81239	0.09244627	-0.08575875	0	0	0	0
18.82895	0.09244627	-0.08575875	0	0	0	0
18.84587	0.09244627	-0.08575875	0	0	0	0
18.86238	0.09244627	-0.08575875	0	0	0	0
18.87865	0.09244627	-0.08575875	0	0	0	0
18.8954	0.09244627	-0.08575875	0	0	0	0
18.91179	0.09244627	-0.08575875	0	0	0	0
18.92836	0.09244627	-0.08575875	0	0	0	0
18.94535	0.09244627	-0.08575875	0	0	0	0
18.96149	0.09244627	-0.08575875	0	0	0	0
18.97806	0.09242018	-0.08573938	-0.001574912	0.001169267	-0.04815464	0.03575159
18.99489	0.09242018	-0.08573938	0	0	0.04715635	-0.03501042
19.01119	0.09242018	-0.08573938	0	0	0	0
19.02776	0.09242018	-0.08573938	0	0	0	0
19.04432	0.09242018	-0.08573938	0	0	0	0
19.06089	0.09242018	-0.08573938	0	0	0	0
19.07746	0.09239408	-0.08572001	-0.001574912	0.001169267	-0.04753095	0.03528854
19.09447	0.09239408	-0.08572001	0	0	0.04690987	-0.03482743
19.11059	0.09239408	-0.08572001	0	0	0	0
19.12716	0.09236799	-0.08570064	-0.001574912	0.001169267	-0.04817149	0.0357641
19.14373	0.09236799	-0.08570064	0	0	0.04753095	-0.03528854
19.16029	0.09236799	-0.08570064	0	0	0	0
19.17686	0.09236799	-0.08570064	0	0	0	0
19.19357	0.09236799	-0.08570064	0	0	0	0
19.21003	0.09236799	-0.08570064	0	0	0	0
19.22656	0.09239408	-0.08572001	0.001578365	-0.00117183	0.04784169	-0.03551924
19.24355	0.09239408	-0.08572001	0	0	-0.04709297	0.03496337
19.2597	0.09239408	-0.08572001	0	0	0	0
19.27626	0.09239408	-0.08572001	0	0	0	0
19.29283	0.09239408	-0.08572001	0	0	0	0
19.30939	0.09239408	-0.08572001	0	0	0	0
19.32596	0.09239408	-0.08572001	0	0	0	0
19.34263	0.09239408	-0.08572001	0	0	0	0
19.35916	0.09239408	-0.08572001	0	0	0	0
19.37566	0.09239408	-0.08572001	0	0	0	0
19.39223	0.09239408	-0.08572001	0	0	0	0
19.4088	0.09239408	-0.08572001	0	0	0	0
19.42536	0.09239408	-0.08572001	0	0	0	0
19.44222	0.09239408	-0.08572001	0	0	0	0
19.4585	0.09239408	-0.08572001	0	0	0	0
19.47506	0.09239408	-0.08572001	0	0	0	0
19.49174	0.09239408	-0.08572001	0	0	0	0
19.50824	0.09239408	-0.08572001	0	0	0	0
19.52476	0.09239408	-0.08572001	0	0	0	0
19.54133	0.09239408	-0.08572001	0	0	0	0
19.5579	0.09239408	-0.08572001	0	0	0	0
19.57446	0.09239408	-0.08572001	0	0	0	0
19.59103	0.09239408	-0.08572001	0	0	0	0
19.6076	0.09239408	-0.08572001	0	0	0	0
19.62416	0.09242018	-0.08573938	0.001575275	-0.001169536	0.04754463	-0.0352987
19.64085	0.09242018	-0.08573938	0	0	-0.04737011	0.03516912
19.65738	0.09242018	-0.08573938	0	0	0	0
19.67388	0.09242018	-0.08573938	0	0	0	0
19.69043	0.09242018	-0.08573938	0	0	0	0
19.70741	0.09242018	-0.08573938	0	0	0	0
19.72356	0.09242018	-0.08573938	0	0	0	0
19.74013	0.09242018	-0.08573938	0	0	0	0
19.7567	0.09242018	-0.08573938	0	0	0	0
19.77327	0.09239408	-0.08572001	-0.001574912	0.001169267	-0.04753095	0.03528854
19.78983	0.09239408	-0.08572001	0	0	0.04753095	-0.03528854
19.8064	0.09239408	-0.08572001	0	0	0	0
19.82297	0.09239408	-0.08572001	0	0	0	0
19.83953	0.09239408	-0.08572001	0	0	0	0
19.8561	0.09239408	-0.08572001	0	0	0	0
19.87267	0.09239408	-0.08572001	0	0	0	0
19.88953	0.09239408	-0.08572001	0	0	0	0
19.9058	0.09239408	-0.08572001	0	0	0	0
19.92237	0.09242018	-0.08573938	0.001574912	-0.001169267	0.04796442	-0.03561037
19.93894	0.09242018	-0.08573938	0	0	-0.04753095	0.03528854
19.9555	0.09242018	-0.08573938	0	0	0	0
19.9721	0.09242018	-0.08573938	0	0	0	0
19.98863	0.09242018	-0.08573938	0	0	0	0
20.0052	0.09242018	-0.08573938	0	0	0	0
20.02177	0.09242018	-0.08573938	0	0	0	0
20.03834	0.09242018	-0.08573938	0	0	0	0
20.0549	0.09242018	-0.08573938	0	0	0	0
20.07177	0.09239408	-0.08575875	-0.001547301	-0.001148767	-0.04628466	-0.03436325
20.08804	0.09239408	-0.08575875	0	0	0.04670032	0.03467185
20.1046	0.09239408	-0.08575875	0	0	0	0
20.12117	0.09239408	-0.08575875	0	0	0	0
20.13774	0.09239408	-0.08575875	0	0	0	0
20.1543	0.09239408	-0.08575875	0	0	0	0
20.17087	0.09239408	-0.08575875	0	0	0	0
20.18785	0.09239408	-0.08575875	0	0	0	0
20.204	0.09239408	-0.08575875	0	0	0	0
20.22086	0.09239408	-0.08575875	0	0	0	0
20.23714	0.09239408	-0.08575875	0	0	0	0
20.2537	0.09239408	-0.08575875	0	0	0	0
20.27124	0.09239408	-0.08575875	0	0	0	0
20.28817	0.09239408	-0.08575875	0	0	0	0
20.30437	0.09239408	-0.08575875	0	0	0	0
20.32094	0.09239408	-0.08575875	0	0	0	0
20.33822	0.09239408	-0.08575875	0	0	0	0
20.35422	0.09239408	-0.08575875	0	0	0	0
20.37064	0.09236799	-0.08573938	-0.001589183	0.001179862	-0.04901692	0.03639177
20.38721	0.09236799	-0.08573938	0	0	0.04817796	-0.0357689
20.40377	0.09236799	-0.08573938	0	0	0	0
20.42034	0.09236799	-0.08573938	0	0	0	0
20.43691	0.09236799	-0.08573938	0	0	0	0
20.45347	0.09236799	-0.08573938	0	0	0	0
20.47035	0.09236799	-0.08573938	0	0	0	0
20.48661	0.09236799	-0.08573938	0	0	0	0
20.50318	0.09236799	-0.08573938	0	0	0	0
20.51985	0.09236799	-0.08573938	0	0	0	0
20.53635	0.09236799	-0.08573938	0	0	0	0
20.55288	0.09236799	-0.08573938	0	0	0	0
20.56944	0.09236799	-0.08573938	0	0	0	0
20.58601	0.09236799	-0.08573938	0	0	0	0
20.6029	0.09236799	-0.08573938	0	0	0	0
20.61914	0.0923419	-0.08575875	-0.001606163	-0.001192468	-0.04847687	-0.03599083
20.63592	0.0923419	-0.08575875	0	0	0.04863928	0.0361114
20.65228	0.0923419	-0.08575875	0	0	0	0
20.66896	0.09215925	-0.08589436	-0.0109492	-0.008129163	-0.3314205	-0.246061
20.68547	0.09215925	-0.08589436	0	0	0.32984	0.2448875
20.70197	0.09215925	-0.08589436	0	0	0	0
20.71854	0.09205488	-0.08597185	-0.006299649	-0.004677516	-0.1904856	-0.1414364
20.73511	0.09205488	-0.08597185	0	0	0.1901238	0.1411677
20.75167	0.09205488	-0.08597185	0	0	0	0
20.76852	0.09205488	-0.08597185	0	0	0	0
20.78481	0.09205488	-0.08597185	0	0	0	0
20.80206	0.09205488	-0.08597185	0	0	0	0
20.82134	0.09210707	-0.08601061	0.00270617	-0.002009536	0.07406621	-0.05499976
20.83807	0.09210707	-0.08601061	0	0	-0.07515293	0.05580674
20.85458	0.09210707	-0.08601061	0	0	0	0
20.87109	0.09213316	-0.08610747	0.001580371	-0.005867047	0.04785546	-0.177661
20.88762	0.09213316	-0.08610747	0	0	-0.0478444	0.1776199
20.90418	0.09213316	-0.08610747	0	0	0	0
20.92075	0.09153298	-0.08670814	-0.03623075	-0.03626088	-1.093572	-1.094482
20.93731	0.09153298	-0.08670814	0	0	1.093446	1.094356
20.95388	0.09153298	-0.08670814	0	0	0	0
20.97045	0.06341486	-0.1077396	-1.697213	-1.269464	-51.22495	-38.31471
20.98731	0.06341486	-0.1077396	0	0	50.77192	37.97586
21.00358	0.06341486	-0.1077396	0	0	0	0
21.02015	0.01699836	-0.1425352	-2.802028	-2.100505	-85.32668	-63.96408
21.03683	0.01699836	-0.1425352	0	0	84.26946	63.17155
21.05384	0.01699836	-0.1425352	0	0	0	0
21.06986	-0.01791913	-0.1691708	-2.180682	-1.66346	-66.03358	-50.37151
21.08641	-0.01791913	-0.1691708	0	0	66.95393	51.07357
21.10298	-0.01791913	-0.1691708	0	0	0	0
21.11955	-0.04294726	-0.1884891	-1.510701	-1.166053	-45.59303	-35.19155
21.13612	-0.04294726	-0.1884891	0	0	45.59303	35.19155
21.15268	-0.04294726	-0.1884891	0	0	0	0
21.16925	-0.05895791	-0.2011781	-0.9664047	-0.7659074	-29.16615	-23.11513
21.18582	-0.05895791	-0.2011781	0	0	29.16615	23.11513
21.20238	-0.05895791	-0.2011781	0	0	0	0
21.21907	-0.05510206	-0.2044536	0.2310901	-0.1963127	6.949511	-5.90366
21.23558	-0.05510206	-0.2044536	0	0	-6.96109	5.913496
21.2521	-0.05510206	-0.2044536	0	0	0	0
21.26866	-0.02670418	-0.2265796	1.715284	-1.336446	51.85993	-40.40612
21.28523	-0.02670418	-0.2265796	0	0	-51.78229	40.34563
21.30215	-0.02670418	-0.2265796	0	0	0	0
21.31835	0.01420957	-0.258835	2.524786	-1.99048	76.21576	-60.08664
21.33515	0.01420957	-0.258835	0	0	-76.49764	60.30887
21.35149	0.01420957	-0.258835	0	0	0	0
21.37514	0.04273712	-0.2816618	1.205987	-0.9649918	30.15905	-24.1323
21.38462	0.04273712	-0.2816618	0	0	-36.39886	29.12519
21.40143	0.05024714	-0.2878101	0.4468243	-0.3658098	16.9991	-13.91696
21.41795	0.05024714	-0.2878101	0	0	-13.4057	10.97509
21.43432	0.05024714	-0.2878101	0	0	0	0
21.45089	0.0393481	-0.2978399	-0.6578674	-0.6053977	-19.97406	-18.38098
21.46749	0.0393481	-0.2978399	0	0	19.83507	18.25308
21.48402	0.0393481	-0.2978399	0	0	0	0
21.50059	0.0137886	-0.3185433	-1.542952	-1.249802	-46.61469	-37.75822
21.51752	0.0137886	-0.3185433	0	0	46.05998	37.3089
21.53372	0.0137886	-0.3185433	0	0	0	0
21.55029	-0.005421	-0.3342104	-1.159494	-0.9456705	-35.38673	-28.86103
21.56706	-0.005421	-0.3342104	0	0	34.77738	28.36406
21.58342	-0.005421	-0.3342104	0	0	0	0
21.60007	-0.02012886	-0.3464396	-0.8831925	-0.7343482	-26.75182	-22.24334
21.61655	-0.02012886	-0.3464396	0	0	26.6548	22.16267
21.63312	-0.02012886	-0.3464396	0	0	0	0
21.64968	-0.02336417	-0.3669186	-0.1953062	-1.236259	-5.895031	-37.31466
21.66625	-0.02336417	-0.3669186	0	0	5.894692	37.31251
21.68282	-0.02336417	-0.3669186	0	0	0	0
21.69939	0.008315598	-0.3952664	1.912195	-1.711074	57.71015	-51.64032
21.71595	0.008315598	-0.3952664	0	0	-57.71015	51.64032
21.73252	0.008315598	-0.3952664	0	0	0	0
21.74908	0.01570923	-0.4015928	0.4463322	-0.3819103	13.47188	-11.5274
21.76565	0.01570923	-0.4015928	0	0	-13.47111	11.52674
21.78222	0.01570923	-0.4015928	0	0	0	0
21.79878	0.0153409	-0.4012293	-0.02223515	0.02194336	-0.6710969	0.6622902
21.81535	0.0153409	-0.4012293	0	0	0.6710969	-0.6622902
21.83192	0.0153409	-0.4012293	0	0	0	0
21.84882	0.0153409	-0.4012293	0	0	0	0
21.86505	0.0153409	-0.4012293	0	0	0	0
21.88162	0.0153409	-0.4012293	0	0	0	0
21.89836	0.01536721	-0.401252	0.001571904	-0.001356838	0.04719835	-0.04074072
21.91475	0.01536721	-0.401252	0	0	-0.04744289	0.0409518
21.93132	0.01536721	-0.401252	0	0	0	0
21.94802	0.01536721	-0.401252	0	0	0	0
21.96452	0.01536721	-0.401252	0	0	0	0
21.98104	0.01536721	-0.401252	0	0	0	0
21.99759	0.01536721	-0.401252	0	0	0	0
22.01415	0.01536721	-0.401252	0	0	0	0
22.03072	0.01536721	-0.401252	0	0	0	0
22.04758	0.01536721	-0.401252	0	0	0	0
22.06385	0.01536721	-0.401252	0	0	0	0
22.08062	0.01536721	-0.401252	0	0	0	0
22.09761	0.0153409	-0.4012293	-0.001548956	0.00133703	-0.04588909	0.03961059
22.11355	0.0153409	-0.4012293	0	0	0.04703731	-0.04060172
22.13012	0.0153409	-0.4012293	0	0	0	0
22.14669	0.01515673	-0.4010703	-0.01111641	0.009596981	-0.3354939	0.2896375
22.16326	0.01515673	-0.4010703	0	0	0.3354939	-0.2896375
22.18019	0.01515673	-0.4010703	0	0	0	0
22.20025	0.0121573	-0.398483	-0.1495264	0.1289802	-4.0416	3.486248
22.21682	0.0121573	-0.398483	0	0	4.08243	-3.521468
22.23339	0.005815724	-0.3930728	-0.382778	0.32656	-11.55226	9.8556
22.24995	0.005815724	-0.3930728	0	0	11.55226	-9.8556
22.26652	0.005815724	-0.3930728	0	0	0	0
22.28309	-0.02378499	-0.3678525	-1.786908	1.522478	-53.9321	45.95111
22.29988	-0.02378499	-0.3678525	0	0	53.55903	-45.63325
22.31637	-0.02378499	-0.3678525	0	0	0	0
22.33289	-0.05845963	-0.3387505	-2.098522	1.761264	-63.57506	53.35776
22.34939	-0.05845963	-0.3387505	0	0	63.54935	-53.33619
22.36593	-0.05845963	-0.3387505	0	0	0	0
22.38293	-0.0616848	-0.3360643	-0.1896926	0.1579941	-5.656234	4.711051
22.39905	-0.0616848	-0.3360643	0	0	5.726253	-4.769369
22.41562	-0.0616848	-0.3360643	0	0	0	0
22.43219	-0.06173723	-0.3360206	-0.003164665	0.002633548	-0.09550978	0.07948065
22.44948	-0.06173723	-0.3360206	0	0	0.0934653	-0.07777928
22.46532	-0.06173723	-0.3360206	0	0	0	0
22.48595	-0.06189452	-0.3358897	-0.007625224	0.006346799	-0.2090907	0.1740351
22.50252	-0.06189452	-0.3358897	0	0	0.2050056	-0.1706349
22.51908	-0.06205181	-0.3357588	-0.009493995	0.007902443	-0.2865294	0.2384962
22.53565	-0.06205181	-0.3357588	0	0	0.2865294	-0.2384962
22.55222	-0.06205181	-0.3357588	0	0	0	0
22.56901	-0.07446731	-0.3266196	-0.7395245	0.5443755	-22.17085	16.32031
22.58552	-0.07446731	-0.3266196	0	0	22.20895	-16.34835
22.60202	-0.07446731	-0.3266196	0	0	0	0
22.61848	-0.1475256	-0.3127418	-4.438424	0.8430964	-134.6261	25.57277
22.63505	-0.1475256	-0.3127418	0	0	134.3851	-25.52699
22.65162	-0.1475256	-0.3127418	0	0	0	0
22.66858	-0.1945853	-0.3121391	-2.775032	0.03554507	-82.77386	1.060241
22.68475	-0.1945853	-0.3121391	0	0	83.75546	-1.072814
22.7016	-0.1945853	-0.3121391	0	0	0	0
22.71788	-0.1959528	-0.3109772	-0.08395693	0.0713316	-2.533971	2.152916
22.73445	-0.1959528	-0.3109772	0	0	2.555301	-2.171038
22.75102	-0.1959528	-0.3109772	0	0	0	0
22.76764	-0.1959275	-0.3109987	0.001523057	-0.001294464	0.04589197	-0.03900412
22.78415	-0.1959275	-0.3109987	0	0	-0.04596858	0.03906924
22.80072	-0.1959275	-0.3109987	0	0	0	0
22.81768	-0.1959275	-0.3109987	0	0	0	0
22.83385	-0.1959275	-0.3109987	0	0	0	0
22.85042	-0.1959275	-0.3109987	0	0	0	0
22.86698	-0.1958516	-0.3110632	0.004584425	-0.003894557	0.1383582	-0.117538
22.88355	-0.1958516	-0.3110632	0	0	-0.1383582	0.117538
22.90012	-0.1958516	-0.3110632	0	0	0	0
22.91668	-0.1958009	-0.3111062	0.003056635	-0.002596071	0.09225474	-0.07835408
22.93325	-0.1958009	-0.3111062	0	0	-0.09225474	0.07835408
22.94982	-0.1958009	-0.3111062	0	0	0	0
22.96638	-0.1957503	-0.3111492	0.003057183	-0.002597571	0.09226595	-0.07839485
22.9833	-0.1957503	-0.3111492	0	0	-0.09129374	0.07756879
22.99952	-0.1957503	-0.3111492	0	0	0	0
23.01658	-0.1956996	-0.3111923	0.002967458	-0.002522077	0.08917817	-0.07579357
23.03265	-0.1956996	-0.3111923	0	0	-0.08955804	0.07611644
23.04922	-0.1956996	-0.3111923	0	0	0	0
23.06578	-0.195649	-0.3112353	0.003057535	-0.002596071	0.09228189	-0.07835408
23.08262	-0.195649	-0.3112353	0	0	-0.09152842	0.07771433
23.09892	-0.195649	-0.3112353	0	0	0	0
23.11548	-0.195649	-0.3112353	0	0	0	0
23.13216	-0.195649	-0.3112353	0	0	0	0
23.14862	-0.195649	-0.3112353	0	0	0	0
23.16518	-0.195649	-0.3112353	0	0	0	0
23.1822	-0.195649	-0.3112353	0	0	0	0
23.19831	-0.195649	-0.3112353	0	0	0	0
23.21522	-0.1956237	-0.3112568	0.001497286	-0.001272561	0.04533693	-0.03853239
23.23145	-0.1956237	-0.3112568	0	0	-0.04519077	0.03840817
23.24801	-0.1956237	-0.3112568	0	0	0	0
23.26475	-0.1956237	-0.3112568	0	0	0	0
23.28872	-0.1956237	-0.3112568	0	0	0	0
23.29775	-0.1956237	-0.3112568	0	0	0	0
23.31428	-0.1955477	-0.3113213	0.004593786	-0.003903547	0.1797363	-0.15273
23.33085	-0.1955477	-0.3113213	0	0	-0.1387685	0.1179179
23.34742	-0.1955477	-0.3113213	0	0	0	0
23.36428	-0.1954971	-0.3113644	0.003003245	-0.002551742	0.08983654	-0.07633066
23.38055	-0.1954971	-0.3113644	0	0	-0.09064332	0.07701615
23.39712	-0.1954971	-0.3113644	0	0	0	0
23.41368	-0.1954717	-0.3113859	0.001528142	-0.001298785	0.0461194	-0.03919742
23.43033	-0.1954717	-0.3113859	0	0	-0.04600553	0.03910064
23.44734	-0.1954717	-0.3113859	0	0	0	0
23.46338	-0.1954717	-0.3113859	0	0	0	0
23.48038	-0.1954717	-0.3113859	0	0	0	0
23.49652	-0.1954717	-0.3113859	0	0	0	0
23.51308	-0.1954971	-0.3113644	-0.001528142	0.001298785	-0.04672457	0.03971177
23.52965	-0.1954971	-0.3113644	0	0	0.0461194	-0.03919742
23.54643	-0.1954971	-0.3113644	0	0	0	0
23.56278	-0.1954971	-0.3113644	0	0	0	0
23.57935	-0.1954971	-0.3113644	0	0	0	0
23.59592	-0.1954971	-0.3113644	0	0	0	0
23.61248	-0.1954717	-0.3113429	0.001528317	0.001298935	0.04612737	0.03920419
23.62905	-0.1954717	-0.3113429	0	0	-0.04612737	-0.03920419
23.64562	-0.1954717	-0.3113429	0	0	0	0
23.66218	-0.1954211	-0.3113859	0.003057535	-0.00259787	0.09228189	-0.07840838
23.67936	-0.1954211	-0.3113859	0	0	-0.09061266	0.07699011
23.69532	-0.1954211	-0.3113859	0	0	0	0
23.71189	-0.1952692	-0.3113859	0.009171547	0	0.2819923	0
23.72845	-0.1952692	-0.3113859	0	0	-0.2767979	0
23.74502	-0.1952692	-0.3113859	0	0	0	0
23.76159	-0.1945853	-0.3115795	0.04128346	-0.01168862	1.246009	-0.3527834
23.77845	-0.1945853	-0.3115795	0	0	-1.234989	0.3496634
23.79472	-0.1945853	-0.3115795	0	0	0	0
23.81147	-0.1722752	-0.3177226	1.332069	-0.3667845	40.34126	-11.10794
23.82785	-0.1722752	-0.3177226	0	0	-40.20192	11.06958
23.84457	-0.1722752	-0.3177226	0	0	0	0
23.86099	-0.09150689	-0.3084408	4.919933	0.5653919	148.4924	17.06454
23.87809	-0.09150689	-0.3084408	0	0	-146.7855	-16.86839
23.89413	-0.09150689	-0.3084408	0	0	0	0
23.91069	0.004184186	-0.2664835	5.779252	2.534004	177.2858	77.73377
23.92725	0.004184186	-0.2664835	0	0	-174.4684	-76.49841
23.94415	0.004184186	-0.2664835	0	0	0	0
23.96039	0.03719337	-0.2405585	2.032928	1.596638	61.35742	48.18941
23.97716	0.03719337	-0.2405585	0	0	-61.58076	-48.36481
23.99352	0.03719337	-0.2405585	0	0	0	0
24.01009	0.03798173	-0.239937	0.04759103	0.03751889	1.445453	1.139538
24.02671	0.03798173	-0.239937	0	0	-1.433989	-1.1305
24.04374	0.03798173	-0.239937	0	0	0	0
24.05979	0.03795545	-0.2399577	-0.001637626	-0.001290785	-0.04950913	-0.03902336
24.07635	0.03795545	-0.2399577	0	0	0.05021273	0.03957794
24.09292	0.03795545	-0.2399577	0	0	0	0
24.10949	0.03790289	-0.2399991	-0.00317231	-0.002500432	-0.09574051	-0.07546318
24.12679	0.03790289	-0.2399991	0	0	0.09367526	0.07383534
24.14262	0.03790289	-0.2399991	0	0	0	0
24.15919	0.03779778	-0.2399163	-0.006344621	0.005000864	-0.1958093	0.1543379
24.17575	0.03779778	-0.2399163	0	0	0.191481	-0.1509264
24.19233	0.03779778	-0.2399163	0	0	0	0
24.20889	0.03682545	-0.23915	-0.05873056	0.04628366	-1.772492	1.396844
24.22546	0.03682545	-0.23915	0	0	1.773104	-1.397326
24.24202	0.03682545	-0.23915	0	0	0	0
24.25859	0.03674661	-0.2390879	-0.00475869	0.003748849	-0.1436258	0.113147
24.27516	0.03674661	-0.2390879	0	0	0.1436176	-0.1131405
24.29191	0.03674661	-0.2390879	0	0	0	0
24.30829	0.03651008	-0.2389016	-0.0144363	0.01137314	-0.4356884	0.3432422
24.32486	0.03651008	-0.2389016	0	0	0.4381095	-0.3451495
24.34142	0.03651008	-0.2389016	0	0	0	0
24.35799	0.03193651	-0.2353025	-0.2760934	0.2172667	-8.332994	6.557498
24.37456	0.03193651	-0.2353025	0	0	8.332515	-6.557121
24.39145	0.03193651	-0.2353025	0	0	0	0
24.40769	0.01231517	-0.2199027	-1.207989	0.9480876	-36.45718	28.61334
24.42447	0.01231517	-0.2199027	0	0	36.58564	-28.71417
24.44083	0.01231517	-0.2199027	0	0	0	0
24.4575	-0.01470947	-0.1988211	-1.621132	1.264625	-49.08408	38.28988
24.47396	-0.01470947	-0.1988211	0	0	48.92867	-38.16865
24.49053	-0.01470947	-0.1988211	0	0	0	0
24.50709	-0.03414462	-0.1837043	-1.173649	0.9128738	-35.42282	27.55217
24.52366	-0.03414462	-0.1837043	0	0	35.42894	-27.55693
24.54056	-0.03414462	-0.1837043	0	0	0	0
24.55679	-0.04389284	-0.1761143	-0.600432	0.4675008	-18.12212	14.11002
24.57357	-0.04389284	-0.1761143	0	0	18.18913	-14.16219
24.59009	-0.04389284	-0.1761143	0	0	0	0
24.60658	-0.04504845	-0.1746676	-0.0700591	0.08770272	-2.121838	2.6562
24.6231	-0.04504845	-0.1746676	0	0	2.122084	-2.656507
24.63963	-0.04504845	-0.1746676	0	0	0	0
24.65619	-0.04273712	-0.171737	0.1395282	0.1769124	4.217039	5.346922
24.67276	-0.04273712	-0.171737	0	0	-4.211213	-5.339535
24.68933	-0.04273712	-0.171737	0	0	0	0
24.70616	-0.02617823	-0.1591343	0.9835309	0.7485511	29.44236	22.40815
24.72246	-0.02617823	-0.1591343	0	0	-29.68302	-22.59132
24.73903	-0.02617823	-0.1591343	0	0	0	0
24.75559	0.01055224	-0.1314474	2.217566	1.671567	66.93398	50.45381
24.77221	0.01055224	-0.1314474	0	0	-66.82626	-50.37261
24.78873	0.01055224	-0.1314474	0	0	0	0
24.80529	0.04940713	-0.1024318	2.345556	1.751587	70.90739	52.95139
24.82186	0.04940713	-0.1024318	0	0	-70.79309	-52.86604
24.83876	0.04940713	-0.1024318	0	0	0	0
24.85529	0.068917	-0.08796806	1.180472	0.875151	35.30964	26.17704
24.87156	0.068917	-0.08796806	0	0	-35.99554	-26.68554
24.8883	0.068917	-0.08796806	0	0	0	0
24.90469	0.07308014	-0.08477097	0.2540372	0.1950879	7.667298	5.888104
24.92126	0.07308014	-0.08477097	0	0	-7.708568	-5.919797
24.93783	0.07308014	-0.08477097	0	0	0	0
24.9545	0.07273985	-0.08448052	-0.02040606	0.01741751	-0.6138419	0.5239422
24.97103	0.07273985	-0.08448052	0	0	0.6145824	-0.5245743
24.98753	0.07273985	-0.08448052	0	0	0	0
25.00409	0.0702788	-0.08266103	-0.1485666	0.1098374	-4.493319	3.321974
25.02107	0.0702788	-0.08266103	0	0	4.428683	-3.274188
25.03809	0.0702788	-0.08266103	0	0	0	0
25.05411	0.04123976	-0.06136183	-1.812478	1.329394	-54.8681	40.24397
25.07062	0.04123976	-0.06136183	0	0	55.70436	-40.85734
25.08693	0.04123976	-0.06136183	0	0	0	0
25.10349	0.006841999	-0.03635282	-2.076253	1.509547	-63.1632	45.92302
25.12015	0.006841999	-0.03635282	0	0	62.49237	-45.43529
25.13667	0.006841999	-0.03635282	0	0	0	0
25.15319	-0.01265722	-0.02227668	-1.180236	0.8519921	-35.72035	25.7859
25.17019	-0.01265722	-0.02227668	0	0	35.21218	-25.41906
25.18633	-0.01265722	-0.02227668	0	0	0	0
25.20319	-0.0147884	-0.02074185	-0.1263685	0.09100807	-3.829019	2.757582
25.21969	-0.0147884	-0.02074185	0	0	3.787863	-2.727942
25.23602	-0.0147884	-0.02074185	0	0	0	0
25.25259	-0.01476209	-0.02076079	0.001588066	-0.001143408	0.04826411	-0.03475016
25.26916	-0.01476209	-0.02076079	0	0	-0.04792794	0.03450812
25.28573	-0.01476209	-0.02076079	0	0	0	0
25.30229	-0.01465685	-0.02083657	0.006355981	-0.004576603	0.1918349	-0.1381301
25.31886	-0.01465685	-0.02083657	0	0	-0.1918791	0.1381619
25.33543	-0.01465685	-0.02083657	0	0	0	0
25.35199	-0.0145516	-0.02095024	0.006352379	-0.006861009	0.1917152	-0.2070657
25.36883	-0.0145516	-0.02095024	0	0	-0.1901608	0.2053868
25.38533	-0.0145516	-0.02095024	0	0	0	0
25.4017	-0.01449898	-0.02106391	0.003215429	-0.006946114	0.09784159	-0.2113618
25.41826	-0.01449898	-0.02106391	0	0	-0.09763759	0.2109211
25.43487	-0.01449898	-0.02106391	0	0	0	0
25.4514	-0.01447267	-0.02112075	0.001592099	-0.003439497	0.04804688	-0.1037983
25.46796	-0.01447267	-0.02112075	0	0	-0.04811612	0.1039478
25.48453	-0.01447267	-0.02112075	0	0	0	0
25.50109	-0.01444636	-0.02121548	0.001588066	-0.005718051	0.0479307	-0.1725811
25.51766	-0.01444636	-0.02121548	0	0	-0.04792794	0.1725711
25.53423	-0.01444636	-0.02121548	0	0	0	0
25.55095	-0.01444636	-0.02125337	0	-0.002265616	0	-0.06805129
25.56736	-0.01444636	-0.02125337	0	0	0	0.06838036
25.58445	-0.01444636	-0.02125337	0	0	0	0
25.6005	-0.01444636	-0.02132916	0	-0.004723089	0	-0.1425431
25.61706	-0.01444636	-0.02132916	0	0	0	0.1448274
25.63363	-0.01444636	-0.02132916	0	0	0	0
25.6502	-0.01447267	-0.02131022	-0.001588066	0.001143633	-0.04792794	0.0345149
25.66676	-0.01447267	-0.02131022	0	0	0.04792794	-0.0345149
25.68355	-0.01447267	-0.02131022	0	0	0	0
25.7013	-0.01447267	-0.02134811	0	-0.002135109	0	-0.06182547
25.71786	-0.01447267	-0.02134811	0	0	0	0.06222067
25.73825	-0.01447267	-0.02134811	0	0	0	0
25.75261	-0.01447267	-0.02134811	0	0	0	0
25.76918	-0.01447267	-0.02134811	0	0	0	0
25.78575	-0.01447267	-0.02134811	0	0	0	0
25.80261	-0.01447267	-0.02134811	0	0	0	0
25.81888	-0.01447267	-0.02134811	0	0	0	0
25.83545	-0.01447267	-0.02134811	0	0	0	0
25.85201	-0.01449898	-0.02136706	-0.001588066	-0.001143745	-0.04792794	-0.0345183
25.86917	-0.01449898	-0.02136706	0	0	0.047093	0.03391696
25.88515	-0.01449898	-0.02136706	0	0	0	0
25.90171	-0.01449898	-0.02144285	0	-0.004574756	0	-0.1405667
25.91828	-0.01449898	-0.02144285	0	0	0	0.1380664
25.93485	-0.01449898	-0.02144285	0	0	0	0
25.95141	-0.01452529	-0.02149969	-0.001588123	-0.003431123	-0.04792964	-0.1035515
25.96798	-0.01452529	-0.02149969	0	0	0.0479324	0.1035575
25.98455	-0.01452529	-0.02149969	0	0	0	0
26.00126	-0.01449898	-0.02151864	0.001574707	-0.001134083	0.04732317	-0.03408153
26.01768	-0.01449898	-0.02151864	0	0	-0.04752749	0.03422868
26.03475	-0.01449898	-0.02151864	0	0	0	0
26.05081	-0.01452529	-0.02157549	-0.001637516	-0.003537952	-0.04942033	-0.1067756
26.06738	-0.01452529	-0.02157549	0	0	0.05017708	0.1084106
26.08395	-0.01452529	-0.02157549	0	0	0	0
26.10078	-0.01434112	-0.02201134	0.01094278	-0.02589683	0.3276509	-0.7754083
26.11708	-0.01434112	-0.02201134	0	0	-0.3302727	0.781613
26.1338	-0.01434112	-0.02201134	0	0	0	0
26.15022	-0.01344656	-0.0232624	0.05450428	-0.07622454	1.644942	-2.300461
26.16678	-0.01344656	-0.0232624	0	0	-1.652648	2.311238
26.18335	-0.01344656	-0.0232624	0	0	0	0
26.19992	-0.005631519	-0.03159659	0.4717167	-0.5030531	14.23644	-15.18217
26.21648	-0.005631519	-0.03159659	0	0	-14.23644	15.18217
26.23305	-0.005631519	-0.03159659	0	0	0	0
26.24962	0.008868189	-0.04445562	0.8753049	-0.7762618	26.41827	-23.42898
26.26618	0.008868189	-0.04445562	0	0	-26.41827	23.42898
26.28275	0.008868189	-0.04445562	0	0	0	0
26.29942	0.03054313	-0.06026751	1.300516	-0.9487277	39.13253	-28.54721
26.31588	0.03054313	-0.06026751	0	0	-39.25192	28.63431
26.33295	0.03054313	-0.06026751	0	0	0	0
26.34902	0.05179574	-0.07583908	1.323021	-0.9693646	39.93116	-29.25717
26.36558	0.05179574	-0.07583908	0	0	-40.54502	29.70693
26.38215	0.05179574	-0.07583908	0	0	0	0
26.39872	0.05840718	-0.08074608	0.3990673	-0.2961869	12.04388	-8.938939
26.41529	0.05840718	-0.08074608	0	0	-12.04388	8.938939
26.43185	0.05840718	-0.08074608	0	0	0	0
26.44852	0.05811869	-0.08138424	-0.01730572	-0.0382817	-0.520669	-1.151764
26.46498	0.05811869	-0.08138424	0	0	0.5223176	1.15541
26.48155	0.05811869	-0.08138424	0	0	0	0
26.49812	0.05743676	-0.09935358	-0.04116133	-1.084632	-1.242252	-32.73425
26.51469	0.05743676	-0.09935358	0	0	1.242252	32.73425
26.53125	0.05743676	-0.09935358	0	0	0	0
26.54782	0.0490921	-0.1540328	-0.5036843	-3.300443	-15.20122	-99.60757
26.56439	0.0490921	-0.1540328	0	0	15.20122	99.60757
26.58096	0.0490921	-0.1540328	0	0	0	0
26.59752	0.03905907	-0.1924541	-0.6056646	-2.31938	-18.28005	-70.00304
26.61409	0.03905907	-0.1924541	0	0	18.28005	70.00304
26.63066	0.03905907	-0.1924541	0	0	0	0
26.64722	0.0357742	-0.1965276	-0.198275	-0.2458824	-5.983952	-7.420745
26.66417	0.0357742	-0.1965276	0	0	5.916517	7.337119
26.68071	0.0357742	-0.1965276	0	0	0	0
26.69692	0.0357742	-0.1965276	0	0	0	0
26.71349	0.0357742	-0.1965276	0	0	0	0
26.73006	0.0357742	-0.1965276	0	0	0	0
26.74671	0.03574792	-0.1965074	-0.001577842	0.001217544	-0.04749361	0.03664851
26.76324	0.03574792	-0.1965074	0	0	0.04755641	-0.03669697
26.77977	0.03574792	-0.1965074	0	0	0	0
26.79632	0.03566908	-0.1964465	-0.004761881	0.003675412	-0.1439127	0.1110776
26.81289	0.03566908	-0.1964465	0	0	0.1437552	-0.1109561
26.83038	0.03566908	-0.1964465	0	0	0	0
26.84602	0.0356428	-0.1964262	-0.001679788	0.001297163	-0.05069901	0.0391507
26.86259	0.0356428	-0.1964262	0	0	0.05214592	-0.04026803
26.87916	0.0356428	-0.1964262	0	0	0	0
26.89572	0.03566908	-0.1964059	0.001586563	0.001224273	0.04788531	0.03695076
26.91229	0.03566908	-0.1964059	0	0	-0.04788531	-0.03695076
26.92886	0.03566908	-0.1964059	0	0	0	0
26.94566	0.03566908	-0.1964059	0	0	0	0
26.96199	0.03566908	-0.1964059	0	0	0	0
26.97856	0.03566908	-0.1964059	0	0	0	0
26.99512	0.0356428	-0.1963857	-0.001586563	0.001224273	-0.04788531	0.03695076
27.01169	0.0356428	-0.1963857	0	0	0.04788256	-0.03694864
27.02872	0.0356428	-0.1963857	0	0	0	0
27.04483	0.0356428	-0.1963857	0	0	0	0
27.06175	0.0356428	-0.1963857	0	0	0	0
27.07827	0.0356428	-0.1963857	0	0	0	0
27.09475	0.03566908	-0.1964059	0.001594826	-0.00123065	0.04833226	-0.03729565
27.11109	0.03566908	-0.1964059	0	0	-0.04859066	0.03749505
27.12766	0.03566908	-0.1964059	0	0	0	0
27.14429	0.03566908	-0.1964059	0	0	0	0
27.16083	0.03566908	-0.1964059	0	0	0	0
27.17736	0.03566908	-0.1964059	0	0	0	0
27.19393	0.03566908	-0.1964059	0	0	0	0
27.21087	0.03566908	-0.1964059	0	0	0	0
27.22706	0.03566908	-0.1964059	0	0	0	0
27.24363	0.0356428	-0.1963857	-0.00158638	0.001224132	-0.0484262	0.03736814
27.2604	0.0356428	-0.1963857	0	0	0.04758941	-0.03672243
27.27676	0.0356428	-0.1963857	0	0	0	0
27.29333	0.03561651	-0.1963654	-0.001586605	0.001224132	-0.04817501	0.03716904
27.30991	0.03561651	-0.1963654	0	0	0.04786179	-0.03692738
27.32647	0.03561651	-0.1963654	0	0	0	0
27.34346	0.03559023	-0.1963451	-0.001546845	0.001194502	-0.04611579	0.03561146
27.3596	0.03559023	-0.1963451	0	0	0.04668657	-0.03605222
27.37617	0.03559023	-0.1963451	0	0	0	0
27.39304	0.03556395	-0.1963248	-0.001557511	0.001201855	-0.04657147	0.03593694
27.40957	0.03556395	-0.1963248	0	0	0.04662732	-0.03598003
27.4266	0.03556395	-0.1963248	0	0	0	0
27.44243	0.03556395	-0.1963248	0	0	0	0
27.4591	0.03556395	-0.1963248	0	0	0	0
27.47557	0.03556395	-0.1963248	0	0	0	0
27.49213	0.03556395	-0.1963248	0	0	0	0
27.50915	0.03556395	-0.1963248	0	0	0	0
27.52527	0.03556395	-0.1963248	0	0	0	0
27.54183	0.03556395	-0.1963248	0	0	0	0
27.5584	0.03556395	-0.1963248	0	0	0	0
27.5752	0.03556395	-0.1963248	0	0	0	0
27.59153	0.03553766	-0.1963045	-0.001608979	0.001241571	-0.04856188	0.03747284
27.60821	0.03553766	-0.1963045	0	0	0.04873864	-0.03760924
27.62473	0.03553766	-0.1963045	0	0	0	0
27.64123	0.03551138	-0.1962842	-0.001592798	0.001229085	-0.04823456	0.03722026
27.6578	0.03551138	-0.1962842	0	0	0.04816779	-0.03716874
27.67452	0.03551138	-0.1962842	0	0	0	0
27.69093	0.03551138	-0.1962842	0	0	0	0
27.70757	0.03551138	-0.1962842	0	0	0	0
27.72407	0.03551138	-0.1962842	0	0	0	0
27.74063	0.03553766	-0.1963045	0.00158638	-0.001224132	0.0479737	-0.03701897
27.7572	0.03553766	-0.1963045	0	0	-0.04787704	0.03694439
27.77377	0.03553766	-0.1963045	0	0	0	0
27.79033	0.03553766	-0.1963045	0	0	0	0
27.80712	0.03553766	-0.1963045	0	0	0	0
27.82365	0.03553766	-0.1963045	0	0	0	0
27.84004	0.03551138	-0.1962842	-0.001603549	0.001237381	-0.04871771	0.03759308
27.85665	0.03551138	-0.1962842	0	0	0.048591	-0.03749531
27.87317	0.03551138	-0.1962842	0	0	0	0
27.88973	0.03551138	-0.1962842	0	0	0	0
27.9063	0.03551138	-0.1962842	0	0	0	0
27.92287	0.03551138	-0.1962842	0	0	0	0
27.93944	0.03551138	-0.1962842	0	0	0	0
27.95623	0.03551138	-0.1962842	0	0	0	0
27.97257	0.03551138	-0.1962842	0	0	0	0
27.98924	0.0354851	-0.196264	-0.001576398	0.00121643	-0.04775172	0.03684767
28.00576	0.0354851	-0.196264	0	0	0.04749924	-0.03665284
28.02229	0.0354851	-0.196264	0	0	0	0
28.03884	0.0354851	-0.196264	0	0	0	0
28.0554	0.0354851	-0.196264	0	0	0	0
28.07197	0.0354851	-0.196264	0	0	0	0
28.08883	0.0354851	-0.196264	0	0	0	0
28.10534	0.0354851	-0.196264	0	0	0	0
28.12167	0.0354851	-0.196264	0	0	0	0
28.13824	0.0354851	-0.196264	0	0	0	0
28.15488	0.0354851	-0.196264	0	0	0	0
28.1714	0.0354851	-0.196264	0	0	0	0
28.19341	0.03545881	-0.1962437	-0.001193905	0.0009218249	-0.03098303	0.02392228
28.20451	0.03545881	-0.1962437	0	0	0.03605912	-0.02784156
28.22107	0.03545881	-0.1962437	0	0	0	0
28.23764	0.03545881	-0.1962437	0	0	0	0
28.25421	0.03545881	-0.1962437	0	0	0	0
28.271	0.03545881	-0.1962437	0	0	0	0
28.28734	0.03545881	-0.1962437	0	0	0	0
28.30401	0.03545881	-0.1962437	0	0	0	0
28.32047	0.03545881	-0.1962437	0	0	0	0
28.33704	0.03545881	-0.1962437	0	0	0	0
28.35361	0.03545881	-0.1962437	0	0	0	0
28.37017	0.03545881	-0.1962437	0	0	0	0
28.38674	0.03545881	-0.1962437	0	0	0	0
28.40331	0.03545881	-0.1962437	0	0	0	0
28.4201	0.03545881	-0.1962437	0	0	0	0
28.43644	0.03545881	-0.1962437	0	0	0	0
28.45301	0.03545881	-0.1962437	0	0	0	0
28.47383	0.03545881	-0.1962437	0	0	0	0
28.4904	0.03545881	-0.1962437	0	0	0	0
28.50697	0.03545881	-0.1962437	0	0	0	0
28.52353	0.03545881	-0.1962437	0	0	0	0
28.5401	0.03545881	-0.1962437	0	0	0	0
28.55667	0.03545881	-0.1962437	0	0	0	0
28.57349	0.03545881	-0.1962437	0	0	0	0
28.58999	0.03545881	-0.1962437	0	0	0	0
28.60637	0.03545881	-0.1962437	0	0	0	0
28.62293	0.03545881	-0.1962437	0	0	0	0
28.6395	0.03545881	-0.1962437	0	0	0	0
28.65606	0.03545881	-0.1962437	0	0	0	0
28.67263	0.03545881	-0.1962437	0	0	0	0
28.6892	0.03545881	-0.1962437	0	0	0	0
28.70576	0.03545881	-0.1962437	0	0	0	0
28.72233	0.03545881	-0.1962437	0	0	0	0
28.7389	0.03545881	-0.1962437	0	0	0	0
28.75547	0.03545881	-0.1962437	0	0	0	0
28.77212	0.03545881	-0.1962437	0	0	0	0
28.78861	0.03545881	-0.1962437	0	0	0	0
28.80516	0.03545881	-0.1962437	0	0	0	0
28.82173	0.03545881	-0.1962437	0	0	0	0
28.8383	0.03545881	-0.1962437	0	0	0	0
28.85516	0.03543253	-0.1962234	-0.001558744	0.001202807	-0.04662962	0.03598181
28.87143	0.03543253	-0.1962234	0	0	0.0470457	-0.03630287
28.8882	0.03543253	-0.1962234	0	0	0	0
28.90471	0.03535368	-0.1961625	-0.004776412	0.00368555	-0.1435409	0.1107583
28.92113	0.03535368	-0.1961625	0	0	0.1450374	-0.111913
28.9377	0.03535368	-0.1961625	0	0	0	0
28.95681	0.03509085	-0.1959597	-0.0137565	0.01061555	-0.3856262	0.2975782
28.97375	0.03509085	-0.1959597	0	0	0.3815663	-0.2944452
28.98994	0.03509085	-0.1959597	0	0	0	0
29.00765	0.03498572	-0.195838	-0.005935935	0.00686938	-0.1751049	0.2026407
29.0243	0.03498572	-0.195838	0	0	0.1727527	-0.1999186
29.0413	0.03498572	-0.195838	0	0	0	0
29.05735	0.03495944	-0.1957772	-0.00163669	0.003788863	-0.04951799	0.1146319
29.07392	0.03495944	-0.1957772	0	0	0.05016645	-0.116133
29.09083	0.03495944	-0.1957772	0	0	0	0
29.10705	0.03495944	-0.1957366	0	0.002500074	0	0.07545671
29.12362	0.03495944	-0.1957366	0	0	0	-0.07624235
29.14019	0.03495944	-0.1957366	0	0	0	0
29.15688	0.03656265	-0.1943784	0.09602936	0.08135425	2.887037	2.445843
29.17332	0.03656265	-0.1943784	0	0	-2.898172	-2.455276
29.2338	0.03656265	-0.1943784	0	0	0	0
29.25046	0.03309318	-0.1898032	-0.2082906	0.2746738	-2.700269	3.560857
29.26696	0.03309318	-0.1898032	0	0	6.281161	-8.282997
29.28399	0.03309318	-0.1898032	0	0	0	0
29.30007	0.02883411	-0.180198	-0.2649474	0.59752	-8.003038	18.04877
29.31664	0.02883411	-0.180198	0	0	8.116673	-18.30505
29.3332	0.02883411	-0.180198	0	0	0	0
29.35053	0.02083909	-0.1509096	-0.4612848	1.689839	-13.60827	49.85157
29.36634	0.02083909	-0.1509096	0	0	13.9216	-50.99943
29.3829	0.02083909	-0.1509096	0	0	0	0
29.39947	0.0246003	-0.1174077	0.2270533	2.02241	6.852877	61.03996
29.41608	0.0246003	-0.1174077	0	0	-6.843816	-60.95925
29.4326	0.0246003	-0.1174077	0	0	0	0
29.44917	0.0363524	-0.08763848	0.7093582	1.796875	21.43809	54.30483
29.46574	0.0363524	-0.08763848	0	0	-21.40847	-54.22981
29.4823	0.0363524	-0.08763848	0	0	0	0
29.49887	0.04623019	-0.0577157	0.5962248	1.806143	17.99514	54.51263
29.51543	0.04623019	-0.0577157	0	0	-17.99514	-54.51263
29.532	0.04623019	-0.0577157	0	0	0	0
29.54857	0.0514283	-0.03543905	0.3137581	1.344621	9.469237	40.58075
29.57012	0.0514283	-0.03543905	0	0	-8.231977	-35.27843
29.58171	0.0514283	-0.03543905	0	0	0	0
29.5987	0.04252698	0.0008384435	-0.5240125	2.135623	-18.33268	74.71516
29.61484	0.04252698	0.0008384435	0	0	15.82019	-64.47549
29.6314	0.04252698	0.0008384435	0	0	0	0
29.64797	0.03259372	0.04489455	-0.5995727	2.659232	-18.09514	80.25577
29.66454	0.03259372	0.04489455	0	0	18.09514	-80.25577
29.68126	0.03259372	0.04489455	0	0	0	0
29.69767	0.03148959	0.07942563	-0.0672648	2.103676	-2.030056	63.48906
29.71428	0.03148959	0.07942563	0	0	2.036621	-63.69439
29.7308	0.03148959	0.07942563	0	0	0	0
29.74781	0.02975437	0.1069076	-0.1020588	1.616388	-3.044563	48.21922
29.76394	0.02975437	0.1069076	0	0	3.08014	-48.78268
29.78085	0.02975437	0.1069076	0	0	0	0
29.79707	0.02175972	0.1360157	-0.4928857	1.79457	-14.87618	54.16334
29.81364	0.02175972	0.1360157	0	0	15.03281	-54.73364
29.83021	0.02175972	0.1360157	0	0	0	0
29.84795	0.01197311	0.1723903	-0.5514835	2.049737	-16.07205	59.73612
29.86452	0.01197311	0.1723903	0	0	16.07205	-59.73612
29.8814	0.01197311	0.1723903	0	0	0	0
29.89765	0.009078698	0.2014272	-0.178132	1.787031	-5.376343	53.93581
29.91422	0.009078698	0.2014272	0	0	5.428216	-54.4562
29.93094	0.009078698	0.2014272	0	0	0	0
29.94735	0.006710425	0.2260795	-0.1442948	1.502021	-4.355328	45.3363
29.96392	0.006710425	0.2260795	0	0	4.374974	-45.5408
29.98048	0.006710425	0.2260795	0	0	0	0
29.99705	0.008105085	0.2488199	0.08419152	1.372773	2.541198	41.43513
30.01362	0.008105085	0.2488199	0	0	-2.541051	-41.43275
30.03053	0.008105085	0.2488199	0	0	0	0
30.04675	-0.0003421053	0.271229	-0.5209694	1.382052	-15.72379	41.7128
30.06355	-0.0003421053	0.271229	0	0	15.78103	-41.86463
30.07988	-0.0003421053	0.271229	0	0	0	0
30.09645	-0.01670897	0.2824652	-0.9880198	0.6782941	-30.03113	20.61693
30.11302	-0.01670897	0.2824652	0	0	29.8185	-20.47096
30.12958	-0.01670897	0.2824652	0	0	0	0
30.14615	-0.02270662	0.2866143	-0.3620606	0.2504677	-10.92827	7.560002
30.16301	-0.02270662	0.2866143	0	0	10.83223	-7.493565
30.17928	-0.02270662	0.2866143	0	0	0	0
30.19585	-0.02262772	0.2865606	0.004762738	-0.003237969	0.1450169	-0.09859042
30.21254	-0.02262772	0.2865606	0	0	-0.1431957	0.09735224
30.22956	-0.02262772	0.2865606	0	0	0	0
30.24555	-0.02252251	0.2864891	0.006581572	-0.004474407	0.1994013	-0.1355607
30.26258	-0.02252251	0.2864891	0	0	-0.1993092	0.135498
30.27868	-0.02252251	0.2864891	0	0	0	0
30.2956	-0.02231209	0.286346	0.01243617	-0.008456276	0.3766688	-0.256125
30.31182	-0.02231209	0.286346	0	0	-0.3753245	0.2552109
30.32838	-0.02231209	0.286346	0	0	0	0
30.34495	-0.02212797	0.2862208	0.01111471	-0.007556131	0.3354619	-0.2280576
30.36152	-0.02212797	0.2862208	0	0	-0.3354619	0.2280576
30.37808	-0.02212797	0.2862208	0	0	0	0
30.39845	-0.02183863	0.2859884	0.01420891	-0.01141579	0.3847516	-0.309119
30.41501	-0.02183863	0.2859884	0	0	-0.3847516	0.309119
30.43158	-0.02168081	0.2858811	0.009526038	-0.006477737	0.2874964	-0.1954985
30.44821	-0.02168081	0.2858811	0	0	-0.2869843	0.1951503
30.46471	-0.02168081	0.2858811	0	0	0	0
30.48171	-0.01976059	0.2844325	0.1129786	-0.08522648	3.372043	-2.543733
30.49785	-0.01976059	0.2844325	0	0	-3.4097	2.57214
30.51473	-0.01976059	0.2844325	0	0	0	0
30.53098	-0.01189418	0.2787624	0.4841823	-0.3489999	14.61349	-10.53344
30.54777	-0.01189418	0.2787624	0	0	-14.65567	10.56385
30.56412	-0.01189418	0.2787624	0	0	0	0
30.58068	-0.003394724	0.2720165	0.5130279	-0.4071818	15.5882	-12.3721
30.59729	-0.003394724	0.2720165	0	0	-15.46274	12.27252
30.61382	-0.003394724	0.2720165	0	0	0	0
30.63082	0.0145516	0.2529967	1.055536	-1.118677	31.48638	-33.36989
30.64915	0.0145516	0.2529967	0	0	-29.87501	31.66212
30.66352	0.0145516	0.2529967	0	0	0	0
30.68008	0.04901335	0.186978	2.080115	-3.984896	67.23671	-128.806
30.69666	0.04901335	0.186978	0	0	-62.75271	120.216
30.71322	0.04901335	0.186978	0	0	0	0
30.72978	0.05268803	0.125024	0.22183	-3.739977	6.697928	-112.9247
30.74669	0.05268803	0.125024	0	0	-6.628452	111.7534
30.76292	0.05268803	0.125024	0	0	0	0
30.77948	0.02144408	0.0993924	-1.885889	-1.547129	-57.49877	-47.17033
30.79621	0.02144408	0.0993924	0	0	56.64235	46.46775
30.81273	0.02144408	0.0993924	0	0	0	0
30.82918	-0.01160474	0.07636554	-2.008008	-1.399085	-60.89978	-42.43209
30.84576	-0.01160474	0.07636554	0	0	60.78024	42.3488
30.86326	-0.01160474	0.07636554	0	0	0	0
30.87888	-0.01365705	0.0749269	-0.1313474	-0.09207296	-3.965671	-2.779888
30.89545	-0.01365705	0.0749269	0	0	4.080097	2.860099
30.91202	-0.01365705	0.0749269	0	0	0	0
30.92936	-0.01363073	0.07505603	0.001516872	0.007444812	0.0447313	0.2195414
30.94593	-0.01363073	0.07505603	0	0	-0.04472878	-0.219529
30.96286	-0.01363073	0.07505603	0	0	0	0
30.97906	-0.01473578	0.0761258	-0.06820004	0.06602322	-2.058281	1.992585
30.99587	-0.01473578	0.0761258	0	0	2.066251	-2.000299
31.0122	-0.01473578	0.0761258	0	0	0	0
31.02889	-0.01470947	0.07651307	0.001576091	0.02319916	0.04772585	0.7024975
31.04539	-0.01470947	0.07651307	0	0	-0.04748997	-0.6990254
31.0619	-0.01470947	0.07651307	0	0	0	0
31.07846	-0.01463053	0.08139694	0.004764804	0.2948254	0.1440508	8.91324
31.09503	-0.01463053	0.08139694	0	0	-0.1438103	-8.89836
31.11196	-0.01463053	0.08139694	0	0	0	0
31.12816	0.0003947368	0.09601574	0.9274275	0.9023378	27.99143	27.23418
31.14473	0.0003947368	0.09601574	0	0	-28.30263	-27.53695
31.16148	0.0003947368	0.09601574	0	0	0	0
31.17801	0.01365705	0.1290187	0.8027326	1.997583	24.12376	60.03145
31.19443	0.01365705	0.1290187	0	0	-24.36537	-60.6327
31.21101	0.01365705	0.1290187	0	0	0	0
31.22756	0.02302225	0.1464215	0.5658711	1.051523	17.07901	31.73685
31.24413	0.02302225	0.1464215	0	0	-17.08687	-31.75147
31.26105	0.02302225	0.1464215	0	0	0	0
31.27726	0.02289074	0.146367	-0.008112627	-0.003363447	-0.2448396	-0.101509
31.29459	0.02289074	0.146367	0	0	0.2419014	0.1002909
31.31059	0.02289074	0.146367	0	0	0	0
31.32696	0.02210166	0.1454218	-0.04818895	-0.05772241	-1.488534	-1.783018
31.34361	0.02210166	0.1454218	0	0	1.459386	1.748103
31.3601	0.02210166	0.1454218	0	0	0	0
31.37667	0.02210166	0.1346498	0	-0.6501959	0	-19.66937
31.39323	0.02210166	0.1346498	0	0	0	19.62295
31.4098	0.02210166	0.1346498	0	0	0	0
31.42636	0.02081278	0.0888503	-0.07780589	-2.764783	-2.348322	-83.44612
31.44321	0.02081278	0.0888503	0	0	2.328483	82.74117
31.46393	0.02081278	0.0888503	0	0	0	0
31.47607	0.003026307	0.05610453	-1.466002	-2.698981	-44.62419	-82.15532
31.49274	0.003026307	0.05610453	0	0	50.88428	93.68045
31.50922	0.003026307	0.05610453	0	0	0	0
31.52576	-0.008420854	0.04487596	-0.6918281	-0.6786174	-20.95178	-20.5517
31.54233	-0.008420854	0.04487596	0	0	20.89264	20.49369
31.55926	-0.008420854	0.04487596	0	0	0	0
31.57547	-0.007789316	0.01857539	0.03897218	-1.623008	1.176183	-48.98247
31.59203	-0.007789316	0.01857539	0	0	-1.189189	49.52412
31.6086	-0.007789316	0.01857539	0	0	0	0
31.62517	-0.001394736	0.01331079	0.3859776	-0.3177719	11.6495	-9.590928
31.64184	-0.001394736	0.01331079	0	0	-11.61206	9.560109
31.65835	-0.001394736	0.01331079	0	0	0	0
31.67487	-0.001315789	0.01317954	0.004779567	-0.007945959	0.1447141	-0.2405851
31.69143	-0.001315789	0.01317954	0	0	-0.1444638	0.240169
31.708	-0.001315789	0.01317954	0	0	0	0
31.72457	-0.005210479	0.009465009	-0.235084	-0.2242094	-7.094849	-6.766654
31.74113	-0.005210479	0.009465009	0	0	7.094849	6.766654
31.7577	-0.005210479	0.009465009	0	0	0	0
31.77442	-0.007789316	0.007662575	-0.1542911	-0.1078392	-4.635702	-3.240045
31.79092	-0.007789316	0.007662575	0	0	4.645285	3.246743
31.8074	-0.007789316	0.007662575	0	0	0	0
31.82446	-0.007763002	0.007643795	0.001542847	-0.001101117	0.04600184	-0.03283113
31.84054	-0.007763002	0.007643795	0	0	-0.04656323	0.03323179
31.8571	-0.007763002	0.007643795	0	0	0	0
31.87367	-0.007789316	0.007625014	-0.001588502	-0.001133729	-0.04794386	-0.03421798
31.89028	-0.007789316	0.007625014	0	0	0.04788597	0.03417666
31.9068	-0.007789316	0.007625014	0	0	0	0
31.92337	-0.007789316	0.007625014	0	0	0	0
31.93994	-0.007789316	0.007625014	0	0	0	0
31.95683	-0.007789316	0.007625014	0	0	0	0
31.97307	-0.007763002	0.007568672	0.001620026	-0.003468683	0.04889249	-0.1046851
31.98964	-0.007763002	0.007568672	0	0	-0.04937854	0.1057258
32.0062	-0.007763002	0.007568672	0	0	0	0
32.02704	-0.007368288	0.007286948	0.01894052	-0.01351863	0.5063372	-0.3613939
32.04361	-0.007368288	0.007286948	0	0	-0.5063372	0.3613939
32.06018	0.0002368421	0.001816855	0.4590465	-0.3301755	13.85405	-9.964716
32.0769	0.0002368421	0.001816855	0	0	-13.78897	9.917901
32.09331	0.0002368421	0.001816855	0	0	0	0
32.10988	0.02880782	-0.01867763	1.724547	-1.23705	52.29378	-37.5113
32.12645	0.02880782	-0.01867763	0	0	-52.04694	37.33423
32.14301	0.02880782	-0.01867763	0	0	0	0
32.15958	0.05706954	-0.03919108	1.705881	-1.238194	51.48359	-37.36877
32.17615	0.05706954	-0.03919108	0	0	-51.48359	37.36877
32.19271	0.05706954	-0.03919108	0	0	0	0
32.20928	0.07896703	-0.05516616	1.321735	-0.9642575	39.89004	-29.10135
32.22585	0.07896703	-0.05516616	0	0	-39.89004	29.10135
32.24242	0.07896703	-0.05516616	0	0	0	0
32.25898	0.07917624	-0.05531945	0.01262808	-0.009252721	0.3811162	-0.2792477
32.27556	0.07917624	-0.05531945	0	0	-0.3810284	0.2791834
32.29221	0.07917624	-0.05531945	0	0	0	0
32.30868	0.07917624	-0.05535778	0	-0.002326743	0	-0.0702455
32.32525	0.07917624	-0.05535778	0	0	0	0.07042393
32.34182	0.07917624	-0.05535778	0	0	0	0
32.35838	0.07896703	-0.05551108	-0.01262808	-0.009253397	-0.3811162	-0.2792681
32.37495	0.07896703	-0.05551108	0	0	0.3811162	0.2792681
32.39152	0.07896703	-0.05551108	0	0	0	0
32.40808	0.0694408	-0.06253342	-0.575004	-0.4238695	-17.35365	-12.79241
32.42482	0.0694408	-0.06253342	0	0	17.26817	12.72939
32.44122	0.0694408	-0.06253342	0	0	0	0
32.45779	0.05452485	-0.07348528	-0.9003288	-0.6610552	-27.30716	-20.04994
32.47436	0.05452485	-0.07348528	0	0	27.16885	19.94839
32.49092	0.05452485	-0.07348528	0	0	0	0
32.50749	0.04347259	-0.08157766	-0.6671156	-0.4884571	-20.13591	-14.74336
32.52406	0.04347259	-0.08157766	0	0	20.13359	14.74166
32.5409	0.04347259	-0.08157766	0	0	0	0
32.56279	0.04344633	-0.081597	-0.001200064	-0.0008837916	-0.03098183	-0.02281669
32.57375	0.04344633	-0.081597	0	0	0.03653345	0.0269052
32.59032	0.04344633	-0.081597	0	0	0	0
32.60689	0.04344633	-0.081597	0	0	0	0
32.62363	0.04344633	-0.081597	0	0	0	0
32.64002	0.04344633	-0.081597	0	0	0	0
32.65663	0.04344633	-0.081597	0	0	0	0
32.67316	0.04344633	-0.081597	0	0	0	0
32.68972	0.04347259	-0.08161634	0.001586352	-0.001168275	0.04794795	-0.03531145
32.70628	0.04347259	-0.08161634	0	0	-0.04789273	0.03527078
32.72285	0.04347259	-0.08161634	0	0	0	0
32.73942	0.04347259	-0.08161634	0	0	0	0
32.75599	0.04347259	-0.08161634	0	0	0	0
32.77272	0.04347259	-0.08161634	0	0	0	0
32.78923	0.04344633	-0.081597	-0.00159075	0.001171514	-0.04784917	0.03523871
32.80568	0.04344633	-0.081597	0	0	0.04825895	-0.03554049
32.82226	0.04344633	-0.081597	0	0	0	0
32.83882	0.04344633	-0.081597	0	0	0	0
32.85564	0.04344633	-0.081597	0	0	0	0
32.87195	0.04344633	-0.081597	0	0	0	0
32.88852	0.04344633	-0.081597	0	0	0	0
32.90519	0.04344633	-0.081597	0	0	0	0
32.92165	0.04344633	-0.081597	0	0	0	0
32.93822	0.04344633	-0.081597	0	0	0	0
32.95479	0.04344633	-0.081597	0	0	0	0
32.9722	0.04344633	-0.081597	0	0	0	0
32.98824	0.04344633	-0.081597	0	0	0	0
33.00449	0.04344633	-0.081597	0	0	0	0
33.02105	0.04344633	-0.081597	0	0	0	0
33.03762	0.04347259	-0.08161634	0.001585256	-0.001167468	0.04784311	-0.03523425
33.05428	0.04347259	-0.08161634	0	0	-0.04771128	0.03513716
33.07079	0.04347259	-0.08161634	0	0	0	0
33.08732	0.04347259	-0.08161634	0	0	0	0
33.10585	0.04347259	-0.08161634	0	0	0	0
33.12241	0.04347259	-0.08161634	0	0	0	0
33.13898	0.04344633	-0.081597	-0.001585256	0.001167468	-0.04784311	0.03523425
33.15555	0.04344633	-0.081597	0	0	0.04784311	-0.03523425
33.17286	0.04344633	-0.081597	0	0	0	0
33.18888	0.04344633	-0.081597	0	0	0	0
33.20525	0.04344633	-0.081597	0	0	0	0
33.2219	0.04344633	-0.081597	0	0	0	0
33.23838	0.04344633	-0.081597	0	0	0	0
33.25501	0.04344633	-0.081597	0	0	0	0
33.27152	0.04344633	-0.081597	0	0	0	0
33.28808	0.04344633	-0.081597	0	0	0	0
33.30465	0.04344633	-0.081597	0	0	0	0
33.32122	0.04344633	-0.081597	0	0	0	0
33.33808	0.04344633	-0.081597	0	0	0	0
33.35435	0.04344633	-0.081597	0	0	0	0
33.37116	0.04344633	-0.081597	0	0	0	0
33.38768	0.04344633	-0.081597	0	0	0	0
33.40405	0.04344633	-0.081597	0	0	0	0
33.4207	0.04344633	-0.081597	0	0	0	0
33.43719	0.04344633	-0.081597	0	0	0	0
33.45424	0.04344633	-0.081597	0	0	0	0
33.47032	0.04344633	-0.081597	0	0	0	0
33.48689	0.04344633	-0.081597	0	0	0	0
33.50376	0.04344633	-0.081597	0	0	0	0
33.52002	0.04344633	-0.081597	0	0	0	0
33.53659	0.04344633	-0.081597	0	0	0	0
33.55328	0.04344633	-0.081597	0	0	0	0
33.56972	0.04344633	-0.081597	0	0	0	0
33.5863	0.04344633	-0.081597	0	0	0	0
33.60286	0.04344633	-0.081597	0	0	0	0
33.61984	0.04344633	-0.081597	0	0	0	0
33.64256	0.04344633	-0.081597	0	0	0	0
33.65255	0.04344633	-0.081597	0	0	0	0
33.66925	0.04344633	-0.081597	0	0	0	0
33.68577	0.04344633	-0.081597	0	0	0	0
33.70228	0.04344633	-0.081597	0	0	0	0
33.71882	0.04344633	-0.081597	0	0	0	0
33.73539	0.04344633	-0.081597	0	0	0	0
33.75196	0.04344633	-0.081597	0	0	0	0
33.76852	0.04344633	-0.081597	0	0	0	0
33.78534	0.04344633	-0.081597	0	0	0	0
33.80166	0.04344633	-0.081597	0	0	0	0
33.81838	0.04344633	-0.081597	0	0	0	0
33.83479	0.04344633	-0.081597	0	0	0	0
33.8514	0.04344633	-0.081597	0	0	0	0
33.86793	0.04344633	-0.081597	0	0	0	0
33.88449	0.04344633	-0.081597	0	0	0	0
33.90106	0.04344633	-0.081597	0	0	0	0
33.92172	0.04344633	-0.081597	0	0	0	0
33.93836	0.04344633	-0.081597	0	0	0	0
33.95485	0.04344633	-0.081597	0	0	0	0
33.97142	0.04344633	-0.081597	0	0	0	0
33.98799	0.04344633	-0.081597	0	0	0	0
34.00455	0.04344633	-0.081597	0	0	0	0
34.02112	0.04344633	-0.081597	0	0	0	0
34.03791	0.04344633	-0.081597	0	0	0	0
34.05426	0.04344633	-0.081597	0	0	0	0
34.07082	0.04344633	-0.081597	0	0	0	0
34.08797	0.04344633	-0.081597	0	0	0	0
34.10396	0.04342006	-0.08161634	-0.001643375	-0.001210099	-0.04959716	-0.03652085
34.12053	0.04342006	-0.08161634	0	0	0.05048646	0.03717568
34.13709	0.04342006	-0.08161634	0	0	0	0
34.15366	0.04342006	-0.08161634	0	0	0	0
34.17053	0.04342006	-0.08161634	0	0	0	0
34.18786	0.04342006	-0.08161634	0	0	0	0
34.20347	0.04342006	-0.08161634	0	0	0	0
34.21992	0.04342006	-0.08161634	0	0	0	0
34.23649	0.04342006	-0.08161634	0	0	0	0
34.2535	0.04342006	-0.08161634	0	0	0	0
34.26962	0.04342006	-0.08161634	0	0	0	0
34.28619	0.04342006	-0.08161634	0	0	0	0
34.30302	0.04344633	-0.08163568	0.001561039	-0.00114947	0.04674628	-0.0344216
34.31933	0.04344633	-0.08163568	0	0	-0.0471014	0.03468309
34.33589	0.04344633	-0.08163568	0	0	0	0
34.35256	0.04344633	-0.08163568	0	0	0	0
34.36902	0.04344633	-0.08163568	0	0	0	0
34.38561	0.04344633	-0.08163568	0	0	0	0
34.4026	0.04342006	-0.08161634	-0.001545968	0.001138373	-0.04604252	0.03390339
34.41872	0.04342006	-0.08161634	0	0	0.04668428	-0.03437595
34.43529	0.04342006	-0.08161634	0	0	0	0
34.45186	0.04342006	-0.08161634	0	0	0	0
34.46843	0.04342006	-0.08161634	0	0	0	0
34.48574	0.04342006	-0.08161634	0	0	0	0
34.50156	0.04342006	-0.08161634	0	0	0	0
34.51813	0.04342006	-0.08161634	0	0	0	0
34.53469	0.04342006	-0.08161634	0	0	0	0
34.55176	0.04342006	-0.08161634	0	0	0	0
34.56783	0.04342006	-0.08161634	0	0	0	0
34.58439	0.04342006	-0.08161634	0	0	0	0
34.60131	0.04342006	-0.08161634	0	0	0	0
34.6178	0.04342006	-0.08161634	0	0	0	0
34.63409	0.04342006	-0.08161634	0	0	0	0
34.65066	0.04342006	-0.08161634	0	0	0	0
34.66735	0.04342006	-0.08161634	0	0	0	0
34.6838	0.04342006	-0.08161634	0	0	0	0
34.70037	0.04342006	-0.08161634	0	0	0	0
34.71693	0.04342006	-0.08161634	0	0	0	0
34.73826	0.04342006	-0.08161634	0	0	0	0
34.75006	0.04342006	-0.08161634	0	0	0	0
34.76663	0.04342006	-0.08161634	0	0	0	0
34.78343	0.04342006	-0.08161634	0	0	0	0
34.79976	0.04342006	-0.08161634	0	0	0	0
34.81633	0.04342006	-0.08161634	0	0	0	0
34.83295	0.04342006	-0.08161634	0	0	0	0
34.84946	0.04342006	-0.08161634	0	0	0	0
34.86603	0.04342006	-0.08161634	0	0	0	0
34.88301	0.04342006	-0.08161634	0	0	0	0
34.89916	0.04342006	-0.08161634	0	0	0	0
34.91573	0.04342006	-0.08161634	0	0	0	0
34.9323	0.04342006	-0.08161634	0	0	0	0
34.94886	0.04344633	-0.081597	0.001585481	0.001167468	0.0478499	0.03523425
34.96556	0.04344633	-0.081597	0	0	-0.0476688	-0.03510089
34.98208	0.04344633	-0.081597	0	0	0	0
34.99857	0.04342006	-0.08161634	-0.001593184	-0.00117314	-0.04826577	-0.03554047
35.01513	0.04342006	-0.08161634	0	0	0.04819892	0.03549125
35.0317	0.04342006	-0.08161634	0	0	0	0
35.04827	0.04342006	-0.08161634	0	0	0	0
35.06483	0.04342006	-0.08161634	0	0	0	0
35.0814	0.04342006	-0.08161634	0	0	0	0
35.09797	0.04344633	-0.081597	0.001585481	0.001167468	0.0478499	0.03523425
35.11471	0.04344633	-0.081597	0	0	-0.04760328	-0.03505265
35.13122	0.04344633	-0.081597	0	0	0	0
35.14767	0.04344633	-0.081597	0	0	0	0
35.16424	0.04344633	-0.081597	0	0	0	0
35.18081	0.04344633	-0.081597	0	0	0	0
35.19737	0.04344633	-0.081597	0	0	0	0
35.21394	0.04344633	-0.081597	0	0	0	0
35.23051	0.04344633	-0.081597	0	0	0	0
35.24707	0.04344633	-0.081597	0	0	0	0
35.26364	0.04344633	-0.081597	0	0	0	0
35.28046	0.04344633	-0.081597	0	0	0	0
35.29677	0.04344633	-0.081597	0	0	0	0
35.3135	0.04344633	-0.081597	0	0	0	0
35.32998	0.04344633	-0.081597	0	0	0	0
35.34647	0.04344633	-0.081597	0	0	0	0
35.36304	0.04344633	-0.081597	0	0	0	0
35.37961	0.04344633	-0.081597	0	0	0	0
35.39618	0.04342006	-0.08161634	-0.001585481	-0.001167468	-0.0478499	-0.03523425
35.41274	0.04342006	-0.08161634	0	0	0.0478499	0.03523425
35.42931	0.04342006	-0.08161634	0	0	0	0
35.44588	0.04342006	-0.08161634	0	0	0	0
35.46244	0.04342006	-0.08161634	0	0	0	0
35.47901	0.04342006	-0.08161634	0	0	0	0
35.49558	0.04342006	-0.08161634	0	0	0	0
35.51215	0.04342006	-0.08161634	0	0	0	0
35.52871	0.04342006	-0.08161634	0	0	0	0
35.54565	0.04342006	-0.08161634	0	0	0	0
35.56184	0.04342006	-0.08161634	0	0	0	0
35.57841	0.04342006	-0.08161634	0	0	0	0
35.59522	0.04342006	-0.08161634	0	0	0	0
35.61155	0.04342006	-0.08161634	0	0	0	0
35.62824	0.04342006	-0.08161634	0	0	0	0
35.64468	0.04342006	-0.08161634	0	0	0	0
35.66127	0.04342006	-0.08161634	0	0	0	0
35.67781	0.04342006	-0.08161634	0	0	0	0
35.69438	0.04339379	-0.08163568	-0.001585481	-0.001167468	-0.0478885	-0.03526267
35.71129	0.04339379	-0.08163568	0	0	0.04735379	0.03486894
35.72751	0.04339379	-0.08163568	0	0	0	0
35.74408	0.04339379	-0.08163568	0	0	0	0
35.76083	0.04339379	-0.08163568	0	0	0	0
35.77721	0.04339379	-0.08163568	0	0	0	0
35.79378	0.04339379	-0.08163568	0	0	0	0
35.81039	0.04339379	-0.08163568	0	0	0	0
35.82692	0.04339379	-0.08163568	0	0	0	0
35.84391	0.04339379	-0.08163568	0	0	0	0
35.86005	0.04339379	-0.08163568	0	0	0	0
35.87662	0.04339379	-0.08163568	0	0	0	0
35.89318	0.04339379	-0.08163568	0	0	0	0
35.90975	0.04339379	-0.08163568	0	0	0	0
35.92632	0.04339379	-0.08163568	0	0	0	0
35.94298	0.04336753	-0.08161634	-0.001576406	0.001160786	-0.04743949	0.03493204
35.95948	0.04336753	-0.08161634	0	0	0.04753772	-0.03500437
35.97602	0.04336753	-0.08161634	0	0	0	0
35.99258	0.04255324	-0.08090077	-0.04915035	0.04319226	-1.484728	1.304747
36.00954	0.04255324	-0.08090077	0	0	1.46631	-1.288562
36.02604	0.04255324	-0.08090077	0	0	0	0
36.04229	0.04247444	-0.07902569	-0.004851621	0.115439	-0.1481448	3.524942
36.05885	0.04247444	-0.07902569	0	0	0.1478692	-3.518385
36.07542	0.04247444	-0.07902569	0	0	0	0
36.09207	0.03209424	-0.06647426	-0.6235349	0.7539604	-18.77293	22.69969
36.1086	0.03209424	-0.06647426	0	0	18.79452	-22.72579
36.12513	0.03209424	-0.06647426	0	0	0	0
36.14169	0.01807698	-0.0102453	-0.8466684	3.396333	-25.58785	102.6433
36.15825	0.01807698	-0.0102453	0	0	25.56133	-102.5369
36.17482	0.01807698	-0.0102453	0	0	0	0
36.19139	0.02128626	0.04712429	0.1937125	3.462835	5.846255	104.5086
36.20795	0.02128626	0.04712429	0	0	-5.846255	-104.5086
36.22467	0.02128626	0.04712429	0	0	0	0
36.24109	0.04397164	0.07202967	1.382342	1.517619	41.72398	45.80711
36.25768	0.04397164	0.07202967	0	0	-41.87828	-45.97651
36.27422	0.04397164	0.07202967	0	0	0	0
36.29079	0.06110803	0.08469272	1.034355	0.7643428	31.24567	23.08918
36.30735	0.06110803	0.08469272	0	0	-31.21689	-23.06791
36.32392	0.06110803	0.08469272	0	0	0	0
36.34049	0.06359833	0.1091599	0.1503144	1.47684	4.536497	44.57111
36.35726	0.06359833	0.1091599	0	0	-4.508985	-44.30079
36.37362	0.06359833	0.1091599	0	0	0	0
36.39019	0.03745616	0.1430581	-1.577944	2.046104	-47.91482	62.13065
36.40695	0.03745616	0.1430581	0	0	47.34447	-61.39109
36.42332	0.03745616	0.1430581	0	0	0	0
36.43999	0.0248633	0.151835	-0.7555832	0.5266196	-22.86937	15.93929
36.4565	0.0248633	0.151835	0	0	22.77732	-15.87513
36.47351	0.0248633	0.151835	0	0	0	0
36.48959	0.01933969	0.1556468	-0.3435301	0.23707	-10.38091	7.163859
36.50616	0.01933969	0.1556468	0	0	10.52283	-7.261799
36.52272	0.01933969	0.1556468	0	0	0	0
36.53955	0.01910294	0.1558464	-0.01407346	0.0118649	-0.4214867	0.3553425
36.55586	0.01910294	0.1558464	0	0	0.4247379	-0.3580835
36.57257	0.01910294	0.1558464	0	0	0	0
36.58899	0.01755083	0.1581867	-0.09453438	0.1425382	-2.853382	4.302307
36.60556	0.01755083	0.1581867	0	0	2.865921	-4.321213
36.62213	0.01755083	0.1581867	0	0	0	0
36.63869	-0.006920942	0.1760086	-1.4778	1.076226	-44.60521	32.48431
36.65525	-0.006920942	0.1760086	0	0	44.61035	-32.48806
36.67182	-0.006920942	0.1760086	0	0	0	0
36.68839	-0.02286444	0.1869599	-0.9623512	0.6610242	-29.04382	19.94975
36.70528	-0.02286444	0.1869599	0	0	28.76235	-19.75642
36.72152	-0.02286444	0.1869599	0	0	0	0
36.73809	-0.03403948	0.1946301	-0.6746822	0.4630778	-20.56557	14.11547
36.75481	-0.03403948	0.1946301	0	0	20.26861	-13.91165
36.77122	-0.03403948	0.1946301	0	0	0	0
36.78782	-0.0532916	0.2077322	-1.159657	0.7892142	-35.12794	23.9066
36.80436	-0.0532916	0.2077322	0	0	34.99852	-23.81853
36.82092	-0.0532916	0.2077322	0	0	0	0
36.83749	-0.06993838	0.2183676	-1.005033	0.6420995	-30.33544	19.38083
36.85405	-0.06993838	0.2183676	0	0	30.33544	-19.38083
36.8709	-0.06993838	0.2183676	0	0	0	0
36.88719	-0.07773776	0.2203816	-0.4788203	0.1236442	-14.45082	3.731591
36.90393	-0.07773776	0.2203816	0	0	14.49756	-3.743659
36.92389	-0.07773776	0.2203816	0	0	0	0
36.93689	-0.07860089	0.2197883	-0.06639192	-0.04564169	-2.01438	-1.384803
36.95345	-0.07860089	0.2197883	0	0	2.245419	1.543633
36.97002	-0.07860089	0.2197883	0	0	0	0
36.98659	-0.07862704	0.2197703	-0.00157851	-0.001085619	-0.04763952	-0.03276405
37.00315	-0.07862704	0.2197703	0	0	0.04763952	0.03276405
37.01972	-0.07862704	0.2197703	0	0	0	0
37.03629	-0.07969924	0.219033	-0.06471801	-0.04450139	-1.953193	-1.343055
37.05286	-0.07969924	0.219033	0	0	1.952968	1.3429
37.06954	-0.07969924	0.219033	0	0	0	0
37.08604	-0.1042262	0.202112	-1.486956	-1.025841	-44.81966	-30.92077
37.10257	-0.1042262	0.202112	0	0	45.02155	31.06005
37.11913	-0.1042262	0.202112	0	0	0	0
37.13569	-0.1297149	0.1844676	-1.538855	-1.065266	-46.46413	-32.16459
37.15226	-0.1297149	0.1844676	0	0	46.44809	32.15348
37.16882	-0.1297149	0.1844676	0	0	0	0
37.18562	-0.134809	0.1809081	-0.3032875	-0.2119214	-9.090443	-6.351923
37.20196	-0.134809	0.1809081	0	0	9.153236	6.3958
37.21852	-0.134809	0.1809081	0	0	0	0
37.23516	-0.1344988	0.1809443	0.0186409	0.002173025	0.56142	0.06544641
37.25169	-0.1344988	0.1809443	0	0	-0.5620658	-0.06552168
37.26867	-0.1344988	0.1809443	0	0	0	0
37.28479	-0.1332582	0.1802575	0.07699585	-0.04262381	2.326418	-1.287872
37.30136	-0.1332582	0.1802575	0	0	-2.355742	1.304106
37.31821	-0.1332582	0.1802575	0	0	0	0
37.33449	-0.1312154	0.1812154	0.1254998	0.05884916	3.788029	1.776276
37.35106	-0.1312154	0.1812154	0	0	-3.821026	-1.791749
37.36762	-0.1312154	0.1812154	0	0	0	0
37.38425	-0.09776626	0.1937101	2.01066	0.7510686	60.56332	22.62302
37.40075	-0.09776626	0.1937101	0	0	-60.68185	-22.6673
37.41732	-0.09776626	0.1937101	0	0	0	0
37.43389	0.002842098	0.205373	6.072732	0.7039732	183.2754	21.24595
37.45045	0.002842098	0.205373	0	0	-183.2754	-21.24595
37.47334	0.002842098	0.205373	0	0	0	0
37.48473	0.1118211	0.1933132	9.57058	-1.059095	279.2598	-30.90331
37.50134	0.1118211	0.1933132	0	0	-341.8079	37.82498
37.51786	0.1118211	0.1933132	0	0	0	0
37.53443	0.1379343	0.1936018	1.576199	0.01742297	47.63559	0.5265538
37.5514	0.1379343	0.1936018	0	0	-47.0016	-0.5195459
37.56792	0.1379343	0.1936018	0	0	0	0
37.5844	0.1383474	0.1939987	0.0250593	0.02407754	0.7592633	0.7295172
37.6007	0.1383474	0.1939987	0	0	-0.7643875	-0.7344407
37.61727	0.1383474	0.1939987	0	0	0	0
37.63383	0.1341629	0.1969205	-0.252576	0.1763605	-7.622758	5.32257
37.6504	0.1341629	0.1969205	0	0	7.622758	-5.32257
37.66697	0.1341629	0.1969205	0	0	0	0
37.68354	0.1108594	0.2131146	-1.406601	0.9774763	-42.45131	29.50029
37.7001	0.1108594	0.2131146	0	0	42.45131	-29.50029
37.71701	0.1108594	0.2131146	0	0	0	0
37.73323	0.09221143	0.2259537	-1.149143	0.7911855	-34.68519	23.88078
37.7498	0.09221143	0.2259537	0	0	35.04023	-24.12522
37.76637	0.09221143	0.2259537	0	0	0	0
37.78304	0.09236799	0.22581	0.009389388	-0.008621275	0.2824618	-0.2593546
37.79958	0.09236799	0.22581	0	0	-0.2827213	0.2595929
37.81658	0.09236799	0.22581	0	0	0	0
37.83263	0.09239408	0.225792	0.001625438	-0.001119519	0.04917471	-0.03386905
37.8492	0.09239408	0.225792	0	0	-0.0498303	0.03432058
37.86577	0.09239408	0.225792	0	0	0	0
37.88234	0.09239408	0.225792	0	0	0	0
37.8989	0.09239408	0.225792	0	0	0	0
37.91547	0.09239408	0.225792	0	0	0	0
37.93217	0.09239408	0.225792	0	0	0	0
37.94868	0.09239408	0.225792	0	0	0	0
37.96519	0.09239408	0.225792	0	0	0	0
37.98174	0.09244627	0.2257561	0.003154182	-0.002172441	0.09542411	-0.06572329
37.99831	0.09244627	0.2257561	0	0	-0.0952592	0.06560971
38.01487	0.09244627	0.2257561	0	0	0	0
38.03144	0.0926289	0.2256303	0.01102394	-0.007592138	0.3327031	-0.2291312
38.04801	0.0926289	0.2256303	0	0	-0.3327031	0.2291312
38.06477	0.0926289	0.2256303	0	0	0	0
38.08128	0.09281153	0.2254326	0.01106169	-0.01197237	0.3325027	-0.3598767
38.09771	0.09281153	0.2254326	0	0	-0.3358143	0.3634608
38.11432	0.09281153	0.2254326	0	0	0	0
38.13084	0.09281153	0.2253607	0	-0.004350901	0	-0.1313256
38.14783	0.09281153	0.2253607	0	0	0	0.1298307
38.16397	0.09281153	0.2253607	0	0	0	0
38.18054	0.09278544	0.2253787	-0.001574912	0.00108472	-0.04814621	0.03316067
38.19711	0.09278544	0.2253787	0	0	0.04753095	-0.0327369
38.21367	0.09278544	0.2253787	0	0	0	0
38.23024	0.09275936	0.2253607	-0.001574463	-0.00108472	-0.04751737	-0.0327369
38.24681	0.09275936	0.2253607	0	0	0.04751737	0.0327369
38.26341	0.09275936	0.2253607	0	0	0	0
38.27994	0.09270717	0.2252889	-0.003157094	-0.004348892	-0.09528128	-0.1312498
38.29651	0.09270717	0.2252889	0	0	0.0953911	0.1314011
38.31308	0.09270717	0.2252889	0	0	0	0
38.32964	0.09228972	0.2250013	-0.0251977	-0.01735551	-0.7604679	-0.5237905
38.34632	0.09228972	0.2250013	0	0	0.7578505	0.5219876
38.36278	0.09228972	0.2250013	0	0	0	0
38.37934	0.09043685	0.2236534	-0.1118395	-0.08136027	-3.38702	-2.463968
38.39591	0.09043685	0.2236534	0	0	3.375321	2.455458
38.41248	0.09043685	0.2236534	0	0	0	0
38.42905	0.09043685	0.2235815	0	-0.004339778	0	-0.1309748
38.4459	0.09043685	0.2235815	0	0	0	0.1298387
38.46218	0.09043685	0.2235815	0	0	0	0
38.47875	0.09038464	0.2234737	-0.003151173	-0.006509217	-0.09594207	-0.1981826
38.49544	0.09038464	0.2234737	0	0	0.09475353	0.1957275
38.51188	0.09038464	0.2234737	0	0	0	0
38.52845	0.09270717	0.2208671	0.1401883	-0.1573347	4.246537	-4.765929
38.54502	0.09270717	0.2208671	0	0	-4.230892	4.748371
38.56158	0.09270717	0.2208671	0	0	0	0
38.58075	0.08905331	0.2063996	-0.1906145	-0.754738	-5.333951	-21.11977
38.59745	0.08905331	0.2063996	0	0	5.315227	21.04564
38.61394	0.08905331	0.2063996	0	0	0	0
38.63046	0.05153328	0.1704899	-2.270988	-2.173519	-68.78405	-65.83189
38.64702	0.05153328	0.1704899	0	0	68.64921	65.70284
38.66359	0.05153328	0.1704899	0	0	0	0
38.68016	0.02633601	0.1155811	-1.52091	-3.3143	-45.90116	-100.0258
38.69672	0.02633601	0.1155811	0	0	45.90116	100.0258
38.71329	0.02633601	0.1155811	0	0	0	0
38.72986	0.01739298	0.04448562	-0.5398024	-4.291335	-16.29127	-129.5127
38.74654	0.01739298	0.04448562	0	0	16.2352	129.067
38.76299	0.01739298	0.04448562	0	0	0	0
38.77956	0.02741418	-0.006112801	0.6048808	-3.054127	18.31861	-92.49319
38.79613	0.02741418	-0.006112801	0	0	-18.25534	92.17373
38.81269	0.02741418	-0.006112801	0	0	0	0
38.82926	0.04814697	-0.03142551	1.251434	-1.527878	37.76834	-46.11145
38.84587	0.04814697	-0.03142551	0	0	-37.72057	46.05312
38.8624	0.04814697	-0.03142551	0	0	0	0
38.87896	0.06758114	-0.04558222	1.173589	-0.8548946	35.46391	-25.83349
38.89553	0.06758114	-0.04558222	0	0	-35.42715	25.80671
38.9121	0.06758114	-0.04558222	0	0	0	0
38.92867	0.08727771	-0.06007556	1.188887	-0.8748199	35.88069	-26.40212
38.94543	0.08727771	-0.06007556	0	0	-35.66308	26.24199
38.9618	0.08727771	-0.06007556	0	0	0	0
38.97837	0.1080772	-0.07554957	1.255461	-0.9340131	38.1225	-28.36163
38.995	0.1080772	-0.07554957	0	0	-37.81588	28.13351
39.01151	0.1080772	-0.07554957	0	0	0	0
39.02807	0.1245105	-0.08787112	0.9921407	-0.7439013	30.00159	-22.49501
39.04464	0.1245105	-0.08787112	0	0	-29.94631	22.45357
39.06153	0.1245105	-0.08787112	0	0	0	0
39.07777	0.1296373	-0.09182901	0.3157075	-0.2437249	9.529168	-7.35648
39.09433	0.1296373	-0.09182901	0	0	-9.623352	7.42919
39.11732	0.1296373	-0.09182901	0	0	0	0
39.13654	0.1293009	-0.09208142	-0.01749752	-0.01312857	-0.4145386	-0.3110325
39.15358	0.1293009	-0.09208142	0	0	0.4825744	0.3620805
39.16968	0.1293009	-0.09208142	0	0	0	0
39.18624	0.1057358	-0.109772	-1.422393	-1.067805	-43.53944	-32.68552
39.20311	0.1057358	-0.109772	0	0	42.54585	31.93961
39.21938	0.1057358	-0.109772	0	0	0	0
39.23595	0.06742396	-0.1386161	-2.312505	-1.741032	-70.42394	-53.02057
39.25263	0.06742396	-0.1386161	0	0	69.54334	52.35758
39.26908	0.06742396	-0.1386161	0	0	0	0
39.28759	0.04000496	-0.1593737	-1.481089	-1.121263	-42.3632	-32.07117
39.30418	0.04000496	-0.1593737	0	0	42.19744	31.94569
39.32073	0.04000496	-0.1593737	0	0	0	0
39.3373	0.03038538	-0.1666476	-0.5806389	-0.4390524	-17.53381	-13.25826
39.35421	0.03038538	-0.1666476	0	0	17.34203	13.11325
39.37043	0.03038538	-0.1666476	0	0	0	0
39.387	0.03041167	-0.1666276	0.001586942	0.001207942	0.04840109	0.03684175
39.40356	0.03041167	-0.1666276	0	0	-0.04789401	-0.03645577
39.42013	0.03041167	-0.1666276	0	0	0	0
39.4367	0.03051684	-0.1665475	0.006347768	0.004832669	0.191576	0.1458502
39.45327	0.03051684	-0.1665475	0	0	-0.191576	-0.1458502
39.46983	0.03051684	-0.1665475	0	0	0	0
39.4864	0.030622	-0.1664274	0.006347768	0.007247654	0.191576	0.2187346
39.50297	0.030622	-0.1664274	0	0	-0.191576	-0.2187346
39.51954	0.030622	-0.1664274	0	0	0	0
39.5361	0.030622	-0.1664274	0	0	0	0
39.55286	0.030622	-0.1664274	0	0	0	0
39.56939	0.030622	-0.1664274	0	0	0	0
39.5858	0.030622	-0.1664274	0	0	0	0
39.60237	0.030622	-0.1664274	0	0	0	0
39.61893	0.030622	-0.1664274	0	0	0	0
39.6355	0.03064829	-0.1664474	0.001586942	-0.001207942	0.04789401	-0.03645577
39.65207	0.03064829	-0.1664474	0	0	-0.04789401	0.03645577
39.66864	0.03064829	-0.1664474	0	0	0	0
39.68543	0.03064829	-0.1664474	0	0	0	0
39.70177	0.03064829	-0.1664474	0	0	0	0
39.71834	0.03064829	-0.1664474	0	0	0	0
39.73645	0.030622	-0.1664675	-0.001451883	-0.001105139	-0.04187046	-0.03187079
39.75301	0.030622	-0.1664675	0	0	0.04187046	0.03187079
39.76997	0.030622	-0.1664675	0	0	0	0
39.78647	0.030622	-0.1664675	0	0	0	0
39.80347	0.030622	-0.1664675	0	0	0	0
39.81928	0.030622	-0.1664675	0	0	0	0
39.83585	0.030622	-0.1664675	0	0	0	0
39.85252	0.030622	-0.1664675	0	0	0	0
39.86898	0.030622	-0.1664675	0	0	0	0
39.88556	0.030622	-0.1664675	0	0	0	0
39.90211	0.030622	-0.1664675	0	0	0	0
39.91868	0.030622	-0.1664675	0	0	0	0
39.94061	0.03059571	-0.1664474	-0.001198833	0.0009125228	-0.03114019	0.02370317
39.95181	0.03059571	-0.1664474	0	0	0.03618501	-0.02754316
39.96931	0.03059571	-0.1664474	0	0	0	0
39.98494	0.03059571	-0.1664474	0	0	0	0
40.00151	0.03059571	-0.1664474	0	0	0	0
40.01836	0.03059571	-0.1664474	0	0	0	0
40.03464	0.03059571	-0.1664474	0	0	0	0
40.05141	0.03059571	-0.1664474	0	0	0	0
40.06788	0.03059571	-0.1664074	0	0.002430998	0	0.07313192
40.0849	0.03059571	-0.1664074	0	0	0	-0.07259045
40.10091	0.03059571	-0.1664074	0	0	0	0
