Time	Pos X	Pos Y	Vel X	Vel Y	Acc X	Acc Y
0.01654581	0.04759561	-0.1042064	-0.0007523006	0.001647096	1.189404E-05	-2.604095E-05
0.03353138	0.04759561	-0.1042064	0	0	-1.189413E-05	2.604115E-05
0.04967849	0.04759561	-0.1042064	0	0	0	0
0.06624483	0.04759561	-0.1042064	0	0	0	0
0.08281195	0.04759561	-0.1042064	0	0	0	0
0.09937869	0.04759561	-0.1042064	0	0	0	0
0.115945	0.04762186	-0.1042259	0.001584892	-0.001177425	0.04783412	-0.03553625
0.1325122	0.04762186	-0.1042259	0	0	-0.04783357	0.03553583
0.1490785	0.04762186	-0.1042259	0	0	0	0
0.1656452	0.04762186	-0.1042259	0	0	0	0
0.1822128	0.04762186	-0.1042259	0	0	0	0
0.1987791	0.04762186	-0.1042259	0	0	0	0
0.215345	0.04762186	-0.1042259	0	0	0	0
0.2319122	0.04762186	-0.1042259	0	0	0	0
0.2486865	0.04762186	-0.1042259	0	0	0	0
0.2650452	0.04762186	-0.1042259	0	0	0	0
0.2816128	0.04762186	-0.1042259	0	0	0	0
0.2981795	0.04762186	-0.1042259	0	0	0	0
0.314745	0.04762186	-0.1042259	0	0	0	0
0.3313126	0.04762186	-0.1042259	0	0	0	0
0.3478789	0.04762186	-0.1042259	0	0	0	0
0.3644452	0.04762186	-0.1042259	0	0	0	0
0.3810124	0.04762186	-0.1042259	0	0	0	0
0.3975787	0.04762186	-0.1042259	0	0	0	0
0.4141451	0.04762186	-0.1042259	0	0	0	0
0.4308049	0.04762186	-0.1042259	0	0	0	0
0.4475888	0.04762186	-0.1042259	0	0	0	0
0.4638453	0.04762186	-0.1042259	0	0	0	0
0.4806169	0.04762186	-0.1042259	0	0	0	0
0.4969791	0.04762186	-0.1042259	0	0	0	0
0.5136185	0.04762186	-0.1042259	0	0	0	0
0.5301133	0.04762186	-0.1042259	0	0	0	0
0.5471399	0.04762186	-0.1042259	0	0	0	0
0.5632452	0.04762186	-0.1042259	0	0	0	0
0.5798131	0.04762186	-0.1042259	0	0	0	0
0.5963795	0.04762186	-0.1042259	0	0	0	0
0.6129454	0.04762186	-0.1042259	0	0	0	0
0.6295125	0.04762186	-0.1042259	0	0	0	0
0.6460796	0.04762186	-0.1042259	0	0	0	0
0.6626452	0.04762186	-0.1042259	0	0	0	0
0.679238	0.04762186	-0.1042259	0	0	0	0
0.696261	0.04762186	-0.1042259	0	0	0	0
0.7123446	0.04764812	-0.1042454	0.001632467	-0.001213232	0.04930938	-0.03664621
0.7289121	0.04764812	-0.1042454	0	0	-0.04999736	0.03715751
0.7454792	0.04764812	-0.1042454	0	0	0	0
0.7620451	0.04764812	-0.1042454	0	0	0	0
0.7789095	0.04764812	-0.1042454	0	0	0	0
0.795179	0.04764812	-0.1042454	0	0	0	0
0.8119103	0.04770063	-0.1042844	0.003138749	-0.002331629	0.09511122	-0.07065367
0.8283132	0.04770063	-0.1042844	0	0	-0.09472831	0.07036922
0.8448792	0.04770063	-0.1042844	0	0	0	0
0.8614451	0.0477794	-0.104343	0.004754794	-0.003532814	0.1435113	-0.106629
0.8780138	0.0477794	-0.104343	0	0	-0.1434992	0.10662
0.8945797	0.0477794	-0.104343	0	0	0	0
0.9111456	0.04791068	-0.1044405	0.007924433	-0.005888173	0.2391788	-0.1777195
0.9277124	0.04791068	-0.1044405	0	0	-0.2391728	0.177715
0.9442791	0.04791068	-0.1044405	0	0	0	0
0.9610204	0.04796319	-0.1044795	0.003136671	-0.002330696	0.0941718	-0.06997413
0.9775227	0.04796319	-0.1044795	0	0	-0.09435415	0.07010963
0.9945415	0.04796319	-0.1044795	0	0	0	0
1.010546	0.04798944	-0.104499	0.00164048	-0.001219188	0.04967581	-0.03691855
1.027113	0.04798944	-0.104499	0	0	-0.05036514	0.03743085
1.044091	0.04798944	-0.104499	0	0	0	0
1.060245	0.0480157	-0.1045185	0.001625329	-0.001207467	0.04905695	-0.03644469
1.077084	0.0480157	-0.1045185	0	0	-0.04926238	0.03659731
1.093379	0.0480157	-0.1045185	0	0	0	0
1.110119	0.04804195	-0.104538	0.001568219	-0.00116565	0.04747173	-0.0352855
1.126616	0.04804195	-0.104538	0	0	-0.04718296	0.03507086
1.143172	0.04804195	-0.104538	0	0	0	0
1.160152	0.04804195	-0.1045771	0	-0.002297913	0	-0.06851894
1.176212	0.04804195	-0.1045771	0	0	0	0.06954959
1.193687	0.04804195	-0.1045771	0	0	0	0
1.209709	0.04804195	-0.1045771	0	0	0	0
1.225913	0.04804195	-0.1045771	0	0	0	0
1.242479	0.04804195	-0.1045771	0	0	0	0
1.264355	0.04806821	-0.1045966	0.00120022	-0.0008919911	0.03122138	-0.0232034
1.275746	0.04806821	-0.1045966	0	0	-0.03607799	0.02681278
1.292259	0.04806821	-0.1045966	0	0	0	0
1.308746	0.04806821	-0.1045966	0	0	0	0
1.325312	0.04806821	-0.1045966	0	0	0	0
1.342293	0.04806821	-0.1045966	0	0	0	0
1.358446	0.04806821	-0.1045966	0	0	0	0
1.375801	0.04806821	-0.1045966	0	0	0	0
1.391578	0.04809446	-0.1046161	0.001664198	-0.001236343	0.05022886	-0.03731531
1.408145	0.04809446	-0.1046161	0	0	-0.0514531	0.03822481
1.42485	0.04809446	-0.1046161	0	0	0	0
1.441279	0.04806821	-0.1046356	-0.001598111	-0.001187699	-0.04823194	-0.03584547
1.45786	0.04806821	-0.1046356	0	0	0.04841309	0.0359801
1.474412	0.04806821	-0.1046356	0	0	0	0
1.490979	0.04806821	-0.1046356	0	0	0	0
1.507545	0.04806821	-0.1046356	0	0	0	0
1.524112	0.04806821	-0.1046356	0	0	0	0
1.540678	0.04806821	-0.1046356	0	0	0	0
1.557429	0.04806821	-0.1046356	0	0	0	0
1.573927	0.04806821	-0.1046356	0	0	0	0
1.590948	0.04809446	-0.1046551	0.001542583	-0.001146432	0.04602144	-0.03420265
1.606951	0.04809446	-0.1046551	0	0	-0.04671086	0.03471503
1.623983	0.04809446	-0.1046551	0	0	0	0
1.640079	0.04809446	-0.1046551	0	0	0	0
1.656985	0.04809446	-0.1046551	0	0	0	0
1.673213	0.04809446	-0.1046551	0	0	0	0
1.689779	0.04809446	-0.1046551	0	0	0	0
1.706346	0.04809446	-0.1046551	0	0	0	0
1.723052	0.04809446	-0.1046551	0	0	0	0
1.739541	0.04809446	-0.1046551	0	0	0	0
1.756067	0.04809446	-0.1046551	0	0	0	0
1.772613	0.04809446	-0.1046551	0	0	0	0
1.789179	0.04809446	-0.1046551	0	0	0	0
1.805746	0.04809446	-0.1046551	0	0	0	0
1.822646	0.04809446	-0.1046551	0	0	0	0
1.83888	0.04809446	-0.1046551	0	0	0	0
1.855658	0.04809446	-0.1046551	0	0	0	0
1.872012	0.04809446	-0.1046551	0	0	0	0
1.888579	0.04809446	-0.1046551	0	0	0	0
1.905196	0.04809446	-0.1046551	0	0	0	0
1.921714	0.04809446	-0.1046551	0	0	0	0
1.93828	0.04809446	-0.1046551	0	0	0	0
1.954847	0.04809446	-0.1046551	0	0	0	0
1.971727	0.04809446	-0.1046551	0	0	0	0
1.989696	0.04809446	-0.1046551	0	0	0	0
2.006264	0.04809446	-0.1046551	0	0	0	0
2.02283	0.04809446	-0.1046551	0	0	0	0
2.039396	0.04809446	-0.1046551	0	0	0	0
2.056284	0.04809446	-0.1046551	0	0	0	0
2.07253	0.04809446	-0.1046551	0	0	0	0
2.09122	0.04809446	-0.1046551	0	0	0	0
2.107789	0.04809446	-0.1046551	0	0	0	0
2.124356	0.04809446	-0.1046551	0	0	0	0
2.140922	0.04809446	-0.1046551	0	0	0	0
2.15749	0.04809446	-0.1046551	0	0	0	0
2.174056	0.04809446	-0.1046551	0	0	0	0
2.190622	0.04809446	-0.1046551	0	0	0	0
2.207189	0.04809446	-0.1046551	0	0	0	0
2.224227	0.04809446	-0.1046551	0	0	0	0
2.240322	0.04809446	-0.1046551	0	0	0	0
2.256889	0.04809446	-0.1046551	0	0	0	0
2.273456	0.04809446	-0.1046551	0	0	0	0
2.290022	0.04809446	-0.1046551	0	0	0	0
2.306766	0.04809446	-0.1046551	0	0	0	0
2.323155	0.04809446	-0.1046551	0	0	0	0
2.339722	0.04809446	-0.1046551	0	0	0	0
2.360862	0.04809446	-0.1046551	0	0	0	0
2.372856	0.04809446	-0.1046551	0	0	0	0
2.389882	0.04809446	-0.1046551	0	0	0	0
2.405989	0.04809446	-0.1046551	0	0	0	0
2.422555	0.04809446	-0.1046551	0	0	0	0
2.439122	0.04809446	-0.1046551	0	0	0	0
2.455899	0.04809446	-0.1046551	0	0	0	0
2.472256	0.04809446	-0.1046551	0	0	0	0
2.488929	0.04809446	-0.1046551	0	0	0	0
2.505389	0.04809446	-0.1046551	0	0	0	0
2.521958	0.04809446	-0.1046551	0	0	0	0
2.538522	0.04809446	-0.1046551	0	0	0	0
2.55509	0.04809446	-0.1046551	0	0	0	0
2.571656	0.04809446	-0.1046551	0	0	0	0
2.588231	0.04809446	-0.1046941	0	-0.002354123	0	-0.07103376
2.604792	0.04809446	-0.1046941	0	0	0	0.0710445
2.621516	0.04809446	-0.1046941	0	0	0	0
2.639112	0.04599386	-0.1097329	-0.1193813	-0.2863625	-3.478464	-8.343867
2.65568	0.04599386	-0.1097329	0	0	3.494389	8.382066
2.672247	0.04599386	-0.1097329	0	0	0	0
2.688813	0.03075346	-0.1630477	-0.9199651	-3.218275	-27.7658	-97.13193
2.70538	0.03075346	-0.1630477	0	0	27.7658	97.13193
2.722111	0.03075346	-0.1630477	0	0	0	0
2.738512	0.0002894737	-0.2289679	-1.857414	-4.019209	-56.06009	-121.307
2.755138	0.0002894737	-0.2289679	0	0	56.23937	121.6949
2.771649	0.0002894737	-0.2289679	0	0	0	0
2.788213	-0.02523149	-0.2738888	-1.540759	-2.711972	-46.58432	-81.99557
2.80478	-0.02523149	-0.2738888	0	0	46.50454	81.85514
2.822199	-0.02523149	-0.2738888	0	0	0	0
2.837912	-0.01857681	-0.3123328	0.4235083	-2.446606	12.78233	-73.84349
2.8547	-0.01857681	-0.3123328	0	0	-13.03063	75.2779
2.871047	-0.01857681	-0.3123328	0	0	0	0
2.887613	0.003789456	-0.3400624	1.350108	-1.673858	41.02085	-50.85748
2.905085	0.003789456	-0.3400624	0	0	-39.66466	49.17607
2.920758	0.003789456	-0.3400624	0	0	0	0
2.937312	0.02504739	-0.3581392	1.284111	-1.091949	39.84518	-33.88251
2.953881	0.02504739	-0.3581392	0	0	-38.7671	32.96577
2.970447	0.02504739	-0.3581392	0	0	0	0
2.987293	0.04633523	-0.3766847	1.263713	-1.10092	37.82271	-32.95033
3.003807	0.04633523	-0.3766847	0	0	-37.8811	33.00119
3.020147	0.04633523	-0.3766847	0	0	0	0
3.036712	0.06257609	-0.3914015	0.9803987	-0.8883976	29.79495	-26.99897
3.053281	0.06257609	-0.3914015	0	0	-29.58892	26.81228
3.069848	0.06257609	-0.3914015	0	0	0	0
3.086412	0.05358025	-0.4245089	-0.5430837	-1.998712	-16.3916	-60.32602
3.102984	0.05358025	-0.4245089	0	0	16.38959	60.31864
3.119548	0.05358025	-0.4245089	0	0	0	0
3.136113	0.0243373	-0.4523372	-1.765337	-1.679937	-53.28716	-50.70937
3.152681	0.0243373	-0.4523372	0	0	53.2795	50.70207
3.169436	0.0243373	-0.4523372	0	0	0	0
3.189313	0.01465685	-0.4610161	-0.4870131	-0.4366281	-13.29464	-11.91921
3.205952	0.01465685	-0.4610161	0	0	13.33708	11.95727
3.222448	0.01465685	-0.4610161	0	0	0	0
3.239015	0.01468316	-0.4610398	0.001588066	-0.001428304	0.04803162	-0.04319956
3.255582	0.01468316	-0.4610398	0	0	-0.04792863	0.04310692
3.272148	0.01468316	-0.4610398	0	0	0	0
3.289016	0.01463053	-0.4610398	-0.00311949	0	-0.09330116	0
3.305281	0.01463053	-0.4610398	0	0	0.09415045	0
3.321848	0.01463053	-0.4610398	0	0	0	0
3.338414	0.01449898	-0.4609215	-0.007941016	0.007140236	-0.239669	0.2155005
3.354982	0.01449898	-0.4609215	0	0	0.2396672	-0.2154989
3.371548	0.01449898	-0.4609215	0	0	0	0
3.388114	0.01447267	-0.4608979	-0.001588226	0.001428448	-0.04793587	0.04311344
3.404681	0.01447267	-0.4608979	0	0	0.04793518	-0.04311282
3.421248	0.01447267	-0.4608979	0	0	0	0
3.437814	0.01442005	-0.4608506	-0.003176372	0.002854974	-0.09586724	0.086167
3.454383	0.01442005	-0.4608506	0	0	0.09586241	-0.08616266
3.470949	0.01442005	-0.4608506	0	0	0	0
3.487515	0.01436743	-0.4608032	-0.003176418	0.002856814	-0.09587137	0.08622502
3.504198	0.01436743	-0.4608032	0	0	0.09553246	-0.08592021
3.520649	0.01436743	-0.4608032	0	0	0	0
3.537215	0.0142885	-0.4607323	-0.004764586	0.004281561	-0.1443074	0.1296778
3.553783	0.0142885	-0.4607323	0	0	0.1437965	-0.1292187
3.570354	0.0142885	-0.4607323	0	0	0	0
3.586915	0.0142885	-0.4607323	0	0	0	0
3.603482	0.0142885	-0.4607323	0	0	0	0
3.620049	0.0142885	-0.4607323	0	0	0	0
3.636788	0.01431481	-0.4607559	0.001571881	-0.001411916	0.04719631	-0.04239331
3.653796	0.01431481	-0.4607559	0	0	-0.0465791	0.04183892
3.669808	0.01431481	-0.4607559	0	0	0	0
3.686317	0.01431481	-0.4607559	0	0	0	0
3.702882	0.01431481	-0.4607559	0	0	0	0
3.719451	0.01431481	-0.4607559	0	0	0	0
3.736302	0.01431481	-0.4607086	0	0.002806664	0	0.08398195
3.752584	0.01431481	-0.4607086	0	0	0	-0.08470894
3.769317	0.01431481	-0.4607086	0	0	0	0
3.785825	0.0142885	-0.460685	-0.001593857	0.001433461	-0.04794813	0.04312294
3.802282	0.0142885	-0.460685	0	0	0.04835111	-0.04348536
3.818848	0.0142885	-0.460685	0	0	0	0
3.835414	0.0142885	-0.460685	0	0	0	0
3.851981	0.0142885	-0.460685	0	0	0	0
3.868548	0.0142885	-0.460685	0	0	0	0
3.885114	0.0142885	-0.460685	0	0	0	0
3.901681	0.0142885	-0.460685	0	0	0	0
3.918248	0.0142885	-0.460685	0	0	0	0
3.934814	0.01426219	-0.4606614	-0.001588112	0.001426546	-0.04793139	0.04305511
3.951449	0.01426219	-0.4606614	0	0	0.04783261	-0.04296638
3.967953	0.01426219	-0.4606614	0	0	0	0
3.984515	0.01426219	-0.4606614	0	0	0	0
4.001081	0.01426219	-0.4606614	0	0	0	0
4.017648	0.01426219	-0.4606614	0	0	0	0
4.034215	0.01423588	-0.4606377	-0.001588077	0.001428263	-0.04792826	0.04310506
4.051013	0.01423588	-0.4606377	0	0	0.04759606	-0.04280629
4.067348	0.01423588	-0.4606377	0	0	0	0
4.083914	0.01384122	-0.460283	-0.02382236	0.02141079	-0.724066	0.6507678
4.100482	0.01384122	-0.460283	0	0	0.7189602	-0.6461788
4.117052	0.01384122	-0.460283	0	0	0	0
4.133615	-0.002763151	-0.4453944	-1.002444	0.8988578	-30.25468	27.12836
4.150181	-0.002763151	-0.4453944	0	0	30.2586	-27.13188
4.166748	-0.002763151	-0.4453944	0	0	0	0
4.183604	-0.03553766	-0.4164338	-1.944305	1.718047	-58.17193	51.40249
4.200117	-0.03553766	-0.4164338	0	0	58.26587	-51.48549
4.216448	-0.03553766	-0.4164338	0	0	0	0
4.233159	-0.07588034	-0.3810966	-2.414105	2.114578	-73.06181	63.99676
4.249582	-0.07588034	-0.3810966	0	0	72.85889	-63.81901
4.266148	-0.07588034	-0.3810966	0	0	0	0
4.282714	-0.1341629	-0.3299215	-3.518043	3.089027	-106.1809	93.23238
4.299281	-0.1341629	-0.3299215	0	0	106.1793	-93.23104
4.315848	-0.1341629	-0.3299215	0	0	0	0
4.332414	-0.1784243	-0.2858998	-2.671777	2.657304	-80.63671	80.19991
4.348982	-0.1784243	-0.2858998	0	0	80.63555	-80.19875
4.365548	-0.1784243	-0.2858998	0	0	0	0
4.382162	-0.1691318	-0.2403306	0.5593187	2.742828	16.85723	82.66571
4.39917	-0.1691318	-0.2403306	0	0	-16.63536	-81.57774
4.415247	-0.1691318	-0.2403306	0	0	0	0
4.431814	-0.1244068	-0.1942974	2.699682	2.778651	82.70003	85.11911
4.448381	-0.1244068	-0.1942974	0	0	-81.47892	-83.86228
4.464947	-0.1244068	-0.1942974	0	0	0	0
4.481748	-0.09296807	-0.1698923	1.871256	1.452607	56.08077	43.53404
4.498238	-0.09296807	-0.1698923	0	0	-56.20929	-43.6338
4.515274	-0.09296807	-0.1698923	0	0	0	0
4.534627	-0.0678169	-0.1402186	1.299542	1.533219	35.71216	42.13372
4.551195	-0.0678169	-0.1402186	0	0	-36.17721	-42.68239
4.567762	-0.0678169	-0.1402186	0	0	0	0
4.584328	-0.05523324	-0.08843341	0.759595	3.12594	22.92561	94.34512
4.600895	-0.05523324	-0.08843341	0	0	-22.92561	-94.34512
4.617463	-0.05523324	-0.08843341	0	0	0	0
4.634028	-0.03367148	-0.04951913	1.301583	2.349073	39.28297	70.89722
4.650945	-0.03367148	-0.04951913	0	0	-38.87346	-70.15813
4.667439	-0.03367148	-0.04951913	0	0	0	0
4.683969	-0.0242847	-0.04300504	0.5678621	0.3940758	17.19577	11.93324
4.700295	-0.0242847	-0.04300504	0	0	-17.28312	-11.99386
4.716973	-0.0242847	-0.04300504	0	0	0	0
4.733428	-0.02399539	-0.04344396	0.01758186	-0.02667429	0.5306445	-0.8050666
4.749997	-0.02399539	-0.04344396	0	0	-0.5323992	0.8077286
4.766562	-0.02399539	-0.04344396	0	0	0	0
4.783128	-0.02349568	-0.04418836	0.0301665	-0.04493717	0.9105318	-1.356363
4.799695	-0.02349568	-0.04418836	0	0	-0.9104924	1.356304
4.816261	-0.02349568	-0.04418836	0	0	0	0
4.832827	-0.02362718	-0.04439835	-0.007938091	-0.01267581	-0.2395858	-0.3825786
4.849441	-0.02362718	-0.04439835	0	0	0.2392415	0.3820288
4.866467	-0.02362718	-0.04439835	0	0	0	0
4.882527	-0.02370608	-0.04445562	-0.004913084	-0.003566193	-0.148493	-0.1077846
4.899478	-0.02370608	-0.04445562	0	0	0.1488319	0.1080306
4.916496	-0.02370608	-0.04445562	0	0	0	0
4.932227	-0.02370608	-0.04445562	0	0	0	0
4.948888	-0.02370608	-0.04445562	0	0	0	0
4.965417	-0.02370608	-0.04445562	0	0	0	0
4.981929	-0.02370608	-0.04445562	0	0	0	0
4.998496	-0.02370608	-0.04445562	0	0	0	0
5.015063	-0.02370608	-0.04445562	0	0	0	0
5.031629	-0.02375869	-0.04453199	-0.003175304	-0.00460965	-0.09583499	-0.1391255
5.048194	-0.02375869	-0.04453199	0	0	0.09583914	0.1391315
5.064988	-0.02375869	-0.04453199	0	0	0	0
5.088995	-0.02378499	-0.04462745	-0.001095544	-0.00397639	-0.02685119	-0.09745917
5.097895	-0.02378499	-0.04462745	0	0	0.03329211	0.1208372
5.114461	-0.02381129	-0.04468473	-0.001587641	-0.00345773	-0.06234366	-0.1357785
5.131028	-0.02381129	-0.04468473	0	0	0.04791787	0.1043605
5.147595	-0.02381129	-0.04468473	0	0	0	0
5.164161	-0.02383759	-0.04481838	-0.001587641	-0.008067962	-0.04791718	-0.2435021
5.181075	-0.02383759	-0.04481838	0	0	0.04742103	0.2409808
5.197575	-0.02383759	-0.04481838	0	0	0	0
5.213861	-0.02396909	-0.04518118	-0.00807499	-0.02227751	-0.2462947	-0.6794845
5.23059	-0.02396909	-0.04518118	0	0	0.2445872	0.6747739
5.246995	-0.02396909	-0.04518118	0	0	0	0
5.263562	-0.02394279	-0.04592601	0.00158755	-0.0449596	0.04814864	-1.363575
5.280128	-0.02394279	-0.04592601	0	0	-0.04791442	1.356942
5.296695	-0.02394279	-0.04592601	0	0	0	0
5.313261	-0.02173342	-0.04844838	0.1333695	-0.1522636	4.025332	-4.595589
5.329827	-0.02173342	-0.04844838	0	0	-4.025332	4.595589
5.346668	-0.02173342	-0.04844838	0	0	0	0
5.36296	-0.02170712	-0.04877339	0.001614542	-0.01994889	0.04872908	-0.6020847
5.380196	-0.02170712	-0.04877339	0	0	-0.04815594	0.5950031
5.396095	-0.02170712	-0.04877339	0	0	0	0
5.412661	-0.02189124	-0.04890723	-0.01111473	-0.008079206	-0.3423605	-0.2488591
5.429228	-0.02189124	-0.04890723	0	0	0.3354576	0.2438414
5.44623	-0.02189124	-0.04890723	0	0	0	0
5.46236	-0.02278553	-0.04955738	-0.05544272	-0.04030712	-1.673361	-1.216541
5.478928	-0.02278553	-0.04955738	0	0	1.695616	1.232721
5.495494	-0.02278553	-0.04955738	0	0	0	0
5.51206	-0.02354828	-0.05011204	-0.04604351	-0.03348192	-1.389696	-1.010559
5.528627	-0.02354828	-0.05011204	0	0	1.389656	1.01053
5.545319	-0.02354828	-0.05011204	0	0	0	0
5.561761	-0.02354828	-0.05011204	0	0	0	0
5.578331	-0.02354828	-0.05011204	0	0	0	0
5.594894	-0.02354828	-0.05011204	0	0	0	0
5.61146	-0.02354828	-0.05011204	0	0	0	0
5.628027	-0.02354828	-0.05011204	0	0	0	0
5.644916	-0.02354828	-0.05011204	0	0	0	0
5.661424	-0.02354828	-0.05011204	0	0	0	0
5.677728	-0.02354828	-0.05011204	0	0	0	0
5.694461	-0.02354828	-0.05011204	0	0	0	0
5.71086	-0.02354828	-0.05011204	0	0	0	0
5.72747	-0.02354828	-0.05011204	0	0	0	0
5.743995	-0.02354828	-0.05011204	0	0	0	0
5.760561	-0.02354828	-0.05011204	0	0	0	0
5.777128	-0.02354828	-0.05011204	0	0	0	0
5.794038	-0.02354828	-0.05011204	0	0	0	0
5.810261	-0.02354828	-0.05011204	0	0	0	0
5.827064	-0.02354828	-0.05011204	0	0	0	0
5.843395	-0.02354828	-0.05011204	0	0	0	0
5.859962	-0.02354828	-0.05011204	0	0	0	0
5.876599	-0.02354828	-0.05011204	0	0	0	0
5.893244	-0.02354828	-0.05011204	0	0	0	0
5.909744	-0.02349568	-0.05015029	0.003187946	-0.002318486	0.09618195	-0.06994989
5.926276	-0.02349568	-0.05015029	0	0	-0.09651241	0.07019022
5.943266	-0.02349568	-0.05015029	0	0	0	0
5.959361	-0.02320636	-0.05036071	0.01797542	-0.01307322	0.5433044	-0.3951362
5.975929	-0.02320636	-0.05036071	0	0	-0.5503318	0.4002471
5.992495	-0.02320636	-0.05036071	0	0	0	0
6.00906	-0.01168368	-0.05878987	0.6955904	-0.508844	20.99477	-15.35827
6.025628	-0.01168368	-0.05878987	0	0	-20.99417	15.35783
6.042338	-0.01168368	-0.05878987	0	0	0	0
6.058879	0.01841897	-0.08086209	1.819828	-1.334356	54.72876	-40.12887
6.075328	0.01841897	-0.08086209	0	0	-55.16305	40.4473
6.091895	0.01841897	-0.08086209	0	0	0	0
6.108885	0.05840718	-0.1104954	2.35354	-1.744095	70.13473	-51.97347
6.125029	0.05840718	-0.1104954	0	0	-71.03101	52.63766
6.141594	0.05840718	-0.1104954	0	0	0	0
6.158433	0.09750561	-0.1400998	2.321828	-1.758034	69.50576	-52.62813
6.174727	0.09750561	-0.1400998	0	0	-70.07593	53.05985
6.191429	0.09750561	-0.1400998	0	0	0	0
6.20786	0.1181576	-0.1560641	1.256828	-0.9715449	37.93224	-29.32213
6.224452	0.1181576	-0.1560641	0	0	-38.05931	29.42036
6.241004	0.1181576	-0.1560641	0	0	0	0
6.257561	0.1207258	-0.1580373	0.1551191	-0.1191806	4.685078	-3.599622
6.274127	0.1207258	-0.1580373	0	0	-4.683055	3.598067
6.290694	0.1207258	-0.1580373	0	0	0	0
6.30726	0.1206999	-0.1580174	-0.001565558	0.001203515	-0.04725136	0.03632423
6.323827	0.1206999	-0.1580174	0	0	0.04725068	-0.03632371
6.340394	0.1206999	-0.1580174	0	0	0	0
6.357564	0.1206999	-0.1580174	0	0	0	0
6.373569	0.1206999	-0.1580174	0	0	0	0
6.390094	0.1206999	-0.1580174	0	0	0	0
6.40666	0.120674	-0.1579576	-0.001565109	0.003610543	-0.04729633	0.1091077
6.423603	0.120674	-0.1579576	0	0	0.04670742	-0.1077492
6.444657	0.120674	-0.1579576	0	0	0	0
6.456744	0.120674	-0.1579576	0	0	0	0
6.473612	0.120674	-0.1579576	0	0	0	0
6.489879	0.120674	-0.1579576	0	0	0	0
6.506642	0.120648	-0.1579376	-0.00154721	0.001189409	-0.0468432	0.03601046
6.523012	0.120648	-0.1579376	0	0	0.04669758	-0.03589851
6.539646	0.120648	-0.1579376	0	0	0	0
6.556167	0.120648	-0.1579376	0	0	0	0
6.572712	0.120648	-0.1579376	0	0	0	0
6.589706	0.120648	-0.1579376	0	0	0	0
6.605845	0.120648	-0.1579376	0	0	0	0
6.622413	0.120648	-0.1579376	0	0	0	0
6.639243	0.120648	-0.1579376	0	0	0	0
6.655545	0.120648	-0.1579376	0	0	0	0
6.672257	0.120648	-0.1579376	0	0	0	0
6.688788	0.120648	-0.1579376	0	0	0	0
6.705271	0.120648	-0.1579376	0	0	0	0
6.721812	0.120648	-0.1579376	0	0	0	0
6.738809	0.120648	-0.1579376	0	0	0	0
6.754945	0.120648	-0.1579376	0	0	0	0
6.771811	0.120648	-0.1579376	0	0	0	0
6.788078	0.120648	-0.1579376	0	0	0	0
6.804645	0.120648	-0.1579376	0	0	0	0
6.821357	0.120648	-0.1579376	0	0	0	0
6.837872	0.120648	-0.1579376	0	0	0	0
6.854392	0.1206221	-0.1579177	-0.001569987	0.001207821	-0.04752524	0.03656208
6.870914	0.1206221	-0.1579177	0	0	0.04751563	-0.03655469
6.887479	0.1206221	-0.1579177	0	0	0	0
6.904045	0.1206221	-0.1579177	0	0	0	0
6.920937	0.1206221	-0.1579177	0	0	0	0
6.937179	0.1206221	-0.1579177	0	0	0	0
6.953956	0.1205962	-0.1578977	-0.001545935	0.001188429	-0.04682014	0.03599273
6.970313	0.1205962	-0.1578977	0	0	0.04665708	-0.03586738
6.986983	0.1205962	-0.1578977	0	0	0	0
7.005031	0.1205962	-0.1578977	0	0	0	0
7.021965	0.1205962	-0.1578977	0	0	0	0
7.038478	0.1205962	-0.1578977	0	0	0	0
7.054732	0.1205702	-0.1578778	-0.001595641	0.001226641	-0.04869686	0.03743545
7.071999	0.1205702	-0.1578778	0	0	0.04760099	-0.03659301
7.087865	0.1205702	-0.1578778	0	0	0	0
7.104432	0.1205443	-0.1578579	-0.001565558	0.001203515	-0.04827119	0.03710822
7.120998	0.1205443	-0.1578579	0	0	0.04725068	-0.03632371
7.137565	0.1205443	-0.1578579	0	0	0	0
7.154132	0.1205702	-0.1578778	0.001565468	-0.001203445	0.0472466	-0.03632057
7.171082	0.1205702	-0.1578778	0	0	-0.04670752	0.03590615
7.187265	0.1205702	-0.1578778	0	0	0	0
7.203831	0.1205702	-0.1578778	0	0	0	0
7.220398	0.1205702	-0.1578778	0	0	0	0
7.237115	0.1205702	-0.1578778	0	0	0	0
7.253532	0.1205702	-0.1578778	0	0	0	0
7.270105	0.1205702	-0.1578778	0	0	0	0
7.286666	0.1205702	-0.1578778	0	0	0	0
7.303231	0.1205702	-0.1578778	0	0	0	0
7.319799	0.1205702	-0.1578778	0	0	0	0
7.337156	0.1205702	-0.1578778	0	0	0	0
7.352931	0.1205702	-0.1578778	0	0	0	0
7.36967	0.1205702	-0.1578778	0	0	0	0
7.386097	0.1205702	-0.1578778	0	0	0	0
7.402631	0.1205702	-0.1578778	0	0	0	0
7.419211	0.1205702	-0.1578778	0	0	0	0
7.435766	0.1205702	-0.1578778	0	0	0	0
7.452332	0.1205702	-0.1578778	0	0	0	0
7.4689	0.1205702	-0.1578778	0	0	0	0
7.485469	0.1205702	-0.1578778	0	0	0	0
7.50203	0.1205702	-0.1578778	0	0	0	0
7.518602	0.1205702	-0.1578778	0	0	0	0
7.535289	0.1205702	-0.1578778	0	0	0	0
7.5538	0.1205702	-0.1578778	0	0	0	0
7.570958	0.1205702	-0.1578778	0	0	0	0
7.58697	0.1205702	-0.1578778	0	0	0	0
7.603501	0.1205702	-0.1578778	0	0	0	0
7.620069	0.1205702	-0.1578778	0	0	0	0
7.637003	0.1205702	-0.1578778	0	0	0	0
7.653502	0.1205702	-0.1578778	0	0	0	0
7.669769	0.1205702	-0.1578778	0	0	0	0
7.686334	0.1205702	-0.1578778	0	0	0	0
7.703494	0.1205702	-0.1578778	0	0	0	0
7.719468	0.1205702	-0.1578778	0	0	0	0
7.736037	0.1205702	-0.1578778	0	0	0	0
7.752601	0.1205702	-0.1578778	0	0	0	0
7.769169	0.1205702	-0.1578778	0	0	0	0
7.786084	0.1205702	-0.1578778	0	0	0	0
7.802301	0.1205702	-0.1578778	0	0	0	0
7.81911	0.1205702	-0.1578778	0	0	0	0
7.835435	0.1205702	-0.1578778	0	0	0	0
7.852001	0.1205702	-0.1578778	0	0	0	0
7.868648	0.1205702	-0.1578778	0	0	0	0
7.885135	0.1205702	-0.1578778	0	0	0	0
7.9017	0.1205702	-0.1578778	0	0	0	0
7.918691	0.1205702	-0.1578778	0	0	0	0
7.934834	0.1205702	-0.1578778	0	0	0	0
7.9514	0.1205702	-0.1578778	0	0	0	0
7.967968	0.1205702	-0.1578778	0	0	0	0
7.984536	0.1205702	-0.1578778	0	0	0	0
8.0011	0.1205702	-0.1578778	0	0	0	0
8.017742	0.1205702	-0.1578778	0	0	0	0
8.034234	0.1205702	-0.1578778	0	0	0	0
8.050799	0.1205702	-0.1578778	0	0	0	0
8.067366	0.1205702	-0.1578778	0	0	0	0
8.083932	0.1205702	-0.1578778	0	0	0	0
8.104038	0.1205702	-0.1578778	0	0	0	0
8.120782	0.1205702	-0.1578778	0	0	0	0
8.137172	0.1205702	-0.1578778	0	0	0	0
8.153739	0.1205702	-0.1578778	0	0	0	0
8.170305	0.1205702	-0.1578778	0	0	0	0
8.186872	0.1205702	-0.1578778	0	0	0	0
8.203439	0.1205702	-0.1578778	0	0	0	0
8.220005	0.1205702	-0.1578778	0	0	0	0
8.236571	0.1205702	-0.1578778	0	0	0	0
8.253379	0.1205702	-0.1578778	0	0	0	0
8.269706	0.1205702	-0.1578778	0	0	0	0
8.286272	0.1205184	-0.1578379	-0.003131117	0.002407029	-0.09519044	0.07317714
8.302839	0.1205184	-0.1578379	0	0	0.09450001	-0.07264637
8.319438	0.1205184	-0.1578379	0	0	0	0
8.335972	0.1200515	-0.1574791	-0.02823666	0.02170484	-0.8522333	0.6550912
8.35297	0.1200515	-0.1574791	0	0	0.8420776	-0.6472847
8.369105	0.1200515	-0.1574791	0	0	0	0
8.385674	0.1072448	-0.147592	-0.7729671	0.5967476	-23.63568	18.24727
8.402241	0.1072448	-0.147592	0	0	23.32752	-18.00936
8.418807	0.1072448	-0.147592	0	0	0	0
8.435371	0.05956105	-0.1116299	-2.878696	2.171056	-86.88923	65.53013
8.452029	0.05956105	-0.1116299	0	0	86.64978	-65.34955
8.468508	0.05956105	-0.1116299	0	0	0	0
8.485072	0.01031542	-0.07522149	-2.972985	2.197994	-89.97347	66.51938
8.50164	0.01031542	-0.07522149	0	0	89.73004	-66.3394
8.518211	0.01031542	-0.07522149	0	0	0	0
8.535076	-0.00557889	-0.06255263	-0.9424561	0.7512025	-28.18702	22.467
8.55134	-0.00557889	-0.06255263	0	0	28.4483	-22.67525
8.568119	-0.00557889	-0.06255263	0	0	0	0
8.584609	0.01663005	-0.04619344	1.346814	0.9920686	40.48263	29.81968
8.601041	0.01663005	-0.04619344	0	0	-40.90949	-30.1341
8.617608	0.01663005	-0.04619344	0	0	0	0
8.634172	0.06611403	-0.009697772	2.987375	2.203263	90.16694	66.50035
8.650741	0.06611403	-0.009697772	0	0	-90.16434	-66.49844
8.66731	0.06611403	-0.009697772	0	0	0	0
8.683873	0.0656948	0.01797626	-0.02531056	1.670792	-0.7639181	50.42752
8.700439	0.0656948	0.01797626	0	0	0.7639841	-50.43187
8.717006	0.0656948	0.01797626	0	0	0	0
8.733729	0.04966964	0.02936107	-0.9582345	0.680762	-28.78453	20.4495
8.750138	0.04966964	0.02936107	0	0	28.92124	-20.54662
8.766705	0.04966964	0.02936107	0	0	0	0
8.783271	0.04959089	0.02937974	-0.004753792	0.001126608	-0.143478	0.03400306
8.799837	0.04959089	0.02937974	0	0	0.143478	-0.03400306
8.816404	0.04959089	0.02937974	0	0	0	0
8.832971	0.04940713	0.02917442	-0.01109226	-0.01239359	-0.3347746	-0.3740501
8.849538	0.04940713	0.02917442	0	0	0.3347746	0.3740501
8.866104	0.04940713	0.02917442	0	0	0	0
8.88267	0.04447066	0.02570095	-0.2979829	-0.2096709	-8.99366	-6.328245
8.899341	0.04447066	0.02570095	0	0	8.965532	6.308453
8.915807	0.04447066	0.02570095	0	0	0	0
8.932371	0.0444444	0.02557017	-0.00158553	-0.007895712	-0.04800197	-0.239043
8.948937	0.0444444	0.02557017	0	0	0.04785689	0.2383205
8.965505	0.0444444	0.02557017	0	0	0	0
8.982071	0.04441813	0.02555148	-0.001585347	-0.001127845	-0.04784724	-0.03403941
8.998638	0.04441813	0.02555148	0	0	0.04784724	0.03403941
9.015204	0.04441813	0.02555148	0	0	0	0
9.031772	0.04386658	0.02512172	-0.03329194	-0.02594074	-1.004782	-0.7829157
9.048622	0.04386658	0.02512172	0	0	0.9962368	0.7762575
9.064904	0.04386658	0.02512172	0	0	0	0
9.082175	0.04363019	0.02487878	-0.01368697	-0.01406595	-0.4079195	-0.4192144
9.09816	0.04363019	0.02487878	0	0	0.4115693	0.4229652
9.114666	0.04363019	0.02487878	0	0	0	0
9.131177	0.04360392	0.02489747	-0.001590884	0.001131736	-0.04818355	0.03427722
9.147738	0.04360392	0.02489747	0	0	0.04810296	-0.03421989
9.164305	0.04360392	0.02489747	0	0	0	0
9.180871	0.04363019	0.02487878	0.001585572	-0.001127957	0.04785541	-0.03404379
9.197729	0.04363019	0.02487878	0	0	-0.04743759	0.03374655
9.214005	0.04363019	0.02487878	0	0	0	0
9.230572	0.04363019	0.02487878	0	0	0	0
9.247138	0.04363019	0.02487878	0	0	0	0
9.263781	0.04363019	0.02487878	0	0	0	0
9.280271	0.04373525	0.02480403	0.00637118	-0.004533269	0.1922936	-0.1368222
9.296838	0.04373525	0.02480403	0	0	-0.1927319	0.137134
9.313404	0.04373525	0.02480403	0	0	0	0
9.330317	0.04462824	0.0243181	0.0528009	-0.02873188	1.577147	-0.8582129
9.347349	0.04462824	0.0243181	0	0	-1.55548	0.8464226
9.363104	0.04462824	0.0243181	0	0	0	0
9.37987	0.05523324	0.01679643	0.632509	-0.448612	19.4491	-13.79443
9.396237	0.05523324	0.01679643	0	0	-19.08971	13.53953
9.412888	0.05523324	0.01679643	0	0	0	0
9.429386	0.07933315	-0.0004791013	1.460728	-1.047093	44.06583	-31.58769
9.445937	0.07933315	-0.0004791013	0	0	-44.19807	31.68248
9.462505	0.07933315	-0.0004791013	0	0	0	0
9.47907	0.08064053	-0.001495849	0.07892743	-0.06138163	2.382172	-1.852608
9.495637	0.08064053	-0.001495849	0	0	-2.38224	1.852661
9.512203	0.08064053	-0.001495849	0	0	0	0
9.528769	0.08019605	-0.001401693	-0.02683037	0.005683617	-0.8097887	0.1715418
9.545337	0.08019605	-0.001401693	0	0	0.8097654	-0.1715368
9.562201	0.08019605	-0.001401693	0	0	0	0
9.5787	0.0562826	-0.01863977	-1.449426	-1.044823	-43.44367	-31.31649
9.595036	0.0562826	-0.01863977	0	0	44.14399	31.82132
9.611603	0.0562826	-0.01863977	0	0	0	0
9.628727	-0.01515673	-0.06855262	-4.171841	-2.914759	-123.8251	-86.51343
9.644736	-0.01515673	-0.06855262	0	0	125.91	87.97014
9.661303	-0.01515673	-0.06855262	0	0	0	0
9.677869	-0.09007142	-0.08298999	-4.52212	-0.8714916	-136.4857	-26.30318
9.694439	-0.09007142	-0.08298999	0	0	136.47	26.30015
9.711002	-0.09007142	-0.08298999	0	0	0	0
9.727568	-0.1302065	-0.08496463	-2.422838	-0.1192029	-73.13403	-3.598173
9.744135	-0.1302065	-0.08496463	0	0	73.1256	3.597758
9.760773	-0.1302065	-0.08496463	0	0	0	0
9.777268	-0.1769712	-0.1023344	-2.834959	-1.052986	-85.56169	-31.78008
9.793836	-0.1769712	-0.1023344	0	0	85.74432	31.84792
9.810402	-0.1769712	-0.1023344	0	0	0	0
9.826968	-0.2561913	-0.1160551	-4.78201	-0.8282343	-144.3297	-24.9976
9.843535	-0.2561913	-0.1160551	0	0	144.3255	24.99688
9.860333	-0.2561913	-0.1160551	0	0	0	0
9.876669	-0.2778095	-0.1189376	-1.323393	-0.1764574	-39.94124	-5.325649
9.893371	-0.2778095	-0.1189376	0	0	40.05769	5.341176
9.909855	-0.2778095	-0.1189376	0	0	0	0
9.926369	-0.2848528	-0.1179176	-0.4265077	0.0617691	-12.92522	1.8719
9.94339	-0.2848528	-0.1179176	0	0	12.71828	-1.841929
9.959502	-0.2848528	-0.1179176	0	0	0	0
9.976068	-0.292953	-0.1112778	-0.4889561	0.4008049	-14.96258	12.26506
9.992635	-0.292953	-0.1112778	0	0	14.75757	-12.09701
10.00972	-0.292953	-0.1112778	0	0	0	0
10.02577	-0.2913361	-0.1100848	0.100739	0.07432505	3.040397	2.243199
10.04244	-0.2913361	-0.1100848	0	0	-3.078408	-2.271244
10.0589	-0.2913361	-0.1100848	0	0	0	0
10.07547	-0.2895243	-0.1091269	0.109375	0.05782374	3.31181	1.750869
10.09204	-0.2895243	-0.1091269	0	0	-3.301134	-1.745224
10.1086	-0.2895243	-0.1091269	0	0	0	0
10.12517	-0.287057	-0.1109648	0.1489403	-0.1109456	4.495158	-3.348441
10.14174	-0.287057	-0.1109648	0	0	-4.495417	3.348634
10.15904	-0.287057	-0.1109648	0	0	0	0
10.17487	-0.285822	-0.1109452	0.07800546	0.001235336	2.354277	0.03728358
10.19144	-0.285822	-0.1109452	0	0	-2.407637	-0.03812862
10.208	-0.285822	-0.1109452	0	0	0	0
10.22457	-0.2777365	-0.1166823	0.488071	-0.3463117	14.73044	-10.45201
10.24114	-0.2777365	-0.1166823	0	0	-14.73086	10.45231
10.2577	-0.2777365	-0.1166823	0	0	0	0
10.27427	-0.2761051	-0.1178784	0.09847591	-0.07219782	2.97218	-2.17906
10.29083	-0.2761051	-0.1178784	0	0	-2.97218	2.17906
10.3074	-0.2761051	-0.1178784	0	0	0	0
10.32397	-0.2738382	-0.1160943	0.1368409	0.1076925	4.130103	3.250354
10.34064	-0.2738382	-0.1160943	0	0	-4.116359	-3.239537
10.35714	-0.2738382	-0.1160943	0	0	0	0
10.37367	-0.2710799	-0.1139199	0.1668866	0.1315607	5.053813	3.98404
10.39023	-0.2710799	-0.1139199	0	0	-5.042454	-3.975086
10.4068	-0.2710799	-0.1139199	0	0	0	0
10.42337	-0.2699069	-0.114429	0.07080587	-0.03073504	2.137048	-0.9276389
10.44021	-0.2699069	-0.114429	0	0	-2.119297	0.9199335
10.4565	-0.2699069	-0.114429	0	0	0	0
10.47323	-0.2450034	-0.09445143	1.488353	1.19396	45.07036	36.15554
10.48975	-0.2450034	-0.09445143	0	0	-44.7704	-35.91491
10.50624	-0.2450034	-0.09445143	0	0	0	0
10.52278	-0.2033095	-0.06101621	2.521293	2.021878	76.31902	61.20184
10.53933	-0.2033095	-0.06101621	0	0	-76.19585	-61.10306
10.55596	-0.2033095	-0.06101621	0	0	0	0
10.57247	-0.1979016	-0.009622257	0.3275564	3.112897	9.886241	93.95282
10.58903	-0.1979016	-0.009622257	0	0	-9.902773	-94.10993
10.6056	-0.1979016	-0.009622257	0	0	0	0
10.62217	-0.1499193	0.05708665	2.896385	4.02679	87.41812	121.5358
10.639	-0.1499193	0.05708665	0	0	-86.72169	-120.5675
10.6553	-0.1499193	0.05708665	0	0	0	0
10.67202	-5.263158E-05	0.1226878	8.961879	3.922885	271.3683	118.7861
10.68843	-5.263158E-05	0.1226878	0	0	-270.4856	-118.3997
10.705	-5.263158E-05	0.1226878	0	0	0	0
10.72157	0.1762571	0.11538	10.64269	-0.4411227	321.2154	-13.31388
10.73813	0.1762571	0.11538	0	0	-321.1969	13.31311
10.7547	0.1762571	0.11538	0	0	0	0
10.7716	0.3189849	0.08485836	8.445401	-1.80601	252.3551	-53.96496
10.78783	0.3189849	0.08485836	0	0	-254.89	54.50705
10.8044	0.3189849	0.08485836	0	0	0	0
10.82607	0.3713534	0.07494535	2.417346	-0.457587	63.23018	-11.96904
10.83753	0.3713534	0.07494535	0	0	-72.95776	13.8104
10.8541	0.3852161	0.06371425	0.8368024	-0.6779492	29.8473	-24.18128
10.87067	0.3852161	0.06371425	0	0	-25.25547	20.46114
10.88723	0.3852161	0.06371425	0	0	0	0
10.9038	0.3983883	0.05271155	0.7951201	-0.6641628	23.99815	-20.04563
10.9207	0.3983883	0.05271155	0	0	-23.76083	19.84739
10.93693	0.3983883	0.05271155	0	0	0	0
10.9535	0.397449	0.05245185	-0.0567001	-0.01567605	-1.728526	-0.4778906
10.97024	0.397449	0.05245185	0	0	1.702588	0.4707195
10.98664	0.397449	0.05245185	0	0	0	0
11.00373	0.3971805	0.05222924	-0.01570869	-0.01302287	-0.4690268	-0.3888341
11.02025	0.3971805	0.05222924	0	0	0.4673102	0.3874111
11.03633	0.3971805	0.05222924	0	0	0	0
11.05328	0.3968	0.05206228	-0.02245181	-0.009852235	-0.67971	-0.2982682
11.06979	0.3968	0.05206228	0	0	0.6712027	0.2945351
11.08604	0.3968	0.05206228	0	0	0	0
11.10424	0.3967329	0.05208083	-0.003689088	0.001019289	-0.1070807	0.02958621
11.12115	0.3967329	0.05208083	0	0	0.1050737	-0.02903169
11.13737	0.3967329	0.05208083	0	0	0	0
11.15394	0.3965761	0.05202518	-0.009460812	-0.003359586	-0.2885005	-0.1024481
11.17051	0.3965761	0.05202518	0	0	0.2855361	0.1013954
11.1872	0.3965761	0.05202518	0	0	0	0
11.2037	0.3961283	0.05172833	-0.02714282	-0.01799015	-0.8176422	-0.54193
11.22021	0.3961283	0.05172833	0	0	0.8222721	0.5449988
11.23677	0.3961283	0.05172833	0	0	0	0
11.25374	0.3948733	0.05068919	-0.07396887	-0.06124908	-2.206286	-1.82689
11.26991	0.3948733	0.05068919	0	0	2.232385	1.848501
11.28647	0.3948733	0.05068919	0	0	0	0
11.30304	0.3937517	0.0498354	-0.06770264	-0.05153772	-2.043446	-1.555546
11.31979	0.3937517	0.0498354	0	0	2.032099	1.546908
11.3363	0.3937517	0.0498354	0	0	0	0
11.35274	0.3935946	0.04996533	-0.009557373	0.007903823	-0.2900617	0.2398772
11.36945	0.3935946	0.04996533	0	0	0.2882761	-0.2384006
11.38587	0.3935946	0.04996533	0	0	0	0
11.40249	0.3935497	0.04992821	-0.002700861	-0.002233904	-0.08175214	-0.06761788
11.419	0.3935497	0.04992821	0	0	0.08151683	0.06742325
11.43557	0.3935497	0.04992821	0	0	0	0
11.45214	0.3934824	0.04987253	-0.004063885	-0.003361385	-0.1226518	-0.1014497
11.46903	0.3934824	0.04987253	0	0	0.1214597	0.1004637
11.48527	0.3934824	0.04987253	0	0	0	0
11.50205	0.3934375	0.0498354	-0.002676237	-0.002212291	-0.08104191	-0.06699268
11.5184	0.3934375	0.0498354	0	0	0.080769	0.06676708
11.53508	0.3934375	0.0498354	0	0	0	0
11.55154	0.3933028	0.04972402	-0.008184136	-0.00676685	-0.247019	-0.2042416
11.5681	0.3933028	0.04972402	0	0	0.2478037	0.2048903
11.58467	0.3933028	0.04972402	0	0	0	0
11.60124	0.3931681	0.04961264	-0.008131837	-0.006723832	-0.2454334	-0.2029373
11.61813	0.3931681	0.04961264	0	0	0.2430617	0.2009763
11.63437	0.3931681	0.04961264	0	0	0	0
11.65403	0.3930783	0.04953839	-0.00456648	-0.003776099	-0.1271726	-0.1051611
11.67116	0.3930783	0.04953839	0	0	0.1241393	0.1026529
11.68717	0.3930783	0.04953839	0	0	0	0
11.70374	0.3930334	0.04950126	-0.002711056	-0.002241298	-0.08321131	-0.06879289
11.72069	0.3930334	0.04950126	0	0	0.08088167	0.06686692
11.73687	0.3930334	0.04950126	0	0	0	0
11.75373	0.3929885	0.049427	-0.002663523	-0.004403783	-0.08060801	-0.1332747
11.77	0.3929885	0.049427	0	0	0.08038991	0.1329141
11.7868	0.3929885	0.049427	0	0	0	0
11.80314	0.3929436	0.04938987	-0.002748716	-0.002272433	-0.0829588	-0.06858414
11.8197	0.3929436	0.04938987	0	0	0.08353343	0.0690592
11.83631	0.3929436	0.04938987	0	0	0	0
11.85283	0.3928313	0.04929704	-0.006796929	-0.00561856	-0.2051435	-0.1695782
11.8694	0.3928313	0.04929704	0	0	0.2054155	0.1698031
11.88597	0.3928313	0.04929704	0	0	0	0
11.90253	0.3870905	0.04459715	-0.3465312	-0.2837025	-10.45893	-8.562651
11.9191	0.3870905	0.04459715	0	0	10.45893	8.562651
11.93567	0.3870905	0.04459715	0	0	0	0
11.95223	0.3750499	0.03471388	-0.7268166	-0.5965894	-21.936	-18.00562
11.96889	0.3750499	0.03471388	0	0	21.87681	17.95704
11.9859	0.3750499	0.03471388	0	0	0	0
12.00193	0.3745941	0.03434112	-0.02843157	-0.02325368	-0.8604688	-0.7037622
12.0185	0.3745941	0.03434112	0	0	0.8721998	0.7133569
12.03543	0.3745941	0.03434112	0	0	0	0
12.05163	0.3745941	0.03434112	0	0	0	0
12.06847	0.3745941	0.03434112	0	0	0	0
12.08477	0.3745941	0.03434112	0	0	0	0
12.10133	0.3745941	0.03434112	0	0	0	0
12.11799	0.3745941	0.03434112	0	0	0	0
12.13452	0.3745941	0.03434112	0	0	0	0
12.15103	0.3745941	0.03434112	0	0	0	0
12.1676	0.3745941	0.03434112	0	0	0	0
12.18417	0.3745941	0.03434112	0	0	0	0
12.20464	0.374503	0.03441567	-0.004454301	0.003642691	-0.1202821	0.09836569
12.2212	0.374503	0.03441567	0	0	0.1202697	-0.09835555
12.23796	0.3744574	0.03445295	-0.002721878	0.002225313	-0.08168562	0.06678332
12.25434	0.3744574	0.03445295	0	0	0.08215116	-0.06716394
12.27096	0.3744574	0.03445295	0	0	0	0
12.28747	0.3743206	0.03456478	-0.008281241	0.00677148	-0.2499427	0.2043754
12.30404	0.3743206	0.03456478	0	0	0.2503318	-0.2046936
12.3206	0.3743206	0.03456478	0	0	0	0
12.338	0.3740926	0.03471388	-0.01310462	0.008569129	-0.385815	0.252285
12.35374	0.3740926	0.03471388	0	0	0.3955095	-0.2586243
12.37052	0.3740926	0.03471388	0	0	0	0
12.38687	0.3737505	0.03499343	-0.02092815	0.01710304	-0.6316309	0.5161855
12.40355	0.3737505	0.03499343	0	0	0.6337835	-0.5179446
12.42	0.3737505	0.03499343	0	0	0	0
12.4366	0.3736365	0.03497479	-0.006871408	-0.001123159	-0.2079001	-0.0339821
12.45314	0.3736365	0.03497479	0	0	0.2073855	0.03389798
12.4697	0.3736365	0.03497479	0	0	0	0
12.48627	0.3701189	0.03214104	-0.212319	-0.1710459	-6.407986	-5.162325
12.50284	0.3701189	0.03214104	0	0	6.407986	5.162325
12.51949	0.3701189	0.03214104	0	0	0	0
12.53601	0.3424304	0.009877932	-1.675724	-1.347371	-50.51239	-40.61465
12.55254	0.3424304	0.009877932	0	0	50.7048	40.76936
12.5691	0.3424304	0.009877932	0	0	0	0
12.58567	0.3214268	-0.006923792	-1.267848	-1.014212	-38.26482	-30.60987
12.60224	0.3214268	-0.006923792	0	0	38.26592	30.61076
12.61881	0.3214268	-0.006923792	0	0	0	0
12.63537	0.3008697	-0.02250412	-1.241472	-0.9409181	-37.46879	-28.39778
12.65206	0.3008697	-0.02250412	0	0	37.33982	28.30004
12.6685	0.3008697	-0.02250412	0	0	0	0
12.68507	0.2568807	-0.02419153	-2.655338	-0.101858	-80.4369	-3.085536
12.70164	0.2568807	-0.02419153	0	0	80.14056	3.074168
12.7182	0.2568807	-0.02419153	0	0	0	0
12.74098	0.1994949	-0.04014412	-2.519717	-0.7004521	-64.04816	-17.80465
12.7516	0.1994949	-0.04014412	0	0	75.44804	20.97368
12.76838	0.1671878	-0.06307136	-1.924797	-1.365963	-70.2309	-49.8405
12.78512	0.1671878	-0.06307136	0	0	57.41624	40.74636
12.80152	0.1671878	-0.06307136	0	0	0	0
12.81809	0.1326377	-0.08895702	-2.085567	-1.562552	-63.27217	-47.40486
12.83515	0.1326377	-0.08895702	0	0	62.0144	46.46252
12.85166	0.1326377	-0.08895702	0	0	0	0
12.86779	0.1171973	-0.1005026	-0.9575055	-0.7159769	-29.33922	-21.93847
12.8847	0.1171973	-0.1005026	0	0	28.9835	21.67247
12.90121	0.1171973	-0.1005026	0	0	0	0
12.91749	0.1168339	-0.1008143	-0.02232261	-0.0191468	-0.6807908	-0.5839357
12.93405	0.1168339	-0.1008143	0	0	0.6795851	0.5829016
12.95062	0.1168339	-0.1008143	0	0	0	0
12.96719	0.1168339	-0.1008533	0	-0.002351846	0	-0.07098497
12.98378	0.1168339	-0.1008533	0	0	0	0.07092781
13.00032	0.1168339	-0.1008533	0	0	0	0
13.01688	0.1168858	-0.1008533	0.003134176	0	0.09466863	0
13.03346	0.1168858	-0.1008533	0	0	-0.09457328	0
13.05002	0.1168858	-0.1008533	0	0	0	0
13.06658	0.1168858	-0.1008533	0	0	0	0
13.08349	0.1168858	-0.1008533	0	0	0	0
13.09999	0.1168858	-0.1008533	0	0	0	0
13.11651	0.1168858	-0.1008533	0	0	0	0
13.13301	0.1168858	-0.1008533	0	0	0	0
13.17028	0.1168858	-0.1008533	0	0	0	0
13.18706	0.1168599	-0.1008338	-0.001546696	0.001160466	-0.02861426	0.02146891
13.20341	0.1168599	-0.1008338	0	0	0.04667802	-0.03502192
13.22007	0.1168599	-0.1008338	0	0	0	0
13.23659	0.1168339	-0.1008533	-0.001571249	-0.001178888	-0.04736042	-0.03553391
13.25311	0.1168339	-0.1008533	0	0	0.04754767	0.0356744
13.27009	0.1168339	-0.1008533	0	0	0	0
13.28624	0.116782	-0.1008923	-0.003212979	-0.002411579	-0.09697906	-0.07278997
13.30281	0.116782	-0.1008923	0	0	0.09818017	0.07369149
13.31938	0.116782	-0.1008923	0	0	0	0
13.33594	0.1134061	-0.1033482	-0.2037834	-0.1482509	-6.15055	-4.474477
13.35287	0.1134061	-0.1033482	0	0	6.083658	4.425814
13.36908	0.1134061	-0.1033482	0	0	0	0
13.38564	0.07179743	-0.1340913	-2.511791	-1.855867	-76.65096	-56.63449
13.40221	0.07179743	-0.1340913	0	0	75.80817	56.0118
13.41889	0.07179743	-0.1340913	0	0	0	0
13.43534	0.04384031	-0.1546699	-1.699036	-1.250621	-51.27995	-37.74599
13.45191	0.04384031	-0.1546699	0	0	51.45174	37.87245
13.46891	0.04384031	-0.1546699	0	0	0	0
13.48504	0.02959662	-0.1503729	-0.8830838	0.2664029	-26.65306	8.040518
13.50161	0.02959662	-0.1503729	0	0	27.00833	-8.147693
13.51849	0.02959662	-0.1503729	0	0	0	0
13.53475	0.01760344	-0.1412875	-0.7379271	0.5590141	-22.27133	16.87157
13.55131	0.01760344	-0.1412875	0	0	22.48424	-17.03286
13.56798	0.01760344	-0.1412875	0	0	0	0
13.58454	0.01768237	-0.1413469	0.004764959	-0.003585977	0.1434064	-0.1079237
13.60101	0.01768237	-0.1413469	0	0	-0.1442343	0.1085468
13.61759	0.01768237	-0.1413469	0	0	0	0
13.63415	0.0178139	-0.1412479	0.007945949	0.005980672	0.2398161	0.1805022
13.65071	0.0178139	-0.1412479	0	0	-0.2399128	-0.180575
13.66761	0.0178139	-0.1412479	0	0	0	0
13.68385	0.01797175	-0.1411291	0.009722258	0.007316876	0.2934183	0.2208238
13.70042	0.01797175	-0.1411291	0	0	-0.2963697	-0.223045
13.71717	0.01797175	-0.1411291	0	0	0	0
13.73354	0.01799806	-0.1411093	0.001606823	0.001208644	0.04850239	0.03648325
13.75021	0.01799806	-0.1411093	0	0	-0.04863399	-0.03658224
13.76668	0.01799806	-0.1411093	0	0	0	0
13.78324	0.01839266	-0.1408124	0.02382127	0.01792692	0.7211273	0.5426913
13.79981	0.01839266	-0.1408124	0	0	-0.7189273	-0.5410356
13.81638	0.01839266	-0.1408124	0	0	0	0
13.83294	0.01957645	-0.1399217	0.07146155	0.05376457	2.156962	1.622805
13.85125	0.01957645	-0.1399217	0	0	-2.049474	-1.541935
13.86608	0.01957645	-0.1399217	0	0	0	0
13.88264	0.01955014	-0.139902	-0.001588116	0.001194657	-0.05058198	0.0380502
13.89921	0.01955014	-0.139902	0	0	0.04793081	-0.03605586
13.916	0.01955014	-0.139902	0	0	0	0
13.93234	0.01955014	-0.139902	0	0	0	0
13.949	0.01955014	-0.139902	0	0	0	0
13.96552	0.01955014	-0.139902	0	0	0	0
13.98205	0.01955014	-0.139902	0	0	0	0
13.99861	0.01955014	-0.139902	0	0	0	0
14.01518	0.01955014	-0.139902	0	0	0	0
14.03174	0.01955014	-0.139902	0	0	0	0
14.04857	0.01955014	-0.139902	0	0	0	0
14.06488	0.01955014	-0.139902	0	0	0	0
14.08144	0.01952383	-0.1398822	-0.001588024	0.001194588	-0.04830203	0.03633511
14.09812	0.01952383	-0.1398822	0	0	0.04776719	-0.03593278
14.11458	0.01952383	-0.1398822	0	0	0	0
14.13114	0.01949753	-0.139902	-0.001587933	-0.00119452	-0.04808862	-0.03617457
14.14771	0.01949753	-0.139902	0	0	0.04792667	0.03605275
14.16428	0.01949753	-0.139902	0	0	0	0
14.18084	0.01949753	-0.139902	0	0	0	0
14.19763	0.01949753	-0.139902	0	0	0	0
14.21466	0.01949753	-0.139902	0	0	0	0
14.23068	0.01949753	-0.139902	0	0	0	0
14.24711	0.01949753	-0.139902	0	0	0	0
14.26368	0.01949753	-0.139902	0	0	0	0
14.28072	0.01947122	-0.1398822	-0.001543419	0.001161034	-0.04592095	0.03454395
14.29724	0.01947122	-0.1398822	0	0	0.04599273	-0.03459794
14.31425	0.01947122	-0.1398822	0	0	0	0
14.32995	0.01947122	-0.1398822	0	0	0	0
14.34651	0.01947122	-0.1398822	0	0	0	0
14.36308	0.01947122	-0.1398822	0	0	0	0
14.37964	0.01947122	-0.1398822	0	0	0	0
14.40065	0.01947122	-0.1398822	0	0	0	0
14.41278	0.01947122	-0.1398822	0	0	0	0
14.42961	0.01947122	-0.1398822	0	0	0	0
14.44612	0.01947122	-0.1398822	0	0	0	0
14.46264	0.01947122	-0.1398822	0	0	0	0
14.47904	0.01947122	-0.1398822	0	0	0	0
14.49565	0.01947122	-0.1398822	0	0	0	0
14.54711	0.01947122	-0.1398822	0	0	0	0
14.56368	0.01947122	-0.1398822	0	0	0	0
14.58025	0.01947122	-0.1398822	0	0	0	0
14.59722	0.01947122	-0.1398822	0	0	0	0
14.61373	0.01947122	-0.1398822	0	0	0	0
14.62995	0.01947122	-0.1398822	0	0	0	0
14.64651	0.01947122	-0.1398822	0	0	0	0
14.66329	0.01947122	-0.1398822	0	0	0	0
14.68639	0.01947122	-0.1398822	0	0	0	0
14.69621	0.01947122	-0.1398822	0	0	0	0
14.71329	0.01949753	-0.139902	0.001539972	-0.001158441	0.05724742	-0.04306427
14.72934	0.01949753	-0.139902	0	0	-0.04647779	0.03496283
14.74591	0.01949753	-0.139902	0	0	0	0
14.76248	0.01949753	-0.139902	0	0	0	0
14.77904	0.01949753	-0.139902	0	0	0	0
14.79561	0.01949753	-0.139902	0	0	0	0
14.81218	0.01949753	-0.139902	0	0	0	0
14.82874	0.01949753	-0.139902	0	0	0	0
14.8454	0.01949753	-0.139902	0	0	0	0
14.86187	0.01949753	-0.139902	0	0	0	0
14.87844	0.01949753	-0.139902	0	0	0	0
14.89501	0.01949753	-0.139902	0	0	0	0
14.91158	0.01947122	-0.1398822	-0.001587933	0.00119452	-0.04792667	0.03605275
14.92814	0.01947122	-0.1398822	0	0	0.04792529	-0.03605171
14.94471	0.01947122	-0.1398822	0	0	0	0
14.96128	0.01947122	-0.1398822	0	0	0	0
14.97826	0.01947122	-0.1398822	0	0	0	0
14.99478	0.01947122	-0.1398822	0	0	0	0
15.01128	0.01947122	-0.1398822	0	0	0	0
15.02754	0.01947122	-0.1398822	0	0	0	0
15.04411	0.01947122	-0.1398822	0	0	0	0
15.06068	0.01949753	-0.139902	0.001587933	-0.00119452	0.04792667	-0.03605275
15.07733	0.01949753	-0.139902	0	0	-0.04780421	0.03596063
15.09381	0.01949753	-0.139902	0	0	0	0
15.11038	0.01949753	-0.139902	0	0	0	0
15.12739	0.01949753	-0.139902	0	0	0	0
15.14351	0.01949753	-0.139902	0	0	0	0
15.16008	0.01949753	-0.139902	0	0	0	0
15.1769	0.01949753	-0.139902	0	0	0	0
15.19341	0.01949753	-0.139902	0	0	0	0
15.20977	0.01949753	-0.139902	0	0	0	0
15.22644	0.01949753	-0.139902	0	0	0	0
15.24296	0.01949753	-0.139902	0	0	0	0
15.25947	0.01949753	-0.139902	0	0	0	0
15.27604	0.01949753	-0.139902	0	0	0	0
15.29299	0.01949753	-0.139902	0	0	0	0
15.31017	0.01947122	-0.1399217	-0.001531083	-0.001151754	-0.04485768	-0.0337441
15.32703	0.01947122	-0.1399217	0	0	0.04497959	0.03383581
15.34354	0.01947122	-0.1399217	0	0	0	0
15.35987	0.01949753	-0.1399415	0.00161112	-0.001211962	0.04905717	-0.03690316
15.37644	0.01949753	-0.1399415	0	0	-0.04897894	0.03684432
15.39307	0.01949753	-0.1399415	0	0	0	0
15.40958	0.01949753	-0.1399415	0	0	0	0
15.42614	0.01949753	-0.1399415	0	0	0	0
15.44271	0.01949753	-0.1399415	0	0	0	0
15.45927	0.01949753	-0.1399415	0	0	0	0
15.47663	0.01949753	-0.1399415	0	0	0	0
15.49241	0.01949753	-0.1399415	0	0	0	0
15.50897	0.01952383	-0.1399613	0.001588024	-0.001194588	0.04909237	-0.03692965
15.52566	0.01952383	-0.1399613	0	0	-0.04776171	0.03592866
15.54211	0.01952383	-0.1399613	0	0	0	0
15.55867	0.01952383	-0.1399613	0	0	0	0
15.57524	0.01952383	-0.1399613	0	0	0	0
15.5922	0.01952383	-0.1399613	0	0	0	0
15.60837	0.01952383	-0.1399613	0	0	0	0
15.62521	0.01952383	-0.1399613	0	0	0	0
15.64151	0.01952383	-0.1399613	0	0	0	0
15.65807	0.01952383	-0.1399613	0	0	0	0
15.67464	0.01952383	-0.1399613	0	0	0	0
15.69126	0.01952383	-0.1399613	0	0	0	0
15.70777	0.01952383	-0.1399613	0	0	0	0
15.72434	0.01952383	-0.1399613	0	0	0	0
15.74129	0.01952383	-0.1399613	0	0	0	0
15.75747	0.01952383	-0.1399613	0	0	0	0
15.77432	0.01952383	-0.1399613	0	0	0	0
15.79061	0.01952383	-0.1399613	0	0	0	0
15.80717	0.01952383	-0.1399613	0	0	0	0
15.82384	0.01952383	-0.1399613	0	0	0	0
15.84038	0.01952383	-0.1399613	0	0	0	0
15.85688	0.01952383	-0.1399613	0	0	0	0
15.87344	0.01952383	-0.1399613	0	0	0	0
15.89001	0.01952383	-0.1399613	0	0	0	0
15.90691	0.01952383	-0.1399613	0	0	0	0
15.92314	0.01952383	-0.1399613	0	0	0	0
15.93996	0.01952383	-0.1399613	0	0	0	0
15.95627	0.01952383	-0.1399613	0	0	0	0
15.97297	0.01952383	-0.1399613	0	0	0	0
15.98998	0.01952383	-0.1399613	0	0	0	0
16.00598	0.01952383	-0.1399613	0	0	0	0
16.02254	0.01952383	-0.1399613	0	0	0	0
16.03911	0.01952383	-0.1399613	0	0	0	0
16.05602	0.01949753	-0.1399811	-0.00155578	-0.001170333	-0.04647467	-0.03496048
16.07718	0.01949753	-0.1399811	0	0	0.04086558	0.03074105
16.08881	0.01949753	-0.1399811	0	0	0	0
16.10538	0.01949753	-0.1399811	0	0	0	0
16.12194	0.01949753	-0.1399811	0	0	0	0
16.13856	0.01949753	-0.1399811	0	0	0	0
16.15509	0.01949753	-0.1399811	0	0	0	0
16.17262	0.01949753	-0.1399811	0	0	0	0
16.18821	0.01949753	-0.1399811	0	0	0	0
16.20477	0.01941861	-0.1399613	-0.004763961	0.001194588	-0.1481604	0.037152
16.22165	0.01941861	-0.1399613	0	0	0.1424482	-0.03571965
16.23791	0.01941861	-0.1399613	0	0	0	0
16.25448	0.01939231	-0.1399811	-0.001587111	-0.001193901	-0.04834436	-0.03636695
16.27104	0.01939231	-0.1399811	0	0	0.04790185	0.03603408
16.28761	0.01939231	-0.1399811	0	0	0	0
16.30419	0.01910294	-0.1399613	-0.01744617	0.001193077	-0.5262236	0.03598643
16.32074	0.01910294	-0.1399613	0	0	0.5265265	-0.03600714
16.33772	0.01910294	-0.1399613	0	0	0	0
16.35401	0.009420774	-0.1348613	-0.5941991	0.3129929	-17.86099	9.408235
16.37053	0.009420774	-0.1348613	0	0	18.10913	-9.538942
16.38702	0.009420774	-0.1348613	0	0	0	0
16.40357	-0.005999928	-0.1278414	-0.9316534	0.4241077	-28.19201	12.83358
16.42014	-0.005999928	-0.1278414	0	0	28.13031	-12.80549
16.43671	-0.005999928	-0.1278414	0	0	0	0
16.45328	-0.02991213	-0.1100457	-1.443343	1.074153	-43.56019	32.418
16.47061	-0.02991213	-0.1100457	0	0	42.57258	-31.68301
16.48663	-0.02991213	-0.1100457	0	0	0	0
16.50297	-0.06045257	-0.1135087	-1.868376	-0.2118555	-57.73367	-6.546431
16.51963	-0.06045257	-0.1135087	0	0	56.61911	6.42005
16.53616	-0.06045257	-0.1135087	0	0	0	0
16.55267	-0.08931439	-0.1351575	-1.747737	-1.31095	-52.88684	-39.66959
16.56924	-0.08931439	-0.1351575	0	0	52.83196	39.62842
16.58581	-0.08931439	-0.1351575	0	0	0	0
16.60238	-0.09296807	-0.1379635	-0.2205367	-0.1693719	-6.655811	-5.111653
16.6267	-0.09296807	-0.1379635	0	0	5.392946	4.141774
16.63571	-0.09296807	-0.1379635	0	0	0	0
16.65207	-0.09260281	-0.1376867	0.02231415	0.01690948	0.8794286	0.6664241
16.66873	-0.09260281	-0.1376867	0	0	-0.6756202	-0.5119796
16.68521	-0.09260281	-0.1376867	0	0	0	0
16.70177	-0.09299416	-0.1373902	-0.0236246	0.01790083	-0.7150087	0.5417764
16.71834	-0.09299416	-0.1373902	0	0	0.713033	-0.5402793
16.73528	-0.09299416	-0.1373902	0	0	0	0
16.75147	-0.1148606	-0.1209593	-1.350015	1.014424	-40.74587	30.61715
16.76828	-0.1148606	-0.1209593	0	0	40.90836	-30.73925
16.78479	-0.1148606	-0.1209593	0	0	0	0
16.80131	-0.1386572	-0.1029777	-1.441173	1.089009	-43.63535	32.97263
16.81774	-0.1386572	-0.1029777	0	0	43.74144	-33.0528
16.83432	-0.1386572	-0.1029777	0	0	0	0
16.85135	-0.140928	-0.1012235	-0.1333814	0.1030395	-3.968801	3.065969
16.86744	-0.140928	-0.1012235	0	0	4.027545	-3.11135
16.88436	-0.140928	-0.1012235	0	0	0	0
16.90058	-0.140799	-0.101204	0.007954947	0.001201605	0.2400808	0.03626451
16.91715	-0.140799	-0.101204	0	0	-0.2426226	-0.03664846
16.93418	-0.140799	-0.101204	0	0	0	0
16.9507	-0.1404636	-0.1012625	0.02029266	-0.003537038	0.6047406	-0.1054071
16.96684	-0.1404636	-0.1012625	0	0	-0.6212309	0.1082814
16.98371	-0.1404636	-0.1012625	0	0	0	0
17.00024	-0.1398185	-0.1012819	0.03903455	-0.001178999	1.168847	-0.03530383
17.01654	-0.1398185	-0.1012819	0	0	-1.189016	0.03591302
17.03375	-0.1398185	-0.1012819	0	0	0	0
17.04975	-0.1307757	-0.09447087	0.5650868	0.4256211	17.01517	12.81576
17.06626	-0.1307757	-0.09447087	0	0	-17.38153	-13.0917
17.08378	-0.1307757	-0.09447087	0	0	0	0
17.09937	-0.07862704	-0.05959576	3.34527	2.237195	101.0303	67.56537
17.11594	-0.07862704	-0.05959576	0	0	-104.0264	-69.56908
17.13282	-0.07862704	-0.05959576	0	0	0	0
17.14934	0.009789161	-0.02916426	5.3516	1.841938	160.2204	55.1454
17.16564	0.009789161	-0.02916426	0	0	-163.0603	-56.12287
17.18235	0.009789161	-0.02916426	0	0	0	0
17.19877	0.1091435	-0.0273033	6.047867	0.1132799	182.5355	3.418991
17.21536	0.1091435	-0.0273033	0	0	-183.1999	-3.431436
17.23191	0.1091435	-0.0273033	0	0	0	0
17.24847	0.1728882	-0.02449498	3.84808	0.1695299	116.2089	5.119664
17.26504	0.1728882	-0.02449498	0	0	-116.1286	-5.116128
17.28161	0.1728882	-0.02449498	0	0	0	0
17.29817	0.194484	-0.01145396	1.303824	0.7873387	39.35628	23.76604
17.31474	0.194484	-0.01145396	0	0	-39.35401	-23.76467
17.33131	0.194484	-0.01145396	0	0	0	0
17.34787	0.2292403	0.01319829	2.098378	1.488356	63.33646	44.92383
17.36444	0.2292403	0.01319829	0	0	-63.33281	-44.92125
17.3815	0.2292403	0.01319829	0	0	0	0
17.39757	0.2977221	0.04673418	4.261626	2.086939	128.6235	62.98758
17.41451	0.2977221	0.04673418	0	0	-129.1066	-63.22416
17.43105	0.2977221	0.04673418	0	0	0	0
17.45017	0.3304016	0.0522849	1.708736	0.2902339	47.91774	8.138969
17.46675	0.3304016	0.0522849	0	0	-47.86398	-8.129838
17.4833	0.3304016	0.0522849	0	0	0	0
17.49987	0.3331304	0.05098611	0.1647291	-0.07840386	4.972964	-2.366915
17.51659	0.3331304	0.05098611	0	0	-4.948743	2.355386
17.53361	0.3331304	0.05098611	0	0	0	0
17.54961	0.3327778	0.05126446	-0.02203067	0.01739168	-0.6671914	0.5267012
17.56614	0.3327778	0.05126446	0	0	0.6772452	-0.5346379
17.5827	0.3327778	0.05126446	0	0	0	0
17.59927	0.3326133	0.05139435	-0.009932715	0.00784106	-0.2997872	0.2366573
17.61584	0.3326133	0.05139435	0	0	0.2997699	-0.2366437
17.63241	0.3326133	0.05139435	0	0	0	0
17.64918	0.3328484	0.05120879	0.01401364	-0.01106142	0.4202955	-0.3317526
17.66568	0.3328484	0.05120879	0	0	-0.4212111	0.3324754
17.68211	0.3328484	0.05120879	0	0	0	0
17.69867	0.3339528	0.05033656	0.06667614	-0.05266038	2.020782	-1.596
17.71525	0.3339528	0.05033656	0	0	-2.011942	1.589019
17.73181	0.3339528	0.05033656	0	0	0	0
17.74837	0.335901	0.04879575	0.117594	-0.09300347	3.550017	-2.807658
17.76494	0.335901	0.04879575	0	0	-3.548995	2.80685
17.78151	0.335901	0.04879575	0	0	0	0
17.79829	0.3358541	0.04879575	-0.002794744	0	-0.08379566	0
17.81464	0.3358541	0.04879575	0	0	0.0843504	0
17.83121	0.3358541	0.04879575	0	0	0	0
17.84777	0.3358306	0.04877718	-0.001415875	-0.001121051	-0.04273365	-0.03383534
17.86435	0.3358306	0.04877718	0	0	0.04271644	0.03382171
17.88091	0.3358306	0.04877718	0	0	0	0
17.89747	0.3358541	0.04875861	0.001416038	-0.001120955	0.0427558	-0.03384608
17.91404	0.3358541	0.04875861	0	0	-0.04274104	0.03383439
17.9306	0.3358541	0.04875861	0	0	0	0
17.94738	0.3359948	0.0486472	0.008388045	-0.006640536	0.2515732	-0.1991621
17.96391	0.3359948	0.0486472	0	0	-0.2518325	0.1993674
17.9804	0.3359948	0.0486472	0	0	0	0
17.99871	0.3573857	0.03154417	1.167984	-0.9338588	33.56318	-26.83535
18.01528	0.3573857	0.03154417	0	0	-33.48243	26.77079
18.03185	0.3573857	0.03154417	0	0	0	0
18.04841	0.3865263	0.007662575	1.759132	-1.441662	53.09682	-43.51446
18.06523	0.3865263	0.007662575	0	0	-52.69938	43.18874
18.08172	0.3865263	0.007662575	0	0	0	0
18.09831	0.3963522	-0.0006673645	0.5922788	-0.5021024	17.90387	-15.17795
18.11524	0.3963522	-0.0006673645	0	0	-17.66754	14.9776
18.13144	0.3963522	-0.0006673645	0	0	0	0
18.14801	0.4225694	-0.02330031	1.582653	-1.366285	48.29838	-41.69539
18.16458	0.4225694	-0.02330031	0	0	-47.76457	41.23456
18.18131	0.4225694	-0.02330031	0	0	0	0
18.19771	0.44752	-0.04741624	1.521258	-1.470368	45.91958	-44.38345
18.21432	0.44752	-0.04741624	0	0	-46.07344	44.53216
18.23134	0.44752	-0.04741624	0	0	0	0
18.24741	0.4552548	-0.05543443	0.481339	-0.4989718	14.54945	-15.08244
18.26435	0.4552548	-0.05543443	0	0	-14.57971	15.11381
18.28054	0.4552548	-0.05543443	0	0	0	0
18.29711	0.4483751	-0.06355175	-0.4152587	-0.4899623	-12.67702	-14.95757
18.31368	0.4483751	-0.06355175	0	0	12.53253	14.78709
18.33024	0.4483751	-0.06355175	0	0	0	0
18.34702	0.4343052	-0.07861992	-0.8384505	-0.8979384	-25.14239	-26.92624
18.36338	0.4343052	-0.07861992	0	0	25.30449	27.09984
18.37995	0.4343052	-0.07861992	0	0	0	0
18.39654	0.4282897	-0.08397713	-0.3624709	-0.3228046	-10.92996	-9.733856
18.41308	0.4282897	-0.08397713	0	0	10.93939	9.742261
18.42965	0.4282897	-0.08397713	0	0	0	0
18.44621	0.4281808	-0.08384162	-0.006573077	0.00817947	-0.1983759	0.2468569
18.46278	0.4281808	-0.08384162	0	0	0.1983759	-0.2468569
18.47935	0.4281808	-0.08384162	0	0	0	0
18.49611	0.4276798	-0.08339642	-0.02988643	0.02655752	-0.896658	0.7967834
18.51263	0.4276798	-0.08339642	0	0	0.8980455	-0.7980164
18.52912	0.4276798	-0.08339642	0	0	0	0
18.55873	0.4275055	-0.08324158	-0.00588844	0.005229639	-0.1277302	0.1134397
18.5753	0.4275055	-0.08324158	0	0	0.1275191	-0.1132522
18.59186	0.4274619	-0.08320288	-0.002630253	0.002336554	-0.07938121	0.07051733
18.60868	0.4274619	-0.08320288	0	0	0.07879608	-0.06999755
18.625	0.4274619	-0.08320288	0	0	0	0
18.6417	0.4274401	-0.08318352	-0.001304314	0.001158894	-0.03949841	0.03509469
18.65822	0.4274401	-0.08318352	0	0	0.03926256	-0.03488513
18.6747	0.4274401	-0.08318352	0	0	0	0
18.69127	0.4273747	-0.08312546	-0.003946725	0.003504652	-0.1194286	0.1060514
18.70783	0.4273747	-0.08312546	0	0	0.1191124	-0.1057706
18.72478	0.4273747	-0.08312546	0	0	0	0
18.74096	0.4272875	-0.08304805	-0.00538755	0.004782233	-0.1626059	0.1443364
18.75779	0.4272875	-0.08304805	0	0	0.1632261	-0.1448869
18.7741	0.4272875	-0.08304805	0	0	0	0
18.79066	0.4263717	-0.08223537	-0.05528569	0.04905953	-1.681593	1.492216
18.80732	0.4263717	-0.08223537	0	0	1.664215	-1.476794
18.82383	0.4263717	-0.08223537	0	0	0	0
18.84397	0.4245596	-0.08063006	-0.0899936	0.07972383	-2.455635	2.175406
18.86085	0.4245596	-0.08063006	0	0	2.430838	-2.153439
18.8771	0.4245596	-0.08063006	0	0	0	0
18.89367	0.4245596	-0.08063006	0	0	0	0
18.91039	0.4245596	-0.08063006	0	0	0	0
18.92689	0.4245596	-0.08063006	0	0	0	0
18.94337	0.4245596	-0.08063006	0	0	0	0
18.95993	0.4245596	-0.08063006	0	0	0	0
18.9765	0.4245596	-0.08063006	0	0	0	0
18.99307	0.4245596	-0.08063006	0	0	0	0
19.00963	0.4245596	-0.08063006	0	0	0	0
19.0262	0.4245596	-0.08063006	0	0	0	0
19.04277	0.4245596	-0.08063006	0	0	0	0
19.05947	0.4245596	-0.08063006	0	0	0	0
19.0759	0.4245596	-0.08063006	0	0	0	0
19.09251	0.4245596	-0.08063006	0	0	0	0
19.10908	0.4245596	-0.08063006	0	0	0	0
19.12601	0.4245596	-0.08063006	0	0	0	0
19.14217	0.4245596	-0.08063006	0	0	0	0
19.15873	0.4245596	-0.08063006	0	0	0	0
19.1753	0.4245596	-0.08063006	0	0	0	0
19.19207	0.4245596	-0.08063006	0	0	0	0
19.20858	0.4245596	-0.08063006	0	0	0	0
19.225	0.4245377	-0.08061072	-0.001330212	0.001177319	-0.04039702	0.03575384
19.24157	0.4245377	-0.08061072	0	0	0.04032228	-0.03568769
19.25912	0.4245377	-0.08061072	0	0	0	0
19.27512	0.4245596	-0.08063006	0.001365255	-0.001208335	0.04068358	-0.03600746
19.29127	0.4245596	-0.08063006	0	0	-0.04247489	0.03759289
19.30783	0.4245596	-0.08063006	0	0	0	0
19.3244	0.4245596	-0.08063006	0	0	0	0
19.3412	0.4245596	-0.08063006	0	0	0	0
19.35769	0.4245596	-0.08063006	0	0	0	0
19.3742	0.4245377	-0.08064939	-0.001323602	-0.001171469	-0.04010567	-0.03549599
19.39067	0.4245377	-0.08064939	0	0	0.04014279	0.03552884
19.40723	0.4245377	-0.08064939	0	0	0	0
19.4238	0.4244722	-0.0807074	-0.003957518	-0.003501504	-0.1194381	-0.1056756
19.44037	0.4244722	-0.0807074	0	0	0.1194381	0.1056756
19.45694	0.4244722	-0.0807074	0	0	0	0
19.4735	0.424188	-0.08099745	-0.01715242	-0.01750953	-0.5176908	-0.5284692
19.49026	0.424188	-0.08099745	0	0	0.5147571	0.5254745
19.50664	0.424188	-0.08099745	0	0	0	0
19.52325	0.4080065	-0.09524838	-0.9736941	-0.8575221	-29.50845	-25.98778
19.53977	0.4080065	-0.09524838	0	0	29.38784	25.88156
19.55634	0.4080065	-0.09524838	0	0	0	0
19.5729	0.374503	-0.124457	-2.022277	-1.763036	-61.03244	-53.20853
19.5898	0.374503	-0.124457	0	0	60.42376	52.67787
19.60682	0.374503	-0.124457	0	0	0	0
19.6226	0.3357133	-0.1575787	-2.457638	-2.098529	-74.9308	-63.98195
19.63917	0.3357133	-0.1575787	0	0	75.96899	64.86844
19.6587	0.3357133	-0.1575787	0	0	0	0
19.67246	0.2913602	-0.1938516	-3.223424	-2.636183	-96.83163	-79.19091
19.68887	0.2913602	-0.1938516	0	0	106.8337	87.37082
19.70544	0.2913602	-0.1938516	0	0	0	0
19.72201	0.2457216	-0.2201489	-2.754755	-1.587307	-83.13868	-47.90503
19.73857	0.2457216	-0.2201489	0	0	83.13868	47.90503
19.75514	0.2457216	-0.2201489	0	0	0	0
19.77171	0.1634754	-0.242922	-4.964389	-1.374589	-149.8256	-41.48518
19.78827	0.1634754	-0.242922	0	0	149.8256	41.48518
19.80484	0.1634754	-0.242922	0	0	0	0
19.82141	0.09523733	-0.2628964	-4.119331	-1.205798	-124.3288	-36.39316
19.83797	0.09523733	-0.2628964	0	0	124.3288	36.39316
19.85459	0.09523733	-0.2628964	0	0	0	0
19.87111	0.06362453	-0.2762089	-1.913439	-0.8057662	-57.74771	-24.31807
19.88768	0.06362453	-0.2762089	0	0	57.8276	24.35172
19.90424	0.06362453	-0.2762089	0	0	0	0
19.92081	0.05979705	-0.2792927	-0.2310539	-0.1861597	-6.973622	-5.618634
19.93738	0.05979705	-0.2792927	0	0	6.973622	5.618634
19.95399	0.05979705	-0.2792927	0	0	0	0
19.97051	0.06003304	-0.2791024	0.01428878	0.011518	0.4312611	0.347634
19.98708	0.06003304	-0.2791024	0	0	-0.4319076	-0.3481551
20.00364	0.06003304	-0.2791024	0	0	0	0
20.02021	0.06081963	-0.2785529	0.04748444	0.03317142	1.433166	1.001173
20.03704	0.06081963	-0.2785529	0	0	-1.421951	-0.9933388
20.05356	0.06081963	-0.2785529	0	0	0	0
20.06991	0.06084585	-0.2785741	0.001603978	-0.001292663	0.04879578	-0.03932505
20.08657	0.06084585	-0.2785741	0	0	-0.0486012	0.03916823
20.10308	0.06084585	-0.2785741	0	0	0	0
20.11961	0.06087207	-0.2785952	0.001585844	-0.001278049	0.0479907	-0.03867622
20.1366	0.06087207	-0.2785952	0	0	-0.04730535	0.03812389
20.15274	0.06087207	-0.2785952	0	0	0	0
20.16931	0.06087207	-0.2785952	0	0	0	0
20.18615	0.06087207	-0.2785952	0	0	0	0
20.2051	0.06087207	-0.2785952	0	0	0	0
20.21906	0.06087207	-0.2785952	0	0	0	0
20.23558	0.06087207	-0.2785952	0	0	0	0
20.25214	0.06087207	-0.2785952	0	0	0	0
20.26871	0.06087207	-0.2785952	0	0	0	0
20.28528	0.06087207	-0.2785952	0	0	0	0
20.30184	0.06087207	-0.2785952	0	0	0	0
20.31841	0.06084585	-0.2785741	-0.001582557	0.0012754	-0.04776168	0.03849165
20.33498	0.06084585	-0.2785741	0	0	0.04776168	-0.03849165
20.35218	0.06084585	-0.2785741	0	0	0	0
20.36822	0.06084585	-0.2785741	0	0	0	0
20.38469	0.06084585	-0.2785741	0	0	0	0
20.40124	0.06084585	-0.2785741	0	0	0	0
20.41781	0.0610556	-0.2781093	0.01266023	0.028057	0.3822627	0.8471522
20.43438	0.0610556	-0.2781093	0	0	-0.3820866	-0.8467621
20.45126	0.0610556	-0.2781093	0	0	0	0
20.46751	0.04265832	-0.2621002	-1.131699	0.9847875	-34.15475	29.72095
20.48972	0.04265832	-0.2621002	0	0	29.42261	-25.60311
20.5008	0.04265832	-0.2621002	0	0	0	0
20.51721	-0.01349918	-0.2173814	-3.422774	2.725591	-124.4984	99.13934
20.53378	-0.01349918	-0.2173814	0	0	103.7834	-82.64383
20.55035	-0.01349918	-0.2173814	0	0	0	0
20.56691	-0.07318485	-0.1657871	-3.602634	3.114239	-108.7465	94.00416
20.58384	-0.07318485	-0.1657871	0	0	107.5698	-92.98697
20.60005	-0.07318485	-0.1657871	0	0	0	0
20.61686	-0.09226362	-0.1148403	-1.134873	3.030494	-34.36925	91.77747
20.63318	-0.09226362	-0.1148403	0	0	34.25054	-91.46049
20.64975	-0.09226362	-0.1148403	0	0	0	0
20.66632	-0.07297544	-0.09392674	1.164237	1.262348	35.13674	38.09774
20.68288	-0.07297544	-0.09392674	0	0	-35.13674	-38.09774
20.69995	-0.07297544	-0.09392674	0	0	0	0
20.71601	-0.07056684	-0.0923727	0.1499051	0.0967191	4.524406	2.919156
20.73294	-0.07056684	-0.0923727	0	0	-4.543763	-2.931645
20.74915	-0.07056684	-0.0923727	0	0	0	0
20.77483	-0.07054066	-0.09243096	0.001019577	-0.00226895	0.02434096	-0.05416799
20.79146	-0.07054066	-0.09243096	0	0	-0.02409411	0.05361864
20.80797	-0.07048829	-0.09250864	0.003172023	-0.00470501	0.09569328	-0.1419403
20.82453	-0.07048829	-0.09250864	0	0	-0.09593617	0.1423005
20.84109	-0.07048829	-0.09250864	0	0	0	0
20.85801	-0.07054066	-0.0924698	-0.003096192	0.002296265	-0.09247445	0.06858291
20.87423	-0.07054066	-0.0924698	0	0	0.09344865	-0.06930542
20.89104	-0.07054066	-0.0924698	0	0	0	0
20.90736	-0.07051447	-0.09248923	0.001604402	-0.00118995	0.04842373	-0.03591483
20.92406	-0.07051447	-0.09248923	0	0	-0.04858875	0.03603723
20.94057	-0.07051447	-0.09248923	0	0	0	0
20.95706	-0.06983363	-0.09330501	0.04128103	-0.04946306	1.250832	-1.498751
20.97363	-0.06983363	-0.09330501	0	0	-1.248739	1.496243
20.9906	-0.06983363	-0.09330501	0	0	0	0
21.00676	-0.05518077	-0.1045771	0.9068965	-0.6976509	27.37177	-21.05636
21.02332	-0.05518077	-0.1045771	0	0	-27.71318	21.31899
21.03989	-0.05518077	-0.1045771	0	0	0	0
21.05991	-0.03424976	-0.1200562	1.045729	-0.7733515	28.58663	-21.14077
21.07691	-0.03424976	-0.1200562	0	0	-28.24933	20.89133
21.09304	-0.03390805	-0.1203114	0.02118164	-0.01581851	0.6392631	-0.4774036
21.10961	-0.03390805	-0.1203114	0	0	-0.6477647	0.4837527
21.12695	-0.03390805	-0.1203114	0	0	0	0
21.14274	-0.02686196	-0.1253027	0.4462111	-0.3160821	13.46823	-9.540476
21.15947	-0.02686196	-0.1253027	0	0	-13.7202	9.718965
21.17587	-0.02686196	-0.1253027	0	0	0	0
21.19244	0.01165737	-0.1539531	2.325031	-1.729346	70.51868	-52.45144
21.20901	0.01165737	-0.1539531	0	0	-70.16958	52.19177
21.22557	0.01165737	-0.1539531	0	0	0	0
21.24214	0.05260931	-0.1852981	2.471864	-1.891985	74.601	-57.10022
21.25904	0.05260931	-0.1852981	0	0	-73.86119	56.53397
21.27527	0.05260931	-0.1852981	0	0	0	0
21.29184	0.05817114	-0.1908753	0.3357129	-0.3366409	10.23494	-10.26323
21.30864	0.05817114	-0.1908753	0	0	-10.06175	10.08957
21.32564	0.05817114	-0.1908753	0	0	0	0
21.34154	0.05638753	-0.1922516	-0.1121926	-0.08657112	-3.409925	-2.6312
21.35811	0.05638753	-0.1922516	0	0	3.455802	2.6666
21.37483	0.05638753	-0.1922516	0	0	0	0
21.39135	0.05386889	-0.194196	-0.152482	-0.1177198	-4.586866	-3.54117
21.40781	0.05386889	-0.194196	0	0	4.624009	3.569845
21.42438	0.05386889	-0.194196	0	0	0	0
21.44094	0.05389512	-0.1941758	0.001583682	0.001223233	0.04779561	0.03691724
21.45788	0.05389512	-0.1941758	0	0	-0.04726506	-0.03650745
21.47408	0.05389512	-0.1941758	0	0	0	0
21.49064	0.05386889	-0.1941555	-0.001583682	0.001223233	-0.04834102	0.03733851
21.50721	0.05386889	-0.1941555	0	0	0.04779561	-0.03691724
21.52378	0.05386889	-0.1941555	0	0	0	0
21.54034	0.05371145	-0.194034	-0.009504084	0.007338443	-0.2868503	0.2214874
21.55695	0.05371145	-0.194034	0	0	0.2865534	-0.2212581
21.57399	0.05371145	-0.194034	0	0	0	0
21.59005	0.05365897	-0.1939934	-0.003269054	0.002524653	-0.09876257	0.0762732
21.60661	0.05365897	-0.1939934	0	0	0.1002178	-0.07739709
21.62318	0.05365897	-0.1939934	0	0	0	0
21.63975	0.05365897	-0.1939934	0	0	0	0
21.65656	0.05365897	-0.1939934	0	0	0	0
21.67288	0.05365897	-0.1939934	0	0	0	0
21.6896	0.0534228	-0.1937705	-0.01411979	0.01332553	-0.4273414	0.4033028
21.70609	0.0534228	-0.1937705	0	0	0.4251815	-0.4012644
21.72258	0.0534228	-0.1937705	0	0	0	0
21.73915	0.05334408	-0.1937098	-0.00475172	0.003667899	-0.1437382	0.1109529
21.75613	0.05334408	-0.1937098	0	0	0.1416138	-0.1093131
21.77228	0.05334408	-0.1937098	0	0	0	0
21.78885	0.0532916	-0.1936287	-0.003168178	0.004892595	-0.09684785	0.1495615
21.80541	0.0532916	-0.1936287	0	0	0.0956213	-0.1476673
21.82198	0.0532916	-0.1936287	0	0	0	0
21.83854	0.05316039	-0.1934869	-0.007920669	0.008560018	-0.23906	0.2583567
21.85514	0.05316039	-0.1934869	0	0	0.2388675	-0.2581487
21.87168	0.05316039	-0.1934869	0	0	0	0
21.88869	0.05310791	-0.1934059	-0.003084366	0.004762289	-0.091917	0.1419207
21.90519	0.05310791	-0.1934059	0	0	0.09203733	-0.1421065
21.92138	0.05310791	-0.1934059	0	0	0	0
21.9382	0.05305542	-0.1933249	-0.003119907	0.004815937	-0.09451261	0.1458911
21.95473	0.05305542	-0.1933249	0	0	0.09353976	-0.1443894
21.97108	0.05305542	-0.1933249	0	0	0	0
21.98764	0.05308167	-0.1933046	0.001584314	0.001222474	0.0481389	0.03714451
22.00427	0.05308167	-0.1933046	0	0	-0.04773774	-0.03683497
22.02078	0.05308167	-0.1933046	0	0	0	0
22.03734	0.05310791	-0.1933249	0.001584089	-0.001222474	0.0478906	-0.03695817
22.05428	0.05310791	-0.1933249	0	0	-0.0472826	0.03648896
22.07048	0.05310791	-0.1933249	0	0	0	0
22.08704	0.05313415	-0.1933451	0.001584089	-0.001222474	0.04835063	-0.03731318
22.10361	0.05313415	-0.1933451	0	0	-0.04781065	0.03689647
22.12034	0.05313415	-0.1933451	0	0	0	0
22.13999	0.05313415	-0.1933451	0	0	0	0
22.15331	0.05313415	-0.1933451	0	0	0	0
22.16988	0.05313415	-0.1933451	0	0	0	0
22.18644	0.05316039	-0.1933654	0.001584089	-0.001223374	0.04781065	-0.03692361
22.20342	0.05316039	-0.1933654	0	0	-0.04722345	0.03647013
22.21958	0.05316039	-0.1933654	0	0	0	0
22.23614	0.05316039	-0.1933654	0	0	0	0
22.25293	0.05316039	-0.1933654	0	0	0	0
22.26945	0.05316039	-0.1933654	0	0	0	0
22.28597	0.05316039	-0.1933654	0	0	0	0
22.30247	0.05316039	-0.1933654	0	0	0	0
22.31898	0.05316039	-0.1933654	0	0	0	0
22.33554	0.05316039	-0.1933654	0	0	0	0
22.35211	0.05316039	-0.1933654	0	0	0	0
22.36868	0.05316039	-0.1933654	0	0	0	0
22.38524	0.05313415	-0.1933451	-0.001584089	0.001223374	-0.04781065	0.03692361
22.40203	0.05313415	-0.1933451	0	0	0.04749078	-0.03667658
22.41838	0.05313415	-0.1933451	0	0	0	0
22.43571	0.05316039	-0.1933249	0.00151401	0.001168393	0.04495794	0.03469497
22.45227	0.05316039	-0.1933249	0	0	-0.04466198	-0.03446658
22.46909	0.05316039	-0.1933249	0	0	0	0
22.48559	0.05281925	-0.192535	-0.02067716	0.04787301	-0.6206794	1.437035
22.50212	0.05281925	-0.192535	0	0	0.626056	-1.449483
22.51854	0.05281925	-0.192535	0	0	0	0
22.53512	0.02625712	-0.171717	-1.602002	1.255569	-48.53851	38.04207
22.55167	0.02625712	-0.171717	0	0	48.3513	-37.89534
22.56916	0.02625712	-0.171717	0	0	0	0
22.58481	-0.01139424	-0.1412083	-2.406163	1.949698	-72.62232	58.84538
22.60137	-0.01139424	-0.1412083	0	0	74.69049	-60.5212
22.61794	-0.01139424	-0.1412083	0	0	0	0
22.63519	-0.0296492	-0.1226683	-1.058021	1.074545	-31.28286	31.77143
22.65121	-0.0296492	-0.1226683	0	0	31.80298	-32.29967
22.66764	-0.0296492	-0.1226683	0	0	0	0
22.68425	-0.02912334	-0.1230613	0.0316609	-0.02366269	0.9581754	-0.71612
22.70078	-0.02912334	-0.1230613	0	0	-0.9555278	0.7141414
22.71759	-0.02912334	-0.1230613	0	0	0	0
22.73411	-0.01739298	-0.114194	0.7097618	0.5365263	21.29074	16.09419
22.75048	-0.01739298	-0.114194	0	0	-21.57966	-16.31259
22.76704	-0.01739298	-0.114194	0	0	0	0
22.78361	0.02817675	-0.08053339	2.750595	2.03176	83.01311	61.31862
22.80018	0.02817675	-0.08053339	0	0	-83.01311	-61.31862
22.81722	0.02817675	-0.08053339	0	0	0	0
22.8337	0.055653	-0.06107381	1.666914	1.180562	49.72647	35.21791
22.84988	0.055653	-0.06107381	0	0	-51.03613	-36.14545
22.86645	0.055653	-0.06107381	0	0	0	0
22.88301	0.05641376	-0.0617075	0.0459198	-0.03824918	1.385862	-1.154363
22.89975	0.05641376	-0.0617075	0	0	-1.378719	1.148413
22.91615	0.05641376	-0.0617075	0	0	0	0
22.93271	0.05447238	-0.06332115	-0.1171958	-0.09741157	-3.555602	-2.955368
22.9493	0.05447238	-0.06332115	0	0	3.534535	2.937858
22.96585	0.05447238	-0.06332115	0	0	0	0
22.98559	0.05431494	-0.06347488	-0.007973248	-0.007785709	-0.2197255	-0.2145573
23.00216	0.05431494	-0.06347488	0	0	0.219564	0.2143996
23.01873	0.05431494	-0.06347488	0	0	0	0
23.03558	0.05428871	-0.06345566	-0.001556973	0.001140262	-0.04658994	0.03412054
23.05212	0.05428871	-0.06345566	0	0	0.04662986	-0.03414977
23.06861	0.05428871	-0.06345566	0	0	0	0
23.08499	0.05428871	-0.06345566	0	0	0	0
23.10163	0.05428871	-0.06345566	0	0	0	0
23.11866	0.05428871	-0.06345566	0	0	0	0
23.13469	0.05428871	-0.06349409	0	-0.002397482	0	-0.07251059
23.15126	0.05428871	-0.06349409	0	0	0	0.07355008
23.16817	0.05428871	-0.06349409	0	0	0	0
23.18439	0.05423623	-0.06357096	-0.00323538	-0.004739038	-0.09764958	-0.1430327
23.20096	0.05423623	-0.06357096	0	0	0.09867777	0.1445387
23.2177	0.05423623	-0.06357096	0	0	0	0
23.26727	0.05418376	-0.06364784	-0.001058754	-0.001551075	-0.01596698	-0.02339163
23.28392	0.05418376	-0.06364784	0	0	0.01598905	0.02342397
23.3004	0.05413128	-0.06368627	-0.003184453	-0.002331995	-0.09610697	-0.07037976
23.31697	0.05413128	-0.06368627	0	0	0.09636214	0.07056661
23.33354	0.05413128	-0.06368627	0	0	0	0
23.3501	0.05386889	-0.0639169	-0.01583794	-0.01392102	-0.47799	-0.4201372
23.36697	0.05386889	-0.0639169	0	0	0.4737359	0.4163979
23.38324	0.05386889	-0.0639169	0	0	0	0
23.3998	0.05381641	-0.06403222	-0.003167588	-0.006960734	-0.09646985	-0.2119913
23.4165	0.05381641	-0.06403222	0	0	0.09522526	0.2092563
23.43294	0.05381641	-0.06403222	0	0	0	0
23.4495	0.05376393	-0.0641091	-0.003167813	-0.004640639	-0.09598604	-0.1406133
23.46607	0.05376393	-0.0641091	0	0	0.09560479	0.1400548
23.48264	0.05376393	-0.0641091	0	0	0	0
23.4992	0.05376393	-0.0641091	0	0	0	0
23.51577	0.05376393	-0.0641091	0	0	0	0
23.53259	0.05376393	-0.0641091	0	0	0	0
23.55162	0.05376393	-0.0641091	0	0	0	0
23.56825	0.05376393	-0.0641091	0	0	0	0
23.58476	0.05376393	-0.0641091	0	0	0	0
23.60132	0.05376393	-0.0641091	0	0	0	0
23.61829	0.05376393	-0.0641091	0	0	0	0
23.63446	0.05376393	-0.0641091	0	0	0	0
23.65102	0.05376393	-0.0641091	0	0	0	0
23.66783	0.05376393	-0.0641091	0	0	0	0
23.68433	0.05376393	-0.0641091	0	0	0	0
23.70072	0.05376393	-0.0641091	0	0	0	0
23.71737	0.05376393	-0.0641091	0	0	0	0
23.73386	0.05376393	-0.0641091	0	0	0	0
23.75087	0.05376393	-0.0641091	0	0	0	0
23.76699	0.05376393	-0.0641091	0	0	0	0
23.78391	0.05376393	-0.0641091	0	0	0	0
23.80012	0.05376393	-0.0641091	0	0	0	0
23.81669	0.05376393	-0.0641091	0	0	0	0
23.83347	0.05376393	-0.0641091	0	0	0	0
23.84997	0.05376393	-0.0641091	0	0	0	0
23.86649	0.05376393	-0.0641091	0	0	0	0
23.88298	0.05376393	-0.0641091	0	0	0	0
23.89952	0.05376393	-0.0641091	0	0	0	0
23.91609	0.05376393	-0.0641091	0	0	0	0
23.93266	0.05376393	-0.0641091	0	0	0	0
23.94954	0.05376393	-0.0641091	0	0	0	0
23.96579	0.05376393	-0.0641091	0	0	0	0
23.98236	0.05376393	-0.0641091	0	0	0	0
23.99892	0.05376393	-0.0641091	0	0	0	0
24.0156	0.05376393	-0.0641091	0	0	0	0
24.03205	0.05376393	-0.0641091	0	0	0	0
24.04862	0.05376393	-0.0641091	0	0	0	0
24.06519	0.05376393	-0.0641091	0	0	0	0
24.08472	0.05376393	-0.0641091	0	0	0	0
24.09832	0.05376393	-0.0641091	0	0	0	0
24.11489	0.05376393	-0.0641091	0	0	0	0
24.13145	0.05376393	-0.0641091	0	0	0	0
24.14817	0.05376393	-0.0641091	0	0	0	0
24.16469	0.05376393	-0.0641091	0	0	0	0
24.18115	0.05376393	-0.0641091	0	0	0	0
24.19772	0.05376393	-0.0641091	0	0	0	0
24.21429	0.05376393	-0.0641091	0	0	0	0
24.23125	0.05376393	-0.0641091	0	0	0	0
24.24775	0.05376393	-0.0641091	0	0	0	0
24.26426	0.05376393	-0.0641091	0	0	0	0
24.28055	0.05376393	-0.0641091	0	0	0	0
24.29729	0.05376393	-0.0641091	0	0	0	0
24.31369	0.05376393	-0.0641091	0	0	0	0
24.33032	0.05376393	-0.0641091	0	0	0	0
24.34682	0.05376393	-0.0641091	0	0	0	0
24.36339	0.05376393	-0.0641091	0	0	0	0
24.38034	0.05376393	-0.0641091	0	0	0	0
24.39685	0.05376393	-0.0641091	0	0	0	0
24.41309	0.05376393	-0.0641091	0	0	0	0
24.42965	0.05376393	-0.0641091	0	0	0	0
24.44641	0.05376393	-0.0641091	0	0	0	0
24.46279	0.05376393	-0.0641091	0	0	0	0
24.47939	0.05376393	-0.0641091	0	0	0	0
24.49592	0.05376393	-0.0641091	0	0	0	0
24.51249	0.05376393	-0.0641091	0	0	0	0
24.52905	0.05376393	-0.0641091	0	0	0	0
24.54598	0.05376393	-0.0641091	0	0	0	0
24.56219	0.05376393	-0.0641091	0	0	0	0
24.579	0.05376393	-0.0641091	0	0	0	0
24.59532	0.05376393	-0.0641091	0	0	0	0
24.61189	0.05376393	-0.0641091	0	0	0	0
24.62846	0.05376393	-0.0641091	0	0	0	0
24.64979	0.05376393	-0.0641091	0	0	0	0
24.66652	0.05376393	-0.0641091	0	0	0	0
24.68292	0.05376393	-0.0641091	0	0	0	0
24.69954	0.05376393	-0.0641091	0	0	0	0
24.71605	0.05376393	-0.0641091	0	0	0	0
24.73262	0.05376393	-0.0641091	0	0	0	0
24.74957	0.05376393	-0.0641091	0	0	0	0
24.76575	0.05376393	-0.0641091	0	0	0	0
24.7826	0.05376393	-0.0641091	0	0	0	0
24.79889	0.05376393	-0.0641091	0	0	0	0
24.81562	0.05376393	-0.0641091	0	0	0	0
24.83212	0.05376393	-0.0641091	0	0	0	0
24.84863	0.05376393	-0.0641091	0	0	0	0
24.86515	0.05376393	-0.0641091	0	0	0	0
24.88172	0.05376393	-0.0641091	0	0	0	0
24.89829	0.05376393	-0.0641091	0	0	0	0
24.91757	0.05376393	-0.0641091	0	0	0	0
24.93142	0.05376393	-0.0641091	0	0	0	0
24.94833	0.05376393	-0.0641091	0	0	0	0
24.96455	0.05376393	-0.0641091	0	0	0	0
24.98135	0.05371145	-0.0641091	-0.003123714	0	-0.09457876	0
24.99785	0.05371145	-0.0641091	0	0	0.09380947	0
25.01425	0.05371145	-0.0641091	0	0	0	0
25.03089	0.05352776	-0.06397456	-0.01104009	0.00808656	-0.3341524	0.2447573
25.04739	0.05352776	-0.06397456	0	0	0.3331907	-0.2440529
25.06396	0.05352776	-0.06397456	0	0	0	0
25.08052	0.05153328	-0.06243737	-0.1204011	0.09279559	-3.633922	2.800738
25.09742	0.05153328	-0.06243737	0	0	3.597473	-2.772646
25.11397	0.05153328	-0.06243737	0	0	0	0
25.13022	0.02536298	-0.04313862	-1.61042	1.187571	-49.10286	36.2099
25.14697	0.02536298	-0.04313862	0	0	48.79355	-35.98181
25.16349	0.02536298	-0.04313862	0	0	0	0
25.17992	-0.009710222	-0.01712563	-2.134718	1.583271	-64.79517	48.05709
25.19649	-0.009710222	-0.01712563	0	0	64.68656	-47.97654
25.21306	-0.009710222	-0.01712563	0	0	0	0
25.22962	-0.03698313	0.002512858	-1.646385	1.185518	-49.69373	35.78312
25.24619	-0.03698313	0.002512858	0	0	49.69087	-35.78106
25.26307	-0.03698313	0.002512858	0	0	0	0
25.27957	-0.04961714	0.01154789	-0.7654101	0.5473722	-22.92723	16.39609
25.29657	-0.04961714	0.01154789	0	0	22.84891	-16.34007
25.3126	-0.04961714	0.01154789	0	0	0	0
25.32902	-0.06459422	0.02220542	-0.9117867	0.6488171	-28.09349	19.99101
25.34562	-0.06459422	0.02220542	0	0	27.60836	-19.6458
25.36216	-0.06459422	0.02220542	0	0	0	0
25.37872	-0.07760698	0.03148821	-0.7855417	0.5603753	-23.73092	16.92873
25.39529	-0.07760698	0.03148821	0	0	23.7077	-16.91216
25.41254	-0.07760698	0.03148821	0	0	0	0
25.42842	-0.08320221	0.03544066	-0.352205	0.2487961	-10.63079	7.509545
25.44507	-0.08320221	0.03544066	0	0	10.82587	-7.647347
25.46787	-0.08320221	0.03544066	0	0	0	0
25.47987	-0.08477005	0.03652126	-0.1306622	0.09005579	-3.755119	2.588125
25.49644	-0.08477005	0.03652126	0	0	4.573684	-3.152302
25.513	-0.08477005	0.03652126	0	0	0	0
25.52962	-0.08477005	0.03652126	0	0	0	0
25.54663	-0.08477005	0.03652126	0	0	0	0
25.5627	-0.08477005	0.03652126	0	0	0	0
25.57927	-0.08490068	0.0366144	-0.007888079	0.005623866	-0.2417081	0.1723276
25.59615	-0.08490068	0.0366144	0	0	0.2358363	-0.1681413
25.61267	-0.08490068	0.0366144	0	0	0	0
25.62897	-0.08539706	0.03696831	-0.03045239	0.021712	-0.9280295	0.6616684
25.64569	-0.08539706	0.03696831	0	0	0.9219738	-0.6573507
25.6621	-0.08539706	0.03696831	0	0	0	0
25.6787	-0.09815722	0.045991	-0.7688767	0.543672	-23.29728	16.47349
25.69572	-0.09815722	0.045991	0	0	22.87295	-16.17344
25.7118	-0.09815722	0.045991	0	0	0	0
25.72837	-0.1082073	0.05252605	-0.6066218	0.3944566	-18.57845	12.08066
25.74563	-0.1082073	0.05252605	0	0	17.93215	-11.6604
25.76164	-0.1082073	0.05252605	0	0	0	0
25.77815	-0.1191695	0.05990195	-0.6638216	0.4466498	-20.41133	13.73369
25.79464	-0.1191695	0.05990195	0	0	20.11755	-13.53602
25.8112	-0.1191695	0.05990195	0	0	0	0
25.82777	-0.1393282	0.07433654	-1.216783	0.8712739	-36.7226	26.2951
25.84434	-0.1393282	0.07433654	0	0	36.7226	-26.2951
25.8609	-0.1393282	0.07433654	0	0	0	0
25.87747	-0.1569356	0.08693757	-1.062908	0.760687	-32.08049	22.9589
25.89404	-0.1569356	0.08693757	0	0	32.08049	-22.9589
25.9106	-0.1569356	0.08693757	0	0	0	0
25.92774	-0.1652426	0.09285701	-0.4848281	0.3454851	-14.38619	10.2515
25.94376	-0.1652426	0.09285701	0	0	14.62204	-10.41956
25.9603	-0.1652426	0.09285701	0	0	0	0
25.97687	-0.1720453	0.08859286	-0.4106159	-0.2573844	-12.40169	-7.773693
25.99378	-0.1720453	0.08859286	0	0	12.26463	7.687776
26.01001	-0.1720453	0.08859286	0	0	0	0
26.03019	-0.1909603	0.08460069	-0.9371457	-0.1977931	-25.74183	-5.433047
26.04676	-0.1909603	0.08460069	0	0	25.49869	5.381731
26.06333	-0.1930396	0.08309118	-0.1255073	-0.09111466	-3.787599	-2.749687
26.08009	-0.1930396	0.08309118	0	0	3.765276	2.733481
26.09646	-0.1930396	0.08309118	0	0	0	0
26.11309	-0.1930396	0.08309118	0	0	0	0
26.12959	-0.1930396	0.08309118	0	0	0	0
26.14616	-0.1930396	0.08309118	0	0	0	0
26.16272	-0.1930903	0.08305435	-0.003060233	-0.002223212	-0.09236334	-0.06710052
26.17929	-0.1930903	0.08305435	0	0	0.09235802	0.06709667
26.19586	-0.1930903	0.08305435	0	0	0	0
26.21269	-0.1931916	0.0829807	-0.00602542	-0.004376931	-0.180435	-0.1310699
26.22899	-0.1931916	0.0829807	0	0	0.1818475	0.132096
26.24556	-0.1931916	0.0829807	0	0	0	0
26.26269	-0.1931916	0.0829807	0	0	0	0
26.27869	-0.1931916	0.0829807	0	0	0	0
26.29589	-0.1931916	0.0829807	0	0	0	0
26.31183	-0.1986351	0.07902021	-0.3415454	-0.2484966	-10.30845	-7.500074
26.32839	-0.1986351	0.07902021	0	0	10.50746	7.644865
26.34496	-0.1986351	0.07902021	0	0	0	0
26.36153	-0.2219906	0.06188258	-1.409903	-1.034549	-42.55341	-31.22454
26.3781	-0.2219906	0.06188258	0	0	42.55096	31.22274
26.39466	-0.2219906	0.06188258	0	0	0	0
26.41123	-0.2353708	0.05195097	-0.8077217	-0.5995424	-24.37849	-18.09527
26.42796	-0.2353708	0.05195097	0	0	24.257	18.00509
26.4445	-0.2353708	0.05195097	0	0	0	0
26.46098	-0.2504201	0.04067302	-0.9130039	-0.684204	-27.64841	-20.71969
26.4775	-0.2504201	0.04067302	0	0	27.66439	20.73166
26.49453	-0.2504201	0.04067302	0	0	0	0
26.51072	-0.2616995	0.03210374	-0.6967041	-0.5293089	-20.97466	-15.93513
26.52729	-0.2616995	0.03210374	0	0	21.26775	16.1578
26.54404	-0.2616995	0.03210374	0	0	0	0
26.56042	-0.2617977	0.03202913	-0.005997438	-0.004554941	-0.1810135	-0.1374763
26.57699	-0.2617977	0.03202913	0	0	0.1820405	0.1382563
26.59356	-0.2617977	0.03202913	0	0	0	0
26.61012	-0.2618223	0.03204778	-0.001482441	0.001125774	-0.04474273	0.03397787
26.62704	-0.2618223	0.03204778	0	0	0.04427377	-0.03362174
26.64325	-0.2618223	0.03204778	0	0	0	0
26.65982	-0.2617977	0.03202913	0.00148227	-0.001125644	0.04521653	-0.03433767
26.67658	-0.2617977	0.03202913	0	0	-0.04448152	0.0337795
26.69296	-0.2617977	0.03202913	0	0	0	0
26.7096	-0.2617731	0.03201048	0.001475476	-0.001120708	0.04468169	-0.03393829
26.72609	-0.2617731	0.03201048	0	0	-0.04452994	0.03382303
26.74266	-0.2617731	0.03201048	0	0	0	0
26.75922	-0.2617731	0.03201048	0	0	0	0
26.77579	-0.2617731	0.03201048	0	0	0	0
26.79236	-0.2617731	0.03201048	0	0	0	0
26.80917	-0.2617731	0.03201048	0	0	0	0
26.82549	-0.2617731	0.03201048	0	0	0	0
26.84226	-0.2617731	0.03201048	0	0	0	0
26.85862	-0.261724	0.03201048	0.003001515	0	0.09059113	0
26.87519	-0.261724	0.03201048	0	0	-0.09114732	0
26.89179	-0.261724	0.03201048	0	0	0	0
26.90833	-0.2616995	0.03199183	0.00148552	-0.001128112	0.04483308	-0.03404647
26.92489	-0.2616995	0.03199183	0	0	-0.04488216	0.03408375
26.94181	-0.2616995	0.03199183	0	0	0	0
26.95802	-0.2616749	0.03197318	0.001514884	-0.001150641	0.04572192	-0.03472841
26.97486	-0.2616749	0.03197318	0	0	-0.04583538	0.03481459
26.99116	-0.2616749	0.03197318	0	0	0	0
27.00772	-0.2616504	0.03195453	0.00148227	-0.001125869	0.04510892	-0.0342628
27.02429	-0.2616504	0.03195453	0	0	-0.04473501	0.03397879
27.04086	-0.2616504	0.03195453	0	0	0	0
27.05742	-0.2616258	0.03189857	0.001482441	-0.003377771	0.04474273	-0.1019472
27.07399	-0.2616258	0.03189857	0	0	-0.04474273	0.1019472
27.09056	-0.2616258	0.03189857	0	0	0	0
27.10927	-0.260889	0.03122705	0.03937385	-0.03588516	1.116032	-1.017147
27.12584	-0.260889	0.03122705	0	0	-1.116032	1.017147
27.14241	-0.260889	0.03122705	0	0	0	0
27.15897	-0.2730087	0.02003533	-0.7316314	-0.6756114	-22.08068	-20.38999
27.17554	-0.2730087	0.02003533	0	0	22.08068	20.38999
27.1925	-0.2730087	0.02003533	0	0	0	0
27.20867	-0.2965913	0.001703976	-1.45837	-1.133629	-44.01877	-34.21694
27.22551	-0.2965913	0.001703976	0	0	44.18922	34.34944
27.24202	-0.2965913	0.001703976	0	0	0	0
27.25837	-0.2988521	-6.495966E-05	-0.1382289	-0.1081553	-4.205648	-3.290652
27.27494	-0.2988521	-6.495966E-05	0	0	4.198583	3.285124
27.29157	-0.2988521	-6.495966E-05	0	0	0	0
27.30807	-0.2988521	-6.495966E-05	0	0	0	0
27.32511	-0.2988521	-6.495966E-05	0	0	0	0
27.34161	-0.2988521	-6.495966E-05	0	0	0	0
27.35777	-0.298203	-0.0005732315	0.0401625	-0.03145059	1.229517	-0.9628148
27.37434	-0.298203	-0.0005732315	0	0	-1.227153	0.9609631
27.39091	-0.298203	-0.0005732315	0	0	0	0
27.40747	-0.2957487	-0.002456397	0.1481613	-0.1136812	4.471518	-3.430905
27.42404	-0.2957487	-0.002456397	0	0	-4.471776	3.431103
27.44061	-0.2957487	-0.002456397	0	0	0	0
27.45752	-0.2955319	-0.002588259	0.01281613	-0.007796709	0.3828031	-0.2328788
27.47374	-0.2955319	-0.002588259	0	0	-0.3868138	0.2353187
27.49031	-0.2955319	-0.002588259	0	0	0	0
27.50708	-0.2874201	-0.008923839	0.4835649	-0.3776769	14.50302	-11.32724
27.5236	-0.2874201	-0.008923839	0	0	-14.52379	11.34346
27.54001	-0.2874201	-0.008923839	0	0	0	0
27.55661	-0.2759833	-0.01786368	0.6891323	-0.5386797	20.88099	-16.32222
27.57314	-0.2759833	-0.01786368	0	0	-20.79806	16.25739
27.58971	-0.2759833	-0.01786368	0	0	0	0
27.60628	-0.2615521	-0.02908828	0.8711697	-0.6775961	26.29347	-20.45107
27.62284	-0.2615521	-0.02908828	0	0	-26.29347	20.45107
27.63967	-0.2615521	-0.02908828	0	0	0	0
27.65598	-0.1855767	-0.08705699	4.658284	-3.554239	140.5954	-107.2733
27.67292	-0.1855767	-0.08705699	0	0	-140.1034	106.8979
27.68911	-0.1855767	-0.08705699	0	0	0	0
27.70591	-0.104981	-0.1483664	4.797928	-3.649799	145.4212	-110.6224
27.72242	-0.104981	-0.1483664	0	0	-144.0472	109.5771
27.73894	-0.104981	-0.1483664	0	0	0	0
27.75545	-0.03551138	-0.2016864	4.206273	-3.228437	127.334	-97.7326
27.77198	-0.03551138	-0.2016864	0	0	-127.2826	97.69312
27.78851	-0.03551138	-0.2016864	0	0	0	0
27.80508	0.02502109	-0.2490095	3.653747	-2.856431	110.4101	-86.31657
27.82164	0.02502109	-0.2490095	0	0	-110.2703	86.20727
27.83821	0.02502109	-0.2490095	0	0	0	0
27.85503	0.07504302	-0.2883199	2.974132	-2.33726	89.0826	-70.00671
27.87134	0.07504302	-0.2883199	0	0	-89.76466	70.54272
27.88803	0.07504302	-0.2883199	0	0	0	0
27.90448	0.1243032	-0.3090208	2.996114	-1.259076	90.42812	-38.00117
27.92106	0.1243032	-0.3090208	0	0	-90.72581	38.12628
27.93761	0.1243032	-0.3090208	0	0	0	0
27.95453	0.2061351	-0.2888086	4.836377	1.194572	144.4982	35.69066
27.97111	0.2061351	-0.2888086	0	0	-144.383	-35.66221
27.98811	0.2061351	-0.2888086	0	0	0	0
28.00423	0.2812376	-0.2431295	4.659804	2.834201	140.6736	85.56098
28.0208	0.2812376	-0.2431295	0	0	-142.57	-86.71438
28.03736	0.2812376	-0.2431295	0	0	0	0
28.05464	0.3311785	-0.2030696	2.890637	2.318715	85.41064	68.51186
28.07067	0.3311785	-0.2030696	0	0	-86.7999	-69.62626
28.08706	0.3311785	-0.2030696	0	0	0	0
28.10363	0.3795305	-0.1604114	2.918535	2.57485	88.53513	78.1093
28.1202	0.3795305	-0.1604114	0	0	-88.07648	-77.70466
28.13722	0.3795305	-0.1604114	0	0	0	0
28.15333	0.4323978	-0.1113169	3.280198	3.046117	99.00227	91.93728
28.17024	0.4323978	-0.1113169	0	0	-99.31673	-92.22929
28.18647	0.4323978	-0.1113169	0	0	0	0
28.20303	0.4558915	-0.06537797	1.418248	2.773197	43.25347	84.57647
28.21978	0.4558915	-0.06537797	0	0	-42.57977	-83.25912
28.23617	0.4558915	-0.06537797	0	0	0	0
28.25273	0.43294	0.001628721	-1.385354	4.044531	-42.03511	122.7212
28.2693	0.43294	0.001628721	0	0	41.81007	-122.0642
28.28587	0.43294	0.001628721	0	0	0	0
28.30243	0.3799618	0.06500887	-3.197772	3.825634	-96.50893	115.4578
28.319	0.3799618	0.06500887	0	0	96.50893	-115.4578
28.33557	0.3799618	0.06500887	0	0	0	0
28.35214	0.3134463	0.1175552	-4.014885	3.171704	-121.1695	95.72221
28.36888	0.3134463	0.1175552	0	0	120.5243	-95.21249
28.38527	0.3134463	0.1175552	0	0	0	0
28.40191	0.2416322	0.171232	-4.316812	3.226566	-130.7105	97.69852
28.41842	0.2416322	0.171232	0	0	130.2292	-97.33874
28.43497	0.2416322	0.171232	0	0	0	0
28.45154	0.1809463	0.21477	-3.663429	2.62826	-110.6198	79.36216
28.4681	0.1809463	0.21477	0	0	110.5689	-79.32561
28.48496	0.1809463	0.21477	0	0	0	0
28.50529	0.1360749	0.2461841	-2.206899	1.545029	-59.34203	41.54478
28.52186	0.1360749	0.2461841	0	0	59.80827	-41.87119
28.53843	0.1043564	0.2678101	-1.914536	1.305349	-57.7808	39.39553
28.55502	0.1043564	0.2678101	0	0	57.74091	-39.36833
28.57156	0.1043564	0.2678101	0	0	0	0
28.58813	0.05662362	0.2948204	-2.881154	1.630348	-87.01351	49.23801
28.6047	0.05662362	0.2948204	0	0	86.95341	-49.204
28.62157	0.05662362	0.2948204	0	0	0	0
28.63783	-0.03272516	0.3004325	-5.494955	0.345143	-165.8476	10.41704
28.65457	-0.03272516	0.3004325	0	0	166.5186	-10.45918
28.6711	-0.03272516	0.3004325	0	0	0	0
28.68759	-0.1322499	0.2976981	-6.034418	-0.1657909	-182.7397	-5.02063
28.7041	-0.1322499	0.2976981	0	0	182.8665	5.024113
28.72113	-0.1322499	0.2976981	0	0	0	0
28.73723	-0.1820156	0.2916385	-3.091785	-0.3764683	-93.31564	-11.36249
28.75414	-0.1820156	0.2916385	0	0	93.66613	11.40517
28.77036	-0.1820156	0.2916385	0	0	0	0
28.7881	-0.2150689	0.2780647	-1.86338	-0.7652234	-54.8693	-22.53285
28.80467	-0.2150689	0.2780647	0	0	54.31713	22.3061
28.82124	-0.2150689	0.2780647	0	0	0	0
28.83785	-0.2529625	0.2589097	-2.280701	-1.152878	-68.73279	-34.74392
28.85486	-0.2529625	0.2589097	0	0	67.8321	34.28863
28.87094	-0.2529625	0.2589097	0	0	0	0
28.8875	-0.296158	0.226906	-2.607583	-1.931967	-79.87873	-59.18242
28.90407	-0.296158	0.226906	0	0	78.70155	58.31023
28.92141	-0.296158	0.226906	0	0	0	0
28.9372	-0.3122551	0.2070119	-1.019019	-1.259388	-30.75583	-38.01059
28.95377	-0.3122551	0.2070119	0	0	31.48629	38.91336
28.97045	-0.3122551	0.2070119	0	0	0	0
28.98696	-0.3204553	0.177835	-0.4965065	-1.766613	-14.9579	-53.22151
29.00347	-0.3204553	0.177835	0	0	15.03653	53.50127
29.02003	-0.3204553	0.177835	0	0	0	0
29.03697	-0.3217111	0.1589847	-0.07415496	-1.113076	-2.21341	-33.22359
29.05317	-0.3217111	0.1589847	0	0	2.23813	33.59463
29.07	-0.3217111	0.1589847	0	0	0	0
29.0863	-0.3208345	0.1378181	0.05377882	-1.298546	1.623141	-39.19246
29.10302	-0.3208345	0.1378181	0	0	-1.628673	39.32602
29.11943	-0.3208345	0.1378181	0	0	0	0
29.13603	-0.3216874	0.1076585	-0.05138725	-1.817092	-1.556605	-55.04273
29.15257	-0.3216874	0.1076585	0	0	1.55087	54.83995
29.16913	-0.3216874	0.1076585	0	0	0	0
29.1857	-0.3236993	0.0677632	-0.1214522	-2.408362	-3.666068	-72.69705
29.20226	-0.3236993	0.0677632	0	0	3.665646	72.68868
29.2191	-0.3236993	0.0677632	0	0	0	0
29.2354	-0.3281866	0.003321545	-0.2753899	-3.954815	-8.311764	-119.3634
29.25215	-0.3281866	0.003321545	0	0	8.333832	119.6804
29.26865	-0.3281866	0.003321545	0	0	0	0
29.28516	-0.3262044	-0.05049461	0.1200612	-3.259608	3.637064	-98.74464
29.30167	-0.3262044	-0.05049461	0	0	-3.636223	98.72182
29.31823	-0.3262044	-0.05049461	0	0	0	0
29.3348	-0.327597	-0.1166039	-0.08406376	-3.990825	-2.537195	-120.4503
29.35137	-0.327597	-0.1166039	0	0	2.537195	120.4503
29.36793	-0.327597	-0.1166039	0	0	0	0
29.38482	-0.3156118	-0.1902482	0.7097004	-4.360831	21.21365	-130.3496
29.40107	-0.3156118	-0.1902482	0	0	-21.42003	131.6177
29.41784	-0.3156118	-0.1902482	0	0	0	0
29.4342	-0.2520002	-0.2637349	3.889756	-4.493612	117.3998	-135.6253
29.45087	-0.2520002	-0.2637349	0	0	-117.7659	136.0482
29.46738	-0.2520002	-0.2637349	0	0	0	0
29.4839	-0.1790869	-0.3256649	4.413764	-3.74889	133.6539	-113.5208
29.50047	-0.1790869	-0.3256649	0	0	-133.3996	113.3048
29.51742	-0.1790869	-0.3256649	0	0	0	0
29.5336	-0.09484614	-0.3979616	5.208302	-4.469844	157.1959	-134.9079
29.55046	-0.09484614	-0.3979616	0	0	-157.6497	135.2974
29.56673	-0.09484614	-0.3979616	0	0	0	0
29.5833	-0.04483835	-0.4418888	3.018477	-2.651451	91.91794	-80.74135
29.59997	-0.04483835	-0.4418888	0	0	-90.82594	79.78213
29.61643	-0.04483835	-0.4418888	0	0	0	0
29.63627	0.0001842105	-0.4820867	2.269255	-2.026078	62.50291	-55.80502
29.65302	0.0001842105	-0.4820867	0	0	-62.02069	55.37447
29.66954	0.0001842105	-0.4820867	0	0	0	0
29.68604	0.04118722	-0.5193218	2.484098	-2.255828	75.22572	-68.31304
29.70254	0.04118722	-0.5193218	0	0	-75.26485	68.34857
29.71955	0.04118722	-0.5193218	0	0	0	0
29.73567	0.08445651	-0.5521725	2.68373	-2.037527	80.9998	-61.49623
29.75224	0.08445651	-0.5521725	0	0	-82.09624	62.32867
29.76881	0.08445651	-0.5521725	0	0	0	0
29.78537	0.1379859	-0.5367542	3.231043	0.9306499	97.51868	28.08869
29.80194	0.1379859	-0.5367542	0	0	-97.51308	-28.08707
29.81914	0.1379859	-0.5367542	0	0	0	0
29.83513	0.2071434	-0.4932527	4.324717	2.720336	130.2952	81.95837
29.85164	0.2071434	-0.4932527	0	0	-133.071	-83.70441
29.86821	0.2071434	-0.4932527	0	0	0	0
29.88765	0.2458206	-0.4576373	1.989208	1.831738	55.23929	50.86642
29.90422	0.2458206	-0.4576373	0	0	-55.23929	-50.86642
29.9212	0.2458206	-0.4576373	0	0	0	0
29.93735	0.283592	-0.4221348	2.338303	2.197845	70.57012	66.33109
29.95392	0.283592	-0.4221348	0	0	-71.46279	-67.17014
29.97073	0.283592	-0.4221348	0	0	0	0
29.98724	0.3499516	-0.3589132	4.019358	3.829286	120.6309	114.9264
30.00362	0.3499516	-0.3589132	0	0	-122.2049	-116.4259
30.02019	0.3499516	-0.3589132	0	0	0	0
30.03675	0.4131391	-0.2963458	3.814004	3.776578	115.1069	113.9774
30.05332	0.4131391	-0.2963458	0	0	-115.1135	-113.9839
30.07028	0.4131391	-0.2963458	0	0	0	0
30.08645	0.4411914	-0.249509	1.734784	2.896434	52.3589	87.41959
30.10302	0.4411914	-0.249509	0	0	-52.99036	-88.47388
30.11959	0.4411914	-0.249509	0	0	0	0
30.13615	0.445679	-0.2140449	0.2708999	2.140867	8.176246	64.61521
30.16005	0.445679	-0.2140449	0	0	-6.695402	-52.91241
30.16929	0.445679	-0.2140449	0	0	0	0
30.18585	0.4371601	-0.1789097	-0.5142021	2.120761	-19.92535	82.17957
30.20242	0.4371601	-0.1789097	0	0	15.51865	-64.00469
30.21899	0.4371601	-0.1789097	0	0	0	0
30.23555	0.4291387	-0.1444377	-0.4842275	2.080976	-14.61486	62.80758
30.25212	0.4291387	-0.1444377	0	0	14.61486	-62.80758
30.26869	0.4291387	-0.1444377	0	0	0	0
30.28544	0.4256516	-0.1285504	-0.2082052	0.948584	-6.24947	28.47262
30.30182	0.4256516	-0.1285504	0	0	6.284008	-28.62997
30.31849	0.4256516	-0.1285504	0	0	0	0
30.33497	0.4247999	-0.1247913	-0.05168603	0.2281338	-1.559169	6.881922
30.35152	0.4247999	-0.1247913	0	0	1.564932	-6.907357
30.36809	0.4247999	-0.1247913	0	0	0	0
30.38465	0.4249528	-0.1246143	0.009231074	0.01068428	0.2786104	0.3224708
30.40122	0.4249528	-0.1246143	0	0	-0.2786104	-0.3224708
30.41779	0.4249528	-0.1246143	0	0	0	0
30.43435	0.4249091	-0.1246143	-0.00263745	0	-0.07960297	0
30.45092	0.4249091	-0.1246143	0	0	0.07960297	0
30.46758	0.4249091	-0.1246143	0	0	0	0
30.48405	0.4249091	-0.1246143	0	0	0	0
30.50062	0.4249091	-0.1246143	0	0	0	0
30.51762	0.4249091	-0.1246143	0	0	0	0
30.53412	0.4248873	-0.124634	-0.001323755	-0.001191921	-0.03951202	-0.03557699
30.55032	0.4248873	-0.124634	0	0	0.04047995	0.03644852
30.56712	0.4248873	-0.124634	0	0	0	0
30.58345	0.4248873	-0.124634	0	0	0	0
30.60002	0.4248873	-0.124634	0	0	0	0
30.61667	0.4248873	-0.124634	0	0	0	0
30.63315	0.4249091	-0.1246536	0.001325286	-0.001192848	0.03999952	-0.0360023
30.64972	0.4249091	-0.1246536	0	0	-0.04009416	0.03608748
30.6667	0.4249091	-0.1246536	0	0	0	0
30.68285	0.4249091	-0.1246536	0	0	0	0
30.69942	0.4249091	-0.1246536	0	0	0	0
30.71599	0.4249091	-0.1246536	0	0	0	0
30.73255	0.4248873	-0.1246733	-0.001318573	-0.001186806	-0.0397969	-0.03581993
30.74912	0.4248873	-0.1246733	0	0	0.03979461	0.03581787
30.76569	0.4248873	-0.1246733	0	0	0	0
30.78225	0.4248655	-0.124693	-0.001318725	-0.001187392	-0.03980149	-0.03583762
30.79882	0.4248655	-0.124693	0	0	0.03979919	0.03583556
30.81539	0.4248655	-0.124693	0	0	0	0
30.83195	0.424647	-0.1247323	-0.01318905	-0.002374334	-0.3980692	-0.07166167
30.84885	0.424647	-0.1247323	0	0	0.3941663	0.07095907
30.86509	0.424647	-0.1247323	0	0	0	0
30.88167	0.4236196	-0.1243194	-0.06197683	0.02491128	-1.88862	0.7591214
30.89839	0.4236196	-0.1243194	0	0	1.861357	-0.7481631
30.91538	0.4236196	-0.1243194	0	0	0	0
30.93136	0.4231384	-0.124516	-0.0301286	-0.01231117	-0.9138067	-0.3734004
30.94792	0.4231384	-0.124516	0	0	0.9259122	0.378347
30.9645	0.4231384	-0.124516	0	0	0	0
30.98209	0.404231	-0.1183295	-1.074805	0.3516764	-31.45624	10.29249
30.99866	0.404231	-0.1183295	0	0	31.46502	-10.29537
31.01523	0.404231	-0.1183295	0	0	0	0
31.03179	0.2947611	-0.08719265	-6.607615	1.879423	-199.4182	56.7211
31.04836	0.2947611	-0.08719265	0	0	199.4182	-56.7211
31.06493	0.2947611	-0.08719265	0	0	0	0
31.08179	0.1901991	-0.05453391	-6.200022	1.936506	-185.4517	57.92371
31.09806	0.1901991	-0.05453391	0	0	187.1278	-58.44723
31.11463	0.1901991	-0.05453391	0	0	0	0
31.1312	0.1353516	-0.02815768	-3.310605	1.592073	-99.91425	48.04885
31.14776	0.1353516	-0.02815768	0	0	99.92001	-48.05161
31.16433	0.1353516	-0.02815768	0	0	0	0
31.18089	0.1071928	-0.007678383	-1.699861	1.236275	-51.30486	37.31301
31.19746	0.1071928	-0.007678383	0	0	51.30486	-37.31301
31.21403	0.1071928	-0.007678383	0	0	0	0
31.23059	0.0671358	-0.003756406	-2.417846	0.236731	-72.97073	7.144555
31.24716	0.0671358	-0.003756406	0	0	72.97073	-7.144555
31.26373	0.0671358	-0.003756406	0	0	0	0
31.2803	-0.01665635	-0.01890482	-5.057704	-0.9143601	-152.6418	-27.59544
31.29686	-0.01665635	-0.01890482	0	0	152.6418	27.59544
31.31343	-0.01665635	-0.01890482	0	0	0	0
31.33	-0.0817908	-0.03938166	-3.931523	-1.235985	-118.6536	-37.30209
31.34657	-0.0817908	-0.03938166	0	0	118.6536	37.30209
31.36313	-0.0817908	-0.03938166	0	0	0	0
31.3797	-0.09427236	-0.0483528	-0.7533882	-0.5414986	-22.7373	-16.34246
31.39654	-0.09427236	-0.0483528	0	0	22.55295	16.20996
31.41283	-0.09427236	-0.0483528	0	0	0	0
31.4294	-0.09359417	-0.04877339	0.04093558	-0.02538703	1.245692	-0.7725413
31.44597	-0.09359417	-0.04877339	0	0	-1.235438	0.766182
31.46253	-0.09359417	-0.04877339	0	0	0	0
31.4791	-0.09283762	-0.04913668	0.04566526	-0.02192802	1.37818	-0.661789
31.49567	-0.09283762	-0.04913668	0	0	-1.37826	0.6618271
31.51223	-0.09283762	-0.04913668	0	0	0	0
31.53215	-0.0926289	-0.04928965	0.01048177	-0.007682292	0.2873296	-0.2105894
31.54871	-0.0926289	-0.04928965	0	0	-0.2873296	0.2105894
31.56528	-0.0926289	-0.04928965	0	0	0	0
31.58185	-0.09249844	-0.04938526	0.007874561	-0.00577123	0.2376547	-0.1741761
31.59872	-0.09249844	-0.04938526	0	0	-0.2354859	0.1725865
31.61524	-0.09249844	-0.04938526	0	0	0	0
31.63155	-0.09242018	-0.04944263	0.004799995	-0.003518321	0.1462193	-0.1071764
31.64827	-0.09242018	-0.04944263	0	0	-0.1453326	0.1065265
31.66468	-0.09242018	-0.04944263	0	0	0	0
31.68125	-0.09231581	-0.04951913	0.006300374	-0.004617786	0.1910475	-0.140026
31.69782	-0.09231581	-0.04951913	0	0	-0.1901457	0.139365
31.71438	-0.09231581	-0.04951913	0	0	0	0
31.73095	-0.09061955	-0.05072419	0.1023982	-0.07274598	3.090917	-2.195857
31.74785	-0.09061955	-0.05072419	0	0	-3.059562	2.173582
31.76408	-0.09061955	-0.05072419	0	0	0	0
31.78065	-0.05963971	-0.07319602	1.869946	-1.356402	57.01271	-41.35528
31.79737	-0.05963971	-0.07319602	0	0	-56.16352	40.73931
31.81378	-0.05963971	-0.07319602	0	0	0	0
31.83035	-0.002684204	-0.1108083	3.437841	-2.270284	104.2644	-68.85419
31.84691	-0.002684204	-0.1108083	0	0	-103.7543	68.5173
31.86348	-0.002684204	-0.1108083	0	0	0	0
31.88017	0.07768545	-0.1293778	4.815639	-1.112656	144.8028	-33.45678
31.89662	0.07768545	-0.1293778	0	0	-145.3363	33.58003
31.91369	0.07768545	-0.1293778	0	0	0	0
31.92975	0.1515398	-0.1466393	4.599779	-1.07508	138.8216	-32.44598
31.94672	0.1515398	-0.1466393	0	0	-139.2705	32.55091
31.96288	0.1515398	-0.1466393	0	0	0	0
31.97945	0.1763846	-0.1626081	1.499808	-0.9639905	45.82619	-29.45444
31.99627	0.1763846	-0.1626081	0	0	-44.9204	28.87225
32.01278	0.1763846	-0.1626081	0	0	0	0
32.02981	0.1754662	-0.1622885	-0.05392883	0.0187717	-1.607952	0.5597007
32.0458	0.1754662	-0.1622885	0	0	1.633594	-0.5686259
32.06229	0.1754662	-0.1622885	0	0	0	0
32.08295	0.1749304	-0.161869	-0.02592631	0.02029549	-0.6977134	0.5461801
32.09952	0.1749304	-0.161869	0	0	0.6962839	-0.5450609
32.11609	0.1748283	-0.1618291	-0.006162554	0.002411943	-0.1860077	0.07280096
32.13265	0.1748283	-0.1618291	0	0	0.1860077	-0.07280096
32.14922	0.1748283	-0.1618291	0	0	0	0
32.16579	0.1745221	-0.1617891	-0.01848521	0.002411388	-0.5578846	0.07277583
32.18264	0.1745221	-0.1617891	0	0	0.5531088	-0.07215282
32.19892	0.1745221	-0.1617891	0	0	0	0
32.21548	0.1694897	-0.1585758	-0.3037521	0.193958	-9.248176	5.905333
32.23216	0.1694897	-0.1585758	0	0	9.1378	-5.834854
32.24868	0.1694897	-0.1585758	0	0	0	0
32.26519	0.1629373	-0.1537143	-0.396691	0.2943201	-12.0081	8.909267
32.28175	0.1629373	-0.1537143	0	0	11.99425	-8.898992
32.29832	0.1629373	-0.1537143	0	0	0	0
32.31488	0.1614252	-0.1525403	-0.09127385	0.07086296	-2.75465	2.138648
32.33145	0.1614252	-0.1525403	0	0	2.75465	-2.138648
32.34827	0.1614252	-0.1525403	0	0	0	0
32.36831	0.1185468	-0.11986	-2.138975	1.630248	-58.02747	44.2264
32.38488	0.1185468	-0.11986	0	0	58.42044	-44.52591
32.40181	0.07114289	-0.08577813	-2.800688	2.013601	-83.61998	60.11998
32.41801	0.07114289	-0.08577813	0	0	84.52492	-60.7706
32.43484	0.07114289	-0.08577813	0	0	0	0
32.45115	0.01820851	-0.07317673	-3.246708	0.7729015	-97.99712	23.3289
32.46771	0.01820851	-0.07317673	0	0	98.77045	-23.513
32.48428	0.01820851	-0.07317673	0	0	0	0
32.50087	-0.007236716	-0.09072254	-1.533406	-1.057363	-46.241	-31.88557
32.51741	-0.007236716	-0.09072254	0	0	46.27827	31.91126
32.53398	-0.007236716	-0.09072254	0	0	0	0
32.55054	-0.00634202	-0.09243096	0.05400393	-0.1031208	1.630029	-3.11255
32.56711	-0.00634202	-0.09243096	0	0	-1.629842	3.112191
32.58394	-0.00634202	-0.09243096	0	0	0	0
32.60024	-0.006315705	-0.09245038	0.001614019	-0.001190885	0.04871679	-0.03594513
32.61681	-0.006315705	-0.09245038	0	0	-0.04910123	0.03622878
32.63338	-0.006315705	-0.09245038	0	0	0	0
32.65141	-0.006289391	-0.09243096	0.001459317	0.00107676	0.04217765	0.03112085
32.66798	-0.006289391	-0.09243096	0	0	-0.04217765	-0.03112085
32.68454	-0.006289391	-0.09243096	0	0	0	0
32.70148	-0.006289391	-0.09243096	0	0	0	0
32.71767	-0.006289391	-0.09243096	0	0	0	0
32.7345	-0.006289391	-0.09243096	0	0	0	0
32.75101	-0.006263076	-0.09241154	0.001593512	0.001176206	0.04780063	0.03528269
32.76737	-0.006263076	-0.09241154	0	0	-0.04847177	-0.03577807
32.78394	-0.006263076	-0.09241154	0	0	0	0
32.80055	-0.006236761	-0.09243096	0.001584335	-0.001169453	0.04775484	-0.03524951
32.81707	-0.006236761	-0.09243096	0	0	-0.04781532	0.03529415
32.83407	-0.006236761	-0.09243096	0	0	0	0
32.85021	-0.006236761	-0.09243096	0	0	0	0
32.86678	-0.006236761	-0.09243096	0	0	0	0
32.88412	-0.006236761	-0.09243096	0	0	0	0
32.89991	-0.006236761	-0.09243096	0	0	0	0
32.91648	-0.006236761	-0.09243096	0	0	0	0
32.93364	-0.006236761	-0.09243096	0	0	0	0
32.94961	-0.006236761	-0.09243096	0	0	0	0
32.96618	-0.006236761	-0.09243096	0	0	0	0
32.98317	-0.006236761	-0.09243096	0	0	0	0
32.99931	-0.006236761	-0.09243096	0	0	0	0
33.01621	-0.006236761	-0.09243096	0	0	0	0
33.03245	-0.006236761	-0.09243096	0	0	0	0
33.04924	-0.006236761	-0.09243096	0	0	0	0
33.06558	-0.006236761	-0.09243096	0	0	0	0
33.08215	-0.006236761	-0.09243096	0	0	0	0
33.09877	-0.006236761	-0.09243096	0	0	0	0
33.11528	-0.006236761	-0.09243096	0	0	0	0
33.13185	-0.006236761	-0.09243096	0	0	0	0
33.14841	-0.006236761	-0.09243096	0	0	0	0
33.16498	-0.006236761	-0.09243096	0	0	0	0
33.18791	-0.006236761	-0.09243096	0	0	0	0
33.19933	-0.006236761	-0.09243096	0	0	0	0
33.21589	-0.006236761	-0.09243096	0	0	0	0
33.23246	-0.006236761	-0.09243096	0	0	0	0
33.24903	-0.006236761	-0.09243096	0	0	0	0
33.26585	-0.006236761	-0.09243096	0	0	0	0
33.28216	-0.006236761	-0.09243096	0	0	0	0
33.29887	-0.006210446	-0.09241154	0.001575317	0.001162776	0.04770795	0.03521428
33.31529	-0.006210446	-0.09241154	0	0	-0.04754865	-0.03509669
33.33186	-0.006210446	-0.09241154	0	0	0	0
33.34843	-0.0045526	-0.09118836	0.1000678	0.0738311	3.020052	2.228227
33.3654	-0.0045526	-0.09118836	0	0	-2.983302	-2.201112
33.38156	-0.0045526	-0.09118836	0	0	0	0
33.39813	-0.004473655	-0.09113013	0.004765155	0.003514995	0.1456064	0.1074059
33.4147	-0.004473655	-0.09113013	0	0	-0.1438127	-0.1060828
33.4315	-0.004473655	-0.09113013	0	0	0	0
33.4485	-0.00449997	-0.09114954	-0.001547749	-0.00114155	-0.04578862	-0.03377165
33.46447	-0.00449997	-0.09114954	0	0	0.04693268	0.03461546
33.48151	-0.00449997	-0.09114954	0	0	0	0
33.49754	-0.00460523	-0.09114954	-0.006569882	0	-0.1987141	0
33.5141	-0.00460523	-0.09114954	0	0	0.201622	0
33.53156	-0.00460523	-0.09114954	0	0	0	0
33.54723	-0.0045526	-0.09114954	0.003356874	0	0.1013107	0
33.5638	-0.0045526	-0.09114954	0	0	-0.1041032	0
33.58037	-0.0045526	-0.09114954	0	0	0	0
33.59761	0.004210501	-0.08496463	0.5082288	0.3587031	15.03206	10.60948
33.6135	0.004210501	-0.08496463	0	0	-15.33838	-10.82568
33.63013	0.004210501	-0.08496463	0	0	0	0
33.64714	0.03243599	-0.06741703	1.659372	1.031621	49.33589	30.67179
33.6632	0.03243599	-0.06741703	0	0	-50.17238	-31.19183
33.67977	0.03243599	-0.06741703	0	0	0	0
33.69633	0.06420112	-0.08312546	1.917347	-0.9481624	57.86566	-28.6156
33.7129	0.06420112	-0.08312546	0	0	-57.86566	28.6156
33.73304	0.06420112	-0.08312546	0	0	0	0
33.74618	0.0872516	-0.100152	1.754513	-1.295997	52.72066	-38.94288
33.76272	0.0872516	-0.100152	0	0	-59.11762	43.66809
33.77917	0.0872516	-0.100152	0	0	0	0
33.79576	0.08696432	-0.09993778	-0.0173163	0.0129138	-0.524176	0.3909093
33.8123	0.08696432	-0.09993778	0	0	0.522607	-0.3897392
33.82887	0.08696432	-0.09993778	0	0	0	0
33.84544	0.08696432	-0.09993778	0	0	0	0
33.862	0.08696432	-0.09993778	0	0	0	0
33.87879	0.08696432	-0.09993778	0	0	0	0
33.89513	0.08827003	-0.09896419	0.07987985	0.05956142	2.411056	1.797774
33.9117	0.08827003	-0.09896419	0	0	-2.426985	-1.809651
33.92827	0.08827003	-0.09896419	0	0	0	0
33.94484	0.1090655	-0.08351255	1.255216	0.9326628	37.88249	28.14782
33.9614	0.1090655	-0.08351255	0	0	-37.88249	-28.14782
33.97797	0.1090655	-0.08351255	0	0	0	0
33.99454	0.119844	-0.07549167	0.6505917	0.4841411	19.6349	14.61141
34.0111	0.119844	-0.07549167	0	0	-19.6349	-14.61141
34.02767	0.119844	-0.07549167	0	0	0	0
34.04424	0.1197402	-0.07556887	-0.006263222	-0.004659527	-0.1890244	-0.1406248
34.06081	0.1197402	-0.07556887	0	0	0.1890026	0.1406086
34.07737	0.1197402	-0.07556887	0	0	0	0
34.09435	0.1194808	-0.07572328	-0.01528477	-0.009097901	-0.4557856	-0.2712957
34.11087	0.1194808	-0.07572328	0	0	0.4562527	0.2715737
34.12735	0.1194808	-0.07572328	0	0	0	0
34.14388	0.1193252	-0.07580048	-0.009412846	-0.004668577	-0.2851636	-0.1414353
34.16021	0.1193252	-0.07580048	0	0	0.2864547	0.1420756
34.1769	0.1193252	-0.07580048	0	0	0	0
34.19343	0.1191954	-0.07585838	-0.007845848	-0.003502466	-0.2361628	-0.1054255
34.20994	0.1191954	-0.07585838	0	0	0.2374442	0.1059975
34.22647	0.1191954	-0.07585838	0	0	0	0
34.24304	0.1189101	-0.07610932	-0.017226	-0.0151465	-0.5204208	-0.4575964
34.25961	0.1189101	-0.07610932	0	0	0.5198816	0.4571223
34.28174	0.1189101	-0.07610932	0	0	0	0
34.29342	0.1188063	-0.07618653	-0.008882479	-0.006607977	-0.2626609	-0.1954023
34.30999	0.1188063	-0.07618653	0	0	0.3143632	0.2338655
34.32656	0.1188063	-0.07618653	0	0	0	0
34.34312	0.1187025	-0.07626375	-0.006264571	-0.004660876	-0.1890869	-0.1406817
34.35969	0.1187025	-0.07626375	0	0	0.1890651	0.1406655
34.37626	0.1187025	-0.07626375	0	0	0	0
34.39283	0.1185987	-0.07630236	-0.006264571	-0.002330438	-0.1890651	-0.07033277
34.40966	0.1185987	-0.07630236	0	0	0.1875536	0.06977049
34.46995	0.1185987	-0.07630236	0	0	0	0
34.48664	0.1185208	-0.07632166	-0.004665352	-0.001156961	-0.06060727	-0.01503
34.50309	0.1185208	-0.07632166	0	0	0.1408006	0.03491715
34.51966	0.1185208	-0.07632166	0	0	0	0
34.53622	0.1185208	-0.07632166	0	0	0	0
34.55317	0.1185208	-0.07632166	0	0	0	0
34.57031	0.1185208	-0.07632166	0	0	0	0
34.58592	0.118469	-0.07636027	-0.003323605	-0.002472781	-0.1014867	-0.07550667
34.60249	0.118469	-0.07636027	0	0	0.1032792	0.0768403
34.61933	0.118469	-0.07636027	0	0	0	0
34.63586	0.1183652	-0.0764375	-0.006279479	-0.004672084	-0.1881719	-0.1400044
34.65219	0.1183652	-0.0764375	0	0	0.1911213	0.1421989
34.66875	0.1183652	-0.0764375	0	0	0	0
34.68532	0.1183392	-0.0764568	-0.001566368	-0.001165219	-0.04727307	-0.03516638
34.70189	0.1183392	-0.0764568	0	0	0.04727307	0.03516638
34.71846	0.1183392	-0.0764568	0	0	0	0
34.73502	0.1183392	-0.0764568	0	0	0	0
34.75159	0.1183392	-0.0764568	0	0	0	0
34.76845	0.1183392	-0.0764568	0	0	0	0
34.78473	0.1183133	-0.0764375	-0.001594266	0.001185973	-0.04812059	0.03579686
34.80148	0.1183133	-0.0764375	0	0	0.04826508	-0.03590434
34.81786	0.1183133	-0.0764375	0	0	0	0
34.83443	0.1183133	-0.0764375	0	0	0	0
34.85149	0.1183133	-0.0764375	0	0	0	0
34.86756	0.1183133	-0.0764375	0	0	0	0
34.88413	0.1182873	-0.0764568	-0.001566368	-0.001165219	-0.04799695	-0.03570487
34.9007	0.1182873	-0.0764568	0	0	0.04727307	0.03516638
34.91753	0.1182873	-0.0764568	0	0	0	0
34.93404	0.1182354	-0.07653403	-0.003142415	-0.004676401	-0.09424154	-0.140246
34.9504	0.1182354	-0.07653403	0	0	0.09559769	0.1422642
34.96696	0.1182354	-0.07653403	0	0	0	0
34.98357	0.1182095	-0.07651472	-0.00156241	0.001162275	-0.04709399	0.03503317
35.0001	0.1182095	-0.07651472	0	0	0.04715906	-0.03508158
35.01666	0.1182095	-0.07651472	0	0	0	0
35.03323	0.1182095	-0.07651472	0	0	0	0
35.0498	0.1182095	-0.07651472	0	0	0	0
35.06663	0.1182095	-0.07651472	0	0	0	0
35.08293	0.1182095	-0.07651472	0	0	0	0
35.09949	0.1182095	-0.07651472	0	0	0	0
35.11606	0.1182095	-0.07651472	0	0	0	0
35.13582	0.1181835	-0.07649542	-0.001313269	0.0009769396	-0.03615096	0.02689266
35.15239	0.1181835	-0.07649542	0	0	0.03615096	-0.02689266
35.16922	0.1181835	-0.07649542	0	0	0	0
35.18552	0.1181576	-0.07647611	-0.001591283	0.001183754	-0.04802501	0.03572575
35.20209	0.1181576	-0.07647611	0	0	0.04840395	-0.03600765
35.21876	0.1181576	-0.07647611	0	0	0	0
35.23522	0.1181576	-0.07647611	0	0	0	0
35.25179	0.1181576	-0.07647611	0	0	0	0
35.26836	0.1181576	-0.07647611	0	0	0	0
35.28492	0.1181316	-0.07649542	-0.001566368	-0.001165219	-0.04727307	-0.03516638
35.30149	0.1181316	-0.07649542	0	0	0.04727307	0.03516638
35.31831	0.1181316	-0.07649542	0	0	0	0
35.33484	0.1181316	-0.07649542	0	0	0	0
35.35135	0.1181316	-0.07649542	0	0	0	0
35.36776	0.1181316	-0.07649542	0	0	0	0
35.38437	0.1181057	-0.07647611	-0.00156241	0.001162275	-0.04731706	0.03519911
35.40133	0.1181057	-0.07647611	0	0	0.04653221	-0.03461526
35.41745	0.1181057	-0.07647611	0	0	0	0
35.43435	0.1181057	-0.07647611	0	0	0	0
35.45058	0.1181057	-0.07647611	0	0	0	0
35.46715	0.1181057	-0.07647611	0	0	0	0
35.48372	0.1181057	-0.07647611	0	0	0	0
35.50042	0.1181057	-0.07647611	0	0	0	0
35.51685	0.1181057	-0.07647611	0	0	0	0
35.53344	0.1181057	-0.07647611	0	0	0	0
35.54999	0.1181057	-0.07647611	0	0	0	0
35.56656	0.1181057	-0.07647611	0	0	0	0
35.58312	0.1180797	-0.0764568	-0.001566368	0.001165669	-0.04727307	0.03517996
35.59969	0.1180797	-0.0764568	0	0	0.04727307	-0.03517996
35.61626	0.1180797	-0.0764568	0	0	0	0
35.63301	0.1180797	-0.0764568	0	0	0	0
35.64939	0.1180797	-0.0764568	0	0	0	0
35.66595	0.1180797	-0.0764568	0	0	0	0
35.68304	0.1180538	-0.0764375	-0.001518807	0.001129839	-0.04513104	0.03357293
35.69909	0.1180538	-0.0764375	0	0	0.04584295	-0.03410252
35.71565	0.1180538	-0.0764375	0	0	0	0
35.73258	0.1180538	-0.0764375	0	0	0	0
35.74879	0.1180538	-0.0764375	0	0	0	0
35.76535	0.1180538	-0.0764375	0	0	0	0
35.78192	0.1180278	-0.07641819	-0.001566368	0.001165219	-0.04727307	0.03516638
35.7986	0.1180278	-0.07641819	0	0	0.04711576	-0.03504936
35.81506	0.1180278	-0.07641819	0	0	0	0
35.83163	0.1180019	-0.07639889	-0.001565286	0.001164415	-0.04738227	0.03524762
35.84819	0.1180019	-0.07639889	0	0	0.04724044	-0.03514211
35.86569	0.1180019	-0.07639889	0	0	0	0
35.88132	0.1180019	-0.07639889	0	0	0	0
35.89789	0.1180019	-0.07639889	0	0	0	0
35.91446	0.1180019	-0.07639889	0	0	0	0
35.93103	0.1178981	-0.07632166	-0.00626592	0.004661326	-0.1891058	0.1406791
35.94759	0.1178981	-0.07632166	0	0	0.1891058	-0.1406791
35.96416	0.1178981	-0.07632166	0	0	0	0
35.98075	0.1178462	-0.07628305	-0.003129133	0.002327758	-0.09438308	0.07021147
35.9973	0.1178462	-0.07628305	0	0	0.09443741	-0.07025189
36.01386	0.1178462	-0.07628305	0	0	0	0
36.03043	0.1178462	-0.07628305	0	0	0	0
36.04731	0.1178462	-0.07628305	0	0	0	0
36.06356	0.1178462	-0.07628305	0	0	0	0
36.08013	0.1175607	-0.07626375	-0.01723184	0.001165219	-0.5250144	0.03550154
36.09683	0.1175607	-0.07626375	0	0	0.5179709	-0.03502525
36.11327	0.1175607	-0.07626375	0	0	0	0
36.12987	0.1170156	-0.07628305	-0.03282443	-0.001162542	-0.9935029	-0.03518687
36.1464	0.1170156	-0.07628305	0	0	0.9906434	0.0350856
36.16297	0.1170156	-0.07628305	0	0	0	0
36.17953	0.1137697	-0.07815626	-0.195921	-0.1130667	-5.912907	-3.412361
36.19641	0.1137697	-0.07815626	0	0	5.857608	3.380448
36.21393	0.1137697	-0.07815626	0	0	0	0
36.22949	0.08108498	-0.0962206	-2.100543	-1.160936	-63.50417	-35.09774
36.2458	0.08108498	-0.0962206	0	0	65.906	36.42519
36.26237	0.08108498	-0.0962206	0	0	0	0
36.27903	0.04318366	-0.1053381	-2.275155	-0.5473075	-68.47512	-16.47226
36.29606	0.04318366	-0.1053381	0	0	67.52925	16.24472
36.31207	0.04318366	-0.1053381	0	0	0	0
36.32864	0.00826297	-0.1061188	-2.108303	-0.04713725	-64.72408	-1.447095
36.3456	0.00826297	-0.1061188	0	0	62.87587	1.405773
36.36177	0.00826297	-0.1061188	0	0	0	0
36.37834	-0.01055224	-0.09939253	-1.135688	0.4060004	-34.69454	12.40305
36.39515	-0.01055224	-0.09939253	0	0	34.02833	-12.16488
36.41166	-0.01055224	-0.09939253	0	0	0	0
36.42804	-0.01021017	-0.09952883	0.02088776	-0.008322961	0.6350731	-0.253052
36.44467	-0.01021017	-0.09952883	0	0	-0.6327979	0.2521454
36.4612	-0.01021017	-0.09952883	0	0	0	0
36.47774	-0.01028911	-0.0995483	-0.004772454	-0.001177461	-0.1443154	-0.03560552
36.4943	-0.01028911	-0.0995483	0	0	0.1441491	0.03556449
36.51087	-0.01028911	-0.0995483	0	0	0	0
36.52744	-0.01089431	-0.09987935	-0.03652969	-0.01998232	-1.102468	-0.6030675
36.54401	-0.01089431	-0.09987935	0	0	1.102468	0.6030675
36.56127	-0.01089431	-0.09987935	0	0	0	0
36.57714	-0.02978067	-0.1124517	-1.190418	-0.7924404	-35.93101	-23.91865
36.59377	-0.02978067	-0.1124517	0	0	36.62686	24.38187
36.61027	-0.02978067	-0.1124517	0	0	0	0
36.62684	-0.08868779	-0.1145465	-3.554823	-0.1264167	-107.4951	-3.822746
36.6434	-0.08868779	-0.1145465	0	0	107.2971	3.815704
36.65997	-0.08868779	-0.1145465	0	0	0	0
36.67654	-0.1563965	-0.1095179	-4.086904	0.3035313	-123.343	9.160592
36.69384	-0.1563965	-0.1095179	0	0	120.6483	-8.960463
36.70967	-0.1563965	-0.1095179	0	0	0	0
36.72623	-0.2102917	-0.112393	-3.25312	-0.1735421	-100.4341	-5.357793
36.74289	-0.2102917	-0.112393	0	0	97.92007	5.223679
36.76736	-0.2102917	-0.112393	0	0	0	0
36.77873	-0.2414337	-0.1088729	-2.738581	0.3095516	-76.40514	8.636346
36.7953	-0.2414337	-0.1088729	0	0	98.02058	-11.07962
36.81194	-0.2414337	-0.1088729	0	0	0	0
36.82844	-0.2635647	-0.1124908	-1.341075	-0.2192381	-40.46908	-6.615856
36.845	-0.2635647	-0.1124908	0	0	40.55779	6.630358
36.86157	-0.2635647	-0.1124908	0	0	0	0
36.87814	-0.2774444	-0.1209986	-0.8377832	-0.5135311	-25.28435	-15.4984
36.8947	-0.2774444	-0.1209986	0	0	25.28435	15.4984
36.91152	-0.2774444	-0.1209986	0	0	0	0
36.92784	-0.2775661	-0.1210968	-0.007458217	-0.006016429	-0.2250894	-0.1815762
36.9444	-0.2775661	-0.1210968	0	0	0.2267865	0.1829452
36.96097	-0.2775661	-0.1210968	0	0	0	0
36.97757	-0.2887506	-0.130166	-0.6740086	-0.5465378	-20.32524	-16.48126
36.99411	-0.2887506	-0.130166	0	0	20.34162	16.49454
37.01067	-0.2887506	-0.130166	0	0	0	0
37.02724	-0.3048735	-0.143407	-0.9731824	-0.799227	-29.3707	-24.12072
37.04392	-0.3048735	-0.143407	0	0	29.27297	24.04045
37.06038	-0.3048735	-0.143407	0	0	0	0
37.07694	-0.310228	-0.1479692	-0.3231979	-0.2753785	-9.786807	-8.33878
37.09351	-0.310228	-0.1479692	0	0	9.754132	8.31094
37.11008	-0.310228	-0.1479692	0	0	0	0
37.12664	-0.3101803	-0.1479692	0.002879994	0	0.08691838	0
37.144	-0.3101803	-0.1479692	0	0	-0.08490475	0
37.15978	-0.3101803	-0.1479692	0	0	0	0
37.17634	-0.3101564	-0.1479891	0.001441228	-0.001198324	0.04455824	-0.03704842
37.19291	-0.3101564	-0.1479891	0	0	-0.04350136	0.03616967
37.20948	-0.3101564	-0.1479891	0	0	0	0
37.22604	-0.3101087	-0.1479494	0.002881793	0.002396097	0.08697268	0.07231436
37.24261	-0.3101087	-0.1479494	0	0	-0.08696266	-0.07230603
37.25918	-0.3101087	-0.1479494	0	0	0	0
37.27608	-0.3099894	-0.1478501	0.007059637	0.005873039	0.2109474	0.1754909
37.29231	-0.3099894	-0.1478501	0	0	-0.2130848	-0.1772691
37.30911	-0.3099894	-0.1478501	0	0	0	0
37.32662	-0.3098223	-0.1477906	0.009539724	0.003401696	0.2780191	0.09913666
37.34361	-0.3098223	-0.1477906	0	0	-0.2765128	-0.09859954
37.35976	-0.3098223	-0.1477906	0	0	0	0
37.37632	-0.3094165	-0.1476119	0.02449524	0.01078424	0.7487499	0.3296435
37.39289	-0.3094165	-0.1476119	0	0	-0.7392677	-0.3254689
37.40946	-0.3094165	-0.1476119	0	0	0	0
37.42603	-0.3088194	-0.147592	0.0360368	0.001198049	1.087593	0.03615718
37.44259	-0.3088194	-0.147592	0	0	-1.087593	-0.03615718
37.45916	-0.3088194	-0.147592	0	0	0	0
37.47573	-0.3083417	-0.1479494	0.02883771	-0.02157027	0.8703239	-0.6509921
37.49229	-0.3083417	-0.1479494	0	0	-0.8703239	0.6509921
37.50886	-0.3083417	-0.1479494	0	0	0	0
37.52626	-0.3056156	-0.1502139	0.1566799	-0.1301532	4.612838	-3.831861
37.542	-0.3056156	-0.1502139	0	0	-4.72861	3.928033
37.55856	-0.3056156	-0.1502139	0	0	0	0
37.58144	-0.3055917	-0.1502338	0.001045922	-0.0008687792	0.02651408	-0.02202352
37.5917	-0.3055917	-0.1502338	0	0	-0.03156598	0.02621981
37.60826	-0.3055917	-0.1502338	0	0	0	0
37.62483	-0.3055917	-0.1502338	0	0	0	0
37.6414	-0.3055917	-0.1502338	0	0	0	0
37.65796	-0.3055917	-0.1502338	0	0	0	0
37.67453	-0.3055917	-0.1502338	0	0	0	0
37.6911	-0.3055917	-0.1502338	0	0	0	0
37.70766	-0.3055917	-0.1502338	0	0	0	0
37.72436	-0.3055917	-0.1502338	0	0	0	0
37.74081	-0.3055917	-0.1502338	0	0	0	0
37.75737	-0.3055917	-0.1502338	0	0	0	0
37.77393	-0.3055917	-0.1502338	0	0	0	0
37.7905	-0.3055917	-0.1502338	0	0	0	0
37.80742	-0.3055917	-0.1502338	0	0	0	0
37.82363	-0.3055917	-0.1502338	0	0	0	0
37.8402	-0.3055917	-0.1502338	0	0	0	0
37.85677	-0.3055917	-0.1502338	0	0	0	0
37.87343	-0.3055917	-0.1502338	0	0	0	0
37.88996	-0.3055917	-0.1502338	0	0	0	0
37.90647	-0.3055917	-0.1502338	0	0	0	0
37.92348	-0.3055917	-0.1502338	0	0	0	0
37.9396	-0.3055917	-0.1502338	0	0	0	0
37.95617	-0.3055917	-0.1502338	0	0	0	0
37.97274	-0.3055917	-0.1502338	0	0	0	0
37.98953	-0.3055917	-0.1502338	0	0	0	0
38.00602	-0.3055917	-0.1502338	0	0	0	0
38.02244	-0.3055917	-0.1502338	0	0	0	0
38.03901	-0.3055917	-0.1502338	0	0	0	0
38.05607	-0.3055438	-0.1502338	0.002806771	0	0.08345941	0
38.07214	-0.3055438	-0.1502338	0	0	-0.08470852	0
38.08871	-0.3055438	-0.1502338	0	0	0	0
38.10527	-0.3054959	-0.1502735	0.002888988	-0.002398795	0.08718983	-0.07239579
38.12213	-0.3054959	-0.1502735	0	0	-0.08643356	0.07176784
38.13913	-0.3054959	-0.1502735	0	0	0	0
38.15512	-0.3052326	-0.1504922	0.01645766	-0.01366535	0.498818	-0.4141856
38.17168	-0.3052326	-0.1504922	0	0	-0.5055399	0.4197669
38.18865	-0.3052326	-0.1504922	0	0	0	0
38.20468	-0.299621	-0.1542318	0.3500844	-0.2333022	10.60954	-7.070379
38.22124	-0.299621	-0.1542318	0	0	-10.73991	7.157259
38.23781	-0.299621	-0.1542318	0	0	0	0
38.25438	-0.2905391	-0.16119	0.5481846	-0.4199961	16.54424	-12.67551
38.27095	-0.2905391	-0.16119	0	0	-16.54424	12.67551
38.28751	-0.2905391	-0.16119	0	0	0	0
38.30427	-0.2743016	-0.1619289	0.9691662	-0.04410363	29.08542	-1.323583
38.32064	-0.2743016	-0.1619289	0	0	-29.25286	1.331203
38.33721	-0.2743016	-0.1619289	0	0	0	0
38.3538	-0.2277423	-0.1392688	2.80709	1.366195	84.6694	41.20812
38.37081	-0.2277423	-0.1392688	0	0	-83.55419	-40.66535
38.38691	-0.2277423	-0.1392688	0	0	0	0
38.40705	-0.1819392	-0.1049283	2.274485	1.705279	62.76237	47.05565
38.42361	-0.1819392	-0.1049283	0	0	-61.96659	-46.45901
38.4406	-0.15845	-0.08701822	1.383101	1.054585	41.22475	31.43298
38.45675	-0.15845	-0.08701822	0	0	-41.74688	-31.8311
38.47331	-0.15845	-0.08701822	0	0	0	0
38.48988	-0.132948	-0.06785966	1.539304	1.156413	46.4563	34.90061
38.50663	-0.132948	-0.06785966	0	0	-46.1957	-34.70483
38.52301	-0.132948	-0.06785966	0	0	0	0
38.53958	-0.09740134	-0.04170775	2.145599	1.578533	65.12167	47.91049
38.55615	-0.09740134	-0.04170775	0	0	-64.7543	-47.64021
38.57272	-0.09740134	-0.04170775	0	0	0	0
38.58928	-0.05502335	-0.01194511	2.55794	1.796477	77.19879	54.21777
38.60585	-0.05502335	-0.01194511	0	0	-77.19879	-54.21777
38.62242	-0.05502335	-0.01194511	0	0	0	0
38.63923	-0.038008	-0.0005920579	1.012363	0.6754731	30.33316	20.23902
38.65555	-0.038008	-0.0005920579	0	0	-30.55317	-20.38582
38.67225	-0.038008	-0.0005920579	0	0	0	0
38.69023	-0.03072717	-0.004793012	0.4050567	-0.2337128	11.68132	-6.739979
38.70679	-0.03072717	-0.004793012	0	0	-11.72647	6.766031
38.72336	-0.03072717	-0.004793012	0	0	0	0
38.73993	-0.008447167	-0.02079868	1.344823	-0.9661041	40.58685	-29.15708
38.75682	-0.008447167	-0.02079868	0	0	-40.19352	28.87452
38.77385	-0.008447167	-0.02079868	0	0	0	0
38.78963	-0.0001842105	-0.02648711	0.5237148	-0.3605385	15.9638	-10.98988
38.80619	-0.0001842105	-0.02648711	0	0	-16.19161	11.14671
38.82286	-0.0001842105	-0.02648711	0	0	0	0
38.83936	-7.894737E-05	-0.02648711	0.006378665	0	0.1923092	0
38.8559	-7.894737E-05	-0.02648711	0	0	-0.1930865	0
38.87246	-7.894737E-05	-0.02648711	0	0	0	0
38.88903	7.894737E-05	-0.02660098	0.009530545	-0.006873489	0.2876324	-0.2074423
38.9056	7.894737E-05	-0.02660098	0	0	-0.2876324	0.2074423
38.92292	7.894737E-05	-0.02660098	0	0	0	0
38.93873	0.009604968	-0.03347917	0.6026036	-0.4351054	18.18661	-13.13151
38.9553	0.009604968	-0.03347917	0	0	-18.61304	13.43941
38.97187	0.009604968	-0.03347917	0	0	0	0
38.98846	0.02807157	-0.04690031	1.112853	-0.8087978	33.55891	-24.38991
39.005	0.02807157	-0.04690031	0	0	-33.58983	24.41238
39.02156	0.02807157	-0.04690031	0	0	0	0
39.03813	0.04938088	-0.06239895	1.286232	-0.9354999	38.81857	-28.23344
39.0547	0.04938088	-0.06239895	0	0	-38.81857	28.23344
39.07127	0.04938088	-0.06239895	0	0	0	0
39.08806	0.06983363	-0.07734502	1.217984	-0.8900551	36.51083	-26.68069
39.1044	0.06983363	-0.07734502	0	0	-36.75883	26.86192
39.12158	0.06983363	-0.07734502	0	0	0	0
39.13758	0.08432587	-0.088065	0.905615	-0.6698874	27.29381	-20.18935
39.1546	0.08432587	-0.088065	0	0	-27.42624	20.28731
