Time	Pos X	Pos Y	Vel X	Vel Y	Acc X	Acc Y
0.01656752	0.03572164	-0.1381415	-0.0005547321	0.00214524	8.616817E-06	-3.332265E-05
0.03859019	0.03572164	-0.1381415	0	0	-8.617548E-06	3.332547E-05
0.05580787	0.03572164	-0.1381415	0	0	0	0
0.0723754	0.03572164	-0.1381415	0	0	0	0
0.08899424	0.03572164	-0.1381415	0	0	0	0
0.1055085	0.03572164	-0.1381415	0	0	0	0
0.1220752	0.03572164	-0.1381415	0	0	0	0
0.1386423	0.03572164	-0.1381415	0	0	0	0
0.1555308	0.03572164	-0.1381415	0	0	0	0
0.171775	0.03572164	-0.1381415	0	0	0	0
0.1883418	0.03572164	-0.1381415	0	0	0	0
0.2049085	0.03572164	-0.1381415	0	0	0	0
0.2214772	0.03572164	-0.1381415	0	0	0	0
0.2381268	0.03572164	-0.1381415	0	0	0	0
0.2546083	0.03572164	-0.1381415	0	0	0	0
0.2711754	0.03572164	-0.1381415	0	0	0	0
0.2881527	0.03572164	-0.1381415	0	0	0	0
0.3043089	0.03572164	-0.1381415	0	0	0	0
0.3208753	0.03572164	-0.1381415	0	0	0	0
0.3374424	0.03572164	-0.1381415	0	0	0	0
0.3540083	0.03572164	-0.1381415	0	0	0	0
0.3705755	0.03572164	-0.1381415	0	0	0	0
0.387267	0.03572164	-0.1381415	0	0	0	0
0.4037085	0.03572164	-0.1381415	0	0	0	0
0.4202836	0.03572164	-0.1381415	0	0	0	0
0.4368424	0.03572164	-0.1381415	0	0	0	0
0.4534083	0.03572164	-0.1381415	0	0	0	0
0.4699751	0.03572164	-0.1381415	0	0	0	0
0.4873068	0.03572164	-0.1381415	0	0	0	0
0.5089695	0.03572164	-0.1381415	0	0	0	0
0.5258579	0.03572164	-0.1381415	0	0	0	0
0.5421041	0.03572164	-0.1381415	0	0	0	0
0.5586717	0.03572164	-0.1381415	0	0	0	0
0.5753647	0.03572164	-0.1381415	0	0	0	0
0.5918031	0.03572164	-0.1381415	0	0	0	0
0.6083722	0.03572164	-0.1381415	0	0	0	0
0.6249378	0.03572164	-0.1381415	0	0	0	0
0.6415037	0.03572164	-0.1381415	0	0	0	0
0.6584182	0.03572164	-0.1381415	0	0	0	0
0.6746423	0.03572164	-0.1381415	0	0	0	0
0.6912042	0.03572164	-0.1381415	0	0	0	0
0.7077714	0.03572164	-0.1381415	0	0	0	0
0.7243425	0.03572164	-0.1381415	0	0	0	0
0.7409052	0.03572164	-0.1381415	0	0	0	0
0.7574763	0.03572164	-0.1381415	0	0	0	0
0.7740371	0.03572164	-0.1381415	0	0	0	0
0.7906954	0.03574792	-0.1381612	0.001577707	-0.001187026	0.04749397	-0.03573324
0.8072144	0.03574792	-0.1381612	0	0	-0.04755386	0.0357783
0.8237385	0.03574792	-0.1381612	0	0	0	0
0.8403036	0.03574792	-0.1381612	0	0	0	0
0.8572489	0.03574792	-0.1381612	0	0	0	0
0.8734402	0.03574792	-0.1381612	0	0	0	0
0.8900038	0.03574792	-0.1381612	0	0	0	0
0.9067718	0.03574792	-0.1381612	0	0	0	0
0.9232813	0.03574792	-0.1381612	0	0	0	0
0.9397876	0.03574792	-0.1381612	0	0	0	0
0.9562707	0.03574792	-0.1381612	0	0	0	0
0.9728382	0.03574792	-0.1381612	0	0	0	0
0.9894038	0.03574792	-0.1381612	0	0	0	0
1.00597	0.03574792	-0.1381612	0	0	0	0
1.022537	0.03574792	-0.1381612	0	0	0	0
1.039372	0.03574792	-0.1381612	0	0	0	0
1.05567	0.03574792	-0.1381612	0	0	0	0
1.072237	0.03574792	-0.1381612	0	0	0	0
1.088921	0.03574792	-0.1381612	0	0	0	0
1.10537	0.03574792	-0.1381612	0	0	0	0
1.121937	0.03574792	-0.1381612	0	0	0	0
1.138504	0.03574792	-0.1381612	0	0	0	0
1.155071	0.03574792	-0.1381612	0	0	0	0
1.171999	0.03574792	-0.1381612	0	0	0	0
1.188203	0.03574792	-0.1381612	0	0	0	0
1.205013	0.03574792	-0.1381612	0	0	0	0
1.221336	0.03574792	-0.1381612	0	0	0	0
1.238058	0.03574792	-0.1381612	0	0	0	0
1.25447	0.03574792	-0.1381612	0	0	0	0
1.271065	0.03574792	-0.1381612	0	0	0	0
1.287604	0.03574792	-0.1381612	0	0	0	0
1.30417	0.03574792	-0.1381612	0	0	0	0
1.320743	0.03574792	-0.1381612	0	0	0	0
1.337304	0.03574792	-0.1381612	0	0	0	0
1.353871	0.03574792	-0.1381612	0	0	0	0
1.370438	0.03574792	-0.1381612	0	0	0	0
1.387004	0.03574792	-0.1381612	0	0	0	0
1.40357	0.03574792	-0.1381612	0	0	0	0
1.420138	0.03574792	-0.1381612	0	0	0	0
1.436704	0.03574792	-0.1381612	0	0	0	0
1.453271	0.03574792	-0.1381612	0	0	0	0
1.46985	0.03574792	-0.1381612	0	0	0	0
1.486847	0.03574792	-0.1381612	0	0	0	0
1.50297	0.03574792	-0.1381612	0	0	0	0
1.519537	0.03574792	-0.1381612	0	0	0	0
1.536103	0.03574792	-0.1381612	0	0	0	0
1.552671	0.03574792	-0.1381612	0	0	0	0
1.569406	0.03574792	-0.1381612	0	0	0	0
1.585805	0.03574792	-0.1381612	0	0	0	0
1.60237	0.03574792	-0.1381612	0	0	0	0
1.618937	0.03574792	-0.1381612	0	0	0	0
1.635948	0.03574792	-0.1381612	0	0	0	0
1.652071	0.03574792	-0.1381612	0	0	0	0
1.668638	0.03574792	-0.1381612	0	0	0	0
1.685203	0.03574792	-0.1381612	0	0	0	0
1.702011	0.03574792	-0.1381612	0	0	0	0
1.718338	0.03574792	-0.1381612	0	0	0	0
1.735037	0.03574792	-0.1381612	0	0	0	0
1.751471	0.03574792	-0.1381612	0	0	0	0
1.768048	0.03574792	-0.1381612	0	0	0	0
1.784604	0.0357742	-0.138181	0.001587408	-0.001194325	0.04790996	-0.03604622
1.801171	0.0357742	-0.138181	0	0	-0.04792376	0.0360566
1.817738	0.0357742	-0.138181	0	0	0	0
1.834304	0.0357742	-0.138181	0	0	0	0
1.85112	0.0357742	-0.138181	0	0	0	0
1.867438	0.0357742	-0.138181	0	0	0	0
1.884291	0.0357742	-0.138181	0	0	0	0
1.900572	0.0357742	-0.138181	0	0	0	0
1.917138	0.0357742	-0.138181	0	0	0	0
1.93385	0.0357742	-0.138181	0	0	0	0
1.950272	0.0357742	-0.138181	0	0	0	0
1.966838	0.0357742	-0.138181	0	0	0	0
1.983404	0.0357742	-0.138181	0	0	0	0
1.999972	0.0357742	-0.138181	0	0	0	0
2.016538	0.0357742	-0.138181	0	0	0	0
2.033413	0.0357742	-0.138181	0	0	0	0
2.049671	0.0357742	-0.138181	0	0	0	0
2.066237	0.0357742	-0.138181	0	0	0	0
2.082804	0.0357742	-0.138181	0	0	0	0
2.099371	0.0357742	-0.138181	0	0	0	0
2.115938	0.0357742	-0.138181	0	0	0	0
2.132504	0.0357742	-0.138181	0	0	0	0
2.153689	0.0357742	-0.138181	0	0	0	0
2.165637	0.0357742	-0.138181	0	0	0	0
2.182204	0.0357742	-0.138181	0	0	0	0
2.198915	0.0357742	-0.138181	0	0	0	0
2.215338	0.0357742	-0.138181	0	0	0	0
2.231904	0.0357742	-0.138181	0	0	0	0
2.248471	0.0357742	-0.138181	0	0	0	0
2.265037	0.0357742	-0.138181	0	0	0	0
2.281967	0.03574792	-0.1381612	-0.0015524	0.001167986	-0.04634564	0.03486926
2.298171	0.03574792	-0.1381612	0	0	0.04685254	-0.03525064
2.314738	0.03574792	-0.1381612	0	0	0	0
2.331491	0.03574792	-0.1381612	0	0	0	0
2.347871	0.03574792	-0.1381612	0	0	0	0
2.364438	0.03574792	-0.1381612	0	0	0	0
2.381004	0.0357742	-0.138181	0.001586471	-0.00119362	0.04788187	-0.03602508
2.397571	0.0357742	-0.138181	0	0	-0.04788118	0.03602456
2.414137	0.0357742	-0.138181	0	0	0	0
2.430802	0.0357742	-0.138181	0	0	0	0
2.447672	0.0357742	-0.138181	0	0	0	0
2.463937	0.0357742	-0.138181	0	0	0	0
2.480503	0.0357742	-0.138181	0	0	0	0
2.497215	0.0357742	-0.138181	0	0	0	0
2.513743	0.0357742	-0.138181	0	0	0	0
2.530252	0.0357742	-0.138181	0	0	0	0
2.546779	0.0357742	-0.138181	0	0	0	0
2.563337	0.0357742	-0.138181	0	0	0	0
2.579903	0.0357742	-0.138181	0	0	0	0
2.59647	0.0357742	-0.138181	0	0	0	0
2.613037	0.0357742	-0.138181	0	0	0	0
2.629603	0.0357742	-0.138181	0	0	0	0
2.646335	0.0357742	-0.138181	0	0	0	0
2.662737	0.0357742	-0.138181	0	0	0	0
2.679303	0.0357742	-0.138181	0	0	0	0
2.695882	0.0357742	-0.138181	0	0	0	0
2.712436	0.0357742	-0.138181	0	0	0	0
2.729042	0.03574792	-0.1381612	-0.001582736	0.00119081	-0.047731	0.03591157
2.74557	0.03574792	-0.1381612	0	0	0.04776843	-0.03593974
2.762137	0.03574792	-0.1381612	0	0	0	0
2.779059	0.0357742	-0.138181	0.001553122	-0.001168529	0.04637676	-0.03489268
2.79527	0.0357742	-0.138181	0	0	-0.04687601	0.0352683
2.811836	0.0357742	-0.138181	0	0	0	0
2.828403	0.03574792	-0.1381612	-0.001586494	0.001193637	-0.0478829	0.03602586
2.84497	0.03574792	-0.1381612	0	0	0.04788187	-0.03602508
2.861537	0.03574792	-0.1381612	0	0	0	0
2.878103	0.03574792	-0.1381612	0	0	0	0
2.895143	0.03574792	-0.1381612	0	0	0	0
2.911237	0.03574792	-0.1381612	0	0	0	0
2.927803	0.03574792	-0.1381612	0	0	0	0
2.944371	0.03574792	-0.1381612	0	0	0	0
2.961195	0.03574792	-0.1381612	0	0	0	0
2.980968	0.03574792	-0.1381612	0	0	0	0
2.997701	0.03574792	-0.1381612	0	0	0	0
3.014226	0.03574792	-0.1381612	0	0	0	0
3.030668	0.03574792	-0.1381612	0	0	0	0
3.047235	0.03574792	-0.1381612	0	0	0	0
3.063803	0.03574792	-0.1381612	0	0	0	0
3.080368	0.03574792	-0.1381612	0	0	0	0
3.096936	0.03574792	-0.1381612	0	0	0	0
3.113502	0.03574792	-0.1381612	0	0	0	0
3.130335	0.03574792	-0.1381612	0	0	0	0
3.146636	0.03574792	-0.1381612	0	0	0	0
3.163203	0.03574792	-0.1381612	0	0	0	0
3.179769	0.03574792	-0.1381612	0	0	0	0
3.196336	0.03574792	-0.1381612	0	0	0	0
3.212903	0.03574792	-0.1381612	0	0	0	0
3.229469	0.0357742	-0.138181	0.001586494	-0.001193637	0.04788221	-0.03602534
3.246405	0.0357742	-0.138181	0	0	-0.0473554	0.03562898
3.262728	0.0357742	-0.138181	0	0	0	0
3.279169	0.03574792	-0.1381612	-0.00159855	0.001202707	-0.04878988	0.03670825
3.29574	0.03574792	-0.1381612	0	0	0.04842306	-0.03643226
3.312303	0.03574792	-0.1381612	0	0	0	0
3.328869	0.03574792	-0.1381612	0	0	0	0
3.345436	0.03574792	-0.1381612	0	0	0	0
3.362003	0.03574792	-0.1381612	0	0	0	0
3.378569	0.03574792	-0.1381612	0	0	0	0
3.395136	0.03574792	-0.1381612	0	0	0	0
3.411703	0.03574792	-0.1381612	0	0	0	0
3.428353	0.03574792	-0.1381612	0	0	0	0
3.444837	0.03574792	-0.1381612	0	0	0	0
3.461403	0.03574792	-0.1381612	0	0	0	0
3.477969	0.03574792	-0.1381612	0	0	0	0
3.494537	0.03574792	-0.1381612	0	0	0	0
3.511103	0.03574792	-0.1381612	0	0	0	0
3.528991	0.03574792	-0.1381612	0	0	0	0
3.545809	0.03574792	-0.1381612	0	0	0	0
3.562125	0.03574792	-0.1381612	0	0	0	0
3.578845	0.03574792	-0.1381612	0	0	0	0
3.59526	0.03574792	-0.1381612	0	0	0	0
3.611826	0.03574792	-0.1381612	0	0	0	0
3.628392	0.03574792	-0.1381612	0	0	0	0
3.644958	0.03574792	-0.1381612	0	0	0	0
3.661526	0.03574792	-0.1381612	0	0	0	0
3.678092	0.03574792	-0.1381612	0	0	0	0
3.69466	0.03574792	-0.1381612	0	0	0	0
3.711227	0.03574792	-0.1381612	0	0	0	0
3.727792	0.03574792	-0.1381612	0	0	0	0
3.744453	0.03574792	-0.1381612	0	0	0	0
3.760947	0.03574792	-0.1381612	0	0	0	0
3.777494	0.03574792	-0.1381612	0	0	0	0
3.794059	0.03574792	-0.1381612	0	0	0	0
3.810626	0.03574792	-0.1381612	0	0	0	0
3.827505	0.03574792	-0.1381612	0	0	0	0
3.843759	0.03574792	-0.1381612	0	0	0	0
3.860527	0.03574792	-0.1381612	0	0	0	0
3.877026	0.03574792	-0.1381612	0	0	0	0
3.893459	0.03574792	-0.1381612	0	0	0	0
3.910027	0.03574792	-0.1381612	0	0	0	0
3.926592	0.03574792	-0.1381612	0	0	0	0
3.94316	0.03574792	-0.1381612	0	0	0	0
3.959726	0.03574792	-0.1381612	0	0	0	0
3.976293	0.03574792	-0.1381612	0	0	0	0
3.99286	0.03574792	-0.1381612	0	0	0	0
4.009426	0.03574792	-0.1381612	0	0	0	0
4.026309	0.03574792	-0.1381612	0	0	0	0
4.04256	0.03574792	-0.1381612	0	0	0	0
4.059126	0.03574792	-0.1381612	0	0	0	0
4.078481	0.03574792	-0.1381612	0	0	0	0
4.095049	0.03574792	-0.1381612	0	0	0	0
4.111616	0.03574792	-0.1381612	0	0	0	0
4.128181	0.03574792	-0.1381612	0	0	0	0
4.144749	0.03574792	-0.1381612	0	0	0	0
4.161316	0.03574792	-0.1381612	0	0	0	0
4.177881	0.03574792	-0.1381612	0	0	0	0
4.194449	0.03574792	-0.1381612	0	0	0	0
4.211647	0.03574792	-0.1381612	0	0	0	0
4.227669	0.03574792	-0.1381612	0	0	0	0
4.244149	0.03574792	-0.1381612	0	0	0	0
4.260715	0.03574792	-0.1381612	0	0	0	0
4.277687	0.0357742	-0.138181	0.001548584	-0.001165114	0.04617419	-0.03474027
4.2942	0.0357742	-0.138181	0	0	-0.04624717	0.03479518
4.310415	0.0357742	-0.138181	0	0	0	0
4.326982	0.0357742	-0.138181	0	0	0	0
4.343549	0.0357742	-0.138181	0	0	0	0
4.361245	0.0357742	-0.138181	0	0	0	0
4.378095	0.03574792	-0.1382008	-0.001559803	-0.001173555	-0.0451516	-0.0339709
4.394662	0.03574792	-0.1382008	0	0	0.04667661	0.03511827
4.411369	0.03574792	-0.1382008	0	0	0	0
4.427796	0.03574792	-0.1382008	0	0	0	0
4.444393	0.03574792	-0.1382008	0	0	0	0
4.46093	0.03574792	-0.1382008	0	0	0	0
4.477496	0.03574792	-0.1382008	0	0	0	0
4.494063	0.03574792	-0.1382008	0	0	0	0
4.510939	0.03574792	-0.1382008	0	0	0	0
4.527195	0.03574792	-0.1382008	0	0	0	0
4.54396	0.03574792	-0.1382008	0	0	0	0
4.560329	0.03574792	-0.1382008	0	0	0	0
4.577002	0.03574792	-0.1382008	0	0	0	0
4.593462	0.03574792	-0.1382008	0	0	0	0
4.610029	0.03574792	-0.1382008	0	0	0	0
4.626596	0.03574792	-0.1382008	0	0	0	0
4.643163	0.03574792	-0.1382008	0	0	0	0
4.660145	0.03574792	-0.1382008	0	0	0	0
4.676296	0.03574792	-0.1382008	0	0	0	0
4.692863	0.03574792	-0.1382008	0	0	0	0
4.70943	0.03574792	-0.1382008	0	0	0	0
4.725995	0.0357742	-0.138181	0.001586563	0.001193689	0.04788669	0.03602871
4.742563	0.0357742	-0.138181	0	0	-0.04788462	-0.03602716
4.75913	0.0357742	-0.138181	0	0	0	0
4.77572	0.03574792	-0.1382008	-0.001584191	-0.001191905	-0.04777868	-0.03594744
4.792264	0.03574792	-0.1382008	0	0	0.0478103	0.03597124
4.808828	0.03574792	-0.1382008	0	0	0	0
4.825395	0.0357742	-0.138181	0.001586471	0.00119362	0.047886	0.0360282
4.841962	0.0357742	-0.138181	0	0	-0.04788118	-0.03602456
4.858529	0.0357742	-0.138181	0	0	0	0
4.875094	0.0357742	-0.138181	0	0	0	0
4.891662	0.0357742	-0.138181	0	0	0	0
4.908229	0.0357742	-0.138181	0	0	0	0
4.928986	0.0357742	-0.138181	0	0	0	0
4.94172	0.0357742	-0.138181	0	0	0	0
4.957931	0.0357742	-0.138181	0	0	0	0
4.974496	0.0357742	-0.138181	0	0	0	0
4.991278	0.0357742	-0.138181	0	0	0	0
5.007629	0.0357742	-0.138181	0	0	0	0
5.024197	0.0357742	-0.138181	0	0	0	0
5.040763	0.0357742	-0.138181	0	0	0	0
5.057328	0.0357742	-0.138181	0	0	0	0
5.074318	0.0357742	-0.138181	0	0	0	0
5.090835	0.0357742	-0.138181	0	0	0	0
5.107028	0.0357742	-0.138181	0	0	0	0
5.123855	0.0357742	-0.138181	0	0	0	0
5.140164	0.0357742	-0.138181	0	0	0	0
5.156729	0.0357742	-0.138181	0	0	0	0
5.173296	0.0357742	-0.138181	0	0	0	0
5.189864	0.0357742	-0.138181	0	0	0	0
5.206428	0.0357742	-0.138181	0	0	0	0
5.222995	0.0357742	-0.138181	0	0	0	0
5.239563	0.0357742	-0.138181	0	0	0	0
5.256128	0.0357742	-0.138181	0	0	0	0
5.272699	0.0357742	-0.138181	0	0	0	0
5.289263	0.0357742	-0.138181	0	0	0	0
5.306017	0.03574792	-0.1382008	-0.001568726	-0.001180269	-0.04708405	-0.03542482
5.322396	0.03574792	-0.1382008	0	0	0.04734629	0.03562212
5.339064	0.03574792	-0.1382008	0	0	0	0
5.355565	0.03574792	-0.1382008	0	0	0	0
5.372098	0.03574792	-0.1382008	0	0	0	0
5.388663	0.03574792	-0.1382008	0	0	0	0
5.405228	0.03574792	-0.1382008	0	0	0	0
5.422099	0.03574792	-0.1382008	0	0	0	0
5.438641	0.03574792	-0.1382008	0	0	0	0
5.455122	0.03574792	-0.1382008	0	0	0	0
5.471494	0.03574792	-0.1382008	0	0	0	0
5.496278	0.03574792	-0.1382008	0	0	0	0
5.514382	0.03574792	-0.1382403	0	-0.002184463	0	-0.0509345
5.530949	0.03574792	-0.1382403	0	0	0	0.06300492
5.547517	0.03574792	-0.1382403	0	0	0	0
5.564186	0.03574792	-0.1382799	0	-0.002373452	0	-0.07141099
5.580649	0.03574792	-0.1382799	0	0	0	0.07163504
5.597217	0.03574792	-0.1382799	0	0	0	0
5.613782	0.03595818	-0.1387545	0.0126925	-0.02865213	0.383077	-0.8647603
5.63035	0.03595818	-0.1387545	0	0	-0.3830825	0.8647728
5.647243	0.03595818	-0.1387545	0	0	0	0
5.663483	0.05360649	-0.1685297	1.086742	-1.83349	32.79937	-55.33724
5.680269	0.05360649	-0.1685297	0	0	-32.90545	55.51621
5.696616	0.05360649	-0.1685297	0	0	0	0
5.71329	0.06338865	-0.2596298	0.5866699	-5.463588	17.76658	-165.4581
5.72975	0.06338865	-0.2596298	0	0	-17.70599	164.8938
5.746316	0.06338865	-0.2596298	0	0	0	0
5.762882	0.04788442	-0.3471423	-0.9359177	-5.282719	-28.24849	-159.4465
5.779449	0.04788442	-0.3471423	0	0	28.24687	159.4374
5.796016	0.04788442	-0.3471423	0	0	0	0
5.812963	0.02536298	-0.4009795	-1.328987	-3.176924	-39.65579	-94.79655
5.829821	0.02536298	-0.4009795	0	0	39.31346	93.97821
5.846097	0.02536298	-0.4009795	0	0	0	0
5.862844	0.02825564	-0.4357626	0.1727317	-2.077039	5.230666	-62.89698
5.879358	0.02825564	-0.4357626	0	0	-5.193322	62.44792
5.895915	0.02825564	-0.4357626	0	0	0	0
5.912397	0.05237311	-0.4579206	1.463273	-1.34438	44.28913	-40.69059
5.928931	0.05237311	-0.4579206	0	0	-44.31983	40.7188
5.945498	0.05237311	-0.4579206	0	0	0	0
5.962427	0.06535416	-0.4696536	0.7668083	-0.6930877	22.89293	-20.69201
5.978631	0.06535416	-0.4696536	0	0	-23.14332	20.91833
5.995199	0.06535416	-0.4696536	0	0	0	0
6.011764	0.07818242	-0.4813663	0.7744268	-0.7070817	23.37359	-21.341
6.028331	0.07818242	-0.4813663	0	0	-23.37359	21.341
6.044899	0.07818242	-0.4813663	0	0	0	0
6.061465	0.09171566	-0.4938583	0.8169147	-0.7540603	24.65524	-22.75824
6.078031	0.09171566	-0.4938583	0	0	-24.65631	22.75922
6.094598	0.09171566	-0.4938583	0	0	0	0
6.111164	0.09208097	-0.4941975	0.02205311	-0.02047892	0.6655929	-0.6180816
6.127731	0.09208097	-0.4941975	0	0	-0.6655929	0.6180816
6.144298	0.09208097	-0.4941975	0	0	0	0
6.160864	0.09208097	-0.4941975	0	0	0	0
6.177432	0.09208097	-0.4941975	0	0	0	0
6.193998	0.09208097	-0.4941975	0	0	0	0
6.210635	0.09205488	-0.4941733	-0.001568277	0.001456321	-0.04723213	0.04386033
6.227131	0.09205488	-0.4941733	0	0	0.04733273	-0.04395375
6.244124	0.09205488	-0.4941733	0	0	0	0
6.260263	0.09205488	-0.4941733	0	0	0	0
6.277148	0.09205488	-0.4941733	0	0	0	0
6.293399	0.09205488	-0.4941733	0	0	0	0
6.31017	0.09205488	-0.4941733	0	0	0	0
6.326531	0.09205488	-0.4941733	0	0	0	0
6.350027	0.09205488	-0.4941733	0	0	0	0
6.361713	0.09202878	-0.4941491	-0.002233418	0.002073387	-0.06348269	0.05893398
6.378281	0.09202878	-0.4941491	0	0	0.07904776	-0.07338376
6.394848	0.09202878	-0.4941491	0	0	0	0
6.411414	0.09202878	-0.4941491	0	0	0	0
6.428799	0.09202878	-0.4941491	0	0	0	0
6.444548	0.09202878	-0.4941491	0	0	0	0
6.461113	0.09200269	-0.4941248	-0.001575094	0.001462651	-0.04874293	0.04526328
6.477811	0.09200269	-0.4941248	0	0	0.04735243	-0.04397204
6.494247	0.09200269	-0.4941248	0	0	0	0
6.510814	0.09200269	-0.4941248	0	0	0	0
6.52738	0.09200269	-0.4941248	0	0	0	0
6.543948	0.09200269	-0.4941248	0	0	0	0
6.560513	0.0919766	-0.4941006	-0.001575094	0.00146445	-0.04753916	0.04419974
6.57708	0.0919766	-0.4941006	0	0	0.04753916	-0.04419974
6.593647	0.0919766	-0.4941006	0	0	0	0
6.610213	0.0919766	-0.4941006	0	0	0	0
6.62678	0.0919766	-0.4941006	0	0	0	0
6.643347	0.0919766	-0.4941006	0	0	0	0
6.659913	0.09195051	-0.4940279	-0.001575094	0.004387953	-0.04753916	0.1324363
6.67648	0.09195051	-0.4940279	0	0	0.04753847	-0.1324344
6.693048	0.09195051	-0.4940279	0	0	0	0
6.709613	0.09189831	-0.4939794	-0.003150637	0.002925302	-0.09509052	0.0882896
6.726181	0.09189831	-0.4939794	0	0	0.09509052	-0.0882896
6.742936	0.09189831	-0.4939794	0	0	0	0
6.759313	0.09184612	-0.493931	-0.003186872	0.002958946	-0.0961883	0.08930888
6.77588	0.09184612	-0.493931	0	0	0.09673545	-0.08981689
6.792473	0.09184612	-0.493931	0	0	0	0
6.809013	0.09179394	-0.493834	-0.003154909	0.005859375	-0.0952181	0.1768414
6.825581	0.09179394	-0.493834	0	0	0.09529215	-0.1769789
6.842147	0.09179394	-0.493834	0	0	0	0
6.858713	0.09174175	-0.4937856	-0.003150546	0.002923419	-0.09509052	0.08823531
6.875532	0.09174175	-0.4937856	0	0	0.09436933	-0.08756611
6.892059	0.09174175	-0.4937856	0	0	0	0
6.908566	0.09168956	-0.4936887	-0.00316174	0.005871223	-0.09571076	0.177731
6.92498	0.09168956	-0.4936887	0	0	0.09604209	-0.1783463
6.941601	0.09168956	-0.4936887	0	0	0	0
6.958113	0.09163737	-0.4935918	-0.003160827	0.005867722	-0.0953967	0.1770933
6.97468	0.09163737	-0.4935918	0	0	0.09555485	-0.1773869
6.991248	0.09163737	-0.4935918	0	0	0	0
7.008142	0.09163737	-0.4935434	0	0.002868413	0	0.0857226
7.024381	0.09163737	-0.4935434	0	0	0	-0.08657261
7.041174	0.09163737	-0.4935434	0	0	0	0
7.057513	0.09161127	-0.4934707	-0.001596975	0.004447087	-0.04820027	0.134223
7.07408	0.09161127	-0.4934707	0	0	0.04853134	-0.1351449
7.09071	0.09161127	-0.4934707	0	0	0	0
7.107214	0.09153298	-0.4932527	-0.004743795	0.01320751	-0.1431721	0.3986148
7.123781	0.09153298	-0.4932527	0	0	0.1434426	-0.3993677
7.140347	0.09153298	-0.4932527	0	0	0	0
7.156913	0.09148079	-0.4923812	-0.003150546	0.05260895	-0.09509052	1.587855
7.173481	0.09148079	-0.4923812	0	0	0.09508778	-1.58781
7.190787	0.09148079	-0.4923812	0	0	0	0
7.206614	0.09150689	-0.4919699	0.001649073	0.02599161	0.04977126	0.7844622
7.223181	0.09150689	-0.4919699	0	0	-0.05090684	-0.8023604
7.239748	0.09150689	-0.4919699	0	0	0	0
7.256313	0.09189831	-0.4911717	0.02362842	0.04817975	0.7131482	1.454151
7.272883	0.09189831	-0.4911717	0	0	-0.7130764	-1.454005
7.289448	0.09189831	-0.4911717	0	0	0	0
7.306014	0.09182003	-0.4907124	-0.004725731	0.0277292	-0.1426413	0.8369774
7.322581	0.09182003	-0.4907124	0	0	0.142629	-0.8369051
7.339149	0.09182003	-0.4907124	0	0	0	0
7.355713	0.08774778	-0.4866577	-0.2458443	0.2447806	-7.420238	7.38813
7.372282	0.08774778	-0.4866577	0	0	7.41981	-7.387705
7.388848	0.08774778	-0.4866577	0	0	0	0
7.405419	0.0670572	-0.466919	-1.248562	1.191126	-37.67843	35.94514
7.421983	0.0670572	-0.466919	0	0	37.68114	-35.94773
7.438548	0.0670572	-0.466919	0	0	0	0
7.455459	0.04583629	-0.4468459	-1.254891	1.187017	-37.48644	35.45888
7.472373	0.04583629	-0.4468459	0	0	37.09961	-35.09298
7.488365	0.04583629	-0.4468459	0	0	0	0
7.504814	0.0353274	-0.437507	-0.6388967	0.5677617	-19.69432	17.50154
7.521389	0.0353274	-0.437507	0	0	19.34681	-17.19273
7.538408	0.0353274	-0.437507	0	0	0	0
7.554906	0.03540625	-0.4374372	0.004779173	0.004232298	0.1425859	0.12627
7.571082	0.03540625	-0.4374372	0	0	-0.146267	-0.1295298
7.587648	0.03540625	-0.4374372	0	0	0	0
7.604214	0.03803428	-0.4351119	0.1586418	0.1403655	4.788164	4.236544
7.62078	0.03803428	-0.4351119	0	0	-4.788164	-4.236544
7.637347	0.03803428	-0.4351119	0	0	0	0
7.653988	0.055207	-0.4199944	1.031944	0.9084447	31.07526	27.35629
7.67048	0.055207	-0.4199944	0	0	-31.14547	-27.4181
7.687047	0.055207	-0.4199944	0	0	0	0
7.703613	0.0840907	-0.3948365	1.743524	1.518623	52.62193	45.83411
7.720522	0.0840907	-0.3948365	0	0	-52.08448	-45.36599
7.737556	0.0840907	-0.3948365	0	0	0	0
7.753543	0.1158993	-0.3674967	1.989664	1.710135	60.25368	51.7886
7.769882	0.1158993	-0.3674967	0	0	-61.55045	-52.90318
7.786447	0.1158993	-0.3674967	0	0	0	0
7.803013	0.1394315	-0.3474059	1.420486	1.21275	42.87466	36.60457
7.81958	0.1394315	-0.3474059	0	0	-42.87281	-36.60299
7.836146	0.1394315	-0.3474059	0	0	0	0
7.852713	0.1446922	-0.3429741	0.3175505	0.2675143	9.583968	8.073831
7.86928	0.1446922	-0.3429741	0	0	-9.583831	-8.073714
7.885847	0.1446922	-0.3429741	0	0	0	0
7.902413	0.1446665	-0.3429521	-0.001555169	0.001324008	-0.04693713	0.03996036
7.91898	0.1446665	-0.3429521	0	0	0.04693646	-0.03995978
7.935672	0.1446665	-0.3429521	0	0	0	0
7.952114	0.1434294	-0.3418132	-0.07524253	0.06927185	-2.270889	2.090689
7.968681	0.1434294	-0.3418132	0	0	2.279451	-2.098571
7.985248	0.1434294	-0.3418132	0	0	0	0
8.001814	0.1161589	-0.3184569	-1.646141	1.40987	-49.68277	42.55178
8.018729	0.1161589	-0.3184569	0	0	49.16553	-42.10879
8.034949	0.1161589	-0.3184569	0	0	0	0
8.051514	0.07810395	-0.2853272	-2.2974	2.000059	-70.07588	61.00632
8.068263	0.07810395	-0.2853272	0	0	68.96251	-60.03705
8.084647	0.07810395	-0.2853272	0	0	0	0
8.101213	0.06372937	-0.2284736	-0.8677015	3.431887	-26.33356	104.1531
8.11781	0.06372937	-0.2284736	0	0	26.16469	-103.4852
8.134347	0.06372937	-0.2284736	0	0	0	0
8.150913	0.08837447	-0.1788494	1.487667	2.995496	44.94057	90.4902
8.16748	0.08837447	-0.1788494	0	0	-44.89917	-90.40686
8.184047	0.08837447	-0.1788494	0	0	0	0
8.200613	0.1329221	-0.145568	2.689056	2.008981	81.16053	60.63467
8.217179	0.1329221	-0.145568	0	0	-81.16053	-60.63467
8.233901	0.1329221	-0.145568	0	0	0	0
8.250314	0.1584243	-0.1259716	1.553806	1.193979	46.89396	36.03435
8.266882	0.1584243	-0.1259716	0	0	-47.11227	-36.20211
8.283454	0.1584243	-0.1259716	0	0	0	0
8.300014	0.1705889	-0.1166039	0.7345532	0.5656596	22.17013	17.07262
8.316581	0.1705889	-0.1166039	0	0	-22.17396	-17.07557
8.333148	0.1705889	-0.1166039	0	0	0	0
8.349714	0.1711256	-0.1161531	0.03239415	0.0272122	0.9776855	0.8212895
8.366282	0.1711256	-0.1161531	0	0	-0.9776855	-0.8212895
8.383039	0.1711256	-0.1161531	0	0	0	0
8.399546	0.1711256	-0.1161531	0	0	0	0
8.41598	0.1711256	-0.1161531	0	0	0	0
8.432552	0.1711256	-0.1161531	0	0	0	0
8.449114	0.1711	-0.1162119	-0.001543065	-0.00354995	-0.04657115	-0.1071408
8.465681	0.1711	-0.1162119	0	0	0.04657785	0.1071562
8.482247	0.1711	-0.1162119	0	0	0	0
8.498813	0.1711256	-0.1162315	0.00154271	-0.001183344	0.0465631	-0.03571648
8.51538	0.1711256	-0.1162315	0	0	-0.04656176	0.03571545
8.531946	0.1711256	-0.1162315	0	0	0	0
8.548512	0.1711256	-0.1163491	0	-0.007098757	0	-0.2142532
8.56508	0.1711256	-0.1163491	0	0	0	0.2142471
8.586382	0.1711256	-0.1163491	0	0	0	0
8.598809	0.1711767	-0.1164667	0.004112789	-0.009463011	0.1219343	-0.2805555
8.615377	0.1711767	-0.1164667	0	0	-0.1418422	0.3263612
8.631945	0.1711767	-0.1164667	0	0	0	0
8.648511	0.1711511	-0.1164863	-0.001542621	-0.001183276	-0.04655774	-0.03571237
8.665079	0.1711511	-0.1164863	0	0	0.0465564	0.03571134
8.681746	0.1711511	-0.1164863	0	0	0	0
8.698256	0.1711256	-0.1165059	-0.001547968	-0.001187377	-0.04665868	-0.03578979
8.714779	0.1711256	-0.1165059	0	0	0.04686209	0.03594582
8.731775	0.1711256	-0.1165059	0	0	0	0
8.747911	0.1695153	-0.117898	-0.09979222	-0.08627041	-3.011909	-2.603796
8.764479	0.1695153	-0.117898	0	0	3.051433	2.637964
8.781045	0.1695153	-0.117898	0	0	0	0
8.797611	0.1681344	-0.1193105	-0.08335822	-0.08526154	-2.515901	-2.573346
8.814178	0.1681344	-0.1193105	0	0	2.515829	2.573272
8.830855	0.1681344	-0.1193105	0	0	0	0
8.847311	0.1678018	-0.1187022	-0.02020791	0.03696257	-0.609911	1.115597
8.863881	0.1678018	-0.1187022	0	0	0.6118836	-1.119205
8.880876	0.1678018	-0.1187022	0	0	0	0
8.897011	0.1620148	-0.1141548	-0.3586611	0.2818286	-10.82597	8.506827
8.913578	0.1620148	-0.1141548	0	0	10.96741	-8.617967
8.930144	0.1620148	-0.1141548	0	0	0	0
8.946911	0.1328704	-0.09212026	-1.738245	1.314199	-52.14813	39.42658
8.963279	0.1328704	-0.09212026	0	0	52.46032	-39.66261
8.979845	0.1328704	-0.09212026	0	0	0	0
8.996436	0.1055016	-0.0717116	-1.649613	1.230099	-49.75106	37.09883
9.012979	0.1055016	-0.0717116	0	0	49.78686	-37.12553
9.029545	0.1055016	-0.0717116	0	0	0	0
9.046111	0.09886087	-0.06680131	-0.4008553	0.2964028	-12.09853	8.945969
9.062678	0.09886087	-0.06680131	0	0	12.09819	-8.945711
9.079246	0.09886087	-0.06680131	0	0	0	0
9.095811	0.09883481	-0.06678207	-0.001573295	0.001161305	-0.04748486	0.03505029
9.112516	0.09883481	-0.06678207	0	0	0.0472875	-0.03490461
9.128944	0.09883481	-0.06678207	0	0	0	0
9.146381	0.09886087	-0.06680131	0.001494647	-0.001103253	0.04413548	-0.03257799
9.162949	0.09886087	-0.06680131	0	0	-0.04395476	0.0324446
9.179515	0.09886087	-0.06680131	0	0	0	0
9.196081	0.09888694	-0.06682055	0.001573204	-0.001161239	0.04748212	-0.03504827
9.212648	0.09888694	-0.06682055	0	0	-0.04748075	0.03504726
9.229215	0.09888694	-0.06682055	0	0	0	0
9.24578	0.09888694	-0.06682055	0	0	0	0
9.262349	0.09888694	-0.06682055	0	0	0	0
9.27915	0.09888694	-0.06682055	0	0	0	0
9.295481	0.09886087	-0.06687827	-0.001595896	-0.003534422	-0.0481684	-0.1066783
9.312048	0.09886087	-0.06687827	0	0	0.0485105	0.1074359
9.328614	0.09886087	-0.06687827	0	0	0	0
9.345192	0.09883481	-0.0668975	-0.001572118	-0.001160437	-0.04743296	-0.03501198
9.361748	0.09883481	-0.0668975	0	0	0.04744798	0.03502306
9.378314	0.09883481	-0.0668975	0	0	0	0
9.39488	0.09883481	-0.0668975	0	0	0	0
9.411448	0.09883481	-0.0668975	0	0	0	0
9.429453	0.09883481	-0.0668975	0	0	0	0
9.444581	0.09883481	-0.0668975	0	0	0	0
9.461148	0.09883481	-0.0668975	0	0	0	0
9.477818	0.09883481	-0.0668975	0	0	0	0
9.494282	0.09886087	-0.06691675	0.001582954	-0.001168888	0.04777503	-0.03527813
9.510848	0.09886087	-0.06691675	0	0	-0.04792401	0.03538814
9.527415	0.09886087	-0.06691675	0	0	0	0
9.543982	0.09888694	-0.06693599	0.001573204	-0.001161239	0.04748075	-0.03504726
9.560548	0.09888694	-0.06693599	0	0	-0.04748212	0.03504827
9.577405	0.09888694	-0.06693599	0	0	0	0
9.593681	0.09891299	-0.06695522	0.001600768	-0.001181923	0.04831268	-0.03567152
9.610248	0.09891299	-0.06695522	0	0	-0.04874055	0.03598745
9.626814	0.09891299	-0.06695522	0	0	0	0
9.643445	0.09893905	-0.06697447	0.00156707	-0.001157159	0.04720458	-0.0348569
9.659947	0.09893905	-0.06697447	0	0	-0.04729562	0.03492412
9.676515	0.09893905	-0.06697447	0	0	0	0
9.693081	0.09896511	-0.06699371	0.001572754	-0.001161239	0.04746718	-0.03504726
9.709647	0.09896511	-0.06699371	0	0	-0.04746855	0.03504827
9.726214	0.09896511	-0.06699371	0	0	0	0
9.74278	0.09896511	-0.06699371	0	0	0	0
9.759347	0.09896511	-0.06699371	0	0	0	0
9.775913	0.09896511	-0.06699371	0	0	0	0
9.79248	0.09896511	-0.06699371	0	0	0	0
9.809053	0.09896511	-0.06699371	0	0	0	0
9.825614	0.09896511	-0.06699371	0	0	0	0
9.84218	0.09899117	-0.06701295	0.001573204	-0.001161688	0.04749032	-0.0350679
9.858747	0.09899117	-0.06701295	0	0	-0.04748212	0.03506184
9.875313	0.09899117	-0.06701295	0	0	0	0
9.891879	0.09899117	-0.06701295	0	0	0	0
9.908446	0.09899117	-0.06701295	0	0	0	0
9.925013	0.09899117	-0.06701295	0	0	0	0
9.941579	0.09899117	-0.06701295	0	0	0	0
9.958148	0.09899117	-0.06701295	0	0	0	0
9.974712	0.09899117	-0.06701295	0	0	0	0
9.991279	0.09899117	-0.06701295	0	0	0	0
10.00785	0.09899117	-0.06701295	0	0	0	0
10.02441	0.09899117	-0.06701295	0	0	0	0
10.04145	0.09901723	-0.06703219	0.00153013	-0.001129444	0.04554108	-0.03361551
10.05755	0.09901723	-0.06703219	0	0	-0.04618075	0.03408768
10.07411	0.09901723	-0.06703219	0	0	0	0
10.09068	0.09904329	-0.06705143	0.001572754	-0.001161688	0.04746855	-0.03506184
10.10725	0.09904329	-0.06705143	0	0	-0.04746718	0.03506083
10.12381	0.09904329	-0.06705143	0	0	0	0
10.14051	0.09904329	-0.06705143	0	0	0	0
10.15695	0.09904329	-0.06705143	0	0	0	0
10.17352	0.09904329	-0.06705143	0	0	0	0
10.19056	0.09904329	-0.06705143	0	0	0	0
10.20665	0.09904329	-0.06705143	0	0	0	0
10.22321	0.09904329	-0.06705143	0	0	0	0
10.23978	0.09904329	-0.06705143	0	0	0	0
10.25635	0.09904329	-0.06705143	0	0	0	0
10.27291	0.09904329	-0.06705143	0	0	0	0
10.28948	0.09904329	-0.06705143	0	0	0	0
10.30605	0.09904329	-0.06705143	0	0	0	0
10.32287	0.09904329	-0.06705143	0	0	0	0
10.33918	0.09904329	-0.06705143	0	0	0	0
10.35589	0.09904329	-0.06705143	0	0	0	0
10.37231	0.09904329	-0.06705143	0	0	0	0
10.38891	0.09904329	-0.06705143	0	0	0	0
10.40593	0.09904329	-0.06705143	0	0	0	0
10.42201	0.09904329	-0.06705143	0	0	0	0
10.43895	0.09904329	-0.06705143	0	0	0	0
10.45545	0.09904329	-0.06705143	0	0	0	0
10.47197	0.09904329	-0.06705143	0	0	0	0
10.48849	0.09904329	-0.06705143	0	0	0	0
10.50484	0.09904329	-0.06705143	0	0	0	0
10.52202	0.09904329	-0.06705143	0	0	0	0
10.53798	0.09904329	-0.06705143	0	0	0	0
10.55455	0.09904329	-0.06705143	0	0	0	0
10.57111	0.09904329	-0.06705143	0	0	0	0
10.58768	0.09904329	-0.06705143	0	0	0	0
10.60424	0.09904329	-0.06705143	0	0	0	0
10.62081	0.09904329	-0.06705143	0	0	0	0
10.63738	0.09904329	-0.06705143	0	0	0	0
10.65394	0.09904329	-0.06705143	0	0	0	0
10.67064	0.09904329	-0.06705143	0	0	0	0
10.68708	0.09904329	-0.06705143	0	0	0	0
10.70415	0.09904329	-0.06705143	0	0	0	0
10.72021	0.09904329	-0.06705143	0	0	0	0
10.73678	0.09904329	-0.06705143	0	0	0	0
10.75334	0.09904329	-0.06705143	0	0	0	0
10.76991	0.09904329	-0.06705143	0	0	0	0
10.78648	0.09904329	-0.06705143	0	0	0	0
10.80304	0.09904329	-0.06705143	0	0	0	0
10.81961	0.09904329	-0.06705143	0	0	0	0
10.83679	0.09904329	-0.06705143	0	0	0	0
10.85328	0.09904329	-0.06705143	0	0	0	0
10.86932	0.09904329	-0.06705143	0	0	0	0
10.88682	0.09904329	-0.06705143	0	0	0	0
10.90244	0.09904329	-0.06705143	0	0	0	0
10.91901	0.09904329	-0.06705143	0	0	0	0
10.93558	0.09904329	-0.06705143	0	0	0	0
10.95214	0.09904329	-0.06705143	0	0	0	0
10.96887	0.09904329	-0.06705143	0	0	0	0
10.98528	0.09904329	-0.06705143	0	0	0	0
11.00184	0.09904329	-0.06705143	0	0	0	0
11.01841	0.09904329	-0.06705143	0	0	0	0
11.03542	0.09904329	-0.06705143	0	0	0	0
11.05154	0.09904329	-0.06705143	0	0	0	0
11.06905	0.09904329	-0.06705143	0	0	0	0
11.08475	0.09904329	-0.06705143	0	0	0	0
11.10124	0.09904329	-0.06705143	0	0	0	0
11.11781	0.09904329	-0.06705143	0	0	0	0
11.13438	0.09904329	-0.06705143	0	0	0	0
11.15128	0.09904329	-0.06705143	0	0	0	0
11.1678	0.09904329	-0.06705143	0	0	0	0
11.18408	0.09904329	-0.06705143	0	0	0	0
11.20082	0.09904329	-0.06705143	0	0	0	0
11.21735	0.09904329	-0.06705143	0	0	0	0
11.23459	0.09904329	-0.06705143	0	0	0	0
11.25116	0.09904329	-0.06705143	0	0	0	0
11.26772	0.09904329	-0.06705143	0	0	0	0
11.28429	0.09904329	-0.06705143	0	0	0	0
11.30086	0.09904329	-0.06705143	0	0	0	0
11.31742	0.09904329	-0.06705143	0	0	0	0
11.33399	0.09901723	-0.06703219	-0.001572754	0.001161688	-0.04746855	0.03506184
11.35095	0.09901723	-0.06703219	0	0	0.04691356	-0.03465191
11.36712	0.09901723	-0.06703219	0	0	0	0
11.38369	0.09901723	-0.06703219	0	0	0	0
11.40026	0.09901723	-0.06703219	0	0	0	0
11.41682	0.09901723	-0.06703219	0	0	0	0
11.43339	0.09901723	-0.06703219	0	0	0	0
11.45001	0.09901723	-0.06703219	0	0	0	0
11.46652	0.09901723	-0.06703219	0	0	0	0
11.48309	0.09901723	-0.06703219	0	0	0	0
11.49966	0.09901723	-0.06703219	0	0	0	0
11.51622	0.09901723	-0.06703219	0	0	0	0
11.53279	0.09901723	-0.06703219	0	0	0	0
11.54935	0.09901723	-0.06703219	0	0	0	0
11.5666	0.09901723	-0.06703219	0	0	0	0
11.58259	0.09901723	-0.06703219	0	0	0	0
11.59906	0.09901723	-0.06703219	0	0	0	0
11.61562	0.09901723	-0.06703219	0	0	0	0
11.63349	0.09901723	-0.06703219	0	0	0	0
11.65006	0.09901723	-0.06703219	0	0	0	0
11.66665	0.09901723	-0.06703219	0	0	0	0
11.68703	0.09901723	-0.06703219	0	0	0	0
11.70368	0.09901723	-0.06703219	0	0	0	0
11.72018	0.09904329	-0.06701295	0.001579483	0.001166207	0.04764694	0.03517998
11.73673	0.09904329	-0.06701295	0	0	-0.04779268	-0.03528759
11.75372	0.09904329	-0.06701295	0	0	0	0
11.76986	0.09985103	-0.06641655	0.05003452	0.03694323	1.510175	1.115045
11.78643	0.09985103	-0.06641655	0	0	-1.529547	-1.129349
11.803	0.09985103	-0.06641655	0	0	0	0
11.81956	0.1010233	-0.06585874	0.07076856	0.03367291	2.135984	1.016338
11.83613	0.1010233	-0.06585874	0	0	-2.135922	-1.016309
11.8527	0.1010233	-0.06585874	0	0	0	0
11.8693	0.1067505	-0.06362861	0.3448806	0.134294	10.39655	4.048339
11.88583	0.1067505	-0.06362861	0	0	-10.40762	-4.05265
11.9024	0.1067505	-0.06362861	0	0	0	0
11.98489	0.143352	-0.03701929	0.4436877	0.3225616	4.479149	3.256348
12.00146	0.143352	-0.03701929	0	0	-4.478934	-3.256191
12.0184	0.1515141	-0.03505839	0.481817	0.1157546	14.37944	3.454602
12.03459	0.1515141	-0.03505839	0	0	-14.54169	-3.49358
12.05116	0.1515141	-0.03505839	0	0	0	0
12.06793	0.1742924	-0.05210201	1.358402	-1.016409	40.75035	-30.491
12.08445	0.1742924	-0.05210201	0	0	-40.80054	30.52855
12.10086	0.1742924	-0.05210201	0	0	0	0
12.11749	0.1788575	-0.05553024	0.2745748	-0.2061928	8.312043	-6.241955
12.134	0.1788575	-0.05553024	0	0	-8.286207	6.222554
12.15056	0.1788575	-0.05553024	0	0	0	0
12.16712	0.1799531	-0.05635439	0.06613123	-0.04974841	1.996132	-1.501626
12.18369	0.1799531	-0.05635439	0	0	-1.99596	1.501497
12.20026	0.1799531	-0.05635439	0	0	0	0
12.21682	0.1797748	-0.05656525	-0.01076355	-0.01272792	-0.3248539	-0.3841404
12.23339	0.1797748	-0.05656525	0	0	0.3248539	0.3841404
12.25	0.1797748	-0.05656525	0	0	0	0
12.26652	0.1784498	-0.05763899	-0.080193	-0.0649867	-2.420299	-1.961359
12.28354	0.1784498	-0.05763899	0	0	2.391118	1.937711
12.29966	0.1784498	-0.05763899	0	0	0	0
12.31622	0.1722752	-0.06193797	-0.3727189	-0.2595015	-11.4036	-7.939632
12.33279	0.1722752	-0.06193797	0	0	11.249	7.831997
12.34936	0.1722752	-0.06193797	0	0	0	0
12.36592	0.1333358	-0.07632166	-2.350526	-0.8682516	-70.94309	-26.20539
12.38262	0.1333358	-0.07632166	0	0	70.65836	26.10022
12.39912	0.1333358	-0.07632166	0	0	0	0
12.41565	-0.006973571	-0.05957657	-8.490103	1.013244	-257.0976	30.68308
12.43219	-0.006973571	-0.05957657	0	0	256.7195	-30.63795
12.44876	-0.006973571	-0.05957657	0	0	0	0
12.46733	-0.1510769	-0.02709448	-7.760426	1.749265	-220.8728	49.78658
12.48189	-0.1510769	-0.02709448	0	0	234.2236	-52.79596
12.49846	-0.1510769	-0.02709448	0	0	0	0
12.51502	-0.1791123	-0.01317331	-1.692323	0.8403322	-51.07588	25.36201
12.53159	-0.1791123	-0.01317331	0	0	51.07735	-25.36273
12.54816	-0.1791123	-0.01317331	0	0	0	0
12.56472	-0.1696176	-0.006678587	0.5731713	0.3920673	17.29884	11.83295
12.58129	-0.1696176	-0.006678587	0	0	-17.29984	-11.83364
12.59786	-0.1696176	-0.006678587	0	0	0	0
12.61442	-0.1451818	0.01062858	1.47503	1.044723	44.51778	31.5307
12.63099	-0.1451818	0.01062858	0	0	-44.51906	-31.5316
12.64756	-0.1451818	0.01062858	0	0	0	0
12.66412	-0.1268417	0.0235517	1.107078	0.780086	33.4136	23.5444
12.68069	-0.1268417	0.0235517	0	0	-33.41263	-23.54372
12.69726	-0.1268417	0.0235517	0	0	0	0
12.71382	-0.1209074	0.02760617	0.3582156	0.2447427	10.81159	7.386775
12.73039	-0.1209074	0.02760617	0	0	-10.81128	-7.386562
12.74732	-0.1209074	0.02760617	0	0	0	0
12.76389	-0.1197921	0.02822235	0.06731351	0.03719055	2.009204	1.11008
12.78052	-0.1197921	0.02822235	0	0	-2.027616	-1.120253
12.79703	-0.1197921	0.02822235	0	0	0	0
12.81359	-0.1082073	0.03258862	0.6993026	0.2635634	21.14577	7.969727
12.83016	-0.1082073	0.03258862	0	0	-21.1056	-7.954587
12.84673	-0.1082073	0.03258862	0	0	0	0
12.86329	-0.09067175	0.04496889	1.058507	0.747318	31.94764	22.5554
12.88008	-0.09067175	0.04496889	0	0	-31.73208	-22.40322
12.89643	-0.09067175	0.04496889	0	0	0	0
12.9131	-0.07075013	0.05914275	1.195042	0.8502501	36.19875	25.75474
12.9296	-0.07075013	0.05914275	0	0	-36.02185	-25.62888
12.94613	-0.07075013	0.05914275	0	0	0	0
12.96269	-0.06443699	0.06378824	0.381128	0.2804507	11.51805	8.475484
12.97926	-0.06443699	0.06378824	0	0	-11.50313	-8.464506
12.99583	-0.06443699	0.06378824	0	0	0	0
13.01239	-0.0649611	0.06434312	-0.03163359	0.03349037	-0.9547035	1.010741
13.02896	-0.0649611	0.06434312	0	0	0.954731	-1.01077
13.04569	-0.0649611	0.06434312	0	0	0	0
13.06209	-0.06425353	0.06916738	0.04313339	0.2940876	1.301843	8.876094
13.07866	-0.06425353	0.06916738	0	0	-1.308207	-8.919482
13.09525	-0.06425353	0.06916738	0	0	0	0
13.11179	-0.04523228	0.08404849	1.150111	0.8997795	34.71141	27.15618
13.12836	-0.04523228	0.08404849	0	0	-34.74041	-27.17887
13.14493	-0.04523228	0.08404849	0	0	0	0
13.16178	-0.02125995	0.100768	1.422087	0.9918379	42.54762	29.67493
13.17806	-0.02125995	0.100768	0	0	-42.91991	-29.93459
13.19463	-0.02125995	0.100768	0	0	0	0
13.21132	-0.008683993	0.109526	0.7531471	0.5244932	22.6414	15.76752
13.22776	-0.008683993	0.109526	0	0	-22.73068	-15.82969
13.24436	-0.008683993	0.109526	0	0	0	0
13.26136	-0.008683993	0.109526	0	0	0	0
13.27746	-0.008683993	0.109526	0	0	0	0
13.29403	-0.008683993	0.109526	0	0	0	0
13.31059	-0.008789247	0.1093063	-0.006353897	-0.01326056	-0.191772	-0.4002276
13.32716	-0.008789247	0.1093063	0	0	0.191772	0.4002276
13.34373	-0.008789247	0.1093063	0	0	0	0
13.36029	-0.009894414	0.1085008	-0.06671185	-0.0486245	-2.013484	-1.467575
13.37696	-0.009894414	0.1085008	0	0	2.007186	1.462985
13.39346	-0.009894414	0.1085008	0	0	0	0
13.40999	-0.0102628	0.1087205	-0.02227801	0.01328652	-0.674487	0.4022616
13.427	-0.0102628	0.1087205	0	0	0.6640943	-0.3960634
13.4435	-0.0102628	0.1087205	0	0	0	0
13.45969	-0.02381129	0.1104228	-0.8367665	0.1051388	-25.59773	3.216327
13.47626	-0.02381129	0.1104228	0	0	25.54333	-3.209492
13.49306	-0.02381129	0.1104228	0	0	0	0
13.50955	-0.08832225	0.1144475	-3.913488	0.2441527	-117.5746	7.335186
13.52596	-0.08832225	0.1144475	0	0	118.9584	-7.421518
13.54253	-0.08832225	0.1144475	0	0	0	0
13.55909	-0.1602457	0.1167328	-4.341559	0.1379468	-131.0361	4.163481
13.57584	-0.1602457	0.1167328	0	0	130.3233	-4.140836
13.59235	-0.1602457	0.1167328	0	0	0	0
13.60879	-0.1835933	0.1260458	-1.420051	0.5664389	-43.09412	17.18966
13.62538	-0.1835933	0.1260458	0	0	42.99706	-17.15094
13.64239	-0.1835933	0.1260458	0	0	0	0
13.65849	-0.1849412	0.127195	-0.08373664	0.07139511	-2.528705	2.156012
13.67506	-0.1849412	0.127195	0	0	2.563477	-2.185659
13.69163	-0.1849412	0.127195	0	0	0	0
13.70819	-0.184458	0.1275051	0.02916577	0.01871762	0.8803006	0.5649476
13.72476	-0.184458	0.1275051	0	0	-0.8802752	-0.5649313
13.74132	-0.184458	0.1275051	0	0	0	0
13.75789	-0.1831862	0.128417	0.07676775	0.05504008	2.316922	1.661161
13.77446	-0.1831862	0.128417	0	0	-2.316922	-1.661161
13.79103	-0.1831862	0.128417	0	0	0	0
13.80759	-0.1807936	0.1300944	0.1444289	0.1012544	4.358999	3.055953
13.82416	-0.1807936	0.1300944	0	0	-4.359125	-3.056041
13.84073	-0.1807936	0.1300944	0	0	0	0
13.85729	-0.1807681	0.1300762	0.001537313	-0.001100137	0.04639753	-0.03320315
13.87386	-0.1807681	0.1300762	0	0	-0.04639887	0.0332041
13.89054	-0.1807681	0.1300762	0	0	0	0
13.90699	-0.1807426	0.1300215	0.001548097	-0.003325374	0.046723	-0.1003629
13.92356	-0.1807426	0.1300215	0	0	-0.04688765	0.1007165
13.94013	-0.1807426	0.1300215	0	0	0	0
13.95669	-0.1806917	0.1299485	0.003074449	-0.004401193	0.09279239	-0.1328359
13.97326	-0.1806917	0.1299485	0	0	-0.09279239	0.1328359
13.98983	-0.1806917	0.1299485	0	0	0	0
14.00662	-0.1807172	0.1299303	-0.001515931	-0.001085722	-0.04543313	-0.03253958
14.02313	-0.1807172	0.1299303	0	0	0.04551509	0.03259828
14.03953	-0.1807172	0.1299303	0	0	0	0
14.05609	-0.1807172	0.1298939	0	-0.002200147	0	-0.06675216
14.07266	-0.1807172	0.1298939	0	0	0	0.06639292
14.08969	-0.1807172	0.1298939	0	0	0	0
14.10864	-0.1805134	0.1297115	0.01074681	-0.009617259	0.2986944	-0.2673
14.12521	-0.1805134	0.1297115	0	0	-0.3025112	0.2707156
14.14178	-0.1805134	0.1297115	0	0	0	0
14.15834	-0.1803861	0.1296569	0.007687022	-0.00330112	0.2320081	-0.09963372
14.17523	-0.1803861	0.1296569	0	0	-0.229812	0.09869062
14.19174	-0.1803861	0.1296569	0	0	0	0
14.20804	-0.1802587	0.1295292	0.0078125	-0.007829869	0.2380634	-0.2385927
14.22461	-0.1802587	0.1295292	0	0	-0.2376973	0.2382258
14.24126	-0.1802587	0.1295292	0	0	0	0
14.25779	-0.1796983	0.1291281	0.03390992	-0.02427109	1.022021	-0.7315134
14.27431	-0.1796983	0.1291281	0	0	-1.026121	0.7344478
14.29088	-0.1796983	0.1291281	0	0	0	0
14.30744	-0.1793162	0.1287452	0.02306826	-0.02311413	0.6962215	-0.697606
14.32434	-0.1793162	0.1287452	0	0	-0.6894742	0.6908453
14.34058	-0.1793162	0.1287452	0	0	0	0
14.35714	-0.1762571	0.1265566	0.1846594	-0.1321114	5.628436	-4.026766
14.37371	-0.1762571	0.1265566	0	0	-5.573193	3.987243
14.39028	-0.1762571	0.1265566	0	0	0	0
14.40684	-0.1762571	0.1265201	0	-0.002201946	0	-0.06645868
14.42342	-0.1762571	0.1265201	0	0	0	0.06643955
14.43998	-0.1762571	0.1265201	0	0	0	0
14.45654	-0.176155	0.1264472	0.006158792	-0.004404791	0.1859316	-0.132979
14.47311	-0.176155	0.1264472	0	0	-0.1858834	0.1329445
14.48995	-0.176155	0.1264472	0	0	0	0
14.50624	-0.1695153	0.1217019	0.4075304	-0.2912543	12.3	-8.79058
14.52281	-0.1695153	0.1217019	0	0	-12.4021	8.863545
14.53938	-0.1695153	0.1217019	0	0	0	0
14.55594	-0.1276184	0.09188323	2.529046	-1.79996	76.33116	-54.32603
14.57251	-0.1276184	0.09188323	0	0	-76.32896	54.32447
14.58953	-0.1276184	0.09188323	0	0	0	0
14.60564	-0.06344107	0.04639976	3.984301	-2.823735	120.2534	-85.22538
14.62221	-0.06344107	0.04639976	0	0	-121.9416	86.42188
14.63908	-0.06344107	0.04639976	0	0	0	0
14.66035	0.002342101	-0.000403799	3.09252	-2.200273	81.07057	-57.68029
14.67692	0.002342101	-0.000403799	0	0	-81.72438	58.14546
14.69378	0.02925481	-0.01971904	1.596516	-1.145819	47.7623	-34.27898
14.71006	0.02925481	-0.01971904	0	0	-48.18434	34.58188
14.72662	0.02925481	-0.01971904	0	0	0	0
14.74319	0.06207803	-0.04390203	1.981442	-1.459856	59.80519	-44.06235
14.75976	0.06207803	-0.04390203	0	0	-59.80347	44.06108
14.77686	0.06207803	-0.04390203	0	0	0	0
14.79289	0.08401231	-0.06009476	1.368545	-1.010312	41.30515	-30.49304
14.80946	0.08401231	-0.06009476	0	0	-41.98307	30.99351
14.82602	0.08401231	-0.06009476	0	0	0	0
14.84259	0.08785223	-0.06334037	0.2318046	-0.1959278	6.996882	-5.913963
14.8592	0.08785223	-0.06334037	0	0	-6.98763	5.906143
14.87572	0.08785223	-0.06334037	0	0	0	0
14.89229	0.08584116	-0.06482036	-0.1213953	-0.08933801	-3.668363	-2.699645
14.90886	0.08584116	-0.06482036	0	0	3.663823	2.696304
14.93047	0.08584116	-0.06482036	0	0	0	0
14.94199	0.08414296	-0.06603184	-0.1474696	-0.1052032	-4.451025	-3.175312
14.95855	0.08414296	-0.06603184	0	0	5.251234	3.746171
14.97529	0.08414296	-0.06603184	0	0	0	0
14.99169	0.08411683	-0.06601261	-0.001593674	0.001172875	-0.04809994	0.03539947
15.00825	0.08411683	-0.06601261	0	0	0.04834764	-0.03558177
15.02482	0.08411683	-0.06601261	0	0	0	0
15.04139	0.08411683	-0.06601261	0	0	0	0
15.05795	0.08411683	-0.06601261	0	0	0	0
15.07486	0.08411683	-0.06601261	0	0	0	0
15.09137	0.08406457	-0.06597415	-0.003165071	0.002329806	-0.094707	0.06971375
15.10765	0.08406457	-0.06597415	0	0	0.09652215	-0.07104988
15.12422	0.08406457	-0.06597415	0	0	0	0
15.14089	0.0840907	-0.06599338	0.001567237	-0.001153419	0.04715003	-0.03470038
15.15735	0.0840907	-0.06599338	0	0	-0.04730203	0.03481225
15.17396	0.0840907	-0.06599338	0	0	0	0
15.19049	0.0840907	-0.06599338	0	0	0	0
15.20706	0.0840907	-0.06599338	0	0	0	0
15.22362	0.0840907	-0.06599338	0	0	0	0
15.24019	0.08411683	-0.06601261	0.001577252	-0.001161239	0.04760292	-0.03504726
15.25675	0.08411683	-0.06601261	0	0	-0.04760429	0.03504827
15.27332	0.08411683	-0.06601261	0	0	0	0
15.28999	0.08411683	-0.06601261	0	0	0	0
15.30646	0.08411683	-0.06601261	0	0	0	0
15.32305	0.08411683	-0.06601261	0	0	0	0
15.33959	0.0840907	-0.06603184	-0.00157998	-0.001162797	-0.04768801	-0.03509631
15.35615	0.0840907	-0.06603184	0	0	0.04772786	0.03512564
15.37272	0.0840907	-0.06603184	0	0	0	0
15.38929	0.0840907	-0.06599338	0	0.002322027	0	0.07008094
15.40585	0.0840907	-0.06599338	0	0	0	-0.07008094
15.42242	0.0840907	-0.06599338	0	0	0	0
15.43911	0.08406457	-0.06601261	-0.001565893	-0.001152876	-0.04709069	-0.03467014
15.45555	0.08406457	-0.06601261	0	0	0.04726012	0.03479487
15.47416	0.08406457	-0.06601261	0	0	0	0
15.48869	0.0840907	-0.06603184	0.001798152	-0.001323362	0.05427145	-0.03994144
15.50525	0.0840907	-0.06603184	0	0	-0.05782142	0.04255406
15.52182	0.0840907	-0.06603184	0	0	0	0
15.53839	0.0840907	-0.06603184	0	0	0	0
15.55495	0.0840907	-0.06603184	0	0	0	0
15.57152	0.0840907	-0.06603184	0	0	0	0
15.58809	0.0840907	-0.06603184	0	0	0	0
15.60465	0.0840907	-0.06603184	0	0	0	0
15.62122	0.0840907	-0.06603184	0	0	0	0
15.63778	0.0840907	-0.06603184	0	0	0	0
15.65435	0.0840907	-0.06603184	0	0	0	0
15.67092	0.0840907	-0.06603184	0	0	0	0
15.6876	0.0840907	-0.06603184	0	0	0	0
15.70414	0.0840907	-0.06603184	0	0	0	0
15.72065	0.0840907	-0.06603184	0	0	0	0
15.73718	0.0840907	-0.06603184	0	0	0	0
15.75375	0.0840907	-0.06603184	0	0	0	0
15.77032	0.0840907	-0.06603184	0	0	0	0
15.78714	0.0840907	-0.06603184	0	0	0	0
15.80345	0.0840907	-0.06603184	0	0	0	0
15.82002	0.0840907	-0.06603184	0	0	0	0
15.83658	0.0840907	-0.06603184	0	0	0	0
15.85315	0.0840907	-0.06603184	0	0	0	0
15.86972	0.0840907	-0.06603184	0	0	0	0
15.88628	0.0840907	-0.06603184	0	0	0	0
15.90285	0.0840907	-0.06603184	0	0	0	0
15.91974	0.0840907	-0.06603184	0	0	0	0
15.93598	0.0840907	-0.06603184	0	0	0	0
15.95255	0.0840907	-0.06603184	0	0	0	0
15.96912	0.0840907	-0.06603184	0	0	0	0
15.98568	0.08411683	-0.06605108	0.001577342	-0.001161305	0.0476084	-0.03505129
16.00225	0.08411683	-0.06605108	0	0	-0.04760566	0.03504928
16.02069	0.08411683	-0.06605108	0	0	0	0
16.03563	0.08411683	-0.06605108	0	0	0	0
16.05196	0.08411683	-0.06605108	0	0	0	0
16.06865	0.08411683	-0.06605108	0	0	0	0
16.08515	0.08411683	-0.06605108	0	0	0	0
16.10167	0.08411683	-0.06605108	0	0	0	0
16.11822	0.08411683	-0.06605108	0	0	0	0
16.13521	0.08411683	-0.06605108	0	0	0	0
16.15135	0.08411683	-0.06605108	0	0	0	0
16.16792	0.08411683	-0.06605108	0	0	0	0
16.18448	0.08411683	-0.06605108	0	0	0	0
16.20105	0.08411683	-0.06605108	0	0	0	0
16.21775	0.08411683	-0.06605108	0	0	0	0
16.23418	0.0840907	-0.06607031	-0.001589605	-0.001169881	-0.04797715	-0.0353091
16.25075	0.0840907	-0.06607031	0	0	0.04816291	0.03544581
16.26732	0.0840907	-0.06607031	0	0	0	0
16.28389	0.0840907	-0.06607031	0	0	0	0
16.30065	0.0840907	-0.06607031	0	0	0	0
16.31702	0.0840907	-0.06607031	0	0	0	0
16.33359	0.08411683	-0.06608955	0.001577161	-0.001161172	0.04788271	-0.03525325
16.35018	0.08411683	-0.06608955	0	0	-0.04755774	0.035014
16.36673	0.08411683	-0.06608955	0	0	0	0
16.38329	0.08411683	-0.06608955	0	0	0	0
16.39985	0.08411683	-0.06608955	0	0	0	0
16.41672	0.08411683	-0.06608955	0	0	0	0
16.43299	0.08411683	-0.06608955	0	0	0	0
16.44956	0.08411683	-0.06608955	0	0	0	0
16.46612	0.08411683	-0.06608955	0	0	0	0
16.48269	0.08411683	-0.06608955	0	0	0	0
16.49926	0.08411683	-0.06608955	0	0	0	0
16.51582	0.08411683	-0.06608955	0	0	0	0
16.53239	0.08411683	-0.06608955	0	0	0	0
16.54896	0.08411683	-0.06608955	0	0	0	0
16.5709	0.08411683	-0.06608955	0	0	0	0
16.58275	0.08411683	-0.06608955	0	0	0	0
16.59932	0.08411683	-0.06608955	0	0	0	0
16.61589	0.08411683	-0.06608955	0	0	0	0
16.63246	0.08411683	-0.06608955	0	0	0	0
16.64939	0.08411683	-0.06608955	0	0	0	0
16.66591	0.08411683	-0.06608955	0	0	0	0
16.68216	0.08411683	-0.06608955	0	0	0	0
16.69872	0.08411683	-0.06608955	0	0	0	0
16.71546	0.08411683	-0.06608955	0	0	0	0
16.73246	0.08411683	-0.06608955	0	0	0	0
16.74847	0.08411683	-0.06608955	0	0	0	0
16.76499	0.08411683	-0.06608955	0	0	0	0
16.78156	0.08411683	-0.06608955	0	0	0	0
16.79813	0.08411683	-0.06608955	0	0	0	0
16.815	0.08411683	-0.06608955	0	0	0	0
16.83126	0.08411683	-0.06608955	0	0	0	0
16.84783	0.08411683	-0.06608955	0	0	0	0
16.86475	0.08411683	-0.06608955	0	0	0	0
16.88096	0.08411683	-0.06608955	0	0	0	0
16.89779	0.08411683	-0.06608955	0	0	0	0
16.91427	0.08411683	-0.06608955	0	0	0	0
16.93066	0.08411683	-0.06608955	0	0	0	0
16.94732	0.08411683	-0.06608955	0	0	0	0
16.9638	0.08411683	-0.06608955	0	0	0	0
16.98036	0.08411683	-0.06608955	0	0	0	0
16.99693	0.08411683	-0.06608955	0	0	0	0
17.0135	0.08411683	-0.06608955	0	0	0	0
17.03038	0.08414296	-0.06610878	0.001547759	-0.001139084	0.04627198	-0.03405417
17.04663	0.08414296	-0.06610878	0	0	-0.04671416	0.0343796
17.0632	0.08414296	-0.06610878	0	0	0	0
17.07976	0.08414296	-0.06610878	0	0	0	0
17.09633	0.08414296	-0.06610878	0	0	0	0
17.1129	0.08414296	-0.06610878	0	0	0	0
17.12946	0.08414296	-0.06610878	0	0	0	0
17.14603	0.08414296	-0.06610878	0	0	0	0
17.1626	0.08414296	-0.06610878	0	0	0	0
17.17926	0.08414296	-0.06610878	0	0	0	0
17.19573	0.08414296	-0.06610878	0	0	0	0
17.2123	0.08414296	-0.06610878	0	0	0	0
17.22886	0.08414296	-0.06610878	0	0	0	0
17.24543	0.08414296	-0.06610878	0	0	0	0
17.262	0.08414296	-0.06610878	0	0	0	0
17.27856	0.08414296	-0.06610878	0	0	0	0
17.29513	0.08414296	-0.06610878	0	0	0	0
17.3117	0.08414296	-0.06610878	0	0	0	0
17.32826	0.08411683	-0.06612802	-0.001577161	-0.001161172	-0.04760155	-0.03504625
17.34483	0.08411683	-0.06612802	0	0	0.04759881	0.03504423
17.3614	0.08411683	-0.06612802	0	0	0	0
17.37796	0.08411683	-0.06612802	0	0	0	0
17.39453	0.08411683	-0.06612802	0	0	0	0
17.4111	0.08411683	-0.06612802	0	0	0	0
17.42766	0.08411683	-0.06612802	0	0	0	0
17.44423	0.08411683	-0.06612802	0	0	0	0
17.4608	0.08411683	-0.06612802	0	0	0	0
17.47747	0.08411683	-0.06612802	0	0	0	0
17.49393	0.08411683	-0.06612802	0	0	0	0
17.51051	0.08411683	-0.06612802	0	0	0	0
17.52706	0.08411683	-0.06612802	0	0	0	0
17.54363	0.08411683	-0.06612802	0	0	0	0
17.5602	0.08411683	-0.06612802	0	0	0	0
17.57676	0.08411683	-0.06612802	0	0	0	0
17.59333	0.08411683	-0.06612802	0	0	0	0
17.6099	0.08411683	-0.06612802	0	0	0	0
17.62646	0.08411683	-0.06612802	0	0	0	0
17.64825	0.08411683	-0.06612802	0	0	0	0
17.6596	0.08411683	-0.06612802	0	0	0	0
17.67616	0.08411683	-0.06612802	0	0	0	0
17.69273	0.08411683	-0.06612802	0	0	0	0
17.7093	0.08411683	-0.06612802	0	0	0	0
17.72591	0.08411683	-0.06612802	0	0	0	0
17.74243	0.08411683	-0.06612802	0	0	0	0
17.759	0.08411683	-0.06612802	0	0	0	0
17.77556	0.08411683	-0.06612802	0	0	0	0
17.79213	0.08411683	-0.06612802	0	0	0	0
17.8087	0.08411683	-0.06612802	0	0	0	0
17.82546	0.08411683	-0.06612802	0	0	0	0
17.84183	0.08411683	-0.06612802	0	0	0	0
17.85839	0.08411683	-0.06612802	0	0	0	0
17.87496	0.08411683	-0.06612802	0	0	0	0
17.89153	0.08411683	-0.06612802	0	0	0	0
17.9081	0.08411683	-0.06612802	0	0	0	0
17.92466	0.08411683	-0.06612802	0	0	0	0
17.94123	0.08411683	-0.06612802	0	0	0	0
17.9578	0.08411683	-0.06612802	0	0	0	0
17.97453	0.08411683	-0.06612802	0	0	0	0
17.99093	0.08411683	-0.06612802	0	0	0	0
18.0075	0.08411683	-0.06612802	0	0	0	0
18.02408	0.08411683	-0.06612802	0	0	0	0
18.04063	0.08411683	-0.06612802	0	0	0	0
18.0572	0.08411683	-0.06612802	0	0	0	0
18.07377	0.08411683	-0.06612802	0	0	0	0
18.09033	0.08411683	-0.06612802	0	0	0	0
18.10714	0.08411683	-0.06612802	0	0	0	0
18.12347	0.08411683	-0.06612802	0	0	0	0
18.14003	0.08411683	-0.06612802	0	0	0	0
18.15669	0.08411683	-0.06612802	0	0	0	0
18.17317	0.08411683	-0.06612802	0	0	0	0
18.18973	0.08411683	-0.06612802	0	0	0	0
18.2063	0.08411683	-0.06612802	0	0	0	0
18.22287	0.08411683	-0.06612802	0	0	0	0
18.23943	0.08411683	-0.06612802	0	0	0	0
18.256	0.08411683	-0.06612802	0	0	0	0
18.27257	0.08411683	-0.06612802	0	0	0	0
18.28913	0.08411683	-0.06612802	0	0	0	0
18.3057	0.08411683	-0.06612802	0	0	0	0
18.32227	0.08411683	-0.06612802	0	0	0	0
18.33883	0.08411683	-0.06612802	0	0	0	0
18.3554	0.08411683	-0.06612802	0	0	0	0
18.37202	0.08411683	-0.06612802	0	0	0	0
18.38854	0.08411683	-0.06612802	0	0	0	0
18.4051	0.08411683	-0.06612802	0	0	0	0
18.42167	0.08411683	-0.06612802	0	0	0	0
18.43824	0.08411683	-0.06612802	0	0	0	0
18.4548	0.08411683	-0.06612802	0	0	0	0
18.4731	0.08411683	-0.06612802	0	0	0	0
18.48967	0.08411683	-0.06612802	0	0	0	0
18.50624	0.08411683	-0.06612802	0	0	0	0
18.5229	0.08411683	-0.06612802	0	0	0	0
18.53937	0.08411683	-0.06612802	0	0	0	0
18.55594	0.08411683	-0.06612802	0	0	0	0
18.57251	0.08411683	-0.06612802	0	0	0	0
18.58907	0.08411683	-0.06612802	0	0	0	0
18.60597	0.08411683	-0.06612802	0	0	0	0
18.62221	0.08411683	-0.06612802	0	0	0	0
18.63877	0.08411683	-0.06612802	0	0	0	0
18.65534	0.08411683	-0.06612802	0	0	0	0
18.67191	0.08411683	-0.06612802	0	0	0	0
18.6885	0.08411683	-0.06612802	0	0	0	0
18.70504	0.08411683	-0.06612802	0	0	0	0
18.72161	0.08411683	-0.06612802	0	0	0	0
18.74407	0.08411683	-0.06612802	0	0	0	0
18.75474	0.08411683	-0.06612802	0	0	0	0
18.77131	0.08411683	-0.06612802	0	0	0	0
18.78787	0.08411683	-0.06612802	0	0	0	0
18.80444	0.08411683	-0.06612802	0	0	0	0
18.82101	0.08411683	-0.06612802	0	0	0	0
18.83758	0.08411683	-0.06612802	0	0	0	0
18.85414	0.08411683	-0.06612802	0	0	0	0
18.87071	0.08411683	-0.06612802	0	0	0	0
18.88728	0.08411683	-0.06612802	0	0	0	0
18.90384	0.08411683	-0.06612802	0	0	0	0
18.92041	0.08411683	-0.06612802	0	0	0	0
18.93698	0.08411683	-0.06612802	0	0	0	0
18.95375	0.08411683	-0.06612802	0	0	0	0
18.97026	0.08411683	-0.06612802	0	0	0	0
18.98678	0.08411683	-0.06612802	0	0	0	0
19.00324	0.08411683	-0.06612802	0	0	0	0
19.01985	0.08411683	-0.06612802	0	0	0	0
19.03638	0.08411683	-0.06612802	0	0	0	0
19.05294	0.08411683	-0.06612802	0	0	0	0
19.06951	0.08411683	-0.06612802	0	0	0	0
19.08607	0.08411683	-0.06612802	0	0	0	0
19.10264	0.08411683	-0.06612802	0	0	0	0
19.11921	0.08411683	-0.06612802	0	0	0	0
19.13593	0.08411683	-0.06612802	0	0	0	0
19.15234	0.08411683	-0.06612802	0	0	0	0
19.16891	0.08411683	-0.06612802	0	0	0	0
19.18547	0.08411683	-0.06612802	0	0	0	0
19.20204	0.08411683	-0.06612802	0	0	0	0
19.21861	0.0840907	-0.06610878	-0.001577342	0.001161305	-0.04760703	0.03505029
19.23517	0.0840907	-0.06610878	0	0	0.04760703	-0.03505029
19.25174	0.0840907	-0.06610878	0	0	0	0
19.2683	0.0840907	-0.06610878	0	0	0	0
19.29111	0.0840907	-0.06610878	0	0	0	0
19.30166	0.0840907	-0.06610878	0	0	0	0
19.318	0.0840907	-0.06610878	0	0	0	0
19.33469	0.0840907	-0.06610878	0	0	0	0
19.3512	0.0840907	-0.06610878	0	0	0	0
19.3677	0.08406457	-0.06608955	-0.001583542	0.001165418	-0.04797087	0.03530448
19.38427	0.08406457	-0.06608955	0	0	0.0478851	-0.03524136
19.40125	0.08406457	-0.06608955	0	0	0	0
19.4174	0.0840907	-0.06610878	0.001618145	-0.001190885	0.04884416	-0.03594719
19.43397	0.0840907	-0.06610878	0	0	-0.04945923	0.03639985
19.45054	0.0840907	-0.06610878	0	0	0	0
19.4671	0.0840907	-0.06610878	0	0	0	0
19.48381	0.0840907	-0.06610878	0	0	0	0
19.50032	0.0840907	-0.06610878	0	0	0	0
19.5168	0.08414296	-0.06610878	0.003170015	0	0.09607496	0
19.53337	0.08414296	-0.06610878	0	0	-0.09590863	0
19.54994	0.08414296	-0.06610878	0	0	0	0
19.57159	0.08448264	-0.06624343	0.01568935	-0.006219166	0.4105275	-0.1627306
19.58837	0.08448264	-0.06624343	0	0	-0.4081848	0.161802
19.60472	0.08722548	-0.06818687	0.1677796	-0.1188806	5.063599	-3.587824
19.62129	0.08722548	-0.06818687	0	0	-5.097342	3.611733
19.63786	0.08722548	-0.06818687	0	0	0	0
19.65442	0.08732995	-0.06826387	0.006305495	-0.004647835	0.1903002	-0.1402719
19.67139	0.08732995	-0.06826387	0	0	-0.1880487	0.1386123
19.68756	0.08732995	-0.06826387	0	0	0	0
19.70412	0.08766944	-0.06851412	0.02049421	-0.01510687	0.6260483	-0.4614781
19.72069	0.08766944	-0.06851412	0	0	-0.618552	0.4559523
19.73748	0.08766944	-0.06851412	0	0	0	0
19.75395	0.1203368	-0.09231444	1.982534	-1.444406	59.5997	-43.42229
19.77039	0.1203368	-0.09231444	0	0	-60.2352	43.8853
19.78697	0.1203368	-0.09231444	0	0	0	0
19.80352	0.1857547	-0.1419608	3.951815	-2.999076	119.2729	-90.5175
19.82051	0.1857547	-0.1419608	0	0	-117.8348	89.42612
19.83665	0.1857547	-0.1419608	0	0	0	0
19.85513	0.2238678	-0.1702731	2.062367	-1.532029	59.55465	-44.24016
19.8717	0.2238678	-0.1702731	0	0	-58.84486	43.71289
19.88851	0.2238678	-0.1702731	0	0	0	0
19.90484	0.2372115	-0.1743463	0.8170869	-0.249416	24.65973	-7.52739
19.92153	0.2372115	-0.1743463	0	0	-24.74234	7.552607
19.93797	0.2372115	-0.1743463	0	0	0	0
19.95454	0.2799741	-0.1868123	2.581161	-0.7524474	78.20119	-22.79683
19.9711	0.2799741	-0.1868123	0	0	-77.89958	22.70891
19.98767	0.2799741	-0.1868123	0	0	0	0
20.00424	0.3297186	-0.2044944	3.002585	-1.067294	90.61819	-32.211
20.02081	0.3297186	-0.2044944	0	0	-90.61819	32.211
20.03737	0.3297186	-0.2044944	0	0	0	0
20.05394	0.3500677	-0.217197	1.228415	-0.7668241	37.07576	-23.14413
20.07051	0.3500677	-0.217197	0	0	-37.07576	23.14413
20.08714	0.3500677	-0.217197	0	0	0	0
20.10364	0.3587476	-0.2247284	0.5260375	-0.4564339	15.87401	-13.77362
20.1202	0.3587476	-0.2247284	0	0	-15.91065	13.8054
20.13677	0.3587476	-0.2247284	0	0	0	0
20.15334	0.3585169	-0.2245228	-0.01392847	0.01241005	-0.4203862	0.3745575
20.1699	0.3585169	-0.2245228	0	0	0.4203862	-0.3745575
20.18647	0.3585169	-0.2245228	0	0	0	0
20.20304	0.3580322	-0.2241323	-0.02925505	0.02357331	-0.8829192	0.7114441
20.21961	0.3580322	-0.2241323	0	0	0.8829192	-0.7114441
20.23617	0.3580322	-0.2241323	0	0	0	0
20.25297	0.3580322	-0.2241323	0	0	0	0
20.26954	0.3580322	-0.2241323	0	0	0	0
20.28617	0.3580322	-0.2241323	0	0	0	0
20.30268	0.3558143	-0.2222012	-0.1343378	0.1169637	-4.053623	3.529361
20.31923	0.3558143	-0.2222012	0	0	4.062274	-3.536893
20.3358	0.3558143	-0.2222012	0	0	0	0
20.35237	0.3549353	-0.2214211	-0.05306023	0.04709449	-1.601453	1.421396
20.36893	0.3549353	-0.2214211	0	0	1.601453	-1.421396
20.38804	0.3549353	-0.2214211	0	0	0	0
20.40207	0.3548891	-0.2214621	-0.003298871	-0.002927961	-0.09957159	-0.0883762
20.41863	0.3548891	-0.2214621	0	0	0.107848	0.09572206
20.4352	0.3548891	-0.2214621	0	0	0	0
20.45177	0.3548891	-0.2214621	0	0	0	0
20.46833	0.3548891	-0.2214621	0	0	0	0
20.48529	0.3548891	-0.2214621	0	0	0	0
20.50146	0.3548891	-0.2214621	0	0	0	0
20.51803	0.3548891	-0.2214621	0	0	0	0
20.5346	0.3548891	-0.2214621	0	0	0	0
20.55133	0.3548891	-0.2214621	0	0	0	0
20.56783	0.3548891	-0.2214621	0	0	0	0
20.5843	0.3548891	-0.2214621	0	0	0	0
20.60086	0.3548428	-0.2215032	-0.00279397	-0.002478231	-0.08456556	-0.07500906
20.61743	0.3548428	-0.2215032	0	0	0.08432217	0.07479317
20.634	0.3548428	-0.2215032	0	0	0	0
20.6509	0.3548196	-0.2215237	-0.001369964	-0.001214808	-0.04093326	-0.03629732
20.66713	0.3548196	-0.2215237	0	0	0.04134799	0.03666508
20.6839	0.3548196	-0.2215237	0	0	0	0
20.70042	0.3547965	-0.2215443	-0.001400439	-0.001242529	-0.04207159	-0.03732769
20.71694	0.3547965	-0.2215443	0	0	0.04239467	0.03761434
20.7334	0.3547965	-0.2215443	0	0	0	0
20.74996	0.3547502	-0.2215853	-0.002794935	-0.002479088	-0.08463387	-0.07506964
20.76653	0.3547502	-0.2215853	0	0	0.08437073	0.07483624
20.7831	0.3547502	-0.2215853	0	0	0	0
20.79966	0.3546576	-0.2216674	-0.005587296	-0.004956791	-0.1686249	-0.1495963
20.81623	0.3546576	-0.2216674	0	0	0.1686249	0.1495963
20.83281	0.3546576	-0.2216674	0	0	0	0
20.84937	0.3544262	-0.2218316	-0.01397969	-0.009919534	-0.421908	-0.2993721
20.86593	0.3544262	-0.2218316	0	0	0.4220538	0.2994756
20.8825	0.3544262	-0.2218316	0	0	0	0
20.89956	0.3543336	-0.2219138	-0.005425517	-0.004813269	-0.161337	-0.1431308
20.91563	0.3543336	-0.2219138	0	0	0.1637519	0.1452731
20.93295	0.3543336	-0.2219138	0	0	0	0
20.94877	0.3542179	-0.2219754	-0.007320567	-0.003895884	-0.2209352	-0.117578
20.96533	0.3542179	-0.2219754	0	0	0.2260889	0.1203208
20.9819	0.3542179	-0.2219754	0	0	0	0
20.99902	0.3541484	-0.222037	-0.0040586	-0.003598068	-0.1204912	-0.106819
21.01504	0.3541484	-0.222037	0	0	0.1224747	0.1085774
21.0316	0.3541484	-0.222037	0	0	0	0
21.04857	0.3538938	-0.2219754	-0.0150085	0.003629616	-0.4476237	0.1082521
21.06474	0.3538938	-0.2219754	0	0	0.4529575	-0.109542
21.0813	0.3538938	-0.2219754	0	0	0	0
21.09862	0.3445535	-0.2139017	-0.5393766	0.4662339	-15.9192	13.76046
21.11444	0.3445535	-0.2139017	0	0	16.27842	-14.07097
21.13161	0.3445535	-0.2139017	0	0	0	0
21.14764	0.3025492	-0.1825551	-2.621083	1.956039	-78.9454	58.91468
21.16463	0.3025492	-0.1825551	0	0	79.37403	-59.23455
21.1807	0.3025492	-0.1825551	0	0	0	0
21.19727	0.2582341	-0.1460441	-2.674863	2.203809	-81.95409	67.52164
21.21384	0.2582341	-0.1460441	0	0	80.72752	-66.51107
21.23068	0.2582341	-0.1460441	0	0	0	0
21.24697	0.2057316	-0.1045576	-3.222479	2.546346	-97.2602	76.85331
21.26372	0.2057316	-0.1045576	0	0	97.51844	-77.05737
21.2801	0.2057316	-0.1045576	0	0	0	0
21.29667	0.1522083	-0.06387845	-3.230675	2.455396	-98.05511	74.5244
21.31326	0.1522083	-0.06387845	0	0	97.43465	-74.05283
21.32981	0.1522083	-0.06387845	0	0	0	0
21.34637	0.123448	-0.04258527	-1.735976	1.285259	-52.42806	38.81601
21.36294	0.123448	-0.04258527	0	0	52.39185	-38.7892
21.37951	0.123448	-0.04258527	0	0	0	0
21.39631	0.1216594	-0.04134537	-0.1064438	0.07378689	-3.189711	2.21111
21.41264	0.1216594	-0.04134537	0	0	3.212664	-2.227021
21.42934	0.1216594	-0.04134537	0	0	0	0
21.44584	0.1218927	-0.04163146	0.01414542	-0.01734192	0.4260513	-0.5223277
21.46234	0.1218927	-0.04163146	0	0	-0.4287112	0.5255886
21.47891	0.1218927	-0.04163146	0	0	0	0
21.49547	0.1219186	-0.04161238	0.001565018	0.001151278	0.04723235	0.03474564
21.51204	0.1219186	-0.04161238	0	0	-0.04723235	-0.03474564
21.5289	0.1219186	-0.04161238	0	0	0	0
21.54517	0.1218927	-0.04163146	-0.001593266	-0.001172058	-0.04808765	-0.03537482
21.56174	0.1218927	-0.04163146	0	0	0.04851495	0.03568916
21.57844	0.1218927	-0.04163146	0	0	0	0
21.59497	0.1219186	-0.04165053	0.001568268	-0.001153669	0.0471973	-0.03471985
21.61144	0.1219186	-0.04165053	0	0	-0.04751917	0.03495663
21.62801	0.1219186	-0.04165053	0	0	0	0
21.64457	0.1218668	-0.04168868	-0.003130037	-0.002302556	-0.0944647	-0.06949127
21.66114	0.1218668	-0.04168868	0	0	0.0944647	0.06949127
21.67802	0.1218668	-0.04168868	0	0	0	0
21.69454	0.1217371	-0.04178404	-0.007846774	-0.005772339	-0.2349363	-0.1728267
21.71084	0.1217371	-0.04178404	0	0	0.2390731	0.1758698
21.72758	0.1217371	-0.04178404	0	0	0	0
21.74407	0.1216853	-0.04186034	-0.00314379	-0.004625573	-0.09460749	-0.1391994
21.76054	0.1216853	-0.04186034	0	0	0.09536837	0.1403189
21.77711	0.1216853	-0.04186034	0	0	0	0
21.79367	0.1216594	-0.04187942	-0.001565018	-0.001151503	-0.04723235	-0.03475242
21.81024	0.1216594	-0.04187942	0	0	0.04723235	0.03475242
21.82681	0.1216594	-0.04187942	0	0	0	0
21.84337	0.1216594	-0.04187942	0	0	0	0
21.85994	0.1216594	-0.04187942	0	0	0	0
21.87668	0.1216594	-0.04187942	0	0	0	0
21.89317	0.1216594	-0.04187942	0	0	0	0
21.90964	0.1216594	-0.04187942	0	0	0	0
21.92621	0.1216594	-0.04187942	0	0	0	0
21.94278	0.1216334	-0.04189849	-0.001565018	-0.001151278	-0.04723235	-0.03474564
21.95934	0.1216334	-0.04189849	0	0	0.04723235	0.03474564
21.97591	0.1216334	-0.04189849	0	0	0	0
21.99274	0.1215816	-0.04193664	-0.003082134	-0.002267538	-0.09230169	-0.06790672
22.00925	0.1215816	-0.04193664	0	0	0.09244955	0.06801551
22.02561	0.1215816	-0.04193664	0	0	0	0
22.0423	0.1215556	-0.04199387	-0.001553749	-0.003429187	-0.04701674	-0.1037678
22.05874	0.1215556	-0.04199387	0	0	0.04689224	0.1034931
22.07583	0.1215556	-0.04199387	0	0	0	0
22.09188	0.1188322	-0.04403564	-0.1697206	-0.127241	-5.122178	-3.840141
22.10845	0.1188322	-0.04403564	0	0	5.203958	3.901452
22.12536	0.1188322	-0.04403564	0	0	0	0
22.14158	0.09163737	-0.06405143	-1.677207	-1.234448	-50.62111	-37.25785
22.15815	0.09163737	-0.06405143	0	0	51.16007	37.65453
22.17471	0.09163737	-0.06405143	0	0	0	0
22.19128	0.06142264	-0.08633997	-1.823974	-1.345494	-55.054	-40.61176
22.20785	0.06142264	-0.08633997	0	0	55.05083	40.60942
22.22441	0.06142264	-0.08633997	0	0	0	0
22.24098	0.05106084	-0.09388787	-0.6255114	-0.4556446	-18.87906	-13.75217
22.25755	0.05106084	-0.09388787	0	0	18.87906	13.75217
22.27411	0.05106084	-0.09388787	0	0	0	0
22.29068	0.0510346	-0.09386844	-0.001584314	0.001172999	-0.04781744	0.03540323
22.30725	0.0510346	-0.09386844	0	0	0.04781744	-0.03540323
22.32381	0.0510346	-0.09386844	0	0	0	0
22.34051	0.0510346	-0.0939073	0	-0.002327507	0	-0.06997042
22.35695	0.0510346	-0.0939073	0	0	0	0.07024836
22.37353	0.0510346	-0.0939073	0	0	0	0
22.39008	0.05106084	-0.09388787	0.001586323	0.001174487	0.04787808	0.03544813
22.40664	0.05106084	-0.09388787	0	0	-0.04790842	-0.03547059
22.42321	0.05106084	-0.09388787	0	0	0	0
22.43978	0.05108709	-0.0939073	0.001584356	-0.001172864	0.04781597	-0.03539712
22.45635	0.05108709	-0.0939073	0	0	-0.04781597	0.03539712
22.47311	0.05108709	-0.0939073	0	0	0	0
22.48948	0.05108709	-0.09394617	0	-0.002374709	0	-0.07167298
22.50605	0.05108709	-0.09394617	0	0	0	0.07210884
22.52264	0.05108709	-0.09394617	0	0	0	0
22.53918	0.05108709	-0.09394617	0	0	0	0
22.55575	0.05108709	-0.09394617	0	0	0	0
22.57231	0.05108709	-0.09394617	0	0	0	0
22.59338	0.05108709	-0.09398503	0	-0.001844726	0	-0.04901768
22.60545	0.05108709	-0.09398503	0	0	0	0.05567395
22.62201	0.05108709	-0.09398503	0	0	0	0
22.63858	0.05108709	-0.09398503	0	0	0	0
22.65515	0.05108709	-0.09398503	0	0	0	0
22.67172	0.05111334	-0.09404333	0.001583992	-0.003518233	0.04779946	-0.1061683
22.68828	0.05111334	-0.09404333	0	0	-0.04780771	0.1061866
22.70485	0.05111334	-0.09404333	0	0	0	0
22.72142	0.05116583	-0.09408219	0.003168488	-0.002345729	0.09562515	-0.07079423
22.73798	0.05116583	-0.09408219	0	0	-0.09562515	0.07079423
22.75455	0.05116583	-0.09408219	0	0	0	0
22.77129	0.05127082	-0.09415992	0.006270559	-0.004642732	0.1882489	-0.1393798
22.78781	0.05127082	-0.09415992	0	0	-0.188562	0.1396116
22.80425	0.05127082	-0.09415992	0	0	0	0
22.82082	0.05132331	-0.09423766	0.003168488	-0.004691907	0.09598429	-0.1421339
22.83738	0.05132331	-0.09423766	0	0	-0.09562515	0.141602
22.85395	0.05132331	-0.09423766	0	0	0	0
22.87052	0.05134956	-0.09425709	0.001584539	-0.001172999	0.04782423	-0.03540323
22.88708	0.05134956	-0.09425709	0	0	-0.04782423	0.03540323
22.90365	0.05134956	-0.09425709	0	0	0	0
22.92022	0.0513758	-0.09427652	0.001584314	-0.001172999	0.04781744	-0.03540323
22.93678	0.0513758	-0.09427652	0	0	-0.04781744	0.03540323
22.95335	0.0513758	-0.09427652	0	0	0	0
22.96992	0.0513758	-0.09427652	0	0	0	0
22.98648	0.0513758	-0.09427652	0	0	0	0
23.00305	0.0513758	-0.09427652	0	0	0	0
23.01962	0.05134956	-0.09429596	-0.001584131	-0.001173314	-0.04780918	-0.03541069
23.03618	0.05134956	-0.09429596	0	0	0.04780918	0.03541069
23.05275	0.05134956	-0.09429596	0	0	0	0
23.06932	0.0513758	-0.09431539	0.001584314	-0.001172999	0.04781744	-0.03540323
23.08589	0.0513758	-0.09431539	0	0	-0.04781469	0.03540119
23.10267	0.0513758	-0.09431539	0	0	0	0
23.11917	0.05140205	-0.09433482	0.00159095	-0.001177746	0.04780583	-0.03538961
23.13558	0.05140205	-0.09433482	0	0	-0.04833214	0.03577923
23.15215	0.05140205	-0.09433482	0	0	0	0
23.16872	0.05140205	-0.09437369	0	-0.002346449	0	-0.07082003
23.18528	0.05140205	-0.09437369	0	0	0	0.07082003
23.20185	0.05140205	-0.09437369	0	0	0	0
23.21842	0.0514283	-0.09439313	0.001584131	-0.001173314	0.04780918	-0.03541069
23.23499	0.0514283	-0.09439313	0	0	-0.04780918	0.03541069
23.25155	0.0514283	-0.09439313	0	0	0	0
23.26812	0.0514283	-0.094432	0	-0.002346449	0	-0.07082003
23.28481	0.0514283	-0.094432	0	0	0	0.07056412
23.30125	0.0514283	-0.094432	0	0	0	0
23.31782	0.0514283	-0.094432	0	0	0	0
23.33439	0.0514283	-0.094432	0	0	0	0
23.35095	0.0514283	-0.094432	0	0	0	0
23.36752	0.05145454	-0.09445143	0.001584314	-0.001172999	0.04781744	-0.03540323
23.38488	0.05145454	-0.09445143	0	0	-0.04670171	0.03457717
23.40369	0.05145454	-0.09445143	0	0	0	0
23.41738	0.0514283	-0.09447087	-0.001917203	-0.001420009	-0.05898865	-0.04369095
23.43379	0.0514283	-0.09447087	0	0	0.06369876	0.04717958
23.45043	0.0514283	-0.09447087	0	0	0	0
23.46693	0.05145454	-0.0944903	0.001591092	-0.001178018	0.04801097	-0.03554652
23.48349	0.05145454	-0.0944903	0	0	-0.04813563	0.03563882
23.50006	0.05145454	-0.0944903	0	0	0	0
23.51662	0.05145454	-0.0944903	0	0	0	0
23.53319	0.05145454	-0.0944903	0	0	0	0
23.54975	0.05145454	-0.0944903	0	0	0	0
23.56648	0.05145454	-0.0944903	0	0	0	0
23.583	0.05145454	-0.0944903	0	0	0	0
23.59957	0.05145454	-0.0944903	0	0	0	0
23.61606	0.05145454	-0.09452917	0	-0.002358124	0	-0.07133257
23.63259	0.05145454	-0.09452917	0	0	0	0.07142735
23.64915	0.05145454	-0.09452917	0	0	0	0
23.66661	0.05145454	-0.09452917	0	0	0	0
23.68318	0.05145454	-0.09452917	0	0	0	0
23.7001	0.05145454	-0.09452917	0	0	0	0
23.71662	0.05148079	-0.09450974	0.001589113	0.001176386	0.04751642	0.03517537
23.73288	0.05148079	-0.09450974	0	0	-0.04848987	-0.03589599
23.74965	0.05148079	-0.09450974	0	0	0	0
23.76601	0.05145454	-0.09452917	-0.001604491	-0.00118777	-0.04842642	-0.03584902
23.78267	0.05145454	-0.09452917	0	0	0.04858585	0.03596704
23.79918	0.05145454	-0.09452917	0	0	0	0
23.81571	0.05145454	-0.09452917	0	0	0	0
23.83271	0.05145454	-0.09452917	0	0	0	0
23.84884	0.05145454	-0.09452917	0	0	0	0
23.86572	0.05145454	-0.09452917	0	0	0	0
23.88224	0.05145454	-0.09452917	0	0	0	0
23.89925	0.05145454	-0.09452917	0	0	0	0
23.91511	0.05145454	-0.09452917	0	0	0	0
23.93167	0.05145454	-0.09452917	0	0	0	0
23.95156	0.05145454	-0.09452917	0	0	0	0
23.96481	0.05145454	-0.09452917	0	0	0	0
23.98141	0.05145454	-0.09452917	0	0	0	0
23.99794	0.05145454	-0.09452917	0	0	0	0
24.01451	0.05145454	-0.09452917	0	0	0	0
24.03108	0.05145454	-0.09452917	0	0	0	0
24.04764	0.05145454	-0.09452917	0	0	0	0
24.06446	0.05145454	-0.09452917	0	0	0	0
24.08097	0.05145454	-0.09452917	0	0	0	0
24.09751	0.05145454	-0.09452917	0	0	0	0
24.11411	0.05145454	-0.09452917	0	0	0	0
24.13068	0.05145454	-0.09452917	0	0	0	0
24.14725	0.05145454	-0.09452917	0	0	0	0
24.16381	0.05145454	-0.09452917	0	0	0	0
24.18038	0.05145454	-0.09452917	0	0	0	0
24.19704	0.05145454	-0.09452917	0	0	0	0
24.21351	0.05145454	-0.09452917	0	0	0	0
24.23008	0.05145454	-0.09452917	0	0	0	0
24.24664	0.05145454	-0.09452917	0	0	0	0
24.26321	0.05148079	-0.09450974	0.001584356	0.001172864	0.04781597	0.03539712
24.27978	0.05148079	-0.09450974	0	0	-0.04781597	-0.03539712
24.29635	0.05148079	-0.09450974	0	0	0	0
24.31291	0.05148079	-0.09450974	0	0	0	0
24.32964	0.05148079	-0.09450974	0	0	0	0
24.34616	0.05148079	-0.09450974	0	0	0	0
24.36261	0.05145454	-0.09452917	-0.001595377	-0.001181022	-0.04839091	-0.03582273
24.3792	0.05145454	-0.09452917	0	0	0.04829033	0.03574828
24.39575	0.05145454	-0.09452917	0	0	0	0
24.41231	0.05145454	-0.09452917	0	0	0	0
24.42888	0.05145454	-0.09452917	0	0	0	0
24.44574	0.05145454	-0.09452917	0	0	0	0
24.46201	0.05145454	-0.09452917	0	0	0	0
24.47858	0.05145454	-0.09452917	0	0	0	0
24.50155	0.05145454	-0.09452917	0	0	0	0
24.5134	0.05148079	-0.09450974	0.002214631	0.001639443	0.06359081	0.04707489
24.52997	0.05148079	-0.09450974	0	0	-0.07792649	-0.05768728
24.54654	0.05148079	-0.09450974	0	0	0	0
24.56311	0.05145454	-0.09452917	-0.001584356	-0.001172864	-0.04781597	-0.03539712
24.5799	0.05145454	-0.09452917	0	0	0.0474988	0.03516232
24.59641	0.05145454	-0.09452917	0	0	0	0
24.61281	0.05145454	-0.09452917	0	0	0	0
24.62937	0.05145454	-0.09452917	0	0	0	0
24.64595	0.05145454	-0.09452917	0	0	0	0
24.66251	0.05145454	-0.09452917	0	0	0	0
24.67908	0.05145454	-0.09452917	0	0	0	0
24.69564	0.05145454	-0.09452917	0	0	0	0
24.71221	0.05145454	-0.09452917	0	0	0	0
24.72878	0.05145454	-0.09452917	0	0	0	0
24.74534	0.05145454	-0.09452917	0	0	0	0
24.76204	0.05145454	-0.09452917	0	0	0	0
24.77848	0.05145454	-0.09452917	0	0	0	0
24.79504	0.05145454	-0.09452917	0	0	0	0
24.81161	0.05145454	-0.09452917	0	0	0	0
24.82856	0.05145454	-0.09452917	0	0	0	0
24.84474	0.05145454	-0.09452917	0	0	0	0
24.86131	0.05145454	-0.09452917	0	0	0	0
24.87788	0.05145454	-0.09452917	0	0	0	0
24.89444	0.05145454	-0.09452917	0	0	0	0
24.91101	0.05145454	-0.09452917	0	0	0	0
24.92758	0.05145454	-0.09452917	0	0	0	0
24.94414	0.05145454	-0.09452917	0	0	0	0
24.96071	0.05145454	-0.09452917	0	0	0	0
24.97728	0.05145454	-0.09452917	0	0	0	0
24.99384	0.05145454	-0.09452917	0	0	0	0
25.01041	0.05148079	-0.09454861	0.001584356	-0.001173314	0.04781597	-0.03541069
25.02698	0.05148079	-0.09454861	0	0	-0.04781597	0.03541069
25.04355	0.05148079	-0.09454861	0	0	0	0
25.06384	0.05148079	-0.09454861	0	0	0	0
25.08041	0.05148079	-0.09454861	0	0	0	0
25.09698	0.05148079	-0.09454861	0	0	0	0
25.11354	0.05148079	-0.09454861	0	0	0	0
25.13028	0.05148079	-0.09454861	0	0	0	0
25.14668	0.05148079	-0.09454861	0	0	0	0
25.16324	0.05148079	-0.09454861	0	0	0	0
25.17983	0.05148079	-0.09454861	0	0	0	0
25.19638	0.05148079	-0.09454861	0	0	0	0
25.21295	0.05148079	-0.09454861	0	0	0	0
25.22951	0.05148079	-0.09454861	0	0	0	0
25.24638	0.05148079	-0.09454861	0	0	0	0
25.26265	0.05148079	-0.09454861	0	0	0	0
25.27941	0.05148079	-0.09454861	0	0	0	0
25.29578	0.05148079	-0.09454861	0	0	0	0
25.31235	0.05148079	-0.09454861	0	0	0	0
25.32891	0.05148079	-0.09454861	0	0	0	0
25.34555	0.05148079	-0.09454861	0	0	0	0
25.36206	0.05148079	-0.09454861	0	0	0	0
25.37861	0.05148079	-0.09454861	0	0	0	0
25.39518	0.05148079	-0.09454861	0	0	0	0
25.41175	0.05148079	-0.09454861	0	0	0	0
25.42832	0.05148079	-0.09454861	0	0	0	0
25.44488	0.05148079	-0.09454861	0	0	0	0
25.46165	0.05148079	-0.09454861	0	0	0	0
25.47817	0.05148079	-0.09454861	0	0	0	0
25.49458	0.05148079	-0.09454861	0	0	0	0
25.51115	0.05148079	-0.09454861	0	0	0	0
25.52819	0.05148079	-0.09454861	0	0	0	0
25.54428	0.05148079	-0.09454861	0	0	0	0
25.56085	0.05148079	-0.09454861	0	0	0	0
25.57742	0.05148079	-0.09454861	0	0	0	0
25.59692	0.05148079	-0.09454861	0	0	0	0
25.61075	0.05148079	-0.09454861	0	0	0	0
25.62728	0.05148079	-0.09454861	0	0	0	0
25.64377	0.05148079	-0.09454861	0	0	0	0
25.66025	0.05148079	-0.09454861	0	0	0	0
25.67682	0.05148079	-0.09454861	0	0	0	0
25.69338	0.05148079	-0.09454861	0	0	0	0
25.70995	0.05148079	-0.09454861	0	0	0	0
25.72652	0.05148079	-0.09454861	0	0	0	0
25.74334	0.05148079	-0.09454861	0	0	0	0
25.75965	0.05148079	-0.09454861	0	0	0	0
25.77636	0.05148079	-0.09454861	0	0	0	0
25.79287	0.05148079	-0.09454861	0	0	0	0
25.80935	0.05148079	-0.09454861	0	0	0	0
25.82593	0.05148079	-0.09454861	0	0	0	0
25.84249	0.05148079	-0.09454861	0	0	0	0
25.85905	0.05148079	-0.09454861	0	0	0	0
25.87562	0.05148079	-0.09454861	0	0	0	0
25.89232	0.05148079	-0.09454861	0	0	0	0
25.90875	0.05148079	-0.09454861	0	0	0	0
25.92532	0.05148079	-0.09454861	0	0	0	0
25.94189	0.05148079	-0.09454861	0	0	0	0
25.95845	0.05148079	-0.09454861	0	0	0	0
25.97502	0.05148079	-0.09454861	0	0	0	0
25.99189	0.05145454	-0.09452917	-0.001556227	0.001152483	-0.04654637	0.03447048
26.00816	0.05145454	-0.09452917	0	0	0.04696703	-0.034782
26.02492	0.05145454	-0.09452917	0	0	0	0
26.04129	0.05140205	-0.0944903	-0.00320591	0.002374057	-0.09676013	0.07165331
26.05786	0.05140205	-0.0944903	0	0	0.09732038	-0.07206819
26.07497	0.05140205	-0.0944903	0	0	0	0
26.09099	0.05127082	-0.09447087	-0.008192985	0.001213086	-0.247279	0.03661313
26.10756	0.05127082	-0.09447087	0	0	0.2514331	-0.0372282
26.12412	0.05127082	-0.09447087	0	0	0	0
26.14069	0.05113958	-0.09445143	-0.007921332	0.001173314	-0.2390663	0.03541069
26.15726	0.05113958	-0.09445143	0	0	0.2390663	-0.03541069
26.17383	0.05113958	-0.09445143	0	0	0	0
26.19039	0.05113958	-0.09441256	0	0.002346449	0	0.07082003
26.20696	0.05113958	-0.09441256	0	0	0	-0.07082003
26.22353	0.05113958	-0.09441256	0	0	0	0
26.24009	0.05119208	-0.09445143	0.003169217	-0.002346719	0.09565818	-0.07083227
26.25666	0.05119208	-0.09445143	0	0	-0.09565818	0.07083227
26.27322	0.05119208	-0.09445143	0	0	0	0
26.28979	0.05121832	-0.09447087	0.001584539	-0.001173449	0.04782423	-0.03541681
26.30636	0.05121832	-0.09447087	0	0	-0.04782423	0.03541681
26.32292	0.05121832	-0.09447087	0	0	0	0
26.33949	0.05127082	-0.09450974	0.003168488	-0.002346179	0.09562515	-0.07080781
26.35614	0.05127082	-0.09450974	0	0	-0.09538904	0.07063297
26.37266	0.05127082	-0.09450974	0	0	0	0
26.38919	0.0514283	-0.09462635	0.0095285	-0.007056044	0.2883009	-0.2134926
26.40576	0.0514283	-0.09462635	0	0	-0.2879187	0.2132096
26.42233	0.0514283	-0.09462635	0	0	0	0
26.43889	0.05232063	-0.09517062	0.05386114	-0.03285189	1.625533	-0.9914721
26.45546	0.05232063	-0.09517062	0	0	-1.625533	0.9914721
26.47203	0.05232063	-0.09517062	0	0	0	0
26.48859	0.09033244	-0.1226093	2.294662	-1.656394	69.25703	-49.99294
26.50516	0.09033244	-0.1226093	0	0	-69.25703	49.99294
26.52173	0.09033244	-0.1226093	0	0	0	0
26.53829	0.1749049	-0.1735431	5.104803	-3.07437	154.0632	-92.78468
26.55486	0.1749049	-0.1735431	0	0	-154.0632	92.78468
26.57143	0.1749049	-0.1735431	0	0	0	0
26.58809	0.2649623	-0.2109995	5.403528	-2.247419	162.5921	-67.62482
26.60456	0.2649623	-0.2109995	0	0	-163.0788	67.82724
26.62113	0.2649623	-0.2109995	0	0	0	0
26.6377	0.3085089	-0.2398542	2.628479	-1.741669	79.33222	-52.56671
26.65426	0.3085089	-0.2398542	0	0	-79.32765	52.56369
26.67083	0.3085089	-0.2398542	0	0	0	0
26.6874	0.3236756	-0.2531131	0.9155692	-0.8004048	27.63353	-24.15766
26.70396	0.3236756	-0.2531131	0	0	-27.63353	24.15766
26.7207	0.3236756	-0.2531131	0	0	0	0
26.7372	0.3255431	-0.2547611	0.1131769	-0.09987646	3.405102	-3.004937
26.75366	0.3255431	-0.2547611	0	0	-3.433475	3.029975
26.77023	0.3255431	-0.2547611	0	0	0	0
26.78679	0.3255431	-0.2547611	0	0	0	0
26.80336	0.3255431	-0.2547611	0	0	0	0
26.81993	0.3255431	-0.2547611	0	0	0	0
26.83649	0.3253541	-0.2548029	-0.01140844	-0.00251842	-0.3443274	-0.07601045
26.85306	0.3253541	-0.2548029	0	0	0.3443075	0.07600608
26.86963	0.3253541	-0.2548029	0	0	0	0
26.8862	0.3248815	-0.2551368	-0.02852651	-0.02015816	-0.8609317	-0.6083744
26.90276	0.3248815	-0.2551368	0	0	0.8609317	0.6083744
26.91934	0.3248815	-0.2551368	0	0	0	0
26.9359	0.3245269	-0.2553664	-0.02141104	-0.01386669	-0.6462236	-0.4185217
26.95246	0.3245269	-0.2553664	0	0	0.6463352	0.418594
26.96912	0.3245269	-0.2553664	0	0	0	0
26.98597	0.3243141	-0.2554708	-0.01262876	-0.006194108	-0.376949	-0.1848845
27.00216	0.3243141	-0.2554708	0	0	0.3821488	0.1874349
27.01873	0.3243141	-0.2554708	0	0	0	0
27.03551	0.3241723	-0.2555961	-0.008455548	-0.007466107	-0.2535833	-0.2239098
27.05186	0.3241723	-0.2555961	0	0	0.2552036	0.2253405
27.06843	0.3241723	-0.2555961	0	0	0	0
27.08504	0.3241013	-0.2556587	-0.004272783	-0.003772109	-0.1287972	-0.113705
27.14425	0.3241013	-0.2556587	0	0	0.05635362	0.04975023
27.16082	0.3241013	-0.2556587	0	0	0	0
27.17738	0.3237466	-0.2559719	-0.02141444	-0.01890832	-0.6463262	-0.570687
27.19395	0.3237466	-0.2559719	0	0	0.6463262	0.570687
27.21052	0.3237466	-0.2559719	0	0	0	0
27.22709	0.3236993	-0.2560137	-0.002854809	-0.002520219	-0.08615832	-0.07606037
27.24365	0.3236993	-0.2560137	0	0	0.08615832	0.07606037
27.26048	0.3236993	-0.2560137	0	0	0	0
27.27699	0.323652	-0.2560555	-0.002867503	-0.002531637	-0.08602147	-0.07594591
27.29335	0.323652	-0.2560555	0	0	0.08723944	0.07702122
27.30992	0.323652	-0.2560555	0	0	0	0
27.32654	0.3236047	-0.2560555	-0.002845963	0	-0.08575805	0
27.34305	0.3236047	-0.2560555	0	0	0.08589134	0
27.36006	0.3236047	-0.2560555	0	0	0	0
27.37619	0.3235337	-0.2559928	-0.004400133	0.003884536	-0.1328039	0.1172423
27.39306	0.3235337	-0.2559928	0	0	0.1333258	-0.117703
27.40932	0.3235337	-0.2559928	0	0	0	0
27.4261	0.3232262	-0.2557631	-0.01832386	0.01368608	-0.5545796	0.4142151
27.44245	0.3232262	-0.2557631	0	0	0.5530153	-0.4130467
27.45912	0.3232262	-0.2557631	0	0	0	0
27.47562	0.3231078	-0.2557423	-0.007167928	0.001263866	-0.2161046	0.03810408
27.49216	0.3231078	-0.2557423	0	0	0.2169529	-0.03825366
27.50872	0.3231078	-0.2557423	0	0	0	0
27.53591	0.3230132	-0.255784	-0.003481479	-0.001535753	-0.07956833	-0.03509926
27.55274	0.3230132	-0.255784	0	0	0.07909939	0.0348924
27.56904	0.3229185	-0.255784	-0.005804772	0	-0.1751985	0
27.58561	0.3229185	-0.255784	0	0	0.1765707	0
27.60218	0.3229185	-0.255784	0	0	0	0
27.61874	0.3228712	-0.255784	-0.002858736	0	-0.08628677	0
27.63531	0.3228712	-0.255784	0	0	0.0862818	0
27.65188	0.3228712	-0.255784	0	0	0	0
27.66844	0.3224215	-0.2553873	-0.02714497	0.02394478	-0.8192369	0.7226549
27.68501	0.3224215	-0.2553873	0	0	0.8192369	-0.7226549
27.70158	0.3224215	-0.2553873	0	0	0	0
27.71815	0.3008457	-0.2364601	-1.302313	1.142447	-39.30388	34.47913
27.73471	0.3008457	-0.2364601	0	0	39.30388	-34.47913
27.75139	0.3008457	-0.2364601	0	0	0	0
27.76788	0.2127821	-0.1637073	-5.340126	4.411686	-160.9985	133.0071
27.78441	0.2127821	-0.1637073	0	0	161.7052	-133.591
27.80098	0.2127821	-0.1637073	0	0	0	0
27.82505	0.1257798	-0.09659014	-3.614726	2.78855	-88.95782	68.62577
27.83411	0.1257798	-0.09659014	0	0	109.0926	-84.15861
27.85068	0.09919964	-0.07680433	-1.604384	1.194274	-62.59092	46.59151
27.86725	0.09919964	-0.07680433	0	0	48.42041	-36.04325
27.88416	0.09919964	-0.07680433	0	0	0	0
27.90038	0.09414195	-0.0730996	-0.3117432	0.2283503	-9.408969	6.892022
27.91695	0.09414195	-0.0730996	0	0	9.506933	-6.963781
27.93372	0.09414195	-0.0730996	0	0	0	0
27.95021	0.09445494	-0.07348528	0.0189818	-0.02339006	0.5706709	-0.7032012
27.9667	0.09445494	-0.07348528	0	0	-0.5755554	0.7092202
27.98373	0.09445494	-0.07348528	0	0	0	0
27.99978	0.09458534	-0.07362028	0.008122977	-0.00840932	0.2455477	-0.2542035
28.01635	0.09458534	-0.07362028	0	0	-0.2490077	0.2577855
28.03292	0.09458534	-0.07362028	0	0	0	0
28.04948	0.09466358	-0.07367814	0.004722488	-0.00349206	0.142525	-0.1053906
28.06605	0.09466358	-0.07367814	0	0	-0.142525	0.1053906
28.08262	0.09466358	-0.07367814	0	0	0	0
28.09918	0.09505478	-0.07396746	0.02361833	-0.01746747	0.7128436	-0.5271996
28.11575	0.09505478	-0.07396746	0	0	-0.7128436	0.5271996
28.13232	0.09505478	-0.07396746	0	0	0	0
28.14888	0.09946021	-0.07722915	0.2659425	-0.1968988	8.027086	-5.943103
28.16545	0.09946021	-0.07722915	0	0	-8.026162	5.942419
28.18249	0.09946021	-0.07722915	0	0	0	0
28.19859	0.1248214	-0.09614281	1.575234	-1.174766	47.5434	-35.45656
28.21515	0.1248214	-0.09614281	0	0	-48.22072	35.96169
28.23207	0.1248214	-0.09614281	0	0	0	0
28.24829	0.1476286	-0.1133716	1.406276	-1.062316	42.44393	-32.0626
28.26485	0.1476286	-0.1133716	0	0	-42.89084	32.4002
28.2816	0.1476286	-0.1133716	0	0	0	0
28.29799	0.1615277	-0.1239851	0.848428	-0.6478658	25.60856	-19.55488
28.31455	0.1615277	-0.1239851	0	0	-25.74789	19.66128
28.3316	0.1615277	-0.1239851	0	0	0	0
28.34768	0.165473	-0.1270146	0.2452799	-0.1883444	7.403414	-5.684901
28.37104	0.165473	-0.1270146	0	0	-6.21934	4.77568
28.38082	0.165473	-0.1270146	0	0	0	0
28.39739	0.1654474	-0.1269949	-0.001545231	0.001188155	-0.05864673	0.04509449
28.41423	0.1654474	-0.1269949	0	0	0.04625177	-0.03556379
28.43127	0.1654474	-0.1269949	0	0	0	0
28.44708	0.1654474	-0.1269949	0	0	0	0
28.46365	0.1654474	-0.1269949	0	0	0	0
28.48023	0.1654474	-0.1269949	0	0	0	0
28.49678	0.1654474	-0.1269949	0	0	0	0
28.51335	0.1654474	-0.1269949	0	0	0	0
28.52992	0.1654474	-0.1269949	0	0	0	0
28.54649	0.1654474	-0.1269949	0	0	0	0
28.56305	0.1654474	-0.1269949	0	0	0	0
28.57983	0.1654474	-0.1269949	0	0	0	0
28.59635	0.1654474	-0.1269949	0	0	0	0
28.61275	0.1654474	-0.1269949	0	0	0	0
28.62936	0.1654474	-0.1269949	0	0	0	0
28.64761	0.1651914	-0.1267981	-0.01402365	0.01078096	-0.4022778	0.309259
28.66418	0.1651914	-0.1267981	0	0	0.4026523	-0.3095469
28.68075	0.1651914	-0.1267981	0	0	0	0
28.69732	0.1645512	-0.1263061	-0.03863622	0.02969326	-1.165976	0.8960927
28.71388	0.1645512	-0.1263061	0	0	1.166178	-0.8962474
28.7305	0.1645512	-0.1263061	0	0	0	0
28.74703	0.1614252	-0.1239065	-0.1890991	0.1451568	-5.70538	4.379581
28.76358	0.1614252	-0.1239065	0	0	5.714918	-4.386902
28.78057	0.1614252	-0.1239065	0	0	0	0
28.79672	0.1443315	-0.110867	-1.058716	0.8076131	-31.95395	24.37522
28.81328	0.1443315	-0.110867	0	0	32.36383	-24.68788
28.82985	0.1443315	-0.110867	0	0	0	0
28.84658	0.1281621	-0.09865271	-0.9664184	0.7300279	-29.02289	21.92375
28.86298	0.1281621	-0.09865271	0	0	29.16824	-22.03355
28.87955	0.1281621	-0.09865271	0	0	0	0
28.89612	0.1258834	-0.09694027	-0.1375381	0.1033632	-4.150909	3.119507
28.91269	0.1258834	-0.09694027	0	0	4.150909	-3.119507
28.92925	0.1258834	-0.09694027	0	0	0	0
28.94615	0.1258834	-0.09694027	0	0	0	0
28.96239	0.1258834	-0.09694027	0	0	0	0
28.97918	0.1258834	-0.09694027	0	0	0	0
28.99552	0.1258575	-0.09692082	-0.001585118	0.001190663	-0.04784172	0.03593635
29.01208	0.1258575	-0.09692082	0	0	0.04817173	-0.03618423
29.02869	0.1258575	-0.09692082	0	0	0	0
29.04522	0.1258575	-0.09692082	0	0	0	0
29.06178	0.1258575	-0.09692082	0	0	0	0
29.07873	0.1258575	-0.09692082	0	0	0	0
29.09492	0.1259093	-0.09695973	0.003199747	-0.002403492	0.09657966	-0.07254589
29.11148	0.1259093	-0.09695973	0	0	-0.09768758	0.0733781
29.12805	0.1259093	-0.09695973	0	0	0	0
29.14462	0.1259871	-0.09701809	0.004691098	-0.003523046	0.1415858	-0.1063319
29.16118	0.1259871	-0.09701809	0	0	-0.1415858	0.1063319
29.17775	0.1259871	-0.09701809	0	0	0	0
29.19604	0.126013	-0.09703754	0.001416011	-0.001063637	0.04062366	-0.03051449
29.21261	0.126013	-0.09703754	0	0	-0.04062366	0.03051449
29.22917	0.126013	-0.09703754	0	0	0	0
29.24615	0.126013	-0.09703754	0	0	0	0
29.26231	0.126013	-0.09703754	0	0	0	0
29.27917	0.126013	-0.09703754	0	0	0	0
29.29544	0.126013	-0.09703754	0	0	0	0
29.31201	0.126013	-0.09703754	0	0	0	0
29.32872	0.126013	-0.09703754	0	0	0	0
29.34522	0.126013	-0.09703754	0	0	0	0
29.36175	0.126013	-0.09703754	0	0	0	0
29.37827	0.126013	-0.09703754	0	0	0	0
29.39484	0.126013	-0.09703754	0	0	0	0
29.41141	0.126013	-0.09703754	0	0	0	0
29.42797	0.126013	-0.09703754	0	0	0	0
29.44479	0.126013	-0.09703754	0	0	0	0
29.46111	0.126013	-0.09703754	0	0	0	0
29.47784	0.126013	-0.09703754	0	0	0	0
29.49434	0.126013	-0.09703754	0	0	0	0
29.51081	0.126013	-0.09703754	0	0	0	0
29.52737	0.126013	-0.09703754	0	0	0	0
29.54394	0.126013	-0.09703754	0	0	0	0
29.56051	0.126013	-0.09703754	0	0	0	0
29.57741	0.126013	-0.09703754	0	0	0	0
29.59392	0.126013	-0.09703754	0	0	0	0
29.61021	0.126013	-0.09703754	0	0	0	0
29.62677	0.126013	-0.09703754	0	0	0	0
29.64334	0.126013	-0.09703754	0	0	0	0
29.65991	0.126013	-0.09703754	0	0	0	0
29.67648	0.126013	-0.09703754	0	0	0	0
29.69304	0.126013	-0.09703754	0	0	0	0
29.70961	0.126013	-0.09703754	0	0	0	0
29.72618	0.126013	-0.09703754	0	0	0	0
29.74274	0.126013	-0.09703754	0	0	0	0
29.75931	0.126013	-0.09703754	0	0	0	0
29.77591	0.126013	-0.09703754	0	0	0	0
29.79244	0.1259871	-0.09701809	-0.001566647	0.001176788	-0.04728421	0.03551757
29.80901	0.1259871	-0.09701809	0	0	0.04733326	-0.03555441
29.82557	0.1259871	-0.09701809	0	0	0	0
29.84214	0.1259871	-0.09701809	0	0	0	0
29.85871	0.1259871	-0.09701809	0	0	0	0
29.87527	0.1259871	-0.09701809	0	0	0	0
29.89184	0.1259871	-0.09701809	0	0	0	0
29.90841	0.1259871	-0.09701809	0	0	0	0
29.92498	0.1259871	-0.09701809	0	0	0	0
29.94154	0.1259871	-0.09701809	0	0	0	0
29.95811	0.1259871	-0.09701809	0	0	0	0
29.97468	0.1259871	-0.09701809	0	0	0	0
29.99378	0.1259871	-0.09701809	0	0	0	0
30.01035	0.1259871	-0.09701809	0	0	0	0
30.02713	0.1259871	-0.09701809	0	0	0	0
30.04348	0.1259871	-0.09701809	0	0	0	0
30.06015	0.1259871	-0.09701809	0	0	0	0
30.07666	0.1259871	-0.09701809	0	0	0	0
30.09447	0.1259093	-0.09695973	-0.00436352	0.003277033	-0.1271391	0.09548233
30.11104	0.1259093	-0.09695973	0	0	0.1269345	-0.09532869
30.1277	0.1259093	-0.09695973	0	0	0	0
30.14417	0.1258834	-0.09694027	-0.001572634	0.001181285	-0.04746493	0.03565332
30.16074	0.1258834	-0.09694027	0	0	0.04760469	-0.0357583
30.1773	0.1258834	-0.09694027	0	0	0	0
30.19387	0.1258834	-0.09694027	0	0	0	0
30.21075	0.1258834	-0.09694027	0	0	0	0
30.227	0.1258834	-0.09694027	0	0	0	0
30.24357	0.1258316	-0.09694027	-0.003126439	0	-0.09524984	0
30.26029	0.1258316	-0.09694027	0	0	0.09393436	0
30.2767	0.1258316	-0.09694027	0	0	0	0
30.29358	0.1258316	-0.09694027	0	0	0	0
30.30984	0.1258316	-0.09694027	0	0	0	0
30.3264	0.1258316	-0.09694027	0	0	0	0
30.34311	0.1258057	-0.09695973	-0.001550906	-0.001164294	-0.0466079	-0.03498943
30.35964	0.1258057	-0.09695973	0	0	0.04666407	0.0350316
30.3761	0.1258057	-0.09695973	0	0	0	0
30.39267	0.1257021	-0.09703754	-0.006252878	-0.004696854	-0.1893007	-0.1421933
30.40924	0.1257021	-0.09703754	0	0	0.1887122	0.1417513
30.42581	0.1257021	-0.09703754	0	0	0	0
30.44237	0.1205184	-0.1005416	-0.312894	-0.211505	-9.443158	-6.383235
30.45894	0.1205184	-0.1005416	0	0	9.443158	6.383235
30.47551	0.1205184	-0.1005416	0	0	0	0
30.49207	0.08129413	-0.124693	-2.367852	-1.457948	-71.46602	-44.0035
30.50864	0.08129413	-0.124693	0	0	71.46602	44.0035
30.52521	0.08129413	-0.124693	0	0	0	0
30.54747	0.03014876	-0.1371135	-2.29737	-0.5579084	-59.16512	-14.36804
30.55834	0.03014876	-0.1371135	0	0	69.33875	16.83868
30.57491	0.024574	-0.139803	-0.336493	-0.1623419	-12.26411	-5.916851
30.59147	0.024574	-0.139803	0	0	10.15538	4.899487
30.60804	0.024574	-0.139803	0	0	0	0
30.62461	0.0247581	-0.1397832	0.01111347	0.001193689	0.3354246	0.03602767
30.64117	0.0247581	-0.1397832	0	0	-0.3354246	-0.03602767
30.65774	0.0247581	-0.1397832	0	0	0	0
30.67431	0.0248896	-0.139803	0.007937185	-0.001193551	0.2395447	-0.03602145
30.69088	0.0248896	-0.139803	0	0	-0.2395447	0.03602145
30.70744	0.0248896	-0.139803	0	0	0	0
30.7244	0.02538928	-0.1394667	0.0294689	0.01983619	0.8791004	0.5917427
30.74058	0.02538928	-0.1394667	0	0	-0.8893732	-0.5986575
30.75714	0.02538928	-0.1394667	0	0	0	0
30.77394	0.02667788	-0.1384579	0.07672887	0.06006797	2.300059	1.800624
30.79027	0.02667788	-0.1384579	0	0	-2.315815	-1.812959
30.80684	0.02667788	-0.1384579	0	0	0	0
30.82341	0.04436561	-0.1251453	1.067756	0.8036395	32.2268	24.25529
30.83997	0.04436561	-0.1251453	0	0	-32.2268	-24.25529
30.85654	0.04436561	-0.1251453	0	0	0	0
30.87311	0.08267951	-0.09666794	2.312632	1.718898	69.79939	51.87943
30.88967	0.08267951	-0.09666794	0	0	-69.79536	-51.87644
30.90624	0.08267951	-0.09666794	0	0	0	0
30.92281	0.1041221	-0.08099745	1.294276	0.9458724	39.06134	28.54649
30.93937	0.1041221	-0.08099745	0	0	-39.06134	-28.54649
30.95594	0.1041221	-0.08099745	0	0	0	0
30.97251	0.1079732	-0.07898705	0.2323989	0.1213204	7.013007	3.661034
30.98907	0.1079732	-0.07898705	0	0	-7.014218	-3.661666
31.00564	0.1079732	-0.07898705	0	0	0	0
31.02253	0.1080512	-0.07912232	0.004619485	-0.008008342	0.1380731	-0.2393636
31.03877	0.1080512	-0.07912232	0	0	-0.1394163	0.2416922
31.05534	0.1080512	-0.07912232	0	0	0	0
31.07205	0.1079472	-0.07939287	-0.006226101	-0.01619081	-0.1870964	-0.486539
31.09307	0.1079472	-0.07939287	0	0	0.1650205	0.4291313
31.10504	0.1079472	-0.07939287	0	0	0	0
31.12181	0.1069066	-0.08047538	-0.06205654	-0.06455999	-2.159531	-2.24665
31.13817	0.1069066	-0.08047538	0	0	1.87287	1.948424
31.15474	0.1069066	-0.08047538	0	0	0	0
31.17132	0.1056837	-0.08157766	-0.07377288	-0.06649524	-2.225829	-2.006253
31.18788	0.1056837	-0.08157766	0	0	2.22647	2.00683
31.20444	0.1056837	-0.08157766	0	0	0	0
31.22101	0.1056837	-0.08157766	0	0	0	0
31.23758	0.1056837	-0.08157766	0	0	0	0
31.25414	0.1056837	-0.08157766	0	0	0	0
31.27111	0.1056577	-0.08155832	-0.001533783	0.001139908	-0.04574197	0.03399546
31.28728	0.1056577	-0.08155832	0	0	0.04629232	-0.03440448
31.30384	0.1056577	-0.08155832	0	0	0	0
31.32041	0.1056837	-0.08153898	0.001571046	0.001167602	0.04741698	0.03524033
31.33698	0.1056837	-0.08153898	0	0	-0.04741698	-0.03524033
31.35354	0.1056837	-0.08153898	0	0	0	0
31.37458	0.1057097	-0.08155832	0.001236908	-0.0009195344	0.03289521	-0.02445474
31.39115	0.1057097	-0.08155832	0	0	-0.03288854	0.02444978
31.40771	0.1056837	-0.08157766	-0.00157132	-0.00116814	-0.04742525	-0.03525657
31.42428	0.1056837	-0.08157766	0	0	0.04743617	0.03526469
31.44084	0.1056837	-0.08157766	0	0	0	0
31.45741	0.1056577	-0.08155832	-0.001571046	0.001167602	-0.04741698	0.03524033
31.47398	0.1056577	-0.08155832	0	0	0.04741698	-0.03524033
31.49073	0.1056577	-0.08155832	0	0	0	0
31.50711	0.1056577	-0.08155832	0	0	0	0
31.52376	0.1056577	-0.08155832	0	0	0	0
31.54024	0.1056577	-0.08155832	0	0	0	0
31.55681	0.1056577	-0.08155832	0	0	0	0
31.57338	0.1056577	-0.08155832	0	0	0	0
31.58994	0.1056577	-0.08155832	0	0	0	0
31.60651	0.1056577	-0.08155832	0	0	0	0
31.62308	0.1056577	-0.08155832	0	0	0	0
31.63964	0.1056577	-0.08155832	0	0	0	0
31.65634	0.1056577	-0.08155832	0	0	0	0
31.67278	0.1056577	-0.08155832	0	0	0	0
31.68935	0.1056577	-0.08155832	0	0	0	0
31.70591	0.1056577	-0.08155832	0	0	0	0
31.72248	0.1056577	-0.08155832	0	0	0	0
31.73942	0.1056577	-0.08155832	0	0	0	0
31.75561	0.1056577	-0.08155832	0	0	0	0
31.77218	0.1056577	-0.08155832	0	0	0	0
31.78893	0.1056577	-0.08155832	0	0	0	0
31.80531	0.1056837	-0.08157766	0.00158879	-0.00118079	0.04795255	-0.03563837
31.82188	0.1056837	-0.08157766	0	0	-0.04822182	0.03583849
31.83848	0.1056837	-0.08157766	0	0	0	0
31.85548	0.1059179	-0.08175174	0.01377486	-0.0102389	0.4099212	-0.3046958
31.87158	0.1059179	-0.08175174	0	0	-0.4161811	0.3093489
31.88854	0.1059179	-0.08175174	0	0	0	0
31.90471	0.1061521	-0.08192583	0.01447721	-0.01076211	0.4369232	-0.3248011
31.92128	0.1061521	-0.08192583	0	0	-0.4421407	0.3286797
31.93785	0.1061521	-0.08192583	0	0	0	0
31.95457	0.1062822	-0.08202256	0.007779532	-0.005784084	0.2336837	-0.1737439
31.97098	0.1062822	-0.08202256	0	0	-0.2347867	0.174564
31.98758	0.1062822	-0.08202256	0	0	0	0
32.00412	0.1064904	-0.08217733	0.0125855	-0.009357701	0.3798313	-0.282416
32.02068	0.1064904	-0.08217733	0	0	-0.3801595	0.28266
32.03761	0.1064904	-0.08217733	0	0	0	0
32.05382	0.1066205	-0.08227406	0.008028135	-0.005969261	0.2422896	-0.1801527
32.07065	0.1066205	-0.08227406	0	0	-0.242989	0.1806727
32.08695	0.1066205	-0.08227406	0	0	0	0
32.10352	0.1068286	-0.08242884	0.01256332	-0.00934289	0.3822422	-0.2842598
32.12009	0.1068286	-0.08242884	0	0	-0.3791617	0.281969
32.13665	0.1068286	-0.08242884	0	0	0	0
32.15322	0.1082073	-0.08345448	0.0832167	-0.06190772	2.511485	-1.868379
32.16979	0.1082073	-0.08345448	0	0	-2.511485	1.868379
32.19173	0.1082073	-0.08345448	0	0	0	0
32.20836	0.1084413	-0.08362868	0.01407047	-0.01047145	0.3647636	-0.2714625
32.22526	0.1084413	-0.08362868	0	0	-0.4196234	0.31229
32.24177	0.1084413	-0.08362868	0	0	0	0
32.25827	0.1084413	-0.08358997	0	0.002345917	0	0.07106172
32.27462	0.1084413	-0.08358997	0	0	0	-0.07139999
32.29131	0.1084413	-0.08358997	0	0	0	0
32.30782	0.1083893	-0.08355127	-0.003151818	0.002345466	-0.09495807	0.07066426
32.32433	0.1083893	-0.08355127	0	0	0.0954738	-0.07104804
32.34089	0.1083893	-0.08355127	0	0	0	0
32.35785	0.1083893	-0.08355127	0	0	0	0
32.37402	0.1083893	-0.08355127	0	0	0	0
32.39059	0.1083893	-0.08355127	0	0	0	0
32.40739	0.1083893	-0.08355127	0	0	0	0
32.42372	0.1083893	-0.08355127	0	0	0	0
32.44029	0.1083893	-0.08355127	0	0	0	0
32.45686	0.1083893	-0.08355127	0	0	0	0
32.47912	0.1083893	-0.08355127	0	0	0	0
32.49028	0.1083893	-0.08355127	0	0	0	0
32.50676	0.1083893	-0.08355127	0	0	0	0
32.52312	0.1083893	-0.08355127	0	0	0	0
32.53969	0.1083893	-0.08355127	0	0	0	0
32.60002	0.1083893	-0.08355127	0	0	0	0
32.61658	0.1083893	-0.08355127	0	0	0	0
32.63315	0.1083373	-0.08351255	-0.003139931	0.002336734	-0.09476329	0.07052279
32.64972	0.1083373	-0.08351255	0	0	0.09476329	-0.07052279
32.6664	0.1083373	-0.08351255	0	0	0	0
32.68285	0.1071148	-0.08260298	-0.07432338	0.05529672	-2.243342	1.66905
32.69942	0.1071148	-0.08260298	0	0	2.251118	-1.674836
32.71598	0.1071148	-0.08260298	0	0	0	0
32.73255	0.08699043	-0.0677057	-1.214707	0.8992016	-36.65993	27.13796
32.74912	0.08699043	-0.0677057	0	0	36.65993	-27.13796
32.76569	0.08699043	-0.0677057	0	0	0	0
32.78243	0.03905907	-0.03271839	-2.862168	2.089228	-85.91551	62.71369
32.7993	0.03905907	-0.03271839	0	0	85.14528	-62.15145
32.81557	0.03905907	-0.03271839	0	0	0	0
32.83214	-0.003552617	-0.002060844	-2.572047	1.850493	-78.3279	56.35406
32.84871	-0.003552617	-0.002060844	0	0	77.62452	-55.848
32.86534	-0.003552617	-0.002060844	0	0	0	0
32.88186	-0.051717	0.03230888	-2.915263	2.080309	-87.92208	62.74051
32.8984	-0.051717	0.03230888	0	0	88.1757	-62.92148
32.91497	-0.051717	0.03230888	0	0	0	0
32.93154	-0.1162887	0.07813551	-3.897558	2.7661	-117.6285	83.48108
32.9484	-0.1162887	0.07813551	0	0	116.5949	-82.74754
32.96467	-0.1162887	0.07813551	0	0	0	0
32.98124	-0.1723518	0.1181034	-3.383975	2.412469	-103.042	73.45966
32.99781	-0.1723518	0.1181034	0	0	102.1286	-72.80845
33.01445	-0.1723518	0.1181034	0	0	0	0
33.03094	-0.2025269	0.1398383	-1.830219	1.318294	-55.23612	39.7862
33.04751	-0.2025269	0.1398383	0	0	55.36999	-39.88263
33.06408	-0.2025269	0.1398383	0	0	0	0
33.08064	-0.2060595	0.1424216	-0.2132757	0.155963	-6.437414	4.707515
33.0975	-0.2060595	0.1424216	0	0	6.380842	-4.666146
33.11377	-0.2060595	0.1424216	0	0	0	0
33.13052	-0.2057569	0.1422033	0.0180693	-0.01303299	0.5472226	-0.3946998
33.14703	-0.2057569	0.1422033	0	0	-0.5433308	0.3918928
33.16347	-0.2057569	0.1422033	0	0	0	0
33.18003	-0.2054542	0.1420578	0.01827085	-0.008785014	0.5535823	-0.2661741
33.19708	-0.2054542	0.1420578	0	0	-0.5435925	0.2613709
33.21317	-0.2054542	0.1420578	0	0	0	0
33.23007	-0.2049498	0.1417304	0.02985063	-0.01937429	0.904957	-0.5873546
33.2463	-0.2049498	0.1417304	0	0	-0.9008937	0.5847173
33.26311	-0.2049498	0.1417304	0	0	0	0
33.27943	-0.2049246	0.1417486	0.001545882	0.001113984	0.04666017	0.03362399
33.296	-0.2049246	0.1417486	0	0	-0.04700656	-0.0338736
33.31257	-0.2049246	0.1417486	0	0	0	0
33.32913	-0.2047984	0.1419487	0.007615478	0.01208041	0.229862	0.3646294
33.3457	-0.2047984	0.1419487	0	0	-0.229862	-0.3646294
33.36266	-0.2047984	0.1419487	0	0	0	0
33.37883	-0.2043947	0.1426398	0.02496351	0.04274206	0.7534869	1.290106
33.3954	-0.2043947	0.1426398	0	0	-0.7625302	-1.30559
33.41196	-0.2043947	0.1426398	0	0	0	0
33.42853	-0.20442	0.1458217	-0.001522745	0.1920556	-0.04595653	5.796251
33.4451	-0.20442	0.1458217	0	0	0.04595653	-5.796251
33.46167	-0.20442	0.1458217	0	0	0	0
33.47823	-0.2114995	0.1531059	-0.4273184	0.4396757	-12.89649	13.26944
33.4948	-0.2114995	0.1531059	0	0	12.89649	-13.26944
33.51176	-0.2114995	0.1531059	0	0	0	0
33.52794	-0.1924058	0.1668142	1.180492	0.8475347	35.62731	25.57865
33.5445	-0.1924058	0.1668142	0	0	-36.05486	-25.8856
33.56107	-0.1924058	0.1668142	0	0	0	0
33.5778	-0.1681344	0.1840521	1.450994	1.030518	43.58036	30.95142
33.5942	-0.1681344	0.1840521	0	0	-43.79109	-31.10109
33.61077	-0.1681344	0.1840521	0	0	0	0
33.62734	-0.1621685	0.1920502	0.3600982	0.482765	10.86778	14.56988
33.64391	-0.1621685	0.1920502	0	0	-10.86778	-14.56988
33.66047	-0.1621685	0.1920502	0	0	0	0
33.67704	-0.1678274	0.196614	-0.3415698	0.2754693	-10.3086	8.313681
33.69361	-0.1678274	0.196614	0	0	10.3086	-8.313681
33.71017	-0.1678274	0.196614	0	0	0	0
33.72692	-0.1692341	0.1976057	-0.0839777	0.05920758	-2.520523	1.777068
33.74331	-0.1692341	0.1976057	0	0	2.534452	-1.786888
33.75995	-0.1692341	0.1976057	0	0	0	0
33.77695	-0.1692085	0.1975877	0.001503954	-0.001060481	0.04470491	-0.03152269
33.79301	-0.1692085	0.1975877	0	0	-0.04549419	0.03207923
33.80957	-0.1692085	0.1975877	0	0	0	0
33.82614	-0.1681088	0.1978942	0.06637747	0.0185014	2.003276	0.5583732
33.84271	-0.1681088	0.1978942	0	0	-2.003276	-0.5583732
33.85944	-0.1681088	0.1978942	0	0	0	0
33.87584	-0.145053	0.2093527	1.405569	0.6985547	42.42503	21.08485
33.89241	-0.145053	0.2093527	0	0	-42.62626	-21.18486
33.90897	-0.145053	0.2093527	0	0	0	0
33.92554	-0.1089095	0.2146441	2.181628	0.3193861	65.84924	9.640202
33.94228	-0.1089095	0.2146441	0	0	-65.50231	-9.589411
33.95879	-0.1089095	0.2146441	0	0	0	0
33.97524	-0.09625427	0.2073361	0.76936	-0.4442825	23.34295	-13.47986
33.99181	-0.09625427	0.2073361	0	0	-23.3025	13.4565
34.00837	-0.09625427	0.2073361	0	0	0	0
34.02494	-0.09487223	0.2063095	0.08341998	-0.06196124	2.51762	-1.869994
34.04151	-0.09487223	0.2063095	0	0	-2.51762	1.869994
34.05807	-0.09487223	0.2063095	0	0	0	0
34.07464	-0.09505478	0.2062195	-0.01101899	-0.005435291	-0.3325537	-0.1640374
34.09121	-0.09505478	0.2062195	0	0	0.3325537	0.1640374
34.10791	-0.09505478	0.2062195	0	0	0	0
34.12434	-0.09528948	0.2060574	-0.01428498	-0.009865844	-0.4311214	-0.2977518
34.14091	-0.09528948	0.2060574	0	0	0.4329157	0.298991
34.15748	-0.09528948	0.2060574	0	0	0	0
34.17405	-0.09541987	0.2059673	-0.007870064	-0.00543619	-0.237519	-0.1640646
34.19061	-0.09541987	0.2059673	0	0	0.237519	0.1640646
34.20743	-0.09541987	0.2059673	0	0	0	0
34.22394	-0.09651498	0.2052108	-0.06633043	-0.04582082	-1.990171	-1.374803
34.24031	-0.09651498	0.2052108	0	0	2.017418	1.393625
34.25688	-0.09651498	0.2052108	0	0	0	0
34.27345	-0.09680177	0.2050127	-0.01731009	-0.0119598	-0.5224196	-0.3609474
34.29001	-0.09680177	0.2050127	0	0	0.5224196	0.3609474
34.30658	-0.09680177	0.2050127	0	0	0	0
34.32315	-0.0968539	0.2049767	-0.003147126	-0.002173936	-0.09498046	-0.06560953
34.33971	-0.0968539	0.2049767	0	0	0.09498046	0.06560953
34.35628	-0.0968539	0.2049767	0	0	0	0
34.37302	-0.09687997	0.2049587	-0.001557071	-0.001076021	-0.04674494	-0.0323033
34.38942	-0.09687997	0.2049587	0	0	0.0469925	0.03247438
34.40598	-0.09687997	0.2049587	0	0	0	0
34.42273	-0.09687997	0.2049587	0	0	0	0
34.43912	-0.09687997	0.2049587	0	0	0	0
34.45568	-0.09687997	0.2049587	0	0	0	0
34.47226	-0.09690604	0.2049406	-0.001572839	-0.001086917	-0.04745744	-0.03279568
34.48882	-0.09690604	0.2049406	0	0	0.04747383	0.03280701
34.50538	-0.09690604	0.2049406	0	0	0	0
34.52195	-0.09690604	0.2049406	0	0	0	0
34.53852	-0.09690604	0.2049406	0	0	0	0
34.55508	-0.09690604	0.2049406	0	0	0	0
34.57181	-0.09687997	0.2049226	0.001558491	-0.001077003	0.04680902	-0.03234759
34.58831	-0.09687997	0.2049226	0	0	-0.04690576	0.03241444
34.60479	-0.09687997	0.2049226	0	0	0	0
34.62135	-0.09442885	0.2032292	0.14795	-0.1022173	4.477512	-3.093471
34.63792	-0.09442885	0.2032292	0	0	-4.46514	3.084924
34.65449	-0.09442885	0.2032292	0	0	0	0
34.67221	-0.06970268	0.1859848	1.394839	-0.9727823	40.67282	-28.36586
34.68889	-0.06970268	0.1859848	0	0	-40.54654	28.27778
34.70535	-0.06970268	0.1859848	0	0	0	0
34.72192	-0.0147884	0.1479298	3.314633	-2.297003	100.3593	-69.54787
34.73849	-0.0147884	0.1479298	0	0	-100.0243	69.3157
34.75505	-0.0147884	0.1479298	0	0	0	0
34.77161	0.05539065	0.09737404	4.236991	-3.052253	127.9021	-92.1384
34.78818	0.05539065	0.09737404	0	0	-127.8874	92.1278
34.80475	0.05539065	0.09737404	0	0	0	0
34.82199	0.101987	0.01919313	2.702425	-4.534216	79.93056	-134.1101
34.838	0.101987	0.01919313	0	0	-81.2693	136.3563
34.85453	0.101987	0.01919313	0	0	0	0
34.87155	0.1023516	-0.04969125	0.02141479	-4.046074	0.6382899	-120.5974
34.88758	0.1023516	-0.04969125	0	0	-0.6478661	122.4067
34.90415	0.1023516	-0.04969125	0	0	0	0
34.92106	0.06849793	-0.07759609	-2.001926	-1.650144	-59.79865	-49.2907
34.93728	0.06849793	-0.07759609	0	0	60.41825	49.80143
34.95385	0.06849793	-0.07759609	0	0	0	0
34.97041	0.05528571	-0.08734772	-0.797675	-0.5887453	-24.07665	-17.77041
34.98698	0.05528571	-0.08734772	0	0	24.07665	17.77041
35.00355	0.05528571	-0.08734772	0	0	0	0
35.02011	0.05539065	-0.08734772	0.006334052	0	0.1911621	0
35.03668	0.05539065	-0.08734772	0	0	-0.1911621	0
35.05325	0.05539065	-0.08734772	0	0	0	0
35.06982	0.05544312	-0.08742525	0.003167139	-0.004679765	0.09558444	-0.1412356
35.08638	0.05544312	-0.08742525	0	0	-0.09558444	0.1412356
35.10296	0.05544312	-0.08742525	0	0	0	0
35.1197	0.05544312	-0.08742525	0	0	0	0
35.13608	0.05544312	-0.08742525	0	0	0	0
35.15265	0.05544312	-0.08742525	0	0	0	0
35.16922	0.05544312	-0.08742525	0	0	0	0
35.18578	0.05544312	-0.08742525	0	0	0	0
35.20235	0.05544312	-0.08742525	0	0	0	0
35.21891	0.05544312	-0.08742525	0	0	0	0
35.23548	0.05544312	-0.08742525	0	0	0	0
35.2523	0.05544312	-0.08742525	0	0	0	0
35.26862	0.05544312	-0.08742525	0	0	0	0
35.28532	0.05544312	-0.08742525	0	0	0	0
35.30183	0.05544312	-0.08742525	0	0	0	0
35.31835	0.05544312	-0.08742525	0	0	0	0
35.33538	0.05544312	-0.08742525	0	0	0	0
35.35188	0.05544312	-0.08742525	0	0	0	0
35.36802	0.05544312	-0.08742525	0	0	0	0
35.38459	0.05544312	-0.08742525	0	0	0	0
35.40139	0.05544312	-0.08742525	0	0	0	0
35.41794	0.05544312	-0.08742525	0	0	0	0
35.43429	0.05544312	-0.08742525	0	0	0	0
35.45086	0.05544312	-0.08742525	0	0	0	0
35.46745	0.05544312	-0.08746402	0	-0.00233558	0	-0.07042309
35.48399	0.05544312	-0.08746402	0	0	0	0.07048795
35.50056	0.05544312	-0.08746402	0	0	0	0
35.51712	0.05544312	-0.08746402	0	0	0	0
35.53369	0.05544312	-0.08746402	0	0	0	0
35.55026	0.05544312	-0.08746402	0	0	0	0
35.56683	0.05546936	-0.08748341	0.001583682	-0.001170166	0.04779561	-0.03531568
35.58357	0.05546936	-0.08748341	0	0	-0.04754382	0.03512964
35.59996	0.05546936	-0.08748341	0	0	0	0
35.61657	0.05544312	-0.08746402	-0.001579681	0.00116721	-0.04786774	0.03536898
35.6331	0.05544312	-0.08746402	0	0	0.04766388	-0.03521835
35.64966	0.05544312	-0.08746402	0	0	0	0
35.66623	0.05544312	-0.08746402	0	0	0	0
35.68313	0.05544312	-0.08746402	0	0	0	0
35.69936	0.05544312	-0.08746402	0	0	0	0
35.71593	0.05546936	-0.08748341	0.001583682	-0.001170166	0.04828479	-0.03567713
35.73249	0.05546936	-0.08748341	0	0	-0.04779561	0.03531568
35.74906	0.05546936	-0.08748341	0	0	0	0
35.76568	0.05544312	-0.08750279	-0.001578955	-0.001166674	-0.04758175	-0.03515767
35.78222	0.05544312	-0.08750279	0	0	0.04762008	0.03518598
35.79876	0.05544312	-0.08750279	0	0	0	0
35.81533	0.05544312	-0.08750279	0	0	0	0
35.8319	0.05544312	-0.08750279	0	0	0	0
35.84846	0.05544312	-0.08750279	0	0	0	0
35.86503	0.05544312	-0.08750279	0	0	0	0
35.88179	0.05544312	-0.08750279	0	0	0	0
35.89817	0.05544312	-0.08750279	0	0	0	0
35.91473	0.05544312	-0.08750279	0	0	0	0
35.9313	0.05544312	-0.08750279	0	0	0	0
35.94787	0.05544312	-0.08750279	0	0	0	0
35.96444	0.05544312	-0.08750279	0	0	0	0
35.981	0.05544312	-0.08750279	0	0	0	0
35.99791	0.05544312	-0.08750279	0	0	0	0
36.01497	0.05544312	-0.08750279	0	0	0	0
36.03154	0.05544312	-0.08750279	0	0	0	0
36.0481	0.05544312	-0.08750279	0	0	0	0
36.06467	0.05544312	-0.08750279	0	0	0	0
36.08124	0.05544312	-0.08750279	0	0	0	0
36.09781	0.05544312	-0.08750279	0	0	0	0
36.11437	0.05544312	-0.08750279	0	0	0	0
36.13094	0.05544312	-0.08750279	0	0	0	0
36.14751	0.05544312	-0.08750279	0	0	0	0
36.16407	0.05544312	-0.08750279	0	0	0	0
36.18064	0.05544312	-0.08750279	0	0	0	0
36.19721	0.05544312	-0.08750279	0	0	0	0
36.21401	0.05544312	-0.08750279	0	0	0	0
36.23034	0.05544312	-0.08750279	0	0	0	0
36.24691	0.05544312	-0.08750279	0	0	0	0
36.26348	0.05544312	-0.08750279	0	0	0	0
36.28007	0.05544312	-0.08750279	0	0	0	0
36.29661	0.05544312	-0.08750279	0	0	0	0
36.31318	0.05544312	-0.08750279	0	0	0	0
36.32974	0.05544312	-0.08750279	0	0	0	0
36.34631	0.05544312	-0.08750279	0	0	0	0
36.36288	0.05544312	-0.08750279	0	0	0	0
36.37963	0.05544312	-0.08750279	0	0	0	0
36.39601	0.05544312	-0.08750279	0	0	0	0
36.41264	0.05544312	-0.08750279	0	0	0	0
36.42915	0.05544312	-0.08750279	0	0	0	0
36.44571	0.05544312	-0.08750279	0	0	0	0
36.46227	0.05544312	-0.08750279	0	0	0	0
36.47884	0.05544312	-0.08750279	0	0	0	0
36.49622	0.05544312	-0.08750279	0	0	0	0
36.51221	0.05544312	-0.08750279	0	0	0	0
36.52854	0.05544312	-0.08750279	0	0	0	0
36.54575	0.05544312	-0.08750279	0	0	0	0
36.56514	0.05544312	-0.08750279	0	0	0	0
36.58526	0.05544312	-0.08750279	0	0	0	0
36.59859	0.05544312	-0.08750279	0	0	0	0
36.61509	0.05544312	-0.08750279	0	0	0	0
36.6314	0.05544312	-0.08750279	0	0	0	0
36.64797	0.05544312	-0.08750279	0	0	0	0
36.66454	0.05546936	-0.08752218	0.001583682	-0.001170166	0.04779561	-0.03531568
36.68116	0.05546936	-0.08752218	0	0	-0.04772418	0.03526291
36.69767	0.05546936	-0.08752218	0	0	0	0
36.71424	0.05546936	-0.08752218	0	0	0	0
36.73081	0.05546936	-0.08752218	0	0	0	0
36.74738	0.05546936	-0.08752218	0	0	0	0
36.76421	0.05546936	-0.08752218	0	0	0	0
36.78073	0.05546936	-0.08752218	0	0	0	0
36.79773	0.05546936	-0.08752218	0	0	0	0
36.81364	0.05544312	-0.08750279	-0.001648988	0.00121842	-0.0500953	0.0370149
36.83021	0.05544312	-0.08750279	0	0	0.05077195	-0.03751487
36.84678	0.05544312	-0.08750279	0	0	0	0
36.86335	0.05546936	-0.08752218	0.001583682	-0.001170166	0.04779561	-0.03531568
36.87992	0.05546936	-0.08752218	0	0	-0.0477846	0.03530755
36.89648	0.05546936	-0.08752218	0	0	0	0
36.91305	0.05546936	-0.08752218	0	0	0	0
36.92962	0.05546936	-0.08752218	0	0	0	0
36.94618	0.05546936	-0.08752218	0	0	0	0
36.96289	0.05546936	-0.08752218	0	0	0	0
36.97941	0.05546936	-0.08752218	0	0	0	0
36.99591	0.05546936	-0.08752218	0	0	0	0
37.01245	0.05546936	-0.08752218	0	0	0	0
37.02901	0.05546936	-0.08752218	0	0	0	0
37.04558	0.05546936	-0.08752218	0	0	0	0
37.06246	0.05546936	-0.08752218	0	0	0	0
37.07871	0.05546936	-0.08752218	0	0	0	0
37.09528	0.05546936	-0.08752218	0	0	0	0
37.11185	0.05546936	-0.08756094	0	-0.002340421	0	-0.07063405
37.12852	0.05546936	-0.08756094	0	0	0	0.07041518
37.14498	0.05546936	-0.08756094	0	0	0	0
37.16155	0.05549559	-0.08758033	0.001583457	-0.001170166	0.04794337	-0.03542989
37.17812	0.05549559	-0.08758033	0	0	-0.04778882	0.03531568
37.19487	0.05549559	-0.08758033	0	0	0	0
37.21125	0.05549559	-0.08758033	0	0	0	0
37.22838	0.05549559	-0.08758033	0	0	0	0
37.24438	0.05549559	-0.08758033	0	0	0	0
37.26095	0.05552182	-0.08759972	0.001583457	-0.001170166	0.04861721	-0.03592785
37.27752	0.05552182	-0.08759972	0	0	-0.04778882	0.03531568
37.29408	0.05552182	-0.08759972	0	0	0	0
37.31065	0.05552182	-0.08759972	0	0	0	0
37.32722	0.05552182	-0.08759972	0	0	0	0
37.34378	0.05552182	-0.08759972	0	0	0	0
37.36047	0.05554806	-0.0876191	0.001572098	-0.001161607	0.04727187	-0.03492869
37.37692	0.05554806	-0.0876191	0	0	-0.04744602	0.03505737
37.39351	0.05554806	-0.0876191	0	0	0	0
37.41212	0.05554806	-0.0876191	0	0	0	0
37.42869	0.05554806	-0.0876191	0	0	0	0
37.44526	0.05554806	-0.0876191	0	0	0	0
37.46182	0.05554806	-0.0876191	0	0	0	0
37.47861	0.05554806	-0.0876191	0	0	0	0
37.49511	0.05554806	-0.0876191	0	0	0	0
37.51163	0.05554806	-0.0876191	0	0	0	0
37.52816	0.05554806	-0.0876191	0	0	0	0
37.54467	0.05554806	-0.0876191	0	0	0	0
37.56122	0.05554806	-0.0876191	0	0	0	0
37.57779	0.05554806	-0.0876191	0	0	0	0
37.59436	0.05554806	-0.0876191	0	0	0	0
37.61092	0.05552182	-0.08763848	-0.001584046	-0.001169986	-0.04781212	-0.03531431
37.62771	0.05552182	-0.08763848	0	0	0.04748951	0.03507602
37.64405	0.05552182	-0.08763848	0	0	0	0
37.66076	0.05552182	-0.08763848	0	0	0	0
37.67719	0.05552182	-0.08763848	0	0	0	0
37.69375	0.05552182	-0.08763848	0	0	0	0
37.71032	0.05552182	-0.08763848	0	0	0	0
37.72689	0.05552182	-0.08763848	0	0	0	0
37.74345	0.05552182	-0.08763848	0	0	0	0
37.76002	0.05552182	-0.08763848	0	0	0	0
37.77659	0.05552182	-0.08763848	0	0	0	0
37.79316	0.05552182	-0.08763848	0	0	0	0
37.81032	0.05552182	-0.08763848	0	0	0	0
37.82635	0.05552182	-0.08763848	0	0	0	0
37.84285	0.05552182	-0.08763848	0	0	0	0
37.85942	0.05552182	-0.08763848	0	0	0	0
37.87599	0.05552182	-0.08763848	0	0	0	0
37.89256	0.05552182	-0.08763848	0	0	0	0
37.90912	0.05552182	-0.08763848	0	0	0	0
37.92569	0.05552182	-0.08763848	0	0	0	0
37.94226	0.05552182	-0.08763848	0	0	0	0
37.96128	0.05552182	-0.08763848	0	0	0	0
37.9779	0.05552182	-0.08763848	0	0	0	0
37.99442	0.05552182	-0.08763848	0	0	0	0
38.04255	0.05554806	-0.08765787	0.0005451319	-0.0004027924	0.008432849	-0.006230945
38.05911	0.05554806	-0.08765787	0	0	-0.008425888	0.006225802
38.07568	0.05552182	-0.08763848	-0.001583682	0.001170166	-0.04779561	0.03531568
38.09249	0.05552182	-0.08763848	0	0	0.04745144	-0.03506138
38.10902	0.05552182	-0.08763848	0	0	0	0
38.12538	0.05552182	-0.08763848	0	0	0	0
38.14195	0.05552182	-0.08763848	0	0	0	0
38.15904	0.05552182	-0.08763848	0	0	0	0
38.17508	0.05552182	-0.08763848	0	0	0	0
38.19165	0.05552182	-0.08763848	0	0	0	0
38.20856	0.05552182	-0.08763848	0	0	0	0
38.22507	0.05552182	-0.08763848	0	0	0	0
38.24704	0.05552182	-0.08763848	0	0	0	0
38.25791	0.05552182	-0.08763848	0	0	0	0
38.27462	0.05552182	-0.08763848	0	0	0	0
38.29162	0.05552182	-0.08763848	0	0	0	0
38.30762	0.05552182	-0.08763848	0	0	0	0
38.32418	0.05554806	-0.08765787	0.001584776	-0.001170975	0.04868053	-0.03596954
38.34074	0.05554806	-0.08765787	0	0	-0.04784517	0.0353523
38.35731	0.05554806	-0.08765787	0	0	0	0
38.37388	0.05554806	-0.08765787	0	0	0	0
38.39045	0.05554806	-0.08765787	0	0	0	0
38.40701	0.05554806	-0.08765787	0	0	0	0
38.42358	0.05552182	-0.08763848	-0.001583682	0.001170166	-0.04779561	0.03531568
38.44023	0.05552182	-0.08763848	0	0	0.04767486	-0.03522646
38.45675	0.05552182	-0.08763848	0	0	0	0
38.47328	0.05554806	-0.08765787	0.001586604	-0.001172326	0.0480054	-0.0354707
38.48985	0.05554806	-0.08765787	0	0	-0.04792795	0.03541347
38.50642	0.05554806	-0.08765787	0	0	0	0
38.52666	0.05554806	-0.08765787	0	0	0	0
38.54329	0.05554806	-0.08765787	0	0	0	0
38.5598	0.05554806	-0.08765787	0	0	0	0
38.57637	0.05554806	-0.08765787	0	0	0	0
38.59293	0.05554806	-0.08765787	0	0	0	0
38.6095	0.05554806	-0.08765787	0	0	0	0
38.62607	0.05554806	-0.08765787	0	0	0	0
38.64264	0.05554806	-0.08765787	0	0	0	0
38.6592	0.05554806	-0.08765787	0	0	0	0
38.67577	0.05554806	-0.08765787	0	0	0	0
38.69234	0.05554806	-0.08765787	0	0	0	0
38.7089	0.05554806	-0.08765787	0	0	0	0
38.72547	0.05554806	-0.08765787	0	0	0	0
38.74203	0.05554806	-0.08765787	0	0	0	0
38.7586	0.05554806	-0.08765787	0	0	0	0
38.77517	0.05554806	-0.08765787	0	0	0	0
38.79195	0.05554806	-0.08765787	0	0	0	0
38.81173	0.05554806	-0.08765787	0	0	0	0
38.82838	0.05554806	-0.08765787	0	0	0	0
38.8449	0.05554806	-0.08765787	0	0	0	0
38.86143	0.05554806	-0.08765787	0	0	0	0
38.878	0.05554806	-0.08765787	0	0	0	0
38.89457	0.05554806	-0.08765787	0	0	0	0
38.91113	0.05554806	-0.08765787	0	0	0	0
38.9277	0.05554806	-0.08765787	0	0	0	0
38.94447	0.05554806	-0.08765787	0	0	0	0
38.96146	0.05554806	-0.08765787	0	0	0	0
38.9774	0.05554806	-0.08765787	0	0	0	0
38.994	0.05554806	-0.08765787	0	0	0	0
39.01053	0.05554806	-0.08765787	0	0	0	0
39.0271	0.05554806	-0.08765787	0	0	0	0
39.04404	0.05554806	-0.08765787	0	0	0	0
39.06023	0.05557429	-0.08767726	0.001620776	-0.001197745	0.04891512	-0.03614801
39.0768	0.05557429	-0.08767726	0	0	-0.04948483	0.03656902
39.09356	0.05557429	-0.08767726	0	0	0	0
39.11007	0.05735807	-0.08899581	0.1080419	-0.07986377	3.247253	-2.400345
39.1265	0.05735807	-0.08899581	0	0	-3.28035	2.42481
39.14306	0.05735807	-0.08899581	0	0	0	0
39.15963	0.05893168	-0.09015977	0.09498358	-0.07025719	2.86661	-2.120366
39.1762	0.05893168	-0.09015977	0	0	-2.86661	2.120366
39.19276	0.05893168	-0.09015977	0	0	0	0
39.20933	0.05893168	-0.09015977	0	0	0	0
39.22616	0.05893168	-0.09015977	0	0	0	0
39.24247	0.05893168	-0.09015977	0	0	0	0
39.25903	0.05895791	-0.09017918	0.001583007	-0.001171065	0.04815222	-0.0356217
39.27571	0.05895791	-0.09017918	0	0	-0.04761627	0.03522522
39.29273	0.05895791	-0.09017918	0	0	0	0
39.30874	0.05932504	-0.09041203	0.02293119	-0.01454396	0.6943027	-0.4403572
39.3253	0.05932504	-0.09041203	0	0	-0.7039785	0.4464941
39.34187	0.05932504	-0.09041203	0	0	0	0
39.35975	0.0812157	-0.1065679	1.224084	-0.9034036	35.53164	-26.22321
39.37632	0.0812157	-0.1065679	0	0	-35.53164	26.22321
39.39289	0.0812157	-0.1065679	0	0	0	0
39.40945	0.1132762	-0.1304222	1.935173	-1.439853	58.40364	-43.45486
39.42632	0.1132762	-0.1304222	0	0	-57.88385	43.06811
39.44283	0.1132762	-0.1304222	0	0	0	0
39.45933	0.1466501	-0.1557852	2.022372	-1.536924	61.26807	-46.56136
39.47572	0.1466501	-0.1557852	0	0	-61.47409	46.71793
39.49229	0.1466501	-0.1557852	0	0	0	0
39.50887	0.1806662	-0.1822326	2.052272	-1.595636	61.92343	-48.14531
39.52542	0.1806662	-0.1822326	0	0	-61.93769	48.15639
39.54199	0.1806662	-0.1822326	0	0	0	0
39.55856	0.224168	-0.217238	2.625775	-2.112931	79.24606	-63.76837
39.57513	0.224168	-0.217238	0	0	-79.24606	63.76837
39.59169	0.224168	-0.217238	0	0	0	0
39.60826	0.2700047	-0.2556796	2.766703	-2.320339	83.49928	-70.02798
39.62483	0.2700047	-0.2556796	0	0	-83.49928	70.02798
39.64141	0.2700047	-0.2556796	0	0	0	0
39.65796	0.2893067	-0.2723717	1.166147	-1.008466	35.19845	-30.43907
39.67453	0.2893067	-0.2723717	0	0	-35.21062	30.44959
39.69109	0.2893067	-0.2723717	0	0	0	0
39.70766	0.2899351	-0.2729194	0.03792921	-0.03305966	1.144706	-0.9977427
39.72423	0.2899351	-0.2729194	0	0	-1.144706	0.9977427
39.7408	0.2899351	-0.2729194	0	0	0	0
39.75736	0.2899351	-0.2729194	0	0	0	0
39.77393	0.2899351	-0.2729194	0	0	0	0
39.7905	0.2899351	-0.2729194	0	0	0	0
39.80706	0.2899109	-0.2729826	-0.001457422	-0.003814486	-0.04399014	-0.1151347
39.82363	0.2899109	-0.2729826	0	0	0.04399014	0.1151347
39.84019	0.2899109	-0.2729826	0	0	0	0
39.85676	0.2898384	-0.2730458	-0.004376655	-0.003815407	-0.1320877	-0.1151492
39.87333	0.2898384	-0.2730458	0	0	0.1320877	0.1151492
39.8899	0.2898384	-0.2730458	0	0	0	0
39.90646	0.2898143	-0.2730669	-0.001458885	-0.001271802	-0.04402924	-0.03838307
39.92303	0.2898143	-0.2730669	0	0	0.04402924	0.03838307
39.94016	0.2898143	-0.2730669	0	0	0	0
39.95616	0.2898143	-0.2730669	0	0	0	0
39.97273	0.2898143	-0.2730669	0	0	0	0
39.9893	0.2898143	-0.2730669	0	0	0	0
40.00586	0.2898143	-0.2730669	0	0	0	0
40.02243	0.2898143	-0.2730669	0	0	0	0
40.039	0.2898143	-0.2730669	0	0	0	0
40.05556	0.2897901	-0.2730879	-0.001458885	-0.001271802	-0.04402924	-0.03838307
40.07225	0.2897901	-0.2730879	0	0	0.04387769	0.03825096
40.08876	0.2897901	-0.2730879	0	0	0	0
40.10527	0.2897659	-0.2731512	-0.001463941	-0.00382863	-0.04432472	-0.115922
40.12183	0.2897659	-0.2731512	0	0	0.04426847	0.1157749
40.1384	0.2897659	-0.2731512	0	0	0	0
40.15497	0.2897418	-0.2731722	-0.001458885	-0.001271802	-0.04402924	-0.03838307
40.17154	0.2897418	-0.2731722	0	0	0.04402924	0.03838307
40.1881	0.2897418	-0.2731722	0	0	0	0
40.20467	0.2897418	-0.2731722	0	0	0	0
40.22124	0.2897418	-0.2731722	0	0	0	0
40.23803	0.2897418	-0.2731722	0	0	0	0
40.25437	0.2897176	-0.2731512	-0.001478977	0.001289318	-0.04464075	0.03891617
40.27103	0.2897176	-0.2731512	0	0	0.0448162	-0.03906912
40.28804	0.2897176	-0.2731512	0	0	0	0
40.30407	0.2896934	-0.2731722	-0.001505979	-0.001314478	-0.04557648	-0.03978095
40.32064	0.2896934	-0.2731722	0	0	0.04620052	0.04032564
40.3372	0.2896934	-0.2731722	0	0	0	0
40.35377	0.2896934	-0.2731722	0	0	0	0
40.37034	0.2896934	-0.2731722	0	0	0	0
40.38691	0.2896934	-0.2731722	0	0	0	0
40.40361	0.2896934	-0.2731722	0	0	0	0
40.42014	0.2896934	-0.2731722	0	0	0	0
40.43661	0.2896934	-0.2731722	0	0	0	0
40.45434	0.2896451	-0.2732144	-0.002726307	-0.002376694	-0.07971946	-0.0694965
40.4712	0.2896451	-0.2732144	0	0	0.07882265	0.06871469
40.48747	0.2896451	-0.2732144	0	0	0	0
40.50404	0.2895484	-0.2731722	-0.00583554	0.002543605	-0.1776715	0.07744376
40.52061	0.2895484	-0.2731722	0	0	0.1761169	-0.07676614
40.53724	0.2895484	-0.2731722	0	0	0	0
40.55374	0.2894034	-0.2730458	-0.008789514	0.007660801	-0.2652681	0.2312034
40.57031	0.2894034	-0.2730458	0	0	0.2657883	-0.2316568
40.58688	0.2894034	-0.2730458	0	0	0	0
40.60344	0.2779069	-0.2630012	-0.693931	0.6062917	-20.94288	18.29792
40.62001	0.2779069	-0.2630012	0	0	20.94288	-18.29792
40.6368	0.2779069	-0.2630012	0	0	0	0
40.65314	0.2122037	-0.2080198	-4.020468	3.364394	-121.338	101.5376
40.66971	0.2122037	-0.2080198	0	0	122.1678	-102.232
40.68635	0.2122037	-0.2080198	0	0	0	0
40.70286	0.1323016	-0.145092	-4.839618	3.81149	-146.0095	114.9913
40.71941	0.1323016	-0.145092	0	0	146.3802	-115.2832
40.73602	0.1323016	-0.145092	0	0	0	0
40.75254	0.09985103	-0.1204292	-1.964146	1.492774	-59.28487	45.05721
40.76911	0.09985103	-0.1204292	0	0	59.36005	-45.11434
40.78568	0.09985103	-0.1204292	0	0	0	0
40.80241	0.09912147	-0.1199581	-0.04359516	0.0281518	-1.309073	0.8453408
40.81881	0.09912147	-0.1199581	0	0	1.315856	-0.8497208
40.83537	0.09912147	-0.1199581	0	0	0	0
40.85194	0.09938204	-0.1201937	0.01572799	-0.01421783	0.4746715	-0.429095
40.86851	0.09938204	-0.1201937	0	0	-0.4746715	0.429095
40.88507	0.09938204	-0.1201937	0	0	0	0
40.90164	0.09940809	-0.1202133	0.001572664	-0.001185007	0.04746308	-0.03576358
40.91849	0.09940809	-0.1202133	0	0	-0.04706751	0.03546551
40.93478	0.09940809	-0.1202133	0	0	0	0
40.95134	0.09966865	-0.1204096	0.01573116	-0.0118519	0.4788468	-0.3607645
40.96791	0.09966865	-0.1204096	0	0	-0.474822	0.3577321
40.98447	0.09966865	-0.1204096	0	0	0	0
41.00104	0.1016745	-0.1219217	0.1210731	-0.09127025	3.653992	-2.754542
41.01761	0.1016745	-0.1219217	0	0	-3.653992	2.754542
41.03418	0.1016745	-0.1219217	0	0	0	0
41.05074	0.1016485	-0.121902	-0.001571764	0.001185457	-0.04743594	0.03577715
41.06731	0.1016485	-0.121902	0	0	0.04743594	-0.03577715
41.08388	0.1016485	-0.121902	0	0	0	0
41.10044	0.1016745	-0.1219217	0.001571764	-0.001185457	0.04743594	-0.03577715
41.11713	0.1016745	-0.1219217	0	0	-0.04726724	0.03564991
41.13358	0.1016745	-0.1219217	0	0	0	0
41.15017	0.1016745	-0.1219217	0	0	0	0
41.16671	0.1016745	-0.1219217	0	0	0	0
41.18328	0.1016745	-0.1219217	0	0	0	0
41.19985	0.1016485	-0.1219413	-0.001571764	-0.001185906	-0.04743594	-0.03579072
41.21642	0.1016485	-0.1219413	0	0	0.04743594	0.03579072
41.23298	0.1016485	-0.1219413	0	0	0	0
41.24955	0.1016485	-0.1219413	0	0	0	0
41.26612	0.1016485	-0.1219413	0	0	0	0
41.28329	0.1016485	-0.1219413	0	0	0	0
41.29927	0.1016485	-0.1219413	0	0	0	0
41.31581	0.1016485	-0.1219413	0	0	0	0
41.33238	0.1016485	-0.1219413	0	0	0	0
41.34895	0.1016485	-0.1219413	0	0	0	0
41.36552	0.1016485	-0.1219413	0	0	0	0
41.38208	0.1016485	-0.1219413	0	0	0	0
41.39885	0.1016745	-0.121961	0.001553521	-0.001171697	0.04661168	-0.03515548
41.41536	0.1016745	-0.121961	0	0	-0.04668649	0.0352119
41.43179	0.1016745	-0.121961	0	0	0	0
41.44838	0.1016745	-0.121961	0	0	0	0
41.46492	0.1016745	-0.121961	0	0	0	0
41.48191	0.1016745	-0.121961	0	0	0	0
