Time	Pos X	Pos Y	Vel X	Vel Y	Acc X	Acc Y
0.01656752	0.1041741	-0.1230613	-0.001550712	0.001831862	2.308917E-05	-2.727531E-05
0.04357003	0.1041741	-0.1230613	0	0	-2.309283E-05	2.727964E-05
0.0608643	0.1041741	-0.1230613	0	0	0	0
0.07743222	0.1041741	-0.1230613	0	0	0	0
0.09420778	0.1041741	-0.1230613	0	0	0	0
0.1105649	0.1042002	-0.1230809	0.001591499	-0.001201595	0.04803412	-0.03626617
0.1271316	0.1042002	-0.1230809	0	0	-0.04833878	0.0364962
0.1436984	0.1042002	-0.1230809	0	0	0	0
0.1602647	0.1042002	-0.1230809	0	0	0	0
0.1776273	0.1042002	-0.1230809	0	0	0	0
0.1933982	0.1042002	-0.1230809	0	0	0	0
0.2099641	0.1042002	-0.1230809	0	0	0	0
0.226532	0.1042002	-0.1230809	0	0	0	0
0.2430988	0.1042002	-0.1230809	0	0	0	0
0.2596647	0.1042262	-0.1231006	0.001571437	-0.001186449	0.04742864	-0.03580903
0.2767083	0.1042262	-0.1231006	0	0	-0.04675572	0.03530097
0.2927986	0.1042262	-0.1231006	0	0	0	0
0.3093649	0.1042522	-0.1231202	0.001571399	-0.00118642	0.04811887	-0.03633016
0.3262226	0.1042522	-0.1231202	0	0	-0.04701407	0.03549603
0.3427269	0.1042522	-0.1231202	0	0	0	0
0.3590643	0.1042522	-0.1231202	0	0	0	0
0.3756319	0.1042522	-0.1231202	0	0	0	0
0.3921982	0.1042522	-0.1231202	0	0	0	0
0.4087709	0.1042522	-0.1231202	0	0	0	0
0.4253317	0.1042522	-0.1231202	0	0	0	0
0.4418988	0.1042522	-0.1231202	0	0	0	0
0.4584648	0.1042783	-0.1231399	0.001571436	-0.001185998	0.047428	-0.03579497
0.4750315	0.1042783	-0.1231399	0	0	-0.04742859	0.03579542
0.4915982	0.1042783	-0.1231399	0	0	0	0
0.5081649	0.1043824	-0.1232185	0.006285001	-0.004745569	0.1896875	-0.1432259
0.5247317	0.1043824	-0.1232185	0	0	-0.1896873	0.1432258
0.5412992	0.1043824	-0.1232185	0	0	0	0
0.5578648	0.1044084	-0.1232382	0.001571023	-0.001186475	0.04741553	-0.03580938
0.5744327	0.1044084	-0.1232382	0	0	-0.04741493	0.03580893
0.5914092	0.1044084	-0.1232382	0	0	0	0
0.607565	0.1044605	-0.1232775	0.003222665	-0.002432678	0.09726668	-0.07342326
0.6241321	0.1044605	-0.1232775	0	0	-0.0984835	0.07434179
0.6406992	0.1044605	-0.1232775	0	0	0	0
0.6574491	0.1044865	-0.1232971	0.001553732	-0.001173417	0.04663476	-0.03521972
0.6738319	0.1044865	-0.1232971	0	0	-0.04689424	0.03541569
0.690399	0.1044865	-0.1232971	0	0	0	0
0.7069653	0.1045125	-0.1233168	0.001571399	-0.00118642	0.04742637	-0.03580732
0.7235329	0.1045125	-0.1233168	0	0	-0.04742578	0.03580687
0.7400992	0.1045125	-0.1233168	0	0	0	0
0.7566648	0.1045125	-0.1233168	0	0	0	0
0.7732323	0.1045125	-0.1233168	0	0	0	0
0.789799	0.1045125	-0.1233168	0	0	0	0
0.8063658	0.1045125	-0.1233168	0	0	0	0
0.8230596	0.1045125	-0.1233168	0	0	0	0
0.8395008	0.1045125	-0.1233168	0	0	0	0
0.856066	0.1045125	-0.1233168	0	0	0	0
0.8726323	0.1045125	-0.1233168	0	0	0	0
0.8891991	0.1045125	-0.1233168	0	0	0	0
0.905765	0.1045386	-0.1233364	0.001570989	-0.00118645	0.0474151	-0.03580906
0.9226262	0.1045386	-0.1233364	0	0	-0.04699744	0.03549363
0.9388989	0.1045386	-0.1233364	0	0	0	0
0.9556488	0.1045386	-0.1233364	0	0	0	0
0.9720324	0.1045386	-0.1233364	0	0	0	0
0.9885979	0.1045386	-0.1233364	0	0	0	0
1.005165	0.1045646	-0.1233561	0.001571286	-0.001186335	0.04742347	-0.03580513
1.021733	0.1045646	-0.1233561	0	0	-0.04742126	0.03580345
1.038299	0.1045646	-0.1233561	0	0	0	0
1.054865	0.1045646	-0.1233561	0	0	0	0
1.071434	0.1045646	-0.1233561	0	0	0	0
1.087999	0.1045646	-0.1233561	0	0	0	0
1.104565	0.1045646	-0.1233561	0	0	0	0
1.121133	0.1045646	-0.1233561	0	0	0	0
1.137699	0.1045646	-0.1233561	0	0	0	0
1.154267	0.1045646	-0.1233561	0	0	0	0
1.171319	0.1045646	-0.1233561	0	0	0	0
1.1874	0.1045646	-0.1233561	0	0	0	0
1.203967	0.1045646	-0.1233561	0	0	0	0
1.220533	0.1045646	-0.1233561	0	0	0	0
1.237099	0.1045646	-0.1233561	0	0	0	0
1.253666	0.1045646	-0.1233561	0	0	0	0
1.270233	0.1045646	-0.1233561	0	0	0	0
1.2868	0.1045646	-0.1233561	0	0	0	0
1.303366	0.1045646	-0.1233561	0	0	0	0
1.319933	0.1045646	-0.1233561	0	0	0	0
1.3365	0.1045646	-0.1233561	0	0	0	0
1.353064	0.1045646	-0.1233561	0	0	0	0
1.369632	0.1045646	-0.1233561	0	0	0	0
1.386199	0.1045646	-0.1233561	0	0	0	0
1.402765	0.1045646	-0.1233561	0	0	0	0
1.419505	0.1045646	-0.1233561	0	0	0	0
1.435898	0.1045646	-0.1233561	0	0	0	0
1.452465	0.1045646	-0.1233561	0	0	0	0
1.469032	0.1045646	-0.1233561	0	0	0	0
1.485599	0.1045646	-0.1233561	0	0	0	0
1.502569	0.1045646	-0.1233561	0	0	0	0
1.518732	0.1045646	-0.1233561	0	0	0	0
1.535298	0.1045646	-0.1233561	0	0	0	0
1.552695	0.1045906	-0.1233757	0.001496375	-0.001130204	0.0440581	-0.03327685
1.5696	0.1045906	-0.1233757	0	0	-0.04362462	0.03294945
1.586107	0.1045906	-0.1233757	0	0	0	0
1.602617	0.1045906	-0.1233757	0	0	0	0
1.618964	0.1045906	-0.1233757	0	0	0	0
1.63553	0.1045906	-0.1233757	0	0	0	0
1.652096	0.1045906	-0.1233757	0	0	0	0
1.668665	0.1045906	-0.1233757	0	0	0	0
1.685231	0.1045906	-0.1233757	0	0	0	0
1.701798	0.1046167	-0.1233954	0.00157091	-0.00118639	0.04741203	-0.03580674
1.718732	0.1046167	-0.1233954	0	0	-0.0468909	0.03541316
1.73493	0.1046167	-0.1233954	0	0	0	0
1.751496	0.1046167	-0.1233954	0	0	0	0
1.768268	0.1046167	-0.1233954	0	0	0	0
1.785253	0.1046167	-0.1233954	0	0	0	0
1.80126	0.1046167	-0.1233954	0	0	0	0
1.819499	0.1046167	-0.1233954	0	0	0	0
1.834331	0.1046167	-0.1233954	0	0	0	0
1.850897	0.1046427	-0.1234151	0.001571439	-0.00118645	0.05005006	-0.03778822
1.867464	0.1046427	-0.1234151	0	0	-0.04742816	0.03580867
1.884031	0.1046427	-0.1234151	0	0	0	0
1.900597	0.1046427	-0.1234151	0	0	0	0
1.917164	0.1046427	-0.1234151	0	0	0	0
1.933731	0.1046427	-0.1234151	0	0	0	0
1.950297	0.1046687	-0.1234347	0.001570944	-0.001186416	0.04741357	-0.0358079
1.966864	0.1046687	-0.1234347	0	0	-0.04741305	0.03580751
1.983539	0.1046687	-0.1234347	0	0	0	0
2.000049	0.1046687	-0.1234347	0	0	0	0
2.016565	0.1046687	-0.1234347	0	0	0	0
2.033131	0.1046687	-0.1234347	0	0	0	0
2.049697	0.1046947	-0.1234544	0.001571405	-0.001186424	0.04742817	-0.03580867
2.066264	0.1046947	-0.1234544	0	0	-0.04742714	0.0358079
2.08283	0.1046947	-0.1234544	0	0	0	0
2.099397	0.1046947	-0.1234544	0	0	0	0
2.120114	0.1046947	-0.1234544	0	0	0	0
2.132531	0.1046947	-0.1234544	0	0	0	0
2.149192	0.1046947	-0.1234544	0	0	0	0
2.165663	0.1046947	-0.1234544	0	0	0	0
2.18223	0.1046947	-0.1234544	0	0	0	0
2.198797	0.1046947	-0.1234544	0	0	0	0
2.215364	0.1046947	-0.1234544	0	0	0	0
2.23193	0.1046947	-0.1234544	0	0	0	0
2.248497	0.1046947	-0.1234544	0	0	0	0
2.265064	0.1046947	-0.1234544	0	0	0	0
2.281631	0.1046947	-0.1234544	0	0	0	0
2.298197	0.1046947	-0.1234544	0	0	0	0
2.314764	0.1046947	-0.1234544	0	0	0	0
2.33133	0.1046947	-0.1234544	0	0	0	0
2.347897	0.1046947	-0.1234544	0	0	0	0
2.364464	0.1046947	-0.1234544	0	0	0	0
2.381363	0.1046947	-0.1234544	0	0	0	0
2.398885	0.1046947	-0.1234544	0	0	0	0
2.415452	0.1046947	-0.1234544	0	0	0	0
2.432019	0.1046947	-0.1234544	0	0	0	0
2.448586	0.1046947	-0.1234544	0	0	0	0
2.465152	0.1046947	-0.1234544	0	0	0	0
2.481951	0.1046947	-0.1234544	0	0	0	0
2.498456	0.1046947	-0.1234544	0	0	0	0
2.514852	0.1046947	-0.1234544	0	0	0	0
2.531419	0.1046947	-0.1234544	0	0	0	0
2.548484	0.1046947	-0.1234544	0	0	0	0
2.564552	0.1046947	-0.1234544	0	0	0	0
2.581119	0.1046947	-0.1234544	0	0	0	0
2.597687	0.1046947	-0.1234544	0	0	0	0
2.614253	0.1046947	-0.1234544	0	0	0	0
2.630819	0.1046947	-0.1234544	0	0	0	0
2.647385	0.1046947	-0.1234544	0	0	0	0
2.664191	0.1046947	-0.1234544	0	0	0	0
2.680695	0.1046947	-0.1234544	0	0	0	0
2.697206	0.1046947	-0.1234544	0	0	0	0
2.713652	0.1046947	-0.1234544	0	0	0	0
2.730219	0.1046947	-0.1234544	0	0	0	0
2.746786	0.1046947	-0.1234544	0	0	0	0
2.763352	0.1046947	-0.1234544	0	0	0	0
2.779922	0.1046947	-0.1234544	0	0	0	0
2.796485	0.1046947	-0.1234544	0	0	0	0
2.813054	0.1046947	-0.1234544	0	0	0	0
2.829621	0.1046947	-0.1234544	0	0	0	0
2.846186	0.1046947	-0.1234544	0	0	0	0
2.862754	0.1046947	-0.1234544	0	0	0	0
2.879332	0.1046947	-0.1234544	0	0	0	0
2.895885	0.1046947	-0.1234544	0	0	0	0
2.912455	0.1046947	-0.1234544	0	0	0	0
2.935153	0.1046947	-0.1234544	0	0	0	0
2.946454	0.1046947	-0.1234544	0	0	0	0
2.963022	0.1046947	-0.1234544	0	0	0	0
2.97959	0.1046947	-0.1234544	0	0	0	0
2.996155	0.1046947	-0.1234544	0	0	0	0
3.012723	0.1046947	-0.1234544	0	0	0	0
3.02929	0.1046947	-0.1234544	0	0	0	0
3.045867	0.1046947	-0.1234544	0	0	0	0
3.062424	0.1046947	-0.1234544	0	0	0	0
3.07899	0.1046947	-0.1234544	0	0	0	0
3.095555	0.1046947	-0.1234544	0	0	0	0
3.112124	0.1046947	-0.1234544	0	0	0	0
3.12869	0.1046947	-0.1234544	0	0	0	0
3.145438	0.1046947	-0.1234544	0	0	0	0
3.161823	0.1046947	-0.1234544	0	0	0	0
3.17839	0.1046947	-0.1234544	0	0	0	0
3.194973	0.1046947	-0.1234544	0	0	0	0
3.211987	0.1046947	-0.1234544	0	0	0	0
3.228517	0.1046947	-0.1234544	0	0	0	0
3.245548	0.1046947	-0.1234544	0	0	0	0
3.262522	0.1046947	-0.1234544	0	0	0	0
3.278683	0.1046947	-0.1234544	0	0	0	0
3.295248	0.1046947	-0.1234544	0	0	0	0
3.311818	0.1046947	-0.1234544	0	0	0	0
3.328385	0.1046947	-0.1234544	0	0	0	0
3.34495	0.1046947	-0.1234544	0	0	0	0
3.361516	0.1046947	-0.1234544	0	0	0	0
3.378105	0.1046947	-0.1234544	0	0	0	0
3.394649	0.1046947	-0.1234544	0	0	0	0
3.411217	0.1046947	-0.1234544	0	0	0	0
3.427782	0.1046947	-0.1234544	0	0	0	0
3.444682	0.1046947	-0.1234544	0	0	0	0
3.460915	0.1046947	-0.1234544	0	0	0	0
3.477482	0.1046947	-0.1234544	0	0	0	0
3.494705	0.1046947	-0.1234544	0	0	0	0
3.510615	0.1046947	-0.1234544	0	0	0	0
3.527225	0.1046947	-0.1234544	0	0	0	0
3.544225	0.1046947	-0.1234544	0	0	0	0
3.560316	0.1046947	-0.1234544	0	0	0	0
3.577245	0.1046947	-0.1234544	0	0	0	0
3.593448	0.1046947	-0.1234544	0	0	0	0
3.610015	0.1046947	-0.1234544	0	0	0	0
3.626775	0.1046947	-0.1234544	0	0	0	0
3.643148	0.1046947	-0.1234544	0	0	0	0
3.659794	0.1046947	-0.1234544	0	0	0	0
3.676336	0.1046947	-0.1234544	0	0	0	0
3.694188	0.1046947	-0.1234544	0	0	0	0
3.710757	0.1046947	-0.1234544	0	0	0	0
3.727366	0.1046947	-0.1234544	0	0	0	0
3.743889	0.1046947	-0.1234544	0	0	0	0
3.760456	0.1046947	-0.1234544	0	0	0	0
3.777022	0.1046947	-0.1234544	0	0	0	0
3.793589	0.1046947	-0.1234544	0	0	0	0
3.810155	0.1046947	-0.1234544	0	0	0	0
3.826722	0.1046947	-0.1234544	0	0	0	0
3.843289	0.1046947	-0.1234544	0	0	0	0
3.859856	0.1046947	-0.1234544	0	0	0	0
3.876423	0.1046947	-0.1234544	0	0	0	0
3.893096	0.1046947	-0.1234544	0	0	0	0
3.909556	0.1046947	-0.1234544	0	0	0	0
3.926123	0.1046947	-0.1234544	0	0	0	0
3.942689	0.1046947	-0.1234544	0	0	0	0
3.959256	0.1046947	-0.1234544	0	0	0	0
3.975823	0.1046947	-0.1234544	0	0	0	0
3.992388	0.1046947	-0.1234544	0	0	0	0
4.009157	0.1046947	-0.1234544	0	0	0	0
4.025687	0.1046947	-0.1234544	0	0	0	0
4.047388	0.1046947	-0.1234544	0	0	0	0
4.058656	0.1046947	-0.1234544	0	0	0	0
4.075265	0.1046947	-0.1234544	0	0	0	0
4.091789	0.1046947	-0.1234544	0	0	0	0
4.108356	0.1046947	-0.1234544	0	0	0	0
4.125306	0.1046947	-0.1234544	0	0	0	0
4.14149	0.1046947	-0.1234544	0	0	0	0
4.158056	0.1046947	-0.1234544	0	0	0	0
4.174623	0.1044345	-0.1236509	-0.01571225	-0.01186514	-0.4742171	-0.3581061
4.191189	0.1044345	-0.1236509	0	0	0.4742171	0.3581061
4.207756	0.1044345	-0.1236509	0	0	0	0
4.224322	0.07802548	-0.143625	-1.594095	-1.205672	-48.11195	-36.38882
4.24089	0.07802548	-0.143625	0	0	48.11056	36.38777
4.257457	0.07802548	-0.143625	0	0	0	0
4.274023	0.03183135	-0.178789	-2.788524	-2.122686	-84.16146	-64.06554
4.290928	0.03183135	-0.178789	0	0	83.31138	63.41845
4.307156	0.03183135	-0.178789	0	0	0	0
4.327035	-0.008210341	-0.2095499	-2.014236	-1.547383	-55.78511	-42.85542
4.343602	-0.008210341	-0.2095499	0	0	55.26546	42.45621
4.360169	-0.008210341	-0.2095499	0	0	0	0
4.376862	-0.01644589	-0.2159479	-0.4933639	-0.3832796	-14.83382	-11.52395
4.393395	-0.01644589	-0.2159479	0	0	14.84851	11.53536
4.409904	-0.01644589	-0.2159479	0	0	0	0
4.426435	-0.01644589	-0.2159479	0	0	0	0
4.443003	-0.01644589	-0.2159479	0	0	0	0
4.459569	-0.01644589	-0.2159479	0	0	0	0
4.476433	-0.01639327	-0.2159479	0.003120162	0	0.09333392	0
4.492967	-0.01639327	-0.2159479	0	0	-0.0934232	0
4.509466	-0.01639327	-0.2159479	0	0	0	0
4.525836	-0.01639327	-0.2159479	0	0	0	0
4.542491	-0.01639327	-0.2159479	0	0	0	0
4.559491	-0.01639327	-0.2159479	0	0	0	0
4.575536	-0.01644589	-0.2159069	-0.003279374	0.002552082	-0.0992402	0.07723093
4.593273	-0.01644589	-0.2159069	0	0	0.09707595	-0.07554667
4.608669	-0.01644589	-0.2159069	0	0	0	0
4.625235	-0.01726144	-0.2151496	-0.04922997	0.04571376	-1.540247	1.430236
4.641802	-0.01726144	-0.2151496	0	0	1.485806	-1.379684
4.659078	-0.01726144	-0.2151496	0	0	0	0
4.675061	-0.03198908	-0.2037208	-0.9214779	0.7150794	-27.70659	21.50069
4.691504	-0.03198908	-0.2037208	0	0	28.41839	-22.05306
4.708565	-0.03198908	-0.2037208	0	0	0	0
4.724636	-0.04822574	-0.1911788	-1.010348	0.7804396	-30.49454	23.55541
4.741203	-0.04822574	-0.1911788	0	0	30.95656	-23.91229
4.758101	-0.04822574	-0.1911788	0	0	0	0
4.774336	-0.04969589	-0.1900459	-0.0905552	0.06978313	-2.73304	2.10612
4.790903	-0.04969589	-0.1900459	0	0	2.760732	-2.12746
4.80747	-0.04969589	-0.1900459	0	0	0	0
4.824162	-0.0498009	-0.189965	-0.006290663	0.00484649	-0.1891394	0.1457179
4.840671	-0.0498009	-0.189965	0	0	0.1894708	-0.1459733
4.857178	-0.0498009	-0.189965	0	0	0	0
4.876861	-0.07588034	-0.1698522	-1.324981	1.021843	-36.61176	28.23547
4.893476	-0.07588034	-0.1698522	0	0	36.50355	-28.15201
4.909995	-0.07588034	-0.1698522	0	0	0	0
4.926561	-0.1150684	-0.1399217	-2.365531	1.80671	-71.49682	54.60677
4.943129	-0.1150684	-0.1399217	0	0	71.39393	-54.52819
4.960006	-0.1150684	-0.1399217	0	0	0	0
4.976261	-0.1492502	-0.1139394	-2.102803	1.598382	-63.46637	48.24203
4.993026	-0.1492502	-0.1139394	0	0	63.68266	-48.40644
5.009545	-0.1492502	-0.1139394	0	0	0	0
5.025961	-0.1591684	-0.1064312	-0.6041558	0.4573585	-18.34354	13.88644
5.042529	-0.1591684	-0.1064312	0	0	18.31649	-13.86596
5.059095	-0.1591684	-0.1064312	0	0	0	0
5.075662	-0.1881683	-0.08465479	-1.750488	1.314464	-52.83289	39.6729
5.092622	-0.1881683	-0.08465479	0	0	52.21072	-39.20571
5.108795	-0.1881683	-0.08465479	0	0	0	0
5.125361	-0.2291404	-0.05459138	-2.473224	1.814735	-75.5433	55.4301
5.142008	-0.2291404	-0.05459138	0	0	74.4663	-54.63985
5.158495	-0.2291404	-0.05459138	0	0	0	0
5.175061	-0.2584309	-0.03271839	-1.76813	1.32037	-53.49313	39.94658
5.191628	-0.2584309	-0.03271839	0	0	53.36533	-39.85115
5.208195	-0.2584309	-0.03271839	0	0	0	0
5.224761	-0.277128	-0.01833688	-1.128623	0.8681196	-34.06289	26.20065
5.241329	-0.277128	-0.01833688	0	0	34.06289	-26.20065
5.257895	-0.277128	-0.01833688	0	0	0	0
5.274603	-0.2905874	-0.007810454	-0.8055508	0.6300093	-24.20914	18.93361
5.291107	-0.2905874	-0.007810454	0	0	24.25503	-18.96949
5.3076	-0.2905874	-0.007810454	0	0	0	0
5.324162	-0.2952911	-0.004095623	-0.2840122	0.2243051	-8.592155	6.785851
5.340728	-0.2952911	-0.004095623	0	0	8.57311	-6.770809
5.357296	-0.2952911	-0.004095623	0	0	0	0
5.37387	-0.2951947	-0.003982547	0.005813577	0.006822732	0.1754162	0.205866
5.390429	-0.2951947	-0.003982547	0	0	-0.1754667	-0.2059253
5.412529	-0.2951947	-0.003982547	0	0	0	0
5.423561	-0.2946888	-0.003624498	0.04586197	0.03245519	1.384217	0.9795701
5.440128	-0.2946888	-0.003624498	0	0	-1.661677	-1.175921
5.456797	-0.2946888	-0.003624498	0	0	0	0
5.473262	-0.2946165	-0.003681029	0.004389426	-0.003433496	0.132477	-0.1036261
5.489829	-0.2946165	-0.003681029	0	0	-0.1328843	0.1039447
5.506396	-0.2946165	-0.003681029	0	0	0	0
5.522962	-0.2944237	-0.003831784	0.01163757	-0.009100131	0.3512378	-0.2746544
5.539529	-0.2944237	-0.003831784	0	0	-0.3512327	0.2746504
5.556097	-0.2944237	-0.003831784	0	0	0	0
5.572662	-0.2940381	-0.004133316	0.02328008	-0.01820256	0.7026246	-0.5493781
5.589909	-0.2940381	-0.004133316	0	0	-0.6885144	0.5383454
5.605796	-0.2940381	-0.004133316	0	0	0	0
5.62243	-0.2938693	-0.00422755	0.01014434	-0.005665177	0.311934	-0.1742018
5.638959	-0.2938693	-0.00422755	0	0	-0.3058881	0.1708254
5.655496	-0.2938693	-0.00422755	0	0	0	0
5.675198	-0.2937247	-0.00422755	0.007342264	0	0.2026085	0
5.688978	-0.2937247	-0.00422755	0	0	-0.2192894	0
5.705197	-0.2937247	-0.00422755	0	0	0	0
5.721762	-0.2920361	-0.005433986	0.101934	-0.07282899	3.109217	-2.221448
5.73833	-0.2920361	-0.005433986	0	0	-3.076507	2.198078
5.754895	-0.2920361	-0.005433986	0	0	0	0
5.771519	-0.2916741	-0.005679097	0.0217781	-0.01474446	0.6561785	-0.4442535
5.788521	-0.2916741	-0.005679097	0	0	-0.6476643	0.4384891
5.804595	-0.2916741	-0.005679097	0	0	0	0
5.821161	-0.2915051	-0.005811088	0.01020228	-0.007967638	0.3125656	-0.2441031
5.838053	-0.2915051	-0.005811088	0	0	-0.3049303	0.2381402
5.854295	-0.2915051	-0.005811088	0	0	0	0
5.871091	-0.2912395	-0.006018512	0.01581176	-0.01234991	0.4785979	-0.3738132
5.887605	-0.2912395	-0.006018512	0	0	-0.4746927	0.3707629
5.903996	-0.2912395	-0.006018512	0	0	0	0
5.920646	-0.2911912	-0.006056228	0.00290144	-0.002265156	0.08781334	-0.06855592
5.937129	-0.2911912	-0.006056228	0	0	-0.08756943	0.0683655
5.953694	-0.2911912	-0.006056228	0	0	0	0
5.970261	-0.2910946	-0.006131659	0.005830311	-0.00455316	0.1759718	-0.1374245
5.986828	-0.2910946	-0.006131659	0	0	-0.1759591	0.1374146
6.003395	-0.2910946	-0.006131659	0	0	0	0
6.020042	-0.2852163	-0.01071738	0.3531158	-0.2754706	10.63166	-8.293904
6.036529	-0.2852163	-0.01071738	0	0	-10.65736	8.313957
6.053095	-0.2852163	-0.01071738	0	0	0	0
6.069661	-0.2843437	-0.0113973	0.0526722	-0.04104222	1.589742	-1.238728
6.086373	-0.2843437	-0.0113973	0	0	-1.582771	1.233297
6.102795	-0.2843437	-0.0113973	0	0	0	0
6.119379	-0.2843437	-0.0113973	0	0	0	0
6.135929	-0.2843437	-0.0113973	0	0	0	0
6.152495	-0.2843437	-0.0113973	0	0	0	0
6.169436	-0.2843437	-0.0113973	0	0	0	0
6.185927	-0.2843437	-0.0113973	0	0	0	0
6.202195	-0.2843437	-0.0113973	0	0	0	0
6.225261	-0.2843195	-0.01141618	0.001051701	-0.0008188558	0.02673784	-0.02081811
6.235328	-0.2843195	-0.01141618	0	0	-0.03174178	0.02471418
6.251895	-0.2842953	-0.01143507	0.001462483	-0.001140147	0.05491091	-0.04280839
6.268462	-0.2842953	-0.01143507	0	0	-0.04413845	0.03441021
6.285028	-0.2842953	-0.01143507	0	0	0	0
6.301595	-0.2821846	-0.01311661	0.1274034	-0.1015008	3.845207	-3.063433
6.318162	-0.2821846	-0.01311661	0	0	-3.845041	3.063301
6.334728	-0.2821846	-0.01311661	0	0	0	0
6.351295	-0.2574714	-0.03224301	1.49165	-1.154438	45.02003	-34.84252
6.367862	-0.2574714	-0.03224301	0	0	-45.01873	34.84151
6.384788	-0.2574714	-0.03224301	0	0	0	0
6.400994	-0.2281668	-0.05480212	1.808224	-1.392	54.57544	-42.01306
6.417562	-0.2281668	-0.05480212	0	0	-55.17255	42.47272
6.434128	-0.2281668	-0.05480212	0	0	0	0
6.450846	-0.2008345	-0.07564607	1.634915	-1.246804	49.11987	-37.45934
6.467261	-0.2008345	-0.07564607	0	0	-49.34397	37.63023
6.483859	-0.2008345	-0.07564607	0	0	0	0
6.500771	-0.1684669	-0.09888632	1.913885	-1.374188	57.11511	-41.00921
6.516962	-0.1684669	-0.09888632	0	0	-57.81607	41.51251
6.533528	-0.1684669	-0.09888632	0	0	0	0
6.550094	-0.1399734	-0.1179764	1.719971	-1.152348	51.9118	-34.77993
6.566661	-0.1399734	-0.1179764	0	0	-51.91031	34.77893
6.583228	-0.1399734	-0.1179764	0	0	0	0
6.599795	-0.120648	-0.1315263	1.166513	-0.8178954	35.20646	-24.68484
6.616362	-0.120648	-0.1315263	0	0	-35.20646	24.68484
6.632928	-0.120648	-0.1315263	0	0	0	0
6.649495	-0.1135619	-0.1369158	0.4277309	-0.32532	12.90932	-9.81846
6.666061	-0.1135619	-0.1369158	0	0	-12.9095	9.818602
6.682629	-0.1135619	-0.1369158	0	0	0	0
6.699426	-0.1135619	-0.1369158	0	0	0	0
6.715762	-0.1135619	-0.1369158	0	0	0	0
6.732328	-0.1135619	-0.1369158	0	0	0	0
6.748894	-0.1135619	-0.1369158	0	0	0	0
6.76769	-0.1135619	-0.1369158	0	0	0	0
6.782028	-0.1135619	-0.1369158	0	0	0	0
6.798595	-0.1135619	-0.1369158	0	0	0	0
6.815492	-0.1135619	-0.1369158	0	0	0	0
6.831728	-0.1135619	-0.1369158	0	0	0	0
6.848295	-0.1135879	-0.136896	-0.001568212	0.001192686	-0.04780757	0.03635952
6.864862	-0.1135879	-0.136896	0	0	0.0473294	-0.03599586
6.881545	-0.1135879	-0.136896	0	0	0	0
6.897995	-0.1135879	-0.136896	0	0	0	0
6.914562	-0.1135879	-0.136896	0	0	0	0
6.931129	-0.1135879	-0.136896	0	0	0	0
6.947695	-0.1135879	-0.136896	0	0	0	0
6.964262	-0.1135879	-0.136896	0	0	0	0
6.980829	-0.1135879	-0.136896	0	0	0	0
6.997395	-0.1135879	-0.1369356	0	-0.002385441	0	-0.0719969
7.013962	-0.1135879	-0.1369356	0	0	0	0.07199587
7.030529	-0.1135879	-0.1369356	0	0	0	0
7.050577	-0.1136139	-0.1369553	-0.00129592	-0.0009863414	-0.03539325	-0.02693826
7.067144	-0.1136139	-0.1369553	0	0	0.03539279	0.0269379
7.083711	-0.1135879	-0.1369751	0.001568212	-0.001192686	0.04732872	-0.03599534
7.100278	-0.1135879	-0.1369751	0	0	-0.0473294	0.03599586
7.116846	-0.1135879	-0.1369751	0	0	0	0
7.133411	-0.1136139	-0.1369949	-0.001568302	-0.001192755	-0.04733349	-0.03599897
7.149978	-0.1136139	-0.1369949	0	0	0.04733417	0.03599949
7.166545	-0.1136139	-0.1369949	0	0	0	0
7.183111	-0.1136139	-0.1369949	0	0	0	0
7.199679	-0.1136139	-0.1369949	0	0	0	0
7.216246	-0.1136139	-0.1369949	0	0	0	0
7.232811	-0.1136139	-0.1369949	0	0	0	0
7.249379	-0.1136139	-0.1369949	0	0	0	0
7.265945	-0.1136139	-0.1369949	0	0	0	0
7.28279	-0.1136399	-0.1370146	-0.001541845	-0.001173854	-0.04614713	-0.03513324
7.299306	-0.1136399	-0.1370146	0	0	0.04621638	0.03518596
7.315826	-0.1136399	-0.1370146	0	0	0	0
7.332212	-0.1136399	-0.1370146	0	0	0	0
7.348779	-0.1136399	-0.1370146	0	0	0	0
7.365349	-0.1136399	-0.1370146	0	0	0	0
7.382359	-0.1136399	-0.1370146	0	0	0	0
7.398478	-0.1136399	-0.1370146	0	0	0	0
7.415046	-0.1136399	-0.1370146	0	0	0	0
7.431612	-0.1136399	-0.1370146	0	0	0	0
7.448179	-0.1136399	-0.1370146	0	0	0	0
7.464745	-0.1136399	-0.1370146	0	0	0	0
7.481311	-0.1136399	-0.1370146	0	0	0	0
7.497879	-0.1136399	-0.1370146	0	0	0	0
7.514446	-0.1136399	-0.1370146	0	0	0	0
7.531012	-0.1136399	-0.1370146	0	0	0	0
7.547578	-0.1136399	-0.1370146	0	0	0	0
7.564145	-0.1136399	-0.1370146	0	0	0	0
7.580711	-0.1136658	-0.1369949	-0.001568302	0.001193654	-0.04733417	0.03602664
7.597278	-0.1136658	-0.1369949	0	0	0.04733349	-0.03602612
7.613846	-0.1136658	-0.1369949	0	0	0	0
7.630659	-0.1136658	-0.1369949	0	0	0	0
7.646979	-0.1136658	-0.1369949	0	0	0	0
7.663546	-0.1136658	-0.1369949	0	0	0	0
7.680112	-0.1136658	-0.1369949	0	0	0	0
7.696681	-0.1136658	-0.1369949	0	0	0	0
7.713246	-0.1136658	-0.1369949	0	0	0	0
7.729813	-0.1136399	-0.1370146	0.001568212	-0.001193586	0.04733281	-0.0360256
7.746379	-0.1136399	-0.1370146	0	0	-0.04733144	0.03602456
7.762946	-0.1136399	-0.1370146	0	0	0	0
7.779511	-0.1136399	-0.1370146	0	0	0	0
7.796246	-0.1136399	-0.1370146	0	0	0	0
7.812645	-0.1136399	-0.1370146	0	0	0	0
7.829212	-0.1136399	-0.1370146	0	0	0	0
7.845779	-0.1136399	-0.1370146	0	0	0	0
7.862347	-0.1136399	-0.1370146	0	0	0	0
7.878911	-0.1136399	-0.1370146	0	0	0	0
7.895479	-0.1136399	-0.1370146	0	0	0	0
7.912045	-0.1136399	-0.1370146	0	0	0	0
7.928611	-0.1136399	-0.1370146	0	0	0	0
7.945179	-0.1136399	-0.1370146	0	0	0	0
7.961745	-0.1136399	-0.1370146	0	0	0	0
7.978311	-0.1136658	-0.1369949	-0.001568302	0.001193654	-0.04733417	0.03602664
7.994877	-0.1136658	-0.1369949	0	0	0.04733485	-0.03602716
8.011446	-0.1136658	-0.1369949	0	0	0	0
8.02801	-0.1136658	-0.1369949	0	0	0	0
8.04458	-0.1136658	-0.1369949	0	0	0	0
8.061146	-0.1136658	-0.1369949	0	0	0	0
8.077711	-0.1136658	-0.1369949	0	0	0	0
8.094278	-0.1136658	-0.1369949	0	0	0	0
8.110848	-0.1136658	-0.1369949	0	0	0	0
8.134542	-0.1136399	-0.1370146	0.00109653	-0.0008345828	0.02723406	-0.02072819
8.151226	-0.1136399	-0.1370146	0	0	-0.02715687	0.02066944
8.167676	-0.1136399	-0.1370146	0	0	0	0
8.184243	-0.1136399	-0.1370146	0	0	0	0
8.200809	-0.1136399	-0.1370146	0	0	0	0
8.217376	-0.1136399	-0.1370146	0	0	0	0
8.23428	-0.1136399	-0.1370146	0	0	0	0
8.250792	-0.1136399	-0.1370146	0	0	0	0
8.267076	-0.1136399	-0.1370146	0	0	0	0
8.283643	-0.1136399	-0.1370146	0	0	0	0
8.300837	-0.1136399	-0.1370146	0	0	0	0
8.316836	-0.1136918	-0.1370146	-0.003247564	0	-0.09783708	0
8.333358	-0.1136918	-0.1370146	0	0	0.09985975	0
8.349909	-0.1136918	-0.1370146	0	0	0	0
8.366475	-0.1136658	-0.1369949	0.001568257	0.00119362	0.04735462	0.0360422
8.383042	-0.1136658	-0.1369949	0	0	-0.04733144	-0.03602456
8.399742	-0.1136658	-0.1369949	0	0	0	0
8.41627	-0.1136658	-0.1369949	0	0	0	0
8.43275	-0.1136658	-0.1369949	0	0	0	0
8.449309	-0.1136658	-0.1369949	0	0	0	0
8.465876	-0.1136658	-0.1369949	0	0	0	0
8.482444	-0.1136658	-0.1369949	0	0	0	0
8.49901	-0.1136658	-0.1369949	0	0	0	0
8.515576	-0.1136658	-0.1369949	0	0	0	0
8.532316	-0.1136658	-0.1369949	0	0	0	0
8.54871	-0.1136658	-0.1369949	0	0	0	0
8.565361	-0.1136918	-0.1370146	-0.001560263	-0.001187536	-0.04721657	-0.03593713
8.581849	-0.1136918	-0.1370146	0	0	0.04708205	0.03583474
8.598412	-0.1136918	-0.1370146	0	0	0	0
8.614977	-0.1136658	-0.1370344	0.001568347	-0.001192789	0.04734235	-0.03600571
8.631543	-0.1136658	-0.1370344	0	0	-0.0473369	0.03600156
8.64811	-0.1136658	-0.1370344	0	0	0	0
8.664906	-0.1136658	-0.1370344	0	0	0	0
8.681244	-0.1136658	-0.1370344	0	0	0	0
8.697943	-0.1136658	-0.1370344	0	0	0	0
8.714376	-0.1136658	-0.1370344	0	0	0	0
8.730943	-0.1136658	-0.1370344	0	0	0	0
8.74751	-0.1136658	-0.1370344	0	0	0	0
8.764076	-0.1136658	-0.1370344	0	0	0	0
8.781032	-0.1136658	-0.1370344	0	0	0	0
8.79721	-0.1136658	-0.1370344	0	0	0	0
8.813776	-0.1136658	-0.1370344	0	0	0	0
8.830342	-0.1136658	-0.1370344	0	0	0	0
8.84691	-0.1136658	-0.1370344	0	0	0	0
8.863476	-0.1136918	-0.1370146	-0.001568257	0.001192721	-0.04733144	0.03599742
8.880043	-0.1136918	-0.1370146	0	0	0.04733144	-0.03599742
8.896609	-0.1136918	-0.1370146	0	0	0	0
8.913594	-0.1136918	-0.1370146	0	0	0	0
8.929742	-0.1136918	-0.1370146	0	0	0	0
8.946635	-0.1136918	-0.1370146	0	0	0	0
8.96314	-0.1136918	-0.1370146	0	0	0	0
8.979443	-0.1136918	-0.1370146	0	0	0	0
8.996671	-0.1136918	-0.1370146	0	0	0	0
9.012575	-0.1136918	-0.1370146	0	0	0	0
9.029142	-0.1136918	-0.1370146	0	0	0	0
9.045709	-0.1136918	-0.1370146	0	0	0	0
9.062275	-0.1136658	-0.1370344	0.001568257	-0.001192721	0.04733281	-0.03599845
9.078842	-0.1136658	-0.1370344	0	0	-0.04733144	0.03599742
9.095408	-0.1136658	-0.1370344	0	0	0	0
9.112234	-0.1136658	-0.1370344	0	0	0	0
9.128542	-0.1136658	-0.1370344	0	0	0	0
9.145774	-0.1136658	-0.1370344	0	0	0	0
9.161674	-0.1136658	-0.1370344	0	0	0	0
9.178244	-0.1136658	-0.1370344	0	0	0	0
9.194809	-0.1136658	-0.1370344	0	0	0	0
9.215914	-0.1136658	-0.1370344	0	0	0	0
9.227942	-0.1136658	-0.1370344	0	0	0	0
9.244508	-0.1136658	-0.1370344	0	0	0	0
9.261314	-0.1136658	-0.1370344	0	0	0	0
9.277826	-0.1136658	-0.1370344	0	0	0	0
9.294208	-0.1136658	-0.1370344	0	0	0	0
9.310778	-0.1136658	-0.1370344	0	0	0	0
9.32736	-0.1136658	-0.1370344	0	0	0	0
9.344397	-0.1136658	-0.1370344	0	0	0	0
9.360889	-0.1136658	-0.1370344	0	0	0	0
9.377043	-0.1136658	-0.1370344	0	0	0	0
9.393608	-0.1136658	-0.1370344	0	0	0	0
9.410176	-0.1136658	-0.1370344	0	0	0	0
9.426988	-0.1136658	-0.1370344	0	0	0	0
9.443439	-0.1136658	-0.1370344	0	0	0	0
9.459978	-0.1136658	-0.1370344	0	0	0	0
9.476458	-0.1136658	-0.1370344	0	0	0	0
9.493017	-0.1136658	-0.1370344	0	0	0	0
9.509602	-0.1136658	-0.1370344	0	0	0	0
9.526156	-0.1136658	-0.1370344	0	0	0	0
9.543113	-0.1136658	-0.1370344	0	0	0	0
9.559285	-0.1136658	-0.1370344	0	0	0	0
9.576116	-0.1136658	-0.1370344	0	0	0	0
9.592407	-0.1136658	-0.1370344	0	0	0	0
9.608974	-0.1136658	-0.1370344	0	0	0	0
9.626167	-0.1136658	-0.1370344	0	0	0	0
9.642107	-0.1136918	-0.1370146	-0.001629902	0.001239605	-0.04919338	0.03741349
9.658675	-0.1136918	-0.1370146	0	0	0.05013866	-0.03813241
9.675241	-0.1136918	-0.1370146	0	0	0	0
9.691807	-0.1136918	-0.1370146	0	0	0	0
9.708374	-0.1136918	-0.1370146	0	0	0	0
9.72494	-0.1136918	-0.1370146	0	0	0	0
9.741507	-0.1136658	-0.1370344	0.001568257	-0.001192721	0.04733281	-0.03599845
9.766429	-0.1136658	-0.1370344	0	0	-0.03779966	0.02874812
9.774639	-0.1136658	-0.1370344	0	0	0	0
9.791261	-0.1136658	-0.1370344	0	0	0	0
9.807773	-0.1136658	-0.1370344	0	0	0	0
9.82434	-0.1136658	-0.1370344	0	0	0	0
9.840906	-0.1136658	-0.1370344	0	0	0	0
9.857472	-0.1136658	-0.1370344	0	0	0	0
9.874039	-0.1136658	-0.1370344	0	0	0	0
9.890822	-0.1136658	-0.1370344	0	0	0	0
9.907171	-0.1136658	-0.1370344	0	0	0	0
9.923848	-0.1136658	-0.1370344	0	0	0	0
9.940364	-0.1136658	-0.1370344	0	0	0	0
9.956873	-0.1136658	-0.1370344	0	0	0	0
9.973439	-0.1136658	-0.1370344	0	0	0	0
9.990006	-0.1136658	-0.1370344	0	0	0	0
10.00657	-0.1136658	-0.1370344	0	0	0	0
10.02314	-0.1136658	-0.1370344	0	0	0	0
10.03971	-0.1136658	-0.1370344	0	0	0	0
10.05627	-0.1136658	-0.1370344	0	0	0	0
10.07295	-0.1136658	-0.1370344	0	0	0	0
10.08941	-0.1136658	-0.1370344	0	0	0	0
10.10597	-0.1136658	-0.1370344	0	0	0	0
10.12254	-0.1136658	-0.1370344	0	0	0	0
10.1391	-0.1136658	-0.1370344	0	0	0	0
10.15567	-0.1136658	-0.1370344	0	0	0	0
10.17224	-0.1136658	-0.1370344	0	0	0	0
10.1888	-0.1136918	-0.1370146	-0.001568257	0.001192721	-0.04733281	0.03599845
10.20537	-0.1136918	-0.1370146	0	0	0.04733144	-0.03599742
10.22206	-0.1136918	-0.1370146	0	0	0	0
10.24007	-0.1136658	-0.1370344	0.001442149	-0.00109681	0.04155772	-0.03160628
10.25664	-0.1136658	-0.1370344	0	0	-0.04170327	0.03171697
10.27321	-0.1136658	-0.1370344	0	0	0	0
10.28977	-0.1136658	-0.1369949	0	0.002386341	0	0.07202405
10.30661	-0.1136658	-0.1369949	0	0	0	-0.07142986
10.32291	-0.1136658	-0.1369949	0	0	0	0
10.34197	-0.1136139	-0.1369553	0.002725055	0.002072808	0.0770736	0.0586259
10.35915	-0.1136139	-0.1369553	0	0	-0.07517763	-0.05718374
10.37511	-0.1136139	-0.1369553	0	0	0	0
10.39167	-0.1128605	-0.1364613	0.04548161	0.02982423	1.398643	0.9171498
10.40869	-0.1128605	-0.1364613	0	0	-1.354471	-0.8881844
10.4248	-0.1128605	-0.1364613	0	0	0	0
10.44137	-0.082967	-0.1213128	1.804477	0.9144164	55.20763	27.9764
10.45794	-0.082967	-0.1213128	0	0	-54.46079	-27.59794
10.47474	-0.082967	-0.1213128	0	0	0	0
10.49128	-0.000368421	-0.1068608	4.993997	0.873786	149.7665	26.20423
10.50764	-0.000368421	-0.1068608	0	0	-151.8203	-26.56358
10.52427	-0.000368421	-0.1068608	0	0	0	0
10.54079	0.06849793	-0.1059431	4.167818	0.05553522	125.7054	1.674996
10.55734	0.06849793	-0.1059431	0	0	-126.0389	-1.67944
10.5739	0.06849793	-0.1059431	0	0	0	0
10.59047	0.09833966	-0.1143899	1.80125	-0.5098448	54.36184	-15.38715
10.60724	0.09833966	-0.1143899	0	0	-54.03061	15.29339
10.62361	0.09833966	-0.1143899	0	0	0	0
10.64017	0.1006066	-0.1160943	0.1368456	-0.1028934	4.155845	-3.124754
10.65674	0.1006066	-0.1160943	0	0	-4.130365	3.105596
10.6733	0.1006066	-0.1160943	0	0	0	0
10.68988	0.1006326	-0.1161139	0.001571129	-0.001182391	0.04740175	-0.03567334
10.70644	0.1006326	-0.1161139	0	0	-0.04741675	0.03568464
10.72341	0.1006326	-0.1161139	0	0	0	0
10.73957	0.100841	-0.1162707	0.01289757	-0.009703491	0.3892717	-0.2928688
10.75614	0.100841	-0.1162707	0	0	-0.3941271	0.2965218
10.77297	0.100841	-0.1162707	0	0	0	0
10.78944	0.1008931	-0.1163491	0.003163366	-0.004760884	0.09498666	-0.1429555
10.80598	0.1008931	-0.1163491	0	0	-0.09584574	0.1442484
10.8224	0.1008931	-0.1163491	0	0	0	0
10.83897	0.100867	-0.1163687	-0.001572304	-0.001182826	-0.04765524	-0.03585048
10.85554	0.100867	-0.1163687	0	0	0.04745497	0.03569982
10.87253	0.100867	-0.1163687	0	0	0	0
10.89306	0.100867	-0.1163687	0	0	0	0
10.90995	0.100867	-0.1163687	0	0	0	0
10.92619	0.100815	-0.1163687	-0.003207763	0	-0.09681327	0
10.94276	0.100815	-0.1163687	0	0	0.09777575	0
10.9595	0.100815	-0.1163687	0	0	0	0
10.976	0.1007889	-0.1163883	-0.001579117	-0.001188064	-0.04751018	-0.03574472
10.99251	0.1007889	-0.1163883	0	0	0.04783547	0.03598945
11.00903	0.1007889	-0.1163883	0	0	0	0
11.02559	0.1007368	-0.1164275	-0.003144971	-0.002366375	-0.09505768	-0.07152438
11.04216	0.1007368	-0.1164275	0	0	0.09491814	0.07141939
11.05873	0.1007368	-0.1164275	0	0	0	0
11.07557	0.1007107	-0.1164471	-0.001547017	-0.001163912	-0.04630786	-0.03484015
11.09208	0.1007107	-0.1164471	0	0	0.04638731	0.03489992
11.1091	0.1007107	-0.1164471	0	0	0	0
11.12509	0.1006326	-0.1165059	-0.004888755	-0.003678801	-0.1480885	-0.111437
11.14156	0.1006326	-0.1165059	0	0	0.1506297	0.1133493
11.15852	0.1006326	-0.1165059	0	0	0	0
11.17469	0.1005805	-0.1165451	-0.003220814	-0.002423441	-0.09720714	-0.07314171
11.19126	0.1005805	-0.1165451	0	0	0.09837371	0.07401947
11.20796	0.1005805	-0.1165451	0	0	0	0
11.22447	0.1005545	-0.1165647	-0.001578205	-0.001187377	-0.04751409	-0.03574766
11.24096	0.1005545	-0.1165647	0	0	0.04783409	0.03598842
11.25753	0.1005545	-0.1165647	0	0	0	0
11.27409	0.1005284	-0.1165843	-0.001572304	-0.001183276	-0.04745361	-0.03571237
11.29103	0.1005284	-0.1165843	0	0	0.04693352	0.03532096
11.30723	0.1005284	-0.1165843	0	0	0	0
11.32379	0.1005284	-0.1165843	0	0	0	0
11.34036	0.1005284	-0.1165843	0	0	0	0
11.35706	0.1005284	-0.1165843	0	0	0	0
11.37349	0.1005284	-0.1165843	0	0	0	0
11.39006	0.1005284	-0.1165843	0	0	0	0
11.40662	0.1005284	-0.1165843	0	0	0	0
11.42319	0.1005284	-0.1165843	0	0	0	0
11.44121	0.1005284	-0.1165843	0	0	0	0
11.45664	0.1005284	-0.1165843	0	0	0	0
11.47289	0.1005023	-0.1166039	-0.001603399	-0.001206332	-0.05061521	-0.03808082
11.48946	0.1005023	-0.1166039	0	0	0.04886037	0.03676055
11.50615	0.1005023	-0.1166039	0	0	0	0
11.52259	0.1004763	-0.1166235	-0.001584619	-0.001192544	-0.04782391	-0.03599105
11.53916	0.1004763	-0.1166235	0	0	0.04801323	0.03613353
11.55572	0.1004763	-0.1166235	0	0	0	0
11.57229	0.100346	-0.1167215	-0.007862872	-0.00591638	-0.2373224	-0.1785721
11.58913	0.100346	-0.1167215	0	0	0.2353981	0.1771242
11.60563	0.100346	-0.1167215	0	0	0	0
11.62199	0.09982498	-0.1171136	-0.03185303	-0.02396902	-0.9692209	-0.7293271
11.63856	0.09982498	-0.1171136	0	0	0.9673962	0.727954
11.65517	0.09982498	-0.1171136	0	0	0	0
11.6717	0.09972076	-0.1171921	-0.006304445	-0.004744108	-0.1902357	-0.1431528
11.68826	0.09972076	-0.1171921	0	0	0.1905208	0.1433673
11.70482	0.09972076	-0.1171921	0	0	0	0
11.72173	0.09951232	-0.1173097	-0.01233188	-0.006959578	-0.3684547	-0.2079398
11.73796	0.09951232	-0.1173097	0	0	0.3721877	0.2100465
11.75452	0.09951232	-0.1173097	0	0	0	0
11.77109	0.09932993	-0.1174077	-0.01100973	-0.005918179	-0.3322934	-0.1786213
11.78776	0.09932993	-0.1174077	0	0	0.3313112	0.1780933
11.80428	0.09932993	-0.1174077	0	0	0	0
11.82129	0.09930386	-0.1173881	-0.001531846	0.001152606	-0.0456777	0.03436927
11.83736	0.09930386	-0.1173881	0	0	0.04630716	-0.03484289
11.85432	0.09930386	-0.1173881	0	0	0	0
11.87083	0.09925175	-0.1173489	-0.003156411	0.002375206	-0.09428912	0.07095276
11.88706	0.09925175	-0.1173489	0	0	0.09642631	-0.072561
11.90362	0.09925175	-0.1173489	0	0	0	0
11.92035	0.09917358	-0.1174077	-0.004672893	-0.003515915	-0.1403415	-0.1055938
11.93676	0.09917358	-0.1174077	0	0	0.1410322	0.1061136
11.95339	0.09917358	-0.1174077	0	0	0	0
11.96989	0.09888694	-0.1175842	-0.01736853	-0.01069371	-0.5241985	-0.3227462
11.99131	0.09888694	-0.1175842	0	0	0.458031	0.2820072
12.00302	0.09888694	-0.1175842	0	0	0	0
12.01959	0.09860028	-0.1177607	-0.0173029	-0.01065292	-0.6117747	-0.3766529
12.03616	0.09860028	-0.1177607	0	0	0.5222175	0.321515
12.05272	0.09860028	-0.1177607	0	0	0	0
12.06929	0.09844391	-0.1178392	-0.009439318	-0.004735625	-0.2848956	-0.1429297
12.08596	0.09844391	-0.1178392	0	0	0.2839882	0.1424745
12.10242	0.09844391	-0.1178392	0	0	0	0
12.11949	0.09768806	-0.117898	-0.04428961	-0.003447629	-1.320998	-0.1028303
12.13556	0.09768806	-0.117898	0	0	1.336663	0.1040496
12.15213	0.09768806	-0.117898	0	0	0	0
12.16869	0.09745347	-0.1178784	-0.0141619	0.001183794	-0.4274439	0.03573006
12.18526	0.09745347	-0.1178784	0	0	0.4274439	-0.03573006
12.20182	0.09745347	-0.1178784	0	0	0	0
12.21839	0.09745347	-0.1178784	0	0	0	0
12.23496	0.09745347	-0.1178784	0	0	0	0
12.25152	0.09745347	-0.1178784	0	0	0	0
12.2681	0.097271	-0.1177411	-0.01100472	0.00827983	-0.331999	0.2497923
12.28466	0.097271	-0.1177411	0	0	0.3321423	-0.2499002
12.30122	0.097271	-0.1177411	0	0	0	0
12.31779	0.09395936	-0.1153301	-0.1999026	0.1455358	-6.033246	4.392404
12.33436	0.09395936	-0.1153301	0	0	6.033246	-4.392404
12.35092	0.09395936	-0.1153301	0	0	0	0
12.36749	0.09171566	-0.1167411	-0.1354381	-0.08517473	-4.087765	-2.570726
12.38406	0.09171566	-0.1167411	0	0	4.08753	2.570579
12.40062	0.09171566	-0.1167411	0	0	0	0
12.41719	0.05730561	-0.1425748	-2.077114	-1.559414	-62.69104	-47.06591
12.43376	0.05730561	-0.1425748	0	0	62.68923	47.06456
12.45079	0.05730561	-0.1425748	0	0	0	0
12.46689	0.02828193	-0.164327	-1.8024	-1.350836	-54.39968	-40.77065
12.48382	0.02828193	-0.164327	0	0	54.57247	40.90014
12.50002	0.02828193	-0.164327	0	0	0	0
12.51733	0.0137886	-0.1615095	-0.8375046	0.1628114	-24.98968	4.858007
12.53316	0.0137886	-0.1615095	0	0	25.27667	-4.913798
12.54972	0.0137886	-0.1615095	0	0	0	0
12.57059	0.0009736839	-0.1517248	-0.6141694	0.4689443	-16.40773	12.52799
12.58716	0.0009736839	-0.1517248	0	0	16.40689	-12.52735
12.6039	0.001052631	-0.1517845	0.004716399	-0.003564409	0.1416035	-0.1070166
12.62029	0.001052631	-0.1517845	0	0	-0.1423453	0.1075772
12.63686	0.001052631	-0.1517845	0	0	0	0
12.65342	0.001236841	-0.1516055	0.01111959	0.01080375	0.3356093	0.3260765
12.66999	0.001236841	-0.1516055	0	0	-0.3356093	-0.3260765
12.68656	0.001236841	-0.1516055	0	0	0	0
12.70347	0.002263154	-0.1507903	0.06068724	0.04820197	1.81271	1.439779
12.71969	0.002263154	-0.1507903	0	0	-1.831597	-1.45478
12.73626	0.002263154	-0.1507903	0	0	0	0
12.75539	0.002894729	-0.1503133	0.0330153	0.02493659	0.9249012	0.6985818
12.77202	0.002894729	-0.1503133	0	0	-0.9232731	-0.6973521
12.78852	0.002894729	-0.1503133	0	0	0	0
12.80509	0.003578932	-0.1495582	0.04130097	0.04558154	1.248874	1.378312
12.82165	0.003578932	-0.1495582	0	0	-1.246538	-1.375733
12.83855	0.003578932	-0.1495582	0	0	0	0
12.85671	-0.003842086	-0.1327295	-0.408585	0.9265481	-11.65327	26.42612
12.87355	-0.003842086	-0.1327295	0	0	11.67423	-26.47364
12.88985	-0.003842086	-0.1327295	0	0	0	0
12.90656	-0.01620911	-0.1104563	-0.7399156	1.3326	-22.41262	40.36551
12.92298	-0.01620911	-0.1104563	0	0	22.33198	-40.22028
12.93962	-0.01620911	-0.1104563	0	0	0	0
12.95611	-0.02315376	-0.105221	-0.4209731	0.3173574	-12.70572	9.578418
12.97268	-0.02315376	-0.105221	0	0	12.73248	-9.598586
12.98925	-0.02315376	-0.105221	0	0	0	0
13.00582	-0.02307485	-0.1052795	0.004761093	-0.003532663	0.1436694	-0.1066007
13.02238	-0.02307485	-0.1052795	0	0	-0.1436942	0.1066191
13.03967	-0.02307485	-0.1052795	0	0	0	0
13.05566	-0.02294334	-0.1054552	0.008227223	-0.01098859	0.2472378	-0.33022
13.07208	-0.02294334	-0.1054552	0	0	-0.2538584	0.3390627
13.0892	-0.02294334	-0.1054552	0	0	0	0
13.10521	-0.02286444	-0.1055528	0.004926657	-0.006092671	0.1486954	-0.1838877
13.12178	-0.02286444	-0.1055528	0	0	-0.1512066	0.1869934
13.13835	-0.02286444	-0.1055528	0	0	0	0
13.15491	-0.02286444	-0.1055918	0	-0.002356658	0	-0.07112612
13.17148	-0.02286444	-0.1055918	0	0	0	0.07112612
13.18806	-0.02286444	-0.1055918	0	0	0	0
13.20461	-0.02275923	-0.1057089	0.006354857	-0.007073553	0.191801	-0.2134925
13.22118	-0.02275923	-0.1057089	0	0	-0.1918562	0.213554
13.23775	-0.02275923	-0.1057089	0	0	0	0
13.25431	-0.02265402	-0.105826	0.00635072	-0.007069523	0.1916762	-0.2133709
13.27088	-0.02265402	-0.105826	0	0	-0.1916762	0.2133709
13.28759	-0.02265402	-0.105826	0	0	0	0
13.30412	-0.02268032	-0.1058846	-0.001591097	-0.003542081	-0.04786099	-0.1065476
13.32058	-0.02268032	-0.1058846	0	0	0.0482332	0.1073762
13.33715	-0.02268032	-0.1058846	0	0	0	0
13.35371	-0.02270662	-0.1059822	-0.001587596	-0.005891644	-0.04791649	-0.1778204
13.37028	-0.02270662	-0.1059822	0	0	0.04791511	0.1778153
13.3872	-0.02270662	-0.1059822	0	0	0	0
13.40668	-0.02273292	-0.1060798	-0.001349649	-0.00500864	-0.03707455	-0.1375862
13.42325	-0.02273292	-0.1060798	0	0	0.03743248	0.1389145
13.43982	-0.02273292	-0.1060798	0	0	0	0
13.45638	-0.02283813	-0.1061579	-0.006350467	-0.004713044	-0.191663	-0.142244
13.47295	-0.02283813	-0.1061579	0	0	0.191663	0.142244
13.48971	-0.02283813	-0.1061579	0	0	0	0
13.50623	-0.02286444	-0.1061774	-0.001592567	-0.001182386	-0.04785716	-0.03553108
13.52274	-0.02286444	-0.1061774	0	0	0.04822617	0.03580505
13.53923	-0.02286444	-0.1061774	0	0	0	0
13.55578	-0.02289074	-0.1061969	-0.001589242	-0.001179551	-0.04808939	-0.03569241
13.57235	-0.02289074	-0.1061969	0	0	0.04799106	0.03561943
13.58892	-0.02289074	-0.1061969	0	0	0	0
13.60548	-0.02289074	-0.1061969	0	0	0	0
13.62205	-0.02289074	-0.1061969	0	0	0	0
13.63882	-0.02289074	-0.1061969	0	0	0	0
13.65533	-0.02289074	-0.1061969	0	0	0	0
13.67179	-0.02289074	-0.1061969	0	0	0	0
13.68832	-0.02289074	-0.1061969	0	0	0	0
13.70488	-0.02286444	-0.1062164	0.001587596	-0.001178329	0.04797587	-0.03560815
13.7218	-0.02286444	-0.1062164	0	0	-0.04741561	0.03519233
13.73802	-0.02286444	-0.1062164	0	0	0	0
13.75458	-0.02286444	-0.1062555	0	-0.002357107	0	-0.07189918
13.77133	-0.02286444	-0.1062555	0	0	0	0.07074871
13.78772	-0.02286444	-0.1062555	0	0	0	0
13.80428	-0.02281183	-0.1062945	0.003175416	-0.002356658	0.09637237	-0.07152344
13.82087	-0.02281183	-0.1062945	0	0	-0.09577912	0.07108315
13.83742	-0.02281183	-0.1062945	0	0	0	0
13.85398	-0.02265402	-0.1063726	0.009526136	-0.004714215	0.2876898	-0.1423695
13.87055	-0.02265402	-0.1063726	0	0	-0.2875159	0.1422835
13.8874	-0.02265402	-0.1063726	0	0	0	0
13.90368	-0.01865573	-0.1093028	0.2455781	-0.1799767	7.411776	-5.431864
13.92025	-0.01865573	-0.1093028	0	0	-7.476333	5.479176
13.93682	-0.01865573	-0.1093028	0	0	0	0
13.95396	-0.01791913	-0.1096156	0.04296473	-0.01824249	1.274485	-0.5411367
13.97053	-0.01791913	-0.1096156	0	0	-1.274449	0.5411214
13.98753	-0.01791913	-0.1096156	0	0	0	0
14.00401	-0.01442005	-0.1094006	0.2122189	0.01304117	6.337292	0.389436
14.02023	-0.01442005	-0.1094006	0	0	-6.489768	-0.3988059
14.03679	-0.01442005	-0.1094006	0	0	0	0
14.05357	0.02173342	-0.1066264	2.155428	0.1653906	64.64902	4.96066
14.07006	0.02173342	-0.1066264	0	0	-64.78987	-4.971467
14.0866	0.02173342	-0.1066264	0	0	0	0
14.10306	0.0520057	-0.1115907	1.838776	-0.3015377	55.72371	-9.138036
14.11963	0.0520057	-0.1115907	0	0	-55.66097	9.127748
14.13662	0.0520057	-0.1115907	0	0	0	0
14.15276	0.07150944	-0.1140961	1.208768	-0.1552725	36.48911	-4.687211
14.16933	0.07150944	-0.1140961	0	0	-36.96263	4.748038
14.18617	0.07150944	-0.1140961	0	0	0	0
14.20246	0.08508357	-0.1225111	0.8331484	-0.5164911	25.14519	-15.58818
14.21933	0.08508357	-0.1225111	0	0	-25.12711	15.57697
14.23584	0.08508357	-0.1225111	0	0	0	0
14.25216	0.08889666	-0.1254994	0.233615	-0.1830836	7.114814	-5.575867
14.26873	0.08889666	-0.1254994	0	0	-7.103261	5.566813
14.28537	0.08889666	-0.1254994	0	0	0	0
14.30186	0.08858336	-0.1256961	-0.01900078	-0.01193157	-0.5734611	-0.3601059
14.31941	0.08858336	-0.1256961	0	0	0.5582762	0.3505705
14.33499	0.08858336	-0.1256961	0	0	0	0
14.35156	0.08850502	-0.1257551	-0.004728879	-0.003562176	-0.1470737	-0.1107879
14.36813	0.08850502	-0.1257551	0	0	0.1427261	0.1075129
14.38494	0.08850502	-0.1257551	0	0	0	0
14.40126	0.0884528	-0.1257945	-0.003200714	-0.002412066	-0.0966033	-0.07280049
14.41783	0.0884528	-0.1257945	0	0	0.09733734	0.07335367
14.43439	0.0884528	-0.1257945	0	0	0	0
14.45099	0.08842669	-0.1258142	-0.001572914	-0.001185072	-0.04742833	-0.03573367
14.46752	0.08842669	-0.1258142	0	0	0.04747338	0.03576761
14.48409	0.08842669	-0.1258142	0	0	0	0
14.50513	0.08840058	-0.1258338	-0.001241232	-0.000935616	-0.03300684	-0.02487991
14.5217	0.08840058	-0.1258338	0	0	0.03300266	0.02487675
14.53826	0.08837447	-0.1258535	-0.001576175	-0.001187529	-0.04756904	-0.03583969
14.55483	0.08837447	-0.1258535	0	0	0.04757452	0.03584382
14.5714	0.08837447	-0.1258535	0	0	0	0
14.58796	0.08837447	-0.1258535	0	0	0	0
14.60453	0.08837447	-0.1258535	0	0	0	0
14.62124	0.08837447	-0.1258535	0	0	0	0
14.63775	0.08834836	-0.1258732	-0.001581999	-0.001191577	-0.04762282	-0.03586997
14.65423	0.08834836	-0.1258732	0	0	0.04795877	0.036123
14.6708	0.08834836	-0.1258732	0	0	0	0
14.68736	0.08834836	-0.1258732	0	0	0	0
14.70429	0.08834836	-0.1258732	0	0	0	0
14.72085	0.08834836	-0.1258732	0	0	0	0
14.73706	0.08832225	-0.1258929	-0.00161001	-0.00121394	-0.0491318	-0.03704515
14.75363	0.08832225	-0.1258929	0	0	0.04911179	0.03703007
14.7702	0.08832225	-0.1258929	0	0	0	0
14.78693	0.08832225	-0.1258929	0	0	0	0
14.80333	0.08832225	-0.1258929	0	0	0	0
14.8199	0.08832225	-0.1258929	0	0	0	0
14.83646	0.08832225	-0.1258929	0	0	0	0
14.85303	0.08832225	-0.1258929	0	0	0	0
14.8696	0.08832225	-0.1258929	0	0	0	0
14.8865	0.08829614	-0.1259125	-0.00154487	-0.001163611	-0.04615531	-0.03476463
14.90273	0.08829614	-0.1259125	0	0	0.0466256	0.03511885
14.9193	0.08829614	-0.1259125	0	0	0	0
14.93586	0.08827003	-0.1258929	-0.001575902	0.001187324	-0.04756356	0.03583556
14.95243	0.08827003	-0.1258929	0	0	0.0475622	-0.03583453
14.969	0.08827003	-0.1258929	0	0	0	0
14.98556	0.08827003	-0.1258929	0	0	0	0
15.00213	0.08827003	-0.1258929	0	0	0	0
15.0187	0.08827003	-0.1258929	0	0	0	0
15.04024	0.0882178	-0.1259322	-0.002424545	-0.001826191	-0.06362162	-0.04792042
15.05681	0.0882178	-0.1259322	0	0	0.06362162	0.04792042
15.07337	0.08777389	-0.1262667	-0.02679464	-0.02019054	-0.808664	-0.6093516
15.08994	0.08777389	-0.1262667	0	0	0.8086872	0.6093692
15.10651	0.08777389	-0.1262667	0	0	0	0
15.12307	0.08461329	-0.1286489	-0.1907854	-0.1437966	-5.758245	-4.34004
15.13965	0.08461329	-0.1286489	0	0	5.756588	4.338791
15.15621	0.08461329	-0.1286489	0	0	0	0
15.17316	0.08427361	-0.1289444	-0.02003442	-0.01742761	-0.5978261	-0.5200392
15.18934	0.08427361	-0.1289444	0	0	0.6046748	0.5259967
15.20621	0.08427361	-0.1289444	0	0	0	0
15.22271	0.08398618	-0.1292005	-0.01741382	-0.01551577	-0.5217658	-0.4648948
15.23904	0.08398618	-0.1292005	0	0	0.5303894	0.4725785
15.2556	0.08398618	-0.1292005	0	0	0	0
15.27217	0.06042635	-0.1472347	-1.422156	-1.088613	-42.92323	-32.8563
15.28875	0.06042635	-0.1472347	0	0	42.91088	32.84684
15.3053	0.06042635	-0.1472347	0	0	0	0
15.32657	-0.01978689	-0.2089377	-3.772073	-2.901619	-99.73032	-76.71629
15.34314	-0.01978689	-0.2089377	0	0	99.70267	76.69501
15.35979	-0.05859076	-0.2392536	-2.330401	-1.820644	-70.15195	-54.80677
15.37627	-0.05859076	-0.2392536	0	0	70.33569	54.95032
15.39284	-0.05859076	-0.2392536	0	0	0	0
15.40963	-0.1074009	-0.278236	-2.90769	-2.322239	-87.17217	-69.62041
15.42619	-0.1074009	-0.278236	0	0	87.17716	69.6244
15.44276	-0.1074009	-0.278236	0	0	0	0
15.45937	-0.1362299	-0.3019229	-1.735924	-1.426298	-52.32704	-42.9938
15.47589	-0.1362299	-0.3019229	0	0	52.39331	43.04825
15.49246	-0.1362299	-0.3019229	0	0	0	0
15.50953	-0.1538534	-0.3166649	-1.032263	-0.8634824	-30.68567	-25.66839
15.5261	-0.1538534	-0.3166649	0	0	30.68567	25.66839
15.54291	-0.1538534	-0.3166649	0	0	0	0
15.55994	-0.1681855	-0.3292041	-0.8417817	-0.7364746	-24.87802	-21.76577
15.57595	-0.1681855	-0.3292041	0	0	25.48056	22.29294
15.59237	-0.1681855	-0.3292041	0	0	0	0
15.60935	-0.1687994	-0.332511	-0.03614943	-0.1947504	-1.082301	-5.830758
15.6255	-0.1687994	-0.332511	0	0	1.091023	5.877749
15.64207	-0.1687994	-0.332511	0	0	0	0
15.65863	-0.1350673	-0.3613262	2.03642	-1.739594	61.46104	-52.50255
15.6752	-0.1350673	-0.3613262	0	0	-61.46458	52.50557
15.69177	-0.1350673	-0.3613262	0	0	0	0
15.70833	-0.1031067	-0.3888528	1.929479	-1.661791	58.23514	-50.15585
15.7249	-0.1031067	-0.3888528	0	0	-58.23346	50.15441
15.74151	-0.1031067	-0.3888528	0	0	0	0
15.75803	-0.09176784	-0.3986418	0.6863932	-0.592572	20.71777	-17.88592
15.7746	-0.09176784	-0.3986418	0	0	-20.74464	17.90911
15.79117	-0.09176784	-0.3986418	0	0	0	0
15.80773	-0.09176784	-0.3986418	0	0	0	0
15.8243	-0.09176784	-0.3986418	0	0	0	0
15.84155	-0.09176784	-0.3986418	0	0	0	0
15.85743	-0.09182003	-0.3985964	-0.003285302	0.002855235	-0.09915917	0.0861786
15.874	-0.09182003	-0.3985964	0	0	0.101225	-0.08797398
15.89057	-0.09182003	-0.3985964	0	0	0	0
15.90805	-0.09187222	-0.3985511	-0.00298628	0.002595356	-0.08771756	0.07623476
15.9237	-0.09187222	-0.3985511	0	0	0.09013388	-0.07833478
15.94058	-0.09187222	-0.3985511	0	0	0	0
15.95683	-0.09187222	-0.3985511	0	0	0	0
15.9734	-0.09187222	-0.3985511	0	0	0	0
15.99011	-0.09187222	-0.3985511	0	0	0	0
16.00653	-0.09189831	-0.3985284	-0.001588445	0.001380704	-0.04794074	0.04167094
16.0231	-0.09189831	-0.3985284	0	0	0.04814444	-0.041848
16.03967	-0.09189831	-0.3985284	0	0	0	0
16.05623	-0.0919766	-0.3984604	-0.004725186	0.004105025	-0.1426064	0.1238899
16.0728	-0.0919766	-0.3984604	0	0	0.1426064	-0.1238899
16.08937	-0.0919766	-0.3984604	0	0	0	0
16.1062	-0.09210707	-0.398347	-0.00775361	0.006739189	-0.2321867	0.2018092
16.12271	-0.09210707	-0.398347	0	0	0.2325852	-0.2021556
16.13917	-0.09210707	-0.398347	0	0	0	0
16.15625	-0.09213316	-0.3983243	-0.001528115	0.001326519	-0.04555999	0.03954951
16.17231	-0.09213316	-0.3983243	0	0	0.04611861	-0.04003443
16.18887	-0.09213316	-0.3983243	0	0	0	0
16.20544	-0.09210707	-0.398347	0.001574912	-0.001367143	0.04753095	-0.04126044
16.22201	-0.09210707	-0.398347	0	0	-0.04753095	0.04126044
16.23857	-0.09210707	-0.398347	0	0	0	0
16.2553	-0.09210707	-0.398347	0	0	0	0
16.27171	-0.09210707	-0.398347	0	0	0	0
16.28834	-0.09210707	-0.398347	0	0	0	0
16.30484	-0.09210707	-0.398347	0	0	0	0
16.32141	-0.09210707	-0.398347	0	0	0	0
16.33838	-0.09210707	-0.398347	0	0	0	0
16.35454	-0.09210707	-0.398347	0	0	0	0
16.37111	-0.09210707	-0.398347	0	0	0	0
16.38767	-0.09210707	-0.398347	0	0	0	0
16.4044	-0.09210707	-0.398347	0	0	0	0
16.42097	-0.09210707	-0.398347	0	0	0	0
16.43754	-0.09210707	-0.398347	0	0	0	0
16.45411	-0.09210707	-0.398347	0	0	0	0
16.47067	-0.09210707	-0.398347	0	0	0	0
16.48724	-0.09210707	-0.398347	0	0	0	0
16.50398	-0.09210707	-0.398347	0	0	0	0
16.52037	-0.09210707	-0.398347	0	0	0	0
16.53701	-0.09210707	-0.398347	0	0	0	0
16.55352	-0.09210707	-0.398347	0	0	0	0
16.57007	-0.09210707	-0.398347	0	0	0	0
16.58664	-0.09210707	-0.398347	0	0	0	0
16.60321	-0.09210707	-0.398347	0	0	0	0
16.61977	-0.09210707	-0.398347	0	0	0	0
16.63634	-0.09210707	-0.398347	0	0	0	0
16.65291	-0.09210707	-0.398347	0	0	0	0
16.66947	-0.09210707	-0.398347	0	0	0	0
16.68611	-0.09210707	-0.398347	0	0	0	0
16.70261	-0.09210707	-0.398347	0	0	0	0
16.71917	-0.09210707	-0.398347	0	0	0	0
16.73574	-0.09210707	-0.398347	0	0	0	0
16.75266	-0.09210707	-0.398347	0	0	0	0
16.76888	-0.09210707	-0.398347	0	0	0	0
16.7857	-0.09210707	-0.398347	0	0	0	0
16.80221	-0.09208097	-0.3983697	0.001580006	-0.001373369	0.04739546	-0.04119697
16.81858	-0.09208097	-0.3983697	0	0	-0.04805534	0.04177054
16.83514	-0.09208097	-0.3983697	0	0	0	0
16.85174	-0.09208097	-0.3983697	0	0	0	0
16.86828	-0.09208097	-0.3983697	0	0	0	0
16.88484	-0.09208097	-0.3983697	0	0	0	0
16.90141	-0.09208097	-0.3983697	0	0	0	0
16.91798	-0.09208097	-0.3983697	0	0	0	0
16.93455	-0.09208097	-0.3983697	0	0	0	0
16.95419	-0.09208097	-0.3983697	0	0	0	0
16.97132	-0.09208097	-0.3983697	0	0	0	0
16.98734	-0.09208097	-0.3983697	0	0	0	0
17.00389	-0.09208097	-0.3983697	0	0	0	0
17.02046	-0.09208097	-0.3983697	0	0	0	0
17.03703	-0.09208097	-0.3983697	0	0	0	0
17.05359	-0.09208097	-0.3983697	0	0	0	0
17.07016	-0.09208097	-0.3983697	0	0	0	0
17.08691	-0.09208097	-0.3983697	0	0	0	0
17.10391	-0.09208097	-0.3983697	0	0	0	0
17.11986	-0.09208097	-0.3983697	0	0	0	0
17.13643	-0.09208097	-0.3983697	0	0	0	0
17.15299	-0.09208097	-0.3983697	0	0	0	0
17.16998	-0.09208097	-0.3983697	0	0	0	0
17.18649	-0.09208097	-0.3983697	0	0	0	0
17.20299	-0.09208097	-0.3983697	0	0	0	0
17.21926	-0.09208097	-0.3983697	0	0	0	0
17.23601	-0.09208097	-0.3983697	0	0	0	0
17.2525	-0.09208097	-0.3983697	0	0	0	0
17.26896	-0.09208097	-0.3983697	0	0	0	0
17.28553	-0.09208097	-0.3983697	0	0	0	0
17.30209	-0.09208097	-0.3983697	0	0	0	0
17.31866	-0.09208097	-0.3983697	0	0	0	0
17.33523	-0.09208097	-0.3983697	0	0	0	0
17.35179	-0.09208097	-0.3983697	0	0	0	0
17.36836	-0.09208097	-0.3983697	0	0	0	0
17.38493	-0.09208097	-0.3983697	0	0	0	0
17.40149	-0.09208097	-0.3983697	0	0	0	0
17.41815	-0.09208097	-0.3983697	0	0	0	0
17.43463	-0.09208097	-0.3983697	0	0	0	0
17.45119	-0.09208097	-0.3983697	0	0	0	0
17.46776	-0.09208097	-0.3983697	0	0	0	0
17.48815	-0.09208097	-0.3983697	0	0	0	0
17.50119	-0.09208097	-0.3983697	0	0	0	0
17.51746	-0.09208097	-0.3983697	0	0	0	0
17.53403	-0.09208097	-0.3983697	0	0	0	0
17.55059	-0.09205488	-0.3983923	0.001575094	-0.001369099	0.04753916	-0.04132187
17.56716	-0.09205488	-0.3983923	0	0	-0.04753916	0.04132187
17.58375	-0.09205488	-0.3983923	0	0	0	0
17.60029	-0.09205488	-0.3983923	0	0	0	0
17.61686	-0.09205488	-0.3983923	0	0	0	0
17.63343	-0.09205488	-0.3983923	0	0	0	0
17.64999	-0.09205488	-0.3983923	0	0	0	0
17.66656	-0.09205488	-0.3983923	0	0	0	0
17.68332	-0.09205488	-0.3983923	0	0	0	0
17.69969	-0.09205488	-0.3983923	0	0	0	0
17.71626	-0.09205488	-0.3983923	0	0	0	0
17.73287	-0.09205488	-0.3983923	0	0	0	0
17.74988	-0.09205488	-0.3983923	0	0	0	0
17.76596	-0.09205488	-0.3983923	0	0	0	0
17.78253	-0.09205488	-0.3983923	0	0	0	0
17.7995	-0.09205488	-0.3983923	0	0	0	0
17.81566	-0.09205488	-0.3983923	0	0	0	0
17.83223	-0.09205488	-0.3983923	0	0	0	0
17.84879	-0.09205488	-0.398347	0	0.002738198	0	0.08264374
17.86536	-0.09205488	-0.398347	0	0	0	-0.08264374
17.88193	-0.09205488	-0.398347	0	0	0	0
17.89849	-0.09218534	-0.3982336	-0.007874561	0.006842908	-0.2376547	0.2065194
17.91506	-0.09218534	-0.3982336	0	0	0.2376547	-0.2065194
17.93163	-0.09218534	-0.3982336	0	0	0	0
17.94819	-0.09255063	-0.3978709	-0.02205131	0.02189659	-0.6655481	0.6608784
17.96476	-0.09255063	-0.3978709	0	0	0.6655481	-0.6608784
17.98133	-0.09255063	-0.3978709	0	0	0	0
17.99789	-0.09578493	-0.3948817	-0.1952455	0.1804494	-5.89286	5.446288
18.01446	-0.09578493	-0.3948817	0	0	5.89286	-5.446288
18.03387	-0.09578493	-0.3948817	0	0	0	0
18.04766	-0.1225667	-0.3712146	-1.9421	1.716232	-58.49148	51.68888
18.06416	-0.1225667	-0.3712146	0	0	64.12366	-56.66604
18.08073	-0.1225667	-0.3712146	0	0	0	0
18.0973	-0.1636803	-0.3353879	-2.481621	2.162503	-74.89547	65.26447
18.11386	-0.1636803	-0.3353879	0	0	74.89547	-65.26447
18.13043	-0.1636803	-0.3353879	0	0	0	0
18.147	-0.2084536	-0.2963458	-2.70252	2.356589	-81.5622	71.12199
18.16356	-0.2084536	-0.2963458	0	0	81.5622	-71.12199
18.18013	-0.2084536	-0.2963458	0	0	0	0
18.1967	-0.2321084	-0.2719716	-1.427969	1.4714	-43.09868	44.4095
18.21328	-0.2321084	-0.2719716	0	0	43.0838	-44.39417
18.22983	-0.2321084	-0.2719716	0	0	0	0
18.2464	-0.1965098	-0.2330099	2.148735	2.351734	64.87137	71.00001
18.26297	-0.1965098	-0.2330099	0	0	-64.84896	-70.97549
18.27953	-0.1965098	-0.2330099	0	0	0	0
18.2961	-0.1381925	-0.1866305	3.520445	2.799787	106.2533	84.50259
18.31267	-0.1381925	-0.1866305	0	0	-106.2533	-84.50259
18.32923	-0.1381925	-0.1866305	0	0	0	0
18.34587	-0.09904329	-0.1565622	2.353836	1.807848	70.90014	54.4544
18.36237	-0.09904329	-0.1565622	0	0	-71.0389	-54.56097
18.37893	-0.09904329	-0.1565622	0	0	0	0
18.3955	-0.07174507	-0.1358686	1.647724	1.249071	49.7284	37.69703
18.41207	-0.07174507	-0.1358686	0	0	-49.7284	-37.69703
18.42864	-0.07174507	-0.1358686	0	0	0	0
18.4452	-0.06289063	-0.1292399	0.5344547	0.4001096	16.12988	12.07533
18.46177	-0.06289063	-0.1292399	0	0	-16.12988	-12.07533
18.47843	-0.06289063	-0.1292399	0	0	0	0
18.4949	-0.0626023	-0.1294566	0.01750642	-0.01315956	0.5284058	-0.3972021
18.51147	-0.0626023	-0.1294566	0	0	-0.5299006	0.3983257
18.52804	-0.0626023	-0.1294566	0	0	0	0
18.5446	-0.06173723	-0.1301069	0.05222186	-0.0392559	1.57615	-1.184814
18.56117	-0.06173723	-0.1301069	0	0	-1.57615	1.184814
18.57774	-0.06173723	-0.1301069	0	0	0	0
18.5943	-0.06084585	-0.1307771	0.05381	-0.04045679	1.624083	-1.221058
18.61087	-0.06084585	-0.1307771	0	0	-1.624176	1.221129
18.62743	-0.06084585	-0.1307771	0	0	0	0
18.644	-0.04604638	-0.1418816	0.8932981	-0.6702695	26.95979	-20.22877
18.66103	-0.04604638	-0.1418816	0	0	-26.5909	19.95198
18.67713	-0.04604638	-0.1418816	0	0	0	0
18.6937	-0.02599414	-0.1570007	1.210355	-0.9125901	37.04464	-27.93112
18.71027	-0.02599414	-0.1570007	0	0	-36.52859	27.54202
18.72709	-0.02599414	-0.1570007	0	0	0	0
18.7434	-0.02057604	-0.1611101	0.3321615	-0.2519358	10.02523	-7.603875
18.76013	-0.02057604	-0.1611101	0	0	-10.05417	7.625824
18.77662	-0.02057604	-0.1611101	0	0	0	0
18.7931	-0.01839266	-0.1628079	0.13246	-0.1030008	4.017308	-3.123855
18.80967	-0.01839266	-0.1628079	0	0	-4.007803	3.116463
18.82623	-0.01839266	-0.1628079	0	0	0	0
18.8428	-0.0185505	-0.1630877	-0.009527274	-0.01688691	-0.2875503	-0.5096772
18.85937	-0.0185505	-0.1630877	0	0	0.2875337	0.5096479
18.87593	-0.0185505	-0.1630877	0	0	0	0
18.8925	-0.01860312	-0.1630877	-0.003176049	0	-0.09585886	0
18.90907	-0.01860312	-0.1630877	0	0	0.09585886	0
18.92563	-0.01860312	-0.1630877	0	0	0	0
18.9422	-0.01860312	-0.1630877	0	0	0	0
18.95877	-0.01860312	-0.1630877	0	0	0	0
18.97533	-0.01860312	-0.1630877	0	0	0	0
18.9919	-0.01862942	-0.1631077	-0.001588137	-0.001206282	-0.04793283	-0.03640777
19.00846	-0.01862942	-0.1631077	0	0	0.04793283	0.03640777
19.02503	-0.01862942	-0.1631077	0	0	0	0
19.04209	-0.01960275	-0.1638472	-0.05706818	-0.04335929	-1.697309	-1.289582
19.05859	-0.01960275	-0.1638472	0	0	1.700782	1.292221
19.07473	-0.01960275	-0.1638472	0	0	0	0
19.0913	-0.02052343	-0.164587	-0.05557254	-0.0446525	-1.698794	-1.36498
19.10787	-0.02052343	-0.164587	0	0	1.677183	1.347615
19.12465	-0.02052343	-0.164587	0	0	0	0
19.14115	-0.02381129	-0.1672081	-0.1992581	-0.158849	-5.987085	-4.772918
19.15757	-0.02381129	-0.1672081	0	0	6.052645	4.825182
19.17414	-0.02381129	-0.1672081	0	0	0	0
19.1907	-0.02383759	-0.167188	-0.00158787	0.001208221	-0.04792753	0.03646837
19.20727	-0.02383759	-0.167188	0	0	0.04792753	-0.03646837
19.22383	-0.02383759	-0.167188	0	0	0	0
19.24061	-0.02391649	-0.1673682	-0.004702531	-0.01073875	-0.1410216	-0.3220383
19.25712	-0.02391649	-0.1673682	0	0	0.1412883	0.3226473
19.27362	-0.02391649	-0.1673682	0	0	0	0
19.29183	-0.04439187	-0.184027	-1.124319	-0.9147465	-32.38651	-26.34969
19.30866	-0.04439187	-0.184027	0	0	32.08681	26.10585
19.32515	-0.04439187	-0.184027	0	0	0	0
19.34153	-0.07271368	-0.2240501	-1.728814	-2.44308	-52.59046	-74.31841
19.3581	-0.07271368	-0.2240501	0	0	52.46869	74.14632
19.37471	-0.07271368	-0.2240501	0	0	0	0
19.39123	-0.05664985	-0.2479694	0.9719647	-1.447271	29.33564	-43.68123
19.40821	-0.05664985	-0.2479694	0	0	-29.00669	43.19141
19.42437	-0.05664985	-0.2479694	0	0	0	0
19.44094	-0.04930212	-0.2537596	0.4435098	-0.3494992	13.55447	-10.68133
19.4575	-0.04930212	-0.2537596	0	0	-13.38515	10.54791
19.47407	-0.04930212	-0.2537596	0	0	0	0
19.49067	-0.0490396	-0.2539682	0.01581849	-0.01257039	0.4769912	-0.379048
19.5072	-0.0490396	-0.2539682	0	0	-0.4774031	0.3793752
19.52377	-0.0490396	-0.2539682	0	0	0	0
19.54034	-0.04901335	-0.2539474	0.001584764	0.001259355	0.04783101	0.0380096
19.5569	-0.04901335	-0.2539474	0	0	-0.04783101	-0.0380096
19.57347	-0.04901335	-0.2539474	0	0	0	0
19.59004	-0.04896084	-0.2539891	0.003169752	-0.00251871	0.09566882	-0.07601921
19.6066	-0.04896084	-0.2539891	0	0	-0.09566882	0.07601921
19.62326	-0.04896084	-0.2539891	0	0	0	0
19.64029	-0.04888208	-0.2540517	0.004625926	-0.003676059	0.1373417	-0.1091406
19.65632	-0.04888208	-0.2540517	0	0	-0.1399249	0.1111933
19.67287	-0.04888208	-0.2540517	0	0	0	0
19.69643	-0.04885583	-0.2540725	0.001114197	-0.0008854124	0.02777746	-0.02207376
19.70601	-0.04885583	-0.2540725	0	0	-0.03362265	0.02671872
19.72351	-0.04882957	-0.2540517	0.001500504	0.001192228	0.05542066	0.04403458
19.73914	-0.04882957	-0.2540517	0	0	-0.04529313	-0.03598773
19.7557	-0.04882957	-0.2540517	0	0	0	0
19.7724	-0.04882957	-0.2539682	0	0.004997715	0	0.1502432
19.78897	-0.04882957	-0.2539682	0	0	0	-0.1502346
19.80554	-0.04882957	-0.2539682	0	0	0	0
19.8221	-0.04875081	-0.2538639	0.004756159	0.006298952	0.1435494	0.1901137
19.83867	-0.04875081	-0.2538639	0	0	-0.1435742	-0.1901465
19.85562	-0.04875081	-0.2538639	0	0	0	0
19.8718	-0.04840952	-0.2533008	0.02108372	0.0347885	0.6363444	1.049979
19.88837	-0.04840952	-0.2533008	0	0	-0.6436813	-1.062085
19.90514	-0.04840952	-0.2533008	0	0	0	0
19.92164	-0.04827825	-0.2531131	0.007955638	0.01137332	0.2391243	0.3418505
19.93807	-0.04827825	-0.2531131	0	0	-0.2415897	-0.3453749
19.95468	-0.04827825	-0.2531131	0	0	0	0
19.9712	-0.04809446	-0.2529671	0.01112264	0.008834266	0.3356821	0.2666187
19.98777	-0.04809446	-0.2529671	0	0	-0.3361271	-0.2669722
20.00457	-0.04809446	-0.2529671	0	0	0	0
20.0209	-0.04806821	-0.252988	0.001607383	-0.001277148	0.0485137	-0.03854664
20.0376	-0.04806821	-0.252988	0	0	-0.0486706	0.0386713
20.05462	-0.04806821	-0.252988	0	0	0	0
20.07064	-0.04804195	-0.2530088	0.001638765	-0.001300223	0.04959506	-0.03934954
20.08717	-0.04804195	-0.2530088	0	0	-0.05033892	0.03993974
20.10415	-0.04804195	-0.2530088	0	0	0	0
20.1203	-0.04804195	-0.2530088	0	0	0	0
20.13687	-0.04804195	-0.2530088	0	0	0	0
20.15344	-0.04804195	-0.2530088	0	0	0	0
20.17	-0.04749058	-0.2522375	0.03328453	0.04656196	1.004587	1.405324
20.18671	-0.04749058	-0.2522375	0	0	-1.000498	-1.399603
20.20372	-0.04749058	-0.2522375	0	0	0	0
20.2197	-0.01613018	-0.21816	1.962039	2.132031	59.46088	64.61263
20.23628	-0.01613018	-0.21816	0	0	-60.25499	-65.47554
20.25284	-0.01613018	-0.21816	0	0	0	0
20.26976	0.02951774	-0.165067	2.698157	3.138226	80.60464	93.75124
20.28597	0.02951774	-0.165067	0	0	-81.43523	-94.71729
20.30254	0.02951774	-0.165067	0	0	0	0
20.31911	0.06503972	-0.1370937	2.144111	1.68847	64.70939	50.95814
20.33595	0.06503972	-0.1370937	0	0	-64.17741	-50.53921
20.35224	0.06503972	-0.1370937	0	0	0	0
20.3688	0.0914025	-0.1174862	1.591444	1.183648	48.43695	36.02534
20.38537	0.0914025	-0.1174862	0	0	-48.03264	-35.72463
20.40194	0.0914025	-0.1174862	0	0	0	0
20.41851	0.1163666	-0.09921729	1.506144	1.102204	45.44244	33.25501
20.43507	0.1163666	-0.09921729	0	0	-45.45813	-33.26649
20.45164	0.1163666	-0.09921729	0	0	0	0
20.46821	0.1448469	-0.07875517	1.71907	1.235096	51.88164	37.27527
20.48477	0.1448469	-0.07875517	0	0	-51.88164	-37.27527
20.50134	0.1448469	-0.07875517	0	0	0	0
20.51791	0.1628605	-0.06547412	1.087304	0.8016461	32.81489	24.19373
20.53448	0.1628605	-0.06547412	0	0	-32.81489	-24.19373
20.55104	0.1628605	-0.06547412	0	0	0	0
20.56761	0.1646024	-0.06416676	0.1051553	0.07892109	3.173775	2.38198
20.58418	0.1646024	-0.06416676	0	0	-3.173775	-2.38198
20.60074	0.1646024	-0.06416676	0	0	0	0
20.61731	0.1641926	-0.06451277	-0.02473733	-0.02088731	-0.7466172	-0.6304165
20.63387	0.1641926	-0.06451277	0	0	0.7466172	0.6304165
20.65044	0.1641926	-0.06451277	0	0	0	0
20.66701	0.1639365	-0.06470501	-0.0154604	-0.01160362	-0.4666228	-0.3502181
20.68369	0.1639365	-0.06470501	0	0	0.4649899	0.3489926
20.70014	0.1639365	-0.06470501	0	0	0	0
20.71671	0.1632448	-0.06522413	-0.04175482	-0.03133816	-1.264604	-0.9491202
20.73327	0.1632448	-0.06522413	0	0	1.260236	0.9458418
20.74984	0.1632448	-0.06522413	0	0	0	0
20.76641	0.1606304	-0.06718612	-0.1578069	-0.1184256	-4.762622	-3.574091
20.78298	0.1606304	-0.06718612	0	0	4.762622	3.574091
20.79954	0.1606304	-0.06718612	0	0	0	0
20.81611	0.1605791	-0.06714763	-0.003095858	0.002322793	-0.09343319	0.07010204
20.83279	0.1605791	-0.06714763	0	0	0.09312762	-0.06987277
20.84924	0.1605791	-0.06714763	0	0	0	0
20.86581	0.1604765	-0.06722461	-0.006191717	-0.004646036	-0.1874924	-0.1406873
20.88284	0.1604765	-0.06722461	0	0	0.1842676	0.1382676
20.89894	0.1604765	-0.06722461	0	0	0	0
20.91551	0.1602201	-0.06741703	-0.01548107	-0.0116162	-0.4739309	-0.3556134
20.93208	0.1602201	-0.06741703	0	0	0.4672466	0.3505979
20.94864	0.1602201	-0.06741703	0	0	0	0
20.96539	0.1588092	-0.06843712	-0.08422768	-0.0608996	-2.528026	-1.827853
20.98189	0.1588092	-0.06843712	0	0	2.533392	1.831733
20.99843	0.1588092	-0.06843712	0	0	0	0
21.01491	0.1316292	-0.08874368	-1.64875	-1.231804	-49.93184	-37.30477
21.03148	0.1316292	-0.08874368	0	0	49.88285	37.26817
21.04804	0.1316292	-0.08874368	0	0	0	0
21.06461	0.1017526	-0.111043	-1.803354	-1.345991	-54.42847	-40.62444
21.14275	0.1017526	-0.111043	0	0	19.0413	14.21209
21.15932	0.1017526	-0.111043	0	0	0	0
21.17589	0.09030634	-0.1196048	-0.6908994	-0.5167907	-20.85139	-15.59677
21.19245	0.09030634	-0.1196048	0	0	20.85139	15.59677
21.20902	0.09030634	-0.1196048	0	0	0	0
21.22559	0.08952323	-0.1202329	-0.0472685	-0.03791167	-1.426566	-1.144176
21.24216	0.08952323	-0.1202329	0	0	1.426566	1.144176
21.25872	0.08952323	-0.1202329	0	0	0	0
21.27536	0.08952323	-0.1202329	0	0	0	0
21.29185	0.08952323	-0.1202329	0	0	0	0
21.30842	0.08952323	-0.1202329	0	0	0	0
21.32499	0.08952323	-0.1202329	0	0	0	0
21.34156	0.08952323	-0.1202329	0	0	0	0
21.35812	0.08952323	-0.1202329	0	0	0	0
21.37494	0.08952323	-0.1202329	0	0	0	0
21.39533	0.08952323	-0.1202329	0	0	0	0
21.40783	0.08952323	-0.1202329	0	0	0	0
21.42439	0.08949713	-0.1202133	-0.001575993	0.001184693	-0.05422459	0.04076129
21.44105	0.08949713	-0.1202133	0	0	0.04743251	-0.0356556
21.45752	0.08949713	-0.1202133	0	0	0	0
21.47409	0.08952323	-0.1202329	0.001575812	-0.001184557	0.04769536	-0.0358532
21.49066	0.08952323	-0.1202329	0	0	-0.04755809	0.03575001
21.50723	0.08952323	-0.1202329	0	0	0	0
21.52379	0.08952323	-0.1202329	0	0	0	0
21.54036	0.08952323	-0.1202329	0	0	0	0
21.55693	0.08952323	-0.1202329	0	0	0	0
21.57392	0.08952323	-0.1202329	0	0	0	0
21.59048	0.08952323	-0.1202329	0	0	0	0
21.60705	0.08952323	-0.1202329	0	0	0	0
21.62362	0.08952323	-0.1202329	0	0	0	0
21.64019	0.08952323	-0.1202329	0	0	0	0
21.65675	0.08952323	-0.1202329	0	0	0	0
21.67332	0.08952323	-0.1202329	0	0	0	0
21.68989	0.08952323	-0.1202329	0	0	0	0
21.70645	0.08952323	-0.1202329	0	0	0	0
21.72324	0.08952323	-0.1202329	0	0	0	0
21.73959	0.08952323	-0.1202329	0	0	0	0
21.75629	0.08952323	-0.1202329	0	0	0	0
21.77279	0.08949713	-0.1202525	-0.001581639	-0.001189389	-0.04762702	-0.03581541
21.7893	0.08949713	-0.1202525	0	0	0.04791322	0.03603063
21.80585	0.08949713	-0.1202525	0	0	0	0
21.82241	0.08949713	-0.1202525	0	0	0	0
21.83898	0.08949713	-0.1202525	0	0	0	0
21.85584	0.08949713	-0.1202525	0	0	0	0
21.87211	0.08947102	-0.1202722	-0.001604631	-0.001206679	-0.04843064	-0.03641973
21.88868	0.08947102	-0.1202722	0	0	0.04886384	0.03674549
21.90525	0.08947102	-0.1202722	0	0	0	0
21.92181	0.08947102	-0.1202722	0	0	0	0
21.93839	0.08947102	-0.1202722	0	0	0	0
21.95495	0.08947102	-0.1202722	0	0	0	0
21.97152	0.08947102	-0.1202722	0	0	0	0
21.98808	0.08947102	-0.1202722	0	0	0	0
22.00496	0.08947102	-0.1202722	0	0	0	0
22.02122	0.08947102	-0.1203114	0	-0.002415339	0	-0.07289929
22.03778	0.08947102	-0.1203114	0	0	0	0.07358554
22.05449	0.08947102	-0.1203114	0	0	0	0
22.07092	0.08947102	-0.1203114	0	0	0	0
22.08748	0.08947102	-0.1203114	0	0	0	0
22.10406	0.08947102	-0.1203114	0	0	0	0
22.12062	0.08944491	-0.1203311	-0.001576719	-0.001185239	-0.04758822	-0.03577265
22.13718	0.08944491	-0.1203311	0	0	0.04759918	0.03578089
22.15375	0.08944491	-0.1203311	0	0	0	0
22.17031	0.08944491	-0.1203311	0	0	0	0
22.18709	0.08944491	-0.1203311	0	0	0	0
22.2036	0.08944491	-0.1203311	0	0	0	0
22.22631	0.08944491	-0.1203311	0	0	0	0
22.23663	0.08944491	-0.1203311	0	0	0	0
22.25315	0.08944491	-0.1203311	0	0	0	0
22.26972	0.08944491	-0.1203311	0	0	0	0
22.28666	0.08944491	-0.1203311	0	0	0	0
22.30285	0.08941881	-0.1203507	-0.001612761	-0.001212792	-0.04867602	-0.03660425
22.31942	0.08941881	-0.1203507	0	0	0.04923724	0.03702629
22.3362	0.08941881	-0.1203507	0	0	0	0
22.35255	0.08941881	-0.1203507	0	0	0	0
22.36912	0.08941881	-0.1203507	0	0	0	0
22.38568	0.08941881	-0.1203507	0	0	0	0
22.40225	0.08941881	-0.1203507	0	0	0	0
22.41882	0.08941881	-0.1203507	0	0	0	0
22.43538	0.08941881	-0.1203507	0	0	0	0
22.45195	0.08941881	-0.1203507	0	0	0	0
22.46852	0.08941881	-0.1203507	0	0	0	0
22.4853	0.08941881	-0.1203507	0	0	0	0
22.50182	0.08941881	-0.1203507	0	0	0	0
22.51822	0.08941881	-0.1203507	0	0	0	0
22.53479	0.08941881	-0.1203507	0	0	0	0
22.55135	0.08941881	-0.12039	0	-0.002370287	0	-0.07153951
22.56792	0.08941881	-0.12039	0	0	0	0.07153951
22.58449	0.08941881	-0.12039	0	0	0	0
22.60106	0.08941881	-0.12039	0	0	0	0
22.61762	0.08941881	-0.12039	0	0	0	0
22.63419	0.08941881	-0.12039	0	0	0	0
22.65247	0.08941881	-0.12039	0	0	0	0
22.66904	0.08941881	-0.12039	0	0	0	0
22.68561	0.08941881	-0.12039	0	0	0	0
22.70217	0.08941881	-0.12039	0	0	0	0
22.71874	0.08941881	-0.12039	0	0	0	0
22.73539	0.08941881	-0.12039	0	0	0	0
22.75191	0.08941881	-0.12039	0	0	0	0
22.76845	0.08941881	-0.12039	0	0	0	0
22.78501	0.08941881	-0.12039	0	0	0	0
22.80157	0.0893927	-0.1204096	-0.001575993	-0.001185143	-0.04758	-0.03578005
22.81865	0.0893927	-0.1204096	0	0	0.04684626	0.03522828
22.83471	0.0893927	-0.1204096	0	0	0	0
22.85127	0.0893927	-0.1204096	0	0	0	0
22.86784	0.0893927	-0.1204096	0	0	0	0
22.8847	0.0893927	-0.1204096	0	0	0	0
22.90098	0.08941881	-0.1204292	0.001604067	-0.001206254	0.04841083	-0.03640483
22.91772	0.08941881	-0.1204292	0	0	-0.04857861	0.036531
22.93423	0.08941881	-0.1204292	0	0	0	0
22.95075	0.08941881	-0.1204292	0	0	0	0
22.96724	0.08941881	-0.1204292	0	0	0	0
22.98381	0.08941881	-0.1204292	0	0	0	0
23.00038	0.08941881	-0.1204685	0	-0.002370014	0	-0.07152715
23.01694	0.08941881	-0.1204685	0	0	0	0.07152715
23.03351	0.08941881	-0.1204685	0	0	0	0
23.05008	0.08941881	-0.1204685	0	0	0	0
23.0668	0.08941881	-0.1204685	0	0	0	0
23.08321	0.08941881	-0.1204685	0	0	0	0
23.09978	0.0893927	-0.1204881	-0.001576175	-0.00118528	-0.04779464	-0.03594146
23.11634	0.0893927	-0.1204881	0	0	0.04757452	0.03577593
23.13309	0.0893927	-0.1204881	0	0	0	0
23.1496	0.0893927	-0.1204881	0	0	0	0
23.1661	0.0893927	-0.1204881	0	0	0	0
23.18315	0.0893927	-0.1204881	0	0	0	0
23.19917	0.0893927	-0.1204881	0	0	0	0
23.21574	0.0893927	-0.1204881	0	0	0	0
23.23267	0.0893927	-0.1204881	0	0	0	0
23.24887	0.0893927	-0.1204881	0	0	0	0
23.26544	0.0893927	-0.1204881	0	0	0	0
23.28201	0.0893927	-0.1204881	0	0	0	0
23.29857	0.0893927	-0.1204881	0	0	0	0
23.31514	0.0893927	-0.1204881	0	0	0	0
23.33174	0.0893927	-0.1204881	0	0	0	0
23.34827	0.0893927	-0.1204881	0	0	0	0
23.36484	0.0893927	-0.1204881	0	0	0	0
23.38141	0.0893927	-0.1204881	0	0	0	0
23.39826	0.0893927	-0.1204881	0	0	0	0
23.41454	0.0893927	-0.1204881	0	0	0	0
23.43111	0.0893927	-0.1204881	0	0	0	0
23.44767	0.0893927	-0.1204881	0	0	0	0
23.46424	0.0893927	-0.1204881	0	0	0	0
23.48081	0.0893927	-0.1204881	0	0	0	0
23.49738	0.0893927	-0.1204881	0	0	0	0
23.51394	0.0893927	-0.1204881	0	0	0	0
23.53051	0.0893927	-0.1204881	0	0	0	0
23.54736	0.0893927	-0.1204881	0	0	0	0
23.56364	0.0893927	-0.1204881	0	0	0	0
23.58021	0.0893927	-0.1204881	0	0	0	0
23.59678	0.0893927	-0.1204881	0	0	0	0
23.61334	0.0893927	-0.1204881	0	0	0	0
23.62991	0.0893927	-0.1204881	0	0	0	0
23.64665	0.0893927	-0.1204881	0	0	0	0
23.66304	0.0893927	-0.1204881	0	0	0	0
23.67967	0.0893927	-0.1204881	0	0	0	0
23.69618	0.0893927	-0.1204881	0	0	0	0
23.71274	0.0893927	-0.1204881	0	0	0	0
23.72931	0.0893927	-0.1204881	0	0	0	0
23.74588	0.0893927	-0.1204881	0	0	0	0
23.76244	0.0893927	-0.1204881	0	0	0	0
23.77901	0.0893927	-0.1204881	0	0	0	0
23.79558	0.0893927	-0.1204881	0	0	0	0
23.81214	0.0893927	-0.1204881	0	0	0	0
23.82871	0.0893927	-0.1204881	0	0	0	0
23.84528	0.0893927	-0.1204881	0	0	0	0
23.86185	0.0893927	-0.1204881	0	0	0	0
23.87841	0.0893927	-0.1204881	0	0	0	0
23.9	0.0893927	-0.1204881	0	0	0	0
23.91657	0.0893927	-0.1204881	0	0	0	0
23.93314	0.0893927	-0.1204881	0	0	0	0
23.9497	0.0893927	-0.1204881	0	0	0	0
23.96638	0.0893927	-0.1204881	0	0	0	0
23.98284	0.0893927	-0.1204881	0	0	0	0
23.9994	0.0893927	-0.1204881	0	0	0	0
24.01597	0.0893927	-0.1204881	0	0	0	0
24.03254	0.0893927	-0.1204881	0	0	0	0
24.0491	0.0893927	-0.1204881	0	0	0	0
24.06567	0.0893927	-0.1204881	0	0	0	0
24.08245	0.0893927	-0.1204881	0	0	0	0
24.0988	0.0893927	-0.1204881	0	0	0	0
24.11537	0.0893927	-0.1204881	0	0	0	0
24.13194	0.0893927	-0.1204881	0	0	0	0
24.1485	0.0893927	-0.1204881	0	0	0	0
24.16507	0.0893927	-0.1204881	0	0	0	0
24.18164	0.08936659	-0.1205078	-0.001575812	-0.001185007	-0.04755809	-0.03576358
24.2006	0.08936659	-0.1205078	0	0	0.04435861	0.03335758
24.21733	0.08936659	-0.1205078	0	0	0	0
24.23383	0.08936659	-0.1205078	0	0	0	0
24.2503	0.08936659	-0.1205078	0	0	0	0
24.26686	0.08936659	-0.1205078	0	0	0	0
24.28343	0.08936659	-0.1205078	0	0	0	0
24.3	0.08936659	-0.1205078	0	0	0	0
24.31656	0.08936659	-0.1205078	0	0	0	0
24.33313	0.0893927	-0.1204881	0.001575993	0.001185143	0.04756631	0.03576975
24.3497	0.0893927	-0.1204881	0	0	-0.04756631	-0.03576975
24.36641	0.0893927	-0.1204881	0	0	0	0
24.38293	0.08936659	-0.1204685	-0.00158036	0.001188427	-0.04755303	0.03575977
24.39939	0.08936659	-0.1204685	0	0	0.04791325	-0.03603066
24.41597	0.08936659	-0.1204685	0	0	0	0
24.43253	0.08936659	-0.1204685	0	0	0	0
24.44909	0.08936659	-0.1204685	0	0	0	0
24.46566	0.08936659	-0.1204685	0	0	0	0
24.49344	0.08936659	-0.1204685	0	0	0	0
24.51001	0.08936659	-0.1204685	0	0	0	0
24.52657	0.08936659	-0.1204685	0	0	0	0
24.54314	0.08936659	-0.1204685	0	0	0	0
24.55971	0.08936659	-0.1204685	0	0	0	0
24.57655	0.08936659	-0.1204685	0	0	0	0
24.59284	0.08936659	-0.1204685	0	0	0	0
24.60941	0.08936659	-0.1204685	0	0	0	0
24.62597	0.08936659	-0.1204685	0	0	0	0
24.64262	0.08936659	-0.1204685	0	0	0	0
24.65911	0.08936659	-0.1204685	0	0	0	0
24.67567	0.08941881	-0.1203507	0.003151623	0.007110041	0.0953522	0.2151139
24.69224	0.08941881	-0.1203507	0	0	-0.09511618	-0.2145814
24.70881	0.08941881	-0.1203507	0	0	0	0
24.72566	0.09007142	-0.11986	0.03872298	0.02911783	1.158657	0.871255
24.74194	0.09007142	-0.11986	0	0	-1.168729	-0.8788285
24.75851	0.09007142	-0.11986	0	0	0	0
24.77687	0.0954981	-0.1158592	0.2955687	0.2179075	8.462382	6.238877
24.79343	0.0954981	-0.1158592	0	0	-8.462382	-6.238877
24.81004	0.0954981	-0.1158592	0	0	0	0
24.82657	0.1085714	-0.106236	0.790743	0.5820633	23.86467	17.5667
24.84314	0.1085714	-0.106236	0	0	-23.88942	-17.58492
24.8597	0.1085714	-0.106236	0	0	0	0
24.87627	0.1079212	-0.106646	-0.0392514	-0.02475128	-1.184678	-0.7470381
24.89284	0.1079212	-0.106646	0	0	1.184678	0.7470381
24.9094	0.1079212	-0.106646	0	0	0	0
24.92597	0.1070107	-0.1072513	-0.05496186	-0.03654424	-1.658848	-1.102971
24.94254	0.1070107	-0.1072513	0	0	1.658848	1.102971
24.9591	0.1070107	-0.1072513	0	0	0	0
24.97567	0.1064904	-0.107642	-0.03140785	-0.02357916	-0.9478908	-0.7116205
24.99224	0.1064904	-0.107642	0	0	0.9478908	0.7116205
25.0088	0.1064904	-0.107642	0	0	0	0
25.02568	0.1064123	-0.1077396	-0.004624986	-0.005787413	-0.1382927	-0.1730507
25.04194	0.1064123	-0.1077396	0	0	0.1395824	0.1746645
25.05884	0.1064123	-0.1077396	0	0	0	0
25.07507	0.1066725	-0.1077787	0.01603316	-0.002407201	0.4839097	-0.07265367
25.09164	0.1066725	-0.1077787	0	0	-0.4888912	0.07340158
25.10821	0.1066725	-0.1077787	0	0	0	0
25.12477	0.1111453	-0.1107497	0.2699805	-0.1793264	8.148028	-5.412081
25.14134	0.1111453	-0.1107497	0	0	-8.148028	5.412081
25.15791	0.1111453	-0.1107497	0	0	0	0
25.17447	0.1264791	-0.1223342	0.9256567	-0.6993276	27.93798	-21.10696
25.19118	0.1264791	-0.1223342	0	0	-27.82426	21.02105
25.20761	0.1264791	-0.1223342	0	0	0	0
25.22422	0.1350673	-0.1288656	0.5168392	-0.3930543	15.63875	-11.89321
25.24074	0.1350673	-0.1288656	0	0	-15.59914	11.86309
25.25731	0.1350673	-0.1288656	0	0	0	0
25.27387	0.1356357	-0.129299	0.03431293	-0.026164	1.035626	-0.7896767
25.29044	0.1356357	-0.129299	0	0	-1.035626	0.7896767
25.30701	0.1356357	-0.129299	0	0	0	0
25.32574	0.1355582	-0.1292793	-0.004136919	0.00105153	-0.1171891	0.02978736
25.34231	0.1355582	-0.1292793	0	0	0.1171891	-0.02978736
25.35888	0.1355582	-0.1292793	0	0	0	0
25.37544	0.1351965	-0.1289641	-0.02183291	0.01902667	-0.6589184	0.574226
25.39202	0.1351965	-0.1289641	0	0	0.6588047	-0.5741268
25.40858	0.1351965	-0.1289641	0	0	0	0
25.42514	0.1362557	-0.1270539	0.06394016	0.1153075	1.930162	3.480788
25.44171	0.1362557	-0.1270539	0	0	-1.929829	-3.480186
25.45828	0.1362557	-0.1270539	0	0	0	0
25.47484	0.1571667	-0.1109648	1.262188	0.9711434	38.09291	29.30917
25.49141	0.1571667	-0.1109648	0	0	-38.09291	-29.30917
25.50798	0.1571667	-0.1109648	0	0	0	0
25.52459	0.1945346	-0.08266103	2.249834	1.704103	67.81425	51.36487
25.54111	0.1945346	-0.08266103	0	0	-67.90012	-51.42992
25.55768	0.1945346	-0.08266103	0	0	0	0
25.57425	0.2116252	-0.06974645	1.031592	0.7795253	31.13529	23.52748
25.59081	0.2116252	-0.06974645	0	0	-31.1335	-23.52612
25.60738	0.2116252	-0.06974645	0	0	0	0
25.62395	0.2131089	-0.06834087	0.08955413	0.08484109	2.702749	2.560509
25.64051	0.2131089	-0.06834087	0	0	-2.702749	-2.560509
25.65725	0.2131089	-0.06834087	0	0	0	0
25.67365	0.2132849	-0.06801364	0.01072799	0.01995145	0.3237901	0.6021705
25.69028	0.2132849	-0.06801364	0	0	-0.3247997	-0.6040483
25.70678	0.2132849	-0.06801364	0	0	0	0
25.72335	0.2209888	-0.062034	0.4650646	0.3609735	14.06239	10.91494
25.73992	0.2209888	-0.062034	0	0	-14.03568	-10.8942
25.75648	0.2209888	-0.062034	0	0	0	0
25.77305	0.2342507	-0.05189146	0.8004889	0.6122044	24.16019	18.47743
25.78962	0.2342507	-0.05189146	0	0	-24.1588	-18.47636
25.80636	0.2342507	-0.05189146	0	0	0	0
25.82275	0.2363162	-0.05030332	0.12601	0.09688696	3.803207	2.924222
25.83932	0.2363162	-0.05030332	0	0	-3.823236	-2.939622
25.85588	0.2363162	-0.05030332	0	0	0	0
25.87245	0.238653	-0.0484675	0.141064	0.110823	4.257564	3.344838
25.88902	0.238653	-0.0484675	0	0	-4.257319	-3.344646
25.90558	0.238653	-0.0484675	0	0	0	0
25.92215	0.2371369	-0.04730158	-0.0915131	0.07037479	-2.761871	2.123915
25.93872	0.2371369	-0.04730158	0	0	2.761712	-2.123793
25.95529	0.2371369	-0.04730158	0	0	0	0
25.97185	0.203461	-0.02168918	-2.033147	1.546324	-61.36757	46.67351
25.98851	0.203461	-0.02168918	0	0	61.20197	-46.54756
26.00502	0.203461	-0.02168918	0	0	0	0
26.02155	0.169413	0.0036036	-2.059168	1.529669	-62.31441	46.29075
26.03812	0.169413	0.0036036	0	0	62.20311	-46.20807
26.05469	0.169413	0.0036036	0	0	0	0
26.07155	0.1617584	0.009258528	-0.4539327	0.3353479	-13.58011	10.03246
26.08782	0.1617584	0.009258528	0	0	13.69972	-10.12082
26.10457	0.1617584	0.009258528	0	0	0	0
26.1211	0.1652426	0.01181051	0.210787	0.1543932	6.333853	4.6393
26.13752	0.1652426	0.01181051	0	0	-6.396913	-4.68549
26.15761	0.1652426	0.01181051	0	0	0	0
26.17065	0.1958009	0.0340988	2.343679	1.709404	70.7446	51.59882
26.18724	0.1958009	0.0340988	0	0	-79.10661	-57.6978
26.20378	0.1958009	0.0340988	0	0	0	0
26.22164	0.2289657	0.05834637	1.857483	1.35805	53.99512	39.47713
26.23826	0.2289657	0.05834637	0	0	-53.87862	-39.39195
26.25478	0.2289657	0.05834637	0	0	0	0
26.27134	0.2466374	0.07145737	1.066789	0.7914726	32.24773	23.92525
26.28791	0.2466374	0.07145737	0	0	-32.19576	-23.88669
26.30449	0.2466374	0.07145737	0	0	0	0
26.32182	0.2539243	0.0769003	0.420428	0.3140377	12.39947	9.261752
26.33839	0.2539243	0.0769003	0	0	-12.40156	-9.263315
26.35496	0.2539243	0.0769003	0	0	0	0
26.37152	0.2538997	0.07691874	-0.00148801	0.001113308	-0.0449108	0.03360165
26.38809	0.2538997	0.07691874	0	0	0.04491339	-0.03360358
26.40465	0.2538997	0.07691874	0	0	0	0
26.42138	0.2537517	0.07710312	-0.008842054	0.01102006	-0.2655392	0.3309477
26.43779	0.2537517	0.07710312	0	0	0.2668691	-0.3326052
26.45444	0.2537517	0.07710312	0	0	0	0
26.47092	0.2588982	0.08113907	0.3124041	0.2449925	9.428918	7.394313
26.48749	0.2588982	0.08113907	0	0	-9.455045	-7.414802
26.50405	0.2588982	0.08113907	0	0	0	0
26.52062	0.2787584	0.09614424	1.198901	0.9058182	36.18498	27.33922
26.58875	0.2787584	0.09614424	0	0	-14.15442	-10.69424
26.60533	0.2787584	0.09614424	0	0	0	0
26.62189	0.285604	0.1103313	0.4132978	0.8565317	12.47192	25.8472
26.63857	0.285604	0.1103313	0	0	-12.43256	-25.76564
26.65508	0.285604	0.1103313	0	0	0	0
26.67159	0.2646682	0.1373994	-1.268362	1.639876	-38.41413	49.66594
26.68911	0.2646682	0.1373994	0	0	37.27506	-48.19323
26.70473	0.2646682	0.1373994	0	0	0	0
26.72394	0.2527158	0.1466396	-0.621982	0.4808429	-17.85663	13.80463
26.73801	0.2527158	0.1466396	0	0	18.68648	-14.44617
26.75454	0.2527158	0.1466396	0	0	0	0
26.77099	0.2527405	0.1466214	0.001499652	-0.001103911	0.04547425	-0.0334741
26.78756	0.2527405	0.1466214	0	0	-0.04540859	0.03342577
26.80413	0.2527405	0.1466214	0	0	0	0
26.82069	0.2527405	0.1466214	0	0	0	0
26.83758	0.2527405	0.1466214	0	0	0	0
26.85409	0.2527405	0.1466214	0	0	0	0
26.87039	0.2527899	0.146585	0.003028087	-0.002230837	0.09229098	-0.06799215
26.88696	0.2527899	0.146585	0	0	-0.09213031	0.06787378
26.90353	0.2527899	0.146585	0	0	0	0
26.92014	0.2528639	0.1465305	0.004454291	-0.003281967	0.1342453	-0.09891332
26.93666	0.2528639	0.1465305	0	0	-0.134423	0.09904427
26.95322	0.2528639	0.1465305	0	0	0	0
26.96979	0.2529379	0.146476	0.004467627	-0.003291794	0.1348721	-0.09937514
26.98746	0.2529379	0.146476	0	0	-0.1305134	0.09616359
27.00292	0.2529379	0.146476	0	0	0	0
27.01949	0.2529625	0.1464578	0.001489637	-0.001096539	0.04650464	-0.03423259
27.03607	0.2529625	0.1464578	0	0	-0.04493665	0.03307837
27.05262	0.2529625	0.1464578	0	0	0	0
27.06919	0.2530119	0.1464215	0.002977133	-0.002194623	0.08989662	-0.0662682
27.08576	0.2530119	0.1464215	0	0	-0.08985005	0.06623387
27.10232	0.2530119	0.1464215	0	0	0	0
27.11914	0.2530119	0.1464215	0	0	0	0
27.13566	0.2530119	0.1464215	0	0	0	0
27.15268	0.2530119	0.1464215	0	0	0	0
27.16868	0.2530119	0.1464215	0	0	0	0
27.18518	0.2530119	0.1464215	0	0	0	0
27.2022	0.2530119	0.1464215	0	0	0	0
27.21829	0.2530365	0.1464033	0.001533424	-0.001128771	0.04631349	-0.03409188
27.23486	0.2530365	0.1464033	0	0	-0.04695182	0.03456175
27.25175	0.2530365	0.1464033	0	0	0	0
27.27127	0.2531845	0.1462579	0.007581216	-0.0074484	0.2082106	-0.2045629
27.28795	0.2531845	0.1462579	0	0	-0.2093953	0.2057268
27.30445	0.2531845	0.1462579	0	0	0	0
27.32097	0.2536038	0.1459126	0.02537372	-0.02090067	0.7684787	-0.6330062
27.33754	0.2536038	0.1459126	0	0	-0.7667513	0.6315833
27.35447	0.2536038	0.1459126	0	0	0	0
27.37097	0.2539983	0.1452945	0.023908	-0.03745503	0.7151639	-1.120398
27.38749	0.2539983	0.1452945	0	0	-0.7239202	1.134116
27.40401	0.2539983	0.1452945	0	0	0	0
27.42037	0.2521977	0.1428399	-0.1100654	-0.1500452	-3.347992	-4.564104
27.43694	0.2521977	0.1428399	0	0	3.342756	4.556965
27.4535	0.2521977	0.1428399	0	0	0	0
27.47008	0.2345743	0.1290552	-1.06338	-0.8317593	-32.08734	-25.09821
27.48664	0.2345743	0.1290552	0	0	32.09288	25.10254
27.50357	0.2345743	0.1290552	0	0	0	0
27.51977	0.1923805	0.09823654	-2.604396	-1.902266	-78.60536	-57.41381
27.53634	0.1923805	0.09823654	0	0	79.47001	58.04535
27.5529	0.1923805	0.09823654	0	0	0	0
27.56947	0.1733223	0.08450866	-1.150488	-0.8287115	-34.72778	-25.01488
27.58604	0.1733223	0.08450866	0	0	34.72378	25.012
27.6026	0.1733223	0.08450866	0	0	0	0
27.61936	0.1599636	0.07481621	-0.7974256	-0.5785764	-23.93272	-17.36451
27.63574	0.1599636	0.07481621	0	0	24.06774	17.46248
27.6523	0.1599636	0.07481621	0	0	0	0
27.66888	0.1160291	0.04292385	-2.649755	-1.923477	-79.93754	-58.02726
27.68544	0.1160291	0.04292385	0	0	79.96975	58.05064
27.70241	0.1160291	0.04292385	0	0	0	0
27.71891	0.05987571	0.00262571	-3.40432	-2.443089	-101.7121	-72.99305
27.73514	0.05987571	0.00262571	0	0	104.0301	74.65652
27.75195	0.05987571	0.00262571	0	0	0	0
27.76844	0.008605051	-0.03542002	-3.107942	-2.306269	-93.31979	-69.24855
27.78497	0.008605051	-0.03542002	0	0	94.12296	69.84456
27.80148	0.008605051	-0.03542002	0	0	0	0
27.81997	-0.04029397	-0.07101786	-2.644098	-1.924868	-75.53362	-54.98749
27.83654	-0.04029397	-0.07101786	0	0	75.41446	54.90074
27.85326	-0.04029397	-0.07101786	0	0	0	0
27.86967	-0.05308167	-0.08041738	-0.7793139	-0.5728298	-23.5211	-17.28903
27.88624	-0.05308167	-0.08041738	0	0	23.63129	17.37003
27.90281	-0.05308167	-0.08041738	0	0	0	0
27.91958	-0.05302918	-0.08045605	0.003129487	-0.002305634	0.0938753	-0.06916215
27.93594	-0.05302918	-0.08045605	0	0	-0.09445354	0.06958818
27.95251	-0.05302918	-0.08045605	0	0	0	0
27.96912	-0.05295046	-0.08051405	0.004737763	-0.003490606	0.1427723	-0.1051893
27.98564	-0.05295046	-0.08051405	0	0	-0.1429942	0.1053528
28.0022	-0.05295046	-0.08051405	0	0	0	0
28.01877	-0.05287173	-0.08053339	0.004752492	-0.001167152	0.1434387	-0.03522676
28.03567	-0.05287173	-0.08053339	0	0	-0.142	0.03487343
28.05267	-0.05287173	-0.08053339	0	0	0	0
28.06894	-0.05221565	-0.08101679	0.04033	-0.02971571	1.212486	-0.8933765
28.08561	-0.05221565	-0.08101679	0	0	-1.224351	0.9021188
28.10211	-0.05221565	-0.08101679	0	0	0	0
28.11884	-0.03569536	-0.09320788	0.9873906	-0.7286412	29.71399	-21.92732
28.13565	-0.03569536	-0.09320788	0	0	-29.43856	21.72407
28.15215	-0.03569536	-0.09320788	0	0	0	0
28.16867	-0.005210479	-0.11582	1.846235	-1.36944	55.9126	-41.47302
28.18518	-0.005210479	-0.11582	0	0	-55.90614	41.46823
28.20169	-0.005210479	-0.11582	0	0	0	0
28.21824	0.02691455	-0.1398624	1.941306	-1.452876	58.72055	-43.94653
28.23481	0.02691455	-0.1398624	0	0	-58.62247	43.87313
28.25137	0.02691455	-0.1398624	0	0	0	0
28.26824	0.0499584	-0.1572399	1.366389	-1.030401	40.87068	-30.82079
28.28475	0.0499584	-0.1572399	0	0	-40.93842	30.87187
28.30126	0.0499584	-0.1572399	0	0	0	0
28.31777	0.0568597	-0.1624883	0.4179588	-0.317856	12.65628	-9.62505
28.33421	0.0568597	-0.1624883	0	0	-12.68632	9.647896
28.35229	0.0568597	-0.1624883	0	0	0	0
28.36734	0.0568597	-0.1624883	0	0	0	0
28.38391	0.0568597	-0.1624883	0	0	0	0
28.40047	0.0568597	-0.1624883	0	0	0	0
28.41734	0.05683346	-0.1624683	-0.001555168	0.001184596	-0.04651203	0.03542893
28.43361	0.05683346	-0.1624683	0	0	0.04693507	-0.03575116
28.45039	0.05683346	-0.1624683	0	0	0	0
28.46674	0.05683346	-0.1624683	0	0	0	0
28.48331	0.05683346	-0.1624683	0	0	0	0
28.49988	0.05683346	-0.1624683	0	0	0	0
28.51644	0.05680723	-0.1624883	-0.001583232	-0.001206144	-0.04778203	-0.03640148
28.53301	0.05680723	-0.1624883	0	0	0.04778203	0.03640148
28.54958	0.05680723	-0.1624883	0	0	0	0
28.56614	0.05680723	-0.1624883	0	0	0	0
28.58271	0.05680723	-0.1624883	0	0	0	0
28.59928	0.05680723	-0.1624883	0	0	0	0
28.61584	0.05678101	-0.1624683	-0.001583414	0.001206282	-0.04778754	0.03640568
28.63241	0.05678101	-0.1624683	0	0	0.04779029	-0.03640777
28.64898	0.05678101	-0.1624683	0	0	0	0
28.66555	0.05678101	-0.1624683	0	0	0	0
28.68211	0.05678101	-0.1624683	0	0	0	0
28.69868	0.05678101	-0.1624683	0	0	0	0
28.71525	0.05678101	-0.1624683	0	0	0	0
28.73181	0.05678101	-0.1624683	0	0	0	0
28.74838	0.05678101	-0.1624683	0	0	0	0
28.76512	0.05678101	-0.1624683	0	0	0	0
28.78163	0.05678101	-0.1624683	0	0	0	0
28.79813	0.05678101	-0.1624683	0	0	0	0
28.81466	0.05678101	-0.1624683	0	0	0	0
28.83121	0.05678101	-0.1624683	0	0	0	0
28.84778	0.05678101	-0.1624683	0	0	0	0
28.86435	0.05678101	-0.1624683	0	0	0	0
28.88122	0.05678101	-0.1624683	0	0	0	0
28.90119	0.05678101	-0.1624683	0	0	0	0
28.91405	0.05678101	-0.1624683	0	0	0	0
28.93073	0.05678101	-0.1624683	0	0	0	0
28.94718	0.05678101	-0.1624683	0	0	0	0
28.96375	0.05678101	-0.1624683	0	0	0	0
28.98032	0.05678101	-0.1624683	0	0	0	0
28.99688	0.05678101	-0.1624683	0	0	0	0
29.01345	0.05678101	-0.1624683	0	0	0	0
29.03002	0.05678101	-0.1624683	0	0	0	0
29.04658	0.05678101	-0.1624683	0	0	0	0
29.06332	0.05678101	-0.1624683	0	0	0	0
29.07972	0.05678101	-0.1624683	0	0	0	0
29.09635	0.05678101	-0.1624683	0	0	0	0
29.11285	0.05678101	-0.1624683	0	0	0	0
29.12942	0.05678101	-0.1624683	0	0	0	0
29.14598	0.05678101	-0.1624683	0	0	0	0
29.16255	0.05680723	-0.1624883	0.001583414	-0.001206282	0.04779029	-0.03640777
29.17912	0.05680723	-0.1624883	0	0	-0.04779029	0.03640777
29.19568	0.05680723	-0.1624883	0	0	0	0
29.21225	0.05680723	-0.1624883	0	0	0	0
29.22882	0.05680723	-0.1624883	0	0	0	0
29.24547	0.05680723	-0.1624883	0	0	0	0
29.26195	0.05680723	-0.1624883	0	0	0	0
29.27851	0.05680723	-0.1624883	0	0	0	0
29.29508	0.05680723	-0.1624883	0	0	0	0
29.31165	0.05680723	-0.1624883	0	0	0	0
29.32821	0.05680723	-0.1624883	0	0	0	0
29.34502	0.05680723	-0.1624883	0	0	0	0
29.36154	0.05678101	-0.1624683	-0.001587985	0.001209765	-0.04764847	0.03629973
29.37791	0.05678101	-0.1624683	0	0	0.04828124	-0.03678179
29.39457	0.05678101	-0.1624683	0	0	0	0
29.41107	0.05678101	-0.1624683	0	0	0	0
29.4306	0.05678101	-0.1624683	0	0	0	0
29.4446	0.05678101	-0.1624683	0	0	0	0
29.46074	0.05678101	-0.1624683	0	0	0	0
29.47731	0.05678101	-0.1624683	0	0	0	0
29.49466	0.05678101	-0.1624683	0	0	0	0
29.51044	0.05680723	-0.1624883	0.001662068	-0.001266203	0.05016421	-0.03821628
29.52701	0.05680723	-0.1624883	0	0	-0.05137986	0.03914239
29.54358	0.05680723	-0.1624883	0	0	0	0
29.5602	0.05680723	-0.1624883	0	0	0	0
29.57672	0.05680723	-0.1624883	0	0	0	0
29.59372	0.05680723	-0.1624883	0	0	0	0
29.60985	0.05680723	-0.1624883	0	0	0	0
29.62675	0.05680723	-0.1624883	0	0	0	0
29.64325	0.05680723	-0.1624883	0	0	0	0
29.65955	0.05680723	-0.1624883	0	0	0	0
29.67612	0.05680723	-0.1624883	0	0	0	0
29.69278	0.05680723	-0.1624883	0	0	0	0
29.71062	0.05680723	-0.1624883	0	0	0	0
29.72729	0.05680723	-0.1624883	0	0	0	0
29.74375	0.05680723	-0.1624883	0	0	0	0
29.76032	0.05680723	-0.1624883	0	0	0	0
29.77689	0.05680723	-0.1624883	0	0	0	0
29.79345	0.05680723	-0.1624883	0	0	0	0
29.81036	0.05680723	-0.1624883	0	0	0	0
29.82659	0.05680723	-0.1624883	0	0	0	0
29.84315	0.05680723	-0.1624883	0	0	0	0
29.85972	0.05680723	-0.1624883	0	0	0	0
29.87629	0.05680723	-0.1624883	0	0	0	0
29.89293	0.05680723	-0.1624883	0	0	0	0
29.90945	0.05680723	-0.1624883	0	0	0	0
29.92599	0.05680723	-0.1624883	0	0	0	0
29.94256	0.05680723	-0.1624883	0	0	0	0
29.95912	0.05680723	-0.1624883	0	0	0	0
29.97676	0.05680723	-0.1624883	0	0	0	0
29.99226	0.05680723	-0.1624883	0	0	0	0
30.00882	0.05680723	-0.1624883	0	0	0	0
30.02539	0.05680723	-0.1624883	0	0	0	0
30.04253	0.05680723	-0.1624883	0	0	0	0
30.05853	0.05680723	-0.1624883	0	0	0	0
30.07509	0.05680723	-0.1624883	0	0	0	0
30.09205	0.05680723	-0.1624883	0	0	0	0
30.10855	0.05678101	-0.1625082	-0.001588903	-0.001210464	-0.04747764	-0.03616958
30.12479	0.05678101	-0.1625082	0	0	0.04852864	0.03697026
30.14136	0.05678101	-0.1625082	0	0	0	0
30.15812	0.05678101	-0.1625082	0	0	0	0
30.17449	0.05678101	-0.1625082	0	0	0	0
30.19115	0.05678101	-0.1625082	0	0	0	0
30.20765	0.05678101	-0.1625082	0	0	0	0
30.22419	0.05678101	-0.1625082	0	0	0	0
30.24076	0.05678101	-0.1625082	0	0	0	0
30.26379	0.05678101	-0.1625082	0	0	0	0
30.28036	0.05678101	-0.1625082	0	0	0	0
30.29692	0.05678101	-0.1625082	0	0	0	0
30.31349	0.05678101	-0.1625082	0	0	0	0
30.33006	0.05678101	-0.1625082	0	0	0	0
30.34663	0.05678101	-0.1625082	0	0	0	0
30.36319	0.05678101	-0.1625082	0	0	0	0
30.37976	0.05678101	-0.1625082	0	0	0	0
30.39679	0.05678101	-0.1625082	0	0	0	0
30.41289	0.05678101	-0.1625082	0	0	0	0
30.42946	0.05678101	-0.1625082	0	0	0	0
30.44603	0.05678101	-0.1625082	0	0	0	0
30.46259	0.05678101	-0.1625082	0	0	0	0
30.47935	0.05678101	-0.1625082	0	0	0	0
30.49573	0.05678101	-0.1625082	0	0	0	0
30.51237	0.05678101	-0.1625082	0	0	0	0
30.53029	0.05678101	-0.1625082	0	0	0	0
30.54543	0.05678101	-0.1625082	0	0	0	0
30.56199	0.05678101	-0.1625082	0	0	0	0
30.57894	0.05678101	-0.1625082	0	0	0	0
30.59513	0.05678101	-0.1625082	0	0	0	0
30.61169	0.05678101	-0.1625082	0	0	0	0
30.62826	0.05678101	-0.1625082	0	0	0	0
30.64482	0.05678101	-0.1625082	0	0	0	0
30.6615	0.05678101	-0.1625082	0	0	0	0
30.67796	0.05678101	-0.1625082	0	0	0	0
30.69453	0.05678101	-0.1625082	0	0	0	0
30.71109	0.05678101	-0.1625082	0	0	0	0
30.72803	0.05678101	-0.1625082	0	0	0	0
30.74424	0.05678101	-0.1625082	0	0	0	0
30.7608	0.05678101	-0.1625082	0	0	0	0
30.77736	0.05678101	-0.1625082	0	0	0	0
30.79393	0.05678101	-0.1625082	0	0	0	0
30.8117	0.05678101	-0.1625082	0	0	0	0
30.82706	0.05678101	-0.1625082	0	0	0	0
30.84381	0.05678101	-0.1625082	0	0	0	0
30.86019	0.05678101	-0.1625082	0	0	0	0
30.87676	0.05678101	-0.1625082	0	0	0	0
30.89333	0.05678101	-0.1625082	0	0	0	0
30.90989	0.05678101	-0.1625082	0	0	0	0
30.92646	0.05678101	-0.1625082	0	0	0	0
30.94303	0.05678101	-0.1625082	0	0	0	0
30.95959	0.05678101	-0.1625082	0	0	0	0
30.97616	0.05678101	-0.1625082	0	0	0	0
30.99273	0.05678101	-0.1625082	0	0	0	0
31.00929	0.05678101	-0.1625082	0	0	0	0
31.02593	0.05678101	-0.1625082	0	0	0	0
31.04243	0.05678101	-0.1625082	0	0	0	0
31.05899	0.05678101	-0.1625082	0	0	0	0
31.07556	0.05678101	-0.1625082	0	0	0	0
31.09237	0.05678101	-0.1625082	0	0	0	0
31.10888	0.05678101	-0.1625082	0	0	0	0
31.12526	0.05678101	-0.1625082	0	0	0	0
31.14183	0.05678101	-0.1625082	0	0	0	0
31.15839	0.05678101	-0.1625082	0	0	0	0
31.17496	0.05678101	-0.1625082	0	0	0	0
31.19153	0.05678101	-0.1625082	0	0	0	0
31.2081	0.05678101	-0.1625082	0	0	0	0
31.22466	0.05678101	-0.1625082	0	0	0	0
31.24123	0.05678101	-0.1625082	0	0	0	0
31.2578	0.05678101	-0.1625082	0	0	0	0
31.27453	0.05678101	-0.1625082	0	0	0	0
31.29093	0.05678101	-0.1625082	0	0	0	0
31.3075	0.05678101	-0.1625082	0	0	0	0
31.32406	0.05678101	-0.1625082	0	0	0	0
31.34063	0.05678101	-0.1625082	0	0	0	0
31.36203	0.05678101	-0.1625082	0	0	0	0
31.37376	0.05678101	-0.1625082	0	0	0	0
31.39033	0.05678101	-0.1625082	0	0	0	0
31.4069	0.05678101	-0.1625082	0	0	0	0
31.42346	0.05678101	-0.1625082	0	0	0	0
31.44003	0.05678101	-0.1625082	0	0	0	0
31.45676	0.05678101	-0.1625082	0	0	0	0
31.47316	0.05678101	-0.1625082	0	0	0	0
31.48978	0.05675477	-0.1624883	-0.001578912	0.001202682	-0.04782235	0.03642702
31.5063	0.05675477	-0.1624883	0	0	0.04765442	-0.0362991
31.52286	0.05675477	-0.1624883	0	0	0	0
31.53943	0.05675477	-0.1624883	0	0	0	0
31.556	0.05675477	-0.1624883	0	0	0	0
31.57257	0.05675477	-0.1624883	0	0	0	0
31.58913	0.05675477	-0.1624883	0	0	0	0
31.6057	0.05675477	-0.1624883	0	0	0	0
31.62227	0.05675477	-0.1624883	0	0	0	0
31.64154	0.05675477	-0.1624883	0	0	0	0
31.65835	0.05675477	-0.1624883	0	0	0	0
31.67467	0.05675477	-0.1624883	0	0	0	0
31.69137	0.05675477	-0.1624883	0	0	0	0
31.70781	0.05675477	-0.1624883	0	0	0	0
31.7244	0.05675477	-0.1624883	0	0	0	0
31.74094	0.05675477	-0.1624883	0	0	0	0
31.75751	0.05675477	-0.1624883	0	0	0	0
31.77407	0.05675477	-0.1624883	0	0	0	0
31.79064	0.05678101	-0.1625082	0.001583457	-0.001206144	0.04778882	-0.03640148
31.80721	0.05678101	-0.1625082	0	0	-0.04778882	0.03640148
31.82378	0.05678101	-0.1625082	0	0	0	0
31.84034	0.05678101	-0.1625082	0	0	0	0
31.85691	0.05678101	-0.1625082	0	0	0	0
31.8735	0.05678101	-0.1625082	0	0	0	0
31.89004	0.05678101	-0.1625082	0	0	0	0
31.91059	0.05678101	-0.1625082	0	0	0	0
31.92317	0.05678101	-0.1625082	0	0	0	0
31.93974	0.05678101	-0.1625082	0	0	0	0
31.95631	0.05678101	-0.1625082	0	0	0	0
31.97288	0.05678101	-0.1625082	0	0	0	0
32.04005	0.05678101	-0.1625082	0	0	0	0
32.05662	0.05678101	-0.1625082	0	0	0	0
32.07319	0.05678101	-0.1625082	0	0	0	0
32.08976	0.05678101	-0.1625082	0	0	0	0
32.10632	0.05678101	-0.1625082	0	0	0	0
32.12289	0.05675477	-0.1624883	-0.001583457	0.001206144	-0.04778882	0.03640148
32.1397	0.05675477	-0.1624883	0	0	0.04743928	-0.03613523
32.15602	0.05675477	-0.1624883	0	0	0	0
32.17259	0.05675477	-0.1624883	0	0	0	0
32.18916	0.05675477	-0.1624883	0	0	0	0
32.20616	0.05675477	-0.1624883	0	0	0	0
32.22229	0.05675477	-0.1624883	0	0	0	0
32.23886	0.05675477	-0.1624883	0	0	0	0
32.25543	0.05675477	-0.1624883	0	0	0	0
32.272	0.05675477	-0.1624883	0	0	0	0
32.28872	0.05675477	-0.1624883	0	0	0	0
32.30513	0.05675477	-0.1624883	0	0	0	0
32.32169	0.05675477	-0.1624883	0	0	0	0
32.33826	0.05675477	-0.1624883	0	0	0	0
32.35483	0.05675477	-0.1624883	0	0	0	0
32.3714	0.05675477	-0.1624883	0	0	0	0
32.38796	0.05675477	-0.1624883	0	0	0	0
32.40453	0.05675477	-0.1624883	0	0	0	0
32.4211	0.05675477	-0.1624883	0	0	0	0
32.43766	0.05675477	-0.1624883	0	0	0	0
32.45423	0.05675477	-0.1624883	0	0	0	0
32.4708	0.05675477	-0.1624883	0	0	0	0
32.48737	0.05675477	-0.1624883	0	0	0	0
32.50393	0.05675477	-0.1624883	0	0	0	0
32.5205	0.05675477	-0.1624883	0	0	0	0
32.53707	0.05675477	-0.1624883	0	0	0	0
32.55363	0.05675477	-0.1624883	0	0	0	0
32.5702	0.05675477	-0.1624883	0	0	0	0
32.58677	0.05675477	-0.1624883	0	0	0	0
32.60334	0.05675477	-0.1624883	0	0	0	0
32.6199	0.05678101	-0.1624283	0.001583457	0.003617531	0.04779433	0.1091899
32.63673	0.05678101	-0.1624283	0	0	-0.04742302	-0.1083416
32.65324	0.05678101	-0.1624283	0	0	0	0
32.66975	0.05683346	-0.1623484	0.003177438	0.004840393	0.09620541	0.1465558
32.68626	0.05683346	-0.1623484	0	0	-0.09622764	-0.1465896
32.70274	0.05683346	-0.1623484	0	0	0	0
32.7193	0.05683346	-0.1623484	0	0	0	0
32.73587	0.05683346	-0.1623484	0	0	0	0
32.75244	0.05683346	-0.1623484	0	0	0	0
32.77165	0.05683346	-0.1623484	0	0	0	0
32.78822	0.05683346	-0.1623484	0	0	0	0
32.80479	0.05683346	-0.1623484	0	0	0	0
32.82135	0.05678101	-0.1623085	-0.003166464	0.002411388	-0.09556407	0.07277583
32.83792	0.05678101	-0.1623085	0	0	0.09556407	-0.07277583
32.85449	0.05678101	-0.1623085	0	0	0	0
32.87106	0.05672854	-0.1622685	-0.003166689	0.002411388	-0.09557086	0.07277583
32.88791	0.05672854	-0.1622685	0	0	0.09476352	-0.07216105
32.90419	0.05672854	-0.1622685	0	0	0	0
32.92091	0.05672854	-0.1622685	0	0	0	0
32.93732	0.05672854	-0.1622685	0	0	0	0
32.95394	0.05672854	-0.1622685	0	0	0	0
32.97045	0.05675477	-0.1622885	0.001588719	-0.001209421	0.04795316	-0.03650461
32.98746	0.05675477	-0.1622885	0	0	-0.04738573	0.03607265
33.00359	0.05675477	-0.1622885	0	0	0	0
33.02036	0.05678101	-0.1623085	0.001564366	-0.001191602	0.04756311	-0.03622956
33.03672	0.05678101	-0.1623085	0	0	-0.04721266	0.03596261
33.05329	0.05678101	-0.1623085	0	0	0	0
33.06988	0.0568597	-0.1623285	0.004743368	-0.001204479	0.1430563	-0.03632617
33.08642	0.0568597	-0.1623285	0	0	-0.1431716	0.03635545
33.10299	0.0568597	-0.1623285	0	0	0	0
33.11955	0.05688593	-0.1623484	0.001583232	-0.001205244	0.04778203	-0.03637434
33.13612	0.05688593	-0.1623484	0	0	-0.04778203	0.03637434
33.15269	0.05688593	-0.1623484	0	0	0	0
33.16925	0.06016415	-0.164847	0.1979192	-0.1508467	5.973902	-4.553088
33.18597	0.06016415	-0.164847	0	0	-5.945833	4.531695
33.20249	0.06016415	-0.164847	0	0	0	0
33.21899	0.08719937	-0.1851165	1.637883	-1.227994	49.60274	-37.18939
33.23552	0.08719937	-0.1851165	0	0	-49.58555	37.1765
33.25209	0.08719937	-0.1851165	0	0	0	0
33.26865	0.1099235	-0.2018084	1.371949	-1.007758	41.41027	-30.41771
33.28522	0.1099235	-0.2018084	0	0	-41.41027	30.41771
33.30193	0.1099235	-0.2018084	0	0	0	0
33.31835	0.1146529	-0.2053904	0.2880496	-0.2181719	8.693356	-6.58444
33.33492	0.1146529	-0.2053904	0	0	-8.732564	6.614137
33.35149	0.1146529	-0.2053904	0	0	0	0
33.36805	0.1146529	-0.2053904	0	0	0	0
33.38462	0.1146529	-0.2053904	0	0	0	0
33.40152	0.1146529	-0.2053904	0	0	0	0
33.41775	0.1146269	-0.2053701	-0.00160014	0.001254957	-0.04829231	0.03787469
33.43432	0.1146269	-0.2053701	0	0	0.04878658	-0.03826233
33.45155	0.1146269	-0.2053701	0	0	0	0
33.46745	0.1146269	-0.2053701	0	0	0	0
33.48406	0.1146269	-0.2053701	0	0	0	0
33.50058	0.1146269	-0.2053701	0	0	0	0
33.51715	0.1149385	-0.2050035	0.01881125	0.02212882	0.5685101	0.6687731
33.53372	0.1149385	-0.2050035	0	0	-0.5677247	-0.6678491
33.5506	0.1149385	-0.2050035	0	0	0	0
33.56685	0.1152242	-0.2047794	0.017574	0.01378234	0.5303844	0.4159519
33.58342	0.1152242	-0.2047794	0	0	-0.5354391	-0.4199162
33.59999	0.1152242	-0.2047794	0	0	0	0
33.61655	0.1185727	-0.2020728	0.202119	0.1633744	6.099963	4.93065
33.63313	0.1185727	-0.2020728	0	0	-6.098558	-4.929515
33.64969	0.1185727	-0.2020728	0	0	0	0
33.66626	0.1440222	-0.182152	1.536132	1.202421	46.37123	36.29749
33.68282	0.1440222	-0.182152	0	0	-46.36056	-36.28913
33.69971	0.1440222	-0.182152	0	0	0	0
33.71595	0.1725817	-0.1598326	1.758681	1.374415	53.08322	41.48469
33.73252	0.1725817	-0.1598326	0	0	-53.60788	-41.89471
33.74928	0.1725817	-0.1598326	0	0	0	0
33.76577	0.1923297	-0.1442791	1.197508	0.9431574	36.02061	28.36983
33.78228	0.1923297	-0.1442791	0	0	-36.28709	-28.57971
33.7988	0.1923297	-0.1442791	0	0	0	0
33.81535	0.2185575	-0.1230416	1.584204	1.282782	47.89408	38.78141
33.83984	0.2185575	-0.1230416	0	0	-38.60286	-31.258
33.84858	0.2185575	-0.1230416	0	0	0	0
33.86506	0.2384045	-0.1073099	1.204625	0.9548439	47.76662	37.86214
33.88162	0.2384045	-0.1073099	0	0	-36.45637	-28.89709
33.89819	0.2384045	-0.1073099	0	0	0	0
33.91476	0.2428971	-0.1020615	0.2711736	0.3167975	8.184036	9.560967
33.93164	0.2428971	-0.1020615	0	0	-8.107497	-9.471551
33.94815	0.2428971	-0.1020615	0	0	0	0
33.96446	0.2266931	-0.08940314	-0.993398	0.7760305	-30.26654	23.64386
33.98103	0.2266931	-0.08940314	0	0	30.21387	-23.60271
33.99769	0.2266931	-0.08940314	0	0	0	0
34.0142	0.1993179	-0.06824462	-1.658099	1.281557	-49.97824	38.62854
34.03073	0.1993179	-0.06824462	0	0	50.19178	-38.79358
34.04729	0.1993179	-0.06824462	0	0	0	0
34.06386	0.1792907	-0.05282945	-1.208844	0.9304615	-36.48297	28.08138
34.08043	0.1792907	-0.05282945	0	0	36.48297	-28.08138
34.097	0.1792907	-0.05282945	0	0	0	0
34.11356	0.1814301	-0.03968662	0.1291338	0.7933027	3.897266	23.94192
34.13013	0.1814301	-0.03968662	0	0	-3.897266	-23.94192
34.1467	0.1814301	-0.03968662	0	0	0	0
34.16327	0.216224	-0.01368362	2.100162	1.569544	63.38301	47.36895
34.1802	0.216224	-0.01368362	0	0	-62.68301	-46.8458
34.19673	0.216224	-0.01368362	0	0	0	0
34.21296	0.2324822	-0.001458186	1.001408	0.7530132	30.56743	22.98532
34.22953	0.2324822	-0.001458186	0	0	-30.52833	-22.95591
34.2461	0.2324822	-0.001458186	0	0	0	0
34.26266	0.2339021	-0.0003096735	0.08570544	0.06932438	2.586596	2.092214
34.27923	0.2339021	-0.0003096735	0	0	-2.586596	-2.092214
34.29581	0.2339021	-0.0003096735	0	0	0	0
34.31236	0.252247	0.01381698	1.108069	0.8532761	33.44544	25.75489
34.32893	0.252247	0.01381698	0	0	-33.45314	-25.76082
34.3455	0.252247	0.01381698	0	0	0	0
34.36206	0.2750817	0.03133898	1.378304	1.05763	41.59731	31.91934
34.38531	0.2750817	0.03133898	0	0	-34.61859	-26.56428
34.39539	0.2750817	0.03133898	0	0	0	0
34.41231	0.2850952	0.03935166	0.5917423	0.4735067	21.91603	17.53701
34.42888	0.2850952	0.03935166	0	0	-17.66963	-14.13907
34.44545	0.2850952	0.03935166	0	0	0	0
34.46201	0.2863064	0.04054277	0.07311154	0.07189528	2.206511	2.169804
34.47858	0.2863064	0.04054277	0	0	-2.206511	-2.169804
34.49515	0.2863064	0.04054277	0	0	0	0
34.51171	0.2843437	0.04338873	-0.1184683	0.1717826	-3.57538	5.184409
34.52828	0.2843437	0.04338873	0	0	3.57538	-5.184409
34.54485	0.2843437	0.04338873	0	0	0	0
34.56153	0.2758615	0.05966124	-0.5084753	0.9754727	-15.293	29.33849
34.57803	0.2758615	0.05966124	0	0	15.32464	-29.39921
34.59455	0.2758615	0.05966124	0	0	0	0
34.61112	0.296158	0.07894649	1.225379	1.164328	37.03316	35.18809
34.62769	0.296158	0.07894649	0	0	-36.98626	-35.14352
34.64425	0.296158	0.07894649	0	0	0	0
34.66245	0.2953152	0.09206698	-0.04631813	0.7210606	-1.332385	20.74198
34.67902	0.2953152	0.09206698	0	0	1.332385	-20.74198
34.69561	0.2953152	0.09206698	0	0	0	0
34.71261	0.2742284	0.1088303	-1.240522	0.9861786	-36.92465	29.35402
34.72871	0.2742284	0.1088303	0	0	37.47786	-29.7938
34.74528	0.2742284	0.1088303	0	0	0	0
34.76185	0.2648643	0.12256	-0.5652217	0.8287245	-17.05842	25.01096
34.77842	0.2648643	0.12256	0	0	17.05842	-25.01096
34.79519	0.2648643	0.12256	0	0	0	0
34.81155	0.2770793	0.1345588	0.7467569	0.7335364	22.53717	22.13817
34.82812	0.2770793	0.1345588	0	0	-22.68078	-22.27925
34.84468	0.2770793	0.1345588	0	0	0	0
34.86125	0.284368	0.1402022	0.4399465	0.3406397	13.27761	10.28053
34.87782	0.284368	0.1402022	0	0	-13.27761	-10.28053
34.89439	0.284368	0.1402022	0	0	0	0
34.91095	0.2843922	0.140184	0.001464282	-0.001098211	0.04419211	-0.03314408
34.93335	0.2843922	0.140184	0	0	-0.03757735	0.02818301
34.94409	0.2843922	0.140184	0	0	0	0
34.96066	0.2843922	0.140184	0	0	0	0
34.97722	0.2843922	0.140184	0	0	0	0
34.99384	0.2843922	0.140184	0	0	0	0
35.01035	0.2844407	0.1401476	0.002935551	-0.002203017	0.08860531	-0.06649483
35.02692	0.2844407	0.1401476	0	0	-0.08872791	0.06658684
35.04387	0.2844407	0.1401476	0	0	0	0
35.06036	0.2845134	0.1400567	0.004409553	-0.005517364	0.131851	-0.1649759
35.07662	0.2845134	0.1400567	0	0	-0.1346619	0.168493
35.09319	0.2845134	0.1400567	0	0	0	0
35.10975	0.2845862	0.1399657	0.004391046	-0.005491056	0.132522	-0.1657204
35.12632	0.2845862	0.1399657	0	0	-0.132522	0.1657204
35.14289	0.2845862	0.1399657	0	0	0	0
35.15947	0.2845377	0.1399293	-0.002924744	-0.002194906	-0.08823848	-0.06621952
35.17602	0.2845377	0.1399293	0	0	0.08826895	0.0662424
35.19259	0.2845377	0.1399293	0	0	0	0
35.21507	0.2844892	0.1398565	-0.002156955	-0.003238084	-0.05523963	-0.08292735
35.22572	0.2844892	0.1398565	0	0	0.06510453	0.09773684
35.24229	0.2844407	0.1398201	-0.002926764	-0.002196422	-0.107531	-0.08069782
35.25901	0.2844407	0.1398201	0	0	0.08792502	0.06598429
35.27542	0.2844407	0.1398201	0	0	0	0
35.29198	0.283883	0.1392924	-0.03366229	-0.03185352	-1.020748	-0.9659005
35.30856	0.283883	0.1392924	0	0	1.015813	0.9612306
35.32512	0.283883	0.1392924	0	0	0	0
35.34169	0.2832524	0.1388192	-0.03806593	-0.02856069	-1.148964	-0.8620625
35.35825	0.2832524	0.1388192	0	0	1.148832	0.8619632
35.37482	0.2832524	0.1388192	0	0	0	0
35.39139	0.2691734	0.1282893	-0.8498104	-0.6355855	-25.64733	-19.18201
35.40796	0.2691734	0.1282893	0	0	25.64733	19.18201
35.42452	0.2691734	0.1282893	0	0	0	0
35.44109	0.2171526	0.08993504	-3.139978	-2.315069	-94.76474	-69.86893
35.45768	0.2171526	0.08993504	0	0	94.69932	69.82069
35.47422	0.2171526	0.08993504	0	0	0	0
35.49096	0.1545472	0.04450421	-3.740974	-2.714707	-112.411	-81.57316
35.50735	0.1545472	0.04450421	0	0	112.9158	81.93947
35.52397	0.1545472	0.04450421	0	0	0	0
35.54049	0.1052153	0.00895817	-2.985928	-2.151508	-90.11549	-64.93263
35.55706	0.1052153	0.00895817	0	0	90.24016	65.02246
35.57362	0.1052153	0.00895817	0	0	0	0
35.59019	0.08359421	-0.006678587	-1.30505	-0.9438365	-39.3865	-28.48504
35.60676	0.08359421	-0.006678587	0	0	39.3865	28.48504
35.62333	0.08359421	-0.006678587	0	0	0	0
35.63989	0.06896938	-0.01727701	-0.8827563	-0.639722	-26.64164	-19.30685
35.65657	0.06896938	-0.01727701	0	0	26.55298	19.2426
35.67303	0.06896938	-0.01727701	0	0	0	0
35.68959	0.05817114	-0.02512094	-0.6517834	-0.4734607	-19.73676	-14.33694
35.70616	0.05817114	-0.02512094	0	0	19.67086	14.28907
35.72273	0.05817114	-0.02512094	0	0	0	0
35.7393	0.04961714	-0.03131145	-0.5163205	-0.3736601	-15.58258	-11.27708
35.75586	0.04961714	-0.03131145	0	0	15.58258	11.27708
35.77243	0.04961714	-0.03131145	0	0	0	0
35.789	0.04481208	-0.03483002	-0.2900337	-0.2123813	-8.753234	-6.409681
35.80556	0.04481208	-0.03483002	0	0	8.753234	6.409681
35.82213	0.04481208	-0.03483002	0	0	0	0
35.83886	0.04483835	-0.03481099	0.00157043	0.001138061	0.04717301	0.03418537
35.85526	0.04483835	-0.03481099	0	0	-0.04740113	-0.03435069
35.8719	0.04483835	-0.03481099	0	0	0	0
35.8884	0.04486461	-0.03479196	0.001591853	0.00115336	0.04804223	0.03480847
35.90496	0.04486461	-0.03479196	0	0	-0.04814199	-0.03488075
35.92194	0.04486461	-0.03479196	0	0	0	0
35.9381	0.04489087	-0.03481099	0.001624915	-0.001177314	0.04904004	-0.03553142
35.95467	0.04489087	-0.03481099	0	0	-0.04964589	0.03597039
35.97123	0.04489087	-0.03481099	0	0	0	0
35.9878	0.04491714	-0.03483002	0.001585256	-0.001148804	0.04784311	-0.03467099
36.00437	0.04491714	-0.03483002	0	0	-0.04784311	0.03467099
36.02101	0.04491714	-0.03483002	0	0	0	0
36.03978	0.04496966	-0.03483002	0.002797548	0	0.07899186	0
36.05407	0.04496966	-0.03483002	0	0	-0.08461525	0
36.07064	0.04496966	-0.03483002	0	0	0	0
36.0872	0.04499592	-0.03484905	0.001585031	-0.00114858	0.04783633	-0.0346642
36.10393	0.04499592	-0.03484905	0	0	-0.04760613	0.0344974
36.12043	0.04499592	-0.03484905	0	0	0	0
36.13694	0.04502219	-0.03490615	0.00159075	-0.003458132	0.04819759	-0.1047768
36.15347	0.04502219	-0.03490615	0	0	-0.04813639	0.1046437
36.17004	0.04502219	-0.03490615	0	0	0	0
36.18661	0.04504845	-0.03492517	0.001585256	-0.00114858	0.04784311	-0.0346642
36.20317	0.04504845	-0.03492517	0	0	-0.04784311	0.0346642
36.21999	0.04504845	-0.03492517	0	0	0	0
36.2365	0.04507471	-0.03494421	0.00159075	-0.001152786	0.04773962	-0.03459598
36.25288	0.04507471	-0.03494421	0	0	-0.04836529	0.0350494
36.26944	0.04507471	-0.03494421	0	0	0	0
36.28603	0.04510098	-0.03496324	0.001583069	-0.001146995	0.04774413	-0.03459248
36.30259	0.04510098	-0.03496324	0	0	-0.04776611	0.03460841
36.31914	0.04510098	-0.03496324	0	0	0	0
36.33571	0.04512724	-0.03498227	0.001585031	-0.001148804	0.04785285	-0.03468297
36.35228	0.04512724	-0.03498227	0	0	-0.04783633	0.03467099
36.36884	0.04512724	-0.03498227	0	0	0	0
36.38541	0.04525855	-0.03507742	0.007926053	-0.005743572	0.2392088	-0.1733414
36.40198	0.04525855	-0.03507742	0	0	-0.2392088	0.1733414
36.41854	0.04525855	-0.03507742	0	0	0	0
36.43511	0.04544238	-0.03521065	0.01109867	-0.008043483	0.3349971	-0.2427807
36.45168	0.04544238	-0.03521065	0	0	-0.3349586	0.2427528
36.46824	0.04544238	-0.03521065	0	0	0	0
36.48481	0.04546864	-0.03522968	0.001585396	-0.001149069	0.04785836	-0.03468696
36.50137	0.04546864	-0.03522968	0	0	-0.04785285	0.03468297
36.51794	0.04546864	-0.03522968	0	0	0	0
36.53459	0.0454949	-0.03524872	0.001577266	-0.001143014	0.04748172	-0.03440909
36.55109	0.0454949	-0.03524872	0	0	-0.04758007	0.03448036
36.56765	0.0454949	-0.03524872	0	0	0	0
36.58421	0.04552116	-0.03526775	0.001585396	-0.001149069	0.04786939	-0.03469495
36.60078	0.04552116	-0.03526775	0	0	-0.04784184	0.03467498
36.61772	0.04552116	-0.03526775	0	0	0	0
36.63391	0.04554743	-0.03528678	0.001621853	-0.001175326	0.04895889	-0.03547957
36.65048	0.04554743	-0.03528678	0	0	-0.04950041	0.035872
36.66722	0.04554743	-0.03528678	0	0	0	0
36.68371	0.04554743	-0.03528678	0	0	0	0
36.70025	0.04554743	-0.03528678	0	0	0	0
36.71675	0.04554743	-0.03528678	0	0	0	0
36.73331	0.04554743	-0.03528678	0	0	0	0
36.74988	0.04554743	-0.03528678	0	0	0	0
36.76645	0.04554743	-0.03528678	0	0	0	0
36.78302	0.04554743	-0.03528678	0	0	0	0
36.79981	0.04554743	-0.03528678	0	0	0	0
36.81615	0.04554743	-0.03528678	0	0	0	0
36.83272	0.04557369	-0.03530582	0.001585031	-0.001149029	0.04816906	-0.03491898
36.84934	0.04557369	-0.03530582	0	0	-0.04775935	0.03462197
36.86585	0.04557369	-0.03530582	0	0	0	0
36.88242	0.04557369	-0.03530582	0	0	0	0
36.89899	0.04557369	-0.03530582	0	0	0	0
36.91555	0.04557369	-0.03530582	0	0	0	0
36.93212	0.04557369	-0.03530582	0	0	0	0
36.94869	0.04557369	-0.03530582	0	0	0	0
36.96526	0.04557369	-0.03530582	0	0	0	0
36.98199	0.04557369	-0.03530582	0	0	0	0
36.99839	0.04557369	-0.03530582	0	0	0	0
37.01502	0.04557369	-0.03530582	0	0	0	0
37.03152	0.04557369	-0.03530582	0	0	0	0
37.04809	0.04557369	-0.03530582	0	0	0	0
37.06466	0.04557369	-0.03530582	0	0	0	0
37.08122	0.04557369	-0.03530582	0	0	0	0
37.09779	0.04557369	-0.03530582	0	0	0	0
37.11435	0.04557369	-0.03530582	0	0	0	0
37.13092	0.04557369	-0.03530582	0	0	0	0
37.14749	0.04557369	-0.03530582	0	0	0	0
37.16405	0.04557369	-0.03530582	0	0	0	0
37.18062	0.04557369	-0.03530582	0	0	0	0
37.19719	0.04557369	-0.03530582	0	0	0	0
37.21375	0.04557369	-0.03530582	0	0	0	0
37.23106	0.04557369	-0.03530582	0	0	0	0
37.24689	0.04557369	-0.03530582	0	0	0	0
37.26345	0.04557369	-0.03530582	0	0	0	0
37.2801	0.04557369	-0.03530582	0	0	0	0
37.29662	0.04557369	-0.03530582	0	0	0	0
37.31315	0.04557369	-0.03530582	0	0	0	0
37.33237	0.04557369	-0.03530582	0	0	0	0
37.34916	0.04557369	-0.03530582	0	0	0	0
37.36551	0.04557369	-0.03530582	0	0	0	0
37.38208	0.04557369	-0.03530582	0	0	0	0
37.39864	0.04557369	-0.03530582	0	0	0	0
37.41521	0.04557369	-0.03530582	0	0	0	0
37.43845	0.04557369	-0.03530582	0	0	0	0
37.45502	0.04557369	-0.03530582	0	0	0	0
37.47158	0.04557369	-0.03530582	0	0	0	0
37.48815	0.04557369	-0.03530582	0	0	0	0
37.50486	0.04557369	-0.03530582	0	0	0	0
37.52128	0.04557369	-0.03530582	0	0	0	0
37.53789	0.04557369	-0.03530582	0	0	0	0
37.55442	0.04557369	-0.03530582	0	0	0	0
37.57098	0.04557369	-0.03530582	0	0	0	0
37.58755	0.04557369	-0.03530582	0	0	0	0
37.60412	0.04557369	-0.03530582	0	0	0	0
37.62069	0.04557369	-0.03530582	0	0	0	0
37.63745	0.04557369	-0.03530582	0	0	0	0
37.65382	0.04557369	-0.03530582	0	0	0	0
37.67048	0.04557369	-0.03530582	0	0	0	0
37.6902	0.04557369	-0.03530582	0	0	0	0
37.70351	0.04557369	-0.03530582	0	0	0	0
37.72008	0.04557369	-0.03530582	0	0	0	0
37.73665	0.04557369	-0.03530582	0	0	0	0
37.75322	0.04557369	-0.03530582	0	0	0	0
37.76978	0.04557369	-0.03530582	0	0	0	0
37.78635	0.04557369	-0.03530582	0	0	0	0
37.80292	0.04557369	-0.03530582	0	0	0	0
37.81948	0.04557369	-0.03530582	0	0	0	0
37.83605	0.04557369	-0.03530582	0	0	0	0
37.85263	0.04557369	-0.03530582	0	0	0	0
37.86918	0.04557369	-0.03530582	0	0	0	0
37.88575	0.04557369	-0.03530582	0	0	0	0
37.90267	0.04557369	-0.03530582	0	0	0	0
37.91916	0.04557369	-0.03530582	0	0	0	0
37.93545	0.04557369	-0.03530582	0	0	0	0
37.95201	0.04557369	-0.03530582	0	0	0	0
37.97133	0.04557369	-0.03530582	0	0	0	0
37.98515	0.04557369	-0.03530582	0	0	0	0
38.00172	0.04557369	-0.03530582	0	0	0	0
38.01828	0.04557369	-0.03530582	0	0	0	0
38.03485	0.04557369	-0.03530582	0	0	0	0
38.05142	0.04557369	-0.03530582	0	0	0	0
38.06799	0.04559994	-0.03532485	0.001585031	-0.001148804	0.04783633	-0.03467099
38.08455	0.04559994	-0.03532485	0	0	-0.04783633	0.03467099
38.10129	0.04559994	-0.03532485	0	0	0	0
38.11768	0.04565247	-0.03536291	0.003204225	-0.002322205	0.09671483	-0.07009236
38.13432	0.04565247	-0.03536291	0	0	-0.09700523	0.07030282
38.15083	0.04565247	-0.03536291	0	0	0	0
38.16738	0.04575751	-0.03543905	0.006346419	-0.004599904	0.1919773	-0.1391458
38.18395	0.04575751	-0.03543905	0	0	-0.1916015	0.1388734
38.20052	0.04575751	-0.03543905	0	0	0	0
38.21708	0.04617767	-0.03574361	0.02536679	-0.01838735	0.7656592	-0.5549953
38.23365	0.04617767	-0.03574361	0	0	-0.7656592	0.5549953
38.2504	0.04617767	-0.03574361	0	0	0	0
38.26678	0.04959089	-0.0382193	0.2082758	-0.1510678	6.285777	-4.559236
38.28335	0.04959089	-0.0382193	0	0	-6.319974	4.58404
38.29992	0.04959089	-0.0382193	0	0	0	0
38.31648	0.04959089	-0.0382193	0	0	0	0
38.33305	0.04959089	-0.0382193	0	0	0	0
38.34962	0.04959089	-0.0382193	0	0	0	0
38.36649	0.04959089	-0.0382193	0	0	0	0
38.383	0.04959089	-0.0382193	0	0	0	0
38.39999	0.04959089	-0.0382193	0	0	0	0
38.41588	0.04959089	-0.0382193	0	0	0	0
38.43253	0.04959089	-0.0382193	0	0	0	0
38.44902	0.04959089	-0.0382193	0	0	0	0
38.46558	0.04956464	-0.03820024	-0.001585086	0.001150683	-0.0479484	0.03480784
38.48215	0.04956464	-0.03820024	0	0	0.04784901	-0.03473569
38.49872	0.04956464	-0.03820024	0	0	0	0
38.51556	0.04956464	-0.03820024	0	0	0	0
38.53212	0.04956464	-0.03820024	0	0	0	0
38.54884	0.04956464	-0.03820024	0	0	0	0
38.56533	0.04956464	-0.03820024	0	0	0	0
38.58183	0.04956464	-0.03820024	0	0	0	0
38.59839	0.04956464	-0.03820024	0	0	0	0
38.61496	0.04956464	-0.03820024	0	0	0	0
38.63188	0.04956464	-0.03820024	0	0	0	0
38.64809	0.04956464	-0.03820024	0	0	0	0
38.66491	0.04956464	-0.03820024	0	0	0	0
38.68123	0.04956464	-0.03820024	0	0	0	0
38.69794	0.04956464	-0.03820024	0	0	0	0
38.71436	0.04956464	-0.03820024	0	0	0	0
38.73093	0.04956464	-0.03820024	0	0	0	0
38.7475	0.04956464	-0.03820024	0	0	0	0
38.76498	0.04956464	-0.03820024	0	0	0	0
38.78062	0.04956464	-0.03820024	0	0	0	0
38.79751	0.04956464	-0.03820024	0	0	0	0
38.81376	0.04956464	-0.03820024	0	0	0	0
38.83032	0.04956464	-0.03820024	0	0	0	0
38.84689	0.04956464	-0.03820024	0	0	0	0
38.86346	0.04956464	-0.03820024	0	0	0	0
38.88005	0.04956464	-0.03820024	0	0	0	0
38.89659	0.04956464	-0.03820024	0	0	0	0
38.91316	0.04956464	-0.03820024	0	0	0	0
38.92973	0.04956464	-0.03820024	0	0	0	0
38.94629	0.04956464	-0.03820024	0	0	0	0
38.96314	0.04956464	-0.03820024	0	0	0	0
38.97943	0.04956464	-0.03820024	0	0	0	0
38.99599	0.04956464	-0.03820024	0	0	0	0
39.01256	0.04956464	-0.03820024	0	0	0	0
39.02913	0.04956464	-0.03820024	0	0	0	0
39.0457	0.04956464	-0.03820024	0	0	0	0
39.06226	0.04956464	-0.03820024	0	0	0	0
39.07923	0.04956464	-0.03820024	0	0	0	0
39.0954	0.04956464	-0.03820024	0	0	0	0
39.11197	0.04956464	-0.03820024	0	0	0	0
39.12853	0.04956464	-0.03820024	0	0	0	0
39.1451	0.04956464	-0.03820024	0	0	0	0
39.16178	0.04956464	-0.03820024	0	0	0	0
39.17823	0.04956464	-0.03820024	0	0	0	0
39.19481	0.04956464	-0.03820024	0	0	0	0
39.21136	0.04956464	-0.03820024	0	0	0	0
39.22793	0.04956464	-0.03820024	0	0	0	0
39.2445	0.04956464	-0.03820024	0	0	0	0
39.26107	0.04956464	-0.03820024	0	0	0	0
39.27763	0.04956464	-0.03820024	0	0	0	0
39.29438	0.04956464	-0.03820024	0	0	0	0
39.31089	0.04956464	-0.03820024	0	0	0	0
39.32733	0.04956464	-0.03820024	0	0	0	0
39.3439	0.04956464	-0.03820024	0	0	0	0
39.36046	0.04956464	-0.03820024	0	0	0	0
39.37703	0.04956464	-0.03820024	0	0	0	0
39.39365	0.04956464	-0.03820024	0	0	0	0
39.41016	0.04956464	-0.03820024	0	0	0	0
39.42673	0.04956464	-0.03820024	0	0	0	0
39.44369	0.04956464	-0.03820024	0	0	0	0
39.45986	0.04956464	-0.03820024	0	0	0	0
39.47643	0.04956464	-0.03820024	0	0	0	0
39.49326	0.04956464	-0.03820024	0	0	0	0
39.51026	0.04956464	-0.03820024	0	0	0	0
39.52628	0.04956464	-0.03820024	0	0	0	0
39.5427	0.04956464	-0.03820024	0	0	0	0
39.55928	0.04956464	-0.03820024	0	0	0	0
39.57583	0.04956464	-0.03820024	0	0	0	0
39.5924	0.04956464	-0.03820024	0	0	0	0
39.60932	0.04956464	-0.03820024	0	0	0	0
39.62553	0.04956464	-0.03820024	0	0	0	0
39.6421	0.04956464	-0.03820024	0	0	0	0
39.65886	0.04956464	-0.03820024	0	0	0	0
39.67523	0.04956464	-0.03820024	0	0	0	0
39.69189	0.04956464	-0.03820024	0	0	0	0
39.70839	0.04956464	-0.03820024	0	0	0	0
39.72493	0.04956464	-0.03820024	0	0	0	0
39.7415	0.04956464	-0.03820024	0	0	0	0
39.75807	0.04956464	-0.03820024	0	0	0	0
39.77464	0.04956464	-0.03820024	0	0	0	0
39.79147	0.04956464	-0.03820024	0	0	0	0
39.80777	0.04956464	-0.03820024	0	0	0	0
39.82433	0.04956464	-0.03820024	0	0	0	0
39.8409	0.04956464	-0.03820024	0	0	0	0
39.85747	0.04956464	-0.03820024	0	0	0	0
39.87403	0.04956464	-0.03820024	0	0	0	0
39.89077	0.04956464	-0.03820024	0	0	0	0
39.90717	0.04956464	-0.03820024	0	0	0	0
39.92373	0.04956464	-0.03820024	0	0	0	0
39.94031	0.04956464	-0.03820024	0	0	0	0
39.95686	0.04956464	-0.03820024	0	0	0	0
39.97343	0.04956464	-0.03820024	0	0	0	0
39.99033	0.04956464	-0.03820024	0	0	0	0
40.00656	0.04956464	-0.03820024	0	0	0	0
40.02337	0.04956464	-0.03820024	0	0	0	0
40.0397	0.04956464	-0.03820024	0	0	0	0
40.05641	0.04956464	-0.03820024	0	0	0	0
40.07283	0.04956464	-0.03820024	0	0	0	0
40.0894	0.04956464	-0.03820024	0	0	0	0
40.10596	0.04956464	-0.03820024	0	0	0	0
40.12253	0.04956464	-0.03820024	0	0	0	0
40.1391	0.04956464	-0.03820024	0	0	0	0
40.15566	0.04956464	-0.03820024	0	0	0	0
40.17223	0.04956464	-0.03820024	0	0	0	0
40.1888	0.04956464	-0.03820024	0	0	0	0
40.20536	0.04956464	-0.03820024	0	0	0	0
40.22193	0.04956464	-0.03820024	0	0	0	0
40.2385	0.04956464	-0.03820024	0	0	0	0
40.25507	0.04956464	-0.03820024	0	0	0	0
40.27182	0.04956464	-0.03820024	0	0	0	0
40.28833	0.04956464	-0.03820024	0	0	0	0
40.30477	0.04956464	-0.03820024	0	0	0	0
40.32133	0.04956464	-0.03820024	0	0	0	0
40.3379	0.04956464	-0.03820024	0	0	0	0
40.35447	0.04956464	-0.03820024	0	0	0	0
40.37137	0.04956464	-0.03820024	0	0	0	0
40.38789	0.04956464	-0.03820024	0	0	0	0
40.4044	0.04956464	-0.03820024	0	0	0	0
40.42073	0.04956464	-0.03820024	0	0	0	0
40.43737	0.04956464	-0.03820024	0	0	0	0
40.4539	0.04956464	-0.03820024	0	0	0	0
40.47043	0.04956464	-0.03820024	0	0	0	0
40.487	0.04956464	-0.03820024	0	0	0	0
40.50357	0.04956464	-0.03820024	0	0	0	0
40.52044	0.04956464	-0.03820024	0	0	0	0
40.5367	0.04956464	-0.03820024	0	0	0	0
40.55326	0.04956464	-0.03820024	0	0	0	0
40.56983	0.04956464	-0.03820024	0	0	0	0
40.58648	0.04956464	-0.03820024	0	0	0	0
40.60296	0.04956464	-0.03820024	0	0	0	0
40.61953	0.04956464	-0.03820024	0	0	0	0
40.6361	0.04956464	-0.03820024	0	0	0	0
40.65337	0.04956464	-0.03820024	0	0	0	0
40.66994	0.04956464	-0.03820024	0	0	0	0
40.6865	0.04956464	-0.03820024	0	0	0	0
40.70307	0.04956464	-0.03820024	0	0	0	0
40.72207	0.04956464	-0.03820024	0	0	0	0
40.7362	0.04956464	-0.03820024	0	0	0	0
40.75309	0.04956464	-0.03820024	0	0	0	0
40.76933	0.04956464	-0.03820024	0	0	0	0
40.78663	0.04956464	-0.03820024	0	0	0	0
40.80246	0.04956464	-0.03820024	0	0	0	0
40.81903	0.04956464	-0.03820024	0	0	0	0
40.8356	0.04956464	-0.03820024	0	0	0	0
40.85217	0.04956464	-0.03820024	0	0	0	0
40.86873	0.04956464	-0.03820024	0	0	0	0
40.8853	0.04956464	-0.03820024	0	0	0	0
40.90187	0.04956464	-0.03820024	0	0	0	0
40.91843	0.04956464	-0.03820024	0	0	0	0
40.935	0.04956464	-0.03820024	0	0	0	0
40.95157	0.04956464	-0.03820024	0	0	0	0
40.96824	0.04956464	-0.03820024	0	0	0	0
40.98475	0.04956464	-0.03820024	0	0	0	0
41.00127	0.04956464	-0.03820024	0	0	0	0
41.01805	0.04956464	-0.03820024	0	0	0	0
41.0344	0.04956464	-0.03820024	0	0	0	0
41.05097	0.04956464	-0.03820024	0	0	0	0
41.06763	0.04956464	-0.03820024	0	0	0	0
41.08411	0.04956464	-0.03820024	0	0	0	0
41.10067	0.04956464	-0.03820024	0	0	0	0
41.11723	0.04956464	-0.03820024	0	0	0	0
41.1338	0.04956464	-0.03820024	0	0	0	0
41.15037	0.04956464	-0.03820024	0	0	0	0
41.16768	0.04956464	-0.03820024	0	0	0	0
41.1835	0.04956464	-0.03820024	0	0	0	0
41.20007	0.04956464	-0.03820024	0	0	0	0
41.21671	0.04956464	-0.03820024	0	0	0	0
41.2332	0.04956464	-0.03820024	0	0	0	0
41.24977	0.04956464	-0.03820024	0	0	0	0
41.27134	0.04956464	-0.03820024	0	0	0	0
41.2829	0.04956464	-0.03820024	0	0	0	0
41.29947	0.04956464	-0.03820024	0	0	0	0
41.31604	0.04956464	-0.03820024	0	0	0	0
41.3327	0.04956464	-0.03820024	0	0	0	0
41.34922	0.04956464	-0.03820024	0	0	0	0
41.36574	0.04956464	-0.03820024	0	0	0	0
41.38231	0.04956464	-0.03820024	0	0	0	0
41.39887	0.04956464	-0.03820024	0	0	0	0
41.41544	0.04956464	-0.03820024	0	0	0	0
41.43201	0.04956464	-0.03820024	0	0	0	0
41.44878	0.04956464	-0.03820024	0	0	0	0
41.46579	0.04956464	-0.03820024	0	0	0	0
41.48182	0.04956464	-0.03820024	0	0	0	0
41.49832	0.04956464	-0.03820024	0	0	0	0
41.51484	0.04956464	-0.03820024	0	0	0	0
41.53141	0.04956464	-0.03820024	0	0	0	0
41.54797	0.04956464	-0.03820024	0	0	0	0
41.56454	0.04956464	-0.03820024	0	0	0	0
41.5811	0.04956464	-0.03820024	0	0	0	0
41.59767	0.04956464	-0.03820024	0	0	0	0
41.61435	0.04956464	-0.03820024	0	0	0	0
41.63081	0.04956464	-0.03820024	0	0	0	0
41.64737	0.04956464	-0.03820024	0	0	0	0
41.66394	0.04956464	-0.03820024	0	0	0	0
41.6809	0.04956464	-0.03820024	0	0	0	0
41.69707	0.04956464	-0.03820024	0	0	0	0
41.71364	0.04956464	-0.03820024	0	0	0	0
41.73045	0.04956464	-0.03820024	0	0	0	0
41.74677	0.04956464	-0.03820024	0	0	0	0
41.76334	0.04956464	-0.03820024	0	0	0	0
41.77997	0.04956464	-0.03820024	0	0	0	0
41.7965	0.04956464	-0.03820024	0	0	0	0
41.81304	0.04956464	-0.03820024	0	0	0	0
41.82961	0.04956464	-0.03820024	0	0	0	0
41.8488	0.04956464	-0.03820024	0	0	0	0
41.86537	0.04956464	-0.03820024	0	0	0	0
41.88194	0.04956464	-0.03820024	0	0	0	0
41.89853	0.04956464	-0.03820024	0	0	0	0
41.91507	0.04956464	-0.03820024	0	0	0	0
