Time	Pos X	Pos Y	Vel X	Vel Y	Acc X	Acc Y
0.01687583	0.09176784	-0.09993778	-0.001397862	0.001522311	2.129843E-05	-2.31946E-05
0.03313426	0.09176784	-0.09993778	0	0	-2.129833E-05	2.319449E-05
0.0497002	0.09179394	-0.09991831	0.001575484	0.001175654	0.04799739	0.03581649
0.06626812	0.09179394	-0.09991831	0	0	-0.04754906	-0.03548194
0.08283447	0.09179394	-0.09991831	0	0	0	0
0.09940001	0.09176784	-0.09989883	-0.001575522	0.001175682	-0.04755304	0.03548491
0.1159679	0.09176784	-0.09989883	0	0	0.04755078	-0.03548323
0.1325335	0.09176784	-0.09989883	0	0	0	0
0.1491014	0.09176784	-0.09989883	0	0	0	0
0.1656677	0.09176784	-0.09989883	0	0	0	0
0.1822353	0.09176784	-0.09989883	0	0	0	0
0.1988	0.09176784	-0.09993778	0	-0.002351477	0	-0.07097236
0.2153671	0.09176784	-0.09993778	0	0	0	0.07097322
0.2319343	0.09176784	-0.09993778	0	0	0	0
0.248518	0.09184612	-0.09999621	0.00472049	-0.003523183	0.1423943	-0.1062774
0.2650673	0.09184612	-0.09999621	0	0	-0.1424706	0.1063343
0.2816337	0.09184612	-0.09999621	0	0	0	0
0.2982	0.0926289	-0.1006195	0.04725127	-0.03762453	1.426123	-1.135572
0.3147675	0.0926289	-0.1006195	0	0	-1.426072	1.135531
0.3313339	0.0926289	-0.1006195	0	0	0	0
0.3479002	0.09299416	-0.1008923	0.02204816	-0.01646371	0.6654508	-0.4969027
0.3644674	0.09299416	-0.1008923	0	0	-0.6654346	0.4968906
0.3810337	0.09299416	-0.1008923	0	0	0	0
0.3992205	0.09320287	-0.1011261	0.01147566	-0.01285543	0.330205	-0.3699069
0.415788	0.09320287	-0.1011261	0	0	-0.3301937	0.3698943
0.4323559	0.09320287	-0.1011261	0	0	0	0
0.4489215	0.09330722	-0.101243	0.006299384	-0.007057685	0.1901214	-0.2130077
0.4654902	0.09330722	-0.101243	0	0	-0.1901168	0.2130025
0.4820566	0.09330722	-0.101243	0	0	0	0
0.5520903	0.09283762	-0.1015937	-0.006705272	-0.005008315	-0.07742803	-0.0578327
0.5688623	0.09283762	-0.1015937	0	0	0.07724455	0.05769565
0.5852246	0.08618074	-0.1065288	-0.4068441	-0.301615	-12.27865	-9.102809
0.6017925	0.08618074	-0.1065288	0	0	12.35474	9.159224
0.6183888	0.08618074	-0.1065288	0	0	0	0
0.6349248	0.04533733	-0.1371135	-2.469978	-1.849586	-74.54906	-55.82432
0.6514923	0.04533733	-0.1371135	0	0	74.61389	55.87287
0.6680594	0.04533733	-0.1371135	0	0	0	0
0.684625	0.001973682	-0.1699324	-2.617699	-1.981154	-79.00657	-59.79457
0.7016997	0.001973682	-0.1699324	0	0	77.81431	58.89223
0.7177588	0.001973682	-0.1699324	0	0	0	0
0.7344692	-0.02588895	-0.1912193	-1.667383	-1.273872	-50.88215	-38.87372
0.7510028	-0.02588895	-0.1912193	0	0	50.15597	38.31892
0.7674586	-0.02588895	-0.1912193	0	0	0	0
0.7840269	-0.02859746	-0.1929806	-0.1634756	-0.1063028	-4.950186	-3.218944
0.8005921	-0.02859746	-0.1929806	0	0	4.933855	3.208324
0.8171584	-0.02859746	-0.1929806	0	0	0	0
0.8337247	-0.02822934	-0.192535	0.0222212	0.02689278	0.6706734	0.8116696
0.8505694	-0.02822934	-0.192535	0	0	-0.665087	-0.8049089
0.8668582	-0.02822934	-0.192535	0	0	0	0
0.8835844	-0.02817675	-0.192535	0.003144165	0	0.09523441	0
0.8999916	-0.02817675	-0.192535	0	0	-0.094894	0
0.9165587	-0.02817675	-0.192535	0	0	0	0
0.9331251	-0.02612563	-0.1909562	0.1238123	0.09530217	3.736778	2.876313
0.9496914	-0.02612563	-0.1909562	0	0	-3.736866	-2.87638
0.9662589	-0.02612563	-0.1909562	0	0	0	0
0.9898089	-0.01370967	-0.1814669	0.5272179	0.4029449	13.14184	10.04412
1.006464	-0.01370967	-0.1814669	0	0	-13.11318	-10.02221
1.022944	-0.00639465	-0.1758731	0.4438861	0.3394396	13.39641	10.24423
1.039511	-0.00639465	-0.1758731	0	0	-13.43198	-10.27143
1.056077	-0.00639465	-0.1758731	0	0	0	0
1.072643	0.006052558	-0.1662673	0.7513528	0.5798343	22.67734	17.50057
1.089533	0.006052558	-0.1662673	0	0	-22.4582	-17.33145
1.106045	0.006052558	-0.1662673	0	0	0	0
1.122543	0.0177876	-0.1573993	0.711333	0.5375445	21.54909	16.28435
1.13891	0.0177876	-0.1573993	0	0	-21.64406	-16.35612
1.155477	0.0177876	-0.1573993	0	0	0	0
1.172095	0.01776129	-0.1575389	-0.001583135	-0.008397657	-0.04770721	-0.2530603
1.18861	0.01776129	-0.1575389	0	0	0.04778118	0.2534527
1.206125	0.01776129	-0.1575389	0	0	0	0
1.221743	0.01757714	-0.1578778	-0.01179123	-0.02170142	-0.3558755	-0.6549785
1.238548	0.01757714	-0.1578778	0	0	0.3636739	0.6693313
1.254878	0.01757714	-0.1578778	0	0	0	0
1.271568	0.0174456	-0.1580971	-0.007881247	-0.01314211	-0.2386774	-0.3979985
1.28801	0.0174456	-0.1580971	0	0	0.2378753	0.396661
1.304598	0.0174456	-0.1580971	0	0	0	0
1.321144	0.01739298	-0.1580573	-0.003180052	0.002411017	-0.09597691	0.07276672
1.33771	0.01739298	-0.1580573	0	0	0.0960398	-0.0728144
1.354277	0.01739298	-0.1580573	0	0	0	0
1.370843	0.01736668	-0.1579974	-0.001588034	0.003610517	-0.04792886	0.1089699
1.38741	0.01736668	-0.1579974	0	0	0.04792886	-0.1089699
1.403977	0.01736668	-0.1579974	0	0	0	0
1.420543	0.01734037	-0.1579376	-0.001588034	0.003610517	-0.04792886	0.1089699
1.437206	0.01734037	-0.1579376	0	0	0.04779044	-0.1086552
1.453677	0.01734037	-0.1579376	0	0	0	0
1.470246	0.01736668	-0.1579576	0.001587771	-0.001203307	0.04805562	-0.03641938
1.486811	0.01736668	-0.1579576	0	0	-0.04792041	0.03631691
1.503378	0.01736668	-0.1579576	0	0	0	0
1.519944	0.01739298	-0.1580174	0.00158808	-0.003610621	0.04793041	-0.1089735
1.53651	0.01739298	-0.1580174	0	0	-0.04793144	0.1089758
1.553238	0.01739298	-0.1580174	0	0	0	0
1.569743	0.0174456	-0.1580573	0.003187815	-0.002416	0.09592339	-0.07269897
1.586211	0.0174456	-0.1580573	0	0	-0.09667906	0.07327168
1.602777	0.0174456	-0.1580573	0	0	0	0
1.619344	0.01747191	-0.1580772	0.001588	-0.001204379	0.04792903	-0.03635059
1.635911	0.01747191	-0.1580772	0	0	-0.04792731	0.03634929
1.652799	0.01747191	-0.1580772	0	0	0	0
1.669044	0.01747191	-0.1580772	0	0	0	0
1.68561	0.01747191	-0.1580772	0	0	0	0
1.702177	0.01747191	-0.1580772	0	0	0	0
1.718841	0.01747191	-0.1580772	0	0	0	0
1.735311	0.01747191	-0.1580772	0	0	0	0
1.751877	0.01747191	-0.1580772	0	0	0	0
1.768443	0.0174456	-0.1580573	-0.00158808	0.00120444	-0.04793144	0.03635243
1.78501	0.0174456	-0.1580573	0	0	0.04793041	-0.03635164
1.801579	0.0174456	-0.1580573	0	0	0	0
1.818143	0.0174456	-0.1580573	0	0	0	0
1.834712	0.0174456	-0.1580573	0	0	0	0
1.851277	0.0174456	-0.1580573	0	0	0	0
1.867844	0.0174456	-0.1580573	0	0	0	0
1.884411	0.0174456	-0.1580573	0	0	0	0
1.900977	0.0174456	-0.1580573	0	0	0	0
1.917544	0.01747191	-0.1580772	0.001588	-0.001204379	0.04792782	-0.03634968
1.934111	0.01747191	-0.1580772	0	0	-0.04792731	0.03634929
1.950775	0.01747191	-0.1580772	0	0	0	0
1.967243	0.01747191	-0.1580772	0	0	0	0
1.98381	0.01747191	-0.1580772	0	0	0	0
2.000377	0.01747191	-0.1580772	0	0	0	0
2.016943	0.01747191	-0.1580772	0	0	0	0
2.033865	0.01747191	-0.1580772	0	0	0	0
2.050078	0.01747191	-0.1580772	0	0	0	0
2.070101	0.01747191	-0.1580772	0	0	0	0
2.083479	0.01747191	-0.1580772	0	0	0	0
2.100007	0.01747191	-0.1580772	0	0	0	0
2.116344	0.01747191	-0.1580772	0	0	0	0
2.132911	0.01747191	-0.1580772	0	0	0	0
2.149478	0.01747191	-0.1580772	0	0	0	0
2.166044	0.01747191	-0.1580772	0	0	0	0
2.182611	0.01747191	-0.1580772	0	0	0	0
2.199177	0.01747191	-0.1580772	0	0	0	0
2.215744	0.01747191	-0.1580772	0	0	0	0
2.232632	0.01747191	-0.1580772	0	0	0	0
2.248877	0.01747191	-0.1580772	0	0	0	0
2.265444	0.01747191	-0.1580772	0	0	0	0
2.282011	0.01747191	-0.1580772	0	0	0	0
2.298676	0.01747191	-0.1580772	0	0	0	0
2.315198	0.01747191	-0.1580772	0	0	0	0
2.33171	0.01747191	-0.1580772	0	0	0	0
2.348277	0.01747191	-0.1580772	0	0	0	0
2.364844	0.01747191	-0.1580772	0	0	0	0
2.381411	0.01747191	-0.1580772	0	0	0	0
2.398326	0.01747191	-0.1580772	0	0	0	0
2.414545	0.01747191	-0.1580772	0	0	0	0
2.431351	0.01747191	-0.1580772	0	0	0	0
2.447677	0.01747191	-0.1580772	0	0	0	0
2.464386	0.01747191	-0.1580772	0	0	0	0
2.480811	0.01747191	-0.1580772	0	0	0	0
2.49741	0.01747191	-0.1580772	0	0	0	0
2.513945	0.01747191	-0.1580772	0	0	0	0
2.530511	0.01747191	-0.1580772	0	0	0	0
2.547076	0.0174456	-0.1580971	-0.00158816	-0.001203601	-0.04793558	-0.03632841
2.563644	0.0174456	-0.1580971	0	0	0.04793352	0.03632684
2.580211	0.0174456	-0.1580971	0	0	0	0
2.597481	0.0174456	-0.1580971	0	0	0	0
2.617065	0.0174456	-0.1580971	0	0	0	0
2.629911	0.0174456	-0.1580971	0	0	0	0
2.646477	0.0174456	-0.1580971	0	0	0	0
2.663045	0.0174456	-0.1580971	0	0	0	0
2.679611	0.0174456	-0.1580971	0	0	0	0
2.696177	0.0174456	-0.1580971	0	0	0	0
2.712745	0.0174456	-0.1580971	0	0	0	0
2.729311	0.0174456	-0.1580971	0	0	0	0
2.745877	0.01741929	-0.1581171	-0.001588046	-0.001203515	-0.04793041	-0.03632449
2.762444	0.01741929	-0.1581171	0	0	0.04793007	0.03632423
2.779011	0.01741929	-0.1581171	0	0	0	0
2.795619	0.01739298	-0.1580971	-0.001583921	0.001200474	-0.0477434	0.03618532
2.812145	0.01739298	-0.1580971	0	0	0.04780421	-0.03623141
2.828711	0.01739298	-0.1580971	0	0	0	0
2.845639	0.01731406	-0.1580373	-0.004662149	0.003534132	-0.1391906	0.1055131
2.862653	0.01731406	-0.1580373	0	0	0.1373564	-0.1041227
2.878664	0.01731406	-0.1580373	0	0	0	0
2.896253	0.01668266	-0.1575588	-0.0358976	0.02720507	-1.068363	0.8096611
2.912821	0.01668266	-0.1575588	0	0	1.050965	-0.7964761
2.929388	0.01668266	-0.1575588	0	0	0	0
2.945954	0.005868354	-0.1493794	-0.6527999	0.4937476	-19.70225	14.90187
2.962522	0.005868354	-0.1493794	0	0	19.70211	-14.90176
2.979089	0.005868354	-0.1493794	0	0	0	0
2.995654	-0.05848585	-0.1042259	-3.884819	2.725743	-117.2517	82.26842
3.012285	-0.05848585	-0.1042259	0	0	117.0235	-82.10831
3.028788	-0.05848585	-0.1042259	0	0	0	0
3.045355	-0.1630911	-0.06138104	-6.314166	2.586196	-190.9356	78.2046
3.061922	-0.1630911	-0.06138104	0	0	190.5674	-78.05379
3.078489	-0.1630911	-0.06138104	0	0	0	0
3.095055	-0.2609627	-0.05418911	-5.908138	0.4341493	-178.3169	13.10331
3.111857	-0.2609627	-0.05418911	0	0	177.0581	-13.01081
3.128188	-0.2609627	-0.05418911	0	0	0	0
3.144891	-0.2754717	-0.05378689	-0.868687	0.02408187	-26.29745	0.7290217
3.162024	-0.2754717	-0.05378689	0	0	25.6739	-0.7117357
3.178107	-0.2754717	-0.05378689	0	0	0	0
3.194454	-0.2744479	-0.0546297	0.0626267	-0.05155669	1.931111	-1.589764
3.211021	-0.2744479	-0.0546297	0	0	-1.902714	1.566387
3.227625	-0.2744479	-0.0546297	0	0	0	0
3.244644	-0.2740577	-0.05493624	0.02292659	-0.01801231	0.6818871	-0.5357257
3.260722	-0.2740577	-0.05493624	0	0	-0.6927233	0.5442392
3.277288	-0.2740577	-0.05493624	0	0	0	0
3.293854	-0.2739358	-0.0549554	0.007361513	-0.001156533	0.2221821	-0.03490599
3.310422	-0.2739358	-0.0549554	0	0	-0.2221773	0.03490524
3.326989	-0.2739358	-0.0549554	0	0	0	0
3.343555	-0.2728379	-0.05581771	0.06627245	-0.05205223	2.000193	-1.571007
3.360219	-0.2728379	-0.05581771	0	0	-1.994366	1.566431
3.376688	-0.2728379	-0.05581771	0	0	0	0
3.393255	-0.2606188	-0.0653972	0.7375995	-0.5782606	22.32715	-17.50396
3.409822	-0.2606188	-0.0653972	0	0	-22.2616	17.45257
3.426389	-0.2606188	-0.0653972	0	0	0	0
3.444302	-0.2534311	-0.07101786	0.4012394	-0.3137656	11.63676	-9.099844
3.46087	-0.2534311	-0.07101786	0	0	-11.63636	9.099529
3.477437	-0.2534311	-0.07101786	0	0	0	0
3.494003	-0.2534311	-0.07101786	0	0	0	0
3.510571	-0.2534311	-0.07101786	0	0	0	0
3.527137	-0.2534311	-0.07101786	0	0	0	0
3.543703	-0.2534311	-0.07101786	0	0	0	0
3.560358	-0.2534311	-0.07101786	0	0	0	0
3.57687	-0.2534311	-0.07101786	0	0	0	0
3.593414	-0.2534311	-0.07101786	0	0	0	0
3.60997	-0.2534311	-0.07101786	0	0	0	0
3.626916	-0.2534311	-0.07101786	0	0	0	0
3.643414	-0.2534558	-0.07099859	-0.001495686	0.001167828	-0.04472221	0.03491897
3.65967	-0.2534558	-0.07099859	0	0	0.04566431	-0.03565456
3.676238	-0.2534558	-0.07099859	0	0	0	0
3.69848	-0.2534311	-0.07101786	0.001109444	-0.0008662504	0.02858653	-0.02232028
3.709369	-0.2534311	-0.07101786	0	0	-0.03348573	0.02614556
3.725937	-0.2534311	-0.07101786	0	0	0	0
3.742503	-0.2534311	-0.07101786	0	0	0	0
3.759094	-0.2534311	-0.07101786	0	0	0	0
3.775636	-0.2534311	-0.07101786	0	0	0	0
3.792203	-0.2534311	-0.07101786	0	0	0	0
3.809108	-0.2534311	-0.07101786	0	0	0	0
3.825618	-0.2534311	-0.07101786	0	0	0	0
3.841904	-0.2534311	-0.07101786	0	0	0	0
3.858649	-0.2534311	-0.07101786	0	0	0	0
3.87518	-0.2534311	-0.07101786	0	0	0	0
3.891606	-0.2534311	-0.07101786	0	0	0	0
3.908171	-0.2534311	-0.07101786	0	0	0	0
3.924737	-0.2534311	-0.07101786	0	0	0	0
3.941305	-0.2534311	-0.07101786	0	0	0	0
3.958251	-0.2534311	-0.07101786	0	0	0	0
3.974518	-0.2534311	-0.07101786	0	0	0	0
3.991004	-0.2534311	-0.07101786	0	0	0	0
4.00805	-0.2534311	-0.07101786	0	0	0	0
4.024137	-0.2534311	-0.07101786	0	0	0	0
4.040706	-0.2534311	-0.07101786	0	0	0	0
4.057271	-0.2534311	-0.07101786	0	0	0	0
4.073836	-0.2531352	-0.07117201	0.01786485	-0.009305735	0.5392244	-0.28088
4.090405	-0.2531352	-0.07117201	0	0	-0.5391623	0.2808476
4.107115	-0.2531352	-0.07117201	0	0	0	0
4.123626	-0.2354455	-0.0838029	1.071425	-0.7650221	32.25213	-23.02876
4.140106	-0.2354455	-0.0838029	0	0	-32.47635	23.18886
4.156673	-0.2354455	-0.0838029	0	0	0	0
4.173236	-0.1698732	-0.1341505	3.958973	-3.039773	119.4975	-91.75241
4.190158	-0.1698732	-0.1341505	0	0	-118.2315	90.78031
4.206682	-0.1698732	-0.1341505	0	0	0	0
4.222936	-0.09064565	-0.1859642	4.874359	-3.187762	148.7092	-97.25374
4.239503	-0.09064565	-0.1859642	0	0	-148.5126	97.12516
4.25607	-0.09064565	-0.1859642	0	0	0	0
4.272637	-0.00449997	-0.1958989	5.199913	-0.5996757	156.9382	-18.09877
4.289207	-0.00449997	-0.1958989	0	0	-156.9201	18.09669
4.30577	-0.00449997	-0.1958989	0	0	0	0
4.322337	0.05533818	-0.1753507	3.611942	1.240329	109.0243	37.43859
4.338903	0.05533818	-0.1753507	0	0	-109.0149	-37.43536
4.355739	0.05533818	-0.1753507	0	0	0	0
4.372036	0.07998688	-0.1562832	1.512437	1.16997	45.64674	35.31079
4.388604	0.07998688	-0.1562832	0	0	-46.01961	-35.59923
4.40517	0.07998688	-0.1562832	0	0	0	0
4.421737	0.08463941	-0.1527392	0.2808434	0.2139287	8.476359	6.456754
4.438314	0.08463941	-0.1527392	0	0	-8.473555	-6.454618
4.45487	0.08463941	-0.1527392	0	0	0	0
4.471438	0.08445651	-0.1528785	-0.01103936	-0.008405886	-0.333274	-0.2537705
4.488003	0.08445651	-0.1528785	0	0	0.3331829	0.2537011
4.504571	0.08445651	-0.1528785	0	0	0	0
4.521136	0.08414296	-0.1527591	-0.01892811	0.00720621	-0.5712761	0.2174933
4.537703	0.08414296	-0.1527591	0	0	0.5712926	-0.2174995
4.554271	0.08414296	-0.1527591	0	0	0	0
4.570836	0.08377713	-0.1524806	-0.02208414	0.01681329	-0.6665295	0.507448
4.587403	0.08377713	-0.1524806	0	0	0.6665391	-0.5074553
4.60397	0.08377713	-0.1524806	0	0	0	0
4.620967	0.08341128	-0.1526	-0.02152372	-0.007022176	-0.6412721	-0.2092169
4.637474	0.08341128	-0.1526	0	0	0.6424221	0.2095921
4.653669	0.08341128	-0.1526	0	0	0	0
4.670504	0.08320221	-0.1526795	-0.01241936	-0.004726802	-0.3760075	-0.1431082
4.686804	0.08320221	-0.1526795	0	0	0.374817	0.1426551
4.703521	0.08320221	-0.1526795	0	0	0	0
4.720495	0.08314994	-0.1526795	-0.003079527	0	-0.09140392	0
4.737063	0.08314994	-0.1526795	0	0	0.09181064	0
4.75363	0.08314994	-0.1526795	0	0	0	0
4.770196	0.08307154	-0.1526199	-0.004732654	0.003602448	-0.142838	0.1087268
4.786763	0.08307154	-0.1526199	0	0	0.142838	-0.1087268
4.803329	0.08307154	-0.1526199	0	0	0	0
4.819896	0.08307154	-0.1526199	0	0	0	0
4.836462	0.08307154	-0.1526199	0	0	0	0
4.85303	0.08307154	-0.1526199	0	0	0	0
4.869776	0.08304541	-0.1526	-0.001560275	0.001187891	-0.04683578	0.03565769
4.886163	0.08304541	-0.1526	0	0	0.04709124	-0.03585218
4.902786	0.08304541	-0.1526	0	0	0	0
4.919304	0.08299313	-0.1525602	-0.003164603	0.002408634	-0.09548866	0.07267808
4.936312	0.08299313	-0.1525602	0	0	0.09439265	-0.07184389
4.952429	0.08299313	-0.1525602	0	0	0	0
4.968996	0.0828886	-0.1525204	-0.006310174	0.002401563	-0.193067	0.07347858
4.985563	0.0828886	-0.1525204	0	0	0.1904414	-0.07247931
5.00213	0.0828886	-0.1525204	0	0	0	0
5.018696	0.08283632	-0.1524806	-0.003155403	0.002401632	-0.09523572	0.07248557
5.035263	0.08283632	-0.1524806	0	0	0.09523435	-0.07248453
5.051829	0.08283632	-0.1524806	0	0	0	0
5.068408	0.08281019	-0.1524607	-0.001576476	0.001199884	-0.0475624	0.03620058
5.084969	0.08281019	-0.1524607	0	0	0.04756993	-0.03620631
5.101529	0.08281019	-0.1524607	0	0	0	0
5.118095	0.08281019	-0.1524607	0	0	0	0
5.134663	0.08281019	-0.1524607	0	0	0	0
5.151229	0.08281019	-0.1524607	0	0	0	0
5.167958	0.08278405	-0.1524806	-0.001562322	-0.00118911	-0.04692273	-0.03571371
5.184363	0.08278405	-0.1524806	0	0	0.04715165	0.03588794
5.200929	0.08278405	-0.1524806	0	0	0	0
5.217508	0.08275792	-0.1525005	-0.001576027	-0.001199884	-0.04754885	-0.03620058
5.234062	0.08275792	-0.1525005	0	0	0.04756664	0.03621412
5.251033	0.08275792	-0.1525005	0	0	0	0
5.267544	0.08273178	-0.1525204	-0.001582987	-0.001204839	-0.04727931	-0.0359851
5.283762	0.08273178	-0.1525204	0	0	0.04836556	0.03681187
5.300568	0.08273178	-0.1525204	0	0	0	0
5.316895	0.08267951	-0.1525602	-0.003201571	-0.002436772	-0.09662917	-0.07354615
5.333463	0.08267951	-0.1525602	0	0	0.09732673	0.07407707
5.355776	0.08267951	-0.1525602	0	0	0	0
5.368137	0.08265337	-0.1525801	-0.002114517	-0.001609395	-0.06098248	-0.04641483
5.384705	0.08265337	-0.1525801	0	0	0.07309514	0.05563398
5.401271	0.08265337	-0.1525801	0	0	0	0
5.417837	0.08265337	-0.1525801	0	0	0	0
5.434673	0.08265337	-0.1525801	0	0	0	0
5.450971	0.08265337	-0.1525801	0	0	0	0
5.467537	0.08262724	-0.1526	-0.001577701	-0.001200816	-0.04800754	-0.03653938
5.484208	0.08262724	-0.1526	0	0	0.04746757	0.03612839
5.500671	0.08262724	-0.1526	0	0	0	0
5.517252	0.08257496	-0.1526398	-0.003152499	-0.002399422	-0.09540209	-0.0726122
5.533805	0.08257496	-0.1526398	0	0	0.09514397	0.07241574
5.550371	0.08257496	-0.1526398	0	0	0	0
5.566938	0.08247042	-0.1527193	-0.006310442	-0.004803887	-0.1904577	-0.1449879
5.583505	0.08247042	-0.1527193	0	0	0.1904523	0.1449837
5.600278	0.08247042	-0.1527193	0	0	0	0
5.616637	0.082392	-0.152779	-0.004793574	-0.003648126	-0.1446808	-0.1101086
5.633455	0.082392	-0.152779	0	0	0.1444853	0.1099598
5.64977	0.082392	-0.152779	0	0	0	0
5.666337	0.08233973	-0.1528586	-0.003155403	-0.004804164	-0.09596217	-0.1461043
5.682904	0.08233973	-0.1528586	0	0	0.09523298	0.1449941
5.699471	0.08233973	-0.1528586	0	0	0	0
5.716037	0.08228745	-0.1528984	-0.003155312	-0.002401563	-0.09523024	-0.07248139
5.733025	0.08228745	-0.1528984	0	0	0.09403662	0.07157291
5.749522	0.08228745	-0.1528984	0	0	0	0
5.765737	0.08213062	-0.1530178	-0.009672291	-0.007362888	-0.2956803	-0.2250823
5.782304	0.08213062	-0.1530178	0	0	0.2950438	0.2245977
5.798871	0.08213062	-0.1530178	0	0	0	0
5.815556	0.08116341	-0.1537541	-0.05797013	-0.04413136	-1.743395	-1.327208
5.832004	0.08116341	-0.1537541	0	0	1.749643	1.331964
5.84857	0.08116341	-0.1537541	0	0	0	0
5.865137	0.07993458	-0.1546898	-0.0741767	-0.05648063	-2.238754	-1.704662
5.881704	0.07993458	-0.1546898	0	0	2.238722	1.704638
5.89827	0.07993458	-0.1546898	0	0	0	0
5.914836	0.07993458	-0.1546898	0	0	0	0
5.931404	0.07993458	-0.1546898	0	0	0	0
5.948148	0.07993458	-0.1546898	0	0	0	0
5.964537	0.07993458	-0.1546898	0	0	0	0
5.981154	0.07993458	-0.1546898	0	0	0	0
5.997671	0.07993458	-0.1546898	0	0	0	0
6.014237	0.07993458	-0.1546898	0	0	0	0
6.030805	0.07993458	-0.1546898	0	0	0	0
6.04737	0.07993458	-0.1546898	0	0	0	0
6.063937	0.07993458	-0.1546898	0	0	0	0
6.080504	0.07993458	-0.1546898	0	0	0	0
6.097271	0.07993458	-0.1546898	0	0	0	0
6.113637	0.07993458	-0.1546898	0	0	0	0
6.13027	0.07993458	-0.1546898	0	0	0	0
6.146771	0.07993458	-0.1546898	0	0	0	0
6.16709	0.07993458	-0.1546898	0	0	0	0
6.180076	0.07993458	-0.1546898	0	0	0	0
6.196569	0.07993458	-0.1546898	0	0	0	0
6.213038	0.07993458	-0.1546898	0	0	0	0
6.229608	0.07993458	-0.1546898	0	0	0	0
6.246171	0.07993458	-0.1546898	0	0	0	0
6.262739	0.07993458	-0.1546898	0	0	0	0
6.279305	0.07993458	-0.1546898	0	0	0	0
6.295872	0.07996073	-0.1547097	0.001578151	-0.001201716	0.04763075	-0.03626941
6.312439	0.07996073	-0.1547097	0	0	-0.04763007	0.03626889
6.329005	0.07996073	-0.1547097	0	0	0	0
6.345571	0.07996073	-0.1547097	0	0	0	0
6.362201	0.07996073	-0.1547097	0	0	0	0
6.378705	0.07996073	-0.1547097	0	0	0	0
6.395271	0.07996073	-0.1547097	0	0	0	0
6.411839	0.07996073	-0.1547097	0	0	0	0
6.428405	0.07996073	-0.1547097	0	0	0	0
6.44497	0.07996073	-0.1547097	0	0	0	0
6.461539	0.07996073	-0.1547097	0	0	0	0
6.478104	0.07996073	-0.1547097	0	0	0	0
6.49467	0.07996073	-0.1547097	0	0	0	0
6.511238	0.07996073	-0.1547097	0	0	0	0
6.527803	0.07996073	-0.1547097	0	0	0	0
6.544369	0.07996073	-0.1547097	0	0	0	0
6.560937	0.07996073	-0.1547097	0	0	0	0
6.577504	0.07996073	-0.1547097	0	0	0	0
6.594069	0.07996073	-0.1547097	0	0	0	0
6.610636	0.07996073	-0.1547097	0	0	0	0
6.627203	0.07996073	-0.1547097	0	0	0	0
6.64377	0.07996073	-0.1547097	0	0	0	0
6.660571	0.07996073	-0.1547097	0	0	0	0
6.676903	0.07996073	-0.1547097	0	0	0	0
6.693469	0.07996073	-0.1547097	0	0	0	0
6.710036	0.07996073	-0.1547097	0	0	0	0
6.726602	0.07996073	-0.1547097	0	0	0	0
6.743324	0.07996073	-0.1547097	0	0	0	0
6.759824	0.07996073	-0.1547097	0	0	0	0
6.776302	0.07996073	-0.1547097	0	0	0	0
6.792876	0.07996073	-0.1547097	0	0	0	0
6.809437	0.07996073	-0.1547097	0	0	0	0
6.826003	0.07996073	-0.1547097	0	0	0	0
6.842569	0.07996073	-0.1547097	0	0	0	0
6.859136	0.07996073	-0.1547097	0	0	0	0
6.875917	0.07996073	-0.1547097	0	0	0	0
6.89243	0.07998688	-0.1547296	0.001583706	-0.001205602	0.04756703	-0.03621057
6.908837	0.07998688	-0.1547296	0	0	-0.04810859	0.03662284
6.925403	0.07998688	-0.1547296	0	0	0	0
6.941998	0.07998688	-0.1547296	0	0	0	0
6.958994	0.07998688	-0.1547296	0	0	0	0
6.975103	0.07998688	-0.1547296	0	0	0	0
6.996016	0.07998688	-0.1547296	0	0	0	0
7.012584	0.07998688	-0.1547296	0	0	0	0
7.02915	0.07998688	-0.1547296	0	0	0	0
7.045718	0.07998688	-0.1547296	0	0	0	0
7.062284	0.07998688	-0.1547296	0	0	0	0
7.07885	0.07998688	-0.1547296	0	0	0	0
7.095712	0.07998688	-0.1547296	0	0	0	0
7.111984	0.07998688	-0.1547296	0	0	0	0
7.128711	0.07998688	-0.1547296	0	0	0	0
7.145117	0.07998688	-0.1547296	0	0	0	0
7.161765	0.07998688	-0.1547296	0	0	0	0
7.17825	0.07996073	-0.1547495	-0.001586409	-0.00120766	-0.04787999	-0.03644881
7.195258	0.07996073	-0.1547495	0	0	0.04736533	0.03605703
7.211384	0.07996073	-0.1547495	0	0	0	0
7.22795	0.07996073	-0.1547495	0	0	0	0
7.244517	0.07996073	-0.1547495	0	0	0	0
7.261085	0.07996073	-0.1547495	0	0	0	0
7.280429	0.07998688	-0.1547694	0.001351863	-0.001029881	0.03764374	-0.02867788
7.296997	0.07998688	-0.1547694	0	0	-0.03764324	0.0286775
7.313564	0.07998688	-0.1547694	0	0	0	0
7.33013	0.07998688	-0.1547694	0	0	0	0
7.346833	0.07998688	-0.1547694	0	0	0	0
7.363328	0.07998688	-0.1547694	0	0	0	0
7.37983	0.07998688	-0.1547694	0	0	0	0
7.396856	0.07998688	-0.1547694	0	0	0	0
7.412965	0.07998688	-0.1547694	0	0	0	0
7.429861	0.07998688	-0.1547694	0	0	0	0
7.446401	0.07998688	-0.1547694	0	0	0	0
7.462884	0.07998688	-0.1547694	0	0	0	0
7.479408	0.07998688	-0.1547694	0	0	0	0
7.495797	0.07998688	-0.1547694	0	0	0	0
7.512364	0.07998688	-0.1547694	0	0	0	0
7.528948	0.07998688	-0.1547694	0	0	0	0
7.545805	0.07998688	-0.1547694	0	0	0	0
7.562815	0.07998688	-0.1547694	0	0	0	0
7.578822	0.07998688	-0.1547694	0	0	0	0
7.595197	0.07998688	-0.1547694	0	0	0	0
7.611764	0.07998688	-0.1547694	0	0	0	0
7.628385	0.07998688	-0.1547694	0	0	0	0
7.644897	0.07998688	-0.1547694	0	0	0	0
7.661465	0.07998688	-0.1547694	0	0	0	0
7.67803	0.07998688	-0.1547694	0	0	0	0
7.694911	0.07998688	-0.1547694	0	0	0	0
7.711452	0.07998688	-0.1547694	0	0	0	0
7.72773	0.07998688	-0.1547694	0	0	0	0
7.744432	0.07998688	-0.1547694	0	0	0	0
7.760864	0.07998688	-0.1547694	0	0	0	0
7.777431	0.07998688	-0.1547694	0	0	0	0
7.793998	0.07998688	-0.1547694	0	0	0	0
7.810565	0.07998688	-0.1547694	0	0	0	0
7.827195	0.07996073	-0.1547495	-0.001572581	0.001198029	-0.04737059	0.03608802
7.843697	0.07996073	-0.1547495	0	0	0.04746468	-0.0361597
7.860264	0.07996073	-0.1547495	0	0	0	0
7.877223	0.07996073	-0.1547495	0	0	0	0
7.893397	0.07996073	-0.1547495	0	0	0	0
7.909964	0.07996073	-0.1547495	0	0	0	0
7.926531	0.07998688	-0.1547694	0.00157851	-0.001202546	0.04764089	-0.03629395
7.943098	0.07998688	-0.1547694	0	0	-0.04763952	0.0362929
7.960283	0.07998688	-0.1547694	0	0	0	0
7.97623	0.07998688	-0.1547694	0	0	0	0
7.992797	0.07998688	-0.1547694	0	0	0	0
8.009364	0.07998688	-0.1547694	0	0	0	0
8.02593	0.07998688	-0.1547694	0	0	0	0
8.042497	0.07998688	-0.1547694	0	0	0	0
8.059104	0.07998688	-0.1547694	0	0	0	0
8.075629	0.07998688	-0.1547694	0	0	0	0
8.092536	0.07998688	-0.1547694	0	0	0	0
8.109057	0.07998688	-0.1547694	0	0	0	0
8.125329	0.07996073	-0.1547893	-0.00160719	-0.001223479	-0.04901009	-0.0373091
8.141895	0.07996073	-0.1547893	0	0	0.04894319	0.03725817
8.158578	0.07996073	-0.1547893	0	0	0	0
8.175028	0.07990843	-0.1548292	-0.003179079	-0.002421336	-0.09595032	-0.07308027
8.191595	0.07990843	-0.1548292	0	0	0.09628567	0.07333568
8.208161	0.07990843	-0.1548292	0	0	0	0
8.224728	0.07988228	-0.1548491	-0.001578601	-0.001201716	-0.04764501	-0.03626994
8.241296	0.07988228	-0.1548491	0	0	0.04764227	0.03626785
8.257862	0.07988228	-0.1548491	0	0	0	0
8.274428	0.07988228	-0.1548491	0	0	0	0
8.290996	0.07988228	-0.1548491	0	0	0	0
8.307668	0.07988228	-0.1548491	0	0	0	0
8.32413	0.07988228	-0.1548491	0	0	0	0
8.340706	0.07988228	-0.1548491	0	0	0	0
8.357271	0.07988228	-0.1548491	0	0	0	0
8.373828	0.07990843	-0.1548292	0.00157951	0.001202408	0.04768755	0.03630232
8.390395	0.07990843	-0.1548292	0	0	-0.04768481	-0.03630023
8.406963	0.07990843	-0.1548292	0	0	0	0
8.423528	0.07988228	-0.1548092	-0.001578783	0.001202754	-0.04765049	0.03630126
8.440096	0.07988228	-0.1548092	0	0	0.04765049	-0.03630126
8.456663	0.07988228	-0.1548092	0	0	0	0
8.473384	0.07996073	-0.1548292	0.004691599	-0.001191503	0.1409397	-0.03579377
8.489795	0.07996073	-0.1548292	0	0	-0.141605	0.03596274
8.506429	0.07996073	-0.1548292	0	0	0	0
8.522926	0.07998688	-0.1548491	0.001585171	-0.001206717	0.04784469	-0.03642194
8.539495	0.07998688	-0.1548491	0	0	-0.04793852	0.03649337
8.556463	0.07998688	-0.1548491	0	0	0	0
8.572626	0.08001302	-0.154869	0.00161754	-0.001231709	0.04882307	-0.03717732
8.589467	0.08001302	-0.154869	0	0	-0.0490107	0.0373202
8.606007	0.08001302	-0.154869	0	0	0	0
8.622326	0.07998688	-0.1548889	-0.001602037	-0.001220817	-0.04875513	-0.03715338
8.638893	0.07998688	-0.1548889	0	0	0.04871413	0.03712213
8.655495	0.07998688	-0.1548889	0	0	0	0
8.672035	0.07998688	-0.1548889	0	0	0	0
8.688593	0.07998688	-0.1548889	0	0	0	0
8.70516	0.07998688	-0.1548889	0	0	0	0
8.722038	0.07998688	-0.1548889	0	0	0	0
8.738293	0.07998688	-0.1548889	0	0	0	0
8.754859	0.07998688	-0.1548889	0	0	0	0
8.771425	0.08100656	-0.1551478	0.06155149	-0.0156268	1.857735	-0.4716449
8.788096	0.08100656	-0.1551478	0	0	-1.851871	0.4701563
8.804593	0.08100656	-0.1551478	0	0	0	0
8.821125	0.1158993	-0.172961	2.110626	-1.077503	63.90297	-32.62333
8.837691	0.1158993	-0.172961	0	0	-63.76855	32.55471
8.854259	0.1158993	-0.172961	0	0	0	0
8.870824	0.2097631	-0.1995727	5.666279	-1.606468	171.0185	-48.48608
8.888166	0.2097631	-0.1995727	0	0	-167.108	47.3774
8.905031	0.2097631	-0.1995727	0	0	0	0
8.920526	0.2843437	-0.2226119	4.813414	-1.486949	148.7498	-45.95145
8.937092	0.2843437	-0.2226119	0	0	-150.1348	46.37928
8.953722	0.2843437	-0.2226119	0	0	0	0
8.970231	0.2943032	-0.2311323	0.6032725	-0.5160998	18.20418	-15.57368
8.987247	0.2943032	-0.2311323	0	0	-17.99497	15.3947
9.003359	0.2943032	-0.2311323	0	0	0	0
9.019925	0.2941345	-0.2310292	-0.010184	0.006224454	-0.3116412	0.1904749
9.036781	0.2941345	-0.2310292	0	0	0.3047052	-0.1862356
9.053059	0.2941345	-0.2310292	0	0	0	0
9.069805	0.2936765	-0.2309673	-0.02735087	0.003694476	-0.828216	0.111873
9.086192	0.2936765	-0.2309673	0	0	0.8254746	-0.1115027
9.102845	0.2936765	-0.2309673	0	0	0	0
9.119342	0.2927118	-0.2317923	-0.05847858	-0.0500121	-1.764075	-1.508674
9.135893	0.2927118	-0.2317923	0	0	1.769522	1.513332
9.152459	0.2927118	-0.2317923	0	0	0	0
9.169025	0.2889924	-0.2349305	-0.2245139	-0.1894339	-6.776234	-5.717456
9.186016	0.2889924	-0.2349305	0	0	6.690536	5.645149
9.202159	0.2889924	-0.2349305	0	0	0	0
9.218725	0.2889924	-0.2349305	0	0	0	0
9.235291	0.2889924	-0.2349305	0	0	0	0
9.251858	0.2889924	-0.2349305	0	0	0	0
9.268425	0.288799	-0.2347652	-0.01167648	0.009976543	-0.3524069	0.3011013
9.284991	0.288799	-0.2347652	0	0	0.3524069	-0.3011013
9.301601	0.288799	-0.2347652	0	0	0	0
9.318124	0.2888473	-0.2346826	0.002927489	0.005001804	0.08835688	0.1509634
9.334691	0.2888473	-0.2346826	0	0	-0.08847148	-0.1511592
9.351257	0.2888473	-0.2346826	0	0	0	0
9.367825	0.2888473	-0.2346826	0	0	0	0
9.384666	0.2888473	-0.2346826	0	0	0	0
9.401172	0.2888473	-0.2346826	0	0	0	0
9.41766	0.2888473	-0.2346826	0	0	0	0
9.434092	0.2888473	-0.2346826	0	0	0	0
9.450656	0.2888473	-0.2346826	0	0	0	0
9.467223	0.2888473	-0.2346826	0	0	0	0
9.483789	0.2888473	-0.2346826	0	0	0	0
9.500356	0.2888473	-0.2346826	0	0	0	0
9.516922	0.2888473	-0.2346826	0	0	0	0
9.533488	0.2888473	-0.2346826	0	0	0	0
9.550263	0.2888473	-0.2346826	0	0	0	0
9.566622	0.2888473	-0.2346826	0	0	0	0
9.583289	0.2888473	-0.2346826	0	0	0	0
9.599755	0.2888473	-0.2346826	0	0	0	0
9.616322	0.2888473	-0.2346826	0	0	0	0
9.632889	0.2888473	-0.2346826	0	0	0	0
9.649455	0.2888473	-0.2346826	0	0	0	0
9.666372	0.288799	-0.2346413	-0.002859166	0.002442535	-0.08539029	0.07294741
9.682589	0.288799	-0.2346413	0	0	0.0862923	-0.07371797
9.699156	0.288799	-0.2346413	0	0	0	0
9.719122	0.2887748	-0.2346206	-0.001210534	0.001034403	-0.03313505	0.02831392
9.732287	0.2887748	-0.2346206	0	0	0.03653716	-0.03122103
9.748855	0.2887748	-0.2346206	0	0	0	0
9.765421	0.2887506	-0.2346413	-0.001460768	-0.00124669	-0.04408733	-0.03762626
9.781988	0.2887506	-0.2346413	0	0	0.04408733	0.03762626
9.79908	0.2887506	-0.2346413	0	0	0	0
9.815121	0.2887506	-0.2346413	0	0	0	0
9.831688	0.2887506	-0.2346413	0	0	0	0
9.848255	0.2887506	-0.2346413	0	0	0	0
9.864821	0.2887506	-0.2346413	0	0	0	0
9.881389	0.2887506	-0.2346413	0	0	0	0
9.898138	0.2887506	-0.2346413	0	0	0	0
9.914522	0.2887022	-0.2346	-0.002952197	0.00252201	-0.08910006	0.07611659
9.93117	0.2887022	-0.2346	0	0	0.08937531	-0.07635174
9.947681	0.2887022	-0.2346	0	0	0	0
9.964222	0.2798283	-0.2270117	-0.5364968	0.4587654	-16.23168	13.87992
9.98079	0.2798283	-0.2270117	0	0	16.2041	-13.85634
9.997355	0.2798283	-0.2270117	0	0	0	0
10.0141	0.1999752	-0.1618291	-4.769425	3.893198	-143.1915	116.8847
10.03049	0.1999752	-0.1618291	0	0	143.9457	-117.5003
10.04706	0.1999752	-0.1618291	0	0	0	0
10.06362	0.09539379	-0.08411264	-6.312909	4.691243	-190.5349	141.5901
10.08019	0.09539379	-0.08411264	0	0	190.5295	-141.5861
10.09676	0.09539379	-0.08411264	0	0	0	0
10.11332	0.03330347	-0.09074195	-3.747995	-0.4001686	-113.1212	-12.07781
10.12989	0.03330347	-0.09074195	0	0	113.1147	12.07711
10.1467	0.03330347	-0.09074195	0	0	0	0
10.16302	0.005078904	-0.1130584	-1.729523	-1.367492	-52.20013	-41.27337
10.17959	0.005078904	-0.1130584	0	0	52.59067	41.58216
10.19616	0.005078904	-0.1130584	0	0	0	0
10.21274	0.003789456	-0.115193	-0.07774622	-0.1287003	-2.34517	-3.882171
10.22974	0.003789456	-0.115193	0	0	2.31474	3.831796
10.24586	0.003789456	-0.115193	0	0	0	0
10.26242	0.003815771	-0.1151734	0.001588481	0.001182826	0.04860921	0.03619574
10.27899	0.003815771	-0.1151734	0	0	-0.04794322	-0.03569982
10.29555	0.003815771	-0.1151734	0	0	0	0
10.31262	0.003868402	-0.1151734	0.003084307	0	0.09171194	0
10.3291	0.003868402	-0.1151734	0	0	-0.09194922	0
10.34525	0.003868402	-0.1151734	0	0	0	0
10.36182	0.005394685	-0.1162707	0.09213192	-0.06623917	2.815473	-2.024213
10.37839	0.005394685	-0.1162707	0	0	-2.780627	1.99916
10.39495	0.005394685	-0.1162707	0	0	0	0
10.41165	0.02746678	-0.1326901	1.321699	-0.9832079	39.73114	-29.55588
10.42809	0.02746678	-0.1326901	0	0	-39.89009	29.67413
10.44465	0.02746678	-0.1326901	0	0	0	0
10.46122	0.05074587	-0.1502338	1.40521	-1.059002	42.41176	-31.96258
10.47779	0.05074587	-0.1502338	0	0	-42.40932	31.96074
10.49435	0.05074587	-0.1502338	0	0	0	0
10.51092	0.06813123	-0.1634474	1.049443	-0.7976234	31.67498	-24.0744
10.52749	0.06813123	-0.1634474	0	0	-31.67225	24.07232
10.54406	0.06813123	-0.1634474	0	0	0	0
10.56062	0.07569719	-0.169231	0.4567612	-0.3491538	13.78627	-10.53839
10.57758	0.07569719	-0.169231	0	0	-13.62663	10.41636
10.59375	0.07569719	-0.169231	0	0	0	0
10.6106	0.07590651	-0.1693913	0.01242482	-0.009515638	0.376227	-0.2881362
10.62689	0.07590651	-0.1693913	0	0	-0.3749925	0.2871908
10.64362	0.07590651	-0.1693913	0	0	0	0
10.66002	0.07585418	-0.1693512	-0.00319088	0.002443479	-0.09630373	0.07374647
10.67659	0.07585418	-0.1693512	0	0	0.09679407	-0.07412195
10.69315	0.07585418	-0.1693512	0	0	0	0
10.70972	0.07585418	-0.1693512	0	0	0	0
10.72629	0.07585418	-0.1693512	0	0	0	0
10.74285	0.07585418	-0.1693512	0	0	0	0
10.75942	0.07585418	-0.1693512	0	0	0	0
10.77599	0.07585418	-0.1693512	0	0	0	0
10.79255	0.07585418	-0.1693512	0	0	0	0
10.80912	0.07582802	-0.1693712	-0.0015795	-0.001208911	-0.04767216	-0.03648712
10.82569	0.07582802	-0.1693712	0	0	0.04767216	0.03648712
10.84282	0.07582802	-0.1693712	0	0	0	0
10.85882	0.07585418	-0.1693913	0.001635424	-0.001252645	0.0493586	-0.03780599
10.87539	0.07585418	-0.1693913	0	0	-0.05021716	0.0384636
10.89195	0.07585418	-0.1693913	0	0	0	0
10.90852	0.07585418	-0.1693913	0	0	0	0
10.92538	0.07585418	-0.1693913	0	0	0	0
10.94165	0.07585418	-0.1693913	0	0	0	0
10.95866	0.07588034	-0.1694113	0.001537711	-0.001178138	0.04620209	-0.03539836
10.97523	0.07588034	-0.1694113	0	0	-0.0457927	0.03508469
10.9918	0.07588034	-0.1694113	0	0	0	0
11.00836	0.07590651	-0.1694313	0.0015795	-0.001209811	0.04767216	-0.03651427
11.02494	0.07590651	-0.1694313	0	0	-0.04765981	0.03650481
11.0415	0.07590651	-0.1694313	0	0	0	0
11.05806	0.07590651	-0.1694313	0	0	0	0
11.07463	0.07590651	-0.1694313	0	0	0	0
11.09129	0.07590651	-0.1694313	0	0	0	0
11.10813	0.07588034	-0.1694113	-0.00155374	0.00119008	-0.0463873	0.03553014
11.12433	0.07588034	-0.1694113	0	0	0.04701783	-0.03601309
11.1409	0.07588034	-0.1694113	0	0	0	0
11.15746	0.07588034	-0.1694113	0	0	0	0
11.17403	0.07588034	-0.1694113	0	0	0	0
11.19122	0.07588034	-0.1694113	0	0	0	0
11.20722	0.07588034	-0.1694113	0	0	0	0
11.22373	0.07588034	-0.1694113	0	0	0	0
11.2403	0.07588034	-0.1694113	0	0	0	0
11.25686	0.07588034	-0.1694113	0	0	0	0
11.27343	0.07588034	-0.1694113	0	0	0	0
11.29028	0.07588034	-0.1694113	0	0	0	0
11.30656	0.07588034	-0.1694113	0	0	0	0
11.3233	0.07588034	-0.1694113	0	0	0	0
11.3397	0.07588034	-0.1694113	0	0	0	0
11.35776	0.07588034	-0.1694113	0	0	0	0
11.37433	0.07588034	-0.1694113	0	0	0	0
11.39089	0.07588034	-0.1694113	0	0	0	0
11.40746	0.07588034	-0.1694113	0	0	0	0
11.42403	0.07588034	-0.1694113	0	0	0	0
11.4406	0.07588034	-0.1694113	0	0	0	0
11.45716	0.07588034	-0.1694113	0	0	0	0
11.47391	0.07588034	-0.1694113	0	0	0	0
11.4903	0.07588034	-0.1694113	0	0	0	0
11.50694	0.07588034	-0.1694113	0	0	0	0
11.52343	0.07588034	-0.1694113	0	0	0	0
11.54	0.07588034	-0.1694113	0	0	0	0
11.55656	0.07588034	-0.1694113	0	0	0	0
11.57348	0.07588034	-0.1694113	0	0	0	0
11.58969	0.07588034	-0.1694113	0	0	0	0
11.60758	0.07588034	-0.1694113	0	0	0	0
11.63037	0.07588034	-0.1694113	0	0	0	0
11.64084	0.07588034	-0.1694113	0	0	0	0
11.65728	0.07585418	-0.1694313	-0.001590865	-0.001218862	-0.05911835	-0.04529432
11.67385	0.07585418	-0.1694313	0	0	0.04819271	0.03692349
11.69042	0.07585418	-0.1694313	0	0	0	0
11.70737	0.07585418	-0.1694313	0	0	0	0
11.72389	0.07585418	-0.1694313	0	0	0	0
11.74012	0.07585418	-0.1694313	0	0	0	0
11.75742	0.07585418	-0.1694313	0	0	0	0
11.82056	0.07585418	-0.1694313	0	0	0	0
11.83713	0.07585418	-0.1694313	0	0	0	0
11.85369	0.07585418	-0.1694313	0	0	0	0
11.87026	0.07585418	-0.1694313	0	0	0	0
11.88683	0.07585418	-0.1694313	0	0	0	0
11.90339	0.07585418	-0.1694313	0	0	0	0
11.91996	0.07585418	-0.1694313	0	0	0	0
11.93653	0.07585418	-0.1694313	0	0	0	0
11.95309	0.07585418	-0.1694313	0	0	0	0
11.96966	0.07585418	-0.1694313	0	0	0	0
11.98623	0.07585418	-0.1694313	0	0	0	0
12.003	0.07585418	-0.1694313	0	0	0	0
12.01936	0.07585418	-0.1694313	0	0	0	0
12.036	0.07585418	-0.1694313	0	0	0	0
12.05255	0.07585418	-0.1694313	0	0	0	0
12.06906	0.07585418	-0.1694313	0	0	0	0
12.08563	0.07585418	-0.1694313	0	0	0	0
12.10219	0.07585418	-0.1694313	0	0	0	0
12.11876	0.07585418	-0.1694313	0	0	0	0
12.13557	0.07585418	-0.1694313	0	0	0	0
12.15208	0.07585418	-0.1694313	0	0	0	0
12.16846	0.07585418	-0.1694313	0	0	0	0
12.18714	0.07585418	-0.1694313	0	0	0	0
12.20159	0.07585418	-0.1694313	0	0	0	0
12.21816	0.07585418	-0.1694313	0	0	0	0
12.23472	0.07585418	-0.1694313	0	0	0	0
12.25166	0.07585418	-0.1694313	0	0	0	0
12.26786	0.07585418	-0.1694313	0	0	0	0
12.28442	0.07585418	-0.1694313	0	0	0	0
12.30099	0.07585418	-0.1694313	0	0	0	0
12.31756	0.07585418	-0.1694313	0	0	0	0
12.33412	0.07585418	-0.1694313	0	0	0	0
12.35069	0.07585418	-0.1694313	0	0	0	0
12.36726	0.07585418	-0.1694313	0	0	0	0
12.38426	0.07585418	-0.1694313	0	0	0	0
12.40061	0.07585418	-0.1694313	0	0	0	0
12.4173	0.07585418	-0.1694313	0	0	0	0
12.43379	0.07585418	-0.1694313	0	0	0	0
12.45031	0.07585418	-0.1694313	0	0	0	0
12.47076	0.07585418	-0.1694313	0	0	0	0
12.48344	0.07585418	-0.1694313	0	0	0	0
12.50001	0.07585418	-0.1694313	0	0	0	0
12.51657	0.07585418	-0.1694313	0	0	0	0
12.53337	0.07585418	-0.1694313	0	0	0	0
12.54971	0.07585418	-0.1694313	0	0	0	0
12.5664	0.07585418	-0.1694313	0	0	0	0
12.58292	0.07585418	-0.1694313	0	0	0	0
12.59941	0.07585418	-0.1694313	0	0	0	0
12.61597	0.07585418	-0.1694313	0	0	0	0
12.63254	0.07585418	-0.1694313	0	0	0	0
12.64911	0.07585418	-0.1694313	0	0	0	0
12.66567	0.07585418	-0.1694313	0	0	0	0
12.68247	0.07585418	-0.1694313	0	0	0	0
12.69897	0.07585418	-0.1694313	0	0	0	0
12.71537	0.07585418	-0.1694313	0	0	0	0
12.73194	0.07585418	-0.1694313	0	0	0	0
12.75338	0.07585418	-0.1694313	0	0	0	0
12.77004	0.07585418	-0.1694313	0	0	0	0
12.78651	0.07585418	-0.1694313	0	0	0	0
12.80308	0.07585418	-0.1694313	0	0	0	0
12.81965	0.07585418	-0.1694313	0	0	0	0
12.83621	0.07585418	-0.1694313	0	0	0	0
12.85309	0.07585418	-0.1694313	0	0	0	0
12.86962	0.07585418	-0.1694313	0	0	0	0
12.88591	0.07582802	-0.1694514	-0.001605753	-0.001229919	-0.048925	-0.03747388
12.90248	0.07582802	-0.1694514	0	0	0.04886395	0.03742711
12.91905	0.07582802	-0.1694514	0	0	0	0
12.93616	0.07582802	-0.1694514	0	0	0	0
12.95218	0.07582802	-0.1694514	0	0	0	0
12.96875	0.07582802	-0.1694514	0	0	0	0
12.98531	0.07582802	-0.1694514	0	0	0	0
13.00188	0.07582802	-0.1694514	0	0	0	0
13.01844	0.07582802	-0.1694514	0	0	0	0
13.03713	0.07582802	-0.1694514	0	0	0	0
13.05425	0.07582802	-0.1694514	0	0	0	0
13.07027	0.07582802	-0.1694514	0	0	0	0
13.08727	0.07582802	-0.1694514	0	0	0	0
13.1034	0.07582802	-0.1694514	0	0	0	0
13.11997	0.07582802	-0.1694514	0	0	0	0
13.13654	0.07582802	-0.1694514	0	0	0	0
13.1531	0.07582802	-0.1694514	0	0	0	0
13.16967	0.07582802	-0.1694514	0	0	0	0
13.18624	0.07582802	-0.1694514	0	0	0	0
13.2028	0.07582802	-0.1694514	0	0	0	0
13.21937	0.07582802	-0.1694514	0	0	0	0
13.23593	0.07582802	-0.1694514	0	0	0	0
13.2525	0.07582802	-0.1694514	0	0	0	0
13.26907	0.07582802	-0.1694514	0	0	0	0
13.28563	0.07582802	-0.1694514	0	0	0	0
13.30238	0.07582802	-0.1694514	0	0	0	0
13.31877	0.07582802	-0.1694514	0	0	0	0
13.33533	0.07582802	-0.1694514	0	0	0	0
13.35192	0.07582802	-0.1694514	0	0	0	0
13.36847	0.07582802	-0.1694514	0	0	0	0
13.38503	0.07582802	-0.1694514	0	0	0	0
13.40196	0.07582802	-0.1694514	0	0	0	0
13.41817	0.07582802	-0.1694514	0	0	0	0
13.43474	0.07582802	-0.1694514	0	0	0	0
13.4513	0.07582802	-0.1694514	0	0	0	0
13.468	0.07582802	-0.1694514	0	0	0	0
13.48444	0.07582802	-0.1694514	0	0	0	0
13.50143	0.07582802	-0.1694514	0	0	0	0
13.51758	0.07582802	-0.1694514	0	0	0	0
13.53445	0.07582802	-0.1694514	0	0	0	0
13.55095	0.07582802	-0.1694514	0	0	0	0
13.56896	0.07582802	-0.1694514	0	0	0	0
13.58384	0.07582802	-0.1694514	0	0	0	0
13.6004	0.07582802	-0.1694514	0	0	0	0
13.61697	0.07582802	-0.1694514	0	0	0	0
13.63353	0.07582802	-0.1694514	0	0	0	0
13.6501	0.07582802	-0.1694514	0	0	0	0
13.66667	0.07582802	-0.1694514	0	0	0	0
13.68324	0.07580185	-0.1694714	-0.0015795	-0.001208911	-0.04767079	-0.03648607
13.69983	0.07580185	-0.1694714	0	0	0.04762692	0.03645249
13.71637	0.07580185	-0.1694714	0	0	0	0
13.73293	0.07582802	-0.1694915	0.0015795	-0.001209811	0.04771748	-0.03654898
13.7495	0.07582802	-0.1694915	0	0	-0.04767216	0.03651427
13.76607	0.07582802	-0.1694915	0	0	0	0
13.78263	0.07582802	-0.1694915	0	0	0	0
13.7992	0.07582802	-0.1694915	0	0	0	0
13.81577	0.07582802	-0.1694915	0	0	0	0
13.83233	0.07582802	-0.1694915	0	0	0	0
13.8489	0.07582802	-0.1694915	0	0	0	0
13.86549	0.07582802	-0.1694915	0	0	0	0
13.88203	0.07582802	-0.1694915	0	0	0	0
13.8986	0.07582802	-0.1694915	0	0	0	0
13.91517	0.07582802	-0.1694915	0	0	0	0
13.93173	0.07582802	-0.1694915	0	0	0	0
13.9483	0.07582802	-0.1694915	0	0	0	0
13.96487	0.07582802	-0.1694915	0	0	0	0
13.98143	0.07580185	-0.1695115	-0.0015795	-0.001209811	-0.04767216	-0.03651427
13.998	0.07580185	-0.1695115	0	0	0.04767079	0.03651321
14.01457	0.07580185	-0.1695115	0	0	0	0
14.03113	0.07580185	-0.1695115	0	0	0	0
14.0477	0.07580185	-0.1695115	0	0	0	0
14.06427	0.07580185	-0.1695115	0	0	0	0
14.08083	0.07580185	-0.1695115	0	0	0	0
14.0974	0.07580185	-0.1695115	0	0	0	0
14.1221	0.07580185	-0.1695115	0	0	0	0
14.1335	0.07580185	-0.1695115	0	0	0	0
14.15022	0.07580185	-0.1695115	0	0	0	0
14.16663	0.07580185	-0.1695115	0	0	0	0
14.1832	0.07580185	-0.1695115	0	0	0	0
14.19976	0.07580185	-0.1695115	0	0	0	0
14.21633	0.07580185	-0.1695115	0	0	0	0
14.2329	0.07580185	-0.1695115	0	0	0	0
14.24946	0.07580185	-0.1695115	0	0	0	0
14.2663	0.07580185	-0.1695115	0	0	0	0
14.2826	0.07580185	-0.1695115	0	0	0	0
14.29916	0.07580185	-0.1695115	0	0	0	0
14.31573	0.07580185	-0.1695115	0	0	0	0
14.3323	0.07580185	-0.1695115	0	0	0	0
14.34886	0.07580185	-0.1695115	0	0	0	0
14.36543	0.07580185	-0.1695115	0	0	0	0
14.382	0.07580185	-0.1695115	0	0	0	0
14.39856	0.07580185	-0.1695115	0	0	0	0
14.41513	0.07580185	-0.1695115	0	0	0	0
14.4317	0.07580185	-0.1695115	0	0	0	0
14.44826	0.07580185	-0.1695115	0	0	0	0
14.46483	0.07580185	-0.1695115	0	0	0	0
14.4814	0.07580185	-0.1695115	0	0	0	0
14.49847	0.07580185	-0.1695115	0	0	0	0
14.51453	0.07580185	-0.1695115	0	0	0	0
14.5311	0.07580185	-0.1695115	0	0	0	0
14.54766	0.07580185	-0.1695115	0	0	0	0
14.56423	0.07580185	-0.1695115	0	0	0	0
14.58105	0.07580185	-0.1695115	0	0	0	0
14.59736	0.07580185	-0.1695115	0	0	0	0
14.61393	0.07580185	-0.1695115	0	0	0	0
14.6305	0.07580185	-0.1695115	0	0	0	0
14.64706	0.07580185	-0.1695115	0	0	0	0
14.66363	0.07580185	-0.1695115	0	0	0	0
14.68343	0.07577568	-0.1694915	-0.001321207	0.001011972	-0.0363256	0.02782342
14.7	0.07577568	-0.1694915	0	0	0.03632465	-0.02782269
14.71662	0.07577568	-0.1694915	0	0	0	0
14.73315	0.07577568	-0.1694915	0	0	0	0
14.7497	0.07577568	-0.1694915	0	0	0	0
14.76716	0.07577568	-0.1694915	0	0	0	0
14.78283	0.07577568	-0.1694915	0	0	0	0
14.79968	0.07577568	-0.1694915	0	0	0	0
14.81597	0.07577568	-0.1694915	0	0	0	0
14.83271	0.07577568	-0.1694915	0	0	0	0
14.8491	0.07577568	-0.1694915	0	0	0	0
14.86567	0.07577568	-0.1694915	0	0	0	0
14.88223	0.07577568	-0.1694915	0	0	0	0
14.8988	0.07577568	-0.1694915	0	0	0	0
14.91537	0.07577568	-0.1694915	0	0	0	0
14.93225	0.07577568	-0.1694915	0	0	0	0
14.9485	0.07577568	-0.1694915	0	0	0	0
14.96507	0.07577568	-0.1694915	0	0	0	0
14.98178	0.07577568	-0.1694915	0	0	0	0
14.99827	0.07577568	-0.1694915	0	0	0	0
15.01477	0.07577568	-0.1694915	0	0	0	0
15.03133	0.07574952	-0.1695115	-0.001579409	-0.001209741	-0.04776428	-0.03658482
15.0479	0.07574952	-0.1695115	0	0	0.04766804	0.03651111
15.06447	0.07574952	-0.1695115	0	0	0	0
15.08103	0.07574952	-0.1695115	0	0	0	0
15.0976	0.07574952	-0.1695115	0	0	0	0
15.11417	0.07574952	-0.1695115	0	0	0	0
15.13073	0.07572336	-0.1695315	-0.001579141	-0.001209881	-0.04766133	-0.03651637
15.14739	0.07572336	-0.1695315	0	0	0.04753545	0.03641993
15.1639	0.07572336	-0.1695315	0	0	0	0
15.18043	0.07569719	-0.1695516	-0.001582963	-0.001212463	-0.04790353	-0.03669148
15.197	0.07569719	-0.1695516	0	0	0.04782623	0.03663228
15.21357	0.07569719	-0.1695516	0	0	0	0
15.23286	0.07564486	-0.1695917	-0.002712153	-0.002077361	-0.07562757	-0.05792658
15.24943	0.07564486	-0.1695917	0	0	0.07562757	0.05792658
15.266	0.07564486	-0.1695917	0	0	0	0
15.28256	0.07559253	-0.1696317	-0.003159001	-0.002418722	-0.09533883	-0.07299718
15.29913	0.07559253	-0.1696317	0	0	0.09534157	0.07299928
15.3157	0.07559253	-0.1696317	0	0	0	0
15.33226	0.07556636	-0.1696518	-0.0015795	-0.001209811	-0.04767216	-0.03651427
15.34883	0.07556636	-0.1696518	0	0	0.04767216	0.03651427
15.3654	0.07556636	-0.1696518	0	0	0	0
15.38196	0.07551403	-0.1696919	-0.003158551	-0.002419622	-0.095328	-0.07302643
15.39853	0.07551403	-0.1696919	0	0	0.095328	0.07302643
15.4151	0.07551403	-0.1696919	0	0	0	0
15.43166	0.07551403	-0.1696919	0	0	0	0
15.4486	0.07551403	-0.1696919	0	0	0	0
15.4648	0.07551403	-0.1696919	0	0	0	0
15.48162	0.07548787	-0.1696718	-0.001554885	0.001190957	-0.0470878	0.03606668
15.49793	0.07548787	-0.1696718	0	0	0.04692517	-0.03594211
15.5145	0.07548787	-0.1696718	0	0	0	0
15.53106	0.07548787	-0.1696718	0	0	0	0
15.54763	0.07548787	-0.1696718	0	0	0	0
15.56451	0.07548787	-0.1696718	0	0	0	0
15.581	0.0754617	-0.1696919	-0.001586716	-0.001215338	-0.0475546	-0.03642422
15.59733	0.0754617	-0.1696919	0	0	0.04834077	0.03702639
15.6139	0.0754617	-0.1696919	0	0	0	0
15.63046	0.0753832	-0.169752	-0.004738774	-0.003629642	-0.1430247	-0.1095491
15.64703	0.0753832	-0.169752	0	0	0.1430247	0.1095491
15.6636	0.0753832	-0.169752	0	0	0	0
15.68016	0.07520003	-0.1698923	-0.0110595	-0.008471526	-0.3337859	-0.2556785
15.69673	0.07520003	-0.1698923	0	0	0.3338244	0.255708
15.7133	0.07520003	-0.1698923	0	0	0	0
15.72986	0.07417943	-0.170634	-0.06161036	-0.04477547	-1.859565	-1.351443
15.74666	0.07417943	-0.170634	0	0	1.846384	1.341864
15.76317	0.07417943	-0.170634	0	0	0	0
15.78259	0.07292309	-0.1715966	-0.06469098	-0.04956587	-1.80068	-1.379671
15.79916	0.07292309	-0.1715966	0	0	1.797578	1.377294
15.81572	0.07292309	-0.1715966	0	0	0	0
15.83229	0.07281839	-0.1715164	-0.00632025	0.004842842	-0.1907565	0.1461657
15.84886	0.07281839	-0.1715164	0	0	0.190751	-0.1461615
15.86542	0.07281839	-0.1715164	0	0	0	0
15.88199	0.06962412	-0.1690306	-0.1928178	0.1500516	-5.819587	4.528828
15.89856	0.06962412	-0.1690306	0	0	5.819587	-4.528828
15.91512	0.06962412	-0.1690306	0	0	0	0
15.93178	0.04528481	-0.1501543	-1.461384	1.133373	-43.98945	34.11592
15.94829	0.04528481	-0.1501543	0	0	44.06155	-34.17184
15.96482	0.04528481	-0.1501543	0	0	0	0
15.98139	-0.003947348	-0.1107692	-2.97183	2.377425	-89.78562	71.82732
15.99796	-0.003947348	-0.1107692	0	0	89.69259	-71.75289
16.01452	-0.003947348	-0.1107692	0	0	0	0
16.03109	-0.0513758	-0.04806606	-2.862787	3.78477	-86.39909	114.2246
16.04766	-0.0513758	-0.04806606	0	0	86.40407	-114.2311
16.06437	-0.0513758	-0.04806606	0	0	0	0
16.08079	-0.05969216	0.03040614	-0.5065249	4.779511	-15.28783	144.2542
16.09741	-0.05969216	0.03040614	0	0	15.33108	-144.6623
16.11392	-0.05969216	0.03040614	0	0	0	0
16.13049	-0.0119468	0.07962833	2.882247	2.9714	87.13185	89.82697
16.14705	-0.0119468	0.07962833	0	0	-86.99141	-89.68218
16.16362	-0.0119468	0.07962833	0	0	0	0
16.18019	0.0174456	0.1001628	1.774333	1.239606	53.55256	37.41354
16.19699	0.0174456	0.1001628	0	0	-53.16995	-37.14624
16.21351	0.0174456	0.1001628	0	0	0	0
16.22989	0.02720381	0.1071091	0.5957284	0.4240628	18.11048	12.89175
16.24645	0.02720381	0.1071091	0	0	-18.08112	-12.87085
16.26302	0.02720381	0.1071091	0	0	0	0
16.27959	0.03403948	0.1118684	0.4126491	0.2873084	12.45449	8.671484
16.29615	0.03403948	0.1118684	0	0	-12.45449	-8.671484
16.31272	0.03403948	0.1118684	0	0	0	0
16.33238	0.03430233	0.1121612	0.01336909	0.01488869	0.3690247	0.41097
16.34895	0.03430233	0.1121612	0	0	-0.3690247	-0.41097
16.36552	0.03430233	0.1121612	0	0	0	0
16.38211	0.03432861	0.1124722	0.00158387	0.01874021	0.04776004	0.5650928
16.39865	0.03432861	0.1124722	0	0	-0.04780128	-0.5655807
16.41522	0.03432861	0.1124722	0	0	0	0
16.43178	0.03474917	0.1141183	0.0253904	0.09938537	0.7663279	2.999629
16.44835	0.03474917	0.1141183	0	0	-0.766372	-2.999802
16.46492	0.03474917	0.1141183	0	0	0	0
16.48148	0.03338233	0.138346	-0.08251183	1.462553	-2.490355	44.14247
16.49805	0.03338233	0.138346	0	0	2.490355	-44.14247
16.51469	0.03338233	0.138346	0	0	0	0
16.53119	0.0332509	0.1511994	-0.007962584	0.7787042	-0.240256	23.49593
16.54775	0.0332509	0.1511994	0	0	0.2408242	-23.5515
16.56432	0.0332509	0.1511994	0	0	0	0
16.58088	0.03411834	0.1503459	0.05236467	-0.05152742	1.58046	-1.55519
16.59745	0.03411834	0.1503459	0	0	-1.58046	1.55519
16.61402	0.03411834	0.1503459	0	0	0	0
16.63058	0.0341709	0.1503096	0.003173716	-0.00219243	0.09578844	-0.06617147
16.64723	0.0341709	0.1503096	0	0	-0.0955574	0.06601187
16.66376	0.0341709	0.1503096	0	0	0	0
16.68028	0.03414462	0.1503277	-0.001590634	0.001098295	-0.04812454	0.03322885
16.69685	0.03414462	0.1503277	0	0	0.04806629	-0.03318863
16.71342	0.03414462	0.1503277	0	0	0	0
16.72998	0.0341709	0.1503096	0.001586788	-0.001095639	0.0478921	-0.03306836
16.74678	0.0341709	0.1503096	0	0	-0.04756625	0.03284336
16.7633	0.0341709	0.1503096	0	0	0	0
16.7798	0.0341709	0.1503096	0	0	0	0
16.79625	0.0341709	0.1503096	0	0	0	0
16.81283	0.0341709	0.1503096	0	0	0	0
16.82938	0.03411834	0.1502732	-0.003175178	-0.00219434	-0.09583259	-0.06622913
16.84595	0.03411834	0.1502732	0	0	0.09586018	0.0662482
16.86252	0.03411834	0.1502732	0	0	0	0
16.87938	0.03409205	0.1502914	-0.001558436	0.001076947	-0.04661243	0.0322112
16.89601	0.03409205	0.1502914	0	0	0.04653015	-0.03215434
16.91222	0.03409205	0.1502914	0	0	0	0
16.92904	0.03306689	0.1512539	-0.06095243	0.05722847	-1.845604	1.732844
16.94535	0.03306689	0.1512539	0	0	1.839654	-1.727258
16.96207	0.03306689	0.1512539	0	0	0	0
16.97859	0.03574792	0.1606529	0.1622945	0.5689631	4.88232	17.11616
16.99505	0.03574792	0.1606529	0	0	-4.921288	-17.25278
17.01161	0.03574792	0.1606529	0	0	0	0
17.02818	0.02907076	0.2086686	-0.4030346	2.898229	-12.16431	87.47375
17.04475	0.02907076	0.2086686	0	0	12.16361	-87.46872
17.06132	0.02907076	0.2086686	0	0	0	0
17.07788	0.0216019	0.2411975	-0.4508209	1.96345	-13.6058	59.25703
17.09467	0.0216019	0.2411975	0	0	13.51787	-58.87407
17.11102	0.0216019	0.2411975	0	0	0	0
17.12769	0.0243373	0.2549321	0.1640512	0.8237147	4.967374	24.9416
17.14415	0.0243373	0.2549321	0	0	-4.951361	-24.86119
17.16072	0.0243373	0.2549321	0	0	0	0
17.17728	0.0244688	0.2548784	0.007941066	-0.00324666	0.2396757	-0.09799002
17.19385	0.0244688	0.2548784	0	0	-0.2397171	0.09800695
17.21042	0.0244688	0.2548784	0	0	0	0
17.22698	0.0244688	0.2548784	0	0	0	0
17.24355	0.0244688	0.2548784	0	0	0	0
17.26031	0.0244688	0.2548784	0	0	0	0
17.27682	0.0244951	0.2548605	0.001592822	-0.001084744	0.04788129	-0.03260811
17.29325	0.0244951	0.2548605	0	0	-0.04834419	0.03292336
17.30982	0.0244951	0.2548605	0	0	0	0
17.32639	0.0245477	0.2548246	0.003175262	-0.002162493	0.0958351	-0.06526792
17.34295	0.0245477	0.2548246	0	0	-0.0958351	0.06526792
17.35952	0.0245477	0.2548246	0	0	0	0
17.37609	0.0246003	0.2547888	0.003175262	-0.002164292	0.09582958	-0.06531846
17.39265	0.0246003	0.2547888	0	0	-0.0958351	0.06532222
17.40922	0.0246003	0.2547888	0	0	0	0
17.42579	0.02491589	0.2545379	0.01904938	-0.0151429	0.5749445	-0.45704
17.4428	0.02491589	0.2545379	0	0	-0.5673025	0.4509652
17.45932	0.02491589	0.2545379	0	0	0	0
17.47549	0.02499479	0.2544483	0.004878666	-0.005541264	0.1492401	-0.1695092
17.49206	0.02499479	0.2544483	0	0	-0.1490141	0.1692524
17.50862	0.02499479	0.2544483	0	0	0	0
17.52519	0.02502109	0.2544304	0.001587209	-0.001080998	0.04789931	-0.03262269
17.54187	0.02502109	0.2544304	0	0	-0.04773719	0.03251228
17.55839	0.02502109	0.2544304	0	0	0	0
17.57489	0.02499479	0.2544125	-0.001593998	-0.001085621	-0.04827648	-0.03287957
17.59146	0.02499479	0.2544125	0	0	0.04820409	0.03283026
17.60802	0.02499479	0.2544125	0	0	0	0
17.62494	0.02502109	0.2543945	0.001554463	-0.001060457	0.04642474	-0.03167102
17.64116	0.02502109	0.2543945	0	0	-0.04691378	0.03200464
17.65773	0.02502109	0.2543945	0	0	0	0
17.67429	0.02499479	0.2543766	-0.001587575	-0.001081246	-0.04791586	-0.03263396
17.69086	0.02499479	0.2543766	0	0	0.04791586	0.03263396
17.70769	0.02499479	0.2543766	0	0	0	0
17.72399	0.02499479	0.2543408	0	-0.002199494	0	-0.06638467
17.74056	0.02499479	0.2543408	0	0	0	0.06692016
17.75713	0.02499479	0.2543408	0	0	0	0
17.77369	0.02496849	0.254287	-0.001587687	-0.003245538	-0.04791925	-0.09795618
17.79026	0.02496849	0.254287	0	0	0.04791925	0.09795618
17.80683	0.02496849	0.254287	0	0	0	0
17.82339	0.0249422	0.2542332	-0.001587575	-0.003245538	-0.04791586	-0.09795618
17.83996	0.0249422	0.2542332	0	0	0.04791586	0.09795618
17.85681	0.0249422	0.2542332	0	0	0	0
17.87309	0.02496849	0.2541795	0.001615665	-0.003302965	0.04876368	-0.09968941
17.88981	0.02496849	0.2541795	0	0	-0.04895815	0.100087
17.90623	0.02496849	0.2541795	0	0	0	0
17.92279	0.02496849	0.2541437	0	-0.002162244	0	-0.06556614
17.93936	0.02496849	0.2541437	0	0	0	0.06525666
17.95593	0.02496849	0.2541437	0	0	0	0
17.97588	0.02496849	0.2541078	0	-0.001796853	0	-0.04920187
17.99245	0.02496849	0.2541078	0	0	0	0.04920187
18.00901	0.02496849	0.2541078	0	0	0	0
18.02558	0.02504739	0.2540182	0.004762288	-0.005409207	0.1437261	-0.1632502
18.04215	0.02504739	0.2540182	0	0	-0.1437261	0.1632502
18.05901	0.02504739	0.2540182	0	0	0	0
18.07528	0.02562597	0.2535881	0.03556581	-0.02643921	1.07344	-0.7979828
18.09185	0.02562597	0.2535881	0	0	-1.083168	0.805214
18.10842	0.02562597	0.2535881	0	0	0	0
18.12498	0.02754566	0.2522797	0.115873	-0.07897227	3.497053	-2.383388
18.14155	0.02754566	0.2522797	0	0	-3.497053	2.383388
18.15812	0.02754566	0.2522797	0	0	0	0
18.17468	0.02754566	0.2522797	0	0	0	0
18.19125	0.02754566	0.2522797	0	0	0	0
18.20782	0.02754566	0.2522797	0	0	0	0
18.22438	0.02751937	0.2522618	-0.001587167	-0.001082921	-0.0479008	-0.03268262
18.24095	0.02751937	0.2522618	0	0	0.0479008	0.03268262
18.25763	0.02751937	0.2522618	0	0	0	0
18.27408	0.02751937	0.2522618	0	0	0	0
18.29066	0.02751937	0.2522618	0	0	0	0
18.30722	0.02751937	0.2522618	0	0	0	0
18.32378	0.02751937	0.2522618	0	0	0	0
18.34035	0.02751937	0.2522618	0	0	0	0
18.35692	0.02751937	0.2522618	0	0	0	0
18.37348	0.02754566	0.2521722	0.00158735	-0.00540983	0.04790907	-0.1632784
18.39005	0.02754566	0.2521722	0	0	-0.04790631	0.163269
18.40662	0.02754566	0.2521722	0	0	0	0
18.42322	0.03051684	0.2487123	0.1789902	-0.2084276	5.396965	-6.284569
18.43975	0.03051684	0.2487123	0	0	-5.402247	6.29072
18.45632	0.03051684	0.2487123	0	0	0	0
18.47288	0.06068854	0.199048	1.821377	-2.99809	54.97243	-90.48775
18.48945	0.06068854	0.199048	0	0	-54.97243	90.48775
18.50602	0.06068854	0.199048	0	0	0	0
18.52568	0.08087584	0.09794294	1.026572	-5.141433	28.3333	-141.9031
18.53918	0.08087584	0.09794294	0	0	-30.95706	155.0438
18.55572	0.08087584	0.09794294	0	0	0	0
18.57228	0.09067175	-0.0326043	0.5913505	-7.880754	17.86242	-238.0472
18.58885	0.09067175	-0.0326043	0	0	-17.84802	237.8553
18.60575	0.09067175	-0.0326043	0	0	0	0
18.62198	0.08398618	-0.1490218	-0.4116942	-7.168933	-12.42567	-216.3713
18.63855	0.08398618	-0.1490218	0	0	12.5492	218.5224
18.65524	0.08398618	-0.1490218	0	0	0	0
18.67168	0.0649611	-0.2269294	-1.157149	-4.738519	-34.92482	-143.017
18.68825	0.0649611	-0.2269294	0	0	35.056	143.5542
18.70482	0.0649611	-0.2269294	0	0	0	0
18.72138	0.04436561	-0.2512581	-1.243289	-1.468654	-37.52471	-44.32661
18.73832	0.04436561	-0.2512581	0	0	37.11026	43.83704
18.75534	0.04436561	-0.2512581	0	0	0	0
18.77109	0.04481208	-0.250904	0.02836327	0.02249561	0.8656723	0.6865861
18.78786	0.04481208	-0.250904	0	0	-0.8721712	-0.6917406
18.80436	0.04481208	-0.250904	0	0	0	0
18.82078	0.04483835	-0.2509249	0.001599249	-0.00126851	0.04858143	-0.03853438
18.83739	0.04483835	-0.2509249	0	0	-0.04841592	0.0384031
18.85392	0.04483835	-0.2509249	0	0	0	0
18.87048	0.04486461	-0.2509457	0.001585438	-0.001257556	0.04791206	-0.03800343
18.88705	0.04486461	-0.2509457	0	0	-0.04785138	0.0379553
18.90362	0.04486461	-0.2509457	0	0	0	0
18.92019	0.04486461	-0.2509457	0	0	0	0
18.93696	0.04486461	-0.2509457	0	0	0	0
18.95332	0.04486461	-0.2509457	0	0	0	0
18.96988	0.04486461	-0.2509457	0	0	0	0
18.98648	0.04486461	-0.2509457	0	0	0	0
19.00302	0.04486461	-0.2509457	0	0	0	0
19.01958	0.04486461	-0.2509457	0	0	0	0
19.03653	0.04486461	-0.2509457	0	0	0	0
19.05272	0.04486461	-0.2509457	0	0	0	0
19.06928	0.04486461	-0.2509457	0	0	0	0
19.08607	0.04486461	-0.2509457	0	0	0	0
19.10242	0.04486461	-0.2509457	0	0	0	0
19.11908	0.04486461	-0.2509874	0	-0.002500143	0	-0.07572473
19.13555	0.04486461	-0.2509874	0	0	0	0.07545881
19.15213	0.04486461	-0.2509874	0	0	0	0
19.16951	0.04486461	-0.2509874	0	0	0	0
19.18616	0.04486461	-0.2509874	0	0	0	0
19.20265	0.04486461	-0.2509874	0	0	0	0
19.21921	0.04486461	-0.2509874	0	0	0	0
19.23578	0.04486461	-0.2509874	0	0	0	0
19.25319	0.04486461	-0.2509874	0	0	0	0
19.2692	0.04486461	-0.2509874	0	0	0	0
19.28548	0.04486461	-0.2509874	0	0	0	0
19.30205	0.04486461	-0.2509874	0	0	0	0
19.31861	0.04475956	-0.2497796	-0.006341528	0.07290767	-0.1913987	2.200485
19.33988	0.04475956	-0.2497796	0	0	0.1676053	-1.926935
19.35229	0.04475956	-0.2497796	0	0	0	0
19.36831	0.03632612	-0.2155385	-0.5263754	2.137168	-18.51417	75.1705
19.38488	0.03632612	-0.2155385	0	0	16.15195	-65.57951
19.40184	0.03632612	-0.2155385	0	0	0	0
19.41801	0.03711453	-0.1225504	0.04873877	5.748444	1.471024	173.4984
19.43458	0.03711453	-0.1225504	0	0	-1.488504	-175.5601
19.45115	0.03711453	-0.1225504	0	0	0	0
19.46786	0.05922015	-0.03911485	1.322875	4.993065	39.75283	150.0432
19.48487	0.05922015	-0.03911485	0	0	-39.22672	-148.0575
19.50089	0.05922015	-0.03911485	0	0	0	0
19.51741	0.0787055	0.009859164	1.179261	2.963926	36.23894	91.08204
19.5344	0.0787055	0.009859164	0	0	-35.1871	-88.43837
19.55055	0.0787055	0.009859164	0	0	0	0
19.56711	0.0768222	0.08480315	-0.1137027	4.52467	-3.476381	138.3386
19.58368	0.0768222	0.08480315	0	0	3.43195	-136.5705
19.60046	0.0768222	0.08480315	0	0	0	0
19.62074	0.05006339	0.2047605	-1.319413	5.914813	-35.59496	159.5691
19.63731	0.05006339	0.2047605	0	0	35.805	-160.5106
19.65395	0.0316999	0.252674	-1.104101	2.88079	-33.25483	86.76762
19.67046	0.0316999	0.252674	0	0	33.3084	-86.90741
19.68701	0.0316999	0.252674	0	0	0	0
19.70358	0.01060487	0.3090628	-1.273299	3.403631	-38.44595	102.7691
19.72015	0.01060487	0.3090628	0	0	38.42824	-102.7218
19.73672	0.01060487	0.3090628	0	0	0	0
19.75328	-0.003973663	0.3463534	-0.8800631	2.251123	-26.56188	67.94293
19.77006	-0.003973663	0.3463534	0	0	26.39625	-67.51926
19.78642	-0.003973663	0.3463534	0	0	0	0
19.80298	-0.02875523	0.3642486	-1.495818	1.08016	-45.42893	32.80511
19.81955	-0.02875523	0.3642486	0	0	45.14388	-32.59928
19.83612	-0.02875523	0.3642486	0	0	0	0
19.85308	-0.03971595	0.3719124	-0.6463359	0.4519247	-19.27786	13.47928
19.86925	-0.03971595	0.3719124	0	0	19.5087	-13.64069
19.89351	-0.03971595	0.3719124	0	0	0	0
19.90581	-0.04932837	0.3785953	-0.7812245	0.543128	-21.36714	14.855
19.92238	-0.04932837	0.3785953	0	0	27.05864	-18.81188
19.93895	-0.04932837	0.3785953	0	0	0	0
19.95551	-0.05064088	0.3795603	-0.07923211	0.05825597	-2.391367	1.75827
19.97208	-0.05064088	0.3795603	0	0	2.391367	-1.75827
19.98865	-0.05064088	0.3795603	0	0	0	0
20.0056	-0.05064088	0.3796318	0	0.004217414	0	0.1258188
20.02178	-0.05064088	0.3796318	0	0	0	-0.1272891
20.03864	-0.05064088	0.3796318	0	0	0	0
20.05514	-0.05061463	0.3796854	0.001590215	0.003248137	0.04766353	0.09735645
20.07148	-0.05061463	0.3796854	0	0	-0.04841922	-0.0989
20.08805	-0.05061463	0.3796854	0	0	0	0
20.10468	-0.05014215	0.379328	0.02839812	-0.02148236	0.8552354	-0.646961
20.12119	-0.05014215	0.379328	0	0	-0.8568103	0.6481524
20.13774	-0.05014215	0.379328	0	0	0	0
20.16016	-0.04110841	0.3727879	0.4030192	-0.2917708	10.34203	-7.487247
20.17673	-0.04110841	0.3727879	0	0	-10.33849	7.484683
20.19329	-0.01960275	0.3572114	1.298084	-0.9402019	39.17625	-28.37535
20.20986	-0.01960275	0.3572114	0	0	-39.17625	28.37535
20.22643	-0.01960275	0.3572114	0	0	0	0
20.24299	0.004947328	0.3348354	1.481846	-1.350613	44.72219	-40.76157
20.26023	0.004947328	0.3348354	0	0	-43.83401	39.95204
20.27676	0.004947328	0.3348354	0	0	0	0
20.29269	0.01670897	0.3120283	0.738148	-1.43135	22.73942	-44.09423
20.30926	0.01670897	0.3120283	0	0	-22.71139	44.03989
20.32583	0.01670897	0.3120283	0	0	0	0
20.34239	0.04247444	0.2662525	1.555744	-2.763989	46.95515	-83.42216
20.35896	0.04247444	0.2662525	0	0	-46.96056	83.43177
20.37553	0.04247444	0.2662525	0	0	0	0
20.39209	0.04843577	0.2039679	0.3598682	-3.759941	10.86147	-113.4818
20.40866	0.04843577	0.2039679	0	0	-10.86147	113.4818
20.42523	0.04843577	0.2039679	0	0	0	0
20.44179	0.02170712	0.1464215	-1.613531	-3.473906	-48.69925	-104.8487
20.45843	0.02170712	0.1464215	0	0	48.59295	104.6199
20.47493	0.02170712	0.1464215	0	0	0	0
20.4915	-0.008894502	0.1251335	-1.847117	-1.284944	-55.86832	-38.8647
20.50806	-0.008894502	0.1251335	0	0	55.74611	38.77969
20.52463	-0.008894502	0.1251335	0	0	0	0
20.54119	-0.02396909	0.08656964	-0.9100089	-2.327988	-27.4657	-70.26287
20.55776	-0.02396909	0.08656964	0	0	27.46412	70.25883
20.57452	-0.02396909	0.08656964	0	0	0	0
20.59101	-0.024311	0.01242945	-0.02073532	-4.496334	-0.6237466	-135.2558
20.60746	-0.024311	0.01242945	0	0	0.6294163	136.4853
20.62403	-0.024311	0.01242945	0	0	0	0
20.64059	-0.01218361	-0.05666111	0.7320951	-4.170794	22.09595	-125.8821
20.65716	-0.01218361	-0.05666111	0	0	-22.09595	125.8821
20.67407	-0.01218361	-0.05666111	0	0	0	0
20.69029	0.01094693	-0.1067827	1.425372	-3.088637	43.02029	-93.22062
20.70686	0.01094693	-0.1067827	0	0	-43.46315	94.18026
20.72343	0.01094693	-0.1067827	0	0	0	0
20.74015	0.03301432	-0.127743	1.319834	-1.253622	39.65008	-37.66096
20.7567	0.03301432	-0.127743	0	0	-39.66599	37.67608
20.77322	0.03301432	-0.127743	0	0	0	0
20.78972	0.03916417	-0.1325914	0.3727511	-0.2938701	11.2906	-8.901299
20.80626	0.03916417	-0.1325914	0	0	-11.27952	8.892565
20.82283	0.03916417	-0.1325914	0	0	0	0
20.8394	0.03900652	-0.1326703	-0.009517128	-0.004763961	-0.2872606	-0.1437932
20.85627	0.03900652	-0.1326703	0	0	0.2846387	0.1424807
20.87253	0.03900652	-0.1326703	0	0	0	0
20.88928	0.03874376	-0.1324336	-0.0156904	0.01413724	-0.4753157	0.4282653
20.90579	0.03874376	-0.1324336	0	0	0.4717991	-0.4250968
20.9223	0.03874376	-0.1324336	0	0	0	0
20.93931	0.03861238	-0.1322955	-0.007722288	0.008116417	-0.2303279	0.2420833
20.95536	0.03861238	-0.1322955	0	0	0.23357	-0.2454909
20.97778	0.03861238	-0.1322955	0	0	0	0
20.98992	0.0385861	-0.1322758	-0.002164581	0.001624126	-0.0626339	0.04699541
21.00649	0.0385861	-0.1322758	0	0	0.07540121	-0.05657496
21.02306	0.0385861	-0.1322758	0	0	0	0
21.03962	0.0385861	-0.1323152	0	-0.002380807	0	-0.07185703
21.0564	0.0385861	-0.1323152	0	0	0	0.07140078
21.07276	0.0385861	-0.1323152	0	0	0	0
21.08932	0.03861238	-0.132335	0.001586113	-0.00119099	0.0481796	-0.0361774
21.10589	0.03861238	-0.132335	0	0	-0.04787174	0.03594622
21.12246	0.03861238	-0.132335	0	0	0	0
21.13902	0.03861238	-0.132335	0	0	0	0
21.15559	0.03861238	-0.132335	0	0	0	0
21.17216	0.03861238	-0.132335	0	0	0	0
21.18872	0.03863866	-0.1323547	0.001586338	-0.00119099	0.04787853	-0.03594622
21.20529	0.03863866	-0.1323547	0	0	-0.04787853	0.03594622
21.22201	0.03863866	-0.1323547	0	0	0	0
21.23902	0.03863866	-0.1323547	0	0	0	0
21.25499	0.03863866	-0.1323547	0	0	0	0
21.27155	0.03863866	-0.1323547	0	0	0	0
21.28812	0.03863866	-0.1323547	0	0	0	0
21.30469	0.03863866	-0.1323547	0	0	0	0
21.32125	0.03863866	-0.1323547	0	0	0	0
21.33782	0.03861238	-0.1323744	-0.001586155	-0.001190853	-0.04787026	-0.03594002
21.35439	0.03861238	-0.1323744	0	0	0.04787026	0.03594002
21.37122	0.03861238	-0.1323744	0	0	0	0
21.38752	0.03861238	-0.1322955	0	0.004841446	0	0.1461236
21.40409	0.03861238	-0.1322955	0	0	0	-0.1473022
21.42066	0.03861238	-0.1322955	0	0	0	0
21.43722	0.03861238	-0.1322955	0	0	0	0
21.45379	0.03861238	-0.1322955	0	0	0	0
21.47036	0.03861238	-0.1322955	0	0	0	0
21.48692	0.03863866	-0.1323547	0.001586338	-0.003572971	0.04787853	-0.1078387
21.50381	0.03863866	-0.1323547	0	0	-0.04741991	0.1068057
21.52006	0.03863866	-0.1323547	0	0	0	0
21.53993	0.03863866	-0.1323547	0	0	0	0
21.55698	0.03863866	-0.1323547	0	0	0	0
21.57306	0.03863866	-0.1323547	0	0	0	0
21.58963	0.03866493	-0.132335	0.00158593	0.001190853	0.04858219	0.03647969
21.6062	0.03866493	-0.132335	0	0	-0.04786347	-0.03594002
21.62276	0.03866493	-0.132335	0	0	0	0
21.63933	0.03819195	-0.1307968	-0.02855251	0.09285586	-0.8617659	2.802557
21.6559	0.03819195	-0.1307968	0	0	0.8617659	-2.802557
21.67246	0.03819195	-0.1307968	0	0	0	0
21.68908	0.03619471	-0.1036212	-0.1202074	1.635611	-3.622654	49.29189
21.7056	0.03619471	-0.1036212	0	0	3.627868	-49.36283
21.72216	0.03619471	-0.1036212	0	0	0	0
21.73873	0.04447066	-0.03294661	0.4995947	4.266421	15.07867	128.7682
21.7553	0.04447066	-0.03294661	0	0	-15.07867	-128.7682
21.77214	0.04447066	-0.03294661	0	0	0	0
21.78843	0.05838095	0.04731004	0.8538811	4.926543	25.77167	148.6919
21.805	0.05838095	0.04731004	0	0	-25.98709	-149.9348
21.82156	0.05838095	0.04731004	0	0	0	0
21.8382	0.06760734	0.1072007	0.55448	3.599259	16.69771	108.3888
21.85471	0.06760734	0.1072007	0	0	-16.72942	-108.5946
21.87126	0.06760734	0.1072007	0	0	0	0
21.88783	0.06443699	0.1639337	-0.1913626	3.424411	-5.777331	103.3846
21.9044	0.06443699	0.1639337	0	0	5.775336	-103.3489
21.92097	0.06443699	0.1639337	0	0	0	0
21.93753	0.04581003	0.2383803	-1.124325	4.493608	-33.9322	135.6173
21.9541	0.04581003	0.2383803	0	0	33.9322	-135.6173
21.97067	0.04581003	0.2383803	0	0	0	0
21.98723	0.02362718	0.303792	-1.33896	3.94826	-40.40988	119.1587
22.0038	0.02362718	0.303792	0	0	40.40988	-119.1587
22.02037	0.02362718	0.303792	0	0	0	0
22.03694	0.007657745	0.3390319	-0.9639171	2.127083	-29.09108	64.1955
22.0535	0.007657745	0.3390319	0	0	29.09108	-64.1955
22.07425	0.007657745	0.3390319	0	0	0	0
22.08664	-0.001473683	0.3579793	-0.7373322	1.529941	-22.25401	46.17636
22.1032	-0.001473683	0.3579793	0	0	25.46604	-52.84121
22.11977	-0.001473683	0.3579793	0	0	0	0
22.13634	0.001026315	0.3648559	0.1509176	0.4151213	4.554964	12.52911
22.1529	0.001026315	0.3648559	0	0	-4.554964	-12.52911
22.16948	0.001026315	0.3648559	0	0	0	0
22.18604	0.001157894	0.3649095	0.007946691	0.003236234	0.2398316	0.09766975
22.20261	0.001157894	0.3649095	0	0	-0.2399007	-0.09769787
22.21917	0.001157894	0.3649095	0	0	0	0
22.23574	0.00118421	0.3648917	0.001588601	-0.001077648	0.04794683	-0.03252536
22.25231	0.00118421	0.3648917	0	0	-0.04794683	0.03252536
22.26887	0.00118421	0.3648917	0	0	0	0
22.28544	0.001236841	0.3648559	0.003177208	-0.002157096	0.09589386	-0.06510502
22.30202	0.001236841	0.3648559	0	0	-0.09584972	0.06507505
22.31858	0.001236841	0.3648559	0	0	0	0
22.33514	0.001394736	0.3647488	0.009537116	-0.006473214	0.2879799	-0.1954633
22.35171	0.001394736	0.3647488	0	0	-0.2879302	0.1954295
22.36827	0.001394736	0.3647488	0	0	0	0
22.38484	0.001763156	0.3644987	0.02224045	-0.01509607	0.6712566	-0.4556265
22.40161	0.001763156	0.3644987	0	0	-0.6671854	0.4528631
22.41812	0.001763156	0.3644987	0	0	0	0
22.43454	0.003026307	0.3636056	0.07695267	-0.05441153	2.336965	-1.652416
22.45111	0.003026307	0.3636056	0	0	-2.332911	1.64955
22.46815	0.003026307	0.3636056	0	0	0	0
22.48424	0.003552617	0.363034	0.03271733	-0.03553141	0.9875816	-1.072525
22.5008	0.003552617	0.363034	0	0	-1.001945	1.088124
22.51737	0.003552617	0.363034	0	0	0	0
22.53394	0.02128626	0.3447462	1.070528	-1.10398	32.31046	-33.32009
22.5505	0.02128626	0.3447462	0	0	-32.3086	33.31817
22.5672	0.02128626	0.3447462	0	0	0	0
22.58364	0.06886462	0.2709427	2.894496	-4.489941	87.36612	-135.5223
22.6002	0.06886462	0.2709427	0	0	-87.69935	136.0392
22.61677	0.06886462	0.2709427	0	0	0	0
22.63472	0.09521125	0.2137804	1.46793	-3.184855	42.53209	-92.2786
22.65129	0.09521125	0.2137804	0	0	-42.52269	92.2582
22.66785	0.09521125	0.2137804	0	0	0	0
22.68442	0.09367242	0.1582411	-0.09290524	-3.353132	-2.804531	-101.221
22.70098	0.09367242	0.1582411	0	0	2.804047	101.2035
22.71755	0.09367242	0.1582411	0	0	0	0
22.73412	0.0890272	0.05412101	-0.2804507	-6.286148	-8.464993	-189.7382
22.75073	0.0890272	0.05412101	0	0	8.453798	189.4872
22.76725	0.0890272	0.05412101	0	0	0	0
22.78382	0.07810395	-0.04558222	-0.6594047	-6.018792	-19.92841	-181.8988
22.80038	0.07810395	-0.04558222	0	0	19.90087	181.6475
22.81695	0.07810395	-0.04558222	0	0	0	0
22.83352	0.05769904	-0.06988127	-1.231785	-1.466862	-37.17747	-44.27254
22.85008	0.05769904	-0.06988127	0	0	37.17747	44.27254
22.86679	0.05769904	-0.06988127	0	0	0	0
22.88322	0.05777773	-0.06982349	0.004788943	0.003516713	0.1445389	0.1061407
22.89978	0.05777773	-0.06982349	0	0	-0.1451321	-0.1065763
22.91635	0.05777773	-0.06982349	0	0	0	0
22.93292	0.05780395	-0.06984275	0.001583414	-0.001162655	0.04779029	-0.03509101
22.94984	0.05780395	-0.06984275	0	0	-0.04727592	0.03471332
22.96637	0.05780395	-0.06984275	0	0	0	0
22.98261	0.05783018	-0.06986201	0.001614797	-0.001185867	0.04927646	-0.0361874
22.99938	0.05783018	-0.06986201	0	0	-0.04892337	0.0359281
23.0159	0.05783018	-0.06986201	0	0	0	0
23.03231	0.05783018	-0.06986201	0	0	0	0
23.04888	0.05783018	-0.06986201	0	0	0	0
23.06545	0.05783018	-0.06986201	0	0	0	0
23.08201	0.05788264	-0.06990054	0.003166239	-0.002325492	0.09556829	-0.07019155
23.09858	0.05788264	-0.06990054	0	0	-0.09555729	0.07018347
23.11515	0.05788264	-0.06990054	0	0	0	0
23.13171	0.05790887	-0.06999683	0.001583414	-0.005813274	0.04779029	-0.175455
23.14828	0.05790887	-0.06999683	0	0	-0.04779029	0.175455
23.16485	0.05790887	-0.06999683	0	0	0	0
23.18326	0.05788264	-0.07001609	-0.00142463	-0.001046064	-0.0407283	-0.0299056
23.20053	0.05788264	-0.07001609	0	0	0.03992497	0.02931574
23.21639	0.05788264	-0.07001609	0	0	0	0
23.23296	0.05783018	-0.07005462	-0.003166239	-0.002325492	-0.09763108	-0.0717066
23.24953	0.05783018	-0.07005462	0	0	0.09555729	0.07018347
23.2661	0.05783018	-0.07005462	0	0	0	0
23.28266	0.05777773	-0.07024724	-0.003166239	-0.01162656	-0.09555729	-0.3508902
23.29923	0.05777773	-0.07024724	0	0	0.09555729	0.3508902
23.3158	0.05777773	-0.07024724	0	0	0	0
23.33236	0.05706954	-0.07088299	-0.04275106	-0.0383784	-1.290304	-1.158329
23.34893	0.05706954	-0.07088299	0	0	1.290304	1.158329
23.3655	0.05706954	-0.07088299	0	0	0	0
23.38206	0.05706954	-0.07084446	0	0.002325941	0	0.07019704
23.39863	0.05706954	-0.07084446	0	0	0	-0.07019704
23.4152	0.05706954	-0.07084446	0	0	0	0
23.43219	0.05699085	-0.07043988	-0.004631847	0.02381466	-0.1380412	0.7097397
23.44833	0.05699085	-0.07043988	0	0	0.1397975	-0.7187693
23.4649	0.05699085	-0.07043988	0	0	0	0
23.48146	0.05239936	-0.05175749	-0.2771429	1.127671	-8.364191	34.03318
23.49824	0.05239936	-0.05175749	0	0	8.312037	-33.82096
23.5146	0.05239936	-0.05175749	0	0	0	0
23.53117	0.04011006	-0.008810596	-0.7417839	2.59228	-22.52843	78.72915
23.54778	0.04011006	-0.008810596	0	0	22.3562	-78.12723
23.5643	0.04011006	-0.008810596	0	0	0	0
23.58087	0.02657269	0.008000604	-0.817211	1.014843	-24.69902	30.67216
23.59743	0.02657269	0.008000604	0	0	24.6649	-30.62978
23.614	0.02657269	0.008000604	0	0	0	0
23.63057	-0.008947129	0.03348362	-2.143981	1.538158	-64.70546	46.42169
23.64735	-0.008947129	0.03348362	0	0	64.29464	-46.12696
23.66387	-0.008947129	0.03348362	0	0	0	0
23.68027	-0.04431308	0.0586242	-2.156541	1.53302	-65.50687	46.56685
23.69683	-0.04431308	0.0586242	0	0	65.41591	-46.50219
23.7134	-0.04431308	0.0586242	0	0	0	0
23.72997	-0.04720176	0.06047587	-0.1743811	0.1117804	-5.263135	3.373732
23.74653	-0.04720176	0.06047587	0	0	5.263135	-3.373732
23.76344	-0.04720176	0.06047587	0	0	0	0
23.77993	-0.03117411	0.04831296	0.9715694	-0.7372957	29.09093	-22.07626
23.79646	-0.03117411	0.04831296	0	0	-29.42195	22.32746
23.8128	-0.03117411	0.04831296	0	0	0	0
23.82937	-0.001315789	0.02717665	1.802252	-1.27579	54.76088	-38.7645
23.84598	-0.001315789	0.02717665	0	0	-54.32014	38.45251
23.8625	-0.001315789	0.02717665	0	0	0	0
23.87907	0.005815724	0.0220745	0.430459	-0.3079665	13.0085	-9.306769
23.89564	0.005815724	0.0220745	0	0	-12.99128	9.294448
23.9122	0.005815724	0.0220745	0	0	0	0
23.92877	0.005815724	0.0220745	0	0	0	0
23.94554	0.005815724	0.0220745	0	0	0	0
23.9619	0.005815724	0.0220745	0	0	0	0
23.97847	0.005684149	0.02186877	-0.00794185	-0.01241806	-0.241157	-0.3770787
23.99508	0.005684149	0.02186877	0	0	0.2394237	0.3743684
24.01209	0.005684149	0.02186877	0	0	0	0
24.02817	0.008473481	0.01670277	0.1734155	-0.3211749	5.239421	-9.703691
24.04474	0.008473481	0.01670277	0	0	-5.311039	9.83633
24.06163	0.008473481	0.01670277	0	0	0	0
24.07787	0.01978689	0.007850373	0.6965107	-0.5449986	21.02194	-16.44904
24.09467	0.01978689	0.007850373	0	0	-21.08385	16.49747
24.11101	0.01978689	0.007850373	0	0	0	0
24.12769	0.02872894	0.001421762	0.5361015	-0.3854138	16.23565	-11.67213
24.14414	0.02872894	0.001421762	0	0	-16.17957	11.63181
24.16071	0.02872894	0.001421762	0	0	0	0
24.17727	0.03648381	-0.004133316	0.4681388	-0.3353437	14.12927	-10.12128
24.19384	0.03648381	-0.004133316	0	0	-14.12927	10.12128
24.21041	0.03648381	-0.004133316	0	0	0	0
24.22724	0.04599386	-0.01096289	0.5649865	-0.4057408	16.91598	-12.14808
24.24354	0.04599386	-0.01096289	0	0	-17.05133	12.24528
24.26028	0.04599386	-0.01096289	0	0	0	0
24.27667	0.0460989	-0.01107621	0.006407995	-0.006913094	0.1934048	-0.2086496
24.29324	0.0460989	-0.01107621	0	0	-0.1944233	0.2097484
24.30981	0.0460989	-0.01107621	0	0	0	0
24.32638	0.0459676	-0.01120842	-0.007925155	-0.007980188	-0.2391816	-0.2408426
24.34296	0.0459676	-0.01120842	0	0	0.2390853	0.2407456
24.35951	0.0459676	-0.01120842	0	0	0	0
24.37608	0.04591507	-0.01124619	-0.003170287	-0.002280126	-0.09572352	-0.06884605
24.39264	0.04591507	-0.01124619	0	0	0.09567944	0.06881434
24.40921	0.04591507	-0.01124619	0	0	0	0
24.42578	0.04588882	-0.01126508	-0.001585031	-0.001140035	-0.04783633	-0.03440632
24.44253	0.04588882	-0.01126508	0	0	0.04756798	0.03421332
24.45891	0.04588882	-0.01126508	0	0	0	0
24.47548	0.04588882	-0.01130285	0	-0.002280182	0	-0.06921046
24.49258	0.04588882	-0.01130285	0	0	0	0.06771679
24.50861	0.04588882	-0.01130285	0	0	0	0
24.52518	0.0459676	-0.01143507	0.004755865	-0.00798167	0.1459178	-0.2448908
24.54211	0.0459676	-0.01143507	0	0	-0.1419633	0.238254
24.55831	0.0459676	-0.01143507	0	0	0	0
24.57487	0.05008965	-0.01440198	0.2488073	-0.1790826	7.593824	-5.465761
24.59144	0.05008965	-0.01440198	0	0	-7.50902	5.404723
24.60814	0.05008965	-0.01440198	0	0	0	0
24.62458	0.06236638	-0.0232624	0.7471323	-0.5392237	22.5485	-16.2738
24.64117	0.06236638	-0.0232624	0	0	-22.62142	16.32643
24.65771	0.06236638	-0.0232624	0	0	0	0
24.67428	0.06661183	-0.02633528	0.2562851	-0.185501	7.741829	-5.603592
24.69084	0.06661183	-0.02633528	0	0	-7.735144	5.598753
24.70741	0.06661183	-0.02633528	0	0	0	0
24.72398	0.06663803	-0.0263163	0.00158184	0.001145676	0.04774278	0.03457856
24.74073	0.06663803	-0.0263163	0	0	-0.04747766	-0.03438654
24.75726	0.06663803	-0.0263163	0	0	0	0
24.77368	0.06663803	-0.0263163	0	0	0	0
24.79028	0.06663803	-0.0263163	0	0	0	0
24.80681	0.06663803	-0.0263163	0	0	0	0
24.82337	0.06666423	-0.02629733	0.00158139	0.001145563	0.04778422	0.03461502
24.83994	0.06666423	-0.02629733	0	0	-0.0477292	-0.03457516
24.85651	0.06666423	-0.02629733	0	0	0	0
24.87308	0.06669043	-0.02627835	0.001581658	0.001145544	0.04773453	0.03457259
24.88964	0.06669043	-0.02627835	0	0	-0.04773453	-0.03457259
24.90636	0.06669043	-0.02627835	0	0	0	0
24.92338	0.06679522	-0.02620244	0.00615866	0.004461142	0.1825688	0.1322472
24.93934	0.06679522	-0.02620244	0	0	-0.1867286	-0.1352604
24.95593	0.06679522	-0.02620244	0	0	0	0
24.97248	0.06760734	-0.02572805	0.0490701	0.0286638	1.480938	0.8650753
24.98904	0.06760734	-0.02572805	0	0	-1.481706	-0.8655237
25.00595	0.06760734	-0.02572805	0	0	0	0
25.02244	0.07331572	-0.02204925	0.3460731	0.2230287	10.36278	6.678351
25.03874	0.07331572	-0.02204925	0	0	-10.5514	-6.799911
25.05531	0.07331572	-0.02204925	0	0	0	0
25.07196	0.09880876	-0.004095623	1.531007	1.078221	46.08915	32.45856
25.08844	0.09880876	-0.004095623	0	0	-46.20855	-32.54265
25.10501	0.09880876	-0.004095623	0	0	0	0
25.12682	0.1450272	0.01250447	2.119089	0.7611043	55.21659	19.83191
25.14352	0.1450272	0.01250447	0	0	-55.03061	-19.76511
25.15996	0.1829827	0.008976944	2.309072	-0.2146018	69.68792	-6.476694
25.17654	0.1829827	0.008976944	0	0	-69.92944	6.499141
25.19309	0.1829827	0.008976944	0	0	0	0
25.20966	0.2397459	0.001816855	3.426629	-0.4322336	103.4695	-13.0516
25.22657	0.2397459	0.001816855	0	0	-102.3378	12.90885
25.24279	0.2397459	0.001816855	0	0	0	0
25.25961	0.2836405	-0.0004414499	2.609528	-0.1342558	78.99217	-4.064013
25.27592	0.2836405	-0.0004414499	0	0	-78.76025	4.052082
25.29263	0.2836405	-0.0004414499	0	0	0	0
25.30914	0.325236	-0.003398382	2.519408	-0.1790993	75.8438	-5.391573
25.32562	0.325236	-0.003398382	0	0	-76.36118	5.428352
25.34219	0.325236	-0.003398382	0	0	0	0
25.35876	0.3503928	-0.003662185	1.518469	-0.01592322	45.82748	-0.4805637
25.37532	0.3503928	-0.003662185	0	0	-45.82748	0.4805637
25.39189	0.3503928	-0.003662185	0	0	0	0
25.41266	0.362388	-0.006320245	0.5774421	-0.1279578	15.46437	-3.426815
25.42923	0.362388	-0.006320245	0	0	-15.46437	3.426815
25.4458	0.3692953	-0.01200179	0.4169263	-0.3429385	12.58286	-10.3499
25.46237	0.3692953	-0.01200179	0	0	-12.58286	10.3499
25.47893	0.3692953	-0.01200179	0	0	0	0
25.49611	0.3711478	-0.01353241	0.1078208	-0.08908607	3.194821	-2.639695
25.51207	0.3711478	-0.01353241	0	0	-3.254039	2.688623
25.52864	0.3711478	-0.01353241	0	0	0	0
25.5452	0.3711935	-0.01357021	0.002760741	-0.002282808	0.08332412	-0.06889924
25.56177	0.3711935	-0.01357021	0	0	-0.08333851	0.06891114
25.57833	0.3711935	-0.01357021	0	0	0	0
25.59519	0.3720616	-0.01421292	0.05151157	-0.03813539	1.541314	-1.141076
25.61147	0.3720616	-0.01421292	0	0	-1.554712	1.150995
25.62819	0.3720616	-0.01421292	0	0	0	0
25.64521	0.374161	-0.01538525	0.1233937	-0.06890557	3.657292	-2.042307
25.66117	0.374161	-0.01538525	0	0	-3.742341	2.089799
25.67773	0.374161	-0.01538525	0	0	0	0
25.69583	0.3965538	-0.03353624	1.23764	-1.003199	35.70766	-28.94372
25.71239	0.3965538	-0.03353624	0	0	-35.70766	28.94372
25.7293	0.3965538	-0.03353624	0	0	0	0
25.7458	0.4026505	-0.03873373	0.3694485	-0.314954	11.05895	-9.427726
25.76232	0.4026505	-0.03873373	0	0	-11.18798	9.537724
25.77866	0.4026505	-0.03873373	0	0	0	0
25.79523	0.4026282	-0.03875279	-0.001345556	-0.001150154	-0.04088906	-0.03495112
25.812	0.4026282	-0.03875279	0	0	0.04035344	0.03449329
25.82836	0.4026282	-0.03875279	0	0	0	0
25.84503	0.4025837	-0.03875279	-0.002672392	0	-0.08091377	0
25.86149	0.4025837	-0.03875279	0	0	0.08065759	0
25.87807	0.4025837	-0.03875279	0	0	0	0
25.89462	0.40245	-0.03875279	-0.008071657	0	-0.2436171	0
25.91119	0.40245	-0.03875279	0	0	0.2436592	0
25.92809	0.40245	-0.03875279	0	0	0	0
25.94432	0.4017815	-0.03913391	-0.04117716	-0.0234749	-1.242801	-0.7085148
25.96096	0.4017815	-0.03913391	0	0	1.252826	0.7142299
25.97799	0.4017815	-0.03913391	0	0	0	0
25.99402	0.4010679	-0.03951508	-0.04450504	-0.02377394	-1.345876	-0.7189475
26.01059	0.4010679	-0.03951508	0	0	1.365168	0.729253
26.02716	0.4010679	-0.03951508	0	0	0	0
26.04372	0.3999299	-0.03983911	-0.06870323	-0.01956093	-2.073587	-0.5903842
26.06052	0.3999299	-0.03983911	0	0	2.059125	0.5862667
26.07686	0.3999299	-0.03983911	0	0	0	0
26.09342	0.397628	-0.04123095	-0.1389572	-0.08402081	-4.223643	-2.553835
26.10999	0.397628	-0.04123095	0	0	4.193979	2.535899
26.12656	0.397628	-0.04123095	0	0	0	0
26.14313	0.3972924	-0.0409449	-0.0202553	0.0172658	-0.611306	0.5210828
26.15969	0.3972924	-0.0409449	0	0	0.611306	-0.5210828
26.17626	0.3972924	-0.0409449	0	0	0	0
26.19283	0.3972924	-0.0409449	0	0	0	0
26.20939	0.3972924	-0.0409449	0	0	0	0
26.22616	0.3972924	-0.0409449	0	0	0	0
26.24253	0.3972924	-0.0409449	0	0	0	0
26.25909	0.3972924	-0.0409449	0	0	0	0
26.27566	0.3972924	-0.0409449	0	0	0	0
26.29268	0.39727	-0.04096397	-0.001315071	-0.00112048	-0.03915473	-0.03336104
26.30879	0.39727	-0.04096397	0	0	0.03969119	0.03381811
26.3257	0.39727	-0.04096397	0	0	0	0
26.34193	0.39727	-0.04096397	0	0	0	0
26.3585	0.39727	-0.04096397	0	0	0	0
26.37524	0.39727	-0.04096397	0	0	0	0
26.39175	0.39727	-0.04096397	0	0	0	0
26.40819	0.39727	-0.04096397	0	0	0	0
26.42476	0.39727	-0.04096397	0	0	0	0
26.44133	0.39727	-0.04096397	0	0	0	0
26.45789	0.39727	-0.04096397	0	0	0	0
26.47482	0.39727	-0.04096397	0	0	0	0
26.49103	0.39727	-0.04096397	0	0	0	0
26.50783	0.39727	-0.04096397	0	0	0	0
26.52427	0.39727	-0.04096397	0	0	0	0
26.54076	0.39727	-0.04096397	0	0	0	0
26.55729	0.39727	-0.04096397	0	0	0	0
26.57386	0.39727	-0.04096397	0	0	0	0
26.59079	0.39727	-0.04096397	0	0	0	0
26.607	0.39727	-0.04096397	0	0	0	0
26.62382	0.39727	-0.04096397	0	0	0	0
26.64033	0.3972476	-0.04098304	-0.001355635	-0.001155042	-0.04067199	-0.03465379
26.65683	0.3972476	-0.04098304	0	0	0.0410668	0.03499017
26.67326	0.3972476	-0.04098304	0	0	0	0
26.68984	0.3972253	-0.04100211	-0.001349865	-0.001149902	-0.04088728	-0.03483041
26.7064	0.3972253	-0.04100211	0	0	0.040739	0.0347041
26.72296	0.3972253	-0.04100211	0	0	0	0
26.73953	0.3972253	-0.04100211	0	0	0	0
26.7561	0.3972253	-0.04100211	0	0	0	0
26.77266	0.3972253	-0.04100211	0	0	0	0
26.78923	0.3971805	-0.04104025	-0.002702216	-0.002302371	-0.08155775	-0.0694897
26.8058	0.3971805	-0.04104025	0	0	0.08155775	0.0694897
26.82236	0.3971805	-0.04104025	0	0	0	0
26.83893	0.3969567	-0.04123095	-0.01350773	-0.01151076	-0.407664	-0.3473953
26.8555	0.3969567	-0.04123095	0	0	0.407664	0.3473953
26.87206	0.3969567	-0.04123095	0	0	0	0
26.88863	0.3968	-0.04136444	-0.009458467	-0.008057822	-0.2854571	-0.2431855
26.9052	0.3968	-0.04136444	0	0	0.2854571	0.2431855
26.92177	0.3968	-0.04136444	0	0	0	0
26.93833	0.3967552	-0.04140259	-0.002701905	-0.002302331	-0.08154366	-0.06948449
26.95504	0.3967552	-0.04140259	0	0	0.08121175	0.06920166
26.97147	0.3967552	-0.04140259	0	0	0	0
26.98804	0.3967105	-0.04140259	-0.002701905	0	-0.0818783	0
27.0046	0.3967105	-0.04140259	0	0	0.08154366	0
27.02159	0.3967105	-0.04140259	0	0	0	0
27.03774	0.3965985	-0.04134537	-0.006930503	0.003542288	-0.209163	0.1069065
27.0543	0.3965985	-0.04134537	0	0	0.2118211	-0.1082651
27.07087	0.3965985	-0.04134537	0	0	0	0
27.08781	0.3952993	-0.04142166	-0.07669479	-0.00450305	-2.28883	-0.1343861
27.10401	0.3952993	-0.04142166	0	0	2.314653	0.1359023
27.12086	0.3952993	-0.04142166	0	0	0	0
27.13714	0.3664312	-0.06395534	-1.77393	-1.384686	-53.5404	-41.7923
27.15387	0.3664312	-0.06395534	0	0	53.7477	41.95411
27.17027	0.3664312	-0.06395534	0	0	0	0
27.18684	0.2925429	-0.08227406	-4.460422	-1.105847	-135.2934	-33.54253
27.20341	0.2925429	-0.08227406	0	0	134.6236	33.37646
27.21997	0.2925429	-0.08227406	0	0	0	0
27.23654	0.2170523	-0.07885178	-4.556622	0.2065689	-137.5191	6.234263
27.25311	0.2170523	-0.07885178	0	0	137.5191	-6.234263
27.26967	0.2170523	-0.07885178	0	0	0	0
27.28624	0.1390701	-0.07470052	-4.707552	0.2505995	-142.0824	7.563544
27.30299	0.1390701	-0.07470052	0	0	141.3177	-7.522836
27.31938	0.1390701	-0.07470052	0	0	0	0
27.33964	0.08176467	-0.08175174	-2.828523	-0.3480391	-77.17724	-9.496368
27.35261	0.08176467	-0.08175174	0	0	85.10535	10.47189
27.36912	0.05460356	-0.08134556	-1.64494	0.0245994	-55.7841	0.8342285
27.38564	0.05460356	-0.08134556	0	0	49.79918	-0.7447264
27.40221	0.05460356	-0.08134556	0	0	0	0
27.41878	0.04158128	-0.07142252	-0.786117	0.5990245	-23.72642	18.07964
27.43534	0.04158128	-0.07142252	0	0	23.72506	-18.07859
27.45191	0.04158128	-0.07142252	0	0	0	0
27.46848	0.03380291	-0.06568565	-0.4695576	0.3463182	-14.17291	10.45311
27.48519	0.03380291	-0.06568565	0	0	14.10793	-10.40518
27.50161	0.03380291	-0.06568565	0	0	0	0
27.51822	0.03388176	-0.06574335	0.004748335	-0.003474216	0.1437934	-0.1052094
27.53474	0.03388176	-0.06574335	0	0	-0.143305	0.1048521
27.55131	0.03388176	-0.06574335	0	0	0	0
27.56787	0.03396062	-0.06580105	0.004760363	-0.003483017	0.1436763	-0.1051237
27.58444	0.03396062	-0.06580105	0	0	-0.1436763	0.1051237
27.60127	0.03396062	-0.06580105	0	0	0	0
27.61757	0.03396062	-0.06583951	0	-0.002359931	0	-0.07122695
27.63854	0.03396062	-0.06583951	0	0	0	0.06333027
27.65071	0.03396062	-0.06583951	0	0	0	0
27.66727	0.03398691	-0.06585874	0.001586605	-0.001160722	0.05521292	-0.04039245
27.68384	0.03398691	-0.06585874	0	0	-0.04788383	0.03503066
27.70041	0.03398691	-0.06585874	0	0	0	0
27.71698	0.03396062	-0.06583951	-0.001586605	0.001160722	-0.04788383	0.03503066
27.73354	0.03396062	-0.06583951	0	0	0.04788383	-0.03503066
27.75011	0.03396062	-0.06583951	0	0	0	0
27.76668	0.03396062	-0.06583951	0	0	0	0
27.78344	0.03396062	-0.06583951	0	0	0	0
27.79981	0.03396062	-0.06583951	0	0	0	0
27.81638	0.03396062	-0.06583951	0	0	0	0
27.83294	0.03396062	-0.06583951	0	0	0	0
27.84951	0.03396062	-0.06583951	0	0	0	0
27.86608	0.03396062	-0.06583951	0	0	0	0
27.88264	0.03396062	-0.06583951	0	0	0	0
27.89921	0.03396062	-0.06583951	0	0	0	0
27.91967	0.03396062	-0.06583951	0	0	0	0
27.93624	0.03396062	-0.06583951	0	0	0	0
27.95303	0.03396062	-0.06583951	0	0	0	0
27.96937	0.03396062	-0.06583951	0	0	0	0
27.98594	0.03396062	-0.06583951	0	0	0	0
28.0025	0.03398691	-0.06585874	0.001586605	-0.001160722	0.04788383	-0.03503066
28.01907	0.03398691	-0.06585874	0	0	-0.04788383	0.03503066
28.03564	0.03398691	-0.06585874	0	0	0	0
28.0522	0.03409205	-0.06593568	0.00634715	-0.004644322	0.1915684	-0.140174
28.06913	0.03409205	-0.06593568	0	0	-0.1894849	0.1386495
28.08534	0.03409205	-0.06593568	0	0	0	0
28.1019	0.03422347	-0.06603184	0.0079328	-0.005804509	0.2420739	-0.1771279
28.11847	0.03422347	-0.06603184	0	0	-0.2394124	0.1751804
28.13504	0.03422347	-0.06603184	0	0	0	0
28.1516	0.03424976	-0.06605108	0.001586788	-0.001161305	0.0478921	-0.03505029
28.16821	0.03424976	-0.06605108	0	0	-0.04783152	0.03500595
28.18763	0.03424976	-0.06605108	0	0	0	0
28.2013	0.03424976	-0.06605108	0	0	0	0
28.21824	0.03424976	-0.06605108	0	0	0	0
28.23444	0.03424976	-0.06605108	0	0	0	0
28.25128	0.03427605	-0.06607031	0.001561084	-0.001142052	0.04726052	-0.03457466
28.26757	0.03427605	-0.06607031	0	0	-0.04711361	0.03446718
28.28429	0.03427605	-0.06607031	0	0	0	0
28.3007	0.0343549	-0.06612802	0.004804392	-0.003515852	0.1450135	-0.1061208
28.31727	0.0343549	-0.06612802	0	0	-0.1456761	0.1066057
28.33384	0.0343549	-0.06612802	0	0	0	0
28.3504	0.03453889	-0.06626266	0.01110578	-0.008127303	0.3351732	-0.2452825
28.36735	0.03453889	-0.06626266	0	0	-0.331415	0.2425321
28.38354	0.03453889	-0.06626266	0	0	0	0
28.40037	0.03467031	-0.06635884	0.007809401	-0.005715265	0.236505	-0.1730848
28.41667	0.03467031	-0.06635884	0	0	-0.2356882	0.172487
28.43324	0.03467031	-0.06635884	0	0	0	0
28.4498	0.03467031	-0.06639732	0	-0.002322611	0	-0.07010461
28.46638	0.03467031	-0.06639732	0	0	0	0.0700925
28.48294	0.03467031	-0.06639732	0	0	0	0
28.49951	0.0346966	-0.06641655	0.001586788	-0.001160856	0.04789486	-0.03503873
28.51644	0.0346966	-0.06641655	0	0	-0.04737123	0.03465566
28.53264	0.0346966	-0.06641655	0	0	0	0
28.5518	0.03472288	-0.06643578	0.00137203	-0.001004275	0.03880138	-0.02840118
28.56849	0.03472288	-0.06643578	0	0	-0.03827492	0.02801583
28.58493	0.03472288	-0.06643578	0	0	0	0
28.6015	0.03474917	-0.06645502	0.001586788	-0.001161305	0.0480692	-0.0351799
28.61807	0.03474917	-0.06645502	0	0	-0.0478921	0.03505029
28.63463	0.03474917	-0.06645502	0	0	0	0
28.6512	0.03493315	-0.06658968	0.01110661	-0.008129138	0.3352175	-0.245352
28.66777	0.03493315	-0.06658968	0	0	-0.3352175	0.245352
28.68456	0.03493315	-0.06658968	0	0	0	0
28.70108	0.03598446	-0.0673593	0.0636257	-0.0465774	1.909893	-1.398143
28.71758	0.03598446	-0.0673593	0	0	-1.92666	1.410418
28.73409	0.03598446	-0.0673593	0	0	0	0
28.75377	0.0377715	-0.06866813	0.0908224	-0.06651871	2.509729	-1.838136
28.77034	0.0377715	-0.06866813	0	0	-2.505899	1.835331
28.7869	0.0377715	-0.06866813	0	0	0	0
28.80366	0.0377715	-0.06866813	0	0	0	0
28.82004	0.0377715	-0.06866813	0	0	0	0
28.8366	0.0377715	-0.06866813	0	0	0	0
28.85322	0.0377715	-0.06866813	0	0	0	0
28.86974	0.0377715	-0.06866813	0	0	0	0
28.8863	0.0377715	-0.06866813	0	0	0	0
28.90287	0.0377715	-0.06866813	0	0	0	0
28.91944	0.0377715	-0.06866813	0	0	0	0
28.936	0.0377715	-0.06866813	0	0	0	0
28.95257	0.0377715	-0.06866813	0	0	0	0
28.96914	0.0377715	-0.06866813	0	0	0	0
28.98581	0.0377715	-0.06866813	0	0	0	0
29.00227	0.0377715	-0.06866813	0	0	0	0
29.01906	0.0377715	-0.06866813	0	0	0	0
29.0354	0.0377715	-0.06866813	0	0	0	0
29.05197	0.0377715	-0.06866813	0	0	0	0
29.06853	0.0377715	-0.06866813	0	0	0	0
29.0851	0.0377715	-0.06866813	0	0	0	0
29.10167	0.0377715	-0.06866813	0	0	0	0
29.11824	0.0377715	-0.06866813	0	0	0	0
29.13512	0.0377715	-0.06866813	0	0	0	0
29.15138	0.0377715	-0.06866813	0	0	0	0
29.16794	0.0377715	-0.06866813	0	0	0	0
29.18466	0.0377715	-0.06866813	0	0	0	0
29.20107	0.0377715	-0.06866813	0	0	0	0
29.21764	0.0377715	-0.06866813	0	0	0	0
29.2342	0.0377715	-0.06866813	0	0	0	0
29.25077	0.0377715	-0.06866813	0	0	0	0
29.26734	0.0377715	-0.06866813	0	0	0	0
29.28424	0.0377715	-0.06866813	0	0	0	0
29.30282	0.0377715	-0.06866813	0	0	0	0
29.31938	0.0377715	-0.06866813	0	0	0	0
29.33595	0.0377715	-0.06866813	0	0	0	0
29.35252	0.0377715	-0.06866813	0	0	0	0
29.36909	0.0377715	-0.06866813	0	0	0	0
29.38565	0.0377715	-0.06866813	0	0	0	0
29.40231	0.0377715	-0.06866813	0	0	0	0
29.41879	0.0377715	-0.06866813	0	0	0	0
29.43535	0.0377715	-0.06866813	0	0	0	0
29.452	0.0377715	-0.06866813	0	0	0	0
29.46857	0.0377715	-0.06866813	0	0	0	0
29.4854	0.0377715	-0.06866813	0	0	0	0
29.5017	0.03779778	-0.06864888	0.001611951	0.00118097	0.04865157	0.03564379
29.51827	0.03779778	-0.06864888	0	0	-0.04904117	-0.03592923
29.53483	0.03779778	-0.06864888	0	0	0	0
29.5514	0.03779778	-0.06864888	0	0	0	0
29.56797	0.03779778	-0.06864888	0	0	0	0
29.58497	0.03779778	-0.06864888	0	0	0	0
29.6011	0.03779778	-0.06864888	0	0	0	0
29.61767	0.03779778	-0.06864888	0	0	0	0
29.63424	0.03779778	-0.06864888	0	0	0	0
29.65102	0.0377715	-0.06866813	-0.001565785	-0.001147147	-0.04695009	-0.03439723
29.66754	0.0377715	-0.06866813	0	0	0.04701732	0.03444649
29.68394	0.0377715	-0.06866813	0	0	0	0
29.7005	0.03779778	-0.06868739	0.001586338	-0.001162205	0.0481251	-0.03525808
29.71707	0.03779778	-0.06868739	0	0	-0.04787853	0.03507744
29.73363	0.03779778	-0.06868739	0	0	0	0
29.7502	0.03779778	-0.06868739	0	0	0	0
29.76677	0.03779778	-0.06868739	0	0	0	0
29.78333	0.03779778	-0.06868739	0	0	0	0
29.7999	0.03779778	-0.06868739	0	0	0	0
29.81647	0.03779778	-0.06868739	0	0	0	0
29.8399	0.03779778	-0.06868739	0	0	0	0
29.85146	0.03779778	-0.06868739	0	0	0	0
29.86817	0.03779778	-0.06868739	0	0	0	0
29.92631	0.03779778	-0.06868739	0	0	0	0
29.94288	0.03779778	-0.06868739	0	0	0	0
29.95945	0.03779778	-0.06868739	0	0	0	0
29.97602	0.03779778	-0.06868739	0	0	0	0
29.99277	0.03779778	-0.06868739	0	0	0	0
30.00926	0.03779778	-0.06868739	0	0	0	0
30.02571	0.03779778	-0.06868739	0	0	0	0
30.04228	0.03779778	-0.06868739	0	0	0	0
30.05885	0.03779778	-0.06868739	0	0	0	0
30.07541	0.03779778	-0.06868739	0	0	0	0
30.09198	0.03779778	-0.06868739	0	0	0	0
30.10884	0.03779778	-0.06868739	0	0	0	0
30.12966	0.03779778	-0.06868739	0	0	0	0
30.14168	0.03779778	-0.06868739	0	0	0	0
30.15825	0.03779778	-0.06868739	0	0	0	0
30.17482	0.03779778	-0.06868739	0	0	0	0
30.19139	0.03779778	-0.06868739	0	0	0	0
30.20795	0.03779778	-0.06868739	0	0	0	0
30.22492	0.03779778	-0.06868739	0	0	0	0
30.24108	0.03779778	-0.06868739	0	0	0	0
30.25765	0.03779778	-0.06868739	0	0	0	0
30.27422	0.03779778	-0.06868739	0	0	0	0
30.29096	0.03779778	-0.06868739	0	0	0	0
30.30735	0.03779778	-0.06868739	0	0	0	0
30.324	0.03779778	-0.06868739	0	0	0	0
30.3405	0.03779778	-0.06868739	0	0	0	0
30.35705	0.03779778	-0.06868739	0	0	0	0
30.37403	0.03779778	-0.06868739	0	0	0	0
30.39018	0.03779778	-0.06868739	0	0	0	0
30.40675	0.03779778	-0.06868739	0	0	0	0
30.42332	0.03779778	-0.06868739	0	0	0	0
30.43988	0.03779778	-0.06868739	0	0	0	0
30.45659	0.03779778	-0.06868739	0	0	0	0
30.47302	0.03779778	-0.06868739	0	0	0	0
30.48958	0.03782406	-0.06870664	0.001586338	-0.001162205	0.04808336	-0.0352275
30.50615	0.03782406	-0.06870664	0	0	-0.04787853	0.03507744
30.52312	0.03782406	-0.06870664	0	0	0	0
30.53966	0.03782406	-0.06870664	0	0	0	0
30.55585	0.03782406	-0.06870664	0	0	0	0
30.57242	0.03782406	-0.06870664	0	0	0	0
30.58899	0.03782406	-0.06870664	0	0	0	0
30.60556	0.03782406	-0.06870664	0	0	0	0
30.62212	0.03782406	-0.06870664	0	0	0	0
30.63869	0.03782406	-0.06874514	0	-0.00232441	0	-0.07015488
30.65526	0.03782406	-0.06874514	0	0	0	0.07015083
30.67182	0.03782406	-0.06874514	0	0	0	0
30.68839	0.03782406	-0.06874514	0	0	0	0
30.70527	0.03782406	-0.06874514	0	0	0	0
30.72152	0.03782406	-0.06874514	0	0	0	0
30.73809	0.03782406	-0.06874514	0	0	0	0
30.75479	0.03782406	-0.06874514	0	0	0	0
30.77122	0.03782406	-0.06874514	0	0	0	0
30.78782	0.03782406	-0.06874514	0	0	0	0
30.80436	0.03782406	-0.06874514	0	0	0	0
30.82092	0.03782406	-0.06874514	0	0	0	0
30.83749	0.03782406	-0.06874514	0	0	0	0
30.85406	0.03782406	-0.06874514	0	0	0	0
30.87062	0.03782406	-0.06874514	0	0	0	0
30.88739	0.03782406	-0.06874514	0	0	0	0
30.90376	0.03782406	-0.06874514	0	0	0	0
30.92044	0.03782406	-0.06874514	0	0	0	0
30.93689	0.03782406	-0.06874514	0	0	0	0
30.96003	0.03782406	-0.06874514	0	0	0	0
30.97003	0.03782406	-0.06874514	0	0	0	0
30.98659	0.03782406	-0.06874514	0	0	0	0
31.00316	0.03782406	-0.06874514	0	0	0	0
31.01973	0.03782406	-0.06874514	0	0	0	0
31.03629	0.03782406	-0.06874514	0	0	0	0
31.05286	0.03782406	-0.06874514	0	0	0	0
31.06951	0.03782406	-0.06874514	0	0	0	0
31.08602	0.03782406	-0.06874514	0	0	0	0
31.10256	0.03782406	-0.06874514	0	0	0	0
31.11913	0.03782406	-0.06874514	0	0	0	0
31.13569	0.03782406	-0.06874514	0	0	0	0
31.15226	0.03782406	-0.06874514	0	0	0	0
31.16883	0.03782406	-0.06874514	0	0	0	0
31.18561	0.03782406	-0.06874514	0	0	0	0
31.20196	0.03782406	-0.06874514	0	0	0	0
31.21862	0.03782406	-0.06874514	0	0	0	0
31.23685	0.03782406	-0.06874514	0	0	0	0
31.25361	0.03782406	-0.06874514	0	0	0	0
31.26998	0.03782406	-0.06874514	0	0	0	0
31.28655	0.03782406	-0.06874514	0	0	0	0
31.30315	0.03782406	-0.06874514	0	0	0	0
31.31968	0.03782406	-0.06874514	0	0	0	0
31.33625	0.03782406	-0.06874514	0	0	0	0
31.35281	0.03782406	-0.06874514	0	0	0	0
31.36971	0.03782406	-0.06874514	0	0	0	0
31.38622	0.03782406	-0.06874514	0	0	0	0
31.40252	0.03782406	-0.06874514	0	0	0	0
31.41908	0.03782406	-0.06874514	0	0	0	0
31.43565	0.03782406	-0.06874514	0	0	0	0
31.45222	0.03782406	-0.06874514	0	0	0	0
31.46879	0.03782406	-0.06874514	0	0	0	0
31.48578	0.03782406	-0.06874514	0	0	0	0
31.50191	0.03782406	-0.06874514	0	0	0	0
31.51848	0.03782406	-0.06874514	0	0	0	0
31.53505	0.03782406	-0.06874514	0	0	0	0
31.55188	0.03782406	-0.06874514	0	0	0	0
31.56889	0.03782406	-0.06874514	0	0	0	0
31.58475	0.03785034	-0.0687644	0.001656926	-0.001213921	0.05040364	-0.03692742
31.6014	0.03785034	-0.0687644	0	0	-0.05096548	0.03733905
31.61788	0.03785034	-0.0687644	0	0	0	0
31.63445	0.03808684	-0.06893767	0.01427517	-0.01045909	0.4319195	-0.3164575
31.65102	0.03808684	-0.06893767	0	0	-0.4308255	0.3156559
31.66759	0.03808684	-0.06893767	0	0	0	0
31.68415	0.03919045	-0.06974645	0.06662191	-0.0488234	2.010769	-1.473578
31.70072	0.03919045	-0.06974645	0	0	-2.010769	1.473578
31.71729	0.03919045	-0.06974645	0	0	0	0
31.73402	0.05735807	-0.0830674	1.085477	-0.7958992	32.5928	-23.89785
31.75053	0.05735807	-0.0830674	0	0	-32.64889	23.93898
31.76703	0.05735807	-0.0830674	0	0	0	0
31.78701	0.06737157	-0.09047025	0.5011894	-0.3705224	13.73805	-10.15635
31.80358	0.06737157	-0.09047025	0	0	-13.71367	10.13833
31.82015	0.06737157	-0.09047025	0	0	0	0
31.83749	0.06731918	-0.09043144	-0.0030212	0.002237974	-0.0890977	0.06599971
31.85328	0.06731918	-0.09043144	0	0	0.09118524	-0.06754607
31.86985	0.06731918	-0.09043144	0	0	0	0
31.88641	0.06731918	-0.09043144	0	0	0	0
31.90302	0.06731918	-0.09043144	0	0	0	0
31.91955	0.06731918	-0.09043144	0	0	0	0
31.93612	0.06731918	-0.09043144	0	0	0	0
31.95268	0.06731918	-0.09043144	0	0	0	0
31.96925	0.06731918	-0.09043144	0	0	0	0
31.98582	0.06731918	-0.09043144	0	0	0	0
32.00238	0.06731918	-0.09043144	0	0	0	0
32.01895	0.06731918	-0.09043144	0	0	0	0
32.03552	0.06731918	-0.09043144	0	0	0	0
32.05213	0.06731918	-0.09043144	0	0	0	0
32.06865	0.06731918	-0.09043144	0	0	0	0
32.08522	0.06716199	-0.09066431	-0.0094877	-0.01405638	-0.2867355	-0.4248094
32.10218	0.06716199	-0.09066431	0	0	0.2829837	0.419251
32.11835	0.06716199	-0.09066431	0	0	0	0
32.13492	0.04334126	-0.109166	-1.437822	-1.116766	-43.9143	-34.10853
32.15149	0.04334126	-0.109166	0	0	43.39355	33.70407
32.16806	0.04334126	-0.109166	0	0	0	0
32.18475	-0.01857681	-0.1858027	-3.710046	-4.591964	-111.5584	-138.0771
32.20119	-0.01857681	-0.1858027	0	0	111.9823	138.6017
32.21775	-0.01857681	-0.1858027	0	0	0	0
32.23432	-0.04602012	-0.2657908	-1.656481	-4.828089	-49.9927	-145.712
32.25089	-0.04602012	-0.2657908	0	0	49.9927	145.712
32.26746	-0.04602012	-0.2657908	0	0	0	0
32.28431	-0.02970179	-0.305522	0.9684744	-2.358004	28.98171	-70.56355
32.30059	-0.02970179	-0.305522	0	0	-29.22861	71.16471
32.31716	-0.02970179	-0.305522	0	0	0	0
32.33719	-0.003447355	-0.3270537	1.310442	-1.074714	35.80246	-29.36215
32.35376	-0.003447355	-0.3270537	0	0	-35.80246	29.36215
32.3704	0.013315	-0.3409376	1.007602	-0.8345742	30.34659	-25.13541
32.38689	0.013315	-0.3409376	0	0	-30.40948	25.1875
32.40346	0.013315	-0.3409376	0	0	0	0
32.42003	0.02538928	-0.3510127	0.7288048	-0.6081356	21.99537	-18.35357
32.4366	0.02538928	-0.3510127	0	0	-21.99537	18.35357
32.45316	0.02538928	-0.3510127	0	0	0	0
32.46973	0.02596785	-0.3514971	0.03492228	-0.02923886	1.053957	-0.8824306
32.48647	0.02596785	-0.3514971	0	0	-1.048404	0.8777819
32.50286	0.02596785	-0.3514971	0	0	0	0
32.51949	0.02596785	-0.3514971	0	0	0	0
32.5365	0.02596785	-0.3514971	0	0	0	0
32.55257	0.02596785	-0.3514971	0	0	0	0
32.56913	0.02596785	-0.3514971	0	0	0	0
32.5857	0.02596785	-0.3514971	0	0	0	0
32.60254	0.02596785	-0.3514971	0	0	0	0
32.6213	0.02596785	-0.3514971	0	0	0	0
32.63787	0.02596785	-0.3514971	0	0	0	0
32.65444	0.02596785	-0.3514971	0	0	0	0
32.671	0.02596785	-0.3514971	0	0	0	0
32.68757	0.02596785	-0.3514971	0	0	0	0
32.70414	0.02596785	-0.3514971	0	0	0	0
32.7207	0.02594155	-0.3515191	-0.001587392	-0.001329366	-0.04790758	-0.04012035
32.73727	0.02594155	-0.3515191	0	0	0.04790758	0.04012035
32.75384	0.02594155	-0.3515191	0	0	0	0
32.7704	0.02594155	-0.3515191	0	0	0	0
32.78697	0.02594155	-0.3515191	0	0	0	0
32.80354	0.02594155	-0.3515191	0	0	0	0
32.82016	0.02557337	-0.3519156	-0.02214666	-0.02384802	-0.6672353	-0.718494
32.83667	0.02557337	-0.3519156	0	0	0.6683875	0.7197348
32.85324	0.02557337	-0.3519156	0	0	0	0
32.86981	0.007657745	-0.3669853	-1.081389	-0.9096103	-32.63639	-27.45209
32.88725	0.007657745	-0.3669853	0	0	31.80163	26.74993
32.90294	0.007657745	-0.3669853	0	0	0	0
32.91951	-0.02086539	-0.3912209	-1.72166	-1.462866	-53.36047	-45.3395
32.93608	-0.02086539	-0.3912209	0	0	51.9598	44.14938
32.95285	-0.02086539	-0.3912209	0	0	0	0
32.96938	-0.0248633	-0.394565	-0.241871	-0.2023136	-7.263721	-6.07576
32.98578	-0.0248633	-0.394565	0	0	7.344494	6.143323
33.00235	-0.0248633	-0.394565	0	0	0	0
33.01891	-0.02491589	-0.3945197	-0.003174784	0.002730687	-0.09581516	0.08241231
33.03548	-0.02491589	-0.3945197	0	0	0.09581516	-0.08241231
33.05205	-0.02491589	-0.3945197	0	0	0	0
33.06861	-0.0249422	-0.3944971	-0.001587504	0.001365344	-0.04791097	0.04120615
33.08518	-0.0249422	-0.3944971	0	0	0.04791097	-0.04120615
33.10175	-0.0249422	-0.3944971	0	0	0	0
33.11832	-0.0249422	-0.3944971	0	0	0	0
33.13488	-0.0249422	-0.3944971	0	0	0	0
33.15202	-0.0249422	-0.3944971	0	0	0	0
33.17146	-0.0249422	-0.3944971	0	0	0	0
33.18803	-0.0249422	-0.3944971	0	0	0	0
33.2046	-0.0249422	-0.3944971	0	0	0	0
33.22116	-0.0249422	-0.3944971	0	0	0	0
33.23773	-0.0249422	-0.3944971	0	0	0	0
33.2543	-0.0249422	-0.3944971	0	0	0	0
33.27087	-0.02491589	-0.3945197	0.001587504	-0.001365344	0.04791097	-0.04120615
33.28743	-0.02491589	-0.3945197	0	0	-0.04791097	0.04120615
33.304	-0.02491589	-0.3945197	0	0	0	0
33.32057	-0.02491589	-0.3945197	0	0	0	0
33.33714	-0.02491589	-0.3945197	0	0	0	0
33.3537	-0.02491589	-0.3945197	0	0	0	0
33.37027	-0.02491589	-0.3945197	0	0	0	0
33.38684	-0.02491589	-0.3945197	0	0	0	0
33.4034	-0.02491589	-0.3945197	0	0	0	0
33.42023	-0.02491589	-0.3945197	0	0	0	0
33.44054	-0.02491589	-0.3945197	0	0	0	0
33.45323	-0.02491589	-0.3945197	0	0	0	0
33.46967	-0.02491589	-0.3945197	0	0	0	0
33.48628	-0.02491589	-0.3945197	0	0	0	0
33.5028	-0.02491589	-0.3945197	0	0	0	0
33.51937	-0.02491589	-0.3945197	0	0	0	0
33.53594	-0.02491589	-0.3945197	0	0	0	0
33.55251	-0.02491589	-0.3945197	0	0	0	0
33.56907	-0.0249422	-0.3944519	-0.00158787	0.004095175	-0.04792753	0.1236069
33.58584	-0.0249422	-0.3944519	0	0	0.04763683	-0.1228571
33.6022	-0.0249422	-0.3944519	0	0	0	0
33.61877	-0.0249422	-0.3944519	0	0	0	0
33.63535	-0.0249422	-0.3944519	0	0	0	0
33.65191	-0.0249422	-0.3944519	0	0	0	0
33.66847	-0.0249422	-0.3944519	0	0	0	0
33.68541	-0.0249422	-0.3944519	0	0	0	0
33.70916	-0.0249422	-0.3944519	0	0	0	0
33.72574	-0.0249422	-0.3944519	0	0	0	0
33.74231	-0.0249422	-0.3944519	0	0	0	0
33.75888	-0.0249422	-0.3944519	0	0	0	0
33.77544	-0.0249422	-0.3944519	0	0	0	0
33.79242	-0.0249422	-0.3944519	0	0	0	0
33.80857	-0.0249422	-0.3944519	0	0	0	0
33.82514	-0.0249422	-0.3944519	0	0	0	0
33.84171	-0.0249422	-0.3944519	0	0	0	0
33.85849	-0.0249422	-0.3944519	0	0	0	0
33.87484	-0.0249422	-0.3944519	0	0	0	0
33.89141	-0.0249422	-0.3944519	0	0	0	0
33.90802	-0.0249422	-0.3944519	0	0	0	0
33.92502	-0.0249422	-0.3944519	0	0	0	0
33.94111	-0.0249422	-0.3944519	0	0	0	0
33.95768	-0.0249422	-0.3944519	0	0	0	0
33.97425	-0.02491589	-0.3944293	0.001587504	0.001365344	0.04791097	0.04120615
33.99094	-0.02491589	-0.3944293	0	0	-0.04772417	-0.04104549
34.00738	-0.02491589	-0.3944293	0	0	0	0
34.02395	-0.02491589	-0.3944293	0	0	0	0
34.04052	-0.02491589	-0.3944293	0	0	0	0
34.05708	-0.02491589	-0.3944293	0	0	0	0
34.07365	-0.0248107	-0.3944293	0.00634968	0	0.1916558	0
34.09055	-0.0248107	-0.3944293	0	0	-0.1897333	0
34.10707	-0.0248107	-0.3944293	0	0	0	0
34.12335	-0.0243899	-0.3943841	0.02584573	0.002778673	0.7880092	0.08471882
34.14008	-0.0243899	-0.3943841	0	0	-0.7829099	-0.08417059
34.1566	-0.0243899	-0.3943841	0	0	0	0
34.17311	-0.007078829	-0.4087898	1.048277	-0.8723453	31.73573	-26.40953
34.18962	-0.007078829	-0.4087898	0	0	-31.74306	26.41563
34.20619	-0.007078829	-0.4087898	0	0	0	0
34.22316	0.03361891	-0.4438742	2.398531	-2.067709	71.52322	-61.65825
34.23932	0.03361891	-0.4438742	0	0	-72.38783	62.40359
34.25616	0.03361891	-0.4438742	0	0	0	0
34.27883	0.06731918	-0.4740641	1.486509	-1.331665	37.62474	-33.70552
34.28902	0.06731918	-0.4740641	0	0	-45.23267	40.52095
34.30559	0.07321102	-0.4794472	0.3556325	-0.3249266	13.28965	-12.1422
34.3222	0.07321102	-0.4794472	0	0	-10.7182	9.792776
34.33873	0.07321102	-0.4794472	0	0	0	0
34.35529	0.07444113	-0.4805264	0.07424978	-0.06513715	2.243963	-1.968563
34.37186	0.07444113	-0.4805264	0	0	-2.240863	1.965843
34.38843	0.07444113	-0.4805264	0	0	0	0
34.40499	0.07444113	-0.4805264	0	0	0	0
34.42178	0.07444113	-0.4805264	0	0	0	0
34.43813	0.07444113	-0.4805264	0	0	0	0
34.4547	0.07444113	-0.4805264	0	0	0	0
34.47126	0.07444113	-0.4805264	0	0	0	0
34.48783	0.07444113	-0.4805264	0	0	0	0
34.5044	0.07438879	-0.4804784	-0.003159996	0.00289685	-0.09536887	0.08742712
34.52097	0.07438879	-0.4804784	0	0	0.09537985	-0.08743719
34.53753	0.07438879	-0.4804784	0	0	0	0
34.5541	0.07423177	-0.4803345	-0.009477805	0.008686752	-0.2860407	0.2621667
34.57067	0.07423177	-0.4803345	0	0	0.2860407	-0.2621667
34.58723	0.07423177	-0.4803345	0	0	0	0
34.60392	0.07407475	-0.4801905	-0.00941108	0.008625186	-0.2830169	0.2593829
34.62042	0.07407475	-0.4801905	0	0	0.2835699	-0.2598898
34.63695	0.07407475	-0.4801905	0	0	0	0
34.6535	0.07378685	-0.4799267	-0.01738956	0.01593462	-0.5256653	0.4816841
34.67007	0.07378685	-0.4799267	0	0	0.5249994	-0.4810739
34.68664	0.07378685	-0.4799267	0	0	0	0
34.7032	0.07360364	-0.4797589	-0.01106111	0.01013358	-0.3338634	0.3058673
34.71977	0.07360364	-0.4797589	0	0	0.3338634	-0.3058673
34.73634	0.07360364	-0.4797589	0	0	0	0
34.7529	0.07355129	-0.4797109	-0.003159718	0.002894385	-0.09536048	0.0873527
34.76957	0.07355129	-0.4797109	0	0	0.09507589	-0.087092
34.78658	0.07355129	-0.4797109	0	0	0	0
34.8026	0.07349894	-0.479663	-0.003265744	0.002991507	-0.09885626	0.09055492
34.81958	0.07349894	-0.479663	0	0	0.09894767	-0.09063865
34.83574	0.07349894	-0.479663	0	0	0	0
34.85231	0.07347277	-0.479639	-0.001579859	0.001448092	-0.04827492	0.04424858
34.86929	0.07347277	-0.479639	0	0	0.04709468	-0.04316677
34.88544	0.07347277	-0.479639	0	0	0	0
34.90231	0.07349894	-0.479663	0.001551284	-0.0014219	0.04696925	-0.0430518
34.91858	0.07349894	-0.479663	0	0	-0.04681784	0.04291302
34.93514	0.07349894	-0.479663	0	0	0	0
34.95171	0.07349894	-0.479663	0	0	0	0
34.96828	0.07349894	-0.479663	0	0	0	0
34.98484	0.07349894	-0.479663	0	0	0	0
35.00142	0.07349894	-0.479663	0	0	0	0
35.01798	0.07349894	-0.479663	0	0	0	0
35.03455	0.07349894	-0.479663	0	0	0	0
35.05112	0.07342042	-0.479591	-0.004737396	0.004340478	-0.142942	0.1309657
35.06768	0.07342042	-0.479591	0	0	0.1429749	-0.1309959
35.08425	0.07342042	-0.479591	0	0	0	0
35.10334	0.07239955	-0.4786564	-0.0534589	0.04894439	-1.498976	1.372391
35.11991	0.07239955	-0.4786564	0	0	1.498976	-1.372391
35.13648	0.07239955	-0.4786564	0	0	0	0
35.15305	0.0513758	-0.4595266	-1.268996	1.154678	-38.29837	34.84824
35.17001	0.0513758	-0.4595266	0	0	37.84093	-34.43201
35.18651	0.0513758	-0.4595266	0	0	0	0
35.20303	0.01707729	-0.4289677	-2.076958	1.8505	-62.91449	56.0547
35.21931	0.01707729	-0.4289677	0	0	63.32426	-56.41979
35.23588	0.01707729	-0.4289677	0	0	0	0
35.25245	-0.01178893	-0.4037529	-1.742368	1.52197	-52.58478	45.93314
35.26901	-0.01178893	-0.4037529	0	0	52.58478	-45.93314
35.28561	-0.01178893	-0.4037529	0	0	0	0
35.30214	-0.02867635	-0.3891683	-1.021208	0.8819529	-30.82366	26.62045
35.31911	-0.02867635	-0.3891683	0	0	30.4832	-26.32642
35.37284	-0.02867635	-0.3891683	0	0	0	0
35.39656	-0.03656265	-0.3823755	-0.3323708	0.2862867	-4.291012	3.696052
35.40597	-0.03656265	-0.3823755	0	0	10.03097	-8.640149
35.42254	-0.03651008	-0.3824204	0.00317276	-0.002709101	0.1221501	-0.1042994
35.43916	-0.03651008	-0.3824204	0	0	-0.09561099	0.08163864
35.45567	-0.03651008	-0.3824204	0	0	0	0
35.47224	-0.03619471	-0.3827346	0.01903589	-0.0189691	0.5753653	-0.5733467
35.48881	-0.03619471	-0.3827346	0	0	-0.5745041	0.5724886
35.50537	-0.03619471	-0.3827346	0	0	0	0
35.52194	-0.03598446	-0.3829142	0.01269082	-0.01084	0.3830096	-0.3271519
35.53851	-0.03598446	-0.3829142	0	0	-0.3830096	0.3271519
35.55508	-0.03598446	-0.3829142	0	0	0	0
35.57164	-0.03598446	-0.3829142	0	0	0	0
35.58826	-0.03598446	-0.3829142	0	0	0	0
35.60479	-0.03598446	-0.3829142	0	0	0	0
35.62134	-0.03595818	-0.3829367	0.001588575	-0.001358226	0.04802068	-0.04105751
35.63791	-0.03595818	-0.3829367	0	0	-0.04797642	0.04101967
35.65447	-0.03595818	-0.3829367	0	0	0	0
35.67132	-0.0359319	-0.3829591	0.001559803	-0.001331857	0.04667727	-0.03985598
35.69212	-0.0359319	-0.3829591	0	0	-0.04143205	0.03537728
35.70435	-0.0359319	-0.3829591	0	0	0	0
35.72086	-0.03587933	-0.383004	0.003184492	-0.002720924	0.1108185	-0.09468656
35.7373	-0.03587933	-0.383004	0	0	-0.09663103	0.0825644
35.75387	-0.03587933	-0.383004	0	0	0	0
35.77044	-0.03580049	-0.3830714	0.00475914	-0.00406545	0.1436311	-0.1226955
35.78739	-0.03580049	-0.3830714	0	0	-0.1419802	0.1212852
35.80391	-0.03580049	-0.3830714	0	0	0	0
35.82014	-0.03572164	-0.3831388	0.004857567	-0.004151366	0.1483437	-0.1267772
35.8367	-0.03572164	-0.3831388	0	0	-0.1481021	0.1265708
35.85327	-0.03572164	-0.3831388	0	0	0	0
35.87046	-0.03566908	-0.3831837	0.003058668	-0.002613416	0.09062063	-0.07742894
35.8864	-0.03566908	-0.3831837	0	0	-0.0923214	0.07888212
35.903	-0.03566908	-0.3831837	0	0	0	0
35.91954	-0.03566908	-0.3831837	0	0	0	0
35.9361	-0.03566908	-0.3831837	0	0	0	0
35.95267	-0.03566908	-0.3831837	0	0	0	0
35.96924	-0.0356428	-0.3832061	0.00158638	-0.00135455	0.04787704	-0.04088042
35.98581	-0.0356428	-0.3832061	0	0	-0.04787704	0.04088042
36.00237	-0.0356428	-0.3832061	0	0	0	0
36.01894	-0.03551138	-0.3833184	0.007932125	-0.006778149	0.2394196	-0.2045885
36.0356	-0.03551138	-0.3833184	0	0	-0.2386776	0.2039544
36.05207	-0.03551138	-0.3833184	0	0	0	0
36.06864	-0.03472288	-0.3839923	0.0475941	-0.04067609	1.440705	-1.231292
36.08521	-0.03472288	-0.3839923	0	0	-1.436393	1.227607
36.10177	-0.03472288	-0.3839923	0	0	0	0
36.11865	-0.02896558	-0.3889655	0.3410715	-0.2946169	10.19729	-8.808399
36.13491	-0.02896558	-0.3889655	0	0	-10.29356	8.891555
36.15147	-0.02896558	-0.3889655	0	0	0	0
36.16804	-0.004184186	-0.4103887	1.495808	-1.293108	45.14357	-39.02608
36.18461	-0.004184186	-0.4103887	0	0	-45.14357	39.02608
36.20118	-0.004184186	-0.4103887	0	0	0	0
36.21775	0.01599864	-0.4280657	1.217677	-1.066494	36.7411	-32.17943
36.23431	0.01599864	-0.4280657	0	0	-36.74956	32.18684
36.25088	0.01599864	-0.4280657	0	0	0	0
36.26744	0.01857681	-0.4303335	0.1556189	-0.1368869	4.696589	-4.131256
36.28401	0.01857681	-0.4303335	0	0	-4.696589	4.131256
36.30058	0.01857681	-0.4303335	0	0	0	0
36.31715	0.01899771	-0.4307504	0.0254058	-0.02516442	0.7667487	-0.7594636
36.33379	0.01899771	-0.4307504	0	0	-0.7649872	0.7577189
36.3503	0.01899771	-0.4307504	0	0	0	0
36.36685	0.01899771	-0.4307504	0	0	0	0
36.38342	0.01899771	-0.4307504	0	0	0	0
36.39998	0.01899771	-0.4307504	0	0	0	0
36.41655	0.01897141	-0.4307272	-0.001587842	0.001397723	-0.04792115	0.04218337
36.43312	0.01897141	-0.4307272	0	0	0.04792115	-0.04218337
36.44968	0.01897141	-0.4307272	0	0	0	0
36.46625	0.0189188	-0.4306809	-0.003175683	0.002797246	-0.09584231	0.08442104
36.48293	0.0189188	-0.4306809	0	0	0.09551243	-0.08413047
36.49939	0.0189188	-0.4306809	0	0	0	0
36.51689	0.01889249	-0.4306577	-0.001503051	0.001323085	-0.04426645	0.03896626
36.53345	0.01889249	-0.4306577	0	0	0.04411776	-0.03883537
36.55002	0.01889249	-0.4306577	0	0	0	0
36.56659	0.01878726	-0.4305651	-0.006351479	0.005592692	-0.191688	0.1687878
36.58316	0.01878726	-0.4305651	0	0	0.191688	-0.1687878
36.59996	0.01878726	-0.4305651	0	0	0	0
36.61629	0.01812959	-0.4299398	-0.04029079	0.0383048	-1.216118	1.156174
36.63298	0.01812959	-0.4299398	0	0	1.220193	-1.160048
36.64949	0.01812959	-0.4299398	0	0	0	0
36.666	0.01413064	-0.4263324	-0.2422139	0.2184991	-7.335367	6.61717
36.68256	0.01413064	-0.4263324	0	0	7.326057	-6.608772
36.69954	0.01413064	-0.4263324	0	0	0	0
36.71569	-0.005342055	-0.406691	-1.205918	1.216367	-36.39886	36.71427
36.73225	-0.005342055	-0.406691	0	0	36.86148	-37.1809
36.74907	-0.005342055	-0.406691	0	0	0	0
36.76556	-0.03020134	-0.3346464	-1.506754	4.366716	-45.23438	131.0935
36.78196	-0.03020134	-0.3346464	0	0	45.81148	-132.766
36.79852	-0.03020134	-0.3346464	0	0	0	0
36.81509	-0.02588895	-0.2414704	0.2602963	5.624116	7.855757	169.7362
36.83184	-0.02588895	-0.2414704	0	0	-7.81169	-168.784
36.84835	-0.02588895	-0.2414704	0	0	0	0
36.86479	0.008710306	-0.1763555	2.104894	3.961358	63.88622	120.2323
36.88136	0.008710306	-0.1763555	0	0	-63.77546	-120.0238
36.89793	0.008710306	-0.1763555	0	0	0	0
36.91491	0.02828193	-0.1132933	1.152681	3.714078	34.36075	110.7145
36.93106	0.02828193	-0.1132933	0	0	-34.792	-112.104
36.94791	0.02828193	-0.1132933	0	0	0	0
36.96419	0.03664149	-0.05562606	0.5134506	3.54197	15.49597	106.8969
36.98093	0.03664149	-0.05562606	0	0	-15.54788	-107.255
36.99733	0.03664149	-0.05562606	0	0	0	0
37.01389	0.04465451	-0.02829061	0.4837783	1.650351	14.67989	50.07868
37.03046	0.04465451	-0.02829061	0	0	-14.60214	-49.81343
37.04702	0.04465451	-0.02829061	0	0	0	0
37.0645	0.04575751	0.006234971	0.06311864	1.975698	1.854121	58.03646
37.08107	0.04575751	0.006234971	0	0	-1.854121	-58.03646
37.09763	0.04575751	0.006234971	0	0	0	0
37.1142	0.03125298	0.04740292	-0.8754954	2.484902	-26.4225	74.9945
37.13077	0.03125298	0.04740292	0	0	26.41946	-74.98587
37.14734	0.03125298	0.04740292	0	0	0	0
37.1639	0.02701974	0.06140139	-0.2555189	0.8449496	-7.712465	25.50356
37.18047	0.02701974	0.06140139	0	0	7.711577	-25.50063
37.19704	0.02701974	0.06140139	0	0	0	0
37.2136	0.02691455	0.06047587	-0.00635058	-0.05587728	-0.1916829	-1.686574
37.23017	0.02691455	0.06047587	0	0	0.1916829	1.686574
37.2469	0.02691455	0.06047587	0	0	0	0
37.2633	0.02715122	0.05916127	0.01443161	-0.08016172	0.4355971	-2.419564
37.27987	0.02715122	0.05916127	0	0	-0.4377645	2.431603
37.29643	0.02715122	0.05916127	0	0	0	0
37.313	0.02715122	0.05916127	0	0	0	0
37.32956	0.02715122	0.05916127	0	0	0	0
37.34613	0.02715122	0.05916127	0	0	0	0
37.36302	0.02715122	0.05916127	0	0	0	0
37.38001	0.02715122	0.05916127	0	0	0	0
37.39583	0.02715122	0.05916127	0	0	0	0
37.41254	0.02709863	0.05912424	-0.003148461	-0.002217169	-0.0968039	-0.06817003
37.42906	0.02709863	0.05912424	0	0	0.09475891	0.06672993
37.44556	0.02709863	0.05912424	0	0	0	0
37.4621	0.0247055	0.05680872	-0.1447161	-0.1400228	-4.380147	-4.238096
37.47866	0.0247055	0.05680872	0	0	4.371566	4.229794
37.49523	0.0247055	0.05680872	0	0	0	0
37.5118	0.01952383	0.02429941	-0.3127659	-1.962265	-9.439294	-59.22129
37.52837	0.01952383	0.02429941	0	0	9.439294	59.22129
37.54493	0.01952383	0.02429941	0	0	0	0
37.5615	0.02741418	-0.05767735	0.476372	-4.949266	14.37859	-149.3864
37.57806	0.02741418	-0.05767735	0	0	-14.37859	149.3864
37.59463	0.02741418	-0.05767735	0	0	0	0
37.6112	0.03745616	-0.1423371	0.6061349	-5.110074	18.29319	-154.2223
37.62776	0.03745616	-0.1423371	0	0	-18.29529	154.2401
37.64433	0.03745616	-0.1423371	0	0	0	0
37.6609	0.04047788	-0.1865901	0.1823914	-2.671116	5.504584	-80.61443
37.67746	0.04047788	-0.1865901	0	0	-5.504584	80.61443
37.69403	0.04047788	-0.1865901	0	0	0	0
37.71074	0.03890142	-0.1887721	-0.09433001	-0.130562	-2.834485	-3.923206
37.72717	0.03890142	-0.1887721	0	0	2.846885	3.94037
37.74373	0.03890142	-0.1887721	0	0	0	0
37.7603	0.03892769	-0.1887923	0.00158593	-0.001220534	0.04786347	-0.0368358
37.77729	0.03892769	-0.1887923	0	0	-0.04725954	0.03637101
37.79381	0.03892769	-0.1887923	0	0	0	0
37.81	0.03890142	-0.1887721	-0.001622925	0.001249006	-0.04961401	0.03818302
37.82657	0.03890142	-0.1887721	0	0	0.04954468	-0.03812966
37.84314	0.03890142	-0.1887721	0	0	0	0
37.85985	0.03890142	-0.18857	0	0.01209137	0	0.3632871
37.87638	0.03890142	-0.18857	0	0	0	-0.3637457
37.89395	0.03890142	-0.18857	0	0	0	0
37.9094	0.03879631	-0.1883679	-0.006801465	0.01307837	-0.2059325	0.3959824
37.92597	0.03879631	-0.1883679	0	0	0.2124093	-0.4084365
37.94254	0.03879631	-0.1883679	0	0	0	0
37.95911	0.03863866	-0.1881253	-0.009516257	0.01463832	-0.2872012	0.4417853
37.97567	0.03863866	-0.1881253	0	0	0.2872012	-0.4417853
37.99224	0.03863866	-0.1881253	0	0	0	0
38.00881	0.03774522	-0.185944	-0.0539277	0.1316657	-1.627541	3.973679
38.02538	0.03774522	-0.185944	0	0	1.627541	-3.973679
38.04239	0.03774522	-0.185944	0	0	0	0
38.05851	0.02662528	-0.1771395	-0.6896203	0.546023	-20.81278	16.47901
38.07508	0.02662528	-0.1771395	0	0	21.09449	-16.70206
38.09164	0.02662528	-0.1771395	0	0	0	0
38.10821	0.004657861	-0.1598526	-1.325956	1.043442	-40.01744	31.49114
38.12498	0.004657861	-0.1598526	0	0	39.7702	-31.29657
38.14135	0.004657861	-0.1598526	0	0	0	0
38.15791	-0.0145516	-0.1451713	-1.159486	0.886162	-35.21225	26.91173
38.17453	-0.0145516	-0.1451713	0	0	34.94506	-26.70753
38.19105	-0.0145516	-0.1451713	0	0	0	0
38.20761	-0.01889249	-0.1419014	-0.2620164	0.1973758	-7.918609	5.965055
38.22418	-0.01889249	-0.1419014	0	0	7.90767	-5.956814
38.24075	-0.01889249	-0.1419014	0	0	0	0
38.25732	-0.0185242	-0.1422183	0.02223023	-0.0191274	0.6709098	-0.5772662
38.2741	-0.0185242	-0.1422183	0	0	-0.666612	0.5735683
38.29061	-0.0185242	-0.1422183	0	0	0	0
38.30702	-0.0181559	-0.1425352	0.02244232	-0.01931242	0.6817058	-0.5866321
38.32363	-0.0181559	-0.1425352	0	0	-0.6795796	0.5848025
38.34015	-0.0181559	-0.1425352	0	0	0	0
38.35672	-0.01799806	-0.1426937	0.009527387	-0.0095664	0.2879681	-0.2891473
38.37328	-0.01799806	-0.1426937	0	0	-0.2875371	0.2887145
38.38985	-0.01799806	-0.1426937	0	0	0	0
38.40642	-0.01794544	-0.1427333	0.003175796	-0.0023916	0.0958457	-0.07217863
38.42299	-0.01794544	-0.1427333	0	0	-0.0958457	0.07217863
38.4474	-0.01794544	-0.1427333	0	0	0	0
38.45927	-0.01794544	-0.1427333	0	0	0	0
38.47584	-0.01794544	-0.1427333	0	0	0	0
38.4924	-0.01794544	-0.1427333	0	0	0	0
38.50897	-0.01791913	-0.1427927	0.001587954	-0.00358785	0.04792455	-0.1082815
38.52554	-0.01791913	-0.1427927	0	0	-0.04792455	0.1082815
38.54263	-0.01791913	-0.1427927	0	0	0	0
38.55867	-0.0177876	-0.1428918	0.008196208	-0.006172748	0.247362	-0.1862939
38.57563	-0.0177876	-0.1428918	0	0	-0.2483341	0.187026
38.59181	-0.0177876	-0.1428918	0	0	0	0
38.60865	-0.01776129	-0.1429116	0.001561704	-0.00117559	0.0472902	-0.03559823
38.62494	-0.01776129	-0.1429116	0	0	-0.04713232	0.03547938
38.64168	-0.01776129	-0.1429116	0	0	0	0
38.65821	-0.01765606	-0.1428324	0.006366363	0.004794239	0.1913881	0.1441263
38.67471	-0.01765606	-0.1428324	0	0	-0.1927141	-0.1451248
38.69124	-0.01765606	-0.1428324	0	0	0	0
38.70777	-0.01634065	-0.1419608	0.07958151	0.05273032	2.407318	1.595077
38.72589	-0.01634065	-0.1419608	0	0	-2.297051	-1.522015
38.74155	-0.01634065	-0.1419608	0	0	0	0
38.75747	0.009999666	-0.1341505	1.653882	0.4904014	52.36173	15.52606
38.77404	0.009999666	-0.1341505	0	0	-50.8987	-15.09225
38.79061	0.009999666	-0.1341505	0	0	0	0
38.8076	0.08043137	-0.1339728	4.144388	0.01045437	123.4856	0.311497
38.82374	0.08043137	-0.1339728	0	0	-125.0923	-0.3155498
38.84031	0.08043137	-0.1339728	0	0	0	0
38.85687	0.1447695	-0.1392095	3.88346	-0.3160852	117.2031	-9.539469
38.87344	0.1447695	-0.1392095	0	0	-117.2031	9.539469
38.89016	0.1447695	-0.1392095	0	0	0	0
38.90657	0.1577827	-0.1421787	0.7929633	-0.1809288	23.93168	-5.460441
38.92319	0.1577827	-0.1421787	0	0	-24.01185	5.478733
38.93971	0.1577827	-0.1421787	0	0	0	0
38.95628	0.1576031	-0.1421192	-0.0108445	0.00358695	-0.3277404	0.1084041
38.97284	0.1576031	-0.1421192	0	0	0.3272876	-0.1082544
38.98973	0.1576031	-0.1421192	0	0	0	0
39.01088	0.1574747	-0.1421787	-0.006068639	-0.002809907	-0.1595644	-0.07388167
39.02744	0.1574747	-0.1421787	0	0	0.1609039	0.0745019
39.04426	0.157295	-0.1423173	-0.01068305	-0.008243969	-0.3199837	-0.2469272
39.06077	0.157295	-0.1423173	0	0	0.3205697	0.2473795
39.07727	0.157295	-0.1423173	0	0	0	0
39.09371	0.1548554	-0.1442394	-0.1483822	-0.1169083	-4.504112	-3.548729
39.11028	0.1548554	-0.1442394	0	0	4.495263	3.541757
39.12685	0.1548554	-0.1442394	0	0	0	0
39.14341	0.1548554	-0.1442394	0	0	0	0
39.15998	0.1548554	-0.1442394	0	0	0	0
39.17655	0.1548554	-0.1442394	0	0	0	0
39.19312	0.1548554	-0.1442394	0	0	0	0
39.20987	0.1548554	-0.1442394	0	0	0	0
39.22639	0.1548554	-0.1442394	0	0	0	0
39.24282	0.1547784	-0.1442989	-0.004692944	-0.003621334	-0.1424534	-0.1099249
39.25938	0.1547784	-0.1442989	0	0	0.1422557	0.1097723
39.27679	0.1547784	-0.1442989	0	0	0	0
39.29282	0.1547013	-0.1443584	-0.004806834	-0.003710147	-0.1437466	-0.1109506
39.30908	0.1547013	-0.1443584	0	0	0.148858	0.1148958
39.32565	0.1547013	-0.1443584	0	0	0	0
39.34235	0.1547013	-0.1443584	0	0	0	0
39.3589	0.1547013	-0.1443584	0	0	0	0
39.37539	0.1547013	-0.1443584	0	0	0	0
39.39242	0.1546756	-0.1443386	-0.001508597	0.0011647	-0.04500621	0.03474667
39.40847	0.1546756	-0.1443386	0	0	0.04559778	-0.03520339
39.42541	0.1546756	-0.1443386	0	0	0	0
39.44161	0.1546756	-0.1443386	0	0	0	0
39.45818	0.1546756	-0.1443386	0	0	0	0
39.47474	0.1546756	-0.1443386	0	0	0	0
39.49131	0.1546756	-0.1443386	0	0	0	0
39.50788	0.1546756	-0.1443386	0	0	0	0
39.52444	0.1546756	-0.1443386	0	0	0	0
39.54101	0.1546499	-0.1443584	-0.001550627	-0.001197149	-0.04679803	-0.03613003
39.55774	0.1546499	-0.1443584	0	0	0.04657817	0.03596029
39.5743	0.1546499	-0.1443584	0	0	0	0
39.59104	0.1546499	-0.1443584	0	0	0	0
39.60756	0.1546499	-0.1443584	0	0	0	0
39.62407	0.1546499	-0.1443584	0	0	0	0
39.64057	0.1545985	-0.1443187	-0.003113442	0.002402804	-0.09431131	0.07278492
39.65714	0.1545985	-0.1443187	0	0	0.09414813	-0.07265899
39.67371	0.1545985	-0.1443187	0	0	0	0
39.69027	0.1545215	-0.1442593	-0.004652782	0.003589649	-0.1404212	0.1083358
39.70684	0.1545215	-0.1442593	0	0	0.1404212	-0.1083358
39.72341	0.1545215	-0.1442593	0	0	0	0
39.73997	0.1539562	-0.1438232	-0.0341201	0.02632289	-1.029747	0.7944264
39.75667	0.1539562	-0.1438232	0	0	1.025732	-0.7913288
39.77318	0.1539562	-0.1438232	0	0	0	0
39.78967	0.153545	-0.1435061	-0.02493386	0.01922854	-0.7555497	0.5826665
39.80669	0.153545	-0.1435061	0	0	0.7441098	-0.5738442
39.83048	0.153545	-0.1435061	0	0	0	0
39.84237	0.1499707	-0.140753	-0.3006033	0.231539	-8.424348	6.488834
39.85894	0.1499707	-0.140753	0	0	10.56318	-8.136268
39.87551	0.1499707	-0.140753	0	0	0	0
39.89223	0.1499707	-0.140753	0	0	0	0
39.90876	0.1499707	-0.140753	0	0	0	0
39.92529	0.1499707	-0.140753	0	0	0	0
39.94177	0.1499707	-0.140753	0	0	0	0
39.95834	0.1499707	-0.140753	0	0	0	0
39.97491	0.1499707	-0.140753	0	0	0	0
39.99147	0.1499964	-0.1407728	0.001553326	-0.00119535	0.04687947	-0.03607574
40.00833	0.1499964	-0.1407728	0	0	-0.04647284	0.03576283
40.02461	0.1499964	-0.1407728	0	0	0	0
40.04118	0.1499707	-0.140753	-0.001553326	0.00119535	-0.04729327	0.03639418
40.05774	0.1499707	-0.140753	0	0	0.04687947	-0.03607574
40.07489	0.1499707	-0.140753	0	0	0	0
40.0909	0.1497649	-0.1408718	-0.0128561	-0.007418803	-0.3877299	-0.2237454
40.10744	0.1497649	-0.1408718	0	0	0.3949084	0.2278878
40.12401	0.1497649	-0.1408718	0	0	0	0
40.14058	0.1494561	-0.1410301	-0.0186415	-0.009561406	-0.5626665	-0.288597
40.15714	0.1494561	-0.1410301	0	0	0.5626665	0.288597
40.17395	0.1494561	-0.1410301	0	0	0	0
40.19046	0.1493274	-0.1410499	-0.007791746	-0.001199216	-0.2338362	-0.03598939
40.20697	0.1493274	-0.1410499	0	0	0.2359704	0.03631785
40.22341	0.1493274	-0.1410499	0	0	0	0
