Time	Pos X	Pos Y	Vel X	Vel Y	Acc X	Acc Y
0.01673095	0.06068854	-0.09122719	-0.0009216166	0.001385377	1.399914E-05	-2.104355E-05
0.03642653	0.06068854	-0.09122719	0	0	-1.399986E-05	2.104463E-05
0.05299405	0.06068854	-0.09122719	0	0	0	0
0.0708923	0.06068854	-0.09122719	0	0	0	0
0.08776221	0.06068854	-0.09122719	0	0	0	0
0.1040277	0.06068854	-0.09122719	0	0	0	0
0.1205949	0.06068854	-0.09122719	0	0	0	0
0.1373021	0.06066232	-0.0912466	-0.001569292	-0.001161696	-0.04716215	-0.03491259
0.1538105	0.06066232	-0.0912466	0	0	0.04724567	0.03497441
0.1702939	0.06066232	-0.0912466	0	0	0	0
0.1868602	0.05751544	-0.09369358	-0.1899563	-0.1477079	-5.747581	-4.469257
0.2038525	0.05751544	-0.09369358	0	0	5.660431	4.40149
0.2199949	0.05751544	-0.09369358	0	0	0	0
0.2365596	0.0279138	-0.1158787	-1.787026	-1.339299	-54.6372	-40.94825
0.2531276	0.0279138	-0.1158787	0	0	53.93542	40.4223
0.2696943	0.0279138	-0.1158787	0	0	0	0
0.2862591	-0.004289447	-0.1401394	-1.944082	-1.464596	-58.67779	-44.20556
0.3028274	-0.004289447	-0.1401394	0	0	58.67499	44.20345
0.3193929	-0.004289447	-0.1401394	0	0	0	0
0.3359596	-0.03159475	-0.1609305	-1.648201	-1.254988	-49.74609	-37.8781
0.3527818	-0.03159475	-0.1609305	0	0	49.36382	37.58703
0.3692771	-0.03159475	-0.1609305	0	0	0	0
0.3856595	-0.05069337	-0.1755315	-1.165802	-0.8912638	-35.45876	-27.10847
0.4022266	-0.05069337	-0.1755315	0	0	35.38144	27.04936
0.4187953	-0.05069337	-0.1755315	0	0	0	0
0.4353597	-0.05347528	-0.1776624	-0.1679454	-0.1286442	-5.06881	-3.882652
0.4519276	-0.05347528	-0.1776624	0	0	5.068933	3.882746
0.4688555	-0.05347528	-0.1776624	0	0	0	0
0.4850591	-0.05347528	-0.1776624	0	0	0	0
0.501627	-0.05347528	-0.1776624	0	0	0	0
0.5181938	-0.05347528	-0.1776624	0	0	0	0
0.5347597	-0.05347528	-0.1776624	0	0	0	0
0.5513268	-0.05347528	-0.1776624	0	0	0	0
0.5678931	-0.05347528	-0.1776624	0	0	0	0
0.5844591	-0.05347528	-0.1776624	0	0	0	0
0.6010266	-0.05347528	-0.1776624	0	0	0	0
0.6207979	-0.05347528	-0.1776624	0	0	0	0
0.634205	-0.05350152	-0.1776423	-0.001957241	0.00150044	-0.05899133	0.04522334
0.6507272	-0.05350152	-0.1776423	0	0	0.06539565	-0.05013295
0.6672935	-0.05350152	-0.1776423	0	0	0	0
0.6838594	-0.05310791	-0.1773004	0.02376048	0.02063739	0.7171404	0.6228791
0.7004265	-0.05310791	-0.1773004	0	0	-0.7171236	-0.6228646
0.7177559	-0.05310791	-0.1773004	0	0	0	0
0.7337483	-0.0524256	-0.1766972	0.04266475	0.03771799	1.280388	1.131933
0.7502838	-0.0524256	-0.1766972	0	0	-1.311637	-1.159559
0.766693	-0.0524256	-0.1766972	0	0	0	0
0.7832838	-0.05003715	-0.1747078	0.1439623	0.1199102	4.362488	3.633635
0.7998265	-0.05003715	-0.1747078	0	0	-4.344917	-3.619
0.8168389	-0.05003715	-0.1747078	0	0	0	0
0.8329596	-0.03580049	-0.1637672	0.8831306	0.678666	26.65404	20.48303
0.8495275	-0.03580049	-0.1637672	0	0	-27.01646	-20.76154
0.8663726	-0.03580049	-0.1637672	0	0	0	0
0.8828683	-0.005894668	-0.1408322	1.812946	1.390367	54.37627	41.70172
0.8997192	-0.005894668	-0.1408322	0	0	-54.36665	-41.69434
0.9157933	-0.005894668	-0.1408322	0	0	0	0
0.9327524	0.02893929	-0.1143311	2.053994	1.562643	62.1797	47.30525
0.9489268	0.02893929	-0.1143311	0	0	-61.99144	-47.16203
0.9657521	0.02893929	-0.1143311	0	0	0	0
0.9820595	0.05725315	-0.09272228	1.736263	1.325096	52.40336	39.99364
0.9986266	0.05725315	-0.09272228	0	0	-52.81496	-40.30777
1.015298	0.05725315	-0.09272228	0	0	0	0
1.03176	0.07276604	-0.0786972	0.9423811	0.8519993	28.44225	25.71441
1.048327	0.07276604	-0.0786972	0	0	-28.53238	-25.79589
1.065347	0.07276604	-0.0786972	0	0	0	0
1.081459	0.08341128	-0.06038268	0.6607043	1.136703	19.94139	34.30799
1.098027	0.08341128	-0.06038268	0	0	-20.21774	-34.78343
1.114881	0.08341128	-0.06038268	0	0	0	0
1.131381	0.0874344	-0.03538195	0.2438255	1.515196	7.310197	45.42749
1.147727	0.0874344	-0.03538195	0	0	-7.423272	-46.13018
1.167131	0.0874344	-0.03538195	0	0	0	0
1.180899	0.1001116	-0.01364582	0.9208054	1.578803	27.7587	47.59476
1.197912	0.1001116	-0.01364582	0	0	-29.91505	-51.29201
1.213994	0.1001116	-0.01364582	0	0	0	0
1.230559	0.1054495	-0.01022642	0.3222306	0.2064162	9.869997	6.322575
1.247465	0.1054495	-0.01022642	0	0	-9.627162	-6.167018
1.263979	0.1054495	-0.01022642	0	0	0	0
1.28026	0.1057097	-0.01067961	0.01598471	-0.02783715	0.4874155	-0.8488274
1.296828	0.1057097	-0.01067961	0	0	-0.4866248	0.8474504
1.313393	0.1057097	-0.01067961	0	0	0	0
1.32996	0.1056317	-0.01130285	-0.00471228	-0.03762016	-0.1422246	-1.13544
1.346526	0.1056317	-0.01130285	0	0	0.1422246	1.13544
1.363094	0.1056317	-0.01130285	0	0	0	0
1.37966	0.1053714	-0.0117562	-0.01570944	-0.02736604	-0.4741272	-0.8259355
1.396553	0.1053714	-0.0117562	0	0	0.4695055	0.8178844
1.412794	0.1053714	-0.0117562	0	0	0	0
1.42936	0.1052673	-0.01194511	-0.006284092	-0.01140392	-0.1915494	-0.34761
1.445926	0.1052673	-0.01194511	0	0	0.1896686	0.3441969
1.46262	0.1052673	-0.01194511	0	0	0	0
1.479123	0.1052673	-0.01209625	0	-0.009158083	0	-0.2758704
1.495627	0.1052673	-0.01209625	0	0	0	0.2774606
1.512653	0.1052673	-0.01209625	0	0	0	0
1.52876	0.107531	-0.01434526	0.1405328	-0.1396235	4.241412	-4.213966
1.545327	0.107531	-0.01434526	0	0	-4.301003	4.273172
1.562209	0.107531	-0.01434526	0	0	0	0
1.578696	0.1080512	-0.0147234	0.03155414	-0.0229361	0.9456173	-0.687351
1.595027	0.1080512	-0.0147234	0	0	-0.961497	0.6988937
1.611594	0.1080512	-0.0147234	0	0	0	0
1.62816	0.1080772	-0.0147423	0.00157009	-0.001141362	0.04738744	-0.03444786
1.644749	0.1080772	-0.0147423	0	0	-0.04735643	0.03442532
1.661293	0.1080772	-0.0147423	0	0	0	0
1.67786	0.1079992	-0.01479903	-0.004710133	-0.0034241	-0.1422529	-0.1034128
1.694427	0.1079992	-0.01479903	0	0	0.1421562	0.1033425
1.711279	0.1079992	-0.01479903	0	0	0	0
1.727559	0.1077911	-0.01498812	-0.01278201	-0.01161515	-0.3857882	-0.3505698
1.744318	0.1077911	-0.01498812	0	0	0.3868753	0.3515577
1.760693	0.1077911	-0.01498812	0	0	0	0
1.77726	0.1052934	-0.01680396	-0.1507654	-0.1096053	-4.576702	-3.327226
1.793827	0.1052934	-0.01680396	0	0	4.550241	3.307989
1.810394	0.1052934	-0.01680396	0	0	0	0
1.82696	0.1053194	-0.01678504	0.001570944	0.001142116	0.04741305	0.0344705
1.843888	0.1053194	-0.01678504	0	0	-0.04690125	-0.03409841
1.860095	0.1053194	-0.01678504	0	0	0	0
1.876661	0.1053194	-0.01678504	0	0	0	0
1.893932	0.1053194	-0.01678504	0	0	0	0
1.909795	0.1053194	-0.01678504	0	0	0	0
1.926427	0.1053194	-0.01678504	0	0	0	0
1.942956	0.1053194	-0.01678504	0	0	0	0
1.959494	0.1053194	-0.01678504	0	0	0	0
1.97606	0.1053194	-0.01678504	0	0	0	0
1.99323	0.1053194	-0.01678504	0	0	0	0
2.009259	0.1053194	-0.01678504	0	0	0	0
2.02576	0.1053194	-0.01678504	0	0	0	0
2.042329	0.1053194	-0.01678504	0	0	0	0
2.058896	0.1053194	-0.01678504	0	0	0	0
2.07546	0.1052934	-0.01676612	-0.001571136	0.001142256	-0.04742176	0.03447683
2.092303	0.1052934	-0.01676612	0	0	0.04703018	-0.03419214
2.108596	0.1052934	-0.01676612	0	0	0	0
2.125322	0.1053194	-0.01678504	0.001555908	-0.001131184	0.04712047	-0.03425778
2.141728	0.1053194	-0.01678504	0	0	-0.04696009	0.03414118
2.158373	0.1053194	-0.01678504	0	0	0	0
2.17486	0.1053194	-0.01678504	0	0	0	0
2.19143	0.1053194	-0.01678504	0	0	0	0
2.207995	0.1053194	-0.01678504	0	0	0	0
2.22456	0.1053194	-0.01678504	0	0	0	0
2.24113	0.1053194	-0.01678504	0	0	0	0
2.257694	0.1053194	-0.01678504	0	0	0	0
2.274262	0.1053194	-0.01678504	0	0	0	0
2.291183	0.1053194	-0.01678504	0	0	0	0
2.307395	0.1053194	-0.01678504	0	0	0	0
2.32396	0.1053194	-0.01678504	0	0	0	0
2.340528	0.1053194	-0.01678504	0	0	0	0
2.357228	0.1053194	-0.01678504	0	0	0	0
2.373661	0.1052934	-0.01676612	-0.001583742	0.001151421	-0.04780052	0.0347522
2.390245	0.1052934	-0.01676612	0	0	0.04796689	-0.03487315
2.406794	0.1052934	-0.01676612	0	0	0	0
2.42336	0.1052934	-0.01676612	0	0	0	0
2.439927	0.1052934	-0.01676612	0	0	0	0
2.456494	0.1052934	-0.01676612	0	0	0	0
2.47306	0.1052934	-0.01676612	0	0	0	0
2.489627	0.1052934	-0.01676612	0	0	0	0
2.506194	0.1052934	-0.01676612	0	0	0	0
2.522827	0.1053194	-0.01678504	0.001564605	-0.001137508	0.04712629	-0.03426201
2.539488	0.1053194	-0.01678504	0	0	-0.04699333	0.03416535
2.556493	0.1053194	-0.01678504	0	0	0	0
2.572511	0.1053194	-0.01678504	0	0	0	0
2.589027	0.1053194	-0.01678504	0	0	0	0
2.605593	0.1053194	-0.01678504	0	0	0	0
2.62216	0.1052934	-0.01676612	-0.001570955	0.001142124	-0.04741459	0.03447162
2.639047	0.1052934	-0.01676612	0	0	0.04695942	-0.03414069
2.655556	0.1052934	-0.01676612	0	0	0	0
2.67186	0.1052934	-0.01676612	0	0	0	0
2.688427	0.1052934	-0.01676612	0	0	0	0
2.705104	0.1052934	-0.01676612	0	0	0	0
2.72156	0.1052934	-0.01676612	0	0	0	0
2.738135	0.1052934	-0.01676612	0	0	0	0
2.754694	0.1052934	-0.01676612	0	0	0	0
2.77126	0.1052934	-0.01676612	0	0	0	0
2.787827	0.1052934	-0.01676612	0	0	0	0
2.804394	0.1052934	-0.01676612	0	0	0	0
2.821186	0.1053194	-0.01678504	0.001549854	-0.001126784	0.04645979	-0.03377745
2.837691	0.1053194	-0.01678504	0	0	-0.04654628	0.03384033
2.854095	0.1053194	-0.01678504	0	0	0	0
2.870661	0.1053194	-0.01678504	0	0	0	0
2.887227	0.1053194	-0.01678504	0	0	0	0
2.903794	0.1053194	-0.01678504	0	0	0	0
2.92036	0.1053194	-0.01678504	0	0	0	0
2.936927	0.1053194	-0.01678504	0	0	0	0
2.953781	0.1053194	-0.01678504	0	0	0	0
2.97006	0.1053194	-0.01678504	0	0	0	0
2.9868	0.1053194	-0.01678504	0	0	0	0
3.003316	0.1053194	-0.01678504	0	0	0	0
3.01976	0.1053194	-0.01678504	0	0	0	0
3.036327	0.1053194	-0.01678504	0	0	0	0
3.052894	0.1053194	-0.01678504	0	0	0	0
3.074795	0.1053194	-0.01678504	0	0	0	0
3.086027	0.1053194	-0.01678504	0	0	0	0
3.102675	0.1053194	-0.01678504	0	0	0	0
3.119196	0.1053194	-0.01678504	0	0	0	0
3.135728	0.1053194	-0.01678504	0	0	0	0
3.152294	0.1053194	-0.01678504	0	0	0	0
3.168861	0.1053194	-0.01678504	0	0	0	0
3.185427	0.1053194	-0.01678504	0	0	0	0
3.201994	0.1053194	-0.01678504	0	0	0	0
3.218561	0.1053194	-0.01678504	0	0	0	0
3.235129	0.1053194	-0.01678504	0	0	0	0
3.251789	0.1053194	-0.01678504	0	0	0	0
3.26879	0.1053194	-0.01678504	0	0	0	0
3.284828	0.1053194	-0.01678504	0	0	0	0
3.301394	0.1053194	-0.01678504	0	0	0	0
3.317961	0.1053194	-0.01678504	0	0	0	0
3.334839	0.1053194	-0.01678504	0	0	0	0
3.354147	0.1053194	-0.01678504	0	0	0	0
3.370847	0.1053194	-0.01678504	0	0	0	0
3.38737	0.1053194	-0.01678504	0	0	0	0
3.403878	0.1053194	-0.01678504	0	0	0	0
3.420415	0.1053194	-0.01678504	0	0	0	0
3.436982	0.1053194	-0.01678504	0	0	0	0
3.453547	0.1053194	-0.01678504	0	0	0	0
3.470115	0.1053194	-0.01678504	0	0	0	0
3.486682	0.1053194	-0.01678504	0	0	0	0
3.503248	0.1053194	-0.01678504	0	0	0	0
3.519954	0.1053194	-0.01678504	0	0	0	0
3.536473	0.1053194	-0.01678504	0	0	0	0
3.552983	0.1053194	-0.01678504	0	0	0	0
3.569515	0.1053194	-0.01678504	0	0	0	0
3.586082	0.1053194	-0.01678504	0	0	0	0
3.602648	0.1052934	-0.01676612	-0.00157091	0.001142092	-0.04741152	0.03446938
3.619215	0.1052934	-0.01676612	0	0	0.04741152	-0.03446938
3.635782	0.1052934	-0.01676612	0	0	0	0
3.652348	0.1053194	-0.01678504	0.001570955	-0.001142124	0.04741357	-0.03447087
3.668915	0.1053194	-0.01678504	0	0	-0.04741425	0.03447137
3.685482	0.1053194	-0.01678504	0	0	0	0
3.702048	0.1053194	-0.01678504	0	0	0	0
3.718749	0.1053194	-0.01678504	0	0	0	0
3.735261	0.1053194	-0.01678504	0	0	0	0
3.751748	0.1053194	-0.01678504	0	0	0	0
3.768315	0.1053194	-0.01678504	0	0	0	0
3.785302	0.1053194	-0.01678504	0	0	0	0
3.801448	0.1053194	-0.01678504	0	0	0	0
3.818016	0.1053194	-0.01678504	0	0	0	0
3.834583	0.1053194	-0.01678504	0	0	0	0
3.851148	0.1053194	-0.01678504	0	0	0	0
3.867716	0.1053194	-0.01678504	0	0	0	0
3.889585	0.1053194	-0.01678504	0	0	0	0
3.902766	0.1053194	-0.01678504	0	0	0	0
3.919335	0.1053194	-0.01678504	0	0	0	0
3.935901	0.1053194	-0.01678504	0	0	0	0
3.952468	0.1053194	-0.01678504	0	0	0	0
3.969034	0.1053194	-0.01678504	0	0	0	0
3.985601	0.1053194	-0.01678504	0	0	0	0
4.002903	0.1053194	-0.01678504	0	0	0	0
4.018914	0.1053194	-0.01678504	0	0	0	0
4.035431	0.1053194	-0.01678504	0	0	0	0
4.051939	0.1053194	-0.01678504	0	0	0	0
4.06895	0.1053194	-0.01678504	0	0	0	0
4.085001	0.1053194	-0.01678504	0	0	0	0
4.101567	0.1052934	-0.01676612	-0.001570955	0.001142124	-0.04816285	0.03501562
4.118509	0.1052934	-0.01676612	0	0	0.04688323	-0.0340853
4.134701	0.1052934	-0.01676612	0	0	0	0
4.151267	0.1052934	-0.01676612	0	0	0	0
4.167834	0.1052934	-0.01676612	0	0	0	0
4.184569	0.1052934	-0.01676612	0	0	0	0
4.200967	0.1052934	-0.01672828	0	0.002307583	0	0.06964599
4.217585	0.1052934	-0.01672828	0	0	0	-0.06989446
4.234107	0.1052934	-0.01672828	0	0	0	0
4.250667	0.1052934	-0.01676612	0	-0.002284992	0	-0.06906953
4.26761	0.1052934	-0.01676612	0	0	0	0.06820248
4.283801	0.1052934	-0.01676612	0	0	0	0
4.300367	0.1052934	-0.01676612	0	0	0	0
4.316935	0.1052934	-0.01676612	0	0	0	0
4.333501	0.1052934	-0.01676612	0	0	0	0
4.350067	0.1053194	-0.01678504	0.001570955	-0.001142124	0.04741425	-0.03447137
4.366686	0.1053194	-0.01678504	0	0	-0.04733931	0.03441688
4.383724	0.1053194	-0.01678504	0	0	0	0
4.399767	0.1053194	-0.01678504	0	0	0	0
4.416335	0.1053194	-0.01678504	0	0	0	0
4.433145	0.1053194	-0.01678504	0	0	0	0
4.449467	0.1052934	-0.01680396	-0.001594453	-0.001159208	-0.04812346	-0.03498698
4.466373	0.1052934	-0.01680396	0	0	0.04798465	0.03488606
4.482602	0.1052934	-0.01680396	0	0	0	0
4.499167	0.1052673	-0.01678504	-0.001571046	0.00114219	-0.04790719	0.03482975
4.515735	0.1052673	-0.01678504	0	0	0.04741561	-0.03447236
4.532898	0.1052673	-0.01678504	0	0	0	0
4.54892	0.1052934	-0.01676612	0.001624349	0.001180943	0.04894898	0.03558716
4.565435	0.1052934	-0.01676612	0	0	-0.04992316	-0.03629541
4.582444	0.1052934	-0.01676612	0	0	0	0
4.598944	0.1052413	-0.01672828	-0.003154531	0.002293312	-0.09414045	0.06843913
4.615135	0.1052413	-0.01672828	0	0	0.0964954	-0.07015117
4.632483	0.1052413	-0.01672828	0	0	0	0
4.648267	0.1053194	-0.01667152	0.004946508	0.003596002	0.1492945	0.1085338
4.664835	0.1053194	-0.01667152	0	0	-0.1528989	-0.1111541
4.681518	0.1053194	-0.01667152	0	0	0	0
4.698017	0.1054235	-0.01659585	0.006309427	0.004586776	0.190148	0.1382322
4.714534	0.1054235	-0.01659585	0	0	-0.1910982	-0.138923
4.731279	0.1054235	-0.01659585	0	0	0	0
4.747777	0.1055016	-0.01653909	0.004732344	0.003440309	0.1423574	0.1034907
4.764235	0.1055016	-0.01653909	0	0	-0.1435974	-0.1043921
4.780815	0.1055016	-0.01653909	0	0	0	0
4.797367	0.1055536	-0.01653909	0.003144535	0	0.09490772	0
4.813934	0.1055536	-0.01653909	0	0	-0.09494462	0
4.830502	0.1055536	-0.01653909	0	0	0	0
4.847361	0.1056056	-0.01650125	0.003086905	0.002244249	0.09234963	0.06714024
4.863874	0.1056056	-0.01650125	0	0	-0.09249742	-0.06724768
4.880203	0.1056056	-0.01650125	0	0	0	0
4.896768	0.1059179	-0.01642558	0.0188512	0.004568199	0.5730952	0.1388778
4.913403	0.1059179	-0.01642558	0	0	-0.5678027	-0.1375953
4.92991	0.1059179	-0.01642558	0	0	0	0
4.946468	0.1188841	-0.02474155	0.7830683	-0.502228	23.68281	-15.18919
4.963035	0.1188841	-0.02474155	0	0	-23.63951	15.16142
4.979603	0.1188841	-0.02474155	0	0	0	0
4.996467	0.1511283	-0.04663282	1.911979	-1.298083	57.19008	-38.82756
5.012735	0.1511283	-0.04663282	0	0	-57.70697	39.17849
5.029302	0.1511283	-0.04663282	0	0	0	0
5.045868	0.1656266	-0.05729382	0.8751691	-0.6435362	26.4138	-19.4228
5.062435	0.1656266	-0.05729382	0	0	-26.4138	19.4228
5.079026	0.1656266	-0.05729382	0	0	0	0
5.096052	0.167853	-0.05896254	0.1307622	-0.09800775	3.889761	-2.915421
5.112135	0.167853	-0.05896254	0	0	-3.949366	2.960095
5.128701	0.167853	-0.05896254	0	0	0	0
5.145268	0.1880159	-0.07417963	1.217037	-0.9185055	36.73182	-27.72175
5.162588	0.1880159	-0.07417963	0	0	-35.91465	27.10502
5.178401	0.1880159	-0.07417963	0	0	0	0
5.194967	0.1947879	-0.0793349	0.4088065	-0.3112082	12.6258	-9.61152
5.211535	0.1947879	-0.0793349	0	0	-12.33834	9.392689
5.228141	0.1947879	-0.0793349	0	0	0	0
5.244667	0.2110466	-0.09095544	0.9838389	-0.7031778	29.69403	-21.22317
5.266416	0.2110466	-0.09095544	0	0	-25.70496	18.37207
5.27781	0.2110466	-0.09095544	0	0	0	0
5.294367	0.2463652	-0.1055723	2.133184	-0.8828332	76.31803	-31.58476
5.311323	0.2463652	-0.1055723	0	0	-63.6532	26.34333
5.327501	0.2463652	-0.1055723	0	0	0	0
5.344067	0.2626568	-0.1075834	0.9834517	-0.121401	30.03462	-3.707589
5.360633	0.2626568	-0.1075834	0	0	-29.68234	3.664102
5.3772	0.2626568	-0.1075834	0	0	0	0
5.393766	0.267681	-0.1115907	0.3032784	-0.2418988	9.153357	-7.300834
5.410403	0.267681	-0.1115907	0	0	-9.134165	7.285526
5.4269	0.267681	-0.1115907	0	0	0	0
5.443467	0.290998	-0.1303434	1.407497	-1.131977	42.569	-34.23606
5.460033	0.290998	-0.1303434	0	0	-42.48078	34.16511
5.4766	0.290998	-0.1303434	0	0	0	0
5.493166	0.316634	-0.1385172	1.54748	-0.4933996	46.7044	-14.89126
5.509973	0.316634	-0.1385172	0	0	-46.37006	14.78466
5.5263	0.316634	-0.1385172	0	0	0	0
5.542866	0.3379871	-0.1270146	1.289022	0.6943788	39.18812	21.11011
5.559433	0.3379871	-0.1270146	0	0	-38.90444	-20.9573
5.576	0.3379871	-0.1270146	0	0	0	0
5.592566	0.3679213	-0.1264635	1.806939	0.03326485	54.53589	1.003979
5.609133	0.3679213	-0.1264635	0	0	-54.53589	-1.003979
5.625985	0.3679213	-0.1264635	0	0	0	0
5.642267	0.3894802	-0.1282944	1.324123	-0.1124497	39.96327	-3.393835
5.659009	0.3894802	-0.1282944	0	0	-40.09599	3.405106
5.675526	0.3894802	-0.1282944	0	0	0	0
5.691966	0.3927639	-0.1312502	0.19974	-0.1797992	6.060611	-5.455557
5.70857	0.3927639	-0.1312502	0	0	-6.044781	5.441308
5.725564	0.3927639	-0.1312502	0	0	0	0
5.742073	0.3927414	-0.1312305	-0.001361168	0.001194181	-0.04062818	0.03564395
5.758233	0.3927414	-0.1312305	0	0	0.04166535	-0.03655388
5.774799	0.3927414	-0.1312305	0	0	0	0
5.791366	0.3926965	-0.1312305	-0.002710978	0	-0.081821	0
5.807933	0.3926965	-0.1312305	0	0	0.08181982	0
5.824611	0.3926965	-0.1312305	0	0	0	0
5.841125	0.3925392	-0.1313291	-0.00952307	-0.00596974	-0.2869073	-0.1798539
5.857641	0.3925392	-0.1313291	0	0	0.2883155	0.1807367
5.874201	0.3925392	-0.1313291	0	0	0	0
5.890766	0.3924269	-0.1314277	-0.006780923	-0.005952424	-0.2047046	-0.1796936
5.907335	0.3924269	-0.1314277	0	0	0.2046546	0.1796497
5.923901	0.3924269	-0.1314277	0	0	0	0
5.940691	0.3921798	-0.1316446	-0.01471977	-0.01291907	-0.4412841	-0.3873009
5.957191	0.3921798	-0.1316446	0	0	0.4421691	0.3880776
5.9736	0.3921798	-0.1316446	0	0	0	0
5.990226	0.392	-0.1318024	-0.01081431	-0.009489632	-0.3273611	-0.2872617
6.006746	0.392	-0.1318024	0	0	0.3262591	0.2862947
6.023738	0.392	-0.1318024	0	0	0	0
6.040262	0.3919101	-0.1318024	-0.005439802	0	-0.1623073	0
6.056433	0.3919101	-0.1318024	0	0	0.1663836	0
6.073001	0.3919101	-0.1318024	0	0	0	0
6.091328	0.3918426	-0.1317827	-0.00368001	0.001076521	-0.1054597	0.03085034
6.108296	0.3918426	-0.1317827	0	0	0.1042629	-0.03050024
6.124463	0.3918426	-0.1317827	0	0	0	0
6.141029	0.3916403	-0.1318024	-0.01221324	-0.001190922	-0.373123	-0.03638348
6.157597	0.3916403	-0.1318024	0	0	0.3686017	0.0359426
6.174164	0.3916403	-0.1318024	0	0	0	0
6.190729	0.3904707	-0.1327098	-0.07060485	-0.05477655	-2.130981	-1.653255
6.207297	0.3904707	-0.1327098	0	0	2.13092	1.653207
6.223865	0.3904707	-0.1327098	0	0	0	0
6.24043	0.3891648	-0.1337754	-0.07883384	-0.06432877	-2.379313	-1.94153
6.256999	0.3891648	-0.1337754	0	0	2.379244	1.941474
6.273564	0.3891648	-0.1337754	0	0	0	0
6.290129	0.3891423	-0.1337952	-0.001360182	-0.001191059	-0.04105628	-0.0359514
6.30696	0.3891423	-0.1337952	0	0	0.04072975	0.03566547
6.323265	0.3891423	-0.1337952	0	0	0	0
6.339828	0.3890972	-0.1337557	-0.002718643	0.002383086	-0.08271181	0.07250284
6.356396	0.3890972	-0.1337557	0	0	0.08205707	-0.07192891
6.372963	0.3890972	-0.1337557	0	0	0	0
6.389528	0.3890747	-0.1337359	-0.001360143	0.001191924	-0.04105156	0.03597441
6.40643	0.3890747	-0.1337359	0	0	0.04064212	-0.03561561
6.422972	0.3890747	-0.1337359	0	0	0	0
6.439228	0.3890297	-0.1336965	-0.002771993	0.002428244	-0.08451638	0.07403567
6.455797	0.3890297	-0.1336965	0	0	0.08444762	-0.07397545
6.47246	0.3890297	-0.1336965	0	0	0	0
6.488928	0.3889846	-0.133657	-0.002736354	0.002397025	-0.08259285	0.07235068
6.505496	0.3889846	-0.133657	0	0	0.08283129	-0.07255954
6.522062	0.3889846	-0.133657	0	0	0	0
6.538628	0.3889395	-0.1336175	-0.002720051	0.002382743	-0.08209602	0.07191546
6.555195	0.3889395	-0.1336175	0	0	0.08209366	-0.07191338
6.571762	0.3889395	-0.1336175	0	0	0	0
6.588328	0.388917	-0.1335978	-0.001360025	0.001190922	-0.04104742	0.03594364
6.605046	0.388917	-0.1335978	0	0	0.04086159	-0.03578091
6.621461	0.388917	-0.1335978	0	0	0	0
6.638029	0.3888945	-0.133578	-0.001359947	0.001191752	-0.04123197	0.03613251
6.654595	0.3888945	-0.133578	0	0	0.04104387	-0.03596768
6.671162	0.3888945	-0.133578	0	0	0	0
6.687728	0.3888945	-0.133578	0	0	0	0
6.704359	0.3888945	-0.133578	0	0	0	0
6.720871	0.3888945	-0.133578	0	0	0	0
6.737429	0.3888719	-0.1335583	-0.00136077	0.001191573	-0.04114805	0.03603176
6.753995	0.3888719	-0.1335583	0	0	0.0410817	-0.03597366
6.770561	0.3888719	-0.1335583	0	0	0	0
6.787128	0.3888494	-0.133578	-0.001361785	-0.001190887	-0.04110053	-0.03594261
6.803695	0.3888494	-0.133578	0	0	0.04109994	0.03594209
6.820261	0.3888494	-0.133578	0	0	0	0
6.836828	0.3888494	-0.133578	0	0	0	0
6.853395	0.3888494	-0.133578	0	0	0	0
6.869995	0.3888494	-0.133578	0	0	0	0
6.893845	0.3888494	-0.133578	0	0	0	0
6.903094	0.3888494	-0.133578	0	0	0	0
6.920498	0.3888494	-0.133578	0	0	0	0
6.936228	0.3888494	-0.133578	0	0	0	0
6.953554	0.3888494	-0.133578	0	0	0	0
6.969361	0.3888268	-0.1335583	-0.001425339	0.001248115	-0.0430193	0.03767034
6.985928	0.3888268	-0.1335583	0	0	0.04402677	-0.03855254
7.002567	0.3888268	-0.1335583	0	0	0	0
7.019061	0.3888268	-0.1335583	0	0	0	0
7.035628	0.3888268	-0.1335583	0	0	0	0
7.052603	0.3888268	-0.1335583	0	0	0	0
7.068761	0.3888268	-0.1335583	0	0	0	0
7.085328	0.3888268	-0.1335583	0	0	0	0
7.102148	0.3888268	-0.1335583	0	0	0	0
7.118461	0.3888268	-0.1335583	0	0	0	0
7.135028	0.3888268	-0.1335583	0	0	0	0
7.152185	0.3888268	-0.1335583	0	0	0	0
7.168161	0.3888268	-0.1335583	0	0	0	0
7.184918	0.3888268	-0.1335583	0	0	0	0
7.201294	0.3888268	-0.1335583	0	0	0	0
7.219955	0.3888043	-0.1335386	-0.00120739	0.001058063	-0.03446086	0.03019883
7.236523	0.3888043	-0.1335386	0	0	0.03427335	-0.03003451
7.253467	0.3888043	-0.1335386	0	0	0	0
7.269656	0.3888043	-0.1335386	0	0	0	0
7.286501	0.3888043	-0.1335386	0	0	0	0
7.302994	0.3888043	-0.1335386	0	0	0	0
7.319355	0.3888043	-0.1335386	0	0	0	0
7.335922	0.3888043	-0.1335386	0	0	0	0
7.352575	0.3888043	-0.1335386	0	0	0	0
7.369056	0.3887818	-0.1335188	-0.001367029	0.001197055	-0.04125762	0.03612771
7.385623	0.3887818	-0.1335188	0	0	0.04136537	-0.03622206
7.402566	0.3887818	-0.1335188	0	0	0	0
7.418756	0.3887818	-0.1335188	0	0	0	0
7.435616	0.3887818	-0.1335188	0	0	0	0
7.451889	0.3887818	-0.1335188	0	0	0	0
7.468455	0.3887818	-0.1335188	0	0	0	0
7.485023	0.3887818	-0.1335188	0	0	0	0
7.501657	0.3887818	-0.1335188	0	0	0	0
7.518156	0.3887818	-0.1335188	0	0	0	0
7.534722	0.3887818	-0.1335188	0	0	0	0
7.551289	0.3887818	-0.1335188	0	0	0	0
7.568197	0.3887818	-0.1335188	0	0	0	0
7.584423	0.3887818	-0.1335188	0	0	0	0
7.601202	0.3887818	-0.1335188	0	0	0	0
7.617556	0.3887593	-0.1334991	-0.001377671	0.001207285	-0.04158	0.0364375
7.634122	0.3887593	-0.1334991	0	0	0.04184861	-0.03667289
7.650765	0.3887593	-0.1334991	0	0	0	0
7.66728	0.3887593	-0.1334991	0	0	0	0
7.683823	0.3887593	-0.1334991	0	0	0	0
7.703578	0.3887593	-0.1334991	0	0	0	0
7.716955	0.3887593	-0.1334991	0	0	0	0
7.733522	0.3887593	-0.1334991	0	0	0	0
7.750091	0.3887593	-0.1334991	0	0	0	0
7.76685	0.3887593	-0.1334991	0	0	0	0
7.783341	0.3887593	-0.1334991	0	0	0	0
7.799862	0.3887593	-0.1334991	0	0	0	0
7.816363	0.3887593	-0.1334991	0	0	0	0
7.832923	0.3887593	-0.1334991	0	0	0	0
7.84949	0.3887593	-0.1334991	0	0	0	0
7.866056	0.3887593	-0.1334991	0	0	0	0
7.88293	0.3887593	-0.1334991	0	0	0	0
7.89919	0.3887593	-0.1334991	0	0	0	0
7.915955	0.3887593	-0.1334991	0	0	0	0
7.932323	0.3887593	-0.1334991	0	0	0	0
7.94889	0.3887593	-0.1334991	0	0	0	0
7.96548	0.3887593	-0.1334991	0	0	0	0
7.982022	0.3887593	-0.1334991	0	0	0	0
7.999012	0.3887593	-0.1334991	0	0	0	0
8.015156	0.3887593	-0.1334991	0	0	0	0
8.032025	0.3887593	-0.1334991	0	0	0	0
8.048552	0.3887593	-0.1334991	0	0	0	0
8.064857	0.3887367	-0.1334794	-0.001381821	0.001210008	-0.04208867	0.03685543
8.081563	0.3887367	-0.1334794	0	0	0.04185887	-0.03665419
8.09799	0.3887367	-0.1334794	0	0	0	0
8.11509	0.3887142	-0.1334596	-0.001317551	0.0011546	-0.03929776	0.03443752
8.131124	0.3887142	-0.1334596	0	0	0.0397649	-0.03484689
8.14769	0.3887142	-0.1334596	0	0	0	0
8.164266	0.3886691	-0.1334202	-0.002720284	0.002381372	-0.08207943	0.0718534
8.181147	0.3886691	-0.1334202	0	0	0.08130734	-0.0711775
8.19739	0.3886691	-0.1334202	0	0	0	0
8.214161	0.3886466	-0.1334399	-0.001343398	-0.00117725	-0.04069141	-0.03565881
8.230523	0.3886466	-0.1334399	0	0	0.040545	0.03553051
8.247091	0.3886466	-0.1334399	0	0	0	0
8.263813	0.3886015	-0.1334399	-0.002694764	0	-0.08094838	0
8.280637	0.3886015	-0.1334399	0	0	0.08033164	0
8.296789	0.3886015	-0.1334399	0	0	0	0
8.313355	0.388579	-0.1333807	-0.001361824	0.003573664	-0.04162225	0.1092241
8.330169	0.388579	-0.1333807	0	0	0.04079816	-0.1070615
8.34649	0.388579	-0.1333807	0	0	0	0
8.363056	0.3885113	-0.1333215	-0.004081875	0.003573664	-0.1241165	0.1086634
8.379683	0.3885113	-0.1333215	0	0	0.1229718	-0.1076613
8.396194	0.3885113	-0.1333215	0	0	0	0
8.412756	0.3881507	-0.1330058	-0.02177621	0.01906363	-0.6584393	0.5764199
8.429323	0.3881507	-0.1330058	0	0	0.657302	-0.5754244
8.44589	0.3881507	-0.1330058	0	0	0	0
8.462762	0.3862327	-0.1313291	-0.1136789	0.09937698	-3.399623	2.971917
8.479024	0.3862327	-0.1313291	0	0	3.430935	-2.99929
8.495589	0.3862327	-0.1313291	0	0	0	0
8.512309	0.3861876	-0.1313291	-0.002700419	0	-0.08112987	0
8.528723	0.3861876	-0.1313291	0	0	0.08150116	0
8.54529	0.3861876	-0.1313291	0	0	0	0
8.561856	0.3861876	-0.1313291	0	0	0	0
8.578834	0.3861876	-0.1313291	0	0	0	0
8.59499	0.3861876	-0.1313291	0	0	0	0
8.611556	0.386165	-0.1313094	-0.001363623	0.001190022	-0.04167238	0.03636712
8.628869	0.386165	-0.1313094	0	0	0.04024948	-0.03512537
8.644691	0.386165	-0.1313094	0	0	0	0
8.661404	0.3860521	-0.1312108	-0.006756419	0.005898716	-0.2076687	0.1813059
8.677908	0.3860521	-0.1312108	0	0	0.2033998	-0.1775789
8.694412	0.3860521	-0.1312108	0	0	0	0
8.711427	0.3853517	-0.1305996	-0.04116046	0.0359206	-1.227982	1.071656
8.727523	0.3853517	-0.1305996	0	0	1.24312	-1.084866
8.744449	0.3853517	-0.1305996	0	0	0	0
8.760656	0.3689519	-0.1163883	-1.011855	0.8768268	-30.53871	26.46345
8.777473	0.3689519	-0.1163883	0	0	30.63925	-26.55057
8.793791	0.3689519	-0.1163883	0	0	0	0
8.810356	0.3382915	-0.09052847	-1.850878	1.561083	-56.2873	47.4743
8.827217	0.3382915	-0.09052847	0	0	55.37193	-46.70225
8.843492	0.3382915	-0.09052847	0	0	0	0
8.860744	0.3094165	-0.06693599	-1.673725	1.367524	-49.92257	40.78944
8.876755	0.3094165	-0.06693599	0	0	50.31761	-41.11221
8.89319	0.3094165	-0.06693599	0	0	0	0
8.909791	0.2862096	-0.0484675	-1.397954	1.112519	-42.31578	33.67571
8.926325	0.2862096	-0.0484675	0	0	42.19034	-33.57588
8.943293	0.2862096	-0.0484675	0	0	0	0
8.959801	0.2747648	-0.03962944	-0.6932806	0.535377	-20.70986	15.99292
8.976024	0.2747648	-0.03962944	0	0	21.18113	-16.35685
8.992591	0.2747648	-0.03962944	0	0	0	0
9.009157	0.2674118	-0.04567771	-0.4438558	-0.3650955	-13.39598	-11.01892
9.025724	0.2674118	-0.04567771	0	0	13.39598	11.01892
9.042362	0.2674118	-0.04567771	0	0	0	0
9.060205	0.2224663	-0.08051405	-2.518906	-1.952354	-73.0519	-56.62108
9.076903	0.2224663	-0.08051405	0	0	72.92484	56.52259
9.09334	0.2224663	-0.08051405	0	0	0	0
9.109906	0.1833897	-0.1105736	-2.358804	-1.814505	-71.47272	-54.98026
9.126473	0.1833897	-0.1105736	0	0	71.19089	54.76346
9.14304	0.1833897	-0.1105736	0	0	0	0
9.159606	0.149945	-0.1361451	-2.018845	-1.543587	-60.93237	-46.58824
9.176172	0.149945	-0.1361451	0	0	60.93237	46.58824
9.192983	0.149945	-0.1361451	0	0	0	0
9.209306	0.143816	-0.1407728	-0.3754802	-0.283503	-11.33234	-8.556384
9.226015	0.143816	-0.1407728	0	0	11.36702	8.582569
9.242527	0.143816	-0.1407728	0	0	0	0
9.259039	0.1438676	-0.1408124	0.003122473	-0.002396904	0.09455211	-0.07258104
9.275573	0.1438676	-0.1408124	0	0	-0.09448935	0.07253286
9.292139	0.1438676	-0.1408124	0	0	0	0
9.308705	0.1439191	-0.140852	0.003111328	-0.002389939	0.09390546	-0.07213265
9.325603	0.1439191	-0.140852	0	0	-0.09297682	0.07141932
9.34184	0.1439191	-0.140852	0	0	0	0
9.35858	0.1439964	-0.140753	0.004619047	0.005912451	0.1400683	0.1792896
9.375148	0.1439964	-0.140753	0	0	-0.1386767	-0.1775083
9.392648	0.1439964	-0.140753	0	0	0	0
9.408279	0.1440737	-0.1406936	0.004946503	0.003798769	0.1492986	0.114657
9.424848	0.1440737	-0.1406936	0	0	-0.1536188	-0.1179747
9.441414	0.1440737	-0.1406936	0	0	0	0
9.45798	0.1438933	-0.1403175	-0.0108901	0.02270127	-0.3286827	0.6851651
9.474548	0.1438933	-0.1403175	0	0	0.3286638	-0.6851256
9.491218	0.1438933	-0.1403175	0	0	0	0
9.507739	0.1247955	-0.1256961	-1.155944	0.8849952	-34.82731	26.66393
9.524248	0.1247955	-0.1256961	0	0	34.99624	-26.79326
9.540813	0.1247955	-0.1256961	0	0	0	0
9.558637	0.09489831	-0.1031727	-1.677427	1.263712	-48.77866	36.74804
9.575283	0.09489831	-0.1031727	0	0	48.66395	-36.66162
9.597493	0.09489831	-0.1031727	0	0	0	0
9.612921	0.06938842	-0.08420945	-1.653524	1.229179	-43.93264	32.65816
9.629832	0.06938842	-0.08420945	0	0	51.1308	-38.00906
9.646055	0.06938842	-0.08420945	0	0	0	0
9.662831	0.06574721	-0.08151963	-0.2170477	0.1603363	-6.577394	4.858819
9.679189	0.06574721	-0.08151963	0	0	6.550701	-4.8391
9.695755	0.06574721	-0.08151963	0	0	0	0
9.712347	0.06608783	-0.08122952	0.02052903	0.01748495	0.6191218	0.5273173
9.728888	0.06608783	-0.08122952	0	0	-0.619603	-0.5277271
9.745456	0.06608783	-0.08122952	0	0	0	0
9.762021	0.06789548	-0.07989541	0.1091227	0.08053622	3.293424	2.430658
9.778919	0.06789548	-0.07989541	0	0	-3.260948	-2.40669
9.795156	0.06789548	-0.07989541	0	0	0	0
9.811721	0.08620686	-0.06632037	1.105404	0.8194858	33.69968	24.98308
9.828289	0.08620686	-0.06632037	0	0	-33.36213	-24.73284
9.84546	0.08620686	-0.06632037	0	0	0	0
9.861484	0.1123668	-0.04707228	1.632583	1.201231	49.18228	36.18761
9.87799	0.1123668	-0.04707228	0	0	-50.18727	-36.92706
9.894808	0.1123668	-0.04707228	0	0	0	0
9.911304	0.1191695	-0.04210832	0.4123693	0.3009066	12.378	9.032245
9.927688	0.1191695	-0.04210832	0	0	-12.54171	-9.151707
9.944345	0.1191695	-0.04210832	0	0	0	0
9.960851	0.1191695	-0.04214648	0	-0.002311655	0	-0.06970569
9.977387	0.1191695	-0.04214648	0	0	0	0.06996121
9.993954	0.1191695	-0.04214648	0	0	0	0
10.01052	0.1191436	-0.04224186	-0.001566008	-0.005757621	-0.04726493	-0.1737753
10.02709	0.1191436	-0.04224186	0	0	0.04726357	0.1737703
10.04365	0.1191436	-0.04224186	0	0	0	0
10.06022	0.1191176	-0.04229909	-0.001566008	-0.003454707	-0.04726493	-0.1042693
10.07679	0.1191176	-0.04229909	0	0	0.04726357	0.1042663
10.09346	0.1191176	-0.04229909	0	0	0	0
10.10999	0.1190398	-0.04239448	-0.004708774	-0.005770694	-0.1418213	-0.1738047
10.12649	0.1190398	-0.04239448	0	0	0.1425624	0.174713
10.14305	0.1190398	-0.04239448	0	0	0	0
10.16228	0.1190398	-0.04239448	0	0	0	0
10.17889	0.1190398	-0.04239448	0	0	0	0
10.19541	0.1190398	-0.04239448	0	0	0	0
10.21198	0.1190398	-0.04243264	0	-0.002303138	0	-0.06962106
10.22854	0.1190398	-0.04243264	0	0	0	0.06951085
10.24545	0.1190398	-0.04243264	0	0	0	0
10.26168	0.1190138	-0.04252803	-0.001598679	-0.005878429	-0.04825101	-0.1774216
10.27824	0.1190138	-0.04252803	0	0	0.04874772	0.179248
10.2955	0.1190138	-0.04252803	0	0	0	0
10.31138	0.1190657	-0.04260435	0.003267643	-0.004806213	0.09862333	-0.1450601
10.328	0.1190657	-0.04260435	0	0	-0.1005332	0.1478692
10.34451	0.1190657	-0.04260435	0	0	0	0
10.36108	0.1191176	-0.04279515	0.003132826	-0.01151882	0.09471518	-0.34825
10.37764	0.1191176	-0.04279515	0	0	-0.09455705	0.3476686
10.39458	0.1191176	-0.04279515	0	0	0	0
10.41078	0.1190398	-0.04296688	-0.004805817	-0.01060297	-0.145044	-0.3200076
10.42735	0.1190398	-0.04296688	0	0	0.146665	0.323584
10.44391	0.1190398	-0.04296688	0	0	0	0
10.46048	0.1186765	-0.0432722	-0.02192636	-0.0184305	-0.6618531	-0.5563297
10.47704	0.1186765	-0.0432722	0	0	0.6617579	0.5562496
10.49361	0.1186765	-0.0432722	0	0	0	0
10.51018	0.1180538	-0.04369207	-0.03759274	-0.02534486	-1.134616	-0.7649536
10.52674	0.1180538	-0.04369207	0	0	1.134584	0.7649315
10.54331	0.1180538	-0.04369207	0	0	0	0
10.55993	0.115406	-0.04563951	-0.1593081	-0.1171702	-4.800192	-3.530514
10.57644	0.115406	-0.04563951	0	0	4.808206	3.536409
10.59301	0.115406	-0.04563951	0	0	0	0
10.60958	0.11538	-0.04562042	-0.001567357	0.001152918	-0.04730566	0.03479715
10.62648	0.11538	-0.04562042	0	0	0.04682984	-0.03444714
10.64271	0.11538	-0.04562042	0	0	0	0
10.65928	0.115354	-0.04563951	-0.001567357	-0.001152918	-0.04778847	-0.03515229
10.67584	0.115354	-0.04563951	0	0	0.04730566	0.03479715
10.69251	0.115354	-0.04563951	0	0	0	0
10.71493	0.1152242	-0.04569681	-0.005790594	-0.002555377	-0.1481307	-0.06536978
10.73157	0.1152242	-0.04569681	0	0	0.1482464	0.06542085
10.74807	0.1151463	-0.04575411	-0.004722094	-0.003473151	-0.142509	-0.1048169
10.76464	0.1151463	-0.04575411	0	0	0.1428173	0.1050436
10.7812	0.1151463	-0.04575411	0	0	0	0
10.79777	0.1151203	-0.04573501	-0.001567807	0.001152918	-0.04731923	0.03479715
10.81434	0.1151203	-0.04573501	0	0	0.04731787	-0.03479614
10.8309	0.1151203	-0.04573501	0	0	0	0
10.84747	0.1151463	-0.04575411	0.001567717	-0.001152852	0.04731515	-0.03479414
10.86404	0.1151463	-0.04575411	0	0	-0.04731515	0.03479414
10.88066	0.1151463	-0.04575411	0	0	0	0
10.89721	0.1151463	-0.04575411	0	0	0	0
10.91374	0.1151463	-0.04575411	0	0	0	0
10.9303	0.1151463	-0.04575411	0	0	0	0
10.94721	0.1151203	-0.04577321	-0.001535802	-0.001129383	-0.04587526	-0.03373529
10.96344	0.1151203	-0.04577321	0	0	0.04635059	0.03408484
10.98019	0.1151203	-0.04577321	0	0	0	0
10.99657	0.1150943	-0.04583051	-0.001585059	-0.003497819	-0.04783994	-0.1055705
11.01314	0.1150943	-0.04583051	0	0	0.04810718	0.1061602
11.0297	0.1150943	-0.04583051	0	0	0	0
11.04627	0.1149905	-0.04594511	-0.006270329	-0.006917735	-0.1892498	-0.2087897
11.06283	0.1149905	-0.04594511	0	0	0.1892498	0.2087897
11.08011	0.1149905	-0.04594511	0	0	0	0
11.09612	0.1145749	-0.04636536	-0.02594444	-0.02623937	-0.7793708	-0.7882307
11.11254	0.1145749	-0.04636536	0	0	0.8000682	0.8091633
11.12914	0.1145749	-0.04636536	0	0	0	0
11.14567	0.09257672	-0.06262948	-1.331341	-0.9843103	-40.18226	-29.70825
11.16224	0.09257672	-0.06262948	0	0	40.23322	29.74593
11.1788	0.09257672	-0.06262948	0	0	0	0
11.19537	0.04972214	-0.09425709	-2.586112	-1.908607	-78.04227	-57.5969
11.21194	0.04972214	-0.09425709	0	0	78.05126	57.60353
11.22872	0.04972214	-0.09425709	0	0	0	0
11.24823	0.01489364	-0.1200562	-1.785486	-1.322596	-49.19898	-36.44407
11.2648	0.01489364	-0.1200562	0	0	49.49292	36.6618
11.28136	0.01489364	-0.1200562	0	0	0	0
11.29793	0.009683908	-0.1238672	-0.3144779	-0.2300404	-9.491507	-6.943032
11.31479	0.009683908	-0.1238672	0	0	9.408101	6.88202
11.33106	0.009683908	-0.1238672	0	0	0	0
11.34763	0.009736534	-0.1238672	0.003176892	0	0.09673916	0
11.36419	0.009736534	-0.1238672	0	0	-0.09588432	0
11.38076	0.009736534	-0.1238672	0	0	0	0
11.39733	0.01013123	-0.1235723	0.0238254	0.01779906	0.7190728	0.5371922
11.4139	0.01013123	-0.1235723	0	0	-0.7190521	-0.5371767
11.43046	0.01013123	-0.1235723	0	0	0	0
11.44703	0.01223623	-0.121961	0.1270653	0.0972652	3.835169	2.935723
11.4636	0.01223623	-0.121961	0	0	-3.834838	-2.93547
11.48016	0.01223623	-0.121961	0	0	0	0
11.49694	0.01226254	-0.1219413	0.001568373	0.001170631	0.04703711	0.03510843
11.51797	0.01226254	-0.1219413	0	0	-0.04148421	-0.03096375
11.52996	0.01226254	-0.1219413	0	0	0	0
11.54643	0.01278878	-0.1215092	0.03195662	0.0262418	1.122841	0.9220428
11.563	0.01278878	-0.1215092	0	0	-0.9673761	-0.7943798
11.57956	0.01278878	-0.1215092	0	0	0	0
11.59613	0.027309	-0.110691	0.8764928	0.6530267	26.45337	19.70895
11.6127	0.027309	-0.110691	0	0	-26.45337	-19.70895
11.62926	0.027309	-0.110691	0	0	0	0
11.64603	0.04496966	-0.09734882	1.053387	0.7958062	31.603	23.87523
11.6624	0.04496966	-0.09734882	0	0	-31.79221	-24.01817
11.67896	0.04496966	-0.09734882	0	0	0	0
11.69557	0.05486593	-0.08955833	0.5958652	0.4690743	17.96153	14.1396
11.71258	0.05486593	-0.08955833	0	0	-17.72611	-13.95427
11.72866	0.05486593	-0.08955833	0	0	0	0
11.74558	0.05552182	-0.08907339	0.03876395	0.02866036	1.174496	0.8683706
11.76211	0.05552182	-0.08907339	0	0	-1.159056	-0.8569555
11.77836	0.05552182	-0.08907339	0	0	0	0
11.7993	0.05552182	-0.08911218	0	-0.001852933	0	-0.04982539
11.81586	0.05552182	-0.08911218	0	0	0	0.04941104
11.83243	0.05549559	-0.08917037	-0.001583548	-0.003512499	-0.04779295	-0.1060105
11.849	0.05549559	-0.08917037	0	0	0.04779157	0.1060074
11.8659	0.05549559	-0.08917037	0	0	0	0
11.88213	0.05533818	-0.08936434	-0.009695412	-0.01194775	-0.292625	-0.3606045
11.89892	0.05533818	-0.08936434	0	0	0.2935629	0.3617603
11.91543	0.05533818	-0.08936434	0	0	0	0
11.93183	0.05510206	-0.08965532	-0.0143975	-0.01774247	-0.4375143	-0.539162
11.9484	0.05510206	-0.08965532	0	0	0.436717	0.5381794
11.96496	0.05510206	-0.08965532	0	0	0	0
11.98153	0.05510206	-0.08965532	0	0	0	0
11.9981	0.05510206	-0.08965532	0	0	0	0
12.01499	0.05510206	-0.08965532	0	0	0	0
12.03123	0.05502335	-0.08982993	-0.004845374	-0.0107489	-0.1462379	-0.3244117
12.04801	0.05502335	-0.08982993	0	0	0.1467278	0.3254984
12.06437	0.05502335	-0.08982993	0	0	0	0
12.08093	0.05415751	-0.09093603	-0.05227097	-0.06677575	-1.587686	-2.028256
12.0979	0.05415751	-0.09093603	0	0	1.558832	1.991395
12.11407	0.05415751	-0.09093603	0	0	0	0
12.13063	0.05184823	-0.09272228	-0.139397	-0.1078247	-4.258612	-3.294072
12.14744	0.05184823	-0.09272228	0	0	4.177312	3.231186
12.16377	0.05184823	-0.09272228	0	0	0	0
12.18033	0.05182198	-0.09270286	-0.001584223	0.001172482	-0.04815846	0.03564204
12.19696	0.05182198	-0.09270286	0	0	0.04771991	-0.03531748
12.21347	0.05182198	-0.09270286	0	0	0	0
12.23003	0.05182198	-0.09270286	0	0	0	0
12.24701	0.05182198	-0.09270286	0	0	0	0
12.26351	0.05182198	-0.09270286	0	0	0	0
12.27973	0.051717	-0.09262517	-0.006470616	0.00478844	-0.1977365	0.1463306
12.29704	0.051717	-0.09262517	0	0	0.1929621	-0.1427974
12.31304	0.051717	-0.09262517	0	0	0	0
12.32943	0.05166451	-0.09266402	-0.003203152	-0.002370483	-0.09889143	-0.0731843
12.346	0.05166451	-0.09266402	0	0	0.09720007	0.07193261
12.36257	0.05166451	-0.09266402	0	0	0	0
12.37913	0.05108709	-0.09285824	-0.03485515	-0.01172392	-1.051961	-0.3538388
12.39588	0.05108709	-0.09285824	0	0	1.046329	0.3519445
12.41227	0.05108709	-0.09285824	0	0	0	0
12.42883	0.04720176	-0.09522894	-0.2345461	-0.1431122	-7.117539	-4.342885
12.4454	0.04720176	-0.09522894	0	0	7.07882	4.31926
12.46197	0.04720176	-0.09522894	0	0	0	0
12.47853	0.00173684	-0.1273689	-2.744426	-1.940084	-82.8317	-58.55523
12.49544	0.00173684	-0.1273689	0	0	81.99153	57.9613
12.51167	0.00173684	-0.1273689	0	0	0	0
12.52846	-0.07710996	-0.1320588	-4.693549	-0.2791779	-142.1138	-8.453098
12.54498	-0.07710996	-0.1320588	0	0	140.9054	8.38122
12.56137	-0.07710996	-0.1320588	0	0	0	0
12.57793	-0.1519255	-0.1322561	-4.516394	-0.0119072	-137.0426	-0.3613047
12.5945	-0.1519255	-0.1322561	0	0	136.3129	0.3593808
12.61107	-0.1519255	-0.1322561	0	0	0	0
12.62763	-0.1967376	-0.1585159	-2.705174	-1.585232	-81.64467	-47.84378
12.6442	-0.1967376	-0.1585159	0	0	81.64937	47.84653
12.66076	-0.1967376	-0.1585159	0	0	0	0
12.67758	-0.2158725	-0.1619289	-1.138019	-0.2029823	-34.09231	-6.080863
12.6939	-0.2158725	-0.1619289	0	0	34.34646	6.126195
12.71046	-0.2158725	-0.1619289	0	0	0	0
12.72703	-0.2323077	-0.1640671	-0.9920917	-0.1290684	-29.94311	-3.895516
12.7436	-0.2323077	-0.1640671	0	0	29.94225	3.895404
12.76065	-0.2323077	-0.1640671	0	0	0	0
12.77715	-0.2592179	-0.1868324	-1.631246	-1.379996	-48.62097	-41.1322
12.7933	-0.2592179	-0.1868324	0	0	49.96745	42.27129
12.80986	-0.2592179	-0.1868324	0	0	0	0
12.82643	-0.2719835	-0.1979887	-0.7705803	-0.673432	-23.2575	-20.32539
12.8432	-0.2719835	-0.1979887	0	0	23.11578	20.20153
12.85956	-0.2719835	-0.1979887	0	0	0	0
12.88174	-0.2792934	-0.2040465	-0.3295782	-0.2731234	-8.550555	-7.085896
12.89272	-0.2792934	-0.2040465	0	0	9.941253	8.238376
12.90926	-0.2825244	-0.2066741	-0.1952702	-0.1588058	-7.095772	-5.770723
12.92628	-0.2825244	-0.2066741	0	0	5.818574	4.732026
12.9424	-0.2825244	-0.2066741	0	0	0	0
12.95896	-0.2826215	-0.2065926	-0.005861399	0.00492138	-0.1793284	0.1505687
12.97553	-0.2826215	-0.2065926	0	0	0.1769076	-0.1485361
12.9921	-0.2826215	-0.2065926	0	0	0	0
13.00866	-0.2826215	-0.2065926	0	0	0	0
13.02524	-0.2826215	-0.2065926	0	0	0	0
13.0418	-0.2826215	-0.2065926	0	0	0	0
13.05837	-0.282573	-0.2066334	0.00292935	-0.002460007	0.08840797	-0.07424315
13.07493	-0.282573	-0.2066334	0	0	-0.08841306	0.07424743
13.09188	-0.282573	-0.2066334	0	0	0	0
13.10806	-0.2824759	-0.2067149	0.005997716	-0.005037382	0.1810167	-0.1520329
13.12463	-0.2824759	-0.2067149	0	0	-0.1831357	0.1538126
13.1412	-0.2824759	-0.2067149	0	0	0	0
13.1618	-0.2823302	-0.2067964	0.007068676	-0.003956694	0.1901646	-0.1064447
13.17874	-0.2823302	-0.2067964	0	0	-0.1882854	0.1053928
13.19526	-0.282306	-0.2068168	0.001469888	-0.001233624	0.0439264	-0.03686583
13.2115	-0.282306	-0.2068168	0	0	-0.04486361	0.0376524
13.22807	-0.282306	-0.2068168	0	0	0	0
13.24463	-0.2822089	-0.2068983	0.005861062	-0.004921997	0.1768974	-0.1485547
13.2612	-0.2822089	-0.2068983	0	0	-0.1768872	0.1485461
13.27781	-0.2822089	-0.2068983	0	0	0	0
13.29433	-0.2821118	-0.2069799	0.00587425	-0.004933072	0.1773005	-0.1488933
13.3109	-0.2821118	-0.2069799	0	0	-0.1774896	0.149052
13.32747	-0.2821118	-0.2069799	0	0	0	0
13.34403	-0.2821118	-0.2069799	0	0	0	0
13.3606	-0.2821118	-0.2069799	0	0	0	0
13.37717	-0.2821118	-0.2069799	0	0	0	0
13.3939	-0.2821118	-0.2069799	0	0	0	0
13.4103	-0.2821118	-0.2069799	0	0	0	0
13.42689	-0.2821118	-0.2069799	0	0	0	0
13.44343	-0.2821118	-0.2069799	0	0	0	0
13.46	-0.2821118	-0.2069799	0	0	0	0
13.47692	-0.2821118	-0.2069799	0	0	0	0
13.49343	-0.2821118	-0.2069799	0	0	0	0
13.5097	-0.2821118	-0.2069799	0	0	0	0
13.52627	-0.2821118	-0.2069799	0	0	0	0
13.54284	-0.2821118	-0.2069799	0	0	0	0
13.5594	-0.2821118	-0.2069799	0	0	0	0
13.57597	-0.2821118	-0.2069799	0	0	0	0
13.59253	-0.2821118	-0.2069799	0	0	0	0
13.6091	-0.2821118	-0.2069799	0	0	0	0
13.62603	-0.2821118	-0.2069799	0	0	0	0
13.64305	-0.2820875	-0.2069595	0.001425869	0.00119815	0.04200752	0.03529871
13.6588	-0.2820875	-0.2069595	0	0	-0.04351373	-0.03656437
13.67556	-0.2820875	-0.2069595	0	0	0	0
13.6934	-0.2820875	-0.2069595	0	0	0	0
13.71054	-0.2820875	-0.2069595	0	0	0	0
13.72654	-0.2820875	-0.2069595	0	0	0	0
13.7431	-0.2820875	-0.2069595	0	0	0	0
13.75967	-0.2820875	-0.2069595	0	0	0	0
13.77624	-0.2820875	-0.2069595	0	0	0	0
13.7928	-0.2820147	-0.2068983	0.004396949	0.00369171	0.1327116	0.1114256
13.80964	-0.2820147	-0.2068983	0	0	-0.1316431	-0.1105285
13.82594	-0.2820147	-0.2068983	0	0	0	0
13.8425	-0.2816505	-0.2065926	0.02198528	0.01845569	0.6689465	0.5615516
13.85907	-0.2816505	-0.2065926	0	0	-0.663517	-0.5569938
13.87564	-0.2816505	-0.2065926	0	0	0	0
13.89268	-0.2802658	-0.2054312	0.08122273	0.06812643	2.416325	2.026718
13.90877	-0.2802658	-0.2054312	0	0	-2.451448	-2.056178
13.92534	-0.2802658	-0.2054312	0	0	0	0
13.9419	-0.2729843	-0.1994711	0.4395365	0.3597735	13.266	10.85861
13.95847	-0.2729843	-0.1994711	0	0	-13.26562	-10.8583
13.97504	-0.2729843	-0.1994711	0	0	0	0
13.99174	-0.2268181	-0.1631077	2.764006	2.177102	83.0807	65.4395
14.00817	-0.2268181	-0.1631077	0	0	-83.41785	-65.70507
14.02477	-0.2268181	-0.1631077	0	0	0	0
14.0413	-0.1775321	-0.1311911	2.980397	1.930045	89.95373	58.25224
14.05787	-0.1775321	-0.1311911	0	0	-90.03147	-58.30258
14.07444	-0.1775321	-0.1311911	0	0	0	0
14.091	-0.1567559	-0.1289838	1.254125	0.1332429	37.85175	4.02151
14.10757	-0.1567559	-0.1289838	0	0	-37.85175	-4.02151
14.12414	-0.1567559	-0.1289838	0	0	0	0
14.14083	-0.1544444	-0.1300872	0.138457	-0.06609341	4.162586	-1.987039
14.15727	-0.1544444	-0.1300872	0	0	-4.178761	1.99476
14.17384	-0.1544444	-0.1300872	0	0	0	0
14.1904	-0.1381408	-0.1154868	0.9841969	0.8813795	29.70569	26.60238
14.20697	-0.1381408	-0.1154868	0	0	-29.70483	-26.60162
14.22354	-0.1381408	-0.1154868	0	0	0	0
14.24223	-0.09620212	-0.08409329	2.243212	1.679174	63.61366	47.6185
14.2588	-0.09620212	-0.08409329	0	0	-63.61366	-47.6185
14.27542	-0.09620212	-0.08409329	0	0	0	0
14.29193	-0.05578417	-0.05472549	2.447381	1.778274	73.8621	53.66841
14.3085	-0.05578417	-0.05472549	0	0	-73.97921	-53.7535
14.32507	-0.05578417	-0.05472549	0	0	0	0
14.34163	-0.03742988	-0.04877339	1.107931	0.3592902	33.43935	10.84402
14.3582	-0.03742988	-0.04877339	0	0	-33.43839	-10.84371
14.37477	-0.03742988	-0.04877339	0	0	0	0
14.39133	-0.0246529	-0.05612437	0.771309	-0.4437572	23.27949	-13.39339
14.408	-0.0246529	-0.05612437	0	0	-23.20801	13.35227
14.42447	-0.0246529	-0.05612437	0	0	0	0
14.44105	-0.01541983	-0.06286001	0.5566682	-0.4060966	16.84245	-12.28679
14.4576	-0.01541983	-0.06286001	0	0	-16.80125	12.25673
14.47417	-0.01541983	-0.06286001	0	0	0	0
14.49108	-0.01536721	-0.0626679	0.003111826	0.01136119	0.09295461	0.3393748
14.51285	-0.01536721	-0.0626679	0	0	-0.08045234	-0.2937293
14.52387	-0.01536721	-0.0626679	0	0	0	0
14.54043	-0.01463053	-0.06216845	0.04446842	0.03014858	1.611993	1.092895
14.557	-0.01463053	-0.06216845	0	0	-1.342098	-0.909912
14.57361	-0.01463053	-0.06216845	0	0	0	0
14.59014	-0.01439374	-0.06199558	0.01432989	0.01046123	0.4324146	0.3156751
14.6067	-0.01439374	-0.06199558	0	0	-0.4331376	-0.3162028
14.62327	-0.01439374	-0.06199558	0	0	0	0
14.63983	-0.01178893	-0.06005637	0.1572541	0.1170714	4.746348	3.533529
14.6564	-0.01178893	-0.06005637	0	0	-4.746212	-3.533427
14.67296	-0.01178893	-0.06005637	0	0	0	0
14.68953	-0.01089431	-0.05936548	0.0540026	0.0417043	1.629895	1.258711
14.7061	-0.01089431	-0.05936548	0	0	-1.629849	-1.258674
14.72273	-0.01089431	-0.05936548	0	0	0	0
14.7393	0.02275923	-0.03492517	2.031331	1.47522	61.18419	44.43399
14.7558	0.02275923	-0.03492517	0	0	-61.42947	-44.61211
14.77236	0.02275923	-0.03492517	0	0	0	0
14.79528	0.06320518	-0.005792232	1.764684	1.27109	44.69146	32.19096
14.81185	0.06320518	-0.005792232	0	0	-44.6893	-32.1894
14.8288	0.06878604	-0.001778334	0.3292057	0.236773	9.820969	7.063486
14.84532	0.06878604	-0.001778334	0	0	-9.83664	-7.074758
14.86155	0.06878604	-0.001778334	0	0	0	0
14.87834	0.06881224	-0.001797168	0.001560724	-0.001122048	0.04726737	-0.03398183
14.89469	0.06881224	-0.001797168	0	0	-0.04710547	0.03386543
14.91125	0.06881224	-0.001797168	0	0	0	0
14.92782	0.06881224	-0.001834834	0	-0.002273701	0	-0.06862438
14.94439	0.06881224	-0.001834834	0	0	0	0.0686224
14.96095	0.06881224	-0.001834834	0	0	0	0
14.97752	0.06792168	-0.002550584	-0.05375743	-0.04320519	-1.622496	-1.30401
14.99442	0.06792168	-0.002550584	0	0	1.606268	1.290968
15.01065	0.06792168	-0.002550584	0	0	0	0
15.02722	0.06037391	-0.008584121	-0.4556105	-0.364206	-13.89109	-11.10426
15.04395	0.06037391	-0.008584121	0	0	13.68105	10.93636
15.06035	0.06037391	-0.008584121	0	0	0	0
15.07692	0.06773831	-0.01983267	0.4445419	-0.6790028	13.48578	-20.59847
15.09349	0.06773831	-0.01983267	0	0	-13.41669	20.49293
15.11021	0.06773831	-0.01983267	0	0	0	0
15.12662	0.08220904	-0.03028517	0.8817792	-0.6369274	26.61445	-19.22417
15.14323	0.08220904	-0.03028517	0	0	-26.70207	19.28746
15.15975	0.08220904	-0.03028517	0	0	0	0
15.17632	0.09213316	-0.03751447	0.5990556	-0.4363866	18.10455	-13.18839
15.19288	0.09213316	-0.03751447	0	0	-18.08058	13.17093
15.20945	0.09213316	-0.03751447	0	0	0	0
15.22632	0.09202878	-0.03743828	-0.006187196	0.004516401	-0.1850417	0.1350729
15.24259	0.09202878	-0.03743828	0	0	0.18673	-0.1363053
15.25915	0.09202878	-0.03743828	0	0	0	0
15.27582	0.09202878	-0.03743828	0	0	0	0
15.29229	0.09202878	-0.03743828	0	0	0	0
15.30886	0.09202878	-0.03743828	0	0	0	0
15.32542	0.0919766	-0.03740019	-0.003151639	0.002300507	-0.09512212	0.06943344
15.34198	0.0919766	-0.03740019	0	0	0.09514677	-0.06945143
15.35855	0.0919766	-0.03740019	0	0	0	0
15.37512	0.09182003	-0.03724783	-0.009450917	0.009197487	-0.2852375	0.2775887
15.39192	0.09182003	-0.03724783	0	0	0.2831915	-0.2755976
15.40895	0.09182003	-0.03724783	0	0	0	0
15.42482	0.09182003	-0.03724783	0	0	0	0
15.4415	0.09182003	-0.03724783	0	0	0	0
15.45799	0.09182003	-0.03724783	0	0	0	0
15.47452	0.09182003	-0.03728592	0	-0.002304356	0	-0.0697806
15.49109	0.09182003	-0.03728592	0	0	0	0.06962577
15.50765	0.09182003	-0.03728592	0	0	0	0
15.52455	0.09182003	-0.03728592	0	0	0	0
15.54078	0.09182003	-0.03728592	0	0	0	0
15.55758	0.09182003	-0.03728592	0	0	0	0
15.57392	0.09182003	-0.03728592	0	0	0	0
15.59059	0.09182003	-0.03728592	0	0	0	0
15.60713	0.09182003	-0.03728592	0	0	0	0
15.62364	0.09182003	-0.03728592	0	0	0	0
15.64067	0.09182003	-0.03728592	0	0	0	0
15.65675	0.09182003	-0.03728592	0	0	0	0
15.67504	0.09182003	-0.03728592	0	0	0	0
15.69161	0.09182003	-0.03728592	0	0	0	0
15.70818	0.09182003	-0.03728592	0	0	0	0
15.72474	0.09182003	-0.03728592	0	0	0	0
15.74131	0.09182003	-0.03728592	0	0	0	0
15.75826	0.09182003	-0.03728592	0	0	0	0
15.77444	0.09182003	-0.03728592	0	0	0	0
15.79101	0.09182003	-0.03728592	0	0	0	0
15.80757	0.09182003	-0.03728592	0	0	0	0
15.82414	0.09179394	-0.03726687	-0.001575003	0.00114977	-0.04753642	0.03470213
15.8408	0.09179394	-0.03726687	0	0	0.04740135	-0.03460352
15.86103	0.09179394	-0.03726687	0	0	0	0
15.87384	0.09179394	-0.03726687	0	0	0	0
15.89041	0.09179394	-0.03726687	0	0	0	0
15.90697	0.09179394	-0.03726687	0	0	0	0
15.92354	0.09179394	-0.03726687	0	0	0	0
15.94011	0.09179394	-0.03726687	0	0	0	0
15.95667	0.09179394	-0.03726687	0	0	0	0
15.97324	0.09179394	-0.03726687	0	0	0	0
15.98989	0.09179394	-0.03726687	0	0	0	0
16.00637	0.09179394	-0.03726687	0	0	0	0
16.02294	0.09179394	-0.03726687	0	0	0	0
16.03951	0.09179394	-0.03726687	0	0	0	0
16.05699	0.09179394	-0.03726687	0	0	0	0
16.07264	0.09179394	-0.03726687	0	0	0	0
16.08952	0.09179394	-0.03726687	0	0	0	0
16.10602	0.09179394	-0.03726687	0	0	0	0
16.12234	0.09179394	-0.03726687	0	0	0	0
16.13891	0.09179394	-0.03726687	0	0	0	0
16.15551	0.09179394	-0.03726687	0	0	0	0
16.17204	0.09179394	-0.03726687	0	0	0	0
16.18903	0.09179394	-0.03726687	0	0	0	0
16.20517	0.09179394	-0.03726687	0	0	0	0
16.22174	0.09179394	-0.03726687	0	0	0	0
16.23856	0.09179394	-0.03726687	0	0	0	0
16.25558	0.09179394	-0.03726687	0	0	0	0
16.27144	0.09179394	-0.03726687	0	0	0	0
16.28801	0.09179394	-0.03726687	0	0	0	0
16.30457	0.09179394	-0.03726687	0	0	0	0
16.32114	0.09179394	-0.03726687	0	0	0	0
16.33771	0.09179394	-0.03726687	0	0	0	0
16.35427	0.09179394	-0.03726687	0	0	0	0
16.37084	0.09176784	-0.03724783	-0.001575362	0.001149479	-0.04754725	0.03469335
16.38741	0.09176784	-0.03724783	0	0	0.04754178	-0.03468935
16.41023	0.09176784	-0.03724783	0	0	0	0
16.42211	0.09179394	-0.03726687	0.002197462	-0.001603401	0.06333367	-0.04621207
16.43869	0.09179394	-0.03726687	0	0	-0.07719799	0.05632831
16.45524	0.09179394	-0.03726687	0	0	0	0
16.47181	0.09176784	-0.03724783	-0.001575543	0.001149611	-0.04758286	0.03471933
16.48873	0.09176784	-0.03724783	0	0	0.04704895	-0.03432975
16.50494	0.09176784	-0.03724783	0	0	0	0
16.52151	0.09176784	-0.03724783	0	0	0	0
16.5383	0.09176784	-0.03724783	0	0	0	0
16.55479	0.09176784	-0.03724783	0	0	0	0
16.57121	0.09176784	-0.03724783	0	0	0	0
16.58783	0.09176784	-0.03724783	0	0	0	0
16.60485	0.09176784	-0.03724783	0	0	0	0
16.6209	0.09176784	-0.03724783	0	0	0	0
16.63747	0.09176784	-0.03724783	0	0	0	0
16.65404	0.09176784	-0.03724783	0	0	0	0
16.6706	0.09176784	-0.03724783	0	0	0	0
16.68717	0.09176784	-0.03724783	0	0	0	0
16.70374	0.09176784	-0.03724783	0	0	0	0
16.7203	0.09179394	-0.03726687	0.001575725	-0.001149744	0.04756095	-0.03470333
16.73687	0.09179394	-0.03726687	0	0	-0.04755821	0.03470133
16.75361	0.09179394	-0.03726687	0	0	0	0
16.77008	0.09179394	-0.03726687	0	0	0	0
16.78663	0.09179394	-0.03726687	0	0	0	0
16.80315	0.09179394	-0.03726687	0	0	0	0
16.8197	0.09179394	-0.03726687	0	0	0	0
16.83665	0.09179394	-0.03726687	0	0	0	0
16.85284	0.09179394	-0.03726687	0	0	0	0
16.8694	0.09179394	-0.03726687	0	0	0	0
16.8862	0.09179394	-0.03726687	0	0	0	0
16.9027	0.09179394	-0.03726687	0	0	0	0
16.91922	0.09179394	-0.03726687	0	0	0	0
16.93567	0.09179394	-0.03726687	0	0	0	0
16.95529	0.09179394	-0.03726687	0	0	0	0
16.9688	0.09179394	-0.03726687	0	0	0	0
16.98576	0.09179394	-0.03726687	0	0	0	0
17.00278	0.09179394	-0.03726687	0	0	0	0
17.01851	0.09179394	-0.03726687	0	0	0	0
17.0353	0.09179394	-0.03726687	0	0	0	0
17.05164	0.09179394	-0.03726687	0	0	0	0
17.0682	0.09179394	-0.03726687	0	0	0	0
17.08483	0.09179394	-0.03726687	0	0	0	0
17.10135	0.09179394	-0.03726687	0	0	0	0
17.1179	0.09179394	-0.03726687	0	0	0	0
17.13447	0.09179394	-0.03726687	0	0	0	0
17.15141	0.09179394	-0.03726687	0	0	0	0
17.1676	0.09179394	-0.03726687	0	0	0	0
17.18417	0.09179394	-0.03726687	0	0	0	0
17.20074	0.09179394	-0.03726687	0	0	0	0
17.21731	0.09176784	-0.03724783	-0.001575362	0.001149479	-0.04754452	0.03469135
17.23387	0.09176784	-0.03724783	0	0	0.04754452	-0.03469135
17.25135	0.09176784	-0.03724783	0	0	0	0
17.26701	0.09179394	-0.03726687	0.001666495	-0.001215975	0.05029493	-0.03669821
17.28358	0.09179394	-0.03726687	0	0	-0.05170574	0.03772762
17.30014	0.09179394	-0.03726687	0	0	0	0
17.31692	0.09179394	-0.03726687	0	0	0	0
17.33327	0.09179394	-0.03726687	0	0	0	0
17.34991	0.09179394	-0.03726687	0	0	0	0
17.36641	0.09179394	-0.03726687	0	0	0	0
17.38297	0.09179394	-0.03726687	0	0	0	0
17.39954	0.09179394	-0.03726687	0	0	0	0
17.41611	0.09179394	-0.03726687	0	0	0	0
17.433	0.09179394	-0.03726687	0	0	0	0
17.44924	0.09179394	-0.03726687	0	0	0	0
17.46601	0.09179394	-0.03726687	0	0	0	0
17.48252	0.09179394	-0.03726687	0	0	0	0
17.49894	0.09179394	-0.03726687	0	0	0	0
17.51633	0.09179394	-0.03726687	0	0	0	0
17.5329	0.09179394	-0.03726687	0	0	0	0
17.54946	0.09179394	-0.03726687	0	0	0	0
17.56603	0.09179394	-0.03726687	0	0	0	0
17.58286	0.09179394	-0.03726687	0	0	0	0
17.59938	0.09179394	-0.03726687	0	0	0	0
17.61573	0.09179394	-0.03726687	0	0	0	0
17.6323	0.09179394	-0.03726687	0	0	0	0
17.64892	0.09179394	-0.03726687	0	0	0	0
17.66543	0.09176784	-0.03724783	-0.001580274	0.001153063	-0.04769551	0.03480152
17.682	0.09176784	-0.03724783	0	0	0.04776701	-0.03485369
17.69857	0.09176784	-0.03724783	0	0	0	0
17.71513	0.09176784	-0.03724783	0	0	0	0
17.7317	0.09176784	-0.03724783	0	0	0	0
17.7485	0.09176784	-0.03724783	0	0	0	0
17.76498	0.09176784	-0.03724783	0	0	0	0
17.7884	0.09176784	-0.03724783	0	0	0	0
17.79797	0.09176784	-0.03724783	0	0	0	0
17.81454	0.09176784	-0.03724783	0	0	0	0
17.8311	0.09176784	-0.03724783	0	0	0	0
17.84767	0.09176784	-0.03724783	0	0	0	0
17.86424	0.09176784	-0.03724783	0	0	0	0
17.8808	0.09176784	-0.03724783	0	0	0	0
17.89737	0.09176784	-0.03724783	0	0	0	0
17.91393	0.09176784	-0.03724783	0	0	0	0
17.9305	0.09176784	-0.03724783	0	0	0	0
17.94707	0.09176784	-0.03724783	0	0	0	0
17.96363	0.09176784	-0.03724783	0	0	0	0
17.98046	0.09176784	-0.03724783	0	0	0	0
17.99677	0.09176784	-0.03724783	0	0	0	0
18.01333	0.09176784	-0.03728592	0	-0.002299448	0	-0.06994099
18.0299	0.09176784	-0.03728592	0	0	0	0.06940147
18.04654	0.09176784	-0.03728592	0	0	0	0
18.06303	0.09176784	-0.03728592	0	0	0	0
18.08008	0.09176784	-0.03728592	0	0	0	0
18.09617	0.09176784	-0.03728592	0	0	0	0
18.11273	0.09174175	-0.03730496	-0.001575094	-0.001149611	-0.0482305	-0.03520193
18.1293	0.09174175	-0.03730496	0	0	0.04753916	0.03469734
18.14587	0.09174175	-0.03730496	0	0	0	0
18.16265	0.09174175	-0.03730496	0	0	0	0
18.17916	0.09174175	-0.03730496	0	0	0	0
18.19568	0.09174175	-0.03730496	0	0	0	0
18.21218	0.09168956	-0.03730496	-0.003161558	0	-0.09571905	0
18.2287	0.09168956	-0.03730496	0	0	0.09574117	0
18.2457	0.09168956	-0.03730496	0	0	0	0
18.26183	0.09166346	-0.03728592	-0.001616984	0.001180186	-0.04880068	0.03561809
18.2784	0.09166346	-0.03728592	0	0	0.04944104	-0.03608546
18.29497	0.09166346	-0.03728592	0	0	0	0
18.31153	0.09153298	-0.03719069	-0.00787591	0.005747845	-0.2377091	0.1734803
18.33474	0.09153298	-0.03719069	0	0	0.1980073	-0.1445059
18.34467	0.09153298	-0.03719069	0	0	0	0
18.36123	0.09150689	-0.03705738	-0.001575638	0.008050511	-0.05948214	0.3039161
18.3778	0.09150689	-0.03705738	0	0	0.0475638	-0.2430208
18.39437	0.09150689	-0.03705738	0	0	0	0
18.41093	0.09153298	-0.03703833	0.001575094	0.001149611	0.04753916	0.03469734
18.42771	0.09153298	-0.03703833	0	0	-0.04724002	-0.034479
18.44407	0.09153298	-0.03703833	0	0	0	0
18.46063	0.09127202	-0.03692407	-0.01575363	0.006897668	-0.4785031	0.2095107
18.47723	0.09127202	-0.03692407	0	0	0.4750628	-0.2080044
18.49423	0.09127202	-0.03692407	0	0	0	0
18.51033	0.0764821	-0.03898146	-0.9185236	-0.1277733	-27.74505	-3.859538
18.5269	0.0764821	-0.03898146	0	0	28.116	3.91114
18.54347	0.0764821	-0.03898146	0	0	0	0
18.56004	-0.04507471	-0.0541508	-7.337184	-0.9156235	-221.4366	-27.63357
18.57683	-0.04507471	-0.0541508	0	0	219.9553	27.44871
18.59317	-0.04507471	-0.0541508	0	0	0	0
18.61112	-0.1859072	-0.05068593	-7.84496	0.1930081	-228.7425	5.627707
18.62796	-0.1859072	-0.05068593	0	0	225.4697	-5.547188
18.64426	-0.1859072	-0.05068593	0	0	0	0
18.66082	-0.2383051	-0.04659461	-3.16311	0.2469807	-96.26636	7.516632
18.67739	-0.2383051	-0.04659461	0	0	95.46834	-7.454321
18.69396	-0.2383051	-0.04659461	0	0	0	0
18.71052	-0.2457463	-0.04105932	-0.4492039	0.3341497	-13.55778	10.08524
18.72709	-0.2457463	-0.04105932	0	0	13.55778	-10.08524
18.74366	-0.2457463	-0.04105932	0	0	0	0
18.76022	-0.2802901	-0.03363135	-2.085307	0.4484044	-62.93831	13.53365
18.77679	-0.2802901	-0.03363135	0	0	62.93831	-13.53365
18.79354	-0.2802901	-0.03363135	0	0	0	0
18.80992	-0.29878	-0.04279515	-1.129182	-0.5596353	-34.08272	-16.89177
18.82649	-0.29878	-0.04279515	0	0	34.27808	16.9886
18.8431	-0.29878	-0.04279515	0	0	0	0
18.85962	-0.2987319	-0.04275699	0.002910628	0.002310638	0.08784798	0.0697392
18.87619	-0.2987319	-0.04275699	0	0	-0.08797966	-0.06984374
18.89275	-0.2987319	-0.04275699	0	0	0	0
18.90932	-0.2987559	-0.0427379	-0.001449891	0.001151728	-0.04376031	0.03476121
18.92589	-0.2987559	-0.0427379	0	0	0.04375779	-0.03475921
18.94245	-0.2987559	-0.0427379	0	0	0	0
18.95902	-0.2987559	-0.0427379	0	0	0	0
18.97559	-0.2987559	-0.0427379	0	0	0	0
18.99216	-0.2987559	-0.0427379	0	0	0	0
19.00872	-0.2987079	-0.04277607	0.002901914	-0.00230372	0.08758499	-0.06953042
19.02529	-0.2987079	-0.04277607	0	0	-0.08758499	0.06953042
19.04185	-0.2987079	-0.04277607	0	0	0	0
19.05842	-0.2986598	-0.04281423	0.002901914	-0.00230372	0.08758499	-0.06953042
19.07499	-0.2986598	-0.04281423	0	0	-0.08758499	0.06953042
19.09163	-0.2986598	-0.04281423	0	0	0	0
19.10812	-0.2985877	-0.04283331	0.004372398	-0.001156788	0.1319668	-0.03491395
19.12469	-0.2985877	-0.04283331	0	0	-0.1322485	0.03498848
19.14125	-0.2985877	-0.04283331	0	0	0	0
19.16205	-0.2983954	-0.04275699	0.009245197	0.003669139	0.247417	0.0981923
19.17468	-0.2983954	-0.04275699	0	0	-0.2766004	-0.1097743
19.19095	-0.2979145	-0.04241356	0.02954705	0.02110098	1.022452	0.7301823
19.20752	-0.2979145	-0.04241356	0	0	-0.8996553	-0.6424875
19.22409	-0.2979145	-0.04241356	0	0	0	0
19.24075	-0.2970004	-0.04168868	0.0548592	0.04350353	1.650902	1.309171
19.25722	-0.2970004	-0.04168868	0	0	-1.655749	-1.313015
19.27379	-0.2970004	-0.04168868	0	0	0	0
19.29076	-0.2969522	-0.04168868	0.00283596	0	0.08455755	0
19.30692	-0.2969522	-0.04168868	0	0	-0.08559438	0
19.32379	-0.2969522	-0.04168868	0	0	0	0
19.34008	-0.2954838	-0.04281423	0.0901424	-0.06909183	2.718625	-2.083756
19.35662	-0.2954838	-0.04281423	0	0	-2.745314	2.104212
19.37333	-0.2954838	-0.04281423	0	0	0	0
19.38976	-0.2907082	-0.04659461	0.290833	-0.2302253	8.777357	-6.948214
19.40632	-0.2907082	-0.04659461	0	0	-8.816436	6.979148
19.42655	-0.2907082	-0.04659461	0	0	0	0
19.43946	-0.2907082	-0.04659461	0	0	0	0
19.45602	-0.2907082	-0.04659461	0	0	0	0
19.47259	-0.2907082	-0.04659461	0	0	0	0
19.48932	-0.290684	-0.04661372	0.00144313	-0.001142255	0.04334416	-0.03430744
19.50572	-0.290684	-0.04661372	0	0	-0.04355625	0.03447531
19.52229	-0.290684	-0.04661372	0	0	0	0
19.53886	-0.2906599	-0.04663282	0.001458717	-0.001152944	0.04402163	-0.03479392
19.55543	-0.2906599	-0.04663282	0	0	-0.04402417	0.03479592
19.57237	-0.2906599	-0.04663282	0	0	0	0
19.58856	-0.2906116	-0.04667103	0.002983992	-0.00236018	0.09006225	-0.07123446
19.60513	-0.2906116	-0.04667103	0	0	-0.09109534	0.07205158
19.62169	-0.2906116	-0.04667103	0	0	0	0
19.63826	-0.2905633	-0.04670924	0.002915971	-0.002306378	0.08800419	-0.06960664
19.65483	-0.2905633	-0.04670924	0	0	-0.08800419	0.06960664
19.67139	-0.2905633	-0.04670924	0	0	0	0
19.68796	-0.2853133	-0.04974863	0.3169257	-0.1834786	9.565389	-5.537714
19.70453	-0.2853133	-0.04974863	0	0	-9.565389	5.537714
19.72149	-0.2853133	-0.04974863	0	0	0	0
19.73766	-0.2446567	-0.06088182	2.515136	-0.6887313	75.91134	-20.78715
19.75451	-0.2446567	-0.06088182	0	0	-76.17445	20.8592
19.77079	-0.2446567	-0.06088182	0	0	0	0
19.78754	-0.1752876	-0.05748558	4.143238	0.2028489	125.4621	6.142499
19.80393	-0.1752876	-0.05748558	0	0	-125.0504	-6.122344
19.82055	-0.1752876	-0.05748558	0	0	0	0
19.83706	-0.07462433	-0.02952519	6.099221	1.694129	184.0855	51.13186
19.85363	-0.07462433	-0.02952519	0	0	-184.4146	-51.22327
19.87019	-0.07462433	-0.02952519	0	0	0	0
19.88676	0.01905033	0.01156665	5.654865	2.480594	170.6838	74.87309
19.90333	0.01905033	0.01156665	0	0	-170.6642	-74.86446
19.91989	0.01905033	0.01156665	0	0	0	0
19.93646	0.04843577	0.02011019	1.773913	0.5157483	53.54297	15.56711
19.95303	0.04843577	0.02011019	0	0	-53.53989	-15.56621
19.97096	0.04843577	0.02011019	0	0	0	0
19.9867	0.04922336	0.0185005	0.05003948	-0.1022707	1.486071	-3.037231
20.00273	0.04922336	0.0185005	0	0	-1.575209	3.21941
20.01971	0.04922336	0.0185005	0	0	0	0
20.03586	0.04696544	0.01479167	-0.1398302	-0.2296827	-4.220328	-6.932238
20.05273	0.04696544	0.01479167	0	0	4.234711	6.955863
20.06899	0.04696544	0.01479167	0	0	0	0
20.08556	0.04693918	0.01481042	-0.001585396	0.00113147	-0.04829493	0.03446726
20.10226	0.04693918	0.01481042	0	0	0.04765258	-0.03400883
20.11869	0.04693918	0.01481042	0	0	0	0
20.13526	0.04691292	0.01482916	-0.001585171	0.00113147	-0.04804521	0.03429391
20.15182	0.04691292	0.01482916	0	0	0.04784606	-0.03415176
20.16881	0.04691292	0.01482916	0	0	0	0
20.18496	0.04691292	0.01482916	0	0	0	0
20.20153	0.04691292	0.01482916	0	0	0	0
20.21809	0.04691292	0.01482916	0	0	0	0
20.23466	0.04691292	0.01482916	0	0	0	0
20.25123	0.04691292	0.01482916	0	0	0	0
20.2678	0.04691292	0.01482916	0	0	0	0
20.28436	0.04691292	0.01482916	0	0	0	0
20.30106	0.04691292	0.01482916	0	0	0	0
20.31753	0.04691292	0.01482916	0	0	0	0
20.33406	0.04688666	0.01481042	-0.001588689	-0.00113382	-0.04813514	-0.03435322
20.35063	0.04688666	0.01481042	0	0	0.04800199	0.03425819
20.3672	0.04688666	0.01481042	0	0	0	0
20.38376	0.04688666	0.01481042	0	0	0	0
20.40033	0.04688666	0.01481042	0	0	0	0
20.4169	0.04688666	0.01481042	0	0	0	0
20.43346	0.04688666	0.01481042	0	0	0	0
20.45015	0.04688666	0.01481042	0	0	0	0
20.4666	0.04688666	0.01481042	0	0	0	0
20.48316	0.04683415	0.01477293	-0.003170932	-0.002263256	-0.09604724	-0.06855383
20.49973	0.04683415	0.01477293	0	0	0.09571546	0.06831701
20.5163	0.04683415	0.01477293	0	0	0	0
20.53287	0.04244817	0.01164168	-0.2647381	-0.1890026	-7.989813	-5.704109
20.54944	0.04244817	0.01164168	0	0	7.988893	5.703452
20.566	0.04244817	0.01164168	0	0	0	0
20.58277	0.02375869	-0.00168417	-1.114245	-0.7944719	-33.42595	-23.83316
20.59913	0.02375869	-0.00168417	0	0	33.62799	23.97721
20.6157	0.02375869	-0.00168417	0	0	0	0
20.63231	0.006868313	-0.01368362	-1.016579	-0.7222096	-30.63633	-21.76501
20.64884	0.006868313	-0.01368362	0	0	30.67865	21.79507
20.6654	0.006868313	-0.01368362	0	0	0	0
20.68196	0.002921044	-0.01640666	-0.238285	-0.1643818	-7.192699	-4.96191
20.69853	0.002921044	-0.01640666	0	0	7.191871	4.961339
20.71538	0.002921044	-0.01640666	0	0	0	0
20.73167	0.003210515	-0.01608507	0.01777121	0.01974314	0.5363361	0.5958492
20.7484	0.003210515	-0.01608507	0	0	-0.5381327	-0.5978453
20.76491	0.003210515	-0.01608507	0	0	0	0
20.78774	0.004763122	-0.01496921	0.06802715	0.04889105	1.72942	1.242932
20.79795	0.004763122	-0.01496921	0	0	-2.059465	-1.480136
20.8145	0.004789437	-0.0149503	0.001589502	0.001142173	0.05938973	0.04267586
20.83107	0.004789437	-0.0149503	0	0	-0.04798783	-0.03448276
20.84799	0.004789437	-0.0149503	0	0	0	0
20.86451	0.004789437	-0.0149503	0	0	0	0
20.88077	0.004789437	-0.0149503	0	0	0	0
20.89734	0.004789437	-0.0149503	0	0	0	0
20.91406	0.004763122	-0.01496921	-0.001573728	-0.001130839	-0.04727478	-0.03397039
20.93047	0.004763122	-0.01496921	0	0	0.04749794	0.03413074
20.94703	0.004763122	-0.01496921	0	0	0	0
20.9636	0.004763122	-0.01496921	0	0	0	0
20.9806	0.004763122	-0.01496921	0	0	0	0
20.99674	0.004763122	-0.01496921	0	0	0	0
21.0133	0.004763122	-0.01496921	0	0	0	0
21.03013	0.004763122	-0.01496921	0	0	0	0
21.04663	0.004763122	-0.01496921	0	0	0	0
21.063	0.004763122	-0.01496921	0	0	0	0
21.07965	0.004763122	-0.01496921	0	0	0	0
21.09614	0.004763122	-0.01496921	0	0	0	0
21.11271	0.004763122	-0.01496921	0	0	0	0
21.12927	0.004763122	-0.01496921	0	0	0	0
21.1462	0.004763122	-0.01496921	0	0	0	0
21.1624	0.004763122	-0.01496921	0	0	0	0
21.17897	0.004763122	-0.01496921	0	0	0	0
21.19575	0.004763122	-0.01496921	0	0	0	0
21.2121	0.004710491	-0.01493139	-0.003218652	0.0023128	-0.09713912	0.06980045
21.22877	0.004710491	-0.01493139	0	0	0.09747578	-0.07004237
21.24524	0.004710491	-0.01493139	0	0	0	0
21.26228	0.004526285	-0.01479903	-0.01081249	0.007769423	-0.322736	0.2319052
21.27837	0.004526285	-0.01479903	0	0	0.3263403	-0.2344951
21.29494	0.004526285	-0.01479903	0	0	0	0
21.3115	0.004315763	-0.01460995	-0.01270861	0.01141414	-0.3835687	0.3444993
21.33308	0.004315763	-0.01460995	0	0	0.3332319	-0.2992897
21.34486	0.004315763	-0.01460995	0	0	0	0
21.3612	0.004236817	-0.01455323	-0.00483081	0.003470911	-0.1717458	0.1233985
21.37839	0.004236817	-0.01455323	0	0	0.1440938	-0.1035306
21.39434	0.004236817	-0.01455323	0	0	0	0
21.4109	0.004263132	-0.01449651	0.001588559	0.003424041	0.04885395	0.1053017
21.42793	0.004263132	-0.01449651	0	0	-0.04728679	-0.1019238
21.44404	0.004263132	-0.01449651	0	0	0	0
21.46097	0.004263132	-0.01434526	0	0.008933066	0	0.2703943
21.47717	0.004263132	-0.01434526	0	0	0	-0.2696005
21.49374	0.004263132	-0.01434526	0	0	0	0
21.51031	0.003105253	-0.01275756	-0.06989774	0.09584481	-2.109639	2.892768
21.52702	0.003105253	-0.01275756	0	0	2.100209	-2.879837
21.54352	0.003105253	-0.01275756	0	0	0	0
21.56003	0.004131556	-0.009263591	0.06214807	0.2115783	1.882568	6.409057
21.57657	0.004131556	-0.009263591	0	0	-1.880178	-6.40092
21.59458	0.004131556	-0.009263591	0	0	0	0
21.61115	0.004236817	-0.009188088	0.006353587	0.004557386	0.1837549	0.1318062
21.62772	0.004236817	-0.009188088	0	0	-0.1917516	-0.1375422
21.64429	0.004236817	-0.009188088	0	0	0	0
21.66085	0.004236817	-0.009188088	0	0	0	0
21.67762	0.004236817	-0.009188088	0	0	0	0
21.69399	0.004236817	-0.009188088	0	0	0	0
21.71055	0.004263132	-0.009206964	0.001588376	-0.00113936	0.04822598	-0.03459306
21.72717	0.004263132	-0.009206964	0	0	-0.04786839	0.03433655
21.74419	0.004263132	-0.009206964	0	0	0	0
21.76025	0.004263132	-0.009206964	0	0	0	0
21.77718	0.004263132	-0.009206964	0	0	0	0
21.79339	0.004263132	-0.009206964	0	0	0	0
21.80995	0.004263132	-0.009206964	0	0	0	0
21.82672	0.004263132	-0.009206964	0	0	0	0
21.84309	0.004263132	-0.009206964	0	0	0	0
21.86214	0.004236817	-0.009188088	-0.001381459	0.0009909366	-0.03900702	0.02798019
21.87871	0.004236817	-0.009188088	0	0	0.0387856	-0.02782137
21.89527	0.004236817	-0.009188088	0	0	0	0
21.91184	0.004236817	-0.009188088	0	0	0	0
21.99375	0.004236817	-0.009188088	0	0	0	0
22.01032	0.004236817	-0.009188088	0	0	0	0
22.02689	0.004236817	-0.009188088	0	0	0	0
22.04389	0.004236817	-0.009188088	0	0	0	0
22.06039	0.004236817	-0.009188088	0	0	0	0
22.07659	0.004263132	-0.009206964	0.001624471	-0.001165252	0.04967864	-0.03563507
22.09341	0.004263132	-0.009206964	0	0	-0.0491937	0.03528722
22.10972	0.004263132	-0.009206964	0	0	0	0
22.12629	0.004263132	-0.009206964	0	0	0	0
22.14295	0.004263132	-0.009206964	0	0	0	0
22.15947	0.004263132	-0.009206964	0	0	0	0
22.17899	0.004263132	-0.009244715	0	-0.001933804	0	-0.05365811
22.19562	0.004263132	-0.009244715	0	0	0	0.05349391
22.21212	0.004263132	-0.009244715	0	0	0	0
22.22869	0.004263132	-0.009244715	0	0	0	0
22.24526	0.004263132	-0.009244715	0	0	0	0
22.26215	0.004263132	-0.009244715	0	0	0	0
22.27839	0.004289447	-0.009263591	0.001620493	-0.001162378	0.04890938	-0.03508265
22.29517	0.004289447	-0.009263591	0	0	-0.0490704	0.03519815
22.31152	0.004289447	-0.009263591	0	0	0	0
22.32809	0.004289447	-0.009301344	0	-0.002278777	0	-0.06922792
22.34471	0.004289447	-0.009301344	0	0	0	0.06866691
22.36123	0.004289447	-0.009301344	0	0	0	0
22.37779	0.004289447	-0.009301344	0	0	0	0
22.39436	0.004289447	-0.009301344	0	0	0	0
22.41093	0.004289447	-0.009301344	0	0	0	0
22.42749	0.004289447	-0.009301344	0	0	0	0
22.44406	0.004289447	-0.009301344	0	0	0	0
22.46063	0.004289447	-0.009301344	0	0	0	0
22.47719	0.004315763	-0.00932022	0.001588587	-0.001139492	0.0479464	-0.0343919
22.49382	0.004315763	-0.00932022	0	0	-0.04786374	0.03433261
22.51033	0.004315763	-0.00932022	0	0	0	0
22.52689	0.004289447	-0.009339097	-0.001588587	-0.001139548	-0.04802934	-0.0344531
22.54346	0.004289447	-0.009339097	0	0	0.0479464	0.0343936
22.56003	0.004289447	-0.009339097	0	0	0	0
22.57659	0.004289447	-0.009339097	0	0	0	0
22.59316	0.004289447	-0.009339097	0	0	0	0
22.60973	0.004289447	-0.009339097	0	0	0	0
22.62629	0.004289447	-0.009339097	0	0	0	0
22.64342	0.004289447	-0.009339097	0	0	0	0
22.65944	0.004289447	-0.009339097	0	0	0	0
22.67599	0.004289447	-0.009339097	0	0	0	0
22.69256	0.004289447	-0.009339097	0	0	0	0
22.71445	0.004289447	-0.009339097	0	0	0	0
22.72569	0.004289447	-0.009339097	0	0	0	0
22.74247	0.004289447	-0.009339097	0	0	0	0
22.75883	0.004289447	-0.009339097	0	0	0	0
22.7755	0.004289447	-0.009339097	0	0	0	0
22.79196	0.004289447	-0.009339097	0	0	0	0
22.80853	0.004289447	-0.009339097	0	0	0	0
22.82509	0.004315763	-0.00932022	0.00158877	0.001139679	0.04795192	0.03439756
22.84166	0.004315763	-0.00932022	0	0	-0.04795468	-0.03439954
22.85823	0.004315763	-0.00932022	0	0	0	0
22.87479	0.004315763	-0.00932022	0	0	0	0
22.89159	0.004315763	-0.00932022	0	0	0	0
22.90809	0.004315763	-0.00932022	0	0	0	0
22.94246	0.004315763	-0.00932022	0	0	0	0
22.95962	0.004315763	-0.00932022	0	0	0	0
22.97565	0.004342078	-0.009339097	0.001641284	-0.00117737	0.04945149	-0.03547388
22.99534	0.004342078	-0.009339097	0	0	-0.04594263	0.03295681
23.00873	0.004342078	-0.009339097	0	0	0	0
23.0253	0.004368393	-0.009357973	0.001588404	-0.00113936	0.05302649	-0.03803585
23.04218	0.004368393	-0.009357973	0	0	-0.04748438	0.0340605
23.05843	0.004368393	-0.009357973	0	0	0	0
23.07524	0.004368393	-0.009395727	0	-0.002246504	0	-0.06796394
23.09156	0.004368393	-0.009395727	0	0	0	0.06780352
23.10826	0.004368393	-0.009395727	0	0	0	0
23.12476	0.004394709	-0.009414604	0.00159483	-0.001144026	0.04804633	-0.03446528
23.14126	0.004394709	-0.009414604	0	0	-0.04831842	0.03466046
23.15783	0.004394709	-0.009414604	0	0	0	0
23.1744	0.004394709	-0.009414604	0	0	0	0
23.19097	0.004394709	-0.009414604	0	0	0	0
23.20753	0.004394709	-0.009414604	0	0	0	0
23.2241	0.004421024	-0.009433481	0.001588376	-0.001139417	0.04793727	-0.03438766
23.24067	0.004421024	-0.009433481	0	0	-0.04793727	0.03438766
23.25734	0.004421024	-0.009433481	0	0	0	0
23.27413	0.004421024	-0.009433481	0	0	0	0
23.29085	0.004421024	-0.009433481	0	0	0	0
23.30727	0.004421024	-0.009433481	0	0	0	0
23.32383	0.004421024	-0.009433481	0	0	0	0
23.34043	0.004421024	-0.009433481	0	0	0	0
23.35697	0.004421024	-0.009433481	0	0	0	0
23.37353	0.004421024	-0.009433481	0	0	0	0
23.39043	0.004421024	-0.009433481	0	0	0	0
23.40667	0.004421024	-0.009433481	0	0	0	0
23.42323	0.004421024	-0.009433481	0	0	0	0
23.4398	0.004421024	-0.009433481	0	0	0	0
23.45637	0.004421024	-0.009433481	0	0	0	0
23.47299	0.004421024	-0.009433481	0	0	0	0
23.4895	0.004421024	-0.009433481	0	0	0	0
23.50607	0.004421024	-0.009433481	0	0	0	0
23.52263	0.004421024	-0.009433481	0	0	0	0
23.54357	0.004421024	-0.009433481	0	0	0	0
23.55577	0.004421024	-0.009433481	0	0	0	0
23.57233	0.004421024	-0.009433481	0	0	0	0
23.58908	0.004421024	-0.009433481	0	0	0	0
23.60547	0.004421024	-0.009433481	0	0	0	0
23.62203	0.004421024	-0.009433481	0	0	0	0
23.63861	0.004421024	-0.009433481	0	0	0	0
23.65517	0.004421024	-0.009433481	0	0	0	0
23.67173	0.004421024	-0.009433481	0	0	0	0
23.6883	0.004421024	-0.009433481	0	0	0	0
23.70517	0.004421024	-0.009433481	0	0	0	0
23.72144	0.004421024	-0.009433481	0	0	0	0
23.7382	0.004421024	-0.009433481	0	0	0	0
23.75469	0.004421024	-0.009433481	0	0	0	0
23.77171	0.004421024	-0.009433481	0	0	0	0
23.7877	0.004421024	-0.009433481	0	0	0	0
23.80427	0.004421024	-0.009433481	0	0	0	0
23.82544	0.004421024	-0.009433481	0	0	0	0
23.84237	0.004421024	-0.009433481	0	0	0	0
23.85858	0.004421024	-0.009433481	0	0	0	0
23.8754	0.004421024	-0.009433481	0	0	0	0
23.89171	0.004421024	-0.009433481	0	0	0	0
23.90842	0.004421024	-0.009433481	0	0	0	0
23.92493	0.004421024	-0.009433481	0	0	0	0
23.94196	0.004421024	-0.009433481	0	0	0	0
23.95816	0.004421024	-0.009433481	0	0	0	0
23.97472	0.004421024	-0.009433481	0	0	0	0
23.99129	0.004421024	-0.009433481	0	0	0	0
24.00786	0.004421024	-0.009433481	0	0	0	0
24.0245	0.004421024	-0.009433481	0	0	0	0
24.04101	0.004421024	-0.009433481	0	0	0	0
24.05756	0.004421024	-0.009433481	0	0	0	0
24.07412	0.004421024	-0.009433481	0	0	0	0
24.09105	0.004421024	-0.009433481	0	0	0	0
24.1074	0.004421024	-0.009433481	0	0	0	0
24.12397	0.004421024	-0.009433481	0	0	0	0
24.14054	0.004421024	-0.009433481	0	0	0	0
24.15711	0.004447339	-0.009452358	0.001587855	-0.001139023	0.04791329	-0.03436985
24.17379	0.004447339	-0.009452358	0	0	-0.04774567	0.03424961
24.19024	0.004447339	-0.009452358	0	0	0	0
24.20681	0.004473655	-0.009471236	0.001588038	-0.001139211	0.04810153	-0.03450658
24.22337	0.004473655	-0.009471236	0	0	-0.04792984	0.03438342
24.23993	0.004473655	-0.009471236	0	0	0	0
24.25687	0.00449997	-0.009527868	0.00155385	-0.003344003	0.04638	-0.09981331
24.27307	0.00449997	-0.009527868	0	0	-0.04689797	0.100928
24.28963	0.00449997	-0.009527868	0	0	0	0
24.30637	0.00460523	-0.009641136	0.006288401	-0.006766779	0.1888062	-0.2031692
24.3229	0.00460523	-0.009641136	0	0	-0.189066	0.2034489
24.33941	0.00460523	-0.009641136	0	0	0	0
24.35592	0.004710491	-0.009792166	0.006377053	-0.009149885	0.1930934	-0.2770531
24.37247	0.004710491	-0.009792166	0	0	-0.1929485	0.2768453
24.38903	0.004710491	-0.009792166	0	0	0	0
24.40592	0.004736807	-0.009811046	0.001558617	-0.001118215	0.04659391	-0.03342836
24.42216	0.004736807	-0.009811046	0	0	-0.04704185	0.03374973
24.43873	0.004736807	-0.009811046	0	0	0	0
24.4553	0.004736807	-0.009811046	0	0	0	0
24.47187	0.004736807	-0.009811046	0	0	0	0
24.48843	0.004736807	-0.009811046	0	0	0	0
24.505	0.004763122	-0.009829924	0.001588559	-0.00113966	0.04794555	-0.03439699
24.52157	0.004763122	-0.009829924	0	0	-0.04794555	0.03439699
24.53813	0.004763122	-0.009829924	0	0	0	0
24.5547	0.004921013	-0.009943203	0.009530338	-0.006837511	0.2876262	-0.2063565
24.57127	0.004921013	-0.009943203	0	0	-0.2876262	0.2063565
24.58784	0.004921013	-0.009943203	0	0	0	0
24.6044	0.005868354	-0.01066073	0.05718819	-0.04331474	1.726042	-1.307317
24.62107	0.005868354	-0.01066073	0	0	-1.720891	1.303415
24.63758	0.005868354	-0.01066073	0	0	0	0
24.65411	0.02031299	-0.02123443	0.8739933	-0.6397766	26.45331	-19.36423
24.67067	0.02031299	-0.02123443	0	0	-26.41366	19.33521
24.68723	0.02031299	-0.02123443	0	0	0	0
24.7038	0.07132617	-0.05988363	3.079516	-2.333139	92.94532	-70.41833
24.72037	0.07132617	-0.05988363	0	0	-92.94532	70.41833
24.73693	0.07132617	-0.05988363	0	0	0	0
24.75368	0.152594	-0.1495184	4.853922	-5.353662	145.7199	-160.7227
24.77007	0.152594	-0.1495184	0	0	-146.4917	161.5739
24.78668	0.152594	-0.1495184	0	0	0	0
24.80321	0.1961554	-0.2246051	2.636657	-4.544797	79.5699	-137.1543
24.82022	0.1961554	-0.2246051	0	0	-78.62851	135.5317
24.83634	0.1961554	-0.2246051	0	0	0	0
24.85323	0.2134105	-0.2395849	1.021646	-0.8869274	30.95094	-26.86961
24.86947	0.2134105	-0.2395849	0	0	-30.83513	26.76906
24.88626	0.2134105	-0.2395849	0	0	0	0
24.90278	0.2138127	-0.2399991	0.02434786	-0.02508138	0.7309907	-0.7530131
24.91917	0.2138127	-0.2399991	0	0	-0.7398882	0.7621786
24.93652	0.2138127	-0.2399991	0	0	0	0
24.95231	0.2133351	-0.239647	-0.03024489	0.0223012	-0.9126875	0.6729742
24.96887	0.2133351	-0.239647	0	0	0.9349114	-0.6893611
24.98544	0.2133351	-0.239647	0	0	0	0
25.002	0.2131592	-0.2396263	-0.01062176	0.00125036	-0.3205839	0.03773811
25.01857	0.2131592	-0.2396263	0	0	0.3205839	-0.03773811
25.03514	0.2131592	-0.2396263	0	0	0	0
25.0517	0.2130838	-0.2397299	-0.004552045	-0.006251079	-0.137381	-0.188658
25.06839	0.2130838	-0.2397299	0	0	0.1368924	0.187987
25.08484	0.2130838	-0.2397299	0	0	0	0
25.1014	0.1995454	-0.2508832	-0.8171744	-0.6732152	-24.75214	-20.39162
25.11797	0.1995454	-0.2508832	0	0	24.66237	20.31767
25.13454	0.1995454	-0.2508832	0	0	0	0
25.1511	0.1469334	-0.2949808	-3.176035	-2.662045	-95.85846	-80.3453
25.16793	0.1469334	-0.2949808	0	0	95.0975	79.70749
25.18448	0.1469334	-0.2949808	0	0	0	0
25.2008	0.0964107	-0.3370247	-3.096253	-2.576635	-94.20428	-78.39477
25.21744	0.0964107	-0.3370247	0	0	93.95348	78.18605
25.23399	0.0964107	-0.3370247	0	0	0	0
25.2505	0.07219012	-0.3574318	-1.466685	-1.235756	-44.36168	-37.37694
25.26707	0.07219012	-0.3574318	0	0	44.33354	37.35323
25.28364	0.07219012	-0.3574318	0	0	0	0
25.30021	0.08024835	-0.3640313	0.4863956	-0.3983458	14.67945	-12.0221
25.31702	0.08024835	-0.3640313	0	0	-14.56958	11.93212
25.33334	0.08024835	-0.3640313	0	0	0	0
25.35003	0.101961	-0.3825999	1.300694	-1.112355	39.40246	-33.69701
25.36656	0.101961	-0.3825999	0	0	-39.15136	33.48227
25.38308	0.101961	-0.3825999	0	0	0	0
25.3996	0.104929	-0.385161	0.1796456	-0.155018	5.436736	-4.691414
25.41617	0.104929	-0.385161	0	0	-5.428901	4.684654
25.43274	0.104929	-0.385161	0	0	0	0
25.44931	0.104955	-0.3851835	0.001570865	-0.001358148	0.04741152	-0.04099135
25.46587	0.104955	-0.3851835	0	0	-0.04740879	0.04098899
25.48272	0.104955	-0.3851835	0	0	0	0
25.49926	0.104955	-0.3851835	0	0	0	0
25.51557	0.104955	-0.3851835	0	0	0	0
25.53214	0.104955	-0.3851835	0	0	0	0
25.54879	0.104955	-0.3851835	0	0	0	0
25.56529	0.104955	-0.3851835	0	0	0	0
25.58184	0.104955	-0.3851835	0	0	0	0
25.59881	0.104955	-0.3851835	0	0	0	0
25.61497	0.104955	-0.3851835	0	0	0	0
25.63154	0.104955	-0.3851835	0	0	0	0
25.64811	0.104955	-0.3851835	0	0	0	0
25.66467	0.104955	-0.3851835	0	0	0	0
25.68124	0.104955	-0.3851835	0	0	0	0
25.69781	0.1088054	-0.3885148	0.2324115	-0.2010725	7.014194	-6.068379
25.71438	0.1088054	-0.3885148	0	0	-7.012579	6.066983
25.73094	0.1088054	-0.3885148	0	0	0	0
25.74751	0.120674	-0.3987552	0.7163863	-0.6181139	21.62556	-18.65901
25.76433	0.120674	-0.3987552	0	0	-21.45876	18.51509
25.78064	0.120674	-0.3987552	0	0	0	0
25.79721	0.1287574	-0.4049366	0.487917	-0.3731094	14.83811	-11.34668
25.81378	0.1287574	-0.4049366	0	0	-14.72536	11.26046
25.83035	0.1287574	-0.4049366	0	0	0	0
25.84691	0.1611175	-0.4333008	1.953262	-1.712067	58.94955	-51.67029
25.86348	0.1611175	-0.4333008	0	0	-58.94955	51.67029
25.88042	0.1611175	-0.4333008	0	0	0	0
25.89661	0.182601	-0.4529016	1.326522	-1.210278	40.03682	-36.52836
25.91318	0.182601	-0.4529016	0	0	-40.48901	36.94092
25.92995	0.182601	-0.4529016	0	0	0	0
25.94631	0.1866187	-0.4566229	0.245596	-0.2274706	7.412528	-6.865473
25.96299	0.1866187	-0.4566229	0	0	-7.433925	6.885291
25.9795	0.1866187	-0.4566229	0	0	0	0
25.99601	0.1865679	-0.4565757	-0.003076995	0.002855018	-0.09318575	0.08646326
26.01258	0.1865679	-0.4565757	0	0	0.09301382	-0.08630373
26.0308	0.1865679	-0.4565757	0	0	0	0
26.04571	0.1865679	-0.4565757	0	0	0	0
26.06228	0.1865679	-0.4565757	0	0	0	0
26.07885	0.1865679	-0.4565757	0	0	0	0
26.09541	0.1864409	-0.4564578	-0.007670373	0.007118955	-0.2315056	0.2148629
26.11209	0.1864409	-0.4564578	0	0	0.2306955	-0.214111
26.12855	0.1864409	-0.4564578	0	0	0	0
26.14511	0.1863392	-0.4564106	-0.006135758	0.002846143	-0.1858408	0.08620442
26.16168	0.1863392	-0.4564106	0	0	0.1851882	-0.0859017
26.17825	0.1863392	-0.4564106	0	0	0	0
26.19516	0.1862376	-0.4563163	-0.0060107	0.00557721	-0.1795327	0.1665849
26.21138	0.1862376	-0.4563163	0	0	0.1814137	-0.1683302
26.22795	0.1862376	-0.4563163	0	0	0	0
26.24468	0.1861867	-0.4562692	-0.003036859	0.002816952	-0.09118543	0.08458243
26.26108	0.1861867	-0.4562692	0	0	0.09165259	-0.08501577
26.27772	0.1861867	-0.4562692	0	0	0	0
26.29423	0.1861867	-0.4562692	0	0	0	0
26.31078	0.1861867	-0.4562692	0	0	0	0
26.32734	0.1861867	-0.4562692	0	0	0	0
26.34391	0.1861867	-0.4562692	0	0	0	0
26.36048	0.1861867	-0.4562692	0	0	0	0
26.37726	0.1861867	-0.4562692	0	0	0	0
26.39361	0.1861867	-0.4562692	0	0	0	0
26.41029	0.1861867	-0.4562692	0	0	0	0
26.4268	0.1861867	-0.4562692	0	0	0	0
26.44331	0.1861867	-0.4562692	0	0	0	0
26.45988	0.1861867	-0.4562692	0	0	0	0
26.47645	0.1861867	-0.4562692	0	0	0	0
26.49301	0.1861867	-0.4562692	0	0	0	0
26.50987	0.1861867	-0.4562692	0	0	0	0
26.52615	0.1861867	-0.4562692	0	0	0	0
26.54271	0.1861613	-0.4562456	-0.001534614	0.001423071	-0.04672899	0.04333251
26.55928	0.1861613	-0.4562456	0	0	0.04631742	-0.04295085
26.57584	0.1861613	-0.4562456	0	0	0	0
26.59263	0.1861613	-0.4562456	0	0	0	0
26.60898	0.1861613	-0.4562456	0	0	0	0
26.62565	0.1861613	-0.4562456	0	0	0	0
26.64211	0.1861105	-0.4562456	-0.003087526	0	-0.09318708	0
26.65868	0.1861105	-0.4562456	0	0	0.09347767	0
26.67525	0.1861105	-0.4562456	0	0	0	0
26.69219	0.1860851	-0.456222	-0.001499191	0.001391038	-0.04473324	0.04150616
26.70838	0.1860851	-0.456222	0	0	0.04524568	-0.04198162
26.72495	0.1860851	-0.456222	0	0	0	0
26.74174	0.1860343	-0.4561749	-0.0030272	0.002807992	-0.09075505	0.08418323
26.75808	0.1860343	-0.4561749	0	0	0.09136632	-0.08475024
26.77478	0.1860343	-0.4561749	0	0	0	0
26.79126	0.1859072	-0.456057	-0.007713024	0.007155053	-0.2324717	0.2156544
26.80778	0.1859072	-0.456057	0	0	0.2337213	-0.2168136
26.82434	0.1859072	-0.456057	0	0	0	0
26.84149	0.18283	-0.4531604	-0.179518	0.1689837	-5.32589	5.013361
26.85806	0.18283	-0.4531604	0	0	5.325287	-5.012794
26.87485	0.18283	-0.4531604	0	0	0	0
26.89134	0.1680321	-0.4393001	-0.8972331	0.8403818	-26.95288	25.24506
26.90786	0.1680321	-0.4393001	0	0	27.18025	-25.45803
26.92432	0.1680321	-0.4393001	0	0	0	0
26.94089	0.1309567	-0.4038212	-2.238129	2.141757	-67.77313	64.85487
26.95745	0.1309567	-0.4038212	0	0	67.55074	-64.64206
26.97402	0.1309567	-0.4038212	0	0	0	0
26.99059	0.08560605	-0.352202	-2.737373	3.115743	-82.61407	94.03331
27.00741	0.08560605	-0.352202	0	0	81.9817	-93.31353
27.02372	0.08560605	-0.352202	0	0	0	0
27.04029	0.04785816	-0.2832923	-2.278729	4.159875	-69.31081	126.5285
27.05685	0.04785816	-0.2832923	0	0	68.77615	-125.5525
27.07342	0.04785816	-0.2832923	0	0	0	0
27.09047	0.006210446	-0.2055534	-2.442985	4.560032	-72.67932	135.6619
27.10655	0.006210446	-0.2055534	0	0	73.73367	-137.63
27.12312	0.006210446	-0.2055534	0	0	0	0
27.13969	-0.03251485	-0.1408718	-2.337464	3.904191	-70.54479	117.8287
27.15625	-0.03251485	-0.1408718	0	0	70.54479	-117.8287
27.17282	-0.03251485	-0.1408718	0	0	0	0
27.18939	-0.04384031	-0.09406276	-0.6836848	2.825722	-20.63484	85.28538
27.20638	-0.04384031	-0.09406276	0	0	20.37445	-84.20919
27.22291	-0.04384031	-0.09406276	0	0	0	0
27.2394	-0.03006988	-0.05938467	0.8351269	2.103101	25.28861	63.68432
27.25566	-0.03006988	-0.05938467	0	0	-25.50516	-64.22964
27.27243	-0.03006988	-0.05938467	0	0	0	0
27.28879	-0.01126268	-0.04279515	1.149631	1.014071	34.69794	30.60649
27.30548	-0.01126268	-0.04279515	0	0	-34.78405	-30.68245
27.32192	-0.01126268	-0.04279515	0	0	0	0
27.33898	-0.008868189	-0.04125002	0.1403784	0.09058411	4.190315	2.703949
27.35552	-0.008868189	-0.04125002	0	0	-4.178421	-2.696274
27.37162	-0.008868189	-0.04125002	0	0	0	0
27.38819	-0.008973443	-0.04086863	-0.006354629	0.02302614	-0.1945265	0.7048711
27.40508	-0.008973443	-0.04086863	0	0	0.189957	-0.6883134
27.42132	-0.008973443	-0.04086863	0	0	0	0
27.43789	-0.009631281	-0.03982005	-0.03971174	0.06329924	-1.210347	1.929254
27.45461	-0.009631281	-0.03982005	0	0	1.192804	-1.901291
27.47102	-0.009631281	-0.03982005	0	0	0	0
27.48759	-0.009552341	-0.03999161	0.004764818	-0.01035521	0.1445012	-0.3140392
27.50415	-0.009552341	-0.03999161	0	0	-0.1438025	0.3125207
27.52072	-0.009552341	-0.03999161	0	0	0	0
27.53729	-0.0081314	-0.04159331	0.08576818	-0.09667879	2.588489	-2.917772
27.55386	-0.0081314	-0.04159331	0	0	-2.588489	2.917772
27.57042	-0.0081314	-0.04159331	0	0	0	0
27.58699	-0.00826297	-0.04168868	-0.007941569	-0.00575639	-0.239677	-0.1737282
27.60356	-0.00826297	-0.04168868	0	0	0.239677	0.1737282
27.62012	-0.00826297	-0.04168868	0	0	0	0
27.63675	-0.008368226	-0.04180312	-0.006329231	-0.006881747	-0.1906544	-0.2072977
27.6561	-0.008368226	-0.04180312	0	0	0.1759366	0.1912951
27.66982	-0.008368226	-0.04180312	0	0	0	0
27.68639	-0.008473481	-0.04180312	-0.006353221	0	-0.2097291	0
27.703	-0.008473481	-0.04180312	0	0	0.1915311	0
27.72001	-0.008473481	-0.04180312	0	0	0	0
27.73609	-0.008499796	-0.04178404	-0.001636	0.001186049	-0.04943148	0.03583629
27.75266	-0.008499796	-0.04178404	0	0	0.05010428	-0.03632405
27.76954	-0.008499796	-0.04178404	0	0	0	0
27.78579	-0.008499796	-0.04178404	0	0	0	0
27.80236	-0.008499796	-0.04178404	0	0	0	0
27.81893	-0.008499796	-0.04178404	0	0	0	0
27.83549	-0.008499796	-0.04178404	0	0	0	0
27.85206	-0.008499796	-0.04178404	0	0	0	0
27.86866	-0.008499796	-0.04178404	0	0	0	0
27.88519	-0.008526109	-0.04180312	-0.001591406	-0.001153761	-0.04803149	-0.03482258
27.90176	-0.008526109	-0.04180312	0	0	0.04807577	0.03485468
27.91868	-0.008526109	-0.04180312	0	0	0	0
27.93609	-0.008526109	-0.04180312	0	0	0	0
27.95266	-0.008526109	-0.04180312	0	0	0	0
27.96923	-0.008526109	-0.04180312	0	0	0	0
27.98579	-0.008552423	-0.0418222	-0.001588291	-0.001151278	-0.04793473	-0.03474564
28.00272	-0.008552423	-0.0418222	0	0	0.04741883	0.03437169
28.01926	-0.008552423	-0.0418222	0	0	0	0
28.03549	-0.008552423	-0.0418222	0	0	0	0
28.05206	-0.008552423	-0.0418222	0	0	0	0
28.06878	-0.008552423	-0.0418222	0	0	0	0
28.08519	-0.008552423	-0.0418222	0	0	0	0
28.10176	-0.008552423	-0.0418222	0	0	0	0
28.11833	-0.008552423	-0.0418222	0	0	0	0
28.13489	-0.008552423	-0.0418222	0	0	0	0
28.15146	-0.008552423	-0.0418222	0	0	0	0
28.16803	-0.008552423	-0.0418222	0	0	0	0
28.18488	-0.008578737	-0.04180312	-0.001561384	0.001131734	-0.04671925	0.0338634
28.20139	-0.008578737	-0.04180312	0	0	0.04679671	-0.03391954
28.21776	-0.008578737	-0.04180312	0	0	0	0
28.23443	-0.008552423	-0.04178404	0.001578173	0.001144126	0.04776132	0.03462547
28.25096	-0.008552423	-0.04178404	0	0	-0.04753631	-0.03446236
28.26746	-0.008552423	-0.04178404	0	0	0	0
28.28447	-0.008552423	-0.04178404	0	0	0	0
28.30056	-0.008552423	-0.04178404	0	0	0	0
28.31713	-0.008552423	-0.04178404	0	0	0	0
28.33369	-0.008552423	-0.04178404	0	0	0	0
28.35051	-0.008552423	-0.04178404	0	0	0	0
28.36683	-0.008552423	-0.04178404	0	0	0	0
28.38339	-0.008578737	-0.04176497	-0.001588347	0.001151278	-0.04830345	0.03501167
28.40005	-0.008578737	-0.04176497	0	0	0.04780708	-0.03465189
28.41653	-0.008578737	-0.04176497	0	0	0	0
28.50023	-0.008605051	-0.0417459	-0.0003143648	0.0002278683	-0.003137831	0.002274466
28.5168	-0.008605051	-0.0417459	0	0	0.003135085	-0.002272476
28.53337	-0.008605051	-0.0417459	0	0	0	0
28.54994	-0.008605051	-0.0417459	0	0	0	0
28.56672	-0.008605051	-0.0417459	0	0	0	0
28.58323	-0.008605051	-0.0417459	0	0	0	0
28.59964	-0.008605051	-0.0417459	0	0	0	0
28.61621	-0.008605051	-0.0417459	0	0	0	0
28.63278	-0.008605051	-0.0417459	0	0	0	0
28.64934	-0.008605051	-0.0417459	0	0	0	0
28.66591	-0.008605051	-0.0417459	0	0	0	0
28.68247	-0.008605051	-0.0417459	0	0	0	0
28.69904	-0.008605051	-0.0417459	0	0	0	0
28.71561	-0.008605051	-0.0417459	0	0	0	0
28.73217	-0.008605051	-0.0417459	0	0	0	0
28.75306	-0.008605051	-0.0417459	0	0	0	0
28.76987	-0.008605051	-0.0417459	0	0	0	0
28.78619	-0.008631364	-0.04172682	-0.001612424	0.00116877	-0.04866305	0.03527356
28.80876	-0.008631364	-0.04172682	0	0	0.04146431	-0.03005554
28.82191	-0.008631364	-0.04172682	0	0	0	0
28.83848	-0.008631364	-0.04172682	0	0	0	0
28.85542	-0.008631364	-0.04172682	0	0	0	0
28.87161	-0.008631364	-0.04172682	0	0	0	0
28.88818	-0.008631364	-0.04172682	0	0	0	0
28.90475	-0.008631364	-0.04172682	0	0	0	0
28.92131	-0.008631364	-0.04172682	0	0	0	0
28.93848	-0.008631364	-0.04172682	0	0	0	0
28.95445	-0.008631364	-0.04172682	0	0	0	0
28.97101	-0.008631364	-0.04172682	0	0	0	0
28.98801	-0.008631364	-0.04172682	0	0	0	0
29.00415	-0.008631364	-0.04172682	0	0	0	0
29.02154	-0.008631364	-0.04172682	0	0	0	0
29.03728	-0.008631364	-0.04172682	0	0	0	0
29.05385	-0.008631364	-0.04172682	0	0	0	0
29.07041	-0.008631364	-0.04172682	0	0	0	0
29.08698	-0.008631364	-0.04172682	0	0	0	0
29.10355	-0.008631364	-0.04172682	0	0	0	0
29.12011	-0.008631364	-0.04172682	0	0	0	0
29.13668	-0.008631364	-0.04172682	0	0	0	0
29.15325	-0.008631364	-0.04172682	0	0	0	0
29.16981	-0.008631364	-0.04172682	0	0	0	0
29.18665	-0.008631364	-0.04172682	0	0	0	0
29.20295	-0.008631364	-0.04172682	0	0	0	0
29.2197	-0.008631364	-0.04172682	0	0	0	0
29.23608	-0.008631364	-0.04172682	0	0	0	0
29.25267	-0.008631364	-0.04172682	0	0	0	0
29.26921	-0.008631364	-0.04172682	0	0	0	0
29.28578	-0.008631364	-0.04172682	0	0	0	0
29.30271	-0.008631364	-0.04172682	0	0	0	0
29.31891	-0.008631364	-0.04172682	0	0	0	0
29.33942	-0.008605051	-0.0417459	0.001283339	-0.0009302326	0.03495815	-0.02533952
29.35599	-0.008605051	-0.0417459	0	0	-0.03461642	0.02509182
29.37255	-0.008631364	-0.04172682	-0.001588474	0.001151411	-0.04794024	0.03474964
29.38912	-0.008631364	-0.04172682	0	0	0.047943	-0.03475164
29.40655	-0.008631364	-0.04172682	0	0	0	0
29.42256	-0.008631364	-0.04172682	0	0	0	0
29.43882	-0.008631364	-0.04172682	0	0	0	0
29.45539	-0.008631364	-0.04172682	0	0	0	0
29.47259	-0.008605051	-0.0417459	0.001529648	-0.00110877	0.0452966	-0.03283338
29.4886	-0.008605051	-0.0417459	0	0	-0.04605618	0.03338397
29.50508	-0.008605051	-0.0417459	0	0	0	0
29.52165	-0.008605051	-0.0417459	0	0	0	0
29.53822	-0.008605051	-0.0417459	0	0	0	0
29.55479	-0.008605051	-0.0417459	0	0	0	0
29.57135	-0.008605051	-0.0417459	0	0	0	0
29.58817	-0.008605051	-0.0417459	0	0	0	0
29.60449	-0.008605051	-0.0417459	0	0	0	0
29.62378	-0.008605051	-0.0417459	0	0	0	0
29.64035	-0.008605051	-0.0417459	0	0	0	0
29.65691	-0.008605051	-0.0417459	0	0	0	0
29.67348	-0.008605051	-0.0417459	0	0	0	0
29.69017	-0.008605051	-0.0417459	0	0	0	0
29.70661	-0.008605051	-0.0417459	0	0	0	0
29.72319	-0.008605051	-0.0417459	0	0	0	0
29.73975	-0.008605051	-0.0417459	0	0	0	0
29.75631	-0.008605051	-0.0417459	0	0	0	0
29.77288	-0.008605051	-0.0417459	0	0	0	0
29.78945	-0.008605051	-0.0417459	0	0	0	0
29.80601	-0.008605051	-0.0417459	0	0	0	0
29.82258	-0.008605051	-0.0417459	0	0	0	0
29.83915	-0.008605051	-0.0417459	0	0	0	0
29.85579	-0.008605051	-0.0417459	0	0	0	0
29.87228	-0.008605051	-0.0417459	0	0	0	0
29.88885	-0.008605051	-0.0417459	0	0	0	0
29.90541	-0.008605051	-0.0417459	0	0	0	0
29.92198	-0.008605051	-0.0417459	0	0	0	0
29.93855	-0.008605051	-0.0417459	0	0	0	0
29.95511	-0.008605051	-0.0417459	0	0	0	0
29.97187	-0.008605051	-0.0417459	0	0	0	0
29.98825	-0.008605051	-0.0417459	0	0	0	0
30.00481	-0.008605051	-0.0417459	0	0	0	0
30.0214	-0.008605051	-0.0417459	0	0	0	0
30.03842	-0.008605051	-0.0417459	0	0	0	0
30.05451	-0.008605051	-0.0417459	0	0	0	0
30.07108	-0.008605051	-0.0417459	0	0	0	0
30.08764	-0.008605051	-0.0417459	0	0	0	0
30.10444	-0.008605051	-0.0417459	0	0	0	0
30.12078	-0.008631364	-0.04172682	-0.001611106	0.001167815	-0.04862887	0.03524879
30.13748	-0.008631364	-0.04172682	0	0	0.04876362	-0.03534646
30.15391	-0.008631364	-0.04172682	0	0	0	0
30.17167	-0.008631364	-0.04172682	0	0	0	0
30.18853	-0.008631364	-0.04172682	0	0	0	0
30.20505	-0.008631364	-0.04172682	0	0	0	0
30.22156	-0.008631364	-0.04172682	0	0	0	0
30.23794	-0.008631364	-0.04172682	0	0	0	0
30.25451	-0.008631364	-0.04172682	0	0	0	0
30.27108	-0.008631364	-0.04172682	0	0	0	0
30.28764	-0.008631364	-0.04172682	0	0	0	0
30.3042	-0.008631364	-0.04172682	0	0	0	0
30.32113	-0.008631364	-0.04172682	0	0	0	0
30.33734	-0.008631364	-0.04172682	0	0	0	0
30.3539	-0.008631364	-0.04172682	0	0	0	0
30.37047	-0.008631364	-0.04172682	0	0	0	0
30.38704	-0.008631364	-0.04172682	0	0	0	0
30.40369	-0.008631364	-0.04172682	0	0	0	0
30.42017	-0.008631364	-0.04172682	0	0	0	0
30.43674	-0.008631364	-0.04172682	0	0	0	0
30.4533	-0.008631364	-0.04172682	0	0	0	0
30.47025	-0.008605051	-0.04170775	0.001552893	0.001125619	0.04633825	0.03358842
30.48644	-0.008605051	-0.04170775	0	0	-0.04686639	-0.03397125
30.50301	-0.008605051	-0.04170775	0	0	0	0
30.51957	-0.008605051	-0.04170775	0	0	0	0
30.53629	-0.008605051	-0.04170775	0	0	0	0
30.5528	-0.008605051	-0.04170775	0	0	0	0
30.56928	-0.008605051	-0.04170775	0	0	0	0
30.58632	-0.008605051	-0.04170775	0	0	0	0
30.60241	-0.008605051	-0.04170775	0	0	0	0
30.61935	-0.008578737	-0.04172682	0.001552893	-0.001125619	0.0470071	-0.03407324
30.63554	-0.008578737	-0.04172682	0	0	-0.04686639	0.03397125
30.65211	-0.008578737	-0.04172682	0	0	0	0
30.66867	-0.008683993	-0.04165053	-0.006353953	0.004605642	-0.1917737	0.1390066
30.68587	-0.008683993	-0.04165053	0	0	0.1881985	-0.136415
30.70187	-0.008683993	-0.04165053	0	0	0	0
30.71962	-0.009157639	-0.04123095	-0.02668463	0.02363877	-0.7906432	0.700397
30.73619	-0.009157639	-0.04123095	0	0	0.7775918	-0.6888353
30.75276	-0.009157639	-0.04123095	0	0	0	0
30.76941	-0.01052593	-0.04023944	-0.08213613	0.05951865	-2.472043	1.791327
30.78589	-0.01052593	-0.04023944	0	0	2.479016	-1.79638
30.80246	-0.01052593	-0.04023944	0	0	0	0
30.81902	-0.0357742	-0.0220303	-1.524165	1.099233	-46.00203	33.17682
30.83559	-0.0357742	-0.0220303	0	0	46.00203	-33.17682
30.85216	-0.0357742	-0.0220303	0	0	0	0
30.86901	-0.06606162	-0.001816001	-1.797524	1.199696	-53.79112	35.90103
30.88529	-0.06606162	-0.001816001	0	0	54.24939	-36.20689
30.90202	-0.06606162	-0.001816001	0	0	0	0
30.91855	-0.07982998	-0.00818783	-0.8332663	-0.3856255	-25.05572	-11.59548
30.93499	-0.07982998	-0.00818783	0	0	25.27607	11.69745
30.95205	-0.07982998	-0.00818783	0	0	0	0
30.96812	-0.09338548	-0.01784476	-0.843559	-0.6009508	-25.46012	-18.13778
30.98836	-0.09338548	-0.01784476	0	0	23.23323	16.55134
31.00126	-0.09338548	-0.01784476	0	0	0	0
31.01782	-0.09283762	-0.01748517	0.03306866	0.02170462	1.122386	0.7366785
31.03439	-0.09283762	-0.01748517	0	0	-0.9980142	-0.6550468
31.05096	-0.09283762	-0.01748517	0	0	0	0
31.06753	-0.09260281	-0.0176555	0.01417331	-0.01028089	0.4277514	-0.3102778
31.08409	-0.09260281	-0.0176555	0	0	-0.4277514	0.3102778
31.10072	-0.09260281	-0.0176555	0	0	0	0
31.11723	-0.0919766	-0.01810974	0.03792058	-0.02750685	1.144248	-0.830015
31.13379	-0.0919766	-0.01810974	0	0	-1.146557	0.8316904
31.15036	-0.0919766	-0.01810974	0	0	0	0
31.16693	-0.08842669	-0.02068502	0.2142726	-0.155444	6.46676	-4.691309
31.18379	-0.08842669	-0.02068502	0	0	-6.409571	4.649822
31.20006	-0.08842669	-0.02068502	0	0	0	0
31.21663	-0.08777389	-0.02119653	0.03940792	-0.03087883	1.20011	-0.9403693
31.2333	-0.08777389	-0.02119653	0	0	-1.185512	0.9289303
31.24982	-0.08777389	-0.02119653	0	0	0	0
31.26633	-0.08777389	-0.02119653	0	0	0	0
31.28333	-0.08777389	-0.02119653	0	0	0	0
31.29946	-0.08777389	-0.02119653	0	0	0	0
31.31634	-0.08727771	-0.02132916	0.02939442	-0.00785719	0.8904572	-0.2380211
31.33259	-0.08727771	-0.02132916	0	0	-0.8871254	0.2371305
31.34916	-0.08727771	-0.02132916	0	0	0	0
31.36572	-0.05594157	-0.03342211	1.891671	-0.7300157	57.09732	-22.03445
31.38239	-0.05594157	-0.03342211	0	0	-56.93343	21.97121
31.39886	-0.05594157	-0.03342211	0	0	0	0
31.41543	0.04504845	-0.04670924	6.094367	-0.8018284	184.4167	-24.26348
31.43292	0.04504845	-0.04670924	0	0	-178.9228	23.54065
31.44856	0.04504845	-0.04670924	0	0	0	0
31.46513	0.1320689	-0.05817601	5.253167	-0.6922151	163.1232	-21.49491
31.48169	0.1320689	-0.05817601	0	0	-158.55	20.8923
31.49826	0.1320689	-0.05817601	0	0	0	0
31.51483	0.1511283	-0.06760947	1.150562	-0.5694705	34.72603	-17.18764
31.53168	0.1511283	-0.06760947	0	0	-34.42874	17.0405
31.54796	0.1511283	-0.06760947	0	0	0	0
31.56453	0.1502023	-0.06814837	-0.05589544	-0.0325281	-1.701621	-0.9902503
31.58109	0.1502023	-0.06814837	0	0	1.686928	0.9816999
31.59766	0.1502023	-0.06814837	0	0	0	0
31.61423	0.1498421	-0.06826387	-0.02174367	-0.00697233	-0.6563007	-0.2104496
31.63099	0.1498421	-0.06826387	0	0	0.65232	0.2091731
31.64752	0.1498421	-0.06826387	0	0	0	0
31.66402	0.1497391	-0.06822537	-0.006235375	0.002332736	-0.1887817	0.07062572
31.68049	0.1497391	-0.06822537	0	0	0.1890874	-0.0707401
31.69706	0.1497391	-0.06822537	0	0	0	0
31.71363	0.1493274	-0.06791741	-0.02485051	0.01858864	-0.74999	0.5610063
31.73019	0.1493274	-0.06791741	0	0	0.74999	-0.5610063
31.74676	0.1493274	-0.06791741	0	0	0	0
31.76359	0.1490186	-0.06810988	-0.01835672	-0.01144106	-0.5497348	-0.3426293
31.77989	0.1490186	-0.06810988	0	0	0.5540707	0.3453316
31.79646	0.1490186	-0.06810988	0	0	0	0
31.81314	0.1485296	-0.06847562	-0.02932435	-0.02193228	-0.882167	-0.6597906
31.82959	0.1485296	-0.06847562	0	0	0.8850617	0.6619555
31.84616	0.1485296	-0.06847562	0	0	0	0
31.86272	0.1482465	-0.06841787	-0.01709305	0.003486165	-0.5158989	0.1052187
31.87968	0.1482465	-0.06841787	0	0	0.5098816	-0.1039915
31.89586	0.1482465	-0.06841787	0	0	0	0
31.91269	0.1366173	-0.07502853	-0.6907234	-0.3926465	-20.92316	-11.89391
31.92922	0.1366173	-0.07502853	0	0	20.70543	11.77015
31.94556	0.1366173	-0.07502853	0	0	0	0
31.96222	0.06797406	-0.1107888	-4.119131	-2.145893	-124.8041	-65.01767
31.97874	0.06797406	-0.1107888	0	0	124.1441	64.67382
31.99526	0.06797406	-0.1107888	0	0	0	0
32.01182	-0.004157871	-0.1328084	-4.354393	-1.329263	-131.6204	-40.1797
32.02839	-0.004157871	-0.1328084	0	0	131.4234	40.11956
32.04496	-0.004157871	-0.1328084	0	0	0	0
32.06152	-0.02331157	-0.1266997	-1.156119	0.3687273	-34.89175	11.12821
32.08265	-0.02331157	-0.1266997	0	0	30.67508	-9.783366
32.09466	-0.02331157	-0.1266997	0	0	0	0
32.11135	-0.02736159	-0.1233954	-0.2426164	0.1979414	-8.451885	6.895567
32.12779	-0.02736159	-0.1233954	0	0	7.322178	-5.973882
32.14436	-0.02736159	-0.1233954	0	0	0	0
32.16138	-0.027309	-0.1234347	0.003090478	-0.00230995	0.0920207	-0.06878005
32.17749	-0.027309	-0.1234347	0	0	-0.09328154	0.06972246
32.19406	-0.027309	-0.1234347	0	0	0	0
32.21089	-0.0272827	-0.1233364	0.001562456	0.005839454	0.04678337	0.1748461
32.22741	-0.0272827	-0.1233364	0	0	-0.04684222	-0.1750661
32.24394	-0.0272827	-0.1233364	0	0	0	0
32.26033	-0.02365348	-0.1176038	0.2215082	0.3498877	6.730072	10.63062
32.27689	-0.02365348	-0.1176038	0	0	-6.722281	-10.61831
32.29346	-0.02365348	-0.1176038	0	0	0	0
32.31003	0.01373598	-0.07649542	2.256832	2.481308	68.11134	74.88604
32.3266	0.01373598	-0.07649542	0	0	-68.11134	-74.88604
32.34351	0.01373598	-0.07649542	0	0	0	0
32.35973	0.0623926	-0.03300367	2.999069	2.68072	90.51208	80.90429
32.3763	0.0623926	-0.03300367	0	0	-91.45975	-81.75135
32.39286	0.0623926	-0.03300367	0	0	0	0
32.40943	0.08586729	-0.015877	1.416935	1.033768	42.76319	31.19917
32.426	0.08586729	-0.015877	0	0	-42.76319	-31.19917
32.44263	0.08586729	-0.015877	0	0	0	0
32.45913	0.08683372	-0.0151394	0.0585635	0.0446963	1.76745	1.348937
32.4757	0.08683372	-0.0151394	0	0	-1.770916	-1.351582
32.49227	0.08683372	-0.0151394	0	0	0	0
32.50883	0.08633746	-0.01553655	-0.02995436	-0.02397176	-0.9040245	-0.7234693
32.5254	0.08633746	-0.01553655	0	0	0.9040245	0.7234693
32.54197	0.08633746	-0.01553655	0	0	0	0
32.55854	0.08628523	-0.01557437	-0.003152973	-0.002283162	-0.0951569	-0.06890596
32.5751	0.08628523	-0.01557437	0	0	0.0951569	0.06890596
32.59167	0.08628523	-0.01557437	0	0	0	0
32.6103	0.08573667	-0.01604724	-0.02944927	-0.02538572	-0.8367602	-0.7213002
32.62687	0.08573667	-0.01604724	0	0	0.8367602	0.7213002
32.64343	0.08573667	-0.01604724	0	0	0	0
32.66007	0.08286246	-0.01816652	-0.1727716	-0.1273924	-5.203475	-3.836758
32.67659	0.08286246	-0.01816652	0	0	5.211258	3.842497
32.6936	0.08286246	-0.01816652	0	0	0	0
32.7097	0.08194765	-0.0187155	-0.05684108	-0.03411002	-1.716653	-1.030154
32.72662	0.08194765	-0.0187155	0	0	1.721611	1.03313
32.74283	0.08194765	-0.0187155	0	0	0	0
32.7594	0.08192151	-0.01869657	-0.00157761	0.001142733	-0.04812768	0.03486101
32.77597	0.08192151	-0.01869657	0	0	0.04761238	-0.03448776
32.79253	0.08192151	-0.01869657	0	0	0	0
32.81008	0.08194765	-0.0187155	0.00148947	-0.001078889	0.04366048	-0.03162522
32.82665	0.08194765	-0.0187155	0	0	-0.04366048	0.03162522
32.84322	0.08194765	-0.0187155	0	0	0	0
32.85978	0.08197378	-0.01873443	0.00157761	-0.001142733	0.04761238	-0.03448776
32.87666	0.08197378	-0.01873443	0	0	-0.04717786	0.03417302
32.89319	0.08197378	-0.01873443	0	0	0	0
32.90948	0.08197378	-0.01877229	0	-0.002323995	0	-0.07079029
32.92605	0.08197378	-0.01877229	0	0	0	0.07072455
32.94262	0.08197378	-0.01877229	0	0	0	0
32.95919	0.08197378	-0.01877229	0	0	0	0
32.97655	0.08197378	-0.01877229	0	0	0	0
32.99232	0.08197378	-0.01877229	0	0	0	0
33.00908	0.08197378	-0.01877229	0	0	0	0
33.02546	0.08197378	-0.01877229	0	0	0	0
33.04202	0.08197378	-0.01877229	0	0	0	0
33.05861	0.08194765	-0.01875336	-0.001575434	0.001141157	-0.04751387	0.03441641
33.07515	0.08194765	-0.01875336	0	0	0.04755217	-0.03444415
33.09172	0.08194765	-0.01875336	0	0	0	0
33.10829	0.08192151	-0.01877229	-0.00157761	-0.001142733	-0.04761238	-0.03448776
33.12486	0.08192151	-0.01877229	0	0	0.04761238	0.03448776
33.14217	0.08192151	-0.01877229	0	0	0	0
33.15799	0.08192151	-0.01877229	0	0	0	0
33.17469	0.08192151	-0.01877229	0	0	0	0
33.19273	0.08192151	-0.01877229	0	0	0	0
33.2093	0.08192151	-0.01877229	0	0	0	0
33.22626	0.08192151	-0.01877229	0	0	0	0
33.24244	0.08192151	-0.01877229	0	0	0	0
33.259	0.08192151	-0.01877229	0	0	0	0
33.27557	0.08192151	-0.01877229	0	0	0	0
33.29214	0.08192151	-0.01877229	0	0	0	0
33.3087	0.08192151	-0.01877229	0	0	0	0
33.32533	0.08192151	-0.01877229	0	0	0	0
33.34185	0.08192151	-0.01877229	0	0	0	0
33.3584	0.08192151	-0.01877229	0	0	0	0
33.37497	0.08192151	-0.01877229	0	0	0	0
33.39154	0.08192151	-0.01877229	0	0	0	0
33.4081	0.08192151	-0.01877229	0	0	0	0
33.42467	0.08192151	-0.01877229	0	0	0	0
33.44124	0.08192151	-0.01877229	0	0	0	0
33.45785	0.08192151	-0.01877229	0	0	0	0
33.47437	0.08192151	-0.01877229	0	0	0	0
33.49094	0.08192151	-0.01877229	0	0	0	0
33.50751	0.08189537	-0.01879122	-0.00157806	-0.001142733	-0.04762595	-0.03448776
33.52454	0.08189537	-0.01879122	0	0	0.04696095	0.0340062
33.54104	0.08189537	-0.01879122	0	0	0	0
33.55721	0.08186923	-0.01877229	-0.001616697	0.001171045	-0.04949287	0.03584988
33.57407	0.08186923	-0.01877229	0	0	0.04894981	-0.03545652
33.59034	0.08186923	-0.01877229	0	0	0	0
33.60691	0.08186923	-0.01877229	0	0	0	0
33.62359	0.08186923	-0.01877229	0	0	0	0
33.64005	0.08186923	-0.01877229	0	0	0	0
33.65661	0.08186923	-0.01877229	0	0	0	0
33.67362	0.08186923	-0.01877229	0	0	0	0
33.68974	0.08186923	-0.01877229	0	0	0	0
33.70631	0.08186923	-0.01877229	0	0	0	0
33.72288	0.08186923	-0.01877229	0	0	0	0
33.7397	0.08186923	-0.01877229	0	0	0	0
33.76374	0.08184309	-0.01879122	-0.001087514	-0.0007875104	-0.02661613	-0.01927375
33.7803	0.08184309	-0.01879122	0	0	0.02678115	0.01939325
33.79953	0.08186923	-0.01877229	0.001360094	0.000984896	0.03800262	0.02751914
33.81623	0.08186923	-0.01877229	0	0	-0.03785334	-0.02741104
33.83266	0.08186923	-0.01877229	0	0	0	0
33.84924	0.08186923	-0.01877229	0	0	0	0
33.8658	0.08186923	-0.01877229	0	0	0	0
33.88326	0.08186923	-0.01877229	0	0	0	0
33.89956	0.08186923	-0.01877229	0	0	0	0
33.91629	0.08186923	-0.01877229	0	0	0	0
33.93269	0.08186923	-0.01877229	0	0	0	0
33.94931	0.08184309	-0.01879122	-0.00157299	-0.001139061	-0.04762645	-0.03448812
33.96632	0.08184309	-0.01879122	0	0	0.04677289	0.03387002
33.9824	0.08184309	-0.01879122	0	0	0	0
33.99896	0.08184309	-0.01879122	0	0	0	0
34.01553	0.08184309	-0.01879122	0	0	0	0
34.03238	0.08184309	-0.01879122	0	0	0	0
34.05228	0.08184309	-0.01879122	0	0	0	0
34.06894	0.08184309	-0.01879122	0	0	0	0
34.08542	0.08184309	-0.01879122	0	0	0	0
34.10199	0.08184309	-0.01879122	0	0	0	0
34.11947	0.08184309	-0.01879122	0	0	0	0
34.13548	0.08184309	-0.01879122	0	0	0	0
34.15168	0.08184309	-0.01879122	0	0	0	0
34.16852	0.08184309	-0.01879122	0	0	0	0
34.18481	0.08184309	-0.01879122	0	0	0	0
34.20173	0.08184309	-0.01879122	0	0	0	0
34.2183	0.08184309	-0.01879122	0	0	0	0
34.23487	0.08184309	-0.01879122	0	0	0	0
34.25143	0.08184309	-0.01879122	0	0	0	0
34.26809	0.08184309	-0.01879122	0	0	0	0
34.28461	0.08184309	-0.01879122	0	0	0	0
34.30113	0.08184309	-0.01879122	0	0	0	0
34.31781	0.08184309	-0.01879122	0	0	0	0
34.33427	0.08184309	-0.01879122	0	0	0	0
34.35083	0.08184309	-0.01879122	0	0	0	0
34.3674	0.08184309	-0.01879122	0	0	0	0
34.38435	0.08184309	-0.01879122	0	0	0	0
34.40087	0.08184309	-0.01879122	0	0	0	0
34.4171	0.08184309	-0.01879122	0	0	0	0
34.43367	0.08184309	-0.01879122	0	0	0	0
34.45023	0.08184309	-0.01879122	0	0	0	0
34.4669	0.08184309	-0.01879122	0	0	0	0
34.48341	0.08184309	-0.01879122	0	0	0	0
34.49994	0.08184309	-0.01879122	0	0	0	0
34.51694	0.08184309	-0.01879122	0	0	0	0
34.53307	0.08184309	-0.01879122	0	0	0	0
34.54964	0.08184309	-0.01879122	0	0	0	0
34.56648	0.08184309	-0.01879122	0	0	0	0
34.58758	0.08184309	-0.01879122	0	0	0	0
34.59934	0.08184309	-0.01879122	0	0	0	0
34.61596	0.08184309	-0.01879122	0	0	0	0
34.63247	0.08184309	-0.01879122	0	0	0	0
34.64904	0.08184309	-0.01879122	0	0	0	0
34.66561	0.08184309	-0.01879122	0	0	0	0
34.68217	0.08184309	-0.01879122	0	0	0	0
34.69874	0.08186923	-0.01881016	0.00157806	-0.001142846	0.04762595	-0.03449115
34.71554	0.08186923	-0.01881016	0	0	-0.04729922	0.03425453
34.73188	0.08186923	-0.01881016	0	0	0	0
34.74854	0.08186923	-0.01881016	0	0	0	0
34.76501	0.08186923	-0.01881016	0	0	0	0
34.78158	0.08186923	-0.01881016	0	0	0	0
34.79815	0.08186923	-0.01881016	0	0	0	0
34.81509	0.08186923	-0.01881016	0	0	0	0
34.83128	0.08186923	-0.01881016	0	0	0	0
34.84785	0.08184309	-0.01879122	-0.00157806	0.001142846	-0.04816942	0.03488474
34.86464	0.08184309	-0.01879122	0	0	0.04729922	-0.03425453
34.88099	0.08184309	-0.01879122	0	0	0	0
34.89767	0.08184309	-0.01879122	0	0	0	0
34.91418	0.08184309	-0.01879122	0	0	0	0
34.93119	0.08184309	-0.01879122	0	0	0	0
34.94725	0.08184309	-0.01879122	0	0	0	0
34.96383	0.08184309	-0.01879122	0	0	0	0
34.98073	0.08184309	-0.01879122	0	0	0	0
34.99695	0.08184309	-0.01879122	0	0	0	0
35.01352	0.08184309	-0.01879122	0	0	0	0
35.03008	0.08184309	-0.01879122	0	0	0	0
35.04666	0.08184309	-0.01879122	0	0	0	0
35.06322	0.08184309	-0.01879122	0	0	0	0
35.07979	0.08184309	-0.01879122	0	0	0	0
35.09635	0.08184309	-0.01879122	0	0	0	0
35.11332	0.08184309	-0.01879122	0	0	0	0
35.1379	0.08184309	-0.01879122	0	0	0	0
35.15419	0.08181695	-0.01881016	-0.00160383	-0.00116184	-0.03923427	-0.02842192
35.17076	0.08181695	-0.01881016	0	0	0.04880261	0.03535337
35.18733	0.08181695	-0.01881016	0	0	0	0
35.2039	0.08184309	-0.01879122	0.00157761	0.001142846	0.04761238	0.03449115
35.22046	0.08184309	-0.01879122	0	0	-0.04761238	-0.03449115
35.23739	0.08184309	-0.01879122	0	0	0	0
35.2536	0.08184309	-0.01879122	0	0	0	0
35.27016	0.08184309	-0.01879122	0	0	0	0
35.28674	0.08184309	-0.01879122	0	0	0	0
35.3033	0.08184309	-0.01882909	0	-0.002286632	0	-0.06901864
35.31995	0.08184309	-0.01882909	0	0	0	0.06885216
35.33643	0.08184309	-0.01882909	0	0	0	0
35.35299	0.08184309	-0.01882909	0	0	0	0
35.36956	0.08184309	-0.01882909	0	0	0	0
35.38651	0.08184309	-0.01882909	0	0	0	0
35.40269	0.08186923	-0.01884802	0.001615252	-0.001169665	0.04874841	-0.03530058
35.41926	0.08186923	-0.01884802	0	0	-0.04931618	0.03571172
35.43604	0.08186923	-0.01884802	0	0	0	0
35.45255	0.08186923	-0.01884802	0	0	0	0
35.46896	0.08186923	-0.01884802	0	0	0	0
35.48558	0.08186923	-0.01884802	0	0	0	0
35.5021	0.08184309	-0.01882909	-0.001582433	0.0011459	-0.04775241	0.03457934
35.51866	0.08184309	-0.01882909	0	0	0.04783501	-0.03463915
35.53522	0.08184309	-0.01882909	0	0	0	0
35.55179	0.08184309	-0.01882909	0	0	0	0
35.56863	0.08184309	-0.01882909	0	0	0	0
35.58493	0.08184309	-0.01882909	0	0	0	0
35.60166	0.08184309	-0.01882909	0	0	0	0
35.61806	0.08184309	-0.01882909	0	0	0	0
35.63468	0.08184309	-0.01882909	0	0	0	0
35.65169	0.08184309	-0.01882909	0	0	0	0
35.66776	0.08184309	-0.01882909	0	0	0	0
35.68433	0.08184309	-0.01882909	0	0	0	0
35.70512	0.08186923	-0.01884802	0.001257065	-0.0009102881	0.03364287	-0.02436208
35.72172	0.08186923	-0.01884802	0	0	-0.03361541	0.0243422
35.73826	0.08199993	-0.01894269	0.007903511	-0.005724548	0.2385284	-0.1727672
35.75483	0.08199993	-0.01894269	0	0	-0.2387483	0.1729265
35.77177	0.08199993	-0.01894269	0	0	0	0
35.78796	0.08521419	-0.02123443	0.1985858	-0.1415898	5.994022	-4.273681
35.80478	0.08521419	-0.02123443	0	0	-6.016189	4.289486
35.82109	0.08521419	-0.02123443	0	0	0	0
35.83766	0.1101055	-0.03934355	1.502444	-1.093069	45.69632	-33.24532
35.85423	0.1101055	-0.03934355	0	0	-45.34385	32.98888
35.87079	0.1101055	-0.03934355	0	0	0	0
35.88736	0.1807936	-0.09210084	4.266738	-3.184437	128.7704	-96.10649
35.90393	0.1807936	-0.09210084	0	0	-128.7704	96.10649
35.92086	0.1807936	-0.09210084	0	0	0	0
35.93706	0.2545406	-0.1497767	4.554144	-3.561693	137.4602	-107.5045
35.95388	0.2545406	-0.1497767	0	0	-137.9207	107.8647
35.97065	0.2545406	-0.1497767	0	0	0	0
35.98676	0.2928082	-0.180923	2.375475	-1.933414	72.26606	-58.8178
36.0034	0.2928082	-0.180923	0	0	-72.51853	59.02329
36.01992	0.2928082	-0.180923	0	0	0	0
36.03646	0.3211899	-0.2046776	1.716283	-1.436478	51.92305	-43.45807
36.05302	0.3211899	-0.2046776	0	0	-51.84527	43.39296
36.06995	0.3211899	-0.2046776	0	0	0	0
36.08615	0.3293653	-0.2113263	0.5046191	-0.4103871	15.23119	-12.38693
36.10272	0.3293653	-0.2113263	0	0	-15.39963	12.52392
36.11929	0.3293653	-0.2113263	0	0	0	0
36.13586	0.3295066	-0.2112855	0.008532049	0.002465354	0.2574978	0.07440452
36.15252	0.3295066	-0.2112855	0	0	-0.2567293	-0.07418247
36.16899	0.3295066	-0.2112855	0	0	0	0
36.18556	0.329648	-0.211408	0.008532049	-0.00739786	0.2582708	-0.2239382
36.20213	0.329648	-0.211408	0	0	-0.2574978	0.2232679
36.21907	0.329648	-0.211408	0	0	0	0
36.23526	0.3360182	-0.2169513	0.3935729	-0.3424749	11.87805	-10.33591
36.25206	0.3360182	-0.2169513	0	0	-11.93301	10.38373
36.26839	0.3360182	-0.2169513	0	0	0	0
36.28496	0.3444602	-0.2243173	0.5095592	-0.4446145	15.4855	-13.51183
36.30159	0.3444602	-0.2243173	0	0	-15.35025	13.39382
36.3181	0.3444602	-0.2243173	0	0	0	0
36.33466	0.3486273	-0.2279999	0.2515272	-0.2222839	7.605116	-6.720921
36.35123	0.3486273	-0.2279999	0	0	-7.591107	6.708541
36.3678	0.3486273	-0.2279999	0	0	0	0
36.38437	0.34879	-0.2281029	0.009820041	-0.006214202	0.2963694	-0.187545
36.40093	0.34879	-0.2281029	0	0	-0.2963694	0.187545
36.4175	0.34879	-0.2281029	0	0	0	0
36.43407	0.3579167	-0.2358605	0.5508901	-0.4682544	16.6259	-14.13195
36.45069	0.3579167	-0.2358605	0	0	-16.59914	14.10921
36.4672	0.3579167	-0.2358605	0	0	0	0
36.48376	0.3703705	-0.2470129	0.7518839	-0.6733145	22.73116	-20.35582
36.50033	0.3703705	-0.2470129	0	0	-22.69451	20.32301
36.5169	0.3703705	-0.2470129	0	0	0	0
36.53347	0.3709878	-0.2475327	0.03726003	-0.03137232	1.12451	-0.9468186
36.55003	0.3709878	-0.2475327	0	0	-1.12451	0.9468186
36.5666	0.3709878	-0.2475327	0	0	0	0
36.58317	0.3709192	-0.2475119	-0.004139204	0.001254713	-0.1249214	0.03786732
36.59979	0.3709192	-0.2475119	0	0	0.1247061	-0.03780203
36.61631	0.3709192	-0.2475119	0	0	0	0
36.63287	0.3707364	-0.2473456	-0.01104551	0.01004734	-0.3339693	0.303789
36.64943	0.3707364	-0.2473456	0	0	0.3334692	-0.3033342
36.66639	0.3707364	-0.2473456	0	0	0	0
36.68285	0.3706678	-0.2472832	-0.004166908	0.003788592	-0.1246952	0.113374
36.69913	0.3706678	-0.2472832	0	0	0.127237	-0.1156851
36.7157	0.3706678	-0.2472832	0	0	0	0
36.73238	0.3705763	-0.2472	-0.005481077	0.004984422	-0.1648499	0.1499124
36.74883	0.3705763	-0.2472	0	0	0.1654383	-0.1504475
36.76542	0.3705763	-0.2472	0	0	0	0
36.78196	0.3705534	-0.2471792	-0.001383445	0.001256449	-0.04175725	0.03792407
36.7989	0.3705534	-0.2471792	0	0	0.04132427	-0.03753083
36.81543	0.3705534	-0.2471792	0	0	0	0
36.83166	0.3705306	-0.2471584	-0.001407939	0.001281279	-0.04297156	0.0391058
36.84823	0.3705306	-0.2471584	0	0	0.04292158	-0.03906032
36.86495	0.3705306	-0.2471584	0	0	0	0
36.88136	0.3705306	-0.2471584	0	0	0	0
36.89848	0.3705306	-0.2471584	0	0	0	0
36.91449	0.3705306	-0.2471584	0	0	0	0
36.93199	0.3705534	-0.2471792	0.001306626	-0.001189081	0.03898966	-0.03548212
36.94801	0.3705534	-0.2471792	0	0	-0.03898966	0.03548212
36.96419	0.3705534	-0.2471792	0	0	0	0
36.98076	0.3705306	-0.2471584	-0.001379735	0.001255612	-0.04212545	0.03833581
36.99754	0.3705306	-0.2471584	0	0	0.041369	-0.03764741
37.01405	0.3705306	-0.2471584	0	0	0	0
37.03071	0.3705306	-0.2471584	0	0	0	0
37.04728	0.3705306	-0.2471584	0	0	0	0
37.06384	0.3705306	-0.2471584	0	0	0	0
37.08054	0.3705306	-0.2471584	0	0	0	0
37.09711	0.3705306	-0.2471584	0	0	0	0
37.11367	0.3705306	-0.2471584	0	0	0	0
37.13023	0.3705306	-0.2471584	0	0	0	0
37.1468	0.3705306	-0.2471584	0	0	0	0
37.16337	0.3705306	-0.2471584	0	0	0	0
37.17994	0.3703934	-0.2470753	-0.008283913	0.005020008	-0.2500378	0.1515216
37.19651	0.3703934	-0.2470753	0	0	0.250009	-0.1515041
37.21307	0.3703934	-0.2470753	0	0	0	0
37.23063	0.3694326	-0.2462439	-0.05471805	0.04734599	-1.603399	1.387376
37.24721	0.3694326	-0.2462439	0	0	1.602862	-1.386911
37.26377	0.3694326	-0.2462439	0	0	0	0
37.28033	0.3441104	-0.2236391	-1.529504	1.365375	-46.18179	41.22608
37.2969	0.3441104	-0.2236391	0	0	46.17115	-41.21658
37.31347	0.3441104	-0.2236391	0	0	0	0
37.33003	0.2949056	-0.1814266	-2.970691	2.548537	-89.66597	76.92387
37.3466	0.2949056	-0.1814266	0	0	89.65565	-76.91502
37.36317	0.2949056	-0.1814266	0	0	0	0
37.37973	0.2418059	-0.1381019	-3.205846	2.615686	-96.77489	78.95974
37.3966	0.2418059	-0.1381019	0	0	95.89151	-78.23898
37.41287	0.2418059	-0.1381019	0	0	0	0
37.42943	0.1780674	-0.08851097	-3.848146	2.994004	-117.2032	91.1886
37.44616	0.1780674	-0.08851097	0	0	115.5916	-89.93472
37.46257	0.1780674	-0.08851097	0	0	0	0
37.47913	0.1243809	-0.04839103	-3.241272	2.422202	-98.30846	73.4659
37.49667	0.1243809	-0.04839103	0	0	95.04251	-71.02525
37.51226	0.1243809	-0.04839103	0	0	0	0
37.52883	0.1103915	-0.03840982	-0.8445975	0.6026059	-26.26408	18.73897
37.54573	0.1103915	-0.03840982	0	0	25.23435	-18.00428
37.56196	0.1103915	-0.03840982	0	0	0	0
37.57853	0.1097155	-0.03875279	-0.04080111	-0.02070164	-1.244128	-0.6312447
37.60141	0.1097155	-0.03875279	0	0	1.034207	0.5247352
37.61166	0.1097155	-0.03875279	0	0	0	0
37.62826	0.1089095	-0.03934355	-0.04856553	-0.0355928	-1.809175	-1.325911
37.64479	0.1089095	-0.03934355	0	0	1.465711	1.074193
37.66177	0.1089095	-0.03934355	0	0	0	0
37.67793	0.09317677	-0.05072419	-0.9740734	-0.7046214	-29.40098	-21.26797
37.69449	0.09317677	-0.05072419	0	0	29.77119	21.53577
37.71106	0.09317677	-0.05072419	0	0	0	0
37.72763	0.07310633	-0.06545489	-1.211455	-0.8891466	-36.56177	-26.8345
37.74483	0.07310633	-0.06545489	0	0	35.86803	26.32533
37.76076	0.07310633	-0.06545489	0	0	0	0
37.77737	0.07352512	-0.06530105	0.02520854	0.00926019	0.774709	0.2845842
37.7939	0.07352512	-0.06530105	0	0	-0.7607953	-0.2794731
37.81046	0.07352512	-0.06530105	0	0	0	0
37.82703	0.07360364	-0.06532028	0.004739577	-0.001160722	0.1430407	-0.03503066
37.8439	0.07360364	-0.06532028	0	0	-0.1417353	0.03471096
37.86044	0.07360364	-0.06532028	0	0	0	0
37.87673	0.07365599	-0.06532028	0.003212984	0	0.09786946	0
37.89347	0.07365599	-0.06532028	0	0	-0.09728166	0
37.90994	0.07365599	-0.06532028	0	0	0	0
37.92643	0.07370833	-0.06532028	0.003174336	0	0.09628943	0
37.943	0.07370833	-0.06532028	0	0	-0.09602276	0
37.95957	0.07370833	-0.06532028	0	0	0	0
37.97654	0.07381302	-0.06524336	0.006168433	0.00453183	0.1839192	0.1351219
37.9927	0.07381302	-0.06524336	0	0	-0.1861637	-0.1367709
38.00955	0.07381302	-0.06524336	0	0	0	0
38.02605	0.0738392	-0.06522413	0.001586067	0.001165283	0.04755554	0.03493904
38.0424	0.0738392	-0.06522413	0	0	-0.04827892	-0.03547051
38.05897	0.0738392	-0.06522413	0	0	0	0
38.07558	0.07391771	-0.06528182	0.004727155	-0.00347292	0.1424854	-0.1046804
38.09211	0.07391771	-0.06528182	0	0	-0.1426494	0.1048009
38.10867	0.07391771	-0.06528182	0	0	0	0
38.12524	0.0740224	-0.06535874	0.006318987	-0.004642888	0.1907294	-0.1401388
38.14181	0.0740224	-0.06535874	0	0	-0.1907074	0.1401226
38.15863	0.0740224	-0.06535874	0	0	0	0
38.17514	0.07412709	-0.06543566	0.006339422	-0.004657903	0.1901638	-0.1397232
38.19215	0.07412709	-0.06543566	0	0	-0.1891035	0.1389442
38.20808	0.07412709	-0.06543566	0	0	0	0
38.22464	0.07415326	-0.06549335	0.001579859	-0.003482166	0.04862634	-0.1071773
38.24121	0.07415326	-0.06549335	0	0	-0.04768024	0.105092
38.25819	0.07415326	-0.06549335	0	0	0	0
38.27434	0.07417943	-0.06551258	0.001620531	-0.001190604	0.04891335	-0.03593662
38.29091	0.07417943	-0.06551258	0	0	-0.04952926	0.03638913
38.30748	0.07417943	-0.06551258	0	0	0	0
38.32404	0.07417943	-0.06551258	0	0	0	0
38.34061	0.07417943	-0.06551258	0	0	0	0
38.35727	0.07417943	-0.06551258	0	0	0	0
38.37374	0.0742056	-0.06553181	0.001588922	-0.001167713	0.04795928	-0.0352457
38.39031	0.0742056	-0.06553181	0	0	-0.04809773	0.03534745
38.4073	0.0742056	-0.06553181	0	0	0	0
38.42446	0.0742056	-0.06553181	0	0	0	0
38.44102	0.0742056	-0.06553181	0	0	0	0
38.45759	0.0742056	-0.06553181	0	0	0	0
38.47416	0.0742056	-0.06553181	0	0	0	0
38.49073	0.0742056	-0.06553181	0	0	0	0
38.50729	0.0742056	-0.06553181	0	0	0	0
38.52386	0.07423177	-0.06555104	0.001579859	-0.001160722	0.04768024	-0.03503066
38.54043	0.07423177	-0.06555104	0	0	-0.04768024	0.03503066
38.557	0.07423177	-0.06555104	0	0	0	0
38.57359	0.07423177	-0.06555104	0	0	0	0
38.59013	0.07423177	-0.06555104	0	0	0	0
38.60711	0.07423177	-0.06555104	0	0	0	0
38.62361	0.07423177	-0.06555104	0	0	0	0
38.63983	0.07423177	-0.06555104	0	0	0	0
38.65667	0.07423177	-0.06555104	0	0	0	0
38.67316	0.07423177	-0.06555104	0	0	0	0
38.68953	0.07423177	-0.06555104	0	0	0	0
38.70615	0.07423177	-0.06555104	0	0	0	0
38.72266	0.07425794	-0.06557027	0.00158525	-0.001165014	0.04784844	-0.03516424
38.73922	0.07425794	-0.06557027	0	0	-0.04793122	0.03522508
38.75579	0.07425794	-0.06557027	0	0	0	0
38.77269	0.07428411	-0.0655895	0.001549182	-0.001138184	0.04629603	-0.03401368
38.78893	0.07428411	-0.0655895	0	0	-0.04675441	0.03435045
38.80549	0.07428411	-0.0655895	0	0	0	0
38.82206	0.07428411	-0.0655895	0	0	0	0
38.83875	0.07428411	-0.0655895	0	0	0	0
38.85519	0.07428411	-0.0655895	0	0	0	0
38.87179	0.07428411	-0.0655895	0	0	0	0
38.88833	0.07428411	-0.0655895	0	0	0	0
38.9049	0.07428411	-0.0655895	0	0	0	0
38.92182	0.07428411	-0.0655895	0	0	0	0
38.93803	0.07428411	-0.0655895	0	0	0	0
38.9546	0.07428411	-0.0655895	0	0	0	0
38.97116	0.07428411	-0.0655895	0	0	0	0
38.98773	0.07428411	-0.0655895	0	0	0	0
39.0045	0.07428411	-0.0655895	0	0	0	0
39.02087	0.07431029	-0.06560872	0.001599377	-0.001175062	0.0482693	-0.03546344
39.03754	0.07431029	-0.06560872	0	0	-0.04840863	0.0355658
39.05402	0.07431029	-0.06560872	0	0	0	0
39.07106	0.07431029	-0.06560872	0	0	0	0
39.08713	0.07431029	-0.06560872	0	0	0	0
39.1037	0.07431029	-0.06560872	0	0	0	0
39.12061	0.07431029	-0.06560872	0	0	0	0
39.13683	0.07431029	-0.06560872	0	0	0	0
39.1534	0.07431029	-0.06560872	0	0	0	0
39.16997	0.07428411	-0.0655895	-0.001579859	0.001160722	-0.04768024	0.03503066
39.18653	0.07428411	-0.0655895	0	0	0.04768024	-0.03503066
39.2031	0.07428411	-0.0655895	0	0	0	0
39.21968	0.07428411	-0.0655895	0	0	0	0
39.23624	0.07428411	-0.0655895	0	0	0	0
39.2528	0.07428411	-0.0655895	0	0	0	0
39.26937	0.07428411	-0.0655895	0	0	0	0
39.28594	0.07428411	-0.0655895	0	0	0	0
39.30251	0.07428411	-0.0655895	0	0	0	0
39.31907	0.07428411	-0.0655895	0	0	0	0
39.33573	0.07428411	-0.0655895	0	0	0	0
39.35226	0.07428411	-0.0655895	0	0	0	0
39.36877	0.07428411	-0.0655895	0	0	0	0
39.38534	0.07428411	-0.0655895	0	0	0	0
39.40191	0.07428411	-0.0655895	0	0	0	0
39.41848	0.07428411	-0.0655895	0	0	0	0
39.43504	0.07428411	-0.0655895	0	0	0	0
39.45161	0.07428411	-0.0655895	0	0	0	0
39.46833	0.07428411	-0.0655895	0	0	0	0
39.48475	0.07428411	-0.0655895	0	0	0	0
39.50131	0.07428411	-0.0655895	0	0	0	0
39.51788	0.07428411	-0.0655895	0	0	0	0
39.53444	0.07428411	-0.0655895	0	0	0	0
39.55101	0.07428411	-0.0655895	0	0	0	0
39.56758	0.07428411	-0.0655895	0	0	0	0
39.58414	0.07428411	-0.0655895	0	0	0	0
39.6008	0.07428411	-0.0655895	0	0	0	0
39.6173	0.07428411	-0.0655895	0	0	0	0
39.63385	0.07428411	-0.0655895	0	0	0	0
39.69495	0.07428411	-0.0655895	0	0	0	0
39.71152	0.07428411	-0.0655895	0	0	0	0
39.72808	0.07428411	-0.0655895	0	0	0	0
39.74465	0.07428411	-0.0655895	0	0	0	0
39.76122	0.07428411	-0.0655895	0	0	0	0
39.77792	0.07428411	-0.0655895	0	0	0	0
39.79435	0.07428411	-0.0655895	0	0	0	0
39.81092	0.07428411	-0.0655895	0	0	0	0
39.82748	0.07428411	-0.0655895	0	0	0	0
39.84405	0.07428411	-0.0655895	0	0	0	0
39.86062	0.07428411	-0.0655895	0	0	0	0
39.87745	0.07428411	-0.0655895	0	0	0	0
39.89399	0.07428411	-0.0655895	0	0	0	0
39.91032	0.07428411	-0.0655895	0	0	0	0
39.927	0.07428411	-0.0655895	0	0	0	0
39.94345	0.07428411	-0.0655895	0	0	0	0
39.96003	0.07428411	-0.0655895	0	0	0	0
39.97658	0.07428411	-0.0655895	0	0	0	0
39.99315	0.07428411	-0.0655895	0	0	0	0
40.01005	0.07428411	-0.0655895	0	0	0	0
40.02628	0.07428411	-0.0655895	0	0	0	0
40.04285	0.07428411	-0.0655895	0	0	0	0
