Time	Pos X	Pos Y	Vel X	Vel Y	Acc X	Acc Y
0.01656516	0.03974222	-0.1322363	-0.0005979891	0.00198972	9.000004E-06	-2.994618E-05
0.03551582	0.03974222	-0.1322363	0	0	-9.000328E-06	2.994725E-05
0.05208532	0.03974222	-0.1322363	0	0	0	0
0.0688743	0.03974222	-0.1322363	0	0	0	0
0.08521839	0.03974222	-0.1322363	0	0	0	0
0.1018822	0.03974222	-0.1322363	0	0	0	0
0.1184134	0.03974222	-0.1322363	0	0	0	0
0.1349174	0.03974222	-0.1322363	0	0	0	0
0.1514841	0.03974222	-0.1322363	0	0	0	0
0.1680505	0.03974222	-0.1322363	0	0	0	0
0.1846168	0.03974222	-0.1322363	0	0	0	0
0.2014828	0.03974222	-0.1322363	0	0	0	0
0.2177503	0.03974222	-0.1322363	0	0	0	0
0.2343174	0.03974222	-0.1322363	0	0	0	0
0.2508841	0.03974222	-0.1322363	0	0	0	0
0.2675148	0.03974222	-0.1322363	0	0	0	0
0.2840172	0.03974222	-0.1322363	0	0	0	0
0.3005843	0.03974222	-0.1322363	0	0	0	0
0.3171503	0.03974222	-0.1322363	0	0	0	0
0.3337174	0.03974222	-0.1322363	0	0	0	0
0.3502842	0.03974222	-0.1322363	0	0	0	0
0.3675966	0.03976849	-0.1322561	0.001517665	-0.001139593	0.0447964	-0.033637
0.3835973	0.03976849	-0.1322561	0	0	-0.0455576	0.03420857
0.3999844	0.03976849	-0.1322561	0	0	0	0
0.4165507	0.03976849	-0.1322561	0	0	0	0
0.4331178	0.03976849	-0.1322561	0	0	0	0
0.4496834	0.03976849	-0.1322561	0	0	0	0
0.4662505	0.03976849	-0.1322561	0	0	0	0
0.4828177	0.03976849	-0.1322561	0	0	0	0
0.4994586	0.03976849	-0.1322561	0	0	0	0
0.5159642	0.03976849	-0.1322561	0	0	0	0
0.5325167	0.03976849	-0.1322561	0	0	0	0
0.5490838	0.03976849	-0.1322561	0	0	0	0
0.5656497	0.03976849	-0.1322561	0	0	0	0
0.5822173	0.03976849	-0.1322561	0	0	0	0
0.598784	0.03976849	-0.1322561	0	0	0	0
0.6153499	0.03976849	-0.1322561	0	0	0	0
0.6319171	0.03976849	-0.1322561	0	0	0	0
0.6485643	0.03976849	-0.1322561	0	0	0	0
0.6650497	0.03976849	-0.1322561	0	0	0	0
0.6816168	0.03976849	-0.1322561	0	0	0	0
0.6986265	0.03976849	-0.1322561	0	0	0	0
0.715969	0.03976849	-0.1322561	0	0	0	0
0.7325475	0.03976849	-0.1322561	0	0	0	0
0.7495528	0.03976849	-0.1322561	0	0	0	0
0.7656707	0.03976849	-0.1322561	0	0	0	0
0.7825714	0.03976849	-0.1322561	0	0	0	0
0.7995661	0.03976849	-0.1322561	0	0	0	0
0.815579	0.03976849	-0.1322561	0	0	0	0
0.8319365	0.03976849	-0.1322561	0	0	0	0
0.8485033	0.03976849	-0.1322561	0	0	0	0
0.8650696	0.03976849	-0.1322561	0	0	0	0
0.8816372	0.03976849	-0.1322561	0	0	0	0
0.8986622	0.03976849	-0.1322561	0	0	0	0
0.9147698	0.03976849	-0.1322561	0	0	0	0
0.9313366	0.03976849	-0.1322561	0	0	0	0
0.9481733	0.03976849	-0.1322561	0	0	0	0
0.9646785	0.03976849	-0.1322561	0	0	0	0
0.9812109	0.03976849	-0.1322561	0	0	0	0
0.9976935	0.03976849	-0.1322561	0	0	0	0
1.014169	0.03976849	-0.1322561	0	0	0	0
1.031254	0.03976849	-0.1322561	0	0	0	0
1.047304	0.03976849	-0.1322561	0	0	0	0
1.06387	0.03976849	-0.1322561	0	0	0	0
1.080437	0.03976849	-0.1322561	0	0	0	0
1.097004	0.03976849	-0.1322561	0	0	0	0
1.11357	0.03976849	-0.1322561	0	0	0	0
1.130137	0.03976849	-0.1322561	0	0	0	0
1.146704	0.03976849	-0.1322561	0	0	0	0
1.16333	0.03976849	-0.1322561	0	0	0	0
1.179837	0.03976849	-0.1322561	0	0	0	0
1.196404	0.03976849	-0.1322561	0	0	0	0
1.213371	0.03976849	-0.1322561	0	0	0	0
1.229537	0.03976849	-0.1322561	0	0	0	0
1.246103	0.03976849	-0.1322561	0	0	0	0
1.26267	0.03976849	-0.1322561	0	0	0	0
1.279237	0.03976849	-0.1322561	0	0	0	0
1.295812	0.03976849	-0.1322561	0	0	0	0
1.312369	0.03976849	-0.1322561	0	0	0	0
1.328936	0.03976849	-0.1322561	0	0	0	0
1.345503	0.03976849	-0.1322561	0	0	0	0
1.36207	0.03976849	-0.1322561	0	0	0	0
1.378637	0.03976849	-0.1322561	0	0	0	0
1.395204	0.03976849	-0.1322561	0	0	0	0
1.411799	0.03976849	-0.1322561	0	0	0	0
1.428808	0.03976849	-0.1322561	0	0	0	0
1.445333	0.03976849	-0.1322561	0	0	0	0
1.46147	0.03976849	-0.1322561	0	0	0	0
1.478037	0.03976849	-0.1322561	0	0	0	0
1.494603	0.03976849	-0.1322561	0	0	0	0
1.51117	0.03976849	-0.1322561	0	0	0	0
1.527738	0.03976849	-0.1322561	0	0	0	0
1.544305	0.03976849	-0.1322561	0	0	0	0
1.56087	0.03976849	-0.1322561	0	0	0	0
1.577437	0.03976849	-0.1322561	0	0	0	0
1.594279	0.03976849	-0.1322561	0	0	0	0
1.61057	0.03976849	-0.1322561	0	0	0	0
1.627137	0.03976849	-0.1322561	0	0	0	0
1.643704	0.03976849	-0.1322561	0	0	0	0
1.660272	0.03976849	-0.1322561	0	0	0	0
1.676837	0.03976849	-0.1322561	0	0	0	0
1.693403	0.03976849	-0.1322561	0	0	0	0
1.710348	0.03979477	-0.1322758	0.001550584	-0.001164312	0.04627052	-0.03474389
1.726537	0.03979477	-0.1322758	0	0	-0.04679824	0.03514015
1.743104	0.03979477	-0.1322758	0	0	0	0
1.759906	0.03979477	-0.1322758	0	0	0	0
1.776237	0.03979477	-0.1322758	0	0	0	0
1.793407	0.03979477	-0.1322758	0	0	0	0
1.809932	0.03976849	-0.1322561	-0.001589992	0.001193903	-0.04718745	0.03543241
1.825936	0.03976849	-0.1322561	0	0	0.04887957	-0.03670299
1.842504	0.03976849	-0.1322561	0	0	0	0
1.85907	0.03979477	-0.1322758	0.00158609	-0.001190973	0.04786967	-0.03594467
1.875637	0.03979477	-0.1322758	0	0	-0.04787036	0.03594519
1.892476	0.03979477	-0.1322758	0	0	0	0
1.90877	0.03976849	-0.1322561	-0.001612571	0.001210858	-0.04867012	0.03654572
1.925337	0.03976849	-0.1322561	0	0	0.04907304	-0.03684827
1.941903	0.03976849	-0.1322561	0	0	0	0
1.958528	0.03976849	-0.1322561	0	0	0	0
1.975037	0.03976849	-0.1322561	0	0	0	0
1.991603	0.03976849	-0.1322561	0	0	0	0
2.008577	0.03976849	-0.1322561	0	0	0	0
2.024737	0.03976849	-0.1322561	0	0	0	0
2.041599	0.03976849	-0.1322561	0	0	0	0
2.05787	0.03976849	-0.1322561	0	0	0	0
2.074438	0.03976849	-0.1322561	0	0	0	0
2.091003	0.03976849	-0.1322561	0	0	0	0
2.107572	0.03979477	-0.1322758	0.001585748	-0.001190716	0.04785831	-0.03593614
2.124138	0.03979477	-0.1322758	0	0	-0.04785658	0.03593485
2.140705	0.03979477	-0.1322758	0	0	0	0
2.157271	0.03979477	-0.1322758	0	0	0	0
2.173844	0.03979477	-0.1322758	0	0	0	0
2.190681	0.03979477	-0.1322758	0	0	0	0
2.206969	0.03979477	-0.1322758	0	0	0	0
2.22354	0.03979477	-0.1322758	0	0	0	0
2.240232	0.03979477	-0.1322758	0	0	0	0
2.25667	0.03979477	-0.1322758	0	0	0	0
2.273239	0.03979477	-0.1322758	0	0	0	0
2.289805	0.03979477	-0.1322758	0	0	0	0
2.306369	0.03979477	-0.1322758	0	0	0	0
2.322938	0.03979477	-0.1322758	0	0	0	0
2.339794	0.03979477	-0.1322758	0	0	0	0
2.356069	0.03979477	-0.1322758	0	0	0	0
2.372637	0.03979477	-0.1322758	0	0	0	0
2.389219	0.03979477	-0.1322758	0	0	0	0
2.405769	0.03979477	-0.1322758	0	0	0	0
2.422337	0.03979477	-0.1322758	0	0	0	0
2.438903	0.03979477	-0.1322758	0	0	0	0
2.455762	0.03979477	-0.1322758	0	0	0	0
2.472036	0.03979477	-0.1322758	0	0	0	0
2.488603	0.03979477	-0.1322758	0	0	0	0
2.505299	0.03979477	-0.1322758	0	0	0	0
2.521808	0.03979477	-0.1322758	0	0	0	0
2.538319	0.03979477	-0.1322758	0	0	0	0
2.55487	0.03979477	-0.1322758	0	0	0	0
2.571436	0.03979477	-0.1322758	0	0	0	0
2.588355	0.03979477	-0.1322758	0	0	0	0
2.604569	0.03979477	-0.1322758	0	0	0	0
2.621137	0.03979477	-0.1322758	0	0	0	0
2.637891	0.03979477	-0.1322758	0	0	0	0
2.654419	0.03979477	-0.1322758	0	0	0	0
2.671452	0.03979477	-0.1322758	0	0	0	0
2.687464	0.03979477	-0.1322758	0	0	0	0
2.703968	0.03979477	-0.1322758	0	0	0	0
2.720536	0.03979477	-0.1322758	0	0	0	0
2.737102	0.03979477	-0.1322758	0	0	0	0
2.754	0.03979477	-0.1322758	0	0	0	0
2.770236	0.03979477	-0.1322758	0	0	0	0
2.786802	0.03979477	-0.1322758	0	0	0	0
2.803535	0.03979477	-0.1322758	0	0	0	0
2.819936	0.03979477	-0.1322758	0	0	0	0
2.83657	0.03979477	-0.1322758	0	0	0	0
2.853071	0.03976849	-0.1322561	-0.001592324	0.001195654	-0.04805504	0.03608386
2.869635	0.03976849	-0.1322561	0	0	0.04815726	-0.03616062
2.887002	0.03976849	-0.1322561	0	0	0	0
2.902769	0.03979477	-0.1322758	0.001666462	-0.001251323	0.05029537	-0.0377661
2.919336	0.03979477	-0.1322758	0	0	-0.05153999	0.03870067
2.935904	0.03979477	-0.1322758	0	0	0	0
2.952469	0.03979477	-0.1322758	0	0	0	0
2.969411	0.03979477	-0.1322758	0	0	0	0
2.985602	0.03979477	-0.1322758	0	0	0	0
3.002169	0.03979477	-0.1322758	0	0	0	0
3.018736	0.03979477	-0.1322758	0	0	0	0
3.035303	0.03979477	-0.1322758	0	0	0	0
3.051969	0.03979477	-0.1322758	0	0	0	0
3.068436	0.03979477	-0.1322758	0	0	0	0
3.085004	0.03979477	-0.1322758	0	0	0	0
3.10157	0.03979477	-0.1322758	0	0	0	0
3.118137	0.03979477	-0.1322758	0	0	0	0
3.134703	0.03979477	-0.1322758	0	0	0	0
3.151541	0.03979477	-0.1322758	0	0	0	0
3.167836	0.03979477	-0.1322758	0	0	0	0
3.184404	0.03979477	-0.1322758	0	0	0	0
3.20097	0.03976849	-0.1322561	-0.001586044	0.001190939	-0.04786829	0.03594364
3.217572	0.03976849	-0.1322561	0	0	0.04781806	-0.03590592
3.234103	0.03976849	-0.1322561	0	0	0	0
3.250669	0.03976849	-0.1322561	0	0	0	0
3.267237	0.03976849	-0.1322561	0	0	0	0
3.283803	0.03976849	-0.1322561	0	0	0	0
3.300369	0.03976849	-0.1322561	0	0	0	0
3.316936	0.03976849	-0.1322561	0	0	0	0
3.333683	0.03976849	-0.1322561	0	0	0	0
3.350187	0.03976849	-0.1322561	0	0	0	0
3.366637	0.03976849	-0.1322561	0	0	0	0
3.383203	0.03976849	-0.1322561	0	0	0	0
3.399769	0.03976849	-0.1322561	0	0	0	0
3.416337	0.03976849	-0.1322561	0	0	0	0
3.432903	0.03976849	-0.1322561	0	0	0	0
3.449469	0.03976849	-0.1322561	0	0	0	0
3.466036	0.03976849	-0.1322561	0	0	0	0
3.482715	0.03976849	-0.1322561	0	0	0	0
3.499169	0.03976849	-0.1322561	0	0	0	0
3.51574	0.03976849	-0.1322561	0	0	0	0
3.532303	0.03976849	-0.1322561	0	0	0	0
3.548869	0.03976849	-0.1322561	0	0	0	0
3.565436	0.03976849	-0.1322561	0	0	0	0
3.582004	0.03976849	-0.1322561	0	0	0	0
3.598794	0.03976849	-0.1322561	0	0	0	0
3.615299	0.03976849	-0.1322561	0	0	0	0
3.631703	0.03976849	-0.1322561	0	0	0	0
3.648322	0.03976849	-0.1322561	0	0	0	0
3.664836	0.03976849	-0.1322561	0	0	0	0
3.681402	0.03976849	-0.1322561	0	0	0	0
3.697969	0.03976849	-0.1322561	0	0	0	0
3.714536	0.03976849	-0.1322561	0	0	0	0
3.731102	0.03976849	-0.1322561	0	0	0	0
3.747669	0.03976849	-0.1322561	0	0	0	0
3.764236	0.03976849	-0.1322561	0	0	0	0
3.780802	0.03976849	-0.1322561	0	0	0	0
3.797369	0.03976849	-0.1322561	0	0	0	0
3.813936	0.03976849	-0.1322561	0	0	0	0
3.830502	0.03976849	-0.1322561	0	0	0	0
3.847068	0.03976849	-0.1322561	0	0	0	0
3.863636	0.03976849	-0.1322561	0	0	0	0
3.880203	0.03976849	-0.1322561	0	0	0	0
3.896769	0.03976849	-0.1322561	0	0	0	0
3.914022	0.03976849	-0.1322561	0	0	0	0
3.929903	0.03976849	-0.1322561	0	0	0	0
3.946469	0.03976849	-0.1322561	0	0	0	0
3.963037	0.03976849	-0.1322561	0	0	0	0
3.979603	0.03976849	-0.1322561	0	0	0	0
3.99617	0.03976849	-0.1322561	0	0	0	0
4.012736	0.03976849	-0.1322561	0	0	0	0
4.029302	0.03976849	-0.1322561	0	0	0	0
4.048269	0.03976849	-0.1322561	0	0	0	0
4.064837	0.03976849	-0.1322561	0	0	0	0
4.081403	0.03976849	-0.1322561	0	0	0	0
4.09797	0.03976849	-0.1322561	0	0	0	0
4.114737	0.03976849	-0.1322561	0	0	0	0
4.131242	0.03976849	-0.1322561	0	0	0	0
4.147763	0.03976849	-0.1322561	0	0	0	0
4.164237	0.03976849	-0.1322561	0	0	0	0
4.180804	0.03976849	-0.1322561	0	0	0	0
4.19737	0.03976849	-0.1322561	0	0	0	0
4.213937	0.03976849	-0.1322561	0	0	0	0
4.230504	0.03976849	-0.1322561	0	0	0	0
4.247072	0.03976849	-0.1322561	0	0	0	0
4.263637	0.03976849	-0.1322561	0	0	0	0
4.280203	0.03976849	-0.1322561	0	0	0	0
4.29677	0.03976849	-0.1322561	0	0	0	0
4.313337	0.03976849	-0.1322561	0	0	0	0
4.329903	0.03976849	-0.1322561	0	0	0	0
4.346469	0.03976849	-0.1322561	0	0	0	0
4.363037	0.03976849	-0.1322561	0	0	0	0
4.379603	0.03976849	-0.1322561	0	0	0	0
4.39617	0.03976849	-0.1322561	0	0	0	0
4.412737	0.03976849	-0.1322561	0	0	0	0
4.429304	0.03976849	-0.1322561	0	0	0	0
4.445871	0.03976849	-0.1322561	0	0	0	0
4.462437	0.03976849	-0.1322561	0	0	0	0
4.479004	0.03976849	-0.1322561	0	0	0	0
4.49557	0.03971595	-0.1324139	-0.003172226	-0.009526122	-0.0957421	-0.2875113
4.512416	0.03971595	-0.1324139	0	0	0.09494412	0.2851151
4.528704	0.03971595	-0.1324139	0	0	0	0
4.545269	0.03953202	-0.1329071	-0.01110279	-0.02977476	-0.3379523	-0.906299
4.561836	0.03953202	-0.1329071	0	0	0.3351022	0.8986557
4.578403	0.03953202	-0.1329071	0	0	0	0
4.59498	0.03877003	-0.1343084	-0.04596732	-0.08453519	-1.386917	-2.55058
4.611536	0.03877003	-0.1343084	0	0	1.387356	2.551387
4.628103	0.03877003	-0.1343084	0	0	0	0
4.64467	-0.006236761	-0.1704536	-2.716772	-2.181852	-81.99471	-65.85032
4.661236	-0.006236761	-0.1704536	0	0	81.99589	65.85127
4.677803	-0.006236761	-0.1704536	0	0	0	0
4.694398	-0.05567923	-0.2398127	-2.97938	-4.17955	-89.84416	-126.0357
4.710938	-0.05567923	-0.2398127	0	0	89.91786	126.1391
4.727505	-0.05567923	-0.2398127	0	0	0	0
4.74407	-0.06941461	-0.2733619	-0.8291883	-2.025323	-25.02675	-61.12876
4.760637	-0.06941461	-0.2733619	0	0	25.02639	61.12788
4.777204	-0.06941461	-0.2733619	0	0	0	0
4.79377	-0.0677907	-0.2746688	0.09802764	-0.07889453	2.95865	-2.381179
4.810453	-0.0677907	-0.2746688	0	0	-2.948297	2.372846
4.826904	-0.0677907	-0.2746688	0	0	0	0
4.843479	-0.05053588	-0.2887236	1.040994	-0.8479294	31.52022	-25.67443
4.860038	-0.05053588	-0.2887236	0	0	-31.4177	25.59093
4.876605	-0.05053588	-0.2887236	0	0	0	0
4.89317	-0.01776129	-0.3287912	1.978506	-2.418764	59.71573	-73.00371
4.910025	-0.01776129	-0.3287912	0	0	-59.20027	72.37354
4.926303	-0.01776129	-0.3287912	0	0	0	0
4.943048	-0.005815724	-0.3542301	0.7133772	-1.519189	21.60251	-46.00415
4.959558	-0.005815724	-0.3542301	0	0	-21.45136	45.68225
4.976003	-0.005815724	-0.3542301	0	0	0	0
4.992581	-0.008420854	-0.3562387	-0.1571374	-0.1211549	-4.75844	-3.668816
5.009137	-0.008420854	-0.3562387	0	0	4.742485	3.656514
5.025703	-0.008420854	-0.3562387	0	0	0	0
5.042269	-0.008473481	-0.3563271	-0.003176766	-0.005332163	-0.09588049	-0.1609343
5.058837	-0.008473481	-0.3563271	0	0	0.09587635	0.1609273
5.075655	-0.008473481	-0.3563271	0	0	0	0
5.091969	-0.008526109	-0.3563712	-0.003225753	-0.002707146	-0.09735902	-0.08170653
5.108679	-0.008526109	-0.3563712	0	0	0.09767813	0.08197434
5.125175	-0.008526109	-0.3563712	0	0	0	0
5.14167	-0.008499796	-0.3563491	0.001595317	0.00133886	0.04835621	0.04058266
5.158237	-0.008499796	-0.3563491	0	0	-0.04825369	-0.04049662
5.174803	-0.008499796	-0.3563491	0	0	0	0
5.192833	-0.008526109	-0.3563712	-0.001459382	-0.001224777	-0.04218241	-0.03540134
5.209683	-0.008526109	-0.3563712	0	0	0.0418393	0.03511338
5.225968	-0.008526109	-0.3563712	0	0	0	0
5.242535	-0.008499796	-0.3563491	0.001588337	0.001333002	0.04834941	0.04057695
5.259102	-0.008499796	-0.3563491	0	0	-0.0479368	-0.04023067
5.275741	-0.008499796	-0.3563491	0	0	0	0
5.292233	-0.008499796	-0.3563491	0	0	0	0
5.308805	-0.008499796	-0.3563491	0	0	0	0
5.325367	-0.008499796	-0.3563491	0	0	0	0
5.341934	-0.008499796	-0.3563491	0	0	0	0
5.358501	-0.008499796	-0.3563491	0	0	0	0
5.375068	-0.008499796	-0.3563491	0	0	0	0
5.391842	-0.008499796	-0.3563491	0	0	0	0
5.408357	-0.008499796	-0.3563491	0	0	0	0
5.424857	-0.008499796	-0.3563491	0	0	0	0
5.441333	-0.008499796	-0.3563491	0	0	0	0
5.457901	-0.008499796	-0.3563491	0	0	0	0
5.474467	-0.008499796	-0.3563491	0	0	0	0
5.491034	-0.008526109	-0.3563271	-0.001588337	0.001333002	-0.04793886	0.04023241
5.5076	-0.008526109	-0.3563271	0	0	0.04793749	-0.04023125
5.524167	-0.008526109	-0.3563271	0	0	0	0
5.540733	-0.008526109	-0.3563271	0	0	0	0
5.557424	-0.008526109	-0.3563271	0	0	0	0
5.573867	-0.008526109	-0.3563271	0	0	0	0
5.590457	-0.008526109	-0.3563271	0	0	0	0
5.607	-0.008526109	-0.3563271	0	0	0	0
5.623567	-0.008526109	-0.3563271	0	0	0	0
5.640133	-0.008552423	-0.356305	-0.001588383	0.001333041	-0.04793956	0.04023298
5.6567	-0.008552423	-0.356305	0	0	0.04793956	-0.04023298
5.673267	-0.008552423	-0.356305	0	0	0	0
5.689834	-0.008605051	-0.3562608	-0.003176822	0.002666081	-0.09587943	0.08046481
5.706401	-0.008605051	-0.3562608	0	0	0.09587943	-0.08046481
5.723042	-0.008605051	-0.3562608	0	0	0	0
5.742885	-0.008657678	-0.3561725	-0.002652229	0.004451734	-0.07269613	0.1220196
5.759452	-0.008657678	-0.3561725	0	0	0.07284275	-0.1222657
5.77602	-0.008657678	-0.3561725	0	0	0	0
5.792585	-0.008683993	-0.3561504	-0.00158853	0.001333117	-0.04794401	0.0402353
5.809153	-0.008683993	-0.3561504	0	0	0.04794401	-0.0402353
5.825719	-0.008683993	-0.3561504	0	0	0	0
5.842285	-0.008868189	-0.3559958	-0.01111874	0.009331285	-0.3355882	0.281639
5.858852	-0.008868189	-0.3559958	0	0	0.3355786	-0.2816309
5.875419	-0.008868189	-0.3559958	0	0	0	0
5.89216	-0.009157639	-0.3557529	-0.01728913	0.01450797	-0.5190606	0.4355637
5.908553	-0.009157639	-0.3557529	0	0	0.5217946	-0.4378578
5.92512	-0.009157639	-0.3557529	0	0	0	0
5.941686	-0.00923658	-0.3556867	-0.004765286	0.003999237	-0.1438228	0.1207024
5.958253	-0.00923658	-0.3556867	0	0	0.1438228	-0.1207024
5.975698	-0.00923658	-0.3556867	0	0	0	0
5.991386	-0.009368147	-0.3555763	-0.008386251	0.00703626	-0.2531048	0.2123609
6.009118	-0.009368147	-0.3555763	0	0	0.2509345	-0.2105399
6.024519	-0.009368147	-0.3555763	0	0	0	0
6.041086	-0.009420774	-0.3555321	-0.003176766	0.002664282	-0.09937441	0.08334311
6.057904	-0.009420774	-0.3555321	0	0	0.09515604	-0.07980525
6.074415	-0.009420774	-0.3555321	0	0	0	0
6.090786	-0.009420774	-0.3555321	0	0	0	0
6.107353	-0.009420774	-0.3555321	0	0	0	0
6.123948	-0.009420774	-0.3555321	0	0	0	0
6.140485	-0.009368147	-0.3555763	0.003182353	-0.002668969	0.09604913	-0.08055427
6.157471	-0.009368147	-0.3555763	0	0	-0.0949302	0.07961585
6.173619	-0.009368147	-0.3555763	0	0	0	0
6.190512	-0.009368147	-0.3555763	0	0	0	0
6.206753	-0.009368147	-0.3555763	0	0	0	0
6.22332	-0.009368147	-0.3555763	0	0	0	0
6.239885	-0.009368147	-0.3555763	0	0	0	0
6.256453	-0.009368147	-0.3555763	0	0	0	0
6.273019	-0.009368147	-0.3555763	0	0	0	0
6.289585	-0.009341833	-0.3555542	0.001588383	0.001333041	0.04794025	0.04023356
6.306153	-0.009341833	-0.3555542	0	0	-0.04793818	-0.04023182
6.322719	-0.009341833	-0.3555542	0	0	0	0
6.339284	-0.009183953	-0.3553776	0.009530789	0.01065954	0.2876646	0.3217334
6.355852	-0.009183953	-0.3553776	0	0	-0.2876522	-0.3217195
6.372419	-0.009183953	-0.3553776	0	0	0	0
6.388985	-0.008631364	-0.3549582	0.03335717	0.02531591	1.006779	0.7640796
6.405553	-0.008631364	-0.3549582	0	0	-1.006736	-0.7640466
6.422162	-0.008631364	-0.3549582	0	0	0	0
6.438684	-0.008420854	-0.3546934	0.01274055	0.01602587	0.3845436	0.4837036
6.455253	-0.008420854	-0.3546934	0	0	-0.3850147	-0.484296
6.47182	-0.008420854	-0.3546934	0	0	0	0
6.488668	-0.009973354	-0.348197	-0.09214695	0.3855921	-2.757626	11.53938
6.504953	-0.009973354	-0.348197	0	0	2.781121	-11.63769
6.52152	-0.009973354	-0.348197	0	0	0	0
6.538084	-0.02357458	-0.3062298	-0.8211134	2.53358	-24.78375	76.47129
6.554653	-0.02357458	-0.3062298	0	0	24.78232	-76.46689
6.571764	-0.02357458	-0.3062298	0	0	0	0
6.587785	-0.02549447	-0.2552203	-0.1198379	3.18396	-3.616974	96.09901
6.604353	-0.02549447	-0.2552203	0	0	3.6772	-97.69914
6.621201	-0.02549447	-0.2552203	0	0	0	0
6.63771	-0.001105263	-0.2255715	1.477323	1.79591	44.28933	53.84039
6.654053	-0.001105263	-0.2255715	0	0	-44.96881	-54.6664
6.670721	-0.001105263	-0.2255715	0	0	0	0
6.687185	0.02315376	-0.2067353	1.47348	1.144104	44.47292	34.5316
6.703752	0.02315376	-0.2067353	0	0	-44.60967	-34.63779
6.720318	0.02315376	-0.2067353	0	0	0	0
6.736885	0.05607274	-0.1814669	1.987051	1.525246	59.9719	46.03401
6.753452	0.05607274	-0.1814669	0	0	-59.96931	-46.03202
6.770019	0.05607274	-0.1814669	0	0	0	0
6.786585	0.09129812	-0.1545504	2.126331	1.624777	64.17648	49.03869
6.803152	0.09129812	-0.1545504	0	0	-64.17555	-49.03798
6.819829	0.09129812	-0.1545504	0	0	0	0
6.836284	0.1159253	-0.1359081	1.496707	1.132981	45.17396	34.1959
6.852851	0.1159253	-0.1359081	0	0	-45.32465	-34.30997
6.869418	0.1159253	-0.1359081	0	0	0	0
6.886285	0.1201812	-0.1327887	0.2523195	0.1849363	7.54692	5.531476
6.902551	0.1201812	-0.1327887	0	0	-7.615236	-5.581548
6.919119	0.1201812	-0.1327887	0	0	0	0
6.935684	0.1201812	-0.1327887	0	0	0	0
6.95238	0.1201812	-0.1327887	0	0	0	0
6.968818	0.1201812	-0.1327887	0	0	0	0
6.985384	0.1201034	-0.1328479	-0.004697124	-0.003572765	-0.1423186	-0.1082516
7.001952	0.1201034	-0.1328479	0	0	0.1417636	0.1078294
7.018517	0.1201034	-0.1328479	0	0	0	0
7.035084	0.119844	-0.1332031	-0.01565738	-0.02144019	-0.4725747	-0.6471127
7.051651	0.119844	-0.1332031	0	0	0.4725543	0.6470848
7.068449	0.119844	-0.1332031	0	0	0	0
7.084785	0.119403	-0.1334991	-0.02699643	-0.01812077	-0.8147774	-0.5469016
7.101969	0.119403	-0.1334991	0	0	0.8053889	0.5405998
7.119755	0.119403	-0.1334991	0	0	0	0
7.134484	0.116782	-0.1354932	-0.1779419	-0.1353846	-5.472521	-4.163692
7.151052	0.116782	-0.1354932	0	0	5.685638	4.32584
7.167618	0.116782	-0.1354932	0	0	0	0
7.184186	0.1158733	-0.1361847	-0.05484467	-0.04173262	-1.655216	-1.259493
7.200751	0.1158733	-0.1361847	0	0	1.655287	1.259547
7.217318	0.1158733	-0.1361847	0	0	0	0
7.233884	0.1158474	-0.1361649	-0.001566908	0.001192721	-0.04729141	0.03599793
7.250452	0.1158474	-0.1361649	0	0	0.04729072	-0.03599742
7.267557	0.1158474	-0.1361649	0	0	0	0
7.283585	0.1158214	-0.1361451	-0.001619954	0.001232745	-0.04889171	0.03720539
7.300151	0.1158214	-0.1361451	0	0	0.04969994	-0.03782044
7.317106	0.1158214	-0.1361451	0	0	0	0
7.333284	0.1158214	-0.1361451	0	0	0	0
7.349851	0.1158214	-0.1361451	0	0	0	0
7.366635	0.1158214	-0.1361451	0	0	0	0
7.383141	0.1158474	-0.1361649	0.001573108	-0.001197097	0.04725412	-0.03595923
7.399652	0.1158474	-0.1361649	0	0	-0.04764654	0.03625785
7.420695	0.1158474	-0.1361649	0	0	0	0
7.432683	0.1158474	-0.1361649	0	0	0	0
7.449251	0.1158474	-0.1361649	0	0	0	0
7.465818	0.1158474	-0.1361649	0	0	0	0
7.482716	0.1158474	-0.1361649	0	0	0	0
7.498951	0.1158474	-0.1361649	0	0	0	0
7.515519	0.1158474	-0.1361649	0	0	0	0
7.532107	0.1158214	-0.1361847	-0.001565285	-0.001191144	-0.04721049	-0.03592603
7.548652	0.1158214	-0.1361847	0	0	0.04724243	0.03595034
7.565218	0.1158214	-0.1361847	0	0	0	0
7.581785	0.1158214	-0.1361847	0	0	0	0
7.598351	0.1158214	-0.1361847	0	0	0	0
7.614918	0.1158214	-0.1361847	0	0	0	0
7.631485	0.1158214	-0.1361847	0	0	0	0
7.648051	0.1158214	-0.1361847	0	0	0	0
7.664618	0.1158214	-0.1361847	0	0	0	0
7.68134	0.1158214	-0.1361847	0	0	0	0
7.69781	0.1158214	-0.1361847	0	0	0	0
7.714318	0.1158214	-0.1361847	0	0	0	0
7.730884	0.1158214	-0.1361847	0	0	0	0
7.747816	0.1158214	-0.1361847	0	0	0	0
7.764316	0.1158214	-0.1361847	0	0	0	0
7.780584	0.1158214	-0.1361847	0	0	0	0
7.797354	0.1158214	-0.1361847	0	0	0	0
7.813718	0.1158214	-0.1361847	0	0	0	0
7.830386	0.1158214	-0.1361847	0	0	0	0
7.846851	0.1158214	-0.1361847	0	0	0	0
7.863419	0.1158214	-0.1361847	0	0	0	0
7.879984	0.1158214	-0.1361847	0	0	0	0
7.896552	0.1158214	-0.1361847	0	0	0	0
7.913119	0.1158214	-0.1361847	0	0	0	0
7.929957	0.1158474	-0.1362044	0.001542014	-0.001173435	0.04616008	-0.03512669
7.946476	0.1158474	-0.1362044	0	0	-0.04622805	0.03517842
7.962966	0.1158474	-0.1362044	0	0	0	0
7.982213	0.1158474	-0.1362044	0	0	0	0
7.998781	0.1158474	-0.1362044	0	0	0	0
8.015533	0.1158474	-0.1362044	0	0	0	0
8.031914	0.1158474	-0.1362044	0	0	0	0
8.048481	0.1158474	-0.1362044	0	0	0	0
8.065057	0.1158474	-0.1362044	0	0	0	0
8.081614	0.1158214	-0.1362242	-0.00156826	-0.001193408	-0.04733291	-0.03601919
8.098181	0.1158214	-0.1362242	0	0	0.04734517	0.03602852
8.114747	0.1158214	-0.1362242	0	0	0	0
8.131313	0.1158214	-0.1362242	0	0	0	0
8.147881	0.1158214	-0.1362242	0	0	0	0
8.164447	0.1158214	-0.1362242	0	0	0	0
8.181013	0.1158214	-0.1362242	0	0	0	0
8.198145	0.1158214	-0.1362242	0	0	0	0
8.214154	0.1158214	-0.1362242	0	0	0	0
8.230713	0.1158214	-0.1362242	0	0	0	0
8.247448	0.1158214	-0.1362242	0	0	0	0
8.263847	0.1158214	-0.1362242	0	0	0	0
8.280413	0.1158214	-0.1362242	0	0	0	0
8.296997	0.1158214	-0.1362242	0	0	0	0
8.313547	0.1158214	-0.1362242	0	0	0	0
8.330113	0.1158214	-0.1362242	0	0	0	0
8.347037	0.1158214	-0.1362242	0	0	0	0
8.363248	0.1158214	-0.1362242	0	0	0	0
8.380044	0.1158214	-0.1362242	0	0	0	0
8.39638	0.1158214	-0.1362242	0	0	0	0
8.412948	0.1158214	-0.1362242	0	0	0	0
8.429586	0.1157954	-0.1362439	-0.00156053	-0.001187525	-0.04699543	-0.03576238
8.446087	0.1157954	-0.1362439	0	0	0.0470901	0.03583442
8.462648	0.1157954	-0.1362439	0	0	0	0
8.479214	0.1157954	-0.1362439	0	0	0	0
8.495781	0.1157954	-0.1362439	0	0	0	0
8.520456	0.1157954	-0.1362439	0	0	0	0
8.532134	0.1157954	-0.1362439	0	0	0	0
8.548701	0.1157954	-0.1362439	0	0	0	0
8.565268	0.1157954	-0.1362439	0	0	0	0
8.581834	0.1157954	-0.1362439	0	0	0	0
8.5984	0.1157954	-0.1362439	0	0	0	0
8.615167	0.1157954	-0.1362439	0	0	0	0
8.631533	0.1157954	-0.1362439	0	0	0	0
8.6481	0.1157954	-0.1362439	0	0	0	0
8.664666	0.1157954	-0.1362439	0	0	0	0
8.681233	0.1157435	-0.1362439	-0.003134534	0	-0.09460314	0
8.6978	0.1157435	-0.1362439	0	0	0.09460314	0
8.714366	0.1157435	-0.1362439	0	0	0	0
8.730932	0.1157176	-0.1362637	-0.001567357	-0.001192721	-0.04730566	-0.03599845
8.747499	0.1157176	-0.1362637	0	0	0.0473043	0.03599742
8.764284	0.1157176	-0.1362637	0	0	0	0
8.783688	0.1156916	-0.1362835	-0.001338178	-0.001018321	-0.03697836	-0.02813963
8.800297	0.1156916	-0.1362835	0	0	0.03715854	0.02827675
8.816822	0.1156916	-0.1362835	0	0	0	0
8.833388	0.1156656	-0.1362637	-0.001567357	0.001192721	-0.04736428	0.03604306
8.849955	0.1156656	-0.1362637	0	0	0.04730566	-0.03599845
8.866522	0.1156656	-0.1362637	0	0	0	0
8.883088	0.1156397	-0.1362835	-0.001567357	-0.001192721	-0.0473043	-0.03599742
8.899655	0.1156397	-0.1362835	0	0	0.0473043	0.03599742
8.916222	0.1156397	-0.1362835	0	0	0	0
8.932788	0.1155877	-0.1362439	-0.003134714	0.002385441	-0.09461132	0.0719969
8.949422	0.1155877	-0.1362439	0	0	0.09441836	-0.07185007
8.965921	0.1155877	-0.1362439	0	0	0	0
8.982488	0.1154319	-0.1361649	-0.009404593	0.004770882	-0.2844206	0.1442845
8.999947	0.1154319	-0.1361649	0	0	0.2764009	-0.1402162
9.015621	0.1154319	-0.1361649	0	0	0	0
9.032187	0.1149905	-0.1359871	-0.02664777	0.01073359	-0.8265215	0.3329186
9.056324	0.1149905	-0.1359871	0	0	0.654691	-0.2637062
9.065885	0.1149905	-0.1359871	0	0	0	0
9.081891	0.1106514	-0.1389325	-0.2710799	-0.1840155	-10.6027	-7.197367
9.098455	0.1106514	-0.1389325	0	0	8.322778	5.6497
9.115022	0.1106514	-0.1389325	0	0	0	0
9.131587	0.08860946	-0.1542916	-1.33061	-0.9271805	-40.16134	-27.98478
9.148154	0.08860946	-0.1542916	0	0	40.16019	27.98397
9.164956	0.08860946	-0.1542916	0	0	0	0
9.181287	0.06572101	-0.142555	-1.401559	0.7186797	-42.30156	21.69105
9.197982	0.06572101	-0.142555	0	0	42.43837	-21.7612
9.214482	0.06572101	-0.142555	0	0	0	0
9.230987	0.03666777	-0.1207237	-1.760345	1.322765	-53.33609	40.07801
9.247554	0.03666777	-0.1207237	0	0	53.22843	-39.99711
9.26412	0.03666777	-0.1207237	0	0	0	0
9.280686	0.02717752	-0.1136066	-0.5728657	0.429616	-17.29012	12.96658
9.297254	0.02717752	-0.1136066	0	0	17.28962	-12.96621
9.313821	0.02717752	-0.1136066	0	0	0	0
9.332022	0.02736159	-0.1136262	0.01011347	-0.00107537	0.2908837	-0.03092979
9.348589	0.02736159	-0.1136262	0	0	-0.2908837	0.03092979
9.365607	0.02736159	-0.1136262	0	0	0	0
9.381722	0.02757196	-0.1136262	0.01305397	0	0.3939809	0
9.39829	0.02757196	-0.1136262	0	0	-0.3994187	0
9.415143	0.02757196	-0.1136262	0	0	0	0
9.431646	0.02767714	-0.1136653	0.006373474	-0.002372869	0.1910705	-0.07113627
9.44799	0.02767714	-0.1136653	0	0	-0.1940328	0.07223917
9.464557	0.02767714	-0.1136653	0	0	0	0
9.481175	0.02783491	-0.1137436	0.009493716	-0.004712786	0.2860845	-0.1420155
9.497701	0.02783491	-0.1137436	0	0	-0.2864385	0.1421912
9.514258	0.02783491	-0.1137436	0	0	0	0
9.530824	0.0279401	-0.113822	0.006349511	-0.004727979	0.1916948	-0.14274
9.54774	0.0279401	-0.113822	0	0	-0.1896418	0.1412113
9.564242	0.0279401	-0.113822	0	0	0	0
9.58077	0.02812416	-0.113959	0.0111371	-0.008293512	0.3371857	-0.2510937
9.597093	0.02812416	-0.113959	0	0	-0.339026	0.2524641
9.614059	0.02812416	-0.113959	0	0	0	0
9.630225	0.02838711	-0.1141157	0.01626575	-0.009690615	0.4909295	-0.2924802
9.646792	0.02838711	-0.1141157	0	0	-0.4969226	0.2960507
9.722991	0.02838711	-0.1141157	0	0	0	0
9.74013	0.02925481	-0.1135087	0.05062595	0.0354149	0.5423937	0.3794263
9.756127	0.02925481	-0.1135087	0	0	-1.527806	-1.068762
9.772693	0.02925481	-0.1135087	0	0	0	0
9.789258	0.02941257	-0.1133912	0.009523424	0.00709107	0.2874506	0.2140335
9.805832	0.02941257	-0.1133912	0	0	-0.2873762	-0.2139781
9.822392	0.02941257	-0.1133912	0	0	0	0
9.838958	0.02951774	-0.1133129	0.006348584	0.004727257	0.1916503	0.1427059
9.855729	0.02951774	-0.1133129	0	0	-0.1904332	-0.1417996
9.872091	0.02951774	-0.1133129	0	0	0	0
9.888727	0.0296492	-0.1134108	0.007902408	-0.005884008	0.2394808	-0.1783136
9.905231	0.0296492	-0.1134108	0	0	-0.238454	0.177549
9.921791	0.0296492	-0.1134108	0	0	0	0
9.938357	0.02972808	-0.1134695	0.004761326	-0.003545331	0.1437343	-0.107026
9.955258	0.02972808	-0.1134695	0	0	-0.142268	0.1059342
9.971491	0.02972808	-0.1134695	0	0	0	0
9.988057	0.02980696	-0.1135283	0.004761326	-0.003545331	0.1451678	-0.1080934
10.00463	0.02980696	-0.1135283	0	0	-0.1436888	0.1069921
10.02119	0.02980696	-0.1135283	0	0	0	0
10.03776	0.02991213	-0.1136066	0.006348837	-0.004727979	0.1916358	-0.1427112
10.05433	0.02991213	-0.1136066	0	0	-0.1916138	0.1426948
10.07089	0.02991213	-0.1136066	0	0	0	0
10.08746	0.0300173	-0.1136849	0.006348359	-0.004727257	0.1916049	-0.1426771
10.10403	0.0300173	-0.1136849	0	0	-0.1915939	0.1426689
10.12059	0.0300173	-0.1136849	0	0	0	0
10.13716	0.03012246	-0.1137632	0.006348612	-0.004727979	0.191618	-0.142703
10.15388	0.03012246	-0.1137632	0	0	-0.1907341	0.1420447
10.17044	0.03012246	-0.1137632	0	0	0	0
10.18971	0.03054313	-0.1140765	0.02182905	-0.01625752	0.6091175	-0.4536495
10.20628	0.03054313	-0.1140765	0	0	-0.6091013	0.4536374
10.22285	0.03054313	-0.1140765	0	0	0	0
10.23942	0.03393434	-0.1166039	0.2047054	-0.1525635	6.178199	-4.604506
10.25598	0.03393434	-0.1166039	0	0	-6.178199	4.604506
10.27255	0.03393434	-0.1166039	0	0	0	0
10.28911	0.03385548	-0.1165843	-0.004760363	0.001183344	-0.1436804	0.03571648
10.30593	0.03385548	-0.1165843	0	0	0.1425928	-0.0354461
10.32225	0.03385548	-0.1165843	0	0	0	0
10.33881	0.03388176	-0.1166039	0.001586696	-0.001183276	0.04825604	-0.03598686
10.35538	0.03388176	-0.1166039	0	0	-0.04788797	0.03571237
10.37195	0.03388176	-0.1166039	0	0	0	0
10.38852	0.03388176	-0.1166039	0	0	0	0
10.40508	0.03388176	-0.1166039	0	0	0	0
10.42165	0.03388176	-0.1166039	0	0	0	0
10.43821	0.03385548	-0.1166235	-0.001586696	-0.001183276	-0.04788934	-0.03571339
10.45478	0.03385548	-0.1166235	0	0	0.04788934	0.03571339
10.47135	0.03385548	-0.1166235	0	0	0	0
10.48791	0.03385548	-0.1166235	0	0	0	0
10.50448	0.03385548	-0.1166235	0	0	0	0
10.52105	0.03385548	-0.1166235	0	0	0	0
10.53761	0.03385548	-0.1166235	0	0	0	0
10.55418	0.03385548	-0.1166235	0	0	0	0
10.57075	0.03385548	-0.1166235	0	0	0	0
10.58731	0.03385548	-0.1166235	0	0	0	0
10.60389	0.03385548	-0.1166235	0	0	0	0
10.62045	0.03385548	-0.1166235	0	0	0	0
10.63701	0.03385548	-0.1166235	0	0	0	0
10.65358	0.03385548	-0.1166235	0	0	0	0
10.67021	0.03385548	-0.1166235	0	0	0	0
10.68671	0.03385548	-0.1166235	0	0	0	0
10.70328	0.03385548	-0.1166235	0	0	0	0
10.7212	0.03385548	-0.1166235	0	0	0	0
10.73652	0.03382919	-0.1166431	-0.001716327	-0.001279948	-0.05163686	-0.0385081
10.75304	0.03382919	-0.1166431	0	0	0.05390581	0.04020017
10.76955	0.03382919	-0.1166431	0	0	0	0
10.78611	0.03382919	-0.1166431	0	0	0	0
10.80268	0.03382919	-0.1166431	0	0	0	0
10.81925	0.03382919	-0.1166431	0	0	0	0
10.83581	0.03382919	-0.1166431	0	0	0	0
10.85238	0.03382919	-0.1166431	0	0	0	0
10.86962	0.03382919	-0.1166431	0	0	0	0
10.88551	0.03382919	-0.1166431	0	0	0	0
10.90215	0.03382919	-0.1166431	0	0	0	0
10.91916	0.03382919	-0.1166431	0	0	0	0
10.93521	0.03382919	-0.1166431	0	0	0	0
10.95178	0.03382919	-0.1166431	0	0	0	0
10.96872	0.03382919	-0.1166431	0	0	0	0
10.98524	0.03382919	-0.1166431	0	0	0	0
11.00148	0.03382919	-0.1166431	0	0	0	0
11.01805	0.03382919	-0.1166431	0	0	0	0
11.03461	0.03382919	-0.1166431	0	0	0	0
11.05118	0.03382919	-0.1166431	0	0	0	0
11.06812	0.03382919	-0.1166431	0	0	0	0
11.08431	0.03382919	-0.1166431	0	0	0	0
11.10113	0.03382919	-0.1166431	0	0	0	0
11.11767	0.03382919	-0.1166431	0	0	0	0
11.13401	0.03382919	-0.1166431	0	0	0	0
11.15067	0.03382919	-0.1166431	0	0	0	0
11.16715	0.03382919	-0.1166431	0	0	0	0
11.18371	0.03382919	-0.1166431	0	0	0	0
11.20028	0.03382919	-0.1166431	0	0	0	0
11.21722	0.03382919	-0.1166431	0	0	0	0
11.23341	0.03382919	-0.1166431	0	0	0	0
11.25024	0.03382919	-0.1166431	0	0	0	0
11.26655	0.03382919	-0.1166431	0	0	0	0
11.29072	0.03382919	-0.1166431	0	0	0	0
11.29968	0.03382919	-0.1166431	0	0	0	0
11.31625	0.03382919	-0.1166431	0	0	0	0
11.33282	0.03382919	-0.1166431	0	0	0	0
11.34938	0.03382919	-0.1166431	0	0	0	0
11.36595	0.03382919	-0.1166431	0	0	0	0
11.38251	0.03382919	-0.1166431	0	0	0	0
11.39908	0.03382919	-0.1166431	0	0	0	0
11.41586	0.03382919	-0.1166431	0	0	0	0
11.43236	0.03382919	-0.1166431	0	0	0	0
11.44878	0.03382919	-0.1166431	0	0	0	0
11.46535	0.03382919	-0.1166431	0	0	0	0
11.48191	0.03382919	-0.1166431	0	0	0	0
11.49848	0.03382919	-0.1166431	0	0	0	0
11.51505	0.03382919	-0.1166431	0	0	0	0
11.53161	0.03382919	-0.1166431	0	0	0	0
11.54818	0.03382919	-0.1166431	0	0	0	0
11.56475	0.03382919	-0.1166431	0	0	0	0
11.58131	0.03382919	-0.1166431	0	0	0	0
11.59792	0.03382919	-0.1166431	0	0	0	0
11.61444	0.03380291	-0.1166627	-0.00159045	-0.001186076	-0.04800264	-0.03579789
11.63101	0.03380291	-0.1166627	0	0	0.04805797	0.03583916
11.64758	0.03380291	-0.1166627	0	0	0	0
11.66414	0.03380291	-0.1166627	0	0	0	0
11.68071	0.03380291	-0.1166627	0	0	0	0
11.69728	0.03380291	-0.1166627	0	0	0	0
11.714	0.03380291	-0.1166627	0	0	0	0
11.73041	0.03380291	-0.1166627	0	0	0	0
11.74698	0.03380291	-0.1166627	0	0	0	0
11.76354	0.03380291	-0.1166627	0	0	0	0
11.78011	0.03380291	-0.1166627	0	0	0	0
11.79668	0.03380291	-0.1166627	0	0	0	0
11.81357	0.03380291	-0.1166627	0	0	0	0
11.82981	0.03380291	-0.1166627	0	0	0	0
11.84638	0.03380291	-0.1166627	0	0	0	0
11.86294	0.03380291	-0.1166627	0	0	0	0
11.87951	0.03380291	-0.1166627	0	0	0	0
11.89608	0.03380291	-0.1166627	0	0	0	0
11.91266	0.03380291	-0.1166627	0	0	0	0
11.92921	0.03380291	-0.1166627	0	0	0	0
11.94618	0.03380291	-0.1166627	0	0	0	0
11.96234	0.03380291	-0.1166627	0	0	0	0
11.97891	0.03380291	-0.1166627	0	0	0	0
11.99548	0.03380291	-0.1166627	0	0	0	0
12.01204	0.03380291	-0.1166627	0	0	0	0
12.02861	0.03380291	-0.1166627	0	0	0	0
12.04518	0.03380291	-0.1166627	0	0	0	0
12.06174	0.03380291	-0.1166627	0	0	0	0
12.07831	0.03380291	-0.1166627	0	0	0	0
12.09488	0.03380291	-0.1166627	0	0	0	0
12.11193	0.03380291	-0.1166627	0	0	0	0
12.1285	0.03380291	-0.1166627	0	0	0	0
12.14507	0.03380291	-0.1166627	0	0	0	0
12.16184	0.03380291	-0.1166627	0	0	0	0
12.1782	0.03380291	-0.1166627	0	0	0	0
12.19477	0.03380291	-0.1166627	0	0	0	0
12.21136	0.03380291	-0.1166627	0	0	0	0
12.2279	0.03380291	-0.1166627	0	0	0	0
12.24447	0.03380291	-0.1166627	0	0	0	0
12.26103	0.03380291	-0.1166627	0	0	0	0
12.2776	0.03380291	-0.1166627	0	0	0	0
12.29442	0.03380291	-0.1166627	0	0	0	0
12.31073	0.03380291	-0.1166627	0	0	0	0
12.32744	0.03380291	-0.1166627	0	0	0	0
12.34444	0.03380291	-0.1166627	0	0	0	0
12.36048	0.03380291	-0.1166627	0	0	0	0
12.377	0.03380291	-0.1166627	0	0	0	0
12.39357	0.03380291	-0.1166627	0	0	0	0
12.41013	0.03377662	-0.1166823	-0.001586788	-0.001183344	-0.04789348	-0.03571648
12.4267	0.03377662	-0.1166823	0	0	0.04789072	0.03571443
12.44327	0.03377662	-0.1166823	0	0	0	0
12.46002	0.03377662	-0.1168	0	-0.007019689	0	-0.2106602
12.4764	0.03377662	-0.1168	0	0	0	0.2118607
12.49305	0.03377662	-0.1168	0	0	0	0
12.50953	0.03388176	-0.1170744	0.006376518	-0.01664528	0.1924548	-0.5023844
12.52658	0.03388176	-0.1170744	0	0	-0.1901614	0.4963977
12.54267	0.03388176	-0.1170744	0	0	0	0
12.55923	0.04559994	-0.1258732	0.7073514	-0.5311249	21.66024	-16.2639
12.5758	0.04559994	-0.1258732	0	0	-21.34852	16.02984
12.59237	0.04559994	-0.1258732	0	0	0	0
12.60915	0.06797406	-0.1427927	1.333236	-1.008209	39.9794	-30.23289
12.6255	0.06797406	-0.1427927	0	0	-40.23832	30.42868
12.64207	0.06797406	-0.1427927	0	0	0	0
12.6592	0.08077126	-0.1528188	0.746777	-0.5850684	22.15768	-17.35961
12.67577	0.08077126	-0.1528188	0	0	-22.15705	17.35912
12.69234	0.08077126	-0.1528188	0	0	0	0
12.70891	0.08163396	-0.1534755	0.05207584	-0.03963862	1.571697	-1.19633
12.72547	0.08163396	-0.1534755	0	0	-1.571697	1.19633
12.74204	0.08163396	-0.1534755	0	0	0	0
12.75861	0.08160783	-0.1534556	-0.001577701	0.001201716	-0.04761786	0.03626994
12.77517	0.08160783	-0.1534556	0	0	0.04761786	-0.03626994
12.79174	0.08160783	-0.1534556	0	0	0	0
12.8083	0.08160783	-0.153376	0	0.004805063	0	0.1450254
12.82487	0.08160783	-0.153376	0	0	0	-0.1450213
12.84144	0.08160783	-0.153376	0	0	0	0
12.858	0.08163396	-0.1533561	0.001577701	0.001201716	0.04761786	0.03626994
12.87475	0.08163396	-0.1533561	0	0	-0.04736293	-0.03607576
12.89126	0.08163396	-0.1533561	0	0	0	0
12.9078	0.08171239	-0.1532566	0.004743287	0.006017657	0.1435286	0.1820902
12.92427	0.08171239	-0.1532566	0	0	-0.1436945	-0.1823006
12.94103	0.08171239	-0.1532566	0	0	0	0
12.9574	0.08197378	-0.1530178	0.01596632	0.01458467	0.481906	0.4402042
12.97397	0.08197378	-0.1530178	0	0	-0.4847384	-0.4427915
12.99058	0.08197378	-0.1530178	0	0	0	0
13.00757	0.08192151	-0.1529382	-0.003075898	0.004683116	-0.09153979	0.1393711
13.02367	0.08192151	-0.1529382	0	0	0.09294581	-0.1415119
13.04024	0.08192151	-0.1529382	0	0	0	0
13.0568	0.07904548	-0.1507506	-0.1736074	0.1320538	-5.239784	3.98562
13.07337	0.07904548	-0.1507506	0	0	5.239633	-3.985506
13.09014	0.07904548	-0.1507506	0	0	0	0
13.1065	0.0671096	-0.1417826	-0.7292245	0.5479019	-22.00867	16.53619
13.12307	0.0671096	-0.1417826	0	0	22.14187	-16.63627
13.13964	0.0671096	-0.1417826	0	0	0	0
13.15637	0.0296755	-0.1143311	-2.236865	1.640354	-67.17038	49.25788
13.17294	0.0296755	-0.1143311	0	0	67.16461	-49.25365
13.18951	0.0296755	-0.1143311	0	0	0	0
13.20624	0.003868402	-0.09674574	-1.542711	1.051227	-46.33375	31.57253
13.22264	0.003868402	-0.09674574	0	0	46.56448	-31.72976
13.2392	0.003868402	-0.09674574	0	0	0	0
13.25578	-0.03133185	-0.1074271	-2.123347	-0.6443211	-64.06429	-19.44006
13.2728	-0.03133185	-0.1074271	0	0	63.21127	19.18121
13.28891	-0.03133185	-0.1074271	0	0	0	0
13.30582	-0.1092215	-0.1077006	-4.604161	-0.01616451	-139.4073	-0.4894376
13.32204	-0.1092215	-0.1077006	0	0	138.9619	0.4878739
13.33861	-0.1092215	-0.1077006	0	0	0	0
13.35517	-0.1827027	-0.104538	-4.437381	0.1909788	-133.9281	5.764084
13.37174	-0.1827027	-0.104538	0	0	133.9513	-5.76508
13.38889	-0.1827027	-0.104538	0	0	0	0
13.40487	-0.2238929	-0.09204259	-2.578257	0.7821417	-77.81642	23.60644
13.42144	-0.2238929	-0.09204259	0	0	79.22571	-24.03396
13.438	-0.2238929	-0.09204259	0	0	0	0
13.45457	-0.24916	-0.07242479	-1.525217	1.184201	-46.03379	35.7413
13.47114	-0.24916	-0.07242479	0	0	46.03379	-35.7413
13.48771	-0.24916	-0.07242479	0	0	0	0
13.50469	-0.2703713	-0.05606687	-1.248898	0.9631379	-37.22151	28.70487
13.52084	-0.2703713	-0.05606687	0	0	37.69507	-29.07007
13.5374	-0.2703713	-0.05606687	0	0	0	0
13.55421	-0.286597	-0.0436539	-0.9652203	0.7384096	-28.91899	22.12351
13.57054	-0.286597	-0.0436539	0	0	29.13124	-22.28589
13.58725	-0.286597	-0.0436539	0	0	0	0
13.60376	-0.2867907	-0.04350121	-0.01173478	0.009250683	-0.3532108	0.2784409
13.62027	-0.2867907	-0.04350121	0	0	0.3554042	-0.2801699
13.6368	-0.2867907	-0.04350121	0	0	0	0
13.65337	-0.2867665	-0.04344396	0.001462567	0.003456056	0.04418996	0.1044212
13.66994	-0.2867665	-0.04344396	0	0	-0.04414036	-0.104304
13.6868	-0.2867665	-0.04344396	0	0	0	0
13.70307	-0.287178	-0.04216555	-0.02529788	0.07858529	-0.7635355	2.371845
13.71964	-0.287178	-0.04216555	0	0	0.7704098	-2.3932
13.73621	-0.287178	-0.04216555	0	0	0	0
13.75285	-0.2853617	-0.04035383	0.1091172	0.1088421	3.285598	3.277316
13.76938	-0.2853617	-0.04035383	0	0	-3.289092	-3.280802
13.7859	-0.2853617	-0.04035383	0	0	0	0
13.80386	-0.2853375	-0.04033476	0.001349387	0.001061833	0.03913523	0.03079553
13.82044	-0.2853375	-0.04033476	0	0	-0.03907471	-0.0307479
13.837	-0.2853375	-0.04033476	0	0	0	0
13.85356	-0.2812376	-0.03654323	0.247485	0.2288706	7.471478	6.909515
13.87013	-0.2812376	-0.03654323	0	0	-7.469328	-6.907527
13.88697	-0.2812376	-0.03654323	0	0	0	0
13.90348	-0.2754229	-0.009905444	0.352211	1.613526	10.55984	48.37606
13.91983	-0.2754229	-0.009905444	0	0	-10.71984	-49.10903
13.9364	-0.2754229	-0.009905444	0	0	0	0
13.95373	-0.2707134	0.01490412	0.2716792	1.431189	8.013623	42.21525
13.9703	-0.2707134	0.01490412	0	0	-8.013397	-42.21407
13.98706	-0.2707134	0.01490412	0	0	0	0
14.00357	-0.2655505	0.01885619	0.3126227	0.2393052	9.396299	7.192643
14.02	-0.2655505	0.01885619	0	0	-9.489324	-7.263851
14.03657	-0.2655505	0.01885619	0	0	0	0
14.05357	-0.265575	0.01894979	-0.001441256	0.005506513	-0.04293248	0.1640293
14.0701	-0.265575	0.01894979	0	0	0.04299355	-0.1642627
14.08627	-0.265575	0.01894979	0	0	0	0
14.10283	-0.2675587	0.02712062	-0.1197692	0.4933345	-3.658444	15.06929
14.1194	-0.2675587	0.02712062	0	0	3.615057	-14.89058
14.13612	-0.2675587	0.02712062	0	0	0	0
14.15264	-0.2676076	0.02734473	-0.002963222	0.01356231	-0.08915565	0.4080546
14.1691	-0.2676076	0.02734473	0	0	0.08982838	-0.4111336
14.18567	-0.2676076	0.02734473	0	0	0	0
14.20224	-0.2674363	0.027214	0.0103429	-0.00789166	0.3121674	-0.2381845
14.2192	-0.2674363	0.027214	0	0	-0.3084475	0.2353461
14.23537	-0.2674363	0.027214	0	0	0	0
14.25194	-0.2668487	0.02676576	0.03547473	-0.02706227	1.083761	-0.826759
14.26851	-0.2668487	0.02676576	0	0	-1.070598	0.8167176
14.28507	-0.2668487	0.02676576	0	0	0	0
14.30385	-0.2667263	0.02667237	0.00651749	-0.004971708	0.184386	-0.1406544
14.32062	-0.2667263	0.02667237	0	0	-0.1833079	0.1398319
14.33699	-0.2667263	0.02667237	0	0	0	0
14.35366	-0.2665549	0.02654162	0.010282	-0.007842553	0.3112342	-0.2373925
14.37012	-0.2665549	0.02654162	0	0	-0.3103204	0.2366955
14.38719	-0.2665549	0.02654162	0	0	0	0
14.40326	-0.2661875	0.02626142	0.0228635	-0.01743683	0.6900417	-0.5262597
14.41982	-0.2661875	0.02626142	0	0	-0.7005265	0.5342559
14.43639	-0.2661875	0.02626142	0	0	0	0
14.45362	-0.266114	0.02616801	0.004263408	-0.005420711	0.126143	-0.1603845
14.47019	-0.266114	0.02616801	0	0	-0.126143	0.1603845
14.48676	-0.266114	0.02616801	0	0	0	0
14.50332	-0.2660405	0.02611197	0.004436528	-0.003383168	0.1338985	-0.1021071
14.51989	-0.2660405	0.02611197	0	0	-0.1338985	0.1021071
14.53646	-0.2660405	0.02611197	0	0	0	0
14.55302	-0.2658935	0.02599988	0.008873057	-0.00676656	0.2678125	-0.2042328
14.56959	-0.2658935	0.02599988	0	0	-0.2678048	0.204227
14.58616	-0.2658935	0.02599988	0	0	0	0
14.60273	-0.265771	0.0258691	0.007394311	-0.007892878	0.2231543	-0.2382007
14.61929	-0.265771	0.0258691	0	0	-0.2231607	0.2382075
14.63586	-0.265771	0.0258691	0	0	0	0
14.65258	-0.2629022	0.02368256	0.1715302	-0.1307382	5.152175	-3.926925
14.66908	-0.2629022	0.02368256	0	0	-5.163564	3.935605
14.68612	-0.2629022	0.02368256	0	0	0	0
14.70213	-0.2549842	0.01765793	0.4946179	-0.3763421	14.9655	-11.38687
14.71869	-0.2549842	0.01765793	0	0	-15.18591	11.55457
14.73562	-0.2549842	0.01765793	0	0	0	0
14.75214	-0.2295148	-0.001590008	1.541687	-1.165094	46.08386	-34.82682
14.76839	-0.2295148	-0.001590008	0	0	-47.05093	35.55766
14.78517	-0.2295148	-0.001590008	0	0	0	0
14.80152	-0.1961047	-0.02652506	2.043572	-1.525188	61.68045	-46.03424
14.81818	-0.1961047	-0.02652506	0	0	-61.90855	46.20448
14.83521	-0.1961047	-0.02652506	0	0	0	0
14.85122	-0.1510254	-0.05946143	2.814642	-2.056465	85.19125	-62.2434
14.86779	-0.1510254	-0.05946143	0	0	-86.38313	63.11422
14.88451	-0.1510254	-0.05946143	0	0	0	0
14.90092	-0.09784445	-0.08465479	3.239661	-1.534721	97.77879	-46.32063
14.91753	-0.09784445	-0.08465479	0	0	-98.11485	46.47984
14.93406	-0.09784445	-0.08465479	0	0	0	0
14.95062	-0.009078698	-0.09604558	5.360998	-0.6879455	161.9817	-20.78617
14.96719	-0.009078698	-0.09604558	0	0	-161.8465	20.76881
14.98375	-0.009078698	-0.09604558	0	0	0	0
15.00032	0.08503132	-0.1136849	5.680819	-1.064773	171.4573	-32.13675
15.01689	0.08503132	-0.1136849	0	0	-171.4524	32.13583
15.03363	0.08503132	-0.1136849	0	0	0	0
15.05011	0.1283174	-0.1297522	2.627119	-0.9751548	79.0863	-29.35588
15.06663	0.1283174	-0.1297522	0	0	-79.60278	29.54759
15.08315	0.1283174	-0.1297522	0	0	0	0
15.09972	0.1300513	-0.1313488	0.1046644	-0.096381	3.163239	-2.912893
15.11629	0.1300513	-0.1313488	0	0	-3.158959	2.908952
15.13285	0.1300513	-0.1313488	0	0	0	0
15.14942	0.1282656	-0.1324336	-0.107783	-0.06547623	-3.252991	-1.976133
15.1662	0.1282656	-0.1324336	0	0	3.232152	1.963474
15.18255	0.1282656	-0.1324336	0	0	0	0
15.19912	0.1277479	-0.1322363	-0.0312527	0.01190742	-0.9493563	0.361709
15.21574	0.1277479	-0.1322363	0	0	0.9418529	-0.3588502
15.23226	0.1277479	-0.1322363	0	0	0	0
15.24882	0.1265309	-0.1313883	-0.07348987	0.05121228	-2.221317	1.547951
15.26578	0.1265309	-0.1313883	0	0	2.192498	-1.527868
15.28195	0.1265309	-0.1313883	0	0	0	0
15.29852	0.1168599	-0.124516	-0.5836788	0.414764	-17.82582	12.66708
15.31509	0.1168599	-0.124516	0	0	17.61546	-12.5176
15.33184	0.1168599	-0.124516	0	0	0	0
15.34822	0.1010494	-0.1130193	-0.9652122	0.7018619	-29.13184	21.18345
15.36486	0.1010494	-0.1130193	0	0	29.22859	-21.25381
15.38135	0.1010494	-0.1130193	0	0	0	0
15.39792	0.09547202	-0.1089901	-0.3366697	0.2432138	-10.18475	7.357573
15.41479	0.09547202	-0.1089901	0	0	10.06856	-7.273634
15.43105	0.09547202	-0.1089901	0	0	0	0
15.44781	0.09466358	-0.1083844	-0.04825313	0.03615683	-1.461414	1.09506
15.46419	0.09466358	-0.1083844	0	0	1.456366	-1.091278
15.48083	0.09466358	-0.1083844	0	0	0	0
15.49734	0.09461142	-0.1083453	-0.003159387	0.002366946	-0.09530661	0.07140168
15.51389	0.09461142	-0.1083453	0	0	0.09556229	-0.07159323
15.53045	0.09461142	-0.1083453	0	0	0	0
15.54702	0.09461142	-0.1083453	0	0	0	0
15.56359	0.09461142	-0.1083453	0	0	0	0
15.58015	0.09461142	-0.1083453	0	0	0	0
15.59692	0.09455926	-0.1083453	-0.003110693	0	-0.09331687	0
15.61329	0.09455926	-0.1083453	0	0	0.0938836	0
15.62985	0.09455926	-0.1083453	0	0	0	0
15.64645	0.0945071	-0.1083844	-0.003143409	-0.002354975	-0.0947946	-0.07101809
15.66299	0.0945071	-0.1083844	0	0	0.094871	0.07107533
15.67979	0.0945071	-0.1083844	0	0	0	0
15.69612	0.09453318	-0.1084039	0.001597172	-0.001196168	0.04820412	-0.03610146
15.71269	0.09453318	-0.1084039	0	0	-0.04854787	0.0363589
15.72925	0.09453318	-0.1084039	0	0	0	0
15.74582	0.09453318	-0.1084039	0	0	0	0
15.76239	0.09453318	-0.1084039	0	0	0	0
15.77936	0.09453318	-0.1084039	0	0	0	0
15.79552	0.09453318	-0.1084039	0	0	0	0
15.81209	0.09453318	-0.1084039	0	0	0	0
15.82866	0.09453318	-0.1084039	0	0	0	0
15.84522	0.09453318	-0.1084039	0	0	0	0
15.86192	0.09453318	-0.1084039	0	0	0	0
15.87842	0.09453318	-0.1084039	0	0	0	0
15.89493	0.09445494	-0.1084234	-0.004738212	-0.001183425	-0.1435283	-0.0358479
15.91149	0.09445494	-0.1084234	0	0	0.1432799	0.03578588
15.92805	0.09445494	-0.1084234	0	0	0	0
15.94462	0.09406369	-0.1087165	-0.02361695	-0.01769292	-0.7127814	-0.5339888
15.96144	0.09406369	-0.1087165	0	0	0.7074465	0.5299921
15.97776	0.09406369	-0.1087165	0	0	0	0
15.99432	0.09395936	-0.1087947	-0.006297763	-0.004718263	-0.191511	-0.1434794
16.01099	0.09395936	-0.1087947	0	0	0.1894833	0.1419603
16.02748	0.09395936	-0.1087947	0	0	0	0
16.04402	0.09395936	-0.1087947	0	0	0	0
16.06103	0.09395936	-0.1087947	0	0	0	0
16.07753	0.09395936	-0.1087947	0	0	0	0
16.09372	0.09395936	-0.1087947	0	0	0	0
16.11029	0.09395936	-0.1087947	0	0	0	0
16.12685	0.09395936	-0.1087947	0	0	0	0
16.14408	0.09393328	-0.1088142	-0.001514315	-0.001134547	-0.04481218	-0.03357393
16.16011	0.09393328	-0.1088142	0	0	0.04553698	0.03411697
16.17655	0.09393328	-0.1088142	0	0	0	0
16.19312	0.09395936	-0.1088338	0.001574463	-0.00117961	0.04769308	-0.03573235
16.20969	0.09395936	-0.1088338	0	0	-0.04751737	0.0356007
16.22666	0.09395936	-0.1088338	0	0	0	0
16.24282	0.09382894	-0.1089315	-0.00806926	-0.006045606	-0.2435448	-0.1824673
16.25939	0.09382894	-0.1089315	0	0	0.2465394	0.1847109
16.27596	0.09382894	-0.1089315	0	0	0	0
16.29269	0.08573667	-0.1149971	-0.4836616	-0.3625282	-14.52503	-10.88723
16.30919	0.08573667	-0.1149971	0	0	14.55087	10.90659
16.32566	0.08573667	-0.1149971	0	0	0	0
16.34222	0.04987964	-0.1419608	-2.164583	-1.627721	-65.53853	-49.28359
16.35879	0.04987964	-0.1419608	0	0	65.33102	49.12755
16.37536	0.04987964	-0.1419608	0	0	0	0
16.39192	0.02131256	-0.1636273	-1.724312	-1.307795	-52.03985	-39.46933
16.40849	0.02131256	-0.1636273	0	0	52.03985	39.46933
16.42506	0.02131256	-0.1636273	0	0	0	0
16.44178	0.01315714	-0.169752	-0.4877701	-0.3663114	-14.65345	-11.00462
16.45819	0.01315714	-0.169752	0	0	14.72178	11.05594
16.4748	0.01315714	-0.169752	0	0	0	0
16.49183	0.01160474	-0.1708145	-0.09119343	-0.06241421	-2.711332	-1.855678
16.50789	0.01160474	-0.1708145	0	0	2.756031	1.886271
16.52446	0.01160474	-0.1708145	0	0	0	0
16.54102	0.01165737	-0.1707744	0.00317678	0.002420661	0.09588092	0.07305989
16.55759	0.01165737	-0.1707744	0	0	-0.09588092	-0.07305989
16.57416	0.01165737	-0.1707744	0	0	0	0
16.59072	0.01178893	-0.170634	0.007941977	0.008472762	0.2397031	0.2557232
16.60729	0.01178893	-0.170634	0	0	-0.2397031	-0.2557232
16.62386	0.01178893	-0.170634	0	0	0	0
16.64042	0.01199942	-0.1703533	0.01270701	0.01694372	0.3835424	0.5114215
16.65699	0.01199942	-0.1703533	0	0	-0.3835203	-0.5113921
16.67356	0.01199942	-0.1703533	0	0	0	0
16.69024	0.01249935	-0.1696919	0.02995485	0.03963482	0.900721	1.191791
16.70669	0.01249935	-0.1696919	0	0	-0.9040393	-1.196181
16.72377	0.01249935	-0.1696919	0	0	0	0
16.74457	0.02904446	-0.1541323	0.795452	0.7480686	21.00141	19.7504
16.76477	0.02904446	-0.1541323	0	0	-19.39929	-18.24372
16.77855	0.02904446	-0.1375088	0	1.2063	0	35.49492
16.79541	0.02904446	-0.1375088	0	0	0	-39.373
16.81169	0.02904446	-0.1375088	0	0	0	0
16.82825	0.01384122	-0.1097915	-0.9176695	1.673015	-27.93979	50.93739
16.84482	0.01384122	-0.1097915	0	0	27.69532	-50.49171
16.86145	0.01384122	-0.1097915	0	0	0	0
16.87798	-0.0001578947	-0.09563722	-0.8473295	0.8567238	-25.55627	25.83961
16.89452	-0.0001578947	-0.09563722	0	0	25.62556	-25.90967
16.91109	-0.0001578947	-0.09563722	0	0	0	0
16.92765	-0.0003421053	-0.09561778	-0.01111897	0.001173764	-0.3355711	0.03542426
16.94422	-0.0003421053	-0.09561778	0	0	0.3355711	-0.03542426
16.96079	-0.0003421053	-0.09561778	0	0	0	0
16.97736	-0.0002894737	-0.09569556	0.003176848	-0.004694606	0.09587746	-0.1416835
16.99392	-0.0002894737	-0.09569556	0	0	-0.09587746	0.1416835
17.01057	-0.0002894737	-0.09569556	0	0	0	0
17.02708	-0.0002105263	-0.09575389	0.004782893	-0.003534312	0.1442484	-0.1065921
17.04362	-0.0002105263	-0.09575389	0	0	-0.1447229	0.1069428
17.06019	-0.0002105263	-0.09575389	0	0	0	0
17.07711	0.000368421	-0.0962595	0.03421656	-0.02988187	1.021777	-0.8923338
17.09332	0.000368421	-0.0962595	0	0	-1.032717	0.9018884
17.10989	0.000368421	-0.0962595	0	0	0	0
17.12646	0.001210526	-0.09711536	0.05083539	-0.05166595	1.534304	-1.559371
17.14302	0.001210526	-0.09711536	0	0	-1.534304	1.559371
17.15959	0.001210526	-0.09711536	0	0	0	0
17.17618	0.001157894	-0.09730991	-0.00317246	-0.01172683	-0.09567893	-0.3536722
17.19272	0.001157894	-0.09730991	0	0	0.09575054	0.3539369
17.20929	0.001157894	-0.09730991	0	0	0	0
17.22586	0.001210526	-0.09758231	0.003176843	-0.01644214	0.0958773	-0.4962247
17.24242	0.001210526	-0.09758231	0	0	-0.0958773	0.4962247
17.25899	0.001210526	-0.09758231	0	0	0	0
17.27575	0.001236841	-0.0976796	0.001569803	-0.005803597	0.0470975	-0.1741205
17.29212	0.001236841	-0.0976796	0	0	-0.04737947	0.175163
17.30869	0.001236841	-0.0976796	0	0	0	0
17.32526	0.001263157	-0.09769906	0.001588608	-0.001174798	0.04794703	-0.03545753
17.34195	0.001263157	-0.09769906	0	0	-0.04776281	0.0353213
17.35846	0.001263157	-0.09769906	0	0	0	0
17.37496	0.001315789	-0.09769906	0.003191171	0	0.0966882	0
17.39152	0.001315789	-0.09769906	0	0	-0.09652643	0
17.40851	0.001315789	-0.09769906	0	0	0	0
17.42466	0.001631577	-0.09793258	0.01955638	-0.01446134	0.5902466	-0.4364692
17.44122	0.001631577	-0.09793258	0	0	-0.5977829	0.4420421
17.45779	0.001631577	-0.09793258	0	0	0	0
17.47455	0.01092062	-0.1048112	0.5541799	-0.4103754	16.62755	-12.31286
17.49092	0.01092062	-0.1048112	0	0	-16.72518	12.38515
17.50758	0.01092062	-0.1048112	0	0	0	0
17.52406	0.0330406	-0.1212343	1.342429	-0.996691	40.51691	-30.08193
17.54062	0.0330406	-0.1212343	0	0	-40.62449	30.1618
17.55719	0.0330406	-0.1212343	0	0	0	0
17.57376	0.04573125	-0.1306982	0.7660972	-0.5713114	23.12219	-17.24321
17.59032	0.04573125	-0.1306982	0	0	-23.12219	17.24321
17.60689	0.04573125	-0.1306982	0	0	0	0
17.62358	0.04570499	-0.1306785	-0.001573977	0.001181655	-0.04733651	0.03553763
17.64003	0.04570499	-0.1306785	0	0	0.04749999	-0.03566037
17.65659	0.04570499	-0.1306785	0	0	0	0
17.67316	0.04565247	-0.1306391	-0.003170287	0.002379907	-0.09568495	0.07182988
17.69013	0.04565247	-0.1306391	0	0	0.09452051	-0.07095575
17.70629	0.04565247	-0.1306391	0	0	0	0
17.72286	0.04557369	-0.1305799	-0.004755317	0.003569861	-0.1453057	0.1090824
17.73943	0.04557369	-0.1305799	0	0	0.1435158	-0.1077386
17.75599	0.04557369	-0.1305799	0	0	0	0
17.77267	0.04557369	-0.1305799	0	0	0	0
17.78919	0.04557369	-0.1305799	0	0	0	0
17.80569	0.04557369	-0.1305799	0	0	0	0
17.82226	0.04557369	-0.1305799	0	0	0	0
17.83883	0.04557369	-0.1305799	0	0	0	0
17.86115	0.04557369	-0.1305799	0	0	0	0
17.87218	0.04557369	-0.1305799	0	0	0	0
17.88881	0.04557369	-0.1305799	0	0	0	0
17.90532	0.04557369	-0.1305799	0	0	0	0
17.92188	0.04557369	-0.1305799	0	0	0	0
17.93845	0.04557369	-0.1305799	0	0	0	0
17.95502	0.04557369	-0.1305799	0	0	0	0
17.97187	0.04557369	-0.1306194	0	-0.002339771	0	-0.07001391
17.98815	0.04557369	-0.1306194	0	0	0	0.07061442
18.00472	0.04557369	-0.1306194	0	0	0	0
18.02129	0.04554743	-0.1306391	-0.001585213	-0.001190091	-0.04784459	-0.03591907
18.03785	0.04554743	-0.1306391	0	0	0.04784459	0.03591907
18.05442	0.04554743	-0.1306391	0	0	0	0
18.07099	0.04554743	-0.1306391	0	0	0	0
18.08755	0.04554743	-0.1306391	0	0	0	0
18.10412	0.04554743	-0.1306391	0	0	0	0
18.12098	0.04552116	-0.1306588	-0.001557815	-0.001169356	-0.04660717	-0.03498512
18.13749	0.04552116	-0.1306588	0	0	0.04668442	0.03504311
18.15382	0.04552116	-0.1306588	0	0	0	0
18.17039	0.0454949	-0.1306785	-0.001585213	-0.001190091	-0.04818578	-0.03617522
18.18695	0.0454949	-0.1306785	0	0	0.04784459	0.03591907
18.20352	0.0454949	-0.1306785	0	0	0	0
18.22009	0.04531107	-0.1308165	-0.01109612	-0.008328776	-0.3348814	-0.2513629
18.23666	0.04531107	-0.1308165	0	0	0.3348814	0.2513629
18.25322	0.04531107	-0.1308165	0	0	0	0
18.26979	0.04496966	-0.1310728	-0.0206098	-0.01547208	-0.6220407	-0.4669752
18.28636	0.04496966	-0.1310728	0	0	0.6220407	0.4669752
18.30292	0.04496966	-0.1310728	0	0	0	0
18.31949	0.04426055	-0.1316446	-0.04280213	-0.03451675	-1.291771	-1.041718
18.33613	0.04426055	-0.1316446	0	0	1.288951	1.039444
18.35262	0.04426055	-0.1316446	0	0	0	0
18.36919	0.04410296	-0.131763	-0.009513079	-0.007143243	-0.2877513	-0.2160686
18.38576	0.04410296	-0.131763	0	0	0.2871218	0.2155959
18.40614	0.04410296	-0.131763	0	0	0	0
18.41971	0.04215921	-0.1332228	-0.1432908	-0.1076185	-4.220778	-3.170015
18.43546	0.04215921	-0.1332228	0	0	4.887492	3.670749
18.4522	0.04215921	-0.1332228	0	0	0	0
18.46871	0.04205414	-0.1333017	-0.006364353	-0.004780824	-0.1913935	-0.1437724
18.48524	0.04205414	-0.1333017	0	0	0.192631	0.144702
18.50175	0.04205414	-0.1333017	0	0	0	0
18.51829	0.04205414	-0.1333017	0	0	0	0
18.53486	0.04205414	-0.1333017	0	0	0	0
18.55142	0.04205414	-0.1333017	0	0	0	0
18.56799	0.04205414	-0.1333017	0	0	0	0
18.58456	0.04205414	-0.1333017	0	0	0	0
18.60131	0.04205414	-0.1333017	0	0	0	0
18.61769	0.04205414	-0.1333017	0	0	0	0
18.63426	0.04205414	-0.1333017	0	0	0	0
18.65088	0.04205414	-0.1333017	0	0	0	0
18.66739	0.04205414	-0.1333017	0	0	0	0
18.68436	0.04205414	-0.1333017	0	0	0	0
18.70053	0.04205414	-0.1333017	0	0	0	0
18.71739	0.04205414	-0.1333017	0	0	0	0
18.73366	0.04205414	-0.1333017	0	0	0	0
18.75041	0.04205414	-0.1333017	0	0	0	0
18.76692	0.04205414	-0.1333017	0	0	0	0
18.78343	0.04205414	-0.1333017	0	0	0	0
18.79996	0.04205414	-0.1333017	0	0	0	0
18.81649	0.04208041	-0.133282	0.001588773	0.001193326	0.04805715	0.03609569
18.83306	0.04208041	-0.133282	0	0	-0.047999	-0.03605201
18.84962	0.04208041	-0.133282	0	0	0	0
18.86619	0.04208041	-0.133282	0	0	0	0
18.883	0.04208041	-0.133282	0	0	0	0
18.89932	0.04208041	-0.133282	0	0	0	0
18.91602	0.04208041	-0.133282	0	0	0	0
18.93246	0.04208041	-0.133282	0	0	0	0
18.94913	0.04208041	-0.133282	0	0	0	0
18.96654	0.04208041	-0.133282	0	0	0	0
18.98216	0.04208041	-0.133282	0	0	0	0
18.99872	0.04208041	-0.133282	0	0	0	0
19.01529	0.04208041	-0.133282	0	0	0	0
19.03186	0.04208041	-0.133282	0	0	0	0
19.0486	0.04208041	-0.133282	0	0	0	0
19.06499	0.04208041	-0.133282	0	0	0	0
19.08211	0.04208041	-0.133282	0	0	0	0
19.09813	0.04208041	-0.133282	0	0	0	0
19.11469	0.04208041	-0.133282	0	0	0	0
19.13126	0.04208041	-0.133282	0	0	0	0
19.14816	0.04208041	-0.133282	0	0	0	0
19.16439	0.04208041	-0.133282	0	0	0	0
19.18118	0.04208041	-0.133282	0	0	0	0
19.19753	0.04208041	-0.133282	0	0	0	0
19.21409	0.04208041	-0.133282	0	0	0	0
19.23066	0.04208041	-0.133282	0	0	0	0
19.24727	0.04208041	-0.133282	0	0	0	0
19.26379	0.04208041	-0.133282	0	0	0	0
19.28036	0.04208041	-0.133282	0	0	0	0
19.29693	0.04208041	-0.133282	0	0	0	0
19.3138	0.04208041	-0.133282	0	0	0	0
19.33006	0.04208041	-0.133282	0	0	0	0
19.34683	0.04208041	-0.133282	0	0	0	0
19.36335	0.04205414	-0.1333017	-0.001590424	-0.001194566	-0.04778181	-0.03588888
19.37976	0.04205414	-0.1333017	0	0	0.04829378	0.03627342
19.39633	0.04205414	-0.1333017	0	0	0	0
19.4129	0.04208041	-0.133282	0.001585481	0.001190853	0.04785265	0.03594209
19.42946	0.04208041	-0.133282	0	0	-0.04785265	-0.03594209
19.44603	0.04208041	-0.133282	0	0	0	0
19.46259	0.04208041	-0.133282	0	0	0	0
19.47916	0.04208041	-0.133282	0	0	0	0
19.49573	0.04208041	-0.133282	0	0	0	0
19.51229	0.04208041	-0.133282	0	0	0	0
19.52896	0.04208041	-0.133282	0	0	0	0
19.54543	0.04208041	-0.133282	0	0	0	0
19.56199	0.04208041	-0.133282	0	0	0	0
19.57856	0.04208041	-0.133282	0	0	0	0
19.59513	0.04208041	-0.133282	0	0	0	0
19.61169	0.04208041	-0.133282	0	0	0	0
19.62826	0.04208041	-0.133282	0	0	0	0
19.64483	0.04208041	-0.133282	0	0	0	0
19.6614	0.04208041	-0.133282	0	0	0	0
19.67796	0.04208041	-0.133282	0	0	0	0
19.69457	0.04208041	-0.133282	0	0	0	0
19.7111	0.04208041	-0.133282	0	0	0	0
19.72766	0.04208041	-0.133282	0	0	0	0
19.74423	0.04208041	-0.133282	0	0	0	0
19.76167	0.04208041	-0.133282	0	0	0	0
19.77736	0.04208041	-0.133282	0	0	0	0
19.79418	0.04208041	-0.133282	0	0	0	0
19.8105	0.04208041	-0.133282	0	0	0	0
19.82706	0.04208041	-0.133282	0	0	0	0
19.84363	0.04208041	-0.133282	0	0	0	0
19.8602	0.04208041	-0.133282	0	0	0	0
19.87677	0.04208041	-0.133282	0	0	0	0
19.89333	0.04208041	-0.133282	0	0	0	0
19.9099	0.04208041	-0.133282	0	0	0	0
19.92647	0.04208041	-0.133282	0	0	0	0
19.94303	0.04208041	-0.133282	0	0	0	0
19.9596	0.04208041	-0.133282	0	0	0	0
19.97617	0.04208041	-0.133282	0	0	0	0
19.99282	0.04208041	-0.133282	0	0	0	0
20.0093	0.04208041	-0.133282	0	0	0	0
20.02587	0.04208041	-0.133282	0	0	0	0
20.04243	0.04208041	-0.133282	0	0	0	0
20.06171	0.04205414	-0.1332623	-0.001362434	0.001023323	-0.03800723	0.0285472
20.07828	0.04205414	-0.1332623	0	0	0.03800723	-0.0285472
20.09506	0.04205414	-0.1332623	0	0	0	0
20.11141	0.04202787	-0.1332425	-0.001606794	0.001207602	-0.04849314	0.03644549
20.12798	0.04202787	-0.1332425	0	0	0.04881347	-0.03668624
20.14461	0.04202787	-0.1332425	0	0	0	0
20.16112	0.04202787	-0.1332425	0	0	0	0
20.17768	0.04202787	-0.1332425	0	0	0	0
20.19425	0.04202787	-0.1332425	0	0	0	0
20.21081	0.04202787	-0.133282	0	-0.00238288	0	-0.07191961
20.22738	0.04202787	-0.133282	0	0	0	0.07191961
20.24395	0.04202787	-0.133282	0	0	0	0
20.26068	0.0420016	-0.1332623	-0.001569758	0.001179044	-0.04713931	0.03540629
20.27708	0.0420016	-0.1332623	0	0	0.04737538	-0.03558361
20.29373	0.0420016	-0.1332623	0	0	0	0
20.31021	0.0420016	-0.1332623	0	0	0	0
20.32678	0.0420016	-0.1332623	0	0	0	0
20.34335	0.0420016	-0.1332623	0	0	0	0
20.35992	0.04194906	-0.1332623	-0.003171411	0	-0.09571337	0
20.37648	0.04194906	-0.1332623	0	0	0.09571337	0
20.39305	0.04194906	-0.1332623	0	0	0	0
20.40962	0.04171263	-0.1334399	-0.01427232	-0.01072161	-0.4307642	-0.3235975
20.42618	0.04171263	-0.1334399	0	0	0.4307642	0.3235975
20.44275	0.04171263	-0.1334399	0	0	0	0
20.45932	0.04118722	-0.1338741	-0.03171776	-0.02621258	-0.9572991	-0.7911428
20.47588	0.04118722	-0.1338741	0	0	0.9572991	0.7911428
20.49245	0.04118722	-0.1338741	0	0	0	0
20.50902	0.02525778	-0.1459052	-0.9615026	-0.7261992	-29.01987	-21.918
20.52558	0.02525778	-0.1459052	0	0	29.0182	21.91673
20.54241	0.02525778	-0.1459052	0	0	0	0
20.55872	-0.01955014	-0.1799363	-2.747954	-2.087035	-82.93819	-62.99047
20.57528	-0.01955014	-0.1799363	0	0	83.59264	63.48752
20.59193	-0.01955014	-0.1799363	0	0	0	0
20.61127	-0.0534228	-0.2060831	-1.750866	-1.351522	-48.64642	-37.55096
20.68941	-0.0534228	-0.2060831	0	0	17.96149	13.86477
20.70597	-0.0534228	-0.2060831	0	0	0	0
20.72254	-0.06511833	-0.2293182	-0.7059432	-1.402472	-21.30541	-42.3267
20.73911	-0.06511833	-0.2293182	0	0	21.30541	42.3267
20.75568	-0.06511833	-0.2293182	0	0	0	0
20.77224	-0.04491714	-0.2454545	1.219487	-0.9740996	36.8063	-29.40008
20.78881	-0.04491714	-0.2454545	0	0	-36.8063	29.40008
20.80538	-0.04491714	-0.2454545	0	0	0	0
20.82194	-0.04299979	-0.2656019	0.1157311	-1.216099	3.492771	-36.70195
20.83851	-0.04299979	-0.2656019	0	0	-3.492771	36.70195
20.85508	-0.04299979	-0.2656019	0	0	0	0
20.87164	-0.09004532	-0.303336	-2.839674	-2.277636	-85.70152	-68.73919
20.89922	-0.09004532	-0.303336	0	0	64.33354	51.60043
20.91581	-0.09004532	-0.303336	0	0	0	0
20.93235	-0.1248214	-0.332119	-2.102475	-1.740153	-63.45283	-52.51793
20.94892	-0.1248214	-0.332119	0	0	63.50401	52.56029
20.96549	-0.1248214	-0.332119	0	0	0	0
20.98205	-0.1247955	-0.3321408	0.001563669	-0.001314975	0.04719163	-0.03968603
20.99884	-0.1247955	-0.3321408	0	0	-0.04687592	0.03942053
21.01519	-0.1247955	-0.3321408	0	0	0	0
21.03175	-0.1247436	-0.3321844	0.003127788	-0.002628152	0.09504241	-0.07986023
21.04832	-0.1247436	-0.3321844	0	0	-0.09439684	0.07931777
21.06489	-0.1247436	-0.3321844	0	0	0	0
21.08146	-0.1247436	-0.3321844	0	0	0	0
21.09802	-0.1247436	-0.3321844	0	0	0	0
21.11459	-0.1247436	-0.3321844	0	0	0	0
21.13116	-0.1247436	-0.3321844	0	0	0	0
21.14772	-0.1247436	-0.3321844	0	0	0	0
21.16444	-0.1247436	-0.3321844	0	0	0	0
21.18085	-0.1247177	-0.3322061	0.001578388	-0.001325537	0.0476386	-0.0400071
21.19742	-0.1247177	-0.3322061	0	0	-0.047859	0.0401922
21.21399	-0.1247177	-0.3322061	0	0	0	0
21.23056	-0.1247177	-0.3322061	0	0	0	0
21.24712	-0.1247177	-0.3322061	0	0	0	0
21.26369	-0.1247177	-0.3322061	0	0	0	0
21.28026	-0.1247695	-0.3322061	-0.003127339	0	-0.09438327	0
21.29682	-0.1247695	-0.3322061	0	0	0.0943887	0
21.31357	-0.1247695	-0.3322061	0	0	0	0
21.32996	-0.1247695	-0.3322061	0	0	0	0
21.34652	-0.1247695	-0.3322061	0	0	0	0
21.36311	-0.1247695	-0.3322061	0	0	0	0
21.37966	-0.1247177	-0.3322061	0.003131665	0	0.09451928	0
21.39622	-0.1247177	-0.3322061	0	0	-0.09457917	0
21.41279	-0.1247177	-0.3322061	0	0	0	0
21.42965	-0.1247177	-0.3322061	0	0	0	0
21.44617	-0.1247177	-0.3322061	0	0	0	0
21.46249	-0.1247177	-0.3322061	0	0	0	0
21.47917	-0.1247177	-0.3322061	0	0	0	0
21.49562	-0.1247177	-0.3322061	0	0	0	0
21.51219	-0.1247177	-0.3322061	0	0	0	0
21.52876	-0.1247177	-0.3322061	0	0	0	0
21.54533	-0.1247177	-0.3322061	0	0	0	0
21.56189	-0.1247177	-0.3322061	0	0	0	0
21.57846	-0.1247177	-0.3322061	0	0	0	0
21.59503	-0.1247177	-0.3322061	0	0	0	0
21.6116	-0.1247177	-0.3322061	0	0	0	0
21.62816	-0.1247177	-0.3322061	0	0	0	0
21.64482	-0.1247177	-0.3322061	0	0	0	0
21.66129	-0.1247177	-0.3322061	0	0	0	0
21.67786	-0.1247436	-0.3321408	-0.001563669	0.003941328	-0.04731966	0.1192722
21.69443	-0.1247436	-0.3321408	0	0	0.04719163	-0.1189495
21.711	-0.1247436	-0.3321408	0	0	0	0
21.72887	-0.12464	-0.3320973	0.005799545	0.002438227	0.1684094	0.07080217
21.74425	-0.12464	-0.3320973	0	0	-0.1743982	-0.07331995
21.7607	-0.12464	-0.3320973	0	0	0	0
21.77728	-0.1244845	-0.3320102	0.009375809	0.005252071	0.283894	0.1590296
21.79383	-0.1244845	-0.3320102	0	0	-0.2829788	-0.1585169
21.8104	-0.1244845	-0.3320102	0	0	0	0
21.82696	-0.1239922	-0.3311614	0.02971646	0.05123546	0.8968446	1.546289
21.84353	-0.1239922	-0.3311614	0	0	-0.8968446	-1.546289
21.8601	-0.1239922	-0.3311614	0	0	0	0
21.87667	-0.1254172	-0.3276616	-0.0860117	0.2112451	-2.595838	6.37539
21.89335	-0.1254172	-0.3276616	0	0	2.586755	-6.353082
21.9098	-0.1254172	-0.3276616	0	0	0	0
21.92637	-0.132043	-0.3002972	-0.3998412	1.65134	-12.10905	50.01027
21.94293	-0.132043	-0.3002972	0	0	12.06793	-49.84042
21.9595	-0.132043	-0.3002972	0	0	0	0
21.97606	-0.1155618	-0.2344967	0.9949235	3.972183	30.02685	119.8807
21.99263	-0.1155618	-0.2344967	0	0	-30.02858	-119.8876
22.0092	-0.1155618	-0.2344967	0	0	0	0
22.02576	-0.07260897	-0.1782659	2.592636	3.394099	78.2504	102.44
22.04233	-0.07260897	-0.1782659	0	0	-78.2459	-102.4341
22.0589	-0.07260897	-0.1782659	0	0	0	0
22.07565	-0.01623541	-0.1359476	3.365135	2.526126	100.996	75.81529
22.09216	-0.01623541	-0.1359476	0	0	-101.1814	-75.95443
22.10869	-0.01623541	-0.1359476	0	0	0	0
22.12519	0.0224173	-0.1079155	2.34198	1.698475	70.89739	51.41695
22.14173	0.0224173	-0.1079155	0	0	-70.87284	-51.39914
22.1583	0.0224173	-0.1079155	0	0	0	0
22.17486	0.0359319	-0.09910047	0.8158367	0.5321351	24.62342	16.06079
22.19143	0.0359319	-0.09910047	0	0	-24.62342	-16.06079
22.20826	0.0359319	-0.09910047	0	0	0	0
22.22456	0.03997869	-0.1045185	0.2481792	-0.3322757	7.490493	-10.02868
22.24113	0.03997869	-0.1045185	0	0	-7.5496	10.10781
22.25778	0.03997869	-0.1045185	0	0	0	0
22.27747	0.05323911	-0.1148599	0.6734098	-0.5251719	18.53045	-14.45134
22.29083	0.05323911	-0.1148599	0	0	-20.37633	15.89088
22.3074	0.05323911	-0.1148599	0	0	0	0
22.32396	0.0591677	-0.1193301	0.3578502	-0.2698182	10.79994	-8.143128
22.34053	0.0591677	-0.1193301	0	0	-10.79994	8.143128
22.3571	0.0591677	-0.1193301	0	0	0	0
22.37366	0.05678101	-0.1211557	-0.1440613	-0.1101953	-4.347779	-3.3257
22.39038	0.05678101	-0.1211557	0	0	4.329089	3.311404
22.4068	0.05678101	-0.1211557	0	0	0	0
22.4234	0.05531194	-0.1222949	-0.08847915	-0.06861448	-2.679096	-2.077606
22.43993	0.05531194	-0.1222949	0	0	2.670306	2.070789
22.4565	0.05531194	-0.1222949	0	0	0	0
22.47306	0.05528571	-0.1222753	-0.001583639	0.001186043	-0.04779708	0.0357969
22.48963	0.05528571	-0.1222753	0	0	0.04779708	-0.0357969
22.5062	0.05528571	-0.1222753	0	0	0	0
22.52296	0.05528571	-0.1222753	0	0	0	0
22.53933	0.05528571	-0.1222753	0	0	0	0
22.55615	0.05528571	-0.1222753	0	0	0	0
22.57266	0.05531194	-0.1222949	0.001589312	-0.001190291	0.047691	-0.03571746
22.58917	0.05531194	-0.1222949	0	0	-0.04813455	0.03604965
22.6056	0.05531194	-0.1222949	0	0	0	0
22.62219	0.05531194	-0.1222949	0	0	0	0
22.63873	0.05531194	-0.1222949	0	0	0	0
22.6553	0.05531194	-0.1222949	0	0	0	0
22.67186	0.05531194	-0.1222949	0	0	0	0
22.68843	0.05531194	-0.1222949	0	0	0	0
22.70525	0.05531194	-0.1222949	0	0	0	0
22.72157	0.05531194	-0.1222949	0	0	0	0
22.73813	0.05531194	-0.1222949	0	0	0	0
22.7547	0.05531194	-0.1222949	0	0	0	0
22.77128	0.05531194	-0.1222949	0	0	0	0
22.78783	0.05531194	-0.1222949	0	0	0	0
22.80484	0.05531194	-0.1222949	0	0	0	0
22.82104	0.05528571	-0.1223146	-0.001619631	-0.001212998	-0.04876827	-0.03652426
22.83753	0.05528571	-0.1223146	0	0	0.04955086	0.03711037
22.8541	0.05528571	-0.1223146	0	0	0	0
22.87066	0.05528571	-0.1223146	0	0	0	0
22.88723	0.05528571	-0.1223146	0	0	0	0
22.9038	0.05528571	-0.1223146	0	0	0	0
22.92063	0.05528571	-0.1223146	0	0	0	0
22.93693	0.05528571	-0.1223146	0	0	0	0
22.9535	0.05528571	-0.1223146	0	0	0	0
22.97017	0.05528571	-0.1223146	0	0	0	0
22.98668	0.05528571	-0.1223146	0	0	0	0
23.0032	0.05528571	-0.1223146	0	0	0	0
23.01976	0.05528571	-0.1223146	0	0	0	0
23.03633	0.05528571	-0.1223146	0	0	0	0
23.0529	0.05528571	-0.1223146	0	0	0	0
23.06946	0.05528571	-0.1223146	0	0	0	0
23.08626	0.05528571	-0.1223146	0	0	0	0
23.1026	0.05528571	-0.1223146	0	0	0	0
23.11928	0.05528571	-0.1223146	0	0	0	0
23.13573	0.05528571	-0.1223146	0	0	0	0
23.15232	0.05528571	-0.1223146	0	0	0	0
23.16887	0.05525947	-0.1223342	-0.00158569	-0.00118741	-0.04785897	-0.03583817
23.18543	0.05525947	-0.1223342	0	0	0.04788654	0.03585881
23.202	0.05525947	-0.1223342	0	0	0	0
23.21885	0.05525947	-0.1223342	0	0	0	0
23.23534	0.05525947	-0.1223342	0	0	0	0
23.2517	0.05525947	-0.1223342	0	0	0	0
23.26827	0.05525947	-0.1223342	0	0	0	0
23.28483	0.05525947	-0.1223342	0	0	0	0
23.30142	0.05525947	-0.1223342	0	0	0	0
23.31797	0.05525947	-0.1223342	0	0	0	0
23.33453	0.05525947	-0.1223342	0	0	0	0
23.3511	0.05525947	-0.1223342	0	0	0	0
23.36829	0.05525947	-0.1223342	0	0	0	0
23.38513	0.05525947	-0.1223342	0	0	0	0
23.40168	0.05525947	-0.1223342	0	0	0	0
23.41799	0.05525947	-0.1223342	0	0	0	0
23.43456	0.05525947	-0.1223342	0	0	0	0
23.45113	0.05525947	-0.1223342	0	0	0	0
23.46769	0.05525947	-0.1223342	0	0	0	0
23.48426	0.05525947	-0.1223342	0	0	0	0
23.50123	0.05525947	-0.1223342	0	0	0	0
23.51739	0.05525947	-0.1223342	0	0	0	0
23.53396	0.05525947	-0.1223342	0	0	0	0
23.55053	0.05525947	-0.1223342	0	0	0	0
23.56709	0.05525947	-0.1223342	0	0	0	0
23.58379	0.05525947	-0.1223342	0	0	0	0
23.60029	0.05525947	-0.1223342	0	0	0	0
23.61731	0.05525947	-0.1223342	0	0	0	0
23.63336	0.05525947	-0.1223342	0	0	0	0
23.64993	0.05525947	-0.1223342	0	0	0	0
23.6665	0.05525947	-0.1223342	0	0	0	0
23.68306	0.05525947	-0.1223342	0	0	0	0
23.69981	0.05525947	-0.1223342	0	0	0	0
23.71619	0.05525947	-0.1223342	0	0	0	0
23.73333	0.05525947	-0.1223342	0	0	0	0
23.74934	0.05525947	-0.1223342	0	0	0	0
23.76589	0.05525947	-0.1223342	0	0	0	0
23.78246	0.05525947	-0.1223342	0	0	0	0
23.79903	0.05525947	-0.1223342	0	0	0	0
23.81559	0.05525947	-0.1223342	0	0	0	0
23.83216	0.05525947	-0.1223342	0	0	0	0
23.84873	0.05525947	-0.1223342	0	0	0	0
23.86529	0.05525947	-0.1223342	0	0	0	0
23.88192	0.05525947	-0.1223342	0	0	0	0
23.89843	0.05525947	-0.1223342	0	0	0	0
23.91543	0.05525947	-0.1223342	0	0	0	0
23.93246	0.05525947	-0.1223342	0	0	0	0
23.94813	0.05525947	-0.1223342	0	0	0	0
23.96498	0.05525947	-0.1223342	0	0	0	0
23.98153	0.05525947	-0.1223342	0	0	0	0
23.99803	0.05525947	-0.1223342	0	0	0	0
24.01439	0.05525947	-0.1223342	0	0	0	0
24.03096	0.05525947	-0.1223342	0	0	0	0
24.04754	0.05525947	-0.1223342	0	0	0	0
24.06409	0.05525947	-0.1223342	0	0	0	0
24.08108	0.05525947	-0.1223342	0	0	0	0
24.09759	0.05525947	-0.1223342	0	0	0	0
24.11379	0.05525947	-0.1223342	0	0	0	0
24.13036	0.05525947	-0.1223342	0	0	0	0
24.14762	0.05525947	-0.1223342	0	0	0	0
24.16743	0.05525947	-0.1223342	0	0	0	0
24.184	0.05525947	-0.1223342	0	0	0	0
24.20122	0.05525947	-0.1223342	0	0	0	0
24.21713	0.05525947	-0.1223342	0	0	0	0
24.2337	0.05525947	-0.1223342	0	0	0	0
24.25028	0.05525947	-0.1223342	0	0	0	0
24.26683	0.05525947	-0.1223342	0	0	0	0
24.2834	0.05525947	-0.1223342	0	0	0	0
24.30029	0.05525947	-0.1223342	0	0	0	0
24.31654	0.05525947	-0.1223342	0	0	0	0
24.3331	0.05525947	-0.1223342	0	0	0	0
24.34967	0.05525947	-0.1223342	0	0	0	0
24.36624	0.05525947	-0.1223342	0	0	0	0
24.3828	0.05525947	-0.1223342	0	0	0	0
24.39937	0.05525947	-0.1223342	0	0	0	0
24.41594	0.05525947	-0.1223342	0	0	0	0
24.4325	0.05525947	-0.1223342	0	0	0	0
24.44914	0.05525947	-0.1223342	0	0	0	0
24.46564	0.05525947	-0.1223342	0	0	0	0
24.4822	0.05525947	-0.1223342	0	0	0	0
24.49877	0.05525947	-0.1223342	0	0	0	0
24.51534	0.05525947	-0.1223342	0	0	0	0
24.5319	0.05525947	-0.1223342	0	0	0	0
24.54873	0.05525947	-0.1223342	0	0	0	0
24.56503	0.05525947	-0.1223342	0	0	0	0
24.5816	0.05525947	-0.1223342	0	0	0	0
24.59817	0.05525947	-0.1223342	0	0	0	0
24.61473	0.05525947	-0.1223342	0	0	0	0
24.6313	0.05525947	-0.1223342	0	0	0	0
24.64828	0.05525947	-0.1223342	0	0	0	0
24.66444	0.05525947	-0.1223342	0	0	0	0
24.681	0.05525947	-0.1223342	0	0	0	0
24.69757	0.05525947	-0.1223342	0	0	0	0
24.71414	0.05525947	-0.1223342	0	0	0	0
24.73071	0.05525947	-0.1223342	0	0	0	0
24.74727	0.05525947	-0.1223342	0	0	0	0
24.76386	0.05525947	-0.1223342	0	0	0	0
24.78041	0.05525947	-0.1223342	0	0	0	0
24.79739	0.05525947	-0.1223342	0	0	0	0
24.8139	0.05525947	-0.1223342	0	0	0	0
24.8304	0.05525947	-0.1223342	0	0	0	0
24.84667	0.05525947	-0.1223342	0	0	0	0
24.86664	0.05525947	-0.1223342	0	0	0	0
24.88321	0.05525947	-0.1223342	0	0	0	0
24.90046	0.05525947	-0.1223342	0	0	0	0
24.91646	0.05525947	-0.1223342	0	0	0	0
24.93301	0.05525947	-0.1223342	0	0	0	0
24.94948	0.05525947	-0.1223342	0	0	0	0
24.96605	0.05525947	-0.1223342	0	0	0	0
24.98261	0.05525947	-0.1223342	0	0	0	0
24.99953	0.05525947	-0.1223342	0	0	0	0
25.01604	0.05525947	-0.1223342	0	0	0	0
25.03261	0.05525947	-0.1223342	0	0	0	0
25.04917	0.05525947	-0.1223342	0	0	0	0
25.06574	0.05525947	-0.1223342	0	0	0	0
25.0823	0.05525947	-0.1223342	0	0	0	0
25.0996	0.05525947	-0.1223342	0	0	0	0
25.11544	0.05525947	-0.1223342	0	0	0	0
25.13201	0.05525947	-0.1223342	0	0	0	0
25.14864	0.05525947	-0.1223342	0	0	0	0
25.16514	0.05525947	-0.1223342	0	0	0	0
25.18171	0.05525947	-0.1223342	0	0	0	0
25.19827	0.05525947	-0.1223342	0	0	0	0
25.21484	0.05525947	-0.1223342	0	0	0	0
25.23141	0.05525947	-0.1223342	0	0	0	0
25.24798	0.05525947	-0.1223342	0	0	0	0
25.26471	0.05525947	-0.1223342	0	0	0	0
25.28112	0.05525947	-0.1223342	0	0	0	0
25.29769	0.05525947	-0.1223342	0	0	0	0
25.31424	0.05525947	-0.1223342	0	0	0	0
25.3308	0.05525947	-0.1223342	0	0	0	0
25.34737	0.05525947	-0.1223342	0	0	0	0
25.36394	0.05528571	-0.1223539	0.001583682	-0.001185906	0.04779561	-0.03579072
25.38076	0.05528571	-0.1223539	0	0	-0.04743518	0.03552082
25.39707	0.05528571	-0.1223539	0	0	0	0
25.41377	0.05528571	-0.1223539	0	0	0	0
25.4302	0.05528571	-0.1223539	0	0	0	0
25.44677	0.05528571	-0.1223539	0	0	0	0
25.46334	0.05528571	-0.1223539	0	0	0	0
25.4799	0.05528571	-0.1223539	0	0	0	0
25.49647	0.05528571	-0.1223539	0	0	0	0
25.51304	0.05528571	-0.1223539	0	0	0	0
25.5296	0.05528571	-0.1223539	0	0	0	0
25.54617	0.05528571	-0.1223539	0	0	0	0
25.56322	0.05528571	-0.1223539	0	0	0	0
25.57931	0.05528571	-0.1223539	0	0	0	0
25.59587	0.05528571	-0.1223539	0	0	0	0
25.61244	0.05528571	-0.1223539	0	0	0	0
25.62928	0.05528571	-0.1223539	0	0	0	0
25.64557	0.05528571	-0.1223539	0	0	0	0
25.66229	0.05528571	-0.1223539	0	0	0	0
25.6788	0.05528571	-0.1223539	0	0	0	0
25.69528	0.05528571	-0.1223539	0	0	0	0
25.71184	0.05528571	-0.1223539	0	0	0	0
25.72841	0.05528571	-0.1223539	0	0	0	0
25.74538	0.05528571	-0.1223539	0	0	0	0
25.76154	0.05528571	-0.1223539	0	0	0	0
25.77811	0.05528571	-0.1223539	0	0	0	0
25.79468	0.05528571	-0.1223539	0	0	0	0
25.81124	0.05528571	-0.1223539	0	0	0	0
25.82781	0.05528571	-0.1223539	0	0	0	0
25.84522	0.05528571	-0.1223539	0	0	0	0
25.86095	0.05528571	-0.1223539	0	0	0	0
25.87751	0.05528571	-0.1223539	0	0	0	0
25.89408	0.05528571	-0.1223539	0	0	0	0
25.91065	0.05528571	-0.1223539	0	0	0	0
25.92722	0.05528571	-0.1223539	0	0	0	0
25.94378	0.05528571	-0.1223539	0	0	0	0
25.96035	0.05528571	-0.1223539	0	0	0	0
25.97692	0.05528571	-0.1223539	0	0	0	0
25.99384	0.05528571	-0.1223539	0	0	0	0
26.01005	0.05528571	-0.1223539	0	0	0	0
26.02662	0.05528571	-0.1223539	0	0	0	0
26.04318	0.05528571	-0.1223539	0	0	0	0
26.05975	0.05528571	-0.1223539	0	0	0	0
26.07638	0.05528571	-0.1223539	0	0	0	0
26.09289	0.05528571	-0.1223539	0	0	0	0
26.10945	0.05528571	-0.1223539	0	0	0	0
26.12602	0.05528571	-0.1223539	0	0	0	0
26.14259	0.05528571	-0.1223539	0	0	0	0
26.15943	0.05525947	-0.1223735	-0.001557679	-0.001166434	-0.04662169	-0.03491165
26.17572	0.05525947	-0.1223735	0	0	0.04701083	0.03520305
26.19246	0.05525947	-0.1223735	0	0	0	0
26.20885	0.05525947	-0.1223735	0	0	0	0
26.22542	0.05525947	-0.1223735	0	0	0	0
26.24199	0.05525947	-0.1223735	0	0	0	0
26.25855	0.05525947	-0.1223735	0	0	0	0
26.27512	0.05525947	-0.1223735	0	0	0	0
26.29201	0.05525947	-0.1223735	0	0	0	0
26.30825	0.05525947	-0.1223735	0	0	0	0
26.32482	0.05525947	-0.1223735	0	0	0	0
26.34155	0.05525947	-0.1223735	0	0	0	0
26.35795	0.05525947	-0.1223735	0	0	0	0
26.37458	0.05525947	-0.1223735	0	0	0	0
26.39109	0.05525947	-0.1223735	0	0	0	0
26.40778	0.05525947	-0.1223735	0	0	0	0
26.42431	0.05525947	-0.1223735	0	0	0	0
26.44079	0.05525947	-0.1223735	0	0	0	0
26.45735	0.05525947	-0.1223735	0	0	0	0
26.47392	0.05525947	-0.1223735	0	0	0	0
26.49049	0.05525947	-0.1223735	0	0	0	0
26.50706	0.05525947	-0.1223735	0	0	0	0
26.52362	0.05525947	-0.1223735	0	0	0	0
26.54019	0.05525947	-0.1223735	0	0	0	0
26.55675	0.05525947	-0.1223735	0	0	0	0
26.57332	0.05525947	-0.1223735	0	0	0	0
26.58989	0.05525947	-0.1223735	0	0	0	0
26.60695	0.05525947	-0.1223735	0	0	0	0
26.62302	0.05525947	-0.1223735	0	0	0	0
26.63959	0.05525947	-0.1223735	0	0	0	0
26.65616	0.05525947	-0.1223735	0	0	0	0
26.67272	0.05525947	-0.1223735	0	0	0	0
26.69697	0.05525947	-0.1223735	0	0	0	0
26.71354	0.05525947	-0.1223735	0	0	0	0
26.73011	0.05525947	-0.1223735	0	0	0	0
26.74667	0.05525947	-0.1223735	0	0	0	0
26.76324	0.05523324	-0.1223539	-0.001583864	0.001186043	-0.04780662	0.03579896
26.7798	0.05523324	-0.1223539	0	0	0.04780386	-0.0357969
26.79653	0.05523324	-0.1223539	0	0	0	0
26.81631	0.05523324	-0.1223539	0	0	0	0
26.83288	0.05523324	-0.1223539	0	0	0	0
26.84945	0.05523324	-0.1223539	0	0	0	0
26.86602	0.05523324	-0.1223539	0	0	0	0
26.88259	0.05523324	-0.1223539	0	0	0	0
26.89959	0.05523324	-0.1223539	0	0	0	0
26.9161	0.05523324	-0.1223539	0	0	0	0
26.93229	0.05523324	-0.1223539	0	0	0	0
26.94885	0.05523324	-0.1223539	0	0	0	0
26.96542	0.05523324	-0.1223539	0	0	0	0
26.98265	0.05523324	-0.1223539	0	0	0	0
26.99855	0.05523324	-0.1223539	0	0	0	0
27.01512	0.05523324	-0.1223539	0	0	0	0
27.03181	0.05523324	-0.1223539	0	0	0	0
27.04883	0.05523324	-0.1223539	0	0	0	0
27.06483	0.05523324	-0.1223539	0	0	0	0
27.08138	0.05523324	-0.1223539	0	0	0	0
27.09795	0.05523324	-0.1223539	0	0	0	0
27.11452	0.05523324	-0.1223539	0	0	0	0
27.13108	0.05523324	-0.1223539	0	0	0	0
27.1479	0.05523324	-0.1223539	0	0	0	0
27.16422	0.05523324	-0.1223539	0	0	0	0
27.18078	0.05523324	-0.1223539	0	0	0	0
27.19735	0.05523324	-0.1223539	0	0	0	0
27.21393	0.05523324	-0.1223539	0	0	0	0
27.23048	0.05523324	-0.1223539	0	0	0	0
27.24705	0.05523324	-0.1223539	0	0	0	0
27.26612	0.05523324	-0.1223539	0	0	0	0
27.28269	0.05523324	-0.1223539	0	0	0	0
27.29948	0.05523324	-0.1223539	0	0	0	0
27.31582	0.05523324	-0.1223539	0	0	0	0
27.33239	0.05523324	-0.1223539	0	0	0	0
27.34902	0.05523324	-0.1223539	0	0	0	0
27.36552	0.05523324	-0.1223539	0	0	0	0
27.38209	0.05523324	-0.1223539	0	0	0	0
27.39865	0.05523324	-0.1223539	0	0	0	0
27.41522	0.05523324	-0.1223539	0	0	0	0
27.43179	0.05523324	-0.1223539	0	0	0	0
27.44859	0.05523324	-0.1223539	0	0	0	0
27.46511	0.05523324	-0.1223539	0	0	0	0
27.48149	0.05523324	-0.1223539	0	0	0	0
27.49806	0.05523324	-0.1223539	0	0	0	0
27.51462	0.05523324	-0.1223539	0	0	0	0
27.53119	0.05523324	-0.1223539	0	0	0	0
27.54776	0.05523324	-0.1223539	0	0	0	0
27.56469	0.05523324	-0.1223539	0	0	0	0
27.58089	0.05523324	-0.1223539	0	0	0	0
27.59746	0.05523324	-0.1223539	0	0	0	0
27.61402	0.05523324	-0.1223539	0	0	0	0
27.63059	0.05523324	-0.1223539	0	0	0	0
27.64778	0.05523324	-0.1223539	0	0	0	0
27.66372	0.05523324	-0.1223539	0	0	0	0
27.68029	0.05523324	-0.1223539	0	0	0	0
27.69686	0.05523324	-0.1223539	0	0	0	0
27.71342	0.05523324	-0.1223539	0	0	0	0
27.72999	0.05523324	-0.1223539	0	0	0	0
27.74656	0.05523324	-0.1223539	0	0	0	0
27.76333	0.05523324	-0.1223539	0	0	0	0
27.77969	0.05523324	-0.1223539	0	0	0	0
27.79626	0.05523324	-0.1223539	0	0	0	0
27.8144	0.05523324	-0.1223539	0	0	0	0
27.83097	0.05523324	-0.1223539	0	0	0	0
27.84754	0.05523324	-0.1223539	0	0	0	0
27.8641	0.05523324	-0.1223539	0	0	0	0
27.88067	0.05523324	-0.1223539	0	0	0	0
27.89724	0.05523324	-0.1223539	0	0	0	0
27.91381	0.05523324	-0.1223539	0	0	0	0
27.93037	0.05523324	-0.1223539	0	0	0	0
27.94743	0.05523324	-0.1223539	0	0	0	0
27.9635	0.05523324	-0.1223539	0	0	0	0
27.98007	0.05523324	-0.1223539	0	0	0	0
27.99664	0.05523324	-0.1223539	0	0	0	0
28.01555	0.05523324	-0.1223539	0	0	0	0
28.03249	0.05523324	-0.1223539	0	0	0	0
28.04868	0.05523324	-0.1223539	0	0	0	0
28.06525	0.05523324	-0.1223539	0	0	0	0
28.08198	0.05523324	-0.1223539	0	0	0	0
28.09839	0.05523324	-0.1223539	0	0	0	0
28.11495	0.05523324	-0.1223539	0	0	0	0
28.13152	0.05523324	-0.1223539	0	0	0	0
28.14809	0.05523324	-0.1223539	0	0	0	0
28.165	0.05523324	-0.1223539	0	0	0	0
28.18202	0.05523324	-0.1223539	0	0	0	0
28.19779	0.05523324	-0.1223539	0	0	0	0
28.21435	0.05523324	-0.1223539	0	0	0	0
28.23092	0.05523324	-0.1223539	0	0	0	0
28.24749	0.05523324	-0.1223539	0	0	0	0
28.26408	0.05518077	-0.1223146	-0.003162405	0.002368268	-0.09537022	0.07142102
28.28062	0.05518077	-0.1223146	0	0	0.09544708	-0.07147858
28.29719	0.05518077	-0.1223146	0	0	0	0
28.31375	0.05494464	-0.1221378	-0.0142541	0.01067393	-0.4302144	0.3221585
28.33032	0.05494464	-0.1221378	0	0	0.4302144	-0.3221585
28.34716	0.05494464	-0.1221378	0	0	0	0
28.36457	0.0444444	-0.1144878	-0.6031061	0.4393953	-17.60782	12.82825
28.38169	0.0444444	-0.1144878	0	0	17.46872	-12.7269
28.39771	0.0444444	-0.1144878	0	0	0	0
28.41427	0.004736807	-0.1060017	-2.397031	0.51228	-73.55777	15.72036
28.43084	0.004736807	-0.1060017	0	0	72.34254	-15.46064
28.44741	0.004736807	-0.1060017	0	0	0	0
28.46397	-0.07779007	-0.1068998	-4.981906	-0.05421704	-150.3629	-1.636368
28.48054	-0.07779007	-0.1068998	0	0	150.3542	1.636274
28.49711	-0.07779007	-0.1068998	0	0	0	0
28.51376	-0.1510769	-0.09550112	-4.401303	0.6845589	-132.5036	20.60902
28.53024	-0.1510769	-0.09550112	0	0	132.8392	-20.66122
28.54681	-0.1510769	-0.09550112	0	0	0	0
28.56337	-0.2105937	-0.06264868	-3.592856	1.983206	-108.4451	59.86015
28.57994	-0.2105937	-0.06264868	0	0	108.4326	-59.85326
28.5965	-0.2105937	-0.06264868	0	0	0	0
28.61562	-0.2468849	-0.03484905	-1.898906	1.454592	-53.22785	40.77338
28.63497	-0.2468849	-0.03484905	0	0	49.37137	-37.81925
28.64905	-0.2468849	-0.03484905	0	0	0	0
28.66554	-0.2596604	-0.02500712	-0.7747876	0.5968776	-25.33915	19.52066
28.68188	-0.2596604	-0.02500712	0	0	23.6005	-18.18125
28.69845	-0.2596604	-0.02500712	0	0	0	0
28.71502	-0.2595866	-0.02502609	0.00445272	-0.001145114	0.1343911	-0.03456159
28.73158	-0.2595866	-0.02502609	0	0	-0.1343911	0.03456159
28.74815	-0.2595866	-0.02502609	0	0	0	0
28.76472	-0.2594637	-0.025083	0.007419401	-0.003435566	0.2239309	-0.1036916
28.78128	-0.2594637	-0.025083	0	0	-0.2239309	0.1036916
28.79785	-0.2594637	-0.025083	0	0	0	0
28.81467	-0.259267	-0.02515888	0.01169306	-0.00451159	0.3502359	-0.1351333
28.83098	-0.259267	-0.02515888	0	0	-0.3528971	0.1361601
28.8477	-0.259267	-0.02515888	0	0	0	0
28.86412	-0.2590703	-0.02531065	0.01198613	-0.009246985	0.3617629	-0.2790906
28.88068	-0.2590703	-0.02531065	0	0	-0.3634366	0.2803819
28.89727	-0.2590703	-0.02531065	0	0	0	0
28.92337	-0.2588982	-0.02540551	0.006594152	-0.00363442	0.1544788	-0.08514221
28.93994	-0.2588982	-0.02540551	0	0	-0.1545478	0.08518027
28.9565	-0.2587752	-0.02550037	0.007422145	-0.005725921	0.2240008	-0.1728086
28.97307	-0.2587752	-0.02550037	0	0	-0.2240008	0.1728086
28.99028	-0.2587752	-0.02550037	0	0	0	0
29.00629	-0.2586277	-0.02557626	0.009216032	-0.004740179	0.2774377	-0.1426975
29.02277	-0.2586277	-0.02557626	0	0	-0.2836428	0.145889
29.03934	-0.2586277	-0.02557626	0	0	0	0
29.05633	-0.2584309	-0.0256901	0.01158063	-0.006699467	0.3450746	-0.1996277
29.07247	-0.2584309	-0.0256901	0	0	-0.3495244	0.2022019
29.08904	-0.2584309	-0.0256901	0	0	0	0
29.10587	-0.2581849	-0.0258419	0.01461734	-0.009020059	0.4376752	-0.2700804
29.12217	-0.2581849	-0.0258419	0	0	-0.4411775	0.2722416
29.13874	-0.2581849	-0.0258419	0	0	0	0
29.15531	-0.2580619	-0.02586087	0.007424798	-0.001145451	0.2240938	-0.03457177
29.17548	-0.2580619	-0.02586087	0	0	-0.2021149	0.03118101
29.18844	-0.2580619	-0.02586087	0	0	0	0
29.20534	-0.2580373	-0.0258419	0.001456523	0.0011227	0.04877291	0.03759456
29.22157	-0.2580373	-0.0258419	0	0	-0.04395795	-0.03388314
29.23814	-0.2580373	-0.0258419	0	0	0	0
29.25471	-0.2580373	-0.0258419	0	0	0	0
29.27127	-0.2580373	-0.0258419	0	0	0	0
29.28789	-0.2580373	-0.0258419	0	0	0	0
29.30441	-0.2580373	-0.0258419	0	0	0	0
29.32097	-0.2580373	-0.0258419	0	0	0	0
29.33754	-0.2580373	-0.0258419	0	0	0	0
29.35445	-0.2580127	-0.02586087	0.001453775	-0.00112194	0.0434226	-0.03351106
29.37067	-0.2580127	-0.02586087	0	0	-0.04387755	0.03386217
29.38747	-0.2580127	-0.02586087	0	0	0	0
29.40381	-0.2580127	-0.02586087	0	0	0	0
29.42037	-0.2580127	-0.02586087	0	0	0	0
29.43751	-0.2580127	-0.02586087	0	0	0	0
29.45352	-0.2580127	-0.02586087	0	0	0	0
29.47008	-0.2580127	-0.02586087	0	0	0	0
29.48705	-0.2580127	-0.02586087	0	0	0	0
29.50321	-0.2577913	-0.025766	0.01370646	0.005872519	0.4136857	0.1772432
29.51978	-0.2577913	-0.025766	0	0	-0.4188701	-0.1794644
29.53634	-0.2577913	-0.025766	0	0	0	0
29.55291	-0.2478002	-0.03209089	0.6030636	-0.3817714	18.2005	-11.52188
29.56959	-0.2478002	-0.03209089	0	0	-18.13993	11.48354
29.58613	-0.2478002	-0.03209089	0	0	0	0
29.60263	-0.1950159	-0.05890498	3.198587	-1.624862	96.79542	-49.17146
29.61918	-0.1950159	-0.05890498	0	0	-96.78983	49.16862
29.63574	-0.1950159	-0.05890498	0	0	0	0
29.65231	-0.1003721	-0.08874368	5.712711	-1.801067	172.41	-54.35632
29.66888	-0.1003721	-0.08874368	0	0	-172.41	54.35632
29.68545	-0.1003721	-0.08874368	0	0	0	0
29.7022	-0.02336417	-0.1194282	4.595826	-1.831249	137.9163	-54.95403
29.71858	-0.02336417	-0.1194282	0	0	-138.7103	55.27039
29.73515	-0.02336417	-0.1194282	0	0	0	0
29.75171	0.001078947	-0.1385567	1.475389	-1.154601	44.52734	-34.84592
29.76828	0.001078947	-0.1385567	0	0	-44.52734	34.84592
29.78489	0.001078947	-0.1385567	0	0	0	0
29.80142	0.0001052632	-0.1394073	-0.05891411	-0.05146512	-1.777827	-1.553042
29.81798	0.0001052632	-0.1394073	0	0	1.780491	1.555369
29.83455	0.0001052632	-0.1394073	0	0	0	0
29.85111	-2.631579E-05	-0.1394667	-0.007943035	-0.003582865	-0.2397351	-0.1081373
29.86768	-2.631579E-05	-0.1394667	0	0	0.2397351	0.1081373
29.88425	-2.631579E-05	-0.1394667	0	0	0	0
29.90081	-0.0002894737	-0.1395854	-0.01588607	-0.007165731	-0.4794702	-0.2162746
29.91738	-0.0002894737	-0.1395854	0	0	0.4794702	0.2162746
29.93395	-0.0002894737	-0.1395854	0	0	0	0
29.95053	-0.0005789473	-0.1396843	-0.01745458	-0.005965174	-0.5265074	-0.1799361
29.96755	-0.0005789473	-0.1396843	0	0	0.5194837	0.1775357
29.98365	-0.0005789473	-0.1396843	0	0	0	0
30.00203	-0.002026313	-0.1406144	-0.07872564	-0.050592	-2.282904	-1.467078
30.0186	-0.002026313	-0.1406144	0	0	2.252259	1.447385
30.03517	-0.002026313	-0.1406144	0	0	0	0
30.05173	-0.003815771	-0.1417627	-0.1080119	-0.06931323	-3.259805	-2.091877
30.0683	-0.003815771	-0.1417627	0	0	3.259805	2.091877
30.08487	-0.003815771	-0.1417627	0	0	0	0
30.10143	-0.004210501	-0.1414657	-0.02382873	0.01793142	-0.7191939	0.5412024
30.118	-0.004210501	-0.1414657	0	0	0.7191939	-0.5412024
30.13457	-0.004210501	-0.1414657	0	0	0	0
30.15113	-0.00536837	-0.1405946	-0.06989711	0.05258438	-2.10962	1.587091
30.1677	-0.00536837	-0.1405946	0	0	2.10962	-1.587091
30.18427	-0.00536837	-0.1405946	0	0	0	0
30.20083	-0.005421	-0.140555	-0.003176751	0.002389801	-0.09588006	0.0721285
30.2174	-0.005421	-0.140555	0	0	0.09587455	-0.07212434
30.23397	-0.005421	-0.140555	0	0	0	0
30.25054	-0.005394685	-0.1405748	0.001588376	-0.00119535	0.04793727	-0.03607574
30.27503	-0.005394685	-0.1405748	0	0	-0.03868114	0.02910994
30.28381	-0.005394685	-0.1405748	0	0	0	0
30.30024	-0.00536837	-0.1405946	0.001602024	-0.001204714	0.06355823	-0.04779548
30.3168	-0.00536837	-0.1405946	0	0	-0.04855602	0.03651389
30.33337	-0.00536837	-0.1405946	0	0	0	0
30.34994	-0.00536837	-0.1405946	0	0	0	0
30.36651	-0.00536837	-0.1405946	0	0	0	0
30.38307	-0.00536837	-0.1405946	0	0	0	0
30.39964	-0.00536837	-0.1405946	0	0	0	0
30.41621	-0.00536837	-0.1405946	0	0	0	0
30.43277	-0.00536837	-0.1405946	0	0	0	0
30.44934	-0.00536837	-0.1405946	0	0	0	0
30.46591	-0.00536837	-0.1405946	0	0	0	0
30.48248	-0.00536837	-0.1405946	0	0	0	0
30.49904	-0.00536837	-0.1405946	0	0	0	0
30.51561	-0.00536837	-0.1405946	0	0	0	0
30.53218	-0.00536837	-0.1405946	0	0	0	0
30.54874	-0.005394685	-0.1405748	-0.001588376	0.001194451	-0.04793727	0.0360486
30.56531	-0.005394685	-0.1405748	0	0	0.04793727	-0.0360486
30.58188	-0.005394685	-0.1405748	0	0	0	0
30.5985	-0.005394685	-0.1405748	0	0	0	0
30.61501	-0.005394685	-0.1405748	0	0	0	0
30.63158	-0.005394685	-0.1405748	0	0	0	0
30.64815	-0.00536837	-0.1405946	0.001588376	-0.001194451	0.04793727	-0.0360486
30.66471	-0.00536837	-0.1405946	0	0	-0.04794003	0.03605067
30.68128	-0.00536837	-0.1405946	0	0	0	0
30.69785	-0.00536837	-0.1405946	0	0	0	0
30.7151	-0.00536837	-0.1405946	0	0	0	0
30.73111	-0.00536837	-0.1405946	0	0	0	0
30.74755	-0.005342055	-0.1406144	0.001600723	-0.001203736	0.04932643	-0.03709324
30.76412	-0.005342055	-0.1406144	0	0	-0.04849415	0.03646737
30.78116	-0.005342055	-0.1406144	0	0	0	0
30.79725	-0.005342055	-0.1406144	0	0	0	0
30.81382	-0.005342055	-0.1406144	0	0	0	0
30.83039	-0.005342055	-0.1406144	0	0	0	0
30.84695	-0.005342055	-0.1406144	0	0	0	0
30.86352	-0.005342055	-0.1406144	0	0	0	0
30.88008	-0.005342055	-0.1406144	0	0	0	0
30.89665	-0.005342055	-0.1406144	0	0	0	0
30.91322	-0.005342055	-0.1406144	0	0	0	0
30.92978	-0.005342055	-0.1406144	0	0	0	0
30.94635	-0.005342055	-0.1406144	0	0	0	0
30.96292	-0.005342055	-0.1406144	0	0	0	0
30.97948	-0.005342055	-0.1406144	0	0	0	0
30.99605	-0.005342055	-0.1406144	0	0	0	0
31.01262	-0.005342055	-0.1406144	0	0	0	0
31.02918	-0.005342055	-0.1406144	0	0	0	0
31.04575	-0.005342055	-0.1406144	0	0	0	0
31.06231	-0.005342055	-0.1406144	0	0	0	0
31.07888	-0.005342055	-0.1406144	0	0	0	0
31.09545	-0.005342055	-0.1406144	0	0	0	0
31.11237	-0.005342055	-0.1406144	0	0	0	0
31.12858	-0.005342055	-0.1406144	0	0	0	0
31.14515	-0.005342055	-0.1406144	0	0	0	0
31.16191	-0.005342055	-0.1406144	0	0	0	0
31.17843	-0.005342055	-0.1406144	0	0	0	0
31.19493	-0.005342055	-0.1406144	0	0	0	0
31.21144	-0.005342055	-0.1406144	0	0	0	0
31.22799	-0.005342055	-0.1406144	0	0	0	0
31.24496	-0.005342055	-0.1406144	0	0	0	0
31.26198	-0.005342055	-0.1406144	0	0	0	0
31.278	-0.005342055	-0.1406144	0	0	0	0
31.29502	-0.005342055	-0.1406144	0	0	0	0
31.31101	-0.005342055	-0.1406144	0	0	0	0
31.32752	-0.005342055	-0.1406144	0	0	0	0
31.34406	-0.005342055	-0.1406144	0	0	0	0
31.36053	-0.005342055	-0.1406144	0	0	0	0
31.37718	-0.005342055	-0.1406144	0	0	0	0
31.39365	-0.005342055	-0.1406144	0	0	0	0
31.41022	-0.005342055	-0.1406144	0	0	0	0
31.42678	-0.005342055	-0.1406144	0	0	0	0
31.44335	-0.005342055	-0.1406144	0	0	0	0
31.46022	-0.005342055	-0.1406144	0	0	0	0
31.47648	-0.005342055	-0.1406144	0	0	0	0
31.49305	-0.005342055	-0.1406144	0	0	0	0
31.50961	-0.005342055	-0.1406144	0	0	0	0
31.60782	-0.005342055	-0.1406144	0	0	0	0
31.62439	-0.005342055	-0.1406144	0	0	0	0
31.64103	-0.005342055	-0.1406144	0	0	0	0
31.65804	-0.005342055	-0.1406144	0	0	0	0
31.67843	-0.005342055	-0.1406144	0	0	0	0
31.695	-0.005342055	-0.1406144	0	0	0	0
31.71157	-0.005342055	-0.1406144	0	0	0	0
31.72813	-0.005342055	-0.1406144	0	0	0	0
31.74488	-0.005342055	-0.1406144	0	0	0	0
31.76127	-0.005342055	-0.1406144	0	0	0	0
31.77783	-0.005342055	-0.1406144	0	0	0	0
31.79493	-0.005342055	-0.1406144	0	0	0	0
31.81097	-0.005342055	-0.1406144	0	0	0	0
31.82753	-0.005342055	-0.1406144	0	0	0	0
31.8441	-0.005342055	-0.1406144	0	0	0	0
31.86067	-0.005342055	-0.1406144	0	0	0	0
31.87724	-0.005342055	-0.1406144	0	0	0	0
31.8938	-0.005342055	-0.1406144	0	0	0	0
31.91037	-0.005342055	-0.1406144	0	0	0	0
31.92704	-0.005342055	-0.1406144	0	0	0	0
31.94352	-0.005342055	-0.1406144	0	0	0	0
31.96052	-0.005342055	-0.1406144	0	0	0	0
31.97704	-0.005342055	-0.1406144	0	0	0	0
31.9932	-0.005342055	-0.1406144	0	0	0	0
32.00977	-0.005342055	-0.1406144	0	0	0	0
32.02634	-0.005342055	-0.1406144	0	0	0	0
32.04311	-0.005342055	-0.1406144	0	0	0	0
32.05947	-0.005342055	-0.1406144	0	0	0	0
32.07611	-0.005342055	-0.1406144	0	0	0	0
32.09265	-0.005342055	-0.1406144	0	0	0	0
32.10965	-0.00536837	-0.1405946	-0.001548443	0.001164422	-0.0461792	0.03472653
32.12574	-0.00536837	-0.1405946	0	0	0.04680216	-0.035195
32.1423	-0.00536837	-0.1405946	0	0	0	0
32.15887	-0.005342055	-0.1406144	0.001588376	-0.001194451	0.04793727	-0.0360486
32.17544	-0.005342055	-0.1406144	0	0	-0.04793727	0.0360486
32.19201	-0.005342055	-0.1406144	0	0	0	0
32.20857	-0.005342055	-0.1406144	0	0	0	0
32.22514	-0.005342055	-0.1406144	0	0	0	0
32.24226	-0.005342055	-0.1406144	0	0	0	0
32.25827	-0.005342055	-0.1406144	0	0	0	0
32.27484	-0.005342055	-0.1406144	0	0	0	0
32.29141	-0.005342055	-0.1406144	0	0	0	0
32.30831	-0.005342055	-0.1406144	0	0	0	0
32.32454	-0.005342055	-0.1406144	0	0	0	0
32.34111	-0.005342055	-0.1406144	0	0	0	0
32.35785	-0.00536837	-0.1405946	-0.001572445	0.001182471	-0.04721729	0.03550718
32.37424	-0.00536837	-0.1405946	0	0	0.04746194	-0.03569115
32.39087	-0.00536837	-0.1405946	0	0	0	0
32.40738	-0.00536837	-0.1405946	0	0	0	0
32.42394	-0.00536837	-0.1405946	0	0	0	0
32.44051	-0.00536837	-0.1405946	0	0	0	0
32.45708	-0.005394685	-0.1405748	-0.001588376	0.001194451	-0.04793727	0.0360486
32.47364	-0.005394685	-0.1405748	0	0	0.04793727	-0.0360486
32.49043	-0.005394685	-0.1405748	0	0	0	0
32.50678	-0.005394685	-0.1405748	0	0	0	0
32.52335	-0.005394685	-0.1405748	0	0	0	0
32.53991	-0.005394685	-0.1405748	0	0	0	0
32.55684	-0.005394685	-0.1405748	0	0	0	0
32.57305	-0.005394685	-0.1405748	0	0	0	0
32.58986	-0.005394685	-0.1405748	0	0	0	0
32.60618	-0.005394685	-0.1405748	0	0	0	0
32.6229	-0.005394685	-0.1405748	0	0	0	0
32.6394	-0.005394685	-0.1405748	0	0	0	0
32.65642	-0.005394685	-0.1405748	0	0	0	0
32.67245	-0.005394685	-0.1405748	0	0	0	0
32.68901	-0.005394685	-0.1405748	0	0	0	0
32.70558	-0.005394685	-0.1405748	0	0	0	0
32.72215	-0.005394685	-0.1405748	0	0	0	0
32.73872	-0.005394685	-0.1405748	0	0	0	0
32.75528	-0.005394685	-0.1405748	0	0	0	0
32.77185	-0.005394685	-0.1405748	0	0	0	0
32.78842	-0.005394685	-0.1405748	0	0	0	0
32.80499	-0.00536837	-0.1405946	0.001588376	-0.001194451	0.04793727	-0.0360486
32.82155	-0.00536837	-0.1405946	0	0	-0.04793727	0.0360486
32.83813	-0.00536837	-0.1405946	0	0	0	0
32.85469	-0.00536837	-0.1405946	0	0	0	0
32.87125	-0.00536837	-0.1405946	0	0	0	0
32.88814	-0.00536837	-0.1405946	0	0	0	0
32.90438	-0.00536837	-0.1405946	0	0	0	0
32.92117	-0.00536837	-0.1405946	0	0	0	0
32.93752	-0.00536837	-0.1405946	0	0	0	0
32.95469	-0.00536837	-0.1405946	0	0	0	0
32.97121	-0.00536837	-0.1405946	0	0	0	0
32.98722	-0.00536837	-0.1405946	0	0	0	0
33.00379	-0.00536837	-0.1405946	0	0	0	0
33.02036	-0.00536837	-0.1405946	0	0	0	0
33.03692	-0.00536837	-0.1405946	0	0	0	0
33.05349	-0.00536837	-0.1405946	0	0	0	0
33.07026	-0.00536837	-0.1405946	0	0	0	0
33.08678	-0.00536837	-0.1405946	0	0	0	0
33.10319	-0.005342055	-0.1405748	0.001603514	0.001205834	0.04870252	0.03662406
33.11975	-0.005342055	-0.1405748	0	0	-0.04862365	-0.03656475
33.13632	-0.005342055	-0.1405748	0	0	0	0
33.15289	-0.005236794	-0.1404561	0.006353531	0.007168504	0.1917499	0.2163459
33.16946	-0.005236794	-0.1404561	0	0	-0.1917499	-0.2163459
33.18602	-0.005236794	-0.1404561	0	0	0	0
33.20259	-0.004184186	-0.1397041	0.06353556	0.04539093	1.917507	1.369901
33.21916	-0.004184186	-0.1397041	0	0	-1.917507	-1.369901
33.23588	-0.004184186	-0.1397041	0	0	0	0
33.25238	-0.0001052632	-0.1367182	0.2472289	0.180979	7.441679	5.447534
33.26886	-0.0001052632	-0.1367182	0	0	-7.497638	-5.488497
33.28542	-0.0001052632	-0.1367182	0	0	0	0
33.30199	0.006078872	-0.1323152	0.3732752	0.2657626	11.26547	8.020732
33.31856	0.006078872	-0.1323152	0	0	-11.26547	-8.020732
33.33512	0.006078872	-0.1323152	0	0	0	0
33.35169	0.006052558	-0.1323744	-0.001588713	-0.003573382	-0.04795299	-0.1078573
33.36826	0.006052558	-0.1323744	0	0	0.04795299	0.1078573
33.38482	0.006052558	-0.1323744	0	0	0	0
33.40139	0.006499908	-0.1326703	0.02700213	-0.0178619	0.814926	-0.5390731
33.41796	0.006499908	-0.1326703	0	0	-0.814926	0.5390731
33.43452	0.006499908	-0.1326703	0	0	0	0
33.45109	0.01042068	-0.1354537	0.236658	-0.1680056	7.142352	-5.07042
33.46766	0.01042068	-0.1354537	0	0	-7.142352	5.07042
33.48429	0.01042068	-0.1354537	0	0	0	0
33.50079	0.01042068	-0.1354932	0	-0.002395231	0	-0.07228822
33.51736	0.01042068	-0.1354932	0	0	0	0.07243834
33.53393	0.01042068	-0.1354932	0	0	0	0
33.55086	0.01034174	-0.1354735	-0.004662767	0.001167122	-0.1392001	0.03484273
33.56706	0.01034174	-0.1354735	0	0	0.1407226	-0.03522381
33.58363	0.01034174	-0.1354735	0	0	0	0
33.6002	0.01036805	-0.1354932	0.001588235	-0.001192652	0.04793303	-0.03599431
33.61676	0.01036805	-0.1354932	0	0	-0.04793303	0.03599431
33.63333	0.01036805	-0.1354932	0	0	0	0
33.6499	0.01036805	-0.1354932	0	0	0	0
33.66647	0.01036805	-0.1354932	0	0	0	0
33.68303	0.01036805	-0.1354932	0	0	0	0
33.6996	0.01034174	-0.135513	-0.001588235	-0.001191752	-0.04793303	-0.03596716
33.71617	0.01034174	-0.135513	0	0	0.04793303	0.03596716
33.73296	0.01034174	-0.135513	0	0	0	0
33.7493	0.01031542	-0.1355328	-0.001609733	-0.001208795	-0.04858183	-0.03648151
33.76598	0.01031542	-0.1355328	0	0	0.04873895	0.03659949
33.78244	0.01031542	-0.1355328	0	0	0	0
33.799	0.01031542	-0.1355328	0	0	0	0
33.81557	0.01031542	-0.1355328	0	0	0	0
33.83214	0.01031542	-0.1355328	0	0	0	0
33.84871	0.01028911	-0.1355525	-0.001588291	-0.001191752	-0.04793473	-0.03596716
33.86527	0.01028911	-0.1355525	0	0	0.04793473	0.03596716
33.88184	0.01028911	-0.1355525	0	0	0	0
33.8984	0.01028911	-0.1355525	0	0	0	0
33.91497	0.01028911	-0.1355525	0	0	0	0
33.93154	0.01028911	-0.1355525	0	0	0	0
33.94825	0.01028911	-0.1355525	0	0	0	0
33.96467	0.01028911	-0.1355525	0	0	0	0
33.98124	0.01028911	-0.1355525	0	0	0	0
33.9978	0.01028911	-0.1355525	0	0	0	0
34.01437	0.01028911	-0.1355525	0	0	0	0
34.03094	0.01028911	-0.1355525	0	0	0	0
34.0475	0.01028911	-0.1355525	0	0	0	0
34.06407	0.01028911	-0.1355525	0	0	0	0
34.08064	0.01028911	-0.1355525	0	0	0	0
34.09737	0.01028911	-0.1355525	0	0	0	0
34.11377	0.01028911	-0.1355525	0	0	0	0
34.13034	0.01028911	-0.1355525	0	0	0	0
34.1469	0.0102628	-0.1355723	-0.001588235	-0.001192652	-0.04793303	-0.03599431
34.16928	0.0102628	-0.1355723	0	0	0.04078228	0.0306246
34.18004	0.0102628	-0.1355723	0	0	0	0
34.19682	0.0102628	-0.1355723	0	0	0	0
34.21331	0.0102628	-0.1355723	0	0	0	0
34.22983	0.0102628	-0.1355723	0	0	0	0
34.24631	0.0102628	-0.1355723	0	0	0	0
34.26287	0.0102628	-0.1355723	0	0	0	0
34.27944	0.0102628	-0.1355723	0	0	0	0
34.29601	0.0102628	-0.1355723	0	0	0	0
34.31257	0.0102628	-0.1355723	0	0	0	0
34.32914	0.0102628	-0.1355723	0	0	0	0
34.3457	0.0102628	-0.1355723	0	0	0	0
34.36227	0.0102628	-0.1355723	0	0	0	0
34.37893	0.0102628	-0.1355723	0	0	0	0
34.3954	0.0102628	-0.1355723	0	0	0	0
34.41197	0.0102628	-0.1355723	0	0	0	0
34.42897	0.0102628	-0.1355723	0	0	0	0
34.4451	0.0102628	-0.1355723	0	0	0	0
34.46167	0.0102628	-0.1355723	0	0	0	0
34.47823	0.0102628	-0.1355723	0	0	0	0
34.49506	0.0102628	-0.1355723	0	0	0	0
34.51137	0.0102628	-0.1355723	0	0	0	0
34.52861	0.0102628	-0.1355723	0	0	0	0
34.54622	0.0102628	-0.1355723	0	0	0	0
34.56278	0.0102628	-0.1355723	0	0	0	0
34.57935	0.0102628	-0.1355723	0	0	0	0
34.59592	0.0102628	-0.1355723	0	0	0	0
34.61248	0.0102628	-0.1355723	0	0	0	0
34.62916	0.0102628	-0.1355723	0	0	0	0
34.64562	0.0102628	-0.1355723	0	0	0	0
34.6622	0.0102628	-0.1355723	0	0	0	0
34.67875	0.0102628	-0.1355723	0	0	0	0
34.69532	0.0102628	-0.1355723	0	0	0	0
34.71722	0.0102628	-0.1355723	0	0	0	0
34.72845	0.0102628	-0.1355723	0	0	0	0
34.74502	0.0102628	-0.1355723	0	0	0	0
34.76159	0.0102628	-0.1355723	0	0	0	0
34.77815	0.0102628	-0.1355723	0	0	0	0
34.79472	0.0102628	-0.1355723	0	0	0	0
34.81128	0.0102628	-0.1355723	0	0	0	0
34.82814	0.0102628	-0.1355723	0	0	0	0
34.84463	0.0102628	-0.1355723	0	0	0	0
34.86098	0.0102628	-0.1355723	0	0	0	0
34.87754	0.0102628	-0.1355723	0	0	0	0
34.89411	0.0102628	-0.1355723	0	0	0	0
34.91068	0.0102628	-0.1355723	0	0	0	0
34.92725	0.0102628	-0.1355723	0	0	0	0
34.94381	0.01023648	-0.135592	-0.001588235	-0.001191752	-0.04793303	-0.03596716
34.96038	0.01023648	-0.135592	0	0	0.04793303	0.03596716
34.97695	0.01023648	-0.135592	0	0	0	0
34.99352	0.01023648	-0.135592	0	0	0	0
35.01008	0.01023648	-0.135592	0	0	0	0
35.02677	0.01023648	-0.135592	0	0	0	0
35.04329	0.01023648	-0.135592	0	0	0	0
35.05979	0.01023648	-0.135592	0	0	0	0
35.07635	0.01023648	-0.135592	0	0	0	0
35.09292	0.01023648	-0.135592	0	0	0	0
35.10949	0.01023648	-0.135592	0	0	0	0
35.12633	0.01023648	-0.135592	0	0	0	0
35.14644	0.01023648	-0.135592	0	0	0	0
35.16301	0.01023648	-0.135592	0	0	0	0
35.17958	0.01023648	-0.135592	0	0	0	0
35.19615	0.01023648	-0.135592	0	0	0	0
35.21271	0.01023648	-0.135592	0	0	0	0
35.22927	0.01021017	-0.1355723	-0.001588657	0.001192027	-0.04795681	0.03598373
35.24584	0.01021017	-0.1355723	0	0	0.04795129	-0.03597959
35.26688	0.01021017	-0.1355723	0	0	0	0
35.27898	0.01021017	-0.1355723	0	0	0	0
35.29554	0.01021017	-0.1355723	0	0	0	0
35.31211	0.01021017	-0.1355723	0	0	0	0
35.32867	0.01021017	-0.1355723	0	0	0	0
35.3455	0.01021017	-0.1355723	0	0	0	0
35.36181	0.01021017	-0.1355723	0	0	0	0
35.37837	0.01023648	-0.135592	0.001588657	-0.001192027	0.04832408	-0.03625931
35.39503	0.01023648	-0.135592	0	0	-0.04782464	0.03588456
35.41154	0.01023648	-0.135592	0	0	0	0
35.42807	0.01023648	-0.135592	0	0	0	0
35.44464	0.01023648	-0.135592	0	0	0	0
35.46121	0.01023648	-0.135592	0	0	0	0
35.47777	0.01021017	-0.1356118	-0.001588657	-0.001192927	-0.04795129	-0.03600674
35.49459	0.01021017	-0.1356118	0	0	0.04759508	0.03573927
35.51112	0.01021017	-0.1356118	0	0	0	0
35.52747	0.01021017	-0.1356118	0	0	0	0
35.54412	0.01021017	-0.1356118	0	0	0	0
35.56061	0.01021017	-0.1356118	0	0	0	0
35.57718	0.01018386	-0.1356315	-0.001588235	-0.001192652	-0.04805474	-0.03608571
35.59374	0.01018386	-0.1356315	0	0	0.04793303	0.03599431
35.61043	0.01018386	-0.1356315	0	0	0	0
35.62688	0.01015755	-0.1356118	-0.00159971	0.001201226	-0.04827934	0.03625308
35.64344	0.01015755	-0.1356118	0	0	0.04845227	-0.03638293
35.66001	0.01015755	-0.1356118	0	0	0	0
35.67658	0.01015755	-0.1356118	0	0	0	0
35.69315	0.01015755	-0.1356118	0	0	0	0
35.70971	0.01015755	-0.1356118	0	0	0	0
35.72628	0.01015755	-0.1356118	0	0	0	0
35.74302	0.01015755	-0.1356118	0	0	0	0
35.75941	0.01015755	-0.1356118	0	0	0	0
35.77604	0.01015755	-0.1356118	0	0	0	0
35.79255	0.01015755	-0.1356118	0	0	0	0
35.8173	0.01015755	-0.1356118	0	0	0	0
35.83034	0.01015755	-0.1356118	0	0	0	0
35.8469	0.01015755	-0.1356118	0	0	0	0
35.86409	0.01015755	-0.1356118	0	0	0	0
35.8801	0.01015755	-0.1356118	0	0	0	0
35.89661	0.01015755	-0.1356118	0	0	0	0
35.91317	0.01015755	-0.1356118	0	0	0	0
35.92974	0.01018386	-0.1356315	0.001588291	-0.001192652	0.04794577	-0.03600259
35.94631	0.01018386	-0.1356315	0	0	-0.04793473	0.03599431
35.96288	0.01018386	-0.1356315	0	0	0	0
35.97967	0.01015755	-0.1356118	-0.001566648	0.0011764	-0.04695715	0.03526025
35.99601	0.01015755	-0.1356118	0	0	0.04728152	-0.03550381
36.01257	0.01015755	-0.1356118	0	0	0	0
36.02914	0.01015755	-0.1356118	0	0	0	0
36.04571	0.01015755	-0.1356118	0	0	0	0
36.06228	0.01015755	-0.1356118	0	0	0	0
36.07884	0.01015755	-0.1356118	0	0	0	0
36.09576	0.01015755	-0.1356118	0	0	0	0
36.11229	0.01015755	-0.1356118	0	0	0	0
36.13146	0.01015755	-0.1356118	0	0	0	0
36.14803	0.01015755	-0.1356118	0	0	0	0
36.1646	0.01015755	-0.1356118	0	0	0	0
36.18116	0.01015755	-0.1356118	0	0	0	0
36.19783	0.01015755	-0.1356118	0	0	0	0
36.21429	0.01015755	-0.1356118	0	0	0	0
36.23087	0.01015755	-0.1356118	0	0	0	0
36.24743	0.01015755	-0.1356118	0	0	0	0
36.264	0.01015755	-0.1356118	0	0	0	0
36.28056	0.01015755	-0.1356118	0	0	0	0
36.29713	0.01015755	-0.1356118	0	0	0	0
36.3137	0.01015755	-0.1356118	0	0	0	0
36.33027	0.01015755	-0.1356118	0	0	0	0
36.34683	0.01015755	-0.1356118	0	0	0	0
36.3634	0.01015755	-0.1356118	0	0	0	0
36.37997	0.01015755	-0.1356118	0	0	0	0
36.39653	0.01015755	-0.1356118	0	0	0	0
36.41331	0.01015755	-0.1356118	0	0	0	0
36.42982	0.01015755	-0.1356118	0	0	0	0
36.44624	0.01015755	-0.1356118	0	0	0	0
36.46286	0.01015755	-0.1356118	0	0	0	0
36.47937	0.01015755	-0.1356118	0	0	0	0
36.49593	0.01015755	-0.1356118	0	0	0	0
36.5125	0.01015755	-0.1356118	0	0	0	0
36.5299	0.01015755	-0.1356118	0	0	0	0
36.54564	0.01015755	-0.1356118	0	0	0	0
36.5622	0.01015755	-0.1356118	0	0	0	0
36.57893	0.01015755	-0.1356118	0	0	0	0
36.59544	0.01015755	-0.1356118	0	0	0	0
36.61248	0.01015755	-0.1356118	0	0	0	0
36.62846	0.01015755	-0.1356118	0	0	0	0
36.64503	0.01015755	-0.1356118	0	0	0	0
36.6616	0.01015755	-0.1356118	0	0	0	0
36.67838	0.01013123	-0.1356315	-0.00156873	-0.001178005	-0.04704646	-0.03532856
36.69473	0.01013123	-0.1356315	0	0	0.04735526	0.03556045
36.7119	0.01013123	-0.1356315	0	0	0	0
36.7279	0.01013123	-0.1356315	0	0	0	0
36.74443	0.01013123	-0.1356315	0	0	0	0
36.761	0.01013123	-0.1356315	0	0	0	0
36.77756	0.01013123	-0.1356315	0	0	0	0
36.79413	0.01013123	-0.1356315	0	0	0	0
36.8107	0.01013123	-0.1356315	0	0	0	0
36.83009	0.01013123	-0.1356315	0	0	0	0
36.84666	0.01013123	-0.1356315	0	0	0	0
36.86323	0.01013123	-0.1356315	0	0	0	0
36.8798	0.01010492	-0.1356513	-0.001588291	-0.001191752	-0.04793473	-0.03596716
36.89654	0.01010492	-0.1356513	0	0	0.04767675	0.03577359
36.91306	0.01010492	-0.1356513	0	0	0	0
36.92949	0.009973354	-0.13575	-0.008007665	-0.00601129	-0.2430148	-0.1824292
36.94606	0.009973354	-0.13575	0	0	0.2426776	0.1821761
36.96263	0.009973354	-0.13575	0	0	0	0
36.97919	0.009920727	-0.1357895	-0.003177258	-0.002385853	-0.09588984	-0.0720052
36.99576	0.009920727	-0.1357895	0	0	0.09590088	0.07201349
37.01233	0.009920727	-0.1357895	0	0	0	0
37.02911	0.0098681	-0.135829	-0.003135432	-0.002353516	-0.09401059	-0.07056617
37.04564	0.0098681	-0.135829	0	0	0.0941398	0.07066315
37.06215	0.0098681	-0.135829	0	0	0	0
37.0786	0.009815474	-0.135829	-0.003199363	0	-0.09705982	0
37.09519	0.009815474	-0.135829	0	0	0.09683568	0
37.11173	0.009815474	-0.135829	0	0	0	0
37.12871	0.009710222	-0.13575	-0.006200294	0.004655021	-0.1849744	0.138874
37.14487	0.009710222	-0.13575	0	0	0.1871253	-0.1404888
37.16143	0.009710222	-0.13575	0	0	0	0
37.178	0.009368147	-0.1355723	-0.02064767	0.01073027	-0.6231481	0.3238402
37.19457	0.009368147	-0.1355723	0	0	0.6231481	-0.3238402
37.21127	0.009368147	-0.1355723	0	0	0	0
37.22776	0.009157639	-0.1354932	-0.01276211	0.004789764	-0.3844972	0.1443062
37.24427	0.009157639	-0.1354932	0	0	0.3867194	-0.1451402
37.26113	0.009157639	-0.1354932	0	0	0	0
37.27761	0.009078698	-0.135434	-0.004789134	0.003595269	-0.1436105	0.1078104
37.29414	0.009078698	-0.135434	0	0	0.1450876	-0.1089192
37.31066	0.009078698	-0.135434	0	0	0	0
37.3271	0.009078698	-0.135434	0	0	0	0
37.34367	0.009078698	-0.135434	0	0	0	0
37.36023	0.009078698	-0.135434	0	0	0	0
37.37719	0.008815561	-0.135197	-0.01551501	0.01397411	-0.4627565	0.4167971
37.39337	0.008815561	-0.135197	0	0	0.468244	-0.4217396
37.41022	0.008815561	-0.135197	0	0	0	0
37.42675	0.008236656	-0.134644	-0.03500729	0.03343696	-1.048555	1.001519
37.44307	0.008236656	-0.134644	0	0	1.065724	-1.017919
37.45976	0.008236656	-0.134644	0	0	0	0
37.47628	0.006605167	-0.1320785	-0.09877253	0.1553199	-2.974113	4.676795
37.49279	0.006605167	-0.1320785	0	0	2.989911	-4.701637
37.50933	0.006605167	-0.1320785	0	0	0	0
37.52849	0.004315763	-0.08981053	-0.1195049	2.206353	-3.348027	61.81277
37.54506	0.004315763	-0.08981053	0	0	3.345167	-61.75997
37.56162	0.004315763	-0.08981053	0	0	0	0
37.57819	0.009447088	-0.03778115	0.3097987	3.141223	9.350821	94.81321
37.59475	0.009447088	-0.03778115	0	0	-9.350821	-94.81321
37.61135	0.009447088	-0.03778115	0	0	0	0
37.62789	0.01276246	0.004073638	0.2004396	2.530438	6.04928	76.36877
37.64445	0.01276246	0.004073638	0	0	-6.054159	-76.43037
37.66139	0.01276246	0.004073638	0	0	0	0
37.67759	0.01155212	0.04560077	-0.07472566	2.563846	-2.255485	77.38593
37.69415	0.01155212	0.04560077	0	0	2.280694	-78.25087
37.71072	0.01155212	0.04560077	0	0	0	0
37.72728	0.0137886	0.09085411	0.1350254	2.732126	4.075544	82.46522
37.74395	0.0137886	0.09085411	0	0	-4.063379	-82.21909
37.76045	0.0137886	0.09085411	0	0	0	0
37.77699	0.02770344	0.115764	0.8416454	1.506684	25.47717	45.60832
37.79399	0.02770344	0.115764	0	0	-25.09181	-44.91846
37.8105	0.02770344	0.115764	0	0	0	0
37.82669	0.04171263	0.1256444	0.8657302	0.6105855	26.48144	18.67693
37.84325	0.04171263	0.1256444	0	0	-26.43517	-18.6443
37.86054	0.04171263	0.1256444	0	0	0	0
37.87675	0.055207	0.1352326	0.8323454	0.5914109	24.84563	17.6537
37.89332	0.055207	0.1352326	0	0	-25.3921	-18.04199
37.91007	0.055207	0.1352326	0	0	0	0
37.92659	0.06433216	0.1437491	0.5523215	0.5154816	16.6022	15.49483
37.94302	0.06433216	0.1437491	0	0	-16.76172	-15.64371
37.95959	0.06433216	0.1437491	0	0	0	0
37.97654	0.05043089	0.1545398	-0.8205662	0.6369545	-24.48287	19.00453
37.99312	0.05043089	0.1545398	0	0	24.47452	-18.99804
38.00967	0.05043089	0.1545398	0	0	0	0
38.02624	0.04192279	0.1604172	-0.5135496	0.35476	-15.5061	10.71161
38.04281	0.04192279	0.1604172	0	0	15.49896	-10.70668
38.05938	0.04192279	0.1604172	0	0	0	0
38.07594	0.03782406	0.1632813	-0.2474002	0.1728743	-7.466552	5.217356
38.09267	0.03782406	0.1632813	0	0	7.431474	-5.192844
38.10917	0.03782406	0.1632813	0	0	0	0
38.12564	0.02060235	0.1765511	-1.045281	0.805421	-31.69625	24.42294
38.14221	0.02060235	0.1765511	0	0	31.63404	-24.375
38.15921	0.02060235	0.1765511	0	0	0	0
38.17535	-0.01278878	0.1994987	-2.068845	1.421783	-62.43787	42.90949
38.19273	-0.01278878	0.1994987	0	0	61.70615	-42.40662
38.20876	-0.01278878	0.1994987	0	0	0	0
38.22527	-0.0224173	0.2061655	-0.5834626	0.403989	-17.93518	12.4183
38.24177	-0.0224173	0.2061655	0	0	17.67813	-12.24032
38.25818	-0.0224173	0.2061655	0	0	0	0
38.27479	-0.02215427	0.2059493	0.01583992	-0.01301545	0.4797066	-0.3941684
38.29131	-0.02215427	0.2059493	0	0	-0.4781048	0.3928522
38.30788	-0.02215427	0.2059493	0	0	0	0
38.32445	-0.02207536	0.2058953	0.004762962	-0.003261355	0.1437465	-0.09842788
38.34101	-0.02207536	0.2058953	0	0	-0.1437465	0.09842788
38.35758	-0.02207536	0.2058953	0	0	0	0
38.37415	-0.02204906	0.2058773	0.001587617	-0.001087418	0.04791437	-0.03281834
38.39072	-0.02204906	0.2058773	0	0	-0.04791437	0.03281834
38.40739	-0.02204906	0.2058773	0	0	0	0
38.42389	-0.02202275	0.2058593	0.001595075	-0.001092449	0.04808962	-0.03293604
38.44042	-0.02202275	0.2058593	0	0	-0.04830071	0.03308062
38.45699	-0.02202275	0.2058593	0	0	0	0
38.47355	-0.02191754	0.2057872	0.006350579	-0.004348773	0.1916609	-0.1312462
38.49012	-0.02191754	0.2057872	0	0	-0.1916609	0.1312462
38.50669	-0.02191754	0.2057872	0	0	0	0
38.52325	-0.02178603	0.2056972	0.007938309	-0.005435291	0.2395786	-0.1640374
38.53999	-0.02178603	0.2056972	0	0	-0.2383984	0.1632293
38.55639	-0.02178603	0.2056972	0	0	0	0
38.57299	-0.02173342	0.2056251	0.003168051	-0.004338782	0.09597661	-0.1314441
38.58952	-0.02173342	0.2056251	0	0	-0.09561198	0.1309447
38.60655	-0.02173342	0.2056251	0	0	0	0
38.62861	-0.0216019	0.2055351	0.005960678	-0.004081842	0.1524891	-0.1044238
38.64518	-0.0216019	0.2055351	0	0	-0.154296	0.1056611
38.66175	-0.0215493	0.205499	0.003175346	-0.002174836	0.09583213	-0.06563668
38.67831	-0.0215493	0.205499	0	0	-0.09583213	0.06563668
38.69507	-0.0215493	0.205499	0	0	0	0
38.7116	-0.02147038	0.205445	0.004774068	-0.003268881	0.1434376	-0.09821405
38.7281	-0.02147038	0.205445	0	0	-0.1445142	0.09895123
38.74458	-0.02147038	0.205445	0	0	0	0
38.76115	-0.02141778	0.205409	0.003176077	-0.002175337	0.09611978	-0.0658337
38.77772	-0.02141778	0.205409	0	0	-0.0958542	0.0656518
38.79428	-0.02141778	0.205409	0	0	0	0
38.81085	-0.02115474	0.2052289	0.01588072	-0.01087489	0.4793364	-0.3282425
38.82768	-0.02115474	0.2052289	0	0	-0.4755039	0.325618
38.84398	-0.02115474	0.2052289	0	0	0	0
38.8607	-0.01831374	0.2032832	0.1699568	-0.1163923	5.147677	-3.52531
38.87712	-0.01831374	0.2032832	0	0	-5.129305	3.512728
38.89368	-0.01831374	0.2032832	0	0	0	0
38.91025	-0.001026315	0.1914367	1.043471	-0.7150605	31.49565	-21.58305
38.92691	-0.001026315	0.1914367	0	0	-31.39804	21.51616
38.94391	-0.001026315	0.1914367	0	0	0	0
38.95995	0.0008947366	0.1901192	0.1198173	-0.08217066	3.62737	-2.487648
38.97651	0.0008947366	0.1901192	0	0	-3.675333	2.520541
38.99308	0.0008947366	0.1901192	0	0	0	0
39.00996	0.0009210524	0.1901011	0.001558634	-0.001069674	0.04659443	-0.03197725
39.02645	0.0009210524	0.1901011	0	0	-0.04670094	0.03205035
39.04278	0.0009210524	0.1901011	0	0	0	0
39.05935	0.0008947366	0.1900831	-0.001588421	-0.001089217	-0.04829449	-0.03311664
39.07591	0.0008947366	0.1900831	0	0	0.04793865	0.03287263
39.09251	0.0008947366	0.1900831	0	0	0	0
39.10905	0.0008947366	0.1899026	0	-0.01091497	0	-0.3294145
39.12561	0.0008947366	0.1899026	0	0	0	0.3297182
39.14218	0.0008947366	0.1899026	0	0	0	0
39.15875	0.01339394	0.1806732	0.7544532	-0.557089	22.76944	-16.81298
39.17532	0.01339394	0.1806732	0	0	-22.76944	16.81298
39.19188	0.01339394	0.1806732	0	0	0	0
39.20861	0.04118722	0.1549028	1.661538	-1.540604	49.904	-46.27177
39.22502	0.04118722	0.1549028	0	0	-50.14531	46.49551
39.24163	0.04118722	0.1549028	0	0	0	0
39.25815	0.05531194	0.113149	0.8551298	-2.527832	25.81084	-76.2989
39.27472	0.05531194	0.113149	0	0	-25.84655	76.40446
39.29128	0.05531194	0.113149	0	0	0	0
39.30785	0.0532916	0.06306679	-0.1219482	-3.022969	-3.680404	-91.23337
39.32469	0.0532916	0.06306679	0	0	3.650147	90.48334
39.34118	0.0532916	0.06306679	0	0	0	0
39.3577	0.04680789	0.01954875	-0.3926232	-2.635249	-11.89596	-79.84451
39.3742	0.04680789	0.01954875	0	0	11.89046	79.80761
39.39073	0.04680789	0.01954875	0	0	0	0
39.40725	0.03514342	0.009465009	-0.7058566	-0.6102014	-21.35689	-18.46268
39.42382	0.03514342	0.009465009	0	0	21.32981	18.43927
39.44039	0.03514342	0.009465009	0	0	0	0
39.45695	0.03514342	0.00950255	0	0.002266482	0	0.06841044
39.47352	0.03514342	0.00950255	0	0	0	-0.06841044
39.49009	0.03514342	0.00950255	0	0	0	0
39.50665	0.0351697	0.00952132	0.00158638	0.001132952	0.04787704	0.03419256
39.52384	0.0351697	0.00952132	0	0	-0.04699514	-0.03356272
39.53986	0.0351697	0.00952132	0	0	0	0
39.55635	0.0351697	0.009596399	0	0.004553827	0	0.1400796
39.57292	0.0351697	0.009596399	0	0	0	-0.1377679
39.58949	0.0351697	0.009596399	0	0	0	0
39.60605	0.03519599	0.009577629	0.001586605	-0.001132952	0.04788383	-0.03419256
39.62262	0.03519599	0.009577629	0	0	-0.04788383	0.03419256
39.63919	0.03519599	0.009577629	0	0	0	0
39.65593	0.03524855	0.009540089	0.003140223	-0.002242666	0.09428364	-0.06733496
39.67232	0.03524855	0.009540089	0	0	-0.0947721	0.06768381
39.68889	0.03524855	0.009540089	0	0	0	0
39.71241	0.03524855	0.009540089	0	0	0	0
39.76924	0.03524855	0.009540089	0	0	0	0
39.78603	0.03524855	0.009540089	0	0	0	0
39.80237	0.03524855	0.009540089	0	0	0	0
39.81894	0.03524855	0.009540089	0	0	0	0
39.83556	0.03524855	0.009540089	0	0	0	0
39.8521	0.03524855	0.009540089	0	0	0	0
39.86911	0.03524855	0.009540089	0	0	0	0
39.8852	0.03524855	0.009540089	0	0	0	0
39.90211	0.03524855	0.009540089	0	0	0	0
39.91833	0.03524855	0.009540089	0	0	0	0
39.93515	0.03524855	0.009540089	0	0	0	0
39.95147	0.03524855	0.009540089	0	0	0	0
39.96818	0.03524855	0.009540089	0	0	0	0
39.9846	0.03527484	0.00952132	0.001600238	-0.001142687	0.04829528	-0.03448636
40.00167	0.03527484	0.00952132	0	0	-0.04777278	0.03411326
40.01774	0.03527484	0.00952132	0	0	0	0
40.03431	0.03527484	0.00952132	0	0	0	0
40.05087	0.03527484	0.00952132	0	0	0	0
40.06744	0.03527484	0.00952132	0	0	0	0
40.08401	0.03524855	0.00950255	-0.001586605	-0.001132952	-0.04788383	-0.03419256
40.10057	0.03524855	0.00950255	0	0	0.04788383	0.03419256
40.11714	0.03524855	0.00950255	0	0	0	0
40.13371	0.03527484	0.009483779	0.001586605	-0.001133008	0.04788383	-0.03419425
40.15028	0.03527484	0.009483779	0	0	-0.04788383	0.03419425
40.16684	0.03527484	0.009483779	0	0	0	0
40.18341	0.03530112	0.009465009	0.00158638	-0.001132952	0.04787704	-0.03419256
40.19998	0.03530112	0.009465009	0	0	-0.04787704	0.03419256
40.21655	0.03530112	0.009465009	0	0	0	0
40.23311	0.03530112	0.009465009	0	0	0	0
40.24968	0.03530112	0.009465009	0	0	0	0
40.26625	0.03530112	0.009465009	0	0	0	0
40.28448	0.03530112	0.009465009	0	0	0	0
40.30104	0.03530112	0.009465009	0	0	0	0
40.31789	0.03530112	0.009465009	0	0	0	0
40.33418	0.03530112	0.009465009	0	0	0	0
40.35075	0.03530112	0.009465009	0	0	0	0
40.36745	0.03530112	0.009465009	0	0	0	0
40.38388	0.0353274	0.009446238	0.001600383	-0.001143009	0.04830521	-0.03450006
40.40047	0.0353274	0.009446238	0	0	-0.04847265	0.03461964
40.41701	0.0353274	0.009446238	0	0	0	0
40.43399	0.0353274	0.009446238	0	0	0	0
40.45014	0.0353274	0.009446238	0	0	0	0
40.46671	0.0353274	0.009446238	0	0	0	0
40.48328	0.0353274	0.009408697	0	-0.002266016	0	-0.06838851
40.49984	0.0353274	0.009408697	0	0	0	0.06838851
40.51641	0.0353274	0.009408697	0	0	0	0
40.53305	0.03785034	0.007606233	0.1516561	-0.1083478	4.567524	-3.263182
40.54955	0.03785034	0.007606233	0	0	-4.576989	3.269944
40.56632	0.03785034	0.007606233	0	0	0	0
40.58281	0.04021515	0.005915557	0.1434008	-0.1025216	4.310972	-3.082042
40.59932	0.04021515	0.005915557	0	0	-4.344853	3.106266
40.61581	0.04021515	0.005915557	0	0	0	0
40.63238	0.04026769	0.005877977	0.003171636	-0.002268349	0.09595214	-0.06862482
40.64936	0.04026769	0.005877977	0	0	-0.09452311	0.06760278
40.66551	0.04026769	0.005877977	0	0	0	0
40.68238	0.04026769	0.005877977	0	0	0	0
40.69889	0.04026769	0.005877977	0	0	0	0
40.71521	0.04026769	0.005877977	0	0	0	0
40.73177	0.04026769	0.005877977	0	0	0	0
40.74834	0.04026769	0.005877977	0	0	0	0
40.76491	0.04026769	0.005877977	0	0	0	0
40.78148	0.04026769	0.005877977	0	0	0	0
40.79804	0.04026769	0.005877977	0	0	0	0
40.81461	0.04026769	0.005877977	0	0	0	0
40.83145	0.04026769	0.005877977	0	0	0	0
40.84802	0.04026769	0.005877977	0	0	0	0
40.86459	0.04026769	0.005877977	0	0	0	0
40.88121	0.04026769	0.005877977	0	0	0	0
40.89772	0.04026769	0.005877977	0	0	0	0
40.91429	0.04026769	0.005877977	0	0	0	0
40.93085	0.04026769	0.005877977	0	0	0	0
40.94777	0.04026769	0.005877977	0	0	0	0
40.96399	0.04026769	0.005877977	0	0	0	0
40.9808	0.04026769	0.005877977	0	0	0	0
40.9973	0.04026769	0.005877977	0	0	0	0
41.01383	0.04026769	0.005877977	0	0	0	0
41.03025	0.04026769	0.005877977	0	0	0	0
41.04683	0.04026769	0.005877977	0	0	0	0
41.06339	0.04026769	0.005877977	0	0	0	0
41.07995	0.04026769	0.005877977	0	0	0	0
41.10237	0.04026769	0.005877977	0	0	0	0
41.11894	0.04026769	0.005877977	0	0	0	0
41.13551	0.04026769	0.005877977	0	0	0	0
41.15207	0.04026769	0.005877977	0	0	0	0
41.16864	0.04026769	0.005877977	0	0	0	0
41.18521	0.04029397	0.005859186	0.00158593	-0.001134189	0.04786347	-0.03422988
41.20195	0.04029397	0.005859186	0	0	-0.04761133	0.03404956
41.21834	0.04029397	0.005859186	0	0	0	0
41.23491	0.04029397	0.005859186	0	0	0	0
41.25148	0.04029397	0.005859186	0	0	0	0
41.26804	0.04029397	0.005859186	0	0	0	0
41.28461	0.04029397	0.005859186	0	0	0	0
41.30118	0.04029397	0.005859186	0	0	0	0
41.31775	0.04029397	0.005859186	0	0	0	0
41.33431	0.04026769	0.005877977	-0.00158593	0.001134189	-0.04786347	0.03422988
41.35088	0.04026769	0.005877977	0	0	0.04786347	-0.03422988
41.36745	0.04026769	0.005877977	0	0	0	0
41.38401	0.04026769	0.005877977	0	0	0	0
41.40062	0.04026769	0.005877977	0	0	0	0
41.41715	0.04026769	0.005877977	0	0	0	0
41.43372	0.04026769	0.005877977	0	0	0	0
41.45028	0.04026769	0.005877977	0	0	0	0
41.46685	0.04026769	0.005877977	0	0	0	0
41.48342	0.04026769	0.005877977	0	0	0	0
41.50021	0.04026769	0.005877977	0	0	0	0
41.51655	0.04026769	0.005877977	0	0	0	0
41.53321	0.04026769	0.005877977	0	0	0	0
41.54969	0.04026769	0.005877977	0	0	0	0
41.56625	0.04026769	0.005877977	0	0	0	0
41.58282	0.04026769	0.005877977	0	0	0	0
41.59939	0.04026769	0.005877977	0	0	0	0
41.61596	0.04026769	0.005877977	0	0	0	0
41.6328	0.04026769	0.005877977	0	0	0	0
41.6494	0.04026769	0.005877977	0	0	0	0
41.66565	0.04026769	0.005877977	0	0	0	0
41.68222	0.04029397	0.005859186	0.00158593	-0.001134189	0.04832525	-0.03456012
41.69879	0.04029397	0.005859186	0	0	-0.04786347	0.03422988
41.71535	0.04029397	0.005859186	0	0	0	0
41.73192	0.04029397	0.005859186	0	0	0	0
41.74849	0.04029397	0.005859186	0	0	0	0
41.76506	0.04029397	0.005859186	0	0	0	0
41.78203	0.04032024	0.005840396	0.001547577	-0.001106917	0.04613762	-0.03300031
41.79819	0.04032024	0.005840396	0	0	-0.04671135	0.03341067
41.81475	0.04032024	0.005840396	0	0	0	0
41.83132	0.04032024	0.005840396	0	0	0	0
41.84807	0.04032024	0.005840396	0	0	0	0
41.86446	0.04032024	0.005840396	0	0	0	0
41.88102	0.04032024	0.005840396	0	0	0	0
41.89762	0.04032024	0.005840396	0	0	0	0
41.91768	0.04032024	0.005840396	0	0	0	0
41.93072	0.04032024	0.005840396	0	0	0	0
41.94729	0.04032024	0.005840396	0	0	0	0
41.96386	0.04032024	0.005840396	0	0	0	0
41.98065	0.04032024	0.005840396	0	0	0	0
41.99699	0.04032024	0.005840396	0	0	0	0
42.01369	0.04032024	0.005840396	0	0	0	0
42.0302	0.04032024	0.005840396	0	0	0	0
42.04673	0.04032024	0.005840396	0	0	0	0
42.06326	0.04032024	0.005840396	0	0	0	0
42.07982	0.04032024	0.005840396	0	0	0	0
42.09676	0.04032024	0.005840396	0	0	0	0
42.11327	0.04032024	0.005840396	0	0	0	0
42.12952	0.04032024	0.005840396	0	0	0	0
42.14609	0.04032024	0.005840396	0	0	0	0
42.1628	0.04032024	0.005840396	0	0	0	0
42.17931	0.04032024	0.005840396	0	0	0	0
42.19601	0.04032024	0.005840396	0	0	0	0
42.21236	0.04032024	0.005840396	0	0	0	0
42.22892	0.04032024	0.005840396	0	0	0	0
42.24549	0.04032024	0.005840396	0	0	0	0
42.26206	0.04032024	0.005840396	0	0	0	0
42.27863	0.04032024	0.005840396	0	0	0	0
42.29519	0.04032024	0.005840396	0	0	0	0
42.31176	0.04032024	0.005840396	0	0	0	0
42.32833	0.04032024	0.005840396	0	0	0	0
42.34489	0.04032024	0.005840396	0	0	0	0
42.36146	0.04032024	0.005840396	0	0	0	0
42.37845	0.04032024	0.005840396	0	0	0	0
42.3946	0.04032024	0.005840396	0	0	0	0
42.41116	0.04032024	0.005840396	0	0	0	0
42.42773	0.04034651	0.005821606	0.00158593	-0.001134189	0.04786347	-0.03422988
42.4443	0.04034651	0.005821606	0	0	-0.04786347	0.03422988
42.46087	0.04034651	0.005821606	0	0	0	0
42.47751	0.04034651	0.005821606	0	0	0	0
42.494	0.04034651	0.005821606	0	0	0	0
42.51056	0.04034651	0.005821606	0	0	0	0
42.52757	0.04034651	0.005821606	0	0	0	0
42.54406	0.04034651	0.005821606	0	0	0	0
42.56059	0.04034651	0.005821606	0	0	0	0
