Time	Pos X	Pos Y	Vel X	Vel Y	Acc X	Acc Y
0.01656671	-0.007334067	0.01038993	0.001405198	-0.001990697	-0.0002700916	0.0003826297
0.03320212	-0.006111722	0.009167584	0.07347851	-0.07347849	-0.01385331	0.01374077
0.04980357	-0.006111723	0.00794524	-5.609886E-08	-0.07362874	-2.210756	-0.004520536
0.06626607	-0.006111723	0.00794524	0	0	1.696677E-06	2.226858
0.08354373	-0.006111723	0.00794524	0	0	0	0
0.1001136	-0.006111723	0.00794524	0	0	0	0
0.1166977	-0.006111723	0.006722894	0	-0.07370591	0	-2.223141
0.1332478	-0.003667034	0.006722894	0.1477142	0	4.458056	2.224465
0.1500403	0.008556412	0.001833517	0.72791	-0.291164	17.40101	-8.732479
0.1663809	0.03789268	-0.0006111722	1.795308	-0.149609	32.2155	4.272322
0.1829476	0.1283462	-0.00550055	5.459955	-0.2951327	111.363	-4.422242
0.1997689	0.1723506	-0.00550055	2.615989	0	-85.17921	8.839477
0.216081	0.2579147	-0.00550055	5.245441	-2.8547E-08	79.35953	-8.615773E-07
0.2326465	0.3850385	0.00794524	7.673996	0.8116727	73.86652	24.68769
0.2492421	0.4473781	0.02016868	3.756406	0.7365506	-118.1383	-2.265372
0.2658115	0.4938272	0.03483682	2.803292	0.88525	-28.73854	4.483625
0.2823771	0.498459	0.03922498	0.2796075	0.2648973	-76.16369	-18.72197
0.2989438	0.4979418	0.04532094	-0.03121858	0.3679642	-9.381374	3.110771
0.3155105	0.497032	0.05439866	-0.05491764	0.547949	-0.715261	5.432119
0.3321487	0.4962587	0.06105213	-0.04647993	0.3998921	0.2541105	-4.458889
0.3487186	0.4955415	0.0666228	-0.04328112	0.3361924	0.09632636	-1.918202
0.3652758	0.4950291	0.07032903	-0.03094845	0.223843	0.372283	-3.391461
0.3817793	0.4945233	0.07380142	-0.03064466	0.210403	0.009188943	-0.4065243
0.398577	0.4940926	0.07663257	-0.02564603	0.1685448	0.1501037	-1.256959
0.415	0.4937901	0.07855752	-0.01841344	0.1172103	0.2177138	-1.545258
0.4315687	0.4937901	0.07855752	0	0	0.5581232	-3.552721
0.4486245	0.4937901	0.07855752	0	0	0	0
0.4647037	0.4937901	0.07855752	0	0	0	0
0.4812704	0.4937901	0.07855752	0	0	0	0
0.4978367	0.4937901	0.07855752	0	0	0	0
0.514441	0.4932554	0.08184789	-0.03220341	0.1981644	-0.9708434	5.974106
0.5309702	0.4919082	0.08958962	-0.08150689	0.4683666	-1.488027	8.154968
0.5475368	0.4901804	0.09860606	-0.104293	0.5442514	-0.6884866	2.292877
0.5641099	0.4879974	0.1088968	-0.1317196	0.6209333	-0.8276061	2.313897
0.5821443	0.4851413	0.1209873	-0.1583682	0.6704152	-0.770027	1.429806
0.5987133	0.4779367	0.1375138	-0.4348252	0.9974257	-7.989282	9.450221
0.6152812	0.4730473	0.1411808	-0.2951112	0.2213343	4.216257	-23.42071
0.6320446	0.4706026	0.1436255	-0.1458353	0.1458344	4.478563	-2.265142
0.6484222	0.4706026	0.1436255	0	0	4.400454	-4.400427
0.6654417	0.4706026	0.1436255	0	0	0	0
0.6819003	0.4706026	0.1436255	0	0	0	0
0.6981152	0.4706026	0.1436255	0	0	0	0
0.7146819	0.4706026	0.1436255	0	0	0	0
0.7312463	0.4706026	0.1436255	0	0	0	0
0.7478146	0.4706026	0.1436255	0	0	0	0
0.7648298	0.4706026	0.1436255	0	0	0	0
0.7809476	0.4706026	0.1436255	0	0	0	0
0.7980366	0.4706026	0.1436255	0	0	0	0
0.8142737	0.4706026	0.1436255	0	0	0	0
0.8306481	0.4706026	0.1436255	0	0	0	0
0.8472176	0.4693803	0.1436255	-0.07377064	0	-2.239276	0
0.8639371	0.4693803	0.1436255	0	0	2.21607	0
0.8805188	0.4693803	0.1436255	0	0	0	0
0.896911	0.4681579	0.1436255	-0.07456839	9.09038E-07	-2.261434	2.756837E-05
0.9134821	0.4657132	0.1436255	-0.1475293	-8.992288E-07	-2.213399	-5.485701E-05
0.9302959	0.4657132	0.1436255	0	0	4.419047	2.693523E-05
0.9468914	0.4608239	0.1460702	-0.2946194	0.1473106	-8.81847	4.409262
0.9631818	0.4571568	0.1460702	-0.225104	0	2.113836	-4.479445
0.9799806	0.4547122	0.1460702	-0.1455251	8.870344E-07	2.40498	2.680735E-05
0.9965008	0.4510451	0.1472925	-0.2219767	0.07399012	-2.294535	2.220632
1.012881	0.4486004	0.1485149	-0.149243	0.07462329	2.210717	0.01924507
1.03033	0.4449334	0.1485149	-0.2101623	-8.54006E-07	-1.800808	-2.205928
1.046042	0.4412664	0.1485149	-0.2333847	0	-0.7002898	2.575329E-05
1.062577	0.436377	0.1497372	-0.2956952	0.07392381	-1.932251	2.292377
1.079146	0.4314876	0.1497372	-0.2950974	0	0.01805938	-2.23309
1.095912	0.4314876	0.1497372	0	0	8.852551	0
1.112281	0.4314876	0.1497372	0	0	0	0
1.128848	0.4314876	0.1497372	0	0	0	0
1.145412	0.4314876	0.1497372	0	0	0	0
1.161981	0.4314876	0.1497372	0	0	0	0
1.178548	0.4314876	0.1497372	0	0	0	0
1.195439	0.4314876	0.1497372	0	0	0	0
1.215482	0.4314876	0.1497372	0	0	0	0
1.232051	0.4314876	0.1497372	0	0	0	0
1.249087	0.4314876	0.1497372	0	0	0	0
1.265186	0.4314876	0.1497372	0	0	0	0
1.281752	0.4314876	0.1497372	0	0	0	0
1.298319	0.4314876	0.1497372	0	0	0	0
1.314886	0.4314876	0.1497372	0	0	0	0
1.331452	0.4314876	0.1497372	0	0	0	0
1.348256	0.4314876	0.1497372	0	0	0	0
1.364588	0.4314876	0.1497372	0	0	0	0
1.39582	0.4314876	0.1497372	0	0	0	0
1.41239	0.4314876	0.1497372	0	0	0	0
1.428957	0.4314876	0.1497372	0	0	0	0
1.445591	0.4314876	0.1497372	0	0	0	0
1.462091	0.4314876	0.1497372	0	0	0	0
1.478814	0.4314876	0.1497372	0	0	0	0
1.495224	0.4314876	0.1497372	0	0	0	0
1.511791	0.4314876	0.1497372	0	0	0	0
1.528358	0.4314876	0.1497372	0	0	0	0
1.544924	0.4314876	0.1497372	0	0	0	0
1.561571	0.4314876	0.1497372	0	0	0	0
1.578058	0.4314876	0.1497372	0	0	0	0
1.594912	0.4314876	0.1497372	0	0	0	0
1.611188	0.4314876	0.1497372	0	0	0	0
1.627758	0.4314876	0.1497372	0	0	0	0
1.644411	0.4314876	0.1497372	0	0	0	0
1.660891	0.4314876	0.1497372	0	0	0	0
1.678142	0.4314876	0.1497372	0	0	0	0
1.694048	0.4314876	0.1497372	0	0	0	0
1.710588	0.4314876	0.1497372	0	0	0	0
1.727156	0.4314876	0.1497372	0	0	0	0
1.743971	0.4314876	0.1497372	0	0	0	0
1.760291	0.4314876	0.1497372	0	0	0	0
1.776857	0.4314876	0.1497372	0	0	0	0
1.793425	0.4314876	0.1497372	0	0	0	0
1.809991	0.4314876	0.1497372	0	0	0	0
1.826605	0.4314876	0.1497372	0	0	0	0
1.84371	0.4314876	0.1497372	0	0	0	0
1.859988	0.4314876	0.1497372	0	0	0	0
1.876254	0.4314876	0.1497372	0	0	0	0
1.892822	0.4314876	0.1497372	0	0	0	0
1.909391	0.4314876	0.1497372	0	0	0	0
1.925957	0.4314876	0.1497372	0	0	0	0
1.942524	0.4302652	0.1497372	-0.07378305	0	-2.226849	0
1.959091	0.4290429	0.1460702	-0.07378497	-0.221354	-5.779062E-05	-6.680694
1.975657	0.4253759	0.1424031	-0.2213549	-0.2213567	-4.453927	-8.140363E-05
1.992224	0.4192641	0.1350691	-0.3689081	-0.4426884	-4.453308	-6.680021
2.00879	0.4082631	0.124068	-0.6640581	-0.6640604	-8.907904	-6.681212
2.025496	0.3960396	0.1118445	-0.731693	-0.7316912	-2.032778	-2.032656
2.04194	0.3801492	0.09839873	-0.9663671	-0.8176966	-7.07932	-2.59449
2.058508	0.3532576	0.06784012	-1.623109	-1.844442	-19.89439	-31.10271
2.075559	0.3434788	0.05561667	-0.5734857	-0.7168567	31.22077	33.53971
2.091817	0.322699	0.02505806	-1.278131	-1.879604	-21.1545	-34.90742
2.108432	0.2896956	-0.02139103	-1.986339	-2.795586	-21.54368	-27.86413
2.124782	0.2469136	-0.08495294	-2.616633	-3.887572	-19.11999	-33.12542
2.141344	0.1919081	-0.1644053	-3.321334	-4.797482	-21.41211	-27.64734
2.157908	0.07945239	-0.2976409	-6.788816	-8.043272	-104.6752	-97.98283
2.174477	-0.003667034	-0.3819827	-5.016665	-5.090439	53.48516	89.11923
2.191041	-0.0794524	-0.4430999	-4.575203	-3.689681	13.32391	42.27681
2.207606	-0.1210121	-0.4761032	-2.50891	-1.992372	62.37073	51.23299
2.224174	-0.1398852	-0.4800335	-1.139118	-0.2372162	41.34221	52.97299
2.240744	-0.141437	-0.4795785	-0.09365737	0.02745662	31.54933	7.987151
2.25731	-0.1436195	-0.4789295	-0.131737	0.03917696	-1.149195	0.3537053
2.273877	-0.1436195	-0.4789295	0	0	3.975944	-1.182397
2.290444	-0.1436195	-0.4789295	0	0	0	0
2.307011	-0.1436195	-0.4789295	0	0	0	0
2.324442	-0.1436195	-0.4789295	0	0	0	0
2.340889	-0.1436195	-0.4789295	0	0	0	0
2.356706	-0.1436195	-0.4789295	0	0	0	0
2.373277	-0.1436195	-0.4789295	0	0	0	0
2.389843	-0.1436195	-0.4789295	0	0	0	0
2.40641	-0.1436195	-0.4789295	0	0	0	0
2.422976	-0.1436195	-0.4789295	0	0	0	0
2.439926	-0.1436195	-0.4789295	0	0	0	0
2.456305	-0.1436195	-0.4789295	0	0	0	0
2.472674	-0.1436195	-0.4789295	0	0	0	0
2.489243	-0.1436195	-0.4789295	0	0	0	0
2.505809	-0.1436195	-0.4789295	0	0	0	0
2.522519	-0.1436195	-0.4789295	0	0	0	0
2.538941	-0.1436195	-0.4789295	0	0	0	0
2.55551	-0.1436195	-0.4789295	0	0	0	0
2.572077	-0.1436195	-0.4789295	0	0	0	0
2.588643	-0.1337296	-0.4817846	0.5969918	-0.1723454	18.01803	-5.20162
2.605232	-0.1026769	-0.4871043	1.871889	-0.320675	38.4524	-4.473796
2.621828	-0.04155971	-0.4748808	3.682683	0.7365371	54.56704	31.85836
2.63834	0.04155971	-0.4626574	5.033905	0.7402788	40.81285	0.1130171
2.65491	0.09167583	-0.4528786	3.024405	0.5901287	-60.7421	-4.538659
2.671776	0.1014546	-0.450434	0.5797924	0.144946	-73.11203	-13.31426
2.688041	0.1161227	-0.4467669	0.9018528	0.2254647	9.720991	2.430356
2.704609	0.1234568	-0.4443222	0.442667	0.1475551	-13.98576	-2.37295
2.721177	0.1246791	-0.4430999	0.07377558	0.07377648	-11.13261	-2.226531
2.737743	0.1246791	-0.4430999	0	0	-2.226552	-2.226578
2.75431	0.1246791	-0.4430999	0	0	0	0
2.770939	0.1246791	-0.4430999	0	0	0	0
2.787559	0.1246791	-0.4430999	0	0	0	0
2.804009	0.1246791	-0.4430999	0	0	0	0
2.820577	0.1246791	-0.4430999	0	0	0	0
2.837201	0.1246791	-0.4430999	0	0	0	0
2.853707	0.1246791	-0.4430999	0	0	0	0
2.870442	0.1246791	-0.4430999	0	0	0	0
2.886843	0.1246791	-0.4430999	0	0	0	0
2.90341	0.1246791	-0.4430999	0	0	0	0
2.919976	0.1246791	-0.4430999	0	0	0	0
2.936543	0.1246791	-0.4430999	0	0	0	0
2.95311	0.1246791	-0.4430999	0	0	0	0
2.969677	0.1246791	-0.4430999	0	0	0	0
2.98667	0.1246791	-0.4430999	0	0	0	0
3.00281	0.1246791	-0.4430999	0	0	0	0
3.019373	0.1246791	-0.4430999	0	0	0	0
3.035941	0.1246791	-0.4430999	0	0	0	0
3.052508	0.1246791	-0.4430999	0	0	0	0
3.069076	0.1246791	-0.4430999	0	0	0	0
3.085643	0.1246791	-0.4430999	0	0	0	0
3.10221	0.1246791	-0.4430999	0	0	0	0
3.118776	0.1246791	-0.4430999	0	0	0	0
3.135341	0.1246791	-0.4430999	0	0	0	0
3.151908	0.1283462	-0.4382105	0.2213494	0.2951332	6.680868	8.907843
3.168474	0.1295685	-0.4320988	0.07378497	0.3689249	-4.453697	2.227133
3.185095	0.1332355	-0.4162083	0.2206278	0.9560555	4.424688	17.69151
3.201609	0.1356802	-0.3978731	0.1480353	1.11026	-2.190799	4.653793
3.218176	0.1369026	-0.3905391	0.07378497	0.4427098	-2.244529	-20.17951
3.234742	0.1381249	-0.3673145	0.07378604	1.401938	3.215691E-05	28.95144
3.25131	0.1405696	-0.3416453	0.147553	1.549308	2.226306	4.447656
3.267877	0.141792	-0.3233101	0.07378268	1.10673	-2.226343	-13.35673
3.284616	0.141792	-0.3147537	-8.902119E-07	0.5111686	-2.215331	-17.88158
3.301042	0.141792	-0.3098643	0	0.2976502	2.684154E-05	-6.437977
3.317799	0.141792	-0.3061973	0	0.2188416	0	-2.374961
3.334141	0.141792	-0.3000856	9.118098E-07	0.3739806	2.754801E-05	4.68713
3.350706	0.1405696	-0.2890845	-0.07379118	0.6641125	-2.24241	8.816592
3.367275	0.1393473	-0.2634152	-0.07377223	1.54922	0.0005720453	26.7128
3.383842	0.1381249	-0.2438577	-0.07378179	1.180512	-0.0002884795	-11.12708
3.400408	0.1369026	-0.2328566	-0.07379118	0.6641135	-0.0002835676	-15.58607
3.416975	0.1369026	-0.2096321	8.99397E-07	1.401775	2.227146	22.26363
3.433542	0.1369026	-0.2010757	0	0.5164957	-2.714405E-05	-26.71797
3.450108	0.1369026	-0.1949639	-8.995006E-07	0.3689311	-2.714874E-05	-4.453798
3.467064	0.1369026	-0.1912969	8.788211E-07	0.21627	5.304957E-05	-4.554071
3.483241	0.1369026	-0.1815182	0	0.6044694	-2.652383E-05	11.7163
3.499809	0.1369026	-0.163183	-8.99397E-07	1.106665	-2.746639E-05	15.33639
3.516373	0.1369026	-0.1436255	8.996171E-07	1.180731	5.429865E-05	2.235505
3.532943	0.1344579	-0.1179562	-0.1475381	1.549153	-4.452832	11.11923
3.549509	0.1295685	-0.09962107	-0.2951408	1.106777	-4.454433	-13.35027
3.566383	0.1271238	-0.09106467	-0.1448802	0.5070811	4.493424	-17.93342
3.5829	0.1222345	-0.06906246	-0.2960222	1.332101	-4.526463	24.70802
3.599209	0.1161227	-0.04583792	-0.3747455	1.424031	-2.398205	2.800526
3.616008	0.110011	-0.02505806	-0.3638197	1.236989	0.3300072	-5.64947
3.632561	0.1051216	-0.00794524	-0.2953703	1.033795	2.052325	-6.092391
3.648909	0.1026769	0.0006111722	-0.1495374	0.5233803	4.432374	-15.51329
3.666168	0.1014546	0.006722895	-0.07082493	0.3541253	2.342146	-5.036302
3.68221	0.1014546	0.009167584	-4.644285E-07	0.1523885	2.12679	-6.057959
3.69861	0.1014546	0.009167584	0	0	1.431572E-05	-4.697282
3.715175	0.1014546	0.009167584	0	0	0	0
3.731742	0.1014546	0.009167584	0	0	0	0
3.748308	0.1014546	0.009167584	0	0	0	0
3.764876	0.1014546	0.009167584	0	0	0	0
3.781443	0.1014546	0.009167584	0	0	0	0
3.798009	0.1014546	0.009167584	0	0	0	0
3.814576	0.1014546	0.009167584	0	0	0	0
3.83114	0.1014546	0.009167584	0	0	0	0
3.847709	0.1014546	0.009167584	0	0	0	0
3.864276	0.1014546	0.009167584	0	0	0	0
3.880842	0.1014546	0.009167584	0	0	0	0
3.897477	0.1014546	0.009167584	0	0	0	0
3.91404	0.1014546	0.009167584	0	0	0	0
3.930542	0.1014546	0.009167584	0	0	0	0
3.947109	0.1014546	0.009167584	0	0	0	0
3.963743	0.1014546	0.009167584	0	0	0	0
3.980533	0.1014546	0.009167584	0	0	0	0
3.99681	0.1014546	0.009167584	0	0	0	0
4.013376	0.1014546	0.009167584	0	0	0	0
4.029943	0.1014546	0.009167584	0	0	0	0
4.046649	0.1002323	0.009167584	-0.07316328	0	-2.198864	0
4.063075	0.09778756	0.009167584	-0.1488342	0	-2.283884	0
4.080411	0.09778756	0.009167584	0	0	4.408399	0
4.096542	0.09778756	0.009167584	0	0	0	0
4.11278	0.09778756	0.009167584	0	0	0	0
4.129383	0.09656522	0.009167585	-0.07362392	5.609527E-08	-2.24188	1.708125E-06
4.147167	0.09534287	0.01038993	-0.06873039	0.0687305	0.142307	1.998727
4.163738	0.09412052	0.01038993	-0.07376631	-5.620342E-08	-0.1465841	-2.000589
4.180302	0.09412052	0.01038993	0	0	2.22624	1.696198E-06
4.196871	0.09412052	0.01038993	0	0	0	0
4.213717	0.09412052	0.01038993	0	0	0	0
4.230004	0.09412052	0.01038993	0	0	0	0
4.246571	0.09289818	0.01161227	-0.07378497	0.07378514	-2.245839	2.245844
4.263141	0.09289818	0.01161227	0	0	2.226675	-2.22668
4.279874	0.09167584	0.01161227	-0.07304905	0	-2.193419	0
4.297833	0.09167583	0.01283462	-4.148634E-07	0.06806259	2.105616	1.961894
4.314402	0.0880088	0.01405696	-0.2213235	0.07377446	-6.410001	0.1654284
4.33106	0.0880088	0.01405696	0	0	6.661056	-2.220351
4.347537	0.08434177	0.01772399	-0.2225528	0.2225532	-6.716561	6.716572
4.364718	0.07578536	0.02261337	-0.4980182	0.284582	-8.184239	1.842912
4.38067	0.05011612	0.03728151	-1.609144	0.9195106	-33.53529	19.16301
4.397258	0.04033737	0.04217088	-0.5895004	0.2947499	31.33477	-19.19959
4.413912	0.02566923	0.0507273	-0.8807565	0.5137749	-8.761631	6.588759
4.431317	0.01589048	0.05683902	-0.5618349	0.3511468	9.363786	-4.774885
4.446933	0.009778756	0.05806137	-0.3913772	0.07827553	5.162102	-8.263576
4.463501	0.007334067	0.05928371	-0.1475575	0.0737786	7.57589	-0.1397272
4.480068	0.007334067	0.06050605	2.810737E-08	0.07378072	4.45323	6.408388E-05
4.496715	0.007334067	0.06050605	0	0	-8.462605E-07	-2.2214
4.513266	0.007334067	0.06050605	0	0	0	0
4.52977	0.007334067	0.06050605	0	0	0	0
4.5467	0.006111722	0.06050605	-0.07219948	0	-2.159468	0
4.563511	0.006111722	0.06050605	0	0	2.139815	0
4.579471	0.006111722	0.06050605	0	0	0	0
4.596387	0.006111722	0.06050605	0	0	0	0
4.612608	0.006111722	0.06050605	0	0	0	0
4.629247	0.006111722	0.06050605	0	0	0	0
4.645738	0.006111722	0.06050605	0	0	0	0
4.662308	0.006111722	0.06050605	0	0	0	0
4.678875	0.006111722	0.06050605	0	0	0	0
4.695766	0.006111722	0.06050605	0	0	0	0
4.712087	0.006111722	0.06050605	0	0	0	0
4.728666	0.006111722	0.06050605	0	0	0	0
4.745621	0.006111722	0.06050605	0	0	0	0
4.761704	0.006111722	0.06050605	0	0	0	0
4.779492	0.006111722	0.06050605	0	0	0	0
4.796064	0.006111722	0.06050605	0	0	0	0
4.813368	0.006111722	0.06050605	0	0	0	0
4.829203	0.006111722	0.06050605	0	0	0	0
4.845766	0.006111722	0.06050605	0	0	0	0
4.862731	0.006111722	0.06050605	0	0	0	0
4.878901	0.006111722	0.06050605	0	0	0	0
4.895465	0.006111722	0.06050605	0	0	0	0
4.912443	0.006111722	0.06050605	0	0	0	0
4.928599	0.006111722	0.06050605	0	0	0	0
4.948206	0.006111722	0.06050605	0	0	0	0
4.964908	0.006111722	0.06050605	0	0	0	0
4.981342	0.006111722	0.06050605	0	0	0	0
4.997909	0.006111722	0.06050605	0	0	0	0
5.014476	0.006111722	0.06050605	0	0	0	0
5.031041	0.006111722	0.06050605	0	0	0	0
5.047747	0.006111722	0.06050605	0	0	0	0
5.064682	0.006111722	0.06050605	0	0	0	0
5.080801	0.006111722	0.06050605	0	0	0	0
5.097307	0.006111722	0.06050605	0	0	0	0
5.113935	0.006111722	0.06050605	0	0	0	0
5.130442	0.006111722	0.06050605	0	0	0	0
5.147008	0.006111722	0.06050605	0	0	0	0
5.163576	0.006111722	0.06050605	0	0	0	0
5.180142	0.006111722	0.06050605	0	0	0	0
5.196981	0.006111722	0.06050605	0	0	0	0
5.213276	0.006111722	0.06050605	0	0	0	0
5.229842	0.006111722	0.06050605	0	0	0	0
5.247079	0.006111722	0.06050605	0	0	0	0
5.262972	0.006111722	0.06050605	0	0	0	0
5.279546	0.006111722	0.06050605	0	0	0	0
5.296109	0.006111722	0.06050605	0	0	0	0
5.31288	0.006111722	0.06050605	0	0	0	0
5.329245	0.006111722	0.06050605	0	0	0	0
5.345807	0.006111722	0.06050605	0	0	0	0
5.362379	0.006111722	0.06050605	0	0	0	0
5.378942	0.006111722	0.06050605	0	0	0	0
5.395513	0.006111722	0.06050605	0	0	0	0
5.412115	0.006111722	0.06050605	0	0	0	0
5.428643	0.006111722	0.06050605	0	0	0	0
5.445364	0.006111722	0.06050605	0	0	0	0
5.462025	0.006111722	0.06050605	0	0	0	0
5.478342	0.004889378	0.05928371	-0.07491065	-0.07491051	-2.271563	-2.271559
5.494909	0.002444689	0.05683902	-0.147566	-0.1475659	-2.209435	-2.209437
5.511508	0.002444689	0.05683902	0	0	4.449324	4.449322
5.528042	0.002444689	0.05683902	0	0	0	0
5.544609	0.002444689	0.05683902	0	0	0	0
5.561174	0.002444689	0.05683902	0	0	0	0
5.577742	0.002444689	0.05683902	0	0	0	0
5.594306	0.003667033	0.05561667	0.07379572	-0.07379582	2.227352	-2.227355
5.611167	0.007334067	0.0507273	0.2174805	-0.2899739	4.298679	-6.467491
5.627443	0.007334067	0.04950495	-2.861135E-08	-0.07510387	-6.563103	6.484322
5.644266	0.007334067	0.04950495	0	0	8.644377E-07	2.269121
5.660575	0.007334067	0.04950495	0	0	0	0
5.677143	0.007334067	0.04950495	0	0	0	0
5.693709	0.007334067	0.04950495	0	0	0	0
5.737052	0.007334067	0.04950495	0	0	0	0
5.753623	0.007334067	0.04950495	0	0	0	0
5.770735	0.007334067	0.04950495	0	0	0	0
5.786756	0.007334067	0.04950495	0	0	0	0
5.803336	0.007334067	0.04950495	0	0	0	0
5.819938	0.007334067	0.04950495	0	0	0	0
5.836712	0.007334067	0.04950495	0	0	0	0
5.853023	0.007334067	0.04950495	0	0	0	0
5.869589	0.007334067	0.04950495	0	0	0	0
5.886273	0.007334067	0.04950495	0	0	0	0
5.902945	0.007334067	0.04950495	0	0	0	0
5.919479	0.007334067	0.04950495	0	0	0	0
5.935855	0.007334067	0.04950495	0	0	0	0
5.952423	0.007334067	0.04950495	0	0	0	0
5.96899	0.007334067	0.04950495	0	0	0	0
5.985557	0.007334067	0.04950495	0	0	0	0
6.002123	0.007334067	0.04950495	0	0	0	0
6.018969	0.007334067	0.04950495	0	0	0	0
6.035257	0.007334067	0.04950495	0	0	0	0
6.051871	0.007334067	0.04950495	0	0	0	0
6.06858	0.007334067	0.04950495	0	0	0	0
6.084953	0.007334067	0.04950495	0	0	0	0
6.101523	0.007334067	0.04950495	0	0	0	0
6.118089	0.007334067	0.04950495	0	0	0	0
6.134656	0.007334067	0.04950495	0	0	0	0
6.151222	0.007334067	0.04950495	0	0	0	0
6.167789	0.007334067	0.04950495	0	0	0	0
6.184356	0.007334067	0.04950495	0	0	0	0
6.200923	0.007334067	0.04950495	0	0	0	0
6.217489	0.007334067	0.04950495	0	0	0	0
6.234364	0.007334067	0.04950495	0	0	0	0
6.250895	0.007334067	0.04950495	0	0	0	0
6.267972	0.007334067	0.04950495	0	0	0	0
6.284543	0.007334067	0.04950495	0	0	0	0
6.301457	0.007334067	0.04950495	0	0	0	0
6.317768	0.007334067	0.04950495	0	0	0	0
6.334242	0.007334067	0.04950495	0	0	0	0
6.35081	0.007334067	0.04950495	0	0	0	0
6.367377	0.007334067	0.04950495	0	0	0	0
6.383943	0.007334067	0.04950495	0	0	0	0
6.40051	0.007334067	0.04950495	0	0	0	0
6.417076	0.007334067	0.04950495	0	0	0	0
6.433643	0.007334067	0.04950495	0	0	0	0
6.45021	0.007334067	0.04950495	0	0	0	0
6.466776	0.007334067	0.04950495	0	0	0	0
6.483552	0.007334067	0.04950495	0	0	0	0
6.49991	0.007334067	0.04950495	0	0	0	0
6.516477	0.01222344	0.04706026	0.295132	-0.1475659	8.96386	-4.481928
6.533165	0.01833517	0.04706026	0.3662374	0	2.138213	4.437456
6.549723	0.02566923	0.04950495	0.4429146	0.1476382	2.306322	4.440711
6.566174	0.03544799	0.05928371	0.5944388	0.5944387	4.590383	13.5357
6.582767	0.04767143	0.09228701	0.7366211	1.988878	4.302773	42.19903
6.59931	0.05133847	0.1032881	0.2216682	0.6650035	-15.54019	-39.95173
6.615875	0.06111723	0.124068	0.5903319	1.254456	11.13526	17.80405
6.658443	0.07089598	0.1411808	0.2297195	0.4020093	-6.09832	-14.41573
6.675014	0.08678646	0.16685	0.9589584	1.549087	12.33098	19.39637
6.69158	0.08678646	0.1680724	-4.497438E-07	0.07378497	-28.93936	-44.52149
6.708148	0.08678646	0.1680724	0	0	1.357349E-05	-2.226867
6.724899	0.08678646	0.1692947	0	0.07297004	0	2.190043
6.741527	0.08678646	0.1692947	0	0	0	-2.186132
6.757846	0.08678646	0.1692947	0	0	0	0
6.774414	0.08678646	0.1692947	0	0	0	0
6.790982	0.08678646	0.1705171	4.49692E-07	0.07377648	1.357095E-05	2.22645
6.807807	0.08923115	0.1717394	0.1453031	0.07265244	4.351304	-0.0336608
6.824115	0.09656521	0.1839629	0.4497132	0.7495221	9.18751	20.42885
6.840679	0.1014546	0.1974086	0.2951833	0.8117533	-4.70093	1.893125
6.857247	0.106344	0.2108544	0.2951068	0.8115422	-0.002308119	-0.006373861
6.878895	0.1087887	0.2218555	0.1129317	0.5081942	-4.767029	-7.937796
6.895465	0.110011	0.2316343	0.07376844	0.5901457	-1.024747	2.144342
6.912035	0.1087887	0.2353013	-0.07376798	0.221304	-4.45189	-11.12974
6.929006	0.1014546	0.241413	-0.4321506	0.3601244	-10.68485	4.138804
6.945167	0.09045349	0.2450801	-0.6807407	0.2269131	-7.503112	-4.020672
6.962258	0.0770077	0.2463024	-0.7867048	0.07151937	-3.18672	-4.673248
6.978296	0.06356192	0.2401907	-0.8383487	-0.3810679	-1.558842	-13.66108
6.994866	0.05378316	0.2316343	-0.590145	-0.5163768	7.611625	-4.149497
7.011563	0.05011612	0.2255226	-0.2196297	-0.3660494	11.13777	4.518877
7.0283	0.04889378	0.2194108	-0.07303033	-0.3651525	4.384752	0.0268243
7.049241	0.04767144	0.2157438	-0.05837271	-0.1751188	0.3890257	5.043656
7.06581	0.04155971	0.1998533	-0.3688621	-0.9590408	-8.277632	-20.89932
7.082376	0.03911503	0.1925193	-0.1475657	-0.4426971	6.678449	15.58261
7.098945	0.03055861	0.170517	-0.5164365	-1.32798	-11.13238	-26.71751
7.115511	0.02077986	0.1362914	-0.5902639	-2.065923	-2.228085	-22.27085
7.132078	0.006111723	0.08984232	-0.8853958	-2.803753	-8.907353	-22.26837
7.148645	-0.009778756	0.04217089	-0.9591788	-2.877536	-2.226841	-2.226859
7.165228	-0.02689158	-0.006722894	-1.031922	-2.948349	-2.194355	-2.136124
7.181775	-0.06111722	-0.0727295	-2.068483	-3.989218	-31.28798	-31.41801
7.202161	-0.08678646	-0.1093998	-1.259117	-1.798738	21.91447	59.30964
7.218727	-0.1271238	-0.1497372	-2.434978	-2.434979	-31.82087	-17.2178
7.235297	-0.145459	-0.1656277	-1.106554	-0.9590123	40.09075	44.54349
7.251863	-0.1515707	-0.1692947	-0.3689258	-0.2213558	22.26071	22.26156
7.268431	-0.1601271	-0.1778511	-0.5164502	-0.5164511	-4.452362	-8.906123
7.285203	-0.1637942	-0.1815182	-0.218631	-0.2186301	8.93267	8.932723
7.301565	-0.1637942	-0.1815182	0	0	6.59839	6.598363
7.318322	-0.1637942	-0.1815182	0	0	0	0
7.334703	-0.1650165	-0.1815182	-0.07462139	-9.096731E-07	-2.251819	-2.745083E-05
7.351265	-0.1699059	-0.1827405	-0.2952079	-0.07380196	-6.695953	-2.240248
7.367857	-0.1747953	-0.1851852	-0.2946828	-0.1473409	0.01583759	-2.21807
7.384728	-0.184574	-0.1888522	-0.5796363	-0.2173633	-8.515601	-2.09256
7.400965	-0.1870187	-0.1900746	-0.1505637	-0.0752823	12.96007	4.291532
7.417531	-0.1955751	-0.1961863	-0.5164975	-0.3689267	-11.15548	-8.951737
7.434813	-0.2114656	-0.202298	-0.9195055	-0.3536548	-11.90647	0.4511932
7.450772	-0.2285784	-0.2084097	-1.072248	-0.3829465	-4.594978	-0.8811853
7.467231	-0.2469136	-0.2132991	-1.113992	-0.2970638	-1.287632	2.64917
7.483798	-0.251803	-0.2145215	-0.2951417	-0.07378677	24.79466	6.760794
7.500364	-0.251803	-0.2145215	0	0	8.907779	2.226985
7.516931	-0.251803	-0.2145215	0	0	0	0
7.533498	-0.251803	-0.2145215	0	0	0	0
7.550412	-0.25547	-0.2132991	-0.2168056	0.07226942	-6.475367	2.158482
7.566733	-0.259137	-0.2108544	-0.224679	0.149786	-0.236899	2.332372
7.583198	-0.2689158	-0.2059651	-0.5939229	0.2969605	-11.26228	4.488959
7.599869	-0.2774722	-0.2010757	-0.5132447	0.2932836	2.434765	-0.1109649
7.616331	-0.2811392	-0.1998533	-0.2227656	0.07425518	8.767184	-6.610672
7.632898	-0.2811392	-0.1998533	0	0	6.744626	-2.248209
7.649927	-0.2811392	-0.1998533	0	0	0	0
7.666029	-0.2811392	-0.1998533	0	0	0	0
7.682598	-0.2811392	-0.1998533	0	0	0	0
7.699162	-0.2811392	-0.1998533	0	0	0	0
7.715918	-0.2823616	-0.198631	-0.07294928	0.07295016	-2.189389	2.189415
7.732298	-0.2823616	-0.1961863	0	0.1492462	2.201487	2.302487
7.748865	-0.2848063	-0.1925192	-0.1475657	0.2213485	-4.478872	2.188429
7.765431	-0.2860286	-0.1912969	-0.07378497	0.07378497	2.226803	-4.45367
7.781998	-0.2860286	-0.1912969	0	0	2.226899	-2.226899
7.798565	-0.2860286	-0.1912969	0	0	0	0
7.815131	-0.2860286	-0.1912969	0	0	0	0
7.831698	-0.2835839	-0.1888522	0.1475614	0.1475614	4.453541	4.453541
7.85221	-0.2689158	-0.1729617	0.7151299	0.7747239	15.30726	16.91451
7.869616	-0.2126879	-0.09839873	3.230285	4.283639	66.3321	92.54051
7.885418	-0.1955751	-0.06906246	1.08296	1.856502	-64.66215	-73.08813
7.901915	-0.1552377	0.004278206	2.445183	4.445789	42.17596	80.16727
7.918481	-0.1124557	0.0947317	2.582404	5.459941	4.150233	30.67293
7.935148	-0.07456301	0.1864075	2.273596	5.500634	-9.292173	1.224464
7.951615	-0.03789268	0.2841951	2.226821	5.93819	-1.411681	13.20565
7.968181	-0.004889378	0.3685369	1.992313	5.091465	-7.099246	-25.63277
7.984746	0.02566923	0.4443222	1.844787	4.575072	-4.452907	-15.58678
8.006182	0.05631007	0.496819	1.429396	2.448978	-10.93104	-55.94828
8.02275	0.06430783	0.4958473	0.4827181	-0.05865423	-24.90969	-65.98269
8.039316	0.06622891	0.4955943	0.1159633	-0.0152679	-11.06868	1.309402
8.055886	0.06593546	0.4956335	-0.01770953	0.002363309	-4.034022	0.5320804
8.072453	0.06768038	0.4953982	0.1053296	-0.01420291	3.713113	-0.4999408
8.089017	0.0683187	0.4953106	0.03853579	-0.005289597	-2.016072	0.2690353
8.10569	0.06909802	0.4952025	0.04674094	-0.006483084	0.2468646	-0.03590789
8.122153	0.06865055	0.4952647	-0.0271797	0.00377795	-2.230801	0.3096608
8.138717	0.07018158	0.49505	0.09243427	-0.01295846	3.621736	-0.5067539
8.203465	0.07063576	0.4949854	0.007014496	-0.0009978791	-1.050516	0.1470946
8.220036	0.07063576	0.4949854	0	0	-0.08625916	0.01227119
8.236602	0.07063576	0.4949854	0	0	0	0
8.253168	0.07063576	0.4949854	0	0	0	0
8.269734	0.07063576	0.4949854	0	0	0	0
8.2863	0.07108764	0.4949208	0.02727853	-0.003904001	0.8233389	-0.1178332
8.302866	0.06758092	0.4954118	-0.2116778	0.02963992	-7.212338	1.012445
8.319432	0.06412598	0.4958708	-0.2085525	0.02770782	0.09432612	-0.05831423
8.336046	0.06345578	0.495957	-0.04033969	0.005189498	5.069669	-0.6786666
8.352621	0.06345578	0.495957	0	0	1.21546	-0.1563628
8.369133	0.06345578	0.495957	0	0	0	0
8.385699	0.06345578	0.495957	0	0	0	0
8.402268	0.06249809	0.4960786	-0.05779964	0.007338552	-1.744346	0.2214716
8.419118	0.06167234	0.496182	-0.04900765	0.00613574	0.2630863	-0.03599223
8.435654	0.06070278	0.4963015	-0.05863385	0.007225402	-0.2883368	0.03263901
8.452332	0.0598621	0.4964036	-0.05040423	0.006125279	0.2477715	-0.03312171
8.468636	0.05703064	0.4967369	-0.1736767	0.02043909	-3.737584	0.4339903
8.4851	0.05107334	0.4973847	-0.3618327	0.03934669	-5.742188	0.5770266
8.501883	0.04305675	0.4981427	-0.4776681	0.04516849	-3.484087	0.1751074
8.518234	0.03789268	0.4981054	-0.3158126	-0.002283696	4.884811	-1.43211
8.535782	0.03422565	0.4883266	-0.2089761	-0.557269	3.151583	-16.37158
8.551394	0.03055861	0.4785479	-0.2348766	-0.6263381	-0.7810707	-2.082891
8.567934	0.02933627	0.4724361	-0.07390421	-0.3695223	5.006577	7.987511
8.584502	0.02933627	0.4712138	0	-0.07377648	2.232232	8.932824
8.601275	0.02933627	0.4712138	0	0	0	2.212758
8.617636	0.02933627	0.4712138	0	0	0	0
8.634202	0.02933627	0.4712138	0	0	0	0
8.652316	0.02933627	0.4712138	0	0	0	0
8.668886	0.02933627	0.4712138	0	0	0	0
8.685798	0.02933627	0.4712138	0	0	0	0
8.70202	0.02933627	0.4712138	0	0	0	0
8.718587	0.02933627	0.4712138	0	0	0	0
8.735288	0.02933627	0.4712138	0	0	0	0
8.75172	0.02933627	0.4712138	0	0	0	0
8.768287	0.02933627	0.4712138	0	0	0	0
8.785129	0.02933627	0.4712138	0	0	0	0
8.801416	0.02933627	0.4712138	0	0	0	0
8.817987	0.02933627	0.4712138	0	0	0	0
8.834554	0.02933627	0.4712138	0	0	0	0
8.851379	0.02933627	0.4712138	0	0	0	0
8.867687	0.02933627	0.4712138	0	0	0	0
8.884524	0.02933627	0.4712138	0	0	0	0
8.900821	0.02933627	0.4712138	0	0	0	0
8.917542	0.02933627	0.4712138	0	0	0	0
8.933955	0.02933627	0.4712138	0	0	0	0
8.950934	0.02933627	0.4712138	0	0	0	0
8.967204	0.02933627	0.4712138	0	0	0	0
8.983775	0.02933627	0.4712138	0	0	0	0
9.000448	0.02933627	0.4712138	0	0	0	0
9.017054	0.02933627	0.4712138	0	0	0	0
9.033517	0.02933627	0.4712138	0	0	0	0
9.050596	0.02933627	0.4712138	0	0	0	0
9.067667	0.02933627	0.4712138	0	0	0	0
9.084608	0.02933627	0.4712138	0	0	0	0
9.101201	0.02933627	0.4712138	0	0	0	0
9.117367	0.02933627	0.4712138	0	0	0	0
9.133938	0.02933627	0.4712138	0	0	0	0
9.150504	0.02933627	0.4712138	0	0	0	0
9.16707	0.02933627	0.4712138	0	0	0	0
9.183848	0.02933627	0.4712138	0	0	0	0
9.200424	0.02933627	0.4712138	0	0	0	0
9.21677	0.02933627	0.4712138	0	0	0	0
9.233602	0.02933627	0.4712138	0	0	0	0
9.249904	0.02933627	0.4712138	0	0	0	0
9.26647	0.02933627	0.4712138	0	0	0	0
9.283033	0.02933627	0.4712138	0	0	0	0
9.299603	0.02933627	0.4712138	0	0	0	0
9.31617	0.02933627	0.4712138	0	0	0	0
9.332738	0.02933627	0.4712138	0	0	0	0
9.349303	0.02933627	0.4712138	0	0	0	0
9.365932	0.02933627	0.4712138	0	0	0	0
9.382805	0.02933627	0.4712138	0	0	0	0
9.399003	0.02933627	0.4712138	0	0	0	0
9.415948	0.02933627	0.4712138	0	0	0	0
9.432352	0.02933627	0.4712138	0	0	0	0
9.449346	0.02933627	0.4712138	0	0	0	0
9.465268	0.02933627	0.4712138	0	0	0	0
9.481992	0.02933627	0.4712138	0	0	0	0
9.499155	0.02933627	0.4712138	0	0	0	0
9.515166	0.02933627	0.4712138	0	0	0	0
9.531847	0.02933627	0.4687691	0	-0.1465557	0	-4.482929
9.548102	0.02933627	0.4589904	0	-0.6015712	0	-13.8151
9.564669	0.03055861	0.4467669	0.07378508	-0.7378515	2.248061	-4.152146
9.581236	0.0330033	0.4357658	0.1475617	-0.6640283	2.226646	2.228051
9.597934	0.03422565	0.4284317	0.07320365	-0.4392205	-2.235316	6.758065
9.614365	0.03544799	0.4259871	0.07439333	-0.1487862	0.03591101	8.76684
9.630935	0.03544799	0.4259871	0	0	-2.254279	4.508543
9.647501	0.03544799	0.4259871	0	0	0	0
9.664067	0.03667033	0.4235424	0.07378497	-0.1475699	2.226963	-4.453926
9.680916	0.03789268	0.4162083	0.07254897	-0.4352943	-0.03698953	-8.610675
9.697201	0.03911503	0.3942061	0.07505989	-1.351076	0.0757819	-27.63913
9.713769	0.03789268	0.3697592	-0.07377693	-1.475533	-4.53037	-3.788299
9.730657	0.03055861	0.3379782	-0.4342853	-1.881904	-10.77565	-12.14647
9.746902	0.02322455	0.3025303	-0.4514692	-2.182101	-0.5186401	-9.060489
9.763803	0.01466813	0.2707493	-0.5062376	-1.880313	-1.652295	9.104576
9.780031	0.004889378	0.237746	-0.6025956	-2.033758	-2.908511	-4.631646
9.796602	-0.009778756	0.1925193	-0.8851665	-2.729264	-8.615289	-21.20525
9.813169	-0.01589048	0.1790735	-0.3689255	-0.8116365	15.57884	57.86911
9.830001	-0.02444689	0.1558489	-0.5083314	-1.379757	-4.174	-17.01028
9.846301	-0.03422565	0.1338467	-0.5999163	-1.349811	-2.764198	0.9038124
9.862868	-0.04278206	0.1130669	-0.5164662	-1.254275	2.53899	2.906707
9.879436	-0.05256081	0.09106466	-0.5902467	-1.328056	-2.226699	-2.226708
9.896002	-0.06233957	0.06050605	-0.5902809	-1.844628	-0.001032582	-15.59062
9.912569	-0.07334067	0.0287251	-0.6640276	-1.918302	-2.225745	-2.223559
9.929132	-0.0794524	-0.004278206	-0.3689895	-1.992542	8.905293	-2.240832
9.951561	-0.08800881	-0.04094854	-0.381497	-1.634987	-0.3207722	9.169967
9.970401	-0.09289818	-0.06417309	-0.2595233	-1.232736	2.955624	9.747215
9.986972	-0.09289818	-0.07395184	0	-0.5901108	7.328914	18.14767
10.00354	-0.09412052	-0.07395184	-0.07378497	0	-2.226643	17.80804
10.02044	-0.09412052	-0.07395184	0	0	2.204815	0
10.03667	-0.09412052	-0.07395184	0	0	0	0
10.05388	-0.09412052	-0.07395184	0	0	0	0
10.0698	-0.09412052	-0.07395184	0	0	0	0
10.08637	-0.09412052	-0.07395184	0	0	0	0
10.10293	-0.09412052	-0.07395184	0	0	0	0
10.1195	-0.09412052	-0.07395184	0	0	0	0
10.13613	-0.09412052	-0.07395184	0	0	0	0
10.1527	-0.09412052	-0.07395184	0	0	0	0
10.1692	-0.09412052	-0.07395184	0	0	0	0
10.18577	-0.09412052	-0.07395184	0	0	0	0
10.20234	-0.09412052	-0.07517418	0	-0.07378072	0	-2.226707
10.2189	-0.09412052	-0.07517418	0	0	0	2.226771
10.23547	-0.09412052	-0.07517418	0	0	0	0
10.25204	-0.09412052	-0.07517418	0	0	0	0
10.2686	-0.09412052	-0.07517418	0	0	0	0
10.28517	-0.09412052	-0.07517418	0	0	0	0
10.30174	-0.09412052	-0.07517418	0	0	0	0
10.3183	-0.09167583	-0.0727295	0.1475704	0.1475699	4.453555	4.453541
10.33487	-0.08800881	-0.07028481	0.2213677	0.1475789	2.227398	0.0002703038
10.35149	-0.08556411	-0.06906246	0.1471215	0.07356054	-2.237533	-2.230668
10.368	-0.08556411	-0.06906246	0	0	-4.440264	-2.220125
10.38464	-0.08434176	-0.06906246	0.07347664	0	2.216317	0
10.40172	-0.08434176	-0.06906246	0	0	-2.179453	0
10.4177	-0.08189708	-0.07028481	0.1529041	-0.07645206	4.624238	-2.312119
10.43696	-0.0770077	-0.07395184	0.2538815	-0.1904112	2.864862	-3.233173
10.45353	-0.06967364	-0.08006357	0.4426088	-0.3688408	5.267506	-4.98009
10.4701	-0.06722895	-0.08250826	0.1475699	-0.1475704	-8.903778	6.67757
10.48666	-0.06111722	-0.08617529	0.3689258	-0.2213549	6.680916	-2.22695
10.50323	-0.05745019	-0.08739763	0.2213424	-0.07378118	-4.454203	4.453912
10.51984	-0.05622785	-0.08861998	0.07360723	-0.07360701	-4.453401	0.005250332
10.53644	-0.05500551	-0.08861998	0.07362392	0	0.0005025559	2.216488
10.55293	-0.05378316	-0.08861997	0.07413515	4.518769E-07	0.0154496	1.365575E-05
10.56975	-0.05378316	-0.08861997	0	0	-2.225872	-1.356738E-05
10.5897	-0.05133847	-0.08861998	0.1225472	-3.734822E-07	3.333074	-1.015808E-05
10.60627	-0.04889378	-0.08861998	0.1475279	0	0.6840299	1.022678E-05
10.62283	-0.04889378	-0.08861998	0	0	-4.45189	0
10.6394	-0.04767144	-0.08984232	0.07378497	-0.07378497	2.226899	-2.226899
10.65657	-0.04522675	-0.08984232	0.1423899	0	2.033626	2.187176
10.67253	-0.04522675	-0.08984232	0	0	-4.297707	0
10.68911	-0.04522675	-0.08984232	0	0	0	0
10.70568	-0.04522675	-0.08984232	0	0	0	0
10.72242	-0.04522675	-0.08984232	0	0	0	0
10.7388	-0.04522675	-0.08984232	0	0	0	0
10.75537	-0.04522675	-0.08984232	0	0	0	0
10.77195	-0.04522675	-0.08984232	0	0	0	0
10.78875	-0.04522675	-0.08984232	0	0	0	0
10.80507	-0.04522675	-0.08984232	0	0	0	0
10.82164	-0.04522675	-0.08984232	0	0	0	0
10.83861	-0.04522675	-0.08984232	0	0	0	0
10.85477	-0.04522675	-0.08984232	0	0	0	0
10.87134	-0.04522675	-0.08984232	0	0	0	0
10.8879	-0.04278206	-0.08984232	0.1476042	0	4.455472	0
10.90447	-0.03667033	-0.08739763	0.3688831	0.147553	6.67898	4.45367
10.92103	-0.03178095	-0.08617528	0.2951236	0.07378162	-2.226002	-2.226359
10.9376	-0.02933627	-0.08373059	0.1475617	0.1475614	-4.453427	2.226679
10.95428	-0.02444689	-0.0812859	0.2931993	0.1465999	4.380978	-0.02892539
10.97089	-0.01955751	-0.07761887	0.294361	0.2207703	0.0348994	2.228271
10.9873	-0.01466813	-0.07395184	0.2978841	0.2234132	0.1066857	0.08002917
11.00387	-0.01222344	-0.07150715	0.1475447	0.1475449	-4.558111	-2.300235
11.02044	-0.009778756	-0.07028481	0.1475702	0.07378497	0.0007689956	-2.226015
11.037	-0.007334067	-0.06906246	0.1475872	0.07379347	0.0005122877	0.0002565936
11.05357	-0.007334067	-0.06784012	2.811061E-08	0.07378922	-4.454831	-0.000128413
11.07523	-0.006111722	-0.06661777	0.05640882	0.05640906	1.475329	-0.454565
11.0918	-0.004889378	-0.06539543	0.07377234	0.07377223	0.4540845	0.4540754
11.10837	-0.004889378	-0.06539543	0	0	-2.226197	-2.226194
11.12494	-0.004889378	-0.06539543	0	0	0	0
11.14172	-0.004889378	-0.06539543	0	0	0	0
11.15813	-0.004889378	-0.06539543	0	0	0	0
11.17464	-0.004889378	-0.06539543	0	0	0	0
11.19121	-0.004889378	-0.06539543	0	0	0	0
11.20784	-0.004889378	-0.06539543	0	0	0	0
11.22433	-0.004889378	-0.06539543	0	0	0	0
11.24117	-0.004889378	-0.06539543	0	0	0	0
11.25747	-0.004889378	-0.06539543	0	0	0	0
11.27404	-0.004889378	-0.06539543	0	0	0	0
11.29061	-0.004889378	-0.06539543	0	0	0	0
11.30736	-0.004889378	-0.06539543	0	0	0	0
11.32374	-0.004889378	-0.06539543	0	0	0	0
11.3403	-0.004889378	-0.06539543	0	0	0	0
11.35699	-0.004889378	-0.06539543	0	0	0	0
11.37344	-0.004889378	-0.06539543	0	0	0	0
11.39019	-0.004889378	-0.06539543	0	0	0	0
11.40658	-0.003667034	-0.05194964	0.07457067	0.8202775	2.250029	24.75033
11.42355	-0.003667034	-0.04461557	1.37227E-08	0.4322595	-2.235427	-11.63173
11.4397	-0.003667033	-0.03361447	1.441038E-08	0.6808814	2.076061E-08	7.505801
11.45627	-0.004889378	-0.02016868	-0.07377665	0.8115426	-2.254421	3.992664
11.47284	-0.004889378	-0.009167584	2.810899E-08	0.664066	2.226584	-4.450855
11.4894	-0.006111722	-0.0006111722	-0.07379358	0.5165552	-2.227352	-4.452394
11.50611	-0.006111722	0.004278206	-2.786993E-08	0.2926304	2.217838	-6.72998
11.52254	-0.006111723	0.006722894	-2.834724E-08	0.148821	-1.44048E-08	-4.34005
11.53932	-0.006111723	0.006722894	0	0	8.535561E-07	-4.481109
11.55931	-0.006111723	0.006722894	0	0	0	0
11.576	-0.006111723	0.006722894	0	0	0	0
11.59293	-0.006111723	0.006722894	0	0	0	0
11.60907	-0.006111723	0.006722894	0	0	0	0
11.62557	-0.006111723	0.006722894	0	0	0	0
11.64214	-0.006111723	0.006722894	0	0	0	0
11.65871	-0.006111723	0.006722894	0	0	0	0
11.67527	-0.006111723	0.006722894	0	0	0	0
11.69253	-0.006111723	0.006722894	0	0	0	0
11.71088	-0.006111723	0.006722894	0	0	0	0
11.72745	-0.006111723	0.006722894	0	0	0	0
11.74402	-0.006111723	0.006722894	0	0	0	0
11.76059	-0.006111723	0.006722894	0	0	0	0
11.77715	-0.006111723	0.006722894	0	0	0	0
11.79634	-0.006111723	0.006722894	0	0	0	0
11.81291	-0.006111723	0.006722894	0	0	0	0
11.82948	-0.006111723	0.006722894	0	0	0	0
11.84604	-0.006111723	0.006722894	0	0	0	0
11.86508	-0.006111723	0.006722894	0	0	0	0
11.88165	-0.006111723	0.006722894	0	0	0	0
11.89822	-0.006111723	0.006722894	0	0	0	0
11.91478	-0.006111723	0.006722894	0	0	0	0
11.93197	-0.006111723	0.006722894	0	0	0	0
11.94799	-0.006111723	0.006722894	0	0	0	0
11.96489	-0.006111723	0.006722894	0	0	0	0
11.98105	-0.006111723	0.006722894	0	0	0	0
11.99762	-0.006111723	0.006722894	0	0	0	0
12.01418	-0.006111723	0.006722894	0	0	0	0
12.0348	-0.006111723	0.006722894	0	0	0	0
12.05137	-0.006111723	0.006722894	0	0	0	0
12.06815	-0.006111723	0.006722894	0	0	0	0
12.08464	-0.006111723	0.006722894	0	0	0	0
12.10107	-0.006111723	0.006722894	0	0	0	0
12.11764	-0.006111723	0.006722894	0	0	0	0
12.13421	-0.006111723	0.006722894	0	0	0	0
12.15077	-0.006111723	0.006722894	0	0	0	0
12.16734	-0.006111723	0.006722894	0	0	0	0
12.1839	-0.006111723	0.006722894	0	0	0	0
12.20047	-0.006111723	0.006722894	0	0	0	0
12.21704	-0.006111723	0.006722894	0	0	0	0
12.2336	-0.006111723	0.006722894	0	0	0	0
12.2502	-0.006111723	0.006722894	0	0	0	0
12.26674	-0.006111723	0.006722894	0	0	0	0
12.28352	-0.006111723	0.006722894	0	0	0	0
12.3004	-0.006111723	0.006722894	0	0	0	0
12.31653	-0.006111723	0.006722894	0	0	0	0
12.333	-0.006111723	0.006722894	0	0	0	0
12.34957	-0.006111723	0.006722894	0	0	0	0
12.36613	-0.006111723	0.006722894	0	0	0	0
12.3827	-0.006111723	0.006722894	0	0	0	0
12.39935	-0.006111723	0.006722894	0	0	0	0
12.41598	-0.006111723	0.006722894	0	0	0	0
12.4324	-0.006111723	0.006722894	0	0	0	0
12.44946	-0.006111723	0.006722894	0	0	0	0
12.46553	-0.006111723	0.006722894	0	0	0	0
12.48216	-0.006111723	0.006722894	0	0	0	0
12.49903	-0.006111723	0.006722894	0	0	0	0
12.51523	-0.006111723	0.006722894	0	0	0	0
12.53209	-0.006111723	0.006722894	0	0	0	0
12.54865	-0.006111723	0.006722894	0	0	0	0
12.56511	-0.006111723	0.006722894	0	0	0	0
12.5815	-0.006111723	0.006722894	0	0	0	0
12.59807	-0.006111723	0.006722894	0	0	0	0
12.61465	-0.006111723	0.006722894	0	0	0	0
12.6312	-0.006111723	0.006722894	0	0	0	0
12.64776	-0.006111723	0.006722894	0	0	0	0
12.66884	-0.006111723	0.006722894	0	0	0	0
12.68567	-0.006111723	0.006722894	0	0	0	0
12.7025	-0.006111723	0.006722894	0	0	0	0
12.71881	-0.006111723	0.006722894	0	0	0	0
12.73537	-0.006111723	0.006722894	0	0	0	0
12.75194	-0.006111723	0.006722894	0	0	0	0
12.76851	-0.006111723	0.006722894	0	0	0	0
12.78538	-0.006111723	0.006722894	0	0	0	0
12.80181	-0.006111723	0.006722894	0	0	0	0
12.81821	-0.006111723	0.006722894	0	0	0	0
12.83477	-0.006111723	0.006722894	0	0	0	0
12.85134	-0.006111723	0.006722894	0	0	0	0
12.86791	-0.006111723	0.006722894	0	0	0	0
12.88458	-0.006111723	0.006722894	0	0	0	0
12.90122	-0.006111723	0.006722894	0	0	0	0
12.9177	-0.006111723	0.006722894	0	0	0	0
12.93424	-0.006111723	0.006722894	0	0	0	0
12.95074	-0.006111723	0.006722894	0	0	0	0
12.96731	-0.006111723	0.006722894	0	0	0	0
12.98676	-0.006111723	0.006722894	0	0	0	0
13.00333	-0.006111723	0.006722894	0	0	0	0
13.02048	-0.006111723	0.006722894	0	0	0	0
13.03646	-0.006111723	0.006722894	0	0	0	0
13.05303	-0.006111723	0.006722894	0	0	0	0
13.0696	-0.006111723	0.006722894	0	0	0	0
13.0868	-0.006111723	0.006722894	0	0	0	0
13.10273	-0.006111723	0.006722894	0	0	0	0
13.11952	-0.006111723	0.006722894	0	0	0	0
13.13628	-0.006111723	0.006722894	0	0	0	0
13.15573	-0.006111723	0.006722894	0	0	0	0
13.1723	-0.006111723	0.006722894	0	0	0	0
13.18886	-0.006111723	0.006722894	0	0	0	0
13.20543	-0.006111723	0.006722894	0	0	0	0
13.222	-0.006111723	0.006722894	0	0	0	0
13.23856	-0.006111723	0.006722894	0	0	0	0
13.25513	-0.006111722	0.00550055	2.810899E-08	-0.07378511	8.483798E-07	-2.226967
13.2717	-0.006111722	0.00550055	0	0	-8.483798E-07	2.226967
13.28829	-0.006111722	0.00550055	0	0	0	0
13.30785	-0.006111722	0.00550055	0	0	0	0
13.32442	-0.006111722	0.00550055	0	0	0	0
13.34141	-0.006111722	0.00550055	0	0	0	0
13.35756	-0.006111722	0.00550055	0	0	0	0
13.37479	-0.006111722	0.00550055	0	0	0	0
13.39136	-0.006111722	0.00550055	0	0	0	0
13.40793	-0.006111722	0.00550055	0	0	0	0
13.42449	-0.006111722	0.00550055	0	0	0	0
13.44106	-0.006111722	0.00550055	0	0	0	0
13.51362	-0.006111722	0.00550055	0	0	0	0
13.53045	-0.006111722	0.00550055	0	0	0	0
13.54676	-0.006111722	0.00550055	0	0	0	0
13.56333	-0.006111722	0.00550055	0	0	0	0
13.57993	-0.006111722	0.00550055	0	0	0	0
13.59646	-0.006111722	0.00550055	0	0	0	0
13.61817	-0.006111722	0.00550055	0	0	0	0
13.63497	-0.006111722	0.00550055	0	0	0	0
13.65659	-0.006111722	0.00550055	0	0	0	0
13.67316	-0.006111722	0.00550055	0	0	0	0
13.68984	-0.006111722	0.00550055	0	0	0	0
13.70629	-0.006111722	0.00550055	0	0	0	0
13.72296	-0.006111722	0.00550055	0	0	0	0
13.73943	-0.006111722	0.00550055	0	0	0	0
13.756	-0.006111722	0.00550055	0	0	0	0
13.77827	-0.006111722	0.00550055	0	0	0	0
13.79502	-0.006111722	0.00550055	0	0	0	0
13.81141	-0.006111722	0.00550055	0	0	0	0
13.82798	-0.006111722	0.00550055	0	0	0	0
13.84454	-0.006111722	0.00550055	0	0	0	0
13.86111	-0.006111722	0.00550055	0	0	0	0
13.87768	-0.006111722	0.00550055	0	0	0	0
13.89489	-0.006111722	0.00550055	0	0	0	0
13.91081	-0.006111722	0.00550055	0	0	0	0
13.93126	-0.002444689	0.00794524	0.179362	0.1195747	4.931814	3.287877
13.94799	0.01466813	0.02383572	1.022514	0.9494771	22.67701	22.32066
13.96472	0.02077986	0.02994744	0.3653708	0.3653709	-19.63762	-17.45504
13.98096	0.03544799	0.04583792	0.9032568	0.9785279	16.31608	18.59933
13.99752	0.05256081	0.06050605	1.033051	0.8854724	3.956596	-2.836669
14.01409	0.07089598	0.07884122	1.106649	1.106649	2.221257	6.675313
14.03066	0.09167584	0.09839873	1.254275	1.180494	4.455235	2.22858
14.04723	0.1173451	0.1204009	1.549398	1.328056	8.906829	4.453427
14.06379	0.1430143	0.1387361	1.549487	1.106776	0.002676798	-6.678417
14.08035	0.1650165	0.1546266	1.328438	0.9594274	-6.672412	-4.44777
14.09724	0.1967975	0.1741841	1.881798	1.15803	16.54237	5.937097
14.11349	0.2090209	0.1815182	0.7523608	0.4514163	-34.08551	-21.32502
14.13012	0.2346901	0.1937416	1.543266	0.7348892	24.05443	8.621483
14.14663	0.2579147	0.202298	1.407346	0.5184956	-4.101961	-6.530585
14.16319	0.2774722	0.2096321	1.180561	0.4427098	-6.858003	-2.291769
14.18028	0.2896957	0.2145215	0.7153664	0.2861467	-13.82318	-4.652243
14.19633	0.3031414	0.2206332	0.8379238	0.3808754	3.698898	2.858999
14.21289	0.3092532	0.2243002	0.3689267	0.2213549	-14.38077	-4.891345
14.22946	0.3129202	0.2243002	0.2213404	8.994359E-07	-4.454292	-6.68067
14.25204	0.3129202	0.2255226	2.639247E-06	0.05412435	-5.65341	1.382422
14.26861	0.3129202	0.2255226	0	0	-6.740673E-05	-1.382344
14.28518	0.3129202	0.2255226	0	0	0	0
14.30175	0.3153649	0.2267449	0.1475597	0.07377983	4.453359	2.22668
14.31831	0.3202542	0.2279672	0.2951739	0.07379347	4.455391	0.0004117523
14.33494	0.3239213	0.2291896	0.2204936	0.07349905	-2.249712	-0.00886919
14.35145	0.3275883	0.2316343	0.2221863	0.1481233	0.05108514	2.2521
14.36801	0.330033	0.2316343	0.1475869	8.995912E-07	-2.255893	-4.479239
14.38458	0.3312554	0.2328566	0.07377403	0.07377223	-2.227742	2.226487
14.407	0.3324777	0.234079	0.05451803	0.05451869	-0.4938701	-0.4938069
14.42357	0.3324777	0.234079	0	0	-1.398222	-1.398239
14.44014	0.3324777	0.234079	0	0	0	0
14.45674	0.3324777	0.234079	0	0	0	0
14.47327	0.3324777	0.234079	0	0	0	0
14.48984	0.3324777	0.234079	0	0	0	0
14.5064	0.3324777	0.234079	0	0	0	0
14.52297	0.3324777	0.234079	0	0	0	0
14.53954	0.3324777	0.234079	0	0	0	0
14.56128	0.3324777	0.234079	0	0	0	0
14.57784	0.3324777	0.234079	0	0	0	0
14.59441	0.3324777	0.234079	0	0	0	0
14.61113	0.3324777	0.234079	0	0	0	0
14.62755	0.3324777	0.234079	0	0	0	0
14.64411	0.3324777	0.234079	0	0	0	0
14.66068	0.3324777	0.234079	0	0	0	0
14.67725	0.3324777	0.234079	0	0	0	0
14.69447	0.3324777	0.234079	0	0	0	0
14.71038	0.3324777	0.234079	0	0	0	0
14.72752	0.3324777	0.234079	0	0	0	0
14.74351	0.3324777	0.234079	0	0	0	0
14.76008	0.3324777	0.234079	0	0	0	0
14.77666	0.3324777	0.234079	0	0	0	0
14.79331	0.3324777	0.234079	0	0	0	0
14.81028	0.3324777	0.234079	0	0	0	0
14.82635	0.3324777	0.234079	0	0	0	0
14.84291	0.3324777	0.234079	0	0	0	0
14.85954	0.3324777	0.234079	0	0	0	0
14.88133	0.3324777	0.234079	0	0	0	0
14.8979	0.3324777	0.234079	0	0	0	0
14.91446	0.3324777	0.234079	0	0	0	0
14.93103	0.3324777	0.234079	0	0	0	0
14.9476	0.3324777	0.234079	0	0	0	0
14.96416	0.3324777	0.234079	0	0	0	0
14.98073	0.3324777	0.234079	0	0	0	0
15.00216	0.3324777	0.234079	0	0	0	0
15.02376	0.3324777	0.234079	0	0	0	0
15.04033	0.3324777	0.234079	0	0	0	0
15.0569	0.3324777	0.234079	0	0	0	0
15.07346	0.3324777	0.234079	0	0	0	0
15.09003	0.3324777	0.234079	0	0	0	0
15.10694	0.3324777	0.234079	0	0	0	0
15.12316	0.3324777	0.234079	0	0	0	0
15.14032	0.3324777	0.234079	0	0	0	0
15.15629	0.3324777	0.234079	0	0	0	0
15.17286	0.3324777	0.234079	0	0	0	0
15.19147	0.3324777	0.234079	0	0	0	0
15.20804	0.3324777	0.234079	0	0	0	0
15.22461	0.3324777	0.234079	0	0	0	0
15.24117	0.3324777	0.234079	0	0	0	0
15.25776	0.3324777	0.234079	0	0	0	0
15.27431	0.3324777	0.234079	0	0	0	0
15.2909	0.3324777	0.234079	0	0	0	0
15.30744	0.3324777	0.234079	0	0	0	0
15.32401	0.3324777	0.234079	0	0	0	0
15.34057	0.3324777	0.234079	0	0	0	0
15.35755	0.3324777	0.234079	0	0	0	0
15.37371	0.3324777	0.234079	0	0	0	0
15.39037	0.3324777	0.234079	0	0	0	0
15.40684	0.3324777	0.234079	0	0	0	0
15.42383	0.3324777	0.234079	0	0	0	0
15.44001	0.3324777	0.234079	0	0	0	0
15.45654	0.3324777	0.234079	0	0	0	0
15.47311	0.3324777	0.234079	0	0	0	0
15.49794	0.3324777	0.234079	0	0	0	0
15.51451	0.3312554	0.2316343	-0.07377223	-0.1475454	-1.781735	-3.563491
15.53108	0.3251436	0.2255226	-0.3689267	-0.3689258	-8.907522	-6.681081
15.54764	0.3092531	0.2120768	-0.959153	-0.8115889	-17.81358	-13.35998
15.56421	0.2896957	0.1961863	-1.180356	-0.9590408	-6.675526	-4.449852
15.58078	0.2664711	0.1754064	-1.401916	-1.254347	-6.68652	-8.912107
15.59753	0.2395795	0.1521819	-1.60498	-1.386119	-6.094093	-3.954561
15.61396	0.2114656	0.127735	-1.711839	-1.488555	-3.220749	-3.08745
15.63048	0.1870187	0.1045104	-1.479791	-1.405802	7.043763	2.511949
15.64731	0.1589048	0.07517418	-1.670516	-1.743146	-5.718884	-10.11527
15.66388	0.145459	0.05806137	-0.8115422	-1.032872	25.71957	21.26718
15.68044	0.1430143	0.05561668	-0.1475614	-0.1475619	20.0384	26.71795
15.69701	0.1405696	0.0507273	-0.1475624	-0.2951236	-2.743279E-05	-4.453421
15.71358	0.1393473	0.04950495	-0.07378072	-0.07378095	2.226734	6.680134
15.73014	0.1393473	0.04950495	0	0	2.226771	2.226778
15.74671	0.1393473	0.04950495	0	0	0	0
15.76328	0.1393473	0.04950495	0	0	0	0
15.77984	0.1393473	0.04950495	0	0	0	0
15.79641	0.1393473	0.04828261	0	-0.07378497	0	-2.226963
15.81432	0.1344579	0.04339323	-0.2729675	-0.2729679	-7.917106	-5.77707
15.83096	0.1112333	0.02505806	-1.395731	-1.101892	-32.49525	-23.9909
15.84746	0.1014546	0.02016868	-0.592737	-0.2963688	24.23231	24.30865
15.86412	0.07456302	0.00794524	-1.614074	-0.7336698	-30.80183	-13.18828
15.88077	0.06111722	0.003055861	-0.807638	-0.2936865	24.21075	13.20915
15.89716	0.05378316	0.0006111723	-0.4474763	-0.1491587	10.90139	4.374572
15.91413	0.05133847	-0.0006111722	-0.14407	-0.07203513	9.095303	2.311958
15.9303	0.05133847	-0.0006111722	0	0	4.346665	2.173337
15.94688	0.05133847	-0.0006111722	0	0	0	0
15.96346	0.05133847	-0.0006111722	0	0	0	0
15.98042	0.05133847	-0.0006111722	0	0	0	0
15.99659	0.05133847	-0.0006111722	0	0	0	0
16.01316	0.05133847	-0.0006111722	0	0	0	0
16.02973	0.05133847	-0.0006111722	0	0	0	0
16.0463	0.05133847	-0.0006111722	0	0	0	0
16.06286	0.05133847	-0.0006111722	0	0	0	0
16.07943	0.05133847	-0.0006111722	0	0	0	0
16.09611	0.05133847	-0.0006111722	0	0	0	0
16.11256	0.05133847	-0.0006111722	0	0	0	0
16.12913	0.05133847	-0.0006111722	0	0	0	0
16.1457	0.05133847	-0.0006111722	0	0	0	0
16.16226	0.05133847	-0.0006111722	0	0	0	0
16.17883	0.05133847	-0.0006111722	0	0	0	0
16.1954	0.05133847	-0.0006111722	0	0	0	0
16.21196	0.05133847	-0.0006111722	0	0	0	0
16.22853	0.05133847	-0.0006111722	0	0	0	0
16.2451	0.05133847	-0.0006111722	0	0	0	0
16.26166	0.05133847	-0.0006111722	0	0	0	0
16.27823	0.05133847	-0.0006111722	0	0	0	0
16.29479	0.05133847	-0.0006111722	0	0	0	0
16.31136	0.05133847	-0.0006111722	0	0	0	0
16.32793	0.05133847	-0.0006111722	0	0	0	0
16.3445	0.05133847	-0.0006111722	0	0	0	0
16.36106	0.05133847	-0.0006111722	0	0	0	0
16.37763	0.05133847	-0.0006111722	0	0	0	0
16.39419	0.05133847	-0.0006111722	0	0	0	0
16.41093	0.05133847	-0.0006111722	0	0	0	0
16.42733	0.05133847	-0.0006111722	0	0	0	0
16.44413	0.05133847	-0.0006111722	0	0	0	0
16.4605	0.05133847	-0.0006111722	0	0	0	0
16.47707	0.05133847	-0.0006111722	0	0	0	0
16.49364	0.05133847	-0.0006111722	0	0	0	0
16.51027	0.05133847	-0.0006111722	0	0	0	0
16.52677	0.05133847	-0.0006111722	0	0	0	0
16.54334	0.05133847	-0.0006111722	0	0	0	0
16.55991	0.05133847	-0.0006111722	0	0	0	0
16.57647	0.05133847	-0.0006111722	0	0	0	0
16.59304	0.05133847	-0.0006111722	0	0	0	0
16.60961	0.05133847	-0.0006111722	0	0	0	0
16.62617	0.05133847	-0.0006111722	0	0	0	0
16.64274	0.05133847	-0.0006111722	0	0	0	0
16.65939	0.05133847	-0.0006111722	0	0	0	0
16.67587	0.05133847	-0.0006111722	0	0	0	0
16.69244	0.05133847	-0.0006111722	0	0	0	0
16.70901	0.05133847	-0.0006111722	0	0	0	0
16.72596	0.05133847	-0.0006111722	0	0	0	0
16.74215	0.05133847	-0.0006111722	0	0	0	0
16.75871	0.05133847	-0.0006111722	0	0	0	0
16.77527	0.05133847	-0.0006111722	0	0	0	0
16.79184	0.05133847	-0.0006111722	0	0	0	0
16.80841	0.05133847	-0.0006111722	0	0	0	0
16.82497	0.05133847	-0.0006111722	0	0	0	0
16.84165	0.05133847	-0.0006111722	0	0	0	0
16.85819	0.05133847	-0.0006111722	0	0	0	0
16.87471	0.05133847	-0.0006111722	0	0	0	0
16.89166	0.05133847	-0.0006111722	0	0	0	0
16.90781	0.05133847	-0.0006111722	0	0	0	0
16.96436	0.05133847	-0.0006111722	0	0	0	0
16.98092	0.05133847	-0.0006111722	0	0	0	0
16.99749	0.05133847	-0.0006111722	0	0	0	0
17.01406	0.05133847	-0.0006111722	0	0	0	0
17.03086	0.05133847	-0.0006111722	0	0	0	0
17.0472	0.05133847	-0.0006111722	0	0	0	0
17.06377	0.05133847	-0.0006111722	0	0	0	0
17.08033	0.05133847	-0.0006111722	0	0	0	0
17.0969	0.05133847	-0.0006111722	0	0	0	0
17.11346	0.05133847	-0.0006111722	0	0	0	0
17.13003	0.05133847	-0.0006111722	0	0	0	0
17.14778	0.05133847	-0.0006111722	0	0	0	0
17.16435	0.05133847	-0.0006111722	0	0	0	0
17.18092	0.05133847	-0.0006111722	0	0	0	0
17.19748	0.05133847	-0.0006111722	0	0	0	0
17.21405	0.05133847	-0.0006111722	0	0	0	0
17.23062	0.05133847	-0.0006111722	0	0	0	0
17.24719	0.05133847	-0.0006111722	0	0	0	0
17.26375	0.05133847	-0.0006111722	0	0	0	0
17.28032	0.05133847	-0.0006111722	0	0	0	0
17.29688	0.05133847	-0.0006111722	0	0	0	0
17.31345	0.05133847	-0.0006111722	0	0	0	0
17.33002	0.05133847	-0.0006111722	0	0	0	0
17.34658	0.05133847	-0.0006111722	0	0	0	0
17.36315	0.05133847	-0.0006111722	0	0	0	0
17.37972	0.05133847	-0.0006111722	0	0	0	0
17.39642	0.05133847	-0.0006111722	0	0	0	0
17.41285	0.05133847	-0.0006111722	0	0	0	0
17.42942	0.05133847	-0.0006111722	0	0	0	0
17.44598	0.05133847	-0.0006111722	0	0	0	0
17.46255	0.05133847	-0.0006111722	0	0	0	0
17.47912	0.05133847	-0.0006111722	0	0	0	0
17.49613	0.05133847	-0.0006111722	0	0	0	0
17.51225	0.05133847	-0.0006111722	0	0	0	0
17.52882	0.05133847	-0.0006111722	0	0	0	0
17.54539	0.05133847	-0.0006111722	0	0	0	0
17.56195	0.05133847	-0.0006111722	0	0	0	0
17.57852	0.05133847	-0.0006111722	0	0	0	0
17.59509	0.05133847	-0.0006111722	0	0	0	0
17.61165	0.05133847	-0.0006111722	0	0	0	0
17.62838	0.05133847	-0.0006111722	0	0	0	0
17.64478	0.05133847	-0.0006111722	0	0	0	0
17.66135	0.05133847	-0.0006111722	0	0	0	0
17.67819	0.05133847	-0.0006111722	0	0	0	0
17.69449	0.05133847	-0.0006111722	0	0	0	0
17.71105	0.05133847	-0.0006111722	0	0	0	0
17.72762	0.05133847	-0.0006111722	0	0	0	0
17.74419	0.05133847	-0.0006111722	0	0	0	0
17.76075	0.05133847	-0.0006111722	0	0	0	0
17.77738	0.05133847	-0.0006111722	0	0	0	0
17.79431	0.05133847	-0.0006111722	0	0	0	0
17.81045	0.05133847	-0.0006111722	0	0	0	0
17.82714	0.05133847	-0.0006111722	0	0	0	0
17.84359	0.05133847	-0.0006111722	0	0	0	0
17.86016	0.05133847	-0.0006111722	0	0	0	0
17.87672	0.05133847	-0.0006111722	0	0	0	0
17.89329	0.05133847	-0.0006111722	0	0	0	0
17.90993	0.05133847	-0.0006111722	0	0	0	0
17.92654	0.05133847	-0.0006111722	0	0	0	0
17.94328	0.05133847	-0.0006111722	0	0	0	0
17.95987	0.05133847	-0.0006111722	0	0	0	0
17.97662	0.05133847	-0.0006111722	0	0	0	0
17.99319	0.05133847	-0.0006111722	0	0	0	0
18.00976	0.05133847	-0.0006111722	0	0	0	0
18.02632	0.05133847	-0.0006111722	0	0	0	0
18.04339	0.05133847	-0.0006111722	0	0	0	0
18.05946	0.05133847	-0.0006111722	0	0	0	0
18.07609	0.05133847	-0.0006111722	0	0	0	0
18.09259	0.05133847	-0.0006111722	0	0	0	0
18.10936	0.05133847	-0.0006111722	0	0	0	0
18.12572	0.05133847	-0.0006111722	0	0	0	0
18.15888	0.05133847	-0.0006111722	0	0	0	0
18.17546	0.05133847	-0.0006111722	0	0	0	0
18.19221	0.05133847	-0.0006111722	0	0	0	0
18.20881	0.05133847	-0.0006111722	0	0	0	0
18.22515	0.05133847	-0.0006111722	0	0	0	0
18.24173	0.05133847	-0.0006111722	0	0	0	0
18.2585	0.05133847	-0.0006111722	0	0	0	0
18.27616	0.05133847	-0.0006111722	0	0	0	0
18.29272	0.05133847	-0.0006111722	0	0	0	0
18.30929	0.05133847	-0.0006111722	0	0	0	0
18.32602	0.05133847	-0.0006111722	0	0	0	0
18.34261	0.05133847	-0.0006111722	0	0	0	0
18.35899	0.05133847	-0.0006111722	0	0	0	0
18.37556	0.05133847	-0.0006111722	0	0	0	0
18.39212	0.05133847	-0.0006111722	0	0	0	0
18.40879	0.05133847	-0.0006111722	0	0	0	0
18.42526	0.05133847	-0.0006111722	0	0	0	0
18.44183	0.05133847	-0.0006111722	0	0	0	0
18.46215	0.05133847	-0.0006111722	0	0	0	0
18.47872	0.05133847	-0.0006111722	0	0	0	0
18.49533	0.05133847	-0.0006111722	0	0	0	0
18.51255	0.05133847	-0.0006111722	0	0	0	0
18.52913	0.05133847	-0.0006111722	0	0	0	0
18.54569	0.05133847	-0.0006111722	0	0	0	0
18.56226	0.05133847	-0.0006111722	0	0	0	0
18.57883	0.05133847	-0.0006111722	0	0	0	0
18.59539	0.05133847	-0.0006111722	0	0	0	0
18.61196	0.05133847	-0.0006111722	0	0	0	0
18.62852	0.05133847	-0.0006111722	0	0	0	0
18.64509	0.05133847	-0.0006111722	0	0	0	0
18.66166	0.05133847	-0.0006111722	0	0	0	0
18.67875	0.05133847	-0.0006111722	0	0	0	0
18.69479	0.05133847	-0.0006111722	0	0	0	0
18.71136	0.05133847	-0.0006111722	0	0	0	0
18.72823	0.05133847	-0.0006111722	0	0	0	0
18.7445	0.05133847	-0.0006111722	0	0	0	0
18.76106	0.05133847	-0.0006111722	0	0	0	0
18.78117	0.05133847	-0.0006111722	0	0	0	0
18.79777	0.05133847	-0.0006111722	0	0	0	0
18.81431	0.05133847	-0.0006111722	0	0	0	0
18.83088	0.05133847	-0.0006111722	0	0	0	0
18.84744	0.05133847	-0.0006111722	0	0	0	0
18.86401	0.05133847	-0.0006111722	0	0	0	0
18.88058	0.05133847	-0.0006111722	0	0	0	0
18.93817	0.05133847	-0.0006111722	0	0	0	0
18.96025	0.05133847	-0.0006111722	0	0	0	0
18.97682	0.05133847	-0.0006111722	0	0	0	0
18.99339	0.05133847	-0.0006111722	0	0	0	0
19.00996	0.05133847	-0.0006111722	0	0	0	0
19.02652	0.05133847	-0.0006111722	0	0	0	0
19.04309	0.05133847	-0.0006111722	0	0	0	0
19.05966	0.05133847	-0.0006111722	0	0	0	0
19.07622	0.05133847	-0.0006111722	0	0	0	0
19.09279	0.05133847	-0.0006111722	0	0	0	0
19.10935	0.05133847	-0.0006111722	0	0	0	0
19.12592	0.05133847	-0.0006111722	0	0	0	0
19.14249	0.05133847	-0.0006111722	0	0	0	0
19.15911	0.05133847	-0.0006111722	0	0	0	0
19.17562	0.05133847	-0.0006111722	0	0	0	0
19.19219	0.05133847	-0.0006111722	0	0	0	0
19.20875	0.05133847	-0.0006111722	0	0	0	0
19.22532	0.05133847	-0.0006111722	0	0	0	0
19.24189	0.05133847	-0.0006111722	0	0	0	0
19.25845	0.05133847	-0.0006111722	0	0	0	0
19.27502	0.05133847	-0.0006111722	0	0	0	0
19.29159	0.05133847	-0.0006111722	0	0	0	0
19.30816	0.05133847	-0.0006111722	0	0	0	0
19.325	0.05133847	-0.0006111722	0	0	0	0
19.34129	0.05133847	-0.0006111722	0	0	0	0
19.35786	0.05133847	-0.0006111722	0	0	0	0
19.37442	0.05133847	-0.0006111722	0	0	0	0
19.39123	0.05133847	-0.0006111722	0	0	0	0
19.40756	0.05133847	-0.0006111722	0	0	0	0
19.42441	0.05133847	-0.0006111722	0	0	0	0
19.44069	0.05133847	-0.0006111722	0	0	0	0
19.45739	0.05133847	-0.0006111722	0	0	0	0
19.47413	0.05133847	-0.0006111722	0	0	0	0
19.49089	0.05133847	-0.0006111722	0	0	0	0
19.5071	0.05133847	-0.0006111722	0	0	0	0
19.52366	0.05133847	-0.0006111722	0	0	0	0
19.54037	0.05133847	-0.0006111722	0	0	0	0
19.5568	0.05133847	-0.0006111722	0	0	0	0
19.57336	0.05133847	-0.0006111722	0	0	0	0
19.59031	0.05133847	-0.0006111722	0	0	0	0
19.6065	0.05133847	-0.0006111722	0	0	0	0
19.62306	0.05133847	-0.0006111722	0	0	0	0
19.63963	0.05133847	-0.0006111722	0	0	0	0
19.65633	0.05133847	-0.0006111722	0	0	0	0
19.67277	0.05133847	-0.0006111722	0	0	0	0
19.68937	0.05133847	-0.0006111722	0	0	0	0
19.7059	0.05133847	-0.0006111722	0	0	0	0
19.72247	0.05133847	-0.0006111722	0	0	0	0
19.73904	0.05133847	-0.0006111722	0	0	0	0
19.75601	0.05133847	-0.0006111722	0	0	0	0
19.77217	0.05133847	-0.0006111722	0	0	0	0
19.78873	0.05133847	-0.0006111722	0	0	0	0
19.80615	0.05133847	-0.0006111722	0	0	0	0
19.82187	0.05133847	-0.0006111722	0	0	0	0
19.83844	0.05133847	-0.0006111722	0	0	0	0
19.8551	0.05133847	-0.0006111722	0	0	0	0
19.87157	0.05133847	-0.0006111722	0	0	0	0
19.88814	0.05133847	-0.0006111722	0	0	0	0
19.9047	0.05133847	-0.0006111722	0	0	0	0
19.92127	0.05133847	-0.0006111722	0	0	0	0
19.93784	0.05133847	-0.0006111722	0	0	0	0
19.9544	0.05133847	-0.0006111722	0	0	0	0
19.97097	0.05133847	-0.0006111722	0	0	0	0
19.98754	0.05133847	-0.0006111722	0	0	0	0
20.0041	0.05133847	-0.0006111722	0	0	0	0
20.02067	0.05133847	-0.0006111722	0	0	0	0
20.03731	0.05133847	-0.0006111722	0	0	0	0
20.0538	0.05133847	-0.0006111722	0	0	0	0
20.07037	0.05133847	-0.0006111722	0	0	0	0
20.08747	0.05133847	-0.0006111722	0	0	0	0
20.1035	0.05133847	-0.0006111722	0	0	0	0
20.12007	0.05133847	-0.0006111722	0	0	0	0
20.13663	0.05133847	-0.0006111722	0	0	0	0
20.1532	0.05133847	-0.0006111722	0	0	0	0
20.16977	0.05133847	-0.0006111722	0	0	0	0
20.18701	0.05133847	-0.0006111722	0	0	0	0
20.2029	0.05133847	-0.0006111722	0	0	0	0
20.21996	0.05133847	-0.0006111722	0	0	0	0
20.23603	0.05133847	-0.0006111722	0	0	0	0
20.2526	0.05133847	-0.0006111722	0	0	0	0
20.26947	0.05133847	-0.0006111722	0	0	0	0
20.28598	0.05133847	-0.0006111722	0	0	0	0
20.30255	0.05133847	-0.0006111722	0	0	0	0
20.31912	0.05133847	-0.0006111722	0	0	0	0
20.33569	0.05133847	-0.0006111722	0	0	0	0
20.35259	0.05133847	-0.0006111722	0	0	0	0
20.36882	0.05133847	-0.0006111722	0	0	0	0
20.38552	0.05133847	-0.0006111722	0	0	0	0
20.40195	0.05133847	-0.0006111722	0	0	0	0
20.41901	0.05133847	-0.0006111722	0	0	0	0
20.43509	0.05133847	-0.0006111722	0	0	0	0
20.45165	0.05133847	-0.0006111722	0	0	0	0
20.46824	0.05133847	-0.0006111722	0	0	0	0
20.48518	0.05133847	-0.0006111722	0	0	0	0
20.50135	0.05133847	-0.0006111722	0	0	0	0
20.51838	0.05133847	-0.0006111722	0	0	0	0
20.53449	0.05133847	-0.0006111722	0	0	0	0
20.55105	0.05133847	-0.0006111722	0	0	0	0
20.56762	0.05133847	-0.0006111722	0	0	0	0
20.58511	0.05133847	-0.0006111722	0	0	0	0
20.60076	0.05133847	-0.0006111722	0	0	0	0
20.61732	0.05133847	-0.0006111722	0	0	0	0
20.63388	0.05133847	-0.0006111722	0	0	0	0
20.65045	0.05133847	-0.0006111722	0	0	0	0
20.66702	0.05133847	-0.0006111722	0	0	0	0
20.68359	0.05133847	-0.0006111722	0	0	0	0
20.70015	0.05133847	-0.0006111722	0	0	0	0
20.71686	0.05133847	-0.0006111722	0	0	0	0
20.73329	0.05133847	-0.0006111722	0	0	0	0
20.75034	0.05133847	-0.0006111722	0	0	0	0
20.76642	0.05133847	-0.0006111722	0	0	0	0
20.78299	0.05133847	-0.0006111722	0	0	0	0
20.79956	0.05133847	-0.0006111722	0	0	0	0
20.81612	0.05133847	-0.0006111722	0	0	0	0
20.83313	0.05133847	-0.0006111722	0	0	0	0
20.85187	0.05133847	-0.0006111722	0	0	0	0
20.86844	0.05133847	-0.0006111722	0	0	0	0
20.88501	0.05133847	-0.0006111722	0	0	0	0
20.90158	0.05133847	-0.0006111722	0	0	0	0
20.91816	0.05133847	-0.0006111722	0	0	0	0
20.93471	0.05133847	-0.0006111722	0	0	0	0
20.95127	0.05133847	-0.0006111722	0	0	0	0
20.96785	0.05133847	-0.0006111722	0	0	0	0
20.98441	0.05133847	-0.0006111722	0	0	0	0
21.00098	0.05133847	-0.0006111722	0	0	0	0
21.01754	0.05133847	-0.0006111722	0	0	0	0
21.03466	0.05133847	-0.0006111722	0	0	0	0
21.05068	0.05133847	-0.0006111722	0	0	0	0
21.0676	0.05133847	-0.0006111722	0	0	0	0
21.08417	0.05133847	-0.0006111722	0	0	0	0
21.1013	0.05133847	-0.0006111722	0	0	0	0
21.1173	0.05133847	-0.0006111722	0	0	0	0
21.13387	0.05133847	-0.0006111722	0	0	0	0
21.15044	0.05133847	-0.0006111722	0	0	0	0
21.16701	0.05133847	-0.0006111722	0	0	0	0
21.1839	0.05133847	-0.0006111722	0	0	0	0
21.20014	0.05133847	-0.0006111722	0	0	0	0
21.21671	0.05133847	-0.0006111722	0	0	0	0
21.23327	0.05133847	-0.0006111722	0	0	0	0
21.24984	0.05133847	-0.0006111722	0	0	0	0
21.26641	0.05133847	-0.0006111722	0	0	0	0
21.28297	0.05133847	-0.0006111722	0	0	0	0
21.29954	0.05133847	-0.0006111722	0	0	0	0
21.31627	0.05133847	-0.0006111722	0	0	0	0
21.33267	0.05133847	-0.0006111722	0	0	0	0
21.34924	0.05133847	-0.0006111722	0	0	0	0
21.36589	0.05133847	-0.0006111722	0	0	0	0
21.3824	0.05133847	-0.0006111722	0	0	0	0
21.39894	0.05133847	-0.0006111722	0	0	0	0
21.4155	0.05133847	-0.0006111722	0	0	0	0
21.43212	0.05133847	-0.0006111722	0	0	0	0
21.44864	0.05133847	-0.0006111722	0	0	0	0
21.46521	0.05133847	-0.0006111722	0	0	0	0
21.48177	0.05133847	-0.0006111722	0	0	0	0
21.49834	0.05133847	-0.0006111722	0	0	0	0
21.51491	0.05133847	-0.0006111722	0	0	0	0
21.53196	0.05133847	-0.0006111722	0	0	0	0
21.54862	0.05133847	-0.0006111722	0	0	0	0
21.56466	0.05133847	-0.0006111722	0	0	0	0
21.58124	0.05133847	-0.0006111722	0	0	0	0
21.59781	0.05133847	-0.0006111722	0	0	0	0
21.61437	0.05133847	-0.0006111722	0	0	0	0
21.63093	0.05133847	-0.0006111722	0	0	0	0
21.6475	0.05133847	-0.0006111722	0	0	0	0
21.66406	0.05133847	-0.0006111722	0	0	0	0
21.68063	0.05133847	-0.0006111722	0	0	0	0
21.6972	0.05133847	-0.0006111722	0	0	0	0
21.71441	0.05133847	-0.0006111722	0	0	0	0
21.73056	0.05133847	-0.0006111722	0	0	0	0
21.74713	0.05133847	-0.0006111722	0	0	0	0
21.7637	0.05133847	-0.0006111722	0	0	0	0
21.78049	0.05133847	-0.0006111722	0	0	0	0
21.79683	0.05133847	-0.0006111722	0	0	0	0
21.8134	0.05133847	-0.0006111722	0	0	0	0
21.83035	0.05133847	-0.0006111722	0	0	0	0
21.84653	0.05133847	-0.0006111722	0	0	0	0
21.8631	0.05133847	-0.0006111722	0	0	0	0
21.87967	0.05133847	-0.0006111722	0	0	0	0
21.89623	0.05133847	-0.0006111722	0	0	0	0
21.91313	0.05133847	-0.0006111722	0	0	0	0
21.92972	0.05622785	0.009167584	0.2946146	0.5892293	8.796793	17.59359
21.94593	0.06356192	0.02016868	0.4524255	0.6786381	4.81037	2.725345
21.96423	0.07089598	0.03116978	0.4009134	0.6013705	-1.492935	-2.239386
21.98079	0.08189709	0.0482826	0.6639519	1.032813	7.545023	12.37554
21.99736	0.08678646	0.05439433	0.2950889	0.3688618	-11.13102	-20.03578
22.01393	0.09534287	0.07028481	0.5165254	0.9592617	6.682968	17.8183
22.0305	0.1075663	0.08861998	0.7378086	1.106713	6.678723	4.450352
22.04734	0.1234568	0.1142892	0.9435098	1.52413	6.157037	12.49411
22.06399	0.1552377	0.1582936	1.909071	2.64333	28.832	33.4197
22.08051	0.1674612	0.1754064	0.7395962	1.035434	-35.2522	-48.4678
22.09704	0.2077986	0.2206332	2.440388	2.736193	51.45144	51.45044
22.11361	0.2334678	0.2438577	1.549576	1.401997	-26.9173	-40.31486
22.13031	0.2542477	0.2621929	1.244248	1.097866	-9.17838	-9.14238
22.14674	0.2713605	0.276861	1.041324	0.8925636	-6.124252	-6.196036
22.1637	0.2835839	0.2866398	0.7208784	0.5767013	-9.597036	-9.459775
22.17987	0.2896957	0.2939738	0.3778206	0.4533848	-10.3541	-3.721916
22.19697	0.2933627	0.2951962	0.2145256	0.07151026	-4.908195	-11.47808
22.21354	0.294585	0.2964185	0.07376374	0.07376374	-4.181288	0.06693896
22.23041	0.294585	0.2964185	0	0	-2.205626	-2.205626
22.24667	0.294585	0.2964185	0	0	0	0
22.26324	0.294585	0.2964185	0	0	0	0
22.27981	0.294585	0.2964185	0	0	0	0
22.29666	0.294585	0.2964185	0	0	0	0
22.31294	0.294585	0.2964185	0	0	0	0
22.32974	0.294585	0.2964185	0	0	0	0
22.3461	0.294585	0.2964185	0	0	0	0
22.36264	0.294585	0.2964185	0	0	0	0
22.37921	0.294585	0.2939738	0	-0.1475463	0	-4.456803
22.39577	0.294585	0.2939738	0	0	0	4.452699
22.41234	0.2933627	0.2903068	-0.07377043	-0.2213149	-2.226268	-6.678912
22.42891	0.2933627	0.2878621	-1.799079E-06	-0.1475802	2.226342	2.225316
22.44548	0.2933627	0.2866398	0	-0.07377403	5.429631E-05	2.227476
22.46204	0.2933627	0.2866398	0	0	0	2.226377
22.47861	0.2933627	0.2866398	0	0	0	0
22.49524	0.2933627	0.2866398	0	0	0	0
22.51188	0.2933627	0.2866398	0	0	0	0
22.52946	0.2933627	0.2866398	0	0	0	0
22.54603	0.2933627	0.2866398	0	0	0	0
22.5626	0.2933627	0.2866398	0	0	0	0
22.57917	0.2933627	0.2866398	0	0	0	0
22.59573	0.2933627	0.2866398	0	0	0	0
22.61237	0.2933627	0.2866398	0	0	0	0
22.62936	0.2933627	0.2866398	0	0	0	0
22.64551	0.2933627	0.2866398	0	0	0	0
22.66227	0.2933627	0.2866398	0	0	0	0
22.68306	0.2933627	0.2866398	0	0	0	0
22.69963	0.2933627	0.2866398	0	0	0	0
22.7162	0.2933627	0.2866398	0	0	0	0
22.73278	0.2933627	0.2866398	0	0	0	0
22.74933	0.2933627	0.2866398	0	0	0	0
22.76594	0.2933627	0.2866398	0	0	0	0
22.78246	0.2933627	0.2866398	0	0	0	0
22.79903	0.2933627	0.2841951	0	-0.1475427	0	-4.458493
22.81596	0.2933627	0.2841951	0	0	0	4.40392
22.83454	0.2933627	0.2829728	0	-0.0658018	0	-1.853096
22.8513	0.2933627	0.2817504	0	-0.07291785	0	-0.2013633
22.86789	0.2921403	0.2793057	-0.07370435	-0.1474105	-2.210153	-2.233791
22.88444	0.2921403	0.2793057	0	0	2.224146	4.448346
22.90101	0.2921403	0.276861	0	-0.1475614	0	-4.455208
22.9182	0.2921403	0.2756387	0	-0.07111794	0	2.264701
22.93414	0.2921404	0.2744163	1.868796E-06	-0.07665052	5.640036E-05	-0.1669738
22.95071	0.2921403	0.273194	-1.798872E-06	-0.07377893	-0.0001128007	0.08831718
22.96728	0.2921403	0.273194	0	0	5.429006E-05	2.226652
22.98513	0.2921403	0.273194	0	0	0	0
23.0017	0.2921403	0.273194	0	0	0	0
23.01827	0.2921403	0.273194	0	0	0	0
23.03483	0.2921403	0.273194	0	0	0	0
23.0514	0.2921403	0.273194	0	0	0	0
23.06797	0.2921403	0.273194	0	0	0	0
23.08454	0.2921403	0.273194	0	0	0	0
23.1011	0.2921403	0.273194	0	0	0	0
23.11806	0.2921403	0.273194	0	0	0	0
23.13458	0.2921403	0.273194	0	0	0	0
23.15197	0.2921403	0.273194	0	0	0	0
23.16854	0.2921403	0.273194	0	0	0	0
23.18511	0.2921403	0.273194	0	0	0	0
23.20167	0.2921403	0.273194	0	0	0	0
23.21844	0.2921403	0.273194	0	0	0	0
23.23497	0.2921403	0.273194	0	0	0	0
23.25163	0.2921403	0.273194	0	0	0	0
23.26819	0.2921403	0.273194	0	0	0	0
23.28451	0.2921403	0.273194	0	0	0	0
23.30107	0.2921403	0.273194	0	0	0	0
23.31855	0.2921403	0.273194	0	0	0	0
23.33518	0.2921403	0.273194	0	0	0	0
23.35169	0.2921403	0.273194	0	0	0	0
23.36826	0.290918	0.273194	-0.07378072	-1.798872E-06	-2.23043	-5.438084E-05
23.38483	0.2860286	0.269527	-0.2951247	-0.2213422	-6.680175	-6.680066
23.40144	0.2762499	0.2621929	-0.5887546	-0.4415659	-8.850559	-6.63796
23.41796	0.259137	0.2536365	-1.035555	-0.5177783	-13.48446	-2.300093
23.43486	0.2371348	0.2389683	-1.302267	-0.8681788	-7.980493	-10.48458
23.45109	0.2090209	0.2194108	-1.731447	-1.204483	-12.9534	-10.15027
23.46997	0.1613495	0.1864075	-2.525367	-1.748331	-22.6096	-15.48794
23.48654	0.1271238	0.1656277	-2.065627	-1.25413	12.97009	13.94231
23.50311	0.1185674	0.1582936	-0.5164061	-0.4426352	46.75019	24.48814
23.51968	0.1087887	0.1497372	-0.5902463	-0.5164651	-2.228374	-2.228062
23.53624	0.1026769	0.1436255	-0.3689899	-0.3689904	6.678298	4.451307
23.55282	0.0990099	0.1399584	-0.2211644	-0.2211639	4.4601	4.460127
23.56938	0.09656522	0.1375138	-0.1476634	-0.1476634	2.218135	2.218122
23.58615	0.09412052	0.1338467	-0.1457501	-0.2186247	0.05740717	-2.129115
23.60251	0.09167584	0.1326244	-0.1494188	-0.07470965	-0.1107224	4.343366
23.62062	0.08556411	0.124068	-0.3374018	-0.4723622	-5.45268	-11.53441
23.63738	0.07334067	0.1106222	-0.7294941	-0.8024433	-11.24436	-9.46601
23.65376	0.06722895	0.1045105	-0.3732007	-0.3732007	10.75358	12.95532
23.67032	0.05378316	0.09228701	-0.8115898	-0.7378086	-13.30721	-11.0676
23.68691	0.03911502	0.07884122	-0.8842505	-0.8105633	-2.191516	-2.194351
23.70346	0.02077986	0.06295074	-1.108116	-0.9603674	-6.756283	-4.521099
23.72003	0.003667033	0.04828261	-1.032932	-0.8853701	2.270506	2.264859
23.73659	-0.0110011	0.03116979	-0.8853703	-1.032932	4.453418	-4.453429
23.75316	-0.02566923	0.017724	-0.8853703	-0.8115894	1.798872E-06	6.680134
23.7704	-0.03422565	0.003055861	-0.4962416	-0.8506999	11.50939	-1.156784
23.78749	-0.0440044	-0.01527931	-0.5723886	-1.073229	-2.218311	-6.482702
23.80456	-0.04889378	-0.02628041	-0.286354	-0.6442968	8.373693	12.55703
23.82063	-0.05011613	-0.03483682	-0.07609373	-0.5326556	6.344938	3.368949
23.83719	-0.05256082	-0.04094854	-0.1475789	-0.3689468	-2.190847	5.017278
23.85386	-0.05256081	-0.04461557	4.470928E-07	-0.2200504	4.441171	4.480805
23.87063	-0.05378316	-0.04706026	-0.07285849	-0.1457163	-2.178695	2.222806
23.88689	-0.05378316	-0.04828261	2.291325E-07	-0.07518317	2.205482	2.135085
23.90346	-0.05378316	-0.04828261	0	0	-6.980325E-06	2.290391
23.92002	-0.05378316	-0.04828261	0	0	0	0
23.93682	-0.05378316	-0.04828261	0	0	0	0
23.95459	-0.05378316	-0.04828261	0	0	0	0
23.97116	-0.05500551	-0.05317198	-0.07376419	-0.2950554	-2.148418	-8.593635
23.98772	-0.05622785	-0.05683902	-0.07379772	-0.2213938	-0.001011865	2.223111
24.00429	-0.05867254	-0.06661777	-0.1475617	-0.5902465	-2.226457	-11.13328
24.0209	-0.05989488	-0.07028481	-0.07360277	-0.2208088	2.229389	11.13619
24.03743	-0.05989488	-0.07028481	0	0	2.221208	6.663639
24.05399	-0.05989488	-0.07028481	0	0	0	0
24.07056	-0.05989488	-0.07150715	0	-0.07378072	0	-2.226707
24.08712	-0.05989488	-0.07150715	0	0	0	2.226963
24.10875	-0.05989488	-0.07150715	0	0	0	0
24.12531	-0.05989488	-0.07150715	0	0	0	0
24.14188	-0.05989488	-0.07150715	0	0	0	0
24.15845	-0.05989488	-0.07150715	0	0	0	0
24.17501	-0.05989488	-0.07150715	0	0	0	0
24.19188	-0.05989488	-0.07150715	0	0	0	0
24.20839	-0.05989488	-0.07150715	0	0	0	0
24.22471	-0.05989488	-0.07150715	0	0	0	0
24.24128	-0.05989488	-0.07150715	0	0	0	0
24.25827	-0.05989488	-0.07150715	0	0	0	0
24.27484	-0.05989488	-0.07150715	0	0	0	0
24.29141	-0.05989488	-0.07150715	0	0	0	0
24.30798	-0.05989488	-0.07150715	0	0	0	0
24.32454	-0.05989488	-0.07150715	0	0	0	0
24.4108	-0.05989488	-0.07150715	0	0	0	0
24.45363	-0.05989488	-0.07150715	0	0	0	0
24.4702	-0.05989488	-0.07150715	0	0	0	0
24.48677	-0.05989488	-0.07150715	0	0	0	0
24.50334	-0.05989488	-0.07150715	0	0	0	0
24.5199	-0.05989488	-0.07150715	0	0	0	0
24.53647	-0.05989488	-0.07150715	0	0	0	0
24.55304	-0.05989488	-0.07150715	0	0	0	0
24.56961	-0.05989488	-0.07150715	0	0	0	0
24.58631	-0.05989488	-0.07150715	0	0	0	0
24.60288	-0.05989488	-0.07150715	0	0	0	0
24.61945	-0.05989488	-0.07150715	0	0	0	0
24.63601	-0.05989488	-0.07150715	0	0	0	0
24.65263	-0.05989488	-0.07150715	0	0	0	0
24.66976	-0.05989488	-0.07150715	0	0	0	0
24.68572	-0.05989488	-0.07150715	0	0	0	0
24.70233	-0.05989488	-0.07150715	0	0	0	0
24.71885	-0.05989488	-0.07150715	0	0	0	0
24.73564	-0.05989488	-0.07150715	0	0	0	0
24.75227	-0.05989488	-0.07150715	0	0	0	0
24.76919	-0.05989488	-0.07150715	0	0	0	0
24.78576	-0.05989488	-0.07150715	0	0	0	0
24.80233	-0.05989488	-0.07150715	0	0	0	0
24.8189	-0.05989488	-0.07150715	0	0	0	0
24.83555	-0.05989488	-0.07150715	0	0	0	0
24.85203	-0.05989488	-0.07150715	0	0	0	0
24.86862	-0.05989488	-0.07150715	0	0	0	0
24.88516	-0.05989488	-0.07150715	0	0	0	0
24.90191	-0.05989488	-0.07150715	0	0	0	0
24.91926	-0.05989488	-0.07150715	0	0	0	0
24.93583	-0.05989488	-0.07150715	0	0	0	0
24.9524	-0.05989488	-0.07150715	0	0	0	0
24.96943	-0.05989488	-0.07150715	0	0	0	0
24.98553	-0.05989488	-0.07150715	0	0	0	0
25.0021	-0.05989488	-0.07150715	0	0	0	0
25.01878	-0.05989488	-0.07150715	0	0	0	0
25.03523	-0.05989488	-0.07150715	0	0	0	0
25.05252	-0.05989488	-0.07150715	0	0	0	0
25.07019	-0.05989488	-0.07150715	0	0	0	0
25.08676	-0.05989488	-0.07150715	0	0	0	0
25.10333	-0.05989488	-0.07150715	0	0	0	0
25.1199	-0.05989488	-0.07150715	0	0	0	0
25.13647	-0.05989488	-0.07150715	0	0	0	0
25.15303	-0.05989488	-0.07150715	0	0	0	0
25.1696	-0.05989488	-0.07150715	0	0	0	0
25.18616	-0.05989488	-0.07150715	0	0	0	0
25.20273	-0.05989488	-0.07150715	0	0	0	0
25.21989	-0.05989488	-0.07150715	0	0	0	0
25.23646	-0.05989488	-0.07150715	0	0	0	0
25.25302	-0.05989488	-0.07150715	0	0	0	0
25.26959	-0.05989488	-0.07150715	0	0	0	0
25.28615	-0.05989488	-0.07150715	0	0	0	0
25.30272	-0.05989488	-0.07150715	0	0	0	0
25.31929	-0.05989488	-0.07150715	0	0	0	0
25.33603	-0.05989488	-0.07150715	0	0	0	0
25.35254	-0.05989488	-0.07150715	0	0	0	0
25.37326	-0.05989488	-0.07150715	0	0	0	0
25.38983	-0.05989488	-0.07150715	0	0	0	0
25.40659	-0.05989488	-0.07150715	0	0	0	0
25.42296	-0.05989488	-0.07150715	0	0	0	0
25.43962	-0.05989488	-0.07150715	0	0	0	0
25.45609	-0.05989488	-0.07150715	0	0	0	0
25.47266	-0.05989488	-0.07150715	0	0	0	0
25.48923	-0.05989488	-0.07150715	0	0	0	0
25.5058	-0.05989488	-0.07150715	0	0	0	0
25.52251	-0.05989488	-0.07150715	0	0	0	0
25.53908	-0.05989488	-0.07150715	0	0	0	0
25.5557	-0.05989488	-0.07150715	0	0	0	0
25.57221	-0.05256081	-0.05806136	0.4442193	0.8144021	13.40811	24.58153
25.58878	-0.04033737	-0.03850385	0.7377236	1.180358	8.872791	11.06303
25.60538	-0.02933627	-0.01894634	0.6627307	1.178188	-2.260949	-0.06541475
25.62191	-0.02077986	-0.004278206	0.5175386	0.8872088	-4.382158	-8.782273
25.63848	-0.01466813	0.004278206	0.3689468	0.5165255	-4.489421	-11.19949
25.65532	-0.01222344	0.01038993	0.1451882	0.3629704	-6.698678	-4.596992
25.67161	-0.0110011	0.01161227	0.07500701	0.07500712	-2.118072	-8.690749
25.6899	-0.0110011	0.01161227	0	0	-2.168833	-2.168836
25.71225	-0.0110011	0.01161227	0	0	0	0
25.72882	-0.0110011	0.01161227	0	0	0	0
25.74539	-0.0110011	0.01161227	0	0	0	0
25.76195	-0.0110011	0.01161227	0	0	0	0
25.77852	-0.0110011	0.01161227	0	0	0	0
25.79532	-0.0110011	0.01161227	0	0	0	0
25.81165	-0.0110011	0.01161227	0	0	0	0
25.82822	-0.0110011	0.01161227	0	0	0	0
25.85464	-0.0110011	0.01161227	0	0	0	0
25.87121	-0.0110011	0.01161227	0	0	0	0
25.88791	-0.0110011	0.01161227	0	0	0	0
25.90435	-0.0110011	0.01161227	0	0	0	0
25.92091	-0.0110011	0.01161227	0	0	0	0
25.93767	-0.0110011	0.01161227	0	0	0	0
25.95405	-0.0110011	0.01161227	0	0	0	0
25.97087	-0.0110011	0.01161227	0	0	0	0
25.98718	-0.0110011	0.01161227	0	0	0	0
26.00419	-0.0110011	0.01161227	0	0	0	0
26.02076	-0.0110011	0.01161227	0	0	0	0
26.03741	-0.0110011	0.01161227	0	0	0	0
26.05444	-0.0110011	0.01161227	0	0	0	0
26.07046	-0.0110011	0.01161227	0	0	0	0
26.08702	-0.0110011	0.01161227	0	0	0	0
26.104	-0.0110011	0.01161227	0	0	0	0
26.12016	-0.0110011	0.01161227	0	0	0	0
26.13673	-0.0110011	0.01161227	0	0	0	0
26.15329	-0.0110011	0.01161227	0	0	0	0
26.1709	-0.0110011	0.01161227	0	0	0	0
26.18747	-0.0110011	0.01161227	0	0	0	0
26.2046	-0.0110011	0.01161227	0	0	0	0
26.2206	-0.0110011	0.01161227	0	0	0	0
26.23717	-0.0110011	0.01161227	0	0	0	0
26.25411	-0.0110011	0.01161227	0	0	0	0
26.2703	-0.0110011	0.01161227	0	0	0	0
26.28687	-0.0110011	0.01161227	0	0	0	0
26.30406	-0.0110011	0.01161227	0	0	0	0
26.32	-0.0110011	0.01161227	0	0	0	0
26.33825	-0.0110011	0.01161227	0	0	0	0
26.35485	-0.0110011	0.01161227	0	0	0	0
26.37138	-0.0110011	0.01161227	0	0	0	0
26.38795	-0.0110011	0.01161227	0	0	0	0
26.40451	-0.0110011	0.01161227	0	0	0	0
26.42108	-0.0110011	0.01161227	0	0	0	0
26.43765	-0.0110011	0.01161227	0	0	0	0
26.45484	-0.0110011	0.01161227	0	0	0	0
26.47085	-0.0110011	0.01161227	0	0	0	0
26.49281	-0.0110011	0.01161227	0	0	0	0
26.50938	-0.0110011	0.01161227	0	0	0	0
26.52594	-0.0110011	0.01161227	0	0	0	0
26.54251	-0.0110011	0.01161227	0	0	0	0
26.55908	-0.0110011	0.01161227	0	0	0	0
26.57564	-0.0110011	0.01161227	0	0	0	0
26.59221	-0.0110011	0.01161227	0	0	0	0
26.60878	-0.0110011	0.01161227	0	0	0	0
26.62534	-0.0110011	0.01161227	0	0	0	0
26.64191	-0.0110011	0.01161227	0	0	0	0
26.65848	-0.0110011	0.01161227	0	0	0	0
26.67505	-0.0110011	0.01161227	0	0	0	0
26.69161	-0.0110011	0.01161227	0	0	0	0
26.70818	-0.0110011	0.01161227	0	0	0	0
26.72474	-0.0110011	0.01161227	0	0	0	0
26.74131	-0.0110011	0.01161227	0	0	0	0
26.75801	-0.0110011	0.01161227	0	0	0	0
26.77444	-0.0110011	0.01161227	0	0	0	0
26.79101	-0.0110011	0.01161227	0	0	0	0
26.80809	-0.0110011	0.01161227	0	0	0	0
26.82466	-0.0110011	0.01161227	0	0	0	0
26.84123	-0.0110011	0.01161227	0	0	0	0
26.8578	-0.0110011	0.01161227	0	0	0	0
26.87436	-0.0110011	0.01161227	0	0	0	0
26.89093	-0.0110011	0.01161227	0	0	0	0
26.9075	-0.009778757	0.0006111723	0.07378083	-0.6640278	2.22671	-20.0404
26.92406	-0.004889378	-0.01650165	0.2951574	-1.033051	6.681544	-11.13778
26.94063	0.003667033	-0.03850385	0.516466	-1.328056	6.679491	-8.903766
26.95736	0.01833517	-0.07639653	0.8766902	-2.264783	10.81803	-28.13123
26.9754	0.03055861	-0.09717638	0.6776574	-1.152017	-5.724424	32.00449
26.99238	0.04889378	-0.1179562	1.079981	-1.223979	11.48999	-2.055156
27.00854	0.0550055	-0.1216233	0.3782227	-0.2269337	-21.17788	30.08914
27.0251	0.06356191	-0.1265126	0.5164657	-0.2951229	4.224219	-2.083622
27.04167	0.06845129	-0.1289574	0.2951238	-0.1475632	-6.680113	4.453359
27.05841	0.07211833	-0.1289573	0.2190727	8.902119E-07	-2.283397	4.430541
27.0748	0.07578535	-0.1301797	0.2236857	-0.07456188	0.1392272	-2.250438
27.09137	0.0794524	-0.1301797	0.2213686	0	-0.0703021	2.262263
27.10793	0.08556411	-0.1301797	0.3689041	8.994359E-07	4.452887	2.714659E-05
27.1257	0.08556411	-0.1301797	0	0	-10.74571	-2.619942E-05
27.14227	0.08800881	-0.1301797	0.1475449	-1.798665E-06	4.297557	-5.238991E-05
27.15883	0.08800881	-0.1301797	0	0	-4.452658	5.428068E-05
27.17547	0.08800881	-0.1301797	0	0	0	0
27.19197	0.08923115	-0.1301797	0.07410492	9.033881E-07	2.236491	2.726431E-05
27.20854	0.09045349	-0.1289573	0.07378072	0.07378072	-0.009805738	2.231561
27.2251	0.09167583	-0.127735	0.07378922	0.07378922	0.000256354	0.000256354
27.24167	0.09534287	-0.1252903	0.2213426	0.1475624	4.453427	2.226606
27.25823	0.09778756	-0.1228456	0.1475789	0.1475784	-2.226322	0.0004852736
27.27631	0.1002323	-0.1204009	0.1352313	0.1352305	-0.3564208	-0.3564316
27.29288	0.1014546	-0.1179563	0.07377223	0.1475449	-1.773866	0.3554247
27.30945	0.1014546	-0.1179563	0	0	-2.226322	-4.452658
27.32602	0.1014546	-0.1179563	0	0	0	0
27.34258	0.1014546	-0.1179563	0	0	0	0
27.35915	0.1026769	-0.1167339	0.07378118	0.07378118	2.226849	2.226849
27.37571	0.1026769	-0.1167339	0	0	-2.226849	-2.226849
27.39228	0.1038993	-0.1167339	0.07378072	0	2.226835	0
27.40885	0.1038993	-0.1167339	0	0	-2.226707	0
27.42743	0.1038993	-0.1167339	0	0	0	0
27.444	0.1038993	-0.1167339	0	0	0	0
27.46057	0.1038993	-0.1167339	0	0	0	0
27.47713	0.1038993	-0.1167339	0	0	0	0
27.4937	0.1038993	-0.1167339	0	0	0	0
27.51121	0.1038993	-0.1167339	0	0	0	0
27.52778	0.1038993	-0.1167339	0	0	0	0
27.54462	0.1038993	-0.1167339	0	0	0	0
27.56091	0.1038993	-0.1167339	0	0	0	0
27.57877	0.1038993	-0.1167339	0	0	0	0
27.59534	0.1038993	-0.1167339	0	0	0	0
27.61269	0.1038993	-0.1167339	0	0	0	0
27.62847	0.1038993	-0.1167339	0	0	0	0
27.64521	0.1038993	-0.1167339	0	0	0	0
27.6616	0.1038993	-0.1167339	0	0	0	0
27.67817	0.1038993	-0.1167339	0	0	0	0
27.69473	0.1038993	-0.1167339	0	0	0	0
27.7113	0.1038993	-0.1167339	0	0	0	0
27.73119	0.1038993	-0.1167339	0	0	0	0
27.74779	0.1038993	-0.1167339	0	0	0	0
27.76432	0.1038993	-0.1167339	0	0	0	0
27.78089	0.1038993	-0.1167339	0	0	0	0
27.79745	0.1038993	-0.1167339	0	0	0	0
27.81438	0.1038993	-0.1167339	0	0	0	0
27.83059	0.1038993	-0.1167339	0	0	0	0
27.84715	0.1038993	-0.1167339	0	0	0	0
27.864	0.1038993	-0.1167339	0	0	0	0
27.88136	0.1038993	-0.1167339	0	0	0	0
27.89792	0.1038993	-0.1167339	0	0	0	0
27.91449	0.1038993	-0.1167339	0	0	0	0
27.93106	0.1038993	-0.1155116	-4.497179E-07	0.07378072	-1.357251E-05	2.226707
27.94765	0.1038993	-0.1130669	4.491491E-07	0.1473753	2.711069E-05	2.219682
27.96419	0.1051216	-0.1130669	0.0738828	0	2.229902	-4.44805
27.98076	0.1051216	-0.1130669	0	0	-2.2312	0
27.99733	0.1051216	-0.1130669	0	0	0	0
28.01389	0.1051216	-0.1130669	0	0	0	0
28.03183	0.1051216	-0.1130669	0	0	0	0
28.0484	0.1051216	-0.1130669	0	0	0	0
28.06496	0.1051216	-0.1130669	0	0	0	0
28.08153	0.1051216	-0.1130669	0	0	0	0
28.0981	0.1051216	-0.1130669	0	0	0	0
28.11468	0.1051216	-0.1130669	0	0	0	0
28.15637	0.1051216	-0.1130669	0	0	0	0
28.17294	0.1051216	-0.1130669	0	0	0	0
28.19324	0.1051216	-0.1130669	0	0	0	0
28.20981	0.1051216	-0.1130669	0	0	0	0
28.22638	0.1051216	-0.1130669	0	0	0	0
28.24325	0.1051216	-0.1130669	0	0	0	0
28.25951	0.1051216	-0.1130669	0	0	0	0
28.27628	0.1051216	-0.1130669	0	0	0	0
28.29277	0.1051216	-0.1130669	0	0	0	0
28.30928	0.1051216	-0.1130669	0	0	0	0
28.32578	0.1051216	-0.1130669	0	0	0	0
28.34431	0.1051216	-0.1130669	0	0	0	0
28.36088	0.1051216	-0.1130669	0	0	0	0
28.37744	0.1051216	-0.1130669	0	0	0	0
28.39401	0.1051216	-0.1130669	0	0	0	0
28.41136	0.1051216	-0.1130669	0	0	0	0
28.42714	0.1051216	-0.1130669	0	0	0	0
28.44371	0.1051216	-0.1130669	0	0	0	0
28.46038	0.1051216	-0.1130669	0	0	0	0
28.47684	0.1051216	-0.1130669	0	0	0	0
28.4934	0.1051216	-0.1130669	0	0	0	0
28.50997	0.1051216	-0.1130669	0	0	0	0
28.52654	0.1051216	-0.1130669	0	0	0	0
28.5431	0.1051216	-0.1130669	0	0	0	0
28.55967	0.1051216	-0.1130669	0	0	0	0
28.57624	0.1051216	-0.1130669	0	0	0	0
28.59281	0.1051216	-0.1130669	0	0	0	0
28.60937	0.1051216	-0.1130669	0	0	0	0
28.62594	0.1051216	-0.1130669	0	0	0	0
28.6425	0.1051216	-0.1130669	0	0	0	0
28.65907	0.1051216	-0.1130669	0	0	0	0
28.67564	0.1051216	-0.1130669	0	0	0	0
28.6922	0.1051216	-0.1130669	0	0	0	0
28.70877	0.1051216	-0.1130669	0	0	0	0
28.72534	0.1051216	-0.1130669	0	0	0	0
28.74191	0.1051216	-0.1106222	-4.497179E-07	0.1475614	-1.357251E-05	4.453413
28.75905	0.1038993	-0.1093998	-0.07129373	0.07129417	-2.11475	-2.262292
28.77504	0.1026769	-0.1093998	-0.07646621	0	-0.1561236	-2.15191
28.7916	0.1014546	-0.1081775	-0.07378072	0.07378118	0.08249656	2.266514
28.81355	0.1014546	-0.1057328	3.395558E-07	0.1114151	1.915925	0.9772654
28.83011	0.09656522	-0.09962108	-0.2951233	0.3689041	-7.663685	6.686399
28.84668	0.09412052	-0.0947317	-0.1475619	0.2951238	4.453413	-2.226694
28.86359	0.08678646	-0.08495294	-0.4336977	0.5782633	-8.547037	8.457536
28.87981	0.07945239	-0.07028481	-0.4520532	0.9041063	-0.553968	9.833961
28.89638	0.06600661	-0.04583792	-0.8115889	1.475617	-10.96442	17.42881
28.91312	0.05745019	-0.02994744	-0.5110533	0.9490986	9.022402	-15.80665
28.92964	0.04889378	-0.01527931	-0.5180768	0.8881311	-0.2111817	-1.833142
28.9461	0.04155971	-0.001833517	-0.445609	0.8169504	2.19771	-2.158676
28.96344	0.03667034	0.00794524	-0.2819137	0.5638276	4.842764	-7.48839
28.98001	0.02933627	0.02139103	-0.4426343	0.811496	-4.73925	7.303125
28.99664	0.02811392	0.02505806	-0.0735017	0.2205048	11.11868	-17.80131
29.01315	0.02444689	0.03239213	-0.2221868	0.4443735	-4.487324	6.756372
29.02991	0.02322455	0.03728151	-0.07292448	0.2916979	4.486923	-4.58953
29.04628	0.0220022	0.04094854	-0.07466636	0.2239988	-0.05257303	-2.04328
29.06284	0.0220022	0.04339323	1.124424E-07	0.1475787	2.26701	-2.320256
29.07952	0.0220022	0.04461557	0	0.07331671	-3.383003E-06	-2.234285
29.09608	0.0220022	0.04461557	0	0	0	-2.206099
29.11255	0.0220022	0.04461557	0	0	0	0
29.13042	0.0220022	0.04461557	0	0	0	0
29.14699	0.0220022	0.04461557	0	0	0	0
29.16355	0.02444689	0.04461557	0.1475786	-2.248849E-07	4.453929	-6.787038E-06
29.18012	0.02689158	0.04461557	0.1475618	2.24859E-07	-0.0005059618	1.357408E-05
29.19669	0.02811392	0.04461557	0.07378945	0	-2.226582	-6.786648E-06
29.21325	0.02811392	0.04461557	0	0	-2.227098	0
29.22982	0.02811392	0.04461557	0	0	0	0
29.24639	0.02811392	0.04461557	0	0	0	0
29.26295	0.02811392	0.04461557	0	0	0	0
29.28144	0.02933627	0.0482826	0.06613626	0.1984087	1.886942	5.660823
29.29801	0.03055861	0.0617284	0.07377245	0.8114963	0.2178575	17.49113
29.31479	0.03055861	0.06784011	-1.10973E-07	0.3641249	-2.211818	-13.41291
29.3313	0.03055861	0.08861998	0	1.258477	3.332865E-06	26.86017
29.34869	0.02811392	0.1045105	-0.1406321	0.9141088	-4.148991	-10.1597
29.36526	0.0220022	0.1338467	-0.3688618	1.770536	-6.721989	25.22412
29.38182	0.01955751	0.1424031	-0.1475618	0.516466	6.678464	-37.84574
29.39839	0.01466813	0.1582936	-0.2951234	0.9591512	-4.453418	13.36027
29.41496	0.009778756	0.1729617	-0.2950895	0.8852686	0.001023499	-2.229654
29.43379	0.006111722	0.1815182	-0.1947707	0.4544649	2.834138	-12.17077
29.45038	0.003667034	0.1925193	-0.1473412	0.663036	1.33908	5.8886
29.46692	0.002444689	0.198631	-0.07389996	0.3695001	2.216588	-8.859442
29.48349	0.002444689	0.205965	-1.405369E-08	0.4426844	2.232104	2.210487
29.50006	0.002444689	0.2120768	1.405207E-08	0.3688621	8.481845E-07	-2.227833
29.51662	0.001222344	0.2194108	-0.07378087	0.4426852	-2.226583	2.22786
29.53319	0.001222344	0.2255226	0	0.368947	2.226839	-2.225553
29.54976	0.001222345	0.2328566	7.026034E-09	0.4426343	2.120461E-07	2.223887
29.56632	0	0.241413	-0.07378936	0.5165254	-2.226968	2.23004
29.58444	0	0.2499695	0	0.4722627	2.127523	-1.2762
29.60101	0	0.2621929	0	0.7377241	0	7.653043
29.61758	0	0.2670823	0	0.2951229	0	-13.35696
29.63414	0.001222345	0.2744164	0.07378086	0.4426861	2.226711	4.453468
29.65071	0.001222344	0.2817504	-7.027652E-09	0.4427353	-2.226839	0.001484155
29.66749	0.001222344	0.2915291	0	0.5826656	2.107363E-07	4.196053
29.68384	0.002444689	0.2951962	0.07475336	0.2242597	2.256061	-10.81671
29.70041	0.002444689	0.2988632	-1.405369E-08	0.221344	-2.270833	-0.08857154
29.71758	0.003667034	0.3025303	0.07117511	0.2135249	2.109455	-0.2317384
29.73559	0.003667034	0.3061973	0	0.2036198	-2.023	-0.2815312
29.75216	0.006111722	0.3110867	0.1475617	0.2951247	4.267698	2.646455
29.76873	0.006111722	0.312309	0	0.07377893	-4.453422	-6.680229
29.7853	0.006111723	0.3159761	2.810737E-08	0.221344	8.482821E-07	4.453522
29.80224	0.007334067	0.3196431	0.07212835	0.2163847	2.152183	-0.147976
29.81885	0.008556412	0.3257548	0.07358602	0.3679312	0.04343744	4.51597
29.835	0.008556412	0.3269772	0	0.07570696	-2.246434	-8.921022
29.85157	0.008556412	0.3269772	0	0	0	-2.314282
29.87119	0.008556412	0.3269772	0	0	0	0
29.89191	0.008556412	0.3269772	0	0	0	0
29.90848	0.008556412	0.3269772	0	0	0	0
29.92504	0.008556412	0.3269772	0	0	0	0
29.94161	0.008556412	0.3269772	0	0	0	0
29.95818	0.008556412	0.3269772	0	0	0	0
29.9749	0.008556412	0.3269772	0	0	0	0
29.99205	0.008556412	0.3269772	0	0	0	0
30.00862	0.008556412	0.3269772	0	0	0	0
30.02544	0.008556412	0.3269772	0	0	0	0
30.04175	0.008556412	0.3269772	0	0	0	0
30.06194	0.008556412	0.3269772	0	0	0	0
30.07851	0.008556412	0.3269772	0	0	0	0
30.09507	0.008556412	0.3269772	0	0	0	0
30.11164	0.008556412	0.3269772	0	0	0	0
30.12821	0.008556412	0.3269772	0	0	0	0
30.14478	0.008556412	0.3269772	0	0	0	0
30.16157	0.008556412	0.3269772	0	0	0	0
30.17815	0.008556412	0.3269772	0	0	0	0
30.19448	0.008556412	0.3269772	0	0	0	0
30.2125	0.008556412	0.3269772	0	0	0	0
30.23085	0.008556412	0.3269772	0	0	0	0
30.24742	0.008556412	0.3269772	0	0	0	0
30.26399	0.008556412	0.3269772	0	0	0	0
30.28056	0.008556412	0.3269772	0	0	0	0
30.29712	0.008556412	0.3269772	0	0	0	0
30.31376	0.008556412	0.3269772	0	0	0	0
30.33026	0.008556412	0.3269772	0	0	0	0
30.34683	0.008556412	0.3269772	0	0	0	0
30.36556	0.008556412	0.3269772	0	0	0	0
30.38213	0.008556412	0.3245324	0	-0.1475632	0	-4.180119
30.3987	0.008556412	0.3220878	0	-0.1475614	0	5.441587E-05
30.41594	0.009778757	0.3184207	0.07089953	-0.2126981	2.097138	-1.926678
30.43183	0.009778755	0.315976	-1.172063E-07	-0.1538327	-2.139879	1.776663
30.4484	0.0110011	0.3135314	0.07378095	-0.1475597	2.273036	0.19326
30.4651	0.01222344	0.3110867	0.07317428	-0.1463501	-0.01823357	0.03635338
30.48153	0.01344579	0.308642	0.07439759	-0.148793	0.03691937	-0.07372721
30.4981	0.01344579	0.3061973	0	-0.1475632	-2.254668	0.03726924
30.51673	0.01466813	0.3049749	0.06561486	-0.06561476	1.864254	2.328326
30.53329	0.01466813	0.3037526	5.621474E-08	-0.07378072	-1.864253	-0.2320119
30.54986	0.01466813	0.3025303	-5.621474E-08	-0.07378072	-3.393129E-06	0
30.56656	0.01711282	0.3013079	0.1463653	-0.07318252	4.399336	0.01798022
30.583	0.01711282	0.3000855	0	-0.0743906	-4.417315	-0.03645976
30.59959	0.01833517	0.2988632	0.07366211	-0.0736602	2.230445	0.02211594
30.61613	0.01833517	0.2964185	0	-0.1477997	-2.223127	-2.237534
30.6327	0.02077986	0.2915292	0.1475617	-0.2951229	4.457012	-4.44981
30.64926	0.02077986	0.2866398	1.124424E-07	-0.2951569	-4.453673	-0.001025416
30.66799	0.02077986	0.2793057	0	-0.3916068	-3.185917E-06	-2.732791
30.68456	0.0220022	0.2646376	0.07378083	-0.8853705	2.090376	-13.98943
30.70113	0.0220022	0.2573035	0	-0.4426826	-2.22671	13.36035
30.7181	0.0220022	0.2426354	0	-0.8642761	0	-12.57031
30.73426	0.02077986	0.2157438	-0.07562666	-1.663789	-2.282417	-24.12934
30.75083	0.01711282	0.1974086	-0.2213427	-1.106713	-4.452051	17.02029
30.7674	0.01466813	0.1790735	-0.1475617	-1.106713	2.226717	0
30.78396	0.0110011	0.159516	-0.2213425	-1.180493	-2.226711	-2.226705
30.80053	0.008556412	0.1375138	-0.1475617	-1.328056	2.226709	-4.453442
30.81953	0.003667033	0.1142892	-0.2573479	-1.222403	-3.0868	2.970585
30.83627	-0.004889378	0.07884122	-0.5112277	-2.117943	-7.1043	-25.05983
30.85326	-0.006111722	0.06539543	-0.07190985	-0.7910086	13.02251	39.33374
30.86923	-0.0110011	0.04217089	-0.3062289	-1.454587	-7.108181	-20.12997
30.88597	-0.01589048	0.01038993	-0.2920303	-1.898197	0.4340869	-13.56227
30.90236	-0.01711282	-0.009167584	-0.07457935	-1.19327	6.563061	21.27597
30.91893	-0.01833517	-0.02383572	-0.07378083	-0.8853704	0.02422897	9.342446
30.9355	-0.01833517	-0.03605916	0	-0.7378086	2.22671	4.453424
30.95206	-0.01589048	-0.04461557	0.1475618	-0.516466	4.453424	6.680134
30.97177	-0.01466813	-0.0507273	0.06203265	-0.310164	-2.35799	5.687628
30.98834	-0.01344579	-0.05561667	0.0737724	-0.2950892	0.3236412	0.4155841
31.00501	-0.01344579	-0.05561667	0	0	-2.219429	8.877702
31.02147	-0.01222344	-0.05683902	0.07425106	-0.07425134	2.24103	-2.241039
31.03804	-0.01222344	-0.05683902	0	0	-2.248019	2.248027
31.05461	-0.01222344	-0.05683902	0	0	0	0
31.07117	-0.01222345	-0.05806137	-5.621474E-08	-0.07378072	-1.696564E-06	-2.226707
31.08774	-0.0110011	-0.06050605	0.07378089	-0.1475614	2.226714	-2.226707
31.10437	-0.0110011	-0.0617284	0	-0.07348507	-2.222234	2.231134
31.12317	-0.009778756	-0.06295074	0.06502241	-0.06502206	1.83509	0.2388467
31.13977	-0.009778757	-0.06417309	-5.611783E-08	-0.07365398	-1.83707	-0.2438763
31.15634	-0.008556412	-0.06417309	0.07378089	0	2.224792	2.220964
31.1729	-0.008556412	-0.06539543	0	-0.07378072	-2.226712	-2.226707
31.18947	-0.008556412	-0.06539543	0	0	0	2.226707
31.2065	-0.008556412	-0.06539543	0	0	0	0
31.2226	-0.008556412	-0.06539543	0	0	0	0
31.23917	-0.006111722	-0.06661777	0.1475618	-0.07378072	4.516074	-2.258032
31.25574	-0.006111722	-0.06784011	-2.810737E-08	-0.07378072	-4.453424	0
31.27486	-0.004889378	-0.06906247	0.06392624	-0.0639269	1.791234	0.2761072
31.29143	-0.004889378	-0.06906247	0	0	-1.791137	1.791156
31.30799	-0.004889378	-0.06906247	0	0	0	0
31.32456	-0.004889378	-0.06906247	0	0	0	0
31.34113	-0.004889378	-0.06906247	0	0	0	0
31.35769	-0.004889378	-0.06906247	0	0	0	0
31.37426	-0.004889378	-0.06906247	0	0	0	0
31.39083	-0.004889378	-0.06906247	0	0	0	0
31.40739	-0.004889378	-0.06906247	0	0	0	0
31.42614	-0.004889378	-0.06906247	0	0	0	0
31.44271	-0.004889378	-0.06906247	0	0	0	0
31.45928	-0.004889378	-0.06906247	0	0	0	0
31.47584	-0.004889378	-0.06906247	0	0	0	0
31.49241	-0.004889378	-0.06906247	0	0	0	0
31.50898	-0.004889378	-0.06906247	0	0	0	0
31.52629	-0.004889378	-0.06906247	0	0	0	0
31.54211	-0.004889378	-0.06906247	0	0	0	0
31.55868	-0.004889378	-0.06906247	0	0	0	0
31.57881	-0.004889378	-0.06906247	0	0	0	0
31.59558	-0.004889378	-0.06906247	0	0	0	0
31.61224	-0.004889378	-0.06906247	0	0	0	0
31.62851	-0.004889378	-0.06906247	0	0	0	0
31.64507	-0.004889378	-0.06906247	0	0	0	0
31.6618	-0.004889378	-0.06906247	0	0	0	0
31.67821	-0.004889378	-0.06906247	0	0	0	0
31.69477	-0.004889378	-0.06906247	0	0	0	0
31.71134	-0.004889378	-0.06906247	0	0	0	0
31.72963	-0.004889378	-0.06906247	0	0	0	0
31.7462	-0.004889378	-0.06906247	0	0	0	0
31.76277	-0.004889378	-0.06906247	0	0	0	0
31.77935	-0.004889378	-0.06784012	0	0.07368786	0	2.222497
31.79591	-0.004889378	-0.06784012	0	0	0	-2.223392
31.81286	-0.004889378	-0.06661777	0	0.07212055	0	2.152687
31.82903	-0.004889378	-0.06661777	0	0	0	-2.177229
31.84597	-0.004889378	-0.06661777	0	0	0	0
31.86217	-0.004889378	-0.06661777	0	0	0	0
31.88139	-0.004889378	-0.06661777	0	0	0	0
31.89796	-0.004889378	-0.06661777	0	0	0	0
31.91484	-0.004889378	-0.06661777	0	0	0	0
31.9311	-0.004889378	-0.06661777	0	0	0	0
31.94766	-0.004889378	-0.06661777	0	0	0	0
31.96423	-0.004889378	-0.06661777	0	0	0	0
31.9808	-0.004889378	-0.06661777	0	0	0	0
31.99736	-0.004889378	-0.06661777	0	0	0	0
32.01435	-0.004889378	-0.06661777	0	0	0	0
32.03243	-0.004889378	-0.06661777	0	0	0	0
32.04937	-0.004889378	-0.06661777	0	0	0	0
32.06642	-0.004889378	-0.06661777	0	0	0	0
32.0825	-0.004889378	-0.06661777	0	0	0	0
32.09907	-0.004889378	-0.06661777	0	0	0	0
32.11627	-0.004889378	-0.06661777	0	0	0	0
32.13221	-0.004889378	-0.06661777	0	0	0	0
32.14877	-0.004889378	-0.06661777	0	0	0	0
32.16534	-0.004889378	-0.06661777	0	0	0	0
32.18401	-0.004889378	-0.06417308	0	0.1309216	0	3.715124
32.20058	-0.004889378	-0.06295074	0	0.07378072	0	-1.62147
32.21715	-0.004889378	-0.06295074	0	0	0	-2.226707
32.23371	-0.004889378	-0.0617284	0	0.07379749	0	2.227469
32.25038	-0.004889378	-0.0617284	0	0	0	-2.220566
32.2669	-0.004889378	-0.0617284	0	0	0	0
32.28363	-0.004889378	-0.0617284	0	0	0	0
32.30002	-0.004889378	-0.0617284	0	0	0	0
32.31654	-0.004889378	-0.06050605	0	0.0739856	0	2.248161
32.33506	-0.004889378	-0.06050605	0	0	0	-2.111812
32.35162	-0.004889378	-0.05928371	0	0.07378072	0	2.103216
32.36819	-0.004889378	-0.05928371	0	0	0	-2.226707
32.38476	-0.004889378	-0.05928371	0	0	0	0
32.40133	-0.004889378	-0.05928371	0	0	0	0
32.41789	-0.004889378	-0.05806137	-2.810737E-08	0.07378072	-8.482821E-07	2.226707
32.43478	-0.006111722	-0.05683902	-0.07238089	0.072381	-2.163536	-0.04183919
32.45102	-0.007334067	-0.05561667	-0.07525371	0.0752538	-0.086712	0.08671133
32.46759	-0.007334067	-0.05317198	0	0.1475617	2.293606	2.203822
32.48701	-0.008556412	-0.05194964	-0.06295291	0.06295279	-1.749467	-2.351289
32.50358	-0.0110011	-0.04706026	-0.1475277	0.2950556	-2.350093	6.449477
32.52015	-0.0110011	-0.04461557	-5.621474E-08	0.1475617	4.451881	-4.450864
32.53695	-0.01222344	-0.04217089	-0.07274238	0.1454848	-2.179808	-0.06223699
32.55327	-0.01344579	-0.04094854	-0.07488436	0.07488471	-0.06466004	-2.131205
32.56984	-0.01344579	-0.03728151	0	0.2213424	2.27679	4.452912
32.58641	-0.01466813	-0.03239213	-0.07378095	0.2951233	-2.226713	2.226713
32.60297	-0.01589048	-0.02994744	-0.07378072	0.1475618	6.745769E-06	-4.453416
32.61973	-0.01589048	-0.0287251	-1.111498E-07	0.07294108	2.213959	-2.239168
32.64096	-0.01589048	-0.02750275	8.77257E-08	0.0575692	5.234866E-06	-0.4046235
32.65754	-0.01589048	-0.02750275	0	0	-2.320562E-06	-1.522848
32.67515	-0.01589048	-0.02750275	0	0	0	0
32.69172	-0.01589048	-0.02750275	0	0	0	0
32.70828	-0.01589048	-0.02750275	0	0	0	0
32.72485	-0.01589048	-0.02750275	0	0	0	0
32.74174	-0.01589048	-0.02750275	0	0	0	0
32.75798	-0.01589048	-0.02750275	0	0	0	0
32.77455	-0.01589048	-0.02750275	0	0	0	0
32.80031	-0.01589048	-0.02750275	0	0	0	0
32.81688	-0.01589048	-0.02750275	0	0	0	0
32.83344	-0.01589048	-0.02750275	0	0	0	0
32.85001	-0.01589048	-0.02750275	0	0	0	0
32.86658	-0.01589048	-0.02750275	0	0	0	0
32.88314	-0.01589048	-0.02750275	0	0	0	0
32.89989	-0.01589048	-0.02750275	0	0	0	0
32.91628	-0.01589048	-0.02750275	0	0	0	0
32.93285	-0.01589048	-0.02750275	0	0	0	0
32.95878	-0.01589048	-0.02750275	0	0	0	0
32.97535	-0.01589048	-0.02750275	0	0	0	0
32.99192	-0.01589048	-0.02750275	0	0	0	0
33.00848	-0.01589048	-0.02750275	0	0	0	0
33.02505	-0.01589048	-0.02750275	0	0	0	0
33.04162	-0.01589048	-0.02750275	0	0	0	0
33.05819	-0.01589048	-0.02750275	0	0	0	0
33.07475	-0.01589048	-0.02750275	0	0	0	0
33.0914	-0.01589048	-0.02750275	0	0	0	0
33.11706	-0.01589048	-0.02750275	0	0	0	0
33.13445	-0.01589048	-0.02750275	0	0	0	0
33.15019	-0.01589048	-0.02750275	0	0	0	0
33.16713	-0.01589048	-0.02750275	0	0	0	0
33.18332	-0.01589048	-0.02750275	0	0	0	0
33.20025	-0.01589048	-0.02750275	0	0	0	0
33.21741	-0.01589048	-0.02750275	0	0	0	0
33.23338	-0.01589048	-0.02750275	0	0	0	0
33.24995	-0.01589048	-0.02750275	0	0	0	0
33.26959	-0.01589048	-0.02750275	0	0	0	0
33.28616	-0.01589048	-0.02750275	0	0	0	0
33.30272	-0.01589048	-0.02750275	0	0	0	0
33.31998	-0.01589048	-0.02750275	0	0	0	0
33.33586	-0.01589048	-0.02750275	0	0	0	0
33.35242	-0.01589048	-0.02750275	0	0	0	0
33.36899	-0.01589048	-0.02750275	0	0	0	0
33.38556	-0.01589048	-0.02750275	0	0	0	0
33.40232	-0.01589048	-0.02750275	0	0	0	0
33.42044	-0.01589048	-0.02750275	0	0	0	0
33.43701	-0.01589048	-0.02750275	0	0	0	0
33.45358	-0.01589048	-0.02750275	0	0	0	0
33.4708	-0.01589048	-0.02750275	0	0	0	0
33.48671	-0.01589048	-0.02750275	0	0	0	0
33.50328	-0.01589048	-0.02750275	0	0	0	0
33.51989	-0.01589048	-0.02750275	0	0	0	0
33.53649	-0.01589048	-0.02750275	0	0	0	0
33.55298	-0.01589048	-0.02750275	0	0	0	0
33.57123	-0.01589048	-0.02750275	0	0	0	0
33.58825	-0.01589048	-0.02750275	0	0	0	0
33.60436	-0.01589048	-0.02750275	0	0	0	0
33.62093	-0.01589048	-0.02750275	0	0	0	0
33.6375	-0.01589048	-0.02750275	0	0	0	0
33.65406	-0.01589048	-0.02750275	0	0	0	0
33.67063	-0.01589048	-0.02750275	0	0	0	0
33.6872	-0.01589048	-0.02750275	0	0	0	0
33.70376	-0.01589048	-0.02750275	0	0	0	0
33.72113	-0.01589048	-0.02750275	0	0	0	0
33.7377	-0.01589048	-0.02750275	0	0	0	0
33.75426	-0.01589048	-0.02750275	0	0	0	0
33.77083	-0.01589048	-0.02750275	0	0	0	0
33.7874	-0.01589048	-0.02750275	0	0	0	0
33.80397	-0.01589048	-0.02750275	0	0	0	0
33.82081	-0.01589048	-0.02750275	0	0	0	0
33.8371	-0.01589048	-0.02750275	0	0	0	0
33.85366	-0.01589048	-0.02750275	0	0	0	0
33.87284	-0.01589048	-0.02750275	0	0	0	0
33.89059	-0.01589048	-0.02750275	0	0	0	0
33.90715	-0.01589048	-0.02750275	0	0	0	0
33.92372	-0.01589048	-0.02750275	0	0	0	0
33.94029	-0.01589048	-0.02750275	0	0	0	0
33.95685	-0.01589048	-0.02750275	0	0	0	0
33.97345	-0.01589048	-0.02750275	0	0	0	0
33.98999	-0.01589048	-0.02750275	0	0	0	0
34.00655	-0.01589048	-0.02750275	0	0	0	0
34.02312	-0.01589048	-0.02750275	0	0	0	0
34.03969	-0.01589048	-0.02750275	0	0	0	0
34.05748	-0.01589048	-0.02750275	0	0	0	0
34.07405	-0.01589048	-0.02750275	0	0	0	0
34.09081	-0.01589048	-0.02750275	0	0	0	0
34.10718	-0.01589048	-0.02750275	0	0	0	0
34.12375	-0.01589048	-0.02750275	0	0	0	0
34.14032	-0.01589048	-0.02750275	0	0	0	0
34.15693	-0.01589048	-0.02750275	0	0	0	0
34.17345	-0.01589048	-0.02750275	0	0	0	0
34.19007	-0.01589048	-0.02750275	0	0	0	0
34.20831	-0.01589048	-0.02750275	0	0	0	0
34.22507	-0.01589048	-0.02750275	0	0	0	0
34.2416	-0.01589048	-0.02750275	0	0	0	0
34.25801	-0.01589048	-0.02750275	0	0	0	0
34.27457	-0.01589048	-0.02750275	0	0	0	0
34.29114	-0.01589048	-0.0287251	-1.124295E-07	-0.07378083	-3.393129E-06	-2.22671
34.30771	-0.01589048	-0.0287251	0	0	3.393129E-06	2.22671
34.32428	-0.01589048	-0.02994744	1.124295E-07	-0.07378083	3.393129E-06	-2.22671
34.34084	-0.01589048	-0.02994744	0	0	-3.393129E-06	2.22671
34.35976	-0.01589048	-0.02994744	0	0	0	0
34.37632	-0.01589048	-0.02994744	0	0	0	0
34.39289	-0.01589048	-0.02994744	0	0	0	0
34.40945	-0.01589048	-0.02994744	0	0	0	0
34.42602	-0.01589048	-0.02994744	0	0	0	0
34.44259	-0.01589048	-0.02994744	0	0	0	0
34.45916	-0.01589048	-0.02994744	0	0	0	0
34.47572	-0.01589048	-0.02994744	0	0	0	0
34.49233	-0.01589048	-0.02994744	0	0	0	0
34.51099	-0.01589048	-0.02994744	0	0	0	0
34.52756	-0.01589048	-0.02994744	0	0	0	0
34.54442	-0.01589048	-0.02994744	0	0	0	0
34.56108	-0.01589048	-0.02994744	0	0	0	0
34.57726	-0.01589048	-0.02994744	0	0	0	0
34.59382	-0.01589048	-0.02994744	0	0	0	0
34.61051	-0.01589048	-0.02994744	0	0	0	0
34.62702	-0.01589048	-0.02994744	0	0	0	0
34.64352	-0.01589048	-0.02994744	0	0	0	0
34.66247	-0.01589048	-0.02994744	0	0	0	0
34.67904	-0.01589048	-0.02994744	0	0	0	0
34.69561	-0.01589048	-0.02994744	0	0	0	0
34.7123	-0.01589048	-0.02994744	0	0	0	0
34.72892	-0.01589048	-0.02994744	0	0	0	0
34.74531	-0.01589048	-0.02994744	0	0	0	0
34.76188	-0.01589048	-0.02994744	0	0	0	0
34.77925	-0.01589048	-0.02994744	0	0	0	0
34.79583	-0.01589048	-0.02994744	0	0	0	0
34.81381	-0.01589048	-0.02994744	0	0	0	0
34.83038	-0.01589048	-0.02994744	0	0	0	0
34.84695	-0.01589048	-0.02994744	0	0	0	0
34.86351	-0.01589048	-0.02994744	0	0	0	0
34.88008	-0.01589048	-0.02994744	0	0	0	0
34.89666	-0.01589048	-0.02994744	0	0	0	0
34.91322	-0.01589048	-0.02994744	0	0	0	0
34.92998	-0.01589048	-0.02994744	0	0	0	0
34.94635	-0.01589048	-0.02994744	0	0	0	0
34.96452	-0.01589048	-0.02994744	0	0	0	0
34.98109	-0.01589048	-0.02994744	0	0	0	0
34.99766	-0.01589048	-0.02994744	0	0	0	0
35.01423	-0.01589048	-0.02994744	0	0	0	0
35.03079	-0.01589048	-0.02994744	0	0	0	0
35.04736	-0.01589048	-0.02994744	0	0	0	0
35.06393	-0.01589048	-0.02994744	0	0	0	0
35.08093	-0.01589048	-0.02994744	0	0	0	0
35.09706	-0.01589048	-0.02994744	0	0	0	0
35.11536	-0.01589048	-0.02994744	0	0	0	0
35.13193	-0.01589048	-0.02994744	0	0	0	0
35.1485	-0.01589048	-0.02994744	0	0	0	0
35.16507	-0.01589048	-0.02994744	0	0	0	0
35.18163	-0.01589048	-0.02994744	0	0	0	0
35.1982	-0.01589048	-0.02994744	0	0	0	0
35.21518	-0.01589048	-0.02994744	0	0	0	0
35.23133	-0.01589048	-0.02994744	0	0	0	0
35.30272	-0.01589048	-0.02994744	0	0	0	0
35.33488	-0.01589048	-0.02994744	0	0	0	0
35.35145	-0.01711282	-0.02261337	-0.07378095	0.442685	-1.513991	9.083932
35.36802	-0.01955751	-0.006722894	-0.1475617	0.9591512	-2.226707	15.58698
35.38458	-0.02077986	0.001833517	-0.07379794	0.516585	2.22645	-13.35821
35.40115	-0.02566924	0.02383572	-0.2951235	1.328055	-6.680387	24.49304
35.41771	-0.03055861	0.04706026	-0.2951233	1.401836	3.597743E-06	2.226715
35.4349	-0.04155971	0.08617529	-0.6400071	2.275581	-10.21689	25.88393
35.45084	-0.04522675	0.1118445	-0.2300292	1.610203	12.37458	-20.08347
35.46741	-0.05133847	0.1362914	-0.3689041	1.475617	-4.27191	-4.139965
35.48614	-0.05622784	0.1582936	-0.2610429	1.174694	3.055783	-8.525373
35.50293	-0.06233957	0.1851852	-0.3639601	1.601423	-2.897242	12.01295
35.51928	-0.06356192	0.1925193	-0.07477961	0.4486772	8.726479	-34.78594
35.53585	-0.06478426	0.198631	-0.07378072	0.3689045	0.03034927	-2.423729
35.55292	-0.06478426	0.2035204	0	0.2864176	2.193374	-2.452195
35.56912	-0.06478426	0.2059651	0	0.1508624	0	-4.073713
35.58575	-0.06478426	0.2108544	0	0.2941071	0	4.363323
35.60211	-0.06478426	0.2132991	0	0.1493845	0	-4.38693
35.6188	-0.06478426	0.2157438	0	0.1464487	0	-0.08880701
35.63755	-0.06478426	0.2169662	0	0.06519503	0	-2.292558
35.65412	-0.06356191	0.2206332	0.07378118	0.2213422	2.089144	4.42137
35.67069	-0.06356192	0.2218555	-4.497179E-07	0.07378072	-2.226734	-4.453413
35.68726	-0.06111722	0.2255226	0.1475619	0.2213431	4.45344	4.453441
35.70382	-0.05867254	0.2291896	0.1475617	0.2213422	-6.745769E-06	-2.698308E-05
35.72039	-0.05622785	0.234079	0.1475617	0.2951238	0	2.226733
35.73727	-0.05133847	0.2389683	0.2897201	0.2897194	4.25071	-0.1615968
35.75385	-0.04767144	0.2438577	0.2211387	0.2948522	-2.049731	0.1534068
35.77054	-0.04155971	0.2511918	0.3661223	0.4393469	4.357054	4.342361
35.78919	-0.04033737	0.2524141	0.06555455	0.06555436	-8.505185	-10.57723
35.80576	-0.02933627	0.2597482	0.6638749	0.4425842	16.9894	10.70582
35.82233	-0.02689158	0.2621929	0.1475618	0.1475614	-15.58057	-8.902781
35.83889	-0.0220022	0.2634152	0.2951233	0.07378072	4.453416	-2.226707
35.85546	-0.01589048	0.2658599	0.3689043	0.1475614	2.226714	2.226707
35.87203	-0.004889378	0.2658599	0.6640278	0	8.906843	-4.453413
35.88903	0.008556412	0.2670823	0.7910083	0.07190971	3.783065	2.142368
35.90516	0.02322455	0.2683046	0.9090222	0.0757517	3.561665	0.1159514
35.92173	0.03667034	0.2707493	0.8115895	0.1475614	-2.979281	2.195788
35.94062	0.04767143	0.2719716	0.5822473	0.06469406	-6.467372	-2.336832
35.95737	0.06233957	0.2719716	0.8756919	0	8.232527	-1.814979
35.97376	0.07823005	0.2670823	0.9698705	-0.2984211	2.842316	-9.006367
35.99033	0.1051216	0.2450801	1.62318	-1.328055	19.82647	-31.24708
36.00697	0.1662388	0.1839629	3.672132	-3.672133	61.69544	-70.58189
36.02355	0.2505806	0.0947317	5.087365	-5.382285	42.59902	-51.47619
36.04052	0.3361447	-0.01283462	5.040476	-6.336598	-1.397411	-28.44105
36.05659	0.4131525	-0.1106222	4.792763	-6.086046	-7.49671	7.582645
36.07316	0.4628684	-0.1890841	3.000862	-4.735973	-54.90779	41.36919
36.09169	0.4506344	-0.2166303	-0.6601659	-1.486424	-104.3057	92.58231
36.10826	0.4430264	-0.2317922	-0.4592196	-0.9151778	5.725125	16.27526
36.12483	0.44074	-0.2361107	-0.1379423	-0.2605446	9.693934	19.75232
36.14139	0.4401218	-0.2372611	-0.03733119	-0.06946844	3.03645	5.766691
36.15796	0.4401218	-0.2372611	0	0	1.126917	2.097044
36.17453	0.4401218	-0.2372611	0	0	0	0
36.19109	0.4401218	-0.2372611	0	0	0	0
36.20766	0.4401218	-0.2372611	0	0	0	0
36.22423	0.4401218	-0.2372611	0	0	0	0
36.24314	0.4401218	-0.2372611	0	0	0	0
36.25971	0.4401218	-0.2372611	0	0	0	0
36.27628	0.4401218	-0.2372611	0	0	0	0
36.29284	0.4405442	-0.236476	0.02549948	0.04739769	0.7695759	1.430465
36.30942	0.4413597	-0.2349502	0.04919394	0.09203596	0.7149356	1.346875
36.32598	0.4425821	-0.2326393	0.07383353	0.1395782	0.7436242	1.434829
36.34254	0.4438058	-0.2302964	0.07386348	0.1414219	0.0009042454	0.05566103
36.35911	0.4448363	-0.2282994	0.06220319	0.120537	-0.3519082	-0.6303076
36.37574	0.4454574	-0.2270853	0.03734909	0.07301703	-0.748719	-1.431519
36.39457	0.445878	-0.2262582	0.02233454	0.04391426	-0.4234051	-0.8206882
36.41136	0.4458509	-0.2263117	-0.0016154	-0.00318287	-0.6723424	-1.322149
36.4278	0.445844	-0.2263254	-0.0004205336	-0.0008356294	0.03595765	0.07063656
36.44439	0.446292	-0.2254406	0.02701756	0.05335936	0.8308572	1.641087
36.46084	0.4467485	-0.2245346	0.02773673	0.0550506	0.02176733	0.05118908
36.47741	0.4474476	-0.2231382	0.04220153	0.08429063	0.438011	0.8854222
36.49421	0.4476851	-0.2226613	0.01413167	0.02837773	-0.8411461	-1.675495
36.51054	0.4481606	-0.2217028	0.02911484	0.05869503	0.452193	0.914978
36.52711	0.44864	-0.2207309	0.02894025	0.05866301	-0.005307001	-0.0009735051
36.5461	0.4488813	-0.2202399	0.01270335	0.02585076	-0.4565977	-0.9227133
36.56267	0.4491235	-0.2197454	0.01462123	0.02984598	0.05393258	0.1123496
36.58338	0.4491235	-0.2197454	0	0	-0.3922296	-0.8006493
36.59995	0.4491235	-0.2197454	0	0	0	0
36.61938	0.4491235	-0.2197454	0	0	0	0
36.64007	0.4486554	-0.2206998	-0.02263348	-0.04614015	-0.5641563	-1.150077
36.66011	0.4488992	-0.2202033	0.01216633	0.02477205	0.8544925	1.741215
36.68084	0.4491441	-0.2197033	0.01181147	0.02411525	-0.00870284	-0.01610766
36.70963	0.4486004	-0.2194108	-0.01888979	0.01016091	-0.6200423	-0.2818218
36.7262	0.4461557	-0.2181885	-0.1474953	0.07374676	-2.835422	1.401905
36.74276	0.4437111	-0.2181885	-0.1475936	8.99643E-07	-0.002966448	-2.225398
36.75933	0.4388217	-0.2169662	-0.2951229	0.07377983	-4.452955	2.226909
36.77589	0.43271	-0.2157438	-0.3689904	0.07379772	-2.229582	0.0005399485
36.79246	0.4265982	-0.2145215	-0.3689054	0.07378072	0.002564587	-0.0005129623
36.80903	0.4204865	-0.2145215	-0.3689036	8.994359E-07	5.396615E-05	-2.226679
36.8256	0.4192642	-0.2145215	-0.07378072	0	8.906827	-2.714503E-05
36.84216	0.4192642	-0.2145215	0	0	2.226707	0
36.86198	0.4192642	-0.2145215	0	0	0	0
36.87855	0.4192642	-0.2145215	0	0	0	0
36.89512	0.4192642	-0.2145215	0	0	0	0
36.91169	0.4192642	-0.2145215	0	0	0	0
36.92825	0.4192642	-0.2145215	0	0	0	0
36.94482	0.4192642	-0.2145215	0	0	0	0
36.96164	0.4192642	-0.2145215	0	0	0	0
36.97795	0.4192642	-0.2145215	0	0	0	0
36.99452	0.4192642	-0.2145215	0	0	0	0
37.01466	0.4192642	-0.2145215	0	0	0	0
37.03164	0.4192642	-0.2145215	0	0	0	0
37.04779	0.4192642	-0.2145215	0	0	0	0
37.06436	0.4192642	-0.2145215	0	0	0	0
37.08092	0.4192642	-0.2145215	0	0	0	0
37.09805	0.4192642	-0.2145215	0	0	0	0
37.11406	0.4192642	-0.2145215	0	0	0	0
37.13069	0.4192642	-0.2145215	0	0	0	0
37.14756	0.4192642	-0.2145215	0	0	0	0
37.16674	0.4192642	-0.2145215	0	0	0	0
37.1836	0.4192642	-0.2145215	0	0	0	0
37.19987	0.4180418	-0.2120768	-0.07513005	0.1502601	-2.26743	4.534859
37.21644	0.4143748	-0.2096321	-0.221344	0.1475614	-4.45273	-0.08218373
37.23301	0.404596	-0.2035204	-0.5902458	0.3689045	-11.13348	6.680148
37.24995	0.3874832	-0.1949639	-1.010138	0.5050691	-12.531	4.063606
37.26614	0.3630363	-0.1815182	-1.51004	0.8305218	-15.0888	9.823313
37.2827	0.3312553	-0.1692947	-1.918302	0.7378091	-12.46344	-2.830334
37.29927	0.3006967	-0.1472925	-1.844522	1.328055	2.226705	17.81365
37.31964	0.2725828	-0.1191786	-1.379871	1.379872	12.57801	1.402694
37.33621	0.2273561	-0.07150716	-2.729892	2.877453	-36.54482	40.53921
37.35278	0.2053539	-0.04339323	-1.328056	1.69696	42.30751	-35.62734
37.36977	0.1870187	-0.01772399	-1.07889	1.510446	7.42412	-5.557357
37.38591	0.1711282	0.001833517	-0.9845412	1.211743	2.847441	-9.01487
37.40248	0.1601271	0.02016868	-0.6640274	1.106713	9.799482	-3.211216
37.41905	0.1540154	0.03361448	-0.3689045	0.8115895	8.906826	-8.906842
37.43562	0.1503484	0.04217089	-0.2213422	0.516466	4.453441	-8.906847
37.45229	0.1479037	0.04583792	-0.1465836	0.2198742	2.248712	-8.921371
37.47284	0.1479037	0.04706026	0	0.05949325	3.937897	-4.308558
37.48941	0.1466813	0.04950495	-0.07378072	0.1475617	-1.987992	2.372968
37.50597	0.1466813	0.04950495	0	0	2.226707	-4.45342
37.52254	0.1466813	0.04950495	0	0	0	0
37.54268	0.1466813	0.04950495	0	0	0	0
37.55924	0.1466813	0.04950495	0	0	0	0
37.57581	0.1466813	0.04950495	0	0	0	0
37.59238	0.1466813	0.04950495	0	0	0	0
37.60894	0.1430143	0.04950495	-0.2213431	-2.24859E-07	-6.680147	-6.786257E-06
37.63172	0.1356802	0.04950495	-0.3219866	1.635509E-07	-2.557989	9.871953E-06
37.64831	0.1222344	0.04706027	-0.8106556	-0.1473918	-12.41415	-3.744346
37.66486	0.1149004	0.04583792	-0.4431955	-0.07386599	11.08997	2.219012
37.68142	0.1075663	0.04217089	-0.4426852	-0.2213426	0.01540811	-4.453417
37.69799	0.09778757	0.03850385	-0.5902463	-0.2213426	-4.4534	0
37.71456	0.0880088	0.03361448	-0.5902476	-0.2951233	-3.957518E-05	-2.226707
37.73143	0.08189708	0.03116979	-0.3623135	-0.1449256	6.817062	4.492122
37.74769	0.07456302	0.0287251	-0.4508865	-0.1502956	-2.673139	-0.1620675
37.76426	0.06967364	0.0262804	-0.2951238	-0.1475619	4.744076	0.08326026
37.78497	0.06478426	0.02505806	-0.2361313	-0.05903273	1.582696	2.375129
37.80154	0.06233957	0.02383572	-0.147494	-0.07374699	2.377544	-0.3946846
37.81811	0.06111723	0.02383572	-0.0737805	0	2.224165	2.225176
37.83488	0.06111723	0.02383572	0	0	2.213196	0
37.85123	0.06111723	0.02261337	0	-0.07472707	0	-2.255787
37.8678	0.06111723	0.02261337	0	0	0	2.269639
37.88443	0.06111723	0.02261337	0	0	0	0
37.90122	0.06111723	0.02261337	0	0	0	0
37.91779	0.06111723	0.02261337	0	0	0	0
37.93835	0.06111723	0.02261337	0	0	0	0
37.95527	0.05867254	0.02139103	-0.1445006	-0.07225032	-3.855468	-1.927734
37.97149	0.05867254	0.02139103	0	0	4.361038	2.180519
37.98805	0.05867254	0.02139103	0	0	0	0
38.00462	0.05867254	0.02139103	0	0	0	0
38.02135	0.05867254	0.02139103	0	0	0	0
38.03775	0.05867254	0.02139103	0	0	0	0
38.05432	0.05867254	0.02139103	0	0	0	0
38.07088	0.05867254	0.02139103	0	0	0	0
38.09299	0.05867254	0.02139103	0	0	0	0
38.10995	0.05867254	0.02139103	0	0	0	0
38.12694	0.05867254	0.02139103	0	0	0	0
38.14269	0.05867254	0.02139103	0	0	0	0
38.15926	0.05867254	0.02139103	0	0	0	0
38.17582	0.05867254	0.02139103	0	0	0	0
38.19239	0.05867254	0.02139103	0	0	0	0
38.20896	0.05867254	0.02139103	0	0	0	0
38.22552	0.05867254	0.02139103	0	0	0	0
38.24422	0.05867254	0.02139103	0	0	0	0
38.26078	0.05867254	0.02139103	0	0	0	0
38.27735	0.05867254	0.02139103	0	0	0	0
38.29392	0.05867254	0.02139103	0	0	0	0
38.31102	0.05867254	0.02139103	0	0	0	0
38.32747	0.05867254	0.02139103	0	0	0	0
38.34362	0.05867254	0.02139103	0	0	0	0
38.36064	0.05867254	0.02139103	0	0	0	0
38.37675	0.05867254	0.02139103	0	0	0	0
38.39597	0.05867254	0.02139103	0	0	0	0
38.41254	0.05867254	0.02139103	0	0	0	0
38.42911	0.05867254	0.02139103	0	0	0	0
38.44898	0.05867254	0.02139103	0	0	0	0
38.46555	0.05867254	0.02139103	0	0	0	0
38.48212	0.05867254	0.02139103	0	0	0	0
38.49904	0.05867254	0.02139103	0	0	0	0
38.51525	0.05867254	0.02139103	0	0	0	0
38.53182	0.05867254	0.02139103	0	0	0	0
38.55123	0.05867254	0.02139103	0	0	0	0
38.5678	0.05867254	0.02139103	0	0	0	0
38.58437	0.05867254	0.02139103	0	0	0	0
38.60093	0.05867254	0.02139103	0	0	0	0
38.6175	0.05867254	0.02139103	0	0	0	0
38.63406	0.05867254	0.02139103	0	0	0	0
38.65063	0.05867254	0.02139103	0	0	0	0
38.66719	0.05867254	0.02139103	0	0	0	0
38.68422	0.05867254	0.02139103	0	0	0	0
38.70384	0.05867254	0.02139103	0	0	0	0
38.72041	0.05622785	0.02016868	-0.1475279	-0.07376397	-4.07605	-2.038025
38.73698	0.0550055	0.02016868	-0.07378118	0	2.225425	2.225945
38.75354	0.0550055	0.02016868	0	0	2.226977	0
38.77011	0.0550055	0.02016868	0	0	0	0
38.78668	0.0550055	0.02016868	0	0	0	0
38.80325	0.0550055	0.02016868	0	0	0	0
38.81981	0.0550055	0.02016868	0	0	0	0
38.83638	0.0550055	0.02016868	0	0	0	0
38.85545	0.0550055	0.02016868	0	0	0	0
38.87202	0.0550055	0.02016868	0	0	0	0
38.88858	0.0550055	0.02016868	0	0	0	0
38.90515	0.0550055	0.02016868	0	0	0	0
38.92172	0.0550055	0.02016868	0	0	0	0
38.93829	0.0550055	0.02016868	0	0	0	0
38.95485	0.0550055	0.02016868	0	0	0	0
38.97142	0.0550055	0.02016868	0	0	0	0
38.98799	0.0550055	0.02016868	0	0	0	0
39.00669	0.0550055	0.02016868	0	0	0	0
39.02326	0.05622784	0.02139103	0.07378095	0.07378083	2.091849	2.091846
39.03998	0.05622784	0.02261337	0	0.07309082	-2.216252	-0.0207268
39.05677	0.05867253	0.02383572	0.145617	0.0728086	4.345204	-0.008421448
39.07296	0.06233957	0.02383572	0.2265059	-1.150521E-07	2.45281	-2.207793
39.08995	0.06478426	0.02383572	0.1438845	1.096276E-07	-2.49008	6.771492E-06
39.10609	0.06722895	0.02383572	0.1514323	0	0.2277934	-3.308567E-06
39.12308	0.06845129	0.02383572	0.07195816	0	-2.398809	0
39.13923	0.06845129	0.02383572	0	0	-2.171702	0
39.15934	0.06845129	0.02383572	0	0	0	0
39.17592	0.06845129	0.02383572	0	0	0	0
39.19263	0.06845129	0.02383572	0	0	0	0
39.20905	0.06845129	0.02383572	0	0	0	0
39.22562	0.06845129	0.02383572	0	0	0	0
39.24218	0.06845129	0.02383572	0	0	0	0
39.25878	0.06845129	0.02383572	0	0	0	0
39.27532	0.06845129	0.02383572	0	0	0	0
39.35743	0.06845129	0.02383572	0	0	0	0
39.38445	0.06845129	0.02383572	0	0	0	0
39.40331	0.06845129	0.02383572	0	0	0	0
39.42643	0.06845129	0.02383572	0	0	0	0
39.443	0.06845129	0.02383572	0	0	0	0
39.45956	0.06845129	0.02383572	0	0	0	0
39.47613	0.06845129	0.02383572	0	0	0	0
39.4927	0.06845129	0.02383572	0	0	0	0
39.51221	0.06845129	0.02383572	0	0	0	0
39.53191	0.06845129	0.02383572	0	0	0	0
39.54848	0.06845129	0.02383572	0	0	0	0
39.56512	0.06845129	0.02383572	0	0	0	0
39.58161	0.06845129	0.02383572	0	0	0	0
39.59818	0.06845129	0.02383572	0	0	0	0
39.61474	0.06845129	0.02383572	0	0	0	0
39.63136	0.06845129	0.02383572	0	0	0	0
39.64788	0.06845129	0.02383572	0	0	0	0
39.66444	0.06845129	0.02383572	0	0	0	0
39.68101	0.06845129	0.02383572	0	0	0	0
39.69983	0.06845129	0.02383572	0	0	0	0
39.7164	0.06845129	0.02383572	0	0	0	0
39.73296	0.06845129	0.02383572	0	0	0	0
39.74953	0.06845129	0.02383572	0	0	0	0
39.7661	0.06845129	0.02383572	0	0	0	0
39.78267	0.06845129	0.02383572	0	0	0	0
39.79923	0.06845129	0.02383572	0	0	0	0
39.81607	0.06845129	0.02383572	0	0	0	0
39.83237	0.06845129	0.02383572	0	0	0	0
39.85134	0.06845129	0.02383572	0	0	0	0
39.86791	0.06845129	0.02383572	0	0	0	0
39.88448	0.06845129	0.02383572	0	0	0	0
39.90104	0.06845129	0.02383572	0	0	0	0
39.91774	0.06967364	0.02383572	0.07319133	-1.115307E-07	2.200054	-3.352493E-06
39.93417	0.0770077	0.017724	0.446385	-0.3719877	11.2643	-11.2279
39.95074	0.08434177	0.01283462	0.4426852	-0.2951235	-0.1121225	2.329419
39.96731	0.09289818	0.006722894	0.5164655	-0.3689043	2.226694	-2.226708
39.98388	0.1014546	0.0006111722	0.5164664	-0.3689043	2.698308E-05	0
40.00351	0.1075663	-0.004278206	0.3112184	-0.2489746	-5.669006	3.312492
40.02057	0.1149004	-0.01161227	0.429915	-0.4299154	3.234471	-4.930619
40.0368	0.1173451	-0.01405696	0.1506132	-0.1506135	-8.389743	8.389748
40.05322	0.1283462	-0.02261337	0.6703568	-0.5213883	15.92236	-11.3587
40.06978	0.1320132	-0.02750275	0.2213422	-0.2951232	-13.61556	6.861078
40.08638	0.1369026	-0.03239213	0.2945135	-0.2945133	2.206028	0.0183906
40.10292	0.1405696	-0.03483682	0.2218018	-0.1478681	-2.194442	4.42576
40.11948	0.1430143	-0.03728151	0.1475624	-0.1475619	-2.242875	0.009250839
40.13605	0.145459	-0.03850385	0.1475614	-0.07378072	-2.743279E-05	2.22672
40.15533	0.1466813	-0.0397262	0.06340121	-0.0634014	-2.347781	0.2895474
40.17198	0.1466813	-0.0397262	0	0	-1.764545	1.76455
40.18856	0.1466813	-0.0397262	0	0	0	0
40.20503	0.1466813	-0.0397262	0	0	0	0
40.2216	0.1466813	-0.0397262	0	0	0	0
40.23817	0.1466813	-0.0397262	0	0	0	0
40.25473	0.1466813	-0.0397262	0	0	0	0
40.27158	0.1466813	-0.0397262	0	0	0	0
40.28786	0.1466813	-0.0397262	0	0	0	0
40.30754	0.1466813	-0.0397262	0	0	0	0
40.32691	0.1466813	-0.0397262	0	0	0	0
40.34372	0.1466813	-0.0397262	0	0	0	0
40.36005	0.1466813	-0.0397262	0	0	0	0
40.37662	0.1466813	-0.0397262	0	0	0	0
40.39318	0.1466813	-0.0397262	0	0	0	0
40.41006	0.1466813	-0.0397262	0	0	0	0
40.42631	0.1466813	-0.0397262	0	0	0	0
40.44288	0.1466813	-0.0397262	0	0	0	0
40.46211	0.1466813	-0.0397262	0	0	0	0
40.4788	0.1466813	-0.0397262	0	0	0	0
40.49556	0.1466813	-0.0397262	0	0	0	0
40.51181	0.1466813	-0.0397262	0	0	0	0
40.52838	0.1466813	-0.0397262	0	0	0	0
40.54495	0.1466813	-0.0397262	0	0	0	0
40.56157	0.1466813	-0.0397262	0	0	0	0
40.57808	0.1466813	-0.0397262	0	0	0	0
40.59486	0.1466813	-0.0397262	0	0	0	0
40.61384	0.1466813	-0.0397262	0	0	0	0
40.63041	0.1466813	-0.0397262	0	0	0	0
40.64698	0.1466813	-0.0397262	0	0	0	0
40.6639	0.1466813	-0.0397262	0	0	0	0
40.68011	0.1466813	-0.0397262	0	0	0	0
40.69667	0.1466813	-0.0397262	0	0	0	0
40.76191	0.1466813	-0.0397262	0	0	0	0
40.80527	0.1466813	-0.0397262	0	0	0	0
40.82187	0.1466813	-0.0397262	0	0	0	0
40.8384	0.1466813	-0.0397262	0	0	0	0
40.85497	0.1466813	-0.0397262	0	0	0	0
40.87154	0.1466813	-0.0397262	0	0	0	0
40.8881	0.1466813	-0.0397262	0	0	0	0
40.90488	0.1466813	-0.0397262	0	0	0	0
40.92124	0.1466813	-0.0397262	0	0	0	0
40.94067	0.1466813	-0.0397262	0	0	0	0
40.95724	0.1466813	-0.0397262	0	0	0	0
40.9738	0.1466813	-0.0397262	0	0	0	0
40.99037	0.1466813	-0.0397262	0	0	0	0
41.00694	0.1466813	-0.0397262	0	0	0	0
41.02351	0.1466813	-0.0397262	0	0	0	0
41.04007	0.1466813	-0.0397262	0	0	0	0
41.05664	0.1466813	-0.0397262	0	0	0	0
41.07321	0.1466813	-0.0397262	0	0	0	0
41.09335	0.1466813	-0.0397262	0	0	0	0
41.10991	0.1466813	-0.0397262	0	0	0	0
41.12648	0.1466813	-0.0397262	0	0	0	0
41.14305	0.1466813	-0.0397262	0	0	0	0
41.15961	0.1466813	-0.0397262	0	0	0	0
41.17618	0.1466813	-0.0397262	0	0	0	0
41.19297	0.1466813	-0.0397262	0	0	0	0
41.20932	0.1466813	-0.0397262	0	0	0	0
41.22588	0.1466813	-0.0397262	0	0	0	0
41.24506	0.1466813	-0.0397262	0	0	0	0
41.26162	0.1466813	-0.0397262	0	0	0	0
41.27819	0.1466813	-0.0397262	0	0	0	0
41.29793	0.1466813	-0.0397262	0	0	0	0
41.3145	0.1466813	-0.0397262	0	0	0	0
41.33151	0.1466813	-0.0397262	0	0	0	0
41.34763	0.1466813	-0.0397262	0	0	0	0
41.3642	0.1466813	-0.0397262	0	0	0	0
41.38077	0.1466813	-0.0397262	0	0	0	0
41.40026	0.1466813	-0.0397262	0	0	0	0
41.41683	0.1466813	-0.0397262	0	0	0	0
41.4334	0.1466813	-0.0397262	0	0	0	0
41.44996	0.1466813	-0.0397262	0	0	0	0
41.46653	0.1466813	-0.0397262	0	0	0	0
41.48309	0.1466813	-0.0397262	0	0	0	0
41.49967	0.1466813	-0.0397262	0	0	0	0
41.51634	0.1466813	-0.0397262	0	0	0	0
41.53289	0.1466813	-0.0397262	0	0	0	0
41.55182	0.1466813	-0.0397262	0	0	0	0
41.5684	0.1466813	-0.0397262	0	0	0	0
41.58496	0.1466813	-0.0397262	0	0	0	0
41.60152	0.1466813	-0.03850385	0	0.07378095	0	2.227483
41.61809	0.1466813	-0.03239213	0	0.3689043	0	8.90684
41.63466	0.1479037	-0.02750275	0.07378072	0.2951235	2.226707	-2.22671
41.65134	0.1479037	-0.02261337	0	0.2930988	-2.219043	-0.06089286
41.66836	0.149126	-0.01894634	0.07182912	0.2154878	2.131489	-2.303064
41.68436	0.1503484	-0.01405696	0.07638465	0.3055354	0.1379627	2.72706
41.70466	0.1515707	-0.009167584	0.06021909	0.2408797	-0.4453241	-1.781115
41.72123	0.1540154	0.001833517	0.1475624	0.6640278	2.369258	11.47824
