Time	Pos X	Pos Y	Vel X	Vel Y	Acc X	Acc Y
0.01656869	-0.1234568	-0.07028481	0.002742882	0.001561542	-6.099367E-05	-3.472411E-05
0.0331354	-0.1271238	-0.07517418	-0.22135	-0.2951325	0.004980581	0.006594182
0.04970409	-0.1320132	-0.0837306	-0.295097	-0.516421	-2.225626	-6.67831
0.0662712	-0.1356802	-0.08984233	-0.2213447	-0.3689072	2.225759	4.451797
0.08283871	-0.1381249	-0.09228701	-0.147559	-0.147559	2.226846	6.68027
0.09940542	-0.1381249	-0.0947317	0	-0.1475665	4.453371	-0.0002262098
0.1159713	-0.1393473	-0.09595404	-0.07378653	-0.07378608	-2.227004	2.226819
0.1507462	-0.1393473	-0.09595404	0	0	1.437193	1.437184
0.1673164	-0.1393473	-0.09595404	0	0	0	0
0.1838835	-0.1393473	-0.09595404	0	0	0	0
0.2004503	-0.1393473	-0.09595404	0	0	0	0
0.2170166	-0.1393473	-0.09595404	0	0	0	0
0.2337984	-0.1393473	-0.09595404	0	0	0	0
0.2501504	-0.1393473	-0.09595404	0	0	0	0
0.2667171	-0.1393473	-0.09595404	0	0	0	0
0.2832834	-0.1393473	-0.09595404	0	0	0	0
0.3283255	-0.1393473	-0.09595404	0	0	0	0
0.3448965	-0.1393473	-0.09595404	0	0	0	0
0.3616697	-0.1393473	-0.09595404	0	0	0	0
0.3780295	-0.1393473	-0.09595404	0	0	0	0
0.3950238	-0.1393473	-0.09595404	0	0	0	0
0.411163	-0.1393473	-0.09595404	0	0	0	0
0.4277297	-0.1393473	-0.09595404	0	0	0	0
0.4442968	-0.1393473	-0.09595404	0	0	0	0
0.4702441	-0.1393473	-0.09595404	0	0	0	0
0.4868116	-0.1393473	-0.09595404	0	0	0	0
0.5033791	-0.1393473	-0.09595404	0	0	0	0
0.5199474	-0.1393473	-0.09595404	0	0	0	0
0.5365137	-0.1393473	-0.09595404	0	0	0	0
0.5530813	-0.1393473	-0.09595404	0	0	0	0
0.569648	-0.1393473	-0.09595404	0	0	0	0
0.5862147	-0.1393473	-0.09595404	0	0	0	0
0.6028611	-0.1393473	-0.09595404	0	0	0	0
0.6316771	-0.1393473	-0.09595404	0	0	0	0
0.6482462	-0.1393473	-0.09595404	0	0	0	0
0.6649459	-0.1393473	-0.09595404	0	0	0	0
0.681389	-0.1393473	-0.09595404	0	0	0	0
0.6979459	-0.1393473	-0.09595404	0	0	0	0
0.7145138	-0.1393473	-0.09595404	0	0	0	0
0.7310797	-0.1393473	-0.09595404	0	0	0	0
0.7476519	-0.1393473	-0.09595404	0	0	0	0
0.7644547	-0.1393473	-0.09595404	0	0	0	0
0.7857791	-0.1393473	-0.09595404	0	0	0	0
0.8023486	-0.1393473	-0.09595404	0	0	0	0
0.8192571	-0.1393473	-0.09595404	0	0	0	0
0.8354844	-0.1393473	-0.09595404	0	0	0	0
0.8521111	-0.1393473	-0.09595404	0	0	0	0
0.8686703	-0.1393473	-0.09595404	0	0	0	0
0.8851834	-0.1393473	-0.09595404	0	0	0	0
0.9017509	-0.1393473	-0.09595404	0	0	0	0
0.9183176	-0.1393473	-0.09595404	0	0	0	0
0.9664932	-0.1393473	-0.09595404	0	0	0	0
0.983493	-0.1393473	-0.09595404	0	0	0	0
0.9996302	-0.1393473	-0.09595404	0	0	0	0
1.016198	-0.1393473	-0.09595404	0	0	0	0
1.091806	-0.1393473	-0.09595404	0	0	0	0
1.137358	-0.1393473	-0.09595404	0	0	0	0
1.153926	-0.1393473	-0.09595404	0	0	0	0
1.170492	-0.1393473	-0.09595404	0	0	0	0
1.1871	-0.1393473	-0.09595404	0	0	0	0
1.203634	-0.1393473	-0.09595404	0	0	0	0
1.2202	-0.1393473	-0.09595404	0	0	0	0
1.236922	-0.1393473	-0.09595404	0	0	0	0
1.253706	-0.1393473	-0.09595404	0	0	0	0
1.299044	-0.1381249	-0.09595405	0.02696085	-3.286706E-07	0.4339993	-5.290739E-06
1.315612	-0.09534287	-0.08861998	2.582218	0.4426661	41.27666	7.150667
1.332179	-0.08923115	-0.08739763	0.3689072	0.07378171	-66.79666	-11.13275
1.348747	-0.08434177	-0.08495294	0.2951191	0.1475598	-2.226921	2.226619
1.365312	-0.0794524	-0.0837306	0.2951531	0.07378816	0.001025401	-2.226528
1.38245	-0.0770077	-0.08250825	0.1426444	0.07132243	-4.524952	-0.0731584
1.398451	-0.07211833	-0.08006357	0.305574	0.1527868	4.916553	2.458263
1.426471	-0.06967364	-0.07761888	0.08724766	0.08724739	-4.959621	-1.488829
1.459035	-0.0660066	-0.07517418	0.112612	0.07507496	0.4186665	-0.2009197
1.475603	-0.0660066	-0.07517418	0	0	-2.292058	-1.528044
1.492172	-0.0660066	-0.07517418	0	0	0	0
1.508738	-0.0660066	-0.07517418	0	0	0	0
1.525307	-0.0660066	-0.07517418	0	0	0	0
1.542168	-0.0660066	-0.07517418	0	0	0	0
1.558441	-0.0660066	-0.07517418	0	0	0	0
1.575007	-0.0660066	-0.07517418	0	0	0	0
1.591572	-0.0660066	-0.07517418	0	0	0	0
1.67163	-0.0660066	-0.07517418	0	0	0	0
1.688199	-0.0660066	-0.07517418	0	0	0	0
1.704977	-0.0660066	-0.07517418	0	0	0	0
1.721529	-0.0660066	-0.07517418	0	0	0	0
1.737917	-0.0660066	-0.07517418	0	0	0	0
1.754467	-0.0660066	-0.07517418	0	0	0	0
1.815499	-0.0660066	-0.07517418	0	0	0	0
1.832066	-0.0660066	-0.07517418	0	0	0	0
1.848788	-0.0660066	-0.07517418	0	0	0	0
1.865201	-0.0660066	-0.07517418	0	0	0	0
1.881771	-0.0660066	-0.07517418	0	0	0	0
1.898402	-0.0660066	-0.07517418	0	0	0	0
1.914905	-0.0660066	-0.07517418	0	0	0	0
1.949126	-0.0660066	-0.07517418	0	0	0	0
1.966428	-0.0660066	-0.07517418	0	0	0	0
1.982261	-0.0660066	-0.07517418	0	0	0	0
1.998878	-0.0660066	-0.07517418	0	0	0	0
2.015467	-0.0660066	-0.07517418	0	0	0	0
2.031962	-0.0660066	-0.07517418	0	0	0	0
2.049431	-0.0660066	-0.07517418	0	0	0	0
2.065108	-0.0660066	-0.07517418	0	0	0	0
2.081668	-0.0660066	-0.07517418	0	0	0	0
2.144815	-0.0660066	-0.07517418	0	0	0	0
2.161383	-0.0660066	-0.07517418	0	0	0	0
2.177953	-0.0660066	-0.07517418	0	0	0	0
2.194519	-0.0660066	-0.07517418	0	0	0	0
2.211087	-0.0660066	-0.07517418	0	0	0	0
2.227722	-0.0660066	-0.07517418	0	0	0	0
2.244221	-0.0660066	-0.07517418	0	0	0	0
2.28419	-0.0660066	-0.07517418	0	0	0	0
2.30076	-0.0660066	-0.07517418	0	0	0	0
2.317326	-0.0660066	-0.07517418	0	0	0	0
2.333891	-0.0660066	-0.07517418	0	0	0	0
2.350458	-0.0660066	-0.07517418	0	0	0	0
2.367025	-0.0660066	-0.07517418	0	0	0	0
2.383594	-0.0660066	-0.07517418	0	0	0	0
2.400163	-0.0660066	-0.07517418	0	0	0	0
2.442741	-0.0660066	-0.07517418	0	0	0	0
2.459539	-0.0660066	-0.07517418	0	0	0	0
2.475874	-0.0660066	-0.07517418	0	0	0	0
2.492442	-0.0660066	-0.07517418	0	0	0	0
2.50901	-0.0660066	-0.07517418	0	0	0	0
2.525577	-0.0660066	-0.07517418	0	0	0	0
2.542264	-0.0660066	-0.07517418	0	0	0	0
2.558713	-0.0660066	-0.07517418	0	0	0	0
2.608846	-0.0660066	-0.07517418	0	0	0	0
2.625414	-0.0660066	-0.07517418	0	0	0	0
2.642022	-0.0660066	-0.07517418	0	0	0	0
2.658712	-0.0660066	-0.07517418	0	0	0	0
2.675116	-0.0660066	-0.07517418	0	0	0	0
2.691683	-0.0660066	-0.07517418	0	0	0	0
2.70825	-0.0660066	-0.07517418	0	0	0	0
2.725057	-0.0660066	-0.07517418	0	0	0	0
2.751309	-0.0660066	-0.07517418	0	0	0	0
2.768636	-0.0660066	-0.07517418	0	0	0	0
2.785207	-0.0660066	-0.07517418	0	0	0	0
2.801772	-0.0660066	-0.07517418	0	0	0	0
2.818974	-0.0660066	-0.07517418	0	0	0	0
2.834906	-0.0660066	-0.07517418	0	0	0	0
2.851476	-0.0660066	-0.07517418	0	0	0	0
2.868039	-0.0660066	-0.07517418	0	0	0	0
2.884609	-0.0660066	-0.07517418	0	0	0	0
2.931971	-0.0660066	-0.07517418	0	0	0	0
2.948539	-0.0660066	-0.07517418	0	0	0	0
2.965107	-0.0660066	-0.07517418	0	0	0	0
2.981673	-0.0660066	-0.07517418	0	0	0	0
2.998244	-0.0660066	-0.07517418	0	0	0	0
3.01481	-0.0660066	-0.07517418	0	0	0	0
3.031376	-0.0660066	-0.07517418	0	0	0	0
3.048025	-0.0660066	-0.07517418	0	0	0	0
3.083302	-0.0660066	-0.07517418	0	0	0	0
3.099869	-0.0660066	-0.07517418	0	0	0	0
3.116836	-0.0660066	-0.07517418	0	0	0	0
3.133003	-0.0660066	-0.07517418	0	0	0	0
3.149574	-0.0660066	-0.07517418	0	0	0	0
3.16614	-0.0660066	-0.07517418	0	0	0	0
3.182708	-0.0660066	-0.07517418	0	0	0	0
3.199275	-0.0660066	-0.07517418	0	0	0	0
3.215841	-0.0660066	-0.07517418	0	0	0	0
3.25742	-0.0660066	-0.07517418	0	0	0	0
3.273987	-0.0660066	-0.07517418	0	0	0	0
3.290554	-0.0660066	-0.07517418	0	0	0	0
3.307409	-0.0660066	-0.07517418	0	0	0	0
3.32369	-0.0660066	-0.07517418	0	0	0	0
3.340393	-0.06111722	-0.06661778	0.2927266	0.5122708	8.874737	15.53077
3.357002	-0.05011612	-0.04950495	0.6623405	1.030308	11.09541	15.55092
3.373612	-0.03544799	-0.02383572	0.8831079	1.545439	6.645797	15.50708
3.423313	-0.007334067	0.02505806	0.5656614	0.9837589	-4.787262	-8.470438
3.439881	0.08189708	0.1961863	5.385693	10.32873	72.73415	141.0153
3.456448	0.08800881	0.2206332	0.3689258	1.475703	-151.4063	-267.1848
3.473014	0.09412052	0.237746	0.3689142	1.03296	-0.0003471972	-13.36259
3.489583	0.1026769	0.2621929	0.516407	1.475449	4.451147	13.35378
3.50615	0.1075663	0.2878621	0.2951323	1.549442	-6.677794	2.233001
3.522717	0.110011	0.3000856	0.1475636	0.7378197	-4.453728	-24.49533
3.539282	0.1112333	0.312309	0.07379089	0.7379134	-2.22664	0.002829849
3.559544	0.113678	0.3208654	0.1206544	0.4222892	1.272536	-8.570492
3.576113	0.1161227	0.340423	0.1475449	1.180359	0.730103	20.58231
3.592678	0.1161227	0.340423	0	0	-4.452946	-35.62357
3.609662	0.1185674	0.3502017	0.1439466	0.5757865	4.290721	17.16288
3.625812	0.1210121	0.3636475	0.151367	0.8325202	0.2239493	7.748349
3.642381	0.1234568	0.3746486	0.1475449	0.6639501	-0.1168116	-5.151921
3.658948	0.1271238	0.3856497	0.2213485	0.6640474	2.227302	0.002937431
3.675845	0.1283462	0.3966508	0.0723408	0.6510611	-4.452783	-0.3880701
3.69208	0.1307909	0.4039849	0.1505801	0.4517421	2.361419	-6.015849
3.740062	0.1320132	0.4088742	0.02547516	0.1019	-1.948163	-5.447824
3.75663	0.1332355	0.4125413	0.07377966	0.2213408	0.7483362	1.850384
3.773198	0.1332355	0.4125413	0	0	-2.226563	-6.679742
3.789763	0.1332355	0.4125413	0	0	0	0
3.806334	0.1332355	0.4125413	0	0	0	0
3.823282	0.1332355	0.4125413	0	0	0	0
3.839468	0.1332355	0.4125413	0	0	0	0
3.856078	0.1332355	0.4125413	0	0	0	0
3.893165	0.1332355	0.4125413	0	0	0	0
3.910172	0.1332355	0.4125413	0	0	0	0
3.926299	0.1332355	0.4125413	0	0	0	0
3.942865	0.1332355	0.4125413	0	0	0	0
3.959435	0.1332355	0.4125413	0	0	0	0
3.976002	0.1332355	0.4125413	0	0	0	0
3.99257	0.1332355	0.4125413	0	0	0	0
4.009137	0.1332355	0.4125413	0	0	0	0
4.057145	0.1332355	0.4125413	0	0	0	0
4.073714	0.1332355	0.4125413	0	0	0	0
4.09028	0.1332355	0.4125413	0	0	0	0
4.106847	0.1332355	0.4125413	0	0	0	0
4.123443	0.1332355	0.4125413	0	0	0	0
4.139983	0.1332355	0.4125413	0	0	0	0
4.15655	0.1332355	0.4125413	0	0	0	0
4.173119	0.1332355	0.4125413	0	0	0	0
4.251366	0.1332355	0.4125413	0	0	0	0
4.267934	0.1332355	0.4125413	0	0	0	0
4.284501	0.1332355	0.4125413	0	0	0	0
4.301067	0.1332355	0.4125413	0	0	0	0
4.317637	0.1332355	0.4125413	0	0	0	0
4.334204	0.1332355	0.4125413	0	0	0	0
4.406654	0.1332355	0.4125413	0	0	0	0
4.423223	0.1332355	0.4125413	0	0	0	0
4.43979	0.1332355	0.4125413	0	0	0	0
4.456355	0.1332355	0.4125413	0	0	0	0
4.472922	0.1332355	0.4125413	0	0	0	0
4.48949	0.1332355	0.4125413	0	0	0	0
4.525713	0.1332355	0.4125413	0	0	0	0
4.542759	0.1332355	0.4125413	0	0	0	0
4.558849	0.1332355	0.4125413	0	0	0	0
4.575416	0.1332355	0.4113189	0	-0.07378285	0	-2.25935
4.591983	0.1320132	0.4088742	-0.0737786	-0.147559	-2.226643	-2.226569
4.608552	0.1307909	0.4076519	-0.07377435	-0.07377435	0.0001281622	2.226697
4.625118	0.1307909	0.4064296	0	-0.07378317	2.226482	-0.0002662292
4.641684	0.1307909	0.4064296	0	0	0	2.226941
4.673352	0.1307909	0.4052072	0	-0.03859937	0	-0.8002526
4.689919	0.1307909	0.4052072	0	0	0	0.8002288
4.706487	0.1307909	0.4052072	0	0	0	0
4.723054	0.1307909	0.4052072	0	0	0	0
4.739623	0.1307909	0.4052072	0	0	0	0
4.75619	0.1307909	0.4052072	0	0	0	0
4.772759	0.1295685	0.4039848	-0.07377223	-0.07377223	-2.226322	-2.226322
4.789351	0.1210121	0.3942061	-0.5156798	-0.5893486	-13.32587	-15.54737
4.805889	0.1087887	0.3758709	-0.7391271	-1.108691	-6.744527	-15.67582
4.850601	0.09412052	0.3538687	-0.3280612	-0.4920914	6.711362	10.06706
4.867469	0.05256081	0.2890845	-2.463733	-3.840526	-34.68116	-54.37519
4.883744	0.05133847	0.2866398	-0.07510607	-0.1502117	72.06921	111.3435
4.900302	0.05011612	0.2854174	-0.07382132	-0.0738211	0.03912967	2.326633
4.917091	0.05011613	0.2829728	2.218956E-07	-0.1456168	2.213762	-2.15301
4.933436	0.04889378	0.2817504	-0.07478375	-0.07478375	-2.25705	2.137806
4.950008	0.04767143	0.2780834	-0.07375994	-0.2212785	0.03110265	-4.450425
4.966575	0.04767143	0.2719716	0	-0.3689054	2.225759	-4.454749
5.01416	0.04522675	0.2573035	-0.05137517	-0.3082512	-0.8008321	0.9454732
5.03139	0.0440044	0.2267449	-0.07094254	-1.773566	-0.3018954	-22.60763
5.047295	0.0440044	0.2218555	0	-0.3074127	2.141019	44.24795
5.063863	0.0440044	0.2132991	0	-0.5164362	0	-6.436824
5.080431	0.04522675	0.205965	0.07377882	-0.4426734	2.226553	2.22607
5.097111	0.04522675	0.198631	-2.233419E-07	-0.4396986	-2.219088	0.08947562
5.131009	0.04522675	0.1937416	1.098959E-07	-0.1442362	6.588577E-06	5.841704
5.191128	0.04522675	0.1851852	-6.196512E-08	-0.1423245	-1.827968E-06	0.0203336
5.207698	0.04522675	0.1839629	0	-0.07376709	8.080027E-07	0.8939634
5.224265	0.04522675	0.1839629	0	0	0	2.226135
5.247357	0.04522675	0.1827405	0	-0.0529347	0	-1.334762
5.263927	0.04522675	0.1827405	0	0	0	1.334649
5.280536	0.04522675	0.1827405	0	0	0	0
5.297061	0.04522675	0.1827405	0	0	0	0
5.334161	0.04522675	0.1827405	0	0	0	0
5.350729	0.04522675	0.1827405	0	0	0	0
5.367296	0.04522675	0.1827405	0	0	0	0
5.383863	0.04522675	0.1827405	0	0	0	0
5.400434	0.04522675	0.1827405	0	0	0	0
5.417001	0.04522675	0.1827405	0	0	0	0
5.433568	0.04522675	0.1827405	0	0	0	0
5.450134	0.04522675	0.1827405	0	0	0	0
5.485344	0.04522675	0.1827405	0	0	0	0
5.501945	0.04522675	0.1827405	0	0	0	0
5.518674	0.04522675	0.1827405	0	0	0	0
5.535046	0.04522675	0.1827405	0	0	0	0
5.551618	0.04522675	0.1827405	0	0	0	0
5.568181	0.04522675	0.1827405	0	0	0	0
5.584749	0.04522675	0.1827405	0	0	0	0
5.601318	0.04522675	0.1827405	0	0	0	0
5.641587	0.04522675	0.1827405	0	0	0	0
5.658154	0.04522675	0.1827405	0	0	0	0
5.674721	0.04522675	0.1827405	0	0	0	0
5.691556	0.04522675	0.1827405	0	0	0	0
5.707857	0.04522675	0.1827405	0	0	0	0
5.724427	0.04522675	0.1827405	0	0	0	0
5.741033	0.04522675	0.1827405	0	0	0	0
5.758236	0.04522675	0.1827405	0	0	0	0
5.796656	0.04522675	0.1827405	0	0	0	0
5.813225	0.04522675	0.1827405	0	0	0	0
5.830474	0.04522675	0.1827405	0	0	0	0
5.846429	0.04522675	0.1827405	0	0	0	0
5.862925	0.04522675	0.1827405	0	0	0	0
5.889892	0.04522675	0.1827405	0	0	0	0
5.906515	0.04522675	0.1827405	0	0	0	0
5.923223	0.04522675	0.1827405	0	0	0	0
5.959541	0.04522675	0.1827405	0	0	0	0
5.976274	0.04522675	0.1827405	0	0	0	0
5.992675	0.04522675	0.1827405	0	0	0	0
6.00956	0.04522675	0.1827405	0	0	0	0
6.025814	0.04522675	0.1827405	0	0	0	0
6.04238	0.04522675	0.1827405	0	0	0	0
6.058948	0.04522675	0.1827405	0	0	0	0
6.075777	0.04522675	0.1827405	0	0	0	0
6.131255	0.04522675	0.1827405	0	0	0	0
6.147825	0.04278206	0.1766288	-0.1475362	-0.3688399	-2.047744	-5.11935
6.164407	0.04033737	0.1705171	-0.1474344	-0.3685863	0.003071781	0.007651135
6.180984	0.03178095	0.1558489	-0.5161691	-0.8848611	-11.12043	-15.57
6.197525	0.01955751	0.1289573	-0.7389569	-1.625705	-6.727041	-22.36967
6.214095	0.008556412	0.1032881	-0.6639323	-1.549175	2.265845	2.31132
6.230662	-0.003667034	0.07395184	-0.7377874	-1.77069	-2.228759	-6.684761
6.270488	-0.008556412	0.06417309	-0.1227688	-0.2455374	10.90582	27.04477
6.287058	-0.009778756	0.06295074	-0.0737681	-0.07376844	0.8688675	3.045765
6.303624	-0.009778756	0.06295074	0	0	2.226262	2.226272
6.320191	-0.009778756	0.06295074	0	0	0	0
6.336757	-0.009778756	0.06295074	0	0	0	0
6.353384	-0.009778756	0.06295074	0	0	0	0
6.36989	-0.009778756	0.06295074	0	0	0	0
6.386458	-0.009778756	0.06295074	0	0	0	0
6.457527	-0.009778756	0.06295074	0	0	0	0
6.474414	-0.009778756	0.06295074	0	0	0	0
6.490664	-0.009778756	0.06295074	0	0	0	0
6.507231	-0.009778756	0.06295074	0	0	0	0
6.524511	-0.009778756	0.06295074	0	0	0	0
6.540366	-0.009778756	0.06295074	0	0	0	0
6.634708	-0.009778756	0.06295074	0	0	0	0
6.651561	-0.009778756	0.06295074	0	0	0	0
6.667842	-0.009778756	0.06295074	0	0	0	0
6.684409	-0.009778756	0.06295074	0	0	0	0
6.701177	-0.009778756	0.06295074	0	0	0	0
6.737634	-0.009778756	0.06295074	0	0	0	0
6.754201	-0.009778756	0.06295074	0	0	0	0
6.77077	-0.009778756	0.06295074	0	0	0	0
6.787335	-0.009778756	0.06295074	0	0	0	0
6.804222	-0.009778756	0.06295074	0	0	0	0
6.82047	-0.009778756	0.06295074	0	0	0	0
6.837393	-0.009778756	0.06295074	0	0	0	0
6.853606	-0.009778756	0.06295074	0	0	0	0
6.892087	-0.009778756	0.06295074	0	0	0	0
6.908654	-0.009778756	0.06295074	0	0	0	0
6.925221	-0.009778756	0.06295074	0	0	0	0
6.942091	-0.009778756	0.06295074	0	0	0	0
6.958592	-0.009778756	0.06295074	0	0	0	0
6.975017	-0.009778756	0.06295074	0	0	0	0
6.991698	-0.009778756	0.06295074	0	0	0	0
7.008059	-0.009778756	0.06295074	0	0	0	0
7.056028	-0.009778756	0.06295074	0	0	0	0
7.072596	-0.004889378	0.05683902	0.2951064	-0.3688828	4.572667	-5.715831
7.089164	0.002444689	0.04828261	0.4426725	-0.5164511	4.45336	-4.453427
7.105731	0.009778757	0.03850385	0.4426725	-0.5902299	0	-2.226585
7.1223	0.02322455	0.02383572	0.8115194	-0.8852938	11.13118	-8.904534
7.138867	0.04278206	-0.0006111722	1.180494	-1.475617	11.13519	-17.81523
7.155435	0.0550055	-0.01161227	0.7378083	-0.6640278	-13.36028	24.49382
7.1723	0.06845129	-0.02628041	0.7972476	-0.8697251	1.777891	-6.15262
7.219807	0.08923115	-0.04583792	0.4374037	-0.411674	-5.590023	7.11563
7.236377	0.1210121	-0.07517419	1.917971	-1.770435	23.10593	-21.205
7.252944	0.1222344	-0.07517418	0.07378452	4.497438E-07	-55.65446	53.42877
7.269509	0.1222344	-0.07639653	0	-0.07378967	-2.227014	-2.227182
7.286078	0.1222344	-0.07639653	0	0	0	2.226977
7.303051	0.1222344	-0.07639653	0	0	0	0
7.319211	0.1222344	-0.07639653	0	0	0	0
7.335779	0.1222344	-0.07639653	0	0	0	0
7.373036	0.1222344	-0.07639653	0	0	0	0
7.389604	0.1222344	-0.07639653	0	0	0	0
7.406171	0.1222344	-0.07639653	0	0	0	0
7.422739	0.1222344	-0.07639653	0	0	0	0
7.439307	0.1222344	-0.07639653	0	0	0	0
7.456401	0.1222344	-0.07639653	0	0	0	0
7.472442	0.1222344	-0.07639653	0	0	0	0
7.489007	0.1222344	-0.07639653	0	0	0	0
7.522766	0.1246791	-0.07395184	0.0724178	0.0724178	1.439032	1.439032
7.539385	0.1369026	-0.03483681	0.7354796	2.353536	13.16177	45.28019
7.555901	0.1369026	-0.02383572	9.022405E-07	0.6660979	-22.19615	-50.92553
7.572837	0.1369026	-0.01405696	-8.798604E-07	0.5774007	-5.327407E-05	-2.651514
7.589037	0.1332356	0.01894634	-0.2263512	2.037173	-6.830872	44.05347
7.605602	0.1283462	0.03972619	-0.2951663	1.254455	-2.100238	-23.88855
7.622288	0.1222345	0.05683902	-0.3662895	1.025612	-2.139024	-6.882438
7.639007	0.1161227	0.06784012	-0.3655591	0.6580052	0.02186527	-11.00475
7.655302	0.1112333	0.07517418	-0.3000546	0.4500817	1.984155	-6.298075
7.704485	0.1087887	0.07884122	-0.04970551	0.07455842	3.823389	-5.735077
7.721053	0.1014546	0.0837306	-0.4426725	0.2951153	-5.976587	3.354422
7.73762	0.09900991	0.08373059	-0.1475572	-4.49705E-07	8.906342	-8.906354
7.754187	0.09656521	0.08373059	-0.1475708	0	-0.0004119475	1.357232E-05
7.770756	0.0904535	0.0837306	-0.3688505	4.496532E-07	-6.677946	1.356997E-05
7.787708	0.08311943	0.0837306	-0.4326364	0	-1.902825	-1.341381E-05
7.803963	0.06233957	0.08250825	-1.278375	-0.07519884	-25.46873	-2.264552
7.820457	0.04522675	0.07884122	-1.037531	-0.2223276	7.354315	-4.492661
7.855435	0.02444689	0.07639652	-0.5940852	-0.06989266	8.615325	2.961529
7.872003	-0.03544799	0.07028481	-3.615158	-0.3688934	-58.60969	-5.800703
7.88857	-0.05011613	0.06906246	-0.885345	-0.0737786	82.38355	8.906327
7.90545	-0.08189708	0.06661777	-1.882754	-0.1448274	-29.81992	-2.124174
7.922066	-0.1124557	0.06295075	-1.839175	-0.2207006	1.301036	-2.26518
7.938271	-0.1442367	0.05683902	-1.961145	-0.3771432	-3.716232	-4.766582
7.954841	-0.1796846	0.05194964	-2.139275	-0.2950726	-5.434884	2.504029
7.971773	-0.1980198	0.05072729	-1.08287	-0.07219165	31.53251	6.652746
8.010863	-0.2151326	0.04950495	-0.4377783	-0.03126973	11.51494	0.7304595
8.027606	-0.25547	0.04706026	-2.409251	-0.1460153	-35.31026	-2.055163
8.044204	-0.25547	0.04706026	0	0	72.2621	4.379525
8.060566	-0.2689158	0.04583792	-0.8217601	-0.0747053	-24.93209	-2.266548
8.077132	-0.2762499	0.04461558	-0.4427098	-0.07378497	11.51132	0.02794924
8.093698	-0.2811392	0.04217088	-0.2951569	-0.1475791	4.453542	-2.227304
8.110266	-0.2860286	0.03972619	-0.2951059	-0.1475532	0.00153808	0.0007829815
8.127176	-0.294585	0.03728151	-0.5059814	-0.1445656	-6.29879	0.08923765
8.183496	-0.3043638	0.03116979	-0.173631	-0.1085193	4.538459	0.492236
8.200067	-0.3483682	0.01283462	-2.655498	-1.106458	-34.04936	-13.69098
8.216631	-0.3520352	0.01038993	-0.2213822	-0.1475872	73.45966	28.93795
8.233197	-0.3605916	0.009167584	-0.5164948	-0.07378508	-8.907541	2.22761
8.249769	-0.3679257	0.006722895	-0.4425588	-0.1475192	2.231138	-2.225045
8.266333	-0.3740374	0.00550055	-0.3689886	-0.07379786	2.220289	2.224852
8.282992	-0.3801492	0.00550055	-0.366857	0	0.06415951	2.221278
8.350399	-0.3825938	0.006722894	-0.0362677	0.01813388	3.932479	0.215709
8.366975	-0.3874832	0.007945239	-0.2949701	0.07374264	-3.080433	0.6621472
8.383533	-0.3874832	0.007945239	0	0	8.902472	-2.225621
8.400105	-0.3874832	0.007945239	0	0	0	0
8.416969	-0.3874832	0.007945239	0	0	0	0
8.433236	-0.3874832	0.007945239	0	0	0	0
8.449821	-0.3874832	0.007945239	0	0	0	0
8.509818	-0.3874832	0.007945239	0	0	0	0
8.526385	-0.3874832	0.007945239	0	0	0	0
8.542953	-0.3874832	0.007945239	0	0	0	0
8.560401	-0.3862608	0.006722894	0.0700563	-0.07005472	2.059531	-2.059485
8.576929	-0.3581469	-0.001833517	1.700973	-0.5176878	48.00124	-13.17476
8.592657	-0.3239213	-0.009167584	2.176097	-0.4663065	14.72972	1.592917
8.609221	-0.2738052	-0.01527931	3.025537	-0.368968	26.3047	3.014289
8.710608	-0.1857964	-0.02750275	0.868048	-0.1205622	-18.29134	2.106001
8.727177	0.02322455	-0.0617284	12.6158	-2.065745	99.59504	-16.49086
8.744053	0.02689158	-0.06295075	0.21729	-0.07243007	-370.72	59.60086
8.760311	0.03055861	-0.06295075	0.2255493	0	0.2492652	2.185944
8.776882	0.03055861	-0.06295075	0	0	-6.870368	0
8.812458	0.03055861	-0.06295075	0	0	0	0
8.829026	0.03055861	-0.06295075	0	0	0	0
8.845594	0.03055861	-0.06295075	0	0	0	0
8.862162	0.03055861	-0.06295075	0	0	0	0
8.878729	0.03055861	-0.06295075	0	0	0	0
8.895294	0.03055861	-0.06295075	0	0	0	0
8.912241	0.03055861	-0.06295075	0	0	0	0
8.92843	0.03055861	-0.06295075	0	0	0	0
8.945042	0.03055861	-0.06295075	0	0	0	0
8.98273	0.03055861	-0.06295075	0	0	0	0
8.9993	0.03055861	-0.06295075	0	0	0	0
9.016171	0.03055861	-0.06295075	0	0	0	0
9.032435	0.03055861	-0.06295075	0	0	0	0
9.049	0.03055861	-0.06295075	0	0	0	0
9.065884	0.03055861	-0.06295075	0	0	0	0
9.082195	0.03055861	-0.06295075	0	0	0	0
9.098702	0.03055861	-0.06295075	0	0	0	0
9.140238	0.03055861	-0.06295075	0	0	0	0
9.156805	0.03055861	-0.06295075	0	0	0	0
9.173371	0.03055861	-0.06295075	0	0	0	0
9.189938	0.03055861	-0.06295075	0	0	0	0
9.235405	0.03055861	-0.06295075	0	0	0	0
9.25227	0.03055861	-0.06295075	0	0	0	0
9.308426	0.03055861	-0.06295075	0	0	0	0
9.324996	0.03055861	-0.06295075	0	0	0	0
9.341562	0.03055861	-0.06295075	0	0	0	0
9.358132	0.03055861	-0.06295075	0	0	0	0
9.374701	0.03055861	-0.06295075	0	0	0	0
9.391459	0.03055861	-0.06295075	0	0	0	0
9.407832	0.03055861	-0.06295075	0	0	0	0
9.441486	0.03055861	-0.06295075	0	0	0	0
9.45822	0.03055861	-0.06295075	0	0	0	0
9.474973	0.03055861	-0.06295075	0	0	0	0
9.491186	0.03055861	-0.06295075	0	0	0	0
9.507757	0.03055861	-0.06295075	0	0	0	0
9.536231	0.03055861	-0.06295075	0	0	0	0
9.5528	0.03055861	-0.06295075	0	0	0	0
9.569368	0.03055861	-0.06295075	0	0	0	0
9.59959	0.03055861	-0.06295075	0	0	0	0
9.616162	0.03055861	-0.06295075	0	0	0	0
9.632728	0.03055861	-0.06295075	0	0	0	0
9.649297	0.03055861	-0.06295075	0	0	0	0
9.665863	0.03055861	-0.06295075	0	0	0	0
9.682427	0.03055861	-0.06295075	0	0	0	0
9.698994	0.03055861	-0.06295075	0	0	0	0
9.716061	0.03055861	-0.06295075	0	0	0	0
9.732187	0.03055861	-0.06295075	0	0	0	0
9.769096	0.03055861	-0.06295075	0	0	0	0
9.785667	0.03055861	-0.06295075	0	0	0	0
9.802234	0.03055861	-0.06295075	0	0	0	0
9.819004	0.03055861	-0.06295075	0	0	0	0
9.835367	0.03055861	-0.06295075	0	0	0	0
9.851933	0.03055861	-0.06295075	0	0	0	0
9.868612	0.03055861	-0.06295075	0	0	0	0
9.885066	0.03055861	-0.06295075	0	0	0	0
9.923461	0.03055861	-0.06295075	0	0	0	0
9.940028	0.03055861	-0.06295075	0	0	0	0
9.957529	0.03055861	-0.06295075	0	0	0	0
9.973163	0.03055861	-0.06295075	0	0	0	0
9.989736	0.03055861	-0.06295075	0	0	0	0
10.00632	0.03055861	-0.06295075	0	0	0	0
10.02287	0.03055861	-0.06295075	0	0	0	0
10.03943	0.03055861	-0.06295075	0	0	0	0
10.07447	0.03055861	-0.06295075	0	0	0	0
10.09104	0.03055861	-0.06295075	0	0	0	0
10.10761	0.03055861	-0.06295075	0	0	0	0
10.12417	0.03055861	-0.06295075	0	0	0	0
10.14103	0.03055861	-0.06295075	0	0	0	0
10.1761	0.03055861	-0.06295075	0	0	0	0
10.19267	0.03055861	-0.06050605	-1.12423E-07	0.1475534	-2.177112E-06	2.857424
10.2217	0.02933627	-0.05561667	-0.04210514	0.1684204	-0.9233765	0.4576209
10.23826	0.02444689	-0.03483682	-0.2951235	1.254275	-5.548887	23.81362
10.25497	0.02322455	-0.02994744	-0.07314482	0.2925802	6.670339	-28.8984
10.2714	0.0220022	-0.02750275	-0.07443232	0.1488643	-0.03885787	-4.337479
10.28797	0.0220022	-0.02628041	1.124165E-07	0.07377234	2.256116	-2.276107
10.30537	0.0220022	-0.02628041	0	0	-3.308836E-06	-2.171394
10.3211	0.0220022	-0.02628041	0	0	0	0
10.33767	0.0220022	-0.02628041	0	0	0	0
10.3547	0.0220022	-0.02628041	0	0	0	0
10.41809	0.0220022	-0.02628041	0	0	0	0
10.43495	0.0220022	-0.02628041	0	0	0	0
10.45122	0.0220022	-0.02628041	0	0	0	0
10.46779	0.0220022	-0.02628041	0	0	0	0
10.48477	0.0220022	-0.02628041	0	0	0	0
10.50093	0.0220022	-0.02628041	0	0	0	0
10.51749	0.0220022	-0.02628041	0	0	0	0
10.59645	0.0220022	-0.02628041	0	0	0	0
10.61302	0.0220022	-0.02628041	0	0	0	0
10.62982	0.0220022	-0.02628041	0	0	0	0
10.64636	0.0220022	-0.02628041	0	0	0	0
10.66272	0.0220022	-0.02628041	0	0	0	0
10.67929	0.0220022	-0.02628041	0	0	0	0
10.72342	0.0220022	-0.02628041	0	0	0	0
10.73999	0.0220022	-0.02628041	0	0	0	0
10.75657	0.0220022	-0.02628041	0	0	0	0
10.77312	0.0220022	-0.02628041	0	0	0	0
10.78981	0.0220022	-0.02628041	0	0	0	0
10.8063	0.0220022	-0.02628041	0	0	0	0
10.82282	0.0220022	-0.02628041	0	0	0	0
10.83939	0.0220022	-0.02628041	0	0	0	0
10.86838	0.0220022	-0.02628041	0	0	0	0
10.88495	0.0220022	-0.02628041	0	0	0	0
10.90152	0.0220022	-0.02628041	0	0	0	0
10.91841	0.0220022	-0.02628041	0	0	0	0
10.93465	0.0220022	-0.02628041	0	0	0	0
10.95122	0.0220022	-0.02628041	0	0	0	0
10.96779	0.0220022	-0.02628041	0	0	0	0
10.98436	0.0220022	-0.02628041	0	0	0	0
11.02696	0.0220022	-0.02628041	0	0	0	0
11.04402	0.0220022	-0.02628041	0	0	0	0
11.06009	0.0220022	-0.02628041	0	0	0	0
11.07666	0.0220022	-0.02628041	0	0	0	0
11.09323	0.0220022	-0.02628041	0	0	0	0
11.1098	0.0220022	-0.02628041	0	0	0	0
11.12636	0.0220022	-0.02628041	0	0	0	0
11.14318	0.0220022	-0.02628041	0	0	0	0
11.18223	0.0220022	-0.02628041	0	0	0	0
11.1988	0.0220022	-0.02628041	0	0	0	0
11.21536	0.0220022	-0.02628041	0	0	0	0
11.23193	0.0220022	-0.02628041	0	0	0	0
11.2485	0.0220022	-0.02628041	0	0	0	0
11.2651	0.0220022	-0.02628041	0	0	0	0
11.28163	0.0220022	-0.02628041	0	0	0	0
11.30628	0.0220022	-0.02628041	0	0	0	0
11.33419	0.0220022	-0.02628041	0	0	0	0
11.35094	0.0220022	-0.02628041	0	0	0	0
11.36733	0.0220022	-0.02628041	0	0	0	0
11.3839	0.0220022	-0.02628041	0	0	0	0
11.40047	0.0220022	-0.02628041	0	0	0	0
11.41703	0.0220022	-0.02628041	0	0	0	0
11.43371	0.0220022	-0.02628041	0	0	0	0
11.45017	0.0220022	-0.02628041	0	0	0	0
11.46673	0.0220022	-0.02628041	0	0	0	0
11.50818	0.0220022	-0.02628041	0	0	0	0
11.52474	0.0220022	-0.02628041	0	0	0	0
11.54139	0.0220022	-0.02628041	0	0	0	0
11.55788	0.0220022	-0.02628041	0	0	0	0
11.57445	0.0220022	-0.02628041	0	0	0	0
11.59129	0.0220022	-0.02628041	0	0	0	0
11.60758	0.0220022	-0.02628041	0	0	0	0
11.6246	0.0220022	-0.02628041	0	0	0	0
11.66393	0.0220022	-0.02628041	0	0	0	0
11.6805	0.0220022	-0.02628041	0	0	0	0
11.69706	0.0220022	-0.02628041	0	0	0	0
11.71391	0.0220022	-0.02628041	0	0	0	0
11.7302	0.0220022	-0.02628041	0	0	0	0
11.74677	0.0220022	-0.02628041	0	0	0	0
11.76334	0.0220022	-0.02628041	0	0	0	0
11.7799	0.02322455	-0.02505806	0.07378945	0.07378922	2.227034	2.227027
11.81806	0.06722895	0.02139103	1.153059	1.217118	19.72043	20.89092
11.83463	0.2065762	0.0947317	8.409565	4.426087	132.5794	58.62923
11.8512	0.2285784	0.1020658	1.328056	0.4426852	-213.7019	-120.2089
11.86777	0.25547	0.1130669	1.622806	0.6638746	8.894551	6.674738
11.88441	0.2738052	0.1191786	1.102208	0.3674034	-15.67783	-8.928245
11.90112	0.2933627	0.124068	1.169987	0.2924967	2.032298	-2.246013
11.93503	0.2970297	0.1252903	0.1081376	0.03604564	-20.97408	-5.065525
11.96735	0.2994744	0.1265126	0.07565333	0.03782666	-0.4905131	0.02689351
11.98392	0.2994744	0.1265126	0	0	-1.547657	-0.7738286
12.00048	0.2994744	0.1265126	0	0	0	0
12.01731	0.2994744	0.1265126	0	0	0	0
12.03425	0.2994744	0.1265126	0	0	0	0
12.05019	0.2994744	0.1265126	0	0	0	0
12.06691	0.3006968	0.1265127	0.07306749	8.907194E-07	2.236922	2.72689E-05
12.08332	0.3068085	0.1265126	0.372571	-9.083774E-07	9.039294	-5.429842E-05
12.10012	0.3092532	0.1252903	0.1455424	-0.07277029	-6.837961	-2.191768
12.14939	0.3092532	0.1252903	0	0	-2.202737	1.101355
12.16596	0.3092532	0.1252903	0	0	0	0
12.18281	0.3092532	0.1252903	0	0	0	0
12.19938	0.3092532	0.1252903	0	0	0	0
12.21566	0.3092532	0.1252903	0	0	0	0
12.23223	0.3092532	0.1252903	0	0	0	0
12.24879	0.3092532	0.1252903	0	0	0	0
12.26536	0.3092532	0.1252903	0	0	0	0
12.30391	0.3092532	0.1252903	0	0	0	0
12.32048	0.3092532	0.1252903	0	0	0	0
12.33705	0.3092532	0.1252903	0	0	0	0
12.35362	0.3092532	0.1252903	0	0	0	0
12.37028	0.3092532	0.1252903	0	0	0	0
12.38675	0.3092532	0.1252903	0	0	0	0
12.40332	0.3092532	0.1252903	0	0	0	0
12.41988	0.3092532	0.1252903	0	0	0	0
12.47769	0.3092532	0.1252903	0	0	0	0
12.49426	0.3092532	0.1252903	0	0	0	0
12.51082	0.3092532	0.1252903	0	0	0	0
12.52754	0.3092532	0.1252903	0	0	0	0
12.54411	0.3092532	0.1252903	0	0	0	0
12.56052	0.3092532	0.1252903	0	0	0	0
12.57902	0.3092532	0.1252903	0	0	0	0
12.643	0.3092532	0.1252903	0	0	0	0
12.65956	0.3092532	0.1252903	0	0	0	0
12.67613	0.3092532	0.1252903	0	0	0	0
12.6927	0.3092532	0.1252903	0	0	0	0
12.70927	0.3043638	0.1252903	-0.2950889	0	-8.905032	0
12.72584	0.294585	0.1252903	-0.5902815	-8.994876E-07	-8.908675	-2.714581E-05
12.74241	0.2823616	0.124068	-0.7376816	-0.07376754	-4.448287	-2.226153
12.80304	0.2615817	0.1179563	-0.3427222	-0.1008006	5.115932	-0.3501612
12.81961	0.188241	0.09350935	-4.426597	-1.475533	-52.89997	-17.80742
12.83617	0.1747953	0.08984233	-0.8114963	-0.2213167	109.0945	37.84904
12.85274	0.145459	0.08250825	-1.770944	-0.4427367	-28.95619	-6.682467
12.86931	0.1112333	0.07517418	-2.065745	-0.4426598	-8.897379	0.002320611
12.88588	0.07578536	0.06661778	-2.139398	-0.5164061	-2.22266	-2.225475
12.90244	0.0220022	0.05439433	-3.247106	-0.7379788	-33.43259	-6.687462
12.94768	-0.009778756	0.04828261	-0.7025499	-0.1351057	41.17404	9.755226
12.96433	-0.0770077	0.03361447	-4.036339	-0.8806559	-53.86418	-12.04589
12.98081	-0.08311943	0.03239213	-0.3708686	-0.07417354	110.6209	24.33899
12.99738	-0.09167583	0.03239213	-0.5164952	0	-4.406816	2.24457
13.01395	-0.09778756	0.03239213	-0.3688621	0	4.45545	0
13.03051	-0.1002322	0.03116978	-0.1475784	-0.07378945	6.678353	-2.22697
13.04708	-0.1026769	0.03116978	-0.1475789	0	-1.394286E-05	2.227226
13.07308	-0.1051216	0.02994744	-0.09400929	-0.0470045	1.258385	-1.104167
13.10433	-0.1161227	0.0262804	-0.3521103	-0.1173702	-4.508462	-1.229136
13.1209	-0.1283462	0.02383572	-0.7377241	-0.1475446	-8.065133	-0.6310981
13.13752	-0.1307909	0.02139103	-0.147062	-0.1470623	17.79498	0.01452916
13.15403	-0.1332355	0.02016868	-0.1480814	-0.07404082	-0.03076832	2.20392
13.1706	-0.1381249	0.01894634	-0.2950559	-0.07376385	-4.442986	0.008372643
13.18717	-0.1430143	0.01650165	-0.2949879	-0.1474939	0.002049107	-2.224408
13.20373	-0.1442367	0.01527931	-0.07382322	-0.07382327	6.675149	2.223511
13.22037	-0.145459	0.01527931	-0.07345514	0	0.01108733	2.223703
13.23686	-0.145459	0.01527931	0	0	2.217136	0
13.27965	-0.145459	0.01527931	0	0	0	0
13.32839	-0.145459	0.01527931	0	0	0	0
13.34526	-0.145459	0.01527931	0	0	0	0
13.36152	-0.145459	0.01527931	0	0	0	0
13.37809	-0.145459	0.01527931	0	0	0	0
13.39483	-0.145459	0.01527931	0	0	0	0
13.43172	-0.145459	0.01527931	0	0	0	0
13.44856	-0.145459	0.01527931	0	0	0	0
13.46558	-0.145459	0.01527931	0	0	0	0
13.48142	-0.145459	0.01527931	0	0	0	0
13.49799	-0.145459	0.01527931	0	0	0	0
13.51456	-0.145459	0.01527931	0	0	0	0
13.53123	-0.145459	0.01527931	0	0	0	0
13.54769	-0.145459	0.01527931	0	0	0	0
13.56779	-0.145459	0.01527931	0	0	0	0
13.58447	-0.1442367	0.01527931	0.07327875	0	1.992696	0
13.60099	-0.1430143	0.01527931	0.07396381	-5.635423E-08	0.02062976	-1.697062E-06
13.61761	-0.1405696	0.01527931	0.1471051	5.604054E-08	2.206709	3.391007E-06
13.63406	-0.1356802	0.01527931	0.2973136	-5.663202E-08	4.542977	-3.407722E-06
13.6507	-0.1295685	0.01527931	0.3672555	5.596347E-08	2.113895	3.403036E-06
13.66737	-0.1234568	0.01527931	0.3666882	-5.587701E-08	-0.01703285	-3.357667E-06
13.68376	-0.1124557	0.01527931	0.6710188	5.680661E-08	9.204852	3.408254E-06
13.70083	-0.1075663	0.01650165	0.28645	0.07161257	-11.4922	2.14002
13.77516	-0.1026769	0.017724	0.06577818	0.01644455	-2.414349	-0.6035879
13.79173	-0.0770077	0.02505806	1.549131	0.4426087	16.31826	4.688204
13.80848	-0.07456302	0.02628041	0.1459401	0.07297015	-42.11082	-11.09313
13.82486	-0.07211833	0.02750275	0.1492197	0.07460985	0.09897932	0.04948629
13.84175	-0.07089598	0.0287251	0.07240984	0.0724094	-2.309088	-0.06615091
13.858	-0.06967364	0.02994744	0.07519617	0.07519629	0.08408679	0.08410366
13.91465	-0.06967364	0.02994744	0	0	-1.031433	-1.031434
13.93122	-0.06845129	0.03239213	0.07377693	0.1475533	1.007642	2.015277
13.94779	-0.06845129	0.03239213	0	0	-2.226464	-4.452911
13.96435	-0.06845129	0.03239213	0	0	0	0
13.98101	-0.06845129	0.03239213	0	0	0	0
13.99749	-0.06845129	0.03239213	0	0	0	0
14.01417	-0.06845129	0.03239213	0	0	0	0
14.0664	-0.06845129	0.03239213	0	0	0	0
14.08312	-0.06845129	0.03239213	0	0	0	0
14.09953	-0.06845129	0.03239213	0	0	0	0
14.11652	-0.06845129	0.03239213	0	0	0	0
14.13296	-0.06845129	0.03239213	0	0	0	0
14.1495	-0.06845129	0.03239213	0	0	0	0
14.1658	-0.06845129	0.03239213	0	0	0	0
14.18237	-0.06845129	0.03239213	0	0	0	0
14.21813	-0.06845129	0.03239213	0	0	0	0
14.2347	-0.06845129	0.03239213	0	0	0	0
14.25127	-0.06845129	0.03239213	0	0	0	0
14.26814	-0.06845129	0.03239213	0	0	0	0
14.28441	-0.06845129	0.03239213	0	0	0	0
14.30097	-0.06845129	0.03239213	0	0	0	0
14.31754	-0.06845129	0.03239213	0	0	0	0
14.3341	-0.06845129	0.03239213	0	0	0	0
14.36493	-0.06845129	0.03239213	0	0	0	0
14.3815	-0.06845129	0.03239213	0	0	0	0
14.39807	-0.06845129	0.03239213	0	0	0	0
14.41463	-0.06845129	0.03239213	0	0	0	0
14.43121	-0.06845129	0.03239213	0	0	0	0
14.44777	-0.06845129	0.03239213	0	0	0	0
14.46433	-0.06845129	0.03239213	0	0	0	0
14.4809	-0.06845129	0.03239213	0	0	0	0
14.49783	-0.06845129	0.03239213	0	0	0	0
14.51879	-0.06845129	0.03239213	0	0	0	0
14.53536	-0.06845129	0.03239213	0	0	0	0
14.55203	-0.06845129	0.03239213	0	0	0	0
14.56862	-0.06845129	0.03239213	0	0	0	0
14.58506	-0.06845129	0.03239213	0	0	0	0
14.60164	-0.06845129	0.03239213	0	0	0	0
14.61847	-0.06845129	0.03239213	0	0	0	0
14.63476	-0.06845129	0.03239213	0	0	0	0
14.65133	-0.06845129	0.03239213	0	0	0	0
14.71295	-0.06845129	0.03239213	0	0	0	0
14.72952	-0.06845129	0.03239213	0	0	0	0
14.74629	-0.06845129	0.03239213	0	0	0	0
14.76266	-0.06845129	0.03239213	0	0	0	0
14.77922	-0.06845129	0.03239213	0	0	0	0
14.79579	-0.06845129	0.03239213	0	0	0	0
14.81286	-0.06845129	0.03239213	0	0	0	0
14.92423	-0.06845129	0.03239213	0	0	0	0
14.9408	-0.06845129	0.03239213	0	0	0	0
14.95737	-0.06845129	0.03239213	0	0	0	0
14.97396	-0.06845129	0.03239213	0	0	0	0
15.01896	-0.06845129	0.03239213	0	0	0	0
15.03595	-0.06845129	0.03239213	0	0	0	0
15.05209	-0.06845129	0.03239213	0	0	0	0
15.06866	-0.06845129	0.03239213	0	0	0	0
15.08541	-0.06845129	0.03239213	0	0	0	0
15.1018	-0.06845129	0.03239213	0	0	0	0
15.11837	-0.06845129	0.03239213	0	0	0	0
15.13505	-0.06845129	0.03239213	0	0	0	0
15.18262	-0.06845129	0.03239213	0	0	0	0
15.19919	-0.06845129	0.03239213	0	0	0	0
15.21589	-0.06845129	0.03239213	0	0	0	0
15.23232	-0.06845129	0.03239213	0	0	0	0
15.24889	-0.06845129	0.03239213	0	0	0	0
15.26556	-0.06845129	0.03239213	0	0	0	0
15.28202	-0.06845129	0.03239213	0	0	0	0
15.2988	-0.06845129	0.03239213	0	0	0	0
15.33651	-0.06845129	0.03239213	0	0	0	0
15.35321	-0.06845129	0.03239213	0	0	0	0
15.36965	-0.06845129	0.03239213	0	0	0	0
15.38621	-0.06845129	0.03239213	0	0	0	0
15.40285	-0.06845129	0.03239213	0	0	0	0
15.41935	-0.06845129	0.03239213	0	0	0	0
15.43591	-0.06845129	0.03239213	0	0	0	0
15.45248	-0.06845129	0.03239213	0	0	0	0
15.49054	-0.06845129	0.03239213	0	0	0	0
15.5071	-0.06845129	0.03239213	0	0	0	0
15.52367	-0.06845129	0.03239213	0	0	0	0
15.54024	-0.06845129	0.03239213	0	0	0	0
15.55681	-0.06845129	0.03239213	0	0	0	0
15.57341	-0.06845129	0.03239213	0	0	0	0
15.59003	-0.06845129	0.03239213	0	0	0	0
15.60651	-0.06845129	0.03239213	0	0	0	0
15.64982	-0.06845129	0.03239213	0	0	0	0
15.66699	-0.06845129	0.03239213	0	0	0	0
15.68295	-0.06845129	0.03239213	0	0	0	0
15.69952	-0.06845129	0.03239213	0	0	0	0
15.71635	-0.06845129	0.03239213	0	0	0	0
15.73266	-0.06845129	0.03239213	0	0	0	0
15.74922	-0.06845129	0.03239213	0	0	0	0
15.76585	-0.06845129	0.03239213	0	0	0	0
15.80263	-0.06722895	0.03239213	0.03324025	1.013058E-07	0.6223873	1.89684E-06
15.81919	-0.04522675	0.03483682	1.328056	0.1475614	24.27478	2.766432
15.83586	-0.01711282	0.0397262	1.687344	0.2934512	10.81253	4.390453
15.85233	0.08311942	0.05806137	6.084706	1.113056	132.7126	24.73572
15.8689	0.2102433	0.08006357	7.672327	1.327903	48.04863	6.502237
15.88546	0.3471458	0.1069551	8.263931	1.623272	17.85415	8.914009
15.90203	0.4816662	0.1341553	8.118731	1.641619	-4.382012	0.5536876
15.9186	0.4820858	0.1326397	0.02533215	-0.09150629	-244.2733	-52.30883
15.9498	0.4811763	0.1359019	-0.02914947	0.1045588	-1.140669	4.104968
15.96637	0.4770678	0.1496873	-0.2479621	0.831993	-4.58068	15.2283
15.98293	0.4759945	0.1530661	-0.06478263	0.2039362	5.527891	-18.95315
15.9995	0.4753047	0.1551951	-0.04164088	0.1285134	0.6984195	-2.276266
16.01607	0.4736296	0.1602344	-0.1011092	0.304173	-1.794809	5.30157
16.03267	0.4722688	0.1642015	-0.08197245	0.2389828	0.5769832	-1.965522
16.05006	0.4707897	0.1683956	-0.08503118	0.2411098	-0.08997679	0.06257057
16.06577	0.469368	0.1723184	-0.09051305	0.2497476	-0.1656052	0.2609447
16.08234	0.4676146	0.1770214	-0.1058262	0.2838428	-0.4744427	1.056356
16.11927	0.4661629	0.1808095	-0.03930986	0.1025814	1.243359	-3.388233
16.13583	0.4620925	0.1909725	-0.2456899	0.6134369	-3.857902	9.54952
16.1524	0.4612775	0.1929329	-0.04919168	0.1183162	5.929986	-14.94191
16.16946	0.4612775	0.1929329	0	0	1.462716	-3.518134
16.18554	0.4603775	0.1950706	-0.05599855	0.1330137	-1.690137	4.014592
16.20211	0.4591895	0.197851	-0.07169372	0.1677889	-0.4808222	1.06534
16.2187	0.4576373	0.2014152	-0.09355959	0.2148393	-0.6593818	1.418839
16.23527	0.4556819	0.2058007	-0.117985	0.2646189	-0.7365253	1.501055
16.27763	0.4539064	0.209688	-0.04191643	0.09176742	1.290758	-2.933004
16.2942	0.4481446	0.2217352	-0.3477813	0.727166	-5.190525	10.78271
16.31076	0.4476845	0.2226626	-0.02777278	0.05597909	9.657875	-20.25646
16.32733	0.4463659	0.2252942	-0.07958748	0.1588422	-1.563771	3.104414
16.34394	0.445092	0.2278006	-0.07671613	0.1509394	0.08655784	-0.2382332
16.36047	0.4447801	0.2284091	-0.01886789	0.03680924	1.745662	-3.444057
16.37704	0.444306	0.2293298	-0.02861615	0.05557625	-0.2945251	0.5670095
16.3936	0.4444016	0.2291446	0.005765384	-0.01117909	1.037696	-2.014796
16.43277	0.4446478	0.2286665	0.006286978	-0.01220532	0.0093582	-0.01841217
16.4497	0.4448911	0.2281927	0.01437	-0.02798489	0.1440802	-0.2812715
16.46591	0.4450251	0.2279314	0.008266758	-0.01612156	-0.1841856	0.3580155
16.48248	0.4451593	0.2276691	0.00809852	-0.01583277	-0.005133574	0.008811967
16.49909	0.4451529	0.2276815	-0.0003802663	0.0007434924	-0.2555226	0.4995537
16.51561	0.4456996	0.2266095	0.03309014	-0.06488858	1.010139	-1.98078
16.53218	0.4462453	0.2255329	0.03294094	-0.06498335	-0.004509515	-0.002864103
16.54874	0.4465202	0.2249882	0.01659459	-0.03288247	-0.4933337	0.9688062
16.58882	0.4465181	0.2249924	-5.353829E-05	0.000106333	-0.2938959	0.5823643
16.60539	0.4467913	0.2244494	0.01649206	-0.03277544	0.2920858	-0.5804748
16.62196	0.4469309	0.2241715	0.008422318	-0.01677628	-0.2435452	0.4828557
16.6386	0.446786	0.2244601	-0.00870702	0.01734509	-0.5158065	1.027478
16.6551	0.4464934	0.2250413	-0.01772941	0.03522579	-0.2722492	0.5395474
16.67166	0.4463421	0.2253413	-0.009134975	0.01811071	0.2599491	-0.5176665
16.68823	0.4460394	0.2259398	-0.01826904	0.03612169	-0.2756824	0.5436035
16.70479	0.4457353	0.2265393	-0.01836351	0.03619264	-0.002851432	0.002141455
16.77775	0.4454326	0.2271338	-0.004148067	0.008149084	0.1587904	-0.3132542
16.79433	0.4451206	0.2277447	-0.01882732	0.0368572	-0.1639503	0.3206365
16.81962	0.4451206	0.2277447	0	0	0.4497214	-0.8803949
16.83619	0.4451206	0.2277447	0	0	0	0
16.85275	0.4451206	0.2277447	0	0	0	0
16.91607	0.4451206	0.2277447	0	0	0	0
16.93264	0.4451206	0.2277447	0	0	0	0
16.94921	0.4451206	0.2277447	0	0	0	0
16.96578	0.4451206	0.2277447	0	0	0	0
16.98234	0.4451206	0.2277447	0	0	0	0
16.99891	0.4451206	0.2277447	0	0	0	0
17.01553	0.4451206	0.2277447	0	0	0	0
17.08062	0.4451206	0.2277447	0	0	0	0
17.09719	0.4451206	0.2277447	0	0	0	0
17.11375	0.4451206	0.2277447	0	0	0	0
17.13032	0.4451206	0.2277447	0	0	0	0
17.14689	0.4451206	0.2277447	0	0	0	0
17.16345	0.4451206	0.2277447	0	0	0	0
17.18002	0.4451206	0.2277447	0	0	0	0
17.25496	0.4451206	0.2277447	0	0	0	0
17.27153	0.4451206	0.2277447	0	0	0	0
17.2881	0.4451206	0.2277447	0	0	0	0
17.30467	0.4451206	0.2277447	0	0	0	0
17.32123	0.4451206	0.2277447	0	0	0	0
17.33782	0.4451206	0.2277447	0	0	0	0
17.36681	0.4451206	0.2277447	0	0	0	0
17.43165	0.4451206	0.2277447	0	0	0	0
17.46253	0.4451206	0.2277447	0	0	0	0
17.48221	0.4451206	0.2277447	0	0	0	0
17.49878	0.4451206	0.2277447	0	0	0	0
17.52695	0.4451206	0.2277447	0	0	0	0
17.54352	0.4451206	0.2277447	0	0	0	0
17.56009	0.4451206	0.2277447	0	0	0	0
17.5767	0.4451206	0.2277447	0	0	0	0
17.59322	0.4449666	0.2280454	-0.009320144	0.01820541	-0.2812987	0.5494719
17.60979	0.4454147	0.2271689	0.02704604	-0.05290302	1.099242	-2.149397
17.62635	0.4463159	0.2253933	0.05439428	-0.1071813	0.8253717	-1.638121
17.64292	0.4469137	0.2242055	0.03608717	-0.07169493	-0.5525098	1.07098
17.65949	0.4482616	0.2214984	0.08135758	-0.1633996	1.366264	-2.767653
17.72421	0.4499026	0.2181461	0.02535419	-0.05179577	-0.6889393	1.372922
17.74078	0.4567291	0.2034662	0.4120496	-0.8860775	4.757027	-10.26312
17.75735	0.4574674	0.2018009	0.04456165	-0.1005192	-11.09081	23.7082
17.77396	0.4596335	0.1968174	0.1303404	-0.2998716	2.584792	-6.007132
17.79048	0.4626595	0.189595	0.1832198	-0.4373042	1.595901	-4.147725
17.80736	0.4647606	0.1843844	0.1244616	-0.3086507	-1.75935	3.852171
17.82361	0.4669943	0.1786515	0.1374648	-0.3528198	0.3924832	-1.33318
17.9009	0.4691924	0.1727962	0.02843987	-0.07575674	-1.165541	2.961968
17.9179	0.4765067	0.1514641	0.4303459	-1.255096	4.262542	-12.50786
17.93404	0.4771505	0.1494235	0.0398926	-0.1264469	-11.78391	34.06271
17.9506	0.4784235	0.1452959	0.07683881	-0.2491401	1.12967	-3.751478
17.9672	0.479676	0.1411061	0.07547952	-0.2524892	-0.04099024	-0.1009945
17.98374	0.4812906	0.1354966	0.09761481	-0.3391393	0.6680443	-2.615103
18.04845	0.4821137	0.1325384	0.01271811	-0.04571284	-1.044843	3.611266
18.06502	0.48502	0.1214727	0.1754296	-0.6679247	2.001869	-7.655189
18.08158	0.4855309	0.1194143	0.03083266	-0.1242427	-4.363943	16.40836
18.09823	0.4862852	0.1163047	0.04532253	-0.1868402	0.4363004	-1.884856
18.11472	0.4864361	0.1156715	0.009152689	-0.03839828	-1.091671	4.480243
18.13128	0.4866334	0.1148385	0.01191213	-0.05028341	0.08347708	-0.3595426
18.14785	0.4869792	0.1133638	0.02086691	-0.08900997	0.2702559	-1.16877
18.21065	0.4871285	0.1127203	0.002377707	-0.01024799	-0.2329705	0.9924286
18.22721	0.4875143	0.11104	0.02328639	-0.1014217	0.2634568	-1.148821
18.24378	0.4875143	0.11104	0	0	-0.7027848	3.060914
18.26035	0.4875143	0.11104	0	0	0	0
18.28572	0.4875143	0.11104	0	0	0	0
18.30229	0.4875143	0.11104	0	0	0	0
18.36533	0.4875143	0.11104	0	0	0	0
18.3819	0.4875143	0.11104	0	0	0	0
18.39846	0.4875143	0.11104	0	0	0	0
18.41503	0.4875143	0.11104	0	0	0	0
18.4316	0.4875143	0.11104	0	0	0	0
18.44846	0.4875143	0.11104	0	0	0	0
18.46498	0.4875143	0.11104	0	0	0	0
18.49443	0.4875143	0.11104	0	0	0	0
18.51101	0.4875143	0.11104	0	0	0	0
18.52757	0.4875143	0.11104	0	0	0	0
18.54414	0.4875143	0.11104	0	0	0	0
18.56071	0.4875143	0.11104	0	0	0	0
18.57753	0.4875143	0.11104	0	0	0	0
18.59384	0.4875143	0.11104	0	0	0	0
18.6104	0.4875143	0.11104	0	0	0	0
18.62697	0.4875143	0.11104	0	0	0	0
18.65606	0.4875143	0.11104	0	0	0	0
18.67263	0.4875143	0.11104	0	0	0	0
18.68919	0.4875143	0.11104	0	0	0	0
18.70576	0.4875143	0.11104	0	0	0	0
18.72233	0.4875143	0.11104	0	0	0	0
18.7389	0.4875143	0.11104	0	0	0	0
18.7555	0.4875143	0.11104	0	0	0	0
18.77203	0.4875143	0.11104	0	0	0	0
18.78873	0.4875143	0.11104	0	0	0	0
18.82817	0.4875143	0.11104	0	0	0	0
18.84474	0.4879992	0.1088887	0.02927304	-0.1298525	0.5226461	-2.318409
18.86131	0.4883744	0.1071933	0.0226478	-0.1023356	-0.1999503	0.8304615
18.87787	0.4890317	0.1041539	0.03967232	-0.183457	0.5138011	-2.448251
18.89444	0.4895719	0.1015839	0.0326119	-0.1551422	-0.2130961	0.854592
18.91101	0.4898895	0.1000415	0.01916698	-0.09309971	-0.405792	1.872555
18.92757	0.4902036	0.09849045	0.01896589	-0.09363441	-0.006069237	-0.01613838
18.94423	0.4905483	0.09675951	0.02068367	-0.1038933	0.05169996	-0.3087601
19.00834	0.4908546	0.09519332	0.004779226	-0.02443205	-0.1969231	0.9838601
19.0249	0.4918113	0.09012011	0.05774558	-0.3062192	0.6565699	-3.493029
19.04147	0.4917818	0.09028097	-0.001780883	0.00970941	-1.796512	9.534746
19.05804	0.4919422	0.08940279	0.009683327	-0.05300735	0.3459905	-1.892796
19.07461	0.4919422	0.08940279	0	0	-0.2922266	1.599673
19.09138	0.4921012	0.08852373	0.009474488	-0.05240238	0.2841414	-1.571556
19.10774	0.4921012	0.08852373	0	0	-0.2859571	1.581598
19.17068	0.4921012	0.08852373	0	0	0	0
19.18724	0.4921012	0.08852373	0	0	0	0
19.20381	0.4921012	0.08852373	0	0	0	0
19.22038	0.4921012	0.08852373	0	0	0	0
19.23695	0.4921012	0.08852373	0	0	0	0
19.25351	0.4921012	0.08852373	0	0	0	0
19.27008	0.4921012	0.08852373	0	0	0	0
19.31001	0.4921012	0.08852373	0	0	0	0
19.33143	0.4921012	0.08852373	0	0	0	0
19.34799	0.4921012	0.08852373	0	0	0	0
19.36456	0.4921012	0.08852373	0	0	0	0
19.3812	0.4921012	0.08852373	0	0	0	0
19.39769	0.4921012	0.08852373	0	0	0	0
19.41426	0.4921012	0.08852373	0	0	0	0
