Time	Pos X	Pos Y	Vel X	Vel Y	Acc X	Acc Y
0.01648737	0.03789268	0.02016868	-0.0008423259	-0.0004483348	1.873115E-05	9.969808E-06
0.03988099	0.03789268	0.02016868	0	0	-1.873402E-05	-9.971332E-06
0.05817121	0.03789268	0.02016868	0	0	0	0
0.09001616	0.03789268	0.02016868	0	0	0	0
0.1065829	0.03789268	0.02016868	0	0	0	0
0.1231512	0.03789268	0.02016868	0	0	0	0
0.1397171	0.03789268	0.02016868	0	0	0	0
0.1563667	0.03789268	0.02016868	0	0	0	0
0.1840111	0.03789268	0.02016868	0	0	0	0
0.2012477	0.03789268	0.02016868	0	0	0	0
0.217148	0.03789268	0.02016868	0	0	0	0
0.2337147	0.03789268	0.02016868	0	0	0	0
0.2593652	0.03789268	0.02016868	0	0	0	0
0.2759351	0.03789268	0.02016868	0	0	0	0
0.2924994	0.03789268	0.02016868	0	0	0	0
0.3096961	0.03789268	0.02016868	0	0	0	0
0.3256352	0.03789268	0.02016868	0	0	0	0
0.3426223	0.03789268	0.02016868	0	0	0	0
0.3587722	0.03789268	0.02016868	0	0	0	0
0.3753385	0.03789268	0.02016868	0	0	0	0
0.391906	0.03789268	0.02016868	0	0	0	0
0.4316835	0.03789268	0.02016868	0	0	0	0
0.4482546	0.03789268	0.02016868	0	0	0	0
0.4655575	0.03789268	0.02016868	0	0	0	0
0.4813908	0.03789268	0.02016868	0	0	0	0
0.497952	0.03789268	0.02016868	0	0	0	0
0.514525	0.03789268	0.02016868	0	0	0	0
0.531295	0.03789268	0.02016868	0	0	0	0
0.5476564	0.03789268	0.02016868	0	0	0	0
0.5727941	0.03789268	0.02016868	0	0	0	0
0.5893616	0.03789268	0.02016868	0	0	0	0
0.6059311	0.03789268	0.02016868	0	0	0	0
0.6230051	0.03911503	0.02016868	0.07159112	0	2.127934	0
0.6390638	0.03911503	0.02016868	0	0	-2.160741	0
0.6556305	0.03911503	0.02016868	0	0	0	0
0.6721988	0.04033737	0.02016868	0.07377595	0	2.226526	0
0.6887639	0.04033737	0.02016868	0	0	-2.226631	0
0.7055935	0.04033737	0.02016868	0	0	0	0
0.7224827	0.04033737	0.02016868	0	0	0	0
0.739051	0.04033737	0.02016868	0	0	0	0
0.7557899	0.04033737	0.02016868	0	0	0	0
0.7721841	0.04033737	0.02016868	0	0	0	0
0.7887504	0.04033737	0.02016868	0	0	0	0
0.8054122	0.04033737	0.02016868	0	0	0	0
0.8218886	0.04033737	0.02016868	0	0	0	0
0.8504018	0.04033737	0.02016868	0	0	0	0
0.8828148	0.04033737	0.02016868	0	0	0	0
0.8993846	0.04033737	0.02016868	0	0	0	0
0.9159501	0.04033737	0.02016868	0	0	0	0
0.9325176	0.04033737	0.02016868	0	0	0	0
0.9490843	0.04033737	0.02016868	0	0	0	0
0.9656498	0.04033737	0.02016868	0	0	0	0
0.9822158	0.04033737	0.02016868	0	0	0	0
0.9992191	0.04033737	0.02016868	0	0	0	0
1.015352	0.04033737	0.02016868	0	0	0	0
1.065161	0.04033737	0.02016868	0	0	0	0
1.081729	0.04033737	0.02016868	0	0	0	0
1.098296	0.04033737	0.02016868	0	0	0	0
1.114864	0.04033737	0.02016868	0	0	0	0
1.131433	0.04033737	0.02016868	0	0	0	0
1.148174	0.04033737	0.02016868	0	0	0	0
1.164564	0.04033737	0.02016868	0	0	0	0
1.225436	0.04033737	0.02016868	0	0	0	0
1.242003	0.04033737	0.02016868	0	0	0	0
1.258573	0.04033737	0.02016868	0	0	0	0
1.27514	0.04033737	0.02016868	0	0	0	0
1.291819	0.04033737	0.02016868	0	0	0	0
1.308276	0.04033737	0.02016868	0	0	0	0
1.324843	0.04033737	0.02016868	0	0	0	0
1.360601	0.04033737	0.02016868	0	0	0	0
1.377676	0.04033737	0.02016868	0	0	0	0
1.393862	0.04033737	0.02016868	0	0	0	0
1.410307	0.04033737	0.02016868	0	0	0	0
1.426975	0.04033737	0.02016868	0	0	0	0
1.453966	0.04033737	0.02016868	0	0	0	0
1.470537	0.04033737	0.02016868	0	0	0	0
1.487437	0.04033737	0.02016868	0	0	0	0
1.524016	0.04033737	0.02016868	0	0	0	0
1.540586	0.04033737	0.02016868	0	0	0	0
1.55715	0.04033737	0.02016868	0	0	0	0
1.573718	0.04033737	0.02016868	0	0	0	0
1.590283	0.04033737	0.02016868	0	0	0	0
1.607417	0.04033737	0.02016868	0	0	0	0
1.62345	0.04033737	0.02016868	0	0	0	0
1.639988	0.04033737	0.02016868	0	0	0	0
1.678979	0.04033737	0.02016868	0	0	0	0
1.69555	0.04033737	0.02016868	0	0	0	0
1.712306	0.04033737	0.02016868	0	0	0	0
1.72868	0.04033737	0.02016868	0	0	0	0
1.745247	0.04033737	0.02016868	0	0	0	0
1.761879	0.04033737	0.02016868	0	0	0	0
1.77838	0.04033737	0.02016868	0	0	0	0
1.79495	0.04033737	0.02016868	0	0	0	0
1.813212	0.04033737	0.02016868	0	0	0	0
1.829782	0.04033737	0.02016868	0	0	0	0
1.846477	0.04033737	0.02016868	0	0	0	0
1.862919	0.04033737	0.02016868	0	0	0	0
1.879483	0.04033737	0.02016868	0	0	0	0
1.896403	0.04033737	0.02016868	0	0	0	0
1.91262	0.04033737	0.02016868	0	0	0	0
1.929557	0.04033737	0.02016868	0	0	0	0
1.945751	0.04033737	0.02016868	0	0	0	0
1.988902	0.04033737	0.02016868	0	0	0	0
2.00547	0.04033737	0.02016868	0	0	0	0
2.022152	0.04033737	0.02016868	0	0	0	0
2.038605	0.04033737	0.02016868	0	0	0	0
2.055171	0.04033737	0.02016868	0	0	0	0
2.071739	0.04033737	0.02016868	0	0	0	0
2.088304	0.04033737	0.02016868	0	0	0	0
2.104871	0.04278206	0.02016868	0.1475638	0	4.453837	0
2.145647	0.04644909	0.02016868	0.08993212	0	-1.005043	0
2.162634	0.05989487	0.02016868	0.79153	0	12.14622	0
2.178785	0.06111722	0.02016868	0.07568394	-1.15329E-07	-21.6021	-3.480285E-06
2.195348	0.06356192	0.02016868	0.147598	1.12457E-07	2.198273	6.962974E-06
2.211917	0.06356192	0.02139103	0	0.07377128	-4.454773	2.226547
2.228572	0.06478426	0.02139103	0.0733931	0	2.209032	-2.220414
2.245543	0.0660066	0.02139103	0.07202387	0	-0.0407193	0
2.261616	0.0660066	0.02139103	0	0	-2.179597	0
2.299504	0.06845129	0.02139103	0.06452551	0	1.195796	0
2.316072	0.07089598	0.02139103	0.1475496	0	1.524616	0
2.33264	0.07089598	0.02139103	0	0	-4.452768	0
2.349205	0.07334068	0.02261337	0.1475831	0.07379157	4.454292	2.227146
2.36653	0.07456301	0.02261337	0.0705516	-2.15019E-07	-2.272971	-2.177375
2.38234	0.07578536	0.02261337	0.07731491	2.356285E-07	0.204111	1.360018E-05
2.399219	0.0794524	0.02383572	0.2172655	0.07242167	4.281386	2.215526
2.415632	0.08189708	0.02383572	0.1489397	0	-2.052315	-2.175344
2.456646	0.08311942	0.02505806	0.02980308	0.02980313	-2.074542	0.5189661
2.473215	0.08923115	0.02750275	0.3688833	0.1475533	5.888635	2.044908
2.489786	0.09045349	0.02750275	0.07376374	-1.124036E-07	-8.905443	-4.45253
2.506353	0.09045349	0.02750275	0	0	-2.225922	3.391933E-06
2.522921	0.09412052	0.02994744	0.2213394	0.1475598	6.679941	4.453299
2.539488	0.09412052	0.02994744	0	0	-6.680037	-4.453363
2.55607	0.09534287	0.03116979	0.0737154	0.07371518	2.223759	2.223752
2.572742	0.09656522	0.03239213	0.07331648	0.07331648	-0.01199607	-0.01198935
2.610244	0.09900991	0.03361448	0.06518739	0.0325937	-0.1500534	-0.7516944
2.626815	0.1002323	0.03605916	0.07376692	0.1475338	0.1586661	2.125654
2.643592	0.1002323	0.03605916	0	0	-2.212076	-4.424153
2.660002	0.1002323	0.03605916	0	0	0	0
2.676514	0.09778755	0.03728151	-0.1480545	0.07402704	-4.497061	2.248524
2.69308	0.09656522	0.03728151	-0.07378558	0	2.245254	-2.237941
2.709648	0.09167583	0.03728151	-0.2951111	0	-6.679713	0
2.726213	0.08556411	0.03728151	-0.3689572	2.248913E-07	-2.228792	6.787576E-06
2.74278	0.07823005	0.03605916	-0.4426789	-0.07377989	-2.22507	-2.226832
2.78734	0.06845129	0.03483682	-0.2194516	-0.02743149	3.651835	0.758226
2.803908	0.01222344	0.02750275	-3.393773	-0.4426659	-51.92917	-6.792879
2.820477	0	0.02750275	-0.7377449	-1.124198E-07	80.1539	13.35882
2.837536	-0.02566923	0.02750275	-1.504704	0	-22.80716	3.343042E-06
2.853612	-0.05867254	0.02994744	-2.052943	0.1520699	-16.54543	4.589345
2.881428	-0.09778755	0.03483682	-1.406239	0.1757799	14.73419	0.5401978
2.897998	-0.1857964	0.04583792	-5.311382	0.6639225	-87.983	10.99787
2.919794	-0.1857964	0.04583792	0	0	138.4387	-17.30483
2.937012	-0.2566923	0.05928371	-4.117638	0.7809315	-105.5423	20.01665
2.952931	-0.2713605	0.0617284	-0.9213817	0.1535636	96.45486	-18.93237
2.969497	-0.2958074	0.06661778	-1.475724	0.295145	-17.06419	4.358266
2.986065	-0.3202542	0.07395184	-1.475553	0.4426657	0.005180825	4.452247
3.002632	-0.3385894	0.07884122	-1.106746	0.2951318	11.13051	-4.452549
3.019197	-0.3544799	0.08495294	-0.9592893	0.3689576	4.450647	2.228259
3.035764	-0.372815	0.092287	-1.106743	0.4426975	-4.450539	2.225667
3.052332	-0.3948173	0.09962107	-1.327942	0.442647	-6.675615	-0.001523601
3.08862	-0.4119301	0.1032881	-0.4715902	0.1010551	16.20154	-6.462665
3.105463	-0.4229312	0.1057328	-0.6531698	0.1451488	-3.417638	0.8299194
3.121754	-0.4229312	0.1057328	0	0	19.7127	-4.380601
3.138321	-0.4229312	0.1057328	0	0	0	0
3.15489	-0.4229312	0.1057328	0	0	0	0
3.171457	-0.4229312	0.1057328	0	0	0	0
3.188024	-0.4229312	0.1057328	0	0	0	0
3.204987	-0.4229312	0.1057328	0	0	0	0
3.221157	-0.4229312	0.1057328	0	0	0	0
3.263162	-0.4229312	0.1057328	0	0	0	0
3.27973	-0.4229312	0.1057328	0	0	0	0
3.29636	-0.4229312	0.1057328	0	0	0	0
3.312864	-0.4229312	0.1057328	0	0	0	0
3.329603	-0.4229312	0.1057328	0	0	0	0
3.346004	-0.4229312	0.1057328	0	0	0	0
3.36287	-0.4229312	0.1057328	0	0	0	0
3.379135	-0.4217089	0.1057328	0.07515318	0	2.268389	0
3.455161	-0.4204865	0.1069551	0.01607796	0.01607796	-0.6400998	0.1742101
3.472103	-0.3813715	0.1081775	2.308757	0.07214898	24.66095	0.6031218
3.488389	-0.369148	0.1045104	0.7505344	-0.2251601	-46.89429	-8.94744
3.504864	-0.3385894	0.09839873	1.854798	-0.3709594	33.70583	-4.45028
3.521641	-0.3055861	0.092287	1.967171	-0.3642911	3.379373	0.2005336
3.538001	-0.2664711	0.08739763	2.390922	-0.2988652	12.7879	1.974416
3.580369	-0.2114656	0.07517419	1.298303	-0.2885117	-18.60504	0.1762993
3.596948	-0.1283462	0.05194964	5.013419	-1.400808	63.02509	-18.86956
3.613507	-0.1173451	0.04828261	0.6643621	-0.2214539	-131.2397	35.58889
3.630072	-0.09412053	0.03972619	1.402018	-0.5165333	22.26955	-8.908334
3.646688	-0.07211833	0.02994744	1.32413	-0.5885022	-2.34733	-2.16895
3.663465	-0.05011612	0.02139103	1.311448	-0.5100072	-0.3797997	2.350614
3.680452	-0.03178096	0.01161227	1.079359	-0.5756583	-6.873818	-1.944403
3.696379	-0.01344579	0.001833517	1.151247	-0.6139981	2.184141	-1.164869
3.731968	0.001222345	-0.00550055	0.4121455	-0.2060728	-14.34701	7.918412
3.748539	0.0220022	-0.01650165	1.254022	-0.6638941	16.14019	-8.777205
3.765106	0.02444689	-0.01894634	0.1475659	-0.1475658	-33.39003	15.58147
3.781672	0.02811392	-0.02261337	0.2213554	-0.2213555	2.227066	-2.227073
3.798238	0.03178096	-0.02505806	0.2213554	-0.1475702	0	2.226974
3.814805	0.03544799	-0.02628041	0.2213458	-0.0737819	-0.0002882796	2.227014
3.831535	0.03789268	-0.02750275	0.1461275	-0.07306385	-2.259024	0.02156511
3.847939	0.04033737	-0.02994744	0.1490286	-0.1490284	0.08755775	-2.292648
3.881819	0.04155971	-0.03116979	0.0360792	-0.03607931	-2.246245	2.246238
3.898387	0.04889378	-0.03728151	0.4426468	-0.3688724	8.059114	-6.596732
3.914955	0.04889378	-0.03728151	0	0	-13.35824	11.13187
3.931522	0.05011612	-0.03728151	0.07378285	0	2.226755	0
3.94809	0.05133847	-0.03850386	0.07378011	-0.07377989	-8.252384E-05	-2.226697
3.964656	0.05133847	-0.03850386	0	0	-2.226704	2.226697
3.981221	0.05133847	-0.03850386	0	0	0	0
3.99779	0.05133847	-0.03850386	0	0	0	0
4.014355	0.05133847	-0.03850386	0	0	0	0
4.05962	0.05133847	-0.03850386	0	0	0	0
4.091709	0.05133847	-0.03850386	0	0	0	0
4.10828	0.05133847	-0.03850386	0	0	0	0
4.125151	0.05133847	-0.03850386	0	0	0	0
4.141413	0.05133847	-0.03850386	0	0	0	0
4.16042	0.05133847	-0.03850386	0	0	0	0
4.18267	0.05133847	-0.03850386	0	0	0	0
4.19937	0.05133847	-0.03850386	0	0	0	0
4.215807	0.05133847	-0.03850386	0	0	0	0
4.232376	0.05133847	-0.03850386	0	0	0	0
4.249268	0.05133847	-0.03850386	0	0	0	0
4.265746	0.05133847	-0.03850386	0	0	0	0
4.282073	0.05133847	-0.03850386	0	0	0	0
4.298731	0.05133847	-0.03850386	0	0	0	0
4.315573	0.05133847	-0.03850386	0	0	0	0
4.332208	0.05133847	-0.03850386	0	0	0	0
4.367431	0.05133847	-0.03850386	0	0	0	0
4.383999	0.05133847	-0.03850386	0	0	0	0
4.400566	0.05133847	-0.03850386	0	0	0	0
4.417725	0.05133847	-0.03850386	0	0	0	0
4.433701	0.05133847	-0.03850386	0	0	0	0
4.450417	0.05133847	-0.03850386	0	0	0	0
4.466835	0.05133847	-0.03850386	0	0	0	0
4.483402	0.05133847	-0.03850386	0	0	0	0
4.499972	0.05133847	-0.03850386	0	0	0	0
4.532509	0.05133847	-0.03850386	0	0	0	0
4.549078	0.05133847	-0.03850386	0	0	0	0
4.565644	0.05133847	-0.03850386	0	0	0	0
4.582211	0.05133847	-0.03850386	0	0	0	0
4.599102	0.05133847	-0.03850386	0	0	0	0
4.615346	0.05133847	-0.03850386	0	0	0	0
4.631915	0.05133847	-0.03850386	0	0	0	0
4.648482	0.05133847	-0.03850386	0	0	0	0
4.665048	0.05133847	-0.03850386	0	0	0	0
4.69535	0.05133847	-0.03850386	0	0	0	0
4.712791	0.05133847	-0.03850386	0	0	0	0
4.729045	0.05133847	-0.03850386	0	0	0	0
4.745053	0.05133847	-0.03850386	0	0	0	0
4.761621	0.05133847	-0.03850386	0	0	0	0
4.778221	0.05133847	-0.03850386	0	0	0	0
4.794754	0.05133847	-0.03850386	0	0	0	0
4.811323	0.05133847	-0.03850386	0	0	0	0
4.82789	0.05133847	-0.03850386	0	0	0	0
4.89025	0.05133847	-0.03850386	0	0	0	0
4.906817	0.05133847	-0.03850386	0	0	0	0
4.923389	0.05133847	-0.03850386	0	0	0	0
4.940063	0.05133847	-0.03850386	0	0	0	0
4.956522	0.05133847	-0.03850386	0	0	0	0
4.973089	0.05133847	-0.03850386	0	0	0	0
4.990036	0.05133847	-0.03850386	0	0	0	0
5.021558	0.05133847	-0.03850386	0	0	0	0
5.038126	0.05133847	-0.04094854	-2.248525E-07	-0.1475574	-4.675616E-06	-3.068331
5.054694	0.05133847	-0.04094854	0	0	6.785769E-06	4.4531
5.07126	0.05133847	-0.04094854	0	0	0	0
5.088523	0.05133847	-0.04094854	0	0	0	0
5.104522	0.05133847	-0.04094854	0	0	0	0
5.120962	0.05133847	-0.04094854	0	0	0	0
5.137529	0.05133847	-0.04094854	0	0	0	0
5.154095	0.05133847	-0.04094854	0	0	0	0
5.175507	0.05133847	-0.04094854	0	0	0	0
5.192078	0.05133847	-0.04094854	0	0	0	0
5.208727	0.05133847	-0.04094854	0	0	0	0
5.22521	0.05133847	-0.04094854	0	0	0	0
5.241777	0.05133847	-0.04094854	0	0	0	0
5.258344	0.05133847	-0.04094854	0	0	0	0
5.274911	0.05133847	-0.04094854	0	0	0	0
5.291934	0.05133847	-0.04094854	0	0	0	0
5.308044	0.05133847	-0.04094854	0	0	0	0
5.350237	0.05133847	-0.04094854	0	0	0	0
5.366804	0.05133847	-0.04094854	0	0	0	0
5.383405	0.05133847	-0.04094854	0	0	0	0
5.400548	0.05133847	-0.04094854	0	0	0	0
5.416645	0.05133847	-0.04094854	0	0	0	0
5.433074	0.05133847	-0.04094854	0	0	0	0
5.450208	0.05133847	-0.04094854	0	0	0	0
5.466304	0.05256082	-0.04094854	0.07594067	0	2.285251	0
5.541008	0.05256082	-0.04094854	0	0	-0.8363528	0
5.557576	0.05256082	-0.04094854	0	0	0	0
5.574143	0.05256081	-0.03972619	-2.248525E-07	0.07377905	-6.785866E-06	2.226592
5.590936	0.05256081	-0.03972619	0	0	6.740182E-06	-2.211602
5.607288	0.05256081	-0.03972619	0	0	0	0
5.623847	0.05256081	-0.03850385	0	0.07381897	0	2.242967
5.666052	0.05256081	-0.03850385	0	0	0	-1.256204
5.682619	0.05256081	-0.03850385	0	0	0	0
5.699186	0.05256081	-0.03850385	0	0	0	0
5.715752	0.05256081	-0.03850385	0	0	0	0
5.732326	0.05256081	-0.03850385	0	0	0	0
5.748892	0.05256081	-0.03850385	0	0	0	0
5.76546	0.05256081	-0.03850385	0	0	0	0
5.782025	0.05256081	-0.03850385	0	0	0	0
5.826989	0.05256081	-0.03850385	0	0	0	0
5.843556	0.05256081	-0.03850385	0	0	0	0
5.860123	0.05256081	-0.03850385	0	0	0	0
5.877248	0.05256081	-0.03850385	0	0	0	0
5.89338	0.05256081	-0.03850385	0	0	0	0
5.90983	0.05256081	-0.03850385	0	0	0	0
5.926395	0.05256081	-0.03850385	0	0	0	0
5.942961	0.05256081	-0.03850385	0	0	0	0
5.971822	0.05256081	-0.03850385	0	0	0	0
5.988389	0.05256081	-0.03850385	0	0	0	0
6.004957	0.05256081	-0.03850385	0	0	0	0
6.021811	0.05256081	-0.03850385	0	0	0	0
6.038564	0.05256081	-0.03850385	0	0	0	0
6.054659	0.05256081	-0.03850385	0	0	0	0
6.071523	0.05256081	-0.03850385	0	0	0	0
6.087793	0.05256081	-0.03850385	0	0	0	0
6.104359	0.05256081	-0.03850385	0	0	0	0
6.173432	0.05256081	-0.03850385	0	0	0	0
6.190001	0.05256081	-0.03850385	0	0	0	0
6.206568	0.05256081	-0.03850385	0	0	0	0
6.223136	0.05256081	-0.03850385	0	0	0	0
6.239703	0.05256081	-0.03850385	0	0	0	0
6.256266	0.05256081	-0.03850385	0	0	0	0
6.296916	0.05256081	-0.03850385	0	0	0	0
6.313483	0.05256081	-0.03850385	0	0	0	0
6.330171	0.05256081	-0.03850385	0	0	0	0
6.346621	0.05256081	-0.03850385	0	0	0	0
6.363191	0.05256081	-0.03850385	0	0	0	0
6.37996	0.05256081	-0.03850385	0	0	0	0
6.396321	0.05256081	-0.03850385	0	0	0	0
6.412889	0.05256081	-0.03850385	0	0	0	0
6.450399	0.05256081	-0.03850385	0	0	0	0
6.466968	0.05256081	-0.03850385	0	0	0	0
6.483534	0.05256081	-0.03850385	0	0	0	0
6.500567	0.05256081	-0.03850385	0	0	0	0
6.516669	0.05256081	-0.03850385	0	0	0	0
6.533237	0.05256081	-0.03850385	0	0	0	0
6.549805	0.05256081	-0.03850385	0	0	0	0
6.566372	0.05622785	-0.03605916	0.2213426	0.1475617	6.679941	4.453292
6.603114	0.05989488	-0.03483682	0.0998043	0.03326816	-2.279865	-2.143964
6.61985	0.07089598	-0.02994744	0.6573307	0.2921467	10.42529	4.84082
6.63625	0.07211833	-0.02994744	0.07453153	1.135736E-07	-17.5879	-8.816494
6.652816	0.07211833	-0.0287251	0	0.0737872	-2.260851	2.238269
6.669383	0.07334067	-0.02750275	0.07378285	0.07378296	2.226899	-0.000128177
6.686333	0.07823005	-0.02383572	0.2884647	0.2163486	6.405276	4.253608
6.702517	0.08434177	-0.02016868	0.3776435	0.2265859	2.691498	0.3089696
6.719087	0.08800881	-0.017724	0.2213044	0.1475362	-4.773137	-2.41344
6.754442	0.08800881	-0.017724	0	0	-4.261947	-2.841297
6.771009	0.08800881	-0.01161227	0	0.3689044	0	7.104864
6.787577	0.0880088	-0.006722894	-4.49705E-07	0.2951149	-1.357193E-05	-2.22694
6.804143	0.08800881	0.0006111722	4.497438E-07	0.4427106	2.714581E-05	4.454511
6.82071	0.08800881	0.01894634	0	1.106745	-1.357388E-05	20.04145
6.837321	0.08434177	0.04217089	-0.2207581	1.398134	-6.653778	8.78265
6.874313	0.08189709	0.06295075	-0.06608757	0.5617454	2.885499	-15.60348
6.903398	0.06845129	0.124068	-0.4622981	2.101354	-5.99626	23.30048
6.919965	0.06111723	0.1472925	-0.4426723	1.401796	0.4298974	-15.3236
6.936618	0.05745019	0.1546266	-0.2202086	0.4404162	6.696621	-28.93952
6.95339	0.04767143	0.1717394	-0.5830476	1.020333	-10.85552	17.35013
6.970086	0.0330033	0.1900746	-0.8785179	1.098147	-8.828379	2.325006
6.986234	0.01589048	0.2084097	-1.059743	1.135439	-5.517656	1.135388
7.002803	-0.01833517	0.2291896	-2.065686	1.254167	-30.74702	3.628972
7.01937	-0.0440044	0.2426354	-1.549398	0.8115889	15.58092	-13.35645
7.035937	-0.07089598	0.2548588	-1.623226	0.7378303	-2.228154	-2.226071
7.076135	-0.09412052	0.2658599	-0.5777491	0.2736709	18.4176	-8.176848
7.092706	-0.145459	0.280528	-3.098172	0.8851904	-44.39796	10.77209
7.109273	-0.1479037	0.2805281	-0.1475572	1.79882E-06	89.03948	-26.71197
7.126283	-0.1503484	0.280528	-0.1437227	-1.752074E-06	0.1141996	-0.0001057524
7.142407	-0.1589048	0.2744163	-0.5306548	-0.3790385	-11.6778	-11.43952
7.158974	-0.1674612	0.2536365	-0.5164818	-1.25431	0.4335471	-26.77409
7.175678	-0.1735729	0.2255226	-0.3658926	-1.683105	4.526225	-12.88818
7.192494	-0.1723506	0.1900746	0.07268864	-2.107974	13.08427	-12.6752
7.231878	-0.1637942	0.1472925	0.217257	-1.086284	2.57239	18.17954
7.248467	-0.1197898	0.0507273	2.652599	-5.820981	43.50918	-84.58887
7.265013	-0.1087887	0.03361447	0.6648698	-1.034242	-59.98805	144.4599
7.281579	-0.0904535	-0.0006111722	1.106808	-2.066042	13.34675	-31.16087
7.298148	-0.07334066	-0.03239213	1.032844	-1.918137	-2.232252	4.463792
7.314714	-0.05867254	-0.06295074	0.8853951	-1.844574	-4.449881	2.220057
7.331279	-0.0440044	-0.09350936	0.8855234	-1.844841	0.00387516	-0.008041766
7.347846	-0.02933627	-0.124068	0.8853705	-1.844521	-0.004616303	0.009657177
7.384521	-0.01222344	-0.1509596	0.4666136	-0.7332503	-7.865201	20.87217
7.401088	0.02077986	-0.2010757	1.992026	-3.024927	28.65043	-43.04248
7.417658	0.02566924	-0.2071874	0.2950725	-0.3688408	-51.20899	80.15277
7.434223	0.03789268	-0.2181885	0.7379358	-0.664143	13.36564	-8.912238
7.450794	0.05011613	-0.2291896	0.737639	-0.6638746	-0.008958124	0.008101885
7.467684	0.06356192	-0.2389683	0.7960777	-0.5789654	1.746468	2.53755
7.483923	0.08067474	-0.2499695	1.053768	-0.6774231	7.778237	-2.971889
7.50049	0.09167583	-0.2573035	0.6640657	-0.4427098	-11.87903	7.154602
7.536382	0.1014546	-0.2634152	0.2724459	-0.1702791	-7.465288	5.193235
7.554418	0.1173451	-0.276861	0.8810477	-0.7455006	11.28537	-10.6664
7.571454	0.1197898	-0.2780834	0.1435059	-0.07175446	-21.02974	19.21071
7.587559	0.1210121	-0.2793057	0.07589749	-0.07589749	-2.040044	-0.1250133
7.604122	0.1222344	-0.2805281	0.07379939	-0.07379984	-0.06422443	0.06421074
7.620689	0.1234568	-0.2817504	0.07378072	-0.07378072	-0.0005635695	0.0005770628
7.637258	0.1246791	-0.2829728	0.07377525	-0.07377435	-0.0001650394	0.0001922461
7.654545	0.1246791	-0.2829728	0	0	-2.179064	2.179038
7.679288	0.1246791	-0.2829728	0	0	0	0
7.695858	0.1246791	-0.2829728	0	0	0	0
7.712645	0.1246791	-0.2829728	0	0	0	0
7.728992	0.1246791	-0.2829728	0	0	0	0
7.745963	0.1246791	-0.2829728	0	0	0	0
7.762124	0.1246791	-0.2829728	0	0	0	0
7.778693	0.1246791	-0.2829728	0	0	0	0
7.795259	0.1246791	-0.2805281	0	0.1475657	0	4.453349
7.811826	0.1246791	-0.276861	-4.497438E-07	0.2213567	-1.357388E-05	2.227114
7.858882	0.1234568	-0.2707493	-0.0259758	0.1298798	-0.4082702	-1.437798
7.875524	0.1222345	-0.2524141	-0.07345304	1.101797	-0.7453511	15.25826
7.892268	0.1234568	-0.2499694	0.07300077	0.1460033	4.386778	-28.62921
7.908797	0.1259015	-0.2450801	0.1478977	0.2957955	2.250936	4.501819
7.925156	0.1307909	-0.2401907	0.2988918	0.2988918	4.591168	0.09414736
7.94172	0.1344579	-0.2365237	0.2213877	0.2213868	-2.354154	-2.354182
7.958404	0.1393473	-0.234079	0.2930573	0.1465282	2.15561	-2.251525
7.974854	0.1393473	-0.234079	0	0	-8.844359	-4.422166
8.011127	0.1393473	-0.234079	0	0	0	0
8.027966	0.1393473	-0.234079	0	0	0	0
8.044263	0.1393473	-0.234079	0	0	0	0
8.061168	0.1393473	-0.234079	0	0	0	0
8.077394	0.1393473	-0.234079	0	0	0	0
8.093963	0.1393473	-0.234079	0	0	0	0
8.111006	0.1393473	-0.234079	0	0	0	0
8.12749	0.1393473	-0.234079	0	0	0	0
8.144081	0.1393473	-0.234079	0	0	0	0
8.205633	0.1393473	-0.234079	0	0	0	0
8.2222	0.1405696	-0.2316343	0.07378072	0.1475614	0.9444624	1.888925
8.238769	0.141792	-0.2304119	0.07377558	0.07377648	-0.0001551482	-2.226771
8.255337	0.141792	-0.2291896	0	0.07377738	-2.226423	2.720637E-05
8.271904	0.1442367	-0.2267449	0.1475624	0.1475614	4.453312	2.226743
8.289072	0.1442367	-0.2255226	0	0.07119869	-4.374126	-2.263588
8.305099	0.1442367	-0.2243002	0	0.07627008	0	0.152778
8.346504	0.145459	-0.2230779	0.02952113	0.02952149	0.5140172	-0.8139791
8.363071	0.145459	-0.2194108	-8.994359E-07	0.2213431	-0.5092383	3.308814
8.379641	0.145459	-0.2157438	8.993323E-07	0.2213167	5.428381E-05	-0.000795955
8.396206	0.1430143	-0.2084097	-0.1475793	0.4427362	-4.45398	6.682454
8.412774	0.1393473	-0.198631	-0.2213285	0.5902118	-2.225819	4.450951
8.42936	0.1344579	-0.1912969	-0.2947844	0.4421762	-2.215564	-4.465025
8.445909	0.1210121	-0.1717394	-0.8125252	1.181855	-15.62545	22.32355
8.462477	0.110011	-0.1582936	-0.6639897	0.8115422	4.485265	-11.18218
8.500931	0.09778756	-0.1448478	-0.3178714	0.3496587	6.290515	-8.394486
8.517499	0.02322455	-0.09106467	-4.500373	3.246171	-76.01475	52.64257
8.534421	-0.008556412	-0.07761887	-1.878085	0.7945749	78.30019	-73.20342
8.550632	-0.08311942	-0.04583792	-4.599387	1.960395	-82.13141	35.18552
8.567201	-0.1540154	-0.02139103	-4.279044	1.475532	9.77262	-14.79154
8.583772	-0.2114656	-0.003055861	-3.466902	1.106458	24.50696	-11.13708
8.600334	-0.2505806	0.01283462	-2.361668	0.9594274	33.35698	-4.437523
8.616902	-0.2896957	0.03116978	-2.360851	1.106649	0.02467617	4.443675
8.646398	-0.3043638	0.0397262	-0.4973052	0.2900948	40.45608	-17.72674
8.662967	-0.3129202	0.04583792	-0.5164056	0.3688616	-0.4146457	1.70993
8.679534	-0.3129202	0.04706026	0	0.07378095	15.58426	-8.90504
8.6961	-0.3129202	0.04706026	0	0	0	-2.226778
8.712669	-0.3129202	0.04706026	0	0	0	0
8.729236	-0.3129202	0.04706026	0	0	0	0
8.745802	-0.3129202	0.04706026	0	0	0	0
8.762366	-0.3129202	0.04706026	0	0	0	0
8.779102	-0.3129202	0.04706026	0	0	0	0
8.824615	-0.3055861	0.05072729	0.1611454	0.08057247	2.588755	1.294374
8.841183	-0.2249114	0.06784012	4.869255	1.032873	75.83892	15.3398
8.85775	-0.2139103	0.07028481	0.6640283	0.1475619	-126.9103	-26.71797
8.874316	-0.1980198	0.07150716	0.9592055	0.07378497	8.908721	-2.226656
8.890885	-0.1760176	0.0727295	1.327903	0.07377223	11.12699	-0.0003844978
8.907509	-0.1662389	0.0727295	0.5882488	0	-22.28368	-2.222548
8.924188	-0.1662389	0.0727295	0	0	-17.66391	0
8.94059	-0.1637942	0.07272949	0.1490466	-4.542415E-07	4.505498	-1.373117E-05
8.982574	-0.1589048	0.07150715	0.116459	-0.02911475	-0.5581427	-0.4986534
8.999142	-0.1515707	0.06784012	0.4426598	-0.2213294	5.571149	-3.282815
9.015708	-0.1515707	0.06784012	0	0	-13.3595	6.679736
9.032277	-0.1515707	0.06784012	0	0	0	0
9.048845	-0.1515707	0.06784012	0	0	0	0
9.065412	-0.1515707	0.06784012	0	0	0	0
9.082101	-0.1515707	0.06784012	0	0	0	0
9.098546	-0.1515707	0.06784012	0	0	0	0
9.129055	-0.1515707	0.06784012	0	0	0	0
9.145625	-0.1515707	0.06784012	0	0	0	0
9.162467	-0.1515707	0.06784012	0	0	0	0
9.178867	-0.1515707	0.06784012	0	0	0	0
9.19545	-0.1503484	0.06661777	0.07371373	-0.07371328	2.234913	-2.234899
9.211911	-0.1442367	0.06661777	0.3712759	0	9.005067	2.230771
9.228459	-0.1259015	0.06539543	1.107988	-0.07386576	22.31817	-2.23771
9.245605	-0.1075663	0.06539543	1.069409	0	-1.145022	2.192297
9.261642	-0.08923115	0.06539542	1.143237	-4.645597E-07	2.224871	-1.399989E-05
9.286704	-0.0770077	0.06539543	0.4877359	2.972906E-07	-15.9491	1.853671E-05
9.303274	-0.05867254	0.06661777	1.106522	0.07376798	14.86334	1.771912
9.319864	-0.05500551	0.06661778	0.221037	4.490975E-07	-26.70323	-2.22458
9.336408	-0.05378316	0.06661777	0.0738875	-4.503661E-07	-4.44111	-2.714665E-05
9.352974	-0.05256081	0.06784012	0.07378497	0.07378542	-0.003096827	2.22853
9.36954	-0.05256081	0.06784012	0	0	-2.226963	-2.226977
9.38623	-0.05256081	0.06784012	0	0	0	0
9.402916	-0.05256081	0.06784012	0	0	0	0
9.419671	-0.05256081	0.06784012	0	0	0	0
9.453035	-0.05256081	0.06784012	0	0	0	0
9.469604	-0.05256081	0.06784012	0	0	0	0
9.48632	-0.05256081	0.06784012	0	0	0	0
9.502736	-0.05256081	0.06784012	0	0	0	0
9.526031	-0.05256081	0.06784012	0	0	0	0
9.542602	-0.05256081	0.06784012	0	0	0	0
9.559171	-0.05256081	0.06784012	0	0	0	0
9.575738	-0.05256081	0.06784012	0	0	0	0
9.607586	-0.05256081	0.06784012	0	0	0	0
9.624156	-0.05256081	0.06784012	0	0	0	0
9.64072	-0.05256081	0.06784012	0	0	0	0
9.65729	-0.05256081	0.06784012	0	0	0	0
9.673857	-0.05256081	0.06784012	0	0	0	0
9.690423	-0.05256081	0.06784012	0	0	0	0
9.706989	-0.05256081	0.06784012	0	0	0	0
9.723557	-0.05256081	0.06784012	0	0	0	0
9.740123	-0.05256081	0.06784012	0	0	0	0
9.761699	-0.05256081	0.06784012	0	0	0	0
9.778549	-0.05256081	0.06784012	0	0	0	0
9.795122	-0.05256081	0.06784012	0	0	0	0
9.811401	-0.05256081	0.06784012	0	0	0	0
9.827972	-0.05256081	0.06784012	0	0	0	0
9.84454	-0.05256081	0.06784012	0	0	0	0
9.861487	-0.05256081	0.06784012	0	0	0	0
9.877674	-0.05256081	0.06784012	0	0	0	0
9.89424	-0.05256081	0.06784012	0	0	0	0
9.938608	-0.05256081	0.06784012	0	0	0	0
9.955179	-0.05256081	0.06784012	0	0	0	0
9.971749	-0.05256081	0.06784012	0	0	0	0
9.988317	-0.05256081	0.06784012	0	0	0	0
10.00488	-0.05256081	0.06784012	0	0	0	0
10.02145	-0.05256081	0.06784012	0	0	0	0
10.03801	-0.05256081	0.06784012	0	0	0	0
10.05476	-0.05256081	0.06784012	0	0	0	0
10.09337	-0.05256081	0.06784012	0	0	0	0
10.10994	-0.05256081	0.06784012	0	0	0	0
10.1265	-0.05256081	0.06784012	0	0	0	0
10.14307	-0.05256081	0.06784012	0	0	0	0
10.15963	-0.05256081	0.06784012	0	0	0	0
10.17647	-0.05256081	0.06784012	0	0	0	0
10.19304	-0.05256081	0.06784012	0	0	0	0
10.22005	-0.05256081	0.06784012	0	0	0	0
10.24149	-0.05256081	0.06784012	0	0	0	0
10.25806	-0.05256081	0.06784012	0	0	0	0
10.27463	-0.05256081	0.06784012	0	0	0	0
10.2912	-0.05256081	0.06784012	0	0	0	0
10.30777	-0.05256081	0.06784012	0	0	0	0
10.3246	-0.05256081	0.06784012	0	0	0	0
10.3409	-0.05256081	0.06784012	0	0	0	0
10.35749	-0.05256081	0.06784012	0	0	0	0
10.37454	-0.05256081	0.06784012	0	0	0	0
10.3906	-0.05256081	0.06784012	0	0	0	0
10.43496	-0.05256081	0.06784012	0	0	0	0
10.45152	-0.05256081	0.06784012	0	0	0	0
10.46809	-0.05256081	0.06784012	0	0	0	0
10.48466	-0.05256081	0.06784012	0	0	0	0
10.50123	-0.05256081	0.06784012	0	0	0	0
10.5178	-0.05256081	0.06784012	0	0	0	0
10.53456	-0.05256081	0.06784012	0	0	0	0
10.55093	-0.05256081	0.06784012	0	0	0	0
10.61117	-0.05256081	0.06784012	0	0	0	0
10.62774	-0.05256081	0.06784012	0	0	0	0
10.6443	-0.05256081	0.06784012	0	0	0	0
10.66087	-0.05256081	0.06784012	0	0	0	0
10.67744	-0.05256081	0.06784012	0	0	0	0
10.69494	-0.05256081	0.06784012	0	0	0	0
10.71058	-0.05256081	0.06784012	0	0	0	0
10.74976	-0.05256081	0.06784012	0	0	0	0
10.76907	-0.04522675	0.06784012	0.3798068	0	6.492921	0
10.78564	-0.03667033	0.06661777	0.5163768	-0.07376844	3.806289	-2.055971
10.80221	-0.03178096	0.06661778	0.2951403	4.497438E-07	-6.676546	2.226221
10.81877	-0.0220022	0.06417309	0.5902809	-0.1475704	8.907872	-4.453953
10.83542	-0.0110011	0.0617284	0.660946	-0.1468768	2.127778	0.02088314
10.85191	0.003667034	0.05928371	0.8894664	-0.1482444	6.896561	-0.04127033
10.90781	0.01955751	0.05561667	0.2842729	-0.06560153	-8.360227	1.141639
10.96235	0.06722895	0.04339323	0.8740231	-0.2241085	5.339947	-1.435215
10.97892	0.08189708	0.03850385	0.8852682	-0.2950894	0.1581326	-0.998161
10.99549	0.08189708	0.03850385	0	0	-26.71668	8.905559
11.01232	0.08189708	0.03850385	0	0	0	0
11.02862	0.08189708	0.03850385	0	0	0	0
11.04519	0.08189708	0.03850385	0	0	0	0
11.0619	0.08189708	0.03850385	0	0	0	0
11.07832	0.08189708	0.03850385	0	0	0	0
11.11162	0.08189708	0.03850385	0	0	0	0
11.12849	0.08189708	0.03728151	0	-0.07245465	0	-1.444294
11.14551	0.08189708	0.03728151	0	0	0	2.13795
11.16132	0.08311943	0.03605916	0.07730559	-0.07730511	2.354638	-2.354624
11.17806	0.08434176	0.03483682	0.07299037	-0.07299104	-0.1325374	0.1325022
11.19445	0.08678646	0.03361447	0.149185	-0.07459249	2.299624	-0.04833303
11.21102	0.08923115	0.03116978	0.1475449	-0.1475447	-0.04976515	-2.213616
11.22759	0.09167583	0.02750275	0.147536	-0.2213043	-0.0002697919	-2.225749
11.24415	0.09534287	0.02505806	0.2214064	-0.1476042	2.229541	2.224403
11.27955	0.09778756	0.02261337	0.06906392	-0.06906386	-2.931918	1.511553
11.29612	0.1075663	0.01527931	0.5902472	-0.4426851	10.02955	-7.189896
11.31269	0.1087887	0.01283462	0.07377223	-0.1475448	-15.58635	8.906838
11.32925	0.1087887	0.01283462	0	0	-2.22645	4.452911
11.34583	0.110011	0.01161227	0.07372131	-0.07372142	2.224145	-2.224149
11.36239	0.110011	0.01161227	0	0	-2.224978	2.224981
11.37932	0.110011	0.01038993	4.398682E-07	-0.07216495	1.313387E-05	-2.154748
11.39601	0.1112334	0.01038993	0.07325363	5.581314E-08	2.178556	2.146194
11.43185	0.1112334	0.01038993	0	0	-1.394629	-1.062591E-06
11.44842	0.1112334	0.01038993	0	0	0	0
11.46535	0.1112334	0.01038993	0	0	0	0
11.48186	0.1112334	0.01038993	0	0	0	0
11.49812	0.1112334	0.01038993	0	0	0	0
11.51479	0.1112334	0.01038993	0	0	0	0
11.53125	0.1112334	0.01038993	0	0	0	0
11.54793	0.1112334	0.01038993	0	0	0	0
11.56514	0.1124557	0.01161227	0.07102115	0.07102126	2.095888	2.095891
11.58171	0.1222344	0.02505806	0.5901783	0.8114961	15.36873	21.92045
11.59844	0.1271238	0.03239213	0.2921809	0.4382702	-8.947995	-11.20689
11.61484	0.1381249	0.04950495	0.6708237	1.043504	11.42779	18.26652
11.63141	0.1466813	0.0617284	0.5164957	0.7378513	-4.681477	-9.271847
11.64852	0.1503484	0.07150715	0.2143342	0.5715586	-8.97282	-4.938137
11.66454	0.1503484	0.07884122	0	0.4576759	-6.468806	-3.437085
11.68111	0.1503484	0.08495294	0	0.3689041	0	-2.723745
11.69768	0.1466813	0.09106467	-0.2213422	0.368905	-6.68012	2.698308E-05
11.71424	0.1405696	0.09839873	-0.3688833	0.4426593	-4.452671	2.225846
11.75246	0.1234568	0.1093998	-0.4477514	0.2878404	-1.439525	-2.8258
11.76903	0.0660066	0.1252903	-3.467501	0.9590955	-55.11736	12.25195
11.7856	0.05378316	0.127735	-0.7378508	0.1475708	82.38101	-24.49186
11.80217	0.03667033	0.131402	-1.032576	0.2212657	-8.893535	2.223796
11.81873	0	0.1362914	-2.214318	0.2952428	-35.66607	2.232695
11.83573	-0.1161227	0.1509596	-6.832969	0.863112	-137.6441	16.92352
11.85187	-0.1466813	0.1521819	-1.893124	0.07572392	149.0762	-23.76205
11.86843	-0.1992421	0.1558489	-3.172942	0.2213677	-39.12952	4.452955
11.90508	-0.2408019	0.1558489	-1.134237	4.066787E-07	38.31688	-4.160535
11.92164	-0.2970297	0.1472925	-3.39392	-0.516466	-42.46857	-9.706491
11.93821	-0.2970297	0.1472925	0	0	102.4169	15.58518
11.95478	-0.3031414	0.1448478	-0.3689691	-0.1475869	-11.13519	-4.454054
11.97135	-0.3116978	0.1411808	-0.5162867	-0.2212667	-4.44567	-2.223466
11.98791	-0.3165872	0.1375138	-0.2952437	-0.2214314	6.671286	-0.004972225
12.0051	-0.322699	0.1338467	-0.3555786	-0.2133472	-1.787776	0.2395423
12.02105	-0.326366	0.1301797	-0.2299597	-0.2299606	3.791187	-0.501395
12.05317	-0.3288107	0.1265127	-0.07611024	-0.114164	3.200724	2.409064
12.06973	-0.3312554	0.1106222	-0.147553	-0.9590964	-1.467331	-17.3537
12.08646	-0.3275883	0.1032881	0.2192739	-0.4385447	11.01853	15.63603
12.10287	-0.3129202	0.08617529	0.8936527	-1.042595	20.35103	-18.2287
12.11994	-0.2884733	0.06784012	1.43273	-1.074548	16.103	-0.9544839
12.136	-0.2139103	0.04094854	4.640609	-1.673663	96.82513	-18.0834
12.153	-0.1356802	0.02139103	4.603523	-1.15088	-1.121758	15.81264
12.16914	-0.02933627	0.01038993	6.587684	-0.6814846	59.87866	14.16558
12.21949	0.08800881	-0.0006111722	2.330314	-0.2184669	-64.0218	6.962803
12.23606	0.4351546	-0.03850386	20.95015	-2.286812	278.2152	-30.90495
12.25263	0.4534898	-0.0397262	1.106776	-0.07378497	-598.8397	66.78545
12.2692	0.4706026	-0.04094854	1.032754	-0.07376798	-2.233883	0.000512649
12.28577	0.4730473	-0.04094854	0.1475699	0	-26.71336	2.226194
12.30234	0.4730473	-0.04094854	0	0	-4.45367	0
12.3189	0.4730473	-0.04094854	0	0	0	0
12.35096	0.4730473	-0.04094854	0	0	0	0
12.36753	0.4730473	-0.04094854	0	0	0	0
12.3841	0.4730473	-0.04094854	0	0	0	0
12.40067	0.4730473	-0.04094854	0	0	0	0
12.41723	0.4730473	-0.04094854	0	0	0	0
12.4338	0.4730473	-0.04094854	0	0	0	0
12.45036	0.4730473	-0.04094854	0	0	0	0
12.46693	0.4730473	-0.04094854	0	0	0	0
12.48356	0.4730473	-0.04094854	0	0	0	0
12.51083	0.4730473	-0.04094854	0	0	0	0
12.52742	0.4730473	-0.04094854	0	0	0	0
12.54416	0.4718249	-0.04339323	-0.07304668	-0.14609	-2.192124	-4.384147
12.56098	0.4547122	-0.04706026	-1.017351	-0.2180045	-28.14195	-2.143182
12.5771	0.4143748	-0.05317198	-2.50129	-0.3789832	-45.03945	-4.885907
12.59367	0.3398118	-0.05806136	-4.499856	-0.2950724	-61.12436	2.566335
12.61026	0.2493583	-0.0617284	-5.453192	-0.2210754	-28.75188	2.231693
12.62681	0.1564601	-0.06417309	-5.613807	-0.147732	-4.84723	2.213445
12.64338	0.05622784	-0.07761887	-6.050379	-0.811636	-13.18374	-20.04878
12.66201	-0.03789268	-0.09717639	-5.049761	-1.049301	28.42271	-6.750909
12.67858	-0.1967975	-0.1546266	-9.589855	-3.467102	-128.9481	-68.67053
12.69526	-0.2224667	-0.16685	-1.539122	-0.732915	242.1423	82.23625
12.71181	-0.259137	-0.1851852	-2.21636	-1.10818	-20.38452	-11.29528
12.72828	-0.2823616	-0.1998533	-1.409544	-0.8902388	24.43273	6.599887
12.74485	-0.2958074	-0.2108544	-0.8116832	-0.6641039	18.09398	6.843874
12.76141	-0.3043638	-0.2194108	-0.5165263	-0.5165246	8.908878	4.454465
12.77806	-0.3129202	-0.2279672	-0.5140405	-0.5140405	0.07485139	0.07479756
12.79455	-0.322699	-0.237746	-0.5930469	-0.5930469	-2.384419	-2.384419
12.8259	-0.3337	-0.2511918	-0.3509198	-0.4289037	5.061374	3.431216
12.84247	-0.3434788	-0.2597482	-0.5902136	-0.5164372	-4.993884	-1.826759
12.85903	-0.3434788	-0.2597482	0	0	17.81166	15.58521
12.8756	-0.3471458	-0.2621929	-0.2213549	-0.1475699	-6.680505	-4.45367
12.91139	-0.3483682	-0.2646376	-0.03415814	-0.06831461	3.575736	1.513894
12.93104	-0.3557023	-0.269527	-0.3731531	-0.2487687	-6.114634	-3.254948
12.94761	-0.3557023	-0.269527	0	0	10.30171	6.867804
13.00585	-0.3557023	-0.269527	0	0	0	0
13.02241	-0.3557023	-0.269527	0	0	0	0
13.03898	-0.3557023	-0.269527	0	0	0	0
13.0564	-0.3557023	-0.269527	0	0	0	0
13.07212	-0.3557023	-0.269527	0	0	0	0
13.08869	-0.3557023	-0.269527	0	0	0	0
13.10525	-0.3557023	-0.269527	0	0	0	0
13.16764	-0.3557023	-0.2670823	0	0.03917952	0	0.4962039
13.18421	-0.3532576	-0.2548588	0.147553	0.7377666	1.868582	8.846773
13.20078	-0.3520352	-0.2536365	0.07377403	0.07377223	-2.22646	-20.03766
13.21735	-0.3483682	-0.2487471	0.2213404	0.2951229	4.453305	6.679992
13.23392	-0.3422565	-0.2426354	0.368863	0.3688612	4.451984	2.225297
13.25048	-0.3337001	-0.2328566	0.5164948	0.5902825	4.45541	6.682317
13.26708	-0.3165872	-0.2218555	1.030914	0.6627303	15.51048	2.184405
13.29783	-0.2811392	-0.1974086	1.152806	0.7950383	2.574334	2.794316
13.3144	-0.2249114	-0.1607383	3.393529	2.213171	47.35409	29.96996
13.33097	-0.2139103	-0.1534042	0.6641039	0.4427362	-82.37421	-53.43182
13.34754	-0.1919081	-0.1411808	1.327979	0.7377657	20.03638	8.904263
13.3641	-0.1723506	-0.1265127	1.180425	0.8853195	-4.452955	4.452928
13.38146	-0.1442367	-0.1069551	1.619491	1.126602	12.94115	7.111626
13.39724	-0.1307909	-0.09595405	0.8524662	0.6974722	-23.15019	-12.95191
13.41392	-0.1185674	-0.0837306	0.7327466	0.732747	-3.688844	1.086902
13.43037	-0.1087887	-0.07639653	0.5943872	0.4457903	-4.175816	-8.660621
13.48236	-0.1038993	-0.07028481	0.09405053	0.1175633	-7.310745	-4.795939
13.49893	-0.09412053	-0.05317199	0.5901787	1.032813	7.236849	13.35043
13.51549	-0.09289818	-0.0507273	0.07378542	0.1475704	-15.58433	-26.7159
13.53256	-0.08923115	-0.04583792	0.2148016	0.286402	4.19217	4.127227
13.54863	-0.08556412	-0.0397262	0.228294	0.3804908	0.4072011	2.839603
13.56525	-0.08311943	-0.03483682	0.147054	0.2941078	-2.485378	-2.642717
13.58176	-0.07823005	-0.0287251	0.296198	0.3702469	4.501563	2.298082
13.59832	-0.07456302	-0.02139103	0.2213549	0.4427107	-2.262937	2.190999
13.61531	-0.06967364	-0.01527931	0.2877851	0.3597309	1.979681	-2.472878
13.63188	-0.06111722	-0.003055861	0.5164362	0.7377661	6.813633	11.26517
13.64873	-0.05989488	-0.0006111723	0.07254487	0.1450896	-13.28312	-17.73541
13.66502	-0.05745019	0.004278206	0.150102	0.300204	2.340544	4.681095
13.68159	-0.05378316	0.009167584	0.2213297	0.2951064	2.167938	-0.1551542
13.69815	-0.05133847	0.01283462	0.1475789	0.2213681	-2.225867	-2.225493
13.71472	-0.05011613	0.01283462	0.07377648	0	-2.227426	-6.681094
13.73129	-0.04889378	0.01527931	0.07378542	0.1475702	0.0002700556	4.453676
13.74785	-0.04644909	0.01650165	0.1475784	0.07378939	2.22727	-2.226901
13.78555	-0.04522675	0.01894634	0.03242559	0.06485133	-2.122157	-0.1647199
13.80212	-0.04278206	0.02139103	0.1475449	0.1475447	2.12139	1.523853
13.81869	-0.04278206	0.02139103	0	0	-4.452658	-4.452651
13.83526	-0.04278206	0.02139103	0	0	0	0
13.85182	-0.04278206	0.02139103	0	0	0	0
13.86849	-0.04278206	0.02139103	0	0	0	0
13.88495	-0.04278206	0.02139103	0	0	0	0
13.90152	-0.04278206	0.02139103	0	0	0	0
13.95338	-0.04278206	0.02139103	0	0	0	0
13.96995	-0.04278206	0.02139103	0	0	0	0
13.98652	-0.04278206	0.02139103	0	0	0	0
14.00308	-0.04278206	0.02139103	0	0	0	0
14.01992	-0.04278206	0.02139103	0	0	0	0
14.03622	-0.04278206	0.02139103	0	0	0	0
14.05279	-0.04278206	0.02139103	0	0	0	0
14.06936	-0.04278206	0.02139103	0	0	0	0
14.10482	-0.04278206	0.02139103	0	0	0	0
14.12139	-0.04278206	0.02139103	0	0	0	0
14.13795	-0.04278206	0.02139103	0	0	0	0
14.15468	-0.04278206	0.02139103	0	0	0	0
14.17114	-0.04278206	0.02139103	0	0	0	0
14.18766	-0.04278206	0.02139103	0	0	0	0
14.21294	-0.04278206	0.02139103	0	0	0	0
14.22969	-0.04278206	0.02139103	0	0	0	0
14.25995	-0.04278206	0.02139103	0	0	0	0
14.27652	-0.04278206	0.02139103	0	0	0	0
14.2931	-0.04278206	0.02139103	0	0	0	0
14.30969	-0.04278206	0.02139103	0	0	0	0
14.32622	-0.04278206	0.02139103	0	0	0	0
14.34279	-0.04278206	0.02139103	0	0	0	0
14.35936	-0.04278206	0.02139103	0	0	0	0
14.37592	-0.04278206	0.02139103	0	0	0	0
14.39249	-0.04278206	0.02139103	0	0	0	0
14.43546	-0.04278206	0.02139103	0	0	0	0
14.45204	-0.04278206	0.02139103	0	0	0	0
14.4686	-0.04278206	0.02139103	0	0	0	0
14.48516	-0.04278206	0.02139103	0	0	0	0
14.50174	-0.04278206	0.02139103	0	0	0	0
14.5183	-0.04278206	0.02139103	0	0	0	0
14.53487	-0.04278206	0.02139103	0	0	0	0
14.55143	-0.04278206	0.02139103	0	0	0	0
14.582	-0.04278206	0.02139103	0	0	0	0
14.59856	-0.04278206	0.02139103	0	0	0	0
14.61527	-0.04278206	0.02139103	0	0	0	0
14.63178	-0.04278206	0.02139103	0	0	0	0
14.64846	-0.04278206	0.02139103	0	0	0	0
14.66483	-0.04278206	0.02139103	0	0	0	0
14.6814	-0.04278206	0.02139103	0	0	0	0
14.6985	-0.04278206	0.02139103	0	0	0	0
14.71454	-0.04278206	0.02139103	0	0	0	0
14.74295	-0.04278206	0.02139103	0	0	0	0
14.75952	-0.04278206	0.02139103	0	0	0	0
14.77609	-0.04278206	0.02139103	0	0	0	0
14.79281	-0.04278206	0.02139103	0	0	0	0
14.80922	-0.04278206	0.02139103	0	0	0	0
14.82579	-0.04278206	0.02139103	0	0	0	0
14.84235	-0.04278206	0.02139103	0	0	0	0
14.85892	-0.04278206	0.02139103	0	0	0	0
14.87555	-0.04278206	0.02139103	0	0	0	0
14.90405	-0.04278206	0.02139103	0	0	0	0
14.92062	-0.04278206	0.02139103	0	0	0	0
14.93753	-0.04278206	0.02139103	0	0	0	0
14.95404	-0.04278206	0.02139103	0	0	0	0
14.97033	-0.04278206	0.02139103	0	0	0	0
14.98689	-0.04278206	0.02139103	0	0	0	0
15.0035	-0.04278206	0.02139103	0	0	0	0
15.02002	-0.04278206	0.02139103	0	0	0	0
15.03659	-0.04278206	0.02139103	0	0	0	0
15.06903	-0.04278206	0.02139103	0	0	0	0
15.0856	-0.04278206	0.02139103	0	0	0	0
15.10228	-0.04278206	0.02139103	0	0	0	0
15.11873	-0.04278206	0.02139103	0	0	0	0
15.1353	-0.04278206	0.02139103	0	0	0	0
15.15187	-0.04278206	0.02139103	0	0	0	0
15.16843	-0.04278206	0.02139103	0	0	0	0
15.185	-0.04278206	0.02139103	0	0	0	0
15.20763	-0.04278206	0.02139103	0	0	0	0
15.2242	-0.04278206	0.02139103	0	0	0	0
15.24077	-0.04278206	0.02139103	0	0	0	0
15.25742	-0.04278206	0.02139103	0	0	0	0
15.2739	-0.04278206	0.02139103	0	0	0	0
15.29046	-0.04278206	0.02139103	0	0	0	0
15.30723	-0.04278206	0.02139103	0	0	0	0
15.3236	-0.04278206	0.02139103	0	0	0	0
15.34016	-0.04278206	0.02139103	0	0	0	0
15.35687	-0.04278206	0.02139103	0	0	0	0
15.41445	-0.04278206	0.02139103	0	0	0	0
15.43102	-0.04278206	0.02139103	0	0	0	0
15.44759	-0.04278206	0.02139103	0	0	0	0
15.46419	-0.04278206	0.02139103	0	0	0	0
15.48072	-0.04278206	0.02139103	0	0	0	0
15.5151	-0.04278206	0.02139103	0	0	0	0
15.568	-0.04278206	0.02139103	0	0	0	0
15.58457	-0.04278206	0.02139103	0	0	0	0
15.60114	-0.04278206	0.02139103	0	0	0	0
15.61771	-0.04278206	0.02139103	0	0	0	0
15.63427	-0.04278206	0.02139103	0	0	0	0
15.65102	-0.04278206	0.02139103	0	0	0	0
15.66741	-0.04278206	0.02139103	0	0	0	0
15.68397	-0.04278206	0.02139103	0	0	0	0
15.72135	-0.04278206	0.02139103	0	0	0	0
15.73792	-0.04278206	0.02139103	0	0	0	0
15.75488	-0.04278206	0.02139103	0	0	0	0
15.77105	-0.04278206	0.02139103	0	0	0	0
15.78809	-0.04278206	0.02139103	0	0	0	0
15.80419	-0.04278206	0.02139103	0	0	0	0
15.82075	-0.04278206	0.02139103	0	0	0	0
15.83744	-0.04278206	0.02139103	0	0	0	0
15.85409	-0.04278206	0.02139103	0	0	0	0
15.90395	-0.04278206	0.02139103	0	0	0	0
15.92052	-0.04278206	0.02139103	0	0	0	0
15.93709	-0.04278206	0.02139103	0	0	0	0
15.95365	-0.04278206	0.02139103	0	0	0	0
15.97071	-0.04278206	0.02139103	0	0	0	0
15.98679	-0.04278206	0.02139103	0	0	0	0
16.00336	-0.04278206	0.02139103	0	0	0	0
16.01992	-0.04278206	0.02139103	0	0	0	0
16.05336	-0.04278206	0.02139103	0	0	0	0
16.06993	-0.04278206	0.02139103	0	0	0	0
16.0865	-0.04278206	0.02139103	0	0	0	0
16.10307	-0.04278206	0.02139103	0	0	0	0
16.11963	-0.04278206	0.02139103	0	0	0	0
16.1362	-0.04278206	0.02139103	0	0	0	0
16.15277	-0.04278206	0.02139103	0	0	0	0
16.17032	-0.04278206	0.02139103	0	0	0	0
16.193	-0.04278206	0.02139103	0	0	0	0
16.20957	-0.04278206	0.02139103	0	0	0	0
16.22614	-0.04278206	0.02139103	0	0	0	0
16.2427	-0.04278206	0.02139103	0	0	0	0
16.25944	-0.04278206	0.02139103	0	0	0	0
16.27584	-0.04278206	0.02139103	0	0	0	0
16.29241	-0.04278206	0.02139103	0	0	0	0
16.30916	-0.04278206	0.02139103	0	0	0	0
16.32554	-0.04278206	0.02139103	0	0	0	0
16.34211	-0.04278206	0.02139103	0	0	0	0
16.37908	-0.04278206	0.02139103	0	0	0	0
16.39565	-0.04278206	0.02139103	0	0	0	0
16.41221	-0.04278206	0.02139103	0	0	0	0
16.42878	-0.04278206	0.02139103	0	0	0	0
16.44535	-0.04278206	0.02139103	0	0	0	0
16.46192	-0.04278206	0.02139103	0	0	0	0
16.47876	-0.04155971	0.02139103	0.07258595	0	2.173011	0
16.49508	-0.03544799	0.02016868	0.3745092	-0.07490186	9.105248	-2.258852
16.53297	-0.03055861	0.01650165	0.1290302	-0.09677264	-4.528083	-0.4034263
16.54954	-0.01222344	0.001833517	1.106713	-0.8853703	17.95214	-14.48017
16.5661	-0.007334067	-0.003055861	0.2951233	-0.2951235	-24.49382	17.81368
16.58267	-0.003667034	-0.00550055	0.2213426	-0.1475617	-2.226707	4.453423
16.59949	0.007334067	-0.01405696	0.6539394	-0.5086195	12.95586	-10.81334
16.6161	0.01711282	-0.02016868	0.5889586	-0.3680991	-1.944003	4.203891
16.63237	0.02811393	-0.02994744	0.6759341	-0.6008303	2.645333	-7.078441
16.64894	0.03422565	-0.03483682	0.3689891	-0.2951913	-9.347016	9.307244
16.67857	0.03911502	-0.03850385	0.1649788	-0.1237342	-4.415826	3.711209
16.69514	0.0440044	-0.04217089	0.2950896	-0.2213171	2.815914	-2.111933
16.71171	0.0440044	-0.04217089	0	0	-8.90531	6.67898
16.72827	0.0440044	-0.04217089	0	0	0	0
16.74484	0.0440044	-0.04217089	0	0	0	0
16.76141	0.0440044	-0.04217089	0	0	0	0
16.77811	0.0440044	-0.04217089	0	0	0	0
16.79516	0.0440044	-0.04217089	0	0	0	0
16.81124	0.0440044	-0.04217089	0	0	0	0
16.87963	0.0440044	-0.04217089	0	0	0	0
16.8962	0.0440044	-0.04217089	0	0	0	0
16.91277	0.0440044	-0.04217089	0	0	0	0
16.92955	0.0440044	-0.04217089	0	0	0	0
16.9459	0.0440044	-0.04217089	0	0	0	0
16.96247	0.0440044	-0.04217089	0	0	0	0
17.00907	0.0440044	-0.04217089	0	0	0	0
17.02564	0.0440044	-0.04217089	0	0	0	0
17.04221	0.0440044	-0.04217089	0	0	0	0
17.05878	0.0440044	-0.04217089	0	0	0	0
17.07535	0.0440044	-0.04217089	0	0	0	0
17.09219	0.0440044	-0.04217089	0	0	0	0
17.10856	0.0440044	-0.04217089	0	0	0	0
17.12554	0.0440044	-0.04217089	0	0	0	0
17.16483	0.0440044	-0.04217089	0	0	0	0
17.1814	0.0440044	-0.04217089	0	0	0	0
17.19796	0.0440044	-0.04217089	0	0	0	0
17.21453	0.0440044	-0.04217089	0	0	0	0
17.23153	0.03422564	-0.03728151	-0.5752145	0.2876073	-17.13609	8.568046
17.24767	0.0110011	-0.0287251	-1.439455	0.5303255	-26.08283	7.325252
17.26444	-0.04033737	-0.01161227	-3.061087	1.020362	-49.28138	14.89221
17.28083	-0.08800881	0.001833517	-2.907243	0.8199914	4.63824	-6.040948
17.31591	-0.1369026	0.01405696	-1.393856	0.3484642	29.40011	-9.160222
17.33248	-0.2346901	0.03972619	-5.90247	1.549398	-87.29961	23.2535
17.34914	-0.2481359	0.04339323	-0.807221	0.2201514	153.36	-40.0085
17.36561	-0.2713605	0.05317198	-1.409464	0.5934581	-18.17573	11.26642
17.38218	-0.2896957	0.06050605	-1.106713	0.4426852	9.161839	-4.562678
17.39875	-0.3019191	0.06784012	-0.7376374	0.4425834	11.13743	-0.003074817
17.41532	-0.3129202	0.0727295	-0.6641048	0.2951573	2.219092	-4.449069
17.43188	-0.3239213	0.07884122	-0.6640283	0.3689041	0.002306286	2.225809
17.44845	-0.330033	0.08250825	-0.3688612	0.2213171	8.90765	-4.453927
17.49	-0.3349224	0.08617529	-0.1176969	0.08827282	4.322134	-2.289479
17.50656	-0.3569246	0.1020658	-1.328058	0.9591517	-20.82906	14.98691
17.52313	-0.3630363	0.1045105	-0.3688594	0.1475449	28.94702	-24.49293
17.5397	-0.3728151	0.1106222	-0.5903156	0.3689466	-6.683562	6.681915
17.55627	-0.3801491	0.1155115	-0.4426334	0.2950885	4.457057	-2.229041
17.57283	-0.3838162	0.1167339	-0.2213695	0.07379012	6.677759	-6.678798
17.5894	-0.3850385	0.1167339	-0.07377893	0	4.454547	-2.227118
17.60596	-0.3850385	0.1167339	0	0	2.226909	0
17.62543	-0.3850385	0.1167339	0	0	0	0
17.64201	-0.3777044	0.1167339	0.4423279	0	12.26957	0
17.65857	-0.3715927	0.1167339	0.3691604	-4.500288E-07	-2.208072	-1.358111E-05
17.67514	-0.3667033	0.1155116	0.2950889	-0.07377223	-2.236126	-2.227078
17.69171	-0.3459235	0.1118445	1.25413	-0.2213167	28.94058	-4.452388
17.70827	-0.3337	0.1081775	0.7378091	-0.2213431	-15.58169	-0.000795955
17.72484	-0.3251437	0.1069551	0.5165822	-0.07379727	-6.677409	4.453454
17.7414	-0.3190319	0.1069551	0.3689922	-4.498215E-07	-4.455301	2.227705
17.75798	-0.3165872	0.1069551	0.1474935	0	-6.684073	1.357408E-05
17.77472	-0.3165872	0.1069551	0	0	-4.426393	0
17.81459	-0.3165872	0.1069551	0	0	0	0
17.83116	-0.3165872	0.1069551	0	0	0	0
17.84773	-0.3165872	0.1069551	0	0	0	0
17.8643	-0.3165872	0.1069551	0	0	0	0
17.88086	-0.3165872	0.1069551	0	0	0	0
17.89743	-0.3165872	0.1069551	0	0	0	0
17.914	-0.3165872	0.1069551	0	0	0	0
17.93063	-0.3165872	0.1069551	0	0	0	0
17.96955	-0.3165872	0.1069551	0	0	0	0
17.98612	-0.3251437	0.1069551	-0.5164686	4.497179E-07	-9.306696	8.103857E-06
18.00269	-0.3251436	0.1081775	1.798665E-06	0.07377223	15.58621	2.226309
18.01925	-0.326366	0.1081775	-0.07378922	0	-2.227017	-2.22645
18.03595	-0.326366	0.1081775	0	0	2.218789	0
18.05239	-0.326366	0.1081775	0	0	0	0
18.06906	-0.326366	0.1081775	0	0	0	0
18.08559	-0.326366	0.1081775	0	0	0	0
18.14885	-0.3275883	0.1081775	-0.01932336	0	-0.2421658	0
18.16542	-0.3275883	0.1081775	0	0	0.2420733	0
18.18199	-0.3275883	0.1081775	0	0	0	0
18.19855	-0.3275883	0.1081775	0	0	0	0
18.21512	-0.3275883	0.1081775	0	0	0	0
18.23169	-0.3275883	0.1081775	0	0	0	0
18.24826	-0.3275883	0.1081775	0	0	0	0
18.28938	-0.3275883	0.1081775	0	0	0	0
18.30595	-0.3275883	0.1081775	0	0	0	0
18.32252	-0.3275883	0.1081775	0	0	0	0
18.33908	-0.3275883	0.1081775	0	0	0	0
18.35565	-0.3275883	0.1081775	0	0	0	0
18.37222	-0.3275883	0.1081775	0	0	0	0
18.38879	-0.3275883	0.1081775	0	0	0	0
18.40535	-0.3275883	0.1081775	0	0	0	0
18.42352	-0.3275883	0.1081775	0	0	0	0
18.44009	-0.3275883	0.1081775	0	0	0	0
18.45666	-0.3275883	0.1081775	0	0	0	0
18.47322	-0.3275883	0.1081775	0	0	0	0
18.49001	-0.3275883	0.1081775	0	0	0	0
18.50636	-0.3275883	0.1081775	0	0	0	0
18.52292	-0.3275883	0.1081775	0	0	0	0
18.53949	-0.3153649	0.1069551	0.7378922	-0.07378967	22.27091	-2.227105
18.55606	-0.294585	0.1045105	1.25442	-0.1475784	15.59064	-2.227206
18.5745	-0.2628041	0.09839872	1.723456	-0.3314345	13.3989	-5.252194
18.59107	-0.17724	0.0837306	5.162877	-0.8850639	98.2321	-15.81202
18.60764	-0.145459	0.08006356	1.918082	-0.2213176	-97.90556	20.02729
18.6242	-0.08189708	0.06906246	3.83793	-0.6642569	57.94782	-13.36947
18.64077	-0.0220022	0.0617284	3.614846	-0.4426343	-6.733477	6.689353
18.65734	0.03544799	0.05194964	3.4677	-0.5902467	-4.440612	-4.454694
18.67417	0.07578535	0.04583792	2.396147	-0.3630529	-32.081	6.801907
18.69047	0.1185674	0.04094854	2.624634	-0.2999581	6.895745	1.904206
18.70704	0.1381249	0.03728151	1.18063	-0.2213679	-43.93674	2.391265
18.75073	0.1503484	0.03483682	0.2797176	-0.05594355	-14.94928	2.744967
18.76747	0.1576824	0.03483682	0.4381953	0	2.622231	0.9256622
18.78387	0.1576824	0.03483682	0	0	-13.22476	0
18.80061	0.1576824	0.03483682	0	0	0	0
18.82076	0.1576824	0.03483682	0	0	0	0
18.83733	0.1576824	0.03483682	0	0	0	0
18.8539	0.1576824	0.03483682	0	0	0	0
18.87094	0.1576824	0.03483682	0	0	0	0
18.91087	0.1576824	0.03483682	0	0	0	0
18.92755	0.1576824	0.03483682	0	0	0	0
18.944	0.1576824	0.03483682	0	0	0	0
18.96057	0.1576824	0.03483682	0	0	0	0
18.97714	0.1576824	0.03483682	0	0	0	0
18.99441	0.1576824	0.03483682	0	0	0	0
19.01027	0.1576824	0.03483682	0	0	0	0
19.02753	0.1576824	0.03483682	0	0	0	0
19.1393	0.1576824	0.03483682	0	0	0	0
19.15586	0.1564601	0.03483682	-0.07378162	0	-0.57491	0
19.17243	0.1564601	0.03483682	0	0	2.226734	0
19.189	0.1540154	0.03483682	-0.1475614	0	-4.453413	0
19.213	0.1503484	0.03483682	-0.1527796	0	-0.1286223	0
19.22957	0.1479037	0.03483682	-0.1475284	2.248072E-07	0.1294252	5.540792E-06
19.24614	0.1479037	0.03483682	0	0	4.452159	-6.784304E-06
19.2627	0.1466813	0.03483682	-0.07378072	-2.24859E-07	-2.226835	-6.786648E-06
19.27927	0.1442367	0.03483682	-0.1475614	2.24859E-07	-2.226707	1.357251E-05
19.29584	0.141792	0.03483682	-0.1475445	-2.248331E-07	0.000512649	-1.357095E-05
19.31241	0.141792	0.03483682	0	0	4.452644	6.785086E-06
19.32953	0.1405696	0.03483682	-0.07139786	0	-2.119411	0
19.34561	0.1393473	0.03483682	-0.07602128	0	-0.1392625	0
19.3861	0.1381249	0.03483682	-0.0301904	0	0.8102161	0
19.40266	0.1356802	0.03483682	-0.1475624	2.24859E-07	-2.057189	3.941124E-06
19.41923	0.1356802	0.03483682	0	0	4.453184	-6.785866E-06
19.4358	0.1344579	0.03483682	-0.07378922	0	-2.226963	0
19.45236	0.1320132	0.03483682	-0.1475624	-2.24859E-07	-2.226606	-6.786648E-06
19.46893	0.1307909	0.03483682	-0.07378072	0	2.226734	6.786257E-06
19.4855	0.1295685	0.03483682	-0.07378072	0	0	0
19.50207	0.1271238	0.03483682	-0.1475624	0	-2.226734	0
19.5262	0.1259015	0.03483681	-0.05065681	-1.54385E-07	2.381141	-3.793515E-06
19.54316	0.1197898	0.03361448	-0.3602362	-0.07204693	-7.533126	-1.753145
19.55933	0.1173451	0.03361448	-0.1511817	0	6.308912	2.174255
19.57594	0.1161227	0.03361448	-0.07358588	0	2.367055	0
19.59247	0.1124557	0.03361447	-0.2219307	-2.25456E-07	-4.477057	-6.804275E-06
19.60903	0.1087887	0.03361447	-0.2213422	0	0.01778606	6.813295E-06
19.62621	0.1051216	0.03361447	-0.2134783	0	0.2330383	0
19.64217	0.1014546	0.03361448	-0.229836	2.334878E-07	-0.4937036	7.04708E-06
19.65873	0.09778757	0.03361448	-0.2213677	0	0.2604018	-7.179755E-06
19.68145	0.09412052	0.03361447	-0.1613991	-1.639628E-07	1.526475	-4.173605E-06
19.69825	0.08434176	0.03361447	-0.5820716	0	-10.64448	4.148829E-06
19.71459	0.08189708	0.03239213	-0.1496461	-0.07482304	13.04988	-2.258034
19.73115	0.07578535	0.03239213	-0.368947	0	-6.665324	2.274135
19.74822	0.07211833	0.03239213	-0.2148852	0	4.581031	0
19.76429	0.06845129	0.03239213	-0.2282272	0	-0.4026849	0
19.78086	0.06356192	0.03239213	-0.2950889	0	-2.04867	0
19.79742	0.06111722	0.03239213	-0.1475619	0	4.452118	0
19.81399	0.05989488	0.03239213	-0.07377245	0	2.226841	0
19.84548	0.05989488	0.03239213	0	0	1.535025	0
19.86233	0.05867254	0.03239213	-0.07253643	0	-1.500492	0
19.87921	0.05867254	0.03239213	0	0	2.15053	0
19.89537	0.05745019	0.03239213	-0.0756357	0	-2.289279	0
19.91181	0.05622785	0.03239213	-0.07435426	0	0.0393075	0
19.92832	0.05622785	0.03239213	0	0	2.256616	0
19.94489	0.0550055	0.03239213	-0.07377268	0	-2.230187	0
19.96146	0.05378316	0.03239213	-0.07378899	0	-0.0004922163	0
19.97802	0.05256081	0.03239213	-0.07378095	-2.24859E-07	0.0002428617	-6.786648E-06
20.02119	0.05133847	0.03239213	-0.02831785	0	0.7611123	3.764437E-06
20.03776	0.04767144	0.03239213	-0.2213169	2.248331E-07	-3.230957	3.763883E-06
20.05433	0.04767144	0.03239213	0	0	6.678973	-6.785086E-06
20.07089	0.04644909	0.03239213	-0.07378095	0	-2.226713	0
20.08746	0.04522675	0.03239213	-0.07378095	0	0	0
20.10403	0.04522675	0.03239213	0	0	2.226585	0
20.1206	0.04522675	0.03239213	0	0	0	0
20.13716	0.04522675	0.03239213	0	0	0	0
20.16249	0.04522675	0.03239213	0	0	0	0
20.17908	0.04522675	0.03239213	0	0	0	0
20.19602	0.04522675	0.03239213	0	0	0	0
20.2122	0.04522675	0.03239213	0	0	0	0
20.24534	0.04522675	0.03239213	0	0	0	0
20.26219	0.04522675	0.03239213	0	0	0	0
20.27847	0.04522675	0.03239213	0	0	0	0
20.31107	0.04522675	0.03239213	0	0	0	0
20.32763	0.04522675	0.03239213	0	0	0	0
20.3442	0.04522675	0.03239213	0	0	0	0
20.36077	0.04522675	0.03239213	0	0	0	0
20.37734	0.04522675	0.03239213	0	0	0	0
20.40515	0.04522675	0.03239213	0	0	0	0
20.42172	0.04522675	0.03239213	0	0	0	0
20.43829	0.04522675	0.03239213	0	0	0	0
20.49027	0.04522675	0.03239213	0	0	0	0
20.50684	0.04522675	0.03239213	0	0	0	0
20.52352	0.04522675	0.03239213	0	0	0	0
20.53997	0.04522675	0.03239213	0	0	0	0
20.55712	0.04522675	0.03239213	0	0	0	0
20.57311	0.04522675	0.03239213	0	0	0	0
20.58968	0.04522675	0.03239213	0	0	0	0
20.67488	0.04522675	0.03239213	0	0	0	0
20.69157	0.04522675	0.03239213	0	0	0	0
20.7081	0.04522675	0.03239213	0	0	0	0
20.72475	0.04522675	0.03239213	0	0	0	0
20.74119	0.04522675	0.03239213	0	0	0	0
20.75772	0.04522675	0.03239213	0	0	0	0
20.80283	0.04522675	0.03239213	0	0	0	0
20.82051	0.04522675	0.03239213	0	0	0	0
20.83708	0.04522675	0.03239213	0	0	0	0
20.85429	0.04522675	0.03239213	0	0	0	0
20.87022	0.04522675	0.03239213	0	0	0	0
20.88679	0.04522675	0.03239213	0	0	0	0
20.90337	0.04522675	0.03239213	0	0	0	0
20.91992	0.04522675	0.03239213	0	0	0	0
20.95193	0.04522675	0.03239213	0	0	0	0
20.96864	0.04522675	0.03239213	0	0	0	0
20.98506	0.04522675	0.03239213	0	0	0	0
21.00237	0.04522675	0.03239213	0	0	0	0
21.0182	0.04522675	0.03239213	0	0	0	0
21.03477	0.04522675	0.03239213	0	0	0	0
21.05133	0.04522675	0.03239213	0	0	0	0
21.0679	0.04522675	0.03239213	0	0	0	0
21.10197	0.04522675	0.03239213	0	0	0	0
21.11854	0.04522675	0.03239213	0	0	0	0
21.1353	0.04522675	0.03239213	0	0	0	0
21.15167	0.04522675	0.03239213	0	0	0	0
21.16824	0.04522675	0.03239213	0	0	0	0
21.18481	0.04522675	0.03239213	0	0	0	0
21.20137	0.04522675	0.03239213	0	0	0	0
21.21794	0.04522675	0.03239213	0	0	0	0
21.23451	0.04522675	0.03239213	0	0	0	0
21.27367	0.04522675	0.03239213	0	0	0	0
21.29024	0.04522675	0.03239213	0	0	0	0
21.30699	0.04522675	0.03239213	0	0	0	0
21.32377	0.04522675	0.03239213	0	0	0	0
21.33994	0.04522675	0.03239213	0	0	0	0
21.35688	0.04522675	0.03239213	0	0	0	0
21.37308	0.04522675	0.03239213	0	0	0	0
21.38964	0.04522675	0.03239213	0	0	0	0
21.42961	0.04522675	0.03239213	0	0	0	0
21.44618	0.04522675	0.03239213	0	0	0	0
21.46275	0.04522675	0.03239213	0	0	0	0
21.47932	0.04522675	0.03239213	0	0	0	0
21.49589	0.04522675	0.03239213	0	0	0	0
21.51246	0.04522675	0.03239213	0	0	0	0
21.52902	0.04522675	0.03239213	0	0	0	0
21.55834	0.04522675	0.03239213	0	0	0	0
21.58537	0.04522675	0.03239213	0	0	0	0
21.60194	0.04522675	0.03239213	0	0	0	0
21.61851	0.04522675	0.03239213	0	0	0	0
21.63515	0.04522675	0.03239213	0	0	0	0
21.65177	0.04522675	0.03239213	0	0	0	0
21.66821	0.04522675	0.03239213	0	0	0	0
21.68478	0.04522675	0.03239213	0	0	0	0
21.70135	0.04522675	0.03239213	0	0	0	0
21.71825	0.04522675	0.03239213	0	0	0	0
21.76036	0.04522675	0.03239213	0	0	0	0
21.77693	0.04522675	0.03239213	0	0	0	0
21.7935	0.04522675	0.03239213	0	0	0	0
21.81007	0.04522675	0.03239213	0	0	0	0
21.82664	0.04522675	0.03239213	0	0	0	0
21.8432	0.04522675	0.03239213	0	0	0	0
21.85977	0.04522675	0.03239213	0	0	0	0
21.8765	0.04522675	0.03239213	0	0	0	0
21.89418	0.04522675	0.03239213	0	0	0	0
21.91075	0.04522675	0.03239213	0	0	0	0
21.92732	0.0440044	0.03239213	-0.07378072	0	-2.22645	0
21.94388	0.03422565	0.03361448	-0.5903829	0.07379794	-15.59288	2.227483
21.96116	0.01955751	0.03728151	-0.8488219	0.2122055	-7.636185	4.089576
21.97702	0.001222344	0.03972619	-1.15651	0.154201	-9.286038	-1.75058
21.99359	-0.01833517	0.04339323	-1.180494	0.2213426	-0.7397635	2.070923
22.01054	-0.04155971	0.04706026	-1.369822	0.2162878	-5.647948	-0.1507935
22.02672	-0.06722895	0.05317198	-1.586476	0.3777322	-6.538618	4.872404
22.04452	-0.09167584	0.05806136	-1.373322	0.2746643	6.272687	-3.033078
22.06109	-0.1307909	0.06539543	-2.360987	0.4426852	-28.73751	4.888806
22.07766	-0.1369026	0.06784012	-0.3689045	0.1475619	60.12117	-8.90684
22.09454	-0.1442367	0.06906247	-0.4344327	0.07240575	-1.959038	-2.246876
22.11079	-0.1589048	0.0727295	-0.9025138	0.2256282	-14.12672	4.624263
22.12736	-0.1625718	0.07395184	-0.2213431	0.07378072	20.7549	-4.626712
22.14434	-0.1625718	0.07395184	0	0	6.597357	-2.19911
22.16089	-0.1625718	0.07395184	0	0	0	0
22.17706	-0.1625718	0.07395184	0	0	0	0
22.25459	-0.1625718	0.07395184	0	0	0	0
22.27126	-0.1173451	-0.02994744	2.713646	-6.234052	28.80724	-66.17879
22.28773	-0.1075663	-0.04583792	0.593802	-0.964928	-63.97702	159.0225
22.3043	-0.08923115	-0.08006356	1.106331	-2.06515	15.51189	-33.2987
22.32086	-0.07334067	-0.1106222	0.9594826	-1.845159	-4.431879	6.639355
22.33743	-0.05378315	-0.1546266	1.180358	-2.655804	6.666805	-24.46814
22.38563	-0.04033737	-0.1790735	0.2789767	-0.5072312	-13.91752	33.17443
22.40219	-0.01833517	-0.2328566	1.328056	-3.246357	16.19848	-42.29395
22.41901	-0.01711282	-0.2401907	0.07267627	-0.4360576	-37.60171	84.17541
22.43533	-0.01344579	-0.2524141	0.2247582	-0.7491944	4.589841	-9.450488
22.4519	-0.009778756	-0.2646376	0.2212662	-0.7375543	-0.1061771	0.353928
22.46846	-0.001222344	-0.2780834	0.516585	-0.8117767	8.912226	-2.239907
22.48503	0.02077986	-0.2988632	1.328056	-1.254274	24.49305	-13.35614
22.5016	0.04155971	-0.3098643	1.254419	-0.664103	-2.222486	17.81243
22.54611	0.07089598	-0.3147537	0.6590674	-0.109845	-9.747537	9.074724
22.56268	0.1796847	-0.3025303	6.564985	0.7376392	96.68703	13.87434
22.57924	0.1980198	-0.2964185	1.106968	0.3689886	-164.7233	-11.1259
22.59581	0.2383572	-0.2829728	2.434487	0.8114963	40.06693	13.35568
22.61238	0.2738052	-0.2621929	2.140138	1.254565	-8.883981	13.3726
22.62894	0.3080308	-0.2389684	2.065626	1.401673	-2.248914	4.440001
22.64643	0.3214766	-0.2267449	0.7687534	0.6988677	-38.07665	-20.63463
22.66234	0.3288107	-0.2157438	0.4611052	0.6916578	-9.212192	-0.2158943
22.70073	0.3349224	-0.2108544	0.1592197	0.1273766	-5.56053	-10.39369
22.7173	0.3385894	-0.2035204	0.2212912	0.4425824	1.129467	5.735559
22.73389	0.3385894	-0.2035204	0	0	-6.672821	-13.34564
22.75043	0.3385894	-0.2035204	0	0	0	0
22.76704	0.3385894	-0.2035204	0	0	0	0
22.78356	0.3385894	-0.2035204	0	0	0	0
22.80056	0.3385894	-0.2035204	0	0	0	0
22.81734	0.3385894	-0.2035204	0	0	0	0
22.88835	0.3385894	-0.2035204	0	0	0	0
22.90492	0.3385894	-0.2035204	0	0	0	0
22.92165	0.3385894	-0.2035204	0	0	0	0
22.93805	0.3385894	-0.2035204	0	0	0	0
22.95462	0.3385894	-0.2035204	0	0	0	0
22.97119	0.3385894	-0.2035204	0	0	0	0
23.03321	0.3385894	-0.2035204	0	0	0	0
23.04978	0.3385894	-0.2035204	0	0	0	0
23.06634	0.3385894	-0.2035204	0	0	0	0
23.08291	0.3385894	-0.2035204	0	0	0	0
23.09948	0.3385894	-0.2035204	0	0	0	0
23.11605	0.3385894	-0.2035204	0	0	0	0
23.13262	0.3385894	-0.2035204	0	0	0	0
23.16757	0.3385894	-0.2035204	0	0	0	0
23.18413	0.3385894	-0.2035204	0	0	0	0
23.2007	0.3385894	-0.2035204	0	0	0	0
23.21727	0.3385894	-0.2035204	0	0	0	0
23.23384	0.3410341	-0.1998533	0.1475632	0.2213422	4.453211	6.679736
23.2504	0.3483682	-0.1864075	0.4427353	0.8116832	8.908823	17.81755
23.26732	0.3569246	-0.1729618	0.5057532	0.7947532	1.882058	-0.5056234
23.28381	0.3630363	-0.1619606	0.3706103	0.6671004	-4.04509	-3.820898
23.3001	0.369148	-0.1546266	0.3752104	0.4502534	0.1403332	-6.615283
23.34359	0.3715927	-0.1485149	0.05621642	0.1405397	-5.336462	-5.181212
23.36016	0.3752598	-0.1436255	0.2213422	0.2951229	2.749586	2.574037
23.37672	0.3764821	-0.1424031	0.07377223	0.07377223	-4.453413	-6.679992
23.39329	0.3764821	-0.1424031	0	0	-2.226322	-2.226322
23.41013	0.3764821	-0.1411808	0	0.07259484	0	2.173153
23.42643	0.3777044	-0.1411808	0.07500695	0	2.263714	-2.190917
23.443	0.3777044	-0.1399584	0	0.07376374	-2.282105	2.244281
23.48431	0.3789268	-0.1387361	0.02958996	0.02958996	0.5112259	-0.7631907
23.50088	0.3789268	-0.1375138	0	0.07376374	-0.5112259	0.7631907
23.51744	0.3789268	-0.1375138	0	0	0	-2.226194
23.53401	0.3789268	-0.1375138	0	0	0	0
23.55058	0.3789268	-0.1375138	0	0	0	0
23.56715	0.3789268	-0.1375138	0	0	0	0
23.58371	0.3789268	-0.1375138	0	0	0	0
23.60028	0.3789268	-0.1375138	0	0	0	0
23.61685	0.3789268	-0.1375138	0	0	0	0
23.63449	0.3789268	-0.1375138	0	0	0	0
23.65106	0.3789268	-0.1375138	0	0	0	0
23.66763	0.3789268	-0.1375138	0	0	0	0
23.68435	0.3789268	-0.1375138	0	0	0	0
23.70076	0.3789268	-0.1375138	0	0	0	0
23.71746	0.3789268	-0.1375138	0	0	0	0
23.7339	0.3789268	-0.1375138	0	0	0	0
23.75046	0.3789268	-0.1375138	0	0	0	0
23.76703	0.3789268	-0.1375138	0	0	0	0
23.79766	0.3789268	-0.1375138	0	0	0	0
23.81423	0.3789268	-0.1375138	0	0	0	0
23.83086	0.3789268	-0.1375138	0	0	0	0
23.84736	0.3789268	-0.1375138	0	0	0	0
23.86393	0.3789268	-0.1375138	0	0	0	0
23.88099	0.3789268	-0.1375138	0	0	0	0
23.89707	0.3789268	-0.1375138	0	0	0	0
23.91363	0.3789268	-0.1375138	0	0	0	0
23.9302	0.3789268	-0.1375138	0	0	0	0
23.96731	0.3789268	-0.1375138	0	0	0	0
23.98441	0.3789268	-0.1375138	0	0	0	0
24.00044	0.3789268	-0.1375138	0	0	0	0
24.0172	0.3789268	-0.1375138	0	0	0	0
24.03358	0.3789268	-0.1375138	0	0	0	0
24.05091	0.3789268	-0.1375138	0	0	0	0
24.06671	0.3789268	-0.1375138	0	0	0	0
24.08328	0.3789268	-0.1375138	0	0	0	0
24.09985	0.3789268	-0.1375138	0	0	0	0
24.11686	0.3789268	-0.1375138	0	0	0	0
24.13351	0.3789268	-0.1375138	0	0	0	0
24.15	0.3789268	-0.1375138	0	0	0	0
24.1668	0.3789268	-0.1375138	0	0	0	0
24.18313	0.3789268	-0.1375138	0	0	0	0
24.21682	0.3789268	-0.1375138	0	0	0	0
24.2335	0.3789268	-0.1375138	0	0	0	0
24.25008	0.3789268	-0.1375138	0	0	0	0
24.27573	0.3789268	-0.1375138	0	0	0	0
24.2923	0.3789268	-0.1375138	0	0	0	0
24.30926	0.3789268	-0.1375138	0	0	0	0
24.32543	0.3789268	-0.1375138	0	0	0	0
24.342	0.3789268	-0.1375138	0	0	0	0
24.35878	0.3789268	-0.1375138	0	0	0	0
24.37513	0.3789268	-0.1375138	0	0	0	0
24.39257	0.3789268	-0.1375138	0	0	0	0
24.40827	0.3789268	-0.1375138	0	0	0	0
24.44333	0.3789268	-0.1375138	0	0	0	0
24.45989	0.3789268	-0.1375138	0	0	0	0
24.47646	0.3789268	-0.1375138	0	0	0	0
24.49303	0.3789268	-0.1375138	0	0	0	0
24.50983	0.3789268	-0.1375138	0	0	0	0
24.52634	0.3789268	-0.1375138	0	0	0	0
24.54273	0.3789268	-0.1375138	0	0	0	0
24.55956	0.3789268	-0.1375138	0	0	0	0
24.57586	0.3789268	-0.1375138	0	0	0	0
24.59311	0.3789268	-0.1375138	0	0	0	0
24.60968	0.3789268	-0.1375138	0	0	0	0
24.62628	0.3789268	-0.1375138	0	0	0	0
24.64281	0.3789268	-0.1375138	0	0	0	0
24.65938	0.3789268	-0.1375138	0	0	0	0
24.67595	0.3789268	-0.1375138	0	0	0	0
24.69323	0.3789268	-0.1375138	0	0	0	0
24.70908	0.3789268	-0.1375138	0	0	0	0
24.7258	0.3789268	-0.1375138	0	0	0	0
24.74221	0.3789268	-0.1375138	0	0	0	0
24.76639	0.3789268	-0.1375138	0	0	0	0
24.78296	0.3789268	-0.1375138	0	0	0	0
24.79953	0.3789268	-0.1375138	0	0	0	0
24.81641	0.3789268	-0.1375138	0	0	0	0
24.83266	0.3789268	-0.1375138	0	0	0	0
24.84923	0.3789268	-0.1375138	0	0	0	0
24.86586	0.3789268	-0.1375138	0	0	0	0
24.88236	0.3789268	-0.1375138	0	0	0	0
24.89893	0.3789268	-0.1375138	0	0	0	0
24.91978	0.3789268	-0.1375138	0	0	0	0
24.93646	0.3789268	-0.1375138	0	0	0	0
24.95292	0.3789268	-0.1375138	0	0	0	0
24.96948	0.3789268	-0.1375138	0	0	0	0
24.98605	0.3789268	-0.1362914	1.798872E-06	0.07378072	5.429631E-05	2.226963
25.00287	0.3789268	-0.1338467	0	0.1453855	-5.38868E-05	2.144985
25.01919	0.3789268	-0.1326244	-1.82599E-06	0.074893	-5.510533E-05	-2.127346
25.03576	0.3777044	-0.131402	-0.07378072	0.07378162	-2.24331	-0.03379225
25.05232	0.3764821	-0.131402	-0.07378072	0	0	-2.226734
25.08704	0.3740374	-0.1289573	-0.07040863	0.07040863	0.06574731	1.372793
25.10361	0.3630363	-0.1191786	-0.6639519	0.5901792	-11.57218	10.13385
25.12023	0.3605916	-0.1167339	-0.1471549	0.1471553	15.57455	-13.35127
25.13675	0.3532576	-0.1106222	-0.4439109	0.3699262	-8.956115	6.723239
25.15331	0.3483682	-0.1045105	-0.2951247	0.3689041	4.496588	-0.03089063
25.17006	0.3422565	-0.1008434	-0.3649125	0.2189484	-2.094745	-4.501057
25.18684	0.3373671	-0.09717639	-0.2914322	0.2185741	2.191777	-0.01116383
25.20302	0.3312554	-0.09350936	-0.3777761	0.2266657	-2.620042	0.2455313
25.23797	0.3202543	-0.09350935	-0.3147648	2.131767E-07	1.232413	-4.43326
25.25454	0.2664711	-0.1204009	-3.246359	-1.623179	-56.90484	-31.50734
25.2711	0.2469136	-0.131402	-1.180493	-0.6640279	62.34795	28.94723
25.28767	0.1992421	-0.1582936	-2.877454	-1.62318	-51.21436	-28.94726
25.30424	0.149126	-0.1912969	-3.023971	-1.991395	-4.42113	-11.11083
25.32081	0.08434177	-0.2389684	-3.910385	-2.877455	-26.74743	-26.73673
25.33738	0.04278206	-0.269527	-2.508838	-1.844733	42.3012	31.16938
25.35394	0.009778756	-0.2915291	-1.992083	-1.328055	15.59659	15.59428
25.39598	-0.01466813	-0.3025303	-0.5816223	-0.2617303	24.06952	18.19683
25.41254	-0.04767143	-0.3147537	-1.992083	-0.7378109	-24.06952	-8.124315
25.42911	-0.04767143	-0.3147537	0	0	60.11773	22.26589
25.44568	-0.04767143	-0.3147537	0	0	0	0
25.46224	-0.04767143	-0.3147537	0	0	0	0
25.47881	-0.04889378	-0.3147537	-0.07378095	1.798872E-06	-2.226841	5.429318E-05
25.49538	-0.06111722	-0.3171984	-0.7378086	-0.1475614	-20.04039	-4.453468
25.51195	-0.09534287	-0.3245325	-2.065626	-0.4426352	-40.07131	-8.904831
25.54185	-0.2371348	-0.3783156	-4.74106	-1.798332	-57.56548	-29.16959
25.55842	-0.3653194	-0.3413821	-7.737236	2.229309	-64.4693	86.66355
25.57499	-0.37446	-0.3313302	-0.5517284	0.6067324	216.8591	-48.96947
25.59175	-0.3853285	-0.3186251	-0.6484091	0.7579832	-2.900797	4.538112
25.60812	-0.4004891	-0.2993467	-0.9259706	1.177474	-8.376822	12.66026
25.62482	-0.4004891	-0.2993467	0	0	28.00226	-35.60798
25.64126	-0.4004891	-0.2993467	0	0	0	0
25.65786	-0.4004891	-0.2993467	0	0	0	0
25.67484	-0.4004891	-0.2993467	0	0	0	0
25.69182	-0.4004891	-0.2993467	0	0	0	0
25.7084	-0.4004891	-0.2993467	0	0	0	0
25.72515	-0.4004891	-0.2993467	0	0	0	0
25.74153	-0.4004891	-0.2993467	0	0	0	0
25.75812	-0.4004891	-0.2993467	0	0	0	0
25.77466	-0.4004891	-0.2993467	0	0	0	0
25.79123	-0.4004891	-0.2993467	0	0	0	0
25.80779	-0.4004891	-0.2993467	0	0	0	0
25.82436	-0.3966313	-0.3044398	0.2328836	-0.3074536	7.028844	-9.279501
25.84093	-0.3921086	-0.3102431	0.2729896	-0.3502925	1.210472	-1.292956
25.85819	-0.3878125	-0.315597	0.2488606	-0.3101298	-0.7132275	1.187171
25.92085	-0.3785259	-0.3266774	0.1481964	-0.1768221	-1.259445	1.667859
25.93749	-0.363307	-0.3435229	0.9148239	-1.012601	9.667443	-10.53947
25.95399	-0.359599	-0.3474025	0.2247175	-0.2351209	-20.82625	23.46305
25.97112	-0.3524191	-0.354684	0.4191435	-0.4250745	5.781263	-5.648273
25.98712	-0.3452733	-0.361644	0.4465435	-0.4349244	0.8269808	-0.2972888
26.00369	-0.326366	-0.3734263	1.141246	-0.7111803	21.32958	-8.481944
26.03706	-0.2114656	-0.3025303	3.442927	2.12436	46.08883	56.77881
26.05363	0.3373671	0.0837306	33.12379	23.31207	594.3065	424.2462
26.0702	0.3373671	0.0837306	0	0	-999.678	-703.5596
26.08677	0.4489125	0.2201763	6.73212	8.234933	203.1758	248.5308
26.10333	0.4196571	0.2718233	-1.766264	3.118138	-256.4965	-154.4341
26.1199	0.4236294	0.2655903	0.2397644	-0.3762304	60.54902	-105.4724
26.13647	0.4370888	0.2428032	0.812223	-1.375111	17.27485	-30.14279
26.15303	0.4436519	0.2305929	0.3962406	-0.7371855	-12.55438	19.25262
26.19222	0.4461712	0.2256796	0.06429493	-0.1253883	-5.954397	10.97434
26.20878	0.4471344	0.2237651	0.05813954	-0.1155622	-0.110407	0.1762462
26.22535	0.4471344	0.2237651	0	0	-1.754655	3.487675
26.24218	0.4471344	0.2237651	0	0	0	0
26.25849	0.4471344	0.2237651	0	0	0	0
26.27519	0.4471344	0.2237651	0	0	0	0
26.29162	0.4471344	0.2237651	0	0	0	0
26.30852	0.4468161	0.2244001	-0.01883216	0.03756823	-0.5649412	1.127
26.35111	0.4460082	0.2260015	-0.01896902	0.03759866	-0.002300301	0.0005114492
26.36771	0.4438599	0.2301921	-0.1294797	0.2525676	-1.867267	3.632268
26.38425	0.4438599	0.2301921	0	0	3.90748	-7.622068
26.40082	0.4508333	0.216216	0.4208677	-0.8435036	12.70986	-25.47312
26.41838	0.453631	0.2102829	0.1593322	-0.3378902	-7.663329	14.81512
26.43395	0.4665081	0.1799174	0.8269594	-1.950062	20.15135	-48.66104
26.45052	0.476175	0.1525035	0.5834982	-1.654705	-7.575299	9.190037
26.46748	0.4853308	0.1202246	0.5399034	-1.903431	-1.30035	-7.419014
26.50848	0.4596015	0.08128591	-0.627539	-0.9497169	-20.14269	16.45509
26.52524	0.3752597	0.02505806	-5.03122	-3.354146	-76.23566	-41.625
26.54161	0.3715927	0.02383572	-0.2239705	-0.07465766	145.0747	98.96944
26.5582	0.369148	0.02261337	-0.1473597	-0.07367904	2.32416	0.02968836
26.57512	0.369148	0.02261337	0	0	4.398458	2.199205
26.59131	0.369148	0.02261337	0	0	0	0
26.60818	0.369148	0.02261337	0	0	0	0
26.62445	0.369148	0.02261337	0	0	0	0
26.66508	0.369148	0.02261337	0	0	0	0
26.68171	0.3667033	0.02261337	-0.1470367	0	-2.567855	0
26.69856	0.3642587	0.02261337	-0.1450219	1.104959E-07	0.06017383	3.300009E-06
26.71478	0.361814	0.02383572	-0.1507391	0.07536873	-0.1728544	2.278696
26.73135	0.3434788	0.03116979	-1.106583	0.4426342	-29.15286	11.20145
26.74796	0.3214766	0.04094854	-1.324854	0.5888234	-6.579072	4.406421
26.76448	0.2933627	0.04828261	-1.701269	0.4438091	-11.3609	-4.376793
26.78105	0.2566923	0.05806137	-2.21368	0.5903149	-15.4851	4.427414
26.8149	0.2212444	0.06661778	-1.047276	0.2527908	23.13692	-6.695162
26.83146	0.1393473	0.07639653	-4.943318	0.5902467	-77.27938	6.693556
26.84877	0.1393473	0.07639653	0	0	145.955	-17.42745
26.86484	0.1246791	0.07761887	-0.9124737	0.07603932	-27.33865	2.278216
26.88136	0.1112334	0.07761887	-0.8137436	0	3.02867	-2.332602
26.89773	0.09778756	0.07761887	-0.8215206	0	-0.2364536	0
26.9143	0.08556411	0.07761887	-0.7377236	0	2.544229	0
26.93086	0.07578536	0.07517418	-0.5903826	-0.1475959	4.447017	-4.454709
26.94925	0.05378316	0.07150716	-1.19638	-0.1993962	-17.33695	-1.481954
26.96626	0.04155971	0.06784012	-0.7186952	-0.2156086	13.49449	-0.4579976
26.98239	0.03667033	0.06661777	-0.3031506	-0.07578799	12.54044	4.219552
26.99959	0.02933627	0.06539543	-0.4265296	-0.07108812	-3.702485	0.1410386
27.01565	0.02322455	0.0617284	-0.380468	-0.2282807	1.384957	-4.726397
27.03219	0.01711282	0.05806136	-0.3694574	-0.2216746	0.3376874	0.2026026
27.04866	0.01466813	0.05806137	-0.1484503	2.262132E-07	6.695055	6.715286
27.06523	0.01222344	0.05561667	-0.1475447	-0.1475449	0.02741163	-4.466032
27.0818	0.01222344	0.05439433	0	-0.07378072	4.452653	2.226079
27.09836	0.01222344	0.05439433	0	0	0	2.226835
27.168	0.01222344	0.05439433	0	0	0	0
27.18457	0.01222344	0.05439433	0	0	0	0
27.20113	0.01222344	0.05439433	0	0	0	0
27.2177	0.01222344	0.05439433	0	0	0	0
27.23427	0.01222344	0.05439433	0	0	0	0
27.25084	0.01222344	0.05439433	0	0	0	0
27.2674	0.01222344	0.05439433	0	0	0	0
27.34096	0.01222344	0.05439433	0	0	0	0
27.35753	0.01222344	0.0617284	-5.620827E-08	0.4426341	-6.236498E-07	4.911175
27.3741	0.01344579	0.0617284	0.07378945	2.248849E-07	2.226972	-13.35872
27.39098	0.01344579	0.0617284	0	0	-2.206269	-6.723948E-06
27.40724	0.01344579	0.0617284	0	0	0	0
27.4238	0.01344579	0.0617284	0	0	0	0
27.46508	0.01344579	0.0617284	0	0	0	0
27.48165	0.01344579	0.0617284	0	0	0	0
27.49865	0.01344579	0.0617284	0	0	0	0
27.51479	0.01344579	0.0617284	0	0	0	0
27.53135	0.01344579	0.0617284	0	0	0	0
27.54818	0.01344579	0.0617284	0	0	0	0
27.56448	0.01344579	0.0617284	0	0	0	0
27.58105	0.01344579	0.0617284	0	0	0	0
27.62649	0.01344579	0.0617284	0	0	0	0
27.64306	0.01344579	0.0617284	0	0	0	0
27.65963	0.01344579	0.0617284	0	0	0	0
27.67619	0.01344579	0.0617284	0	0	0	0
27.69276	0.01344579	0.0617284	0	0	0	0
27.70933	0.01344579	0.0617284	0	0	0	0
27.7261	0.01344579	0.0617284	0	0	0	0
27.74246	0.01344579	0.0617284	0	0	0	0
27.75977	0.01344579	0.0617284	0	0	0	0
27.77633	0.01344579	0.0617284	0	0	0	0
27.79291	0.01344579	0.0617284	0	0	0	0
27.80947	0.01344579	0.0617284	0	0	0	0
27.82614	0.01344579	0.0617284	0	0	0	0
27.84264	0.01344579	0.0617284	0	0	0	0
27.85917	0.01344579	0.0617284	0	0	0	0
27.87574	0.01344579	0.0617284	0	0	0	0
27.89231	0.01344579	0.0617284	0	0	0	0
27.93324	0.01344579	0.0617284	0	0	0	0
27.95033	0.01344579	0.0617284	0	0	0	0
27.96659	0.01344579	0.0617284	0	0	0	0
27.98294	0.01344579	0.0617284	0	0	0	0
27.99951	0.01344579	0.0617284	0	0	0	0
28.01608	0.01344579	0.0617284	0	0	0	0
28.03265	0.01344579	0.0617284	0	0	0	0
28.04972	0.01344579	0.0617284	0	0	0	0
28.0879	0.01344579	0.0617284	0	0	0	0
28.10447	0.01344579	0.0617284	0	0	0	0
28.12132	0.01344579	0.0617284	0	0	0	0
28.13788	0.01344579	0.0617284	0	0	0	0
28.15448	0.01344579	0.0617284	0	0	0	0
28.17073	0.01344579	0.0617284	0	0	0	0
28.18737	0.01344579	0.0617284	0	0	0	0
28.20387	0.01344579	0.0617284	0	0	0	0
28.24207	0.01344579	0.0617284	0	0	0	0
28.25863	0.01344579	0.0617284	0	0	0	0
28.2752	0.01344579	0.0617284	0	0	0	0
28.29179	0.01344579	0.0617284	0	0	0	0
28.30834	0.01344579	0.0617284	0	0	0	0
28.32506	0.01344579	0.0617284	0	0	0	0
28.34147	0.01344579	0.0617284	0	0	0	0
28.35804	0.01344579	0.0617284	0	0	0	0
28.37525	0.01344579	0.0617284	0	0	0	0
28.39325	0.01344579	0.0617284	0	0	0	0
28.40982	0.01344579	0.0617284	0	0	0	0
28.42639	0.01344579	0.0617284	0	0	0	0
28.44296	0.01344579	0.0617284	0	0	0	0
28.45952	0.01344579	0.0617284	0	0	0	0
28.47609	0.01589048	0.05806136	0.1475786	-0.2213683	4.453931	-6.680909
28.49266	0.01833517	0.05317198	0.1475448	-0.2950894	-0.00102041	-2.224905
28.5097	0.01955751	0.0507273	0.07174892	-0.1434976	-2.255455	4.510911
28.52579	0.0220022	0.04828261	0.1518626	-0.1518626	2.417837	-0.2524568
28.62505	0.0220022	0.04828261	0	0	-1.316508	1.316508
28.64162	0.0220022	0.04828261	0	0	0	0
28.65818	0.0220022	0.04828261	0	0	0	0
28.67475	0.0220022	0.04828261	0	0	0	0
28.69132	0.0220022	0.04828261	0	0	0	0
28.71365	0.0220022	0.04828261	0	0	0	0
28.73022	0.0220022	0.04828261	0	0	0	0
28.74707	0.0220022	0.04828261	0	0	0	0
28.76336	0.0220022	0.04828261	0	0	0	0
28.77993	0.0220022	0.04828261	0	0	0	0
28.79672	0.0220022	0.04828261	0	0	0	0
28.81306	0.0220022	0.04828261	0	0	0	0
28.82976	0.0220022	0.04828261	0	0	0	0
28.84652	0.0220022	0.04828261	0	0	0	0
28.87645	0.0220022	0.04828261	0	0	0	0
28.89301	0.0220022	0.04828261	0	0	0	0
28.90959	0.0220022	0.04828261	0	0	0	0
28.92674	0.0220022	0.04828261	0	0	0	0
28.9428	0.0220022	0.04828261	0	0	0	0
28.9649	0.0220022	0.04828261	0	0	0	0
28.98175	0.0220022	0.04828261	0	0	0	0
28.99804	0.0220022	0.04828261	0	0	0	0
29.01461	0.0220022	0.04828261	0	0	0	0
29.04834	0.0220022	0.04828261	0	0	0	0
29.06491	0.0220022	0.04706027	0	-0.07376374	0	-1.466403
29.08148	0.0220022	0.04339323	0	-0.2213683	0	-4.454459
29.09804	0.01955751	0.03116979	-0.1475618	-0.7378085	-4.45368	-15.58709
29.11461	0.009778756	0.01038993	-0.5903148	-1.254419	-13.36308	-15.59223
29.13118	-0.003667034	-0.01405696	-0.8115894	-1.475617	-6.678465	-6.676159
29.14774	-0.02322455	-0.04094854	-1.180494	-1.623179	-11.13355	-4.45342
29.16439	-0.05133847	-0.07884122	-1.688794	-2.2762	-15.30353	-19.66069
29.18088	-0.08678646	-0.1326244	-2.150041	-3.262131	-13.92047	-29.75546
29.20443	-0.1332356	-0.1912969	-1.972198	-2.491197	4.441728	19.25455
29.221	-0.2151326	-0.2915291	-4.94161	-6.047941	-74.00422	-88.64183
29.23758	-0.2261337	-0.3061973	-0.6634927	-0.8846576	129.0396	155.7386
29.25449	-0.2444689	-0.3306442	-1.084245	-1.44566	-12.56309	-16.75076
29.2707	-0.2481359	-0.3367559	-0.2262132	-0.3770223	25.90588	32.26454
29.28755	-0.2481359	-0.3392006	0	-0.1451532	6.844068	7.015186
29.30422	-0.2481359	-0.3392006	0	0	0	4.330873
29.32041	-0.2481359	-0.3392006	0	0	0	0
29.33698	-0.2481359	-0.3392006	0	0	0	0
29.38014	-0.2481359	-0.3392006	0	0	0	0
29.39671	-0.2346901	-0.3367559	0.8114038	0.1475275	13.58397	2.469805
29.41327	-0.2273561	-0.3367559	0.4426852	0	-11.12667	-4.451876
29.43001	-0.2102433	-0.3355336	1.022455	0.07303241	17.40829	2.192888
29.44641	-0.1906857	-0.3367559	1.192438	-0.0745272	5.129515	-4.452845
29.46297	-0.1589048	-0.3465346	1.918965	-0.5904498	22.04083	-15.65166
29.47958	-0.1320132	-0.3575357	1.619264	-0.6624268	-9.035645	-2.170022
29.49611	-0.1038993	-0.3673145	1.700876	-0.5916098	2.462913	2.137136
29.53328	-0.07456301	-0.3770933	0.7891968	-0.2630659	-16.97682	6.117978
29.54985	-0.01589048	-0.3954284	3.541073	-1.106583	51.20584	-15.69585
29.56642	-0.007334067	-0.3966508	0.5164661	-0.07378253	-91.27757	31.1682
29.58303	0.0110011	-0.4027625	1.103663	-0.3678889	17.6972	-8.863903
29.59955	0.03055861	-0.4052072	1.184038	-0.1480027	2.425986	6.636945
29.61612	0.04889378	-0.4052072	1.106586	-1.798665E-06	-2.340888	4.473112
29.63268	0.06600661	-0.4039849	1.033051	0.07378922	-2.219265	2.227017
29.64925	0.0794524	-0.4003178	0.8116828	0.2213695	-6.681687	4.454493
29.66679	0.09412052	-0.3942061	0.8362684	0.3484446	0.7208751	3.725966
29.68571	0.1283462	-0.3697592	1.808881	1.292057	26.67551	25.88013
29.70238	0.1503484	-0.3526464	1.31985	1.026552	-13.74024	-7.459867
29.71911	0.1699059	-0.3355336	1.168787	1.022689	-4.522405	-0.1156498
29.73551	0.1784623	-0.3257548	0.5219948	0.5965645	-19.52584	-12.86415
29.75254	0.1992422	-0.3061973	1.219594	1.147852	20.8674	16.49077
29.76855	0.2273561	-0.2805281	1.756618	1.603871	16.25232	13.80079
29.78531	0.2505806	-0.2621929	1.385725	1.093992	-11.31998	-15.56196
29.80168	0.2701381	-0.2463024	1.194382	0.9704363	-5.77476	-3.728915
29.81825	0.2884733	-0.2328566	1.10684	0.8116823	-2.657611	-4.819501
29.83482	0.3068085	-0.2181885	1.106585	0.8852686	-0.007691976	2.220837
29.86451	0.322699	-0.2035204	0.5351482	0.4939826	-12.35199	-8.457909
29.88108	0.3532576	-0.1741841	1.844522	1.770742	28.30415	27.59914
29.89765	0.3532576	-0.1741841	0	0	-55.66778	-53.4411
29.91422	0.3581469	-0.1680724	0.2950532	0.3688196	8.903697	11.12972
29.93078	0.3605916	-0.1656277	0.1475972	0.1475945	-4.450228	-6.676585
29.94735	0.3605916	-0.1656277	0	0	-4.455007	-4.454925
29.96391	0.3605916	-0.1656277	0	0	0	0
29.98048	0.3605916	-0.1656277	0	0	0	0
29.99729	0.3605916	-0.1656277	0	0	0	0
30.05152	0.3605916	-0.1656277	0	0	0	0
30.06809	0.3605916	-0.1656277	0	0	0	0
30.08466	0.3605916	-0.1656277	0	0	0	0
30.10122	0.3605916	-0.1656277	0	0	0	0
30.11779	0.3605916	-0.1656277	0	0	0	0
30.13518	0.3605916	-0.1656277	0	0	0	0
30.15093	0.3605916	-0.1656277	0	0	0	0
30.21988	0.3605917	-0.1644053	4.322029E-07	0.01772702	5.102772E-06	0.2092928
30.23651	0.2774722	-0.1375138	-4.997538	1.61685	-58.39164	18.68428
30.25302	0.2725828	-0.1362914	-0.2962845	0.07407156	141.8841	-46.56114
30.26971	0.2603594	-0.1326244	-0.732327	0.2196981	-13.13635	4.387189
30.28615	0.251803	-0.1289573	-0.5203609	0.223011	6.397151	0.09998444
30.30272	0.2505806	-0.1289573	-0.07377043	0	13.52796	-6.755373
30.33677	0.2493583	-0.127735	-0.03590292	0.03590292	0.7481434	0.7093294
30.35334	0.2469136	-0.1252903	-0.1475275	0.1475266	-2.205269	2.205251
30.3699	0.2469136	-0.1252903	0	0	4.452132	-4.452105
30.38653	0.2432466	-0.1216233	-0.2205803	0.2205808	-6.646033	6.646046
30.40339	0.2334678	-0.1142892	-0.5797691	0.4348262	-10.72489	6.397079
30.4196	0.2151326	-0.1045104	-1.131196	0.6033051	-16.67185	5.093793
30.43617	0.1967975	-0.09595404	-1.106585	0.5164065	0.7508438	-2.651142
30.45273	0.1796847	-0.08495294	-1.033169	0.6641803	2.215837	4.460079
30.49028	0.1589048	-0.07517418	-0.5533926	0.2604199	8.866129	-7.461378
30.50685	0.1014546	-0.04706026	-3.4677	1.69696	-53.85178	26.54498
30.52342	0.09412052	-0.04339323	-0.4426338	0.2213169	91.29143	-44.53243
30.53999	0.08800881	-0.04094854	-0.3689466	0.1475784	2.223887	-2.225432
30.55655	0.07945239	-0.03728151	-0.5164664	0.2213428	-4.452415	2.226343
30.57312	0.06722895	-0.02994744	-0.7376383	0.4425832	-6.674212	6.67628
30.58969	0.05867253	-0.02505806	-0.5164664	0.2951235	6.674212	-4.449832
30.60638	0.04889378	-0.02016868	-0.5857956	0.2928978	-2.084438	-0.06691654
30.65648	0.03422565	-0.01161227	-0.2927864	0.170792	4.386921	-1.828162
30.67305	-0.01955751	0.01161227	-3.245984	1.401675	-44.29737	18.463
30.68962	-0.02077986	0.01283462	-0.07378945	0.07378939	95.73703	-40.07567
30.70618	-0.0220022	0.01283462	-0.07378083	0	0.0002599519	-2.227096
30.72276	-0.0220022	0.01283462	0	0	2.226454	0
30.73932	-0.0220022	0.01283462	0	0	0	0
30.75589	-0.0220022	0.01283462	0	0	0	0
30.7725	-0.0220022	0.01283462	0	0	0	0
30.81031	-0.0220022	0.01283462	0	0	0	0
30.82688	-0.0220022	0.01283462	0	0	0	0
30.84344	-0.0220022	0.01283462	0	0	0	0
30.86001	-0.0220022	0.01283462	0	0	0	0
30.87658	-0.0220022	0.01283462	0	0	0	0
30.89334	-0.0220022	0.01283462	0	0	0	0
30.90972	-0.0220022	0.01283462	0	0	0	0
30.92641	-0.0220022	0.01283462	0	0	0	0
30.94285	-0.0220022	0.01283462	0	0	0	0
30.96039	-0.0220022	0.01283462	0	0	0	0
30.97699	-0.0220022	0.01283462	0	0	0	0
30.99352	-0.0220022	0.01283462	0	0	0	0
31.0103	-0.0220022	0.01283462	0	0	0	0
31.02666	-0.0220022	0.01283462	0	0	0	0
31.04322	-0.0220022	0.01283462	0	0	0	0
31.05979	-0.0220022	0.01283462	0	0	0	0
31.0764	-0.0220022	0.01283462	0	0	0	0
31.09293	-0.0220022	0.01283462	0	0	0	0
31.10949	-0.0220022	0.01283462	0	0	0	0
31.14381	-0.0220022	0.01283462	0	0	0	0
31.16038	-0.0220022	0.01283462	0	0	0	0
31.17695	-0.0220022	0.01283462	0	0	0	0
31.19351	-0.0220022	0.01283462	0	0	0	0
31.21008	-0.0220022	0.01283462	0	0	0	0
31.22668	-0.0220022	0.01283462	0	0	0	0
31.24323	-0.0220022	0.01283462	0	0	0	0
31.25996	-0.0220022	0.01283462	0	0	0	0
31.30192	-0.0220022	0.01283462	0	0	0	0
31.31854	-0.0220022	0.01283462	0	0	0	0
31.33506	-0.0220022	0.01283462	0	0	0	0
31.35163	-0.0220022	0.01283462	0	0	0	0
31.36861	-0.0220022	0.01283462	0	0	0	0
31.3856	-0.0220022	0.01283462	0	0	0	0
31.40164	-0.0220022	0.01283462	0	0	0	0
31.4179	-0.0220022	0.01283462	0	0	0	0
31.47151	-0.0220022	0.01283462	0	0	0	0
31.48808	-0.0220022	0.01283462	0	0	0	0
31.50464	-0.0220022	0.01283462	0	0	0	0
31.5216	-0.0220022	0.01283462	0	0	0	0
31.53778	-0.0220022	0.01283462	0	0	0	0
31.55435	-0.0220022	0.01283462	0	0	0	0
31.57092	-0.0220022	0.01283462	0	0	0	0
31.58748	-0.0220022	0.01283462	0	0	0	0
31.64416	-0.0220022	0.01283462	0	0	0	0
31.66073	-0.0220022	0.01283462	0	0	0	0
31.67729	-0.0220022	0.01283462	0	0	0	0
31.69387	-0.0220022	0.01283462	0	0	0	0
31.71069	-0.0220022	0.01283462	0	0	0	0
31.727	-0.0220022	0.01283462	0	0	0	0
31.74357	-0.0220022	0.01283462	0	0	0	0
31.80291	-0.0220022	0.01283462	0	0	0	0
31.81947	-0.0220022	0.01283462	0	0	0	0
31.83605	-0.0220022	0.01283462	0	0	0	0
31.85261	-0.0220022	0.01283462	0	0	0	0
31.86918	-0.0220022	0.01283462	0	0	0	0
31.88574	-0.0220022	0.01283462	0	0	0	0
31.90231	-0.0220022	0.01283462	0	0	0	0
31.94523	-0.0220022	0.01283462	0	0	0	0
31.9618	-0.0220022	0.01283462	0	0	0	0
31.97836	-0.0220022	0.01283462	0	0	0	0
31.9952	-0.0220022	0.01283462	0	0	0	0
32.0115	-0.0220022	0.01283462	0	0	0	0
32.02806	-0.0220022	0.01283462	0	0	0	0
32.04463	-0.0220022	0.01283462	0	0	0	0
32.06136	-0.0220022	0.01283462	0	0	0	0
32.1025	-0.0220022	0.01283462	0	0	0	0
32.11906	-0.0220022	0.01283462	0	0	0	0
32.13563	-0.0220022	0.01283462	0	0	0	0
32.15224	-0.0220022	0.01283462	0	0	0	0
32.16877	-0.0220022	0.01283462	0	0	0	0
32.18549	-0.0220022	0.01283462	0	0	0	0
32.2019	-0.0220022	0.01283462	0	0	0	0
32.21862	-0.0220022	0.01283462	0	0	0	0
32.25182	-0.0220022	0.01283462	0	0	0	0
32.26838	-0.0220022	0.01283462	0	0	0	0
32.28527	-0.0220022	0.01283462	0	0	0	0
32.30152	-0.0220022	0.01283462	0	0	0	0
32.31809	-0.0220022	0.01283462	0	0	0	0
32.335	-0.0220022	0.01283462	0	0	0	0
32.35122	-0.0220022	0.01283462	0	0	0	0
32.37556	-0.0220022	0.01283462	0	0	0	0
32.39783	-0.0220022	0.01283462	0	0	0	0
32.4144	-0.0220022	0.01283462	0	0	0	0
32.43097	-0.0220022	0.01283462	0	0	0	0
32.44754	-0.0220022	0.01283462	0	0	0	0
32.4641	-0.0220022	0.01283462	0	0	0	0
32.48098	-0.0220022	0.01283462	0	0	0	0
32.49724	-0.0220022	0.01283462	0	0	0	0
32.51381	-0.0220022	0.01283462	0	0	0	0
32.53037	-0.0220022	0.01283462	0	0	0	0
32.54694	-0.0220022	0.01283462	0	0	0	0
32.58377	-0.0220022	0.01283462	0	0	0	0
32.60033	-0.0220022	0.01283462	0	0	0	0
32.6169	-0.0220022	0.01283462	0	0	0	0
32.63347	-0.0220022	0.01283462	0	0	0	0
32.65004	-0.0220022	0.01283462	0	0	0	0
32.6666	-0.0220022	0.01283462	0	0	0	0
32.7187	-0.0220022	0.01283462	0	0	0	0
32.76848	-0.0220022	0.01283462	0	0	0	0
32.78529	-0.0220022	0.01283462	0	0	0	0
32.80162	-0.0220022	0.01283462	0	0	0	0
32.81835	-0.0220022	0.01283462	0	0	0	0
32.83475	-0.0220022	0.01283462	0	0	0	0
32.85132	-0.0220022	0.01283462	0	0	0	0
32.86789	-0.0220022	0.01283462	0	0	0	0
32.88445	-0.0220022	0.01283462	0	0	0	0
32.96312	-0.0220022	0.01283462	0	0	0	0
32.97968	-0.0220022	0.01283462	0	0	0	0
32.99625	-0.0220022	0.01283462	0	0	0	0
33.01282	-0.0220022	0.01283462	0	0	0	0
33.02939	-0.0220022	0.01283462	0	0	0	0
33.04596	-0.0220022	0.01283462	0	0	0	0
33.08858	-0.0220022	0.01283462	0	0	0	0
33.10514	-0.0220022	0.01283462	0	0	0	0
33.12171	-0.0220022	0.01283462	0	0	0	0
33.13828	-0.0220022	0.01283462	0	0	0	0
33.15484	-0.0220022	0.01283462	0	0	0	0
33.17141	-0.0220022	0.01283462	0	0	0	0
33.18798	-0.0220022	0.01283462	0	0	0	0
33.20455	-0.0220022	0.01283462	0	0	0	0
33.24107	-0.0220022	0.01283462	0	0	0	0
33.25764	-0.0220022	0.01283462	0	0	0	0
33.27421	-0.0220022	0.01283462	0	0	0	0
33.29078	-0.0220022	0.01283462	0	0	0	0
33.3076	-0.0220022	0.01283462	0	0	0	0
33.32391	-0.0220022	0.01283462	0	0	0	0
33.34081	-0.0220022	0.01283462	0	0	0	0
33.35704	-0.0220022	0.01283462	0	0	0	0
33.37362	-0.0220022	0.01283462	0	0	0	0
33.42009	-0.0220022	0.01283462	0	0	0	0
33.43666	-0.0220022	0.01283462	0	0	0	0
33.45323	-0.0220022	0.01283462	0	0	0	0
33.4698	-0.0220022	0.01283462	0	0	0	0
33.48637	-0.0220022	0.01283462	0	0	0	0
33.50367	-0.01833517	0.01161227	0.2118781	-0.07062611	6.254795	-2.084934
33.5195	-0.01222344	0.00794524	0.3860606	-0.2316363	5.256231	-4.858737
33.53607	-0.006111722	0.003055861	0.3689893	-0.2951914	-0.5269831	-1.961918
33.57119	-0.002444689	-0.0006111723	0.1043973	-0.1043974	-5.118906	3.691183
33.58776	0.004889378	-0.009167584	0.4426852	-0.516466	6.544175	-7.971466
33.60457	0.006111722	-0.01038993	0.0727094	-0.07270937	-11.08422	13.29464
33.62107	0.007334067	-0.01161227	0.07410504	-0.07410504	0.04190349	-0.04190439
33.63746	0.009778757	-0.01650165	0.1491068	-0.2982134	2.280358	-6.813809
33.65403	0.01222344	-0.02016868	0.1475617	-0.2213426	-0.04687364	2.332046
33.67059	0.01344579	-0.02261337	0.07379783	-0.1475957	-2.226454	2.225944
33.68716	0.01589048	-0.0287251	0.1475618	-0.3689043	2.226457	-6.679877
33.70373	0.01711282	-0.03116979	0.07378083	-0.1475618	-2.226714	6.68013
33.72177	0.01833517	-0.03850385	0.06775855	-0.4065514	-0.1740197	-7.483749
33.73833	0.0220022	-0.06050605	0.2213426	-1.328056	4.437957	-26.62773
33.75503	0.0220022	-0.06906246	0	-0.5125712	-6.65485	24.51822
33.77147	0.0220022	-0.07761887	-1.132903E-07	-0.5204204	-3.419108E-06	-0.236888
33.78807	0.01833517	-0.09839873	-0.2208848	-1.251681	-6.684783	-22.13063
33.8046	0.01589048	-0.1081775	-0.1479022	-0.5916094	2.202871	19.92329
33.82116	0.01589048	-0.1142892	-1.124554E-07	-0.368989	4.469354	6.727214
33.83773	0.01466813	-0.1167339	-0.0737638	-0.1475279	-2.226192	6.683709
33.8543	0.01344579	-0.1191786	-0.07378089	-0.1475614	-0.0005159919	-0.001011299
33.88429	0.01344579	-0.1191786	0	0	1.584826	3.169645
33.90086	0.01344579	-0.1191786	0	0	0	0
33.91783	0.01344579	-0.1191786	0	0	0	0
33.93399	0.01344579	-0.1191786	0	0	0	0
33.95079	0.01344579	-0.1191786	0	0	0	0
33.96713	0.01344579	-0.1191786	0	0	0	0
33.98369	0.008556412	-0.1142892	-0.2951914	0.2951913	-8.972941	8.972939
34.00026	-0.009778756	-0.1008434	-1.106713	0.8115893	-24.49459	15.58672
34.01683	-0.02933627	-0.08984232	-1.180494	0.6640279	-2.226705	-4.453413
34.06293	-0.04889378	-0.08373059	-0.4242003	0.1325627	12.06755	-8.480151
34.07957	-0.05622784	-0.07761887	-0.4407568	0.3672972	-0.2638728	3.741139
34.09607	-0.05622784	-0.07761887	0	0	13.30053	-11.08378
34.11264	-0.05622784	-0.07761887	0	0	0	0
34.1292	-0.05622784	-0.07761887	0	0	0	0
34.14577	-0.05622784	-0.07761887	0	0	0	0
34.16235	-0.05622784	-0.07761887	0	0	0	0
34.1789	-0.05622784	-0.07761887	0	0	0	0
34.2048	-0.05622784	-0.07639653	0	0.04720532	0	1.112023
34.22136	-0.05378316	-0.07395185	0.1475617	0.1475614	3.475196	2.363468
34.23793	-0.05133847	-0.07150715	0.1475617	0.1475624	0	2.743279E-05
34.25464	-0.04767144	-0.07028481	0.2194726	0.07315746	2.161071	-2.236019
34.27106	-0.04155971	-0.06661777	0.3720744	0.2232445	4.605531	4.529637
34.28785	-0.03422565	-0.06417309	0.4369502	0.1456499	1.953459	-2.336432
34.3042	-0.03055861	-0.06295075	0.2242339	0.0747445	-6.419054	-2.139682
34.32121	-0.02566924	-0.0617284	0.2875104	0.07187767	1.896805	-0.08593728
34.33733	-0.02322454	-0.06050605	0.1516114	0.07580592	-4.101912	0.1185685
34.38221	-0.02077986	-0.0592837	0.05447177	0.02723593	-1.592332	-0.796169
34.39878	-0.01833517	-0.05806137	0.1475617	0.0737805	1.514959	0.7574733
34.41535	-0.01711282	-0.05806136	0.07378095	2.24859E-07	-2.226707	-2.226693
34.43198	-0.01589048	-0.05683902	0.07349305	0.07349305	-0.008671803	2.213685
34.44849	-0.01589048	-0.05561667	0	0.07405377	-2.217769	0.01692071
34.46505	-0.01589048	-0.05561667	0	0	0	-2.239072
34.48162	-0.01466813	-0.05561667	0.07379789	0	2.227481	0
34.49818	-0.01466813	-0.05439433	0	0.07378095	-2.227481	2.22697
34.53489	-0.01466813	-0.05439433	0	0	0	-1.384979
34.55146	-0.01589048	-0.05439433	-0.07376391	-2.248072E-07	-1.38456	-4.219667E-06
34.56802	-0.01711282	-0.05439433	-0.07379783	0	-0.001023783	6.784695E-06
34.58459	-0.01833517	-0.05439433	-0.07378083	0	0.0005129623	0
34.60126	-0.02077986	-0.05439433	-0.1466165	0	-2.191123	0
34.61773	-0.0220022	-0.05439433	-0.0742596	0	2.183737	0
34.63429	-0.02444689	-0.05439433	-0.1475617	0	-2.219415	0
34.65087	-0.02566923	-0.05317198	-0.07374687	0.07374699	2.227222	2.225176
34.69071	-0.02566923	-0.05317198	0	0	1.307208	-1.30721
34.70776	-0.02566923	-0.05317198	0	0	0	0
34.72428	-0.02689158	-0.05317198	-0.07396819	0	-2.203195	0
34.74042	-0.02689158	-0.05317198	0	0	2.26443	0
34.75698	-0.02933627	-0.05317198	-0.1476637	2.250144E-07	-4.516293	6.882065E-06
34.77403	-0.03422565	-0.05561667	-0.2867386	-0.1433692	-4.138214	-4.265997
34.79012	-0.04033737	-0.06050605	-0.3799268	-0.3039416	-2.812101	-4.845526
34.80695	-0.04889378	-0.06661778	-0.5083891	-0.3631354	-3.90261	-1.798274
34.83189	-0.05989488	-0.0727295	-0.440959	-0.2449771	1.613987	2.828203
34.8489	-0.09656522	-0.09228701	-2.156811	-1.150299	-40.9021	-21.58087
34.86503	-0.1075663	-0.09839872	-0.681927	-0.378848	44.5121	23.28245
34.88195	-0.1259015	-0.1069551	-1.083267	-0.5055253	-12.14042	-3.83195
34.89816	-0.145459	-0.1130669	-1.20661	-0.3770653	-3.72251	3.876931
34.91473	-0.1613495	-0.1179562	-0.9591512	-0.2951233	7.550034	2.500068
34.93147	-0.1711282	-0.1204009	-0.5840605	-0.1460149	11.26063	4.476395
34.94794	-0.1796846	-0.1216233	-0.5195765	-0.07422554	1.94166	2.16163
34.96466	-0.1833517	-0.1228456	-0.219273	-0.07309071	9.047552	0.03419013
35.01088	-0.1870187	-0.1228456	-0.07934047	-1.612021E-07	2.223181	1.161227
35.02745	-0.1906857	-0.124068	-0.2213431	-0.07378028	-2.261689	-1.175103
35.04402	-0.1955751	-0.124068	-0.2951229	0	-2.226679	2.226693
35.06059	-0.1992421	-0.124068	-0.2213422	-4.497179E-07	2.226707	-1.357251E-05
35.07716	-0.2090209	-0.124068	-0.5901117	0	-11.12821	1.357095E-05
35.09372	-0.220022	-0.124068	-0.6641812	0	-2.235422	0
35.11037	-0.2322454	-0.1216233	-0.7340887	0.1468186	-2.104722	4.420308
35.12756	-0.2395795	-0.1216233	-0.4266716	-4.334499E-07	9.084381	-4.338602
35.1662	-0.2493583	-0.1216233	-0.2530798	0	3.109398	7.76401E-06
35.18277	-0.2823616	-0.1216233	-1.992084	0	-31.5001	0
35.19965	-0.2823616	-0.1216233	0	0	59.55895	0
35.2159	-0.2933627	-0.1228456	-0.6768053	-0.07520058	-20.42602	-2.269558
35.23247	-0.3043638	-0.1252903	-0.6640283	-0.1475624	0.389283	-2.204696
35.24903	-0.3080308	-0.1252903	-0.2213914	8.99643E-07	13.36035	4.45398
35.2656	-0.3080308	-0.1252903	0	0	6.681604	-2.715128E-05
35.28217	-0.3080308	-0.1252903	0	0	0	0
35.33251	-0.3080308	-0.1252903	0	0	0	0
35.34908	-0.3080308	-0.1252903	0	0	0	0
35.36564	-0.3080308	-0.1252903	0	0	0	0
35.38221	-0.3080308	-0.1252903	0	0	0	0
35.39878	-0.3080308	-0.1252903	0	0	0	0
35.41563	-0.3092532	-0.124068	-0.07252999	0.07252778	-2.170221	2.170154
35.43191	-0.3129202	-0.1191786	-0.2252845	0.3003798	-4.610671	6.87738
35.49653	-0.3153649	-0.1167339	-0.03783113	0.03783136	2.317149	-3.245414
35.5131	-0.3178096	-0.1155115	-0.1475614	0.07378118	-1.351555	0.4427961
35.52966	-0.3178096	-0.1155115	0	0	4.453413	-2.22672
35.54623	-0.3178096	-0.1155115	0	0	0	0
35.5628	-0.3178096	-0.1155115	0	0	0	0
35.57937	-0.3178096	-0.1155115	0	0	0	0
35.59593	-0.3178096	-0.1155115	0	0	0	0
35.6473	-0.3178096	-0.1155115	0	0	0	0
35.66387	-0.3141425	-0.1142892	0.2213422	0.07378028	3.257918	1.085966
35.68044	-0.3092532	-0.1118445	0.2951211	0.1475614	2.226652	2.22672
35.69701	-0.3019191	-0.1093998	0.4426861	0.1475619	4.453522	1.349154E-05
35.71357	-0.2811392	-0.1045105	1.254565	0.2951913	24.50537	4.455978
35.73048	-0.2579147	-0.09962108	1.373065	0.2890665	3.539679	-0.1829528
35.7467	-0.2334678	-0.09350935	1.5072	0.3767997	4.048184	2.647794
35.76327	-0.1980198	-0.08617529	2.139644	0.4426852	19.28928	2.009482
35.78078	-0.1760176	-0.07761887	1.25659	0.4886736	-25.91373	1.349554
35.79735	-0.1466813	-0.0617284	1.770332	0.9589302	15.07439	13.79841
35.81411	-0.1381249	-0.05683902	0.5107039	0.291831	-37.79808	-20.01786
35.83048	-0.1161227	-0.04217089	1.343523	0.895682	25.13742	18.22636
35.8474	-0.09534287	-0.02628041	1.228533	0.9394664	-3.454094	1.315205
35.86362	-0.07089598	-0.01038993	1.506489	0.9792181	8.386798	1.199433
35.88019	-0.03422565	0.01405696	2.213935	1.475957	21.57431	15.14857
35.89681	-0.01222344	0.0287251	1.323484	0.8823228	-26.83062	-17.88708
35.91332	0.007334067	0.04217089	1.184859	0.8145906	-4.184208	-2.044399
35.95255	0.02322455	0.05194964	0.4050952	0.2492893	-13.99113	-10.14307
35.96957	0.04644909	0.06784012	1.364144	0.9333618	17.0493	12.16096
35.98587	0.04644909	0.06784012	0	0	-40.939	-28.0109
36.00225	0.04889378	0.07028481	0.1492108	0.1492106	4.565742	4.565735
36.01891	0.05133847	0.07150715	0.1467507	0.07337524	-0.07445145	-2.295056
36.03545	0.05256081	0.0727295	0.07388302	0.07388324	-2.194603	0.01529985
36.05195	0.05256081	0.07395184	0	0.07408779	-2.235972	0.006190382
36.06852	0.05256081	0.07395184	0	0	0	-2.240876
36.1214	0.05256081	0.07395184	0	0	0	0
36.13799	0.05256081	0.07395184	0	0	0	0
36.15453	0.05256081	0.07395184	0	0	0	0
36.1711	0.05256081	0.07395184	0	0	0	0
36.18767	0.05256081	0.07395184	0	0	0	0
36.20444	0.05256081	0.07395184	0	0	0	0
36.2208	0.05256081	0.07395184	0	0	0	0
36.25977	0.05256081	0.07395184	0	0	0	0
36.2765	0.05256081	0.07395184	0	0	0	0
36.29316	0.05256081	0.07395184	0	0	0	0
36.30947	0.05256081	0.07395184	0	0	0	0
36.32603	0.05256081	0.07395184	0	0	0	0
36.3426	0.05256081	0.07395184	0	0	0	0
36.35917	0.05256081	0.07395184	0	0	0	0
36.37574	0.05256081	0.07395184	0	0	0	0
36.41405	0.05256081	0.07395184	0	0	0	0
36.43062	0.05256081	0.07395184	0	0	0	0
36.44756	0.05256081	0.07395184	0	0	0	0
36.46375	0.05256081	0.07395184	0	0	0	0
36.48032	0.05256081	0.07395184	0	0	0	0
36.49721	0.05256081	0.07395184	0	0	0	0
36.51345	0.05256081	0.07395184	0	0	0	0
36.53002	0.05256081	0.07395184	0	0	0	0
36.54659	0.05256081	0.07395184	0	0	0	0
36.56355	0.05256081	0.07395184	0	0	0	0
36.58012	0.05256081	0.07395184	0	0	0	0
36.59669	0.05256081	0.07395184	0	0	0	0
36.61325	0.05133847	0.07395184	-0.07378095	0	-2.226713	0
36.62982	0.04522675	0.07639652	-0.3689043	0.1475614	-8.90684	4.453413
36.64639	0.04155971	0.07761887	-0.2213934	0.07379816	4.452401	-2.226437
36.66295	0.03789268	0.07884122	-0.2213426	0.07378072	0.001531916	-0.0005264555
36.67952	0.03544799	0.07884122	-0.1475617	0	2.226714	-2.226707
36.69683	0.03422565	0.07884122	-0.07062611	0	2.271193	0
36.72886	0.0330033	0.07884122	-0.03816014	2.32598E-07	0.6580145	4.714254E-06
36.74547	0.03055861	0.07884122	-0.1471552	-4.484788E-07	-2.240621	-1.400095E-05
36.762	0.03055861	0.07884122	0	0	4.440641	1.353356E-05
36.77856	0.02933627	0.07884122	-0.07378072	4.497179E-07	-2.22953	1.358972E-05
36.79513	0.02933627	0.07884122	0	0	2.226707	-1.357251E-05
36.81198	0.02933627	0.07884122	0	0	0	0
36.82826	0.02933627	0.07884122	0	0	0	0
36.84483	0.02933627	0.07884122	0	0	0	0
36.8614	0.02933627	0.07884122	0	0	0	0
36.89598	0.02933627	0.07884122	0	0	0	0
36.91255	0.02933627	0.07884122	0	0	0	0
36.92934	0.02933627	0.07884122	0	0	0	0
36.94625	0.02933627	0.07884122	0	0	0	0
36.96245	0.02933627	0.07884122	0	0	0	0
36.97881	0.02933627	0.07884122	0	0	0	0
36.99538	0.02933627	0.07884122	0	0	0	0
37.01195	0.02933627	0.07884122	0	0	0	0
37.02851	0.02933627	0.07884122	0	0	0	0
37.04568	0.02933627	0.07884122	0	0	0	0
37.06225	0.02933627	0.07884122	0	0	0	0
37.07882	0.02933627	0.07884122	0	0	0	0
37.09539	0.02933627	0.07884122	0	0	0	0
37.11243	0.02933627	0.07884122	0	0	0	0
37.12852	0.02933627	0.07884122	0	0	0	0
37.14508	0.02933627	0.07884122	0	0	0	0
37.16165	0.02933627	0.07884122	0	0	0	0
37.17822	0.02933627	0.07884122	0	0	0	0
37.20987	0.02933627	0.07884122	0	0	0	0
37.22653	0.02933627	0.07884122	0	0	0	0
37.243	0.02933627	0.07884122	0	0	0	0
37.25957	0.02933627	0.07884122	0	0	0	0
37.27614	0.02933627	0.07884122	0	0	0	0
37.29271	0.02933627	0.07884122	0	0	0	0
37.30968	0.02933627	0.07884122	0	0	0	0
37.32594	0.02933627	0.07884122	0	0	0	0
37.34241	0.02933627	0.07884122	0	0	0	0
37.36589	0.02933627	0.07884122	0	0	0	0
37.38247	0.02933627	0.07884122	0	0	0	0
37.39903	0.02933627	0.07884122	0	0	0	0
37.4156	0.02933627	0.07884122	0	0	0	0
37.43216	0.02933627	0.07884122	0	0	0	0
37.44873	0.02933627	0.07884122	0	0	0	0
37.4653	0.02933627	0.07884122	0	0	0	0
37.48186	0.02933627	0.07884122	0	0	0	0
37.4986	0.02933627	0.07884122	0	0	0	0
37.51565	0.02933627	0.07884122	0	0	0	0
37.53222	0.02933627	0.07884122	0	0	0	0
37.54879	0.02933627	0.07884122	0	0	0	0
37.56536	0.02933627	0.07884122	0	0	0	0
37.58195	0.02933627	0.07884122	0	0	0	0
37.59849	0.02933627	0.07884122	0	0	0	0
37.61505	0.02933627	0.07884122	0	0	0	0
37.63162	0.02933627	0.07884122	0	0	0	0
37.64893	0.02933627	0.07884122	0	0	0	0
37.66728	0.02933627	0.07884122	0	0	0	0
37.68385	0.02933627	0.07884122	0	0	0	0
37.70046	0.02933627	0.07884122	0	0	0	0
37.71719	0.02933627	0.07884122	0	0	0	0
37.73362	0.02933627	0.07884122	0	0	0	0
37.75012	0.02933627	0.07884122	0	0	0	0
37.76668	0.02933627	0.07884122	0	0	0	0
37.78325	0.02933627	0.07884122	0	0	0	0
37.79982	0.02933627	0.07884122	0	0	0	0
37.82999	0.02933627	0.07884122	0	0	0	0
37.87599	0.02933627	0.07884122	0	0	0	0
37.89256	0.02933627	0.07884122	0	0	0	0
37.90913	0.02933627	0.07884122	0	0	0	0
37.9259	0.02933627	0.07884122	0	0	0	0
37.94226	0.02933627	0.07884122	0	0	0	0
37.95883	0.02933627	0.07884122	0	0	0	0
37.9754	0.02933627	0.07884122	0	0	0	0
37.99196	0.02933627	0.07884122	0	0	0	0
38.04015	0.02933627	0.07884122	0	0	0	0
38.05672	0.02933627	0.07884122	0	0	0	0
38.07328	0.02933627	0.07884122	0	0	0	0
38.09008	0.02933627	0.07884122	0	0	0	0
38.10642	0.02933627	0.07884122	0	0	0	0
38.12317	0.02933627	0.07884122	0	0	0	0
38.13977	0.02933627	0.07884122	0	0	0	0
38.15622	0.02933627	0.07884122	0	0	0	0
38.20287	0.02933627	0.07884122	0	0	0	0
38.21943	0.02933627	0.07884122	0	0	0	0
38.236	0.02933627	0.07884122	0	0	0	0
38.25257	0.02933627	0.07884122	0	0	0	0
38.26913	0.02933627	0.07884122	0	0	0	0
38.28598	0.02933627	0.07884122	0	0	0	0
38.30227	0.02933627	0.07884122	0	0	0	0
38.31884	0.02933627	0.07884122	0	0	0	0
38.34844	0.02933627	0.07884122	0	0	0	0
38.36501	0.02933627	0.07884122	0	0	0	0
38.38158	0.02933627	0.07884122	0	0	0	0
38.39814	0.02933627	0.07884122	0	0	0	0
38.41471	0.02933627	0.07884122	0	0	0	0
38.43128	0.02933627	0.07884122	0	0	0	0
38.44785	0.02933627	0.07884122	0	0	0	0
38.46442	0.02933627	0.07884122	0	0	0	0
38.48098	0.02933627	0.07884122	0	0	0	0
38.50343	0.02933627	0.07884122	0	0	0	0
38.52	0.02811392	0.07639653	-0.07378083	-0.1475619	-1.89119	-3.782386
38.53675	0.02689158	0.07639653	-0.07295769	0	0.02470329	4.428445
38.55313	0.02689158	0.07639653	0	0	2.201614	0
38.56975	0.02566923	0.07517418	-0.07357765	-0.07357787	-2.22982	-2.229826
38.58648	0.02444689	0.07395185	-0.0730575	-0.07305694	0.01559953	0.01562299
38.60283	0.02444689	0.07395185	0	0	2.208439	2.208422
38.6194	0.02322455	0.07272949	-0.07378083	-0.07378162	-2.241419	-2.241443
38.63596	0.02322455	0.07150715	0	-0.07379772	2.226966	-0.0004857513
38.65454	0.0220022	0.06906246	-0.06579675	-0.1315933	-1.872365	-1.644677
38.6711	0.02077986	0.06295074	-0.07378095	-0.3689045	-0.22718	-6.752384
38.68802	0.02077986	0.0617284	0	-0.0722665	2.203627	8.859733
38.70424	0.02077986	0.0592837	0	-0.15072	0	-2.36773
38.72081	0.02077986	0.05439433	1.124295E-07	-0.2951231	3.429054E-06	-4.404238
38.73737	0.02077986	0.04706026	0	-0.4426852	-3.393129E-06	-4.453434
38.75394	0.02077986	0.04217089	-1.124295E-07	-0.2951233	-3.393129E-06	4.453427
38.77051	0.02077986	0.03605916	0	-0.3689045	3.393129E-06	-2.226721
38.78708	0.02322455	0.02994744	0.1475619	-0.3689041	4.453427	1.349154E-05
38.80364	0.02566924	0.02261337	0.1475957	-0.4427871	0.001019178	-2.23005
38.83527	0.02689158	0.02016869	0.03863863	-0.07727727	-2.26058	7.583395
38.85429	0.02811392	0.01405696	0.06427877	-0.3213946	0.5062065	-4.819543
38.87086	0.02811392	0.01283462	1.124036E-07	-0.0737638	-1.806224	6.958402
38.88756	0.02811392	0.01283462	0	0	-3.378346E-06	2.217007
38.90399	0.02933627	0.01161227	0.07439753	-0.07439753	2.245581	-2.245581
38.9209	0.02933627	0.01038993	-1.101718E-07	-0.07229934	-2.231708	0.06293961
38.93713	0.03055861	0.009167584	0.07532444	-0.07532444	2.273299	-0.09129769
38.95446	0.03055861	0.006722895	1.074326E-07	-0.1410034	-2.244098	-1.956739
38.98631	0.03178096	0.001833517	0.03838412	-0.1535363	0.7804343	-0.2548228
39.00288	0.03667033	-0.01038993	0.2951233	-0.7378086	5.303179	-12.06867
39.01963	0.03911502	-0.01283462	0.1459154	-0.1459154	-4.477845	17.76317
39.03601	0.03911502	-0.01527931	0	-0.1492456	-4.403735	-0.1005079
39.05262	0.04522675	-0.02261337	0.368057	-0.4416682	11.15808	-8.865135
39.06915	0.04889378	-0.0287251	0.2218532	-0.3697557	-4.41244	2.170324
39.08571	0.05378316	-0.03605916	0.2951233	-0.4426849	2.213845	-2.203546
39.10228	0.05867254	-0.04094854	0.2951236	-0.2951238	7.195487E-06	4.453404
39.11959	0.06356192	-0.04706027	0.2823797	-0.3529745	-0.3761224	-1.707411
39.15683	0.06845129	-0.05072729	0.1312967	-0.09847255	-2.769422	4.66514
39.1734	0.0770077	-0.06050605	0.5164664	-0.5902469	7.158449	-9.139717
39.18997	0.07823005	-0.0617284	0.07378072	-0.07378118	-13.36028	15.58697
39.20654	0.07945239	-0.06295075	0.07378072	-0.07378095	0	6.970628E-06
39.2231	0.08067474	-0.06417309	0.07378118	-0.07378072	1.37164E-05	6.745769E-06
39.23967	0.08067474	-0.06539543	0	-0.07378072	-2.22672	0
39.25624	0.08189708	-0.06539543	0.07378072	0	2.226707	2.226707
39.2728	0.08189708	-0.06539543	0	0	-2.226963	0
39.29758	0.08189708	-0.06539543	0	0	0	0
39.31414	0.08189708	-0.06539543	0	0	0	0
39.33072	0.08189708	-0.06539543	0	0	0	0
39.34728	0.08189708	-0.06539543	0	0	0	0
39.36452	0.08678646	-0.05683902	0.2836293	0.4963513	8.390894	14.68407
39.38041	0.09289818	-0.04339323	0.3844858	0.8458683	3.043856	10.54844
39.39698	0.09778756	-0.03116979	0.2951233	0.7378085	-2.752742	-3.328701
39.4138	0.1002322	-0.02016868	0.1453525	0.6540878	-4.486005	-2.507641
39.43041	0.1038993	-0.01283462	0.2207834	0.4415667	2.256505	-6.357541
39.46449	0.1051216	-0.004278206	0.03586632	0.2510647	-3.648021	-3.7582
39.48106	0.113678	0.01527931	0.5164664	1.180494	9.489074	18.35085
39.49762	0.113678	0.01527931	0	0	-15.58878	-35.63148
39.51435	0.1197898	0.02505806	0.3652878	0.5844603	10.97136	17.55416
39.53075	0.1210121	0.0287251	0.07451853	0.2235558	-8.775434	-10.89212
39.54733	0.141792	0.03972619	1.253985	0.6638748	35.76934	13.35342
39.564	0.141792	0.03972619	0	0	-37.72375	-19.9714
39.58086	0.1650165	0.05194964	1.376793	0.7246277	41.05074	21.60564
39.59784	0.1833517	0.05806137	1.080345	0.3601149	-8.760258	-10.7716
39.63503	0.2029092	0.06661777	0.5258341	0.2300524	-10.23745	-2.401234
39.6516	0.2713605	0.08739763	4.131729	1.254275	67.07327	19.05157
39.66816	0.2811392	0.09106466	0.5902458	0.2213422	-106.8822	-31.17397
39.68502	0.294585	0.09350935	0.7974512	0.1449912	6.198523	-2.284028
39.7013	0.3165872	0.1008434	1.351709	0.45057	16.72561	9.221322
39.71786	0.3495905	0.1106222	1.992544	0.5903831	19.51342	4.25731
39.73443	0.3679257	0.1167339	1.106713	0.3689041	-26.73751	-6.68502
39.75116	0.3862609	0.1216233	1.096112	0.2922966	-0.3183755	-2.300892
39.79103	0.4033737	0.1265126	0.4291606	0.1226173	-11.78309	-2.997736
39.80761	0.4388217	0.1375138	2.139154	0.6638755	30.29428	9.588943
39.82417	0.4412664	0.1387361	0.1475614	0.07378072	-60.09946	-17.80704
39.84074	0.4461558	0.1399584	0.2951247	0.07378072	4.453468	0
39.85731	0.4498228	0.1411808	0.2213404	0.07378072	-2.226816	0
39.87387	0.4510451	0.1424031	0.07378072	0.07378072	-4.453359	0
39.89044	0.4510451	0.1424031	0	0	-2.226963	-2.226963
39.90701	0.4510451	0.1424031	0	0	0	0
39.95607	0.4510451	0.1424031	0	0	0	0
39.97263	0.4510451	0.1424031	0	0	0	0
39.9892	0.4510451	0.1424031	0	0	0	0
40.00577	0.4510451	0.1424031	0	0	0	0
40.02234	0.4510451	0.1424031	0	0	0	0
40.03897	0.4510451	0.1424031	0	0	0	0
40.05597	0.4510451	0.1424031	0	0	0	0
40.07203	0.4510451	0.1424031	0	0	0	0
40.13194	0.4449334	0.1424031	-0.1020282	0	-1.343011	0
40.14851	0.3288107	0.1204009	-7.007568	-1.32775	-90.30008	-17.36228
40.16507	0.3165872	0.1167339	-0.7379771	-0.2213932	189.2166	33.3899
40.18175	0.3031414	0.1130669	-0.8062064	-0.2198744	-2.052547	0.04568797
40.19836	0.2786945	0.1020658	-1.47189	-0.6623498	-19.99828	-13.29272
40.2151	0.2408019	0.08739763	-2.26272	-0.875892	-23.70897	-6.401968
40.23133	0.220022	0.07761887	-1.280214	-0.6024539	29.7927	8.291518
40.26466	0.2041315	0.06906246	-0.4768308	-0.256755	16.21139	6.975821
40.28135	0.1735729	0.05561667	-1.831449	-0.8058375	-27.08658	-10.97931
40.29779	0.1674612	0.05439433	-0.3715567	-0.07431138	44.05964	22.0775
40.31499	0.1576824	0.04950495	-0.568768	-0.2843842	-5.86209	-6.244397
40.33093	0.149126	0.04583792	-0.536735	-0.2300292	0.9667587	1.640438
40.34757	0.1393473	0.04094854	-0.587541	-0.2937705	-1.559176	-1.956146
40.36407	0.1320132	0.03850385	-0.4446304	-0.1482101	4.312552	4.392516
40.38063	0.1259015	0.03483681	-0.3689045	-0.2213428	2.290423	-2.21199
40.41788	0.1222344	0.03239213	-0.0984423	-0.0656282	5.025521	2.89337
40.43495	0.1124557	0.0262804	-0.5730926	-0.3581828	-8.739059	-5.386392
40.45126	0.110011	0.02383572	-0.1498381	-0.1498386	12.68042	6.241849
40.46758	0.1075663	0.02139103	-0.1498044	-0.1498038	0.001031469	0.001066171
40.48415	0.1026769	0.017724	-0.295055	-0.2212916	-4.41621	-2.173518
40.50072	0.09534287	0.01161227	-0.4425834	-0.3688194	-4.45139	-4.451375
40.51728	0.08800881	0.00550055	-0.4428892	-0.3690743	-0.009231973	-0.007691062
40.53386	0.08189708	0.0006111722	-0.3686499	-0.2949197	2.24029	2.237731
40.57085	0.07456301	-0.004278206	-0.1983065	-0.1322043	3.180292	3.037879
40.58741	0.06111723	-0.01527931	-0.8115891	-0.6640278	-11.45237	-9.931209
40.60398	0.05745019	-0.01650165	-0.2213428	-0.07378078	17.81367	17.81369
40.62055	0.05378316	-0.02016868	-0.2213424	-0.2213426	1.349154E-05	-4.453425
40.63712	0.04889378	-0.02383572	-0.2951233	-0.2213426	-2.226713	0
40.65397	0.04644909	-0.02628041	-0.1450243	-0.1450238	4.490706	2.283327
40.67044	0.04522675	-0.02750275	-0.07420789	-0.07420801	2.124767	2.124751
40.68703	0.04522675	-0.02750275	0	0	2.244767	2.244771
40.71309	0.04522675	-0.02750275	0	0	0	0
40.72966	0.04522675	-0.02750275	0	0	0	0
40.74623	0.04522675	-0.02750275	0	0	0	0
40.76305	0.04522675	-0.02750275	0	0	0	0
40.78639	0.04522675	-0.02750275	0	0	0	0
40.80309	0.04522675	-0.02750275	0	0	0	0
40.81953	0.04522675	-0.02750275	0	0	0	0
40.83612	0.04522675	-0.02750275	0	0	0	0
40.86825	0.04522675	-0.02750275	0	0	0	0
40.88482	0.04522675	-0.02750275	0	0	0	0
40.90139	0.04522675	-0.02750275	0	0	0	0
40.91819	0.04522675	-0.02750275	0	0	0	0
40.93452	0.0440044	-0.02750275	-0.07481431	-1.140045E-07	-2.2579	-3.440662E-06
40.9511	0.03789268	-0.02628041	-0.3688196	0.07376397	-8.93378	2.241429
40.96766	0.03178096	-0.02383572	-0.369074	0.1476295	-0.007680268	2.229524
40.98422	0.02444689	-0.02261337	-0.4426854	0.07378118	-2.222106	-2.229261
41.02536	0.01711282	-0.01894634	-0.1782809	0.0891404	4.582009	0.2661683
41.04193	0.01222344	-0.01772399	-0.2950555	0.07376397	-2.023517	-0.2664489
41.0585	0.01222344	-0.01772399	0	0	8.903768	-2.225945
41.07507	0.01222344	-0.01772399	0	0	0	0
41.09163	0.01222344	-0.01772399	0	0	0	0
41.1082	0.01222344	-0.01772399	0	0	0	0
41.12528	0.01222344	-0.01772399	0	0	0	0
41.14134	0.01222344	-0.01772399	0	0	0	0
41.19231	0.01222344	-0.01772399	0	0	0	0
41.20888	0.01222344	-0.01772399	0	0	0	0
41.22545	0.01222344	-0.01772399	0	0	0	0
41.24202	0.01222344	-0.01772399	0	0	0	0
41.25859	0.01222344	-0.01772399	0	0	0	0
41.27515	0.01222344	-0.01772399	0	0	0	0
41.29172	0.01222344	-0.01772399	0	0	0	0
41.30828	0.01222344	-0.01772399	0	0	0	0
41.34665	0.01222344	-0.01772399	0	0	0	0
41.36322	0.01222344	-0.01772399	0	0	0	0
41.38011	0.01222344	-0.01772399	0	0	0	0
41.39636	0.01222344	-0.01772399	0	0	0	0
41.41293	0.01222344	-0.01772399	0	0	0	0
41.42999	0.01222344	-0.01772399	0	0	0	0
41.44613	0.01222344	-0.01772399	0	0	0	0
41.46308	0.01222344	-0.01772399	0	0	0	0
41.52626	0.01222344	-0.01772399	0	0	0	0
41.54284	0.01222344	-0.01772399	0	0	0	0
41.5594	0.01222344	-0.01772399	0	0	0	0
41.57597	0.01222344	-0.01772399	0	0	0	0
41.59254	0.01222344	-0.01772399	0	0	0	0
41.6091	0.01222344	-0.01772399	0	0	0	0
41.62567	0.01222344	-0.01772399	0	0	0	0
41.66523	0.01222344	-0.01772399	0	0	0	0
41.6818	0.01222344	-0.01772399	0	0	0	0
41.69844	0.01222344	-0.01772399	0	0	0	0
41.71494	0.01222344	-0.01772399	0	0	0	0
41.73153	0.01222344	-0.01772399	0	0	0	0
41.74807	0.01222344	-0.01772399	0	0	0	0
41.765	0.01222344	-0.01772399	0	0	0	0
41.7812	0.01222344	-0.01772399	0	0	0	0
41.82003	0.01222344	-0.01772399	0	0	0	0
41.83683	0.01222344	-0.01772399	0	0	0	0
41.85316	0.01222344	-0.01772399	0	0	0	0
41.86973	0.01222344	-0.01772399	0	0	0	0
41.88641	0.01222344	-0.01772399	0	0	0	0
41.90287	0.01222344	-0.01772399	0	0	0	0
41.91959	0.01222344	-0.01772399	0	0	0	0
41.936	0.01222344	-0.01772399	0	0	0	0
41.97504	0.01222344	-0.01772399	0	0	0	0
41.99161	0.01222344	-0.01772399	0	0	0	0
42.00818	0.01222344	-0.01772399	0	0	0	0
42.025	0.01222344	-0.01772399	0	0	0	0
42.04132	0.01222344	-0.01772399	0	0	0	0
42.05788	0.01222344	-0.01772399	0	0	0	0
42.07445	0.01222344	-0.01772399	0	0	0	0
42.09146	0.01222344	-0.01772399	0	0	0	0
42.12967	0.01222344	-0.01772399	0	0	0	0
42.14651	0.01222344	-0.01772399	0	0	0	0
42.16281	0.01222344	-0.01772399	0	0	0	0
42.17997	0.01222344	-0.01772399	0	0	0	0
42.19606	0.01222344	-0.01772399	0	0	0	0
42.21251	0.01222344	-0.01772399	0	0	0	0
42.24128	0.01222344	-0.01772399	0	0	0	0
42.26781	0.01222344	-0.01772399	0	0	0	0
42.28438	0.01222344	-0.01772399	0	0	0	0
42.30129	0.01222344	-0.01772399	0	0	0	0
42.31751	0.01222345	-0.01650165	5.741783E-08	0.07535987	1.732874E-06	2.274365
42.33497	0.01222345	-0.01650165	0	0	-1.704807E-06	-2.237529
42.35065	0.01222345	-0.01650165	0	0	0	0
42.36721	0.01222345	-0.01650165	0	0	0	0
42.38378	0.01222345	-0.01650165	0	0	0	0
42.4066	0.01222345	-0.01650165	0	0	0	0
42.46505	0.01222345	-0.01650165	0	0	0	0
42.48162	0.01222345	-0.01650165	0	0	0	0
42.49819	0.01222345	-0.01650165	0	0	0	0
42.51475	0.01222345	-0.01650165	0	0	0	0
42.53165	0.01222345	-0.01650165	0	0	0	0
42.54789	0.01222345	-0.01650165	0	0	0	0
42.56484	0.01222345	-0.01650165	0	0	0	0
42.58136	0.01222345	-0.01650165	0	0	0	0
42.63453	0.01222345	-0.01650165	0	0	0	0
42.65126	0.01222345	-0.01650165	0	0	0	0
42.66767	0.01222345	-0.01650165	0	0	0	0
42.68485	0.01222345	-0.01650165	0	0	0	0
42.70098	0.01222345	-0.01650165	0	0	0	0
42.71737	0.01222345	-0.01650165	0	0	0	0
42.73394	0.01222345	-0.01650165	0	0	0	0
42.79096	0.01222345	-0.01650165	0	0	0	0
42.80753	0.01222345	-0.01650165	0	0	0	0
42.82409	0.01222345	-0.01650165	0	0	0	0
42.84132	0.01222345	-0.01650165	0	0	0	0
42.85723	0.01222345	-0.01650165	0	0	0	0
42.8738	0.01222345	-0.01650165	0	0	0	0
42.89115	0.01222345	-0.01650165	0	0	0	0
42.93707	0.01222345	-0.01650165	0	0	0	0
42.95373	0.01222345	-0.01650165	0	0	0	0
42.9702	0.01222345	-0.01650165	0	0	0	0
42.98687	0.01222345	-0.01650165	0	0	0	0
43.00334	0.01222345	-0.01650165	0	0	0	0
43.02001	0.01222345	-0.01650165	0	0	0	0
43.03725	0.01222345	-0.01650165	0	0	0	0
43.05322	0.01222345	-0.01650165	0	0	0	0
43.11054	0.01222345	-0.01650165	0	0	0	0
43.12734	0.01222345	-0.01650165	0	0	0	0
43.14368	0.01222345	-0.01650165	0	0	0	0
43.16024	0.01222345	-0.01650165	0	0	0	0
43.17682	0.01222345	-0.01650165	0	0	0	0
43.19338	0.01222345	-0.01650165	0	0	0	0
43.20995	0.01222345	-0.01650165	0	0	0	0
43.24983	0.01222345	-0.01650165	0	0	0	0
43.26647	0.01222345	-0.01650165	0	0	0	0
43.28327	0.01222345	-0.01650165	0	0	0	0
43.29953	0.01222345	-0.01650165	0	0	0	0
43.31626	0.01222345	-0.01650165	0	0	0	0
43.33281	0.01222345	-0.01650165	0	0	0	0
43.34925	0.01222345	-0.01650165	0	0	0	0
43.3658	0.01222345	-0.01650165	0	0	0	0
43.40921	0.01222345	-0.01650165	0	0	0	0
43.42578	0.01222345	-0.01650165	0	0	0	0
43.44235	0.01222345	-0.01650165	0	0	0	0
43.45905	0.01222345	-0.01650165	0	0	0	0
43.47548	0.01222345	-0.01650165	0	0	0	0
43.49205	0.01222345	-0.01650165	0	0	0	0
43.50862	0.01222345	-0.01650165	0	0	0	0
43.52518	0.01222345	-0.01650165	0	0	0	0
43.59172	0.01222345	-0.01650165	0	0	0	0
43.60828	0.01222345	-0.01650165	0	0	0	0
43.62485	0.01222345	-0.01650165	0	0	0	0
43.64142	0.01222345	-0.01650165	0	0	0	0
43.65799	0.01222345	-0.01650165	0	0	0	0
43.67488	0.01222345	-0.01650165	0	0	0	0
43.69112	0.01222345	-0.01650165	0	0	0	0
43.70867	0.01222345	-0.01650165	0	0	0	0
43.72524	0.01222345	-0.01650165	0	0	0	0
43.74181	0.01222345	-0.01650165	0	0	0	0
43.75852	0.01222345	-0.01650165	0	0	0	0
43.77494	0.01222345	-0.01650165	0	0	0	0
43.79154	0.01222345	-0.01650165	0	0	0	0
43.80807	0.01222345	-0.01650165	0	0	0	0
43.82464	0.01222345	-0.01650165	0	0	0	0
43.84143	0.01222345	-0.01650165	0	0	0	0
43.88383	0.01222345	-0.01650165	0	0	0	0
43.9004	0.01222345	-0.01650165	0	0	0	0
43.91697	0.01222345	-0.01650165	0	0	0	0
43.93354	0.01222345	-0.01650165	0	0	0	0
43.95011	0.01222345	-0.01650165	0	0	0	0
43.96706	0.01222345	-0.01650165	0	0	0	0
43.98325	0.01222345	-0.01650165	0	0	0	0
43.99981	0.01222345	-0.01650165	0	0	0	0
44.04663	0.01222345	-0.01650165	0	0	0	0
44.0632	0.01222345	-0.01650165	0	0	0	0
44.08028	0.01222345	-0.01650165	0	0	0	0
44.09634	0.03422565	-0.01650165	1.370336	0	41.35683	0
44.1129	0.05989488	-0.01772399	1.549398	-0.07378083	5.488771	-2.2616
44.12947	0.09534287	-0.02016868	2.139645	-0.1475617	17.81369	-2.22671
44.14631	0.1356802	-0.02505806	2.395604	-0.2903765	7.662241	-4.275213
44.16306	0.1723506	-0.0287251	2.189729	-0.2189729	-6.130054	2.126081
44.22009	0.2065762	-0.03483682	0.6000569	-0.1071529	-21.54498	1.515507
44.23666	0.2689158	-0.04217088	3.762822	-0.442685	42.96968	-4.558576
44.26348	0.2701381	-0.04217088	0.04557384	0	-85.67385	10.20285
44.28005	0.2701381	-0.04217088	0	0	-1.05037	0
44.29662	0.2701381	-0.04217088	0	0	0	0
44.31318	0.2701381	-0.04217088	0	0	0	0
44.32985	0.2701381	-0.04217088	0	0	0	0
44.36139	0.2701381	-0.04217088	0	0	0	0
44.37796	0.2701381	-0.04217088	0	0	0	0
44.39453	0.2701381	-0.04217088	0	0	0	0
44.41111	0.2701381	-0.04217088	0	0	0	0
44.42767	0.2701381	-0.04217088	0	0	0	0
44.44424	0.2701381	-0.04217088	0	0	0	0
44.4608	0.2701381	-0.04217088	0	0	0	0
44.47737	0.2701381	-0.04217088	0	0	0	0
44.52472	0.2701381	-0.04217088	0	0	0	0
44.54129	0.2701381	-0.04217088	0	0	0	0
44.55785	0.2701381	-0.04217088	0	0	0	0
44.57442	0.2701381	-0.04217088	0	0	0	0
44.59105	0.2701381	-0.04217088	0	0	0	0
44.60756	0.2701381	-0.04217088	0	0	0	0
44.62412	0.2701381	-0.04217088	0	0	0	0
44.64069	0.2701381	-0.04217088	0	0	0	0
44.67358	0.2701381	-0.04217088	0	0	0	0
44.69014	0.2701381	-0.04217088	0	0	0	0
44.70671	0.2701381	-0.04217088	0	0	0	0
44.72328	0.2701381	-0.04217088	0	0	0	0
44.73985	0.2701381	-0.04217088	0	0	0	0
44.75643	0.2701381	-0.04217088	0	0	0	0
44.77298	0.2701381	-0.04217088	0	0	0	0
44.78955	0.2640264	-0.05561667	-0.3689886	-0.8117765	-11.14123	-24.51075
44.80611	0.2579147	-0.06539543	-0.3689036	-0.5902469	0.002563688	6.686545
44.83323	0.2542477	-0.07150716	-0.1352214	-0.2253696	5.349144	8.352288
44.8499	0.2371348	-0.09350936	-1.02702	-1.320455	-20.3694	-25.01263
44.86637	0.2334678	-0.09839874	-0.2226237	-0.296832	24.27673	30.893
44.88293	0.2273561	-0.1069551	-0.3689063	-0.5164651	-4.427562	-6.647672
44.8995	0.220022	-0.1142892	-0.4427863	-0.4427881	-2.229959	2.223831
44.9164	0.2126879	-0.1228456	-0.4338935	-0.5062085	0.2657247	-1.89505
44.93293	0.2077986	-0.127735	-0.2957366	-0.2957366	4.132	6.294801
44.95381	0.2029092	-0.1350691	-0.2342322	-0.3513483	1.644199	-1.486669
44.98456	0.1955751	-0.1472925	-0.2384741	-0.3974578	-0.08216171	-0.8931072
45.00152	0.1906857	-0.1558489	-0.2882867	-0.5045019	-1.043978	-2.243443
