Time	Pos X	Pos Y	Vel X	Vel Y	Acc X	Acc Y
0.01623946	-0.06478426	0.127735	0.001439793	-0.002838837	-3.201041E-05	6.311487E-05
0.0631479	-0.06478426	0.127735	0	0	3.203196E-05	-6.315736E-05
0.07971619	-0.06478426	0.127735	0	0	0	0
0.09628291	-0.06478426	0.127735	0	0	0	0
0.1128484	-0.06478426	0.127735	0	0	0	0
0.1294155	-0.06478426	0.127735	0	0	0	0
0.1459838	-0.06478426	0.127735	0	0	0	0
0.1627846	-0.06478426	0.127735	0	0	0	0
0.1791165	-0.06478426	0.127735	0	0	0	0
0.2001309	-0.06478426	0.127735	0	0	0	0
0.2167012	-0.06478426	0.127735	0	0	0	0
0.2332659	-0.06478426	0.127735	0	0	0	0
0.249833	-0.06478426	0.127735	0	0	0	0
0.2664005	-0.06478426	0.127735	0	0	0	0
0.283045	-0.06478426	0.127735	0	0	0	0
0.2996326	-0.06478426	0.127735	0	0	0	0
0.3161342	-0.06478426	0.127735	0	0	0	0
0.3326702	-0.06478426	0.127735	0	0	0	0
0.3838246	-0.06478426	0.127735	0	0	0	0
0.4003949	-0.06478426	0.127735	0	0	0	0
0.417444	-0.06478426	0.127735	0	0	0	0
0.4335535	-0.06478426	0.127735	0	0	0	0
0.4503836	-0.06478426	0.127735	0	0	0	0
0.4667766	-0.06478426	0.127735	0	0	0	0
0.4832304	-0.06478426	0.127735	0	0	0	0
0.5244504	-0.06478426	0.127735	0	0	0	0
0.5410203	-0.06478426	0.127735	0	0	0	0
0.5575874	-0.06478426	0.127735	0	0	0	0
0.5741525	-0.06478426	0.127735	0	0	0	0
0.5915028	-0.06478426	0.127735	0	0	0	0
0.6072868	-0.06478426	0.127735	0	0	0	0
0.6238531	-0.06478426	0.127735	0	0	0	0
0.640421	-0.06478426	0.127735	0	0	0	0
0.6605014	-0.06478426	0.127735	0	0	0	0
0.6772473	-0.06478426	0.127735	0	0	0	0
0.6936384	-0.06478426	0.127735	0	0	0	0
0.7102051	-0.06478426	0.127735	0	0	0	0
0.7269139	-0.06478426	0.127735	0	0	0	0
0.7433385	-0.06478426	0.127735	0	0	0	0
0.7599049	-0.06478426	0.127735	0	0	0	0
0.776472	-0.06478426	0.127735	0	0	0	0
0.7930406	-0.06478426	0.127735	0	0	0	0
0.8126513	-0.06478426	0.127735	0	0	0	0
0.8292212	-0.06478426	0.127735	0	0	0	0
0.8457887	-0.06478426	0.127735	0	0	0	0
0.8623539	-0.06478426	0.127735	0	0	0	0
0.8789217	-0.06478426	0.127735	0	0	0	0
0.8955169	-0.06478426	0.127735	0	0	0	0
0.9125135	-0.06478426	0.127735	0	0	0	0
0.9286535	-0.06478426	0.127735	0	0	0	0
0.9453268	-0.06478426	0.127735	0	0	0	0
0.9937527	-0.06478426	0.127735	0	0	0	0
1.012245	-0.06478426	0.127735	0	0	0	0
1.028813	-0.06478426	0.127735	0	0	0	0
1.045382	-0.06478426	0.127735	0	0	0	0
1.061948	-0.06478426	0.127735	0	0	0	0
1.078515	-0.06478426	0.127735	0	0	0	0
1.095272	-0.06356192	0.1252903	0.07294513	-0.1458911	2.188935	-4.377897
1.111648	-0.05989488	0.1191786	0.2239273	-0.3732115	4.556849	-6.860839
1.155326	-0.05745019	0.1142892	0.05597147	-0.1119429	-2.796777	4.350607
1.172024	-0.05011612	0.0947317	0.4392028	-1.171207	6.34742	-17.54448
1.18874	-0.05011612	0.092287	0	-0.1462528	-13.14423	30.67429
1.205029	-0.05011613	0.09106466	-2.287032E-07	-0.07504208	-6.929499E-06	2.157619
1.221598	-0.04889378	0.08617529	0.07377245	-0.2950894	2.245204	-6.696938
1.238369	-0.04767143	0.08250825	0.07288209	-0.218646	-0.02670488	2.292793
1.254728	-0.04767143	0.08006356	0	-0.1494393	-2.199839	2.088903
1.271297	-0.04767143	0.08006356	0	0	0	4.538335
1.31114	-0.04767143	0.08006356	0	0	0	0
1.327708	-0.04767143	0.08006356	0	0	0	0
1.344275	-0.04767143	0.08006356	0	0	0	0
1.360842	-0.04767143	0.08006356	0	0	0	0
1.377545	-0.04767143	0.08006356	0	0	0	0
1.393978	-0.04767143	0.08006356	0	0	0	0
1.410545	-0.04767143	0.08006356	0	0	0	0
1.427111	-0.04767143	0.08006356	0	0	0	0
1.450878	-0.04767143	0.08006356	0	0	0	0
1.467448	-0.04767143	0.08006356	0	0	0	0
1.48451	-0.04767143	0.08006356	0	0	0	0
1.500582	-0.04767143	0.08006356	0	0	0	0
1.517186	-0.04767143	0.08006356	0	0	0	0
1.533777	-0.04767143	0.08006356	0	0	0	0
1.550332	-0.04767143	0.08006356	0	0	0	0
1.56685	-0.04767143	0.08006356	0	0	0	0
1.583417	-0.04767143	0.08006356	0	0	0	0
1.618312	-0.04767143	0.08006356	0	0	0	0
1.635185	-0.04767143	0.08006356	0	0	0	0
1.651755	-0.04767143	0.08006356	0	0	0	0
1.668331	-0.04767143	0.08006356	0	0	0	0
1.684887	-0.04767143	0.08006356	0	0	0	0
1.701455	-0.04767143	0.08006356	0	0	0	0
1.718156	-0.04767143	0.08006356	0	0	0	0
1.734591	-0.04767143	0.08006356	0	0	0	0
1.760721	-0.04767143	0.08006356	0	0	0	0
1.789118	-0.04767143	0.08006356	0	0	0	0
1.805686	-0.04767143	0.08006356	0	0	0	0
1.822252	-0.04767143	0.08006356	0	0	0	0
1.838819	-0.04767143	0.08006356	0	0	0	0
1.855386	-0.04767143	0.08006356	0	0	0	0
1.871958	-0.04767143	0.08006356	0	0	0	0
1.889067	-0.04767143	0.08006356	0	0	0	0
1.905092	-0.04767143	0.08006356	0	0	0	0
1.921658	-0.04767143	0.08006356	0	0	0	0
1.938223	-0.04767143	0.08006356	0	0	0	0
1.995956	-0.04767143	0.08006356	0	0	0	0
2.01253	-0.04767143	0.08006356	0	0	0	0
2.029114	-0.04767143	0.08006356	0	0	0	0
2.045657	-0.04767143	0.08006356	0	0	0	0
2.062348	-0.04767143	0.08006356	0	0	0	0
2.078794	-0.04767143	0.08006356	0	0	0	0
2.095361	-0.04767143	0.08006356	0	0	0	0
2.179658	-0.04767143	0.08006356	0	0	0	0
2.196226	-0.04767143	0.08006356	0	0	0	0
2.212858	-0.04767143	0.08006356	0	0	0	0
2.229364	-0.04767143	0.08006356	0	0	0	0
2.245927	-0.04767143	0.08006356	0	0	0	0
2.290774	-0.04767143	0.08006356	0	0	0	0
2.307341	-0.04767143	0.08006356	0	0	0	0
2.323925	-0.04767143	0.08006356	0	0	0	0
2.340475	-0.04767143	0.08006356	0	0	0	0
2.357045	-0.04767143	0.08006356	0	0	0	0
2.373612	-0.04767143	0.08006356	0	0	0	0
2.390178	-0.04767143	0.08006356	0	0	0	0
2.406807	-0.04767143	0.08006356	0	0	0	0
2.447526	-0.04767143	0.08006356	0	0	0	0
2.464094	-0.04767143	0.08006356	0	0	0	0
2.480661	-0.04767143	0.08006356	0	0	0	0
2.497494	-0.04767143	0.08006356	0	0	0	0
2.513799	-0.04767143	0.08006356	0	0	0	0
2.530365	-0.04767143	0.08006356	0	0	0	0
2.546932	-0.04767143	0.08006356	0	0	0	0
2.563613	-0.04767143	0.08006356	0	0	0	0
2.600104	-0.04767143	0.08006356	0	0	0	0
2.616674	-0.04767143	0.08006356	0	0	0	0
2.633401	-0.04767143	0.08006356	0	0	0	0
2.649892	-0.04767143	0.08006356	0	0	0	0
2.666397	-0.04767143	0.08006356	0	0	0	0
2.683038	-0.04767143	0.08006356	0	0	0	0
2.699508	-0.04767143	0.08006356	0	0	0	0
2.716588	-0.04767143	0.08006356	0	0	0	0
2.757942	-0.04767143	0.08006356	0	0	0	0
2.774513	-0.04767143	0.08006356	0	0	0	0
2.796502	-0.04767143	0.08006356	0	0	0	0
2.813072	-0.04767143	0.08006356	0	0	0	0
2.82964	-0.04767143	0.08006356	0	0	0	0
2.846211	-0.04767143	0.08006356	0	0	0	0
2.863264	-0.04767143	0.08006356	0	0	0	0
2.914691	-0.04767143	0.08006356	0	0	0	0
2.931399	-0.04767143	0.08006356	0	0	0	0
2.947879	-0.04767143	0.08006356	0	0	0	0
2.964672	-0.04767143	0.08006356	0	0	0	0
2.981261	-0.04767143	0.08006356	0	0	0	0
2.997534	-0.04767143	0.08006356	0	0	0	0
3.014096	-0.04767143	0.08006356	0	0	0	0
3.05057	-0.04767143	0.08006356	0	0	0	0
3.067304	-0.04767143	0.08006356	0	0	0	0
3.083924	-0.04767143	0.08006356	0	0	0	0
3.100272	-0.04767143	0.08006356	0	0	0	0
3.116839	-0.04767143	0.08006356	0	0	0	0
3.133886	-0.04767143	0.08006356	0	0	0	0
3.149973	-0.04767143	0.08006356	0	0	0	0
3.166995	-0.04767143	0.08006356	0	0	0	0
3.183106	-0.04767143	0.08006356	0	0	0	0
3.213242	-0.04767143	0.08006356	0	0	0	0
3.229811	-0.04767143	0.08006356	0	0	0	0
3.246378	-0.04767143	0.08006356	0	0	0	0
3.263006	-0.04767143	0.08006356	0	0	0	0
3.279798	-0.04767143	0.08006356	0	0	0	0
3.296078	-0.04767143	0.08006356	0	0	0	0
3.312649	-0.04767143	0.08006356	0	0	0	0
3.329214	-0.04767143	0.08006356	0	0	0	0
3.345781	-0.04767143	0.08006356	0	0	0	0
3.385395	-0.04767143	0.08006356	0	0	0	0
3.401965	-0.04767143	0.08006356	0	0	0	0
3.418532	-0.04767143	0.08006356	0	0	0	0
3.445562	-0.04767143	0.08006356	0	0	0	0
3.462132	-0.04767143	0.08006356	0	0	0	0
3.478698	-0.04767143	0.08006356	0	0	0	0
3.495264	-0.04767143	0.08006356	0	0	0	0
3.528946	-0.04767143	0.08006356	0	0	0	0
3.54617	-0.04767143	0.08006356	0	0	0	0
3.562186	-0.04767143	0.08006356	0	0	0	0
3.578649	-0.04644909	0.07761887	0.07424443	-0.1484889	2.285918	-4.571836
3.595214	-0.03911502	0.06784012	0.4427426	-0.5903232	11.15686	-13.37723
3.611782	-0.02811392	0.05317198	0.6640181	-0.8853577	6.678493	-8.904675
3.628615	-0.007334067	0.02505806	1.234484	-1.670184	17.07966	-23.49758
3.645339	0.0110011	0.001833517	1.096347	-1.388706	-4.116518	8.388122
3.661484	0.02689158	-0.02261337	0.9842213	-1.514187	-3.411282	-3.817576
3.700612	0.04278206	-0.04217089	0.4061121	-0.4998303	-10.45906	18.35157
3.71718	0.07089598	-0.08495294	1.696936	-2.582293	23.17633	-37.38996
3.73375	0.07211833	-0.08861998	0.07376587	-0.221298	-48.98207	71.24728
3.750616	0.07578536	-0.09350936	0.2174221	-0.2898964	4.296385	-2.0516
3.76688	0.07823005	-0.09717639	0.150313	-0.2254695	-2.025634	1.944675
3.783595	0.07823005	-0.09962108	4.457472E-07	-0.146259	-4.557857	2.401861
3.838351	0.0794524	-0.1008434	0.02232337	-0.02232351	0.3123356	1.734068
3.894486	0.0794524	-0.1008434	0	0	-0.2013081	0.2013093
3.911305	0.0794524	-0.1008434	0	0	0	0
3.927624	0.0794524	-0.1008434	0	0	0	0
3.944194	0.0794524	-0.1008434	0	0	0	0
3.961096	0.0794524	-0.1008434	0	0	0	0
3.977378	0.0794524	-0.1008434	0	0	0	0
3.993891	0.0794524	-0.1008434	0	0	0	0
4.010458	0.0794524	-0.1008434	0	0	0	0
4.047541	0.0794524	-0.1008434	0	0	0	0
4.064111	0.0794524	-0.1020658	0	-0.07376541	0	-1.374843
4.080677	0.0794524	-0.1020658	0	0	0	2.226116
4.097246	0.0794524	-0.1020658	0	0	0	0
4.113813	0.0794524	-0.1020658	0	0	0	0
4.145505	0.0794524	-0.1020658	0	0	0	0
4.162075	0.0794524	-0.1020658	0	0	0	0
4.192002	0.0794524	-0.1020658	0	0	0	0
4.208572	0.0794524	-0.1020658	0	0	0	0
4.22514	0.0794524	-0.1020658	0	0	0	0
4.241705	0.0794524	-0.1020658	0	0	0	0
4.258276	0.0794524	-0.1020658	0	0	0	0
4.274843	0.0794524	-0.1020658	0	0	0	0
4.291987	0.0794524	-0.1020658	0	0	0	0
4.308149	0.0794524	-0.1020658	0	0	0	0
4.324543	0.0794524	-0.1020658	0	0	0	0
4.373826	0.0794524	-0.1020658	0	0	0	0
4.390395	0.0794524	-0.1020658	0	0	0	0
4.407427	0.0794524	-0.1020658	0	0	0	0
4.42353	0.0794524	-0.1008434	0	0.07590826	0	2.290883
4.440096	0.0770077	-0.0947317	-0.1475746	0.3689364	-4.517325	8.96972
4.456662	0.07334066	-0.08861997	-0.2213558	0.3689262	-2.22688	-0.0003076292
4.473856	0.06722894	-0.07150716	-0.3554607	0.9952902	-3.972294	18.5534
4.524281	0.06233957	-0.05928371	-0.09696408	0.2424104	3.822876	-11.13425
4.540913	0.04644909	-0.017724	-0.955384	2.498697	-12.80132	33.64722
4.557682	0.04644909	-0.017724	0	0	28.60345	-74.80901
4.573985	0.04033737	-0.003055861	-0.3748709	0.8996902	-11.335	27.20399
4.59055	0.02811392	0.02139103	-0.7378936	1.475787	-11.04458	17.52713
4.607549	0.01711282	0.03850385	-0.6471705	1.006709	2.702983	-13.97558
4.623684	0.007334067	0.0507273	-0.6060504	0.7575634	1.241024	-7.519352
4.640252	0.001222344	0.06295074	-0.3689043	0.7378083	7.251633	-0.6040834
4.698469	-0.008556412	0.08006357	-0.1679693	0.2939464	2.686845	-5.935194
4.715037	-0.05256081	0.1619606	-2.656035	4.943174	-33.26947	62.16773
4.731605	-0.05256081	0.1619606	0	0	80.15698	-149.181
4.74817	-0.06722894	0.1900746	-0.8854465	1.697107	-26.7236	51.22026
4.76474	-0.08067474	0.2181885	-0.8114496	1.696667	2.233133	-0.01326431
4.78151	-0.08923115	0.2426354	-0.5102392	1.457826	9.03464	-7.163924
4.797875	-0.1002322	0.2683046	-0.672231	1.568541	-4.888921	3.341383
4.864883	-0.1075663	0.2841951	-0.1094506	0.237143	6.750146	-15.96916
4.88145	-0.1307909	0.3269772	-1.401837	2.582331	-15.46375	28.06079
4.898077	-0.1320132	0.3294218	-0.07351322	0.1470283	40.01634	-73.36455
4.914587	-0.1356802	0.3343112	-0.2221166	0.2961543	-4.484537	4.500309
4.931152	-0.1381249	0.3379782	-0.1475784	0.2213677	2.253621	-2.261132
4.94804	-0.1405696	0.3428676	-0.1447615	0.2895231	0.08420431	2.03735
4.964284	-0.141792	0.34409	-0.07524694	0.07524694	2.098106	-6.467333
4.997422	-0.1430143	0.3465347	-0.03688709	0.07377419	0.7767948	-0.02982347
5.013992	-0.1442367	0.3489794	-0.07376798	0.147536	-0.7419524	1.483905
5.030558	-0.1442367	0.3489794	0	0	2.226258	-4.452516
5.047124	-0.1442367	0.3489794	0	0	0	0
5.063692	-0.1442367	0.3489794	0	0	0	0
5.080262	-0.1442367	0.3489794	0	0	0	0
5.097088	-0.1442367	0.3489794	0	0	0	0
5.113395	-0.1442367	0.3489794	0	0	0	0
5.129961	-0.1442367	0.3489794	0	0	0	0
5.175191	-0.1442367	0.3489794	0	0	0	0
5.191759	-0.1369026	0.351424	0.4426725	0.1475572	7.163207	2.387731
5.208329	-0.1295685	0.3538688	0.4426216	0.147542	-0.001537903	-0.000458223
5.225062	-0.1210121	0.3563134	0.5113443	0.1460981	2.063574	-0.04335697
5.241464	-0.08923115	0.3660922	1.937598	0.5961829	43.04319	13.5832
5.258071	-0.06722894	0.3722039	1.324891	0.3680244	-18.5618	-6.911998
5.274644	-0.04522675	0.3770933	1.327597	0.2950228	0.08155727	-2.200185
5.291404	-0.02689158	0.3819827	1.093992	0.2917307	-7.008251	-0.09876581
5.328393	-0.0110011	0.3880944	0.4295977	0.1652296	-12.36104	-2.353549
5.345873	0.01711282	0.4003178	1.608314	0.6992689	21.63989	9.804359
5.361529	0.01833517	0.4015402	0.07807752	0.07807551	-46.18063	-18.74685
5.378097	0.01955751	0.4027625	0.07377871	0.0737786	-0.1334073	-0.1333481
5.394665	0.01955751	0.4027625	0	0	-2.22655	-2.226547
5.411232	0.01955751	0.4027625	0	0	0	0
5.427798	0.01955751	0.4027625	0	0	0	0
5.444366	0.01955751	0.4027625	0	0	0	0
5.493161	0.01955751	0.4027625	0	0	0	0
5.509729	0.01955751	0.4027625	0	0	0	0
5.526296	0.01955751	0.4027625	0	0	0	0
5.542866	0.01955751	0.4027625	0	0	0	0
5.559431	0.01955751	0.3978731	0	-0.2951654	0	-8.907981
5.575997	0.0110011	0.3159761	-0.5164809	-4.94346	-15.58877	-140.2979
5.592817	-0.002444689	0.2096321	-0.7993951	-6.322489	-8.47386	-41.30473
5.609135	-0.02689158	0.08006357	-1.498213	-7.940528	-21.08854	-48.82832
5.657367	-0.04033737	-0.04828261	-0.2787728	-2.661013	18.89156	81.79025
5.673937	-0.09534287	-0.3722039	-3.319566	-19.54855	-46.92424	-260.6015
5.690502	-0.1051216	-0.4003178	-0.5903317	-1.697204	82.36726	538.747
5.707069	-0.1222344	-0.4479893	-1.032932	-2.877454	-13.35866	-35.62255
5.723637	-0.1365552	-0.4809913	-0.864378	-1.99195	5.086895	26.72416
5.740205	-0.1393533	-0.4801882	-0.1688818	0.0484768	20.98921	61.57755
5.756773	-0.1413565	-0.4796023	-0.1209051	0.03536198	1.447858	-0.3957833
5.773686	-0.1431226	-0.4790783	-0.104421	0.03098217	0.4923335	-0.1308126
5.813643	-0.1460686	-0.4781882	-0.07373253	0.02227486	0.5396294	-0.1531102
5.830716	-0.1450616	-0.4784946	0.05898181	-0.01794617	2.327128	-0.7052702
5.846779	-0.1450616	-0.4784946	0	0	-1.779972	0.5415852
5.863347	-0.1451476	-0.4784686	-0.005186897	0.001573968	-0.1589565	0.04823546
5.879912	-0.1442884	-0.4787284	0.05186235	-0.01568392	1.721799	-0.5208589
5.896482	-0.1434389	-0.4789836	0.05126766	-0.01540152	-0.01794728	0.008522443
5.913048	-0.1434389	-0.4789836	0	0	-1.547194	0.4647988
5.929617	-0.1434389	-0.4789836	0	0	0	0
5.971794	-0.1434389	-0.4789836	0	0	0	0
5.988364	-0.1417271	-0.4794929	0.1033087	-0.03074009	1.758542	-0.523264
6.004931	-0.1398587	-0.4800412	0.1127821	-0.03309564	0.2858851	-0.07108551
6.022125	-0.1335657	-0.4818301	0.3659905	-0.1040361	7.499915	-2.101223
6.038064	-0.1241595	-0.4843391	0.5901306	-0.1574158	6.764759	-1.611049
6.05503	-0.1112334	-0.4761032	0.7618909	0.485443	5.219867	19.53675
6.07136	-0.09289818	-0.4443222	1.12284	1.946255	10.84088	43.87461
6.087767	-0.07334067	-0.4137636	1.192022	1.862534	2.113312	-2.557441
6.14597	-0.06722894	-0.4039848	0.1050058	0.1680094	-14.56917	-22.71154
6.16254	-0.06722894	-0.4003178	0	0.2213022	-1.404313	0.7127199
6.179106	-0.06722894	-0.4003178	0	0	0	-6.67872
6.195825	-0.06722894	-0.4003178	0	0	0	0
6.21233	-0.06722894	-0.4003178	0	0	0	0
6.228808	-0.06722894	-0.4003178	0	0	0	0
6.245374	-0.06722894	-0.4003178	0	0	0	0
6.298196	-0.06722894	-0.4003178	0	0	0	0
6.314764	-0.06722894	-0.4003178	0	0	0	0
6.331442	-0.06722894	-0.4003178	0	0	0	0
6.347902	-0.06722894	-0.4003178	0	0	0	0
6.364473	-0.06722894	-0.4003178	0	0	0	0
6.381037	-0.06722894	-0.4003178	0	0	0	0
6.397604	-0.06722894	-0.4003178	0	0	0	0
6.471348	-0.06722894	-0.4003178	0	0	0	0
6.487918	-0.06722894	-0.4003178	0	0	0	0
6.504485	-0.06722894	-0.4003178	0	0	0	0
6.52105	-0.06722894	-0.4003178	0	0	0	0
6.537621	-0.06722894	-0.4003178	0	0	0	0
6.554185	-0.06722894	-0.4003178	0	0	0	0
6.595896	-0.06722894	-0.4003178	0	0	0	0
6.614607	-0.06722894	-0.4003178	0	0	0	0
6.631176	-0.06722894	-0.4003178	0	0	0	0
6.647744	-0.06722894	-0.4003178	0	0	0	0
6.664386	-0.06722894	-0.4003178	0	0	0	0
6.680877	-0.06722894	-0.4003178	0	0	0	0
6.697443	-0.06722894	-0.4003178	0	0	0	0
6.71401	-0.06722894	-0.4003178	0	0	0	0
6.756711	-0.06722894	-0.4003178	0	0	0	0
6.773279	-0.06722894	-0.4003178	0	0	0	0
6.790215	-0.06722894	-0.4003178	0	0	0	0
6.806414	-0.06722894	-0.4003178	0	0	0	0
6.822981	-0.06722894	-0.4003178	0	0	0	0
6.83955	-0.06722894	-0.4003178	0	0	0	0
6.856114	-0.06722894	-0.4003178	0	0	0	0
6.872684	-0.06722894	-0.4003178	0	0	0	0
6.915584	-0.06722894	-0.4003178	0	0	0	0
6.932273	-0.06722894	-0.4003178	0	0	0	0
6.948719	-0.06722894	-0.4003178	0	0	0	0
6.965599	-0.06722894	-0.4003178	0	0	0	0
6.981854	-0.06722894	-0.4003178	0	0	0	0
6.998648	-0.06722894	-0.4003178	0	0	0	0
7.014987	-0.06722894	-0.4003178	0	0	0	0
7.031932	-0.06722894	-0.4003178	0	0	0	0
7.068428	-0.06722894	-0.4003178	0	0	0	0
7.084996	-0.06722894	-0.4003178	0	0	0	0
7.101562	-0.06722894	-0.4003178	0	0	0	0
7.118488	-0.06722894	-0.4003178	0	0	0	0
7.1347	-0.06722894	-0.4003178	0	0	0	0
7.151267	-0.06722894	-0.4003178	0	0	0	0
7.167834	-0.06722894	-0.4003178	0	0	0	0
7.1844	-0.06722894	-0.4003178	0	0	0	0
7.220949	-0.06722894	-0.4003178	0	0	0	0
7.237517	-0.06722894	-0.4003178	0	0	0	0
7.254086	-0.06722894	-0.4003178	0	0	0	0
7.270653	-0.06722894	-0.4003178	0	0	0	0
7.295455	-0.06722894	-0.4003178	0	0	0	0
7.312419	-0.06722894	-0.4003178	0	0	0	0
7.328593	-0.06722894	-0.4003178	0	0	0	0
7.34522	-0.06722894	-0.4003178	0	0	0	0
7.389126	-0.06722894	-0.4003178	0	0	0	0
7.405696	-0.06722894	-0.4003178	0	0	0	0
7.42232	-0.06722894	-0.4003178	0	0	0	0
7.438829	-0.06722895	-0.3990955	-4.513026E-07	0.07404251	-1.362073E-05	2.234672
7.455417	-0.06722895	-0.3966508	0	0.1473815	1.363604E-05	2.215926
7.472143	-0.06722895	-0.3966508	0	0	0	-4.424044
7.488532	-0.06722895	-0.3954284	0	0.07458539	0	2.252288
7.505176	-0.06722895	-0.3954284	0	0	0	-2.257945
7.548558	-0.06722895	-0.3954284	0	0	0	0
7.565146	-0.06722895	-0.3954284	0	0	0	0
7.581841	-0.06722895	-0.3954284	0	0	0	0
7.59826	-0.06722895	-0.3954284	0	0	0	0
7.615245	-0.06722895	-0.3954284	0	0	0	0
7.631397	-0.06722895	-0.3954284	0	0	0	0
7.647961	-0.06722895	-0.3954284	0	0	0	0
7.66453	-0.06722895	-0.3954284	0	0	0	0
7.706758	-0.06722895	-0.3954284	0	0	0	0
7.723431	-0.06722895	-0.3954284	0	0	0	0
7.740091	-0.06722895	-0.3954284	0	0	0	0
7.756462	-0.06722895	-0.3954284	0	0	0	0
7.773027	-0.06722895	-0.3954284	0	0	0	0
7.789598	-0.06722895	-0.3954284	0	0	0	0
7.806166	-0.06722895	-0.3954284	0	0	0	0
7.822732	-0.06722895	-0.3954284	0	0	0	0
7.86965	-0.06722895	-0.3954284	0	0	0	0
7.886631	-0.06722895	-0.3954284	0	0	0	0
7.902785	-0.06722895	-0.3954284	0	0	0	0
7.919428	-0.06722895	-0.3954284	0	0	0	0
7.935925	-0.06722895	-0.3954284	0	0	0	0
7.969198	-0.06722895	-0.3954284	0	0	0	0
8.025312	-0.06722895	-0.3954284	0	0	0	0
8.041881	-0.06722895	-0.3954284	0	0	0	0
8.058447	-0.06722895	-0.3954284	0	0	0	0
8.075014	-0.06722895	-0.3954284	0	0	0	0
8.091851	-0.06722895	-0.3954284	0	0	0	0
8.10815	-0.06722895	-0.3954284	0	0	0	0
8.124716	-0.06722895	-0.3954284	0	0	0	0
8.14142	-0.06722895	-0.3954284	0	0	0	0
8.182753	-0.06722895	-0.3954284	0	0	0	0
8.199326	-0.06722895	-0.3954284	0	0	0	0
8.21589	-0.06722895	-0.3954284	0	0	0	0
8.232456	-0.06722895	-0.3954284	0	0	0	0
8.249052	-0.06722895	-0.3954284	0	0	0	0
8.265594	-0.06722895	-0.3954284	0	0	0	0
8.282622	-0.06722895	-0.3954284	0	0	0	0
8.298782	-0.06722895	-0.3954284	0	0	0	0
8.338197	-0.06722895	-0.3954284	0	0	0	0
8.354765	-0.06722895	-0.3954284	0	0	0	0
8.371332	-0.06722895	-0.3954284	0	0	0	0
8.3879	-0.06722895	-0.3954284	0	0	0	0
8.404467	-0.06722895	-0.3954284	0	0	0	0
8.421034	-0.06722895	-0.3954284	0	0	0	0
8.437959	-0.06722895	-0.3954284	0	0	0	0
8.454209	-0.06722895	-0.3954284	0	0	0	0
8.51049	-0.06722895	-0.3954284	0	0	0	0
8.52706	-0.06722895	-0.3954284	0	0	0	0
8.543926	-0.06722895	-0.3954284	0	0	0	0
8.560296	-0.06722895	-0.3954284	0	0	0	0
8.576774	-0.06722895	-0.3954284	0	0	0	0
8.593472	-0.06722895	-0.3954284	0	0	0	0
8.609986	-0.06722895	-0.3954284	0	0	0	0
8.673246	-0.06722895	-0.3954284	0	0	0	0
8.689816	-0.06722895	-0.3954284	0	0	0	0
8.707019	-0.06722895	-0.3954284	0	0	0	0
8.723143	-0.06722895	-0.3954284	0	0	0	0
8.739516	-0.06722895	-0.3954284	0	0	0	0
8.756083	-0.06722895	-0.3954284	0	0	0	0
8.772649	-0.06722895	-0.3954284	0	0	0	0
8.813654	-0.06722895	-0.3954284	0	0	0	0
8.830224	-0.06722895	-0.3954284	0	0	0	0
8.846791	-0.06722895	-0.3954284	0	0	0	0
8.86336	-0.06722895	-0.3954284	0	0	0	0
8.879927	-0.06722895	-0.3954284	0	0	0	0
8.896494	-0.06722895	-0.3954284	0	0	0	0
8.91307	-0.06722895	-0.3954284	0	0	0	0
8.929627	-0.06722895	-0.3954284	0	0	0	0
8.969752	-0.06722895	-0.3954284	0	0	0	0
8.98632	-0.06722895	-0.3954284	0	0	0	0
9.002888	-0.06722895	-0.3954284	0	0	0	0
9.020285	-0.06722895	-0.3954284	0	0	0	0
9.036027	-0.06722895	-0.3954284	0	0	0	0
9.052594	-0.06722895	-0.3954284	0	0	0	0
9.069631	-0.06722895	-0.3954284	0	0	0	0
9.085725	-0.06722895	-0.3954284	0	0	0	0
9.136048	-0.06722895	-0.3954284	0	0	0	0
9.152617	-0.06722895	-0.3954284	0	0	0	0
9.169184	-0.06722895	-0.3954284	0	0	0	0
9.185751	-0.06722895	-0.3954284	0	0	0	0
9.20232	-0.06722895	-0.3954284	0	0	0	0
9.219164	-0.06967364	-0.3942061	-0.1451386	0.07256929	-4.343784	2.171892
9.284322	-0.07578535	-0.3917614	-0.0937986	0.03751939	0.6260844	-0.427429
9.329352	-0.08189708	-0.3905391	-0.1357239	0.02714537	-0.3804868	-0.09414797
9.34817	-0.08189708	-0.3905391	0	0	2.125717	-0.4251528
9.364797	-0.08189708	-0.3893167	0	0.07351834	0	2.074196
9.381309	-0.08189708	-0.3880944	0	0.07402788	0	0.01537611
9.397875	-0.0794524	-0.3783156	0.1475699	0.5902798	4.461246	15.60701
9.414442	-0.07211832	-0.3648698	0.4426857	0.8115916	8.906868	6.679396
9.431011	-0.06111722	-0.347757	0.663951	1.032811	6.677415	6.67604
9.447574	-0.03789268	-0.3233101	1.40224	1.476041	22.28353	13.37786
9.496367	-0.0220022	-0.304975	0.325666	0.3757684	-16.47239	-16.835
9.512936	0.01222345	-0.269527	2.065745	2.139523	26.62219	26.98442
9.529503	0.01344579	-0.2683046	0.07378083	0.07377893	-60.11587	-62.34249
9.546069	0.01589048	-0.2658599	0.1475702	0.1475717	2.227032	2.227136
9.562635	0.01833517	-0.2634152	0.1475702	0.1475717	-1.798975E-06	0
9.579203	0.01955751	-0.2609705	0.07378083	0.1475614	-2.227031	-0.000310764
9.595771	0.01955751	-0.2609705	0	0	-2.226646	-4.453285
9.612361	0.02077986	-0.2597482	0.07367916	0.07367714	2.222043	2.221982
9.648776	0.02077986	-0.2585258	-5.115035E-08	0.03356772	-1.390037	-0.7567069
9.665344	0.02322455	-0.2560812	0.1475533	0.147553	2.784904	2.151343
9.682249	0.02322454	-0.2548588	-1.101842E-07	0.07230727	-4.40813	-2.247951
9.698479	0.02322454	-0.2548588	0	0	3.325366E-06	-2.182238
9.715047	0.02322454	-0.2548588	0	0	0	0
9.731613	0.02444689	-0.2536365	0.07378508	0.07378497	2.226838	2.226835
9.748179	0.02444689	-0.2524141	0	0.07378497	-2.226966	0
9.764746	0.02566924	-0.2487471	0.07378531	0.2213549	2.226973	4.453927
9.801499	0.02689158	-0.2463024	0.03325771	0.06651542	-0.7600836	-2.90397
9.8189	0.03178096	-0.2389683	0.2809869	0.4214811	4.574498	6.554697
9.835374	0.0330033	-0.2365237	0.0741993	0.1483986	-6.104518	-8.061591
9.851309	0.03422565	-0.2328566	0.07670852	0.2301249	0.07742405	2.521737
9.867845	0.03911502	-0.2255226	0.295685	0.4435278	6.743817	6.572168
9.884339	0.04889378	-0.202298	0.5928405	1.407996	8.996393	29.19932
9.900908	0.05378316	-0.1900746	0.2951064	0.7377657	-9.005073	-20.27136
9.91747	0.05745019	-0.1754064	0.2214064	0.8856254	-2.224526	4.46293
9.97241	0.05989488	-0.163183	0.04449724	0.2224864	-2.47416	-9.274323
9.98898	0.06478426	-0.09717639	0.2950726	3.983478	3.504045	52.5937
10.00555	0.06845129	-0.08373059	0.2213554	0.8116365	-2.224663	-95.72086
10.02211	0.08189709	-0.0482826	0.8116832	2.139891	17.81767	40.09027
10.0394	0.09412052	-0.02016868	0.707	1.626101	-3.092152	-15.17643
10.05534	0.1038993	0.0006111722	0.6134102	1.303497	-2.816358	-9.707974
10.07181	0.1087887	0.01161227	0.2968669	0.6679496	-9.766368	-19.60866
10.08838	0.1124557	0.02139103	0.2213554	0.5902808	-2.285718	-2.351018
10.12848	0.113678	0.02628041	0.03048464	0.121938	-3.368495	-8.265332
10.1455	0.1161227	0.03361448	0.1436099	0.4308307	1.980474	5.407754
10.16161	0.1161227	0.03361448	0	0	-4.334157	-13.0025
10.17818	0.1161227	0.03361448	0	0	0	0
10.19475	0.1161227	0.03361448	0	0	0	0
10.21131	0.1161227	0.03483682	0	0.07378922	0	2.226963
10.22788	0.1149004	0.03483682	-0.07378497	0	-2.227027	-2.227155
10.24445	0.113678	0.03728151	-0.0737519	0.1475022	0.0009977518	4.450858
10.28181	0.113678	0.03728151	0	0	1.367517	-2.735006
10.29838	0.113678	0.03728151	0	0	0	0
10.31498	0.113678	0.03728151	0	0	0	0
10.33151	0.113678	0.03728151	0	0	0	0
10.34808	0.113678	0.03728151	0	0	0	0
10.36465	0.113678	0.03728151	0	0	0	0
10.38121	0.1075663	0.03605916	-0.3689249	-0.07378497	-11.13449	-2.226899
10.3979	0.09534287	0.02994744	-0.7326218	-0.3663108	-10.93799	-8.797555
10.42302	0.08923115	0.02750275	-0.2432938	-0.09731755	11.70494	6.434434
10.43959	0.07823005	0.02261337	-0.6639132	-0.2950725	-10.08902	-4.743369
10.45616	0.07823005	0.02261337	0	0	20.03348	8.903768
10.47287	0.0770077	0.02139103	-0.07314076	-0.07314099	-2.197589	-2.197595
10.48946	0.0770077	0.02139103	0	0	2.196079	2.196085
10.50593	0.0770077	0.02139103	0	0	0	0
10.52242	0.0770077	0.02139103	0	0	0	0
10.53899	0.0770077	0.02139103	0	0	0	0
10.55556	0.0770077	0.02139103	0	0	0	0
10.60606	0.07578536	0.02139103	-0.02420347	3.688204E-08	-0.3608584	5.498879E-07
10.62273	0.07334067	0.01894634	-0.1466754	-0.1466751	-1.823309	-2.183636
10.6392	0.07334067	0.01894634	0	0	4.426416	4.42641
10.65576	0.07334067	0.01894634	0	0	0	0
10.67233	0.07334067	0.01894634	0	0	0	0
10.68908	0.07334067	0.01894634	0	0	0	0
10.70569	0.07334067	0.01894634	0	0	0	0
10.74535	0.07334067	0.01894634	0	0	0	0
10.76192	0.07334067	0.01894634	0	0	0	0
10.77848	0.07334067	0.01894634	0	0	0	0
10.79505	0.07334067	0.01894634	0	0	0	0
10.81238	0.07334067	0.01894634	0	0	0	0
10.82819	0.07334067	0.01894634	0	0	0	0
10.84505	0.07334067	0.01894634	0	0	0	0
10.8615	0.07334067	0.01894634	0	0	0	0
10.90776	0.07334067	0.01894634	0	0	0	0
10.9246	0.07334067	0.01894634	0	0	0	0
10.9409	0.07334067	0.01894634	0	0	0	0
10.95747	0.07334067	0.01894634	0	0	0	0
10.97404	0.07334067	0.01894634	0	0	0	0
10.9906	0.07334067	0.01894634	0	0	0	0
11.00717	0.07334067	0.01894634	0	0	0	0
11.02381	0.07334067	0.01894634	0	0	0	0
11.05885	0.07334067	0.01894634	0	0	0	0
11.07542	0.07334067	0.01894634	0	0	0	0
11.09199	0.07334067	0.01894634	0	0	0	0
11.10856	0.07334067	0.01894634	0	0	0	0
11.12512	0.07334067	0.01894634	0	0	0	0
11.14169	0.07334067	0.01894634	0	0	0	0
11.15852	0.07334067	0.01894634	0	0	0	0
11.17483	0.07334067	0.01894634	0	0	0	0
11.21036	0.07334067	0.01894634	0	0	0	0
11.22693	0.07334067	0.01894634	0	0	0	0
11.24349	0.07334067	0.01894634	0	0	0	0
11.26006	0.07334067	0.01894634	0	0	0	0
11.27664	0.07334067	0.01894634	0	0	0	0
11.2932	0.07334067	0.01894634	0	0	0	0
11.30976	0.07334067	0.01894634	0	0	0	0
11.32633	0.07334067	0.01894634	0	0	0	0
11.34336	0.07334067	0.01894634	0	0	0	0
11.3634	0.07334067	0.01894634	0	0	0	0
11.37997	0.07334067	0.01894634	0	0	0	0
11.39654	0.07334067	0.01894634	0	0	0	0
11.41311	0.07334067	0.01894634	0	0	0	0
11.42967	0.07334067	0.01894634	0	0	0	0
11.44624	0.07211832	0.01894634	-0.07377693	-1.12423E-07	-2.22672	-3.393129E-06
11.46281	0.07211832	0.02016868	0	0.07378519	2.226592	2.226845
11.47937	0.07211832	0.02016868	0	0	0	-2.227034
11.49594	0.07211832	0.02016868	0	0	0	0
11.53138	0.07211832	0.02016868	0	0	0	0
11.54795	0.07211832	0.02016868	0	0	0	0
11.56502	0.07211832	0.02016868	0	0	0	0
11.58109	0.07211832	0.02016868	0	0	0	0
11.59765	0.07211832	0.02016868	0	0	0	0
11.61422	0.07211832	0.02016868	0	0	0	0
11.63118	0.07211832	0.02016868	0	0	0	0
11.64735	0.07211832	0.02016868	0	0	0	0
11.68785	0.07211832	0.02016868	0	0	0	0
11.70442	0.07211832	0.02016868	0	0	0	0
11.72098	0.07211832	0.02016868	0	0	0	0
11.73755	0.07211832	0.02016868	0	0	0	0
11.75412	0.07211832	0.02016868	0	0	0	0
11.77083	0.07211832	0.02016868	0	0	0	0
11.78726	0.07211832	0.02016868	0	0	0	0
11.80382	0.07211832	0.02016868	0	0	0	0
11.83964	0.07211832	0.02016868	0	0	0	0
11.85684	0.07211832	0.02016868	0	0	0	0
11.87278	0.07211832	0.02016868	0	0	0	0
11.88936	0.07211832	0.02016868	0	0	0	0
11.90592	0.07211832	0.02016868	0	0	0	0
11.92248	0.07211832	0.02016868	0	0	0	0
11.93905	0.07211832	0.02016868	0	0	0	0
11.95562	0.07211832	0.02016868	0	0	0	0
11.99056	0.07211832	0.02016868	0	0	0	0
12.00712	0.07211832	0.02016868	0	0	0	0
12.02369	0.07211832	0.02016868	0	0	0	0
12.04038	0.07211832	0.02016868	0	0	0	0
12.05683	0.07211832	0.02016868	0	0	0	0
12.07339	0.07211832	0.02016868	0	0	0	0
12.08996	0.07089598	0.02139103	-0.07379727	0.07379783	-2.227398	2.227415
12.10652	0.06478426	0.04217089	-0.3689258	1.254347	-8.908277	35.63417
12.14122	0.05867254	0.06539543	-0.1761332	0.669306	3.760653	-11.41193
12.15833	0.05133847	0.0947317	-0.4286214	1.714486	-4.873324	20.17323
12.17452	0.05011613	0.09839874	-0.07552873	0.226586	10.60508	-44.68883
12.19117	0.04889378	0.1045105	-0.07340909	0.3670448	0.06455444	4.277715
12.20772	0.04767143	0.1069551	-0.07386599	0.1477315	-0.01376232	-6.605958
12.22406	0.04767143	0.1069551	0	0	2.245697	-4.491381
12.24063	0.04767143	0.1069551	0	0	0	0
12.25739	0.04767143	0.1069551	0	0	0	0
12.30384	0.04767143	0.1069551	0	0	0	0
12.32041	0.04767143	0.1069551	0	0	0	0
12.33698	0.04767143	0.1069551	0	0	0	0
12.35354	0.04767143	0.1069551	0	0	0	0
12.37011	0.04767143	0.1069551	0	0	0	0
12.38668	0.04767143	0.1069551	0	0	0	0
12.40324	0.04767143	0.1069551	0	0	0	0
12.41981	0.04767143	0.1069551	0	0	0	0
12.49291	0.04767143	0.1069551	0	0	0	0
12.50948	0.04889378	0.1069551	0.07377245	0	0.8226739	0
12.52605	0.04889378	0.1069551	0	0	-2.226457	0
12.54263	0.04889378	0.1069551	0	0	0	0
12.55918	0.04889378	0.1069551	0	0	0	0
12.57577	0.04889378	0.1069551	0	0	0	0
12.64893	0.04889378	0.1069551	0	0	0	0
12.6655	0.04889378	0.1069551	0	0	0	0
12.6821	0.04889378	0.1069551	0	0	0	0
12.69863	0.04889378	0.1069551	0	0	0	0
12.7152	0.04889378	0.1069551	0	0	0	0
12.73261	0.04889378	0.1069551	0	0	0	0
12.77032	0.04889378	0.1020658	9.880485E-08	-0.1296796	1.792712E-06	-2.352902
12.78688	0.04767143	0.08861998	-0.07378118	-0.8115893	-1.359504	-12.56496
12.80345	0.04767143	0.08617529	0	-0.1475619	2.22672	20.04039
12.82002	0.04767143	0.08495294	0	-0.07378072	0	2.22672
12.83686	0.04767143	0.08006356	0	-0.2903109	0	-6.481171
12.85316	0.04767144	0.07639653	2.285961E-07	-0.2250208	6.898249E-06	1.970232
12.86978	0.04767144	0.07028481	0	-0.3676348	-6.943812E-06	-4.332026
12.88629	0.04767143	0.06784011	-4.513287E-07	-0.1480904	-1.362191E-05	6.626243
12.92543	0.04767143	0.06661777	9.517225E-08	-0.03122792	9.820196E-06	2.099928
12.942	0.04767143	0.06050605	0	-0.3688828	-1.708327E-06	-6.060853
12.95857	0.04767144	0.05928371	2.24846E-07	-0.0737767	6.785476E-06	8.905808
12.97589	0.04767144	0.05806136	0	-0.07054448	-6.633508E-06	0.09535835
12.99174	0.04767143	0.05683902	-2.350331E-07	-0.07711929	-7.084138E-06	-0.1981715
13.00827	0.04767143	0.05561667	0	-0.07397234	7.259848E-06	0.09720483
13.02484	0.04767143	0.05561667	0	0	0	2.235385
13.0414	0.04767143	0.05439433	0	-0.07378497	0	-2.226899
13.08312	0.04767143	0.05439433	0	0	0	1.265919
13.09969	0.04767143	0.05317198	0	-0.07377693	0	-1.265739
13.11626	0.04767143	0.05317198	0	0	0	2.226592
13.13282	0.04767143	0.05317198	0	0	0	0
13.14976	0.04767143	0.05317198	0	0	0	0
13.16596	0.04767143	0.05317198	0	0	0	0
13.18253	0.04767143	0.05317198	0	0	0	0
13.1991	0.04767143	0.05317198	0	0	0	0
13.24406	0.04767143	0.05317198	0	0	0	0
13.26064	0.04767143	0.05317198	0	0	0	0
13.27747	0.04767143	0.05317198	0	0	0	0
13.29377	0.04767143	0.05317198	0	0	0	0
13.31116	0.04767143	0.05317198	0	0	0	0
13.32709	0.04767143	0.05317198	0	0	0	0
13.34347	0.04767143	0.05317198	0	0	0	0
13.36004	0.04767143	0.05317198	0	0	0	0
13.41433	0.04767143	0.05317198	0	0	0	0
13.4309	0.04767143	0.05317198	0	0	0	0
13.44746	0.04767143	0.05317198	0	0	0	0
13.46403	0.04767143	0.05317198	0	0	0	0
13.48063	0.04767143	0.05317198	0	0	0	0
13.49716	0.04767143	0.05317198	0	0	0	0
13.51373	0.04767143	0.05317198	0	0	0	0
13.53051	0.04767143	0.05317198	0	0	0	0
13.57403	0.04767143	0.05317198	0	0	0	0
13.5906	0.04767143	0.05317198	0	0	0	0
13.60773	0.04767143	0.05317198	0	0	0	0
13.62373	0.04767143	0.05317198	0	0	0	0
13.64077	0.04767143	0.05317198	0	0	0	0
13.65687	0.04767143	0.05317198	0	0	0	0
13.67392	0.04767143	0.05317198	0	0	0	0
13.69007	0.04767143	0.05317198	0	0	0	0
13.73896	0.04767143	0.05317198	0	0	0	0
13.75554	0.04767143	0.05317198	0	0	0	0
13.7721	0.04767143	0.05317198	0	0	0	0
13.78903	0.04767143	0.05317198	0	0	0	0
13.80523	0.04767143	0.05317198	0	0	0	0
13.82242	0.04767143	0.05317198	0	0	0	0
13.83837	0.04767143	0.05317198	0	0	0	0
13.85493	0.04767143	0.05317198	0	0	0	0
13.88106	0.04767143	0.05317198	0	0	0	0
13.89768	0.04767143	0.05317198	0	0	0	0
13.91427	0.04767143	0.05317198	0	0	0	0
13.93077	0.04767143	0.05317198	0	0	0	0
13.94733	0.04767143	0.05317198	0	0	0	0
13.9639	0.04767143	0.05317198	0	0	0	0
13.98046	0.04767143	0.05317198	0	0	0	0
13.99703	0.04767143	0.05317198	0	0	0	0
14.0136	0.04767143	0.05317198	0	0	0	0
14.04389	0.04767143	0.05317198	0	0	0	0
14.06047	0.04767143	0.05317198	0	0	0	0
14.07703	0.04767143	0.05317198	0	0	0	0
14.09384	0.04767143	0.05317198	0	0	0	0
14.11079	0.04767143	0.05317198	0	0	0	0
14.12675	0.04767143	0.05317198	0	0	0	0
14.14376	0.04767143	0.05317198	0	0	0	0
14.15987	0.04767143	0.05317198	0	0	0	0
14.17681	0.04767143	0.05317198	0	0	0	0
14.21219	0.04767143	0.05317198	0	0	0	0
14.22876	0.04767143	0.05317198	0	0	0	0
14.24533	0.04767143	0.05317198	0	0	0	0
14.26189	0.04767143	0.05317198	0	0	0	0
14.27895	0.04767143	0.05317198	0	0	0	0
14.29507	0.04767143	0.05317198	0	0	0	0
14.3116	0.04155971	0.05683902	-0.3698622	0.2219177	-11.32842	6.797067
14.32816	0.03544799	0.0617284	-0.3689893	0.2951916	0.02638168	2.214532
14.38341	0.02933627	0.06906246	-0.1106325	0.1327589	3.597938	-2.262076
14.40003	0.008556412	0.1057328	-1.249671	2.205301	-15.8482	28.83667
14.41672	0.006111722	0.1106222	-0.1465159	0.2930317	33.11409	-57.40181
14.43311	0.001222345	0.1216233	-0.2983175	0.6712145	-4.589571	11.43398
14.44991	-0.004889378	0.131402	-0.3637533	0.582006	-1.971453	-2.687676
14.46624	-0.007334067	0.1387361	-0.1496725	0.4490169	6.460785	-4.013503
14.48281	-0.009778756	0.1424031	-0.1475872	0.2213813	0.06338688	-6.919446
14.53911	-0.0110011	0.1424031	-0.02170938	-2.646511E-07	1.727447	-3.038064
14.55568	-0.0110011	0.1424031	0	0	0.2979065	3.63167E-06
14.57225	-0.0110011	0.1424031	0	0	0	0
14.58882	-0.0110011	0.1424031	0	0	0	0
14.60539	-0.0110011	0.1424031	0	0	0	0
14.62195	-0.0110011	0.1424031	0	0	0	0
14.63884	-0.0110011	0.1424031	0	0	0	0
14.69243	-0.0110011	0.1424031	0	0	0	0
14.73654	-0.0110011	0.1424031	0	0	0	0
14.75311	-0.0110011	0.1424031	0	0	0	0
14.76968	-0.0110011	0.1424031	0	0	0	0
14.78642	-0.0110011	0.1424031	0	0	0	0
14.80281	-0.006111722	0.1460702	0.2983349	0.2237507	9.004282	6.753199
14.84794	0.04767144	0.1790735	1.191644	0.7312362	14.52004	8.248781
14.86451	0.2187997	0.2524141	10.32932	4.426852	148.0965	59.89573
14.88108	0.2187997	0.2524141	0	0	-311.7305	-133.5988
14.89764	0.2566923	0.2658599	2.287339	0.8116365	69.03204	24.49524
14.91421	0.290918	0.2817504	2.065983	0.9592046	-6.680941	4.453871
14.93078	0.3043638	0.2890845	0.8114479	0.4426097	-37.85976	-15.58997
14.94735	0.3092531	0.2927515	0.2951399	0.2213549	-15.58131	-6.677098
14.96391	0.3129202	0.2951962	0.2213567	0.1475717	-2.226908	-2.226909
14.98502	0.3141425	0.2964185	0.05789677	0.05789677	-4.338256	-2.37999
15.00159	0.3141425	0.2964185	0	0	-1.536513	-1.536513
15.01816	0.3141425	0.2964185	0	0	0	0
15.04809	0.3153649	0.2964185	0.04084218	0	0.8783405	0
15.06466	0.322699	0.3025303	0.4426079	0.3688399	8.640263	7.932169
15.08123	0.326366	0.3049749	0.2213549	0.1475699	-6.677044	-6.677557
15.09779	0.3312554	0.3061973	0.2951417	0.07378677	2.227018	-2.226909
15.11436	0.3337	0.308642	0.1475512	0.1475512	-4.454291	2.226214
15.1613	0.3422565	0.3110867	0.1822781	0.05207974	0.5467957	-1.503252
15.17787	0.3471458	0.312309	0.2950871	0.07377223	1.776215	0.3415554
15.19457	0.3471458	0.312309	0	0	-8.871277	-2.217833
15.21105	0.3471458	0.312309	0	0	0	0
15.22761	0.3483682	0.3037526	0.07382748	-0.5167941	2.234614	-15.64235
15.24471	0.3483682	0.2829727	0	-1.215106	-2.193458	-20.74726
15.26079	0.3483682	0.2585259	1.85328E-06	-1.520245	5.585171E-05	-9.195885
15.3135	0.3483682	0.234079	0	-0.4637535	-2.693871E-05	15.35684
15.33053	0.3349224	0.16685	-0.7894584	-3.94729	-11.31889	-49.94535
15.34664	0.3324777	0.1595159	-0.1518283	-0.4554811	19.24427	105.386
15.3632	0.330033	0.1546266	-0.1475699	-0.2951408	0.1303519	4.908161
15.37977	0.3202543	0.1399584	-0.5901099	-0.8851658	-13.35473	-17.80545
15.39634	0.2921403	0.1142892	-1.69696	-1.549398	-33.40096	-20.04426
15.4129	0.2615817	0.09962108	-1.844947	-0.885574	-4.466749	20.03655
15.4595	0.216355	0.08250825	-0.9707028	-0.367293	13.84279	8.206469
15.47606	-0.007334067	0.04950495	-13.50112	-1.991969	-198.3918	-25.72319
15.49268	-0.04155971	0.04583792	-2.059463	-0.2206567	344.7641	53.3738
15.5092	-0.106344	0.03239213	-3.922805	-0.814167	-56.23742	-17.91269
15.52603	-0.1686835	0.01650165	-3.703346	-0.9439904	6.58086	-3.892981
15.54248	-0.2126879	0.004278206	-2.674742	-0.7429836	30.90281	6.038934
15.5589	-0.2444689	-0.006722894	-1.936022	-0.6701615	22.47573	2.215631
15.57547	-0.2689158	-0.01650165	-1.475446	-0.5901789	13.9633	2.424838
15.61633	-0.287251	-0.0262804	-0.4487616	-0.2393391	17.87826	6.109375
15.6334	-0.3312553	-0.06906246	-2.576898	-2.505319	-36.73393	-39.11326
15.64946	-0.3337001	-0.07517419	-0.152225	-0.3805588	73.17257	64.1217
15.66625	-0.3361447	-0.08128591	-0.1455837	-0.3639596	0.2021571	0.505267
15.6826	-0.3398118	-0.08984232	-0.2244036	-0.5236094	-2.378859	-4.818378
15.69916	-0.3410341	-0.09839873	-0.07378922	-0.5165254	4.577037	0.215275
15.71591	-0.3398118	-0.1191786	0.07299498	-1.240917	4.406492	-21.74638
15.7323	-0.3398118	-0.1191786	0	0	-2.202929	37.44986
15.76986	-0.3349224	-0.1362914	0.1301733	-0.4556075	2.412837	-8.444947
15.78643	-0.3190319	-0.1839628	0.9590408	-2.877121	15.31265	-44.73549
15.80316	-0.3190319	-0.1839628	0	0	-28.79391	86.38169
15.81956	-0.3104755	-0.1998533	0.5219046	-0.9692508	15.75202	-29.25373
15.83613	-0.2994744	-0.2145215	0.6640283	-0.8853705	4.311764	2.54477
15.85269	-0.2872509	-0.2267449	0.7378515	-0.7378506	2.228051	4.452287
15.86926	-0.2701381	-0.237746	1.03299	-0.6640648	8.907799	2.226989
15.88583	-0.259137	-0.2438577	0.6639519	-0.368863	-11.13726	8.908952
15.90743	-0.2432465	-0.2499695	0.7356139	-0.2829283	1.877403	2.251318
15.924	-0.2029092	-0.2573035	2.434627	-0.4426589	44.51191	-4.18473
15.94057	-0.1931304	-0.2597482	0.5901796	-0.1475445	-55.66073	8.905801
15.95713	-0.180907	-0.2609706	0.7379347	-0.07379527	4.459386	2.225819
15.97386	-0.145459	-0.2646376	2.118427	-0.2191472	41.45929	-4.365245
15.99027	-0.1222344	-0.2683046	1.415855	-0.2235556	-21.20245	-0.1330387
16.00683	-0.09900989	-0.273194	1.401837	-0.2951229	-0.4251671	-2.170651
16.0234	-0.0770077	-0.276861	1.328208	-0.2213677	-2.22226	2.226066
16.04026	-0.06111722	-0.2793057	0.9425489	-0.1450072	-11.53825	2.284574
16.07872	-0.05133847	-0.2817504	0.2542718	-0.06356864	-12.44243	1.472218
16.09534	-0.02566923	-0.2927515	1.544065	-0.661741	23.41574	-10.85961
16.11185	-0.01955751	-0.2976409	0.3701401	-0.2961133	-35.42709	11.03403
16.12874	-0.007334067	-0.3049749	0.7236456	-0.4341866	10.58292	-4.133509
16.14532	0.004889378	-0.3135314	0.7372145	-0.516051	0.4053792	-2.445754
16.16155	0.01344579	-0.3184207	0.5272713	-0.3012973	-6.399086	6.545712
16.17812	0.01711282	-0.3208654	0.2212916	-0.1475275	-9.329	4.688281
16.19492	0.01711282	-0.3220878	0	-0.07279184	-6.632777	2.240053
16.24072	0.01711282	-0.3220878	0	0	0	1.162895
16.25729	0.01711282	-0.3220878	0	0	0	0
16.27385	0.01711282	-0.3220878	0	0	0	0
16.29042	0.01711282	-0.3220878	0	0	0	0
16.30698	0.01711282	-0.3220878	0	0	0	0
16.32355	0.01711282	-0.3220878	0	0	0	0
16.34012	0.01711282	-0.3220878	0	0	0	0
16.35701	0.01711282	-0.3220878	0	0	0	0
16.41081	0.01711282	-0.3220878	0	0	0	0
16.4277	0.01711282	-0.3220878	0	0	0	0
16.44395	0.01711282	-0.3208654	0	0.07521824	0	2.26996
16.46109	0.01833517	-0.3208654	0.07129395	0	2.13482	-2.252328
16.47709	0.01833517	-0.3196431	-1.164654E-07	0.07642926	-2.151412	2.306374
16.49365	0.01833517	-0.3196431	0	0	3.577119E-06	-2.347448
16.51022	0.01833517	-0.3196431	0	0	0	0
16.57724	0.01833517	-0.3196431	0	0	0	0
16.59381	0.01833517	-0.3196431	0	0	0	0
16.61038	0.01833517	-0.3196431	0	0	0	0
16.6272	0.01833517	-0.3196431	0	0	0	0
16.64352	0.01833517	-0.3196431	0	0	0	0
16.66008	0.01833517	-0.3196431	0	0	0	0
16.67674	0.01833517	-0.3196431	0	0	0	0
16.69599	0.01833517	-0.3196431	0	0	0	0
16.71256	0.01833517	-0.3171984	0	0.1475445	0	4.119709
16.72913	0.01955751	-0.3159761	0.07377234	0.07377223	2.226197	-2.226194
16.74634	0.01955751	-0.3135314	0	0.1420502	-2.183961	2.021305
16.76226	0.02077986	-0.312309	0.07676825	0.07676801	2.317004	-1.970333
16.77883	0.02077986	-0.312309	0	0	-2.362705	-2.362697
16.80963	0.0220022	-0.3110867	0.03969159	0.03969153	0.8379906	0.8379894
16.82619	0.0220022	-0.308642	0	0.1475614	-0.8380244	2.277501
16.85361	0.0220022	-0.308642	0	0	0	-3.354785
16.87018	0.0220022	-0.3074196	0	0.07376554	0	1.676902
16.88675	0.0220022	-0.3074196	0	0	0	-2.225992
16.90338	0.0220022	-0.3074196	0	0	0	0
16.91988	0.0220022	-0.3074196	0	0	0	0
16.93645	0.02322454	-0.3061973	0.07376374	0.07376194	2.230174	2.230119
16.95311	0.02322454	-0.3061973	0	0	-2.220187	-2.220133
16.96958	0.02322454	-0.3061973	0	0	0	0
16.98615	0.02322454	-0.3049749	0	0.07379951	0	2.233574
17.0235	0.02322454	-0.3049749	0	0	0	-1.36886
17.04018	0.02322454	-0.3037526	0	0.07328295	0	1.356352
17.05663	0.02322454	-0.3037526	0	0	0	-2.211556
17.0732	0.02322454	-0.3037526	0	0	0	0
17.08978	0.02322454	-0.3037526	0	0	0	0
17.10656	0.02444689	-0.3025303	0.07281688	0.07281488	2.182417	2.182357
17.1229	0.02444689	-0.3025303	0	0	-2.198251	-2.19819
17.13947	0.02444689	-0.3013079	-1.124295E-07	0.07378253	-3.41673E-06	2.24225
17.17725	0.02444689	-0.3013079	0	0	2.068769E-06	-1.357642
17.19382	0.02444689	-0.2976409	1.124295E-07	0.2213422	2.068769E-06	4.072826
17.21038	0.02566924	-0.2964185	0.07378095	0.07378072	2.22671	-4.453413
17.2275	0.02566924	-0.2964185	0	0	-2.190276	-2.190269
17.24371	0.02566923	-0.2951962	-1.149167E-07	0.07541297	-3.448147E-06	2.262812
17.26029	0.02566923	-0.2951962	0	0	3.50471E-06	-2.299931
17.27665	0.02566923	-0.2951962	0	0	0	0
17.29329	0.02566923	-0.2951962	0	0	0	0
17.33187	0.02689158	-0.2939738	0.03168341	0.03168413	0.5738301	0.5738431
17.34843	0.02689158	-0.2903068	0	0.2213422	-0.5745247	3.439126
17.365	0.02689158	-0.2890845	1.124295E-07	0.07378072	3.393129E-06	-4.453413
17.38157	0.02689158	-0.2878621	0	0.07378922	-3.393324E-06	0.000256354
17.39813	0.02689158	-0.2866398	-1.124295E-07	0.07378072	-3.393324E-06	-0.000256354
17.41482	0.02689158	-0.2866398	0	0	3.381256E-06	-2.218915
17.43141	0.02689158	-0.2854174	1.122357E-07	0.07365353	3.372525E-06	2.213186
17.44784	0.02689158	-0.2854174	0	0	-3.399019E-06	-2.230572
17.50716	0.02689158	-0.2841951	0	0.02060442	0	0.2720112
17.52373	0.02811392	-0.2805281	0.07377234	0.2213167	0.9720521	2.64466
17.54085	0.02811392	-0.2805281	0	0	-2.189897	-6.56968
17.55686	0.02811392	-0.2793057	-1.163128E-07	0.07633099	-3.51053E-06	2.303807
17.57343	0.02811392	-0.2780834	0	0.07377043	3.569714E-06	-0.07858507
17.59056	0.02811392	-0.2780834	0	0	0	-2.188972
17.60671	0.02811392	-0.276861	1.153239E-07	0.07568198	3.464924E-06	2.273877
17.63271	0.02811392	-0.276861	0	0	-2.736002E-06	-1.795518
17.64928	0.02811392	-0.273194	0	0.2212894	0	5.198234
17.66596	0.02811392	-0.2719716	-1.117093E-07	0.07330988	-3.360174E-06	-4.45117
17.68242	0.02811392	-0.269527	1.131853E-07	0.1485516	6.788112E-06	2.271061
17.69898	0.02811392	-0.2670823	-1.124295E-07	0.1475632	-6.831876E-06	-0.02992836
17.71555	0.02933627	-0.2646376	0.07378083	0.1475614	2.226713	-5.441587E-05
17.73212	0.02933627	-0.2621929	2.24859E-07	0.1475614	-2.226703	0
17.74868	0.02933627	-0.2585258	-1.124295E-07	0.221344	-1.017939E-05	2.226761
17.76554	0.02933627	-0.2560812	0	0.1450729	3.364273E-06	-2.282292
17.80858	0.02933627	-0.2536365	-4.327008E-08	0.05679112	-7.223916E-07	-1.473859
17.8252	0.02933627	-0.2450801	1.120554E-07	0.5147474	2.603096E-06	7.674881
17.84238	0.02933627	-0.2438577	0	0.07116706	-3.315422E-06	-13.12437
17.85828	0.02933627	-0.2426354	0	0.07686009	0	0.1721032
17.87486	0.02933627	-0.2401907	1.124036E-07	0.1475275	3.461286E-06	2.176088
17.89142	0.03055861	-0.2401907	0.07379772	0	2.227216	-4.452388
17.90799	0.03055861	-0.237746	0	0.1475284	-2.22722	4.452415
17.92456	0.03055861	-0.2365237	-1.124295E-07	0.07378072	-3.392738E-06	-2.225452
17.9651	0.03055861	-0.2353013	0	0.03014711	1.968522E-06	-0.7639788
17.98167	0.02933627	-0.2267449	-0.07377223	0.5164047	-1.291631	8.513577
17.99824	0.02933627	-0.2267449	0	0	2.226322	-15.58423
18.01481	0.02933627	-0.2255226	0	0.07378162	0	2.226734
18.03138	0.02933627	-0.2218555	0	0.2213176	0	4.452388
18.048	0.02933627	-0.2194108	-1.120425E-07	0.1470536	-3.375426E-06	-2.237301
18.06451	0.02811392	-0.2181885	-0.07405355	0.07405355	-2.235194	-2.203398
18.0814	0.02811392	-0.2169662	0	0.07236443	2.217326	-0.05057601
18.11518	0.02811392	-0.2145215	-5.512942E-08	0.0723567	-1.087832E-06	-0.000152457
18.13237	0.02811392	-0.2084097	1.083865E-07	0.3556378	3.207957E-06	5.557585
18.14832	0.02689158	-0.205965	-0.07663972	0.1532799	-2.312995	-6.107174
18.16489	0.02689158	-0.1998533	0	0.3689045	2.35695	6.631242
18.18146	0.02689158	-0.1937416	1.124036E-07	0.3688187	3.391957E-06	-0.002590077
18.19802	0.02444689	-0.1864075	-0.1475958	0.4427881	-4.454453	2.232401
18.21463	0.0220022	-0.1790735	-0.147172	0.4415152	0.01277499	-0.03836852
18.23116	0.02077986	-0.1717394	-0.07397684	0.4438606	2.209034	0.07078201
18.24772	0.01955751	-0.16685	-0.07378072	0.2951229	0.005926584	-4.494863
18.2679	0.01711282	-0.163183	-0.1211572	0.1817361	-1.289328	-3.085769
18.28447	0.007334067	-0.1509596	-0.5902469	0.7378082	-12.76606	15.13324
18.30136	0.003667033	-0.1472925	-0.2170692	0.2170697	11.15275	-15.56273
18.3176	0	-0.1399584	-0.2257876	0.4515753	-0.2631232	7.077395
18.33464	-0.002444689	-0.1362914	-0.1434977	0.2152461	2.472839	-7.10177
18.35074	-0.004889378	-0.1338467	-0.1518627	0.1518624	-0.2524559	-1.912923
18.36731	-0.008556412	-0.131402	-0.2213171	0.1475454	-2.126124	-0.1321525
18.38387	-0.009778756	-0.1289573	-0.07378083	0.1475614	4.452397	0.0004852177
18.40045	-0.009778756	-0.127735	0	0.07374766	2.226197	-2.227191
18.43839	-0.009778756	-0.127735	0	0	0	-1.352728
18.45496	-0.009778756	-0.127735	0	0	0	0
18.47153	-0.009778756	-0.127735	0	0	0	0
18.48815	-0.009778756	-0.127735	0	0	0	0
18.50486	-0.0110011	-0.127735	-0.07314923	-8.917361E-07	-2.194134	-2.67479E-05
18.52123	-0.0110011	-0.127735	0	0	2.211595	2.696076E-05
18.53831	-0.0110011	-0.127735	0	0	0	0
18.55437	-0.0110011	-0.127735	0	0	0	0
18.59176	-0.0110011	-0.127735	0	0	0	0
18.60833	-0.0110011	-0.127735	0	0	0	0
18.6249	-0.0110011	-0.127735	0	0	0	0
18.64146	-0.0110011	-0.127735	0	0	0	0
18.6582	-0.0110011	-0.127735	0	0	0	0
18.6746	-0.0110011	-0.127735	0	0	0	0
18.69117	-0.0110011	-0.127735	0	0	0	0
18.70774	-0.0110011	-0.127735	0	0	0	0
18.76687	-0.0110011	-0.127735	0	0	0	0
18.78344	-0.0110011	-0.127735	0	0	0	0
18.80001	-0.0110011	-0.127735	0	0	0	0
18.8167	-0.0110011	-0.127735	0	0	0	0
18.83314	-0.0110011	-0.127735	0	0	0	0
18.84979	-0.0110011	-0.127735	0	0	0	0
18.86627	-0.006111723	-0.127735	0.2966603	0	8.953226	0
18.88649	-0.003667033	-0.1289573	0.1209399	-0.06046984	-4.78861	-1.647882
18.90306	-0.003667033	-0.1289573	0	0	-3.288081	1.644037
18.91962	-0.003667033	-0.1289573	0	0	0	0
18.93619	-0.003667033	-0.1289573	0	0	0	0
18.95361	-0.003667033	-0.1289573	0	0	0	0
18.96932	-0.003667033	-0.127735	0	0.0777657	0	2.347109
18.98589	-0.004889378	-0.1252903	-0.07378086	0.1475614	-2.28525	2.161817
19.00246	-0.007334067	-0.1204009	-0.1475787	0.2951569	-2.227352	4.454695
19.01903	-0.01222344	-0.1093998	-0.2950895	0.6639515	-4.451883	11.13024
19.066	-0.01589048	-0.1032881	-0.07806171	0.1301028	3.415327	-8.401083
19.08285	-0.02444689	-0.08739763	-0.507756	0.9429754	-6.732117	12.73546
19.09914	-0.02566923	-0.08250826	-0.07506845	0.3002743	13.05854	-19.39676
19.11571	-0.02689158	-0.07884122	-0.07377245	0.2213176	0.0394494	-2.403392
19.13228	-0.02933627	-0.06906246	-0.1475277	0.5901108	-2.225554	11.12828
19.14884	-0.03178096	-0.05806137	-0.1475618	0.6640276	-0.001028387	2.230556
19.16541	-0.03422565	-0.04217089	-0.1475959	0.9593721	-0.001029073	8.91454
19.18224	-0.03544799	-0.03361447	-0.07261018	0.5082739	2.245237	-13.50688
19.2339	-0.03667033	-0.02628041	-0.02366024	0.1419612	0.714632	-5.347888
19.25047	-0.03911502	-0.017724	-0.1475447	0.5164065	-1.815647	5.487859
19.26704	-0.03911502	-0.017724	0	0	4.452908	-15.58518
19.2836	-0.03911502	-0.017724	0	0	0	0
19.30018	-0.03911502	-0.017724	0	0	0	0
19.31674	-0.03911502	-0.017724	0	0	0	0
19.33331	-0.03911502	-0.017724	0	0	0	0
19.35189	-0.03911502	-0.017724	0	0	0	0
19.40981	-0.03911502	-0.017724	0	0	0	0
19.42637	-0.03911502	-0.017724	0	0	0	0
19.44308	-0.03911502	-0.017724	0	0	0	0
19.45951	-0.03911502	-0.017724	0	0	0	0
19.47613	-0.03911502	-0.017724	0	0	0	0
19.49265	-0.03911502	-0.017724	0	0	0	0
19.50921	-0.03911502	-0.017724	0	0	0	0
19.52578	-0.03911502	-0.017724	0	0	0	0
19.60711	-0.03911502	-0.017724	0	0	0	0
19.62367	-0.03911502	-0.017724	0	0	0	0
19.64024	-0.03911502	-0.017724	0	0	0	0
19.65685	-0.03911502	-0.017724	0	0	0	0
19.67338	-0.03911502	-0.017724	0	0	0	0
19.68995	-0.03911502	-0.017724	0	0	0	0
19.72642	-0.03911502	-0.017724	0	0	0	0
19.74322	-0.03911502	-0.017724	0	0	0	0
19.75955	-0.03911502	-0.017724	0	0	0	0
19.77612	-0.03911502	-0.017724	0	0	0	0
19.79284	-0.03911502	-0.017724	0	0	0	0
19.80926	-0.03911502	-0.017724	0	0	0	0
19.82582	-0.03911502	-0.017724	0	0	0	0
19.84239	-0.03911502	-0.017724	0	0	0	0
19.89542	-0.03911502	-0.017724	0	0	0	0
19.91199	-0.03911502	-0.017724	0	0	0	0
19.92855	-0.03911502	-0.017724	0	0	0	0
19.94512	-0.03911502	-0.017724	0	0	0	0
19.96169	-0.03911502	-0.017724	0	0	0	0
19.97828	-0.03911502	-0.017724	0	0	0	0
19.99483	-0.03911502	-0.017724	0	0	0	0
20.03856	-0.03911502	-0.017724	0	0	0	0
20.05513	-0.03911502	-0.017724	0	0	0	0
20.0717	-0.03911502	-0.017724	0	0	0	0
20.08827	-0.03911502	-0.017724	0	0	0	0
20.10483	-0.03911502	-0.017724	0	0	0	0
20.1214	-0.03911502	-0.017724	0	0	0	0
20.13797	-0.03911502	-0.017724	0	0	0	0
20.18912	-0.03911502	-0.017724	0	0	0	0
20.24622	-0.03911502	-0.017724	0	0	0	0
20.26279	-0.03911502	-0.017724	0	0	0	0
20.27935	-0.03911502	-0.017724	0	0	0	0
20.29592	-0.03911502	-0.017724	0	0	0	0
20.31249	-0.03911502	-0.017724	0	0	0	0
20.32906	-0.03911502	-0.017724	0	0	0	0
20.34563	-0.03911502	-0.017724	0	0	0	0
20.36229	-0.03911502	-0.017724	0	0	0	0
20.38333	-0.03911502	-0.017724	0	0	0	0
20.3999	-0.03911502	-0.017724	0	0	0	0
20.41646	-0.03911502	-0.017724	0	0	0	0
20.43347	-0.03911502	-0.017724	0	0	0	0
20.44959	-0.03911502	-0.017724	0	0	0	0
20.46616	-0.03911502	-0.017724	0	0	0	0
20.48273	-0.03911502	-0.017724	0	0	0	0
20.50015	-0.03911502	-0.017724	0	0	0	0
20.51586	-0.03911502	-0.017724	0	0	0	0
20.56569	-0.03911502	-0.017724	0	0	0	0
20.58236	-0.03911502	-0.017724	0	0	0	0
20.59883	-0.03911502	-0.017724	0	0	0	0
20.61562	-0.03911502	-0.017724	0	0	0	0
20.63197	-0.03911502	-0.017724	0	0	0	0
20.64853	-0.03911502	-0.017724	0	0	0	0
20.6651	-0.03911502	-0.017724	0	0	0	0
20.68173	-0.03911502	-0.017724	0	0	0	0
20.73659	-0.03911502	-0.017724	0	0	0	0
20.75316	-0.03911502	-0.017724	0	0	0	0
20.76973	-0.03911502	-0.017724	0	0	0	0
20.78629	-0.03911502	-0.017724	0	0	0	0
20.80286	-0.03911502	-0.017724	0	0	0	0
20.81943	-0.03911502	-0.017724	0	0	0	0
20.836	-0.03911502	-0.017724	0	0	0	0
20.8756	-0.03911502	-0.017724	0	0	0	0
20.89217	-0.03911502	-0.017724	0	0	0	0
20.90874	-0.03911502	-0.017724	0	0	0	0
20.92531	-0.03911502	-0.017724	0	0	0	0
20.94211	-0.03911502	-0.017724	0	0	0	0
20.95844	-0.03911502	-0.017724	0	0	0	0
20.97501	-0.03911502	-0.017724	0	0	0	0
20.99182	-0.03911502	-0.017724	0	0	0	0
21.03306	-0.03911502	-0.017724	0	0	0	0
21.04963	-0.03911502	-0.017724	0	0	0	0
21.06619	-0.03911502	-0.017724	0	0	0	0
21.08286	-0.03911502	-0.017724	0	0	0	0
21.09943	-0.03911502	-0.017724	0	0	0	0
21.11599	-0.03911502	-0.017724	0	0	0	0
21.13246	-0.03911502	-0.017724	0	0	0	0
21.14903	-0.03911502	-0.02383572	0	-0.3688618	0	-11.16505
21.19858	-0.04033737	-0.03116979	-0.02466939	-0.1480161	-0.3731101	3.340163
21.21515	-0.0440044	-0.06539543	-0.2212662	-2.065151	-2.973241	-28.99388
21.23172	-0.0440044	-0.06539543	0	0	6.677058	62.3192
21.24829	-0.04522675	-0.07517418	-0.07378072	-0.5902467	-2.226835	-17.8147
21.26485	-0.04522675	-0.08373059	0	-0.5165254	2.226835	2.225039
21.28142	-0.04522675	-0.09350935	0	-0.5901792	0	-2.222875
21.29799	-0.04522675	-0.1045104	0	-0.663951	0	-2.22618
21.31455	-0.04522675	-0.1191786	-2.248849E-07	-0.8854729	-6.787038E-06	-6.685544
21.35126	-0.04522675	-0.1289573	1.015032E-07	-0.2664423	6.127452E-06	11.62138
21.36785	-0.0440044	-0.1534042	0.073662	-1.473243	1.38215	-22.64372
21.38439	-0.0440044	-0.1558489	2.25196E-07	-0.1477826	-2.222989	40.00016
21.40096	-0.0440044	-0.1570713	0	-0.07378922	-6.80191E-06	2.234926
21.41763	-0.0440044	-0.1607383	-2.234697E-07	-0.2199755	-6.723815E-06	-4.398492
21.4341	-0.0440044	-0.163183	0	-0.1484502	6.743552E-06	2.158391
21.45066	-0.0440044	-0.16685	0	-0.2213422	0	-2.20649
21.46723	-0.0440044	-0.1680724	0	-0.07379012	0	4.453386
21.50502	-0.0440044	-0.1692947	0	-0.03234377	0	0.7624767
21.52159	-0.0440044	-0.1692947	0	0	0	0.5949565
21.53816	-0.0440044	-0.1692947	0	0	0	0
21.55473	-0.0440044	-0.1692947	0	0	0	0
21.57129	-0.0440044	-0.1692947	0	0	0	0
21.58786	-0.0440044	-0.1692947	0	0	0	0
21.60443	-0.0440044	-0.1692947	0	0	0	0
21.62099	-0.0440044	-0.1692947	0	0	0	0
21.65648	-0.0440044	-0.1692947	0	0	0	0
21.67304	-0.05133847	-0.1424031	-0.4426341	1.622993	-8.504076	31.18163
21.68961	-0.05133847	-0.1424031	0	0	13.35795	-48.97919
21.70626	-0.0660066	-0.1167339	-0.880908	1.541589	-26.51869	46.4077
21.72275	-0.08678646	-0.08984232	-1.260661	1.631443	-11.46097	2.711803
21.73931	-0.1234568	-0.04339323	-2.213426	2.803673	-28.82751	35.46779
21.75588	-0.1393473	-0.02383572	-0.9593726	1.180766	37.85176	-48.98507
21.77286	-0.149126	-0.009167584	-0.5757299	0.8635966	11.43551	-9.454091
21.81482	-0.1552377	0.0006111723	-0.1456568	0.2330508	7.296213	-10.69724
21.83139	-0.1589048	0.009167584	-0.2213422	0.516466	-1.29317	4.84247
21.84807	-0.1589048	0.009167584	0	0	6.657509	-15.53422
21.86452	-0.1589048	0.009167584	0	0	0	0
21.88109	-0.1589048	0.009167584	0	0	0	0
21.89786	-0.1589048	0.009167584	0	0	0	0
21.91439	-0.1589048	0.009167584	0	0	0	0
21.93079	-0.152793	0.004278206	0.3725502	-0.29804	11.31196	-9.049562
21.97766	-0.1295685	-0.01527931	0.4955777	-0.4173288	1.944524	-1.885433
21.99423	0.0440044	-0.1692947	10.47568	-9.295319	157.3337	-139.9592
22.01087	0.07578536	-0.1937416	1.90929	-1.468685	-257.9105	235.6386
22.02736	0.106344	-0.2218555	1.853269	-1.705007	-1.690716	-7.132235
22.04398	0.1686835	-0.2707493	3.751595	-2.942427	57.34109	-37.37766
22.0605	0.2151326	-0.3049749	2.811439	-2.071588	-28.37068	26.27894
22.07711	0.2542476	-0.3330888	2.354212	-1.692088	-13.79836	11.45266
22.09363	0.2652488	-0.340423	0.6660237	-0.444017	-50.95255	37.66904
22.12944	0.2689158	-0.3428676	0.1024001	-0.06826648	-10.77095	7.180664
22.14601	0.2701381	-0.34409	0.07378253	-0.07378253	-0.54637	-0.1053128
22.16258	0.2701381	-0.34409	0	0	-2.226761	2.226761
22.17926	0.2701381	-0.34409	0	0	0	0
22.19571	0.2701381	-0.34409	0	0	0	0
22.21257	0.2701381	-0.34409	0	0	0	0
22.22926	0.2701381	-0.34409	0	0	0	0
22.24542	0.2701381	-0.34409	0	0	0	0
22.28187	0.2701381	-0.34409	0	0	0	0
22.29844	0.2615817	-0.34409	-0.5164074	1.798665E-06	-9.738722	3.39203E-05
22.31501	0.2505806	-0.3428676	-0.6640283	0.07378072	-4.454952	2.226524
22.33212	0.2359125	-0.3416453	-0.8572414	0.07143504	-5.737061	-0.06965014
22.34815	0.2029092	-0.3392006	-2.059419	0.1525511	-36.27972	2.447947
22.36471	0.1576824	-0.3355336	-2.729891	0.2213422	-20.57118	2.110624
22.38128	0.1332355	-0.3318665	-1.475448	0.2213167	37.85699	-0.0007689734
22.39785	0.09778756	-0.3269772	-2.140137	0.2951909	-20.06151	2.229656
22.44389	0.08800881	-0.3257548	-0.2123988	0.02654981	30.79307	-4.291185
22.46045	0.03544799	-0.3196431	-3.172577	0.3689054	-47.28205	5.468344
22.47702	0.03544799	-0.3196431	0	0	95.73755	-11.13231
22.49359	0.01711282	-0.3196431	-1.106968	-1.799286E-06	-33.40835	-5.430256E-05
22.51037	0.01711282	-0.3196431	0	0	33.20004	5.396397E-05
22.52672	0.002444689	-0.3196431	-0.8968311	1.822157E-06	-27.06642	5.499282E-05
22.54336	-0.008556412	-0.3208655	-0.6610596	-0.07345272	7.145211	-2.226089
22.56016	-0.02077986	-0.3245324	-0.7277544	-0.2183242	-1.994595	-4.332574
22.58048	-0.03178096	-0.3257548	-0.5414199	-0.06015764	5.02045	4.261514
22.59721	-0.0440044	-0.3294218	-0.7306585	-0.2191989	-5.107883	-4.292805
22.61395	-0.04522675	-0.3294218	-0.07302409	0	19.6495	6.549459
22.63053	-0.04522675	-0.3294218	0	0	2.191257	0
22.64675	-0.04644909	-0.3306442	-0.07536862	-0.07536862	-2.297509	-2.297509
22.66332	-0.04767143	-0.3306442	-0.07378945	0	0.04816974	2.29898
22.67988	-0.04767144	-0.3318665	-2.24859E-07	-0.07378072	2.227091	-2.226835
22.69646	-0.04889378	-0.3318665	-0.07374676	0	-2.225163	2.226194
22.71302	-0.04889378	-0.3318665	0	0	2.22581	0
22.79168	-0.04889378	-0.3318665	0	0	0	0
22.80825	-0.04889378	-0.3318665	0	0	0	0
22.82481	-0.04889378	-0.3318665	0	0	0	0
22.84138	-0.04889378	-0.3318665	0	0	0	0
22.85795	-0.04889378	-0.3318665	0	0	0	0
22.87452	-0.04889378	-0.3318665	0	0	0	0
22.95725	-0.04889378	-0.3318665	0	0	0	0
22.97382	-0.04889378	-0.3318665	0	0	0	0
22.99039	-0.04889378	-0.3318665	0	0	0	0
23.00695	-0.04889378	-0.3318665	0	0	0	0
23.02439	-0.04889378	-0.3318665	0	0	0	0
23.04009	-0.04889378	-0.3318665	0	0	0	0
23.0829	-0.04889378	-0.3318665	0	0	0	0
23.09946	-0.04767144	-0.3318665	0.07377223	0	1.242464	0
23.11635	-0.04767144	-0.3318665	0	0	-2.205377	0
23.1326	-0.04644909	-0.3318665	0.07519199	0	2.269037	0
23.14917	-0.04522675	-0.3306442	0.07378945	0.07378922	-0.04273221	2.248187
23.16574	-0.04522675	-0.3294218	0	0.07378072	-2.227098	-0.000256354
23.1823	-0.0440044	-0.3281995	0.07378072	0.07378072	2.226707	0
23.19887	-0.04278206	-0.3281995	0.07378095	0	6.745769E-06	-2.226707
23.24051	-0.04155971	-0.3269772	0.02935279	0.02935279	-0.7632344	0.5042535
23.25762	-0.04033737	-0.3257548	0.07146887	0.07147039	0.7169142	0.7169402
23.27365	-0.04033737	-0.3245324	0	0.07623833	-2.156811	0.1438882
23.29022	-0.03911502	-0.3233101	0.07378095	0.07377893	2.263191	-0.07544076
23.30678	-0.03911502	-0.3233101	0	0	-2.226713	-2.226652
23.32335	-0.03789268	-0.3220878	0.07377245	0.07377403	2.226329	2.226377
23.34003	-0.03789268	-0.3220878	0	0	-2.218666	-2.218714
23.35649	-0.03789268	-0.3220878	0	0	0	0
23.39513	-0.03789268	-0.3208654	-9.640777E-08	0.03163332	-1.749885E-06	0.5741724
23.41243	-0.03789268	-0.3208654	0	0	1.723218E-06	-0.5654224
23.42843	-0.03789268	-0.3208654	0	0	0	0
23.44483	-0.03789268	-0.3208654	0	0	0	0
23.4614	-0.03789268	-0.3208654	0	0	0	0
23.47818	-0.03789268	-0.3208654	0	0	0	0
23.49454	-0.03789268	-0.3208654	0	0	0	0
23.5111	-0.03789268	-0.3208654	0	0	0	0
23.54108	-0.03789268	-0.3208654	0	0	0	0
23.55765	-0.03789268	-0.3208654	0	0	0	0
23.57422	-0.03789268	-0.3208654	0	0	0	0
23.59079	-0.03789268	-0.3208654	0	0	0	0
23.60752	-0.03789268	-0.3208654	0	0	0	0
23.62392	-0.03789268	-0.3208654	0	0	0	0
23.65631	-0.03789268	-0.3208654	0	0	0	0
23.68777	-0.03789268	-0.3208654	0	0	0	0
23.70461	-0.03789268	-0.3208654	0	0	0	0
23.72126	-0.03789268	-0.3208654	0	0	0	0
23.73747	-0.03789268	-0.3208654	0	0	0	0
23.75404	-0.03789268	-0.3208654	0	0	0	0
23.77061	-0.03667033	-0.3196431	0.07378095	0.07378072	2.226585	2.226578
23.78744	-0.03667033	-0.3196431	0	0	-2.209038	-2.209031
23.80379	-0.03544799	-0.3196431	0.07475345	0	2.252692	0
23.82061	-0.03544799	-0.3184207	0	0.07267627	-2.253599	2.190978
23.87233	-0.03544799	-0.3184207	0	0	0	-1.06031
23.8889	-0.03544799	-0.3184207	0	0	0	0
23.90547	-0.03544799	-0.3184207	0	0	0	0
23.92204	-0.03544799	-0.3184207	0	0	0	0
23.9388	-0.03544799	-0.3184207	0	0	0	0
23.95537	-0.03544799	-0.3184207	0	0	0	0
23.97174	-0.03544799	-0.3184207	0	0	0	0
24.00793	-0.03544799	-0.3184207	0	0	0	0
24.02464	-0.03544799	-0.3184207	0	0	0	0
24.0413	-0.03544799	-0.3184207	0	0	0	0
24.05763	-0.03544799	-0.3171984	0	0.074858	0	2.269409
24.0742	-0.03544799	-0.3171984	0	0	0	-2.275329
24.09077	-0.03544799	-0.3171984	0	0	0	0
24.108	-0.03544799	-0.3171984	0	0	0	0
24.1239	-0.03422565	-0.3159761	0.07689697	0.07689697	2.321023	2.321023
24.14047	-0.03422565	-0.3159761	0	0	-2.368752	-2.368752
24.19652	-0.03422565	-0.3147537	0	0.0218061	0	0.3002672
24.21309	-0.03422565	-0.3147537	0	0	0	-0.3002515
24.22966	-0.03422565	-0.3147537	0	0	0	0
24.24623	-0.03422565	-0.3147537	0	0	0	0
24.2628	-0.03422565	-0.3147537	0	0	0	0
24.27949	-0.03422565	-0.3147537	0	0	0	0
24.29598	-0.03422565	-0.3147537	0	0	0	0
24.35209	-0.03422565	-0.3147537	0	0	0	0
24.36866	-0.03422565	-0.3147537	0	0	0	0
24.38523	-0.03422565	-0.3147537	0	0	0	0
24.40188	-0.03422565	-0.3147537	0	0	0	0
24.41836	-0.03422565	-0.3147537	0	0	0	0
24.43515	-0.03422565	-0.3147537	0	0	0	0
24.4515	-0.03422565	-0.3147537	0	0	0	0
24.49545	-0.03422565	-0.3147537	0	0	0	0
24.51201	-0.03422565	-0.3147537	0	0	0	0
24.52858	-0.03422565	-0.3147537	0	0	0	0
24.54515	-0.03422565	-0.3147537	0	0	0	0
24.56195	-0.03422565	-0.3147537	0	0	0	0
24.57828	-0.03422565	-0.3147537	0	0	0	0
24.59508	-0.03422565	-0.3147537	0	0	0	0
24.61142	-0.03422565	-0.3147537	0	0	0	0
24.64889	-0.03422565	-0.3147537	0	0	0	0
24.66545	-0.03422565	-0.3147537	0	0	0	0
24.68202	-0.03422565	-0.3147537	0	0	0	0
24.69859	-0.03422565	-0.3147537	0	0	0	0
24.71516	-0.03422565	-0.3147537	0	0	0	0
24.73181	-0.03422565	-0.3147537	0	0	0	0
24.74829	-0.03422565	-0.3147537	0	0	0	0
24.76486	-0.03422565	-0.3147537	0	0	0	0
24.80139	-0.03422565	-0.3147537	0	0	0	0
24.81826	-0.03422565	-0.3147537	0	0	0	0
24.83481	-0.03422565	-0.3147537	0	0	0	0
24.85114	-0.03422565	-0.3135313	0	0.07483361	0	2.275643
24.86769	-0.03422564	-0.3110867	2.251701E-07	0.1477656	6.848472E-06	2.218202
24.88423	-0.03667033	-0.3074197	-0.1478001	0.2216977	-4.467309	2.23462
24.9008	-0.03911502	-0.3013079	-0.1475617	0.3689054	0.007202191	4.446321
24.91736	-0.04155971	-0.2927515	-0.1475617	0.5164651	0	4.453359
24.97377	-0.04522675	-0.2817504	-0.0650092	0.1950277	1.131241	-4.40475
24.99034	-0.05011612	-0.2597482	-0.2950894	1.327902	-3.152773	15.5237
25.00691	-0.05011613	-0.2585258	-2.24859E-07	0.07378253	8.905294	-37.84722
25.02348	-0.05011613	-0.2548589	0	0.2213404	6.786257E-06	4.453305
25.04009	-0.05011613	-0.2524141	0	0.1471735	0	-2.2354
25.05661	-0.05011613	-0.2463024	0	0.3697986	0	6.718063
25.07318	-0.04889378	-0.2401907	0.07379794	0.3689886	2.230179	-0.02447818
25.12526	-0.04522675	-0.2267449	0.07040362	0.2581469	-0.04944436	-1.614607
25.14183	-0.004889378	-0.1424031	2.434768	5.090878	34.4393	70.39349
25.15876	0.001222344	-0.1326244	0.3609262	0.5774826	-61.9045	-134.7255
25.17501	0.009778756	-0.1167339	0.5265287	0.9778385	4.990424	12.06471
25.19155	0.01711282	-0.1081775	0.4435532	0.5174792	-2.530865	-14.04159
25.2088	0.02077986	-0.1032881	0.2126044	0.2834724	-6.836249	-6.92677
25.22466	0.02077986	-0.1020658	1.173894E-07	0.07703563	-6.420107	-6.233864
25.28127	0.02077986	-0.1020658	0	0	-1.619884E-06	-1.063033
25.29783	0.02077986	-0.1008434	0	0.07377223	0	1.008235
25.3144	0.02077986	-0.1008434	0	0	0	-2.226322
25.33097	0.02077986	-0.1008434	0	0	0	0
25.34754	0.02077986	-0.1008434	0	0	0	0
25.36451	0.02077986	-0.1008434	0	0	0	0
25.38067	0.02077986	-0.1008434	0	0	0	0
25.43063	0.02077986	-0.1008434	0	0	0	0
25.4472	0.02077986	-0.1008434	0	0	0	0
25.46398	0.02077986	-0.1008434	0	0	0	0
25.48034	0.02077986	-0.1008434	0	0	0	0
25.49691	0.02077986	-0.1008434	0	0	0	0
25.51347	0.02077986	-0.1008434	0	0	0	0
25.53004	0.02077986	-0.1008434	0	0	0	0
25.56457	0.02077986	-0.1008434	0	0	0	0
25.58114	0.02077986	-0.1008434	0	0	0	0
25.6526	0.02077986	-0.1008434	0	0	0	0
25.66923	0.01711282	-0.09962107	-0.2205302	0.07351036	-2.503493	0.8345011
25.68574	0.01711282	-0.09962107	0	0	6.655613	-2.218547
25.75864	0.01711282	-0.09962107	0	0	0	0
25.77521	0.01711282	-0.09962107	0	0	0	0
25.79189	0.01711282	-0.09962107	0	0	0	0
25.80834	0.01711282	-0.09962107	0	0	0	0
25.82491	0.01711282	-0.09962107	0	0	0	0
25.84148	0.01711282	-0.09962107	0	0	0	0
25.91191	0.01711282	-0.09962107	0	0	0	0
25.92848	0.01711282	-0.09962107	0	0	0	0
25.94547	0.01711282	-0.09962107	0	0	0	0
25.96161	0.01711282	-0.09962107	0	0	0	0
25.97818	0.01711282	-0.09962107	0	0	0	0
25.99475	0.01711282	-0.09962107	0	0	0	0
26.03414	0.01711282	-0.09962107	0	0	0	0
26.05071	0.01711282	-0.09962107	0	0	0	0
26.06727	0.01711282	-0.09962107	0	0	0	0
26.08384	0.01711282	-0.09962107	0	0	0	0
26.10041	0.01711282	-0.09962107	0	0	0	0
26.11698	0.01711282	-0.09962107	0	0	0	0
26.14639	0.01711282	-0.09962107	0	0	0	0
26.18201	0.01711282	-0.09962107	0	0	0	0
26.19858	0.01711282	-0.09962107	0	0	0	0
26.21515	0.01711282	-0.09962107	0	0	0	0
26.23171	0.01711282	-0.09962107	0	0	0	0
26.24829	0.01711282	-0.09962107	0	0	0	0
26.26485	0.01711282	-0.09962107	0	0	0	0
26.28142	0.01711282	-0.09962107	0	0	0	0
26.29799	0.01711282	-0.09962107	0	0	0	0
26.31455	0.01711282	-0.09962107	0	0	0	0
26.35467	0.01711282	-0.09962107	0	0	0	0
26.37124	0.01711282	-0.09962107	0	0	0	0
26.38781	0.01711282	-0.09962107	0	0	0	0
26.4046	0.01711282	-0.09962107	0	0	0	0
26.42094	0.01711282	-0.09962107	0	0	0	0
26.43766	0.01711282	-0.09962107	0	0	0	0
26.45425	0.01711282	-0.09962107	0	0	0	0
26.47065	0.01711282	-0.09962107	0	0	0	0
26.50921	0.01711282	-0.09962107	0	0	0	0
26.52608	0.01711282	-0.09962107	0	0	0	0
26.54234	0.01711282	-0.09962107	0	0	0	0
26.55891	0.01711282	-0.09962107	0	0	0	0
26.57548	0.01711282	-0.09962107	0	0	0	0
26.59204	0.01711282	-0.09962107	0	0	0	0
26.60861	0.01711282	-0.09962107	0	0	0	0
26.62518	0.01711282	-0.09962107	0	0	0	0
26.64207	0.01711282	-0.09962107	0	0	0	0
26.68678	0.01711282	-0.09962107	0	0	0	0
26.70381	0.01711282	-0.09962107	0	0	0	0
26.71992	0.01711282	-0.09962107	0	0	0	0
26.73679	0.01711282	-0.09962107	0	0	0	0
26.75305	0.01711282	-0.09962107	0	0	0	0
26.76966	0.01711282	-0.09962107	0	0	0	0
26.78619	0.01711282	-0.09962107	0	0	0	0
26.81574	0.01711282	-0.09962107	0	0	0	0
26.84797	0.01711282	-0.09962107	0	0	0	0
26.86488	0.01711282	-0.09962107	0	0	0	0
26.88117	0.01711282	-0.09962107	0	0	0	0
26.89829	0.01711282	-0.09962107	0	0	0	0
26.91424	0.01711282	-0.09962107	0	0	0	0
26.9308	0.01711282	-0.09962107	0	0	0	0
26.94751	0.01711282	-0.09962107	0	0	0	0
26.96394	0.01711282	-0.09962107	0	0	0	0
26.9805	0.01711282	-0.09962107	0	0	0	0
27.01882	0.01711282	-0.09962107	0	0	0	0
27.03539	0.01711282	-0.09962107	0	0	0	0
27.05241	0.01711282	-0.09962107	0	0	0	0
27.06853	0.01711282	-0.09962107	0	0	0	0
27.08509	0.01711282	-0.09962107	0	0	0	0
27.10185	0.01711282	-0.09962107	0	0	0	0
27.11875	0.01711282	-0.09962107	0	0	0	0
27.1348	0.01711282	-0.09962107	0	0	0	0
27.17505	0.01711282	-0.09962107	0	0	0	0
27.19163	0.01711282	-0.09962107	0	0	0	0
27.20819	0.01711282	-0.09962107	0	0	0	0
27.22476	0.01711282	-0.09962107	0	0	0	0
27.24146	0.01711282	-0.09962107	0	0	0	0
27.25864	0.01711282	-0.09962107	0	0	0	0
27.27446	0.01711282	-0.09962107	0	0	0	0
27.29103	0.01711282	-0.09962107	0	0	0	0
27.32144	0.01711282	-0.09962107	0	0	0	0
27.33893	0.01711282	-0.09962107	0	0	0	0
27.35457	0.01711282	-0.09962107	0	0	0	0
27.37114	0.01711282	-0.09962107	0	0	0	0
27.3877	0.01711282	-0.09962107	0	0	0	0
27.40472	0.01711282	-0.09962107	0	0	0	0
27.42084	0.01711282	-0.09962107	0	0	0	0
27.43741	0.01711282	-0.09962107	0	0	0	0
27.46815	0.01711282	-0.09962107	0	0	0	0
27.50898	0.01711282	-0.1020658	0	-0.05986561	0	-0.836402
27.52556	0.01711282	-0.1032881	0	-0.07374721	0	-0.2417926
27.54212	0.01711282	-0.1032881	0	0	0	2.225695
27.55868	0.01711282	-0.1045105	0	-0.07378922	0	-2.227604
27.57525	0.01711282	-0.1045105	0	0	0	2.226963
27.59243	0.01711282	-0.1045105	0	0	0	0
27.60839	0.01711282	-0.1045105	0	0	0	0
27.62496	0.01711282	-0.1045105	0	0	0	0
27.64152	0.01711282	-0.1045105	0	0	0	0
27.68455	0.01711282	-0.1045105	0	0	0	0
27.70112	0.01711282	-0.1057328	-1.124036E-07	-0.07376329	-1.886001E-06	-1.237661
27.71769	0.01711282	-0.1057328	0	0	3.391957E-06	2.225924
27.73426	0.01711282	-0.1057328	0	0	0	0
27.75082	0.01711282	-0.1057328	0	0	0	0
27.76739	0.01711282	-0.1057328	0	0	0	0
27.78404	0.01711282	-0.1057328	0	0	0	0
27.80053	0.01589048	-0.1057328	-0.07413064	-4.518508E-07	-2.236752	-1.363374E-05
27.84316	0.01344579	-0.1057328	-0.05735286	0	0.2838186	7.64366E-06
27.86002	0.01222344	-0.1057328	-0.07247911	0	-0.2542646	0
27.87629	0.01222344	-0.1057328	0	0	2.187424	0
27.89286	0.01222344	-0.1045105	0	0.07378072	0	2.246884
27.90943	0.01222344	-0.1045105	0	0	0	-2.226578
27.92599	0.01222344	-0.1032881	-5.622121E-08	0.07378967	-1.69676E-06	2.226977
27.94256	0.01222344	-0.1032881	0	0	1.696857E-06	-2.227105
27.95913	0.01222344	-0.1032881	0	0	0	0
27.97983	0.01222344	-0.1032881	0	0	0	0
27.9964	0.01222344	-0.1032881	0	0	0	0
28.01297	0.01222344	-0.1032881	0	0	0	0
28.02954	0.01222344	-0.1032881	0	0	0	0
28.04611	0.01222344	-0.1032881	0	0	0	0
28.06269	0.01222344	-0.1032881	0	0	0	0
28.07924	0.01222344	-0.1032881	0	0	0	0
28.10409	0.01222344	-0.1020658	0	0.04919878	0	1.188569
28.13371	0.02077986	-0.09962108	0.2888804	0.08253685	5.304029	0.6121083
28.1505	0.0220022	-0.09962108	0.07277553	0	-4.655895	-1.778224
28.16706	0.0220022	-0.09962108	0	0	-2.181801	0
28.18341	0.0220022	-0.09962108	0	0	0	0
28.19997	0.0220022	-0.09962108	0	0	0	0
28.21654	0.0220022	-0.09962108	0	0	0	0
28.23311	0.0220022	-0.09962108	0	0	0	0
28.24968	0.0220022	-0.09962108	0	0	0	0
28.26624	0.0220022	-0.09962108	0	0	0	0
28.3121	0.0220022	-0.09962108	0	0	0	0
28.32867	0.02689158	-0.09595404	0.2951233	0.2213431	4.727889	3.545926
28.34587	0.02689158	-0.0947317	0	0.07107235	-8.740305	-4.450384
28.3618	0.02811392	-0.09350935	0.076713	0.07671288	2.315336	0.1702413
28.37837	0.02933627	-0.09228701	0.07377234	0.07377223	-0.09047297	-0.09047275
28.39493	0.03055861	-0.09106467	0.07378945	0.07378922	0.0005162762	0.0005126785
28.412	0.03178095	-0.08984232	0.0716044	0.07160483	-0.06496137	-0.06494165
28.42807	0.03422565	-0.08739763	0.1521513	0.1521513	2.430631	2.430618
28.47205	0.03422564	-0.08495294	-8.470487E-08	0.05558673	-2.533866	-1.608146
28.48862	0.03911502	-0.07028481	0.2950896	0.8852682	4.873586	13.70269
28.50544	0.03911502	-0.06661777	0	0.2180792	-8.839167	-19.9851
28.5225	0.03911502	-0.05928371	0	0.429867	0	6.251777
28.53855	0.04155971	-0.05194964	0.1522598	0.4567788	4.59759	0.8126224
28.55489	0.04278206	-0.0482826	0.07483178	0.224496	-2.390446	-7.171304
28.57153	0.04522675	-0.04461558	0.1468855	0.2203275	2.184898	-0.1264016
28.58802	0.04522675	-0.04217088	-2.258731E-07	0.1482277	-4.432764	-2.175853
28.63723	0.04522675	-0.0397262	0	0.04968287	3.438019E-06	-1.499952
28.6538	0.04522675	-0.03116979	2.24859E-07	0.5164661	3.418712E-06	7.09688
28.67036	0.0440044	-0.02750275	-0.07378095	0.2213425	-2.22672	-8.906847
28.68761	0.04278206	-0.02261337	-0.07086039	0.2834413	0.08636294	1.836304
28.7035	0.03667033	0.001833517	-0.3847164	1.538866	-9.471648	37.8866
28.72084	0.03055861	0.02628041	-0.3523923	1.409569	0.9727446	-3.890978
28.73664	0.02322454	0.05439433	-0.4644479	1.780383	-3.381846	11.19119
28.79058	0.01589048	0.09717639	-0.1359579	0.7930882	4.710575	-14.1579
28.80715	0.01222344	0.1680724	-0.2213426	4.27929	-1.210944	49.44205
28.82371	0.01222344	0.1729617	0	0.2951229	6.680134	-120.2424
28.84057	0.01222344	0.1778511	0	0.2899825	0	-0.1537742
28.85685	0.01222344	0.1912969	0	0.8262387	0	16.18424
28.87341	0.01344579	0.1974086	0.07378083	0.3689036	2.246626	-13.92585
28.88998	0.01466813	0.205965	0.07378939	0.5165254	0.000258153	4.455492
28.9069	0.01589048	0.2145215	0.07223409	0.5056384	-0.04644448	-0.3251107
28.94353	0.01589048	0.2218555	0	0.2002589	-1.349035	-5.703229
28.96009	0.01344579	0.2426354	-0.1475617	1.254274	-2.774226	19.81595
28.97666	0.01344579	0.2450801	-5.621474E-08	0.1475614	4.45342	-33.40065
28.994	0.0110011	0.2511918	-0.1410188	0.3525476	-4.159463	6.046231
29.0101	0.007334067	0.2560812	-0.2276592	0.303545	-2.590653	-1.465236
29.02637	0.001222344	0.2609705	-0.3757832	0.300626	-4.575749	-0.09017333
29.04293	-0.007334067	0.2658599	-0.516466	0.2951247	-4.285036	-0.1675614
29.0595	-0.02322455	0.2719716	-0.9592617	0.3689461	-13.36437	2.228062
29.11451	-0.04033737	0.273194	-0.3110974	0.0222212	9.055956	-4.844336
29.13142	-0.1442366	0.2621929	-6.142663	-0.6504003	-81.08147	-9.352058
29.1478	-0.1601271	0.2597482	-0.9700972	-0.1492435	155.3572	15.05216
29.16421	-0.1955751	0.2536365	-2.16054	-0.372506	-36.30801	-6.809416
29.18078	-0.2285784	0.2463024	-1.992082	-0.4426861	5.108757	-2.128331
29.19746	-0.2566923	0.2426354	-1.685511	-0.2198497	9.221011	6.702453
29.21391	-0.2774722	0.2365237	-1.262559	-0.3713414	12.76325	-4.5715
29.23048	-0.2896957	0.2353013	-0.737979	-0.07379772	15.88582	9.010487
29.26848	-0.294585	0.234079	-0.1286479	-0.03216197	11.1662	0.7629893
29.28505	-0.2994744	0.2316343	-0.2950907	-0.1475454	-3.049802	-2.114218
29.30209	-0.2994744	0.2316343	0	0	8.782002	4.391001
29.31819	-0.2994744	0.2316343	0	0	0	0
29.33503	-0.3019191	0.2316343	-0.1451221	8.845675E-07	-4.404643	2.684776E-05
29.35132	-0.3031414	0.2291896	-0.07505087	-0.1501027	2.114877	-4.530395
29.36789	-0.3043638	0.2291896	-0.07377043	-8.993323E-07	0.03897111	4.568475
29.38445	-0.3080308	0.2255226	-0.2213695	-0.2213668	-4.454547	-6.680835
29.44976	-0.3104755	0.2230779	-0.03743556	-0.03743579	2.246682	2.246646
29.46633	-0.3373671	0.131402	-1.622804	-5.53229	-19.36332	-67.11285
29.48289	-0.3398118	0.1142892	-0.1475802	-1.033051	44.51978	135.7795
29.49946	-0.3422565	0.08495294	-0.1475784	-1.770944	5.442214E-05	-22.27224
29.51603	-0.3422565	0.05806137	0	-1.622805	4.45367	4.470594
29.5326	-0.3422565	0.03483682	0	-1.401837	0	6.668082
29.54957	-0.3422565	0.02016868	0	-0.864373	0	16.02603
29.59411	-0.3410341	0.006722894	0.02744462	-0.3018914	0.4461947	9.144825
29.61067	-0.3410341	-0.04217089	0	-2.951234	-0.4491334	-43.3567
29.62724	-0.3410341	-0.04706026	0	-0.2950554	0	80.15441
29.64381	-0.3410341	-0.05439433	-1.799079E-06	-0.4427362	-5.429318E-05	-4.456758
29.66038	-0.3422565	-0.06417309	-0.07376374	-0.590111	-2.226012	-4.447525
29.67705	-0.3434788	-0.06784011	-0.07332487	-0.2199746	0.01320253	11.13484
29.74419	-0.3434788	-0.06906246	0	-0.01820738	0.8749454	2.407578
29.83662	-0.3434788	-0.07028481	3.224109E-07	-0.01322368	2.020489E-06	0.03123188
29.85319	-0.3434788	-0.07028481	0	0	-2.957815E-06	0.1213148
29.86976	-0.3434788	-0.07028481	0	0	0	0
29.88632	-0.3434788	-0.07028481	0	0	0	0
29.90289	-0.3434788	-0.07028481	0	0	0	0
29.91946	-0.3434788	-0.07028481	0	0	0	0
30.00514	-0.3434788	-0.07028481	0	0	0	0
30.02171	-0.3434788	-0.07028481	0	0	0	0
30.03863	-0.3434788	-0.07028481	0	0	0	0
30.05485	-0.3434788	-0.07028481	0	0	0	0
30.07141	-0.3422565	-0.07028481	0.07378072	0	2.250282	0
30.0881	-0.3349224	-0.07028481	0.4394464	0	10.99531	0
30.10776	-0.3202543	-0.07028481	0.7461991	0	8.439692	0
30.12433	-0.2676935	-0.07395185	3.172577	-0.2213431	66.98192	-6.110337
30.14108	-0.2493583	-0.07517419	1.094242	-0.07294928	-62.36884	4.453156
30.15746	-0.2090209	-0.07639653	2.462839	-0.07463135	41.30434	-0.05076506
30.17403	-0.1576824	-0.08006357	3.098796	-0.2213426	19.30323	-4.453133
30.1906	-0.1087887	-0.08128592	2.951235	-0.07378118	-4.453402	4.453413
30.20716	-0.06111722	-0.08006356	2.877454	0.07378162	-2.226723	4.453454
30.22373	-0.01833517	-0.07517419	2.582628	0.2951569	-8.898379	6.681503
30.2403	0.02933627	-0.07150715	2.877453	0.2213431	8.898373	-2.227833
30.27322	0.04767143	-0.06784011	0.5569148	0.111383	-46.88906	-2.221865
30.28979	0.05745019	-0.06539543	0.590179	0.1475445	0.6721135	0.7306542
30.30636	0.05745019	-0.06539543	0	0	-17.81061	-4.452644
30.32312	0.05745019	-0.06539543	0	0	0	0
30.33949	0.05745019	-0.06539543	0	0	0	0
30.35606	0.05745019	-0.06539543	0	0	0	0
30.37263	0.05745019	-0.06539543	0	0	0	0
30.38919	0.05745019	-0.06539543	0	0	0	0
30.40576	0.05745019	-0.06539543	0	0	0	0
30.44101	0.05745019	-0.06539543	0	0	0	0
30.4576	0.05745019	-0.06539543	0	0	0	0
30.47414	0.05745019	-0.06539543	0	0	0	0
30.49071	0.05745019	-0.06539543	0	0	0	0
30.50728	0.05745019	-0.06539543	0	0	0	0
30.52385	0.05745019	-0.06539543	0	0	0	0
30.54041	0.05745019	-0.06539543	0	0	0	0
30.55698	0.05745019	-0.06539543	0	0	0	0
30.59296	0.05745019	-0.06539543	0	0	0	0
30.61018	0.05745019	-0.06539543	0	0	0	0
30.62717	0.05745019	-0.06539543	0	0	0	0
30.64387	0.05745019	-0.06539543	0	0	0	0
30.65989	0.05745019	-0.06539543	0	0	0	0
30.67657	0.05745019	-0.06539543	0	0	0	0
30.69303	0.05745019	-0.06539543	0	0	0	0
30.70983	0.05745019	-0.06539543	0	0	0	0
30.75048	0.05745019	-0.06539543	0	0	0	0
30.76705	0.05745019	-0.06539543	0	0	0	0
30.78403	0.05745019	-0.06539543	0	0	0	0
30.80018	0.05745019	-0.06539543	0	0	0	0
30.81675	0.05745019	-0.06539543	0	0	0	0
30.8335	0.05745019	-0.06539543	0	0	0	0
30.84989	0.05745019	-0.06539543	0	0	0	0
30.86645	0.05745019	-0.06539543	0	0	0	0
30.91127	0.05745019	-0.06539543	0	0	0	0
30.92784	0.05745019	-0.06539543	0	0	0	0
30.94441	0.05745019	-0.06539543	0	0	0	0
30.96098	0.05745019	-0.06539543	0	0	0	0
30.97754	0.05745019	-0.06539543	0	0	0	0
30.99411	0.05745019	-0.06539543	0	0	0	0
31.01068	0.05745019	-0.06539543	0	0	0	0
31.02771	0.05745019	-0.06539543	0	0	0	0
31.06868	0.05745019	-0.06539543	0	0	0	0
31.08525	0.05745019	-0.06539543	0	0	0	0
31.10182	0.05745019	-0.06539543	0	0	0	0
31.11839	0.05745019	-0.06539543	0	0	0	0
31.13496	0.05745019	-0.06539543	0	0	0	0
31.15153	0.05745019	-0.06539543	0	0	0	0
31.16819	0.05745019	-0.06539543	0	0	0	0
31.18466	0.05745019	-0.06539543	0	0	0	0
31.23431	0.05745019	-0.06539543	0	0	0	0
31.25087	0.05745019	-0.06539543	0	0	0	0
31.26744	0.05745019	-0.06539543	0	0	0	0
31.28416	0.05745019	-0.06539543	0	0	0	0
31.30062	0.05745019	-0.06539543	0	0	0	0
31.31715	0.05745019	-0.06539543	0	0	0	0
31.33372	0.05745019	-0.06539543	0	0	0	0
31.35056	0.05745019	-0.06539543	0	0	0	0
31.39399	0.05745019	-0.06539543	0	0	0	0
31.41056	0.05745019	-0.06539543	0	0	0	0
31.42719	0.05745019	-0.06539543	0	0	0	0
31.44369	0.05745019	-0.06539543	0	0	0	0
31.46026	0.05745019	-0.06539543	0	0	0	0
31.47683	0.05745019	-0.06539543	0	0	0	0
31.49339	0.05745019	-0.06539543	0	0	0	0
31.50996	0.05745019	-0.06539543	0	0	0	0
31.52993	0.05745019	-0.06539543	0	0	0	0
31.54649	0.05745019	-0.06539543	0	0	0	0
31.56306	0.05745019	-0.06539543	0	0	0	0
31.57963	0.05745019	-0.06539543	0	0	0	0
31.59635	0.05745019	-0.06539543	0	0	0	0
31.61277	0.05745019	-0.06539543	0	0	0	0
31.62933	0.05745019	-0.06539543	0	0	0	0
31.64594	0.05745019	-0.06539543	0	0	0	0
31.66247	0.05745019	-0.06539543	0	0	0	0
31.70105	0.05745019	-0.06539543	0	0	0	0
31.71796	0.05745019	-0.06539543	0	0	0	0
31.73418	0.05745019	-0.06539543	0	0	0	0
31.75075	0.05745019	-0.06539543	0	0	0	0
31.76732	0.05745019	-0.06539543	0	0	0	0
31.78389	0.05745019	-0.06539543	0	0	0	0
31.80045	0.05745019	-0.06539543	0	0	0	0
31.81791	0.05745019	-0.06539543	0	0	0	0
31.85101	0.05745019	-0.06539543	0	0	0	0
31.86767	0.05745019	-0.06539543	0	0	0	0
31.88414	0.05745019	-0.06539543	0	0	0	0
31.90071	0.05745019	-0.06539543	0	0	0	0
31.91728	0.05745019	-0.06539543	0	0	0	0
31.9341	0.05745019	-0.06539543	0	0	0	0
31.95041	0.05745019	-0.06539543	0	0	0	0
31.96698	0.05745019	-0.06539543	0	0	0	0
31.99738	0.05745019	-0.06539543	0	0	0	0
32.0144	0.05745019	-0.06539543	0	0	0	0
32.03051	0.05745019	-0.06539543	0	0	0	0
32.04708	0.05745019	-0.06539543	0	0	0	0
32.06364	0.05745019	-0.06539543	0	0	0	0
32.08021	0.05745019	-0.06539543	0	0	0	0
32.09712	0.05745019	-0.06539543	0	0	0	0
32.11335	0.05745019	-0.06539543	0	0	0	0
32.12991	0.05745019	-0.06539543	0	0	0	0
32.1558	0.05745019	-0.06539543	0	0	0	0
32.17236	0.05745019	-0.06539543	0	0	0	0
32.18923	0.05745019	-0.06539543	0	0	0	0
32.2055	0.05745019	-0.06539543	0	0	0	0
32.22216	0.05745019	-0.06539543	0	0	0	0
32.2388	0.05745019	-0.06539543	0	0	0	0
32.2552	0.05745019	-0.06539543	0	0	0	0
32.27177	0.05745019	-0.06539543	0	0	0	0
32.28833	0.05745019	-0.06539543	0	0	0	0
32.32761	0.05745019	-0.06539543	0	0	0	0
32.34418	0.05745019	-0.06539543	0	0	0	0
32.36108	0.05745019	-0.06539543	0	0	0	0
32.37732	0.05745019	-0.06539543	0	0	0	0
32.39474	0.05745019	-0.06539543	0	0	0	0
32.41045	0.05745019	-0.06539543	0	0	0	0
32.42768	0.05745019	-0.06539543	0	0	0	0
32.44423	0.05745019	-0.06539543	0	0	0	0
32.48096	0.05745019	-0.06539543	0	0	0	0
32.49753	0.05745019	-0.06539543	0	0	0	0
32.5141	0.05745019	-0.06539543	0	0	0	0
32.53066	0.05745019	-0.06539543	0	0	0	0
32.54723	0.05745019	-0.06539543	0	0	0	0
32.5638	0.05745019	-0.06539543	0	0	0	0
32.58078	0.05745019	-0.06539543	0	0	0	0
32.59693	0.05745019	-0.06539543	0	0	0	0
32.6135	0.05745019	-0.06539543	0	0	0	0
32.65717	0.05745019	-0.06539543	0	0	0	0
32.67768	0.05745019	-0.06539543	0	0	0	0
32.69442	0.05745019	-0.06539543	0	0	0	0
32.71082	0.05745019	-0.06539543	0	0	0	0
32.72739	0.05745019	-0.06539543	0	0	0	0
32.74396	0.05745019	-0.06539543	0	0	0	0
32.76052	0.05745019	-0.06539543	0	0	0	0
32.79821	0.05745019	-0.06539543	0	0	0	0
32.81493	0.05745019	-0.06539543	0	0	0	0
32.83137	0.05745019	-0.06539543	0	0	0	0
32.84803	0.05745019	-0.06539543	0	0	0	0
32.86494	0.05745019	-0.06539543	0	0	0	0
32.88105	0.05745019	-0.06539543	0	0	0	0
32.89761	0.05745019	-0.06539543	0	0	0	0
32.91418	0.05745019	-0.06539543	0	0	0	0
33.00244	0.05745019	-0.06539543	0	0	0	0
33.01946	0.05745019	-0.06539543	0	0	0	0
33.03558	0.05745019	-0.06539543	0	0	0	0
33.05256	0.05745019	-0.06539543	0	0	0	0
33.06871	0.05745019	-0.06539543	0	0	0	0
33.15002	0.05745019	-0.06539543	0	0	0	0
33.1667	0.05745019	-0.06539543	0	0	0	0
33.18316	0.05745019	-0.06539543	0	0	0	0
33.19972	0.05745019	-0.06539543	0	0	0	0
33.21629	0.05745019	-0.06539543	0	0	0	0
33.23321	0.05745019	-0.06539543	0	0	0	0
33.25828	0.05745019	-0.06539543	0	0	0	0
33.27485	0.05867254	-0.06050605	0.0737814	0.2951233	1.771997	7.087935
33.29175	0.05867254	-0.06050605	0	0	-2.204645	-8.818513
33.30798	0.05867254	-0.06050605	0	0	0	0
33.32455	0.05867254	-0.06050605	0	0	0	0
33.34112	0.05867254	-0.06050605	0	0	0	0
33.35769	0.05867254	-0.06050605	0	0	0	0
33.37425	0.05867254	-0.06050605	0	0	0	0
33.39082	0.05867254	-0.06050605	0	0	0	0
33.41071	0.05867254	-0.06050605	0	0	0	0
33.42796	0.05867254	-0.06050605	0	0	0	0
33.44385	0.05867254	-0.06050605	0	0	0	0
33.46041	0.05867254	-0.06050605	0	0	0	0
33.47709	0.05867254	-0.06050605	0	0	0	0
33.49355	0.05867254	-0.06050605	0	0	0	0
33.51011	0.05867254	-0.06050605	0	0	0	0
33.52706	0.05867254	-0.06050605	0	0	0	0
33.54324	0.05867254	-0.06050605	0	0	0	0
33.5667	0.05867254	-0.06050605	0	0	0	0
33.58327	0.05867254	-0.06050605	0	0	0	0
33.60001	0.05867254	-0.06050605	0	0	0	0
33.61641	0.05867254	-0.06050605	0	0	0	0
33.63304	0.05867254	-0.06050605	0	0	0	0
33.64955	0.05867254	-0.06050605	0	0	0	0
33.66618	0.05867254	-0.0592837	-2.240336E-07	0.07351036	-6.761348E-06	2.218547
33.68267	0.05867254	-0.05806137	2.25847E-07	0.07410447	1.358212E-05	0.01793667
33.69924	0.05867253	-0.05683902	-4.497179E-07	0.0737814	-2.043329E-05	-0.009771709
33.74421	0.05867253	-0.05683902	0	0	7.308342E-06	-1.199018
33.76078	0.05867253	-0.05683902	0	0	0	0
33.81646	0.05867253	-0.05683902	0	0	0	0
33.83303	0.05867253	-0.05683902	0	0	0	0
33.8496	0.05867253	-0.05683902	0	0	0	0
33.89614	0.05867253	-0.05683902	0	0	0	0
33.91271	0.05867253	-0.05683902	0	0	0	0
33.92953	0.05867253	-0.05683902	0	0	0	0
33.94584	0.05867253	-0.05683902	0	0	0	0
33.96245	0.05867253	-0.05683902	0	0	0	0
33.97898	0.05867253	-0.05683902	0	0	0	0
33.9956	0.05867253	-0.05683902	0	0	0	0
34.01251	0.05867253	-0.05683902	0	0	0	0
34.04222	0.05867253	-0.05683902	0	0	0	0
34.05879	0.05867253	-0.05317198	0	0.2213426	0	4.782694
34.07536	0.05867253	-0.05317198	0	0	0	-6.680134
34.09192	0.05867253	-0.05317198	0	0	0	0
34.10849	0.05867253	-0.05317198	0	0	0	0
34.12506	0.05867253	-0.05317198	0	0	0	0
34.14212	0.05867253	-0.05317198	0	0	0	0
34.1582	0.05867253	-0.05317198	0	0	0	0
34.17476	0.05867253	-0.05317198	0	0	0	0
34.21534	0.05867253	-0.05317198	0	0	0	0
34.23192	0.05867253	-0.05317198	0	0	0	0
34.24848	0.05867253	-0.05317198	0	0	0	0
34.26505	0.05867253	-0.05317198	0	0	0	0
34.28162	0.05867253	-0.05317198	0	0	0	0
34.29818	0.05867253	-0.05317198	0	0	0	0
34.33662	0.05867253	-0.05317198	0	0	0	0
34.39429	0.05867253	-0.05317198	0	0	0	0
34.41087	0.05867253	-0.05317198	0	0	0	0
34.42773	0.05867253	-0.05317198	0	0	0	0
34.444	0.05867253	-0.05317198	0	0	0	0
34.46057	0.05867253	-0.05317198	0	0	0	0
34.47713	0.05867253	-0.05317198	0	0	0	0
34.49371	0.05867253	-0.05317198	0	0	0	0
34.51027	0.05867253	-0.05317198	0	0	0	0
34.53638	0.05867253	-0.05317198	0	0	0	0
34.55331	0.05867253	-0.05317198	0	0	0	0
34.56972	0.05867253	-0.05317198	0	0	0	0
34.58627	0.05867253	-0.05317198	0	0	0	0
34.60266	0.05867253	-0.05317198	0	0	0	0
34.61943	0.05867253	-0.05317198	0	0	0	0
34.63579	0.05867253	-0.05317198	0	0	0	0
34.65236	0.05867253	-0.05317198	0	0	0	0
34.66892	0.05867253	-0.05317198	0	0	0	0
34.69984	0.05867253	-0.05317198	0	0	0	0
34.7164	0.05867253	-0.05317198	0	0	0	0
34.73297	0.05867253	-0.05317198	0	0	0	0
34.74973	0.05867253	-0.05317198	0	0	0	0
34.76625	0.05867253	-0.05317198	0	0	0	0
34.78267	0.05867253	-0.05317198	0	0	0	0
34.79924	0.05867253	-0.05317198	0	0	0	0
34.81581	0.05867253	-0.05317198	0	0	0	0
34.83237	0.05867253	-0.05317198	0	0	0	0
34.85194	0.05867253	-0.05317198	0	0	0	0
34.86851	0.05867253	-0.05317198	0	0	0	0
34.88508	0.05867253	-0.05317198	0	0	0	0
34.9021	0.05867253	-0.05317198	0	0	0	0
34.91821	0.05867253	-0.05317198	0	0	0	0
34.93478	0.05867253	-0.05317198	0	0	0	0
34.95134	0.05867253	-0.05317198	0	0	0	0
34.96791	0.05867253	-0.05317198	0	0	0	0
34.98452	0.05867253	-0.05317198	0	0	0	0
35.00455	0.05867253	-0.05317198	0	0	0	0
35.02111	0.05867253	-0.05317198	0	0	0	0
35.03782	0.05867253	-0.05317198	0	0	0	0
35.05425	0.05867253	-0.05317198	0	0	0	0
35.07082	0.05867253	-0.05317198	0	0	0	0
35.08745	0.05867253	-0.05317198	0	0	0	0
35.10395	0.05867253	-0.04950495	0	0.2222122	0	6.706378
35.12052	0.05989488	-0.04706026	0.07378118	0.1475617	2.231087	-2.257376
35.13709	0.05989488	-0.04583792	-2.248072E-07	0.07376397	-2.226471	-2.226963
35.17757	0.05989488	-0.04461557	0	0.03019788	3.940613E-06	-0.7636635
35.19435	0.06111722	-0.04461557	0.0728417	0	1.272153	-0.5273946
35.211	0.06111722	-0.04461557	0	0	-2.178802	0
35.22727	0.06111722	-0.04461557	0	0	0	0
35.24444	0.06111723	-0.04339323	2.169657E-07	0.07119077	6.488278E-06	2.128934
35.26044	0.06233957	-0.04339323	0.07638372	2.32792E-07	2.302608	-2.146064
35.27697	0.06233957	-0.04339323	0	0	-2.3477	-7.155004E-06
35.29354	0.06233957	-0.04339323	0	0	0	0
35.32974	0.06233957	-0.04217089	0	0.03376143	0	0.6398001
35.34647	0.06478426	-0.01894634	0.1461816	1.388726	2.761848	25.5997
35.36288	0.06478426	-0.01161227	0	0.4469042	-4.411771	-28.42424
35.37944	0.06600661	0.006722895	0.07378118	1.106713	2.237281	20.00751
35.39601	0.06600661	0.02383572	0	1.032932	-2.22672	-2.226712
35.41258	0.06478426	0.03728151	-0.07378118	0.8115893	-2.22672	-6.680137
35.42994	0.06478426	0.04706026	0	0.5631464	2.174401	-7.321845
35.44609	0.06478426	0.06417309	0	1.059774	0	14.81935
35.48756	0.0660066	0.07517418	0.02947835	0.2653055	0.5116582	-13.78966
35.50412	0.06845129	0.09839873	0.1475619	1.401837	2.034766	19.58422
35.52069	0.06845129	0.1008434	0	0.1475619	-4.453427	-37.85408
35.53726	0.06967364	0.1045104	0.07376374	0.2212912	2.225938	2.224899
35.55383	0.07089598	0.1155116	0.07379772	0.6641808	0.001025357	13.36644
35.58175	0.07456301	0.124068	0.131306	0.3063808	1.292587	-8.04211
35.59832	0.0770077	0.1338467	0.1475279	0.5901113	0.3645511	6.376189
35.61489	0.0770077	0.1338467	0	0	-4.452402	-17.80959
35.63801	0.08067475	0.1375138	0.1585769	0.1585762	3.995576	3.99556
35.65486	0.08556413	0.1472925	0.2901795	0.580358	3.292187	10.55135
35.67138	0.0880088	0.1497372	0.1480378	0.1480387	-4.260416	-12.95791
35.68789	0.09045349	0.1534042	0.1480049	0.2220076	-0.0009942689	2.239348
35.70428	0.09534287	0.1644053	0.2984216	0.6714485	4.57169	13.66008
35.72107	0.1014546	0.1790735	0.3640428	0.8737023	1.978174	6.097015
35.73741	0.1075663	0.1998533	0.3739851	1.271548	0.3000953	12.00839
35.75409	0.1197898	0.2353013	0.7325791	2.124481	10.85739	25.82482
35.7708	0.1259015	0.2573035	0.3658713	1.317137	-10.98255	-24.17919
35.81194	0.1295685	0.276861	0.08912414	0.4753276	-4.783884	-14.55162
35.82856	0.1369026	0.3061973	0.4414654	1.765864	6.100268	22.34372
35.8452	0.1393473	0.3098643	0.1468514	0.2202771	-8.857818	-46.46935
35.86188	0.141792	0.3159761	0.1466162	0.3665405	-0.007058082	4.389477
35.87821	0.1442367	0.3196431	0.1496645	0.2244972	0.0923483	-4.303225
35.89478	0.1503484	0.3233101	0.3689036	0.2213404	6.663447	-0.0959461
35.91143	0.1564601	0.3257548	0.3671293	0.1468514	-0.05341966	-2.24266
35.92805	0.1674612	0.3257548	0.6615909	1.792269E-06	8.849174	-4.413131
35.9635	0.1821293	0.3257548	0.413859	-8.408675E-07	-4.757615	-5.056856E-05
35.98006	0.2298008	0.3171984	2.877454	-0.5164651	47.36809	-9.930175
35.99663	0.2420242	0.3147537	0.7378073	-0.1475614	-64.57465	11.13353
36.0132	0.2774722	0.3061973	2.139646	-0.5164669	42.30756	-11.13359
36.02982	0.3214766	0.2939738	2.646969	-0.7352695	15.28467	-6.592094
36.04634	0.365481	0.2793057	2.664701	-0.888232	0.5350956	-4.615884
36.0629	0.4021513	0.2634152	2.213935	-0.9593721	-13.62769	-2.150727
36.07947	0.4302653	0.2487471	1.69696	-0.8853705	-15.60413	2.23363
36.13041	0.4372802	0.2424584	0.1377154	-0.1234589	-23.09825	11.28676
36.14698	0.4449334	0.2096321	0.4618439	-1.980944	4.801285	-27.51476
36.16354	0.4449334	0.202298	-1.798872E-06	-0.4426852	-13.93693	46.41941
36.18011	0.4449334	0.1925192	0	-0.5902476	5.429006E-05	-4.45344
36.19668	0.4461557	0.1839629	0.07376374	-0.5163462	2.225938	2.230092
36.22723	0.4473781	0.1778511	0.04000968	-0.200044	-0.7162977	6.712274
36.26701	0.4473781	0.170517	-7.492567E-07	-0.1843853	-0.5689137	0.2226524
36.28358	0.4473781	0.170517	0	0	1.329721E-05	3.272325
36.30015	0.4473781	0.170517	0	0	0	0
36.31672	0.4473781	0.170517	0	0	0	0
36.33354	0.4473781	0.170517	0	0	0	0
36.34987	0.4473781	0.170517	0	0	0	0
36.36699	0.4473781	0.170517	0	0	0	0
36.38303	0.4473781	0.170517	0	0	0	0
36.39962	0.4473781	0.170517	0	0	0	0
36.42765	0.4473781	0.170517	0	0	0	0
36.44422	0.4473781	0.170517	0	0	0	0
36.46078	0.4473781	0.170517	0	0	0	0
36.47736	0.4473781	0.170517	0	0	0	0
36.49392	0.4473781	0.170517	0	0	0	0
36.51049	0.4473781	0.170517	0	0	0	0
36.52706	0.4473781	0.170517	0	0	0	0
36.54362	0.4473781	0.170517	0	0	0	0
36.56019	0.4473781	0.170517	0	0	0	0
36.6003	0.443711	0.1644053	-0.09142074	-0.1523675	-1.613071	-2.688446
36.61766	0.3862608	0.1032881	-3.308486	-3.519665	-55.97227	-58.58611
36.63343	0.3862608	0.1032881	0	0	99.85029	106.2237
36.65013	0.3520352	0.07028481	-2.049817	-1.976609	-63.1356	-60.88076
36.66657	0.3153649	0.03483682	-2.23089	-2.156528	-5.464814	-5.429955
36.68314	0.2750275	-0.001833517	-2.434767	-2.213426	-6.177206	-1.723944
36.6997	0.2383572	-0.03239213	-2.213425	-1.844522	6.680118	11.13356
36.71627	0.1980198	-0.07150716	-2.434768	-2.360988	-6.680146	-15.58698
36.75575	0.1760176	-0.09839873	-0.557324	-0.6811735	33.49856	29.97231
36.77232	0.1344579	-0.1729617	-2.508549	-4.500632	-34.815	-68.14921
36.78908	0.1307909	-0.1851852	-0.2187233	-0.7290795	68.69582	113.1483
36.80545	0.1210121	-0.205965	-0.5974009	-1.269474	-11.42851	-16.30913
36.82202	0.113678	-0.2218555	-0.4426848	-0.9591512	4.697464	9.421964
36.83858	0.1075663	-0.234079	-0.3689045	-0.7378082	2.226693	6.680146
36.85515	0.1038993	-0.2438577	-0.2213426	-0.5902467	4.453427	4.453414
36.87173	0.1002322	-0.2511918	-0.2212407	-0.4424824	0.003074014	4.458508
36.89412	0.09656522	-0.2597482	-0.1637909	-0.3821802	1.474459	1.547665
36.91068	0.09412052	-0.2658599	-0.1475619	-0.3689036	0.4166028	0.3408123
36.92725	0.09289819	-0.2683046	-0.07378028	-0.1475614	2.226734	6.68012
36.94382	0.09167583	-0.269527	-0.07376464	-0.07376374	0.0004719246	2.226963
36.96038	0.0904535	-0.2756387	-0.07379727	-0.3689904	-0.0009848822	-8.909958
36.97717	0.0880088	-0.2817504	-0.1456507	-0.3641247	-2.154651	0.1459075
36.99353	0.08678646	-0.2939738	-0.07472707	-0.7472707	2.139988	-11.56071
37.01011	0.08556411	-0.3037526	-0.07369588	-0.5895689	0.03130157	4.787007
37.02666	0.08556411	-0.3074196	0	-0.2216484	2.224402	11.10514
37.04322	0.08434176	-0.3098643	-0.07378118	-0.1475614	-2.22826	2.237494
37.09354	0.08434176	-0.3098643	0	0	1.103137	2.206259
37.11011	0.08434176	-0.3098643	0	0	0	0
37.12668	0.08434176	-0.3098643	0	0	0	0
37.14325	0.08434176	-0.3098643	0	0	0	0
37.16018	0.08434176	-0.3098643	0	0	0	0
37.17638	0.08434176	-0.3098643	0	0	0	0
37.19295	0.08434176	-0.3098643	0	0	0	0
37.20951	0.08434176	-0.3098643	0	0	0	0
37.27083	0.08434176	-0.3098643	0	0	0	0
37.2874	0.08311943	-0.3049749	-0.07378028	0.2951229	-0.9473016	3.789229
37.30397	0.08311943	-0.3049749	0	0	2.226693	-8.906827
37.32053	0.08311942	-0.3037526	-4.497179E-07	0.07377893	-1.357251E-05	2.226652
37.3371	0.08311943	-0.3025303	4.497179E-07	0.07378253	2.714503E-05	0.0001086069
37.35373	0.08311943	-0.3000856	0	0.1469861	-1.3546E-05	2.204973
37.37037	0.08311942	-0.2964185	-4.478617E-07	0.2204286	-1.346225E-05	2.207603
37.46112	0.08311943	-0.2939738	8.209857E-08	0.02693851	4.935026E-06	-1.801793
37.47769	0.08434177	-0.280528	0.07378072	0.8115898	0.6874899	7.3114
37.49426	0.08434177	-0.2780834	0	0.1475597	-2.226707	-20.04047
37.51082	0.08678646	-0.2719717	0.1475619	0.3689036	4.453427	6.680174
37.52755	0.09167584	-0.2621929	0.29223	0.5844609	4.344584	6.473483
37.55106	0.1161227	-0.2475248	1.039851	0.6239117	18.57849	0.9803595
37.56787	0.2065762	-0.2108544	5.380495	2.181282	107.6512	38.62396
37.5842	0.2285784	-0.2010757	1.347604	0.598934	-121.6989	-47.74986
37.60077	0.2542477	-0.1864075	1.549399	0.8853705	6.134665	8.707829
37.61734	0.2628041	-0.1766288	0.5164669	0.5902467	-31.17395	-8.906855
37.6339	0.2676934	-0.1729617	0.2951211	0.2213431	-6.680228	-11.13353
37.65047	0.2701381	-0.1680724	0.1475632	0.295122	-4.453305	2.226652
37.66704	0.2725828	-0.1644053	0.1475614	0.2213431	-5.441587E-05	-2.226652
37.68361	0.2738052	-0.159516	0.07378072	0.2951229	-2.226707	2.226679
37.72523	0.2750275	-0.1509596	0.0293622	0.2055361	-0.7632439	-1.539371
37.7421	0.2628041	-0.1155116	-0.7246279	2.10142	-12.88908	32.40917
37.75848	0.2579147	-0.1069551	-0.2985601	0.5224812	12.81596	-47.4939
37.77496	0.2493583	-0.09595404	-0.5193368	0.6677178	-6.720307	4.420912
37.79151	0.2114656	-0.04461557	-2.289315	3.101653	-53.59079	73.69386
37.8084	0.1686835	0.001833517	-2.53276	2.749853	-7.279329	-10.51923
37.82464	0.1051216	0.06050605	-3.914111	3.613026	-41.69405	26.05361
37.84125	0.01589048	0.1204009	-5.371162	3.605301	-44.35173	-0.235166
37.87899	-0.09412052	0.1778511	-2.914769	1.522157	45.19115	-38.32435
37.90576	-0.4107077	0.2829728	-11.82888	3.927737	-138.1893	37.29204
37.92233	-0.4239382	0.2650969	-0.7985929	-1.07899	254.558	-115.5457
37.93889	-0.4256646	0.2623158	-0.1042068	-0.1678635	20.95661	27.49786
37.95546	-0.4267446	0.2605554	-0.06518751	-0.106263	1.177606	1.859109
37.97203	-0.4275919	0.2591624	-0.05114372	-0.08407747	0.4238424	0.6695592
37.98892	-0.4275919	0.2591624	0	0	1.528562	2.512872
38.01941	-0.4275919	0.2591624	0	0	0	0
38.06086	-0.4275919	0.2591624	0	0	0	0
38.07742	-0.4275919	0.2591624	0	0	0	0
38.09399	-0.4275919	0.2591624	0	0	0	0
38.11066	-0.4275919	0.2591624	0	0	0	0
38.12746	-0.4275919	0.2591624	0	0	0	0
38.14369	-0.4275919	0.2591624	0	0	0	0
38.16043	-0.4275919	0.2591624	0	0	0	0
38.17683	-0.4275919	0.2591624	0	0	0	0
38.19339	-0.4275919	0.2591624	0	0	0	0
38.23734	-0.4275919	0.2591624	0	0	0	0
38.2541	-0.4275919	0.2591624	0	0	0	0
38.27048	-0.4275919	0.2591624	0	0	0	0
38.28705	-0.4275919	0.2591624	0	0	0	0
38.30407	-0.4275919	0.2591624	0	0	0	0
38.32019	-0.4275919	0.2591624	0	0	0	0
38.33675	-0.4275919	0.2591624	0	0	0	0
38.35332	-0.4275919	0.2591624	0	0	0	0
38.37373	-0.4275919	0.2591624	0	0	0	0
38.39052	-0.4275919	0.2591624	0	0	0	0
38.40735	-0.4275919	0.2591624	0	0	0	0
38.42343	-0.4275919	0.2591624	0	0	0	0
38.44	-0.4275919	0.2591624	0	0	0	0
38.45725	-0.4275919	0.2591624	0	0	0	0
38.47319	-0.4275919	0.2591624	0	0	0	0
38.4897	-0.4275919	0.2591624	0	0	0	0
38.50626	-0.4275919	0.2591624	0	0	0	0
38.54277	-0.4275919	0.2591624	0	0	0	0
38.55933	-0.4275919	0.2591624	0	0	0	0
38.57623	-0.4275919	0.2591624	0	0	0	0
38.59247	-0.4275919	0.2591624	0	0	0	0
38.60904	-0.4275919	0.2591624	0	0	0	0
38.62631	-0.427311	0.2596254	0.0162723	0.02681383	0.4808574	0.7923665
38.66193	-0.4241188	0.2648079	0.089612	0.1454875	1.386726	2.243912
38.69786	-0.409341	0.2871235	0.4113308	0.621141	4.496517	6.647991
38.71496	-0.4067462	0.2907878	0.1516991	0.2142252	-4.895764	-7.673035
38.73099	-0.4067462	0.2907878	0	0	-4.578288	-6.46533
38.74756	-0.4069071	0.2905627	-0.00971031	-0.01359227	-0.2978934	-0.4169846
38.76413	-0.4060964	0.2916946	0.04892344	0.06830722	1.769367	2.471447
38.78091	-0.4052762	0.2928331	0.04887652	0.06784567	-0.001406929	-0.01383875
38.79745	-0.4052762	0.2928331	0	0	-1.466654	-2.035867
38.81383	-0.4044463	0.2939782	0.05068478	0.06993753	1.539774	2.124661
38.83039	-0.4044463	0.2939782	0	0	-1.538704	-2.123185
38.86624	-0.4044463	0.2939782	0	0	0	0
38.8828	-0.4040277	0.2945532	0.02526695	0.03470743	0.4821006	0.6622276
38.89937	-0.4041843	0.2943384	-0.009447674	-0.01296267	-1.04769	-1.438686
38.91594	-0.4043417	0.294122	-0.009503439	-0.01305981	-0.001682985	-0.002931655
38.93251	-0.4033737	0.2951962	0.0584175	0.06482181	2.049622	2.350201
38.94926	-0.3997067	0.2927515	0.2189707	-0.1459816	4.818875	-6.327096
38.96564	-0.3960396	0.2903068	0.2238177	-0.1492124	0.1462993	-0.09751547
38.98221	-0.3935949	0.2878621	0.1475614	-0.1475614	-2.314206	0.05010247
38.99878	-0.3887056	0.2841951	0.2951229	-0.2213422	4.453413	-2.226707
39.01809	-0.3825938	0.2793057	0.31638	-0.253104	0.5923706	-0.8851047
39.03477	-0.3483682	0.2634152	2.052161	-0.9527891	48.22218	-19.43814
39.05125	-0.3361447	0.2597482	0.7415674	-0.2224709	-39.52193	22.0233
39.06779	-0.3141425	0.2536365	1.330199	-0.3694992	17.82445	-4.452186
39.08436	-0.290918	0.2463024	1.401836	-0.4426852	2.163743	-2.210541
39.10123	-0.2579147	0.237746	1.956937	-0.5073531	16.60388	-1.934309
39.11786	-0.2224667	0.2304119	2.131304	-0.4409601	5.205476	1.982066
39.13406	-0.188241	0.2279672	2.112063	-0.1508614	-0.585952	8.834528
39.15063	-0.1637942	0.2279672	1.475617	0	-19.42037	4.603355
39.18455	-0.149126	0.2328566	0.4324782	0.1441591	-20.66289	2.855558
39.20111	-0.145459	0.2365237	0.2213422	0.2213431	-4.182262	1.528888
39.2179	-0.145459	0.2365237	0	0	-6.63581	-6.635837
39.23425	-0.145459	0.237746	0	0.07477939	0	2.256846
39.25082	-0.1442367	0.2389684	0.07378072	0.07378162	2.241675	-0.03031509
39.26738	-0.1442367	0.2401907	0	0.07377983	-2.226707	-5.419101E-05
39.2919	-0.1442367	0.2401907	0	0	0	-1.795983
39.32047	-0.1442367	0.2401907	0	0	0	0
39.33704	-0.1442367	0.2401907	0	0	0	0
39.35361	-0.1442367	0.2401907	0	0	0	0
39.37018	-0.1442367	0.2401907	0	0	0	0
39.38675	-0.1442367	0.2401907	0	0	0	0
39.40343	-0.1442367	0.2401907	0	0	0	0
39.42002	-0.1442367	0.2401907	0	0	0	0
39.43652	-0.1442367	0.2401907	0	0	0	0
39.45302	-0.1442367	0.2401907	0	0	0	0
39.49765	-0.1442367	0.2401907	0	0	0	0
39.51424	-0.1161227	0.234079	1.694619	-0.3683947	27.67986	-6.01735
39.53078	-0.1026769	0.2279672	0.8127126	-0.3694149	-26.61598	-0.03079039
39.54735	-0.08311942	0.2206332	1.180494	-0.4426852	11.10733	-2.212832
39.56392	-0.0440044	0.2047427	2.360987	-0.9591512	35.62736	-15.58697
39.58049	-0.003667034	0.1912969	2.434768	-0.8115889	2.226723	4.45344
39.59705	0.01344579	0.1851852	1.03317	-0.3689904	-42.30519	13.35919
39.61388	0.01833517	0.1827405	0.2904421	-0.1452208	-22.23891	6.700155
39.64089	0.01955751	0.1827405	0.04526489	0	-5.592738	3.312632
39.65746	0.01955751	0.1827405	0	0	-1.038683	0
39.67402	0.01955751	0.1827405	0	0	0	0
39.69093	0.01955751	0.1827405	0	0	0	0
39.70715	0.01955751	0.1827405	0	0	0	0
39.72372	0.01955751	0.1827405	0	0	0	0
39.74029	0.01955751	0.1827405	0	0	0	0
39.75686	0.01955751	0.1827405	0	0	0	0
39.7735	0.01955751	0.1827405	0	0	0	0
39.80046	0.01955751	0.1827405	0	0	0	0
39.81703	0.01955751	0.1534042	0	-1.77074	0	-40.67551
39.8336	0.01955751	0.1534042	0	0	0	53.44104
39.85026	0.01711282	0.1252903	-0.1467171	-1.687248	-4.415224	-50.7751
39.86673	0.01589048	0.09595404	-0.07420812	-1.780993	2.188326	-2.829226
39.8833	0.01589048	0.06906246	0	-1.623179	2.24607	4.776585
39.89986	0.01589048	0.04217089	1.124554E-07	-1.623553	3.394301E-06	-0.01129102
39.91674	0.01466813	0.01894634	-0.0724464	-1.376481	-2.166733	7.389432
39.933	0.01466813	0.01894634	0	0	2.186185	41.53749
39.95494	0.01344579	0.01405696	-0.05571738	-0.2228693	-1.45841	-5.833635
39.97177	0.01344579	0.01283462	0	-0.07262696	1.437172	3.875345
39.98909	0.01344579	0.01283462	0	0	0	2.126756
40.00566	0.01344579	0.01283462	0	0	0	0
40.02258	0.01344579	0.01283462	0	0	0	0
40.0388	0.01344579	0.01283462	0	0	0	0
40.05536	0.01344579	0.01283462	0	0	0	0
40.07193	0.01344579	0.01283462	0	0	0	0
40.0885	0.01344579	0.01283462	0	0	0	0
40.14425	0.01344579	0.01283462	0	0	0	0
40.1611	0.01344579	0.01161227	1.105209E-07	-0.07252828	1.522298E-06	-0.998994
40.17738	0.01344579	0.01161227	0	0	-3.335527E-06	2.188908
40.19396	0.01344579	0.01161227	0	0	0	0
40.21072	0.01344579	0.01161227	0	0	0	0
40.22709	0.01344579	0.01161227	0	0	0	0
40.2438	0.01344579	0.01161227	0	0	0	0
40.32854	0.01344579	0.01161227	0	0	0	0
40.34511	0.01344579	0.01161227	0	0	0	0
40.36168	0.01344579	0.01161227	0	0	0	0
40.37825	0.01344579	0.01161227	0	0	0	0
40.39483	0.01344579	0.01161227	0	0	0	0
40.41182	0.01344579	0.01161227	0	0	0	0
40.45452	0.01344579	0.01161227	0	0	0	0
40.47109	0.01344579	0.01161227	0	0	0	0
40.48766	0.01344579	0.01161227	0	0	0	0
40.50422	0.01344579	0.01161227	0	0	0	0
40.52093	0.01344579	0.01161227	0	0	0	0
40.53736	0.01344579	0.01161227	0	0	0	0
40.55392	0.01344579	0.01161227	0	0	0	0
40.57049	0.01344579	0.01161227	0	0	0	0
40.59054	0.01344579	0.01161227	0	0	0	0
40.60712	0.01344579	0.01161227	0	0	0	0
40.62368	0.01344579	0.01161227	0	0	0	0
40.64025	0.01344579	0.01161227	0	0	0	0
40.65682	0.01344579	0.01161227	0	0	0	0
40.67339	0.01344579	0.01161227	0	0	0	0
40.68995	0.01344579	0.01161227	0	0	0	0
40.70652	0.01344579	0.01161227	0	0	0	0
40.7235	0.01344579	0.01161227	0	0	0	0
40.75961	0.01344579	0.01161227	0	0	0	0
40.77618	0.01344579	0.01161227	0	0	0	0
40.793	0.01344579	0.01161227	0	0	0	0
40.80931	0.01344579	0.01161227	0	0	0	0
40.826	0.01344579	0.01161227	0	0	0	0
40.84262	0.01344579	0.01161227	0	0	0	0
40.85906	0.01344579	0.01161227	0	0	0	0
40.87558	0.01344579	0.01161227	0	0	0	0
40.92088	0.01344579	0.01161227	0	0	0	0
40.93745	0.01344579	0.01161227	0	0	0	0
40.95402	0.01344579	0.01161227	0	0	0	0
40.97058	0.01344579	0.01161227	0	0	0	0
40.98715	0.01344579	0.01161227	0	0	0	0
41.00758	0.01344579	0.01161227	0	0	0	0
41.02415	0.01344579	0.01161227	0	0	0	0
41.04114	0.01344579	0.01161227	0	0	0	0
41.07077	0.01344579	0.01161227	0	0	0	0
41.08762	0.01344579	0.01161227	0	0	0	0
41.10391	0.01344579	0.01161227	0	0	0	0
41.12054	0.01344579	0.01161227	0	0	0	0
41.13707	0.01344579	0.01161227	0	0	0	0
41.15361	0.01344579	0.01161227	0	0	0	0
41.17025	0.01344579	0.01161227	0	0	0	0
41.18675	0.01344579	0.01161227	0	0	0	0
41.20348	0.01344579	0.01161227	0	0	0	0
41.23966	0.01344579	0.01161227	0	0	0	0
41.25623	0.01344579	0.01161227	0	0	0	0
41.2729	0.01344579	0.01161227	0	0	0	0
41.28936	0.01344579	0.01161227	0	0	0	0
41.30593	0.01344579	0.01161227	0	0	0	0
41.3225	0.01344579	0.01161227	0	0	0	0
41.33907	0.01344579	0.01161227	0	0	0	0
41.35582	0.01344579	0.01161227	0	0	0	0
41.39581	0.01344579	0.01161227	0	0	0	0
41.41238	0.01344579	0.01161227	0	0	0	0
41.42895	0.01344579	0.01161227	0	0	0	0
41.44551	0.01344579	0.01161227	0	0	0	0
41.46208	0.01344579	0.01161227	0	0	0	0
41.47865	0.01344579	0.01161227	0	0	0	0
41.49522	0.01344579	0.01161227	0	0	0	0
41.51178	0.01344579	0.01161227	0	0	0	0
41.53574	0.01344579	0.01161227	0	0	0	0
41.55231	0.01344579	0.01161227	0	0	0	0
41.56887	0.01344579	0.01161227	0	0	0	0
41.58544	0.01344579	0.01161227	0	0	0	0
41.60203	0.01344579	0.01161227	0	0	0	0
41.61857	0.01344579	0.01161227	0	0	0	0
41.63514	0.01344579	0.007945239	-5.621474E-08	-0.2213427	-1.697933E-06	-6.685523
41.6517	0.01344579	0.00550055	5.621474E-08	-0.1475617	3.393129E-06	2.226715
41.66842	0.01466813	-0.0006111722	0.07314087	-0.3657045	2.197779	-6.554886
41.70239	0.01833517	-0.01527931	0.1079253	-0.4317013	0.686223	-1.301977
41.71896	0.02566924	-0.04094854	0.4426852	-1.549398	6.623043	-22.11302
41.73553	0.02566924	-0.04094854	0	0	-13.36027	46.76093
41.75239	0.02811392	-0.04950495	0.1449582	-0.5073541	4.335912	-15.1757
41.76867	0.03178095	-0.05683902	0.2253376	-0.4506751	2.425574	1.710379
41.78523	0.0330033	-0.06295074	0.07379794	-0.3689893	-4.614917	2.487623
41.80194	0.03422565	-0.06784012	0.0731243	-0.2924972	-0.02024207	2.29848
41.81837	0.03544799	-0.07150715	0.07443199	-0.223296	0.03946158	2.088257
41.83493	0.03544799	-0.07395184	0	-0.1475959	-2.256493	2.294937
41.87115	0.03789268	-0.07639652	0.0674945	-0.06749441	1.278693	1.517534
41.88772	0.03911502	-0.08128591	0.07378095	-0.2951238	0.119089	-4.31216
41.90429	0.03911502	-0.08128591	0	0	-2.226713	8.906854
41.92085	0.03911502	-0.08250825	0	-0.07379772	0	-2.227476
41.93742	0.03911502	-0.08250825	0	0	0	2.22722
42.00283	0.03911502	-0.08250825	0	0	0	0
42.0603	0.05622785	-0.009167584	0.2977779	1.276191	2.423417	10.38607
42.07686	0.06967364	0.1069551	0.8115898	7.009182	6.94006	77.43555
42.09343	0.07089598	0.124068	0.07378028	1.032931	-22.26713	-180.3636
42.11	0.07211833	0.1534042	0.07378118	1.770741	2.720794E-05	22.26716
42.12656	0.07456302	0.1778511	0.1475619	1.475617	2.226707	-8.906869
42.14313	0.07578536	0.2010757	0.07378072	1.401837	-2.22672	-2.226705
42.16047	0.07578535	0.2206332	-4.29825E-07	1.128275	-2.176357	-8.069364
42.17627	0.07456301	0.2401907	-0.0773611	1.237779	-2.334749	3.304815
42.19597	0.07089598	0.2585259	-0.186116	0.9305837	-3.063226	-8.65255
42.213	0.06478426	0.2976409	-0.3589051	2.29699	-4.704085	37.19964
42.22911	0.06356192	0.3037526	-0.07587726	0.3793863	8.540813	-57.86674
42.24597	0.05989488	0.3220878	-0.2174869	1.087433	-4.295049	21.4752
42.26258	0.05622785	0.3379783	-0.2207325	0.9565101	-0.09695958	-3.91118
42.27881	0.05378316	0.3550911	-0.1506489	1.054541	2.134046	2.985028
42.31417	0.05133846	0.3819827	-0.06912548	0.7603785	1.580101	-5.701504
42.33075	0.05011613	0.4088742	-0.07376351	1.622806	-0.08930092	16.60523
42.35165	0.05133847	0.4137636	0.05848342	0.2339344	3.529242	-37.06447
42.36821	0.05745019	0.4284317	0.3689038	0.8853669	8.284957	17.38639
42.38478	0.05867253	0.4308764	0.07378095	0.1475632	-8.906827	-22.26696
42.40221	0.06233957	0.4345435	0.2103944	0.2103938	4.018447	1.848142
42.41792	0.07334066	0.4406552	0.7004786	0.3891543	14.79077	5.395005
42.43448	0.09534287	0.4516563	1.328056	0.6640283	19.4463	8.517325
42.45105	0.1149004	0.4589904	1.180222	0.4425842	-4.461131	-6.682427
42.46779	0.1369026	0.4626574	1.314735	0.2191222	4.038698	-6.709339
42.48418	0.1674612	0.4651021	1.863833	0.1491064	16.5737	-2.113323
42.52092	0.180907	0.4651021	0.366054	0	-28.19227	-2.806588
42.53838	0.2479453	0.4341925	3.837887	-1.769547	64.05688	-32.64895
42.55405	0.2479453	0.4341925	0	0	-115.8143	53.3989
42.5709	0.2641327	0.4245396	0.9611437	-0.5731491	29.56213	-17.62849
42.58719	0.2752724	0.4174028	0.6837264	-0.4380396	-8.372471	4.077612
42.60376	0.2854997	0.4104753	0.6173206	-0.4181477	-2.020882	0.6053554
42.62033	0.2880359	0.4086995	0.1530487	-0.1071575	-14.01014	9.384624
42.63689	0.2927655	0.405325	0.2854827	-0.2036863	3.996406	-2.912908
42.67747	0.2947443	0.4038883	0.0487701	-0.03540966	-4.142653	2.94497
42.69404	0.301875	0.3985868	0.4303133	-0.3199258	6.676854	-4.97892
42.71085	0.3031227	0.3976389	0.07421786	-0.05638934	-10.66716	7.894471
42.72717	0.3059958	0.3954321	0.1760552	-0.1352249	3.07381	-2.379536
42.74432	0.3094361	0.3927458	0.2006344	-0.1566602	0.7344458	-0.6405026
42.7603	0.3129043	0.3899884	0.2169306	-0.1724771	0.4918214	-0.4773558
42.77687	0.316273	0.3872613	0.2033373	-0.164604	-0.4175554	0.2418442
42.79358	0.3196903	0.3844452	0.2044821	-0.1685082	0.03439954	-0.1173165
42.81325	0.3231561	0.3815365	0.1762085	-0.1478844	-0.7771558	0.5668859
42.82982	0.3286032	0.3768554	0.3287113	-0.2824873	4.208177	-3.714246
42.84639	0.326366	0.3722039	-0.1350706	-0.2808308	-13.99697	0.04999514
42.86295	0.3214766	0.3648698	-0.2951247	-0.4426844	-4.830998	-4.885313
42.87952	0.3165872	0.3575358	-0.2950532	-0.4425824	0.002159297	0.003075717
42.89618	0.3116979	0.3502017	-0.293501	-0.4402533	0.04671087	0.07009277
42.92429	0.3080308	0.3453123	-0.1304692	-0.1739575	3.641909	5.948687
42.94086	0.3006967	0.3355336	-0.4425842	-0.5901117	-6.98592	-9.314578
42.96259	0.2994744	0.3343112	-0.05624534	-0.05624534	10.08629	13.93784
42.97916	0.2982521	0.3330889	-0.07377893	-0.07378072	-0.4578013	-0.4578482
42.99573	0.298252	0.3318665	-1.798872E-06	-0.07378072	2.226598	0
43.01237	0.298252	0.3318665	0	0	5.416534E-05	2.221591
43.02886	0.2970297	0.3318665	-0.07412206	0	-2.237008	0
43.04543	0.2970297	0.3306442	1.798872E-06	-0.07378072	2.242225	-2.231846
43.06231	0.2970297	0.3294218	-1.765936E-06	-0.07243162	-0.0001065921	0.0403397
43.07856	0.2958074	0.3294218	-0.07520058	0	-2.269766	2.186242
43.09541	0.2958074	0.3281995	0	-0.07252822	2.271389	-2.190671
43.12843	0.294585	0.3281995	-0.03702677	9.027617E-07	-0.7425296	1.454489
43.145	0.294585	0.3281995	0	0	0.7467569	-1.820692E-05
43.16156	0.294585	0.3281995	0	0	0	0
43.1782	0.294585	0.3281995	0	0	0	0
43.1947	0.294585	0.3281995	0	0	0	0
43.21207	0.294585	0.3281995	0	0	0	0
43.22783	0.294585	0.3281995	0	0	0	0
43.2444	0.294585	0.3281995	0	0	0	0
43.28306	0.294585	0.3281995	0	0	0	0
43.29963	0.294585	0.3281995	0	0	0	0
43.31619	0.294585	0.3281995	0	0	0	0
43.33276	0.294585	0.3281995	0	0	0	0
43.34932	0.294585	0.3281995	0	0	0	0
43.36589	0.294585	0.3281995	0	0	0	0
43.38246	0.294585	0.3281995	0	0	0	0
43.39903	0.294585	0.3281995	0	0	0	0
43.4384	0.294585	0.3281995	0	0	0	0
43.45549	0.294585	0.3281995	0	0	0	0
43.47176	0.294585	0.3281995	0	0	0	0
43.48858	0.294585	0.3281995	0	0	0	0
43.50509	0.294585	0.3281995	0	0	0	0
43.52175	0.294585	0.3281995	0	0	0	0
43.53832	0.294585	0.3281995	0	0	0	0
43.55489	0.294585	0.3281995	0	0	0	0
43.61017	0.294585	0.3281995	0	0	0	0
43.62674	0.294585	0.3281995	0	0	0	0
43.64331	0.294585	0.3269772	0	-0.07378072	0	-2.226707
43.65987	0.294585	0.3269772	0	0	0	2.226707
43.67653	0.294585	0.3269772	0	0	0	0
43.69301	0.294585	0.3269772	0	0	0	0
43.70979	0.294585	0.3269772	0	0	0	0
43.78199	0.294585	0.3269772	0	0	0	0
43.79856	0.294585	0.3269772	0	0	0	0
43.81513	0.294585	0.3269772	0	0	0	0
43.8317	0.294585	0.3269772	0	0	0	0
43.84832	0.294585	0.3269772	0	0	0	0
43.86483	0.294585	0.3269772	0	0	0	0
43.90845	0.294585	0.3269772	0	0	0	0
43.92502	0.294585	0.3269772	0	0	0	0
43.94161	0.294585	0.3269772	0	0	0	0
43.95845	0.294585	0.3269772	0	0	0	0
43.97495	0.294585	0.3269772	0	0	0	0
43.99146	0.294585	0.3269772	0	0	0	0
44.00802	0.294585	0.3269772	0	0	0	0
44.02442	0.294585	0.3269772	0	0	0	0
44.06162	0.294585	0.3269772	0	0	0	0
44.07819	0.294585	0.3269772	0	0	0	0
44.09481	0.294585	0.3269772	0	0	0	0
44.1114	0.2933627	0.3269772	-0.073662	0	-2.217507	0
44.12789	0.2872509	0.3257548	-0.3707837	-0.07415637	-8.982663	-2.241915
44.14445	0.2774722	0.3220878	-0.5903817	-0.221395	-6.645078	-4.455467
44.16102	0.2652487	0.3171984	-0.7378091	-0.2951229	-4.449878	-2.22537
44.17776	0.2505806	0.3110867	-0.8760911	-0.365039	-4.151376	-2.098957
44.19415	0.2346901	0.3049749	-0.9694191	-0.3728528	-2.816643	-0.2358204
44.23834	0.2139103	0.2976409	-0.4702445	-0.1659684	8.239758	3.414993
44.25496	0.1527931	0.273194	-3.677189	-1.470875	-52.73705	-21.45872
44.27172	0.1479037	0.269527	-0.2917648	-0.2188247	101.425	37.51056
44.28804	0.141792	0.2670823	-0.3744221	-0.1497685	-2.498631	2.087485
44.30462	0.1344579	0.2634152	-0.4425834	-0.221293	-2.072139	-2.174386
44.32118	0.1259015	0.2597482	-0.5165849	-0.2213932	-2.233372	-0.003022105
44.33775	0.1246791	0.2597482	-0.07378072	0	13.3654	6.682428
44.35431	0.1234568	0.2585258	-0.07378072	-0.07378072	0	-2.226707
44.39092	0.1234568	0.2585258	0	0	1.387459	1.387459
44.40787	0.1222345	0.2585259	-0.07211968	1.758384E-06	-1.346563	3.283118E-05
44.42406	0.1222345	0.2585259	0	0	2.176576	-5.306813E-05
44.44063	0.1222345	0.2585259	0	0	0	0
44.4572	0.1222345	0.2585259	0	0	0	0
44.47377	0.1222345	0.2585259	0	0	0	0
44.49066	0.1222345	0.2585259	0	0	0	0
44.50696	0.1222345	0.2585259	0	0	0	0
44.55036	0.1197897	0.2560812	-0.05632495	-0.05632512	-0.943406	-0.9434088
44.56693	0.1075663	0.2438577	-0.7376379	-0.7376383	-11.36001	-11.36001
44.5835	0.1075663	0.2438577	0	0	22.26196	22.26197
44.6005	0.1002323	0.2389683	-0.4312656	-0.2875107	-12.84701	-8.564682
44.61663	0.09289818	0.2316343	-0.4548342	-0.4548337	-0.7113827	-5.050399
44.6332	0.0794524	0.2194108	-0.811402	-0.7376383	-10.90563	-8.649578
44.64977	0.0660066	0.2071874	-0.8115898	-0.7378091	-0.005665794	-0.005153175
44.66633	0.04767143	0.1912969	-1.106713	-0.9591512	-8.906835	-6.680119
44.73504	0.03055861	0.1729617	-0.2490713	-0.2668621	10.05751	8.118432
44.75161	-0.01344579	0.1252903	-2.656111	-2.877453	-28.22721	-30.61424
44.76817	-0.01344579	0.1252903	0	0	80.16158	86.8417
44.78501	-0.01466813	0.1228456	-0.07259406	-0.1451888	-2.17313	-4.346279
44.80138	-0.01466813	0.1204009	0	-0.1493149	2.18586	-0.1242395
44.81787	-0.01589048	0.1179562	-0.07413927	-0.1482793	-2.25623	0.03151347
44.83444	-0.01589048	0.1167339	-1.124036E-07	-0.07376374	2.242688	2.254075
44.8704	-0.01711282	0.1155116	-0.03399068	-0.03399042	-0.6470427	0.7571227
44.88697	-0.01833517	0.1118445	-0.07378083	-0.2213431	-0.7574981	-3.566694
44.90354	-0.01833517	0.1118445	0	0	2.22671	6.680147
44.9201	-0.01833517	0.1093998	0	-0.1475619	0	-4.453427
44.93667	-0.02077986	0.1045104	-0.1475617	-0.2951233	-4.45342	-4.453413
44.95324	-0.02689158	0.09106467	-0.3688195	-0.811402	-6.676805	-15.57953
44.97023	-0.03667033	0.06784012	-0.5757956	-1.367515	-6.168434	-16.57363
44.98652	-0.0660066	0.02139103	-1.801013	-2.851605	-36.82452	-44.60505
45.02645	-0.08434177	-0.00794524	-0.4591131	-0.7345808	23.86668	37.65284
