Time	Pos X	Pos Y	Vel X	Vel Y	Acc X	Acc Y
0.01656632	0.1344579	0.3868721	8.116342	23.35293	489.9303	1409.663
0.03342515	0.1344579	0.3868721	0	0	-242.8214	-698.6633
0.0602342	0.1344579	0.3868721	0	0	0	0
0.0772537	0.1344579	0.3868721	0	0	0	0
0.09342171	0.1344579	0.3868721	0	0	0	0
0.1101621	0.1344579	0.3868721	0	0	0	0
0.1266025	0.1332355	0.383205	-0.07435086	-0.2230517	-2.240779	-6.72231
0.1430701	0.1332356	0.3770933	9.048758E-07	-0.3711348	2.259381	-4.499911
0.1672584	0.1332355	0.3685369	-6.160492E-07	-0.3537428	-3.74097E-05	0.4277849
0.1839416	0.1332355	0.3648698	0	-0.2198041	1.507286E-05	3.277076
0.2006615	0.1332355	0.3648698	0	0	0	6.580361
0.2177046	0.1332355	0.3648698	0	0	0	0
0.2342753	0.1344579	0.3624251	0.07376637	-0.1475309	2.194523	-4.388993
0.2508432	0.1356802	0.3502017	0.07377684	-0.7377792	0.0003161126	-17.81153
0.2674075	0.1393473	0.3147537	0.2213817	-2.140018	4.455022	-42.32249
0.2840449	0.1405696	0.2841951	0.07346962	-1.836744	-4.454952	9.134286
0.3005437	0.1393473	0.1974086	-0.07408672	-5.260166	-4.453027	-103.3137
0.3171085	0.1393473	0.1032881	0	-5.681986	2.240738	-12.75785
0.3336736	0.1332355	0.02505806	-0.368951	-4.722569	-11.13651	28.95926
0.3502435	0.1210121	-0.04583792	-0.73769	-4.278605	-11.12838	13.39866
0.3764197	0.1173451	-0.05928371	-0.1400899	-0.513664	13.98022	88.07677
0.3929916	0.1026769	-0.09350935	-0.8851237	-2.065288	-17.42847	-36.29692
0.4095579	0.1014546	-0.09595405	-0.07378529	-0.1475701	24.48351	57.87039
0.4261254	0.09900991	-0.09962107	-0.1475591	-0.2213386	-2.226541	-2.22638
0.4426913	0.09534287	-0.1057328	-0.2213601	-0.3689342	-2.227391	-4.454584
0.4592588	0.09289819	-0.1093998	-0.1475591	-0.2213386	2.227391	4.454584
0.4758216	0.09167584	-0.1093998	-0.07380109	-4.498393E-07	2.226302	6.680846
0.4923894	0.09045349	-0.1106222	-0.07377826	-0.07377736	0.0006890472	-2.226848
0.508957	0.08923115	-0.1106222	-0.0737794	-4.497099E-07	-3.440243E-05	2.226527
0.5339186	0.08923115	-0.1106222	0	0	1.77657	1.082878E-05
0.5505694	0.08923115	-0.1106222	0	0	0	0
0.5672012	0.08923115	-0.1106222	0	0	0	0
0.5841094	0.08800881	-0.1106222	-0.072293	4.406498E-07	-2.155426	1.313803E-05
0.6002576	0.08434177	-0.1093998	-0.2270853	0.07569494	-4.682667	2.289857
0.6167971	0.0770077	-0.1057328	-0.4434291	0.2217148	-6.618505	4.467116
0.6333219	0.07211832	-0.1020658	-0.2958802	0.2219103	4.462484	0.005911917
0.6498914	0.06478426	-0.09595404	-0.4426243	0.3688537	-4.434113	4.440136
0.667297	0.06111722	-0.09106466	-0.2106817	0.2809087	6.826848	-2.588514
0.6970205	0.05989488	-0.08739763	-0.04112386	0.1233714	3.597731	-3.342676
0.7135884	0.05989488	-0.08495294	0	0.1475556	0.888369	0.522433
0.7301555	0.05989488	-0.08495294	0	0	0	-4.453165
0.7467207	0.05867254	-0.08250826	-0.07379001	0.14758	-2.227135	4.45427
0.7632893	0.05867254	-0.08128591	0	0.07377481	2.227031	-2.22749
0.7802275	0.05745019	-0.08006356	-0.072165	0.07216523	-2.153738	-0.04803728
0.796486	0.05745019	-0.08006356	0	0	2.173866	-2.173872
0.8129903	0.05745019	-0.07884122	-2.257157E-07	0.07406183	-6.889397E-06	2.260549
0.8295594	0.05745019	-0.07884122	0	0	6.824685E-06	-2.239316
0.8527185	0.05745019	-0.07884122	0	0	0	0
0.869395	0.05745019	-0.07884122	0	0	0	0
0.8858536	0.05745019	-0.07884122	0	0	0	0
0.9029145	0.05745019	-0.07884122	0	0	0	0
0.9193494	0.05867254	-0.07639654	0.0743757	0.1487496	2.22045	4.440845
0.9360515	0.05989488	-0.07028481	0.07318465	0.3659257	-0.03594324	6.553894
0.9521196	0.06111722	-0.06661778	0.07607232	0.228217	0.08811846	-4.202246
0.9686887	0.06356191	-0.06417308	0.1475452	0.1475459	2.189919	-2.471749
0.9853892	0.06356191	-0.0617284	0	0.1463836	-4.434838	-0.03493464
1.001818	0.06356191	-0.0617284	0	0	0	-4.418534
1.018385	0.06356191	-0.0617284	0	0	0	0
1.034955	0.06356191	-0.0617284	0	0	0	0
1.051521	0.06356191	-0.0617284	0	0	0	0
1.068088	0.06356191	-0.0617284	0	0	0	0
1.084732	0.06478426	-0.06050605	0.07344033	0.0734401	2.211334	2.211327
1.101222	0.06478426	-0.06050605	0	0	-2.216473	-2.216467
1.118308	0.06478426	-0.05928371	0	0.07153817	0	2.130611
1.134358	0.06478426	-0.05928371	0	0	0	-2.158886
1.168133	0.06478426	-0.05928371	0	0	0	0
1.184699	0.0660066	-0.05928371	0.07378497	0	1.4657	0
1.201269	0.0660066	-0.05928371	0	0	-2.226723	0
1.217835	0.0660066	-0.05928371	0	0	0	0
1.234403	0.0660066	-0.05928371	0	0	0	0
1.250969	0.0660066	-0.05928371	0	0	0	0
1.267535	0.06722894	-0.05928371	0.07378497	0	2.226963	0
1.284101	0.06845129	-0.05806137	0.07378701	0.07378656	6.161557E-05	2.227035
1.300669	0.06967364	-0.05683902	0.07377595	0.07377617	-0.000333918	-0.0003136805
1.319859	0.07089598	-0.05683902	0.06369857	0	-0.2818234	-2.06322
1.336518	0.07334067	-0.05561667	0.146752	0.07337599	2.316813	2.046856
1.352996	0.07334067	-0.05561667	0	0	-4.428697	-2.214349
1.369562	0.07334067	-0.05439433	0	0.07378497	0	2.232916
1.386324	0.07456301	-0.05439433	0.07292282	2.222444E-07	2.188007	-2.213869
1.402692	0.07578536	-0.05317199	0.07467692	0.07467623	0.05294487	2.253986
1.420021	0.0770077	-0.05194964	0.07054087	0.0705413	-0.1227436	-0.1227104
1.436001	0.0770077	-0.05194964	0	0	-2.117819	-2.117831
1.452397	0.0770077	-0.05194964	0	0	0	0
1.474725	0.0770077	-0.05194964	0	0	0	0
1.491293	0.0770077	-0.05194964	0	0	0	0
1.508174	0.0770077	-0.05194964	0	0	0	0
1.524431	0.0770077	-0.05194964	0	0	0	0
1.540997	0.0770077	-0.05194964	0	0	0	0
1.557821	0.0770077	-0.05194964	0	0	0	0
1.574162	0.0770077	-0.05194964	0	0	0	0
1.591111	0.0770077	-0.05194964	0	0	0	0
1.608	0.0770077	-0.05194964	0	0	0	0
1.629876	0.0770077	-0.05194964	0	0	0	0
1.646446	0.0770077	-0.05194964	0	0	0	0
1.663184	0.07823005	-0.05194964	0.07302661	-2.225593E-07	2.192424	-6.681732E-06
1.680172	0.07823005	-0.05194964	0	0	-2.165293	6.599048E-06
1.696178	0.07823005	-0.05194964	0	0	0	0
1.713107	0.07823005	-0.05194964	0	0	0	0
1.72934	0.07823005	-0.05194964	0	0	0	0
1.745849	0.07823005	-0.05194964	0	0	0	0
1.762419	0.07823005	-0.05194964	0	0	0	0
1.793534	0.07823005	-0.05194964	0	0	0	0
1.810104	0.07823005	-0.05194964	0	0	0	0
1.82699	0.07823005	-0.05194964	0	0	0	0
1.843238	0.07823005	-0.05194964	0	0	0	0
1.859816	0.07823005	-0.05194964	0	0	0	0
1.876373	0.07823005	-0.05194964	0	0	0	0
1.90098	0.07823005	-0.05194964	0	0	0	0
1.917551	0.07823005	-0.05194964	0	0	0	0
1.93487	0.07823005	-0.05194964	0	0	0	0
1.950684	0.07823005	-0.05194964	0	0	0	0
1.967251	0.07823005	-0.05194964	0	0	0	0
1.983818	0.07823005	-0.05194964	0	0	0	0
2.000386	0.07823005	-0.05194964	0	0	0	0
2.0175	0.07823005	-0.05194964	0	0	0	0
2.033519	0.07823005	-0.05194964	0	0	0	0
2.050088	0.07823005	-0.05194964	0	0	0	0
2.066937	0.07823005	-0.05194964	0	0	0	0
2.108744	0.07823005	-0.05194964	0	0	0	0
2.125314	0.07823005	-0.05194964	0	0	0	0
2.141881	0.07823005	-0.05194964	0	0	0	0
2.158448	0.07823005	-0.05194964	0	0	0	0
2.175017	0.07823005	-0.05194964	0	0	0	0
2.192042	0.07823005	-0.05194964	0	0	0	0
2.208585	0.07823005	-0.05194964	0	0	0	0
2.224717	0.07823005	-0.05194964	0	0	0	0
2.25967	0.07823005	-0.05194964	0	0	0	0
2.276241	0.07823005	-0.05194964	0	0	0	0
2.292808	0.07823005	-0.05194964	0	0	0	0
2.309811	0.07823005	-0.05194964	0	0	0	0
2.325945	0.07823005	-0.05194964	0	0	0	0
2.342755	0.07823005	-0.05194964	0	0	0	0
2.359078	0.07823005	-0.05194964	0	0	0	0
2.375645	0.07823005	-0.05194964	0	0	0	0
2.409479	0.07823005	-0.05194964	0	0	0	0
2.426049	0.07823005	-0.05194964	0	0	0	0
2.44262	0.07823005	-0.05194964	0	0	0	0
2.459184	0.07823005	-0.05194964	0	0	0	0
2.475753	0.07823005	-0.05194964	0	0	0	0
2.49232	0.07823005	-0.05194964	0	0	0	0
2.508883	0.07823005	-0.05194964	0	0	0	0
2.52545	0.07823005	-0.05194964	0	0	0	0
2.542159	0.07823005	-0.05194964	0	0	0	0
2.564518	0.07823005	-0.05194964	0	0	0	0
2.581086	0.07823005	-0.05072729	-4.49692E-07	0.07377693	-1.155217E-05	1.89526
2.597653	0.07823005	-0.05072729	0	0	1.357124E-05	-2.226512
2.614223	0.0770077	-0.04583793	-0.07376905	0.295076	-2.226162	8.904641
2.631026	0.07578536	-0.0287251	-0.0727464	1.018452	0.03064342	21.67572
2.647356	0.07945239	-0.00550055	0.2245609	1.422222	8.973269	12.18649
2.663926	0.08923115	0.01894634	0.5901538	1.475384	11.11237	1.615888
2.68049	0.113678	0.05317198	1.475915	2.06628	26.73289	17.83368
2.697056	0.1674612	0.1069551	3.246452	3.246452	53.44107	35.62174
2.721133	0.184574	0.1216233	0.7107698	0.6092311	-62.38881	-64.8871
2.738099	0.2371348	0.1582936	3.098033	2.161418	58.16587	37.81917
2.755197	0.2444689	0.1644053	0.4289435	0.3574529	-78.35556	-52.9584
2.770837	0.2615817	0.1766288	1.094153	0.7815387	20.31906	12.95385
2.804645	0.2799169	0.1925193	0.5423254	0.4700148	-11.15959	-6.299938
2.821803	0.2994744	0.2096321	1.139876	0.9973928	11.72448	10.34764
2.83778	0.2994744	0.2096321	0	0	-34.40077	-30.10072
2.85435	0.3055861	0.2157438	0.368863	0.3688621	11.33332	11.3333
2.890515	0.3080308	0.2181885	0.06759846	0.06759804	-5.712867	-5.712858
2.907084	0.3190319	0.2255226	0.6639405	0.442627	11.30836	7.111628
2.923861	0.3214766	0.2267449	0.1457223	0.07286026	-15.54078	-11.08889
2.940223	0.3239213	0.2279672	0.1494128	0.07470729	0.1113657	0.05573702
2.956789	0.3275883	0.2304119	0.2213549	0.1475708	2.184817	2.212799
2.97367	0.330033	0.2304119	0.1448127	0	-2.288397	-4.411951
2.989918	0.3324777	0.2316343	0.150463	0.07523056	0.1705525	2.270806
3.006486	0.3373671	0.2328566	0.2951187	0.07377966	4.408189	-0.04421413
3.025955	0.3385894	0.2328566	0.06278548	1.530756E-06	-6.447165	-2.047318
3.042523	0.3459235	0.2365237	0.4426589	0.2213294	10.54114	6.14165
3.05909	0.3483682	0.2365237	0.1475593	-8.99423E-07	-8.905802	-6.679523
3.075659	0.3483682	0.237746	0	0.07377435	-4.453125	2.226429
3.092225	0.3483682	0.237746	0	0	0	-2.226482
3.10908	0.3483682	0.237746	0	0	0	0
3.125357	0.3483682	0.237746	0	0	0	0
3.141925	0.3483682	0.237746	0	0	0	0
3.15849	0.3483682	0.237746	0	0	0	0
3.175274	0.3483682	0.237746	0	0	0	0
3.191625	0.3483682	0.237746	0	0	0	0
3.208192	0.3483682	0.237746	0	0	0	0
3.224857	0.3483682	0.237746	0	0	0	0
3.241325	0.3483682	0.237746	0	0	0	0
3.257891	0.3483682	0.237746	0	0	0	0
3.275126	0.3483682	0.237746	0	0	0	0
3.291302	0.3483682	0.237746	0	0	0	0
3.307595	0.3483682	0.237746	0	0	0	0
3.342063	0.3483682	0.237746	0	0	0	0
3.358955	0.3483682	0.237746	0	0	0	0
3.375199	0.3483682	0.237746	0	0	0	0
3.3918	0.3483682	0.237746	0	0	0	0
3.408336	0.3483682	0.237746	0	0	0	0
3.424903	0.3483682	0.237746	0	0	0	0
3.44147	0.3483682	0.237746	0	0	0	0
3.458036	0.3483682	0.237746	0	0	0	0
3.492123	0.3483682	0.237746	0	0	0	0
3.508693	0.3483682	0.237746	0	0	0	0
3.525281	0.3483682	0.237746	0	0	0	0
3.541826	0.3483682	0.237746	0	0	0	0
3.558568	0.3483682	0.237746	0	0	0	0
3.575094	0.3483682	0.237746	0	0	0	0
3.591606	0.3483682	0.237746	0	0	0	0
3.60817	0.3483682	0.237746	0	0	0	0
3.6405	0.3483682	0.237746	0	0	0	0
3.660229	0.3483682	0.237746	0	0	0	0
3.676799	0.3483682	0.237746	0	0	0	0
3.693406	0.3483682	0.237746	0	0	0	0
3.710454	0.3471459	0.2365237	-0.07169577	-0.07169753	-2.130305	-2.130357
3.726498	0.3349224	0.2316343	-0.761864	-0.3047448	-20.85558	-7.042249
3.743165	0.3165872	0.2230779	-1.100097	-0.5133778	-10.34003	-6.378061
3.759801	0.2896957	0.2145215	-1.616455	-0.5143278	-15.50484	-0.0285253
3.78955	0.2493583	0.1961863	-1.355949	-0.6163399	5.616219	-2.199268
3.80612	0.2004645	0.1680724	-2.950683	-1.696643	-34.42955	-23.32322
3.822687	0.1919081	0.1619607	-0.5164799	-0.3689142	73.45859	40.06776
3.839254	0.1784623	0.1497372	-0.8116006	-0.7378206	-8.906951	-11.13385
3.855828	0.1686835	0.1399584	-0.5900022	-0.5900005	6.686503	4.460321
3.872846	0.1613495	0.1289573	-0.4309687	-0.6464539	4.734305	-1.680574
3.888953	0.1527931	0.1167339	-0.5312125	-0.7588747	-3.026236	-3.393843
3.905525	0.1466813	0.1081775	-0.368794	-0.5163108	4.970035	7.422495
3.922257	0.1381249	0.0947317	-0.5113871	-0.8036092	-4.281565	-8.626549
3.938652	0.1307909	0.08861997	-0.4473462	-0.3727891	1.933232	13.00536
3.955286	0.1246791	0.08006357	-0.3674183	-0.5143854	2.419942	-4.287051
3.972059	0.1210121	0.07639653	-0.2186216	-0.2186212	4.453965	8.853178
3.988356	0.1185674	0.0727295	-0.1500117	-0.225018	2.074682	-0.1934325
4.004922	0.113678	0.06906246	-0.2951446	-0.221359	-4.416346	0.1113425
4.021491	0.110011	0.06417308	-0.2213176	-0.2950894	2.228055	-2.225139
4.038054	0.106344	0.0617284	-0.2213932	-0.1475954	-0.002280651	4.451632
4.05462	0.1038993	0.05928371	-0.1475784	-0.1475787	2.228117	0.0005060201
4.071191	0.1026769	0.05806136	-0.07376419	-0.07376397	2.22759	2.227604
4.087759	0.1014546	0.05683902	-0.07377815	-0.0737786	-0.0004213311	-0.0004415658
4.122691	0.1014546	0.05683902	0	0	1.43259	1.432598
4.139263	0.1002322	0.05439433	-0.07375827	-0.147515	-1.432071	-2.864112
4.155828	0.1002322	0.05439433	0	0	2.225805	4.451562
4.172394	0.1002322	0.05439433	0	0	0	0
4.188962	0.1002322	0.05439433	0	0	0	0
4.205529	0.1002322	0.05439433	0	0	0	0
4.222225	0.1002322	0.05439433	0	0	0	0
4.238678	0.1002322	0.05439433	0	0	0	0
4.272196	0.1002322	0.05439433	0	0	0	0
4.289083	0.1002322	0.05439433	0	0	0	0
4.305337	0.1002322	0.05439433	0	0	0	0
4.322033	0.1002322	0.05439433	0	0	0	0
4.33847	0.1002322	0.05439433	0	0	0	0
4.355238	0.1002322	0.05439433	0	0	0	0
4.371606	0.1002322	0.05439433	0	0	0	0
4.38817	0.1002322	0.05439433	0	0	0	0
4.422076	0.1002322	0.05439433	0	0	0	0
4.438647	0.1002322	0.05439433	0	0	0	0
4.455702	0.1002322	0.05439433	0	0	0	0
4.471902	0.1002322	0.05439433	0	0	0	0
4.48835	0.1002322	0.05439433	0	0	0	0
4.504917	0.1002322	0.05439433	0	0	0	0
4.52148	0.1002322	0.05439433	0	0	0	0
4.541401	0.1002322	0.05439433	0	0	0	0
4.557969	0.09900991	0.05439433	-0.07377815	0	-2.021928	0
4.574537	0.09900991	0.05439433	0	0	2.226501	0
4.591105	0.09778755	0.05439433	-0.07378162	-2.24859E-07	-2.226638	-6.785964E-06
4.607672	0.09656522	0.05439433	-0.07378028	2.24859E-07	4.069947E-05	1.357251E-05
4.624238	0.09656522	0.05439433	0	0	2.226757	-6.786453E-06
4.641094	0.09656522	0.05439433	0	0	0	0
4.657371	0.09656522	0.05439433	0	0	0	0
4.673952	0.09656522	0.05439433	0	0	0	0
4.690868	0.09656522	0.05439433	0	0	0	0
4.707073	0.09656522	0.05439433	0	0	0	0
4.735669	0.09656522	0.05439433	0	0	0	0
4.752239	0.09656522	0.05439433	0	0	0	0
4.769169	0.09656522	0.05439433	0	0	0	0
4.785371	0.09656522	0.05439433	0	0	0	0
4.801963	0.09656522	0.05439433	0	0	0	0
4.818506	0.09656522	0.05439433	0	0	0	0
4.835073	0.09656522	0.05439433	0	0	0	0
4.851654	0.09656522	0.05439433	0	0	0	0
4.868456	0.09656522	0.05439433	0	0	0	0
4.884769	0.09656522	0.05439433	0	0	0	0
4.901337	0.09656522	0.05439433	0	0	0	0
4.918389	0.09656522	0.05439433	0	0	0	0
4.934577	0.09656522	0.05439433	0	0	0	0
4.951038	0.09656522	0.05439433	0	0	0	0
4.967675	0.09656522	0.05439433	0	0	0	0
4.984169	0.09656522	0.05439433	0	0	0	0
5.00074	0.09656522	0.05439433	0	0	0	0
5.017303	0.09045349	0.05439433	-0.3690001	2.249172E-07	-11.13677	6.788211E-06
5.03387	0.08434177	0.05317199	-0.3689147	-0.07378307	0.002578154	-2.227105
5.062209	0.07456302	0.05194964	-0.3450646	-0.04313327	0.5311166	0.6825376
5.078777	0.06967364	0.05194964	-0.2950983	0	1.112646	0.9604899
5.095347	0.06845129	0.05194964	-0.07377011	2.248266E-07	6.678929	6.784499E-06
5.111911	0.06722894	0.05194964	-0.07379604	0	-0.0007827566	-6.785476E-06
5.128477	0.06722894	0.05194964	0	0	2.227489	0
5.145045	0.06722894	0.05194964	0	0	0	0
5.161612	0.06722894	0.05194964	0	0	0	0
5.178179	0.06722894	0.05194964	0	0	0	0
5.194744	0.06722894	0.05194964	0	0	0	0
5.211312	0.06722894	0.05194964	0	0	0	0
5.228077	0.06356192	0.0507273	-0.2187296	-0.07291008	-6.561987	-2.187336
5.244573	0.06356192	0.0507273	0	0	6.576098	2.192039
5.261094	0.06233957	0.0507273	-0.07398751	2.254885E-07	-2.240881	6.829433E-06
5.277581	0.05989489	0.0507273	-0.1482784	-2.259515E-07	-2.250688	-1.367664E-05
5.294149	0.05989489	0.0507273	0	0	4.485768	6.83556E-06
5.310716	0.05989489	0.0507273	0	0	0	0
5.327282	0.05989489	0.0507273	0	0	0	0
5.34385	0.05989489	0.0507273	0	0	0	0
5.360425	0.05989489	0.0507273	0	0	0	0
5.382231	0.05989489	0.0507273	0	0	0	0
5.398807	0.05989489	0.0507273	0	0	0	0
5.415369	0.05989489	0.0507273	0	0	0	0
5.431934	0.05989489	0.0507273	0	0	0	0
5.448503	0.05989489	0.0507273	0	0	0	0
5.46507	0.05989489	0.0507273	0	0	0	0
5.481637	0.05989489	0.0507273	0	0	0	0
5.498204	0.05989489	0.0507273	0	0	0	0
5.514968	0.05989489	0.0507273	0	0	0	0
5.547631	0.05989489	0.0507273	0	0	0	0
5.564693	0.05989489	0.0507273	0	0	0	0
5.580767	0.05989489	0.0507273	0	0	0	0
5.597366	0.05989489	0.0507273	0	0	0	0
5.6139	0.05989489	0.0507273	0	0	0	0
5.630468	0.05989489	0.0507273	0	0	0	0
5.647035	0.05989489	0.0507273	0	0	0	0
5.664032	0.05989489	0.0507273	0	0	0	0
5.680329	0.05989489	0.0507273	0	0	0	0
5.696732	0.05989489	0.0507273	0	0	0	0
5.713304	0.05989489	0.0507273	0	0	0	0
5.729871	0.05989489	0.0507273	0	0	0	0
5.746438	0.05989489	0.0507273	0	0	0	0
5.763004	0.05989489	0.0507273	0	0	0	0
5.779655	0.05989489	0.0507273	0	0	0	0
5.796138	0.05989489	0.0507273	0	0	0	0
5.862493	0.05989489	0.0507273	0	0	0	0
5.893755	0.05989489	0.0507273	0	0	0	0
5.910326	0.05989489	0.0507273	0	0	0	0
5.927048	0.05989489	0.0507273	0	0	0	0
5.94346	0.05989489	0.0507273	0	0	0	0
5.960026	0.05989489	0.0507273	0	0	0	0
5.976722	0.05989489	0.0507273	0	0	0	0
5.993172	0.05989489	0.0507273	0	0	0	0
6.010189	0.05989489	0.0507273	0	0	0	0
6.026291	0.05989489	0.0507273	0	0	0	0
6.042856	0.05989489	0.0507273	0	0	0	0
6.059718	0.05989489	0.0507273	0	0	0	0
6.076223	0.05989489	0.0507273	0	0	0	0
6.092739	0.05989489	0.0507273	0	0	0	0
6.109123	0.05989489	0.0507273	0	0	0	0
6.12569	0.05989489	0.0507273	0	0	0	0
6.142298	0.05989489	0.0507273	0	0	0	0
6.158824	0.05989489	0.0507273	0	0	0	0
6.175389	0.05989489	0.0507273	0	0	0	0
6.191959	0.05989489	0.0507273	0	0	0	0
6.208524	0.05989489	0.0507273	0	0	0	0
6.225092	0.05989489	0.0507273	0	0	0	0
6.241658	0.05989489	0.0507273	0	0	0	0
6.258222	0.05989489	0.0507273	0	0	0	0
6.274792	0.05989489	0.0507273	0	0	0	0
6.291359	0.05989489	0.0507273	0	0	0	0
6.307925	0.05989489	0.0507273	0	0	0	0
6.324495	0.05989489	0.0507273	0	0	0	0
6.341061	0.05989489	0.0507273	0	0	0	0
6.368154	0.05989489	0.0507273	0	0	0	0
6.385123	0.05989489	0.0507273	0	0	0	0
6.401289	0.05989489	0.0507273	0	0	0	0
6.41826	0.05989489	0.0507273	0	0	0	0
6.434423	0.05989489	0.0507273	0	0	0	0
6.451216	0.05989489	0.0507273	0	0	0	0
6.467556	0.05989489	0.0507273	0	0	0	0
6.484281	0.05989489	0.0507273	0	0	0	0
6.500692	0.05989489	0.0507273	0	0	0	0
6.524738	0.05989489	0.0507273	0	0	0	0
6.541309	0.05989489	0.0507273	0	0	0	0
6.557877	0.05989489	0.0507273	0	0	0	0
6.574443	0.05989489	0.0507273	0	0	0	0
6.59101	0.05989489	0.0507273	0	0	0	0
6.607577	0.05989489	0.0507273	0	0	0	0
6.624142	0.05989489	0.0507273	0	0	0	0
6.640707	0.05989489	0.0507273	0	0	0	0
6.657277	0.06845129	0.05683902	0.5164063	0.3688618	15.58517	11.13227
6.679585	0.08189708	0.06661777	0.6027373	0.4383543	2.220618	1.787496
6.696155	0.1124557	0.08861998	1.84415	1.327788	31.93062	22.8773
6.713104	0.1124557	0.08861998	0	0	-55.01683	-39.61212
6.729287	0.1210121	0.09350935	0.5287316	0.3021323	15.9583	9.119026
6.745985	0.1246791	0.0971764	0.2196107	0.2196112	-9.401264	-2.509706
6.762422	0.1246791	0.09962108	0	0.1487301	-6.627769	-2.139164
6.778988	0.113678	0.1069551	-0.6640852	0.4427235	-20.12206	8.90812
6.795555	0.08434177	0.1204009	-1.770792	0.8116127	-33.40239	11.13374
6.812378	0.04278206	0.1399584	-2.470368	1.162526	-20.95164	10.50951
6.830573	-0.004889378	0.1570713	-2.620007	0.9405162	-4.273166	-6.339782
6.847246	-0.06845129	0.1790735	-3.812246	1.319623	-34.19268	10.87255
6.863928	-0.06845129	0.1790735	0	0	114.2923	-39.56269
6.880278	-0.08678646	0.1864075	-1.121431	0.4485726	-33.94991	13.57996
6.896842	-0.1051216	0.1925193	-1.106904	0.3689682	0.4413663	-2.418543
6.91341	-0.1124557	0.1961863	-0.4426848	0.2213422	20.04791	-4.455749
6.929977	-0.1442367	0.2096321	-1.918248	0.8115673	-44.53194	17.81277
6.946854	-0.1735729	0.2181885	-1.73832	0.5070099	5.379978	-9.106509
6.963111	-0.1980198	0.2267449	-1.503749	0.5263115	7.079581	0.58254
6.983416	-0.2175773	0.234079	-0.96318	0.3611917	14.78481	-4.516104
7	-0.2395795	0.2426354	-1.326681	0.5159332	-9.853769	4.194726
7.016558	-0.2395795	0.2426354	0	0	40.03067	-15.56753
7.033124	-0.2505806	0.2475248	-0.6640648	0.295139	-20.04815	8.910261
7.049686	-0.25547	0.2511918	-0.2952097	0.2214068	11.13399	-2.225626
7.066552	-0.2579147	0.2524141	-0.1449498	0.07247491	4.495004	-4.455278
7.082822	-0.259137	0.2524141	-0.07513005	0	2.107104	-2.187234
7.099608	-0.259137	0.2524141	0	0	2.272794	0
7.124082	-0.259137	0.2524141	0	0	0	0
7.150997	-0.2615817	0.2524141	-0.09082957	0	-1.767516	0
7.167567	-0.2664711	0.2536365	-0.2950719	0.07376798	-4.696828	1.696394
7.184131	-0.2664711	0.2536365	0	0	8.905289	-2.226322
7.200699	-0.2676934	0.2536365	-0.0737786	0	-2.226803	0
7.217264	-0.2689158	0.2548588	-0.07378922	0.07378922	-0.0003204379	2.227059
7.233833	-0.2689158	0.2548588	0	0	2.226963	-2.226963
7.250536	-0.2701381	0.2548589	-0.07318222	1.784236E-06	-2.199496	5.362532E-05
7.267591	-0.2701381	0.2548589	0	0	2.167868	-5.285421E-05
7.28356	-0.2701381	0.2548589	0	0	0	0
7.300097	-0.2701381	0.2548589	0	0	0	0
7.316664	-0.2701381	0.2548589	0	0	0	0
7.333232	-0.2689158	0.2536365	0.07377435	-0.07377616	2.226482	-2.226537
7.349798	-0.2689158	0.2536365	0	0	-2.226547	2.226601
7.366367	-0.2689158	0.2536365	0	0	0	0
7.382934	-0.2689158	0.2536365	0	0	0	0
7.399638	-0.2689158	0.2536365	0	0	0	0
7.416069	-0.2689158	0.2536365	0	0	0	0
7.432636	-0.2689158	0.2536365	0	0	0	0
7.449326	-0.2689158	0.2536365	0	0	0	0
7.477033	-0.2689158	0.2536365	0	0	0	0
7.493603	-0.2689158	0.2536365	0	0	0	0
7.510172	-0.2689158	0.2536365	0	0	0	0
7.527644	-0.2689158	0.2536365	0	0	0	0
7.543305	-0.2689158	0.2536365	0	0	0	0
7.559871	-0.2689158	0.2536365	0	0	0	0
7.576709	-0.2689158	0.2536365	0	0	0	0
7.593005	-0.2689158	0.2536365	0	0	0	0
7.609571	-0.2689158	0.2536365	0	0	0	0
7.631272	-0.2689158	0.2536365	0	0	0	0
7.64784	-0.2689158	0.2536365	0	0	0	0
7.664408	-0.2689158	0.2536365	0	0	0	0
7.681094	-0.2689158	0.2536365	0	0	0	0
7.697543	-0.2689158	0.2536365	0	0	0	0
7.71411	-0.2689158	0.2536365	0	0	0	0
7.730675	-0.2689158	0.2548588	1.799079E-06	0.07378922	5.429943E-05	2.227091
7.747331	-0.2689158	0.2548588	0	0	-5.415525E-05	-2.221177
7.763813	-0.2689158	0.2548588	0	0	0	0
7.802635	-0.2664711	0.2560812	0.06297212	0.03148606	1.138643	0.5693216
7.819205	-0.2530253	0.2463024	0.8114496	-0.5901457	13.51243	-11.22245
7.835773	-0.2481359	0.2426354	0.295105	-0.2213285	-15.58152	11.12964
7.852346	-0.2408019	0.237746	0.442546	-0.2950313	4.448947	-2.223937
7.868903	-0.216355	0.2169662	1.476551	-1.255068	31.21128	-28.97855
7.885469	-0.1540154	0.1802958	3.763041	-2.213554	69.03024	-28.93715
7.902036	-0.1173451	0.1680724	2.213426	-0.7378082	-46.7688	44.53937
7.91881	-0.08678646	0.1619606	1.821764	-0.3643532	-11.74701	11.20093
7.935175	-0.06233957	0.1595159	1.493891	-0.1493897	-9.893952	6.486772
7.966397	-0.04033737	0.1607383	0.7046942	0.03915008	-16.58433	3.962009
7.988341	-0.003667034	0.1582936	1.67112	-0.1114078	18.17754	-2.831849
8.004912	-0.002444689	0.1582936	0.07376176	0	-41.47356	2.892575
8.021541	-0.002444689	0.1582936	0	0	-2.221754	0
8.038046	-0.002444689	0.1582936	0	0	0	0
8.054613	-0.002444689	0.1582936	0	0	0	0
8.07121	-0.002444689	0.1582936	0	0	0	0
8.087746	-0.002444689	0.1582936	0	0	0	0
8.106922	-0.002444689	0.1582936	0	0	0	0
8.123492	-0.002444689	0.1582936	0	0	0	0
8.140368	-0.002444689	0.1582936	0	0	0	0
8.156626	-0.002444689	0.1582936	0	0	0	0
8.173193	-0.002444689	0.1582936	0	0	0	0
8.189785	-0.002444689	0.1582936	0	0	0	0
8.206329	-0.002444689	0.1582936	0	0	0	0
8.222896	-0.002444689	0.1582936	0	0	0	0
8.239459	-0.002444689	0.1582936	0	0	0	0
8.267135	-0.002444689	0.1582936	0	0	0	0
8.283706	-0.002444689	0.1582936	0	0	0	0
8.300271	-0.002444689	0.1582936	0	0	0	0
8.317136	-0.002444689	0.1582936	0	0	0	0
8.333401	-0.002444689	0.1582936	0	0	0	0
8.349969	-0.002444689	0.1582936	0	0	0	0
8.366534	-0.002444689	0.1582936	0	0	0	0
8.383209	-0.002444689	0.1582936	0	0	0	0
8.400219	-0.002444689	0.1582936	0	0	0	0
8.416234	-0.002444689	0.1582936	0	0	0	0
8.4328	-0.002444689	0.1582936	0	0	0	0
8.449368	-0.002444689	0.1582936	0	0	0	0
8.46628	-0.002444689	0.1582936	0	0	0	0
8.4825	-0.002444689	0.1582936	0	0	0	0
8.499407	-0.002444689	0.1582936	0	0	0	0
8.515636	-0.002444689	0.1582936	0	0	0	0
8.532976	-0.002444689	0.1582936	0	0	0	0
8.548771	-0.002444689	0.1582936	0	0	0	0
8.574306	-0.002444689	0.1582936	0	0	0	0
8.590875	-0.002444689	0.1582936	0	0	0	0
8.607439	-0.002444689	0.1582936	0	0	0	0
8.624008	-0.002444689	0.1582936	0	0	0	0
8.640574	-0.008556412	0.1570713	-0.3689255	-0.07378497	-11.13387	-2.226771
8.657471	-0.01344579	0.1558489	-0.2893765	-0.07234488	2.377259	0.04303577
8.673708	-0.01466813	0.1546266	-0.07528026	-0.07528009	6.461623	-0.08858709
8.690275	-0.01466813	0.1546266	0	0	2.294816	2.294811
8.707206	-0.01466813	0.1546266	0	0	0	0
8.734723	-0.01466813	0.1546266	0	0	0	0
8.751292	-0.01466813	0.1546266	0	0	0	0
8.767859	-0.01466813	0.1546266	0	0	0	0
8.784427	-0.01466813	0.1546266	0	0	0	0
8.800991	-0.01466813	0.1546266	0	0	0	0
8.817561	-0.01466813	0.1546266	0	0	0	0
8.843041	-0.01466813	0.1546266	0	0	0	0
8.859611	-0.01466813	0.1546266	0	0	0	0
8.88524	-0.01466813	0.1546266	0	0	0	0
8.901806	0.002444689	0.1534042	1.032991	-0.07378497	24.48118	-1.748653
8.918544	0.002444689	0.1534042	0	0	-31.01684	2.215484
8.934996	0.0440044	0.1558489	2.526144	0.1485965	76.11213	4.477176
8.951614	0.1637942	0.1766288	7.208118	1.250387	141.5753	33.31636
8.968076	0.2420242	0.1974086	4.752341	1.262341	-74.2373	0.361353
8.984641	0.3006968	0.2206332	3.54189	1.401998	-36.65069	4.22861
9.001211	0.330033	0.2353013	1.770433	0.8852176	-53.46112	-15.59601
9.018041	0.3508129	0.2475248	1.234728	0.7263106	-16.03928	-4.757754
9.04129	0.3630363	0.2560812	0.5257496	0.3680249	-17.68948	-8.939463
9.057858	0.369148	0.2609705	0.3689018	0.2951211	-3.939231	-1.830977
9.074427	0.369148	0.2609705	0	0	-11.13284	-8.90626
9.091524	0.369148	0.2609705	0	0	0	0
9.10756	0.369148	0.2609705	0	0	0	0
9.124126	0.369148	0.2609705	0	0	0	0
9.140835	0.369148	0.2609705	0	0	0	0
9.15726	0.369148	0.2609705	0	0	0	0
9.173892	0.369148	0.2609705	0	0	0	0
9.190392	0.369148	0.2609705	0	0	0	0
9.206959	0.369148	0.2609705	0	0	0	0
9.223524	0.369148	0.2609705	0	0	0	0
9.240092	0.369148	0.2609705	0	0	0	0
9.256659	0.369148	0.2609705	0	0	0	0
9.273225	0.369148	0.2609705	0	0	0	0
9.290111	0.369148	0.2609705	0	0	0	0
9.306704	0.3667033	0.2597482	-0.1473325	-0.07366623	-4.400777	-2.200389
9.322926	0.3581469	0.2511918	-0.5274581	-0.5274563	-11.58391	-13.82875
9.352074	0.3361447	0.2243002	-0.7548403	-0.9225841	-5.011717	-8.70899
9.368643	0.2933627	0.16685	-2.582033	-3.467302	-39.96727	-55.66211
9.385207	0.2762499	0.1485149	-1.03311	-1.106904	46.74794	71.23901
9.401774	0.2298008	0.09839874	-2.803673	-3.025015	-53.4403	-57.8937
9.418644	0.1723506	0.04339323	-3.405556	-3.26064	-18.00062	-7.046883
9.434907	0.1038993	-0.017724	-4.209018	-3.758052	-24.24994	-15.01279
9.451477	0.04278206	-0.07517419	-3.688406	-3.467102	15.85632	8.861486
9.468233	-0.003667033	-0.1289573	-2.772078	-3.209774	27.49579	7.721505
9.484879	-0.02811392	-0.1644053	-1.468601	-2.129471	39.0234	32.34202
9.509629	-0.03544799	-0.1802958	-0.2963288	-0.6420453	28.31838	35.93151
9.526196	-0.03667033	-0.1839628	-0.07378095	-0.2213422	5.386353	10.18233
9.542763	-0.03667033	-0.1839628	0	0	2.226778	6.680313
9.559427	-0.03667033	-0.1839628	0	0	0	0
9.575942	-0.03667033	-0.1839628	0	0	0	0
9.592463	-0.03667033	-0.1839628	0	0	0	0
9.609031	-0.04767143	-0.1741841	-0.6640276	0.5902458	-20.06812	17.8383
9.625968	-0.06967364	-0.1570713	-1.299042	1.010367	-18.95311	12.53924
9.642163	-0.1014546	-0.1362914	-1.962357	1.283079	-20.02005	8.230956
9.658883	-0.1601271	-0.1118445	-3.509161	1.462151	-46.99371	5.440412
9.675295	-0.220022	-0.1045105	-3.649506	0.4468778	-4.235989	-30.64365
9.691865	-0.2481359	-0.1045105	-1.696667	0	59.20944	-13.54919
9.708431	-0.25547	-0.1045105	-0.4427107	0	37.8423	0
9.725059	-0.2664711	-0.1069551	-0.6616271	-0.1470283	-6.595141	-4.429417
9.741563	-0.2713605	-0.1106222	-0.2962484	-0.2221868	11.0281	-2.268484
9.758132	-0.2738052	-0.1118445	-0.1475463	-0.07377268	4.496122	4.487411
9.774698	-0.2738052	-0.1118445	0	0	4.452827	2.2264
9.792017	-0.2738052	-0.1118445	0	0	0	0
9.81107	-0.2738052	-0.1118445	0	0	0	0
9.827641	-0.2738052	-0.1118445	0	0	0	0
9.844207	-0.2738052	-0.1118445	0	0	0	0
9.860773	-0.2738052	-0.1118445	0	0	0	0
9.877337	-0.2738052	-0.1118445	0	0	0	0
9.893907	-0.2725828	-0.1118445	0.07377403	0	2.226569	0
9.910547	-0.2676934	-0.1057328	0.2938206	0.3672766	6.625951	11.05928
9.927054	-0.2566923	-0.09717638	0.6664434	0.5183462	11.24125	4.557453
9.943693	-0.2469136	-0.08861998	0.5877094	0.5142454	-2.375378	-0.1237196
9.969454	-0.2322455	-0.07517418	0.5694008	0.5219509	-0.4318108	0.1817363
9.986089	-0.2187997	-0.0617284	0.8082862	0.8082858	5.634676	6.753884
10.00259	-0.216355	-0.05928371	0.1481165	0.1481159	-19.92052	-19.92053
10.01916	-0.2114656	-0.05194964	0.2952079	0.4428127	4.448186	8.911923
10.03572	-0.2077986	-0.04706026	0.2213549	0.2951403	-2.229271	-4.457531
10.05229	-0.2065762	-0.04461557	0.07378587	0.1475702	-4.453899	-4.453933
10.06886	-0.2065762	-0.04339323	0	0.07378497	-2.22699	-2.22697
10.0856	-0.2139103	-0.03972619	-0.4380456	0.219023	-13.15097	4.360327
10.10199	-0.2224667	-0.03605916	-0.5219654	0.2236989	-2.532632	0.1411143
10.12888	-0.259137	-0.0262804	-1.363532	0.3636089	-19.44185	3.2322
10.14545	-0.3043638	-0.01894634	-2.729423	0.4426086	-31.42601	1.817601
10.16202	-0.3043638	-0.01894634	0	0	82.36939	-13.35719
10.17859	-0.3202543	-0.01650165	-0.959096	0.1475533	-28.94558	4.453167
10.19515	-0.3373671	-0.01161227	-1.033051	0.2951573	-2.232027	4.454827
10.21201	-0.3422565	-0.00794524	-0.2900308	0.2175236	22.23052	-2.322736
10.22829	-0.3434788	-0.00550055	-0.07511061	0.1502252	6.486866	-2.031244
10.24485	-0.3398117	0.001833517	0.2213549	0.4427106	9.027636	8.906438
10.26142	-0.330033	0.01038993	0.5902458	0.516466	11.13347	2.226005
10.28253	-0.3214766	0.01650165	0.4053704	0.2895498	-4.907123	-6.023006
10.29909	-0.2823616	0.03972619	2.360987	1.401836	51.90767	29.52327
10.31567	-0.2725828	0.04461557	0.5899062	0.2949538	-53.43594	-33.39617
10.33223	-0.2579147	0.04950495	0.8856764	0.2952255	8.925334	0.008200112
10.3488	-0.2505806	0.04828261	0.4426844	-0.07378072	-13.37184	-11.13855
10.36536	-0.2408019	0.04339323	0.5903844	-0.2951916	4.45811	-6.682962
10.38193	-0.2273561	0.03483682	0.8114488	-0.5163768	6.671926	-6.675576
10.3985	-0.2187997	0.02628041	0.5166147	-0.5166149	-8.898623	-0.007186906
10.41506	-0.2114656	0.02016868	0.4426852	-0.3689044	-2.231516	4.458553
10.44158	-0.2077986	0.01650165	0.1383155	-0.1383152	-7.065323	5.352659
10.45839	-0.2004645	0.01161227	0.4361822	-0.290788	6.87495	-3.519169
10.47471	-0.1992421	0.01161227	0.07489737	0	-10.9036	8.776
10.49127	-0.1980198	0.01161227	0.07378922	0	-0.03369731	0
10.50789	-0.1931304	0.01161227	0.2943266	0	6.647223	0
10.52879	-0.180907	0.01161227	0.5848072	-4.455731E-08	7.743312	-1.18776E-06
10.54538	-0.141792	0.01161227	2.357052	1.122421E-07	47.26419	4.181701E-06
10.56193	-0.141792	0.01161227	0	0	-71.12983	-3.387181E-06
10.57859	-0.1197898	0.01527931	1.32038	0.2200631	39.7633	6.627211
10.59506	-0.1014546	0.01894634	1.113443	0.2226885	-6.246092	0.07924403
10.61162	-0.07578536	0.02261337	1.549487	0.2213555	13.20012	-0.04035308
10.62819	-0.07578536	0.02261337	0	0	-46.76496	-6.680714
10.64483	-0.06111723	0.02261337	0.8817159	0	26.55521	0
10.66133	-0.03667033	0.02383572	1.481673	0.07408351	18.10622	2.23578
10.67789	-0.01833517	0.02383572	1.106777	1.12436E-07	-11.3379	-2.240484
10.69475	0.003667034	0.02383572	1.305363	-1.105084E-07	5.941864	-6.670683E-06
10.71102	0.0110011	0.02261337	0.4505963	-0.07509924	-25.79913	-2.266692
10.72759	0.01344579	0.02261337	0.1475617	-1.124295E-07	-9.226599	2.286569
10.7443	0.01466813	0.02261337	0.07317434	0	-2.235748	3.379123E-06
10.7608	0.01466813	0.02261337	0	0	-2.203269	0
10.77729	0.01466813	0.02261337	0	0	0	0
10.79386	0.01466813	0.02261337	0	0	0	0
10.81042	0.01466813	0.02261337	0	0	0	0
10.82699	0.01466813	0.02261337	0	0	0	0
10.84356	0.01466813	0.02261337	0	0	0	0
10.86013	0.01466813	0.02261337	0	0	0	0
10.8767	0.01466813	0.02261337	0	0	0	0
10.89335	0.01466813	0.02261337	0	0	0	0
10.90983	0.01466813	0.02261337	0	0	0	0
10.92639	0.01466813	0.02261337	0	0	0	0
10.94299	0.01466813	0.02261337	0	0	0	0
10.95992	0.01466813	0.02261337	0	0	0	0
10.97609	0.01466813	0.02261337	0	0	0	0
10.99266	0.01466813	0.02261337	0	0	0	0
11.00923	0.01466813	0.02261337	0	0	0	0
11.02579	0.01466813	0.02261337	0	0	0	0
11.04236	0.01466813	0.02261337	0	0	0	0
11.05892	0.01466813	0.02261337	0	0	0	0
11.07985	0.01466813	0.02261337	0	0	0	0
11.09642	0.01466813	0.02261337	0	0	0	0
11.11299	0.01466813	0.02261337	0	0	0	0
11.12955	0.01466813	0.02261337	0	0	0	0
11.14612	0.01466813	0.02261337	0	0	0	0
11.16269	0.01466813	0.02261337	0	0	0	0
11.17926	0.01466813	0.02261337	0	0	0	0
11.19582	0.01466813	0.02261337	0	0	0	0
11.21239	0.01466813	0.02261337	0	0	0	0
11.23241	0.01466813	0.02261337	0	0	0	0
11.24924	0.01466813	0.02261337	0	0	0	0
11.26554	0.01466813	0.02261337	0	0	0	0
11.28236	0.01466813	0.02261337	0	0	0	0
11.29868	0.01466813	0.02261337	0	0	0	0
11.31525	0.01466813	0.02261337	0	0	0	0
11.33182	0.01466813	0.02261337	0	0	0	0
11.36047	0.01466813	0.02261337	0	0	0	0
11.38935	0.01466813	0.02261337	0	0	0	0
11.40603	0.01466813	0.02261337	0	0	0	0
11.42249	0.01466813	0.02261337	0	0	0	0
11.43935	0.01466813	0.02261337	0	0	0	0
11.45563	0.01466813	0.02261337	0	0	0	0
11.47219	0.01466813	0.02261337	0	0	0	0
11.48876	0.01466813	0.02261337	0	0	0	0
11.50533	0.01466813	0.02261337	0	0	0	0
11.52195	0.01466813	0.02261337	0	0	0	0
11.54963	0.01466813	0.02261337	0	0	0	0
11.5662	0.01466813	0.02261337	0	0	0	0
11.58277	0.01466813	0.02261337	0	0	0	0
11.59933	0.01466813	0.02261337	0	0	0	0
11.6159	0.01466813	0.02261337	0	0	0	0
11.63247	0.01466813	0.02261337	0	0	0	0
11.64904	0.01466813	0.02261337	0	0	0	0
11.66567	0.01466813	0.02261337	0	0	0	0
11.68217	0.01466813	0.02261337	0	0	0	0
11.70605	0.01466813	0.02261337	0	0	0	0
11.72263	0.01589048	0.02261337	0.07371289	0	1.821801	0
11.73919	0.01833517	0.02139103	0.1476553	-0.07382759	2.231265	-2.2278
11.75575	0.02811392	0.01527931	0.5902809	-0.3689255	13.36308	-8.909151
11.77232	0.04033737	0.00794524	0.7378086	-0.4426851	4.452523	-2.226133
11.78889	0.04889378	0.001833517	0.5164957	-0.3689256	-6.679428	2.226132
11.80545	0.0550055	-0.003055861	0.3689468	-0.2951574	-4.453421	2.22652
11.82202	0.06233956	-0.01038993	0.4427358	-0.4427361	2.227213	-4.454447
11.8391	0.06478427	-0.01283462	0.143098	-0.1430971	-8.904688	8.904723
11.85515	0.06478427	-0.01283462	0	0	-4.319202	4.319178
11.87172	0.06478427	-0.01283462	0	0	0	0
11.88829	0.06478427	-0.01283462	0	0	0	0
11.90486	0.06478427	-0.01283462	0	0	0	0
11.92187	0.06478427	-0.01283462	0	0	0	0
11.93799	0.06478427	-0.01283462	0	0	0	0
11.95487	0.06478427	-0.01283462	0	0	0	0
11.97112	0.06478427	-0.01283462	0	0	0	0
11.98786	0.06478427	-0.01283462	0	0	0	0
12.00437	0.06478427	-0.01283462	0	0	0	0
12.02705	0.06722894	-0.01527931	0.1077796	-0.1077801	2.749759	-2.749773
12.04362	0.07334067	-0.0287251	0.3688833	-0.8115428	6.65226	-17.93009
12.06019	0.07456302	-0.03605916	0.07377693	-0.4426596	-8.905815	11.13228
12.07677	0.0770077	-0.0507273	0.1474681	-0.88481	2.223235	-13.33952
12.09332	0.07823005	-0.06539543	0.07383172	-0.8859823	-2.222414	-0.03537943
12.10989	0.07823005	-0.07639652	0	-0.6641039	-2.229144	6.699003
12.12646	0.07823005	-0.08128591	0	-0.2951408	0	11.13629
12.14302	0.07823005	-0.08495294	0	-0.2213299	0	2.227617
12.1596	0.07823005	-0.08617529	0	-0.07376374	0	4.452914
12.18876	0.07823005	-0.08617529	0	0	0	1.612704
12.2057	0.07823005	-0.08617529	0	0	0	0
12.22227	0.07823005	-0.08617529	0	0	0	0
12.23884	0.07823005	-0.08617529	0	0	0	0
12.25541	0.07823005	-0.08617529	0	0	0	0
12.27197	0.07823005	-0.08617529	0	0	0	0
12.28854	0.07823005	-0.08617529	0	0	0	0
12.30538	0.07823005	-0.08617529	0	0	0	0
12.32195	0.08067473	-0.08495294	0.1475445	0.07377268	4.416419	2.208223
12.33824	0.08434177	-0.06661778	0.225114	1.125567	2.360689	32.00946
12.35481	0.0880088	-0.04950495	0.2213167	1.032813	-0.1155633	-2.82278
12.37138	0.09656522	-0.03116979	0.5164664	1.106713	8.907125	2.23016
12.38794	0.106344	-0.009167584	0.5902807	1.328132	2.227782	6.682634
12.40451	0.1222344	0.01527931	0.9592612	1.475787	11.13682	4.456625
12.42107	0.141792	0.03972619	1.180426	1.475532	6.674956	-0.007688599
12.43781	0.1589048	0.05928371	1.022805	1.16892	-4.733432	-9.207718
12.45448	0.1723506	0.07639653	0.8065292	1.026492	-6.474855	-4.264026
12.47083	0.184574	0.08861998	0.7473597	0.7473592	-1.791567	-8.451717
12.48734	0.1919081	0.09595405	0.4443222	0.4443222	-9.2216	-9.221585
12.51529	0.1967975	0.1008434	0.1749249	0.1749252	-6.059667	-6.05966
12.53186	0.2029092	0.1069551	0.3689258	0.3689253	4.357853	4.357837
12.54843	0.2029092	0.1081775	0	0.07377268	-11.13388	-8.907467
12.56499	0.2053539	0.1118445	0.1475869	0.2213804	4.454311	4.454938
12.58156	0.2090209	0.1167339	0.2213558	0.2951408	2.226605	2.226349
12.59813	0.2151326	0.124068	0.3688408	0.4426084	4.45085	4.450325
12.61475	0.2261337	0.1362914	0.6619318	0.7354805	8.83076	8.824168
12.67163	0.2408019	0.1509595	0.2578395	0.2578395	-5.497236	-6.497787
12.69914	0.3043638	0.2169661	2.311249	2.400143	24.33247	25.38585
12.7157	0.3116978	0.2279673	0.4426607	0.663991	-42.40114	-39.39597
12.73227	0.3129202	0.2316343	0.07377223	0.2213158	-11.13211	-13.35881
12.74928	0.3153649	0.2353013	0.1437791	0.2156695	2.085263	-0.1681835
12.76541	0.3165872	0.2365237	0.07576513	0.07576513	-2.052547	-4.22208
12.78208	0.3165872	0.2365237	0	0	-2.309731	-2.309731
12.79859	0.3165872	0.2365237	0	0	0	0
12.81511	0.3165872	0.2365237	0	0	0	0
12.83168	0.3165872	0.2365237	0	0	0	0
12.85878	0.3178096	0.2365237	0.04510712	0	1.032938	0
12.87535	0.3178096	0.237746	0	0.07376284	-1.032916	1.689108
12.89191	0.3178096	0.237746	0	0	0	-2.225911
12.90868	0.3178096	0.237746	0	0	0	0
12.92505	0.3178096	0.237746	0	0	0	0
12.94161	0.3178096	0.237746	0	0	0	0
12.95827	0.3178096	0.237746	0	0	0	0
12.975	0.3178096	0.237746	0	0	0	0
12.99131	0.3178096	0.237746	0	0	0	0
13.01694	0.3178096	0.237746	0	0	0	0
13.03351	0.3178096	0.237746	0	0	0	0
13.05008	0.3178096	0.237746	0	0	0	0
13.06665	0.3178096	0.237746	0	0	0	0
13.08321	0.3178096	0.237746	0	0	0	0
13.09978	0.3178096	0.237746	0	0	0	0
13.1277	0.3178096	0.237746	0	0	0	0
13.14427	0.3178096	0.237746	0	0	0	0
13.16312	0.3178096	0.237746	0	0	0	0
13.17969	0.3178096	0.237746	0	0	0	0
13.19626	0.3178096	0.237746	0	0	0	0
13.21283	0.3178096	0.237746	0	0	0	0
13.22939	0.3178096	0.237746	0	0	0	0
13.24596	0.3178096	0.237746	0	0	0	0
13.26287	0.3178096	0.237746	0	0	0	0
13.27929	0.3178096	0.237746	0	0	0	0
13.29567	0.3178096	0.237746	0	0	0	0
13.31223	0.3178096	0.237746	0	0	0	0
13.33409	0.3178096	0.237746	0	0	0	0
13.35066	0.3178096	0.237746	0	0	0	0
13.36722	0.3178096	0.237746	0	0	0	0
13.38379	0.3178096	0.237746	0	0	0	0
13.40046	0.3178096	0.237746	0	0	0	0
13.41733	0.3178096	0.237746	0	0	0	0
13.4335	0.3178096	0.237746	0	0	0	0
13.45006	0.3178096	0.237746	0	0	0	0
13.46663	0.3178096	0.237746	0	0	0	0
13.50432	0.3178096	0.237746	0	0	0	0
13.52089	0.3178096	0.237746	0	0	0	0
13.53772	0.3178096	0.237746	0	0	0	0
13.55402	0.3178096	0.237746	0	0	0	0
13.57061	0.3165872	0.237746	-0.07368985	0	-2.240667	0
13.58716	0.3153649	0.237746	-0.07386576	9.004726E-07	-0.005308992	2.717553E-05
13.60373	0.3153649	0.237746	0	0	2.230557	-2.719197E-05
13.6203	0.3153649	0.237746	0	0	0	0
13.63687	0.3153649	0.237746	0	0	0	0
13.66091	0.3153649	0.237746	0	0	0	0
13.67789	0.3153649	0.237746	0	0	0	0
13.69405	0.3153649	0.237746	0	0	0	0
13.71061	0.3153649	0.237746	0	0	0	0
13.72718	0.3153649	0.237746	0	0	0	0
13.74385	0.3153649	0.237746	0	0	0	0
13.76031	0.3153649	0.237746	0	0	0	0
13.77717	0.3153649	0.237746	0	0	0	0
13.79345	0.3153649	0.237746	0	0	0	0
13.81026	0.3153649	0.237746	0	0	0	0
13.8269	0.3141425	0.237746	-0.0734401	-8.952616E-07	-2.195323	-2.676178E-05
13.8434	0.3141425	0.237746	0	0	2.216108	2.701516E-05
13.85996	0.3141425	0.237746	0	0	0	0
13.87653	0.3141425	0.237746	0	0	0	0
13.89315	0.3141425	0.237746	0	0	0	0
13.90967	0.3141425	0.237746	0	0	0	0
13.92623	0.3141425	0.237746	0	0	0	0
13.9428	0.3141425	0.237746	0	0	0	0
13.98708	0.3141425	0.237746	0	0	0	0
14.0037	0.3141425	0.237746	0	0	0	0
14.02022	0.3141425	0.237746	0	0	0	0
14.03679	0.3141425	0.237746	0	0	0	0
14.05335	0.3141425	0.237746	0	0	0	0
14.06992	0.3141425	0.237746	0	0	0	0
14.08648	0.3141425	0.237746	0	0	0	0
14.10305	0.3141425	0.237746	0	0	0	0
14.12633	0.3141425	0.237746	0	0	0	0
14.1429	0.3141425	0.237746	0	0	0	0
14.15961	0.3141425	0.237746	0	0	0	0
14.17617	0.3141425	0.237746	0	0	0	0
14.1926	0.3141425	0.237746	0	0	0	0
14.20916	0.3141425	0.237746	0	0	0	0
14.22578	0.3141425	0.237746	0	0	0	0
14.2423	0.3116978	0.237746	-0.1480387	9.023447E-07	-4.467816	2.723282E-05
14.25886	0.3043638	0.2353013	-0.4427353	-0.1475784	-8.908834	-4.461401
14.28716	0.2884733	0.2304119	-0.5615521	-0.1727855	-2.648451	-0.5618702
14.30373	0.2359125	0.2145215	-3.172212	-0.9590399	-58.18721	-17.52429
14.3203	0.2212444	0.2108544	-0.8852686	-0.2213167	69.01216	22.26197
14.33686	0.1919081	0.1998533	-1.770944	-0.6641057	-26.72974	-13.3634
14.35343	0.1564601	0.1864075	-2.139768	-0.8116365	-11.13209	-4.452875
14.37	0.1222345	0.1754064	-2.065983	-0.6640648	2.226952	4.45398
14.38656	0.07945239	0.159516	-2.582479	-0.9592065	-15.58878	-8.907907
14.40369	0.05989488	0.1521819	-1.141908	-0.4282158	42.7554	15.75952
14.4197	0.0440044	0.1472925	-0.9925764	-0.3054084	4.506587	3.706123
14.44342	0.03789268	0.1448478	-0.2576219	-0.1030486	18.49736	5.092999
14.46004	0.0330033	0.1424031	-0.2943273	-0.1471642	-0.909999	-1.093712
14.47656	0.0330033	0.1424031	0	0	8.882814	4.441424
14.49312	0.03055861	0.1399585	-0.1475701	-0.147569	-4.459835	-4.459804
14.50979	0.02933627	0.1387361	-0.07334188	-0.07334255	2.233589	2.233539
14.52629	0.02689158	0.1362914	-0.1481502	-0.1481508	-2.255448	-2.255445
14.54283	0.0220022	0.131402	-0.2956339	-0.2956334	-4.463785	-4.463754
14.5594	0.01466813	0.124068	-0.4427107	-0.4427107	-4.44275	-4.442766
14.57596	0.004889378	0.1118445	-0.5904168	-0.738021	-4.458551	-8.914021
14.5999	-0.01589048	0.08984231	-0.8678213	-0.9188699	-6.848256	-4.464597
14.61647	-0.0330033	0.06539543	-1.032873	-1.475532	-4.074027	-13.74032
14.63332	-0.03911503	0.05683902	-0.3628679	-0.5080144	20.0534	28.95803
14.64961	-0.05011613	0.04094854	-0.6751822	-0.9752636	-9.425123	-14.1008
14.66635	-0.05867254	0.0262804	-0.5110239	-0.8760411	4.968894	3.003358
14.68274	-0.06356192	0.01527931	-0.2982829	-0.6711361	6.420352	6.183867
14.69958	-0.06845129	0.006722894	-0.2903598	-0.5081298	0.2384273	4.905282
14.71587	-0.06967364	0.00550055	-0.0750289	-0.07502902	6.499448	13.07251
14.73244	-0.06967364	0.00550055	0	0	2.283436	2.283439
14.7595	-0.06967364	0.003055861	0	-0.09035751	0	-2.071374
14.77606	-0.06967364	-0.01283462	0	-0.9592063	0	-19.91767
14.79294	-0.06845129	-0.01894634	0.07242167	-0.362109	2.165435	17.85343
14.8092	-0.06478426	-0.03361447	0.2255625	-0.9022498	4.621667	-16.30101
14.82576	-0.05989488	-0.04828261	0.2951743	-0.8855234	2.120911	0.509614
14.84233	-0.04767144	-0.06906246	0.7377661	-1.254202	13.35822	-11.12739
14.8589	-0.04278206	-0.07395184	0.2951236	-0.2951233	-13.35859	28.94423
14.87546	-0.03544799	-0.0837306	0.4427105	-0.5902811	4.454311	-8.908136
14.89203	-0.03178095	-0.08617528	0.2213174	-0.147544	-6.681466	13.36145
14.91675	-0.03055861	-0.08739763	0.04945284	-0.04945314	-4.162733	2.37586
14.93332	-0.03055861	-0.08739763	0	0	-1.197798	1.197805
14.95	-0.03055861	-0.08739763	0	0	0	0
14.96645	-0.03055861	-0.08739763	0	0	0	0
14.98302	-0.03055861	-0.08739763	0	0	0	0
14.99976	-0.03055861	-0.08739763	0	0	0	0
15.01615	-0.02933627	-0.08617529	0.07454898	0.07454887	2.250152	2.250149
15.03272	-0.02933627	-0.08617529	0	0	-2.261348	-2.261344
15.04949	-0.02811392	-0.08495294	0.07288313	0.07288291	2.185964	2.185958
15.07177	-0.02811392	-0.08495294	0	0	-1.866674	-1.866668
15.08858	-0.02811392	-0.08495294	0	0	0	0
15.10492	-0.02811392	-0.08495294	0	0	0	0
15.12147	-0.02811392	-0.08495294	0	0	0	0
15.13816	-0.02811392	-0.08495294	0	0	0	0
15.1546	-0.02811392	-0.08495294	0	0	0	0
15.17117	-0.02811392	-0.08495294	0	0	0	0
15.18774	-0.02811392	-0.08495294	0	0	0	0
15.20464	-0.02811392	-0.08495294	0	0	0	0
15.22087	-0.02811392	-0.08495294	0	0	0	0
15.23744	-0.02811392	-0.08495294	0	0	0	0
15.254	-0.02811392	-0.08495294	0	0	0	0
15.27057	-0.02811392	-0.08495294	0	0	0	0
15.28719	-0.02811392	-0.08495294	0	0	0	0
15.30448	-0.02811392	-0.08495294	0	0	0	0
15.32027	-0.02811392	-0.08495294	0	0	0	0
15.33684	-0.02811392	-0.08495294	0	0	0	0
15.3534	-0.02811392	-0.08495294	0	0	0	0
15.36997	-0.02811392	-0.08495294	0	0	0	0
15.38654	-0.02811392	-0.08495294	0	0	0	0
15.40311	-0.02811392	-0.08495294	0	0	0	0
15.41985	-0.02811392	-0.08495294	0	0	0	0
15.43653	-0.02811392	-0.08495294	0	0	0	0
15.45295	-0.02811392	-0.08495294	0	0	0	0
15.46938	-0.02811392	-0.08495294	0	0	0	0
15.48594	-0.02811392	-0.08495294	0	0	0	0
15.50251	-0.02811392	-0.08373059	-1.124489E-07	0.07379392	-3.39391E-06	2.227233
15.51907	-0.02689158	-0.08250825	0.07378519	0.07378497	2.227101	-0.0002700867
15.55027	-0.02689158	-0.0812859	0	0.03918095	-1.544792	-0.7244817
15.56684	-0.02566923	-0.08128591	0.07376385	-4.496144E-07	1.544191	-0.8202336
15.58341	-0.02566923	-0.08128591	0	0	-2.226005	1.356822E-05
15.60051	-0.02566924	-0.08006357	-1.089306E-07	0.0714846	-3.235658E-06	2.123369
15.61655	-0.02566924	-0.08006357	0	0	3.287342E-06	-2.157285
15.63311	-0.02566924	-0.08006357	0	0	0	0
15.64997	-0.02566923	-0.07884122	2.209542E-07	0.07249995	6.610949E-06	2.169198
15.68448	-0.02444689	-0.07761887	0.0354154	0.0354154	0.6893541	-0.7218482
15.72176	-0.02322455	-0.07272949	0.03278897	0.1311561	-0.03658314	1.333555
15.73833	-0.01955751	-0.06050605	0.2213044	0.7376807	3.500802	11.26339
15.7549	-0.01833517	-0.05806137	0.07378934	0.1475787	-4.451885	-17.8088
15.77146	-0.01711282	-0.05317198	0.07378083	0.2951236	-0.0002565788	4.45317
15.78803	-0.01589048	-0.04828261	0.07378508	0.2951403	0.0001281733	0.0005054975
15.8046	-0.01589048	-0.04583792	0	0.1475789	-2.227031	-4.453797
15.82117	-0.01589048	-0.04339323	1.123907E-07	0.1475107	3.391566E-06	-0.002057223
15.83794	-0.01589048	-0.04339323	0	0	-3.370807E-06	-4.424123
15.8543	-0.01589048	-0.04339323	0	0	0	0
15.89085	-0.01589048	-0.04339323	0	0	0	0
15.90742	-0.01589048	-0.04339323	0	0	0	0
15.92399	-0.01589048	-0.04339323	0	0	0	0
15.94056	-0.01466813	-0.04339323	0.07378497	0	2.226963	0
15.95739	-0.01466813	-0.04217089	5.532619E-08	0.07261451	-2.209157	2.174114
15.97391	-0.01466813	-0.04217089	0	0	-1.658625E-06	-2.176912
15.99025	-0.01466813	-0.04217089	0	0	0	0
16.00688	-0.01466813	-0.04217089	0	0	0	0
16.02339	-0.01466813	-0.04217089	0	0	0	0
16.04275	-0.01466813	-0.04217089	0	0	0	0
16.05932	-0.01466813	-0.04217089	0	0	0	0
16.07589	-0.01466813	-0.04217089	0	0	0	0
16.09245	-0.01466813	-0.04217089	0	0	0	0
16.10902	-0.01466813	-0.04217089	0	0	0	0
16.12559	-0.01466813	-0.04217089	0	0	0	0
16.14256	-0.01466813	-0.04217089	0	0	0	0
16.15872	-0.01466813	-0.04217089	0	0	0	0
16.17529	-0.01466813	-0.04217089	0	0	0	0
16.19664	-0.01466813	-0.04217089	0	0	0	0
16.21324	-0.01466813	-0.04217089	0	0	0	0
16.23012	-0.01466813	-0.04217089	0	0	0	0
16.24635	-0.01466813	-0.04217089	0	0	0	0
16.26291	-0.01466813	-0.04217089	0	0	0	0
16.27969	-0.01466813	-0.04217089	0	0	0	0
16.29605	-0.01466813	-0.04217089	0	0	0	0
16.31283	-0.01466813	-0.04217089	0	0	0	0
16.32918	-0.01466813	-0.04217089	0	0	0	0
16.35391	-0.01466813	-0.04094854	0	0.04943392	0	1.203399
16.37048	-0.01466813	-0.04094854	0	0	0	-1.197063
16.38704	-0.01466813	-0.04094854	0	0	0	0
16.40361	-0.01466813	-0.04094854	0	0	0	0
16.42018	-0.01466813	-0.04094854	0	0	0	0
16.4369	-0.01466813	-0.04094854	0	0	0	0
16.45331	-0.01466813	-0.03972619	5.673731E-08	0.0744668	1.712434E-06	2.247542
16.47028	-0.01466813	-0.03972619	0	0	-1.699714E-06	-2.230847
16.48644	-0.01466813	-0.03850385	-5.76211E-08	0.07562655	-1.739309E-06	2.282808
16.51371	-0.01466813	-0.03850385	0	0	1.326748E-06	-1.74133
16.53028	-0.01466813	-0.03850385	0	0	0	0
16.54685	-0.01466813	-0.03850385	0	0	0	0
16.57349	-0.01466813	-0.03850385	0	0	0	0
16.59007	-0.01466813	-0.03850385	0	0	0	0
16.60663	-0.01466813	-0.03850385	0	0	0	0
16.6232	-0.01466813	-0.03850385	0	0	0	0
16.6404	-0.01466813	-0.03850385	0	0	0	0
16.66276	-0.01466813	-0.03850385	0	0	0	0
16.67933	-0.01466813	-0.03850385	0	0	0	0
16.69615	-0.01466813	-0.03850385	0	0	0	0
16.71246	-0.01466813	-0.03850385	0	0	0	0
16.72934	-0.01466813	-0.03850385	0	0	0	0
16.74559	-0.01466813	-0.03850385	0	0	0	0
16.76216	-0.01466813	-0.03850385	0	0	0	0
16.77873	-0.01466813	-0.03850385	0	0	0	0
16.79609	-0.01466813	-0.03850385	0	0	0	0
16.81186	-0.01466813	-0.03850385	0	0	0	0
16.82854	-0.01466813	-0.03850385	0	0	0	0
16.845	-0.01466813	-0.03850385	0	0	0	0
16.86156	-0.01466813	-0.03850385	0	0	0	0
16.87813	-0.01466813	-0.03850385	0	0	0	0
16.8947	-0.01466813	-0.03850385	0	0	0	0
16.91126	-0.01466813	-0.03850385	0	0	0	0
16.92845	-0.01466813	-0.03850385	0	0	0	0
16.9444	-0.01466813	-0.03850385	0	0	0	0
16.97372	-0.01466813	-0.03850385	0	0	0	0
16.99029	-0.01466813	-0.03850385	0	0	0	0
17.00728	-0.01466813	-0.03850385	0	0	0	0
17.02343	-0.01466813	-0.03850385	0	0	0	0
17.04	-0.01466813	-0.03850385	0	0	0	0
17.05656	-0.01466813	-0.03850385	0	0	0	0
17.07343	-0.01466813	-0.03850385	0	0	0	0
17.08969	-0.01466813	-0.03850385	0	0	0	0
17.10626	-0.01466813	-0.03850385	0	0	0	0
17.13447	-0.01466813	-0.03850385	0	0	0	0
17.15104	-0.01466813	-0.03850385	0	0	0	0
17.1676	-0.01466813	-0.03850385	0	0	0	0
17.18444	-0.01466813	-0.03850385	0	0	0	0
17.20074	-0.01466813	-0.03850385	0	0	0	0
17.2177	-0.01466813	-0.03850385	0	0	0	0
17.23387	-0.01466813	-0.03850385	0	0	0	0
17.25044	-0.01466813	-0.03850385	0	0	0	0
17.26701	-0.01466813	-0.03850385	0	0	0	0
17.30317	-0.01466813	-0.03850385	0	0	0	0
17.31985	-0.01466813	-0.03850385	0	0	0	0
17.33631	-0.01466813	-0.03850385	0	0	0	0
17.35321	-0.01466813	-0.03850385	0	0	0	0
17.3695	-0.01466813	-0.03850385	0	0	0	0
17.38613	-0.01466813	-0.03850385	0	0	0	0
17.40574	-0.01466813	-0.03850385	0	0	0	0
17.42231	-0.01466813	-0.03850385	0	0	0	0
17.43888	-0.01466813	-0.03850385	0	0	0	0
17.47009	-0.01466813	-0.03850385	0	0	0	0
17.48685	-0.01466813	-0.03850385	0	0	0	0
17.50322	-0.01466813	-0.03850385	0	0	0	0
17.51979	-0.01466813	-0.03850385	0	0	0	0
17.53636	-0.01466813	-0.03850385	0	0	0	0
17.55295	-0.01466813	-0.03850385	0	0	0	0
17.56949	-0.01466813	-0.03850385	0	0	0	0
17.58606	-0.01466813	-0.03850385	0	0	0	0
17.61904	-0.01466813	-0.03850385	0	0	0	0
17.63561	-0.01466813	-0.03850385	0	0	0	0
17.65218	-0.01466813	-0.03850385	0	0	0	0
17.66875	-0.01466813	-0.03850385	0	0	0	0
17.68532	-0.01466813	-0.03850385	0	0	0	0
17.70189	-0.01466813	-0.03850385	0	0	0	0
17.71871	-0.01466813	-0.03850385	0	0	0	0
17.7353	-0.01466813	-0.03850385	0	0	0	0
17.75173	-0.01222344	-0.03972619	0.1488124	-0.07440606	4.507253	-2.253622
17.7924	0.003667034	-0.05439433	0.3907137	-0.3606588	4.236569	-5.013325
17.80918	0.07823005	-0.1106222	4.444855	-3.351858	70.57366	-52.07018
17.82569	0.08678646	-0.1179562	0.5181362	-0.4441164	-117.9586	87.34853
17.8421	0.1038993	-0.1289573	1.042655	-0.6702784	15.92996	-6.86868
17.85867	0.1124557	-0.1350691	0.5163471	-0.3688196	-15.95657	9.139608
17.87524	0.1149004	-0.1375138	0.1475614	-0.1475614	-11.12869	6.676816
17.8918	0.1149004	-0.1375138	0	0	-4.453926	4.453926
17.90863	0.1149004	-0.1375138	0	0	0	0
17.92874	0.1149004	-0.1375138	0	0	0	0
17.94531	0.1149004	-0.1375138	0	0	0	0
17.96188	0.1149004	-0.1375138	0	0	0	0
17.97845	0.1149004	-0.1375138	0	0	0	0
17.99502	0.1161227	-0.1436255	0.07377268	-0.3688612	2.226464	-11.13225
18.01159	0.1173451	-0.1509596	0.07376419	-0.4425842	-0.000256295	-2.224583
18.02815	0.1173451	-0.1644053	-4.497179E-07	-0.8115889	-2.225965	-11.1353
18.04503	0.1173451	-0.1754064	4.414341E-07	-0.6517959	2.664501E-05	4.777732
18.06179	0.1161227	-0.1864075	-0.07294186	-0.6564705	-2.168572	-0.1389761
18.08922	0.1149004	-0.1961863	-0.04456629	-0.3565292	0.6421899	6.788208
18.10579	0.1124557	-0.2084097	-0.147561	-0.7378082	-2.34106	-8.666434
18.12235	0.1112333	-0.2108544	-0.07378118	-0.1475614	2.226679	17.81368
18.13892	0.1112333	-0.2132991	0	-0.1475445	2.226592	0.000512649
18.15573	0.110011	-0.2145215	-0.07272576	-0.07272576	-2.178938	2.241645
18.17206	0.110011	-0.2145215	0	0	2.194741	2.194741
18.18874	0.110011	-0.2145215	0	0	0	0
18.20519	0.110011	-0.2145215	0	0	0	0
18.22176	0.110011	-0.2145215	0	0	0	0
18.24337	0.110011	-0.2145215	0	0	0	0
18.25994	0.110011	-0.2145215	0	0	0	0
18.2768	0.110011	-0.2145215	0	0	0	0
18.29307	0.1087887	-0.2145215	-0.07510364	-9.155631E-07	-2.266893	-2.763493E-05
18.30964	0.1087887	-0.2120768	-4.496662E-07	0.1475454	2.286626	4.492261
18.32621	0.1087887	-0.2071874	0	0.2951578	1.357095E-05	4.454952
18.34278	0.1087887	-0.1998533	4.496144E-07	0.4425834	1.356861E-05	4.449056
18.35991	0.1087887	-0.1888522	0	0.6423591	-1.334281E-05	5.928568
18.37592	0.110011	-0.1851852	0.07633822	0.2290147	2.303627	-12.47332
18.40073	0.110011	-0.1815182	0	0.1477662	-1.86972	-1.989984
18.41759	0.113678	-0.1778511	0.2175605	0.2175609	5.220814	1.674869
18.43394	0.113678	-0.1778511	0	0	-6.551281	-6.551294
18.45044	0.1149004	-0.1766288	0.07410492	0.07410492	2.25597	2.25597
18.467	0.1185674	-0.170517	0.2213677	0.368947	4.454398	8.918373
18.48357	0.1222344	-0.1619606	0.2213431	0.5164651	-0.0007420773	4.452361
18.50014	0.1283462	-0.1558489	0.3688621	0.3688621	4.451876	-4.454411
18.51671	0.1320132	-0.1448478	0.2213167	0.663951	-4.452415	8.904776
18.53355	0.1356802	-0.1301797	0.2177088	0.8708332	-0.1079805	6.191681
18.54999	0.1356802	-0.1204009	0	0.5950426	-6.542219	-8.287598
18.56651	0.1344579	-0.1106222	-0.07397661	0.5918138	-2.244635	-0.09796935
18.58297	0.1320132	-0.1081775	-0.1485027	0.1485022	-2.259346	-13.43951
18.59954	0.1149004	-0.08984232	-1.032931	1.106713	-26.77689	29.0107
18.61625	0.07334067	-0.05806137	-2.487359	1.902097	-43.70851	23.90293
18.63267	0.01222344	-0.01038993	-3.720742	2.902179	-37.22358	30.18252
18.64924	-0.09045349	0.05439433	-6.199019	3.911286	-75.12322	30.58874
18.6658	-0.1711282	0.1020658	-4.870098	2.877784	40.11386	-31.19653
18.68246	-0.2481359	0.1521819	-4.62212	3.008046	7.463361	3.920479
18.71683	-0.3153649	0.2035203	-1.956445	1.494013	52.24407	-29.67327
18.73339	-0.4131391	0.2816311	-5.901663	4.714777	-77.46349	63.23901
18.74996	-0.4108318	0.2849863	0.1392508	0.2024973	182.3046	-136.173
18.76653	-0.4093559	0.2871023	0.08908372	0.1277199	-1.513959	-2.256655
18.7831	-0.407337	0.2899596	0.1218365	0.1724253	0.9883674	1.349057
18.79967	-0.404301	0.2941781	0.1832758	0.2546578	1.854133	2.481638
18.81623	-0.403414	0.2953932	0.05354419	0.07335564	-3.915757	-5.47234
18.8328	-0.4016807	0.2977459	0.1046188	0.1420047	1.541523	2.071953
18.84937	-0.4005927	0.2992081	0.06566745	0.08825328	-1.175486	-1.622128
18.86641	-0.3995271	0.3006294	0.06253848	0.08341788	-0.09310332	-0.1438788
18.88257	-0.3994104	0.3007845	0.007219764	0.009592552	-1.66607	-2.223445
18.89906	-0.3994104	0.3007845	0	0	-0.2210744	-0.2937309
18.91563	-0.3994104	0.3007845	0	0	0	0
18.93219	-0.3992943	0.3009387	0.007013617	0.009309506	0.2116958	0.2809938
18.94876	-0.3992943	0.3009387	0	0	-0.2116714	-0.2809615
18.96608	-0.3996479	0.3004688	-0.02042991	-0.02714233	-0.6029699	-0.8010806
18.98222	-0.3996479	0.3004688	0	0	0.6107399	0.8114036
18.99846	-0.3996479	0.3004688	0	0	0	0
19.01503	-0.3996479	0.3004688	0	0	0	0
19.03159	-0.3996479	0.3004688	0	0	0	0
19.04816	-0.3992943	0.3009387	0.02134475	0.02835775	0.6441488	0.8557892
19.06473	-0.3992943	0.3009387	0	0	-0.6441118	-0.85574
19.08153	-0.3992943	0.3009387	0	0	0	0
19.09786	-0.3992943	0.3009387	0	0	0	0
19.11449	-0.3992943	0.3009387	0	0	0	0
19.13183	-0.3992943	0.3009387	0	0	0	0
19.14851	-0.4009461	0.2987344	-0.0990298	-0.1321523	-2.910811	-3.88439
19.16502	-0.4027414	0.2963097	-0.1087683	-0.1468992	-0.2934537	-0.4443713
19.18153	-0.4058551	0.2920303	-0.1885521	-0.2591408	-2.416225	-3.399197
19.1981	-0.4112696	0.2843543	-0.3267796	-0.4632677	-4.178207	-6.170153
19.21467	-0.4124006	0.2827114	-0.06825932	-0.09915319	7.801259	10.98773
19.23124	-0.4140508	0.2802891	-0.0996168	-0.1462327	-0.9463705	-1.420863
19.24788	-0.4152444	0.2785176	-0.0717446	-0.1064714	0.839445	1.197518
19.26437	-0.4152381	0.2785272	0.0003848878	0.0005800422	2.177123	3.231191
19.28094	-0.4155855	0.2780084	-0.02097305	-0.03131116	-0.6460341	-0.9646441
19.2975	-0.4162896	0.276953	-0.04249166	-0.06369971	-0.6493956	-0.977432
19.31407	-0.4168184	0.2761565	-0.03192106	-0.04807859	0.3190214	0.4714464
19.33578	-0.4168184	0.2761565	0	0	0.8338727	1.255955
19.35235	-0.4168184	0.2761565	0	0	0	0
19.36892	-0.4168184	0.2761565	0	0	0	0
19.38549	-0.4168184	0.2761565	0	0	0	0
19.40206	-0.4168184	0.2761565	0	0	0	0
19.41905	-0.4168184	0.2761565	0	0	0	0
19.43519	-0.4168184	0.2761565	0	0	0	0
19.52617	-0.4168184	0.2761565	0	0	0	0
19.55955	-0.4168184	0.2761565	0	0	0	0
19.57612	-0.4168184	0.2761565	0	0	0	0
19.59269	-0.4168184	0.2761565	0	0	0	0
19.60942	-0.4168184	0.2761565	0	0	0	0
19.62586	-0.4168184	0.2761565	0	0	0	0
19.64239	-0.4168184	0.2761565	0	0	0	0
19.65896	-0.4168184	0.2761565	0	0	0	0
19.67553	-0.4168184	0.2761565	0	0	0	0
19.69243	-0.4168184	0.2761565	0	0	0	0
19.71435	-0.4168184	0.2761565	0	0	0	0
19.731	-0.4168184	0.2761565	0	0	0	0
19.7478	-0.4168184	0.2761565	0	0	0	0
19.76406	-0.4168184	0.2761565	0	0	0	0
19.78097	-0.4168184	0.2761565	0	0	0	0
19.79719	-0.4168184	0.2761565	0	0	0	0
19.81399	-0.4168184	0.2761565	0	0	0	0
19.83032	-0.4168184	0.2761565	0	0	0	0
19.84689	-0.4168184	0.2761565	0	0	0	0
19.86346	-0.4168184	0.2761565	0	0	0	0
19.88003	-0.4168184	0.2761565	0	0	0	0
19.89659	-0.4168184	0.2761565	0	0	0	0
19.91331	-0.4168184	0.2761565	0	0	0	0
19.92973	-0.4168184	0.2761565	0	0	0	0
19.94629	-0.4168184	0.2761565	0	0	0	0
19.96286	-0.4168184	0.2761565	0	0	0	0
19.97943	-0.4168184	0.2761565	0	0	0	0
19.99626	-0.4168184	0.2761565	0	0	0	0
20.02682	-0.4168184	0.2761565	0	0	0	0
20.04989	-0.4021513	0.2658599	0.6358331	-0.4463693	11.85532	-8.322702
20.06688	-0.3532576	0.2353013	2.878653	-1.799159	55.99712	-33.77548
20.0832	-0.3349224	0.2230779	1.122872	-0.7485819	-52.7044	31.53583
20.09959	-0.3165872	0.2108544	1.118692	-0.7457942	-0.1277472	0.08520243
20.11616	-0.2848063	0.1876299	1.918523	-1.401998	24.27028	-19.91201
20.13273	-0.2603594	0.16685	1.475277	-1.253985	-13.37644	4.46677
20.1493	-0.2408019	0.1521819	1.180629	-0.8854724	-8.891959	11.1211
20.16594	-0.223689	0.1399585	1.028079	-0.7343419	-4.593398	4.550651
20.18245	-0.2077986	0.1289573	0.9628091	-0.6665607	-1.968946	2.044698
20.199	-0.1992421	0.1216233	0.516943	-0.4430938	-13.4881	6.7602
20.21599	-0.1919081	0.1167339	0.4316036	-0.2877361	-2.544062	4.631384
20.23213	-0.184574	0.1093998	0.4544046	-0.4544037	0.6881764	-5.030326
20.24892	-0.1747953	0.1045105	0.5825332	-0.2912666	3.891346	4.954574
20.26527	-0.1662388	0.09839873	0.5233354	-0.3738106	-1.786492	-2.49104
20.28187	-0.1576824	0.09228701	0.5152795	-0.3680566	-0.2444492	0.1746016
20.29904	-0.1430143	0.08250825	0.8545759	-0.5697174	10.04739	-5.971666
20.32689	-0.1356802	0.08006356	0.2632587	-0.08775316	-13.13368	10.70485
20.34372	-0.1271238	0.07517418	0.5084465	-0.2905408	5.486749	-4.537928
20.36003	-0.1246791	0.07395184	0.1499095	-0.07495432	-10.82004	6.506038
20.37691	-0.1222344	0.0727295	0.1448106	-0.07240531	-0.1536294	0.07680099
20.39316	-0.1161227	0.07028481	0.3760921	-0.1504365	6.980491	-2.355121
20.40973	-0.110011	0.06906246	0.3689041	-0.07378118	-0.2190279	2.335781
20.4263	-0.09778756	0.06295075	0.7377236	-0.3688616	11.13036	-8.905032
20.44299	-0.0880088	0.05928371	0.5858629	-0.2196988	-4.565819	4.484705
20.45943	-0.07823005	0.05439433	0.594904	-0.2974522	0.2729072	-2.34701
20.48947	-0.06967364	0.04950495	0.2848085	-0.1627477	-6.671563	2.898107
20.50604	-0.05133847	0.04217089	1.106586	-0.4426341	17.63025	-6.004626
20.52261	-0.04767143	0.04094854	0.2213683	-0.07378967	-26.71592	11.13175
20.53918	-0.03667033	0.03728151	0.6639512	-0.2213171	13.35718	-4.452388
20.55574	-0.02566923	0.03361448	0.6641042	-0.2213679	0.004617704	-0.00153129
20.57231	-0.01711282	0.03239213	0.5165254	-0.07378945	-4.454449	4.454439
20.58887	-0.007334067	0.02994744	0.590179	-0.1475448	2.222868	-2.225941
20.60545	-0.001222344	0.02750275	0.3687769	-0.1475106	-6.680389	0.001031415
20.62201	0.004889378	0.02628041	0.3690743	-0.07381494	0.008974188	2.224268
20.65003	0.006111722	0.02628041	0.04362267	0	-7.300319	1.655769
20.66674	0.008556411	0.02628041	0.1462651	0	2.294456	0
20.68316	0.008556411	0.02628041	0	0	-4.414034	0
20.69973	0.008556411	0.02628041	0	0	0	0
20.7163	0.008556411	0.02628041	0	0	0	0
20.73287	0.008556411	0.02628041	0	0	0	0
20.74955	0.008556411	0.02628041	0	0	0	0
20.766	0.008556411	0.02628041	0	0	0	0
20.78257	0.008556411	0.02628041	0	0	0	0
20.79913	0.008556411	0.02628041	0	0	0	0
20.8157	0.008556411	0.02628041	0	0	0	0
20.83227	0.008556411	0.02628041	0	0	0	0
20.84885	0.008556411	0.02628041	0	0	0	0
20.8654	0.008556411	0.02628041	0	0	0	0
20.88197	0.008556411	0.02628041	0	0	0	0
20.91753	0.008556411	0.02628041	0	0	0	0
20.93459	0.008556411	0.02628041	0	0	0	0
20.95404	0.008556411	0.02628041	0	0	0	0
20.97061	0.008556411	0.02628041	0	0	0	0
20.98718	0.008556411	0.02628041	0	0	0	0
21.00375	0.008556411	0.02628041	0	0	0	0
21.02031	0.008556411	0.02628041	0	0	0	0
21.03688	0.008556411	0.02628041	0	0	0	0
21.05356	0.008556411	0.02628041	0	0	0	0
21.07001	0.008556411	0.02628041	0	0	0	0
21.08658	0.008556411	0.02628041	0	0	0	0
21.10685	0.008556411	0.02628041	0	0	0	0
21.12342	0.008556411	0.02628041	0	0	0	0
21.13999	0.008556411	0.02628041	0	0	0	0
21.15684	0.008556411	0.02628041	0	0	0	0
21.17346	0.008556411	0.02628041	0	0	0	0
21.18994	0.008556411	0.02628041	0	0	0	0
21.20656	0.008556411	0.02628041	0	0	0	0
21.22282	0.008556411	0.02628041	0	0	0	0
21.23939	0.008556411	0.02628041	0	0	0	0
21.258	0.008556411	0.02628041	0	0	0	0
21.27457	0.008556411	0.02628041	0	0	0	0
21.29113	0.008556411	0.02628041	0	0	0	0
21.3077	0.008556411	0.02628041	0	0	0	0
21.32451	0.008556411	0.02628041	0	0	0	0
21.34118	0.008556411	0.02628041	0	0	0	0
21.35768	0.008556411	0.02628041	0	0	0	0
21.37397	0.008556411	0.02628041	0	0	0	0
21.39054	0.008556411	0.02628041	0	0	0	0
21.40867	0.008556411	0.02628041	0	0	0	0
21.42524	0.008556411	0.02628041	0	0	0	0
21.44181	0.008556411	0.02628041	0	0	0	0
21.45856	0.008556411	0.02628041	0	0	0	0
21.47494	0.008556411	0.02628041	0	0	0	0
21.49151	0.008556411	0.02628041	0	0	0	0
21.50856	0.008556411	0.02628041	0	0	0	0
21.52464	0.008556411	0.02628041	0	0	0	0
21.54121	0.008556411	0.02628041	0	0	0	0
21.5634	0.008556411	0.02628041	0	0	0	0
21.57997	0.008556411	0.02628041	0	0	0	0
21.59684	0.008556411	0.02628041	0	0	0	0
21.61311	0.008556411	0.02628041	0	0	0	0
21.62967	0.008556411	0.02628041	0	0	0	0
21.64624	0.008556411	0.02628041	0	0	0	0
21.66298	0.008556411	0.02628041	0	0	0	0
21.67937	0.008556411	0.02628041	0	0	0	0
21.69595	0.008556411	0.02628041	0	0	0	0
21.71842	0.008556411	0.02628041	0	0	0	0
21.73499	0.008556411	0.02628041	0	0	0	0
21.75155	0.008556411	0.02628041	0	0	0	0
21.76813	0.008556411	0.02628041	0	0	0	0
21.78481	0.008556411	0.02628041	0	0	0	0
21.80125	0.008556411	0.02628041	0	0	0	0
21.81794	0.008556411	0.02628041	0	0	0	0
21.83439	0.008556411	0.02628041	0	0	0	0
21.85095	0.008556411	0.02628041	0	0	0	0
21.86752	0.008556411	0.02628041	0	0	0	0
21.88418	0.008556412	0.02505806	5.58994E-08	-0.07336707	1.682399E-06	-2.208121
21.90072	0.008556412	0.02505806	0	0	-1.683752E-06	2.209897
21.91722	0.008556412	0.02505806	0	0	0	0
21.93409	0.008556412	0.02505806	0	0	0	0
21.95035	0.008556412	0.02505806	0	0	0	0
21.96715	0.008556412	0.02505806	0	0	0	0
21.98349	0.008556412	0.02505806	0	0	0	0
22.00006	0.008556412	0.02505806	0	0	0	0
22.01737	0.008556412	0.02505806	0	0	0	0
22.04301	0.008556412	0.02505806	0	0	0	0
22.05959	0.008556412	0.02505806	0	0	0	0
22.07615	0.008556412	0.02505806	0	0	0	0
22.09272	0.008556412	0.02505806	0	0	0	0
22.10929	0.008556412	0.02505806	0	0	0	0
22.12585	0.008556412	0.02505806	0	0	0	0
22.14242	0.008556412	0.02505806	0	0	0	0
22.15899	0.008556412	0.02505806	0	0	0	0
22.17556	0.008556412	0.02505806	0	0	0	0
22.20196	0.008556412	0.02505806	0	0	0	0
22.21853	0.008556412	0.02505806	0	0	0	0
22.2351	0.008556412	0.02505806	0	0	0	0
22.2518	0.008556412	0.02505806	0	0	0	0
22.26823	0.008556412	0.02505806	0	0	0	0
22.2848	0.008556412	0.02505806	0	0	0	0
22.30136	0.008556412	0.02505806	0	0	0	0
22.31793	0.008556412	0.02505806	0	0	0	0
22.33477	0.008556412	0.02505806	0	0	0	0
22.35106	0.008556412	0.02505806	0	0	0	0
22.36784	0.008556412	0.02505806	0	0	0	0
22.3842	0.008556412	0.02505806	0	0	0	0
22.40083	0.008556412	0.02505806	0	0	0	0
22.41733	0.008556412	0.02505806	0	0	0	0
22.4339	0.008556412	0.02505806	0	0	0	0
22.45062	0.008556412	0.02505806	0	0	0	0
22.46703	0.008556412	0.02505806	0	0	0	0
22.4836	0.008556412	0.02505806	0	0	0	0
22.51389	0.008556412	0.02505806	0	0	0	0
22.53046	0.008556412	0.02505806	0	0	0	0
22.54807	0.008556412	0.02505806	0	0	0	0
22.56519	0.008556412	0.02505806	0	0	0	0
22.58134	0.008556412	0.02505806	0	0	0	0
22.59778	0.008556412	0.02505806	0	0	0	0
22.61435	0.008556412	0.02505806	0	0	0	0
22.63092	0.008556412	0.02505806	0	0	0	0
22.64748	0.008556412	0.02505806	0	0	0	0
22.67645	0.008556412	0.02505806	0	0	0	0
22.69303	0.008556412	0.02505806	0	0	0	0
22.70959	0.008556412	0.02505806	0	0	0	0
22.72615	0.008556412	0.02505806	0	0	0	0
22.74272	0.008556412	0.02505806	0	0	0	0
22.75969	0.008556412	0.02505806	0	0	0	0
22.77585	0.008556412	0.02505806	0	0	0	0
22.79242	0.008556412	0.02505806	0	0	0	0
22.80899	0.008556412	0.02505806	0	0	0	0
22.84037	0.008556412	0.02505806	0	0	0	0
22.85694	0.008556412	0.02505806	0	0	0	0
22.87397	0.008556412	0.02505806	0	0	0	0
22.89008	0.008556412	0.02505806	0	0	0	0
22.90665	0.008556412	0.02505806	0	0	0	0
22.92321	0.008556412	0.02505806	0	0	0	0
22.93978	0.008556412	0.02505806	0	0	0	0
22.95635	0.008556412	0.02505806	0	0	0	0
22.9946	0.008556412	0.02505806	0	0	0	0
23.02027	0.008556412	0.02505806	0	0	0	0
23.03684	0.008556412	0.02505806	0	0	0	0
23.05341	0.008556412	0.02505806	0	0	0	0
23.0703	0.008556412	0.02505806	0	0	0	0
23.08654	0.008556412	0.02505806	0	0	0	0
23.10311	0.008556412	0.02505806	0	0	0	0
23.11967	0.008556412	0.02505806	0	0	0	0
23.14067	0.008556412	0.02505806	0	0	0	0
23.15749	0.008556412	0.02505806	0	0	0	0
23.17394	0.008556412	0.02505806	0	0	0	0
23.19037	0.008556412	0.02505806	0	0	0	0
23.20697	0.008556412	0.02505806	0	0	0	0
23.22365	0.008556412	0.02505806	0	0	0	0
23.24008	0.008556412	0.02505806	0	0	0	0
23.25664	0.008556412	0.02505806	0	0	0	0
23.27321	0.008556412	0.02505806	0	0	0	0
23.29218	0.008556412	0.02505806	0	0	0	0
23.30875	0.008556412	0.02505806	0	0	0	0
23.32531	0.008556412	0.02505806	0	0	0	0
23.34188	0.008556412	0.02505806	0	0	0	0
23.35878	0.008556412	0.02505806	0	0	0	0
23.37501	0.008556412	0.02505806	0	0	0	0
23.39158	0.008556412	0.02505806	0	0	0	0
23.40815	0.008556412	0.02505806	0	0	0	0
23.42472	0.008556412	0.02505806	0	0	0	0
23.45677	0.008556412	0.02505806	0	0	0	0
23.47337	0.0440044	-0.00550055	2.135957	-1.841342	43.90561	-37.84966
23.49027	0.06478426	-0.02261337	1.229503	-1.012532	-27.06084	24.7429
23.50647	0.113678	-0.05439433	3.017234	-1.961202	54.00046	-28.65566
23.52304	0.1625718	-0.0837306	2.951234	-1.770741	-2.01391	5.811692
23.53961	0.2016868	-0.1032881	2.360988	-1.180494	-17.81368	17.81369
23.55618	0.2212444	-0.1130669	1.180493	-0.5902467	-35.62739	17.81369
23.57306	0.2285784	-0.1142892	0.4344809	-0.07241305	-22.30414	15.48209
23.58931	0.2298008	-0.1142892	0.07519267	-4.583187E-07	-10.84272	2.18529
23.62114	0.2298008	-0.1142892	0	0	-1.563893	9.53233E-06
23.63771	0.2298008	-0.1142892	0	0	0	0
23.65477	0.2298008	-0.1142892	0	0	0	0
23.67084	0.2298008	-0.1142892	0	0	0	0
23.68787	0.2298008	-0.1142892	0	0	0	0
23.70398	0.2298008	-0.1142892	0	0	0	0
23.72054	0.2298008	-0.1142892	0	0	0	0
23.73711	0.2298008	-0.1142892	0	0	0	0
23.76959	0.2298008	-0.1142892	0	0	0	0
23.78616	0.223689	-0.1118445	-0.3688196	0.1475279	-7.519938	3.007977
23.80272	0.220022	-0.1093998	-0.2213668	0.147578	4.449879	0.001510516
23.81951	0.212688	-0.1045105	-0.4368512	0.2912344	-6.460565	4.307047
23.83586	0.2065762	-0.1008434	-0.3739424	0.2243648	1.8987	-2.018245
23.85242	0.2041315	-0.09962108	-0.1475784	0.07378922	6.8784	-4.575459
23.86899	0.2016868	-0.09962108	-0.1475445	0	0.001025357	-2.226963
23.88556	0.1992422	-0.09962108	-0.1475784	0	-0.001025357	0
23.90228	0.1980198	-0.09962108	-0.07309905	0	2.237489	0
23.91869	0.1980198	-0.09962108	0	0	2.206007	0
23.93526	0.1980198	-0.09962108	0	0	0	0
23.95183	0.1980198	-0.09839873	-8.994359E-07	0.07378118	-2.714347E-05	2.226592
23.9684	0.1967975	-0.09717639	-0.07378072	0.07378072	-2.226679	-1.37164E-05
23.98496	0.1955751	-0.08984232	-0.07380622	0.4428382	-0.0007696003	11.1401
24.00153	0.1919081	-0.07517419	-0.2213167	0.8852682	-4.452387	13.3541
24.01809	0.1857964	-0.05439433	-0.368947	1.254419	-4.455492	11.141
24.03466	0.1784623	-0.02628041	-0.4427362	1.697155	-2.227219	13.36334
24.05122	0.1662389	0.00794524	-0.7378082	2.065864	-8.905802	11.1283
24.07044	0.1552378	0.04706026	-0.5724806	2.035488	4.620183	-0.8488886
24.08726	0.1430143	0.1375138	-0.7267654	5.378054	-4.281462	92.7575
24.10379	0.1430143	0.1558489	9.015117E-07	1.109267	21.79334	-128.007
24.12014	0.1430143	0.1717394	0	0.971568	-2.74144E-05	-4.187337
24.13689	0.149126	0.2084097	0.3649957	2.189977	11.02702	36.80981
24.15328	0.1540154	0.2243002	0.2983526	0.9696438	-2.011408	-36.83186
24.16984	0.1589048	0.2353013	0.2951238	0.6640283	-0.09797502	-9.273673
24.18641	0.1601271	0.2426354	0.07378072	0.4426844	-6.680147	-6.680175
24.20308	0.1613495	0.2487471	0.07332487	0.3666252	-0.01371491	-2.288355
24.23074	0.1625718	0.2597482	0.0441886	0.3976941	-0.6572216	0.7008145
24.24731	0.1674612	0.2780834	0.295055	1.106458	5.671434	16.0233
24.26388	0.1699059	0.2829728	0.1475963	0.2951909	-4.450311	-24.48409
24.28073	0.1747953	0.2951962	0.2900792	0.7252019	4.263572	12.86739
24.31455	0.1784623	0.3049749	0.1084308	0.2891475	-3.584616	-8.605017
24.33113	0.184574	0.3208654	0.3687772	0.95882	5.166408	13.28922
24.34769	0.184574	0.3233101	0	0.1476142	-11.12972	-24.48224
24.36426	0.1857964	0.3257548	0.07377223	0.1475427	2.226707	-0.002159794
24.3944	0.1857964	0.3257548	0	0	-1.579399	-3.158759
24.41096	0.1857964	0.3257548	0	0	0	0
24.4279	0.1857964	0.3257548	0	0	0	0
24.44455	0.1857964	0.3257548	0	0	0	0
24.46074	0.1857964	0.3257548	0	0	0	0
24.47723	0.1857964	0.3257548	0	0	0	0
24.49396	0.1857964	0.3257548	0	0	0	0
24.51037	0.1857964	0.3257548	0	0	0	0
24.52693	0.1857964	0.3257548	0	0	0	0
24.5435	0.1857964	0.3257548	0	0	0	0
24.56049	0.1857964	0.3257548	0	0	0	0
24.57663	0.1857964	0.3257548	0	0	0	0
24.5932	0.1857964	0.3257548	0	0	0	0
24.60977	0.1857964	0.3257548	0	0	0	0
24.62634	0.1857964	0.3257548	0	0	0	0
24.6429	0.1857964	0.3257548	0	0	0	0
24.65947	0.1857964	0.3257548	0	0	0	0
24.67603	0.1857964	0.3257548	0	0	0	0
24.70894	0.1857964	0.3257548	0	0	0	0
24.72557	0.1857964	0.3257548	0	0	0	0
24.74229	0.1857964	0.3257548	0	0	0	0
24.7589	0.1723506	0.3196431	-0.8095394	-0.3679716	-24.29211	-11.04184
24.77563	0.1515707	0.3074197	-1.242261	-0.7307404	-12.98035	-10.88198
24.79177	0.1112333	0.2878621	-2.498039	-1.211172	-38.19853	-14.61386
24.80834	0.07334068	0.2670823	-2.287469	-1.254418	6.436906	-1.322004
24.82491	0.03911502	0.2438577	-2.065865	-1.401837	6.688432	-4.449341
24.84147	0.01344579	0.2267449	-1.549398	-1.032932	15.58699	11.13356
24.8633	-0.006111722	0.2096321	-0.8958386	-0.7838587	17.02033	6.486494
24.87992	-0.03178096	0.1729618	-1.545306	-2.20758	-16.89447	-37.03497
24.89648	-0.03667034	0.1607383	-0.2950896	-0.7377241	37.67956	44.29913
24.91396	-0.05011613	0.1338467	-0.7695082	-1.539016	-13.93613	-23.5381
24.92967	-0.06233957	0.1057328	-0.7778378	-1.789027	-0.2509806	-7.533204
24.94624	-0.07578535	0.06784011	-0.8114957	-2.286944	-1.042564	-15.42311
24.96272	-0.08800881	0.02994744	-0.7415655	-2.298851	2.115733	-0.3602704
24.97928	-0.1038993	-0.00550055	-0.960035	-2.141618	-6.613216	4.759577
24.99592	-0.1124557	-0.04828261	-0.5140994	-2.570493	13.43362	-12.91968
25.01607	-0.1185674	-0.08128592	-0.303294	-1.637789	5.729238	25.34889
25.03264	-0.1259015	-0.1130669	-0.4426334	-1.918081	-3.794618	-7.633165
25.04921	-0.1259015	-0.1130669	0	0	13.35793	57.88446
25.0659	-0.1271238	-0.1204009	-0.07324196	-0.4394478	-2.202333	-13.21388
25.08234	-0.1271238	-0.1204009	0	0	2.210447	13.26256
25.09898	-0.1271238	-0.1204009	0	0	0	0
25.11554	-0.1271238	-0.1204009	0	0	0	0
25.13597	-0.1271238	-0.1204009	0	0	0	0
25.15253	-0.1271238	-0.1204009	0	0	0	0
25.1691	-0.1271238	-0.1204009	0	0	0	0
25.18567	-0.1271238	-0.1204009	0	0	0	0
25.20224	-0.1271238	-0.1204009	0	0	0	0
25.21881	-0.1271238	-0.1204009	0	0	0	0
25.23537	-0.1271238	-0.1179562	8.997466E-07	0.1476129	2.715753E-05	4.455479
25.25194	-0.1246791	-0.1142892	0.147527	0.2212917	4.452604	2.223758
25.26876	-0.1210121	-0.1106222	0.2180293	0.2180288	2.111475	-0.09771962
25.28589	-0.1185674	-0.1069551	0.1427153	0.214073	-2.218449	-0.1165216
25.30199	-0.1161227	-0.1069551	0.1518264	-4.627162E-07	0.274168	-6.441839
25.32907	-0.113678	-0.1057328	0.09029368	0.04514656	-1.42514	1.045635
25.34587	-0.1038993	-0.1008434	0.5820051	0.291003	11.20668	5.603355
25.3622	-0.1038993	-0.1008434	0	0	-17.56394	-8.781982
25.37877	-0.09534287	-0.09717639	0.5164664	0.2213426	15.69723	6.727379
25.39547	-0.09167583	-0.0947317	0.219548	0.1463655	-8.924541	-2.253604
25.41209	-0.08800881	-0.09228701	0.2207069	0.147138	0.03478414	0.02318481
25.42849	-0.08434177	-0.08984232	0.223608	0.1490722	0.08787426	0.05858766
25.44504	-0.08311943	-0.08984232	0.07385726	0	-4.544865	-4.52427
25.46161	-0.08067474	-0.08861998	0.1475109	0.07375525	2.223641	2.226707
25.49758	-0.0794524	-0.08739763	0.03398342	0.03398363	-2.160712	-0.7569529
25.51421	-0.07456301	-0.0837306	0.2940068	0.2205044	4.943509	3.546093
25.53072	-0.07456301	-0.0837306	0	0	-8.872121	-6.654071
25.54819	-0.07456301	-0.0837306	0	0	0	0
25.56385	-0.07334067	-0.08250826	0.07808692	0.07808692	2.356804	2.356804
25.58042	-0.07334067	-0.08250826	0	0	-2.423491	-2.423491
25.59698	-0.07334067	-0.08250826	0	0	0	0
25.61355	-0.07334067	-0.08250826	0	0	0	0
25.64231	-0.07334067	-0.08250826	0	0	0	0
25.65889	-0.07211832	-0.08128591	0.0737557	0.0737557	1.626808	1.626808
25.67547	-0.07211833	-0.08006357	-4.492524E-07	0.07370435	-2.224428	-0.001548658
25.69202	-0.06967364	-0.07884122	0.147732	0.07386622	4.45883	0.004885342
25.70879	-0.06967364	-0.07884122	0	0	-4.433549	-2.216781
25.72516	-0.06967364	-0.07884122	0	0	0	0
25.74172	-0.06967364	-0.07884122	0	0	0	0
25.75829	-0.06845129	-0.07884122	0.07377223	-4.496662E-07	2.22645	-1.357095E-05
25.77486	-0.06845129	-0.07761887	0	0.07378967	-2.22645	2.22699
25.80964	-0.06845129	-0.07761887	0	0	0	-1.437005
25.82621	-0.06845129	-0.07761887	0	0	0	0
25.84278	-0.06845129	-0.07761887	0	0	0	0
25.85945	-0.06845129	-0.07639652	0	0.07329178	0	2.204716
25.87591	-0.0660066	-0.07517418	0.1485711	0.07428531	4.484142	0.02998667
25.89248	-0.06233957	-0.07150716	0.2213169	0.2213167	2.202829	4.452281
25.90919	-0.05256081	-0.05928371	0.5851275	0.7314092	10.93137	15.32669
25.92595	-0.04155971	-0.0482826	0.6563951	0.6563954	2.129169	-2.241087
25.94218	-0.03055861	-0.03239213	0.6779201	0.9792179	0.652517	9.78618
25.95874	-0.01833517	-0.02139103	0.7379785	0.6641807	1.831544	-9.607388
25.97531	-0.003667033	-0.01161227	0.8852684	0.5901789	4.445473	-2.233507
25.99187	-0.001222344	-0.01161227	0.1475957	5.622769E-08	-22.26429	-17.81266
26.00844	0.004889378	-0.01161227	0.3689043	-5.621474E-08	6.679876	-3.39391E-06
26.02501	0.006111722	-0.01161227	0.07377237	0	-8.906587	1.696467E-06
26.04158	0.0110011	-0.01650165	0.2951235	-0.2951234	6.680005	-8.906329
26.05814	0.01344579	-0.02016868	0.1475617	-0.2213425	-4.453424	2.226711
26.07491	0.01344579	-0.02139103	0	-0.072908	-4.426918	4.453104
26.09128	0.01344579	-0.02139103	0	0	0	2.200495
26.10805	0.01344579	-0.02139103	0	0	0	0
26.14017	0.01344579	-0.02139103	0	0	0	0
26.15674	0.01344579	-0.02139103	0	0	0	0
26.1733	0.01344579	-0.02139103	0	0	0	0
26.19015	0.01344579	-0.02139103	0	0	0	0
26.20669	0.01344579	-0.02139103	0	0	0	0
26.22301	0.01344579	-0.02139103	0	0	0	0
26.23975	0.01344579	-0.02139103	0	0	0	0
26.25614	0.01344579	-0.02139103	0	0	0	0
26.33851	0.01344579	-0.02139103	0	0	0	0
26.3553	0.01344579	-0.02139103	0	0	0	0
26.37189	0.01344579	-0.02139103	0	0	0	0
26.3889	0.01344579	-0.02139103	0	0	0	0
26.40487	0.01344579	-0.02139103	0	0	0	0
26.44068	0.01344579	-0.02139103	0	0	0	0
26.45725	0.01344579	-0.02139103	0	0	0	0
26.47382	0.01344579	-0.02139103	0	0	0	0
26.49039	0.01344579	-0.02139103	0	0	0	0
26.50695	0.01344579	-0.02139103	0	0	0	0
26.52352	0.01344579	-0.02139103	0	0	0	0
26.54041	0.01344579	-0.02139103	0	0	0	0
26.55665	0.01344579	-0.02139103	0	0	0	0
26.57322	0.01344579	-0.02139103	0	0	0	0
26.59054	0.01344579	-0.02139103	0	0	0	0
26.60711	0.01344579	-0.02139103	0	0	0	0
26.62368	0.01344579	-0.02139103	0	0	0	0
26.64082	0.01344579	-0.02139103	0	0	0	0
26.65681	0.01344579	-0.02139103	0	0	0	0
26.67338	0.01344579	-0.02139103	0	0	0	0
26.68994	0.01344579	-0.02139103	0	0	0	0
26.70651	0.01344579	-0.02139103	0	0	0	0
26.72369	0.01344579	-0.02139103	0	0	0	0
26.73964	0.01344579	-0.02139103	0	0	0	0
26.76147	0.01344579	-0.02139103	0	0	0	0
26.77826	0.01344579	-0.02139103	0	0	0	0
26.79477	0.01344579	-0.02139103	0	0	0	0
26.81117	0.01344579	-0.02139103	0	0	0	0
26.82774	0.01344579	-0.02139103	0	0	0	0
26.84437	0.01344579	-0.02139103	0	0	0	0
26.86087	0.01344579	-0.02139103	0	0	0	0
26.87754	0.01344579	-0.02139103	0	0	0	0
26.894	0.01344579	-0.02139103	0	0	0	0
26.91057	0.01344579	-0.02139103	0	0	0	0
26.92787	0.01344579	-0.02139103	0	0	0	0
26.9437	0.01344579	-0.02139103	0	0	0	0
26.96027	0.01344579	-0.02139103	0	0	0	0
26.97684	0.01344579	-0.02139103	0	0	0	0
26.9934	0.01344579	-0.02139103	0	0	0	0
27.01016	0.01344579	-0.02139103	0	0	0	0
27.02664	0.01344579	-0.02139103	0	0	0	0
27.0431	0.01344579	-0.02139103	0	0	0	0
27.05967	0.01344579	-0.02139103	0	0	0	0
27.07623	0.01344579	-0.02139103	0	0	0	0
27.0928	0.01344579	-0.02139103	0	0	0	0
27.10937	0.01344579	-0.02139103	0	0	0	0
27.12594	0.01344579	-0.02139103	0	0	0	0
27.14251	0.01344579	-0.02139103	0	0	0	0
27.15907	0.01344579	-0.02139103	0	0	0	0
27.17564	0.01344579	-0.02139103	0	0	0	0
27.19228	0.01344579	-0.02139103	0	0	0	0
27.20877	0.01344579	-0.02139103	0	0	0	0
27.2334	0.01344579	-0.02139103	0	0	0	0
27.24997	0.01344579	-0.02139103	0	0	0	0
27.26653	0.01344579	-0.02139103	0	0	0	0
27.2831	0.01344579	-0.02139103	0	0	0	0
27.29966	0.01589048	-0.01772399	0.1475958	0.2213936	4.454962	6.682441
27.31668	0.02077986	-0.00794524	0.2873814	0.5747628	4.163142	10.52415
27.3328	0.02444689	-0.003055861	0.2274705	0.3032942	-1.808114	-8.192938
27.34937	0.02689158	0.0006111722	0.1475617	0.2213426	-2.444583	-2.507074
27.36593	0.02933627	0.003055861	0.1475449	0.1475447	-0.0005059036	-2.227095
27.40083	0.02933627	0.004278205	-1.06769E-07	0.03503309	-2.867164	-2.186379
27.41783	0.02933627	0.004278205	0	0	2.05755E-06	-0.6751242
27.43396	0.02933627	0.004278205	0	0	0	0
27.45053	0.02933627	0.004278205	0	0	0	0
27.46724	0.02933627	0.004278205	0	0	0	0
27.48366	0.02933627	0.004278205	0	0	0	0
27.50023	0.02933627	0.004278205	0	0	0	0
27.5168	0.03055861	0.004278206	0.07378107	5.621474E-08	2.226461	1.696369E-06
27.54997	0.03055861	0.004278206	0	0	-1.483283	-1.130132E-06
27.56655	0.03178096	0.006722895	0.07376385	0.1475277	1.482823	2.965647
27.58311	0.03178096	0.006722895	0	0	-2.225813	-4.451627
27.59968	0.0330033	0.00794524	0.07378922	0.07378936	2.226963	2.226967
27.61625	0.0330033	0.00794524	0	0	-2.227091	-2.227095
27.63281	0.0330033	0.009167584	0	0.07378083	0	2.22671
27.64938	0.0330033	0.009167584	0	0	0	-2.226966
27.66595	0.03422565	0.009167584	0.07376397	0	2.226201	0
27.68258	0.03422565	0.01038993	0	0.07348473	-2.221469	2.21306
27.71683	0.03422565	0.01038993	0	0	0	-1.444371
27.74349	0.03422565	0.01038993	0	0	0	0
27.76006	0.03422565	0.01038993	0	0	0	0
27.77663	0.03422565	0.01038993	0	0	0	0
27.79319	0.03422565	0.01038993	0	0	0	0
27.81017	0.03422565	0.01038993	0	0	0	0
27.82636	0.03422565	0.01038993	0	0	0	0
27.84304	0.03422565	0.01038993	0	0	0	0
27.8798	0.03544799	0.01038993	0.03325867	2.534025E-08	0.6223543	4.741805E-07
27.89665	0.03789268	0.01038993	0.1450895	5.527295E-08	2.08631	5.584229E-07
27.91294	0.03789268	0.01038993	0	0	-4.378054	-1.667853E-06
27.9295	0.03789268	0.01038993	0	0	0	0
27.94607	0.03789268	0.01038993	0	0	0	0
27.96263	0.03789268	0.01038993	0	0	0	0
27.9792	0.03789268	0.01038993	0	0	0	0
27.99607	0.03789268	0.01038993	0	0	0	0
28.03167	0.03789268	0.01038993	0	0	0	0
28.04824	0.03789268	0.01038993	0	0	0	0
28.0648	0.03789268	0.01038993	0	0	0	0
28.08197	0.03789268	0.01038993	0	0	0	0
28.09794	0.03789268	0.01038993	0	0	0	0
28.11485	0.03789268	0.01038993	0	0	0	0
28.13107	0.03789268	0.01038993	0	0	0	0
28.14764	0.03789268	0.01038993	0	0	0	0
28.17993	0.03789268	0.01038993	0	0	0	0
28.1965	0.03789268	0.01038993	0	0	0	0
28.21307	0.03789268	0.01038993	0	0	0	0
28.22966	0.03789268	0.01038993	0	0	0	0
28.24629	0.03789268	0.01038993	0	0	0	0
28.26277	0.03789268	0.01038993	0	0	0	0
28.27933	0.03789268	0.01038993	0	0	0	0
28.29648	0.03789268	0.01038993	0	0	0	0
28.31247	0.03789268	0.01038993	0	0	0	0
28.33476	0.03789268	0.01038993	0	0	0	0
28.35134	0.03789268	0.01038993	0	0	0	0
28.3679	0.03789268	0.01038993	0	0	0	0
28.38447	0.03789268	0.01038993	0	0	0	0
28.4011	0.03789268	0.01038993	0	0	0	0
28.41799	0.04155971	0.01650165	0.2171673	0.3619454	6.478787	10.79798
28.43417	0.05867254	0.02994744	1.057526	0.8309129	25.41326	14.18204
28.45094	0.1149004	0.07028481	3.351857	2.404593	69.61575	47.74939
28.4673	0.180907	0.1142892	4.03574	2.690493	20.642	8.629477
28.48745	0.251803	0.1558489	3.518545	2.062595	-14.16789	-17.20045
28.50461	0.330033	0.1998533	4.557231	2.563443	27.83535	13.42201
28.52059	0.3422565	0.2071874	0.7652071	0.4591231	-114.4238	-63.49752
28.53755	0.3593693	0.2206332	1.008775	0.7926095	7.394744	10.12467
28.55372	0.3630363	0.2267449	0.2267744	0.3779562	-23.60083	-12.51426
28.57068	0.3667034	0.230412	0.2162144	0.2162161	-0.3187405	-4.881887
28.58686	0.3679257	0.2353013	0.07557304	0.3022894	-4.244564	2.597697
28.60349	0.369148	0.2353013	0.07350148	8.960317E-07	-0.06314889	-9.214851
28.63625	0.369148	0.237746	0	0.07461876	-1.488104	1.510706
28.66189	0.369148	0.237746	0	0	0	-1.277736
28.67846	0.369148	0.237746	0	0	0	0
28.6951	0.369148	0.237746	0	0	0	0
28.71159	0.369148	0.237746	0	0	0	0
28.72856	0.369148	0.237746	0	0	0	0
28.74533	0.369148	0.237746	0	0	0	0
28.76135	0.369148	0.237746	0	0	0	0
28.77809	0.369148	0.237746	0	0	0	0
28.79442	0.369148	0.237746	0	0	0	0
28.8112	0.369148	0.237746	0	0	0	0
28.82755	0.369148	0.237746	0	0	0	0
28.84412	0.369148	0.237746	0	0	0	0
28.86069	0.369148	0.237746	0	0	0	0
28.87725	0.369148	0.237746	0	0	0	0
28.89382	0.369148	0.237746	0	0	0	0
28.91039	0.369148	0.237746	0	0	0	0
28.92696	0.369148	0.237746	0	0	0	0
28.94373	0.369148	0.237746	0	0	0	0
28.96009	0.369148	0.237746	0	0	0	0
29.00207	0.3679257	0.237746	-0.02912071	7.100014E-07	-0.4992034	1.217124E-05
29.01864	0.3116978	0.2243002	-3.39353	-0.8114982	-57.46789	-13.86131
29.0352	0.3116978	0.2243002	0	0	102.4169	24.49106
29.05177	0.2823616	0.2181885	-1.770741	-0.3689054	-53.44415	-11.13423
29.06834	0.2505806	0.2084097	-1.918302	-0.5902458	-4.453413	-6.680065
29.0849	0.2187997	0.1961863	-1.918302	-0.7378091	2.51842E-05	-4.453469
29.10194	0.1906857	0.1827405	-1.650592	-0.7894133	7.967572	-1.535848
29.1183	0.1589048	0.1582936	-1.942455	-1.494196	-8.739998	-21.10515
29.13461	0.141792	0.1375138	-1.04924	-1.274077	27.33971	6.737437
29.15149	0.1222344	0.1069551	-1.158226	-1.809727	-3.283178	-16.13622
29.16784	0.1173451	0.0971764	-0.2991171	-0.598236	25.85207	36.45584
29.18431	0.1075663	0.08006356	-0.5938712	-1.039274	-8.983088	-13.44132
29.20087	0.1014546	0.06539544	-0.3689036	-0.8853696	6.810313	4.659065
29.21744	0.09534287	0.05317198	-0.3688621	-0.7377241	0.001254641	4.455693
29.23401	0.09289818	0.04583792	-0.1475619	-0.442685	6.678468	8.903785
29.25082	0.09045349	0.03972619	-0.145452	-0.3636297	0.06321928	2.368715
29.26714	0.09045349	0.03728151	0	-0.1497512	4.390002	6.455236
29.2966	0.08923115	0.03605916	-0.04149568	-0.04149581	-0.9063737	2.36458
29.31357	0.08923115	0.03605916	0	0	0.8936777	0.8936804
29.32984	0.08923115	0.03605916	0	0	0	0
29.34631	0.08923115	0.03605916	0	0	0	0
29.36287	0.08923115	0.03605916	0	0	0	0
29.37969	0.08923115	0.03605916	0	0	0	0
29.39634	0.08923115	0.03605916	0	0	0	0
29.41257	0.08923115	0.03605916	0	0	0	0
29.42914	0.08923115	0.03605916	0	0	0	0
29.45999	0.08923115	0.03605916	0	0	0	0
29.48048	0.08923115	0.03605916	0	0	0	0
29.49712	0.08556412	0.03361447	-0.2204286	-0.1469526	-5.937529	-3.958359
29.51377	0.08311942	0.03116978	-0.1468186	-0.146818	2.21137	0.004045471
29.53018	0.07578535	0.02750275	-0.4468004	-0.2234001	-9.072268	-2.316052
29.54675	0.07211832	0.0262804	-0.2213171	-0.07377245	6.836185	4.5364
29.56332	0.06845129	0.02383572	-0.2212912	-0.1475276	0.0007823741	-2.22555
29.58036	0.06722895	0.02383572	-0.07174066	0	4.449666	4.389475
29.6084	0.06722895	0.02383572	0	0	1.591671	0
29.62503	0.06722895	0.02383572	0	0	0	0
29.64153	0.06722895	0.02383572	0	0	0	0
29.65835	0.06722895	0.02383572	0	0	0	0
29.67466	0.06722895	0.02383572	0	0	0	0
29.69123	0.06722895	0.02383572	0	0	0	0
29.7078	0.06722895	0.02383572	0	0	0	0
29.72437	0.06722895	0.02383572	0	0	0	0
29.74094	0.06722895	0.02383572	0	0	0	0
29.7671	0.06722895	0.02383572	0	0	0	0
29.78367	0.06722895	0.02383572	0	0	0	0
29.80024	0.06722895	0.02383572	0	0	0	0
29.81768	0.06722895	0.02383572	0	0	0	0
29.83337	0.06722895	0.02383572	0	0	0	0
29.85027	0.06722895	0.02383572	0	0	0	0
29.86651	0.06722895	0.02383572	0	0	0	0
29.88307	0.06722895	0.02383572	0	0	0	0
29.89964	0.06722895	0.02383572	0	0	0	0
29.92152	0.06722895	0.02383572	0	0	0	0
29.93809	0.06722895	0.02383572	0	0	0	0
29.95466	0.06722895	0.02383572	0	0	0	0
29.97122	0.06722895	0.02383572	0	0	0	0
29.98789	0.06722895	0.02383572	0	0	0	0
30.00436	0.06722895	0.02383572	0	0	0	0
30.02092	0.06722895	0.02383572	0	0	0	0
30.03749	0.06722895	0.02383572	0	0	0	0
30.05406	0.06722895	0.02383572	0	0	0	0
30.08146	0.06722895	0.02383572	0	0	0	0
30.09841	0.06722895	0.02383572	0	0	0	0
30.11459	0.06722895	0.02383572	0	0	0	0
30.13116	0.06722895	0.02383572	0	0	0	0
30.1481	0.06722895	0.02383572	0	0	0	0
30.16429	0.06722895	0.02383572	0	0	0	0
30.18091	0.06722895	0.02383572	0	0	0	0
30.19787	0.06722895	0.02383572	0	0	0	0
30.214	0.06722895	0.02505806	0	0.07576984	0	2.289638
30.23396	0.06722895	0.02628041	0	0.0612325	0	-0.4027559
30.25054	0.06722895	0.02628041	0	0	0	-1.675896
30.2671	0.06722895	0.02628041	0	0	0	0
30.28376	0.06722895	0.02628041	0	0	0	0
30.30118	0.06722895	0.02628041	0	0	0	0
30.32192	0.06722895	0.02628041	0	0	0	0
30.33849	0.06722895	0.02628041	0	0	0	0
30.35506	0.06722895	0.02628041	0	0	0	0
30.37162	0.06722895	0.02628041	0	0	0	0
30.39076	0.06722895	0.02628041	0	0	0	0
30.40733	0.06722895	0.02628041	0	0	0	0
30.42442	0.06722895	0.02628041	0	0	0	0
30.44047	0.06722895	0.02628041	0	0	0	0
30.45704	0.06722895	0.02628041	0	0	0	0
30.4736	0.06722895	0.02628041	0	0	0	0
30.49017	0.06722895	0.02628041	0	0	0	0
30.50673	0.06722895	0.02628041	0	0	0	0
30.5233	0.0660066	0.02628041	-0.07378118	0	-2.226977	0
30.54728	0.0660066	0.02628041	0	0	1.819843	0
30.56384	0.0660066	0.02628041	0	0	0	0
30.58041	0.0660066	0.02628041	0	0	0	0
30.59698	0.0660066	0.02628041	0	0	0	0
30.61354	0.0660066	0.02628041	0	0	0	0
30.63011	0.0660066	0.02628041	0	0	0	0
30.64727	0.0660066	0.02628041	0	0	0	0
30.66325	0.0660066	0.02628041	0	0	0	0
30.68006	0.0660066	0.02628041	0	0	0	0
30.7009	0.0660066	0.02628041	0	0	0	0
30.71748	0.0660066	0.02628041	0	0	0	0
30.73404	0.0660066	0.02628041	0	0	0	0
30.75061	0.0660066	0.02628041	0	0	0	0
30.76718	0.06600661	0.02750275	4.497179E-07	0.07378095	1.357251E-05	2.226713
30.78374	0.06600661	0.02750275	0	0	-1.357251E-05	-2.226713
30.80031	0.06600661	0.02750275	0	0	0	0
30.81688	0.06600661	0.02750275	0	0	0	0
30.83345	0.06600661	0.02750275	0	0	0	0
30.86784	0.06600661	0.02750275	0	0	0	0
30.88441	0.06600661	0.02750275	0	0	0	0
30.90097	0.06600661	0.02750275	0	0	0	0
30.91754	0.06600661	0.02750275	0	0	0	0
30.93411	0.06600661	0.02750275	0	0	0	0
30.95067	0.06600661	0.02750275	0	0	0	0
30.96736	0.06600661	0.02750275	0	0	0	0
30.98384	0.06600661	0.02750275	0	0	0	0
31.00037	0.06600661	0.02750275	0	0	0	0
31.01694	0.06600661	0.02750275	0	0	0	0
31.03351	0.06600661	0.02750275	0	0	0	0
31.05025	0.06600661	0.02750275	0	0	0	0
31.06664	0.06600661	0.02750275	0	0	0	0
31.08321	0.06600661	0.02750275	0	0	0	0
31.10048	0.06600661	0.02750275	0	0	0	0
31.11634	0.06600661	0.02750275	0	0	0	0
31.13291	0.06600661	0.02750275	0	0	0	0
31.15598	0.06600661	0.02750275	0	0	0	0
31.17661	0.06600661	0.02750275	0	0	0	0
31.19318	0.06600661	0.02750275	0	0	0	0
31.21016	0.06600661	0.02750275	0	0	0	0
31.22631	0.06600661	0.02750275	0	0	0	0
31.24288	0.06600661	0.02750275	0	0	0	0
31.25945	0.06600661	0.02750275	0	0	0	0
31.27601	0.06600661	0.02750275	0	0	0	0
31.29258	0.06600661	0.02750275	0	0	0	0
31.30915	0.06600661	0.02750275	0	0	0	0
31.32571	0.06600661	0.02750275	0	0	0	0
31.34264	0.06600661	0.02750275	0	0	0	0
31.35885	0.06600661	0.02750275	0	0	0	0
31.37541	0.06600661	0.02750275	0	0	0	0
31.39198	0.06600661	0.02750275	0	0	0	0
31.40855	0.06600661	0.02750275	0	0	0	0
31.4254	0.06600661	0.02750275	0	0	0	0
31.44168	0.06600661	0.02750275	0	0	0	0
31.45906	0.06600661	0.02750275	0	0	0	0
31.47481	0.06600661	0.02750275	0	0	0	0
31.49138	0.06600661	0.02750275	0	0	0	0
31.50795	0.06600661	0.02750275	0	0	0	0
31.52452	0.06600661	0.02750275	0	0	0	0
31.54137	0.06600661	0.02750275	0	0	0	0
31.55765	0.06600661	0.02750275	0	0	0	0
31.57422	0.06600661	0.02750275	0	0	0	0
31.59113	0.06600661	0.02750275	0	0	0	0
31.60774	0.06600661	0.02750275	0	0	0	0
31.62392	0.06600661	0.02750275	0	0	0	0
31.64132	0.06600661	0.02750275	0	0	0	0
31.67643	0.06600661	0.02750275	0	0	0	0
31.693	0.06600661	0.02750275	0	0	0	0
31.70957	0.06600661	0.02750275	0	0	0	0
31.77031	0.06600661	0.02750275	0	0	0	0
31.78752	0.06600661	0.02750275	0	0	0	0
31.81611	0.06600661	0.02750275	0	0	0	0
31.83272	0.06600661	0.02750275	0	0	0	0
31.8493	0.06600661	0.02750275	0	0	0	0
31.86581	0.06600661	0.02750275	0	0	0	0
31.88238	0.06600661	0.02750275	0	0	0	0
31.899	0.06600661	0.02750275	0	0	0	0
31.91571	0.06600661	0.02750275	0	0	0	0
31.93207	0.06600661	0.02750275	0	0	0	0
31.94864	0.06600661	0.02750275	0	0	0	0
31.97137	0.06600661	0.02750275	0	0	0	0
31.98886	0.06600661	0.02750275	0	0	0	0
32.00451	0.06600661	0.02750275	0	0	0	0
32.02146	0.06600661	0.02750275	0	0	0	0
32.03791	0.06600661	0.02750275	0	0	0	0
32.05421	0.06600661	0.02750275	0	0	0	0
32.07108	0.06600661	0.02750275	0	0	0	0
32.08734	0.06600661	0.02750275	0	0	0	0
32.10418	0.06600661	0.02750275	0	0	0	0
32.13007	0.06600661	0.02750275	0	0	0	0
32.14664	0.06600661	0.02750275	0	0	0	0
32.1632	0.06600661	0.02750275	0	0	0	0
32.17977	0.06600661	0.02750275	0	0	0	0
32.1965	0.06600661	0.02750275	0	0	0	0
32.21296	0.06600661	0.02750275	0	0	0	0
32.22948	0.06600661	0.02750275	0	0	0	0
32.24604	0.06600661	0.02750275	0	0	0	0
32.26279	0.06600661	0.02750275	0	0	0	0
32.2894	0.06600661	0.02750275	0	0	0	0
32.30597	0.06600661	0.02750275	0	0	0	0
32.32253	0.06600661	0.02750275	0	0	0	0
32.3391	0.06600661	0.02750275	0	0	0	0
32.35609	0.06600661	0.02750275	0	0	0	0
32.37223	0.06600661	0.02750275	0	0	0	0
32.38923	0.07578536	0.0397262	0.5752786	0.7190984	17.35595	21.69494
32.40537	0.09289818	0.05683902	1.060275	1.060275	14.63554	10.29554
32.42199	0.1149004	0.07761888	1.323788	1.250245	8.043604	5.798724
32.44511	0.1393473	0.1008434	1.057525	1.004649	-6.700517	-6.180426
32.46206	0.1992421	0.1619606	3.534688	3.606825	61.83329	64.9538
32.47825	0.2151326	0.1778511	0.9810631	0.9810631	-77.0508	-79.2274
32.49525	0.2359125	0.2035204	1.222742	1.510446	7.281316	15.94925
32.51139	0.2481359	0.2206332	0.7573389	1.060275	-14.0459	-13.58618
32.52806	0.2542476	0.234079	0.3664566	0.8062055	-11.91066	-7.741809
32.54452	0.259137	0.2438577	0.2971086	0.5942154	-2.092927	-6.397874
32.56108	0.259137	0.2487471	0	0.29519	-8.997833	-9.055882
32.57787	0.2591371	0.2499695	1.775972E-06	0.07284415	5.326168E-05	-6.668187
32.60392	0.259137	0.2511918	-1.143683E-06	0.0469076	-6.815406E-05	-0.6054418
32.62049	0.2481359	0.2548588	-0.6638764	0.2212912	-15.57324	4.090704
32.63708	0.2481359	0.2548588	0	0	20.0243	-6.67474
32.65363	0.2151326	0.2548589	-1.993918	1.80053E-06	-60.17656	5.43401E-05
32.67019	0.149126	0.2475248	-3.985084	-0.4427881	-60.12812	-13.37112
32.68684	0.04522675	0.2316343	-6.239766	-0.9543179	-67.88232	-15.40077
32.70333	-0.07334067	0.2145215	-7.193182	-1.038191	-28.77415	-2.531297
32.71989	-0.2041315	0.1888522	-7.894552	-1.549397	-21.22115	-15.4674
32.7365	-0.3740374	0.1485149	-10.22963	-2.428618	-70.38365	-26.50139
32.75303	-0.4473781	0.1265127	-4.438092	-1.331427	174.789	33.11329
32.7696	-0.4892171	0.1032792	-2.525411	-1.402376	57.79802	-2.143963
32.78616	-0.4909008	0.09495527	-0.1016237	-0.502432	73.15004	27.16037
32.80273	-0.4935101	0.08029795	-0.1575365	-0.8849208	-1.687647	-11.54486
32.81929	-0.4954151	0.0675566	-0.1149839	-0.7690699	1.284388	3.496792
32.83609	-0.4966491	0.05778982	-0.07348932	-0.5816226	1.243859	5.619002
32.85243	-0.4974276	0.05065339	-0.04762617	-0.4365864	0.7804617	4.376699
32.869	-0.4979973	0.04470658	-0.03438723	-0.35895	0.4022378	2.35882
32.88556	-0.4985765	0.03770274	-0.03496733	-0.4228502	-0.01750931	-1.928734
32.90213	-0.4988244	0.03426609	-0.01496661	-0.2074362	0.6036922	6.501956
32.9187	-0.4991848	0.02854083	-0.02174836	-0.3455774	-0.2046735	-4.16911
32.93526	-0.4997395	0.01613858	-0.0334824	-0.7486014	-0.354134	-12.16329
32.95183	-0.4999849	0.003888771	-0.01481551	-0.7393999	0.5633679	0.2777008
32.9684	-0.4996103	-0.0197363	0.02261002	-1.426012	1.129505	-20.72199
32.98497	-0.4951513	-0.06946367	0.269149	-3.00155	7.44056	-47.54984
33.00153	-0.4510451	-0.1350691	2.662255	-3.959949	72.22407	-28.92453
33.0181	-0.4131524	-0.1656277	2.287206	-1.844523	-11.31898	63.8437
33.03466	-0.3899279	-0.1815182	1.402158	-0.9593712	-26.71387	26.717
33.05124	-0.3434788	-0.2071874	2.803026	-1.549042	42.27826	-17.7963
33.09534	-0.2713605	-0.2401907	1.634991	-0.7482156	-19.24897	13.19745
33.11192	-0.1320132	-0.3037526	8.409081	-3.835721	111.6356	-50.88143
33.12849	-0.1246791	-0.3074196	0.4425834	-0.2212912	-240.374	109.0586
33.14505	-0.1173451	-0.3110867	0.4427868	-0.221395	0.00613865	-0.003130936
33.16162	-0.1075663	-0.3147537	0.5901108	-0.2212912	4.446249	0.003130936
33.17819	-0.09900991	-0.3159761	0.516466	-0.07378253	-2.222351	4.451308
33.19476	-0.09167584	-0.3196431	0.4426852	-0.2213404	-2.226707	-4.453305
33.21132	-0.07089598	-0.3257548	1.254564	-0.3689886	24.50537	-4.456544
33.23128	-0.04644909	-0.3330889	1.224652	-0.3673965	-0.8189262	0.04358763
33.24825	0.01344579	-0.347757	3.529127	-0.8642761	62.39457	-13.45321
33.26442	0.02689158	-0.3502017	0.8316973	-0.1512174	-81.39921	21.51768
33.28099	0.05378316	-0.3575358	1.623179	-0.4426861	24.17925	-8.904181
33.29756	0.0794524	-0.3599804	1.549042	-0.1475257	-2.237215	8.906936
33.31426	0.1051216	-0.3636475	1.537011	-0.2195726	-0.3615892	-2.165407
33.33069	0.1149004	-0.3636475	0.5950426	-1.813487E-06	-28.42866	6.626661
33.34726	0.1210121	-0.3636475	0.368989	0	-6.850704	5.495891E-05
33.36383	0.1259015	-0.3624251	0.2950554	0.07376374	-2.231321	2.226194
33.39023	0.1259015	-0.3624251	0	0	-6.866135	-1.716531
33.40712	0.1259015	-0.3624251	0	0	0	0
33.42423	0.1259015	-0.3624251	0	0	0	0
33.43993	0.1259015	-0.3624251	0	0	0	0
33.4565	0.1259015	-0.3624251	0	0	0	0
33.47306	0.1259015	-0.3624251	0	0	0	0
33.48983	0.1259015	-0.3624251	0	0	0	0
33.5062	0.1259015	-0.3624251	0	0	0	0
33.52277	0.1259015	-0.3624251	0	0	0	0
33.53934	0.1259015	-0.3624251	0	0	0	0
33.5559	0.1259015	-0.3624251	0	0	0	0
33.57246	0.1259015	-0.3624251	0	0	0	0
33.58913	0.1259015	-0.3624251	0	0	0	0
33.6056	0.1259015	-0.3624251	0	0	0	0
33.62302	0.1259015	-0.3624251	0	0	0	0
33.63874	0.1259015	-0.3624251	0	0	0	0
33.6553	0.1259015	-0.3624251	0	0	0	0
33.67241	0.1259015	-0.3624251	0	0	0	0
33.71711	0.1259015	-0.3624251	0	0	0	0
33.73368	0.1259015	-0.3587581	0	0.221293	0	3.61167
33.75025	0.1246791	-0.3550911	-0.07378072	0.2213422	-2.22645	0.001483449
33.76682	0.1246791	-0.3489794	4.497179E-07	0.3689036	2.22672	4.453413
33.78338	0.1222344	-0.3428676	-0.1475963	0.3689904	-4.454992	0.002618559
33.79995	0.1197897	-0.3367559	-0.1475619	0.3689036	0.001039418	-0.002618559
33.81651	0.1161227	-0.3269772	-0.2213417	0.5902458	-2.22668	6.680119
33.83308	0.113678	-0.3159761	-0.1475619	0.6640283	2.22668	2.226762
33.84964	0.1075663	-0.3013079	-0.3689895	0.8855726	-6.683468	6.686989
33.86621	0.08678646	-0.2658599	-1.254274	2.139647	-26.72102	37.85238
33.88278	0.07578536	-0.2560812	-0.6640279	0.5902476	17.81367	-46.76095
33.89935	0.03911503	-0.2267449	-2.213426	1.77074	-46.76092	35.62734
33.91591	-0.02077986	-0.1864075	-3.615262	2.434768	-42.30751	20.04041
33.9327	-0.09534287	-0.1436255	-4.442328	2.548877	-24.79817	3.421351
33.94904	-0.1637942	-0.1045105	-4.187654	2.392945	7.686989	-4.706577
33.96561	-0.2187997	-0.07150716	-3.320139	1.992083	26.35764	-12.17936
33.98217	-0.25547	-0.0507273	-2.213936	1.254564	33.38911	-22.26095
33.99894	-0.2713605	-0.03728151	-0.9478029	0.8019871	37.98892	-13.57906
34.02917	-0.2750275	-0.03361448	-0.121283	0.1212831	17.5852	-14.48279
34.04601	-0.2774722	-0.02750275	-0.1451879	0.3629705	-0.5078222	5.134271
34.06231	-0.2774722	-0.02505806	0	0.1500141	4.38178	-6.427036
34.07888	-0.2750275	-0.017724	0.1475614	0.4426851	4.490116	8.905623
34.09544	-0.2750275	-0.00794524	0	0.5902469	-4.453413	4.453424
34.11201	-0.2725828	-0.0006111722	0.1475614	0.4426852	4.453413	-4.453422
34.12891	-0.2713605	0.006722894	0.07234985	0.4340893	-2.247637	-0.2568809
34.14542	-0.2701381	0.02016868	0.07403463	0.8144023	0.05043443	11.38481
34.17493	-0.2713605	0.03972619	-0.04141524	0.6626449	-2.508453	-3.29733
34.19175	-0.2884733	0.06295075	-1.0177	1.381165	-21.07265	15.50892
34.24781	-0.2921403	0.06661777	-0.06541161	0.06541161	13.06725	-18.0547
34.26438	-0.2970297	0.07395184	-0.2949871	0.4424815	-3.160644	5.191251
34.28122	-0.2970297	0.07395184	0	0	8.827521	-13.24131
34.29778	-0.2970297	0.07395184	0	0	0	0
34.32225	-0.2970297	0.07395184	0	0	0	0
34.33881	-0.2970297	0.07395184	0	0	0	0
34.35538	-0.2970297	0.07395184	0	0	0	0
34.37195	-0.2970297	0.07395184	0	0	0	0
34.38852	-0.2970297	0.07395184	0	0	0	0
34.40508	-0.2970297	0.07395184	0	0	0	0
34.42174	-0.2970297	0.07395184	0	0	0	0
34.43846	-0.2970297	0.07395184	0	0	0	0
34.45478	-0.2970297	0.07395184	0	0	0	0
34.47905	-0.2970297	0.07395184	0	0	0	0
34.49567	-0.2970297	0.07395184	0	0	0	0
34.51219	-0.2970297	0.07395184	0	0	0	0
34.52919	-0.2970297	0.07395184	0	0	0	0
34.54532	-0.2970297	0.07395184	0	0	0	0
34.56205	-0.2970297	0.07395184	0	0	0	0
34.57845	-0.2958074	0.07395184	0.07450121	0	2.24871	0
34.59502	-0.2628041	0.06295075	1.992083	-0.6640274	58.15393	-20.13776
34.61184	-0.2628041	0.06295075	0	0	-59.67463	19.89153
34.62815	-0.2420242	0.05194964	1.273332	-0.6741171	38.42925	-20.3449
34.64472	-0.2102433	0.03361448	1.918743	-1.106968	19.62768	-13.16348
34.66129	-0.1931304	0.02383572	1.032931	-0.5902469	-26.73695	15.59646
34.67809	-0.1821293	0.01772399	0.6545345	-0.3636295	-11.3378	6.790077
34.69442	-0.1760176	0.01527931	0.3742463	-0.1496987	-8.458139	6.455703
34.71109	-0.1760176	0.01527931	0	0	-11.34309	4.537243
34.72822	-0.1747953	0.01527931	0.07133342	0	2.110567	0
34.74413	-0.1747953	0.01527931	0	0	-2.159061	0
34.76069	-0.1747953	0.01527931	0	0	0	0
34.78923	-0.1747953	0.01527931	0	0	0	0
34.80581	-0.1662388	0.02139103	0.516348	0.3688192	11.44479	8.174832
34.82238	-0.1662388	0.02261337	0	0.07376385	-15.57983	-8.902739
34.83894	-0.1625718	0.02505806	0.2213422	0.1475619	6.679351	2.226973
34.85551	-0.1576824	0.0287251	0.2951229	0.2213425	2.226707	2.226704
34.87263	-0.1552377	0.03239213	0.142763	0.2141437	-4.522217	-0.2136695
34.88864	-0.1540154	0.03483682	0.07636551	0.1527313	-2.004112	-1.853644
34.9052	-0.1527931	0.03605916	0.07379772	0.07379794	-0.07883941	-2.423506
34.92177	-0.1515707	0.03728151	0.07378162	0.07378072	-0.0004857513	-0.0005197089
34.94144	-0.1515707	0.03850385	-7.574656E-07	0.06213509	-2.035959	-0.3213508
34.95802	-0.1515707	0.03850385	0	0	2.089938E-05	-1.714382
34.9748	-0.1515707	0.03850385	0	0	0	0
34.99115	-0.1515707	0.03850385	0	0	0	0
35.00771	-0.1515707	0.03850385	0	0	0	0
35.02428	-0.1515707	0.03850385	0	0	0	0
35.04085	-0.1515707	0.03850385	0	0	0	0
35.05742	-0.1515707	0.03850385	0	0	0	0
35.07451	-0.1515707	0.03850385	0	0	0	0
35.09055	-0.1515707	0.03850385	0	0	0	0
35.10711	-0.1515707	0.03850385	0	0	0	0
35.12392	-0.1515707	0.03850385	0	0	0	0
35.14025	-0.1515707	0.03850385	0	0	0	0
35.15681	-0.1515707	0.03850385	0	0	0	0
35.17338	-0.1515707	0.03850385	0	0	0	0
35.18995	-0.1515707	0.03850385	0	0	0	0
35.20652	-0.1515707	0.03850385	0	0	0	0
35.22308	-0.1515707	0.03850385	0	0	0	0
35.23965	-0.1515707	0.03850385	0	0	0	0
35.25622	-0.1515707	0.03850385	0	0	0	0
35.27279	-0.1515707	0.03850385	0	0	0	0
35.28976	-0.1515707	0.03850385	0	0	0	0
35.30592	-0.1515707	0.03850385	0	0	0	0
35.32253	-0.1515707	0.03850385	0	0	0	0
35.33905	-0.1515707	0.03850385	0	0	0	0
35.3558	-0.1515707	0.03850385	0	0	0	0
35.37247	-0.1515707	0.03850385	0	0	0	0
35.38875	-0.1515707	0.03850385	0	0	0	0
35.40554	-0.1515707	0.03850385	0	0	0	0
35.42188	-0.1515707	0.03850385	0	0	0	0
35.43845	-0.1479037	0.04094854	0.2212921	0.1475277	6.723505	4.482326
35.45502	-0.1479037	0.04094854	0	0	-6.677841	-4.451882
35.47158	-0.141792	0.04583792	0.3689036	0.2951236	11.13353	8.906847
35.48867	-0.1381249	0.04706027	0.2145743	0.0715247	-4.585346	-6.643444
35.5048	-0.1356802	0.0482826	0.1516477	0.07582317	-1.894766	0.1294299
35.52129	-0.1332355	0.04950495	0.1482441	0.07412229	-0.1043666	-0.05215522
35.53819	-0.1320132	0.04950495	0.07229912	2.203435E-07	-2.273961	-2.219378
35.55442	-0.1320132	0.04950495	0	0	-2.181992	-6.649981E-06
35.57099	-0.1320132	0.04950495	0	0	0	0
35.60404	-0.1320132	0.04950495	0	0	0	0
35.62061	-0.1320132	0.04950495	0	0	0	0
35.63762	-0.1320132	0.04950495	0	0	0	0
35.65374	-0.1320132	0.04950495	0	0	0	0
35.67049	-0.1320132	0.04950495	0	0	0	0
35.68687	-0.1320132	0.04950495	0	0	0	0
35.70344	-0.1320132	0.04950495	0	0	0	0
35.72003	-0.1320132	0.04950495	0	0	0	0
35.73658	-0.1320132	0.04950495	0	0	0	0
35.76273	-0.1320132	0.04950495	0	0	0	0
35.7793	-0.1320132	0.04950495	0	0	0	0
35.79586	-0.1320132	0.04950495	0	0	0	0
35.81243	-0.1320132	0.04950495	0	0	0	0
35.82899	-0.1320132	0.04950495	0	0	0	0
35.84576	-0.1210121	0.05194964	0.6560217	0.1457824	19.6787	4.373038
35.86213	-0.09534287	0.05439433	1.56854	0.1493847	27.53985	0.108718
35.8787	-0.08189708	0.05439433	0.8115898	0	-22.98504	-4.536117
35.91449	-0.07211832	0.05317198	0.2732008	-0.03415003	-10.28234	-0.6522093
35.93146	-0.06722895	0.05317198	0.2880914	0	0.2822062	0.6472111
35.94762	-0.06722895	0.05317198	0	0	-8.694616	0
35.96419	-0.06722895	0.05317198	0	0	0	0
35.98076	-0.06722895	0.05317198	0	0	0	0
35.99733	-0.06722895	0.05317198	0	0	0	0
36.01392	-0.06722895	0.05317198	0	0	0	0
36.03046	-0.06722895	0.05317198	0	0	0	0
36.04703	-0.06722895	0.05317198	0	0	0	0
36.06845	-0.06722895	0.05317198	0	0	0	0
36.08503	-0.06722895	0.05317198	0	0	0	0
36.10159	-0.06722895	0.05317198	0	0	0	0
36.11816	-0.06722895	0.05317198	0	0	0	0
36.13474	-0.06722895	0.05317198	0	0	0	0
36.15144	-0.06722895	0.05317198	0	0	0	0
36.16786	-0.06722895	0.05317198	0	0	0	0
36.18453	-0.06722895	0.05317198	0	0	0	0
36.201	-0.06722895	0.05317198	0	0	0	0
36.21814	-0.06722895	0.05317198	0	0	0	0
36.23471	-0.06722895	0.05317198	0	0	0	0
36.25128	-0.06722895	0.05317198	0	0	0	0
36.26785	-0.06722895	0.05317198	0	0	0	0
36.28442	-0.06722895	0.05317198	0	0	0	0
36.30098	-0.06722895	0.05317198	0	0	0	0
36.31755	-0.06722895	0.05317198	0	0	0	0
36.33412	-0.06722895	0.05317198	0	0	0	0
36.35069	-0.06722895	0.05317198	0	0	0	0
36.36725	-0.06722895	0.05317198	0	0	0	0
36.38382	-0.06722895	0.05317198	0	0	0	0
36.40039	-0.06722895	0.05317198	0	0	0	0
36.41695	-0.06722895	0.05317198	0	0	0	0
36.43371	-0.06722895	0.05317198	0	0	0	0
36.45009	-0.06722895	0.05317198	0	0	0	0
36.46693	-0.06722895	0.05317198	0	0	0	0
36.48322	-0.06722895	0.05317198	0	0	0	0
36.49979	-0.06722895	0.05317198	0	0	0	0
36.51644	-0.06722895	0.05317198	0	0	0	0
36.54258	-0.06722895	0.05317198	0	0	0	0
36.55915	-0.06722895	0.05317198	0	0	0	0
36.57572	-0.06722895	0.05317198	0	0	0	0
36.59229	-0.06722895	0.05317198	0	0	0	0
36.60886	-0.06722895	0.05317198	0	0	0	0
36.62562	-0.06722895	0.05317198	0	0	0	0
36.64199	-0.06722895	0.05317198	0	0	0	0
36.65864	-0.06722895	0.05317198	0	0	0	0
36.67512	-0.06722895	0.05317198	0	0	0	0
36.69508	-0.0660066	0.04094854	0.06123288	-0.612326	1.680468	-16.8046
36.71165	-0.04644909	-0.01650165	1.180494	-3.4677	30.63988	-78.16618
36.72831	-0.04644909	-0.01650165	0	0	-35.52104	104.3431
36.74478	-0.03178096	-0.04706026	0.890909	-1.85606	26.89078	-56.02246
36.76135	-0.008556412	-0.08617529	1.401514	-2.360444	15.45635	-15.26803
36.77822	0.006111722	-0.1057328	0.8691599	-1.15888	-15.91622	35.92414
36.79463	0.01711282	-0.1228456	0.6706681	-1.043261	-5.964401	3.474177
36.8114	0.02566923	-0.1338467	0.5102392	-0.6560225	-4.836184	11.67345
36.82761	0.02933627	-0.1424031	0.226133	-0.5276433	-8.613014	3.891968
36.84578	0.03178096	-0.1448478	0.1345497	-0.1345495	-2.663414	11.4319
36.86235	0.03178096	-0.1448478	0	0	-3.872999	3.872993
36.87892	0.03178096	-0.1448478	0	0	0	0
36.89549	0.03178096	-0.1448478	0	0	0	0
36.91259	0.03178096	-0.1448478	0	0	0	0
36.929	0.03178096	-0.1448478	0	0	0	0
36.94519	0.03178096	-0.1448478	0	0	0	0
36.96187	0.03178096	-0.1448478	0	0	0	0
36.97853	0.0330033	-0.1460702	0.07337524	-0.07337524	2.201039	-2.201039
37.00502	0.0330033	-0.1460702	0	0	-1.700396	1.700396
37.02159	0.0330033	-0.1460702	0	0	0	0
37.03848	0.0330033	-0.1460702	0	0	0	0
37.05472	0.0330033	-0.1460702	0	0	0	0
37.08362	0.0330033	-0.1460702	0	0	0	0
37.10019	0.0330033	-0.1460702	0	0	0	0
37.11676	0.0330033	-0.1460702	0	0	0	0
37.13333	0.0330033	-0.1460702	0	0	0	0
37.14989	0.0330033	-0.1460702	0	0	0	0
37.23996	0.0330033	-0.1460702	0	0	0	0
37.25652	0.0330033	-0.1460702	0	0	0	0
37.27309	0.0330033	-0.1460702	0	0	0	0
37.29059	0.0330033	-0.1460702	0	0	0	0
37.30622	0.0330033	-0.1460702	0	0	0	0
37.32362	0.0330033	-0.1460702	0	0	0	0
37.34019	0.0330033	-0.1460702	0	0	0	0
37.35676	0.0330033	-0.1460702	0	0	0	0
37.37333	0.0330033	-0.1460702	0	0	0	0
37.3899	0.0330033	-0.1460702	0	0	0	0
37.40646	0.0330033	-0.1460702	0	0	0	0
37.42317	0.0330033	-0.1460702	0	0	0	0
37.43999	0.0330033	-0.1460702	0	0	0	0
37.45616	0.0330033	-0.1460702	0	0	0	0
37.47273	0.0330033	-0.1460702	0	0	0	0
37.49223	0.0330033	-0.1460702	0	0	0	0
37.5089	0.0330033	-0.1460702	0	0	0	0
37.52537	0.0330033	-0.1460702	0	0	0	0
37.54203	0.0330033	-0.1460702	0	0	0	0
37.5585	0.0330033	-0.1460702	0	0	0	0
37.57511	0.0330033	-0.1460702	0	0	0	0
37.59163	0.03789268	-0.1424031	0.2959413	0.2219564	8.932554	6.699428
37.60836	0.05622785	-0.1301797	1.096113	0.7307413	24.0661	15.30231
37.62476	0.07823005	-0.1142892	1.341336	0.9687427	7.401702	7.183724
37.64458	0.106344	-0.09717639	1.418925	0.8636934	2.142366	-2.900575
37.66114	0.1552377	-0.0727295	2.951234	1.475617	42.11864	16.81998
37.67771	0.1662388	-0.06784012	0.6640274	0.2951233	-69.02802	-35.62737
37.69428	0.1821293	-0.06050605	0.9591521	0.4426855	8.906881	4.453434
37.71085	0.1931304	-0.05561668	0.6640274	0.2951231	-8.906881	-4.453441
37.72741	0.1980198	-0.05194964	0.2951238	0.2213426	-11.13353	-2.2267
37.74405	0.2016868	-0.0507273	0.2204286	0.07347642	-2.249644	-4.453382
37.76056	0.2041315	-0.04950495	0.1480738	0.07403643	-2.182919	0.01689546
37.77716	0.2053539	-0.04828261	0.07364417	0.07364529	-2.248102	-0.01181417
37.79742	0.2053539	-0.04828261	0	0	-1.998073	-1.998103
37.81398	0.2004645	-0.03361448	-0.2951229	0.8853703	-8.013745	24.04128
37.83055	0.1906857	-0.02383572	-0.5902467	0.5902469	-8.906854	-8.90684
37.84741	0.1503484	0.006722895	-2.392353	1.812389	-53.90977	36.56021
37.86369	0.07578536	0.05806137	-4.581868	3.154729	-66.07969	40.51191
37.88025	-0.0330033	0.127735	-6.568009	4.206478	-60.48501	32.02946
37.8971	-0.1320132	0.1974086	-5.874797	4.134115	20.74445	-2.165468
37.9137	-0.2004645	0.2646376	-4.123183	4.049555	52.35747	-2.527565
37.92995	-0.2481359	0.3722039	-2.933517	6.619218	36.21272	78.21896
37.9617	-0.2615817	0.4247647	-0.423595	1.655871	52.29799	-103.4188
37.97826	-0.2324702	0.442671	1.757177	1.080827	45.14183	-11.90337
37.99508	-0.2259374	0.4460407	0.3885934	0.2004411	-41.00182	-26.37576
38.0114	-0.2259374	0.4460407	0	0	-11.72642	-6.048627
38.02797	-0.2217223	0.4481509	0.2544243	0.1273727	7.734642	3.872201
38.04454	-0.2200539	0.4489725	0.1007044	0.0495913	-4.639276	-2.347448
38.0611	-0.2192323	0.4493742	0.0495913	0.02424879	-1.542598	-0.7648383
38.07767	-0.2192323	0.4493742	0	0	-1.496668	-0.73183
38.09459	-0.2192323	0.4493742	0	0	0	0
38.11087	-0.2192323	0.4493742	0	0	0	0
38.12757	-0.2225662	0.4477324	-0.1995336	-0.09826449	-6.048396	-2.978659
38.144	-0.2225662	0.4477324	0	0	6.021935	2.965628
38.16057	-0.223815	0.4471094	-0.07537723	-0.03760182	-2.284621	-1.13968
38.17797	-0.2250644	0.4464819	-0.07180957	-0.03607008	0.105036	0.04509615
38.1937	-0.2250644	0.4464819	0	0	2.167217	1.088597
38.21027	-0.2284136	0.4447778	-0.2021116	-0.102834	-6.256032	-3.183058
38.22684	-0.2410219	0.4380736	-0.7612141	-0.4047602	-16.87375	-9.11215
38.2434	-0.2762498	0.3978731	-2.126364	-2.426503	-41.20504	-61.02336
38.2697	-0.2762499	0.2976409	-1.133561E-06	-3.812432	49.61399	-32.33759
38.28627	-0.2628041	0.09595405	0.8114029	-12.17104	18.93064	-195.0123
38.30302	-0.2603594	0.03850385	0.1459484	-3.429794	-19.9708	262.3314
38.3194	-0.2505806	-0.07517418	0.5969831	-6.93992	13.61382	-105.948
38.33596	-0.2444689	-0.1802958	0.3689027	-6.345154	-6.922531	18.05191
38.35253	-0.2383572	-0.2585258	0.3689054	-4.721974	8.184867E-05	48.98765
38.3691	-0.2334678	-0.3110867	0.2951238	-3.172577	-2.226734	46.76091
38.38566	-0.2310231	-0.3526464	0.1475954	-2.509128	-4.452927	20.02523
38.40223	-0.2285784	-0.3880944	0.1475614	-2.139647	-0.001025925	11.15225
38.42268	-0.2261337	-0.4296541	0.1195633	-2.032579	-0.7564198	2.892617
38.43936	-0.2018061	-0.4574651	1.458343	-1.667157	36.05804	9.842113
38.45599	-0.1971613	-0.459486	0.2793359	-0.1215391	-35.39505	46.4011
38.47238	-0.1888725	-0.4629548	0.5056653	-0.2116175	6.85431	-2.727992
38.48894	-0.1836684	-0.465044	0.3141967	-0.1261318	-5.80997	2.594001
38.50551	-0.1798772	-0.4665235	0.2288372	-0.08930499	-2.576453	1.111562
38.52207	-0.1767505	-0.4677171	0.1887685	-0.07205781	-1.209415	0.520581
38.53864	-0.1741576	-0.4686888	0.1565099	-0.05865401	-0.9736772	0.4045738
38.55526	-0.1738237	-0.4688127	0.02008519	-0.007452171	-4.110209	1.542611
38.57617	-0.1738237	-0.4688127	0	0	-0.5351368	0.1985509
38.59286	-0.1738237	-0.4688127	0	0	0	0
38.60946	-0.1738237	-0.4688127	0	0	0	0
38.62588	-0.1738237	-0.4688127	0	0	0	0
38.64244	-0.1738237	-0.4688127	0	0	0	0
38.65901	-0.1738237	-0.4688127	0	0	0	0
38.67558	-0.1738237	-0.4688127	0	0	0	0
38.69214	-0.1738237	-0.4688127	0	0	0	0
38.70892	-0.1738237	-0.4688127	0	0	0	0
38.72527	-0.1738237	-0.4688127	0	0	0	0
38.74184	-0.1738237	-0.4688127	0	0	0	0
38.75841	-0.1738237	-0.4688127	0	0	0	0
38.77497	-0.1738237	-0.4688127	0	0	0	0
38.79154	-0.1738237	-0.4688127	0	0	0	0
38.80811	-0.1738237	-0.4688127	0	0	0	0
38.82467	-0.1738237	-0.4688127	0	0	0	0
38.84124	-0.1738237	-0.4688127	0	0	0	0
38.85781	-0.1738237	-0.4688127	0	0	0	0
38.87458	-0.1738237	-0.4688127	0	0	0	0
38.89094	-0.1738237	-0.4688127	0	0	0	0
38.90751	-0.1943528	-0.4394329	-1.239139	1.773369	-37.63997	53.86768
38.92407	-0.1943528	-0.4394329	0	0	37.3973	-53.52039
38.94064	-0.1943528	-0.4394329	0	0	0	0
38.95725	-0.1943528	-0.4394329	0	0	0	0
38.97377	-0.1943528	-0.4394329	0	0	0	0
38.9904	-0.1943528	-0.4394329	0	0	0	0
39.00742	-0.1943528	-0.4394329	0	0	0	0
39.02347	-0.1943528	-0.4394329	0	0	0	0
39.04004	-0.1943528	-0.4394329	0	0	0	0
39.0569	-0.1943528	-0.4394329	0	0	0	0
39.07347	-0.1943528	-0.4394329	0	0	0	0
39.09011	-0.1943528	-0.4394329	0	0	0	0
39.10664	-0.1943528	-0.4394329	0	0	0	0
39.12317	-0.1943528	-0.4394329	0	0	0	0
39.13974	-0.1943528	-0.4394329	0	0	0	0
39.15631	-0.1943528	-0.4394329	0	0	0	0
39.17287	-0.1943528	-0.4394329	0	0	0	0
39.18944	-0.1943528	-0.4394329	0	0	0	0
39.22879	-0.1943528	-0.4394329	0	0	0	0
39.24537	-0.1943528	-0.4394329	0	0	0	0
39.26193	-0.1943528	-0.4394329	0	0	0	0
39.27871	-0.1943528	-0.4394329	0	0	0	0
39.2951	-0.1943528	-0.4394329	0	0	0	0
39.31163	-0.1943528	-0.4394329	0	0	0	0
39.32833	-0.1943528	-0.4369881	0	0.1463501	0	4.404179
39.34476	-0.1919081	-0.4308764	0.1487948	0.3719871	4.490637	6.809738
39.369	-0.1906857	-0.4235424	0.05043815	0.3026252	-2.418726	-1.705703
39.38557	-0.1735729	-0.3868721	1.032931	2.213425	24.07953	46.83104
39.40217	-0.1686835	-0.3770933	0.2945135	0.5890269	-22.26242	-48.9737
39.4187	-0.1552378	-0.351424	0.8132742	1.552616	15.65623	29.08119
39.43527	-0.1430143	-0.3233101	0.7378091	1.69696	-2.279905	4.360825
39.45183	-0.1295685	-0.2964185	0.8117767	1.623553	2.232605	-2.215677
39.4684	-0.1161227	-0.269527	0.8115893	1.623178	-0.005656304	-0.0113378
39.48521	-0.09778756	-0.234079	1.090641	2.108572	8.360198	14.54208
39.50153	-0.0904535	-0.2230779	0.4493059	0.6739591	-19.35553	-43.2967
39.52355	-0.07823005	-0.1974086	0.5551463	1.165807	2.760465	12.82808
39.54012	-0.06356192	-0.1460702	0.8851662	3.098083	8.55207	50.0726
39.55669	-0.06111723	-0.1338467	0.1475957	0.737979	-22.25992	-71.22807
39.57348	-0.05745019	-0.1167339	0.218376	1.019087	2.121984	8.427585
39.58982	-0.05378316	-0.1032881	0.2243912	0.8227667	0.1815408	-5.924962
39.60639	-0.05011612	-0.092287	0.2213426	0.6640283	-0.09263613	-4.823496
39.62295	-0.04522675	-0.08006357	0.2951911	0.737978	2.229007	2.232063
39.63952	-0.03422565	-0.05683902	0.663875	1.401514	11.1269	20.02554
39.65609	-0.03422565	-0.05683902	0	0	-20.03348	-42.2929
39.68312	-0.02322455	-0.03850385	0.4069243	0.6782073	9.332701	15.5545
39.6997	-0.01589048	-0.02016868	0.4425832	1.106458	0.8177564	9.820958
39.71626	-0.01466813	-0.01527931	0.07378089	0.2951233	-11.1292	-24.48331
39.73283	-0.008556412	-0.003055861	0.3689043	0.7378087	8.906842	13.36027
39.74959	-0.001222344	0.01405696	0.437547	1.020943	2.059549	8.495132
39.76596	0.007334067	0.03483682	0.522603	1.269179	2.566993	7.491765
39.78253	0.01589048	0.05561667	0.5164661	1.254275	-0.1863057	-0.4524609
39.79932	0.02566924	0.08006357	0.5824682	1.456171	1.978734	6.052815
39.81566	0.02933627	0.08984232	0.2243908	0.5983757	-10.80804	-25.89128
39.84511	0.03178096	0.09350935	0.08301312	0.1245196	-3.087412	-10.3481
39.86182	0.03178096	0.09595405	0	0.146282	-1.798314	0.4714391
39.87855	0.03178096	0.09595405	0	0	0	-4.375008
39.89482	0.03178096	0.09595405	0	0	0	0
39.91138	0.03178096	0.09595405	0	0	0	0
39.92849	0.03178096	0.09595405	0	0	0	0
39.94452	0.03178096	0.09595405	0	0	0	0
39.96109	0.03178096	0.09595405	0	0	0	0
39.97765	0.03178096	0.09595405	0	0	0	0
40.00578	0.03178096	0.09595405	0	0	0	0
40.02235	0.03178096	0.09595405	0	0	0	0
40.03907	0.03178096	0.09595405	0	0	0	0
40.05548	0.03178096	0.09595405	0	0	0	0
40.07204	0.03178096	0.09595405	0	0	0	0
40.08861	0.03178096	0.09595405	0	0	0	0
40.10584	0.03178096	0.09595405	0	0	0	0
40.12174	0.03178096	0.09595405	0	0	0	0
40.13831	0.03178096	0.09595405	0	0	0	0
40.15607	0.03178096	0.09595405	0	0	0	0
40.17265	0.03178096	0.09595405	0	0	0	0
40.18984	0.03178096	0.09595405	0	0	0	0
40.20578	0.03178096	0.09595405	0	0	0	0
40.22235	0.03178096	0.09595405	0	0	0	0
40.23891	0.03178096	0.09595405	0	0	0	0
40.25564	0.03178096	0.09595405	0	0	0	0
40.27205	0.03178096	0.09595405	0	0	0	0
40.28862	0.03178096	0.09595405	0	0	0	0
40.31355	0.03178096	0.09595405	0	0	0	0
40.33047	0.03178096	0.09595405	0	0	0	0
40.34668	0.03178096	0.09595405	0	0	0	0
40.36325	0.03178096	0.09595405	0	0	0	0
40.37982	0.03178096	0.09595405	0	0	0	0
40.39639	0.03178096	0.09595405	0	0	0	0
40.41295	0.03178096	0.09595405	0	0	0	0
40.42958	0.03178096	0.09595405	0	0	0	0
40.44608	0.03178096	0.09595405	0	0	0	0
40.48457	0.03178096	0.09595405	0	0	0	0
40.50114	0.03178096	0.09595405	0	0	0	0
40.51771	0.03178096	0.09595405	0	0	0	0
40.53435	0.03178096	0.09595405	0	0	0	0
40.55084	0.03178096	0.09595405	0	0	0	0
40.56741	0.03178096	0.09595405	0	0	0	0
40.58398	0.03178096	0.09595405	0	0	0	0
40.60055	0.03178096	0.09595405	0	0	0	0
40.62806	0.03178096	0.09595405	0	0	0	0
40.64462	0.03178096	0.09595405	0	0	0	0
40.66119	0.03178096	0.09595405	0	0	0	0
40.67776	0.03178096	0.09595405	0	0	0	0
40.69438	0.03178096	0.09595405	0	0	0	0
40.71089	0.03178096	0.09595405	0	0	0	0
40.72759	0.03178096	0.09595405	0	0	0	0
40.74423	0.03178096	0.09595405	0	0	0	0
40.76084	0.03178096	0.09595405	0	0	0	0
40.79382	0.03178096	0.09595405	0	0	0	0
40.81084	0.03178096	0.09595405	0	0	0	0
40.82695	0.03178096	0.09595405	0	0	0	0
40.84352	0.03178096	0.09595405	0	0	0	0
40.86008	0.03178096	0.09595405	0	0	0	0
40.87665	0.03178096	0.09595405	0	0	0	0
40.89346	0.03178096	0.09595405	0	0	0	0
40.91008	0.03178096	0.09595405	0	0	0	0
40.92704	0.03178096	0.09595405	0	0	0	0
40.95473	0.03178096	0.09595405	0	0	0	0
40.9713	0.03178096	0.09595405	0	0	0	0
40.9879	0.03178096	0.09595405	0	0	0	0
41.00444	0.03178096	0.09595405	0	0	0	0
41.02124	0.03178096	0.09595405	0	0	0	0
41.03788	0.03178096	0.09595405	0	0	0	0
41.05414	0.03178096	0.09595405	0	0	0	0
41.07074	0.03178096	0.09595405	0	0	0	0
41.09285	0.03178096	0.09595405	0	0	0	0
41.11853	0.03178096	0.09595405	0	0	0	0
41.13545	0.03178096	0.09595405	0	0	0	0
41.15166	0.03178096	0.09595405	0	0	0	0
41.16823	0.03178096	0.09595405	0	0	0	0
41.18491	0.03178096	0.09595405	0	0	0	0
41.20136	0.03178096	0.09595405	0	0	0	0
41.21795	0.03178096	0.09595405	0	0	0	0
41.23449	0.03178096	0.09595405	0	0	0	0
41.25106	0.03178096	0.09595405	0	0	0	0
41.26762	0.03178096	0.09595405	0	0	0	0
41.28475	0.03178096	0.09595405	0	0	0	0
41.30134	0.03178096	0.09595405	0	0	0	0
41.3183	0.03178096	0.09595405	0	0	0	0
41.33445	0.03178096	0.09595405	0	0	0	0
41.35102	0.03178096	0.09595405	0	0	0	0
41.36758	0.03178096	0.09595405	0	0	0	0
41.38415	0.03178096	0.09595405	0	0	0	0
41.40072	0.03178096	0.09595405	0	0	0	0
41.41731	0.03178096	0.09595405	0	0	0	0
41.43387	0.03178096	0.09595405	0	0	0	0
41.47279	0.03178096	0.09595405	0	0	0	0
41.48935	0.03178096	0.09595405	0	0	0	0
41.50592	0.03178096	0.09595405	0	0	0	0
41.52249	0.03178096	0.09595405	0	0	0	0
41.5391	0.03178096	0.09595405	0	0	0	0
41.55613	0.03178096	0.09595405	0	0	0	0
41.57219	0.03178096	0.09595405	0	0	0	0
41.58876	0.03178096	0.09595405	0	0	0	0
41.60542	0.03178096	0.09595405	0	0	0	0
41.62193	0.03178096	0.09595405	0	0	0	0
41.63846	0.03178096	0.09595405	0	0	0	0
41.65503	0.03178096	0.09595405	0	0	0	0
41.67159	0.03178096	0.09595405	0	0	0	0
41.6882	0.03178096	0.09595405	0	0	0	0
41.70473	0.03178096	0.09595405	0	0	0	0
41.72138	0.03178096	0.09595405	0	0	0	0
41.73786	0.03178096	0.09595405	0	0	0	0
41.75443	0.03178096	0.09595405	0	0	0	0
41.78112	0.04033737	0.08006357	0.3204759	-0.5951698	7.407056	-13.75597
41.7977	0.0550055	0.05561667	0.8851667	-1.475278	13.05037	-20.33986
41.81426	0.05745019	0.04950495	0.1475617	-0.3689043	-22.2584	33.38658
41.83083	0.06356192	0.04094854	0.3689045	-0.516466	6.680141	-4.45342
41.84748	0.0660066	0.03728151	0.1468514	-0.2202775	-6.685414	8.917426
41.86421	0.06845129	0.03483682	0.1460819	-0.1460817	-0.02305004	2.222602
41.88053	0.06967364	0.03361448	0.07491926	-0.07491926	-2.153147	2.15314
41.89782	0.06967364	0.03116978	0	-0.1413457	-2.228991	-1.976312
41.91366	0.07089598	0.02994744	0.07717525	-0.07717478	2.329154	1.936682
41.94893	0.07334067	0.02628041	0.06931956	-0.1039796	-0.1537152	-0.5244988
41.96558	0.07823005	0.02016868	0.2937032	-0.3671291	4.3222	-5.06893
41.98218	0.07823005	0.02016868	0	0	-8.83347	11.04184
41.99878	0.07945239	0.017724	0.07361123	-0.1472227	2.216742	-4.433491
42.0152	0.08189708	0.01527931	0.148899	-0.1488989	2.279801	-0.05075779
42.03177	0.08800881	0.009167584	0.3689045	-0.3689043	6.669727	-6.669723
42.04834	0.09412053	0.004278206	0.3689045	-0.2951234	0	2.226711
42.0649	0.0990099	0.0006111722	0.2951229	-0.2213426	-2.226734	2.226711
42.08147	0.1038993	-0.0006111722	0.2951233	-0.07378086	1.349154E-05	4.453422
42.09896	0.1075663	-0.001833517	0.2096604	-0.06988664	-2.509363	0.114342
42.11584	0.1087887	-0.001833517	0.07242986	-6.898187E-09	-3.993136	2.033562
42.1321	0.1087887	-0.001833517	0	0	-2.185937	2.081877E-07
42.14945	0.1112334	-0.001833517	0.1408796	0	4.191436	0
42.16667	0.1307909	0.006722895	1.135522	0.4967911	28.7665	14.36792
42.18258	0.1307909	0.006722895	0	0	-34.27013	-14.99319
42.19975	0.1503484	0.01405696	1.139561	0.4273353	34.4555	12.9208
42.21572	0.1576824	0.01650165	0.459178	0.1530596	-20.53401	-8.277656
42.23228	0.17724	0.02505806	1.180494	0.516466	22.1675	11.16821
42.24886	0.1894634	0.0287251	0.7376383	0.2212917	-13.36388	-8.907352
42.28505	0.2004645	0.03116978	0.3039173	0.06753719	-8.219284	-2.913744
42.30162	0.2224667	0.03728151	1.32775	0.3688194	19.40227	5.709486
42.3184	0.2249114	0.03728151	0.1457161	2.220469E-07	-35.44533	-11.05968
42.33475	0.2261337	0.03850385	0.07474542	0.0747445	-2.142146	2.256047
42.35133	0.2273561	0.03850385	0.07374586	0	-0.03035535	-2.269905
42.3679	0.2285784	0.03850385	0.07378072	0	0.001051873	0
42.38446	0.2298008	0.03850385	0.07378162	0	2.720794E-05	0
42.40103	0.2298008	0.03972619	0	0.07379772	-2.22699	2.227476
