Time	Pos X	Pos Y	Vel X	Vel Y	Acc X	Acc Y
0.01656829	-0.02077986	0.006722894	0.0004617244	-0.0001493814	-1.027373E-05	3.323855E-06
0.03381991	-0.02077986	0.006722894	0	0	1.026336E-05	-3.320499E-06
0.0497033	-0.02077986	0.006722894	0	0	0	0
0.06662451	-0.02077986	0.006722894	0	0	0	0
0.08283713	-0.02077986	0.006722894	0	0	0	0
0.09940424	-0.02077986	0.006722894	0	0	0	0
0.1192178	-0.02077986	0.006722894	0	0	0	0
0.1357881	-0.02077986	0.006722894	0	0	0	0
0.1527488	-0.02077986	0.006722894	0	0	0	0
0.2353048	-0.02077986	0.006722894	0	0	0	0
0.2518786	-0.02077986	0.006722894	0	0	0	0
0.3042205	-0.02077986	0.006722894	0	0	0	0
0.3212526	-0.02077986	0.006722894	0	0	0	0
0.3376117	-0.02077986	0.006722894	0	0	0	0
0.3539242	-0.02077986	0.006722894	0	0	0	0
0.3704909	-0.02077986	0.006722894	0	0	0	0
0.3873612	-0.02077986	0.006722894	0	0	0	0
0.4038892	-0.02077986	0.006722894	0	0	0	0
0.4201895	-0.02077986	0.006722894	0	0	0	0
0.4485811	-0.02077986	0.006722894	0	0	0	0
0.465149	-0.02077986	0.006722894	0	0	0	0
0.481848	-0.02077986	0.006722894	0	0	0	0
0.4984629	-0.02077986	0.006722894	0	0	0	0
0.5149052	-0.02077986	0.006722894	0	0	0	0
0.5318012	-0.02077986	0.006722894	0	0	0	0
0.5480288	-0.02077986	0.006722894	0	0	0	0
0.5645545	-0.02077986	0.006722894	0	0	0	0
0.5811216	-0.02077986	0.006722894	0	0	0	0
0.6248857	-0.02077986	0.006722894	0	0	0	0
0.641454	-0.02077986	0.006722894	0	0	0	0
0.6584854	-0.02077986	0.006722894	0	0	0	0
0.6745871	-0.02077986	0.006722894	0	0	0	0
0.6913023	-0.02077986	0.006722894	0	0	0	0
0.7077956	-0.02077986	0.006722894	0	0	0	0
0.7242905	-0.02077986	0.006722894	0	0	0	0
0.7408615	-0.02077986	0.006722894	0	0	0	0
0.8002656	-0.02077986	0.006722894	0	0	0	0
0.8168342	-0.02077986	0.006722894	0	0	0	0
0.8337594	-0.02077986	0.006722894	0	0	0	0
0.8499677	-0.02077986	0.006722894	0	0	0	0
0.8665348	-0.02077986	0.006722894	0	0	0	0
0.8831015	-0.02077986	0.006722894	0	0	0	0
0.8996686	-0.02077986	0.006722894	0	0	0	0
0.9188624	-0.02077986	0.004278206	9.704397E-08	-0.1273685	2.713686E-06	-3.561665
0.9354323	-0.02077986	-0.001833517	-1.124117E-07	-0.3688459	-5.856658E-06	-6.752029
0.9519982	-0.02077986	-0.003055861	0	-0.07378669	3.392457E-06	8.904552
0.9685641	-0.02077986	-0.004278206	1.124384E-07	-0.07378671	3.393666E-06	-4.497535E-07
0.9851328	-0.02077986	-0.004278206	0	0	-3.393385E-06	2.226879
1.001767	-0.02077986	-0.00550055	-1.119771E-07	-0.07348397	-3.372516E-06	-2.213184
1.018266	-0.02077986	-0.00550055	0	0	3.37959E-06	2.217827
1.034832	-0.02077986	-0.00550055	0	0	0	0
1.051399	-0.02077986	-0.006722894	0	-0.07378137	0	-2.226798
1.071603	-0.02077986	-0.006722894	0	0	0	2.006506
1.088174	-0.02077986	-0.006722894	0	0	0	0
1.104742	-0.02077986	-0.006722894	0	0	0	0
1.121308	-0.02077986	-0.006722894	0	0	0	0
1.137875	-0.02077986	-0.006722894	0	0	0	0
1.154442	-0.02077986	-0.006722894	0	0	0	0
1.17114	-0.02077986	-0.006722894	0	0	0	0
1.188469	-0.02077986	-0.006722894	0	0	0	0
1.20414	-0.02077986	-0.006722894	0	0	0	0
1.238918	-0.02077986	-0.006722894	0	0	0	0
1.256348	-0.02077986	-0.006722894	0	0	0	0
1.272052	-0.02077986	-0.006722894	0	0	0	0
1.288619	-0.02077986	-0.006722894	0	0	0	0
1.305333	-0.02077986	-0.00794524	0	-0.07313154	0	-2.197422
1.321754	-0.02077986	-0.01038993	0	-0.1488718	0	-2.285755
1.33839	-0.02077986	-0.01161227	1.119686E-07	-0.07347842	3.387153E-06	2.280719
1.354886	-0.02077986	-0.01283462	-1.129145E-07	-0.07409921	-6.787598E-06	-0.01873716
1.371453	-0.01955751	-0.01405696	0.07378296	-0.07378291	2.231603	0.009566623
1.423902	-0.01955751	-0.01527931	0	-0.02330514	-1.069065	0.7313886
1.440472	-0.01589048	-0.02383572	0.2213029	-0.5163731	3.206369	-7.143863
1.45704	-0.01466813	-0.02383572	0.07377972	0	-4.451827	15.58266
1.473606	-0.01466813	-0.02505806	0	-0.07378838	-2.226772	-2.227034
1.490601	-0.01222344	-0.02750275	0.1438409	-0.1438409	4.285909	-2.087299
1.506739	-0.009778756	-0.03116979	0.1514936	-0.2272404	0.2309694	-2.517111
1.52331	-0.007334067	-0.03483682	0.1475203	-0.2212803	-0.1214739	0.1822163
1.579417	0	-0.04461557	0.1307176	-0.1742901	-0.2311941	0.6465527
1.595986	0.01711282	-0.06661777	1.032769	-1.327845	12.41194	-15.87256
1.612553	0.01711282	-0.06661777	0	0	-31.16745	40.07243
1.629119	0.0220022	-0.07150716	0.2951468	-0.2951472	8.908157	-8.908168
1.645687	0.02811392	-0.07884122	0.3688723	-0.442647	2.225033	-4.45154
1.662255	0.0330033	-0.0837306	0.2951107	-0.2951106	-2.225986	4.45237
1.678822	0.03789268	-0.08617529	0.2951318	-0.1475657	0.000636796	4.452882
1.714881	0.04278206	-0.08739763	0.1355957	-0.03389903	-3.031548	2.159924
1.731448	0.07334067	-0.08495294	1.844495	0.1475598	32.47252	3.448082
1.748051	0.08434176	-0.08250825	0.6626114	0.1472472	-35.63098	-0.009422697
1.764583	0.09412052	-0.08006357	0.5914771	0.1478689	-2.146775	0.01876304
1.781444	0.1149004	-0.0727295	1.232433	0.4349764	19.19396	8.597674
1.79772	0.1479037	-0.0617284	2.027757	0.6759191	24.00139	7.271193
1.814289	0.1699059	-0.05317198	1.327903	0.5164067	-21.30786	-4.856533
1.830859	0.1906857	-0.04583792	1.254049	0.4426054	-2.228574	-2.227
1.883447	0.2065762	-0.03850385	0.3021705	0.1394634	-13.76384	-4.383327
1.900015	0.2359125	-0.01405696	1.770626	1.475522	21.23395	19.31947
1.916969	0.2383572	-0.01038993	0.1442017	0.216303	-48.5188	-37.56447
1.93315	0.2408019	-0.00794524	0.1510802	0.1510795	0.2075919	-1.968435
1.94972	0.2456912	0.003055861	0.2950698	0.6639083	4.396404	15.65809
1.966287	0.2469136	0.01405696	0.07378285	0.6640468	-6.677949	0.004180262
1.983286	0.2481359	0.02383572	0.0719087	0.5752708	-0.05583571	-2.644877
2.041437	0.2481359	0.03605916	2.562494E-07	0.2102018	-0.9568715	-4.857901
2.058007	0.2432466	0.07884122	-0.2950686	2.581847	-3.948924	31.73987
2.074573	0.2420242	0.08617529	-0.07378604	0.4427176	6.677937	-64.55534
2.091138	0.2395795	0.1008434	-0.1475806	0.8854848	-2.227348	13.36409
2.107712	0.2359125	0.1179562	-0.2212539	1.032516	-2.223162	4.436802
2.124279	0.2285784	0.1424031	-0.4426971	1.47566	-6.681918	13.37162
2.160341	0.223689	0.1595159	-0.1355831	0.4745384	5.835478	-19.02233
2.192882	0.2053539	0.2035204	-0.5634516	1.352284	-6.236896	12.79461
2.209449	0.184574	0.2401907	-1.254256	2.213395	-14.06697	17.53495
2.226018	0.1784623	0.2487471	-0.3688621	0.5164056	26.71951	-51.21194
2.242584	0.1674612	0.26586	-0.6640943	1.033038	-8.910064	15.59188
2.259154	0.1552377	0.2829728	-0.737671	1.032737	-2.220453	-0.009080312
2.275718	0.145459	0.2976409	-0.5903487	0.8855234	4.446166	-4.442879
2.292559	0.1369026	0.3110866	-0.5080947	0.7984299	2.462356	-2.607233
2.308896	0.1295685	0.3257548	-0.4489252	0.8978558	1.783442	2.99682
2.32542	0.1246791	0.3379782	-0.2958813	0.739702	4.65721	-4.812707
2.365186	0.1185674	0.3514241	-0.1536918	0.338123	2.525978	-7.134
2.381754	0.110011	0.3673145	-0.5164585	0.9591374	-6.439622	11.02388
2.398342	0.110011	0.3685369	-8.982854E-07	0.07368455	15.57663	-26.70573
2.414888	0.1087887	0.3697592	-0.07387764	0.07387853	-2.229652	0.005854554
2.431763	0.1087887	0.3709816	0	0.07243367	2.210513	-0.04323209
2.448024	0.1087887	0.3709816	0	0	0	-2.185942
2.464806	0.1087887	0.3709816	0	0	0	0
2.481159	0.1087887	0.3709816	0	0	0	0
2.516869	0.1087887	0.3709816	0	0	0	0
2.533436	0.1087887	0.3709816	0	0	0	0
2.550004	0.1087887	0.3709816	0	0	0	0
2.566571	0.1087887	0.3709816	0	0	0	0
2.583139	0.1087887	0.3709816	0	0	0	0
2.599706	0.1087887	0.3709816	0	0	0	0
2.616272	0.1087887	0.3709816	0	0	0	0
2.632839	0.1087887	0.3709816	0	0	0	0
2.649791	0.1087887	0.3709816	0	0	0	0
2.709995	0.1087887	0.3709816	0	0	0	0
2.726564	0.1087887	0.3709816	0	0	0	0
2.74313	0.1087887	0.3709816	0	0	0	0
2.759701	0.1087887	0.3709816	0	0	0	0
2.776638	0.1087887	0.3709816	0	0	0	0
2.792835	0.1087887	0.3709816	0	0	0	0
2.809401	0.1087887	0.3709816	0	0	0	0
2.878653	0.1087887	0.3709816	0	0	0	0
2.89522	0.1087887	0.3709816	0	0	0	0
2.911787	0.1087887	0.3709816	0	0	0	0
2.92854	0.1087887	0.3709816	0	0	0	0
2.945122	0.1087887	0.3709816	0	0	0	0
2.96149	0.1087887	0.3709816	0	0	0	0
2.978058	0.1087887	0.3709816	0	0	0	0
3.021382	0.1087887	0.3709816	0	0	0	0
3.037949	0.1087887	0.3709816	0	0	0	0
3.054516	0.1087887	0.3709816	0	0	0	0
3.071084	0.1087887	0.3709816	0	0	0	0
3.087649	0.1087887	0.3709816	0	0	0	0
3.104218	0.1087887	0.3709816	0	0	0	0
3.120785	0.1087887	0.3709816	0	0	0	0
3.137349	0.1087887	0.3709816	0	0	0	0
3.156994	0.1087887	0.3709816	0	0	0	0
3.173564	0.1038993	0.3502017	-0.295069	-1.254041	-8.147634	-34.62738
3.19013	0.1026769	0.3416453	-0.07378816	-0.5165189	6.677982	22.25751
3.206695	0.09778756	0.3184207	-0.2951616	-1.402017	-6.681832	-26.72747
3.223873	0.0904535	0.2829728	-0.4269494	-2.06359	-3.905647	-19.60629
3.239837	0.08556412	0.2609706	-0.30627	-1.378215	3.641275	20.67992
3.256423	0.08067474	0.2353013	-0.2948014	-1.547706	0.3523417	-5.207174
3.272964	0.07456302	0.2084097	-0.3694783	-1.625706	-2.254273	-2.354589
3.289531	0.06967364	0.1827405	-0.2951196	-1.549376	2.245881	2.305435
3.344548	0.06478426	0.159516	-0.08887145	-0.4221393	2.881214	15.7471
3.361157	0.0440044	0.09106467	-1.251124	-4.121349	-16.22686	-51.64674
3.377683	0.04155971	0.08739763	-0.1479255	-0.2218887	33.29364	117.6826
3.394249	0.04033737	0.08128592	-0.07378626	-0.3689306	2.240363	-4.443362
3.410818	0.03789268	0.07395184	-0.1475447	-0.4426347	-2.225986	-2.224347
3.428122	0.03544799	0.06784012	-0.1412814	-0.3532029	0.1849054	2.640223
3.443955	0.03178096	0.05806137	-0.2316083	-0.6176226	-2.725893	-7.979685
3.479789	0.02811392	0.05194964	-0.1023345	-0.1705574	2.50207	8.652862
3.496359	0.02077986	0.03361448	-0.4426023	-1.106506	-6.493146	-17.86019
3.512924	0.01955751	0.03239213	-0.07379146	-0.07379157	11.13049	31.1667
3.529768	0.01833517	0.03116979	-0.0725694	-0.0725694	0.03657913	0.03658248
3.546061	0.01833517	0.0287251	0	-0.1500472	2.190007	-2.338132
3.562626	0.01711282	0.02750275	-0.07379039	-0.07379039	-2.245743	2.320805
3.579194	0.01589048	0.02505806	-0.07377446	-0.147549	0.0004807588	-2.226089
3.595917	0.01589048	0.02383572	-1.113844E-07	-0.07309499	2.216022	2.236439
3.612325	0.01466813	0.02261337	-0.07449476	-0.07449482	-2.24848	-0.04225121
3.652713	0.01466813	0.02016868	-2.305946E-08	-0.06053026	1.311612	0.245871
3.669506	0.01344579	0.01894634	-0.07278885	-0.07278885	-1.272957	-0.2143827
3.685848	0.01344579	0.01894634	0	0	2.196788	2.196788
3.702414	0.01344579	0.01894634	0	0	0	0
3.718984	0.01344579	0.017724	5.620585E-08	-0.07376916	1.696186E-06	-2.226213
3.735598	0.01222345	0.01650165	-0.07357437	-0.07357448	-2.217194	0.005866644
3.752118	0.01222345	0.01527931	0	-0.07399268	2.220543	-0.0126217
3.768684	0.0110011	0.01527931	-0.07378302	-5.621636E-08	-2.230001	2.236336
3.788393	0.0110011	0.01527931	0	0	2.033956	1.549701E-06
3.804964	0.0110011	0.01527931	0	0	0	0
3.82153	0.0110011	0.01527931	0	0	0	0
3.838099	0.0110011	0.01527931	0	0	0	0
3.854753	0.0110011	0.01527931	0	0	0	0
3.871238	0.0110011	0.01527931	0	0	0	0
3.887799	0.0110011	0.01405696	0	-0.07380739	0	-2.233425
3.90468	0.0110011	0.01405696	0	0	0	2.20701
3.921638	0.0110011	0.01405696	0	0	0	0
3.969356	0.0110011	0.01405696	0	0	0	0
3.985925	0.0110011	0.01283462	0	-0.07377128	0	-1.147536
4.00249	0.0110011	0.01283462	0	0	0	2.226438
4.019057	0.0110011	0.01283462	0	0	0	0
4.035626	0.0110011	0.01283462	0	0	0	0
4.052357	0.0110011	0.01283462	0	0	0	0
4.069417	0.0110011	0.01283462	0	0	0	0
4.085497	0.0110011	0.01283462	0	0	0	0
4.1091	0.0110011	0.01283462	0	0	0	0
4.125673	0.0110011	0.01283462	0	0	0	0
4.142239	0.0110011	0.01283462	0	0	0	0
4.158805	0.0110011	0.01283462	0	0	0	0
4.17577	0.0110011	0.01283462	0	0	0	0
4.191939	0.0110011	0.01283462	0	0	0	0
4.208505	0.0110011	0.01283462	0	0	0	0
4.225072	0.0110011	0.01283462	0	0	0	0
4.241639	0.0110011	0.01283462	0	0	0	0
4.28482	0.0110011	0.01283462	0	0	0	0
4.301388	0.0110011	0.01283462	0	0	0	0
4.317959	0.0110011	0.01283462	0	0	0	0
4.334526	0.0110011	0.01283462	0	0	0	0
4.35149	0.0110011	0.01283462	0	0	0	0
4.367659	0.0110011	0.01283462	0	0	0	0
4.384226	0.0110011	0.01283462	0	0	0	0
4.400794	0.0110011	0.01283462	0	0	0	0
4.436551	0.0110011	0.01283462	0	0	0	0
4.453119	0.0110011	0.01283462	0	0	0	0
4.469686	0.0110011	0.01283462	0	0	0	0
4.486457	0.0110011	0.01283462	0	0	0	0
4.502822	0.0110011	0.01283462	0	0	0	0
4.520278	0.0110011	0.01283462	0	0	0	0
4.535955	0.0110011	0.01283462	0	0	0	0
4.552579	0.0110011	0.01283462	0	0	0	0
4.600394	0.0110011	0.01283462	0	0	0	0
4.61705	0.0110011	0.01283462	0	0	0	0
4.633528	0.0110011	0.01283462	0	0	0	0
4.650171	0.0110011	0.01283462	0	0	0	0
4.666717	0.0110011	0.01283462	0	0	0	0
4.683282	0.0110011	0.01283462	0	0	0	0
4.700177	0.0110011	0.01283462	0	0	0	0
4.748838	0.0110011	0.01283462	0	0	0	0
4.765409	0.0110011	0.01283462	0	0	0	0
4.781974	0.0110011	0.01283462	0	0	0	0
4.798545	0.0110011	0.01283462	0	0	0	0
4.82543	0.0110011	0.01283462	0	0	0	0
4.842	0.0110011	0.01283462	0	0	0	0
4.858567	0.0110011	0.01283462	0	0	0	0
4.91544	0.0110011	0.01283462	0	0	0	0
4.932008	0.0110011	0.01283462	0	0	0	0
4.948577	0.0110011	0.01283462	0	0	0	0
4.965144	0.0110011	0.01283462	0	0	0	0
4.982093	0.0110011	0.01283462	0	0	0	0
4.998278	0.0110011	0.01283462	0	0	0	0
5.014848	0.0110011	0.01283462	0	0	0	0
5.106888	0.0110011	0.01283462	0	0	0	0
5.123456	0.0110011	0.01283462	0	0	0	0
5.140023	0.0110011	0.01283462	0	0	0	0
5.156592	0.0110011	0.01283462	0	0	0	0
5.173164	0.0110011	0.01283462	0	0	0	0
5.239294	0.0110011	0.01283462	0	0	0	0
5.255944	0.0110011	0.01283462	0	0	0	0
5.272435	0.0110011	0.01283462	0	0	0	0
5.288996	0.0110011	0.01283462	0	0	0	0
5.305566	0.0110011	0.01283462	0	0	0	0
5.322133	0.0110011	0.01283462	0	0	0	0
5.338696	0.0110011	0.01283462	0	0	0	0
5.37412	0.0110011	0.01283462	0	0	0	0
5.390688	0.0110011	0.01283462	0	0	0	0
5.407254	0.0110011	0.01283462	0	0	0	0
5.423821	0.0110011	0.01283462	0	0	0	0
5.44039	0.0110011	0.01283462	0	0	0	0
5.45696	0.0110011	0.01283462	0	0	0	0
5.473523	0.0110011	0.01283462	0	0	0	0
5.490089	0.0110011	0.01161227	0	-0.07378514	0	-2.227193
5.547136	0.0110011	0.01038993	0	-0.0214272	0	0.7112624
5.563705	0.02322455	-0.01161227	0.7377024	-1.327864	10.02095	-17.74664
5.580637	0.02444689	-0.01405696	0.07219538	-0.1443908	-19.86548	35.32686
5.596839	0.02811392	-0.02139103	0.2263191	-0.4526384	4.651531	-9.303064
5.613592	0.03178096	-0.02505806	0.2188982	-0.2188981	-0.2251825	7.092674
5.629977	0.03422565	-0.02994744	0.1492021	-0.2984042	-2.103251	-2.399292
5.646539	0.03789268	-0.03361447	0.2214061	-0.2214062	2.191484	2.336987
5.689793	0.04033737	-0.03605916	0.05651958	-0.05651958	-2.756546	2.756548
5.706363	0.04767143	-0.04828261	0.4426086	-0.7376812	6.453749	-11.3861
5.723041	0.04889378	-0.05072729	0.07329365	-0.1465869	-11.10806	17.77863
5.739497	0.05133847	-0.05439433	0.1485536	-0.2228308	2.271383	-2.30108
5.756069	0.05378316	-0.05683902	0.1475192	-0.1475192	-0.03131858	2.280192
5.772635	0.05622784	-0.05928371	0.1475702	-0.1475704	0.001537409	-0.001544154
5.789284	0.05867253	-0.06417308	0.1468432	-0.2936859	-0.02188747	-4.399139
5.805764	0.05867254	-0.06539543	2.260431E-07	-0.0741697	-4.432495	6.626157
5.855928	0.05989488	-0.06661777	0.02436681	-0.02436681	0.3656195	0.7472898
5.872498	0.06111722	-0.06784011	0.07377223	-0.07377223	0.7403407	-0.7403407
5.889065	0.06111722	-0.06784011	0	0	-2.226322	2.226322
5.905635	0.06111722	-0.06784011	0	0	0	0
5.922466	0.06111722	-0.06784011	0	0	0	0
5.938769	0.06111722	-0.06784011	0	0	0	0
5.955335	0.06111722	-0.06906246	0	-0.07378967	0	-2.245004
5.971901	0.06111722	-0.06906246	0	0	0	2.227169
5.990743	0.06111722	-0.06906246	0	0	0	0
6.007314	0.06111722	-0.06906246	0	0	0	0
6.023881	0.06111722	-0.06906246	0	0	0	0
6.040448	0.06111722	-0.06906246	0	0	0	0
6.057014	0.06111722	-0.06906246	0	0	0	0
6.073581	0.06111722	-0.06906246	0	0	0	0
6.090146	0.06111722	-0.06906246	0	0	0	0
6.106715	0.06111722	-0.06906246	0	0	0	0
6.123282	0.06111722	-0.06906246	0	0	0	0
6.163724	0.06111722	-0.06906246	0	0	0	0
6.180295	0.06111722	-0.06906246	0	0	0	0
6.196861	0.06111722	-0.06906246	0	0	0	0
6.213751	0.06111722	-0.06906246	0	0	0	0
6.230071	0.06111722	-0.06906246	0	0	0	0
6.246563	0.06111722	-0.06906246	0	0	0	0
6.26313	0.06111722	-0.06906246	0	0	0	0
6.279696	0.06111722	-0.06906246	0	0	0	0
6.308807	0.06111722	-0.06906246	0	0	0	0
6.325377	0.06111722	-0.06906246	0	0	0	0
6.341942	0.06111722	-0.06906246	0	0	0	0
6.358509	0.06111722	-0.06784011	0	0.07378542	0	2.227041
6.375078	0.05622785	-0.06172839	-0.2950892	0.3688618	-8.905552	8.905168
6.391643	0.05133847	-0.05072729	-0.295166	0.6641232	-0.002320578	8.911136
6.408619	0.04278206	-0.03239213	-0.5040193	1.080041	-6.226766	12.40021
6.424776	0.03178096	-0.006722895	-0.6809012	1.58877	-5.338539	15.35412
6.441635	0.02077986	0.02505806	-0.6525338	1.885097	0.8592105	8.975335
6.485931	0.008556412	0.05683902	-0.2759445	0.7174559	6.157866	-19.09289
6.502499	-0.009778756	0.1204009	-1.106681	3.836494	-13.64896	51.24565
6.519539	-0.01222344	0.127735	-0.1434655	0.4303971	28.66034	-101.3479
6.53645	-0.02444689	0.1497372	-0.7228091	1.301057	-17.06397	25.64437
6.552674	-0.02444689	0.1497372	0	0	21.81411	-39.2654
6.569244	-0.03178096	0.1582936	-0.4426087	0.5163768	-13.49664	15.74608
6.585809	-0.03911502	0.1656277	-0.4427615	0.4427608	-0.004610508	-2.221735
6.602375	-0.04644909	0.1717394	-0.4427235	0.3689364	0.001146929	-2.228314
6.627588	-0.05622785	0.1778511	-0.3878421	0.2424015	1.313611	-3.02867
6.644158	-0.08311942	0.1876299	-1.622852	0.5901278	-29.55713	8.322036
6.660723	-0.0904535	0.1888522	-0.4427494	0.07379135	35.61454	-15.58262
6.677325	-0.09778756	0.1900746	-0.4417566	0.07362693	0.02993272	-0.004957336
6.693856	-0.1197898	0.1949639	-1.330967	0.2957699	-26.83759	6.704576
6.710425	-0.1344579	0.1974086	-0.8852677	0.1475445	13.46519	-4.478092
6.726991	-0.149126	0.1998533	-0.885447	0.1475751	-0.005410928	0.0009246067
6.743557	-0.1601271	0.2035204	-0.6640848	0.2213613	6.681301	2.227064
6.760123	-0.1686835	0.2071874	-0.5165115	0.2213622	4.454155	2.698541E-05
6.780771	-0.1760176	0.2096321	-0.3551868	0.1183947	4.33502	-2.766882
6.797339	-0.188241	0.2157438	-0.737786	0.3688939	-10.28045	6.730922
6.813909	-0.1919081	0.2181885	-0.221313	0.147542	15.58584	-6.679836
6.830476	-0.1980198	0.2218555	-0.3688921	0.2213349	-4.453561	2.226882
6.847122	-0.2029092	0.2255226	-0.2937382	0.2203032	2.262777	-0.03106336
6.863611	-0.2077986	0.2291896	-0.296514	0.2223864	-0.08377225	0.06287012
6.880178	-0.2139103	0.2328566	-0.3689036	0.2213422	-2.189861	-0.03158853
6.896742	-0.220022	0.237746	-0.3689895	0.2951918	-0.002591573	2.229042
6.913311	-0.2212444	0.2389684	-0.07377011	0.07377011	8.910124	-6.682807
6.955455	-0.223689	0.241413	-0.05800813	0.05800813	0.268456	-0.268456
6.972025	-0.2249114	0.2426354	-0.07376798	0.07376798	-0.2684176	0.2684176
6.988593	-0.2249114	0.2426354	0	0	2.226098	-2.226098
7.005208	-0.2249114	0.2426354	0	0	0	0
7.021729	-0.2249114	0.2426354	0	0	0	0
7.038295	-0.2249114	0.2426354	0	0	0	0
7.054862	-0.2249114	0.2426354	0	0	0	0
7.071427	-0.2249114	0.2426354	0	0	0	0
7.108515	-0.2249114	0.2426354	0	0	0	0
7.125084	-0.2249114	0.2426354	0	0	0	0
7.141737	-0.2249114	0.2426354	0	0	0	0
7.158217	-0.2249114	0.2426354	0	0	0	0
7.190804	-0.2029092	0.234079	0.6751721	-0.2625675	13.75993	-5.351097
7.207373	-0.1002323	0.2316343	6.197236	-0.147553	112.3382	2.3398
7.223944	-0.06233957	0.2353013	2.28668	0.2212921	-118.0038	11.13017
7.267673	0.03544799	0.2524141	2.236226	0.3913396	-0.8367205	2.82003
7.28424	0.3557023	0.3269772	19.33059	4.500633	283.507	68.15194
7.301011	0.3755369	0.3301091	1.182656	0.1867412	-544.3528	-129.3965
7.317373	0.3798358	0.3251535	0.2627299	-0.3028647	-27.76422	-14.77676
7.333942	0.382529	0.3219807	0.1625464	-0.191495	-3.042237	3.381928
7.350681	0.382441	0.3220852	-0.005257442	0.006243769	-5.03794	5.936668
7.367077	0.382441	0.3220852	0	0	0.1586676	-0.1884346
7.383643	0.382441	0.3220852	0	0	0	0
7.402277	0.382441	0.3220852	0	0	0	0
7.418847	0.382441	0.3220852	0	0	0	0
7.436149	0.382441	0.3220852	0	0	0	0
7.451978	0.382441	0.3220852	0	0	0	0
7.468545	0.3841107	0.3200922	0.1007807	-0.1202943	3.110869	-3.713209
7.485115	0.3899279	0.308642	0.3510886	-0.6910595	7.553762	-17.22449
7.501679	0.3593693	0.2548589	-1.844787	-3.246823	-66.27262	-77.1342
7.518307	0.3202543	0.1741841	-2.352388	-4.851804	-15.29258	-48.35353
7.534814	0.2774722	0.08739763	-2.59173	-5.257507	-7.223237	-12.24397
7.554499	0.2261337	-0.03483682	-2.608026	-6.209588	-0.4502767	-26.30644
7.571536	0.1772399	-0.1656277	-2.869955	-7.677125	-7.132898	-39.96425
7.587635	0.1686835	-0.1864075	-0.5314879	-1.290756	70.57304	192.7354
7.604204	0.1613495	-0.2010757	-0.4426207	-0.8852449	2.720265	12.41287
7.621655	0.1442366	-0.2438577	-0.980606	-2.451511	-15.81338	-46.03835
7.637338	0.1332355	-0.2658599	-0.7014798	-1.402961	8.424168	31.64575
7.654154	0.1246791	-0.2866398	-0.5088353	-1.235744	5.927822	5.145424
7.670683	0.1161227	-0.3037526	-0.5176584	-1.035316	-0.2646005	6.010775
7.687034	0.1075663	-0.3184207	-0.5232882	-0.8970667	-0.171224	4.204621
7.727945	0.1002322	-0.3306442	-0.1792703	-0.2987836	6.007794	10.44818
7.744514	0.08434177	-0.3599805	-0.9590127	-1.770486	-13.56538	-25.60358
7.761081	0.08067474	-0.3660922	-0.221349	-0.3689142	22.26145	42.29709
7.778291	0.07334067	-0.3844273	-0.4261514	-1.065378	-6.063411	-20.61962
7.794218	0.06478426	-0.4015402	-0.5372322	-1.074464	-3.352185	-0.2742075
7.810781	0.05500551	-0.4198753	-0.5903996	-1.106999	-1.636435	-1.001391
7.837103	0.04767143	-0.4333211	-0.2786251	-0.5108126	7.269961	13.90189
7.866399	0.04522675	-0.4369881	-0.08344943	-0.125174	3.50923	6.933725
7.883272	0.04522675	-0.4369881	0	0	1.807485	2.711224
7.899534	0.04522675	-0.4369881	0	0	0	0
7.960575	0.04522675	-0.4369881	0	0	0	0
7.977148	0.04522675	-0.4369881	0	0	0	0
7.993712	0.04522675	-0.4369881	0	0	0	0
8.010279	0.04522675	-0.4369881	0	0	0	0
8.064055	0.04522675	-0.4369881	0	0	0	0
8.080756	0.04522675	-0.4369881	0	0	0	0
8.097192	0.04522675	-0.4333211	0	0.2231146	0	6.733223
8.113801	0.0440044	-0.4210977	-0.07359432	0.7359433	-2.227107	15.51919
8.13036	0.0440044	-0.4064295	-2.249755E-07	0.8858312	2.218839	4.519076
8.146894	0.04644909	-0.3844273	0.1478598	1.330736	4.468083	13.44428
8.163462	0.05011613	-0.3502017	0.2213299	2.065745	2.219504	22.20434
8.242005	0.05500551	-0.3074197	0.06225047	0.5446911	-1.672551	-15.99226
8.258574	0.06478426	-0.07639653	0.5902127	13.94378	5.550961	140.8772
8.275143	0.06478425	-0.06295074	-4.496662E-07	0.8114963	-17.81113	-396.2989
8.291709	0.06478426	-0.04339323	4.497438E-07	1.180561	2.714347E-05	11.13808
8.308545	0.06478426	-0.02505806	0	1.089035	-1.34644E-05	-2.740118
8.324841	0.06356192	-0.009167584	-0.07500695	0.9750922	-2.263844	-3.43899
8.381018	0.06233957	0.01161227	-0.02175908	0.3699051	0.7347313	-8.350568
8.397894	0.05500551	0.05683902	-0.43458	2.67991	-5.651024	31.6212
8.414153	0.05378316	0.06050605	-0.07517899	0.2255356	10.84643	-74.07102
8.43152	0.05378316	0.06539543	2.144995E-07	0.2815269	2.235709	1.665093
8.447288	0.05378316	0.07395185	-2.362699E-07	0.5426756	-1.360425E-05	7.881481
8.464438	0.05133847	0.08861998	-0.1425399	0.8552407	-4.330147	9.495273
8.480732	0.05011613	0.09717639	-0.07502035	0.5251418	2.018859	-9.870079
8.520701	0.04889378	0.1032881	-0.03058201	0.15291	0.7898328	-6.615929
8.53727	0.04767143	0.1167339	-0.0737767	0.811543	-0.7639989	11.64946
8.55429	0.04767143	0.1167339	0	0	2.196493	-24.1614
8.570405	0.04644909	0.1179562	-0.07585032	0.07584986	-2.289101	2.289088
8.586971	0.04644909	0.1179562	0	0	2.320897	-2.320883
8.603538	0.04644909	0.1179562	0	0	0	0
8.620104	0.04644909	0.1179562	0	0	0	0
8.636669	0.04644909	0.1179562	0	0	0	0
8.653235	0.04644909	0.1179562	0	0	0	0
8.685527	0.04644909	0.1179562	0	0	0	0
8.702096	0.04644909	0.1179562	0	0	0	0
8.71866	0.04644909	0.1179562	0	0	0	0
8.735228	0.04644909	0.1179562	0	0	0	0
8.751796	0.04644909	0.1179562	0	0	0	0
8.768765	0.04644909	0.1179562	0	0	0	0
8.784933	0.04644909	0.1179562	0	0	0	0
8.80152	0.04644909	0.1179562	0	0	0	0
8.847486	0.04644909	0.1179562	0	0	0	0
8.864057	0.04644909	0.1179562	0	0	0	0
8.880622	0.04644909	0.1179562	0	0	0	0
8.897188	0.04644909	0.1179562	0	0	0	0
8.913754	0.04644909	0.1179562	0	0	0	0
8.930324	0.04644909	0.1179562	0	0	0	0
8.946893	0.04644909	0.1179562	0	0	0	0
8.96346	0.04644909	0.1179562	0	0	0	0
8.998407	0.04644909	0.1179562	0	0	0	0
9.014977	0.04644909	0.1179562	0	0	0	0
9.031544	0.04644909	0.1179562	0	0	0	0
9.048108	0.04644909	0.1179562	0	0	0	0
9.064679	0.04644909	0.1179562	0	0	0	0
9.081336	0.04644909	0.1179562	0	0	0	0
9.097813	0.04644909	0.1179562	0	0	0	0
9.114381	0.04644909	0.1179562	0	0	0	0
9.130947	0.04644909	0.1179562	0	0	0	0
9.172574	0.04644909	0.1179562	0	0	0	0
9.189143	0.04644909	0.1179562	0	0	0	0
9.205711	0.04644909	0.1179562	0	0	0	0
9.222278	0.04644909	0.1179562	0	0	0	0
9.238845	0.04644909	0.1179562	0	0	0	0
9.255837	0.04644909	0.1179562	0	0	0	0
9.272212	0.04644909	0.1179562	0	0	0	0
9.288545	0.04644909	0.1179562	0	0	0	0
9.307303	0.04644909	0.1179562	0	0	0	0
9.323874	0.04644909	0.1179562	0	0	0	0
9.340441	0.04644909	0.1179562	0	0	0	0
9.357078	0.04644909	0.1179562	0	0	0	0
9.373576	0.04644909	0.1179562	0	0	0	0
9.390389	0.04644909	0.1179562	0	0	0	0
9.406709	0.04644909	0.1179562	0	0	0	0
9.423282	0.04644909	0.1179562	0	0	0	0
9.439925	0.04644909	0.1179562	0	0	0	0
9.476732	0.04644909	0.1179562	0	0	0	0
9.493301	0.04644909	0.1179562	0	0	0	0
9.509868	0.04644909	0.1179562	0	0	0	0
9.526547	0.04644909	0.1179562	0	0	0	0
9.543003	0.04644909	0.1179562	0	0	0	0
9.559839	0.04644909	0.1179562	0	0	0	0
9.576928	0.04644909	0.1179562	0	0	0	0
9.592978	0.04644909	0.1179562	0	0	0	0
9.612205	0.04644909	0.1179562	0	0	0	0
9.628915	0.04644909	0.1179562	0	0	0	0
9.645814	0.04644909	0.1179562	0	0	0	0
9.661909	0.04644909	0.1179562	0	0	0	0
9.696164	0.04644909	0.1179562	0	0	0	0
9.712761	0.04644909	0.1179562	0	0	0	0
9.7293	0.04644909	0.1179562	0	0	0	0
9.746001	0.04644909	0.1179562	0	0	0	0
9.789199	0.04644909	0.1179562	0	0	0	0
9.806115	0.04644909	0.1179562	0	0	0	0
9.822333	0.04644909	0.1179562	0	0	0	0
9.838904	0.04644909	0.1179562	0	0	0	0
9.855471	0.04644909	0.1179562	0	0	0	0
9.872037	0.04644909	0.1179562	0	0	0	0
9.888603	0.04644909	0.1179562	0	0	0	0
9.905169	0.04644909	0.1179562	0	0	0	0
9.937918	0.04644909	0.1179562	0	0	0	0
9.954487	0.04644909	0.1179562	0	0	0	0
9.971057	0.04644909	0.1179562	0	0	0	0
9.987979	0.04644909	0.1179562	0	0	0	0
10.00419	0.04644909	0.1179562	0	0	0	0
10.02126	0.04644909	0.1179562	0	0	0	0
10.03732	0.04644909	0.1179562	0	0	0	0
10.05422	0.04644909	0.1179562	0	0	0	0
10.07045	0.04644909	0.1179562	0	0	0	0
10.08946	0.04644909	0.1179562	0	0	0	0
10.10638	0.04644909	0.1179562	0	0	0	0
10.12259	0.04644909	0.1179562	0	0	0	0
10.13916	0.04644909	0.1179562	0	0	0	0
10.15575	0.04644909	0.1179562	0	0	0	0
10.1723	0.04644909	0.1191786	-2.250663E-07	0.07384874	-6.792513E-06	2.228759
10.18921	0.04644909	0.1191786	0	0	6.72477E-06	-2.206532
10.20543	0.04644909	0.1191786	0	0	0	0
10.222	0.04644909	0.1191786	0	0	0	0
10.24606	0.04644909	0.1191786	0	0	0	0
10.26344	0.04644909	0.1191786	0	0	0	0
10.27928	0.04644909	0.1191786	0	0	0	0
10.3024	0.04644909	0.1191786	0	0	0	0
10.32945	0.04644909	0.1191786	0	0	0	0
10.34602	0.04644909	0.1191786	0	0	0	0
10.36259	0.04644909	0.1191786	0	0	0	0
10.37915	0.04644909	0.1191786	0	0	0	0
10.40786	0.04644909	0.1191786	0	0	0	0
10.42443	0.04644909	0.1191786	0	0	0	0
10.44099	0.04644909	0.1191786	0	0	0	0
10.45756	0.04644909	0.1204009	2.24859E-07	0.07378118	6.785866E-06	2.226592
10.47413	0.04644909	0.1204009	0	0	-6.786453E-06	-2.226784
10.49089	0.04644909	0.1204009	0	0	0	0
10.50726	0.04644909	0.1204009	0	0	0	0
10.52383	0.04644909	0.1204009	0	0	0	0
10.54039	0.04644909	0.1204009	0	0	0	0
10.59777	0.04644909	0.1204009	0	0	0	0
10.61434	0.04644909	0.1191786	-2.24846E-07	-0.07377693	-3.040836E-06	-0.9977651
10.63094	0.04644909	0.1191786	0	0	6.779232E-06	2.224415
10.64764	0.04644909	0.1191786	0	0	0	0
10.66468	0.04644909	0.1191786	0	0	0	0
10.68061	0.04644909	0.1191786	0	0	0	0
10.7394	0.04644909	0.1191786	0	0	0	0
10.80957	0.04522675	0.1020658	-0.01741939	-0.2438719	-0.1350673	-1.890945
10.82614	0.04522675	0.07884122	2.24846E-07	-1.401755	0.2008267	-13.34897
10.84271	0.04522675	0.07639652	-2.24846E-07	-0.1475539	-1.357095E-05	37.84969
10.85948	0.04522674	0.07028481	-2.221859E-07	-0.3645186	7.980055E-08	-6.508669
10.87584	0.04522675	0.06295074	2.276104E-07	-0.4481021	1.357527E-05	-2.522627
10.89241	0.04522675	0.05317199	2.248978E-07	-0.5903484	-8.237173E-08	-4.319484
10.91213	0.04644909	0.03483682	0.06196668	-0.9295018	1.707527	-9.3456
10.92918	0.05133847	0.01038993	0.2868668	-1.434335	6.116424	-13.72952
10.94527	0.05378316	0.00550055	0.1519076	-0.3038154	-4.072722	34.11619
10.96184	0.05745019	-0.00794524	0.2213171	-0.811496	2.125059	-15.54328
10.97894	0.06111722	-0.02139103	0.2144062	-0.7861564	-0.2052421	0.7525348
10.99497	0.06356192	-0.03116979	0.1525046	-0.6100168	-1.868248	5.316058
11.01154	0.06845129	-0.04828261	0.2951403	-1.032992	4.375788	-12.97604
11.02811	0.07089598	-0.05317199	0.1475619	-0.2951236	-4.454054	22.26954
11.04561	0.07456302	-0.06417309	0.2095115	-0.6285342	1.818302	-9.786042
11.06167	0.08067474	-0.08250825	0.3805809	-1.141743	5.097161	-15.2915
11.11055	0.08311943	-0.08984232	0.05000869	-0.1500259	-5.090091	15.27028
11.12712	0.08923115	-0.1045105	0.3689041	-0.885371	4.872159	-11.23478
11.14369	0.08923115	-0.1045105	0	0	-11.13387	26.72132
11.16025	0.08923115	-0.1045105	0	0	0	0
11.17682	0.08923114	-0.1057328	-4.496662E-07	-0.07377134	-1.357056E-05	-2.226359
11.19366	0.08923114	-0.1057328	0	0	1.346246E-05	2.208624
11.20996	0.08923114	-0.1057328	0	0	0	0
11.22652	0.08923114	-0.1057328	0	0	0	0
11.25463	0.08923114	-0.1057328	0	0	0	0
11.2712	0.08923114	-0.1057328	0	0	0	0
11.28778	0.08923114	-0.1057328	0	0	0	0
11.30434	0.08923114	-0.1057328	0	0	0	0
11.32091	0.08923114	-0.1057328	0	0	0	0
11.33747	0.08923114	-0.1057328	0	0	0	0
11.35404	0.08923114	-0.1057328	0	0	0	0
11.37061	0.08923114	-0.1057328	0	0	0	0
11.40932	0.08923114	-0.1057328	0	0	0	0
11.42592	0.08923114	-0.1057328	0	0	0	0
11.44245	0.08923114	-0.1057328	0	0	0	0
11.45902	0.08923114	-0.1057328	0	0	0	0
11.47559	0.08923114	-0.1057328	0	0	0	0
11.49216	0.08923114	-0.1057328	0	0	0	0
11.50923	0.08923114	-0.1057328	0	0	0	0
11.52529	0.08923114	-0.1057328	0	0	0	0
11.54226	0.08923114	-0.1057328	0	0	0	0
11.59085	0.08923114	-0.1057328	0	0	0	0
11.60742	0.08923114	-0.1057328	0	0	0	0
11.62399	0.08923114	-0.1057328	0	0	0	0
11.64068	0.08923114	-0.1057328	0	0	0	0
11.65722	0.08923114	-0.1057328	0	0	0	0
11.67369	0.08923114	-0.1057328	0	0	0	0
11.69068	0.08923114	-0.1057328	0	0	0	0
11.70682	0.08923114	-0.1057328	0	0	0	0
11.72617	0.08923114	-0.1057328	0	0	0	0
11.74274	0.08923114	-0.1057328	0	0	0	0
11.75931	0.08923114	-0.1057328	0	0	0	0
11.77588	0.08923114	-0.1057328	0	0	0	0
11.79245	0.08923114	-0.1057328	0	0	0	0
11.80901	0.08923114	-0.1057328	0	0	0	0
11.82558	0.08923114	-0.1057328	0	0	0	0
11.84215	0.08923114	-0.1057328	0	0	0	0
11.85896	0.08923114	-0.1057328	0	0	0	0
11.90592	0.08923114	-0.1057328	0	0	0	0
11.92304	0.08923114	-0.1057328	0	0	0	0
11.93906	0.08923114	-0.1057328	0	0	0	0
11.95562	0.08923114	-0.1057328	0	0	0	0
11.97219	0.08923114	-0.1057328	0	0	0	0
11.98899	0.08923114	-0.1057328	0	0	0	0
12.00545	0.08923114	-0.1057328	0	0	0	0
12.02189	0.08923114	-0.1057328	0	0	0	0
12.05896	0.08923114	-0.1057328	0	0	0	0
12.07553	0.08923114	-0.1057328	0	0	0	0
12.0921	0.08923114	-0.1057328	0	0	0	0
12.10866	0.08923114	-0.1057328	0	0	0	0
12.12534	0.08923114	-0.1057328	0	0	0	0
12.1418	0.08923114	-0.1057328	0	0	0	0
12.15837	0.08923114	-0.1057328	0	0	0	0
12.17545	0.08923114	-0.1057328	0	0	0	0
12.21821	0.08923114	-0.1057328	0	0	0	0
12.23478	0.08923114	-0.1057328	0	0	0	0
12.25138	0.08923114	-0.1057328	0	0	0	0
12.2681	0.08923114	-0.1057328	0	0	0	0
12.28448	0.08923115	-0.1032881	4.546116E-07	0.1491667	1.373127E-05	4.505491
12.30105	0.08800881	-0.09839872	-0.07379347	0.2951752	-2.239351	4.430776
12.31761	0.08678646	-0.09350935	-0.07378497	0.2951399	0.0002565936	-0.001066854
12.33418	0.08556411	-0.08617529	-0.07377268	0.4426343	0.0003707818	4.451262
12.35322	0.08434177	-0.08006357	-0.06419507	0.3209758	0.2689571	-3.416396
12.36979	0.08311943	-0.07150716	-0.07376798	0.5163768	-0.2688179	5.487074
12.38636	0.08311943	-0.07150716	0	0	2.226194	-15.58339
12.40372	0.08311942	-0.06906246	-4.29329E-07	0.1408719	-1.2657E-05	4.153027
12.41949	0.08311942	-0.06539543	0	0.2323924	1.295755E-05	2.762174
12.43608	0.08556411	-0.05806137	0.1474346	0.4423031	4.55593	6.486528
12.45263	0.08923115	-0.05194964	0.2215467	0.3692446	2.236772	-2.204974
12.46919	0.09534287	-0.04461557	0.3689678	0.4427615	4.451612	2.219958
12.48576	0.1014546	-0.03605916	0.3688837	0.5164362	-0.002537455	2.223636
12.50976	0.110011	-0.0287251	0.3564718	0.3055475	-0.3059293	-5.197988
12.52633	0.1259015	-0.01038993	0.95893	1.106458	14.84835	19.73947
12.54305	0.1307909	-0.004278206	0.2924981	0.3656211	-20.02076	-22.25601
12.55956	0.1393473	0.00794524	0.5181362	0.7401947	6.790228	11.27221
12.57604	0.149126	0.02750275	0.5936975	1.187397	2.290797	13.55787
12.5926	0.1540154	0.04217089	0.2951247	0.8853706	-9.037217	-9.141757
12.60963	0.1589048	0.05928371	0.2871868	1.005159	-0.2363011	3.565942
12.62573	0.1613495	0.07761887	0.1518004	1.138498	-4.086559	4.024774
12.64319	0.1637942	0.09228701	0.1400326	0.8401976	-0.3506202	-8.887868
12.6871	0.1650165	0.1081775	0.02783985	0.3619185	-1.828311	-7.794108
12.70367	0.1686835	0.1387361	0.2213176	1.844309	3.199283	24.51231
12.72028	0.1686835	0.1424031	0	0.2207078	-6.669396	-48.92716
12.73697	0.1699059	0.1497372	0.07321926	0.4393209	2.198184	6.563187
12.75337	0.1723506	0.1582936	0.1491507	0.5220252	2.29505	2.49976
12.76993	0.1735729	0.1644053	0.07377223	0.3688621	-2.286973	-4.646947
12.7865	0.1760176	0.1717394	0.1475869	0.4427617	2.227797	2.23036
12.80307	0.1784623	0.1778511	0.1475369	0.3688417	-0.001511052	-2.23091
12.86155	0.180907	0.1839629	0.04180358	0.104509	-1.408831	-3.522072
12.87823	0.188241	0.2071874	0.4396986	1.392378	5.293971	17.13502
12.89469	0.188241	0.2108544	0	0.2228319	-13.26937	-35.29493
12.91125	0.1894634	0.2145215	0.07378497	0.221354	2.234359	-0.04475373
12.92782	0.1906857	0.2206332	0.07378162	0.3689054	-0.0001009646	4.453238
12.94439	0.1906857	0.2279672	-8.994876E-07	0.4427089	-2.226825	2.227458
12.96095	0.1906857	0.234079	8.994359E-07	0.3689054	5.429318E-05	-2.227458
12.98055	0.1906857	0.2414131	0	0.3741713	-2.486821E-05	0.1455957
12.99728	0.1919081	0.2548589	0.07309071	0.8039996	2.01216	11.83301
13.01369	0.1919081	0.2585258	0	0.2233849	-2.205564	-17.52046
13.03075	0.1919081	0.2634152	0	0.2866916	0	1.891436
13.04688	0.1919081	0.269527	-9.234633E-07	0.3787585	-2.782293E-05	2.773874
13.06339	0.1919081	0.2756387	0	0.3702036	2.828785E-05	-0.2620578
13.07996	0.1906857	0.2829728	-0.07378072	0.4426861	-2.230623	2.191376
13.09652	0.1894634	0.2903068	-0.07379347	0.4427608	-0.0003847669	0.002253281
13.11309	0.188241	0.2976409	-0.07378497	0.4427116	0.0002565936	-0.00148424
13.14684	0.1870187	0.3037526	-0.03621493	0.1810746	0.7466415	-5.199595
13.16341	0.1821293	0.3184207	-0.2951068	0.8853195	-5.144846	13.99515
13.18092	0.1821293	0.3184207	0	0	8.660563	-25.98166
13.19665	0.180907	0.3233101	-0.07768934	0.3107592	-2.337202	9.348865
13.21316	0.1796847	0.3245325	-0.07403981	0.07404071	0.1131892	-7.341754
13.22968	0.1796847	0.3245325	0	0	2.241623	-2.24165
13.24632	0.1796846	0.3257548	-8.953128E-07	0.07344251	-2.699651E-05	2.214524
13.26283	0.1796846	0.3257548	0	0	2.701204E-05	-2.215798
13.27938	0.1796846	0.3257548	0	0	0	0
13.30614	0.1796846	0.3257548	0	0	0	0
13.3227	0.1796846	0.3269771	0	0.07377468	0	1.702878
13.33927	0.1796846	0.3269771	0	0	0	-2.226524
13.35584	0.1796846	0.3269771	0	0	0	0
13.37241	0.1796846	0.3269771	0	0	0	0
13.38935	0.1796846	0.3269771	0	0	0	0
13.40554	0.1796846	0.3269771	0	0	0	0
13.42229	0.1796846	0.3269771	0	0	0	0
13.43867	0.1796846	0.3269771	0	0	0	0
13.47253	0.1796846	0.3269771	0	0	0	0
13.49025	0.1796846	0.3269771	0	0	0	0
13.50688	0.1784623	0.3269772	-0.07351413	1.792372E-06	-2.140303	5.218342E-05
13.52339	0.1784623	0.3269772	0	0	2.218533	-5.409077E-05
13.53995	0.1760176	0.3171984	-0.1475614	-0.5902458	-4.461246	-17.84498
13.55652	0.1747953	0.3037526	-0.07378587	-0.8116383	2.226615	-6.681831
13.57309	0.1723506	0.2903068	-0.1475699	-0.8116365	-2.226936	5.396926E-05
13.58965	0.1699059	0.2719716	-0.1475699	-1.106776	0	-8.907851
13.60626	0.1674612	0.2450801	-0.1471811	-1.618986	0.01172055	-15.43896
13.64521	0.1625718	0.1864075	-0.1255418	-1.506504	0.3895025	2.024652
13.66178	0.1503484	-0.04339323	-0.7378082	-13.8708	-11.02917	-222.7264
13.67881	0.1503484	-0.08739763	0	-2.582958	21.95618	335.9111
13.69491	0.149126	-0.127735	-0.07593663	-2.505883	-2.291838	2.326174
13.71148	0.1466813	-0.2316343	-0.1475445	-6.270651	-2.192107	-115.2496
13.72816	0.149126	-0.2829728	0.1465491	-3.077537	8.844706	96.03117
13.74461	0.1515707	-0.3257548	0.1485974	-2.600443	0.06181731	14.39914
13.76128	0.1527931	-0.3575357	0.07332907	-1.906558	-2.272517	20.94996
13.79874	0.1540154	-0.383205	0.0326349	-0.6853429	-0.7518708	22.56332
13.8154	0.1589048	-0.4320988	0.2934347	-2.934343	4.819166	-41.55795
13.83187	0.1589048	-0.4369882	9.04591E-07	-0.2968162	-8.855595	79.59843
13.84844	0.1589048	-0.4479893	-8.994359E-07	-0.6640265	-5.460122E-05	-11.1141
13.86563	0.1589048	-0.4553233	8.667074E-07	-0.426576	5.231456E-05	7.033471
13.88159	0.1589048	-0.4602127	0	-0.3062851	-2.613998E-05	3.627986
13.89818	0.1589048	-0.4626574	-8.985049E-07	-0.1474087	-2.760557E-05	4.881302
13.91471	0.1589048	-0.4626574	0	0	2.713411E-05	4.451622
13.94851	0.1589048	-0.4638797	0	-0.03616384	0	-0.7185457
13.96553	0.1589048	-0.4638797	0	0	0	0.7115214
13.98164	0.1589048	-0.4638797	0	0	0	0
13.99821	0.1589048	-0.4638797	0	0	0	0
14.01478	0.1589048	-0.4638797	0	0	0	0
14.03168	0.1589048	-0.4638797	0	0	0	0
14.04791	0.1589048	-0.4638797	0	0	0	0
14.06448	0.1589048	-0.4638797	0	0	0	0
14.09955	0.1589048	-0.4638797	0	0	0	0
14.11612	0.1564601	-0.4589903	-0.147536	0.2950737	-2.856981	5.713997
14.13268	0.1552378	-0.4553233	-0.07378832	0.2213659	2.225644	-2.224445
14.14946	0.1540154	-0.454101	-0.07286397	0.07286397	0.02772397	-4.453978
14.16582	0.1479037	-0.4455446	-0.3736354	0.5230895	-9.077559	13.58823
14.18238	0.145459	-0.4443222	-0.1475699	0.07378497	6.866343	-13.64684
14.19895	0.1381249	-0.4382105	-0.4427107	0.3689249	-8.90788	8.907852
14.21552	0.1295685	-0.4320988	-0.5164957	0.3689267	-2.226963	5.486875E-05
14.23208	0.1161227	-0.425987	-0.811543	0.3688842	-8.904547	-0.001282596
14.25122	0.0990099	-0.4198753	-0.89412	0.319328	-2.312595	-1.387837
14.26779	0.0440044	-0.4064295	-3.319566	0.8114496	-67.92181	13.7813
14.28436	0.02566924	-0.4039848	-1.106776	0.1475699	66.77826	-20.03477
14.30107	-0.0220022	-0.3966508	-2.853472	0.4389949	-52.4963	8.758669
14.3175	-0.06845129	-0.3905391	-2.827107	0.3719889	0.7956527	-2.022128
14.33406	-0.1369026	-0.3807603	-4.131728	0.5902458	-39.53741	6.614419
14.35074	-0.1723506	-0.3770933	-2.125331	0.2198614	60.34995	-11.14071
14.3672	-0.2053539	-0.3734262	-2.005474	0.2228319	3.617211	0.08964734
14.38376	-0.2346901	-0.3709816	-1.770945	0.1475766	7.102214	-2.278949
14.42723	-0.259137	-0.3697592	-0.5623927	0.02812027	20.13088	-1.989787
14.44382	-0.3153649	-0.3636475	-3.390601	0.3685412	-47.0953	5.668686
14.46037	-0.322699	-0.3624251	-0.4430687	0.07384629	88.95157	-8.893397
14.47694	-0.3398118	-0.3575358	-1.032991	0.2951399	-17.8121	6.681731
14.49351	-0.3538583	-0.3532482	-0.8476563	0.2587387	5.592943	-1.098495
14.51007	-0.3633397	-0.3434883	-0.5723296	0.589141	8.308658	9.9707
14.52664	-0.3695127	-0.3368388	-0.3726039	0.4013697	6.027907	-5.667114
14.5432	-0.371175	-0.3350062	-0.1003512	0.1106335	8.217312	-8.775191
14.57901	-0.3728845	-0.3331023	-0.04774731	0.05317511	1.004483	-1.097181
14.59558	-0.3734102	-0.3325129	-0.03172302	0.03556835	0.3059539	-0.3361683
14.61214	-0.3734102	-0.3325129	0	0	0.9574027	-1.073455
14.62882	-0.3734102	-0.3325129	0	0	0	0
14.64543	-0.3734102	-0.3325129	0	0	0	0
14.6626	-0.3734102	-0.3325129	0	0	0	0
14.67841	-0.3734102	-0.3325129	0	0	0	0
14.69498	-0.3734102	-0.3325129	0	0	0	0
14.71155	-0.3734102	-0.3325129	0	0	0	0
14.78194	-0.3734102	-0.3325129	0	0	0	0
14.7985	-0.3734102	-0.3325129	0	0	0	0
14.81507	-0.3739993	-0.3318501	-0.0355583	0.04000331	-1.073152	1.207302
14.83188	-0.3739993	-0.3318501	0	0	1.065515	-1.198712
14.84821	-0.3745891	-0.3311843	-0.03611342	0.04077245	-1.089874	1.23048
14.86478	-0.3746577	-0.3311067	-0.004140764	0.004683992	0.9718457	-1.09695
14.91681	-0.3748662	-0.3308706	-0.004007482	0.004536697	0.001942814	-0.002147087
14.93377	-0.3288107	-0.3000856	2.716126	1.815549	39.42754	26.2501
14.94994	-0.3153649	-0.2927515	0.8311564	0.4533599	-56.89013	-41.11214
14.96674	-0.2799169	-0.2707493	2.110607	1.310032	38.80377	25.98154
14.98332	-0.2334678	-0.2426354	2.801094	1.695398	20.6871	11.54563
14.99965	-0.1821293	-0.2157438	3.14496	1.64736	10.44978	-1.459832
15.01621	-0.1405696	-0.1900746	2.508694	1.549487	-19.34508	-2.975731
15.05486	-0.09167584	-0.1607383	1.265023	0.7590138	-22.52344	-14.31581
15.07206	-0.04278206	-0.1204009	2.842426	2.345002	28.2426	28.39629
15.088	-0.03667033	-0.1167339	0.3835653	0.2301391	-74.20644	-63.82484
15.10456	-0.0330033	-0.1106222	0.2213551	0.3689258	-4.991041	4.270324
15.12114	-0.02689158	-0.1032881	0.3687984	0.4425574	4.449333	2.221952
15.1377	-0.01955751	-0.0947317	0.4427105	0.5164957	2.230416	2.231205
15.15427	-0.01466813	-0.08495294	0.2950556	0.5901113	-4.455851	2.22153
15.17083	-0.01222345	-0.07884122	0.1476297	0.3690745	-4.449835	-6.671671
15.2161	-0.008556412	-0.07028481	0.0810071	0.1890165	-1.077553	-2.912256
15.23267	-0.004889378	-0.05317198	0.2213044	1.032754	2.268782	13.64428
15.24924	-0.004889378	-0.05317198	0	0	-6.678595	-31.16677
15.2658	-0.004889378	-0.04828261	0	0.2951233	0	8.907097
15.28237	-0.004889378	-0.04583792	-2.810737E-08	0.1475617	-8.482821E-07	-4.45342
15.29894	-0.004889378	-0.04217089	0	0.2213554	8.483066E-07	2.227162
15.31551	-0.004889378	-0.04094854	2.81009E-08	0.07376397	8.480137E-07	-4.453933
15.35371	-0.004889378	-0.0397262	0	0.03199737	-5.130488E-07	-0.7625485
15.39152	-0.004889378	-0.03850385	-1.231541E-08	0.03232755	-1.620179E-07	0.004343703
15.40809	-0.004889378	-0.03850385	0	0	2.264637E-07	-0.59446
15.42466	-0.004889378	-0.03850385	0	0	0	0
15.44122	-0.004889378	-0.03850385	0	0	0	0
15.4578	-0.004889378	-0.03850385	0	0	0	0
15.47436	-0.004889378	-0.03850385	0	0	0	0
15.49093	-0.004889378	-0.03850385	0	0	0	0
15.50749	-0.004889378	-0.03850385	0	0	0	0
15.52406	-0.004889378	-0.03850385	0	0	0	0
15.5644	-0.004889378	-0.03850385	0	0	0	0
15.58097	-0.004889378	-0.03850385	0	0	0	0
15.59754	-0.004889378	-0.03850385	0	0	0	0
15.6141	-0.004889378	-0.03850385	0	0	0	0
15.63067	-0.004889378	-0.03850385	0	0	0	0
15.64741	-0.004889378	-0.03850385	0	0	0	0
15.6638	-0.004889378	-0.03850385	0	0	0	0
15.68037	-0.004889378	-0.03850385	0	0	0	0
15.69944	-0.004889378	-0.03850385	0	0	0	0
15.71627	-0.004889378	-0.03850385	0	0	0	0
15.73275	-0.004889378	-0.03850385	0	0	0	0
15.74915	-0.004889378	-0.03850385	0	0	0	0
15.76571	-0.004889378	-0.03850385	0	0	0	0
15.78228	-0.004889378	-0.03850385	0	0	0	0
15.79885	-0.004889378	-0.03850385	0	0	0	0
15.81542	-0.004889378	-0.03850385	0	0	0	0
15.83228	-0.004889378	-0.03850385	0	0	0	0
15.87046	-0.004889378	-0.03850385	0	0	0	0
15.88718	-0.004889378	-0.03850385	0	0	0	0
15.90392	-0.004889378	-0.03850385	0	0	0	0
15.92062	-0.004889378	-0.03850385	0	0	0	0
15.93674	-0.004889378	-0.03850385	0	0	0	0
15.9533	-0.004889378	-0.03850385	0	0	0	0
15.96987	-0.004889378	-0.03850385	0	0	0	0
15.98643	-0.004889378	-0.03850385	0	0	0	0
16.05942	-0.004889378	-0.03850385	0	0	0	0
16.07598	-0.004889378	-0.03850385	0	0	0	0
16.09255	-0.004889378	-0.03850385	0	0	0	0
16.10948	-0.004889378	-0.03850385	0	0	0	0
16.12569	-0.004889378	-0.03850385	0	0	0	0
16.14226	-0.004889378	-0.03850385	0	0	0	0
16.16246	-0.004889378	-0.03850385	0	0	0	0
16.17905	-0.004889378	-0.03850385	0	0	0	0
16.1956	-0.004889378	-0.03850385	0	0	0	0
16.21217	-0.004889378	-0.03850385	0	0	0	0
16.22874	-0.004889378	-0.03850385	0	0	0	0
16.24531	-0.004889378	-0.03850385	0	0	0	0
16.26187	-0.004889378	-0.03850385	0	0	0	0
16.27875	-0.004889378	-0.03850385	0	0	0	0
16.29501	-0.004889378	-0.03850385	0	0	0	0
16.33574	-0.004889378	-0.03850385	0	0	0	0
16.35231	-0.004889378	-0.03850385	0	0	0	0
16.36897	-0.004889378	-0.03850385	0	0	0	0
16.38545	-0.004889378	-0.03850385	0	0	0	0
16.40202	-0.004889378	-0.03850385	0	0	0	0
16.41858	-0.004889378	-0.03850385	0	0	0	0
16.43558	-0.004889378	-0.03850385	0	0	0	0
16.45172	-0.004889378	-0.03850385	0	0	0	0
16.49346	-0.004889378	-0.03850385	0	0	0	0
16.51031	-0.004889378	-0.03850385	0	0	0	0
16.52659	-0.004889378	-0.03850385	0	0	0	0
16.54316	-0.004889378	-0.03850385	0	0	0	0
16.55976	-0.004889378	-0.03850385	0	0	0	0
16.5763	-0.004889378	-0.03850385	0	0	0	0
16.59286	-0.004889378	-0.03850385	0	0	0	0
16.60943	-0.004889378	-0.03850385	0	0	0	0
16.6285	-0.004889378	-0.03850385	0	0	0	0
16.64507	-0.004889378	-0.03850385	0	0	0	0
16.66164	-0.004889378	-0.03850385	0	0	0	0
16.67821	-0.004889378	-0.03850385	0	0	0	0
16.69524	-0.004889378	-0.03850385	0	0	0	0
16.71134	-0.004889378	-0.03850385	0	0	0	0
16.72839	-0.004889378	-0.03850385	0	0	0	0
16.74447	-0.004889378	-0.03850385	0	0	0	0
16.76104	-0.004889378	-0.03850385	0	0	0	0
16.79796	-0.004889378	-0.03850385	0	0	0	0
16.81453	-0.004889378	-0.03850385	0	0	0	0
16.83122	-0.004889378	-0.03850385	0	0	0	0
16.84804	-0.004889378	-0.03850385	0	0	0	0
16.86423	-0.004889378	-0.03850385	0	0	0	0
16.88079	-0.004889378	-0.03850385	0	0	0	0
16.89737	-0.004889378	-0.03850385	0	0	0	0
16.91393	-0.004889378	-0.03850385	0	0	0	0
16.9504	-0.004889378	-0.03850385	0	0	0	0
16.96727	-0.004889378	-0.03850385	0	0	0	0
16.98353	-0.004889378	-0.03850385	0	0	0	0
17.0001	-0.004889378	-0.03850385	0	0	0	0
17.01722	-0.004889378	-0.03850385	0	0	0	0
17.03324	-0.004889378	-0.03850385	0	0	0	0
17.0498	-0.004889378	-0.03850385	0	0	0	0
17.06637	-0.004889378	-0.03850385	0	0	0	0
17.1007	-0.004889378	-0.03850385	0	0	0	0
17.11727	-0.004889378	-0.03850385	0	0	0	0
17.13384	-0.004889378	-0.03850385	0	0	0	0
17.15061	-0.004889378	-0.03850385	0	0	0	0
17.17364	-0.004889378	-0.03850385	0	0	0	0
17.19021	-0.004889378	-0.03850385	0	0	0	0
17.20678	-0.004889378	-0.03850385	0	0	0	0
17.22334	-0.004889378	-0.03850385	0	0	0	0
17.28449	-0.004889378	-0.03850385	0	0	0	0
17.30106	-0.004889378	-0.03850385	0	0	0	0
17.31763	-0.004889378	-0.03850385	0	0	0	0
17.3342	-0.004889378	-0.03850385	0	0	0	0
17.3508	-0.004889378	-0.03850385	0	0	0	0
17.36766	-0.004889378	-0.03850385	0	0	0	0
17.38434	-0.004889378	-0.03850385	0	0	0	0
17.45691	-0.004889378	-0.03850385	0	0	0	0
17.47348	-0.004889378	-0.03850385	0	0	0	0
17.49005	-0.004889378	-0.03850385	0	0	0	0
17.55207	-0.004889378	-0.03850385	0	0	0	0
17.59301	-0.004889378	-0.03850385	0	0	0	0
17.60958	-0.004889378	-0.03850385	0	0	0	0
17.62647	-0.004889378	-0.03850385	0	0	0	0
17.64272	-0.004889378	-0.03850385	0	0	0	0
17.65928	-0.004889378	-0.03850385	0	0	0	0
17.67585	-0.004889378	-0.03850385	0	0	0	0
17.69251	-0.004889378	-0.03850385	0	0	0	0
17.70917	-0.004889378	-0.03850385	0	0	0	0
17.72555	-0.004889378	-0.03850385	0	0	0	0
17.76255	-0.004889378	-0.03850385	0	0	0	0
17.77912	-0.004889378	-0.03850385	0	0	0	0
17.79569	-0.004889378	-0.03850385	0	0	0	0
17.81225	-0.004889378	-0.03850385	0	0	0	0
17.82898	-0.004889378	-0.03850385	0	0	0	0
17.84577	-0.004889378	-0.03850385	0	0	0	0
17.86196	-0.004889378	-0.03850385	0	0	0	0
17.87852	-0.004889378	-0.03850385	0	0	0	0
17.93979	-0.004889378	-0.03850385	0	0	0	0
17.95636	0	-0.05683902	0.2950555	-1.106458	3.790685	-14.21507
17.97293	0	-0.06050605	0	-0.2213681	-8.904281	26.71053
17.98965	0.003667034	-0.06661778	0.2192976	-0.3654961	6.588075	-4.329853
18.00606	0.006111722	-0.07395184	0.148968	-0.4469038	-2.122672	-2.45703
18.02263	0.008556412	-0.08006357	0.1475617	-0.3689045	-0.04264342	2.365187
18.0392	0.0110011	-0.08373059	0.1475447	-0.2213167	-0.0005144477	4.453953
18.07314	0.01222344	-0.08984232	0.03601353	-0.1800677	-2.208083	0.8166434
18.08971	0.01589048	-0.09717639	0.2212917	-0.4425834	3.66798	-5.197063
18.10628	0.01711282	-0.09839874	0.07378083	-0.07378118	-4.451374	11.12919
18.12332	0.01833517	-0.09962107	0.07170866	-0.07170812	-0.06164751	0.06167389
18.13941	0.01833517	-0.1020658	0	-0.1519709	-2.164296	-2.422475
18.15598	0.01955751	-0.1020658	0.07378083	0	2.259486	4.654003
18.17268	0.01955751	-0.1045105	0	-0.1463321	-2.217392	-4.39783
18.18911	0.0220022	-0.1069551	0.148847	-0.1488471	4.492729	-0.07591348
18.23575	0.02322455	-0.1093998	0.02620677	-0.05241346	-1.944618	1.52908
18.25232	0.02566923	-0.1179563	0.1475617	-0.5164664	1.919883	-7.341503
18.26888	0.02689158	-0.1191786	0.07378083	-0.07378028	-2.22671	13.3603
18.28545	0.02811392	-0.1216233	0.07378083	-0.1475614	0	-2.22672
18.30202	0.02933627	-0.1228456	0.07377257	-0.07377313	-0.0002493543	2.226808
18.31859	0.02933627	-0.1252903	0	-0.1475619	-2.226332	-2.226821
18.33516	0.03055861	-0.1265126	0.07376374	-0.07376284	2.225938	2.227003
18.35175	0.03055861	-0.1265126	0	0	-2.224018	2.223991
18.39053	0.03055861	-0.127735	0	-0.03152633	0	-0.5693918
18.40709	0.03178096	-0.1289573	0.07378095	-0.07378072	1.333234	-0.7635443
18.42366	0.03178096	-0.1289573	0	0	-2.226713	2.226707
18.44023	0.03178096	-0.1289573	0	0	0	0
18.4568	0.03178096	-0.1289573	0	0	0	0
18.47337	0.03178096	-0.1289573	0	0	0	0
18.49017	0.03178096	-0.1289573	0	0	0	0
18.5065	0.03178096	-0.1289573	0	0	0	0
18.55999	0.03178096	-0.1289573	0	0	0	0
18.5766	0.03178096	-0.1289573	0	0	0	0
18.61654	0.03178096	-0.1289573	0	0	0	0
18.63311	0.03178096	-0.127735	0	0.07377223	0	1.305495
18.64968	0.03178096	-0.1252903	0	0.1475284	0	2.225581
18.66625	0.03055861	-0.1228456	-0.07378083	0.147561	-2.226454	0.0009843193
18.71466	0.02933627	-0.1155116	-0.02524965	0.1514979	0.7468905	0.06058833
18.73123	0.01711282	-0.06906246	-0.7378086	2.803673	-10.96622	40.81673
18.74815	0.01589048	-0.05561667	-0.07225032	0.7947538	19.87607	-59.99385
18.76437	0.01466813	-0.04461557	-0.07536879	0.6783187	-0.09411021	-3.513816
18.78093	0.008556412	-0.001833517	-0.3689043	2.58233	-8.953234	58.07495
18.7975	0.007334067	0.03239213	-0.07377237	2.065626	8.906587	-15.59325
18.81407	0.007334067	0.06906246	0	2.213426	2.226326	4.460341
18.83064	0.007334067	0.1155116	2.811061E-08	2.803995	8.484287E-07	17.82445
18.87127	0.003667034	0.1607383	-0.09023664	1.112918	-1.577473	-29.56258
18.88817	-0.001222344	0.2524142	-0.2892949	5.424282	-3.459537	74.92944
18.90443	-0.002444689	0.2646376	-0.07520954	0.7520941	6.457392	-140.9258
18.92098	-0.003667034	0.2915291	-0.07385739	1.624861	0.04122096	26.60666
18.93754	-0.006111723	0.3159761	-0.1475617	1.475618	-2.225555	-4.506505
18.95411	-0.007334067	0.3392006	-0.07376385	1.401513	2.226968	-2.236244
18.97144	-0.008556412	0.3685369	-0.07055605	1.693345	0.09463803	8.609775
18.98725	-0.009778757	0.383205	-0.07732394	0.9278871	-0.2042671	-23.10291
19.02564	-0.009778756	0.3966508	2.42576E-08	0.3502145	1.426612	-10.65794
19.04229	-0.009778756	0.4198753	0	1.39509	-4.407239E-07	18.9838
19.05877	-0.009778756	0.4198753	0	0	0	-42.10389
19.07534	-0.009778757	0.4259871	-5.621474E-08	0.3689054	-1.700676E-06	11.16057
19.09191	-0.009778756	0.4296541	5.621474E-08	0.2213422	3.393129E-06	-4.453468
19.10848	-0.009778756	0.4333211	0	0.221344	-1.696564E-06	5.441587E-05
19.12504	-0.008556412	0.4345435	0.07378934	0.07378922	2.227095	-4.453468
19.14161	-0.008556412	0.4357658	0	0.07377043	-2.226967	-0.0005668695
19.15842	-0.008556412	0.4369881	0	0.07270925	0	-0.03179037
19.19801	-0.008556412	0.4369881	0	0	0	-1.289252
19.21458	-0.008556412	0.4369881	0	0	0	0
19.2316	-0.008556412	0.4369881	0	0	0	0
19.24794	-0.008556412	0.4369881	0	0	0	0
19.26428	-0.008556412	0.4369881	0	0	0	0
19.28086	-0.008556412	0.4369881	0	0	0	0
19.29741	-0.008556412	0.4272094	0	-0.5909942	0	-17.83727
19.31398	-0.007334067	0.4100966	0.07378086	-1.032932	2.228122	-13.34616
19.33349	-0.002444689	0.3905391	0.2505319	-1.002129	4.898427	0.8536711
19.35006	0.006111722	0.3306442	0.516466	-3.615261	7.370021	-72.41959
19.36695	0.009778755	0.315976	0.2171181	-0.8684747	-8.947295	82.09948
19.38319	0.01466813	0.2805281	0.3010148	-2.182355	2.532154	-39.65527
19.40003	0.02077986	0.2524141	0.3629293	-1.669475	1.87149	15.50284
19.41633	0.02444689	0.2267449	0.2250213	-1.575149	-4.161831	2.846616
19.4329	0.02811392	0.2096321	0.2212916	-1.032694	-0.1134785	16.50432
19.44979	0.03055861	0.1937416	0.1447945	-0.9411644	-2.286574	2.735916
19.46603	0.03055861	0.1900746	0	-0.2257351	-4.370661	21.59543
19.50043	0.03055861	0.1864075	5.414518E-08	-0.1065971	1.069095E-06	2.352375
19.517	0.03055861	0.1839628	0	-0.1475445	-1.062294E-06	-0.8033601
19.53385	0.03055861	0.1839628	0	0	0	4.414529
19.55013	0.03055861	0.1839628	0	0	0	0
19.5667	0.03055861	0.1839628	0	0	0	0
19.58334	0.03055861	0.1839628	0	0	0	0
19.59983	0.03055861	0.1839628	0	0	0	0
19.61644	0.03055861	0.1839628	0	0	0	0
19.63297	0.03055861	0.1839628	0	0	0	0
19.65222	0.03055861	0.1839628	0	0	0	0
19.66879	0.03055861	0.1900746	-1.124295E-07	0.3689045	-3.138734E-06	10.29884
19.68535	0.02933627	0.202298	-0.07378083	0.7378082	-2.226707	11.13353
19.70201	0.02811392	0.2157438	-0.07338376	0.8072219	0.01195152	2.089258
19.71849	0.02689158	0.2426354	-0.07415649	1.631444	-0.023317	24.87077
19.73545	0.02566923	0.2878621	-0.072104	2.667848	0.06138584	30.99683
19.75197	0.02322455	0.3147537	-0.1479363	1.627301	-2.265152	-31.08172
19.76819	0.02077986	0.3379782	-0.1507377	1.432006	-0.0855575	-5.964416
19.78476	0.01955751	0.3465346	-0.07378083	0.5164651	2.34729	-27.92524
19.82076	0.01955751	0.3489794	0	0.06789207	1.403316	-8.531886
19.83738	0.01955751	0.3550911	0	0.3679294	0	5.70197
19.85402	0.01955751	0.3550911	0	0	0	-11.06274
19.87047	0.01955751	0.3550911	0	0	0	0
19.89666	0.01955751	0.3550911	0	0	0	0
19.91323	0.01955751	0.3550911	0	0	0	0
19.9298	0.01955751	0.3550911	0	0	0	0
19.94643	0.01955751	0.3550911	0	0	0	0
19.98103	0.01955751	0.3550911	0	0	0	0
19.99763	0.01955751	0.3550911	0	0	0	0
20.01417	0.01955751	0.3550911	0	0	0	0
20.03074	0.01955751	0.3550911	0	0	0	0
20.04731	0.01955751	0.3550911	0	0	0	0
20.06387	0.01955751	0.3550911	0	0	0	0
20.08044	0.01955751	0.3550911	0	0	0	0
20.097	0.01955751	0.3550911	0	0	0	0
20.13913	0.01955751	0.3550911	0	0	0	0
20.1557	0.01955751	0.3489794	0	-0.3688612	0	-6.284184
20.17251	0.01955751	0.3367559	1.107842E-07	-0.7270119	3.318639E-06	-10.72872
20.18883	0.02077986	0.3013079	0.07490175	-2.172154	2.260666	-43.617
20.20556	0.0220022	0.2401907	0.07305761	-3.652876	-0.05579774	-44.80175
20.22254	0.02689158	0.1497372	0.2880596	-5.329101	6.37898	-49.73259
20.23863	0.04278206	0.04583792	0.9872246	-6.454929	21.14222	-34.04419
20.25514	0.06478426	-0.08006357	1.33312	-7.628411	10.61016	-35.99592
20.28241	0.07945239	-0.1326244	0.5377849	-1.927063	-18.16689	130.2291
20.29909	0.1051216	-0.2096321	1.539649	-4.618948	22.79699	-61.25267
20.31555	0.1124557	-0.2267449	0.4454542	-1.039394	-33.02097	108.0249
20.33212	0.1283462	-0.2585259	0.9592621	-1.918524	15.55601	-26.61648
20.34868	0.1405696	-0.2854174	0.7378091	-1.623178	-6.683852	8.914088
20.36525	0.1503484	-0.308642	0.5901778	-1.401674	-4.455263	6.684608
20.38181	0.1601271	-0.3343112	0.5903835	-1.549756	0.006208264	-4.469367
20.39862	0.1760176	-0.3697592	0.9456512	-2.109531	10.64723	-16.77624
20.41495	0.1870187	-0.3905391	0.6737229	-1.272588	-8.207285	25.26045
20.45605	0.1943528	-0.4064295	0.1784299	-0.3865973	-8.623964	15.42673
20.47262	0.2053539	-0.4272094	0.6638746	-1.253987	8.416986	-15.03942
20.4896	0.2053539	-0.4284317	8.774147E-07	-0.07197432	-19.78519	35.2271
20.50575	0.2065762	-0.4284317	0.07569801	0	2.284807	2.17244
20.52273	0.2065762	-0.4284317	0	0	-2.284965	0
20.53889	0.2065762	-0.4284317	0	0	0	0
20.55581	0.2065762	-0.4284317	0	0	0	0
20.57238	0.2065762	-0.4284317	0	0	0	0
20.62546	0.2065762	-0.4284317	0	0	0	0
20.64203	0.2077986	-0.4320988	0.07377983	-0.2213422	1.059226	-3.177717
20.6586	0.2077986	-0.4333211	8.994359E-07	-0.07378253	-2.226652	4.453359
20.67516	0.2077986	-0.4333211	0	0	-2.714659E-05	2.226889
20.69173	0.2077986	-0.4333211	0	0	0	0
20.70836	0.2077986	-0.4333211	0	0	0	0
20.72496	0.2077986	-0.4333211	0	0	0	0
20.7802	0.2077986	-0.4333211	0	0	0	0
20.79676	0.2077986	-0.4308764	0	0.1475632	0	2.055083
20.81363	0.2065762	-0.4284317	-0.07247081	0.1449416	-2.167584	-0.07841247
20.8299	0.2065762	-0.4247647	-9.157778E-07	0.2253637	2.186894	2.426865
20.84665	0.2053539	-0.4174306	-0.07296588	0.4377971	-2.209464	6.432728
20.86325	0.2016868	-0.4027625	-0.2209606	0.8838442	-4.437877	13.37549
20.8796	0.1980198	-0.3893167	-0.2242858	0.8223832	-0.1009311	-1.865527
20.91355	0.1943528	-0.3734262	-0.1080104	0.4680443	2.31161	-7.044429
20.93024	0.1699059	-0.3159761	-1.464656	3.441942	-26.78893	58.72393
20.94724	0.1699059	-0.3159761	0	0	43.48253	-102.184
20.96325	0.145459	-0.2670823	-1.526223	3.052444	-46.23449	92.46892
20.97982	0.1246791	-0.2267449	-1.254563	2.435329	8.337881	-18.94074
20.99639	0.09900991	-0.1864075	-1.54922	2.434488	-8.893252	-0.02538714
21.01295	0.0770077	-0.1534042	-1.328209	1.992313	6.670123	-13.34488
21.02952	0.0550055	-0.1204009	-1.32775	1.991625	0.01384692	-0.02074699
21.05721	0.03789268	-0.09595404	-0.6181224	0.8830321	16.03453	-25.04943
21.0875	0.007334067	-0.04706026	-1.008911	1.614258	-6.740781	12.61303
21.10453	-0.009778757	-0.01650165	-1.004596	1.793921	0.09118939	3.796509
21.12063	-0.01466813	-0.01161227	-0.3036533	0.3036534	21.15328	-44.97379
21.13758	-0.01711282	-0.004278206	-0.1442081	0.4326241	4.823729	3.901774
21.15377	-0.0220022	0.00550055	-0.3021502	0.6043004	-4.766703	5.181203
21.17039	-0.02566923	0.01405696	-0.220606	0.5147474	2.485765	-2.729901
21.1869	-0.03055861	0.02383572	-0.2961122	0.5922242	-2.278783	2.338253
21.2035	-0.0330033	0.03116979	-0.1472564	0.4417697	4.495324	-4.543603
21.22003	-0.03544799	0.03605916	-0.1479022	0.2958046	-0.01949302	-4.405743
21.26205	-0.03789268	0.04094854	-0.05817805	0.1163561	1.53244	-3.064882
21.27862	-0.04155971	0.05317199	-0.2213428	0.7378088	-2.784951	10.60716
21.29519	-0.04278205	0.05561667	-0.07375503	0.1475105	4.45344	-17.81216
21.31176	-0.04278205	0.05561667	0	0	2.225675	-4.451363
21.32891	-0.0440044	0.05683902	-0.07126246	0.07126224	-2.113477	2.113471
21.34489	-0.0440044	0.05683902	0	0	2.150829	-2.150822
21.36199	-0.0440044	0.05683902	0	0	0	0
21.37815	-0.0440044	0.05683902	0	0	0	0
21.42637	-0.0440044	0.05683902	0	0	0	0
21.44294	-0.0440044	0.05683902	0	0	0	0
21.4595	-0.0440044	0.05683902	0	0	0	0
21.47607	-0.0440044	0.05683902	0	0	0	0
21.49264	-0.0440044	0.05683902	0	0	0	0
21.50921	-0.0440044	0.05683902	0	0	0	0
21.52577	-0.0440044	0.05683902	0	0	0	0
21.54234	-0.0440044	0.05683902	0	0	0	0
21.57015	-0.0440044	0.05683902	0	0	0	0
21.58672	-0.0440044	0.05683902	0	0	0	0
21.60334	-0.0440044	0.05683902	0	0	0	0
21.61985	-0.0440044	0.05683902	0	0	0	0
21.63657	-0.0440044	0.05683902	0	0	0	0
21.65299	-0.0440044	0.05683902	0	0	0	0
21.66955	-0.0440044	0.05683902	0	0	0	0
21.68612	-0.0440044	0.05683902	0	0	0	0
21.70273	-0.0440044	0.05683902	0	0	0	0
21.75837	-0.0440044	0.05683902	0	0	0	0
21.77494	-0.04278206	0.04217089	0.07377245	-0.8852683	1.021633	-12.25958
21.79151	-0.04278206	0.03972619	0	-0.1475449	-2.226201	22.26197
21.80807	-0.04155971	0.03605916	0.07378072	-0.2213426	2.226578	-2.227091
21.82464	-0.04033737	0.03116979	0.07378095	-0.2951232	6.745769E-06	-2.226704
21.84121	-0.04033737	0.02750275	0	-0.2213426	-2.226713	2.226704
21.85784	-0.04033737	0.02750275	0	0	0	6.667085
21.8943	-0.04033737	0.0262804	0	-0.03352311	0	-0.6313815
21.91091	-0.03911502	0.02505806	0.07359455	-0.07359444	1.386693	-0.7550374
21.92752	-0.03911502	0.02505806	0	0	-2.215604	2.2156
21.94401	-0.03911502	0.02505806	0	0	0	0
21.96091	-0.03911502	0.02505806	0	0	0	0
21.97714	-0.03911502	0.02505806	0	0	0	0
21.99378	-0.03911502	0.02505806	0	0	0	0
22.01042	-0.03911502	0.02505806	0	0	0	0
22.0491	-0.03911502	0.02505806	0	0	0	0
22.06567	-0.03911502	0.02383572	0	-0.07378072	0	-1.335394
22.08223	-0.03911502	0.02383572	0	0	0	2.226707
22.09894	-0.03911502	0.02383572	0	0	0	0
22.11537	-0.03911502	0.02383572	0	0	0	0
22.13194	-0.03911502	0.02383572	0	0	0	0
22.1485	-0.03911502	0.02383572	0	0	0	0
22.16507	-0.03911502	0.02383572	0	0	0	0
22.20774	-0.03911502	0.02383572	0	0	0	0
22.22438	-0.03911502	0.02383572	0	0	0	0
22.24088	-0.03911502	0.02383572	0	0	0	0
22.25746	-0.03911502	0.02383572	0	0	0	0
22.27401	-0.03911502	0.02383572	0	0	0	0
22.29073	-0.03911502	0.02383572	0	0	0	0
22.3079	-0.03911502	0.02383572	0	0	0	0
22.32409	-0.03911502	0.02383572	0	0	0	0
22.3745	-0.03911502	0.02383572	0	0	0	0
22.39106	-0.03911502	0.02383572	0	0	0	0
22.40763	-0.03911502	0.02383572	0	0	0	0
22.4242	-0.03911502	0.02383572	0	0	0	0
22.44107	-0.03911502	0.02383572	0	0	0	0
22.45733	-0.03911502	0.02383572	0	0	0	0
22.4739	-0.03911502	0.02383572	0	0	0	0
22.49073	-0.03911502	0.02383572	0	0	0	0
22.52672	-0.03911502	0.02383572	0	0	0	0
22.54329	-0.03911502	0.02383572	0	0	0	0
22.55986	-0.03911502	0.02383572	0	0	0	0
22.57721	-0.03911502	0.02383572	0	0	0	0
22.59299	-0.03911502	0.02383572	0	0	0	0
22.60956	-0.03911502	0.02383572	0	0	0	0
22.62613	-0.03911502	0.02383572	0	0	0	0
22.6436	-0.03911502	0.02383572	0	0	0	0
22.65927	-0.03911502	0.02383572	0	0	0	0
22.69106	-0.03911502	0.02383572	0	0	0	0
22.70807	-0.03911502	0.02383572	0	0	0	0
22.7242	-0.03911502	0.02383572	0	0	0	0
22.74078	-0.03911502	0.02383572	0	0	0	0
22.75734	-0.03911502	0.02383572	0	0	0	0
22.77391	-0.03911502	0.02383572	0	0	0	0
22.79048	-0.03911502	0.02383572	0	0	0	0
22.80704	-0.03911502	0.02383572	0	0	0	0
22.82361	-0.03911502	0.02383572	0	0	0	0
22.85642	-0.03911502	0.02383572	0	0	0	0
22.87299	-0.03911502	0.02383572	0	0	0	0
22.88956	-0.03911502	0.02383572	0	0	0	0
22.90641	-0.03911502	0.02383572	0	0	0	0
22.9227	-0.03911502	0.02383572	0	0	0	0
22.93941	-0.03911502	0.02383572	0	0	0	0
22.95591	-0.03911502	0.02383572	0	0	0	0
22.97273	-0.03911502	0.02383572	0	0	0	0
22.98896	-0.03911502	0.02383572	0	0	0	0
23.0122	-0.03911502	0.02383572	0	0	0	0
23.0293	-0.03911502	0.02383572	0	0	0	0
23.04587	-0.03911502	0.02383572	0	0	0	0
23.06243	-0.03911502	0.02383572	0	0	0	0
23.079	-0.03911502	0.02383572	0	0	0	0
23.09557	-0.03911502	0.02383572	0	0	0	0
23.11213	-0.03911502	0.02383572	0	0	0	0
23.1287	-0.03911502	0.02383572	0	0	0	0
23.14527	-0.03911502	0.02383572	0	0	0	0
23.17266	-0.03911502	0.02383572	0	0	0	0
23.18923	-0.03911502	0.02383572	0	0	0	0
23.2058	-0.03911502	0.02383572	0	0	0	0
23.22237	-0.03911502	0.02383572	0	0	0	0
23.23897	-0.03911502	0.02383572	0	0	0	0
23.2555	-0.03911502	0.02383572	0	0	0	0
23.27207	-0.03911502	0.02383572	0	0	0	0
23.28863	-0.03911502	0.02383572	0	0	0	0
23.3052	-0.03911502	0.02383572	0	0	0	0
23.35935	-0.03911502	0.02383572	0	0	0	0
23.37612	-0.03911502	0.02383572	0	0	0	0
23.39249	-0.03911502	0.02383572	0	0	0	0
23.40949	-0.03911502	0.02383572	0	0	0	0
23.42562	-0.03911502	0.02383572	0	0	0	0
23.44219	-0.03911502	0.02383572	0	0	0	0
23.45876	-0.03911502	0.02383572	0	0	0	0
23.53935	-0.03911502	0.02383572	0	0	0	0
23.55592	-0.03911502	0.02383572	0	0	0	0
23.57249	-0.03911502	0.02383572	0	0	0	0
23.58906	-0.03911502	0.02383572	0	0	0	0
23.6059	-0.03911502	0.02383572	0	0	0	0
23.62219	-0.03911502	0.02383572	0	0	0	0
23.64208	-0.03911502	0.02383572	0	0	0	0
23.65865	-0.03911502	0.02383572	0	0	0	0
23.67521	-0.03911502	0.02383572	0	0	0	0
23.69178	-0.03911502	0.02383572	0	0	0	0
23.70835	-0.03911502	0.02383572	0	0	0	0
23.72518	-0.03911502	0.02383572	0	0	0	0
23.74148	-0.03911502	0.02383572	0	0	0	0
23.75805	-0.03911502	0.02261337	0	-0.07379794	0	-2.245321
23.77462	-0.03667033	0.01283462	0.1475447	-0.5901789	4.453164	-15.58531
23.82267	-0.02811392	-0.00794524	0.1780592	-0.4324295	0.4721938	2.441077
23.84003	-0.006111722	-0.06050605	1.267358	-3.027577	16.65227	-39.6724
23.85581	-0.002444689	-0.06661777	0.2324204	-0.3873673	-31.23087	79.67251
23.87239	0.001222344	-0.0727295	0.2211898	-0.3686499	-0.347093	0.5784805
23.88894	0.007334067	-0.08495294	0.3691168	-0.7382336	4.464189	-11.15342
23.90551	0.0110011	-0.09106467	0.2213426	-0.3689045	-4.461118	11.14958
23.92236	0.01466813	-0.0947317	0.2176836	-0.2176832	-0.1095083	4.525832
23.93865	0.01589048	-0.09962108	0.07501578	-0.3000638	-4.30498	-2.485822
23.96934	0.01711282	-0.1020658	0.03982979	-0.07965934	-0.7488976	4.691082
23.98591	0.01833517	-0.1045104	0.07377234	-0.1475445	0.7182335	-1.436468
24.00248	0.01833517	-0.1045104	0	0	-2.226454	4.4529
24.01904	0.01833517	-0.1045104	0	0	0	0
24.03607	0.01833517	-0.1045104	0	0	0	0
24.05218	0.01833517	-0.1045104	0	0	0	0
24.06875	0.01833517	-0.1045104	0	0	0	0
24.08566	0.01833517	-0.1045104	0	0	0	0
24.10188	0.01833517	-0.1045104	0	0	0	0
24.1424	0.01833517	-0.1045104	0	0	0	0
24.15897	0.01833517	-0.1045104	0	0	0	0
24.17553	0.01833517	-0.1045104	0	0	0	0
24.19222	0.01833517	-0.1045104	0	0	0	0
24.21576	0.01833517	-0.1045104	0	0	0	0
24.23233	0.01833517	-0.1045104	0	0	0	0
24.2489	0.01833517	-0.1045104	0	0	0	0
24.29553	0.01833517	-0.1045104	0	0	0	0
24.31255	0.01833517	-0.1045104	0	0	0	0
24.32866	0.01833517	-0.1045104	0	0	0	0
24.34523	0.01833517	-0.1045104	0	0	0	0
24.36182	0.01833517	-0.1045104	0	0	0	0
24.37837	0.01833517	-0.1045104	0	0	0	0
24.39494	0.01833517	-0.1045104	0	0	0	0
24.4115	0.01833517	-0.1045104	0	0	0	0
24.44809	0.01833517	-0.1045104	0	0	0	0
24.46466	0.01833517	-0.1045104	0	0	0	0
24.48123	0.01833517	-0.1045104	0	0	0	0
24.4978	0.01833517	-0.1045104	0	0	0	0
24.51436	0.01833517	-0.1045104	0	0	0	0
24.5314	0.01833517	-0.1045104	0	0	0	0
24.5475	0.01833517	-0.1045104	0	0	0	0
24.56407	0.01833517	-0.1045104	0	0	0	0
24.59951	0.01833517	-0.1045104	0	0	0	0
24.61608	0.01833517	-0.1045104	0	0	0	0
24.63265	0.01833517	-0.1045104	0	0	0	0
24.64942	0.01833517	-0.1045104	0	0	0	0
24.66578	0.01833517	-0.1045104	0	0	0	0
24.68235	0.01833517	-0.1045104	0	0	0	0
24.69892	0.01833517	-0.1045104	0	0	0	0
24.71548	0.01833517	-0.1045104	0	0	0	0
24.74934	0.01833517	-0.1045104	0	0	0	0
24.76591	0.01833517	-0.1045104	0	0	0	0
24.78248	0.01833517	-0.1045104	0	0	0	0
24.79929	0.01833517	-0.1045104	0	0	0	0
24.81607	0.01833517	-0.1045104	0	0	0	0
24.83218	0.01833517	-0.1045104	0	0	0	0
24.84889	0.01833517	-0.1045104	0	0	0	0
24.86532	0.01833517	-0.1045104	0	0	0	0
24.89774	0.01833517	-0.1045104	0	0	0	0
24.92761	0.01833517	-0.1045104	0	0	0	0
24.94418	0.01833517	-0.1045104	0	0	0	0
24.96076	0.01833517	-0.1045104	0	0	0	0
24.97731	0.01833517	-0.1045104	0	0	0	0
24.99396	0.01833517	-0.1045104	0	0	0	0
25.01045	0.01833517	-0.1045104	0	0	0	0
25.02701	0.01833517	-0.1045104	0	0	0	0
25.04399	0.01833517	-0.1045104	0	0	0	0
25.06015	0.01833517	-0.1045104	0	0	0	0
25.09312	0.01833517	-0.1020658	0	0.07413922	0	1.50894
25.10969	0.03178096	-0.07639653	0.8114961	1.54922	16.37951	29.77351
25.12626	0.03667033	-0.06906246	0.2951233	0.4426852	-15.58327	-33.39335
25.14282	0.04767144	-0.05194964	0.6641043	1.033051	11.13651	17.8183
25.15939	0.05867254	-0.03239213	0.6640276	1.180494	-0.002315281	4.450093
25.17596	0.07334067	-0.01038993	0.8853703	1.328056	6.680134	4.45342
25.19253	0.09167583	0.02383572	1.106585	2.065626	6.675898	22.25865
25.2091	0.113678	0.06784012	1.328055	2.656111	6.683593	17.81984
25.25559	0.149126	0.1411808	0.7624598	1.577503	-8.969328	-17.10478
25.27215	0.180907	0.2206332	1.918303	4.795755	18.3296	51.03569
25.28921	0.1833517	0.2291896	0.1433521	0.5017362	-52.7932	-127.719
25.30529	0.1857964	0.2438577	0.1520074	0.9120408	0.2612036	12.38231
25.32186	0.1894634	0.2585258	0.2213422	0.8853696	2.123576	-0.8168832
25.33866	0.1919081	0.2719716	0.145535	0.8004393	-2.272041	-2.545472
25.35526	0.1931304	0.2854174	0.07362814	0.8099114	-2.152926	0.2835985
25.37156	0.1943528	0.3037526	0.07498062	1.124711	0.04110428	9.567315
25.4086	0.1943528	0.3135314	0	0.2640277	-1.405737	-16.1361
25.42516	0.1906857	0.34409	-0.2213422	1.844522	-4.1292	29.48456
25.44207	0.1894634	0.3489794	-0.0723	0.2891965	4.45248	-46.46373
25.4583	0.184574	0.3599805	-0.3012619	0.6778411	-6.909686	11.72864
25.47487	0.1821293	0.3697592	-0.1475454	0.5901778	4.686656	-2.672762
25.4916	0.1796847	0.3758709	-0.1460806	0.3652054	0.04398239	-6.755073
25.508	0.1784623	0.383205	-0.07454544	0.4472672	2.159059	2.476772
25.52457	0.17724	0.3856497	-0.07378072	0.1475614	0.02319815	-9.091716
25.57682	0.17724	0.3880944	0	0.04678546	1.072068	-1.464321
25.59339	0.17724	0.3905391	0	0.1475597	0	1.464295
25.61005	0.17724	0.3905391	0	0	0	-4.441088
25.62653	0.17724	0.3905391	0	0	0	0
25.6431	0.17724	0.3905391	0	0	0	0
25.65966	0.17724	0.3905391	0	0	0	0
25.67623	0.17724	0.3905391	0	0	0	0
25.70971	0.180907	0.3856497	0.1095236	-0.1460315	2.188503	-2.918004
25.72627	0.2139103	0.351424	1.992083	-2.065864	37.61446	-38.35919
25.74284	0.2224667	0.3416453	0.5164651	-0.5902476	-44.53424	44.53419
25.75951	0.2408019	0.3208654	1.099877	-1.246525	17.55283	-19.7451
25.77597	0.259137	0.3013079	1.113765	-1.188016	0.4191792	1.765896
25.79264	0.2774722	0.2805281	1.100001	-1.246667	-0.4154577	-1.770304
25.80911	0.2933627	0.2670822	0.9649279	-0.8164796	-4.076272	12.98234
25.82567	0.3043638	0.2560812	0.6641794	-0.6641794	-9.104909	4.610759
25.86599	0.3165872	0.2475248	0.303209	-0.2122456	-6.346495	7.945791
25.88256	0.322699	0.241413	0.3689036	-0.3689036	1.15495	-2.754139
25.89912	0.3239213	0.241413	0.07378072	0	-8.906827	11.13353
25.9157	0.3239213	0.2401907	0	-0.0737298	-2.225938	-2.224401
25.93232	0.3251436	0.2401907	0.07354365	0	2.215216	2.220823
25.94889	0.3251436	0.2389683	0	-0.07377313	-2.215853	-2.222767
25.9654	0.3251436	0.2389683	0	0	0	2.230201
25.98196	0.3251436	0.2389683	0	0	0	0
26.02448	0.3251436	0.2389683	0	0	0	0
26.04124	0.3251436	0.2389683	0	0	0	0
26.05762	0.3251436	0.2389683	0	0	0	0
26.07419	0.3251436	0.2389683	0	0	0	0
26.09082	0.3251436	0.2389683	0	0	0	0
26.10732	0.3251436	0.2389683	0	0	0	0
26.1241	0.3251436	0.2389683	0	0	0	0
26.14046	0.3251436	0.2389683	0	0	0	0
26.18523	0.3251436	0.2389683	0	0	0	0
26.2018	0.3251436	0.2389683	0	0	0	0
26.21837	0.3251436	0.2389683	0	0	0	0
26.23494	0.3251436	0.2389683	0	0	0	0
26.2515	0.3251436	0.2389683	0	0	0	0
26.26807	0.3251436	0.2389683	0	0	0	0
26.28464	0.3251436	0.2389683	0	0	0	0
26.30155	0.3251436	0.2389683	0	0	0	0
26.3599	0.3251436	0.2389683	0	0	0	0
26.37647	0.3251436	0.2389683	0	0	0	0
26.39304	0.3251436	0.2389683	0	0	0	0
26.40961	0.3251436	0.2389683	0	0	0	0
26.42617	0.3251436	0.2389683	0	0	0	0
26.44274	0.3251436	0.2389683	0	0	0	0
26.45932	0.3251436	0.2389683	0	0	0	0
26.53995	0.3251436	0.2389683	0	0	0	0
26.5568	0.3251436	0.2389683	0	0	0	0
26.57333	0.3251436	0.2389683	0	0	0	0
26.59021	0.3251436	0.2389683	0	0	0	0
26.60622	0.3214766	0.2328566	-0.2290692	-0.3817811	-6.965044	-11.60838
26.62323	0.3116978	0.2230779	-0.5748924	-0.5748924	-10.47374	-5.848647
26.66039	0.2994744	0.2132991	-0.3289165	-0.2631334	4.540603	5.75493
26.67696	0.2359125	0.1705171	-3.836603	-2.58233	-65.28356	-43.16389
26.69353	0.2224667	0.1619606	-0.8115907	-0.5164669	91.29506	62.34787
26.71031	0.1943528	0.1448478	-1.674786	-1.019435	-25.87996	-15.07978
26.72666	0.1552378	0.1155116	-2.392665	-1.794498	-21.66564	-23.39146
26.74323	0.1430143	0.1081775	-0.73781	-0.4426857	50.27645	41.06966
26.75979	0.1197898	0.08984232	-1.401836	-1.106713	-20.04035	-20.04037
26.77636	0.1002322	0.07517418	-1.180494	-0.8853705	6.680121	6.680121
26.81488	0.08434176	0.06050605	-0.4125167	-0.3807845	13.9409	9.159628
26.83175	0.03789268	0.01161227	-2.753584	-2.89851	-42.26562	-45.455
26.84802	0.03178096	0.003055861	-0.3757388	-0.5260347	71.76351	71.60145
26.86458	0.02689158	-0.004278206	-0.2951235	-0.4426852	2.455308	2.538581
26.88115	0.01711282	-0.01527931	-0.5902469	-0.6640278	-8.906843	-6.680133
26.89772	0.004889377	-0.03361447	-0.7378086	-1.106713	-4.453422	-13.36026
26.91429	-0.003667034	-0.04461557	-0.5164065	-0.6639515	6.681544	13.3618
26.9309	-0.0110011	-0.05561667	-0.441364	-0.662046	2.261274	0.05741889
26.97425	-0.01833517	-0.06539543	-0.1691818	-0.2255757	4.538864	7.278502
26.99082	-0.02444689	-0.07639652	-0.3688618	-0.663951	-3.33248	-7.316088
27.00739	-0.02444689	-0.07639652	0	0	11.13163	20.03693
27.02396	-0.02566924	-0.07639653	-0.07378095	-4.497179E-07	-2.226713	-1.357251E-05
27.04076	-0.02566924	-0.07639653	0	0	2.211185	1.347786E-05
27.05778	-0.02566924	-0.07639653	0	0	0	0
27.07366	-0.02566924	-0.07639653	0	0	0	0
27.09044	-0.02566924	-0.07639653	0	0	0	0
27.11596	-0.02566924	-0.07639653	0	0	0	0
27.13253	-0.02566924	-0.07639653	0	0	0	0
27.1493	-0.02566924	-0.07639653	0	0	0	0
27.16566	-0.02566924	-0.07639653	0	0	0	0
27.18224	-0.02566924	-0.07639653	0	0	0	0
27.19886	-0.02566924	-0.07639653	0	0	0	0
27.2157	-0.02566924	-0.07639653	0	0	0	0
27.23193	-0.02566924	-0.07639653	0	0	0	0
27.2485	-0.02566924	-0.07639653	0	0	0	0
27.2892	-0.02566924	-0.07639653	0	0	0	0
27.30656	-0.02566924	-0.07639653	0	0	0	0
27.32234	-0.02566924	-0.07639653	0	0	0	0
27.33891	-0.02566924	-0.07639653	0	0	0	0
27.35547	-0.02566924	-0.07639653	0	0	0	0
27.37204	-0.02566924	-0.07639653	0	0	0	0
27.39514	-0.02566924	-0.07639653	0	0	0	0
27.42228	-0.02566924	-0.07639653	0	0	0	0
27.43885	-0.02566924	-0.07639653	0	0	0	0
27.45561	-0.02566924	-0.07639653	0	0	0	0
27.47198	-0.02566924	-0.07639653	0	0	0	0
27.48855	-0.02566924	-0.07639653	0	0	0	0
27.50512	-0.02566924	-0.07639653	0	0	0	0
27.52247	-0.02566924	-0.07639653	0	0	0	0
27.53825	-0.02566924	-0.07639653	0	0	0	0
27.55482	-0.02566924	-0.07639653	0	0	0	0
27.59617	-0.02566924	-0.07639653	0	0	0	0
27.61279	-0.02566924	-0.07639653	0	0	0	0
27.62931	-0.02566924	-0.07639653	0	0	0	0
27.64588	-0.02566924	-0.07639653	0	0	0	0
27.66252	-0.02566924	-0.07639653	0	0	0	0
27.67901	-0.02566924	-0.07639653	0	0	0	0
27.69558	-0.02566924	-0.07639653	0	0	0	0
27.71214	-0.02566924	-0.07639653	0	0	0	0
27.74801	-0.02566924	-0.07639653	0	0	0	0
27.76458	-0.02566923	-0.07517418	1.124295E-07	0.07378118	2.144094E-06	1.407049
27.78115	-0.02566923	-0.07517418	0	0	-3.393129E-06	-2.22672
27.7978	-0.02566923	-0.07395184	0	0.07340886	0	2.209887
27.81429	-0.02444689	-0.07395185	0.07413933	-4.51903E-07	2.237272	-2.215243
27.83085	-0.02444689	-0.07395185	0	0	-2.243082	1.36723E-05
27.84742	-0.02444689	-0.07395185	0	0	0	0
27.86399	-0.02444689	-0.07395185	0	0	0	0
27.90015	-0.02444689	-0.07395185	0	0	0	0
27.91672	-0.02444689	-0.07395185	0	0	0	0
27.93334	-0.02444689	-0.0727295	-1.120554E-07	0.07353566	-3.376202E-06	2.215612
27.94985	-0.02444689	-0.0727295	0	0	3.381838E-06	-2.219311
27.96691	-0.02444689	-0.0727295	0	0	0	0
27.98299	-0.02444689	-0.0727295	0	0	0	0
27.99956	-0.02322455	-0.07272949	0.07378095	4.497179E-07	2.259886	1.377471E-05
28.01612	-0.02322455	-0.07272949	0	0	-2.22697	-1.357408E-05
28.0673	-0.02322455	-0.07272949	0	0	0	0
28.08387	-0.02322455	-0.07150715	0	0.07377223	0	1.088905
28.10072	-0.02322455	-0.07150715	0	0	0	-2.20739
28.11729	-0.02322455	-0.07150715	0	0	0	0
28.13357	-0.0220022	-0.07028481	0.07506856	0.07506845	2.285041	2.285038
28.15014	-0.0220022	-0.07028481	0	0	-2.285174	-2.28517
28.16707	-0.0220022	-0.07028481	0	0	0	0
28.20052	-0.0220022	-0.07028481	0	0	0	0
28.21709	-0.02077986	-0.07028481	0.07378095	0	1.475191	0
28.23365	-0.02077986	-0.07028481	0	0	-2.226713	0
28.25022	-0.02077986	-0.06906246	0	0.07378072	0	2.226707
28.26679	-0.02077986	-0.06906246	0	0	0	-2.226707
28.28336	-0.02077986	-0.06784012	0	0.07378072	0	2.226707
28.29992	-0.01955751	-0.06784011	0.07378083	4.497179E-07	2.22671	-2.226693
28.31649	-0.01955751	-0.06661777	0	0.07378922	-2.226838	2.227078
28.33306	-0.01955751	-0.06661777	0	0	0	-2.226963
28.37503	-0.01955751	-0.06661777	0	0	0	0
28.39159	-0.01833517	-0.06539543	0.07378083	0.07378072	1.260424	1.260422
28.40816	-0.01833517	-0.06539543	0	0	-2.22671	-2.226707
28.42473	-0.01833517	-0.06539543	0	0	0	0
28.4413	-0.01833517	-0.06539543	0	0	0	0
28.45787	-0.01833517	-0.06539543	0	0	0	0
28.47443	-0.01833517	-0.06539543	0	0	0	0
28.491	-0.01833517	-0.06539543	0	0	0	0
28.53056	-0.01833517	-0.06539543	0	0	0	0
28.54713	-0.01833517	-0.06539543	0	0	0	0
28.5637	-0.01833517	-0.06539543	0	0	0	0
28.58027	-0.01833517	-0.06539543	0	0	0	0
28.59743	-0.01833517	-0.06539543	0	0	0	0
28.6134	-0.01833517	-0.06539543	0	0	0	0
28.63059	-0.01833517	-0.06539543	0	0	0	0
28.64653	-0.01833517	-0.06539543	0	0	0	0
28.70044	-0.01833517	-0.06539543	0	0	0	0
28.71737	-0.01833517	-0.06539543	0	0	0	0
28.73409	-0.01833517	-0.06539543	0	0	0	0
28.75014	-0.01833517	-0.06539543	0	0	0	0
28.7667	-0.01833517	-0.06295074	0	0.1475789	0	4.525051
28.78327	-0.01466813	-0.05928371	0.2213681	0.2213677	6.681672	2.227206
28.79984	-0.0110011	-0.05317198	0.221317	0.3688621	-0.001541183	4.45139
28.81641	-0.006111723	-0.04950495	0.2951234	0.2213424	2.227353	-4.451896
28.83649	-0.004889378	-0.04583792	0.0608489	0.1825467	-6.391265	-1.058388
28.85307	-0.004889378	-0.04461557	2.81009E-08	0.07376397	-1.659851	-2.967403
28.86963	-0.004889378	-0.04461557	0	0	-8.479893E-07	-2.225945
28.88641	-0.004889378	-0.04461557	0	0	0	0
28.90277	-0.004889378	-0.04461557	0	0	0	0
28.91933	-0.004889378	-0.04461557	0	0	0	0
28.9359	-0.004889378	-0.04461557	0	0	0	0
28.95271	-0.004889378	-0.04461557	0	0	0	0
28.96929	-0.004889378	-0.04461557	0	0	0	0
29.01937	-0.003667034	-0.04461557	0.02440815	0	0.3661908	0
29.03593	-0.003667034	-0.04461557	0	0	-0.3662327	0
29.0525	-0.003667034	-0.04461557	0	0	0	0
29.06907	-0.003667034	-0.04461557	0	0	0	0
29.08564	-0.003667034	-0.04461557	0	0	0	0
29.10225	-0.003667034	-0.04461557	0	0	0	0
29.11877	-0.003667034	-0.04461557	0	0	0	0
29.13533	-0.003667034	-0.04461557	0	0	0	0
29.23367	-0.003667034	-0.04461557	0	0	0	0
29.25039	-0.003667034	-0.04461557	0	0	0	0
29.26701	-0.003667034	-0.04461557	0	0	0	0
29.28337	-0.003667034	-0.04461557	0	0	0	0
29.29994	-0.003667034	-0.04461557	0	0	0	0
29.33759	-0.003667034	-0.04461557	0	0	0	0
29.35443	-0.003667034	-0.04461557	0	0	0	0
29.37074	-0.003667034	-0.04461557	0	0	0	0
29.3875	-0.003667034	-0.04461557	0	0	0	0
29.40411	-0.003667034	-0.04461557	0	0	0	0
29.42043	-0.003667034	-0.04461557	0	0	0	0
29.437	-0.003667034	-0.04461557	0	0	0	0
29.45357	-0.003667034	-0.04461557	0	0	0	0
29.48933	-0.003667034	-0.04461557	0	0	0	0
29.50637	-0.003667034	-0.04461557	0	0	0	0
29.52246	-0.003667034	-0.04461557	0	0	0	0
29.53918	-0.003667034	-0.04461557	0	0	0	0
29.5556	-0.003667034	-0.04461557	0	0	0	0
29.57216	-0.003667034	-0.04461557	0	0	0	0
29.58922	-0.003667034	-0.04461557	0	0	0	0
29.6053	-0.003667034	-0.04461557	0	0	0	0
29.62186	-0.003667034	-0.04461557	0	0	0	0
29.64064	-0.003667034	-0.04461557	0	0	0	0
29.65721	-0.003667034	-0.04461557	0	0	0	0
29.67378	-0.003667034	-0.04461557	0	0	0	0
29.69034	-0.003667034	-0.04461557	0	0	0	0
29.70691	-0.003667034	-0.04461557	0	0	0	0
29.72348	-0.003667034	-0.04461557	0	0	0	0
29.74005	-0.003667034	-0.04461557	0	0	0	0
29.7568	-0.003667034	-0.04461557	0	0	0	0
29.77318	-0.003667034	-0.04461557	0	0	0	0
29.85684	-0.003667034	-0.04461557	0	0	0	0
29.87344	-0.003667034	-0.04461557	0	0	0	0
29.88997	-0.003667034	-0.04461557	0	0	0	0
29.90742	-0.003667034	-0.04461557	0	0	0	0
29.92311	-0.003667034	-0.04461557	0	0	0	0
29.94031	-0.003667034	-0.04461557	0	0	0	0
29.97065	-0.003667034	-0.04461557	0	0	0	0
29.98722	-0.003667034	-0.04461557	0	0	0	0
30.00382	-0.003667034	-0.04461557	0	0	0	0
30.02092	-0.003667034	-0.04461557	0	0	0	0
30.03692	-0.003667034	-0.04461557	0	0	0	0
30.05349	-0.003667034	-0.04461557	0	0	0	0
30.07023	-0.003667034	-0.04461557	0	0	0	0
30.08674	-0.003667034	-0.04461557	0	0	0	0
30.12274	-0.003667034	-0.04461557	0	0	0	0
30.13977	-0.003667034	-0.04461557	0	0	0	0
30.15588	-0.003667034	-0.04461557	0	0	0	0
30.17244	-0.003667034	-0.04461557	0	0	0	0
30.18901	-0.003667034	-0.04461557	0	0	0	0
30.20558	-0.003667034	-0.04461557	0	0	0	0
30.22215	-0.003667034	-0.04461557	0	0	0	0
30.23871	-0.003667034	-0.04461557	0	0	0	0
30.25528	-0.003667034	-0.04461557	0	0	0	0
30.28139	-0.003667034	-0.04461557	0	0	0	0
30.29795	-0.003667034	-0.04461557	0	0	0	0
30.31452	-0.003667034	-0.04461557	0	0	0	0
30.33109	-0.003667034	-0.04461557	0	0	0	0
30.34766	-0.003667034	-0.04461557	0	0	0	0
30.36427	-0.003667034	-0.04461557	0	0	0	0
30.38079	-0.003667034	-0.04461557	0	0	0	0
30.39735	-0.003667034	-0.04461557	0	0	0	0
30.41392	-0.003667034	-0.04461557	0	0	0	0
30.45476	-0.003667034	-0.04461557	0	0	0	0
30.47137	-0.003667034	-0.04461557	0	0	0	0
30.48789	-0.003667034	-0.04461557	0	0	0	0
30.50446	-0.003667034	-0.04461557	0	0	0	0
30.5351	-0.003667034	-0.04461557	0	0	0	0
30.55186	-0.003667034	-0.04461557	0	0	0	0
30.56824	-0.003667034	-0.04461557	0	0	0	0
30.58755	-0.003667034	-0.04461557	0	0	0	0
30.60416	-0.003667034	-0.04461557	0	0	0	0
30.62068	-0.003667034	-0.04461557	0	0	0	0
30.63725	-0.003667034	-0.04461557	0	0	0	0
30.65382	-0.003667034	-0.04461557	0	0	0	0
30.67039	-0.003667034	-0.04461557	0	0	0	0
30.68729	-0.003667034	-0.04461557	0	0	0	0
30.70381	-0.003667034	-0.04461557	0	0	0	0
30.72009	-0.003667034	-0.04461557	0	0	0	0
30.74371	-0.003667034	-0.04461557	0	0	0	0
30.76028	-0.003667034	-0.04461557	0	0	0	0
30.77747	-0.003667034	-0.04461557	0	0	0	0
30.79341	-0.003667034	-0.04461557	0	0	0	0
30.81016	-0.003667034	-0.04461557	0	0	0	0
30.82682	-0.003667034	-0.04461557	0	0	0	0
30.8434	-0.003667034	-0.04461557	0	0	0	0
30.85968	-0.003667034	-0.04461557	0	0	0	0
30.87625	-0.003667034	-0.04217089	0	0.1475617	0	4.492469
30.91905	-0.002444689	-0.02994744	0.0285563	0.2855631	0.480973	2.324354
30.93563	0	0.006722894	0.1475278	2.212916	2.003704	32.46027
30.95245	0	0.01405696	0	0.4359102	-4.417559	-53.21051
30.96876	0.001222344	0.0287251	0.07493692	0.8992431	2.261471	13.98261
30.98533	0.002444689	0.05806137	0.07378086	1.770741	-0.03516123	26.50631
31.00196	0.002444689	0.06784012	0	0.5881478	-2.222744	-35.62715
31.01846	0.006111722	0.1032881	0.2221354	2.147309	6.704059	47.05557
31.03503	0.009778756	0.127735	0.2213426	1.475616	-0.02397002	-20.30796
31.07573	0.01344579	0.1509595	0.09010553	0.5706684	-2.291776	-15.803
31.09233	0.02444689	0.2157438	0.6624262	3.900954	9.987381	58.11573
31.10917	0.02811392	0.2267449	0.217881	0.6536435	-13.29472	-97.11517
31.12544	0.02933627	0.237746	0.07508615	0.6757753	-4.312785	0.6684393
31.18866	0.0330033	0.2573035	0.05800691	0.3093702	-0.214843	-4.609079
31.25891	0.0550055	0.3575357	0.3132261	1.426919	1.912313	8.373597
31.27557	0.06845129	0.4015402	0.8066674	2.640003	5.677473	13.95759
31.29204	0.06845129	0.4015402	0	0	-24.34387	-79.67085
31.30861	0.07089598	0.4088742	0.1475789	0.4427371	4.46757	13.40272
31.32518	0.07211833	0.414986	0.07377223	0.3688612	-2.22749	-2.229581
31.34212	0.0770077	0.4247647	0.2884809	0.5769627	6.405804	6.208681
31.35831	0.07823005	0.4284317	0.07551961	0.226557	-6.427185	-10.57527
31.39655	0.07945239	0.4333211	0.03196625	0.1278658	-0.8002559	-1.813367
31.41312	0.08434177	0.4443223	0.2950898	0.6639537	4.800854	9.781258
31.4297	0.08434177	0.4455446	0	0.07373648	-8.902753	-17.80664
31.44625	0.08434177	0.4467669	0	0.07381472	0	0.002361108
31.46282	0.08678646	0.4492116	0.1475959	0.1475954	4.455992	2.227476
31.47938	0.08678646	0.4504339	0	0.07378922	-4.455222	-2.227861
31.49605	0.08678646	0.4516563	0	0.07334165	0	-0.01346796
31.51269	0.08678646	0.4516563	0	0	0	-2.202173
31.56224	0.08800881	0.4516563	0.02466836	6.014473E-07	0.3726968	9.086843E-06
31.57881	0.08800881	0.4516563	0	0	-0.3730946	-9.096541E-06
31.59537	0.08800881	0.4516563	0	0	0	0
31.61199	0.08800881	0.4516563	0	0	0	0
31.629	0.08800881	0.4516563	0	0	0	0
31.64508	0.08800881	0.4516563	0	0	0	0
31.66165	0.08800881	0.4516563	0	0	0	0
31.67822	0.08800881	0.4516563	0	0	0	0
31.71032	0.08800881	0.4516563	0	0	0	0
31.72688	0.08800881	0.4516563	0	0	0	0
31.74345	0.08800881	0.4516563	0	0	0	0
31.76008	0.08800881	0.4516563	0	0	0	0
31.77696	0.08800881	0.4516563	0	0	0	0
31.79316	0.08800881	0.4516563	0	0	0	0
31.80978	0.08800881	0.4516563	0	0	0	0
31.82629	0.08800881	0.4516563	0	0	0	0
31.84286	0.08800881	0.4516563	0	0	0	0
31.89363	0.08800881	0.4516563	0	0	0	0
31.9102	0.08800881	0.4516563	0	0	0	0
31.92676	0.08800881	0.4516563	0	0	0	0
31.94342	0.08800881	0.4516563	0	0	0	0
31.96017	0.08800881	0.4516563	0	0	0	0
31.97647	0.08923116	0.4455446	0.07499863	-0.3749909	2.269473	-11.34729
31.99303	0.09167583	0.4382105	0.147561	-0.442688	2.207857	-2.059821
32.01004	0.09167584	0.4357658	4.379695E-07	-0.1437048	-4.394447	8.903907
32.03998	0.09289818	0.4308764	0.04083467	-0.1633397	0.8698208	-0.4182479
32.05655	0.09412052	0.42232	0.07378072	-0.5164651	0.7084996	-7.593905
32.07311	0.09412052	0.4210977	0	-0.07378072	-2.226707	13.36024
32.08968	0.09534287	0.418653	0.07378118	-0.1475632	2.22672	-2.226761
32.10704	0.09534287	0.4174306	-4.292583E-07	-0.07042411	-2.174902	2.273874
32.12282	0.09534287	0.4149859	0	-0.1549111	1.295355E-05	-2.549529
32.13965	0.09534287	0.4137636	0	-0.07262509	0	2.523194
32.15595	0.09534287	0.4100966	0	-0.2249137	0	-4.59608
32.20635	0.09534287	0.4088742	0	-0.02425411	0	3.008219
32.22292	0.0880088	0.3783156	-0.4425834	-1.844095	-6.608599	-27.17364
32.23964	0.08434177	0.3734263	-0.2193722	-0.2924963	6.705645	46.61269
32.25606	0.0794524	0.3660922	-0.2977976	-0.4466975	-2.366882	-4.653801
32.27273	0.06722895	0.3489794	-0.7332501	-1.02655	-13.16016	-17.52419
32.28919	0.04033737	0.3233101	-1.633712	-1.559453	-27.17912	-16.08489
32.30592	0.01955751	0.3074196	-1.242261	-0.9499643	11.795	18.3648
32.32232	-0.006111723	0.2890845	-1.564528	-1.117518	-9.726039	-5.056781
32.3639	-0.04889378	0.2646376	-1.028999	-0.5879998	9.235903	9.13224
32.38047	-0.1381249	0.2169662	-5.386003	-2.877454	-74.93521	-39.37584
32.3975	-0.1564601	0.2084097	-1.076232	-0.5022418	128.253	70.68311
32.4136	-0.1857964	0.1961863	-1.822353	-0.7593139	-22.51796	-7.758451
32.43017	-0.2114656	0.1802958	-1.549041	-0.9589313	8.36606	-6.110289
32.44674	-0.220022	0.1754064	-0.5165849	-0.29519	31.1596	20.03175
32.4633	-0.2249114	0.1729617	-0.2951918	-0.1475963	6.683198	4.455411
32.47987	-0.2273561	0.1705171	-0.1475614	-0.1475614	4.456005	0.001052911
32.49643	-0.2273561	0.1705171	0	0	4.453413	4.453413
32.51652	-0.2273561	0.1705171	0	0	0	0
32.53309	-0.2273561	0.1705171	0	0	0	0
32.54966	-0.2273561	0.1692947	-8.994359E-07	-0.07378072	-2.714503E-05	-2.226707
32.56693	-0.2273561	0.1692947	0	0	2.657594E-05	2.180024
32.58279	-0.2273561	0.1692947	0	0	0	0
32.59966	-0.2273561	0.1692947	0	0	0	0
32.61592	-0.2273561	0.1692947	0	0	0	0
32.63255	-0.2273561	0.1692947	0	0	0	0
32.64906	-0.2273561	0.1692947	0	0	0	0
32.6842	-0.2273561	0.1692947	0	0	0	0
32.70129	-0.2273561	0.1692947	0	0	0	0
32.71751	-0.2273561	0.1692947	0	0	0	0
32.73459	-0.2273561	0.1692947	0	0	0	0
32.75047	-0.2273561	0.1692947	0	0	0	0
32.76703	-0.2273561	0.1692947	0	0	0	0
32.7836	-0.2273561	0.1692947	0	0	0	0
32.80017	-0.2273561	0.1692947	0	0	0	0
32.81673	-0.2273561	0.1692947	0	0	0	0
32.87153	-0.2273561	0.1692947	0	0	0	0
32.88828	-0.2273561	0.1692947	0	0	0	0
32.9048	-0.2273561	0.1692947	0	0	0	0
32.92179	-0.2273561	0.1692947	0	0	0	0
32.9378	-0.2273561	0.1692947	0	0	0	0
32.95437	-0.2273561	0.1692947	0	0	0	0
32.97094	-0.2224667	0.16685	0.2951238	-0.1475614	8.905828	-4.4529
33.05307	-0.2090209	0.1619607	0.1637051	-0.05952899	-1.331476	0.8919061
33.06964	-0.1124557	0.1069551	5.827346	-3.319376	57.37931	-33.02605
33.08632	-0.1051216	0.1008434	0.4397489	-0.3664575	-162.0384	88.8125
33.10286	-0.08923115	0.08984231	0.9604781	-0.6649465	15.67414	-8.984624
33.11936	-0.07823005	0.08006357	0.6669456	-0.5928398	-8.884399	2.182465
33.13591	-0.06967364	0.0727295	0.5168225	-0.4429913	-4.542229	4.533923
33.18169	-0.05867254	0.0617284	0.2403429	-0.2403427	-4.435858	3.251307
33.19841	-0.03789268	0.03361447	1.242828	-1.681473	16.04172	-23.0609
33.21482	-0.03544799	0.02994744	0.1489334	-0.2234001	-33.01381	44.00473
33.23138	-0.02933627	0.02139103	0.368989	-0.5165849	6.67279	-8.890302
33.24796	-0.02322455	0.01283462	0.3688195	-0.5163471	-0.005116891	0.007177498
33.26452	-0.01589048	0.001833517	0.4426851	-0.6640277	2.229013	-4.456496
33.28165	-0.0110011	-0.006722895	0.2853977	-0.499446	-4.667415	4.883869
33.29792	-0.006111722	-0.01405696	0.3006618	-0.4509926	0.4570919	1.450966
33.3289	-0.001222344	-0.02261337	0.1577891	-0.2761309	-3.023835	3.700868
33.3455	0.007334067	-0.03483682	0.515635	-0.7366213	7.520816	-9.678088
33.36204	0.007334067	-0.03605916	0	-0.07388302	-15.5601	19.99918
33.3786	0.008556411	-0.03728151	0.0737978	-0.07379772	2.229018	0.002576487
33.39518	0.008556412	-0.03850385	5.62018E-08	-0.07376397	-2.22722	0.001018611
33.41174	0.009778757	-0.03850385	0.07378089	0	2.226454	2.225945
33.42856	0.009778757	-0.03850385	0	0	-2.210172	0
33.44488	0.009778757	-0.03850385	0	0	0	0
33.46144	0.009778757	-0.03850385	0	0	0	0
33.50586	0.009778757	-0.03850385	0	0	0	0
33.52254	0.009778757	-0.03850385	0	0	0	0
33.53899	0.009778757	-0.03850385	0	0	0	0
33.55558	0.009778757	-0.03850385	0	0	0	0
33.57212	0.009778757	-0.03850385	0	0	0	0
33.5887	0.009778757	-0.03850385	0	0	0	0
33.60527	0.009778757	-0.03850385	0	0	0	0
33.62183	0.009778757	-0.03850385	0	0	0	0
33.66031	0.009778757	-0.03850385	0	0	0	0
33.67688	0.009778757	-0.03850385	0	0	0	0
33.69344	0.009778757	-0.03850385	0	0	0	0
33.71001	0.009778757	-0.03850385	0	0	0	0
33.72693	0.009778757	-0.03850385	0	0	0	0
33.74314	0.009778757	-0.03850385	0	0	0	0
33.77228	0.009778757	-0.03850385	0	0	0	0
33.79356	0.009778757	-0.03850385	0	0	0	0
33.81013	0.009778757	-0.03850385	0	0	0	0
33.8267	0.009778757	-0.03850385	0	0	0	0
33.84327	0.009778757	-0.03850385	0	0	0	0
33.85983	0.009778757	-0.03850385	0	0	0	0
33.8764	0.009778757	-0.03850385	0	0	0	0
33.89297	0.009778757	-0.03850385	0	0	0	0
33.90953	0.009778757	-0.03850385	0	0	0	0
33.9261	0.009778757	-0.03850385	0	0	0	0
33.94267	0.009778757	-0.03850385	0	0	0	0
33.96187	0.009778757	-0.03850385	0	0	0	0
33.97844	0.009778757	-0.03850385	0	0	0	0
33.99501	0.009778757	-0.03850385	0	0	0	0
34.01158	0.009778757	-0.03850385	0	0	0	0
34.02814	0.009778757	-0.03850385	0	0	0	0
34.04471	0.009778757	-0.03850385	0	0	0	0
34.06134	0.009778757	-0.03850385	0	0	0	0
34.07784	0.009778757	-0.03850385	0	0	0	0
34.09441	0.009778757	-0.03850385	0	0	0	0
34.1345	0.009778757	-0.03850385	0	0	0	0
34.15107	0.009778757	-0.03850385	0	0	0	0
34.16764	0.009778757	-0.03850385	0	0	0	0
34.1842	0.009778757	-0.03850385	0	0	0	0
34.20141	0.009778757	-0.03850385	0	0	0	0
34.21734	0.009778757	-0.03850385	0	0	0	0
34.23391	0.009778757	-0.03850385	0	0	0	0
34.25048	0.009778757	-0.03850385	0	0	0	0
34.29908	0.009778757	-0.03850385	0	0	0	0
34.31565	0.009778757	-0.03850385	0	0	0	0
34.33222	0.009778757	-0.03850385	0	0	0	0
34.34879	0.009778757	-0.03850385	0	0	0	0
34.36546	0.009778757	-0.03850385	0	0	0	0
34.38192	0.009778757	-0.03850385	0	0	0	0
34.4113	0.009778757	-0.03850385	0	0	0	0
34.44635	0.009778757	-0.03850385	0	0	0	0
34.46292	0.009778757	-0.03850385	0	0	0	0
34.4795	0.009778757	-0.03850385	0	0	0	0
34.49605	0.009778757	-0.03850385	0	0	0	0
34.51262	0.009778757	-0.03850385	0	0	0	0
34.52953	0.009778757	-0.03850385	0	0	0	0
34.54605	0.009778757	-0.03850385	0	0	0	0
34.56232	0.009778757	-0.03850385	0	0	0	0
34.57916	0.009778757	-0.03850385	0	0	0	0
34.59903	0.009778757	-0.03850385	0	0	0	0
34.6156	0.009778757	-0.03850385	0	0	0	0
34.63278	0.009778757	-0.03850385	0	0	0	0
34.64922	0.009778757	-0.03850385	0	0	0	0
34.6658	0.009778757	-0.03850385	0	0	0	0
34.68187	0.009778757	-0.03850385	0	0	0	0
34.69847	0.009778756	-0.03361447	-5.609849E-08	0.2945133	-1.717175E-06	9.015049
34.715	0.009778756	-0.03361447	0	0	1.693251E-06	-8.889451
34.73193	0.0110011	-0.03116979	0.07216901	0.1443378	2.156466	4.312925
34.77046	0.0110011	-0.02994744	-2.417234E-08	0.03172581	-1.301147	-2.0303
34.78703	0.0110011	-0.02750275	5.621474E-08	0.1475617	1.459045E-06	2.102449
34.8036	0.0110011	-0.02628041	0	0.07378083	-1.696564E-06	-2.22671
34.82016	0.0110011	-0.02505806	-5.621474E-08	0.07378083	-1.696564E-06	0
34.83673	0.0110011	-0.02383572	5.62018E-08	0.07376385	3.392347E-06	-0.0005123946
34.8533	0.0110011	-0.02383572	0	0	-1.695979E-06	-2.225941
34.87014	0.0110011	-0.02261337	0	0.07261051	0	2.173871
34.88644	0.0110011	-0.02261337	0	0	0	-2.19139
34.92196	0.0110011	-0.02139103	0	0.03440687	0	0.6638859
34.93853	0.0110011	-0.02139103	0	0	0	-0.6604345
34.9551	0.0110011	-0.02139103	0	0	0	0
34.97178	0.0110011	-0.02139103	0	0	0	0
34.98824	0.0110011	-0.02139103	0	0	0	0
35.0048	0.0110011	-0.02139103	0	0	0	0
35.02137	0.0110011	-0.02139103	0	0	0	0
35.03794	0.0110011	-0.02139103	0	0	0	0
35.09413	0.0110011	-0.02139103	0	0	0	0
35.11069	0.0110011	-0.02139103	0	0	0	0
35.12726	0.0110011	-0.02139103	0	0	0	0
35.14432	0.0110011	-0.02139103	0	0	0	0
35.1604	0.0110011	-0.02139103	0	0	0	0
35.17731	0.0110011	-0.02016868	-5.504862E-08	0.07225032	-1.668285E-06	2.189594
35.19353	0.0110011	-0.01894634	0	0.0753776	1.661371E-06	0.09438141
35.22878	0.0110011	-0.017724	2.642501E-08	0.03468229	5.135031E-07	-0.7908102
35.24537	0.01222344	-0.01161227	0.07364518	0.3682261	1.420576	6.433885
35.26192	0.01222344	-0.01161227	0	0	-2.222104	-11.11053
35.27848	0.01222344	-0.01161227	0	0	0	0
35.29504	0.01222344	-0.01161227	0	0	0	0
35.31161	0.01222344	-0.01161227	0	0	0	0
35.32818	0.01222344	-0.01161227	0	0	0	0
35.34475	0.01222344	-0.01161227	0	0	0	0
35.36132	0.01222344	-0.01161227	0	0	0	0
35.41902	0.01222344	-0.01161227	0	0	0	0
35.43559	0.01222344	-0.01161227	0	0	0	0
35.45216	0.01222344	-0.01161227	0	0	0	0
35.46872	0.01222344	-0.01161227	0	0	0	0
35.48529	0.01222344	-0.01161227	0	0	0	0
35.50205	0.01222344	-0.01161227	0	0	0	0
35.51842	0.01222344	-0.01161227	0	0	0	0
35.59507	0.01222344	-0.01161227	0	0	0	0
35.61164	0.01222344	-0.01161227	0	0	0	0
35.62821	0.01222344	-0.01161227	0	0	0	0
35.64478	0.01222344	-0.01161227	0	0	0	0
35.66134	0.01222344	-0.01161227	0	0	0	0
35.67816	0.01222344	-0.01161227	0	0	0	0
35.70361	0.01222344	-0.01161227	0	0	0	0
35.72017	0.01222344	-0.01161227	0	0	0	0
35.73674	0.01222344	-0.01161227	0	0	0	0
35.75331	0.01222344	-0.01161227	0	0	0	0
35.77003	0.01222344	-0.01161227	0	0	0	0
35.78682	0.01222344	-0.01161227	0	0	0	0
35.80302	0.01222344	-0.01161227	0	0	0	0
35.8196	0.01222344	-0.01161227	0	0	0	0
35.83616	0.01222344	-0.01161227	0	0	0	0
35.86289	0.01222344	-0.01161227	0	0	0	0
35.87946	0.01222344	-0.01161227	0	0	0	0
35.89635	0.01222344	-0.01161227	0	0	0	0
35.91259	0.01222344	-0.01161227	0	0	0	0
35.92921	0.01222344	-0.01161227	0	0	0	0
35.9463	0.01222344	-0.01161227	0	0	0	0
35.9623	0.01222344	-0.01161227	0	0	0	0
35.9791	0.01222344	-0.01161227	0	0	0	0
36.03139	0.01222344	-0.01161227	0	0	0	0
36.04796	0.01222344	-0.01161227	0	0	0	0
36.06462	0.01222344	-0.01161227	0	0	0	0
36.0811	0.01222344	-0.01161227	0	0	0	0
36.098	0.01222344	-0.01161227	0	0	0	0
36.11423	0.01222344	-0.01161227	0	0	0	0
36.13081	0.01222344	-0.01161227	0	0	0	0
36.14806	0.01222344	-0.01161227	0	0	0	0
36.1838	0.01222344	-0.01161227	0	0	0	0
36.20036	0.01222344	-0.01161227	0	0	0	0
36.21693	0.01222344	-0.01161227	0	0	0	0
36.23392	0.01222344	-0.01161227	0	0	0	0
36.25007	0.01222344	-0.01161227	0	0	0	0
36.26663	0.01222344	-0.01161227	0	0	0	0
36.2832	0.01222344	-0.01161227	0	0	0	0
36.29977	0.01222344	-0.01161227	0	0	0	0
36.33419	0.01222344	-0.01161227	0	0	0	0
36.35076	0.01222344	-0.01161227	0	0	0	0
36.36763	0.01222344	-0.01161227	0	0	0	0
36.38389	0.01222344	-0.01161227	0	0	0	0
36.40046	0.01222344	-0.01161227	0	0	0	0
36.41703	0.01222344	-0.01161227	0	0	0	0
36.43359	0.01222344	-0.01161227	0	0	0	0
36.45016	0.01222344	-0.01161227	0	0	0	0
36.46673	0.01222344	-0.01161227	0	0	0	0
36.49089	0.01222344	-0.01161227	0	0	0	0
36.50746	0.01222344	-0.01161227	0	0	0	0
36.52402	0.01222344	-0.01161227	0	0	0	0
36.54059	0.01222344	-0.01161227	0	0	0	0
36.55716	0.01222344	-0.01161227	0	0	0	0
36.57373	0.01222344	-0.01161227	0	0	0	0
36.59029	0.01222344	-0.01161227	0	0	0	0
36.60686	0.01222344	-0.01161227	0	0	0	0
36.62343	0.01222344	-0.01161227	0	0	0	0
36.65937	0.01222344	-0.01161227	0	0	0	0
36.67593	0.01222344	-0.01161227	0	0	0	0
36.6925	0.01222344	-0.01161227	0	0	0	0
36.70907	0.01222344	-0.01161227	0	0	0	0
36.72643	0.01222344	-0.01161227	0	0	0	0
36.7422	0.01222344	-0.01161227	0	0	0	0
36.75877	0.01222344	-0.01161227	0	0	0	0
36.7754	0.01222344	-0.01161227	0	0	0	0
36.79192	0.01222344	-0.01161227	0	0	0	0
36.82694	0.01222344	-0.01161227	0	0	0	0
36.84351	0.01222344	-0.01161227	0	0	0	0
36.86008	0.01222344	-0.01161227	0	0	0	0
36.87664	0.01222344	-0.01161227	0	0	0	0
36.89348	0.01222344	-0.01161227	0	0	0	0
36.90977	0.01222344	-0.01161227	0	0	0	0
36.92634	0.01222344	-0.01161227	0	0	0	0
36.94291	0.01222344	-0.01161227	0	0	0	0
36.96231	0.01222344	-0.01161227	0	0	0	0
36.97888	0.01222344	-0.01161227	0	0	0	0
36.99545	0.01222344	-0.01161227	0	0	0	0
37.01235	0.01222344	-0.01161227	0	0	0	0
37.02869	0.01222344	-0.01161227	0	0	0	0
37.0452	0.01222344	-0.01161227	0	0	0	0
37.06175	0.01222344	-0.01161227	0	0	0	0
37.07829	0.01222344	-0.01161227	0	0	0	0
37.09515	0.01222344	-0.01161227	0	0	0	0
37.13474	0.01222344	-0.01161227	0	0	0	0
37.1513	0.01222344	-0.01161227	0	0	0	0
37.16787	0.01222344	-0.01161227	0	0	0	0
37.18465	0.01222344	-0.01161227	0	0	0	0
37.20109	0.01222344	-0.01161227	0	0	0	0
37.21758	0.01222344	-0.01161227	0	0	0	0
37.23415	0.01222344	-0.01161227	0	0	0	0
37.25071	0.01222344	-0.01161227	0	0	0	0
37.28983	0.01222344	-0.01161227	0	0	0	0
37.3064	0.01222344	-0.01161227	0	0	0	0
37.32296	0.01222344	-0.01161227	0	0	0	0
37.33954	0.01222344	-0.01161227	0	0	0	0
37.35628	0.01222344	-0.01161227	0	0	0	0
37.37293	0.01222344	-0.01161227	0	0	0	0
37.38923	0.01222344	-0.01161227	0	0	0	0
37.40583	0.01222344	-0.01161227	0	0	0	0
37.44183	0.01222344	-0.01161227	0	0	0	0
37.4584	0.01222344	-0.01161227	0	0	0	0
37.47794	0.01222344	-0.01161227	0	0	0	0
37.49454	0.01222344	-0.01161227	0	0	0	0
37.51108	0.01222344	-0.01161227	0	0	0	0
37.52791	0.01222344	-0.01161227	0	0	0	0
37.54488	0.01222344	-0.01161227	0	0	0	0
37.56078	0.01222344	-0.01161227	0	0	0	0
37.61388	0.01222344	-0.01161227	0	0	0	0
37.63074	0.01466813	-0.009167585	0.145024	0.1450238	2.072797	2.072795
37.64702	0.01589048	-0.006722894	0.07507724	0.1501548	-2.110753	0.1548358
37.66379	0.01589048	-0.00550055	1.110993E-07	0.07290789	-2.271848	-2.337507
37.68032	0.01711282	-0.00550055	0.07393405	0	2.220339	-2.189525
37.69681	0.01711282	-0.00550055	0	0	-2.238809	0
37.71329	0.01711282	-0.00550055	0	0	0	0
37.72985	0.01711282	-0.00550055	0	0	0	0
37.74885	0.01711282	-0.00550055	0	0	0	0
37.76542	0.01711282	-0.00550055	0	0	0	0
37.78199	0.01711282	-0.00550055	0	0	0	0
37.79858	0.01711282	-0.00550055	0	0	0	0
37.81512	0.01833517	-0.004278206	0.07389995	0.07389998	2.230562	2.230562
37.83168	0.02077986	-0.001833517	0.1475618	0.1475617	2.224912	2.224909
37.84825	0.02689158	0.004278206	0.3689043	0.3689043	6.68013	6.680132
37.86482	0.04889378	0.02139103	1.328055	1.032932	28.94724	20.0404
37.88165	0.06722895	0.03728151	1.089405	0.9441508	-7.145717	-2.658306
37.90312	0.0904535	0.06050606	1.081765	1.081766	-0.1994709	3.593121
37.91969	0.1662389	0.1265127	4.57336	3.983249	91.78707	76.27422
37.93626	0.1833517	0.1411808	1.032931	0.8853705	-106.8381	-93.4834
37.99351	0.2102433	0.1644053	0.4697143	0.4056618	-7.629781	-6.498515
38.01008	0.2640264	0.2206332	3.245609	3.393138	37.60253	40.46864
38.02675	0.2664711	0.2255226	0.1466515	0.2933013	-93.2262	-93.25266
38.04321	0.2676934	0.2291896	0.07424047	0.2227259	-2.18537	-2.129968
38.11975	0.2676934	0.2291896	0	0	-0.7982975	-2.394941
38.13633	0.2676934	0.2291896	0	0	0	0
38.15289	0.2676934	0.2291896	0	0	0	0
38.16945	0.2676934	0.2291896	0	0	0	0
38.18637	0.2676934	0.2291896	0	0	0	0
38.20259	0.2676935	0.2279673	1.837803E-06	-0.07537656	5.5465E-05	-2.274869
38.25812	0.2676935	0.2279673	0	0	-2.561511E-05	1.050591
38.27493	0.2689158	0.2279672	0.07272398	-1.77315E-06	1.005334	-2.451198E-05
38.29126	0.2689158	0.2279672	0	0	-2.194561	5.350762E-05
38.30816	0.2689158	0.2279672	0	0	0	0
38.32439	0.2689158	0.2279672	0	0	0	0
38.34118	0.2689158	0.2279672	0	0	0	0
38.35767	0.2689158	0.2279672	0	0	0	0
38.38004	0.2689158	0.2279672	0	0	0	0
38.39671	0.2689158	0.2279672	0	0	0	0
38.41324	0.2689158	0.2279672	0	0	0	0
38.42975	0.2689158	0.2279672	0	0	0	0
38.44632	0.2689158	0.2279672	0	0	0	0
38.46288	0.2689158	0.2279672	0	0	0	0
38.47977	0.2689158	0.2279672	0	0	0	0
38.49601	0.2689158	0.2279672	0	0	0	0
38.51258	0.2689158	0.2267449	1.798872E-06	-0.07378072	5.482658E-05	-2.248712
38.53409	0.2628041	0.2255226	-0.2841206	-0.05682316	-7.461529	0.445334
38.55074	0.2456913	0.2145215	-1.028196	-0.6609826	-19.50159	-15.83451
38.56723	0.2395795	0.2108544	-0.3705264	-0.2223166	19.84623	13.23744
38.58427	0.2359125	0.2071874	-0.2151979	-0.2151988	4.631833	0.2122497
38.60036	0.2224667	0.198631	-0.8354431	-0.5316454	-18.71904	-9.550377
38.61693	0.2090209	0.1876299	-0.8115898	-0.6640274	0.73032	-4.05316
38.6335	0.1943528	0.1766288	-0.8853687	-0.6640274	-2.226652	0
38.65007	0.1637942	0.1521819	-1.844523	-1.475617	-28.94732	-24.49383
38.66663	0.1564601	0.1448478	-0.4426844	-0.4426852	42.30756	31.17395
38.6867	0.1393473	0.131402	-0.8526948	-0.6699742	-11.19136	-6.203919
38.70327	0.1051216	0.09839874	-2.065388	-1.991624	-33.09739	-36.07107
38.71986	0.09412052	0.08984231	-0.6631117	-0.5157543	42.28672	44.50597
38.73641	0.08556411	0.08006357	-0.5171805	-0.5910628	4.404214	-2.272815
38.75298	0.0660066	0.06050605	-1.180494	-1.180494	-20.03267	-17.80136
38.76954	0.04889378	0.04217089	-1.032932	-1.106713	4.453434	2.226719
38.78611	0.02933627	0.017724	-1.180494	-1.475617	-4.453438	-11.13357
38.80268	0.01955751	0.00550055	-0.5902469	-0.7378087	17.81369	22.26711
38.81924	0.008556412	-0.007945239	-0.6640277	-0.8115894	-2.226708	-2.226707
38.83913	0.001222344	-0.02139103	-0.3687345	-0.6760133	8.099752	3.718789
38.8557	-0.01589048	-0.04461557	-1.032932	-1.401836	-18.21862	-19.90899
38.87227	-0.01833517	-0.04950495	-0.1475618	-0.2951233	26.72052	33.40067
38.88884	-0.0220022	-0.05194964	-0.2213426	-0.1475619	-2.22671	4.453413
38.9054	-0.02689158	-0.05928371	-0.2951235	-0.442685	-2.22671	-8.906835
38.92208	-0.03055861	-0.06417309	-0.2198743	-0.293166	2.263466	4.497478
38.93854	-0.03422565	-0.06906246	-0.2228305	-0.2971072	-0.08921909	-0.1189477
38.95528	-0.03667033	-0.0727295	-0.1460484	-0.2190727	2.313029	2.350757
38.97167	-0.03911502	-0.07517419	-0.1491066	-0.1491069	-0.09229786	2.111573
38.99535	-0.03911503	-0.07639653	-1.573578E-07	-0.05163224	3.721189	2.432634
39.01192	-0.03911503	-0.07639653	0	0	3.909991E-06	1.282946
39.0286	-0.03911503	-0.07639653	0	0	0	0
39.04532	-0.03911503	-0.07639653	0	0	0	0
39.06161	-0.03911503	-0.07639653	0	0	0	0
39.0786	-0.03911503	-0.07639653	0	0	0	0
39.09476	-0.03911503	-0.07639653	0	0	0	0
39.11132	-0.03911503	-0.07639653	0	0	0	0
39.12863	-0.03911503	-0.07639653	0	0	0	0
39.15369	-0.03911503	-0.07639653	0	0	0	0
39.17025	-0.04033737	-0.07639653	-0.07378072	0	-1.772631	0
39.18682	-0.04033737	-0.07639653	0	0	2.226707	0
39.20339	-0.04033737	-0.07639653	0	0	0	0
39.21996	-0.04033737	-0.07639653	0	0	0	0
39.23652	-0.04033737	-0.07639653	0	0	0	0
39.25315	-0.04033737	-0.07639653	0	0	0	0
39.26965	-0.04033737	-0.07639653	0	0	0	0
39.29202	-0.04033737	-0.07639653	0	0	0	0
39.30859	-0.04033737	-0.07639653	0	0	0	0
39.32515	-0.04033737	-0.07639653	0	0	0	0
39.34172	-0.04033737	-0.07639653	0	0	0	0
39.35829	-0.04033737	-0.07639653	0	0	0	0
39.37486	-0.04033737	-0.07639653	0	0	0	0
39.39142	-0.04033737	-0.07639653	0	0	0	0
39.40799	-0.04033737	-0.07639653	0	0	0	0
39.42467	-0.04033737	-0.07639653	0	0	0	0
39.44112	-0.04033737	-0.07639653	0	0	0	0
39.46183	-0.04033737	-0.07639653	0	0	0	0
39.4784	-0.04033737	-0.07639653	0	0	0	0
39.49496	-0.04033737	-0.07639653	0	0	0	0
39.51161	-0.04033737	-0.07639653	0	0	0	0
39.52862	-0.04033737	-0.07639653	0	0	0	0
39.54467	-0.04033737	-0.07639653	0	0	0	0
39.56124	-0.04033737	-0.07639653	0	0	0	0
39.5778	-0.04033737	-0.07639653	0	0	0	0
39.5946	-0.04033737	-0.07639653	0	0	0	0
39.61448	-0.04033737	-0.07639653	0	0	0	0
39.63109	-0.04033737	-0.07639653	0	0	0	0
39.64813	-0.04033737	-0.07639653	0	0	0	0
39.66418	-0.04033737	-0.07639653	0	0	0	0
39.68076	-0.04033737	-0.07639653	0	0	0	0
39.69732	-0.04033737	-0.07639653	0	0	0	0
39.71417	-0.04033737	-0.07639653	0	0	0	0
39.73045	-0.04033737	-0.07639653	0	0	0	0
39.74722	-0.04033737	-0.07639653	0	0	0	0
39.76656	-0.04033737	-0.07639653	0	0	0	0
39.78312	-0.04033737	-0.07639653	0	0	0	0
39.79977	-0.04033737	-0.07639653	0	0	0	0
39.81626	-0.04033737	-0.07639653	0	0	0	0
39.83282	-0.04033737	-0.07639653	0	0	0	0
39.84942	-0.04033737	-0.07639653	0	0	0	0
39.86599	-0.04033737	-0.07639653	0	0	0	0
39.8826	-0.04033737	-0.07639653	0	0	0	0
39.89912	-0.04033737	-0.07639653	0	0	0	0
39.9183	-0.04033737	-0.07639653	0	0	0	0
39.93487	-0.04033737	-0.07639653	0	0	0	0
39.95144	-0.04033737	-0.07639653	0	0	0	0
39.96822	-0.04033737	-0.07639653	0	0	0	0
39.98473	-0.04033737	-0.07639653	0	0	0	0
40.00114	-0.04033737	-0.07639653	0	0	0	0
40.01777	-0.04033737	-0.07639653	0	0	0	0
40.03427	-0.04033737	-0.07639653	0	0	0	0
40.05084	-0.04033737	-0.07639653	0	0	0	0
40.07	-0.04033737	-0.07639653	0	0	0	0
40.08731	-0.04033737	-0.07639653	0	0	0	0
40.10314	-0.04033737	-0.07639653	0	0	0	0
40.11971	-0.04033737	-0.07639653	0	0	0	0
40.13628	-0.04033737	-0.07639653	0	0	0	0
40.15303	-0.04033737	-0.07639653	0	0	0	0
40.16941	-0.04033737	-0.07639653	0	0	0	0
40.18619	-0.04033737	-0.07639653	0	0	0	0
40.20255	-0.04033737	-0.07639653	0	0	0	0
40.22185	-0.04033737	-0.07639653	0	0	0	0
40.23841	-0.04033737	-0.07639653	0	0	0	0
40.25526	-0.04033737	-0.07639653	0	0	0	0
40.27155	-0.04033737	-0.07639653	0	0	0	0
40.28838	-0.04033737	-0.07639653	0	0	0	0
40.3054	-0.04033737	-0.07639653	0	0	0	0
40.3214	-0.04033737	-0.07639653	0	0	0	0
40.33781	-0.04033737	-0.07639653	0	0	0	0
40.35438	-0.04033737	-0.07639653	0	0	0	0
40.37576	-0.04033737	-0.07639653	0	0	0	0
40.39233	-0.04033737	-0.07639653	0	0	0	0
40.4089	-0.04033737	-0.07639653	0	0	0	0
40.42546	-0.04033737	-0.07639653	0	0	0	0
40.45067	-0.04033737	-0.07639653	0	0	0	0
40.46739	-0.04155971	-0.07639653	-0.07310762	0	-1.743833	0
40.48381	-0.04155971	-0.07639653	0	0	2.206138	0
40.50037	-0.04155971	-0.07639653	0	0	0	0
40.51694	-0.04155971	-0.07761887	0	-0.07378072	0	-2.226707
40.54055	-0.04155971	-0.07761887	0	0	0	1.836594
40.55711	-0.04155971	-0.07761887	0	0	0	0
40.57368	-0.04155971	-0.07761887	0	0	0	0
40.59025	-0.04155971	-0.07761887	0	0	0	0
40.60682	-0.04155971	-0.07761887	0	0	0	0
40.62348	-0.04155971	-0.07761887	0	0	0	0
40.63995	-0.04155971	-0.07761887	0	0	0	0
40.65651	-0.04155971	-0.07761887	0	0	0	0
40.67308	-0.04155971	-0.07761887	0	0	0	0
40.70877	-0.04155971	-0.07761887	0	0	0	0
40.72551	-0.04155971	-0.07761887	0	0	0	0
40.74191	-0.04155971	-0.07761887	0	0	0	0
40.75847	-0.04155971	-0.07761887	0	0	0	0
40.77504	-0.04155971	-0.07761887	0	0	0	0
40.79161	-0.04155971	-0.07761887	0	0	0	0
40.80818	-0.04155971	-0.07761887	0	0	0	0
40.82475	-0.04155971	-0.07761887	0	0	0	0
40.84192	-0.04155971	-0.07761887	0	0	0	0
40.86172	-0.04155971	-0.07761887	0	0	0	0
40.87829	-0.04155971	-0.07761887	0	0	0	0
40.89486	-0.04155971	-0.07761887	0	0	0	0
40.91145	-0.04155971	-0.07761887	0	0	0	0
40.92879	-0.04155971	-0.07761887	0	0	0	0
40.94456	-0.04155971	-0.07761887	0	0	0	0
40.96112	-0.04155971	-0.07761887	0	0	0	0
40.97827	-0.04155971	-0.07761887	0	0	0	0
40.99427	-0.04155971	-0.07761887	0	0	0	0
41.06671	-0.04155971	-0.07761887	0	0	0	0
41.08328	-0.04155971	-0.07761887	0	0	0	0
41.09985	-0.04155971	-0.07761887	0	0	0	0
41.11641	-0.04155971	-0.07761887	0	0	0	0
41.13298	-0.04155971	-0.07761887	0	0	0	0
41.14955	-0.04155971	-0.07761887	0	0	0	0
41.19965	-0.04155971	-0.07761887	0	0	0	0
41.21634	-0.04155971	-0.07761887	0	0	0	0
41.23278	-0.04155971	-0.07761887	0	0	0	0
41.24935	-0.04155971	-0.07761887	0	0	0	0
41.26659	-0.04155971	-0.07761887	0	0	0	0
41.28248	-0.04155971	-0.07761887	0	0	0	0
41.29906	-0.04155971	-0.07761887	0	0	0	0
41.31561	-0.04155971	-0.07761887	0	0	0	0
41.33553	-0.04155971	-0.07761887	0	0	0	0
41.3521	-0.04155971	-0.07761887	0	0	0	0
41.3696	-0.04155971	-0.07761887	0	0	0	0
41.38523	-0.04155971	-0.07761887	0	0	0	0
41.4018	-0.04155971	-0.07761887	0	0	0	0
41.41837	-0.04155971	-0.07761887	0	0	0	0
41.43493	-0.04155971	-0.07761887	0	0	0	0
41.4515	-0.04155971	-0.07761887	0	0	0	0
41.46807	-0.04155971	-0.07761887	0	0	0	0
41.51103	-0.04155971	-0.07761887	0	0	0	0
41.52788	-0.04155971	-0.07761887	0	0	0	0
41.54417	-0.04155971	-0.07761887	0	0	0	0
41.57095	-0.04155971	-0.07761887	0	0	0	0
41.58762	-0.04155971	-0.07761887	0	0	0	0
41.60408	-0.04155971	-0.07761887	0	0	0	0
41.62065	-0.04155971	-0.07761887	0	0	0	0
41.63727	-0.04155971	-0.07761887	0	0	0	0
41.6614	-0.04155971	-0.07761887	0	0	0	0
41.67797	-0.04155971	-0.07761887	0	0	0	0
41.69454	-0.04155971	-0.07761887	0	0	0	0
41.71125	-0.04155971	-0.07761887	0	0	0	0
41.728	-0.04155971	-0.07761887	0	0	0	0
41.74424	-0.04155971	-0.07761887	0	0	0	0
41.76154	-0.04155971	-0.07761887	0	0	0	0
41.77769	-0.04155971	-0.07761887	0	0	0	0
41.79395	-0.04155971	-0.07761887	0	0	0	0
41.82632	-0.04155971	-0.07761887	0	0	0	0
41.84289	-0.04155971	-0.07761887	0	0	0	0
41.85946	-0.04155971	-0.07761887	0	0	0	0
41.87639	-0.04155971	-0.07761887	0	0	0	0
41.89259	-0.04155971	-0.07761887	0	0	0	0
41.90916	-0.04155971	-0.07761887	0	0	0	0
41.92608	-0.04155971	-0.07761887	0	0	0	0
41.94238	-0.04155971	-0.07761887	0	0	0	0
41.98906	-0.04155971	-0.07761887	0	0	0	0
42.00606	-0.04155971	-0.07761887	0	0	0	0
42.02219	-0.04155971	-0.07761887	0	0	0	0
42.03876	-0.04155971	-0.07761887	0	0	0	0
42.05533	-0.04155971	-0.07761887	0	0	0	0
42.07281	-0.04155971	-0.07761887	0	0	0	0
42.08846	-0.04155971	-0.07761887	0	0	0	0
42.10504	-0.04155971	-0.07761887	0	0	0	0
42.14538	-0.04155971	-0.07761887	0	0	0	0
42.16195	-0.04155971	-0.07761887	0	0	0	0
42.17851	-0.04155971	-0.07761887	0	0	0	0
42.19508	-0.04155971	-0.07761887	0	0	0	0
42.21169	-0.04155971	-0.07761887	0	0	0	0
42.22828	-0.04155971	-0.07761887	0	0	0	0
42.2448	-0.04155971	-0.07761887	0	0	0	0
42.26134	-0.04155971	-0.07761887	0	0	0	0
42.28175	-0.04155971	-0.07761887	0	0	0	0
42.29832	-0.04155971	-0.07761887	0	0	0	0
42.31489	-0.04155971	-0.07761887	0	0	0	0
42.33146	-0.04155971	-0.07761887	0	0	0	0
42.34803	-0.04155971	-0.07761887	0	0	0	0
42.36459	-0.04155971	-0.07761887	0	0	0	0
42.38116	-0.04155971	-0.07761887	0	0	0	0
42.39793	-0.04155971	-0.07761887	0	0	0	0
42.41429	-0.04155971	-0.07761887	0	0	0	0
42.44715	-0.04155971	-0.07761887	0	0	0	0
42.46407	-0.04155971	-0.07761887	0	0	0	0
42.48029	-0.04155971	-0.07761887	0	0	0	0
42.49686	-0.04155971	-0.07761887	0	0	0	0
42.51343	-0.04155971	-0.07761887	0	0	0	0
42.53056	-0.04155971	-0.07761887	0	0	0	0
42.5466	-0.04155971	-0.07761887	0	0	0	0
42.56313	-0.04155971	-0.07761887	0	0	0	0
42.5797	-0.04155971	-0.07761887	0	0	0	0
42.62347	-0.04155971	-0.07761887	0	0	0	0
42.64004	-0.04155971	-0.07761887	0	0	0	0
42.65719	-0.04155971	-0.07761887	0	0	0	0
42.67318	-0.04155971	-0.07761887	0	0	0	0
42.68975	-0.04155971	-0.07761887	0	0	0	0
42.70631	-0.04155971	-0.07761887	0	0	0	0
42.72288	-0.04155971	-0.07761887	0	0	0	0
42.73945	-0.04155971	-0.07761887	0	0	0	0
42.78457	-0.04155971	-0.07761887	0	0	0	0
42.80114	-0.04155971	-0.07761887	0	0	0	0
42.81802	-0.04155971	-0.07761887	0	0	0	0
42.83521	-0.04155971	-0.07761887	0	0	0	0
42.85084	-0.04155971	-0.07761887	0	0	0	0
42.8674	-0.04155971	-0.07761887	0	0	0	0
42.88397	-0.04155971	-0.07761887	0	0	0	0
42.90054	-0.04155971	-0.07761887	0	0	0	0
42.92048	-0.04155971	-0.07761887	0	0	0	0
42.93705	-0.04155971	-0.07761887	0	0	0	0
42.95362	-0.04155971	-0.07761887	0	0	0	0
42.97018	-0.04155971	-0.07761887	0	0	0	0
42.98704	-0.04155971	-0.07761887	0	0	0	0
43.00332	-0.04155971	-0.07761887	0	0	0	0
43.01989	-0.04155971	-0.07761887	0	0	0	0
43.03645	-0.04155971	-0.07761887	0	0	0	0
43.05302	-0.04155971	-0.07761887	0	0	0	0
43.07034	-0.04155971	-0.07761887	0	0	0	0
43.11184	-0.04155971	-0.07761887	0	0	0	0
43.12841	-0.04155971	-0.07761887	0	0	0	0
43.14544	-0.04155971	-0.07761887	0	0	0	0
43.16156	-0.04155971	-0.07761887	0	0	0	0
43.17847	-0.04155971	-0.07761887	0	0	0	0
43.19468	-0.04155971	-0.07761887	0	0	0	0
43.21125	-0.04155971	-0.07761887	0	0	0	0
43.22781	-0.04155971	-0.07761887	0	0	0	0
43.25827	-0.04155971	-0.07761887	0	0	0	0
43.27484	-0.04155971	-0.07761887	0	0	0	0
43.2914	-0.04155971	-0.07761887	0	0	0	0
43.30797	-0.04155971	-0.07761887	0	0	0	0
43.32454	-0.04155971	-0.07761887	0	0	0	0
43.34111	-0.04155971	-0.07761887	0	0	0	0
43.35768	-0.04155971	-0.07761887	0	0	0	0
43.37424	-0.04155971	-0.07761887	0	0	0	0
43.39081	-0.04155971	-0.07761887	0	0	0	0
43.42292	-0.04155971	-0.07761887	0	0	0	0
43.43949	-0.04155971	-0.07761887	0	0	0	0
43.45606	-0.04155971	-0.07761887	0	0	0	0
43.47284	-0.04155971	-0.07761887	0	0	0	0
43.48919	-0.04155971	-0.07761887	0	0	0	0
43.50576	-0.04155971	-0.07761887	0	0	0	0
43.52233	-0.04155971	-0.07761887	0	0	0	0
43.55346	-0.04155971	-0.07761887	0	0	0	0
43.58485	-0.04155971	-0.07761887	0	0	0	0
43.60141	-0.04155971	-0.07761887	0	0	0	0
43.61833	-0.04155971	-0.07761887	0	0	0	0
43.63455	-0.04155971	-0.07761887	0	0	0	0
43.65148	-0.04155971	-0.07761887	0	0	0	0
43.66769	-0.04155971	-0.07761887	0	0	0	0
43.68473	-0.04155971	-0.07761887	0	0	0	0
43.70131	-0.04155971	-0.07761887	0	0	0	0
43.71739	-0.04155971	-0.07761887	0	0	0	0
43.76381	-0.04155971	-0.07761887	0	0	0	0
43.78037	-0.04155971	-0.07761887	0	0	0	0
43.79694	-0.04155971	-0.07761887	0	0	0	0
43.81351	-0.04155971	-0.07761887	0	0	0	0
43.8303	-0.04155971	-0.07761887	0	0	0	0
43.84665	-0.04155971	-0.07761887	0	0	0	0
43.86349	-0.04155971	-0.07761887	0	0	0	0
43.87978	-0.04155971	-0.07761887	0	0	0	0
43.92267	-0.04155971	-0.07761887	0	0	0	0
43.93924	-0.04155971	-0.07761887	0	0	0	0
43.95619	-0.04155971	-0.07761887	0	0	0	0
43.97237	-0.04155971	-0.07761887	0	0	0	0
43.98894	-0.04155971	-0.07761887	0	0	0	0
44.00551	-0.04155971	-0.07761887	0	0	0	0
44.02208	-0.04155971	-0.07761887	0	0	0	0
44.03865	-0.04155971	-0.07761887	0	0	0	0
44.08857	-0.04155971	-0.07761887	0	0	0	0
44.10521	-0.04155971	-0.07761887	0	0	0	0
44.12172	-0.04155971	-0.07761887	0	0	0	0
44.13831	-0.04155971	-0.07761887	0	0	0	0
44.15497	-0.04155971	-0.07761887	0	0	0	0
44.1714	-0.04155971	-0.07761887	0	0	0	0
44.18797	-0.04155971	-0.07761887	0	0	0	0
44.20453	-0.04155971	-0.07761887	0	0	0	0
44.25057	-0.04155971	-0.07761887	0	0	0	0
44.26714	-0.04155971	-0.07761887	0	0	0	0
44.28371	-0.04155971	-0.07761887	0	0	0	0
44.30056	-0.04155971	-0.07761887	0	0	0	0
44.31684	-0.04155971	-0.07761887	0	0	0	0
44.33374	-0.04155971	-0.07761887	0	0	0	0
44.34997	-0.04155971	-0.07761887	0	0	0	0
44.36682	-0.04155971	-0.07761887	0	0	0	0
44.4026	-0.04155971	-0.07761887	0	0	0	0
44.41923	0.008556412	-0.06906246	3.014603	0.5146883	57.52367	9.821114
44.43575	0.02811392	-0.06906246	1.183764	0	-55.23575	-15.52796
44.4523	0.08678646	-0.06539544	3.54393	0.2214952	71.35314	6.696302
44.46887	0.1515707	-0.06417309	3.910386	0.07378118	11.06349	-4.459558
44.48544	0.2090209	-0.06539544	3.4677	-0.07378118	-13.36027	-4.453441
44.50201	0.2530253	-0.06784011	2.65611	-0.147561	-24.49385	-2.226679
44.5188	0.2860286	-0.06906246	1.96583	-0.07280882	-20.6945	2.24106
44.5445	0.3006967	-0.06906246	0.5705838	2.898242E-07	-32.83262	1.713328
44.56131	0.3055861	-0.06906246	0.2908388	-4.43187E-07	-6.579352	-1.723977E-05
44.57764	0.3055861	-0.06906246	0	0	-8.777533	1.337541E-05
44.59492	0.3055861	-0.06906246	0	0	0	0
44.61077	0.3055861	-0.06906246	0	0	0	0
44.62774	0.3055861	-0.06906246	0	0	0	0
44.64427	0.3055861	-0.06906246	0	0	0	0
44.66047	0.3055861	-0.06906246	0	0	0	0
44.67703	0.3055861	-0.06906246	0	0	0	0
44.71936	0.3055861	-0.06906246	0	0	0	0
44.73596	0.3055861	-0.06906246	0	0	0	0
44.75249	0.3055861	-0.06906246	0	0	0	0
44.81744	0.3055861	-0.06906246	0	0	0	0
44.86418	0.3055861	-0.06906246	0	0	0	0
44.88075	0.3055861	-0.06906246	0	0	0	0
44.89783	0.3055861	-0.06906246	0	0	0	0
44.91389	0.3055861	-0.06906246	0	0	0	0
44.93076	0.3055861	-0.06906246	0	0	0	0
44.94702	0.3055861	-0.06906246	0	0	0	0
44.96359	0.3055861	-0.06906246	0	0	0	0
44.98016	0.3055861	-0.06906246	0	0	0	0
45.01305	0.3055861	-0.06906246	0	0	0	0
