Time	Pos X	Pos Y	Vel X	Vel Y	Acc X	Acc Y
0.01664211	-0.1087887	-0.009167584	0.002417283	0.0002037036	-5.376038E-05	-4.53037E-06
0.03313658	-0.1087887	-0.009167584	0	0	5.373168E-05	4.52795E-06
0.0497033	-0.1087887	-0.009167584	0	0	0	0
0.06627041	-0.1087887	-0.009167584	0	0	0	0
0.08284029	-0.1087887	-0.009167584	0	0	0	0
0.09940463	-0.1087887	-0.009167584	0	0	0	0
0.1159682	-0.1087887	-0.009167584	0	0	0	0
0.1612494	-0.1051216	-0.009167585	0.08098352	-2.056752E-08	1.309464	-3.325666E-07
0.1778596	-0.04033737	0.03361447	3.900282	2.575658	61.7097	41.61578
0.1947575	-0.03544799	0.04217089	0.2893481	0.5063591	-107.7631	-61.75526
0.2109527	-0.02811393	0.06050606	0.4528526	1.132132	4.940734	18.90944
0.2275195	-0.0220022	0.0727295	0.368916	0.7378316	-2.562014	-12.03532
0.244087	-0.01833517	0.08250825	0.221339	0.5902371	-4.453917	-4.454443
0.2606541	-0.01833517	0.08617529	0	0.2213442	-6.679996	-11.13316
0.277218	-0.01711282	0.08861998	0.07379544	0.1475911	2.227379	-2.226102
0.3091841	-0.01711282	0.08861998	0	0	-1.520613	-3.04123
0.3259226	-0.01711282	0.08861998	0	0	0	0
0.3425102	-0.01711282	0.08861998	0	0	0	0
0.358887	-0.01711282	0.08861998	0	0	0	0
0.375453	-0.01711282	0.08984233	0	0.07378701	0	2.239856
0.3920528	-0.01711282	0.08984233	0	0	0	-2.224793
0.4085998	-0.01711282	0.08984233	0	0	0	0
0.4254902	-0.01711282	0.08984233	0	0	0	0
0.4417233	-0.01711282	0.08984233	0	0	0	0
0.4625033	-0.01711282	0.08984233	0	0	0	0
0.4792563	-0.01711282	0.08984233	0	0	0	0
0.4956399	-0.01711282	0.08984233	0	0	0	0
0.512207	-0.01589048	0.08984231	0.07378161	-8.99444E-07	2.239156	-2.729671E-05
0.5287741	-0.01589048	0.08984231	0	0	-2.226751	2.714549E-05
0.5454083	-0.01589048	0.08984231	0	0	0	0
0.5619687	-0.01589048	0.08984231	0	0	0	0
0.5784766	-0.01589048	0.08984231	0	0	0	0
0.5950421	-0.01589048	0.08984231	0	0	0	0
0.623624	-0.01589048	0.08984231	0	0	0	0
0.6401916	-0.01589048	0.08984231	0	0	0	0
0.6569489	-0.01589048	0.08984231	0	0	0	0
0.6733249	-0.01589048	0.08984231	0	0	0	0
0.689973	-0.01589048	0.08984231	0	0	0	0
0.7065756	-0.01589048	0.08984231	0	0	0	0
0.723136	-0.01589048	0.08984231	0	0	0	0
0.7395965	-0.01589048	0.08984231	0	0	0	0
0.7561684	-0.01589048	0.08984231	0	0	0	0
0.7889813	-0.01589048	0.08984231	0	0	0	0
0.805578	-0.01589048	0.08984231	0	0	0	0
0.8221179	-0.01589048	0.08984231	0	0	0	0
0.8386889	-0.01589048	0.08984231	0	0	0	0
0.8552513	-0.01589048	0.08984231	0	0	0	0
0.8723399	-0.01589048	0.08984231	0	0	0	0
0.8883883	-0.01589048	0.08984231	0	0	0	0
0.904955	-0.01589048	0.08984231	0	0	0	0
0.9536777	-0.01589048	0.08984231	0	0	0	0
0.9702476	-0.01589048	0.08984231	0	0	0	0
0.9868139	-0.01589048	0.08984231	0	0	0	0
1.003379	-0.01589048	0.08984231	0	0	0	0
1.019946	-0.01589048	0.08984231	0	0	0	0
1.036908	-0.01589048	0.08984231	0	0	0	0
1.053084	-0.01589048	0.08984231	0	0	0	0
1.069799	-0.01589048	0.08984231	0	0	0	0
1.102186	-0.01589048	0.08984231	0	0	0	0
1.118757	-0.01589048	0.08984231	0	0	0	0
1.135322	-0.01589048	0.08984231	0	0	0	0
1.151927	-0.01589048	0.08984231	0	0	0	0
1.168461	-0.01589048	0.08984231	0	0	0	0
1.185035	-0.01589048	0.08984231	0	0	0	0
1.201594	-0.01589048	0.08984231	0	0	0	0
1.218437	-0.01589048	0.08984231	0	0	0	0
1.234727	-0.01589048	0.08984231	0	0	0	0
1.255035	-0.01589048	0.08984231	0	0	0	0
1.271605	-0.01589048	0.08984231	0	0	0	0
1.288171	-0.01589048	0.08984231	0	0	0	0
1.304739	-0.01589048	0.08984231	0	0	0	0
1.321588	-0.01589048	0.08984231	0	0	0	0
1.337872	-0.01589048	0.08984231	0	0	0	0
1.354599	-0.01589048	0.08984231	0	0	0	0
1.371072	-0.01589048	0.08984231	0	0	0	0
1.387571	-0.01589048	0.08984231	0	0	0	0
1.404136	-0.01589048	0.08984231	0	0	0	0
1.430318	-0.01589048	0.08984231	0	0	0	0
1.446885	-0.01589048	0.08984231	0	0	0	0
1.50741	-0.01589048	0.08984231	0	0	0	0
1.52425	-0.01589048	0.08984231	0	0	0	0
1.541096	-0.01589048	0.08984231	0	0	0	0
1.557386	-0.01589048	0.08984231	0	0	0	0
1.587769	-0.01589048	0.08984231	0	0	0	0
1.604337	-0.01589048	0.08984231	0	0	0	0
1.620903	-0.01589048	0.08984231	0	0	0	0
1.63749	-0.01589048	0.08984231	0	0	0	0
1.655753	-0.01589048	0.08984231	0	0	0	0
1.672323	-0.01589048	0.08984231	0	0	0	0
1.68889	-0.01589048	0.08984231	0	0	0	0
1.705456	-0.01589048	0.08984231	0	0	0	0
1.722023	-0.01589048	0.08984231	0	0	0	0
1.760406	-0.01589048	0.08984231	0	0	0	0
1.776975	-0.01589048	0.1020658	-1.124222E-07	0.7377617	-2.045842E-06	13.42568
1.793814	-0.01589048	0.1020658	0	0	3.365184E-06	-22.08375
1.810109	-0.01589048	0.1081775	0	0.3750544	0	11.31908
1.826676	-0.01589048	0.1130669	0	0.2951318	0	-2.432045
1.843246	-0.01589048	0.1142892	1.124117E-07	0.07376905	3.392372E-06	-6.680309
1.859812	-0.01589048	0.1142892	0	0	-3.392457E-06	-2.226266
1.876633	-0.01589048	0.1142892	0	0	0	0
1.924879	-0.01589048	0.1142892	0	0	0	0
1.941447	-0.01589048	0.1142892	0	0	0	0
1.958335	-0.01589048	0.1142892	0	0	0	0
1.97459	-0.01589048	0.1142892	0	0	0	0
1.991154	-0.01589048	0.1142892	0	0	0	0
2.00805	-0.01589048	0.1142892	0	0	0	0
2.024285	-0.01589048	0.1142892	0	0	0	0
2.040851	-0.01589048	0.1142892	0	0	0	0
2.07261	-0.01589048	0.1142892	0	0	0	0
2.089269	-0.01589048	0.1142892	0	0	0	0
2.106288	-0.01589048	0.1142892	0	0	0	0
2.122313	-0.01589048	0.1142892	0	0	0	0
2.13888	-0.01589048	0.1142892	0	0	0	0
2.155447	-0.01589048	0.1142892	0	0	0	0
2.172013	-0.01589048	0.1142892	0	0	0	0
2.18858	-0.01589048	0.1142892	0	0	0	0
2.205146	-0.01589048	0.1142892	0	0	0	0
2.223989	-0.01589048	0.1142892	0	0	0	0
2.240559	-0.01589048	0.1142892	0	0	0	0
2.257125	-0.01589048	0.1142892	0	0	0	0
2.273692	-0.01589048	0.1142892	0	0	0	0
2.290755	-0.01589048	0.1142892	0	0	0	0
2.306829	-0.01589048	0.1142892	0	0	0	0
2.334837	-0.01589048	0.1142892	0	0	0	0
2.351781	-0.01589048	0.1142892	0	0	0	0
2.367974	-0.01589048	0.1142892	0	0	0	0
2.391875	-0.01589048	0.1142892	0	0	0	0
2.408567	-0.01589048	0.1142892	0	0	0	0
2.425016	-0.01589048	0.1142892	0	0	0	0
2.441584	-0.01589048	0.1142892	0	0	0	0
2.458242	-0.01589048	0.1142892	0	0	0	0
2.474712	-0.01589048	0.1142892	0	0	0	0
2.491282	-0.01589048	0.1142892	0	0	0	0
2.507848	-0.01589048	0.1142892	0	0	0	0
2.524422	-0.01589048	0.1142892	0	0	0	0
2.559097	-0.01589048	0.1142892	0	0	0	0
2.575665	-0.01589048	0.1142892	0	0	0	0
2.592233	-0.01589048	0.1142892	0	0	0	0
2.608931	-0.01589048	0.1142892	0	0	0	0
2.666187	-0.01589048	0.1142892	0	0	0	0
2.68276	-0.01589048	0.1142892	0	0	0	0
2.713828	-0.01589048	0.1142892	0	0	0	0
2.730395	-0.01589048	0.1142892	0	0	0	0
2.746963	-0.01589048	0.1142892	0	0	0	0
2.764136	-0.01589048	0.1142892	0	0	0	0
2.780101	-0.01589048	0.1142892	0	0	0	0
2.796668	-0.01589048	0.1142892	0	0	0	0
2.813234	-0.01589048	0.1142892	0	0	0	0
2.829798	-0.01589048	0.1142892	0	0	0	0
2.84637	-0.01589048	0.1142892	0	0	0	0
2.888242	-0.01589048	0.1142892	0	0	0	0
2.904812	-0.01589048	0.1142892	0	0	0	0
2.921379	-0.01589048	0.1142892	0	0	0	0
2.938193	-0.01589048	0.1142892	0	0	0	0
2.954512	-0.01589048	0.1142892	0	0	0	0
2.971079	-0.01589048	0.1142892	0	0	0	0
2.987646	-0.01589048	0.1142892	0	0	0	0
3.004212	-0.01589048	0.1142892	0	0	0	0
3.020778	-0.01589048	0.1142892	0	0	0	0
3.037587	-0.01589048	0.1142892	0	0	0	0
3.053912	-0.01589048	0.1142892	0	0	0	0
3.071343	-0.01589048	0.1142892	0	0	0	0
3.087288	-0.01589048	0.1142892	0	0	0	0
3.103713	-0.01589048	0.1142892	0	0	0	0
3.120179	-0.01589048	0.1142892	0	0	0	0
3.13691	-0.01589048	0.1142892	0	0	0	0
3.153314	-0.01589048	0.1142892	0	0	0	0
3.180374	-0.01589048	0.1142892	0	0	0	0
3.196944	-0.01589048	0.1142892	0	0	0	0
3.213511	-0.01589048	0.1142892	0	0	0	0
3.230081	-0.01589048	0.1142892	0	0	0	0
3.247015	-0.01589048	0.1142892	0	0	0	0
3.263212	-0.01589048	0.1142892	0	0	0	0
3.279778	-0.01589048	0.1106222	-1.12444E-07	-0.2213713	-3.432043E-06	-6.756746
3.2967	-0.01589048	0.1057328	0	-0.2889239	3.357762E-06	-2.017231
3.312912	-0.01466813	0.09839873	0.07539878	-0.4523922	2.27554	-4.933482
3.341409	-0.009778756	0.08984232	0.1715724	-0.3002517	2.151092	3.402889
3.358237	0.002444689	0.07761887	0.7264037	-0.7264037	12.24123	-9.40218
3.374543	0.002444689	0.07761887	0	0	-21.92354	21.92354
3.391111	0.006111722	0.07272949	0.2213298	-0.2951068	6.732599	-8.976811
3.407682	0.01222345	0.07028481	0.3688301	-0.1475313	4.450991	4.453261
3.424245	0.01589048	0.06784012	0.2213966	-0.147598	-4.449646	-0.00201433
3.440816	0.02077986	0.06417308	0.295047	-0.2212857	2.222758	-2.223884
3.457381	0.02077986	0.06417308	0	0	-8.904153	6.678129
3.473947	0.02077986	0.06417308	0	0	0	0
3.509172	0.02077986	0.06417308	0	0	0	0
3.525743	0.02077986	0.06417308	0	0	0	0
3.54231	0.02077986	0.06417308	0	0	0	0
3.558876	0.02077986	0.06417308	0	0	0	0
3.575443	0.02077986	0.06417308	0	0	0	0
3.592012	0.02077986	0.06417308	0	0	0	0
3.608645	0.02077986	0.06417308	0	0	0	0
3.625146	0.02077986	0.06417308	0	0	0	0
3.664372	0.02077986	0.06417308	0	0	0	0
3.68105	0.02077986	0.06417308	0	0	0	0
3.697509	0.02077986	0.06417308	0	0	0	0
3.714075	0.02077986	0.06417308	0	0	0	0
3.730678	0.02077986	0.06417308	0	0	0	0
3.747211	0.02077986	0.06417308	0	0	0	0
3.763778	0.02077986	0.06417308	0	0	0	0
3.780344	0.02077986	0.06417308	0	0	0	0
3.812876	0.02077986	0.06417308	0	0	0	0
3.834168	0.02077986	0.06417308	0	0	0	0
3.850735	0.02077986	0.06417308	0	0	0	0
3.867303	0.02077986	0.06417308	0	0	0	0
3.883872	0.02077986	0.06417308	0	0	0	0
3.900442	0.02077986	0.06417308	0	0	0	0
3.917179	0.02077986	0.06417308	0	0	0	0
3.933594	0.02077986	0.06417308	0	0	0	0
3.98179	0.02077986	0.06417308	0	0	0	0
3.99836	0.02077986	0.06417308	0	0	0	0
4.014927	0.02077986	0.06417308	0	0	0	0
4.031494	0.02077986	0.06417308	0	0	0	0
4.048061	0.02077986	0.06417308	0	0	0	0
4.064627	0.02077986	0.06417308	0	0	0	0
4.081516	0.02077986	0.06417308	0	0	0	0
4.098213	0.02077986	0.06417308	0	0	0	0
4.141138	0.02077986	0.06417308	0	0	0	0
4.157708	0.0220022	0.06417309	0.07376609	4.496274E-07	1.239861	7.55734E-06
4.174278	0.0220022	0.06417309	0	0	-2.225849	-1.356724E-05
4.252192	0.0220022	0.06417309	0	0	0	0
4.314834	0.0220022	0.06295075	0	-0.01951311	0	-0.1388286
4.331401	0.0220022	0.06295075	0	0	0	0.2463472
4.347969	0.0220022	0.06295075	0	0	0	0
4.364596	0.0220022	0.06295075	0	0	0	0
4.381104	0.0220022	0.06295075	0	0	0	0
4.398257	0.0220022	0.06295075	0	0	0	0
4.414237	0.0220022	0.06295075	0	0	0	0
4.448594	0.0220022	0.06295075	0	0	0	0
4.465162	0.0220022	0.06295075	0	0	0	0
4.48173	0.0220022	0.06295075	0	0	0	0
4.498538	0.0220022	0.06295075	0	0	0	0
4.514863	0.0220022	0.06295075	0	0	0	0
4.531554	0.02322455	0.05194964	0.07323072	-0.6590768	2.218024	-19.96222
4.548	0.02322454	0.04217088	-1.132607E-07	-0.5946112	-2.20992	1.945407
4.564563	0.02322455	0.02994744	2.249107E-07	-0.7379783	1.024481E-05	-4.343265
4.634835	0.02444689	0.01527931	0.01739457	-0.2087352	0.2003151	6.09482
4.651405	0.02322455	-0.06661778	-0.0737681	-4.942464	-1.049758	-54.50994
4.668032	0.02322455	-0.06661778	0	0	2.222105	148.8811
4.684583	0.02322455	-0.06661778	0	0	0	0
4.701105	0.02322455	-0.06661778	0	0	0	0
4.717672	0.02566923	-0.05928371	0.1475659	0.4426982	4.45971	13.37914
4.749975	0.03789268	-0.01772399	0.3784013	1.286565	4.723496	17.26771
4.76668	0.05378316	0.04461557	0.9512117	3.731676	11.68801	49.89172
4.78311	0.05622784	0.05806136	0.1487951	0.8183732	-24.21628	-87.92113
4.799678	0.05989487	0.08128591	0.2213297	1.401756	2.198145	17.67929
4.816247	0.06111722	0.1020658	0.07377481	1.254166	-4.452894	-4.453941
4.832813	0.06356192	0.1204009	0.1475704	1.106777	2.227123	-4.448157
4.84938	0.0660066	0.1411808	0.1475699	1.254346	-1.349231E-05	4.453914
4.866235	0.06722895	0.1497372	0.07252046	0.5076419	-2.245544	-22.34203
4.882514	0.06967364	0.1558489	0.1501765	0.3754412	2.343697	-3.98988
4.914201	0.07089598	0.163183	0.03857543	0.2314516	-2.32667	-3.001909
4.930768	0.08556411	0.1900746	0.8853446	1.623132	17.54781	28.84015
4.947338	0.09045349	0.1949639	0.2950894	0.2950898	-17.81266	-40.0775
4.963904	0.09534287	0.2010757	0.2951408	0.3689258	0.001551482	2.228309
4.980474	0.1075663	0.2157438	0.737702	0.8852422	13.35595	15.58179
4.997039	0.1246791	0.234079	1.033022	1.106809	8.912519	6.68671
5.013605	0.1332355	0.2426354	0.5165097	0.5165105	-15.58972	-17.81679
5.030174	0.1405696	0.2499694	0.4426343	0.4426334	-2.229531	-2.229585
5.046741	0.1479037	0.2560812	0.4427107	0.3689276	0.002306987	-2.224382
5.08488	0.1552377	0.2621929	0.1922943	0.1602441	-4.577487	-3.814629
5.10145	0.180907	0.2841951	1.549175	1.327866	24.80159	21.34223
5.118264	0.1857964	0.2878622	0.2907967	0.2180986	-37.69477	-33.24311
5.134582	0.1943528	0.2939738	0.5243591	0.3745398	7.049537	4.721811
5.151152	0.2029092	0.2988632	0.5163768	0.2950737	-0.2427125	-2.416266
5.167784	0.2090209	0.3025303	0.3674547	0.2204728	-4.485247	-2.246836
5.184285	0.2126879	0.3061973	0.2222322	0.2222331	-4.382951	0.05312536
5.200852	0.2139103	0.308642	0.07378285	0.1475657	-4.489254	-2.258015
5.255035	0.2139103	0.308642	0	0	-1.042864	-2.085727
5.271603	0.2139103	0.308642	0	0	0	0
5.288171	0.2139103	0.308642	0	0	0	0
5.304736	0.2139103	0.308642	0	0	0	0
5.321306	0.2139103	0.308642	0	0	0	0
5.33787	0.2151326	0.308642	0.07379436	0	2.227118	0
5.354437	0.2175773	0.3074196	0.1475648	-0.07378465	2.22662	-2.22705
5.37124	0.2175773	0.3074196	0	0	-4.422077	2.211106
5.427734	0.2175773	0.3074196	0	0	0	0
5.444302	0.2175773	0.3074196	0	0	0	0
5.460869	0.2175773	0.3074196	0	0	0	0
5.477437	0.2175773	0.3074196	0	0	0	0
5.494004	0.2175773	0.3074196	0	0	0	0
5.510574	0.2175773	0.3074196	0	0	0	0
5.527838	0.2175773	0.3074196	0	0	0	0
5.572936	0.2175773	0.3074196	0	0	0	0
5.589507	0.1955751	0.2915291	-1.327788	-0.958958	-21.53093	-15.55011
5.606073	0.1870187	0.2866398	-0.5164948	-0.2951399	24.48312	20.03263
5.622638	0.1723506	0.276861	-0.8854724	-0.5903156	-11.13673	-8.909189
5.639206	0.1564601	0.2658599	-0.9591236	-0.6640074	-2.222893	-2.22412
5.655778	0.1405696	0.2511918	-0.9588476	-0.8850903	0.008327338	-6.671142
5.672357	0.1087887	0.2279673	-1.917033	-1.400908	-28.90395	-15.5598
5.688989	0.08923115	0.2108544	-1.175891	-1.028905	22.31664	11.20144
5.730604	0.07089598	0.1937416	-0.4405904	-0.4112175	12.62382	10.60461
5.747245	0.0220022	0.1521819	-2.938127	-2.497409	-42.87164	-35.81066
5.76374	0.0220022	0.1521819	0	0	88.66901	75.36869
5.780349	0.008556412	0.1375138	-0.8095157	-0.8831074	-24.4534	-26.67642
5.796878	-0.007334067	0.1179562	-0.9613925	-1.183252	-4.583124	-9.057352
5.813645	-0.01466813	0.1057328	-0.4374102	-0.7290165	15.73727	13.64251
5.830008	-0.0220022	0.0947317	-0.4482065	-0.6723098	-0.3258764	1.711632
5.846575	-0.02811392	0.08495294	-0.3689042	-0.5902472	2.408182	2.492005
5.871885	-0.03178096	0.07639653	-0.1448874	-0.3380703	5.349426	6.021877
5.888468	-0.03667033	0.06784012	-0.2948433	-0.5159759	-3.579539	-4.246715
5.905019	-0.03789268	0.06539543	-0.07385109	-0.1477022	6.669559	11.11452
5.921585	-0.04033737	0.0617284	-0.1475744	-0.2213615	-2.226127	-2.224195
5.938153	-0.04278205	0.05683902	-0.1475572	-0.2951153	0.0005194392	-2.225957
5.955093	-0.0440044	0.05194964	-0.07215485	-0.288619	2.250259	0.1938726
5.97129	-0.04644909	0.04706026	-0.1509416	-0.3018832	-2.377618	-0.4002876
5.988063	-0.05011613	0.03972619	-0.2186183	-0.4372362	-2.052678	-4.105342
6.004769	-0.05256081	0.03483681	-0.1463358	-0.2926723	2.158995	4.317957
6.055047	-0.05622784	0.03116978	-0.07293559	-0.07293551	1.095792	3.280451
6.071617	-0.05867253	0.02505806	-0.1475362	-0.3688406	-1.115977	-4.426549
6.088624	-0.05989488	0.02383572	-0.07187162	-0.07187152	2.253435	8.844303
6.104751	-0.06111723	0.02261337	-0.0757992	-0.07579874	-0.1185378	-0.118527
6.121321	-0.06111722	0.02016868	2.248201E-07	-0.1475364	2.318291	-2.194065
6.137885	-0.06233957	0.01894634	-0.07379604	-0.07379559	-2.227208	2.225535
6.154455	-0.06356192	0.01650165	-0.07376798	-0.1475363	0.0008468311	-2.225531
6.192999	-0.06478426	0.01527931	-0.03171276	-0.03171279	0.7630551	2.101516
6.209569	-0.06478426	0.01527931	0	0	0.5754002	0.5754007
6.226764	-0.06478426	0.01527931	0	0	0	0
6.242702	-0.06478426	0.01527931	0	0	0	0
6.259274	-0.06478426	0.01527931	0	0	0	0
6.275836	-0.06478426	0.01527931	0	0	0	0
6.292403	-0.06478426	0.01527931	0	0	0	0
6.308969	-0.06478426	0.01527931	0	0	0	0
6.325535	-0.06478426	0.01527931	0	0	0	0
6.342103	-0.06478426	0.01527931	0	0	0	0
6.358667	-0.06478426	0.01527931	0	0	0	0
6.375236	-0.06478426	0.01527931	0	0	0	0
6.392393	-0.06478426	0.01527931	0	0	0	0
6.40837	-0.06478426	0.01527931	0	0	0	0
6.425116	-0.06478426	0.01527931	0	0	0	0
6.441504	-0.06478426	0.01527931	0	0	0	0
6.45807	-0.06478426	0.01527931	0	0	0	0
6.474638	-0.06478426	0.01527931	0	0	0	0
6.500981	-0.06478426	0.01527931	0	0	0	0
6.517551	-0.06478426	0.01527931	0	0	0	0
6.534129	-0.06478426	0.01527931	0	0	0	0
6.550948	-0.06478426	0.01527931	0	0	0	0
6.567252	-0.06478426	0.01527931	0	0	0	0
6.583911	-0.06478426	0.01527931	0	0	0	0
6.600386	-0.06478426	0.01527931	0	0	0	0
6.617534	-0.06478426	0.01527931	0	0	0	0
6.633703	-0.06478426	0.01527931	0	0	0	0
6.657441	-0.06478426	0.01527931	0	0	0	0
6.67401	-0.06478426	0.01527931	0	0	0	0
6.690585	-0.06478426	0.01527931	0	0	0	0
6.707144	-0.06478426	0.01527931	0	0	0	0
6.723713	-0.06478426	0.01527931	0	0	0	0
6.74048	-0.06478426	0.01527931	0	0	0	0
6.756846	-0.06478426	0.01527931	0	0	0	0
6.780294	-0.06478426	0.01527931	0	0	0	0
6.798708	-0.06478426	0.01527931	0	0	0	0
6.815278	-0.06478426	0.01527931	0	0	0	0
6.831849	-0.06478426	0.01527931	0	0	0	0
6.84849	-0.06478426	0.01527931	0	0	0	0
6.865185	-0.06478426	0.01527931	0	0	0	0
6.881544	-0.06478426	0.01527931	0	0	0	0
6.898225	-0.06478426	0.01527931	0	0	0	0
6.914676	-0.06478426	0.01527931	0	0	0	0
6.931624	-0.06478426	0.01650165	0	0.07212029	0	2.159317
6.947809	-0.06478426	0.017724	0	0.07552417	0	0.1027325
6.981827	-0.06478426	0.017724	0	0	0	-1.50438
6.998395	-0.06478426	0.017724	0	0	0	0
7.014964	-0.06478426	0.017724	0	0	0	0
7.031785	-0.06478426	0.017724	0	0	0	0
7.048309	-0.06478426	0.017724	0	0	0	0
7.064665	-0.06478426	0.017724	0	0	0	0
7.081232	-0.06478426	0.017724	0	0	0	0
7.098158	-0.06478426	0.017724	0	0	0	0
7.114367	-0.06478426	0.017724	0	0	0	0
7.150943	-0.06478426	0.017724	0	0	0	0
7.167513	-0.06478426	0.017724	0	0	0	0
7.18408	-0.06478426	0.017724	0	0	0	0
7.200648	-0.06478426	0.017724	0	0	0	0
7.217215	-0.06478426	0.017724	0	0	0	0
7.233782	-0.06478426	0.017724	0	0	0	0
7.25046	-0.06478426	0.017724	0	0	0	0
7.266912	-0.06478426	0.017724	0	0	0	0
7.308843	-0.06478426	0.017724	0	0	0	0
7.325414	-0.06478426	0.017724	0	0	0	0
7.34229	-0.06478426	0.017724	0	0	0	0
7.358547	-0.06478426	0.017724	0	0	0	0
7.375114	-0.06478426	0.017724	0	0	0	0
7.391681	-0.06478426	0.017724	0	0	0	0
7.408369	-0.06478426	0.017724	0	0	0	0
7.42481	-0.06478426	0.017724	0	0	0	0
7.453206	-0.06478426	0.017724	0	0	0	0
7.469774	-0.06478426	0.017724	0	0	0	0
7.486341	-0.06478426	0.017724	0	0	0	0
7.50291	-0.06478426	0.017724	0	0	0	0
7.519543	-0.06478426	0.01894634	0	0.07348894	0	2.213378
7.536042	-0.06478426	0.02139103	0	0.1481715	0	2.254087
7.552609	-0.06478426	0.02139103	0	0	0	-4.481047
7.569445	-0.06478426	0.02261337	0	0.07260228	0	2.1735
7.585896	-0.06478426	0.02261337	0	0	0	-2.181128
7.602368	-0.06478426	0.02261337	0	0	0	0
7.618874	-0.06478426	0.02261337	0	0	0	0
7.635444	-0.06478426	0.02261337	0	0	0	0
7.65201	-0.06478426	0.02261337	0	0	0	0
7.668588	-0.06478426	0.02261337	0	0	0	0
7.685144	-0.06478426	0.02261337	0	0	0	0
7.701712	-0.06478426	0.02261337	0	0	0	0
7.718524	-0.06478426	0.02261337	0	0	0	0
7.73506	-0.06478426	0.02261337	0	0	0	0
7.751408	-0.06478426	0.02261337	0	0	0	0
7.768321	-0.06478426	0.02261337	0	0	0	0
7.78454	-0.06478426	0.02261337	0	0	0	0
7.801113	-0.06478426	0.02261337	0	0	0	0
7.817958	-0.06478426	0.02261337	0	0	0	0
7.83467	-0.06478426	0.02261337	0	0	0	0
7.850815	-0.06478426	0.02261337	0	0	0	0
7.867557	-0.06478426	0.02261337	0	0	0	0
7.884021	-0.06478426	0.02261337	0	0	0	0
7.90051	-0.06478426	0.02261337	0	0	0	0
7.917077	-0.06478426	0.02261337	0	0	0	0
7.933644	-0.06478426	0.02261337	0	0	0	0
7.972619	-0.06478426	0.02261337	0	0	0	0
7.989193	-0.06356192	0.02261337	0.07374889	1.12381E-07	1.327622	2.023073E-06
8.005759	-0.06356192	0.02261337	0	0	-2.225362	-3.391079E-06
8.023029	-0.06356192	0.02261337	0	0	0	0
8.03889	-0.06356192	0.02261337	0	0	0	0
8.055454	-0.06356192	0.02261337	0	0	0	0
8.07252	-0.06356192	0.02261337	0	0	0	0
8.088589	-0.06356192	0.02261337	0	0	0	0
8.182195	-0.06356192	0.02261337	0	0	0	0
8.199147	-0.06356192	0.02261337	0	0	0	0
8.215329	-0.06356192	0.02261337	0	0	0	0
8.231895	-0.06356192	0.02261337	0	0	0	0
8.248674	-0.06356192	0.02261337	0	0	0	0
8.282174	-0.06356192	0.02261337	0	0	0	0
8.298789	-0.06356192	0.02261337	0	0	0	0
8.31531	-0.06356192	0.02261337	0	0	0	0
8.331878	-0.06356192	0.02261337	0	0	0	0
8.348444	-0.06356192	0.02261337	0	0	0	0
8.365013	-0.06356192	0.02261337	0	0	0	0
8.381593	-0.06356192	0.02261337	0	0	0	0
8.398429	-0.06356192	0.02261337	0	0	0	0
8.429459	-0.06356192	0.02261337	0	0	0	0
8.44624	-0.06356192	0.02261337	0	0	0	0
8.462596	-0.06356192	0.02261337	0	0	0	0
8.479166	-0.06356192	0.02261337	0	0	0	0
8.496159	-0.06356192	0.02261337	0	0	0	0
8.512611	-0.06356192	0.02261337	0	0	0	0
8.528864	-0.06356192	0.02261337	0	0	0	0
8.545755	-0.06356192	0.02261337	0	0	0	0
8.561997	-0.06356192	0.02261337	0	0	0	0
8.590513	-0.06356192	0.02261337	0	0	0	0
8.607083	-0.06356192	0.02261337	0	0	0	0
8.623648	-0.06356192	0.02261337	0	0	0	0
8.640217	-0.06356192	0.02261337	0	0	0	0
8.656822	-0.06356192	0.02261337	0	0	0	0
8.673833	-0.06356192	0.02261337	0	0	0	0
8.689916	-0.06356192	0.02261337	0	0	0	0
8.706485	-0.06356192	0.02261337	0	0	0	0
8.723051	-0.06356192	0.02261337	0	0	0	0
8.749961	-0.06356192	0.02261337	0	0	0	0
8.766528	-0.06356192	0.02261337	0	0	0	0
8.783096	-0.06356192	0.02261337	0	0	0	0
8.799662	-0.06356192	0.02261337	0	0	0	0
8.816233	-0.06356192	0.02261337	0	0	0	0
8.832875	-0.06356192	0.02261337	0	0	0	0
8.849368	-0.06356192	0.02261337	0	0	0	0
8.865929	-0.06356192	0.02261337	0	0	0	0
8.93154	-0.06356192	0.02261337	0	0	0	0
8.948426	-0.06356192	0.02261337	0	0	0	0
8.964679	-0.06356192	0.02261337	0	0	0	0
8.981444	-0.06356192	0.02261337	0	0	0	0
8.997812	-0.06356192	0.02261337	0	0	0	0
9.014588	-0.06356192	0.02261337	0	0	0	0
9.031323	-0.06356192	0.02261337	0	0	0	0
9.058265	-0.06356192	0.02261337	0	0	0	0
9.074832	-0.06356192	0.02261337	0	0	0	0
9.091401	-0.06356192	0.02261337	0	0	0	0
9.107967	-0.06356192	0.02261337	0	0	0	0
9.124535	-0.06356192	0.02261337	0	0	0	0
9.141105	-0.06356192	0.02261337	0	0	0	0
9.157669	-0.06356192	0.02261337	0	0	0	0
9.174233	-0.06356192	0.02261337	0	0	0	0
9.1908	-0.06356192	0.02261337	0	0	0	0
9.218409	-0.06356192	0.02261337	0	0	0	0
9.234979	-0.06356192	0.02261337	0	0	0	0
9.251546	-0.06356192	0.02261337	0	0	0	0
9.268112	-0.06356192	0.02261337	0	0	0	0
9.285312	-0.06356192	0.02261337	0	0	0	0
9.30125	-0.06356192	0.02261337	0	0	0	0
9.318329	-0.06356192	0.02261337	0	0	0	0
9.334384	-0.06356192	0.02261337	0	0	0	0
9.350948	-0.06356192	0.02261337	0	0	0	0
9.381496	-0.06356192	0.02261337	0	0	0	0
9.398067	-0.06356192	0.02261337	0	0	0	0
9.414722	-0.06356192	0.02261337	0	0	0	0
9.4312	-0.06356192	0.02261337	0	0	0	0
9.447767	-0.06356192	0.02261337	0	0	0	0
9.464335	-0.06356192	0.02261337	0	0	0	0
9.480902	-0.06356192	0.02261337	0	0	0	0
9.497468	-0.06356192	0.02261337	0	0	0	0
9.514117	-0.06356192	0.02261337	0	0	0	0
9.547791	-0.06356192	0.02261337	0	0	0	0
9.564358	-0.06356192	0.02261337	0	0	0	0
9.580927	-0.06356192	0.02261337	0	0	0	0
9.598016	-0.06356192	0.02261337	0	0	0	0
9.614063	-0.06356192	0.02261337	0	0	0	0
9.63063	-0.06356192	0.02261337	0	0	0	0
9.662224	-0.06356192	0.02261337	0	0	0	0
9.723105	-0.06356192	0.02261337	0	0	0	0
9.739673	-0.06356192	0.02261337	0	0	0	0
9.75624	-0.06356192	0.02261337	0	0	0	0
9.772806	-0.06356192	0.02261337	0	0	0	0
9.789375	-0.06356192	0.02261337	0	0	0	0
9.805947	-0.06356192	0.02261337	0	0	0	0
9.822509	-0.06356192	0.02261337	0	0	0	0
9.839075	-0.06356192	0.02261337	0	0	0	0
9.895223	-0.06356192	0.02261337	0	0	0	0
9.91179	-0.06111723	0.02383572	0.1475617	0.07378072	2.029321	1.014659
9.928357	-0.05133847	0.0287251	0.5902469	0.2951236	13.36027	6.680141
9.944923	-0.03178095	0.03728151	1.180562	0.5164956	17.81626	6.681213
9.961494	0.02444689	0.09595405	3.393138	3.540666	66.76991	91.26178
9.978061	0.08311942	0.1570713	3.541685	3.689256	4.482761	4.484049
9.994626	0.1393473	0.1864075	3.39431	1.770944	-4.448152	-57.89976
10.03031	0.1552377	0.1876299	0.4453275	0.03425632	-56.44202	-33.23931
10.04699	0.1637942	0.1888522	0.5130695	0.07329462	1.293784	0.745581
10.06345	0.1637942	0.1888522	0	0	-15.48358	-2.211909
10.08001	0.1637942	0.1888522	0	0	0	0
10.09658	0.1637942	0.1888522	0	0	0	0
10.11315	0.1637942	0.1888522	0	0	0	0
10.12971	0.1637942	0.1900746	0	0.07378922	0	2.226963
10.14628	0.1650165	0.1900746	0.07377648	8.993841E-07	2.226643	-2.227
10.19682	0.1674612	0.1912969	0.04837526	0.02418748	-0.3785332	0.3604324
10.21339	0.1735729	0.1998533	0.3687772	0.5162877	4.774343	7.332838
10.22995	0.1760176	0.202298	0.1476039	0.1476039	-6.674829	-11.12658
10.24652	0.1772399	0.2047427	0.07377558	0.1475521	-2.2284	-0.001565648
10.26309	0.17724	0.2084097	8.994876E-07	0.2213567	-2.226524	2.227429
10.27997	0.1796847	0.2108544	0.1448033	0.1448024	4.329029	-2.288675
10.29622	0.1833517	0.2145215	0.2256812	0.2256821	2.44111	2.441164
10.31279	0.1857964	0.2157438	0.1475699	0.07378497	-2.380354	-4.628896
10.34984	0.1894634	0.2181885	0.09895699	0.06597146	-0.9065655	-0.1457113
10.36641	0.1906857	0.2194108	0.07376709	0.07376709	-0.4697242	0.1453675
10.38298	0.1906857	0.2194108	0	0	-2.226167	-2.226167
10.39955	0.1906857	0.2194108	0	0	0	0
10.41618	0.1906857	0.2194108	0	0	0	0
10.43268	0.1906857	0.2194108	0	0	0	0
10.44925	0.1906857	0.2194108	0	0	0	0
10.46643	0.1906857	0.2194108	0	0	0	0
10.50192	0.1906857	0.2194108	0	0	0	0
10.51849	0.1906857	0.2194108	0	0	0	0
10.53506	0.1906857	0.2218555	0	0.1475708	0	4.453569
10.55163	0.184574	0.2279673	-0.3689249	0.3689258	-11.13482	6.680889
10.56819	0.1711282	0.2365236	-0.8114963	0.5164047	-13.35645	4.450797
10.58476	0.149126	0.2487471	-1.328208	0.7378949	-15.59438	6.684586
10.60167	0.1149004	0.2597482	-2.02438	0.650692	-20.7986	-2.605243
10.61795	0.03789268	0.2805281	-4.729044	1.276093	-81.48855	18.84263
10.65288	0	0.2866398	-1.084899	0.1749834	71.15891	-21.50127
10.66945	-0.0330033	0.2903068	-1.991281	0.221253	-17.59921	0.8984162
10.68601	-0.03422564	0.2903068	-0.07380196	0	57.86629	-6.677045
10.70264	-0.03544799	0.2903068	-0.07353122	1.792783E-06	0.00815847	5.402233E-05
10.71915	-0.03544799	0.2903068	0	0	2.219177	-5.41063E-05
10.73573	-0.03544799	0.2903068	0	0	0	0
10.75228	-0.03544799	0.2903068	0	0	0	0
10.76885	-0.03544799	0.2903068	0	0	0	0
10.79329	-0.03544799	0.2903068	0	0	0	0
10.80986	-0.03544799	0.2903068	0	0	0	0
10.8271	-0.03544799	0.2903068	0	0	0	0
10.84299	-0.03544799	0.2903068	0	0	0	0
10.86037	-0.03544799	0.2903068	0	0	0	0
10.87613	-0.03544799	0.2903068	0	0	0	0
10.8927	-0.03544799	0.2903068	0	0	0	0
10.90926	-0.03544799	0.2903068	0	0	0	0
10.9259	-0.03667033	0.2903068	-0.07345957	0	-2.212048	0
10.96078	-0.03667033	0.2903068	0	0	1.425889	0
10.97735	-0.03667033	0.2903068	0	0	0	0
10.99397	-0.03667033	0.2903068	0	0	0	0
11.01048	-0.03667033	0.2903068	0	0	0	0
11.02722	-0.03911502	0.2890845	-0.1460318	-0.07301755	-4.391573	-2.195837
11.04362	-0.04767143	0.2793057	-0.521843	-0.5963928	-11.34103	-15.79413
11.06019	-0.05867254	0.2658599	-0.6641425	-0.8117282	-4.317224	-6.533057
11.07681	-0.08189708	0.2353013	-1.397011	-1.838173	-22.08179	-30.92742
11.09332	-0.1430143	0.16685	-3.702257	-4.146527	-69.57645	-69.67028
11.13169	-0.1943528	0.1155116	-1.338013	-1.338013	43.08237	51.17809
11.14834	-0.3361447	0.01283462	-8.513004	-6.164591	-130.3949	-87.71594
11.16505	-0.3361447	0.01283462	0	0	255.1312	184.7503
11.18139	-0.361814	-0.001833517	-1.571014	-0.897721	-47.5337	-27.16207
11.19796	-0.3923726	-0.01405696	-1.844839	-0.737936	-8.321996	4.856146
11.21464	-0.4058183	-0.01772399	-0.8062046	-0.2198744	31.24441	15.58444
11.23109	-0.4143748	-0.02016868	-0.5200008	-0.148571	8.638145	2.152066
11.24811	-0.4180418	-0.02139103	-0.2154873	-0.07182922	9.097541	2.29271
11.27952	-0.4192641	-0.02139103	-0.03891212	0	3.646027	1.483171
11.29609	-0.4241535	-0.02628041	-0.2950907	-0.2950895	-5.339139	-6.150098
11.31266	-0.4278206	-0.02994744	-0.2213549	-0.2213553	2.225287	2.225239
11.32937	-0.440044	-0.04094854	-0.7313677	-0.6582305	-15.32517	-13.12749
11.3458	-0.4510451	-0.04950495	-0.6696952	-0.5208738	1.860959	4.14472
11.36236	-0.4571568	-0.05561668	-0.3690311	-0.3690318	9.114197	4.602871
11.37901	-0.4571568	-0.05561668	0	0	11.11147	11.1115
11.39588	-0.4583792	-0.05561667	-0.07246029	2.208293E-07	-2.16172	6.588038E-06
11.45039	-0.4583792	-0.05561667	0	0	1.015126	-3.093688E-06
11.46757	-0.4583792	-0.05561667	0	0	0	0
11.48352	-0.4583792	-0.05561667	0	0	0	0
11.50028	-0.4583792	-0.05561667	0	0	0	0
11.51666	-0.4583792	-0.05561667	0	0	0	0
11.53323	-0.4583792	-0.05561667	0	0	0	0
11.54979	-0.4583792	-0.05561667	0	0	0	0
11.60903	-0.4583792	-0.05561667	0	0	0	0
11.6256	-0.4547122	-0.04706026	0.2213422	0.516466	2.919937	6.813198
11.6423	-0.4498228	-0.04094854	0.2927319	0.3659133	2.145776	-4.525194
11.65873	-0.4424887	-0.03605916	0.4463086	0.2975383	4.634821	-2.063502
11.6753	-0.4241535	-0.02139103	1.106649	0.8853194	20.00974	17.81104
11.69187	-0.3679257	0.01161227	3.393919	1.992083	69.02795	33.40124
11.70883	-0.3006968	0.04461557	3.9626	1.945276	16.95881	-1.395836
11.74122	-0.2261337	0.07150715	2.301997	0.8302279	-33.64511	-22.59175
11.75779	-0.05256081	0.1155116	10.47748	2.656264	166.9937	37.29888
11.77442	-0.004889378	0.1216233	2.866727	0.3675289	-229.2708	-68.94717
11.79093	0.0110011	0.124068	0.9626423	0.148099	-57.4621	-6.622027
11.80749	0.03544799	0.1289573	1.475617	0.2951233	15.50973	4.445264
11.82406	0.04522675	0.1301797	0.590179	0.07377223	-26.72104	-6.680006
11.84096	0.06233957	0.131402	1.01259	0.07232767	12.62088	-0.04316075
11.85743	0.06478426	0.1326244	0.1484072	0.0742036	-25.89475	0.05621098
11.87394	0.06600661	0.1326244	0.07404972	9.027096E-07	-2.254626	-2.249933
11.90496	0.06600661	0.1326244	0	0	-1.558046	-1.899349E-05
11.92178	0.06600661	0.1326244	0	0	0	0
11.93841	0.06600661	0.1326244	0	0	0	0
11.95491	0.06600661	0.1326244	0	0	0	0
11.97126	0.06600661	0.1326244	0	0	0	0
11.98817	0.06600661	0.1326244	0	0	0	0
12.00437	0.06600661	0.1326244	0	0	0	0
12.02126	0.06600661	0.1326244	0	0	0	0
12.0375	0.06600661	0.1326244	0	0	0	0
12.0583	0.06600661	0.1326244	0	0	0	0
12.07498	0.06600661	0.1326244	0	0	0	0
12.09144	0.06600661	0.1326244	0	0	0	0
12.108	0.06600661	0.1326244	0	0	0	0
12.12458	0.06600661	0.1326244	0	0	0	0
12.14113	0.06600661	0.1326244	0	0	0	0
12.1577	0.06600661	0.1326244	0	0	0	0
12.17427	0.0660066	0.1301797	-4.497179E-07	-0.1475624	-1.357212E-05	-4.453312
12.19084	0.0660066	0.124068	0	-0.3689041	1.357251E-05	-6.680107
12.22482	0.06478426	0.1167339	-0.03596797	-0.2158083	-0.7115127	3.028517
12.24146	0.06233957	0.1069551	-0.146936	-0.5877435	-2.192091	-7.347306
12.25798	0.06233957	0.1057328	2.25482E-07	-0.07398515	4.431228	15.49366
12.27453	0.06233957	0.1020658	-2.251311E-07	-0.2216105	-1.362659E-05	-4.464208
12.29115	0.06111723	0.09962108	-0.07354765	-0.1470957	-2.217496	2.246662
12.30766	0.06111722	0.09839873	-2.255862E-07	-0.07401978	2.219729	2.2055
12.32423	0.05989488	0.09595405	-0.07378945	-0.1475784	-2.230687	-2.223717
12.34079	0.05867254	0.09350935	-0.07379324	-0.1475874	-0.0001144697	-0.0002703194
12.38124	0.05867254	0.09350935	0	0	1.29442	2.588855
12.3978	0.05867254	0.09106467	-2.248331E-07	-0.1475445	-3.943505E-06	-2.587886
12.41437	0.05867254	0.09106467	0	0	6.785281E-06	4.452773
12.43094	0.05867254	0.09106467	0	0	0	0
12.44751	0.05867254	0.09106467	0	0	0	0
12.46407	0.05867254	0.08984232	0	-0.07378118	0	-2.22672
12.48099	0.05745019	0.08984232	-0.07224207	0	-2.157296	2.203257
12.49721	0.05745019	0.08984232	0	0	2.180082	0
12.55537	0.05745019	0.08861998	-6.405264E-08	-0.02101695	-8.61188E-07	-0.282573
12.57194	0.05622785	0.08861998	-0.07376798	0	-0.9871269	0.2812388
12.58902	0.05622785	0.08861998	0	0	2.19225	0
12.60508	0.05622785	0.08861998	0	0	0	0
12.62165	0.05622785	0.08861998	0	0	0	0
12.63821	0.05622785	0.08739763	0	-0.07383598	0	-2.228503
12.65479	0.05622785	0.08739763	0	0	0	2.228054
12.68501	0.05622785	0.08739763	0	0	0	0
12.70158	0.0550055	0.08617529	-0.07376821	-0.07376798	-1.576512	-1.576507
12.71815	0.0550055	0.08617529	0	0	2.226201	2.226194
12.73472	0.0550055	0.08617529	0	0	0	0
12.75128	0.0550055	0.08617529	0	0	0	0
12.76785	0.0550055	0.08617529	0	0	0	0
12.78508	0.0550055	0.08617529	0	0	0	0
12.80098	0.05378316	0.08617529	-0.07683728	0	-2.319021	0
12.81755	0.05378316	0.08617529	0	0	2.365801	0
12.85917	0.05378316	0.08495294	0	-0.02937516	0	-0.5048861
12.87574	0.05378316	0.08495294	0	0	0	0.5048861
12.89231	0.05378316	0.08495294	0	0	0	0
12.90887	0.05378316	0.08495294	0	0	0	0
12.92544	0.05378316	0.08495294	0	0	0	0
12.942	0.05256081	0.08495294	-0.07378519	-4.497438E-07	-2.227098	-1.357486E-05
12.95857	0.05256081	0.08495294	0	0	2.226649	1.357212E-05
12.97514	0.05256081	0.08495294	0	0	0	0
13.01151	0.05256081	0.08495294	0	0	0	0
13.02808	0.05256081	0.08495294	0	0	0	0
13.04465	0.05256081	0.08495294	0	0	0	0
13.06121	0.05256081	0.08495294	0	0	0	0
13.07785	0.05256081	0.08373059	0	-0.0734804	0	-2.213248
13.09435	0.05133847	0.0837306	-0.074079	4.515374E-07	-2.235644	2.217593
13.11091	0.05133847	0.0837306	0	0	2.240222	-1.365494E-05
13.12748	0.05133847	0.0837306	0	0	0	0
13.14405	0.05133847	0.0837306	0	0	0	0
13.1629	0.05133847	0.0837306	0	0	0	0
13.17947	0.05133847	0.0837306	0	0	0	0
13.19604	0.05133847	0.0837306	0	0	0	0
13.21261	0.05133847	0.0837306	0	0	0	0
13.22917	0.05133847	0.0837306	0	0	0	0
13.24574	0.05133847	0.0837306	0	0	0	0
13.2623	0.05133847	0.0837306	0	0	0	0
13.2796	0.05133847	0.0837306	0	0	0	0
13.29617	0.05133847	0.0837306	0	0	0	0
13.31496	0.05133847	0.0837306	0	0	0	0
13.33153	0.05133847	0.0837306	0	0	0	0
13.3481	0.05133847	0.0837306	0	0	0	0
13.36466	0.05133847	0.0837306	0	0	0	0
13.38123	0.05133847	0.0837306	0	0	0	0
13.3978	0.05133847	0.0837306	0	0	0	0
13.41437	0.05133847	0.0837306	0	0	0	0
13.43095	0.05133847	0.0837306	0	0	0	0
13.44754	0.05133847	0.0837306	0	0	0	0
13.48474	0.05133847	0.0837306	0	0	0	0
13.5013	0.05133847	0.0837306	0	0	0	0
13.51787	0.05133847	0.0837306	0	0	0	0
13.55072	0.05133847	0.0837306	0	0	0	0
13.56729	0.05133847	0.0837306	0	0	0	0
13.58435	0.05133847	0.0837306	0	0	0	0
13.60053	0.05133847	0.0837306	0	0	0	0
13.61708	0.05133847	0.0837306	0	0	0	0
13.63355	0.05133847	0.0837306	0	0	0	0
13.65021	0.05133847	0.0837306	0	0	0	0
13.66675	0.05133847	0.0837306	0	0	0	0
13.68341	0.05133847	0.0837306	0	0	0	0
13.69982	0.05133847	0.0837306	0	0	0	0
13.71639	0.05133847	0.0837306	0	0	0	0
13.73315	0.05133847	0.0837306	0	0	0	0
13.74952	0.05133847	0.0837306	0	0	0	0
13.76609	0.05133847	0.0837306	0	0	0	0
13.80527	0.05133847	0.0837306	0	0	0	0
13.82184	0.05133847	0.0837306	0	0	0	0
13.8384	0.05133847	0.0837306	0	0	0	0
13.85497	0.05133847	0.0837306	0	0	0	0
13.87154	0.05133847	0.0837306	0	0	0	0
13.8882	0.05133847	0.0837306	0	0	0	0
13.90467	0.05133847	0.0837306	0	0	0	0
13.92124	0.05133847	0.0837306	0	0	0	0
13.95403	0.05133847	0.0837306	0	0	0	0
13.9706	0.05133847	0.0837306	0	0	0	0
13.98717	0.05133847	0.0837306	0	0	0	0
14.00375	0.05133847	0.0837306	0	0	0	0
14.02035	0.05133847	0.0837306	0	0	0	0
14.03687	0.05133847	0.0837306	0	0	0	0
14.05344	0.05133847	0.0837306	0	0	0	0
14.07001	0.05133847	0.0837306	0	0	0	0
14.08742	0.05133847	0.0837306	0	0	0	0
14.12292	0.05133847	0.0837306	0	0	0	0
14.13949	0.05133847	0.0837306	0	0	0	0
14.15606	0.05133847	0.0837306	0	0	0	0
14.17263	0.05133847	0.0837306	0	0	0	0
14.18926	0.05133847	0.0837306	0	0	0	0
14.20576	0.05133847	0.0837306	0	0	0	0
14.22239	0.05133847	0.0837306	0	0	0	0
14.2391	0.05133847	0.0837306	0	0	0	0
14.27793	0.05133847	0.0837306	0	0	0	0
14.2945	0.05133847	0.0837306	0	0	0	0
14.31107	0.05133847	0.0837306	0	0	0	0
14.32782	0.05133847	0.0837306	0	0	0	0
14.34485	0.05133847	0.0837306	0	0	0	0
14.36077	0.05133847	0.0837306	0	0	0	0
14.37734	0.05133847	0.0837306	0	0	0	0
14.3939	0.05133847	0.0837306	0	0	0	0
14.42144	0.05133847	0.0837306	0	0	0	0
14.43812	0.05133847	0.0837306	0	0	0	0
14.45469	0.05133847	0.0837306	0	0	0	0
14.47138	0.05133847	0.0837306	0	0	0	0
14.48771	0.05133847	0.0837306	0	0	0	0
14.50464	0.05133847	0.0837306	0	0	0	0
14.52085	0.05133847	0.0837306	0	0	0	0
14.53741	0.05133847	0.0837306	0	0	0	0
14.55398	0.05133847	0.0837306	0	0	0	0
14.59231	0.05133847	0.0837306	0	0	0	0
14.60888	0.05133847	0.0837306	0	0	0	0
14.62612	0.05133847	0.0837306	0	0	0	0
14.64269	0.05133847	0.0837306	0	0	0	0
14.65926	0.05133847	0.0837306	0	0	0	0
14.67583	0.05133847	0.0837306	0	0	0	0
14.69239	0.05133847	0.0837306	0	0	0	0
14.70896	0.05133847	0.0837306	0	0	0	0
14.73482	0.05133847	0.0837306	0	0	0	0
14.75139	0.05133847	0.0837306	0	0	0	0
14.76795	0.05133847	0.0837306	0	0	0	0
14.78452	0.05133847	0.0837306	0	0	0	0
14.80108	0.05133847	0.0837306	0	0	0	0
14.81765	0.05133847	0.0837306	0	0	0	0
14.83422	0.05133847	0.0837306	0	0	0	0
14.85079	0.05133847	0.0837306	0	0	0	0
14.8675	0.05133847	0.0837306	0	0	0	0
14.89956	0.05133847	0.0837306	0	0	0	0
14.91612	0.05133847	0.0837306	0	0	0	0
14.933	0.05133847	0.0837306	0	0	0	0
14.94926	0.05133847	0.0837306	0	0	0	0
14.96583	0.05133847	0.0837306	0	0	0	0
14.98239	0.05133847	0.0837306	0	0	0	0
14.99938	0.05133847	0.0837306	0	0	0	0
15.01553	0.05133847	0.0837306	0	0	0	0
15.03209	0.05133847	0.0837306	0	0	0	0
15.04866	0.05133847	0.0837306	0	0	0	0
15.06523	0.05133847	0.0837306	0	0	0	0
15.08179	0.05133847	0.0837306	0	0	0	0
15.12875	0.05133847	0.0837306	0	0	0	0
15.14623	0.05133847	0.0837306	0	0	0	0
15.16189	0.05133847	0.0837306	0	0	0	0
15.17845	0.05133847	0.0837306	0	0	0	0
15.20479	0.05133847	0.0837306	0	0	0	0
15.22145	0.05133847	0.0837306	0	0	0	0
15.23794	0.05133847	0.0837306	0	0	0	0
15.25449	0.05133847	0.0837306	0	0	0	0
15.27106	0.05133847	0.0837306	0	0	0	0
15.28763	0.05133847	0.0837306	0	0	0	0
15.30461	0.05133847	0.0837306	0	0	0	0
15.32077	0.05133847	0.0837306	0	0	0	0
15.33733	0.05133847	0.0837306	0	0	0	0
15.388	0.05133847	0.0837306	0	0	0	0
15.40457	0.05133847	0.0837306	0	0	0	0
15.42153	0.05133847	0.0837306	0	0	0	0
15.4377	0.05133847	0.0837306	0	0	0	0
15.45448	0.05133847	0.0837306	0	0	0	0
15.47097	0.05133847	0.0837306	0	0	0	0
15.4874	0.05133847	0.0837306	0	0	0	0
15.53747	0.05133847	0.0837306	0	0	0	0
15.55416	0.05133847	0.0837306	0	0	0	0
15.5706	0.05133847	0.0837306	0	0	0	0
15.58717	0.05133847	0.0837306	0	0	0	0
15.60403	0.05133847	0.0837306	0	0	0	0
15.62063	0.05133847	0.0837306	0	0	0	0
15.63699	0.05133847	0.0837306	0	0	0	0
15.65383	0.05133847	0.0837306	0	0	0	0
15.68806	0.05133847	0.0837306	0	0	0	0
15.70485	0.05133847	0.0837306	0	0	0	0
15.72152	0.05133847	0.0837306	0	0	0	0
15.73818	0.05133847	0.0837306	0	0	0	0
15.75433	0.05133847	0.0837306	0	0	0	0
15.7709	0.05133847	0.0837306	0	0	0	0
15.78757	0.05133847	0.0837306	0	0	0	0
15.80403	0.05133847	0.0837306	0	0	0	0
15.8319	0.05133847	0.0837306	0	0	0	0
15.84888	0.05133847	0.0837306	0	0	0	0
15.86504	0.05133847	0.0837306	0	0	0	0
15.88198	0.05133847	0.0837306	0	0	0	0
15.89817	0.05011613	0.08861998	-0.0754887	0.3019544	-2.278319	9.113263
15.91527	0.04889378	0.0947317	-0.0714609	0.3573038	0.1209641	1.662269
15.9313	0.04767144	0.1032881	-0.07626554	0.5338597	-0.1450129	5.328774
15.94794	0.04767144	0.1179562	0	0.8818172	2.335033	10.65347
15.96466	0.04767144	0.1362914	0	1.096613	0	6.439919
16.00488	0.04767143	0.1570713	-9.262443E-08	0.5166635	-1.626727E-06	-10.18543
16.0218	0.06356192	0.2145215	0.9387256	3.393854	16.4265	50.34716
16.03801	0.0660066	0.2230779	0.1508259	0.5278907	-23.77749	-86.48996
16.05468	0.07211833	0.2389683	0.3666252	0.9532251	6.563464	12.9364
16.07851	0.07700771	0.2511918	0.205207	0.5130171	-3.985949	-10.87019
16.09508	0.08800881	0.276861	0.6638746	1.54904	11.35382	25.64564
16.11165	0.08800881	0.276861	0	0	-20.03347	-46.74475
16.12823	0.09045349	0.2841951	0.1473748	0.4421262	4.444966	13.33495
16.15058	0.09167584	0.2903068	0.05471385	0.2735689	-2.380256	-4.329867
16.16722	0.09045349	0.3037526	-0.07345138	0.8079621	-3.287772	13.70858
16.18371	0.09045349	0.3037526	0	0	2.216767	-24.38434
16.20029	0.08189708	0.3135314	-0.5160501	0.5897705	-15.60316	17.83216
16.21684	0.07089598	0.3269771	-0.66464	0.8123361	-4.484711	6.717432
16.23341	0.05989488	0.3404229	-0.6640276	0.8115898	0.01849012	-0.02253585
16.24998	0.04889378	0.3550911	-0.6641041	0.8854743	-0.002308085	2.229967
16.26654	0.03422565	0.3734262	-0.8853703	1.106711	-6.67821	6.67732
16.28311	0.02322455	0.383205	-0.6641807	0.5903835	6.676283	-15.58459
16.29967	0.01222344	0.3954284	-0.6641042	0.737894	0.002308351	4.452644
16.31624	-0.002444689	0.4088742	-0.8852684	0.8114963	-6.674748	2.221322
16.33281	-0.007334067	0.4125413	-0.2950895	0.2213167	17.80958	-17.80961
16.34937	-0.01589048	0.418653	-0.5165256	0.3689461	-6.682954	4.455464
16.36594	-0.02566923	0.4235424	-0.5903147	0.2951587	-2.227218	-2.227165
16.38251	-0.03422565	0.425987	-0.5164067	0.1475427	2.230551	-4.45506
16.39908	-0.04278206	0.4272094	-0.5164065	0.07377403	3.597329E-06	-2.226086
16.41565	-0.05622784	0.4272094	-0.8115893	0	-8.908121	-2.226377
16.43221	-0.07578535	0.4198753	-1.180766	-0.4427881	-11.14304	-13.36491
16.46238	-0.1259015	0.383205	-1.661205	-1.215515	-10.28075	-16.5353
16.47894	-0.2114656	0.2841951	-5.164661	-5.97625	-74.96307	-101.8649
16.49553	-0.2285784	0.2573035	-1.031626	-1.621127	124.6563	131.3547
16.51208	-0.2530253	0.198631	-1.477488	-3.545973	-13.45617	-58.09197
16.52865	-0.2640264	0.1338467	-0.6640283	-3.910386	24.56582	-11.00498
16.54521	-0.2640264	0.06050605	1.798872E-06	-4.426852	20.04047	-15.58699
16.56192	-0.2432466	-0.01527931	1.243821	-4.536289	37.38145	-3.288994
16.57835	-0.2065762	-0.08373059	2.232186	-4.166747	29.82893	11.15282
16.59502	-0.1430143	-0.1607383	3.812464	-4.618948	47.74235	-13.66161
16.6233	-0.08923114	-0.2096321	1.901663	-1.728784	-42.50541	64.29114
16.63988	0.07334067	-0.3330889	9.809466	-7.449295	176.2966	-127.5331
16.65644	0.07334067	-0.3330889	0	0	-296.0332	224.8072
16.67326	0.1589048	-0.4027625	5.087348	-4.142556	152.396	-124.094
16.68957	0.1980198	-0.4369882	2.397421	-2.097743	-81.18216	61.71258
16.70614	0.2209891	-0.4485129	1.386751	-0.6957929	-30.73918	42.63984
16.72271	0.2288283	-0.4445645	0.4730654	0.2382705	-27.57509	28.19009
16.73927	0.2318161	-0.4430138	0.1803414	0.0935971	-8.833411	-4.365748
16.75584	0.2330553	-0.4423632	0.07479978	0.03927117	-3.185252	-1.63956
16.79789	0.2330553	-0.4423632	0	0	-1.276085	-0.6699662
16.81925	0.2330553	-0.4423632	0	0	0	0
16.83583	0.2330553	-0.4423632	0	0	0	0
16.85239	0.2330553	-0.4423632	0	0	0	0
16.86896	0.2330553	-0.4423632	0	0	0	0
16.88553	0.2330553	-0.4423632	0	0	0	0
16.90209	0.2330553	-0.4423632	0	0	0	0
16.91866	0.2444709	-0.4361583	0.6890444	0.3745323	20.7966	11.30406
16.94465	0.2671654	-0.4226378	0.8732192	0.520229	4.327745	3.423587
16.96122	0.3278871	-0.3774786	3.664323	2.725185	65.57957	51.80747
16.97779	0.3278871	-0.3774786	0	0	-110.5768	-82.23678
16.99435	0.3472762	-0.3597212	1.170461	1.071965	35.32661	32.35383
17.01092	0.3651845	-0.3415264	1.080951	1.098236	-2.701572	0.7929199
17.02749	0.3703704	-0.3343112	0.3130199	0.4355086	-23.17621	-20.00117
17.0441	0.3703704	-0.3294218	0	0.2942777	-9.433383	-4.256233
17.06062	0.3703704	-0.3245325	0	0.2960089	0	0.05225214
17.09436	0.3703704	-0.3196431	0	0.1449261	0	-3.006335
17.11093	0.3703704	-0.3171984	0	0.1475445	0	0.05204799
17.12749	0.3703704	-0.3171984	0	0	0	-4.4529
17.14406	0.3703704	-0.3147537	-1.798665E-06	0.1475445	-5.428381E-05	4.4529
17.16063	0.3703704	-0.308642	3.597743E-06	0.3689036	0.0001628545	6.680249
17.17719	0.3667033	-0.3000856	-0.2213458	0.5164669	-6.680337	4.453467
17.19384	0.3667034	-0.2976409	1.790831E-06	0.1469019	6.665319	-11.12851
17.21033	0.3667034	-0.2976409	0	0	-5.405361E-05	-4.434018
17.22689	0.3667034	-0.2976409	0	0	0	0
17.27965	0.3667034	-0.2976409	0	0	0	0
17.29622	0.3667034	-0.2976409	0	0	0	0
17.31278	0.3667034	-0.2976409	0	0	0	0
17.32937	0.3667034	-0.2976409	0	0	0	0
17.34592	0.3667034	-0.2976409	0	0	0	0
17.36251	0.3667034	-0.2976409	0	0	0	0
17.37905	0.3667034	-0.2976409	0	0	0	0
17.43593	0.3667034	-0.2976409	0	0	0	0
17.45256	0.3312553	-0.2756387	-2.132282	1.323485	-29.0085	18.00528
17.46949	0.3190319	-0.2670822	-0.7217698	0.5052406	42.02981	-24.3817
17.48589	0.2774722	-0.2401907	-2.53393	1.6396	-54.35942	34.02741
17.50221	0.2774722	-0.2401907	0	0	77.45506	-50.11793
17.51877	0.1980198	-0.1876299	-4.797413	3.173673	-145.9286	96.53739
17.53582	0.1381249	-0.1472925	-3.511761	2.365064	38.24408	-24.05356
17.5717	0.06967363	-0.1057328	-1.908033	1.158449	30.29855	-22.79607
17.58827	-0.06600661	-0.02016868	-8.188732	5.164065	-119.7591	76.37827
17.60483	-0.06600661	-0.02016868	0	0	247.1364	-155.8518
17.6214	-0.08556411	-0.004278206	-1.180493	0.9591512	-35.62941	28.94891
17.63797	-0.09900991	0.00550055	-0.8115898	0.5902469	11.13353	-11.13355
17.65495	-0.1038993	0.009167584	-0.2879948	0.2159961	15.60895	-11.15683
17.6711	-0.1038993	0.01038993	0	0.07564458	8.691199	-4.235575
17.68767	-0.1051216	0.01161227	-0.07378922	0.07378934	-2.25487	-0.05669288
17.70441	-0.1051216	0.01161227	0	0	2.215485	-2.215489
17.72325	-0.1051216	0.01161227	0	0	0	0
17.73982	-0.1051216	0.01161227	0	0	0	0
17.75638	-0.1051216	0.01161227	0	0	0	0
17.77295	-0.1051216	0.01161227	0	0	0	0
17.78952	-0.1051216	0.01161227	0	0	0	0
17.80609	-0.1051216	0.01161227	0	0	0	0
17.82265	-0.1051216	0.01161227	0	0	0	0
17.8395	-0.1051216	0.01161227	0	0	0	0
17.85579	-0.1051216	0.01161227	0	0	0	0
17.89207	-0.1051216	0.01161227	0	0	0	0
17.90893	-0.1038993	0.01650165	0.07248721	0.2899493	1.364064	5.456264
17.92521	-0.1038993	0.01650165	0	0	-2.187542	-8.750184
17.94177	-0.0990099	0.02261337	0.2951238	0.3689043	8.986518	11.23313
17.95834	-0.09412053	0.02628041	0.2951569	0.2213681	0.0009984314	-4.452908
17.97525	-0.08556411	0.03116978	0.5059239	0.2890991	6.295729	2.023162
17.99176	-0.07578536	0.03361447	0.5924293	0.1481073	2.588535	-4.218953
18.00804	-0.06111722	0.03728151	0.9008232	0.225206	9.405343	2.351343
18.0246	-0.04522675	0.0397262	0.9593721	0.1475957	1.782502	-2.362824
18.05138	-0.03055861	0.04094854	0.547705	0.045642	-9.497563	-2.352171
18.06814	-0.01833517	0.04094854	0.7294941	0	4.175495	-1.048346
18.08452	-0.01711282	0.04094854	0.07463157	0	-19.76379	0
18.10129	-0.01711282	0.04094854	0	0	-2.251219	0
18.11793	-0.01711282	0.04094854	0	0	0	0
18.13422	-0.01711282	0.04094854	0	0	0	0
18.15079	-0.01711282	0.04094854	0	0	0	0
18.16736	-0.01711282	0.04094854	0	0	0	0
18.18392	-0.01711282	0.04094854	0	0	0	0
18.20049	-0.01711282	0.04094854	0	0	0	0
18.21705	-0.01711282	0.04094854	0	0	0	0
18.23362	-0.01711282	0.04094854	0	0	0	0
18.25019	-0.01711282	0.04094854	0	0	0	0
18.26676	-0.01711282	0.04094854	0	0	0	0
18.28333	-0.01711282	0.04094854	0	0	0	0
18.30007	-0.01711282	0.04094854	0	0	0	0
18.31646	-0.01711282	0.04094854	0	0	0	0
18.33302	-0.0110011	0.03850385	0.3689042	-0.1475617	11.19348	-4.477389
18.34994	0.006111722	0.02628041	1.011505	-0.7225034	19.19046	-17.16992
18.36644	0.02444689	0.009167584	1.11119	-1.037111	2.982935	-9.414131
18.38275	0.05745019	-0.02139103	2.02377	-1.873861	27.81551	-25.50422
18.39929	0.05745019	-0.02139103	0	0	-61.6059	57.0425
18.41614	0.06233957	-0.0262804	0.2903105	-0.2903105	8.696012	-8.696012
18.43243	0.06356191	-0.02628041	0.07502451	-1.143248E-07	-6.497343	8.761584
18.449	0.06356191	-0.02628041	0	0	-2.28317	3.479169E-06
18.46556	0.06356191	-0.02628041	0	0	0	0
18.48239	0.06356191	-0.02628041	0	0	0	0
18.49958	0.06356191	-0.02628041	0	0	0	0
18.51526	0.06356191	-0.02628041	0	0	0	0
18.54793	0.06356191	-0.02628041	0	0	0	0
18.5645	0.06356191	-0.02628041	0	0	0	0
18.58106	0.06356191	-0.02628041	0	0	0	0
18.59763	0.06356191	-0.02628041	0	0	0	0
18.61434	0.06356191	-0.02628041	0	0	0	0
18.63103	0.06356191	-0.02628041	0	0	0	0
18.64733	0.06356192	-0.02750275	4.570852E-07	-0.07498951	1.385708E-05	-2.273396
18.6639	0.06356192	-0.01894634	0	0.516466	-1.390693E-05	17.99518
18.68049	0.06356191	-0.01161227	-4.488911E-07	0.4418713	-1.353509E-05	-2.249199
18.70149	0.06356191	-0.00550055	0	0.2910885	1.194055E-05	-4.010838
18.71838	0.06356191	-0.001833517	0	0.2171182	0	-1.952462
18.73472	0.06356191	-0.001833517	0	0	0	-6.533084
18.75119	0.06356192	-0.0006111722	4.523741E-07	0.07421663	1.3786E-05	2.261735
18.76776	0.06356192	-0.0006111722	0	0	-1.369287E-05	-2.246457
18.78433	0.06356192	-0.0006111722	0	0	0	0
18.8009	0.06356192	-0.0006111722	0	0	0	0
18.81746	0.06356192	-0.0006111722	0	0	0	0
18.83403	0.06356192	-0.0006111722	0	0	0	0
18.86328	0.06356192	-0.0006111722	0	0	0	0
18.87984	0.06356192	-0.0006111722	0	0	0	0
18.89641	0.06356192	-0.0006111722	0	0	0	0
18.91304	0.06356192	-0.0006111722	0	0	0	0
18.92957	0.06356192	-0.0006111722	0	0	0	0
18.94611	0.06356192	-0.0006111722	0	0	0	0
18.96283	0.06356192	-0.0006111722	0	0	0	0
18.97925	0.06356192	-0.0006111722	0	0	0	0
18.99582	0.06356192	-0.0006111722	0	0	0	0
19.02828	0.06356192	-0.0006111722	0	0	0	0
19.04484	0.06356192	-0.0006111722	0	0	0	0
19.06141	0.06356192	-0.0006111722	0	0	0	0
19.07798	0.06356192	-0.0006111722	0	0	0	0
19.09459	0.06356192	-0.0006111722	0	0	0	0
19.11112	0.06356192	-0.0006111722	0	0	0	0
19.12796	0.06356192	-0.0006111722	0	0	0	0
19.14425	0.06356192	-0.0006111722	0	0	0	0
19.16082	0.06356192	-0.0006111722	0	0	0	0
19.19122	0.06356192	-0.0006111722	0	0	0	0
19.20779	0.06356192	-0.0006111722	0	0	0	0
19.2244	0.06356192	-0.0006111722	0	0	0	0
19.24096	0.06356192	-0.0006111722	0	0	0	0
19.25769	0.06356192	-0.0006111722	0	0	0	0
19.27406	0.06356192	-0.0006111722	0	0	0	0
19.29063	0.06356192	-0.0006111722	0	0	0	0
19.30739	0.06356192	-0.0006111722	0	0	0	0
19.32378	0.06356192	-0.0006111722	0	0	0	0
19.35699	0.06356192	-0.0006111722	0	0	0	0
19.37356	0.06356192	-0.0006111722	0	0	0	0
19.39053	0.06356192	-0.0006111722	0	0	0	0
19.42136	0.06356192	-0.0006111722	0	0	0	0
19.43793	0.06356192	-0.0006111722	0	0	0	0
19.4545	0.06356192	-0.0006111722	0	0	0	0
19.47106	0.06356192	-0.0006111722	0	0	0	0
19.48763	0.06356192	-0.0006111722	0	0	0	0
19.52805	0.06356192	-0.0006111722	0	0	0	0
19.54462	0.06356192	-0.0006111722	0	0	0	0
19.56118	0.06356192	-0.0006111722	0	0	0	0
19.57784	0.06356192	-0.0006111722	0	0	0	0
19.59431	0.06356192	-0.0006111722	0	0	0	0
19.61089	0.06356192	-0.0006111722	0	0	0	0
19.6275	0.06356192	-0.0006111722	0	0	0	0
19.64402	0.06356192	-0.0006111722	0	0	0	0
19.68297	0.06356192	-0.0006111722	0	0	0	0
19.69978	0.06356192	-0.0006111722	0	0	0	0
19.71611	0.06356192	-0.0006111722	0	0	0	0
19.73305	0.06356192	-0.0006111722	0	0	0	0
19.74924	0.06356192	-0.0006111722	0	0	0	0
19.76581	0.06356192	-0.0006111722	0	0	0	0
19.78238	0.06356192	-0.0006111722	0	0	0	0
19.79909	0.06356192	-0.0006111722	0	0	0	0
19.81551	0.06356192	-0.0006111722	0	0	0	0
19.83207	0.06356192	-0.0006111722	0	0	0	0
19.84884	0.06356192	-0.0006111722	0	0	0	0
19.86521	0.06356192	-0.0006111722	0	0	0	0
19.88178	0.06356192	-0.0006111722	0	0	0	0
19.89834	0.06356192	-0.0006111722	0	0	0	0
19.91518	0.06356192	-0.0006111722	0	0	0	0
19.93169	0.06356192	-0.0006111722	0	0	0	0
19.94804	0.06356192	-0.0006111722	0	0	0	0
19.96522	0.06356192	-0.0006111722	0	0	0	0
19.98123	0.06356192	-0.0006111722	0	0	0	0
20.01375	0.06356192	-0.0006111722	0	0	0	0
20.03032	0.06356192	-0.0006111722	0	0	0	0
20.04688	0.06356192	-0.0006111722	0	0	0	0
20.06372	0.06356192	-0.0006111722	0	0	0	0
20.08002	0.06356192	-0.0006111722	0	0	0	0
20.09658	0.06356192	-0.0006111722	0	0	0	0
20.11347	0.06356192	-0.0006111722	0	0	0	0
20.12971	0.06356192	-0.0006111722	0	0	0	0
20.14676	0.06356192	-0.0006111722	0	0	0	0
20.196	0.06356192	-0.0006111722	0	0	0	0
20.21257	0.06356192	-0.0006111722	0	0	0	0
20.22982	0.06356192	-0.0006111722	0	0	0	0
20.24583	0.06356192	-0.0006111722	0	0	0	0
20.26227	0.06356192	-0.0006111722	0	0	0	0
20.27885	0.06356192	-0.0006111722	0	0	0	0
20.29541	0.06356192	-0.0006111722	0	0	0	0
20.31197	0.06356192	-0.0006111722	0	0	0	0
20.34231	0.06356192	-0.0006111722	0	0	0	0
20.35891	0.06356192	-0.0006111722	0	0	0	0
20.37545	0.06356192	-0.0006111722	0	0	0	0
20.39202	0.06356192	-0.0006111722	0	0	0	0
20.40858	0.06356192	-0.0006111722	0	0	0	0
20.42525	0.06356192	-0.0006111722	0	0	0	0
20.44171	0.06356192	-0.0006111722	0	0	0	0
20.45828	0.06356192	-0.0006111722	0	0	0	0
20.47487	0.06356192	-0.0006111722	0	0	0	0
20.5092	0.06356192	-0.0006111722	0	0	0	0
20.52577	0.06356192	-0.0006111722	0	0	0	0
20.54234	0.06356192	-0.0006111722	0	0	0	0
20.55891	0.06356192	-0.0006111722	0	0	0	0
20.57587	0.06356192	-0.0006111722	0	0	0	0
20.59204	0.06356192	-0.0006111722	0	0	0	0
20.60861	0.06356192	-0.0006111722	0	0	0	0
20.62517	0.06356192	-0.0006111722	0	0	0	0
20.66411	0.06356192	-0.0006111722	0	0	0	0
20.68077	0.06356192	-0.0006111722	0	0	0	0
20.69724	0.06356192	-0.0006111722	0	0	0	0
20.71384	0.06356192	-0.0006111722	0	0	0	0
20.73048	0.06356192	-0.0006111722	0	0	0	0
20.74694	0.06356192	-0.0006111722	0	0	0	0
20.76351	0.06356192	-0.0006111722	0	0	0	0
20.78008	0.06356192	-0.0006111722	0	0	0	0
20.81018	0.06356192	-0.0006111722	0	0	0	0
20.82675	0.06356192	-0.0006111722	0	0	0	0
20.84332	0.06356192	-0.0006111722	0	0	0	0
20.85995	0.06356192	-0.0006111722	0	0	0	0
20.87645	0.06356192	-0.0006111722	0	0	0	0
20.89302	0.06356192	-0.0006111722	0	0	0	0
20.90959	0.06356192	-0.0006111722	0	0	0	0
20.92616	0.06356192	-0.0006111722	0	0	0	0
20.94291	0.06356192	-0.0006111722	0	0	0	0
20.99223	0.06356192	-0.0006111722	0	0	0	0
21.0088	0.06356192	-0.0006111722	0	0	0	0
21.02537	0.06356192	-0.0006111722	0	0	0	0
21.04195	0.06356192	-0.0006111722	0	0	0	0
21.05851	0.06356192	-0.0006111722	0	0	0	0
21.07507	0.06356192	-0.0006111722	0	0	0	0
21.09182	0.06356192	-0.0006111722	0	0	0	0
21.10833	0.06356192	-0.0006111722	0	0	0	0
21.16428	0.06356192	-0.0006111722	0	0	0	0
21.18085	0.06356192	-0.0006111722	0	0	0	0
21.1983	0.06356192	-0.0006111722	0	0	0	0
21.21399	0.06356192	-0.0006111722	0	0	0	0
21.23055	0.06356192	-0.0006111722	0	0	0	0
21.24749	0.06356192	-0.0006111722	0	0	0	0
21.26369	0.06356192	-0.0006111722	0	0	0	0
21.29711	0.06356192	-0.0006111722	0	0	0	0
21.31368	0.06356192	-0.0006111722	0	0	0	0
21.33025	0.06356192	-0.0006111722	0	0	0	0
21.34693	0.06356192	-0.0006111722	0	0	0	0
21.36401	0.06356192	-0.0006111722	0	0	0	0
21.37995	0.06356192	-0.0006111722	0	0	0	0
21.39676	0.06356192	-0.0006111722	0	0	0	0
21.41326	0.06356192	-0.0006111722	0	0	0	0
21.43027	0.06356192	-0.0006111722	0	0	0	0
21.45085	0.06356192	-0.0006111722	0	0	0	0
21.46742	0.06356192	-0.0006111722	0	0	0	0
21.48399	0.06356192	-0.0006111722	0	0	0	0
21.50055	0.06356192	-0.0006111722	0	0	0	0
21.51712	0.06356192	-0.0006111722	0	0	0	0
21.53385	0.06356192	-0.0006111722	0	0	0	0
21.55025	0.06356192	-0.0006111722	0	0	0	0
21.56741	0.06356192	-0.0006111722	0	0	0	0
21.58339	0.06356192	-0.0006111722	0	0	0	0
21.6159	0.06356192	-0.0006111722	0	0	0	0
21.63246	0.06356192	-0.0006111722	0	0	0	0
21.64903	0.06356192	-0.0006111722	0	0	0	0
21.6656	0.06356192	-0.0006111722	0	0	0	0
21.68217	0.06356192	-0.0006111722	0	0	0	0
21.69873	0.06356192	-0.0006111722	0	0	0	0
21.71559	0.06356192	-0.0006111722	0	0	0	0
21.73187	0.06356192	-0.0006111722	0	0	0	0
21.7489	0.06356192	-0.0006111722	0	0	0	0
21.83014	0.06356192	-0.0006111722	0	0	0	0
21.84671	0.06356192	-0.0006111722	0	0	0	0
21.86328	0.06356192	-0.0006111722	0	0	0	0
21.87984	0.06356192	-0.0006111722	0	0	0	0
21.89641	0.06356192	-0.0006111722	0	0	0	0
21.95108	0.06356192	-0.0006111722	0	0	0	0
21.99844	0.06356192	-0.0006111722	0	0	0	0
22.01501	0.06356192	-0.0006111722	0	0	0	0
22.03157	0.06356192	-0.0006111722	0	0	0	0
22.04835	0.06356192	-0.0006111722	0	0	0	0
22.0647	0.06356192	-0.0006111722	0	0	0	0
22.08144	0.06356192	-0.0006111722	0	0	0	0
22.09784	0.06356192	-0.0006111722	0	0	0	0
22.11482	0.06356192	-0.0006111722	0	0	0	0
22.1357	0.06356192	-0.0006111722	0	0	0	0
22.15227	0.06356192	-0.0006111722	0	0	0	0
22.16883	0.06356192	-0.0006111722	0	0	0	0
22.1854	0.06845129	-0.001833517	0.2950894	-0.07377237	8.906327	-2.226583
22.20201	0.09167584	-0.004278206	1.398134	-0.147172	33.24404	-2.21215
22.21853	0.1393473	-0.00794524	2.885094	-0.2219303	44.87652	-2.256207
22.2351	0.1735729	-0.00794524	2.065863	0	-24.75721	6.706748
22.25167	0.2041315	-0.004278206	1.844522	0.2213426	-6.680089	6.680133
22.26838	0.2310231	0.003055861	1.609651	0.4389957	-7.058763	6.541296
22.30845	0.2481359	0.009167584	0.4269967	0.1524987	-20.82736	-5.045411
22.32502	0.2676935	0.02505806	1.180358	0.9590408	13.29939	14.2382
22.34159	0.2689158	0.02750275	0.07378072	0.1475617	-33.39466	-24.48908
22.35816	0.2701381	0.03116979	0.07378072	0.2213426	0	2.226714
22.37472	0.2713605	0.03850385	0.07378072	0.4426849	0	6.680124
22.39129	0.2725828	0.05317198	0.07377223	0.8852686	-0.0002563245	13.35643
22.40792	0.2738052	0.06906246	0.07350991	0.9556306	-0.007901824	2.119504
22.42443	0.2762499	0.08861998	0.1481071	1.184859	2.251348	6.918124
22.46046	0.2799169	0.1106222	0.1017722	0.6106339	-0.881933	-10.92973
22.47703	0.2823616	0.1472925	0.1475632	2.213426	0.8705701	30.47195
22.49359	0.2835839	0.1509596	0.07377893	0.2213431	-2.226815	-60.12119
22.51016	0.2835839	0.1558489	0	0.2951229	-2.226652	2.226679
22.52686	0.2848063	0.1582936	0.07321776	0.1464319	2.201227	-4.470261
22.54329	0.2848063	0.159516	-1.812855E-06	0.07435517	-2.209771	-2.175281
22.55986	0.2848063	0.159516	0	0	5.492391E-05	-2.252732
22.577	0.2848063	0.159516	0	0	0	0
22.593	0.2848063	0.159516	0	0	0	0
22.62325	0.2860286	0.1460702	0.04040727	-0.444481	0.8736823	-9.610527
22.63981	0.3190319	-0.05683902	1.992083	-12.24762	41.68664	-252.1081
22.65638	0.3251436	-0.09839873	0.3689054	-2.508549	-48.9876	293.9258
22.67295	0.3337	-0.1338467	0.5164651	-2.139645	4.453359	11.13356
22.68951	0.3483682	-0.1998533	0.8854743	-3.984626	11.13736	-55.68486
22.70608	0.3569246	-0.2450801	0.5164651	-2.729891	-11.13736	37.87015
22.72265	0.3630363	-0.2744163	0.3689461	-1.770944	-4.452387	28.94275
22.73921	0.3679257	-0.2964185	0.2951229	-1.328055	-2.228117	13.36719
22.75578	0.369148	-0.3098643	0.07377223	-0.8114963	-6.679992	15.58887
22.77235	0.369148	-0.3171984	1.799286E-06	-0.4427881	-2.226524	11.12828
22.78892	0.369148	-0.3208654	-1.798665E-06	-0.2213167	-0.0001085926	6.684405
22.80548	0.369148	-0.3208654	0	0	5.428068E-05	6.678967
22.82218	0.369148	-0.3208654	0	0	0	0
22.83862	0.369148	-0.3208654	0	0	0	0
22.85525	0.369148	-0.3208654	0	0	0	0
22.87175	0.369148	-0.3208654	0	0	0	0
22.88831	0.369148	-0.3208654	0	0	0	0
22.90561	0.369148	-0.3208654	0	0	0	0
22.92145	0.3679257	-0.3208654	-0.07715432	0	-2.328388	0
22.9572	0.3557023	-0.3233101	-0.3419019	-0.06838021	-5.131386	-1.325358
22.97377	0.2921403	-0.3245325	-3.836605	-0.07378253	-66.7966	-0.103258
22.9906	0.2786945	-0.3245324	-0.7986256	1.770137E-06	90.94821	2.208886
23.0069	0.2469136	-0.3220878	-1.950183	0.1500139	-34.75608	4.527636
23.02347	0.2102432	-0.3196431	-2.213427	0.1475614	-8.010186	-0.07462502
23.04004	0.1735729	-0.3196431	-2.213171	0	0.007741898	-4.453157
23.0569	0.1307909	-0.3171984	-2.53677	0.144958	-9.678768	4.335658
23.07317	0.09289818	-0.3159761	-2.329036	0.07513005	6.269421	-2.107412
23.10184	0.06233957	-0.3147537	-1.06604	0.04264152	28.10703	-0.7230082
23.11841	-0.004889378	-0.308642	-4.05748	0.368863	-66.13157	7.211755
23.135	-0.01711282	-0.3061973	-0.736452	0.1472901	100.1308	-6.680543
23.15154	-0.03789268	-0.3037526	-1.256589	0.1478338	-15.69778	0.01640661
23.16811	-0.05622785	-0.3013079	-1.106713	0.1475614	4.527451	-0.008226172
23.18467	-0.07456301	-0.3000856	-1.10684	0.07378922	-0.003839013	-2.226578
23.20124	-0.09167584	-0.2976409	-1.032932	0.1475614	2.230668	2.226578
23.21833	-0.1112334	-0.2951962	-1.144394	0.143049	-3.311682	-0.1340721
23.23437	-0.1344579	-0.2915292	-1.44767	0.228579	-9.153413	2.58145
23.25733	-0.1625718	-0.2878621	-1.224643	0.1597369	5.718715	-1.765202
23.2739	-0.220022	-0.273194	-3.4673	0.8852668	-56.73882	18.35577
23.29047	-0.220022	-0.273194	0	0	104.6373	-26.71587
23.30703	-0.2322455	-0.269527	-0.737979	0.221395	-22.27481	6.682482
23.3236	-0.2456913	-0.2634152	-0.8114973	0.3688612	-2.218914	4.450795
23.34017	-0.2481359	-0.2609706	-0.1475606	0.1475614	20.0365	-6.678454
23.35673	-0.2542476	-0.2560812	-0.3689452	0.2951587	-6.681787	4.45475
23.37336	-0.25547	-0.2548588	-0.07350327	0.07350148	8.900061	-6.677328
23.39001	-0.2615817	-0.2499695	-0.3671284	0.2937028	-8.823531	6.61712
23.42127	-0.2640264	-0.2450801	-0.0781965	0.1563935	6.030636	-2.865942
23.43806	-0.2713605	-0.2365237	-0.4369513	0.5097745	-7.466589	7.354747
23.45441	-0.2738051	-0.2328566	-0.1495221	0.2242877	8.674633	-8.61601
23.47097	-0.2799169	-0.2267449	-0.3689054	0.3689036	-6.664739	4.393349
23.48762	-0.2872509	-0.2181885	-0.4407056	0.5141583	-2.16208	4.373975
23.50411	-0.2933627	-0.2108544	-0.3704836	0.4445781	2.119061	-2.099692
23.52068	-0.3019191	-0.2010757	-0.516584	0.5903826	-4.419242	4.410289
23.53724	-0.3092532	-0.1912969	-0.4426861	0.5902458	2.2305	-0.004130685
23.57075	-0.3190319	-0.1766288	-0.2918469	0.4377722	3.012349	-3.044988
23.58732	-0.3483682	-0.1228456	-1.770743	3.246357	-29.53443	56.0891
23.60389	-0.3520352	-0.1179562	-0.2213149	0.2950898	46.75913	-89.06429
23.62074	-0.3532575	-0.1118445	-0.07252002	0.3626005	4.451687	2.019804
23.63719	-0.3569246	-0.1069551	-0.222987	0.2973145	-4.518473	-1.960518
23.65359	-0.3581469	-0.1045104	-0.0745272	0.1490549	4.519812	-4.513718
23.67015	-0.3581469	-0.1032881	1.799079E-06	0.07378922	2.260741	-2.283087
23.68718	-0.3581469	-0.1032881	0	0	-5.355945E-05	-2.196741
23.70334	-0.3581469	-0.1032881	0	0	0	0
23.74089	-0.3581469	-0.1032881	0	0	0	0
23.75745	-0.3593693	-0.09350936	-0.07378253	0.5902463	-1.363432	10.9072
23.77431	-0.3605916	-0.08495294	-0.0724954	0.5074692	0.03850418	-2.476266
23.79059	-0.361814	-0.06417309	-0.07512308	1.277063	-0.07930805	23.22774
23.80716	-0.365481	-0.03850385	-0.221264	1.548863	-4.449472	8.275337
23.82435	-0.3679257	-0.007945239	-0.1422078	1.777601	2.341442	6.774616
23.84086	-0.3715927	0.02383572	-0.2220598	1.924506	-2.369162	4.3586
23.85685	-0.3728151	0.05317199	-0.07644749	1.834744	4.479947	-2.761656
23.8783	-0.3740374	0.07272949	-0.05699061	0.9118509	0.5197173	-24.6516
23.89487	-0.3740374	0.09839874	0	1.54922	1.499071	16.76526
23.91151	-0.3740374	0.1020658	0	0.2204286	0	-40.01778
23.92801	-0.3728151	0.1093998	0.07408779	0.4445276	2.235974	6.763322
23.94457	-0.3715927	0.1155116	0.07377403	0.3688616	-0.009488378	-2.288215
23.96114	-0.3715927	0.1191786	-1.799286E-06	0.221394	-2.226687	-4.450836
23.978	-0.3715927	0.1204009	0	0.07247081	5.382234E-05	-4.454765
23.99427	-0.3715927	0.1216233	0	0.07514814	0	0.0808066
24.01107	-0.3715927	0.1216233	0	0	0	-2.272423
24.05694	-0.3715927	0.1216233	0	0	0	0
24.07351	-0.3715927	0.1228456	0	0.07376329	0	1.181438
24.09029	-0.3715927	0.1228456	0	0	0	-2.21154
24.10664	-0.3715927	0.1228456	0	0	0	0
24.12321	-0.3715927	0.1228456	0	0	0	0
24.1398	-0.3715927	0.1228456	0	0	0	0
24.15668	-0.3715927	0.1228456	0	0	0	0
24.17305	-0.3715927	0.1228456	0	0	0	0
24.21015	-0.3715927	0.1228456	0	0	0	0
24.22707	-0.3703704	0.1216233	0.07223392	-0.07223348	1.337172	-1.337164
24.24329	-0.3703704	0.1216233	0	0	-2.179899	2.179885
24.25986	-0.3703704	0.1216233	0	0	0	0
24.27659	-0.3703704	0.1228456	0	0.07305694	0	2.194001
24.29299	-0.3703704	0.1228456	0	0	0	-2.204736
24.30956	-0.3703704	0.1228456	0	0	0	0
24.32612	-0.3703704	0.1081775	0	-0.8853701	0	-26.7236
24.38097	-0.3667034	0.06661778	0.06685368	-0.7576764	0.93608	1.787957
24.39778	-0.3244796	-0.3804117	2.512759	-26.60297	34.13433	-360.6894
24.41411	-0.3470094	-0.3599784	-1.379434	1.251069	-117.4599	840.5883
24.43068	-0.3667031	-0.3398954	-1.188851	1.212356	5.793154	-1.176767
24.44747	-0.4004891	-0.2993467	-2.011996	2.414719	-24.67635	36.04463
24.46381	-0.4004891	-0.2993467	0	0	60.71516	-72.86798
24.48038	-0.4004891	-0.2993467	0	0	0	0
24.52286	-0.4004891	-0.2993467	0	0	0	0
24.53943	-0.4004891	-0.2993467	0	0	0	0
24.55599	-0.4004891	-0.2993467	0	0	0	0
24.57256	-0.4004891	-0.2993467	0	0	0	0
24.58913	-0.4004891	-0.2993467	0	0	0	0
24.6057	-0.4004891	-0.2993467	0	0	0	0
24.62226	-0.4011199	-0.298501	-0.0380775	0.05105246	-1.149248	1.540855
24.63883	-0.4002883	-0.2996152	0.05019392	-0.06725442	2.66419	-3.570714
24.68004	-0.3968032	-0.3042158	0.08457635	-0.1116482	0.5951238	-0.768409
24.69661	-0.3807086	-0.3241311	0.9713616	-1.201949	15.34881	-18.87133
24.71317	-0.3483682	-0.2817504	1.952073	2.558104	29.59621	113.4721
24.72974	-0.3055861	-0.234079	2.582628	2.877784	19.0313	9.648531
24.74631	-0.2261337	-0.1362914	4.79465	5.901109	66.75512	91.23888
24.76287	-0.1637942	-0.04339323	3.76369	5.608637	-31.11444	-8.826834
24.77951	-0.1149004	0.03850385	2.939054	4.922914	-24.83894	-20.65473
24.79601	-0.08434177	0.09962107	1.852198	3.704396	-32.80138	-36.77495
24.8293	-0.0660066	0.1448478	0.5506938	1.358378	-26.13817	-47.11519
24.84587	-0.07456302	0.205965	-0.5164664	3.689043	-21.40231	46.74239
24.86244	-0.07823005	0.2096321	-0.2212912	0.2212921	8.90738	-104.6449
24.87901	-0.07823005	0.2120768	0	0.1475954	6.678582	-2.22417
24.89557	-0.08067473	0.2157438	-0.1475614	0.2213431	-4.453926	2.225964
24.91214	-0.08067473	0.2157438	0	0	4.453413	-6.680147
24.92871	-0.08067473	0.2157438	0	0	0	0
24.94527	-0.08067473	0.2157438	0	0	0	0
24.98547	-0.08067473	0.2157438	0	0	0	0
25.00204	-0.06722895	0.2401907	0.8115889	1.475617	14.29841	25.99712
25.0186	-0.05989487	0.2487471	0.4426857	0.5164642	-11.13352	-28.94729
25.03517	-0.04278206	0.2670823	1.032932	1.106714	17.81366	17.81379
25.05173	-0.02689158	0.2805281	0.9592615	0.8116832	-2.223497	-8.904573
25.0683	-0.01344579	0.2890845	0.8115895	0.5164651	-4.457008	-8.910215
25.08487	-0.003667034	0.2939739	0.5902469	0.2951247	-6.680132	-6.680065
25.10176	0	0.2951962	0.2171427	0.07238077	-11.15246	-6.658037
25.118	0.001222344	0.2951962	0.07524487	0	-4.282732	-2.184582
25.13481	0.004889378	0.2707493	0.2182025	-1.454682	4.325424	-44.01387
25.15114	0.006111722	0.2536365	0.07485812	-1.048016	-4.326141	12.27321
25.16804	0.007334067	0.2108544	0.0723319	-2.531617	-0.07602714	-44.64923
25.18427	0.007334067	0.1729618	0	-2.333411	-2.18273	5.981172
25.20091	0.007334067	0.1485149	-2.799778E-08	-1.469864	-8.517407E-07	26.27058
25.21741	0.004889378	0.1289573	-0.1481416	-1.185132	-4.470921	8.593232
25.23401	0.002444689	0.1155116	-0.1472735	-0.8100045	0.02622488	11.33247
25.25054	0	0.1045105	-0.1478852	-0.6654831	-0.01846395	4.362165
25.28293	-0.002444689	0.0947317	-0.07547528	-0.3019012	1.480122	7.431932
25.29951	-0.0110011	0.0727295	-0.5159314	-1.326681	-8.993491	-20.92455
25.31607	-0.01222345	0.07028481	-0.07383189	-0.1476634	13.34029	35.57666
25.33279	-0.01344579	0.06661777	-0.07310744	-0.2193231	0.0217712	-2.153518
25.3492	-0.01466813	0.06539543	-0.07449272	-0.07449254	-0.0418148	4.371748
25.36576	-0.01466813	0.06417309	5.622121E-08	-0.07378922	2.25912	0.0213296
25.38233	-0.01589048	0.06295075	-0.07377234	-0.07377223	-2.226455	0.0005126785
25.3989	-0.01711282	0.06050605	-0.07378083	-0.1475621	-0.0002563245	-2.226856
25.41547	-0.01711282	0.05928371	-1.124036E-07	-0.07376351	2.22645	2.22699
25.44887	-0.01711282	0.05928371	0	0	2.249651E-06	1.476306
25.46646	-0.01711282	0.05928371	0	0	0	0
25.48337	-0.01711282	0.05928371	0	0	0	0
25.49988	-0.01711282	0.05928371	0	0	0	0
25.51617	-0.01711282	0.05928371	0	0	0	0
25.53273	-0.01711282	0.05928371	0	0	0	0
25.5493	-0.01711282	0.05928371	0	0	0	0
25.56587	-0.01711282	0.05928371	0	0	0	0
25.58244	-0.01711282	0.05928371	0	0	0	0
25.60578	-0.01711282	0.05928371	0	0	0	0
25.62302	-0.01711282	0.05928371	0	0	0	0
25.63892	-0.01711282	0.05928371	0	0	0	0
25.65549	-0.01711282	0.05928371	0	0	0	0
25.67205	-0.01711282	0.05928371	0	0	0	0
25.68862	-0.01711282	0.05928371	0	0	0	0
25.70518	-0.01711282	0.05928371	0	0	0	0
25.72175	-0.01711282	0.05928371	0	0	0	0
25.73832	-0.01711282	0.05928371	0	0	0	0
25.75797	-0.01711282	0.05928371	0	0	0	0
25.77472	-0.01711282	0.05928371	0	0	0	0
25.79111	-0.01711282	0.05928371	0	0	0	0
25.80784	-0.01711282	0.05928371	0	0	0	0
25.82424	-0.01711282	0.05928371	0	0	0	0
25.84081	-0.01711282	0.05928371	0	0	0	0
25.85737	-0.01711282	0.05928371	0	0	0	0
25.87394	-0.01711282	0.05928371	0	0	0	0
25.89149	-0.01711282	0.05928371	0	0	0	0
25.92354	-0.01711282	0.05928371	0	0	0	0
25.94011	-0.01711282	0.05928371	0	0	0	0
25.95668	-0.01711282	0.05928371	0	0	0	0
25.97343	-0.01711282	0.05928371	0	0	0	0
25.99066	-0.01711282	0.05928371	0	0	0	0
26.00638	-0.01711282	0.05928371	0	0	0	0
26.02295	-0.01711282	0.05928371	0	0	0	0
26.03951	-0.01711282	0.05928371	0	0	0	0
26.05608	-0.01711282	0.05928371	0	0	0	0
26.07547	-0.01711282	0.05928371	0	0	0	0
26.09204	-0.01711282	0.05928371	0	0	0	0
26.10913	-0.01711282	0.05928371	0	0	0	0
26.12561	-0.01711282	0.05928371	0	0	0	0
26.14175	-0.01711282	0.05928371	0	0	0	0
26.15831	-0.01711282	0.05928371	0	0	0	0
26.17488	-0.01711282	0.05928371	0	0	0	0
26.19207	-0.01711282	0.05928371	0	0	0	0
26.20864	-0.01711282	0.05928371	0	0	0	0
26.22651	-0.01711282	0.05928371	0	0	0	0
26.24307	-0.01711282	0.05928371	0	0	0	0
26.25964	-0.01711282	0.05928371	0	0	0	0
26.27621	-0.01711282	0.05928371	0	0	0	0
26.29278	-0.01711282	0.05928371	0	0	0	0
26.30935	-0.01711282	0.05928371	0	0	0	0
26.32591	-0.01711282	0.05928371	0	0	0	0
26.3425	-0.01711282	0.05928371	0	0	0	0
26.35905	-0.01711282	0.05928371	0	0	0	0
26.39323	-0.01711282	0.05928371	0	0	0	0
26.41035	-0.01711282	0.05928371	0	0	0	0
26.42691	-0.01711282	0.05928371	0	0	0	0
26.44348	-0.01711282	0.05928371	0	0	0	0
26.46005	-0.01711282	0.05928371	0	0	0	0
26.47679	-0.01711282	0.05928371	0	0	0	0
26.49318	-0.01711282	0.05928371	0	0	0	0
26.50978	-0.01711282	0.05928371	0	0	0	0
26.54837	-0.01711282	0.05928371	0	0	0	0
26.56494	-0.01711282	0.05928371	0	0	0	0
26.58151	-0.01711282	0.05928371	0	0	0	0
26.59808	-0.01711282	0.05928371	0	0	0	0
26.61477	-0.01711282	0.05928371	0	0	0	0
26.63121	-0.01711282	0.05928371	0	0	0	0
26.64778	-0.01711282	0.05928371	0	0	0	0
26.66434	-0.01711282	0.05928371	0	0	0	0
26.72182	-0.01711282	0.05928371	0	0	0	0
26.7384	-0.01711282	0.05928371	0	0	0	0
26.75495	-0.01711282	0.05928371	0	0	0	0
26.77152	-0.01711282	0.05928371	0	0	0	0
26.78809	-0.01711282	0.05928371	0	0	0	0
26.80465	-0.01711282	0.05928371	0	0	0	0
26.82122	-0.01711282	0.05928371	0	0	0	0
26.83779	-0.01711282	0.05928371	0	0	0	0
26.85435	-0.01711282	0.05928371	0	0	0	0
26.87092	-0.01711282	0.05928371	0	0	0	0
26.88792	-0.01711282	0.05928371	0	0	0	0
26.90406	-0.01711282	0.05928371	0	0	0	0
26.9213	-0.01711282	0.05928371	0	0	0	0
26.93719	-0.01711282	0.05928371	0	0	0	0
26.95376	-0.01711282	0.05928371	0	0	0	0
26.97033	-0.01711282	0.05928371	0	0	0	0
27.00268	-0.01711282	0.05928371	0	0	0	0
27.01935	-0.01711282	0.05928371	0	0	0	0
27.03582	-0.01711282	0.05928371	0	0	0	0
27.05239	-0.01711282	0.05928371	0	0	0	0
27.06895	-0.01711282	0.05928371	0	0	0	0
27.08552	-0.01711282	0.05928371	0	0	0	0
27.10209	-0.01711282	0.05928371	0	0	0	0
27.11865	-0.01711282	0.05928371	0	0	0	0
27.13522	-0.01711282	0.05928371	0	0	0	0
27.16728	-0.01711282	0.05928371	0	0	0	0
27.18385	-0.01711282	0.05928371	0	0	0	0
27.20044	-0.01711282	0.05928371	0	0	0	0
27.2174	-0.01711282	0.05928371	0	0	0	0
27.23355	-0.01711282	0.05928371	0	0	0	0
27.25051	-0.01711282	0.05928371	0	0	0	0
27.26697	-0.01711282	0.05928371	0	0	0	0
27.28325	-0.01711282	0.05928371	0	0	0	0
27.29982	-0.01711282	0.05928371	0	0	0	0
27.31638	-0.01711282	0.05928371	0	0	0	0
27.33295	-0.01711282	0.05928371	0	0	0	0
27.34951	-0.01711282	0.05928371	0	0	0	0
27.40541	-0.01711282	0.05928371	0	0	0	0
27.42198	-0.01711282	0.05928371	0	0	0	0
27.43854	-0.01711282	0.05928371	0	0	0	0
27.45511	-0.01711282	0.05928371	0	0	0	0
27.49192	-0.01711282	0.05928371	0	0	0	0
27.50849	-0.01711282	0.05928371	0	0	0	0
27.52506	-0.01711282	0.05928371	0	0	0	0
27.54163	-0.01711282	0.05928371	0	0	0	0
27.56978	-0.01711282	0.05928371	0	0	0	0
27.58659	-0.01711282	0.05928371	0	0	0	0
27.60292	-0.01711282	0.05928371	0	0	0	0
27.61977	-0.01711282	0.05928371	0	0	0	0
27.6612	-0.01711282	0.05928371	0	0	0	0
27.6778	-0.01711282	0.05928371	0	0	0	0
27.69472	-0.01711282	0.05928371	0	0	0	0
27.71091	-0.01711282	0.05928371	0	0	0	0
27.72764	-0.01711282	0.05928371	0	0	0	0
27.74433	-0.01711282	0.05928371	0	0	0	0
27.76061	-0.01711282	0.05928371	0	0	0	0
27.77736	-0.01711282	0.05928371	0	0	0	0
27.81458	-0.01711282	0.05928371	0	0	0	0
27.83115	-0.01711282	0.05928371	0	0	0	0
27.84771	-0.01711282	0.05928371	0	0	0	0
27.86428	-0.01711282	0.05928371	0	0	0	0
27.88085	-0.01711282	0.05928371	0	0	0	0
27.89761	-0.01711282	0.05928371	0	0	0	0
27.91398	-0.01711282	0.05928371	0	0	0	0
27.93056	-0.01711282	0.05928371	0	0	0	0
27.94711	-0.01711282	0.05928371	0	0	0	0
27.97929	-0.01711282	0.05928371	0	0	0	0
27.99586	-0.01711282	0.05928371	0	0	0	0
28.01245	-0.01711282	0.05928371	0	0	0	0
28.02908	-0.01711282	0.05928371	0	0	0	0
28.04556	-0.01711282	0.05928371	0	0	0	0
28.06213	-0.01711282	0.05928371	0	0	0	0
28.0788	-0.01711282	0.05928371	0	0	0	0
28.09526	-0.01711282	0.05928371	0	0	0	0
28.1291	-0.01711282	0.05928371	0	0	0	0
28.14567	-0.01711282	0.05928371	0	0	0	0
28.16224	-0.01711282	0.05928371	0	0	0	0
28.1788	-0.01711282	0.05928371	0	0	0	0
28.19537	-0.01711282	0.05928371	0	0	0	0
28.21194	-0.01711282	0.05928371	0	0	0	0
28.22862	-0.01711282	0.05928371	0	0	0	0
28.24507	-0.01711282	0.05928371	0	0	0	0
28.2815	-0.01711282	0.05928371	0	0	0	0
28.29807	-0.01711282	0.05928371	0	0	0	0
28.31464	-0.01711282	0.05928371	0	0	0	0
28.3312	-0.01711282	0.05928371	0	0	0	0
28.3486	-0.01711282	0.05928371	0	0	0	0
28.36453	-0.01711282	0.05928371	0	0	0	0
28.38091	-0.01711282	0.05928371	0	0	0	0
28.39792	-0.01711282	0.05928371	0	0	0	0
28.43184	-0.01711282	0.05928371	0	0	0	0
28.44849	-0.01711282	0.05928371	0	0	0	0
28.46498	-0.01711282	0.05928371	0	0	0	0
28.48155	-0.01711282	0.05928371	0	0	0	0
28.49854	-0.01711282	0.05928371	0	0	0	0
28.51469	-0.01711282	0.05928371	0	0	0	0
28.53125	-0.01711282	0.05928371	0	0	0	0
28.54782	-0.01711282	0.05928371	0	0	0	0
28.58424	-0.01711282	0.05928371	0	0	0	0
28.60081	-0.01711282	0.05928371	0	0	0	0
28.61737	-0.01711282	0.05928371	0	0	0	0
28.63394	-0.01711282	0.05928371	0	0	0	0
28.65051	-0.01711282	0.05928371	0	0	0	0
28.66708	-0.01711282	0.05928371	0	0	0	0
28.68364	-0.01711282	0.05928371	0	0	0	0
28.70085	-0.01711282	0.05928371	0	0	0	0
28.73572	-0.01711282	0.05928371	0	0	0	0
28.75229	-0.01711282	0.05928371	0	0	0	0
28.76886	-0.01711282	0.05928371	0	0	0	0
28.78542	-0.01711282	0.05928371	0	0	0	0
28.80199	-0.01711282	0.05928371	0	0	0	0
28.81856	-0.01711282	0.05928371	0	0	0	0
28.83527	-0.01711282	0.05928371	0	0	0	0
28.85173	-0.01711282	0.05928371	0	0	0	0
28.88585	-0.01711282	0.05928371	0	0	0	0
28.90242	-0.01711282	0.05928371	0	0	0	0
28.91899	-0.01711282	0.05928371	0	0	0	0
28.93555	-0.01711282	0.05928371	0	0	0	0
28.95212	-0.01711282	0.05928371	0	0	0	0
28.96869	-0.01711282	0.05928371	0	0	0	0
28.98525	-0.01711282	0.05928371	0	0	0	0
29.00182	-0.01711282	0.05928371	0	0	0	0
29.01839	-0.01711282	0.05928371	0	0	0	0
29.05009	-0.01711282	0.05928371	0	0	0	0
29.06671	-0.01711282	0.05928371	0	0	0	0
29.08323	-0.01711282	0.05928371	0	0	0	0
29.0998	-0.01711282	0.05928371	0	0	0	0
29.11636	-0.01711282	0.05928371	0	0	0	0
29.13293	-0.01711282	0.05928371	0	0	0	0
29.1495	-0.01711282	0.05928371	0	0	0	0
29.16606	-0.01711282	0.05928371	0	0	0	0
29.18263	-0.01711282	0.05928371	0	0	0	0
29.21993	-0.01711282	0.05928371	0	0	0	0
29.23673	-0.01711282	0.05928371	0	0	0	0
29.25306	-0.01711282	0.05928371	0	0	0	0
29.26963	-0.01711282	0.05928371	0	0	0	0
29.2862	-0.01711282	0.05928371	0	0	0	0
29.30285	-0.01711282	0.05928371	0	0	0	0
29.31933	-0.01711282	0.05928371	0	0	0	0
29.3359	-0.01711282	0.05928371	0	0	0	0
29.38565	-0.01711282	0.05928371	0	0	0	0
29.40222	-0.01711282	0.05928371	0	0	0	0
29.41964	-0.01711282	0.05928371	0	0	0	0
29.43536	-0.01711282	0.05928371	0	0	0	0
29.45193	-0.01711282	0.05928371	0	0	0	0
29.46849	-0.01711282	0.05928371	0	0	0	0
29.49964	-0.01711282	0.05928371	0	0	0	0
29.53905	-0.01711282	0.05928371	0	0	0	0
29.5565	-0.01711282	0.05928371	0	0	0	0
29.57219	-0.01711282	0.05928371	0	0	0	0
29.58875	-0.01711282	0.05928371	0	0	0	0
29.60532	-0.01711282	0.05928371	0	0	0	0
29.62189	-0.01711282	0.05928371	0	0	0	0
29.63904	-0.01711282	0.05928371	0	0	0	0
29.65522	-0.01711282	0.05928371	0	0	0	0
29.67159	-0.01711282	0.05928371	0	0	0	0
29.70344	-0.01711282	0.05928371	0	0	0	0
29.72001	-0.01711282	0.05928371	0	0	0	0
29.73987	-0.01711282	0.05928371	0	0	0	0
29.75644	-0.01711282	0.05928371	0	0	0	0
29.773	-0.01711282	0.05928371	0	0	0	0
29.78958	-0.01711282	0.05928371	0	0	0	0
29.80614	-0.01711282	0.05928371	0	0	0	0
29.82301	-0.01711282	0.05928371	0	0	0	0
29.83927	-0.01711282	0.05928371	0	0	0	0
29.87755	-0.01711282	0.05928371	0	0	0	0
29.89473	-0.0220022	0.06661777	-0.2845107	0.4267658	-5.130195	7.695288
29.9107	-0.02444689	0.0727295	-0.1530781	0.3826949	3.964135	-1.329221
29.92768	-0.02933627	0.08128591	-0.2878977	0.5038211	-4.091239	3.675697
29.94382	-0.03422565	0.09228701	-0.3031149	0.6820085	-0.4595447	5.381113
29.9609	-0.03667034	0.1032881	-0.1430813	0.6438654	4.817896	-1.148319
29.97739	-0.03789268	0.1167339	-0.07412184	0.8153436	2.053774	5.107019
29.99356	-0.03789268	0.1436255	0	1.663787	2.269929	25.98298
30.0314	-0.03422565	0.1656277	0.09689447	0.5813678	1.79406	-20.04165
30.04833	-0.007334067	0.2108544	1.588075	2.670852	27.22173	38.14386
30.06454	-0.004889378	0.2157438	0.1508262	0.3016528	-43.36628	-71.48613
30.08156	0.001222345	0.2243002	0.3591865	0.5028619	6.271358	6.056118
30.09771	0.006111722	0.2304119	0.3027568	0.3784454	-1.701483	-3.751444
30.11426	0.01466813	0.2401907	0.5168231	0.5906556	6.545305	6.488558
30.13113	0.02077986	0.2487471	0.3624367	0.5074104	-4.619764	-2.49098
30.14738	0.03055861	0.2646376	0.601747	0.9778398	7.226975	14.20658
30.19919	0.04278206	0.2890845	0.2359314	0.4718632	-5.374906	-7.434282
30.21576	0.05622785	0.3453123	0.8114961	3.393526	8.417341	42.72784
30.23232	0.05622784	0.3502017	-2.248331E-07	0.2950889	-24.48819	-93.50026
30.24889	0.05745019	0.3636475	0.07377245	0.8114982	2.226207	15.58347
30.26552	0.05745019	0.3770933	0	0.8087035	-2.222363	-0.08418682
30.28209	0.05622785	0.3905391	-0.07376374	0.8114029	-2.221973	0.08131284
30.29872	0.05133847	0.4100966	-0.2941078	1.17643	-6.637769	10.99629
30.31538	0.04889378	0.4137636	-0.1467003	0.2200501	4.428119	-28.72965
30.35204	0.04644909	0.4198754	-0.06669376	0.166735	1.5005	-0.9999108
30.36898	0.04278206	0.4247647	-0.2164095	0.2885437	-2.793188	2.272537
30.38517	0.04278206	0.4259871	0	0.07549476	6.530876	-6.429459
30.40174	0.04278206	0.4272094	0	0.07378072	0	-0.05232305
30.41831	0.04278206	0.4296541	0	0.1475427	0	2.226012
30.43487	0.04155971	0.4320988	-0.07379794	0.147599	-2.227355	0.001700931
30.45144	0.04033737	0.4333211	-0.07377223	0.07377043	0.000776033	-2.22828
30.46801	0.04033737	0.4345435	0	0.07378253	2.226322	0.0003649251
30.50132	0.04033737	0.4345435	0	0	0	-1.479115
30.51789	0.04033737	0.4345435	0	0	0	0
30.53446	0.04033737	0.4345435	0	0	0	0
30.55103	0.04033737	0.4345435	0	0	0	0
30.56759	0.04033737	0.4345435	0	0	0	0
30.58416	0.03911502	0.4333211	-0.07378945	-0.07378922	-2.227098	-2.227091
30.60073	0.03422565	0.4125413	-0.2951233	-1.254276	-6.680254	-35.62921
30.61729	0.02811392	0.3795379	-0.3689044	-1.992085	-2.226717	-22.26712
30.63408	0.01711282	0.3245325	-0.6554255	-3.277125	-8.590848	-38.52975
30.68176	0.0110011	0.2316343	-0.1281721	-1.948216	8.17848	20.61335
30.69833	0.01344579	0.0006111723	0.1475447	-13.94298	4.291122	-186.6806
30.7149	0.0110011	-0.02750275	-0.1475278	-1.696569	-8.903768	369.5335
30.73147	0.007334067	-0.07395184	-0.2213681	-2.803995	-2.228377	-33.42027
30.74803	0.003667033	-0.1093998	-0.2213426	-2.139645	0.0007677127	20.05128
30.76479	0	-0.1460702	-0.2188482	-2.188482	0.07485485	-1.465557
30.78125	-0.003667034	-0.1778511	-0.2227531	-1.930527	-0.1175508	7.765449
30.79774	-0.009778756	-0.2243002	-0.3707826	-2.817948	-4.493145	-26.93592
30.84122	-0.01344579	-0.2475248	-0.08432377	-0.5340502	4.776633	38.08345
30.85779	-0.03178096	-0.2964185	-1.106586	-2.950896	-17.02161	-40.24274
30.87436	-0.03667033	-0.3061973	-0.2951233	-0.5902476	24.48857	71.24039
30.89093	-0.04644909	-0.3318665	-0.5902469	-1.549397	-8.906847	-28.94719
30.90749	-0.05745019	-0.3624251	-0.6641043	-1.844734	-2.22915	-8.913804
30.92406	-0.0660066	-0.3917614	-0.5163469	-1.770332	4.459073	2.245341
30.94063	-0.07334067	-0.4174306	-0.4427362	-1.549577	2.221446	6.661997
30.95719	-0.0770077	-0.4369881	-0.2213681	-1.180629	6.681672	11.13615
30.98751	-0.07945239	-0.4467669	-0.08063152	-0.3225271	3.00177	18.30246
31.00408	-0.08067474	-0.4479893	-0.07376419	-0.07376374	0.1464555	5.305224
31.02065	-0.08067474	-0.4479893	0	0	2.225951	2.225938
31.03722	-0.08067474	-0.4479893	0	0	0	0
31.05379	-0.08067474	-0.4479893	0	0	0	0
31.07035	-0.07823005	-0.4479892	0.1475789	1.799079E-06	4.454196	5.429943E-05
31.08713	-0.0660066	-0.4406552	0.728499	0.4370968	17.42189	13.10855
31.10365	-0.05011612	-0.4308764	0.9615867	0.5917464	6.998745	4.643544
31.12005	-0.03055861	-0.4174306	1.192853	0.8200871	7.024931	6.936053
31.14026	-0.006111722	-0.4052072	1.209627	0.604814	0.4582313	-5.880841
31.15683	0.02811392	-0.3856497	2.065864	1.180493	23.28154	15.65303
31.1734	0.0330033	-0.3819827	0.2950896	0.2213167	-53.439	-28.94634
31.19024	0.04522675	-0.3770933	0.725694	0.2902772	12.88736	2.063885
31.20653	0.05622784	-0.3709815	0.6753796	0.3752122	-1.518578	2.563493
31.2231	0.0660066	-0.3636475	0.5902472	0.4426844	-2.59108	2.053572
31.24104	0.06845129	-0.3624251	0.1362371	0.06811856	-13.1553	-10.85334
31.26802	0.06967364	-0.3612028	0.04530029	0.04530002	-2.024075	-0.5078958
31.31885	0.06967364	-0.3612028	0	0	-0.5822033	-0.5821998
31.33542	0.06967364	-0.3612028	0	0	0	0
31.35198	0.06967364	-0.3612028	0	0	0	0
31.36855	0.06967364	-0.3612028	0	0	0	0
31.38512	0.06967364	-0.3612028	0	0	0	0
31.40169	0.06967364	-0.3612028	0	0	0	0
31.41909	0.06967364	-0.3612028	0	0	0	0
31.43482	0.06967364	-0.3612028	0	0	0	0
31.49266	0.06967364	-0.3612028	0	0	0	0
31.50922	0.06967364	-0.3612028	0	0	0	0
31.52579	0.06967364	-0.3612028	0	0	0	0
31.54236	0.06967364	-0.3612028	0	0	0	0
31.55893	0.06967364	-0.3612028	0	0	0	0
31.57549	0.06967364	-0.3612028	0	0	0	0
31.59206	0.06967364	-0.3612028	0	0	0	0
31.60863	0.06967364	-0.3612028	0	0	0	0
31.6252	0.06967364	-0.3612028	0	0	0	0
31.64177	0.06967364	-0.3612028	0	0	0	0
31.65833	0.06967364	-0.3612028	0	0	0	0
31.6749	0.06967364	-0.3612028	0	0	0	0
31.69146	0.06967364	-0.3612028	0	0	0	0
31.70803	0.06967364	-0.3612028	0	0	0	0
31.7246	0.06967364	-0.3612028	0	0	0	0
31.74117	0.06967364	-0.3612028	0	0	0	0
31.75797	0.06967364	-0.3612028	0	0	0	0
31.79295	0.06967364	-0.3612028	0	0	0	0
31.80952	0.06967364	-0.3612028	0	0	0	0
31.82609	0.06967364	-0.3612028	0	0	0	0
31.84265	0.06967364	-0.3612028	0	0	0	0
31.85925	0.06967364	-0.3612028	0	0	0	0
31.87579	0.06967364	-0.3612028	0	0	0	0
31.89235	0.06967364	-0.3612028	0	0	0	0
31.90892	0.06967364	-0.3612028	0	0	0	0
31.92549	0.06967364	-0.3612028	0	0	0	0
31.98446	0.06967364	-0.3612028	0	0	0	0
32.00103	0.05622784	-0.3318665	-0.8114961	1.770537	-10.7428	23.43883
32.01777	0.05622784	-0.3318665	0	0	24.36617	-53.16256
32.03416	0.04767144	-0.3135314	-0.5218731	1.1183	-15.75198	33.75425
32.05073	0.03667033	-0.2890845	-0.6640279	1.475618	-4.312582	10.84004
32.0673	0.02689158	-0.2609706	-0.5902469	1.696958	2.226714	6.680063
32.08406	0.01589048	-0.2304119	-0.6560218	1.822284	-1.973052	3.759405
32.11766	0.002444689	-0.1961863	-0.4001741	1.018625	5.079443	-15.95536
32.13423	-0.01589048	-0.1167339	-1.106713	4.795756	-14.08372	75.29103
32.1508	-0.01711282	-0.1081775	-0.07378072	0.516466	31.17395	-129.1492
32.16763	-0.01955751	-0.09228701	-0.145287	0.9443645	-2.141299	12.81369
32.18393	-0.0220022	-0.08250826	-0.149909	0.5996354	-0.1394922	-10.40394
32.2005	-0.02322454	-0.07395184	-0.07379772	0.5165854	2.315436	-2.526526
32.21706	-0.02444689	-0.06661777	-0.07378095	0.4426852	0.0005062158	-2.230566
32.23377	-0.02444689	-0.0617284	-1.115052E-07	0.2926969	2.217519	-4.507974
32.2679	-0.02566924	-0.05683902	-0.03581426	0.143257	-0.7045223	-2.939724
32.28447	-0.02689158	-0.0507273	-0.07378083	0.3689043	-0.7488871	4.450871
32.30103	-0.02689158	-0.0507273	0	0	2.22671	-11.13355
32.3176	-0.02811392	-0.0482826	-0.07378083	0.1475621	-2.22671	4.453434
32.33418	-0.02933627	-0.04583792	-0.07373013	0.1474598	0.001529637	-0.003086697
32.35073	-0.03055862	-0.04339323	-0.07383184	0.1476634	-0.00306955	0.006145396
32.36731	-0.03055861	-0.04094854	2.248072E-07	0.1475279	2.228769	-0.004090677
32.38391	-0.03055861	-0.04094854	0	0	-6.776893E-06	-4.447282
32.40043	-0.03055861	-0.04094854	0	0	0	0
32.43319	-0.03055861	-0.04094854	0	0	0	0
32.45019	-0.03055861	-0.04094854	0	0	0	0
32.46632	-0.03055861	-0.04094854	0	0	0	0
32.48289	-0.03055861	-0.04094854	0	0	0	0
32.49945	-0.03055861	-0.04094854	0	0	0	0
32.51602	-0.03055861	-0.04094854	0	0	0	0
32.53259	-0.03055861	-0.04094854	0	0	0	0
32.54915	-0.03055861	-0.04094854	0	0	0	0
32.56572	-0.03055861	-0.04094854	0	0	0	0
32.60044	-0.03055861	-0.04094854	0	0	0	0
32.61701	-0.03055861	-0.04094854	0	0	0	0
32.6337	-0.03055861	-0.04094854	0	0	0	0
32.65014	-0.03055861	-0.04094854	0	0	0	0
32.66699	-0.03055861	-0.04094854	0	0	0	0
32.68367	-0.03055861	-0.04094854	0	0	0	0
32.71062	-0.03055861	-0.04094854	0	0	0	0
32.73501	-0.03055861	-0.04094854	0	0	0	0
32.75158	-0.03055861	-0.04094854	0	0	0	0
32.7686	-0.03055861	-0.04094854	0	0	0	0
32.78514	-0.03055861	-0.04094854	0	0	0	0
32.80146	-0.03055861	-0.04094854	0	0	0	0
32.81785	-0.03055861	-0.04094854	0	0	0	0
32.83442	-0.03055861	-0.04094854	0	0	0	0
32.8511	-0.03055861	-0.04094854	0	0	0	0
32.86755	-0.03055861	-0.04094854	0	0	0	0
32.88451	-0.03055861	-0.04094854	0	0	0	0
32.90742	-0.03055861	-0.04094854	0	0	0	0
32.92398	-0.03055861	-0.04094854	0	0	0	0
32.94055	-0.03055861	-0.04094854	0	0	0	0
32.95712	-0.03055861	-0.04094854	0	0	0	0
32.97369	-0.03055861	-0.04094854	0	0	0	0
32.99026	-0.03055861	-0.04094854	0	0	0	0
33.00682	-0.03055861	-0.04094854	0	0	0	0
33.02339	-0.03055861	-0.04094854	0	0	0	0
33.03996	-0.03055861	-0.04094854	0	0	0	0
33.08014	-0.03055861	-0.04094854	0	0	0	0
33.0972	-0.03055861	-0.04094854	0	0	0	0
33.11327	-0.03055861	-0.04094854	0	0	0	0
33.12989	-0.03055861	-0.04094854	0	0	0	0
33.14641	-0.03055861	-0.04094854	0	0	0	0
33.16297	-0.03055861	-0.04094854	0	0	0	0
33.17987	-0.03055861	-0.04094854	0	0	0	0
33.19611	-0.03055861	-0.04094854	0	0	0	0
33.23262	-0.03055861	-0.04094854	0	0	0	0
33.24918	-0.03055861	-0.04094854	0	0	0	0
33.26575	-0.03055861	-0.04094854	0	0	0	0
33.28251	-0.03055861	-0.04094854	0	0	0	0
33.29889	-0.03055861	-0.04094854	0	0	0	0
33.31545	-0.03178096	-0.04094854	-0.07378095	0	-2.239865	0
33.3327	-0.03178096	-0.04094854	0	0	2.181998	0
33.34859	-0.03178096	-0.04094854	0	0	0	0
33.38895	-0.03178096	-0.04094854	0	0	0	0
33.40552	-0.03178096	-0.04094854	0	0	0	0
33.42305	-0.03178096	-0.04094854	0	0	0	0
33.43962	-0.03178096	-0.04094854	0	0	0	0
33.45619	-0.03178096	-0.04094854	0	0	0	0
33.47276	-0.03178096	-0.04094854	0	0	0	0
33.48932	-0.03178096	-0.04094854	0	0	0	0
33.50589	-0.03178096	-0.04094854	0	0	0	0
33.54254	-0.03178096	-0.04094854	0	0	0	0
33.55911	-0.03178096	-0.04094854	0	0	0	0
33.57576	-0.03178096	-0.04094854	0	0	0	0
33.59225	-0.03178096	-0.04094854	0	0	0	0
33.60881	-0.03178096	-0.04094854	0	0	0	0
33.62565	-0.03178096	-0.04094854	0	0	0	0
33.64195	-0.03178096	-0.04094854	0	0	0	0
33.65852	-0.03178096	-0.04094854	0	0	0	0
33.69238	-0.03178096	-0.04094854	0	0	0	0
33.70895	-0.03178096	-0.04094854	0	0	0	0
33.72552	-0.03178096	-0.04094854	0	0	0	0
33.74209	-0.03178096	-0.04094854	0	0	0	0
33.75865	-0.03178096	-0.04094854	0	0	0	0
33.77522	-0.03178096	-0.04094854	0	0	0	0
33.79179	-0.03178096	-0.04094854	0	0	0	0
33.80843	-0.03178096	-0.04094854	0	0	0	0
33.82492	-0.03178096	-0.04094854	0	0	0	0
33.85313	-0.03178096	-0.04094854	0	0	0	0
33.86972	-0.03178096	-0.04094854	0	0	0	0
33.88627	-0.03178096	-0.04094854	0	0	0	0
33.90284	-0.03178096	-0.04094854	0	0	0	0
33.9194	-0.03178096	-0.04094854	0	0	0	0
33.93597	-0.03178096	-0.04094854	0	0	0	0
33.95254	-0.03178096	-0.04094854	0	0	0	0
33.9691	-0.03178096	-0.04094854	0	0	0	0
33.98567	-0.03178096	-0.04094854	0	0	0	0
34.01671	-0.03178096	-0.04094854	0	0	0	0
34.03328	-0.03178096	-0.04094854	0	0	0	0
34.04985	-0.03178096	-0.04094854	0	0	0	0
34.06641	-0.03178096	-0.04094854	0	0	0	0
34.083	-0.03178096	-0.04094854	0	0	0	0
34.09955	-0.03178096	-0.04094854	0	0	0	0
34.11639	-0.03178096	-0.04094854	0	0	0	0
34.13268	-0.03178096	-0.04094854	0	0	0	0
34.14925	-0.03178096	-0.04094854	0	0	0	0
34.1986	-0.03178096	-0.04094854	0	0	0	0
34.21517	-0.03178096	-0.04094854	0	0	0	0
34.23232	-0.03178096	-0.04094854	0	0	0	0
34.2483	-0.03178096	-0.04094854	0	0	0	0
34.26487	-0.03178096	-0.04094854	0	0	0	0
34.28144	-0.03178096	-0.04094854	0	0	0	0
34.29806	-0.03178096	-0.04094854	0	0	0	0
34.31458	-0.03178096	-0.04094854	0	0	0	0
34.34751	-0.03178096	-0.04094854	0	0	0	0
34.36408	-0.03178096	-0.04094854	0	0	0	0
34.38065	-0.03178096	-0.04094854	0	0	0	0
34.39722	-0.03178096	-0.04094854	0	0	0	0
34.41402	-0.03178096	-0.04094854	0	0	0	0
34.43035	-0.03178096	-0.04094854	0	0	0	0
34.44692	-0.03178096	-0.04094854	0	0	0	0
34.46348	-0.03178096	-0.04094854	0	0	0	0
34.48041	-0.03178096	-0.04094854	0	0	0	0
34.50161	-0.03178096	-0.04094854	0	0	0	0
34.51818	-0.03178096	-0.04094854	0	0	0	0
34.53505	-0.03178096	-0.04094854	0	0	0	0
34.55171	-0.03178096	-0.04094854	0	0	0	0
34.56788	-0.03178096	-0.04094854	0	0	0	0
34.58445	-0.03178096	-0.04094854	0	0	0	0
34.60102	-0.03178096	-0.04094854	0	0	0	0
34.61758	-0.03178096	-0.04094854	0	0	0	0
34.63446	-0.03178096	-0.04094854	0	0	0	0
34.65569	-0.03178096	-0.04094854	0	0	0	0
34.67226	-0.03178096	-0.04094854	0	0	0	0
34.68897	-0.03178096	-0.04094854	0	0	0	0
34.70539	-0.03178096	-0.04094854	0	0	0	0
34.72196	-0.03178096	-0.04094854	0	0	0	0
34.73853	-0.03178096	-0.04094854	0	0	0	0
34.75513	-0.03178096	-0.04094854	0	0	0	0
34.77169	-0.03178096	-0.04094854	0	0	0	0
34.78823	-0.03178096	-0.04094854	0	0	0	0
34.82029	-0.03178096	-0.04094854	0	0	0	0
34.83686	-0.03178096	-0.04094854	0	0	0	0
34.85343	-0.03178096	-0.04094854	0	0	0	0
34.87	-0.03178096	-0.04094854	0	0	0	0
34.88656	-0.03178096	-0.04094854	0	0	0	0
34.90313	-0.03178096	-0.04094854	0	0	0	0
34.9197	-0.03178096	-0.04094854	0	0	0	0
34.93663	-0.03178096	-0.04094854	0	0	0	0
34.95283	-0.03178096	-0.04094854	0	0	0	0
34.96939	-0.03178096	-0.04094854	0	0	0	0
34.98596	-0.03178096	-0.04094854	0	0	0	0
35.00268	-0.03178096	-0.04094854	0	0	0	0
35.0191	-0.03178096	-0.04094854	0	0	0	0
35.08613	-0.03178096	-0.04094854	0	0	0	0
35.10271	-0.03178096	-0.04094854	0	0	0	0
35.15947	-0.03178096	-0.04094854	0	0	0	0
35.17604	-0.03178096	-0.04094854	0	0	0	0
35.19261	-0.03178096	-0.04094854	0	0	0	0
35.20918	-0.03178096	-0.04094854	0	0	0	0
35.22575	-0.03178096	-0.04094854	0	0	0	0
35.24232	-0.03178096	-0.04094854	0	0	0	0
35.25888	-0.03178096	-0.04094854	0	0	0	0
35.31632	-0.03178096	-0.04094854	0	0	0	0
35.33318	-0.03178096	-0.04094854	0	0	0	0
35.34945	-0.03178096	-0.04094854	0	0	0	0
35.36602	-0.03178096	-0.04094854	0	0	0	0
35.38258	-0.03178096	-0.04094854	0	0	0	0
35.39915	-0.03178096	-0.04094854	0	0	0	0
35.41572	-0.03178096	-0.04094854	0	0	0	0
35.43237	-0.03178096	-0.04094854	0	0	0	0
35.44885	-0.03178096	-0.04094854	0	0	0	0
35.46542	-0.03178096	-0.04094854	0	0	0	0
35.48198	-0.03178096	-0.04094854	0	0	0	0
35.49855	-0.03178096	-0.04094854	0	0	0	0
35.51575	-0.03178096	-0.04094854	0	0	0	0
35.53168	-0.03178096	-0.04094854	0	0	0	0
35.54825	-0.03178096	-0.04094854	0	0	0	0
35.56482	-0.03178096	-0.04094854	0	0	0	0
35.60939	-0.03178096	-0.04094854	0	0	0	0
35.62596	-0.03178096	-0.04094854	0	0	0	0
35.64293	-0.03178096	-0.04094854	0	0	0	0
35.6591	-0.03178096	-0.04094854	0	0	0	0
35.6763	-0.03178096	-0.04094854	0	0	0	0
35.6923	-0.03178096	-0.04094854	0	0	0	0
35.70889	-0.03178096	-0.04094854	0	0	0	0
35.72539	-0.03178096	-0.04094854	0	0	0	0
35.74417	-0.03178096	-0.04094854	0	0	0	0
35.76074	-0.03178096	-0.04094854	0	0	0	0
35.77731	-0.03178096	-0.04094854	0	0	0	0
35.79388	-0.03178096	-0.04094854	0	0	0	0
35.81044	-0.03178096	-0.04094854	0	0	0	0
35.82728	-0.03178096	-0.04094854	0	0	0	0
35.84357	-0.03178096	-0.04094854	0	0	0	0
35.8608	-0.03178096	-0.04094854	0	0	0	0
35.87735	-0.03178096	-0.04094854	0	0	0	0
35.90983	-0.03178096	-0.04094854	0	0	0	0
35.9264	-0.03178096	-0.04094854	0	0	0	0
35.94297	-0.03178096	-0.04094854	0	0	0	0
35.95953	-0.03178096	-0.04094854	0	0	0	0
35.9761	-0.03178096	-0.04094854	0	0	0	0
35.99278	-0.03178096	-0.04094854	0	0	0	0
36.00927	-0.03178096	-0.04094854	0	0	0	0
36.02588	-0.03178096	-0.04094854	0	0	0	0
36.04237	-0.03178096	-0.04094854	0	0	0	0
36.08064	-0.03178096	-0.04094854	0	0	0	0
36.09721	-0.03178096	-0.04094854	0	0	0	0
36.11377	-0.03178096	-0.04094854	0	0	0	0
36.13044	-0.03178096	-0.04094854	0	0	0	0
36.14692	-0.03178096	-0.04094854	0	0	0	0
36.16349	-0.03178096	-0.04094854	0	0	0	0
36.18005	-0.03178096	-0.04094854	0	0	0	0
36.19698	-0.03178096	-0.04094854	0	0	0	0
36.22866	-0.03178096	-0.04094854	0	0	0	0
36.24523	-0.03178096	-0.04094854	0	0	0	0
36.2618	-0.03178096	-0.04094854	0	0	0	0
36.27837	-0.03178096	-0.04094854	0	0	0	0
36.29493	-0.03178096	-0.04094854	0	0	0	0
36.31244	-0.03178096	-0.04094854	0	0	0	0
36.32807	-0.03178096	-0.04094854	0	0	0	0
36.34464	-0.03178096	-0.04094854	0	0	0	0
36.37735	-0.03178096	-0.04094854	0	0	0	0
36.39398	-0.03178096	-0.04094854	0	0	0	0
36.41048	-0.03178096	-0.04094854	0	0	0	0
36.42705	-0.03178096	-0.04094854	0	0	0	0
36.44362	-0.03178096	-0.04094854	0	0	0	0
36.46019	-0.03178096	-0.04094854	0	0	0	0
36.47675	-0.03178096	-0.04094854	0	0	0	0
36.49332	-0.03178096	-0.04094854	0	0	0	0
36.50988	-0.03178096	-0.04094854	0	0	0	0
36.55078	-0.03178096	-0.04094854	0	0	0	0
36.56734	-0.03178096	-0.04094854	0	0	0	0
36.58391	-0.03178096	-0.04094854	0	0	0	0
36.60075	-0.03178096	-0.04094854	0	0	0	0
36.61705	-0.03178096	-0.04094854	0	0	0	0
36.63368	-0.03178096	-0.04094854	0	0	0	0
36.65018	-0.03178096	-0.04094854	0	0	0	0
36.66749	-0.03178096	-0.04094854	0	0	0	0
36.70226	-0.03178096	-0.04094854	0	0	0	0
36.71883	-0.03178096	-0.04094854	0	0	0	0
36.73539	-0.03178096	-0.04094854	0	0	0	0
36.75203	-0.03178096	-0.04094854	0	0	0	0
36.76857	-0.03178096	-0.04094854	0	0	0	0
36.7851	-0.03178096	-0.04094854	0	0	0	0
36.80166	-0.03178096	-0.04094854	0	0	0	0
36.81832	-0.03178096	-0.04094854	0	0	0	0
36.85929	-0.03178096	-0.04094854	0	0	0	0
36.87585	-0.03178096	-0.04094854	0	0	0	0
36.89242	-0.03178096	-0.04094854	0	0	0	0
36.96358	-0.03178096	-0.04094854	0	0	0	0
36.99971	-0.03178096	-0.04094854	0	0	0	0
37.01631	-0.03178096	-0.04094854	0	0	0	0
37.03288	-0.03178096	-0.04094854	0	0	0	0
37.04993	-0.03178096	-0.04094854	0	0	0	0
37.06601	-0.03178096	-0.04094854	0	0	0	0
37.08258	-0.03178096	-0.04094854	0	0	0	0
37.09969	-0.03178096	-0.04094854	0	0	0	0
37.11623	-0.03178096	-0.04094854	0	0	0	0
37.13237	-0.03178096	-0.04094854	0	0	0	0
37.18666	-0.03178096	-0.04094854	0	0	0	0
37.20322	-0.03178096	-0.04094854	0	0	0	0
37.21979	-0.03178096	-0.04094854	0	0	0	0
37.23661	-0.03178096	-0.04094854	0	0	0	0
37.25293	-0.03178096	-0.04094854	0	0	0	0
37.26949	-0.03178096	-0.04094854	0	0	0	0
37.28606	-0.03178096	-0.04094854	0	0	0	0
37.30263	-0.03178096	-0.04094854	0	0	0	0
37.32608	-0.03422564	-0.03116978	-0.1042556	0.4170233	-2.605337	10.42137
37.34265	-0.05256082	0.003055861	-1.106459	2.065388	-25.04256	41.18855
37.35921	-0.05622785	0.009167584	-0.2213424	0.3689043	26.70978	-51.1941
37.37651	-0.06478426	0.02750275	-0.4948184	1.060325	-8.076847	20.42044
37.39235	-0.07456302	0.04706027	-0.6171024	1.234204	-3.690114	5.247083
37.40898	-0.08923115	0.07884122	-0.8821203	1.911261	-8.160794	20.84885
37.42548	-0.09412052	0.09595404	-0.2962831	1.036991	17.68263	-26.38855
37.4422	-0.09534287	0.1130669	-0.07314121	1.023973	6.718193	-0.391944
37.45861	-0.09412053	0.1326244	0.07446658	1.191468	4.455838	5.056177
37.50181	-0.08434177	0.1570713	0.2263526	0.565881	2.547736	-10.49359
37.5185	-0.01589048	0.2438577	4.101508	5.200126	64.70374	77.37831
37.53495	-0.007334067	0.2548589	0.5202997	0.6689582	-108.0811	-136.7509
37.55151	0.004889377	0.269527	0.7378086	0.8853687	6.588704	6.555431
37.5682	0.01589048	0.2817504	0.6594724	0.7327475	-2.356053	-4.590263
37.58471	0.02566923	0.2927515	0.5920189	0.6660202	-2.031774	-2.009901
37.60122	0.02933627	0.2976409	0.2221611	0.296216	-11.19972	-11.1981
37.61778	0.0330033	0.3013079	0.2213935	0.2213932	-0.0232113	-2.262586
37.6604	0.03544799	0.3061973	0.0573683	0.114737	-2.771754	-1.802313
37.67696	0.06967364	0.3453123	2.065864	2.360987	33.93806	37.95545
37.69355	0.07823005	0.3550911	0.5159912	0.5897045	-46.75372	-53.4328
37.71009	0.09289818	0.3722039	0.8863901	1.034121	11.17995	13.41405
37.72705	0.1087887	0.3880944	0.9369311	0.9369307	1.508314	-2.900476
37.74323	0.1222345	0.4052072	0.8313053	1.058026	-3.187795	3.65467
37.7598	0.1369026	0.4198754	0.8853701	0.8853705	1.65126	-5.273291
37.77652	0.1442367	0.4333211	0.4384452	0.8038145	-13.42331	-2.449521
37.80503	0.149126	0.4406552	0.1714903	0.2572355	-5.901055	-12.08217
37.8216	0.1503484	0.4418775	0.07378072	0.07378253	-2.167554	-4.069654
37.83817	0.1503484	0.4418775	0	0	-2.226707	-2.226761
37.85474	0.1503484	0.4418775	0	0	0	0
37.8713	0.1503484	0.4418775	0	0	0	0
37.88805	0.1503484	0.4418775	0	0	0	0
37.90444	0.1503484	0.4418775	0	0	0	0
37.92142	0.1503484	0.4418775	0	0	0	0
37.93791	0.1503484	0.4418775	0	0	0	0
38.00423	0.1503484	0.4418775	0	0	0	0
38.02079	0.1503484	0.4418775	0	0	0	0
38.03736	0.1503484	0.4418775	0	0	0	0
38.05453	0.1503484	0.4418775	0	0	0	0
38.0705	0.1503484	0.4418775	0	0	0	0
38.08707	0.149126	0.4406552	-0.07378072	-0.07378253	-2.267695	-2.267751
38.13887	0.1430143	0.4296541	-0.1179701	-0.2123457	-0.6462837	-2.026529
38.15544	0.1087887	0.3074197	-2.065863	-7.378085	-28.48854	-104.8011
38.17201	0.1075663	0.2927515	-0.07378072	-0.8853705	60.12117	195.9505
38.18858	0.1051216	0.2780834	-0.1475624	-0.8853705	-2.226734	0
38.20514	0.0990099	0.2511918	-0.3689041	-1.62318	-6.680107	-22.26712
38.22171	0.09412053	0.2206332	-0.2951229	-1.844521	2.226721	-6.680092
38.23828	0.08678646	0.1790735	-0.4426852	-2.50855	-4.453441	-20.04044
38.25501	0.08311943	0.1546266	-0.2191226	-1.460817	6.713127	31.46126
38.29292	0.07823005	0.131402	-0.1289849	-0.6126775	1.649614	15.52184
38.30949	0.0660066	0.06417309	-0.7378086	-4.057947	-11.17643	-63.24627
38.32612	0.06478426	0.05439433	-0.0734762	-0.5878105	20.00813	104.5124
38.34291	0.06111722	0.03728151	-0.218376	-1.019088	-4.334658	-12.9016
38.35919	0.05867253	0.02383572	-0.1501901	-0.8260449	2.061888	5.837472
38.37594	0.05622785	0.009167584	-0.1459816	-0.8758914	0.1274384	-1.509413
38.39251	0.05378316	0.0006111723	-0.147494	-0.5162283	-0.04538629	10.79376
38.40889	0.05133847	-0.00550055	-0.1492453	-0.373114	-0.05314291	4.342698
38.46801	0.05133847	-0.009167584	-6.301623E-08	-0.06203077	1.976845	4.120489
38.48458	0.05133847	-0.009167584	0	0	8.326273E-07	0.8196065
38.50126	0.05133847	-0.009167584	0	0	0	0
38.51782	0.05133847	-0.009167584	0	0	0	0
38.53428	0.05133847	-0.009167584	0	0	0	0
38.55111	0.05133847	-0.009167584	0	0	0	0
38.56804	0.05133847	-0.009167584	0	0	0	0
38.60868	0.05133847	-0.009167584	0	0	0	0
38.62526	0.05133847	-0.009167584	0	0	0	0
38.64203	0.05133847	-0.009167584	0	0	0	0
38.65839	0.05133847	-0.009167584	0	0	0	0
38.67495	0.05133847	-0.009167584	0	0	0	0
38.69152	0.05133847	-0.009167584	0	0	0	0
38.70846	0.05133847	-0.009167584	0	0	0	0
38.72466	0.05133847	-0.009167584	0	0	0	0
38.75775	0.05133847	-0.009167584	0	0	0	0
38.77432	0.05133847	-0.009167584	0	0	0	0
38.79099	0.05133847	-0.009167584	0	0	0	0
38.80745	0.05133847	-0.009167584	0	0	0	0
38.82402	0.05133847	-0.009167584	0	0	0	0
38.84087	0.05133847	-0.009167584	0	0	0	0
38.85716	0.05133847	-0.009167584	0	0	0	0
38.87373	0.05133847	-0.009167584	0	0	0	0
38.90335	0.05133847	-0.009167584	0	0	0	0
38.91991	0.05133847	-0.009167584	0	0	0	0
38.9367	0.05133847	-0.009167584	0	0	0	0
38.95331	0.05133847	-0.009167584	0	0	0	0
38.96962	0.05133847	-0.009167584	0	0	0	0
38.98619	0.05133847	-0.009167584	0	0	0	0
39.00276	0.05133847	-0.009167584	0	0	0	0
39.01937	0.05133847	-0.009167584	0	0	0	0
39.03616	0.05133847	-0.009167584	0	0	0	0
39.07493	0.05133847	-0.009167584	0	0	0	0
39.0915	0.05133847	-0.009167584	0	0	0	0
39.10829	0.05133847	-0.009167584	0	0	0	0
39.12463	0.05133847	-0.009167584	0	0	0	0
39.14124	0.05133847	-0.009167584	0	0	0	0
39.15779	0.05133847	-0.009167584	0	0	0	0
39.17433	0.05011613	-0.009167584	-0.07391688	0	-2.233645	0
39.1909	0.04767143	-0.00550055	-0.1475619	0.2213426	-2.22466	6.686291
39.23376	0.04644909	-0.001833517	-0.02851821	0.08555454	2.003119	-2.284872
39.25033	0.0440044	0.001833517	-0.1475617	0.2213426	-2.003115	2.284872
39.2669	0.0440044	0.003055861	2.24859E-07	0.07378086	4.453427	-4.453422
39.28346	0.04155971	0.00550055	-0.1475617	0.1475617	-4.453427	2.226711
39.30003	0.04155971	0.006722894	0	0.07376385	4.452908	-2.226968
39.3166	0.04033737	0.00794524	-0.07379794	0.07379789	-2.227226	0.001027156
39.33316	0.04033737	0.00794524	0	0	2.227483	-2.227481
39.34973	0.04033737	0.009167584	0	0.07379783	0	2.227479
39.38145	0.04033737	0.009167584	0	0	0	-1.528214
39.39803	0.04033737	0.009167584	0	0	0	0
39.41459	0.04033737	0.009167584	0	0	0	0
39.43119	0.04033737	0.009167584	0	0	0	0
39.44778	0.04033737	0.009167584	0	0	0	0
39.46431	0.04033737	0.009167584	0	0	0	0
39.48133	0.04033737	0.009167584	0	0	0	0
39.49742	0.04033737	0.009167584	0	0	0	0
39.51399	0.04033737	0.009167584	0	0	0	0
39.55049	0.04033737	0.009167584	0	0	0	0
39.56705	0.04033737	0.009167584	0	0	0	0
39.58362	0.04033737	0.009167584	0	0	0	0
39.60046	0.04033737	0.009167584	0	0	0	0
39.61676	0.04033737	0.009167584	0	0	0	0
39.63332	0.04033737	0.009167584	0	0	0	0
39.64989	0.04033737	0.009167584	0	0	0	0
39.66645	0.04033737	0.009167584	0	0	0	0
39.69415	0.04033737	0.009167584	0	0	0	0
39.71072	0.04033737	0.009167584	0	0	0	0
39.72729	0.04033737	0.009167584	0	0	0	0
39.74386	0.04033737	0.009167584	0	0	0	0
39.76067	0.04033737	0.009167584	0	0	0	0
39.777	0.04033737	0.009167584	0	0	0	0
39.79356	0.04033737	0.009167584	0	0	0	0
39.81028	0.04033737	0.009167584	0	0	0	0
39.82669	0.04033737	0.009167584	0	0	0	0
39.86039	0.04033737	0.009167584	0	0	0	0
39.87695	0.04033737	0.009167584	0	0	0	0
39.89352	0.04033737	0.009167584	0	0	0	0
39.91009	0.04033737	0.009167584	0	0	0	0
39.92666	0.04033737	0.009167584	0	0	0	0
39.94323	0.04033737	0.009167584	0	0	0	0
39.95979	0.04033737	0.009167584	0	0	0	0
39.97663	0.04033737	0.009167584	0	0	0	0
39.99295	0.04033737	0.009167584	0	0	0	0
40.00951	0.04033737	0.009167584	0	0	0	0
40.0261	0.04033737	0.009167584	0	0	0	0
40.04283	0.04033737	0.009167584	0	0	0	0
40.05919	0.04033737	0.009167584	0	0	0	0
40.07576	0.04033737	0.009167584	0	0	0	0
40.09232	0.04033737	0.009167584	0	0	0	0
40.10889	0.04033737	0.009167584	0	0	0	0
40.12546	0.04033737	0.009167584	0	0	0	0
40.1426	0.04033737	0.009167584	0	0	0	0
40.1586	0.04033737	0.009167584	0	0	0	0
40.1931	0.04033737	0.009167584	0	0	0	0
40.20967	0.04033737	0.009167584	0	0	0	0
40.22659	0.04033737	0.009167584	0	0	0	0
40.2428	0.04033737	0.009167584	0	0	0	0
40.25937	0.04033737	0.009167584	0	0	0	0
40.27593	0.04033737	0.009167584	0	0	0	0
40.2925	0.04033737	0.009167584	0	0	0	0
40.30907	0.04033737	0.009167584	0	0	0	0
40.32564	0.04033737	0.009167584	0	0	0	0
40.35284	0.04033737	0.009167584	0	0	0	0
40.36941	0.04033737	0.009167584	0	0	0	0
40.38668	0.04033737	0.009167584	0	0	0	0
40.40255	0.04033737	0.009167584	0	0	0	0
40.41911	0.04033737	0.009167584	0	0	0	0
40.43568	0.04033737	0.009167584	0	0	0	0
40.45228	0.04033737	0.009167584	0	0	0	0
40.46887	0.04033737	0.009167584	0	0	0	0
40.48538	0.04033737	0.009167584	0	0	0	0
40.52367	0.04033737	0.009167584	0	0	0	0
40.54024	0.04033737	0.009167584	0	0	0	0
40.561	0.04033737	0.009167584	0	0	0	0
40.57765	0.04033737	0.009167584	0	0	0	0
40.59414	0.04033737	0.009167584	0	0	0	0
40.61071	0.04033737	0.009167584	0	0	0	0
40.62728	0.04033737	0.009167584	0	0	0	0
40.64385	0.04033737	0.009167584	0	0	0	0
40.69871	0.04033737	0.009167584	0	0	0	0
40.71528	0.04033737	0.009167584	0	0	0	0
40.73212	0.04033737	0.009167584	0	0	0	0
40.74919	0.04033737	0.009167584	0	0	0	0
40.76499	0.04033737	0.009167584	0	0	0	0
40.78156	0.04033737	0.009167584	0	0	0	0
40.79864	0.04033737	0.009167584	0	0	0	0
40.83593	0.04033737	0.009167584	0	0	0	0
40.85254	0.04033737	0.009167584	0	0	0	0
40.86907	0.04033737	0.009167584	0	0	0	0
40.88564	0.04033737	0.009167584	0	0	0	0
40.90221	0.04033737	0.009167584	0	0	0	0
40.91913	0.04033737	0.009167584	0	0	0	0
40.9357	0.04033737	0.009167584	0	0	0	0
40.952	0.04033737	0.009167584	0	0	0	0
41.0134	0.04033737	0.009167584	0	0	0	0
41.02997	0.04033737	0.009167584	0	0	0	0
41.04715	0.04033737	0.009167584	0	0	0	0
41.06328	0.04033737	0.009167584	0	0	0	0
41.07967	0.04033737	0.009167584	0	0	0	0
41.09624	0.04033737	0.009167584	0	0	0	0
41.1128	0.04033737	0.009167584	0	0	0	0
41.15256	0.04033737	0.009167584	0	0	0	0
41.16913	0.04033737	0.009167584	0	0	0	0
41.1857	0.04033737	0.009167584	0	0	0	0
41.20227	0.04033737	0.009167584	0	0	0	0
41.21933	0.04033737	0.009167584	0	0	0	0
41.2354	0.04033737	0.009167584	0	0	0	0
41.25197	0.04033737	0.009167584	0	0	0	0
41.26854	0.04033737	0.009167584	0	0	0	0
41.30103	0.04033737	0.009167584	0	0	0	0
41.31837	0.04033737	0.009167584	0	0	0	0
41.33416	0.04033737	0.009167584	0	0	0	0
41.35088	0.04033737	0.009167584	0	0	0	0
41.36729	0.04033737	0.009167584	0	0	0	0
41.38396	0.04033737	0.009167584	0	0	0	0
41.40063	0.04033737	0.009167584	0	0	0	0
41.417	0.04033737	0.009167584	0	0	0	0
41.43357	0.04033737	0.009167584	0	0	0	0
41.46597	0.04033737	0.009167584	0	0	0	0
41.48254	0.04033737	0.009167584	0	0	0	0
41.4993	0.04033737	0.009167584	0	0	0	0
41.51567	0.04033737	0.009167584	0	0	0	0
41.53224	0.04033737	0.009167584	0	0	0	0
41.54881	0.04033737	0.009167584	0	0	0	0
41.56537	0.04033737	0.009167584	0	0	0	0
41.58194	0.04033737	0.009167584	0	0	0	0
41.61095	0.04033737	0.009167584	0	0	0	0
41.62801	0.04033737	0.009167584	0	0	0	0
41.64409	0.04033737	0.009167584	0	0	0	0
41.66066	0.04033737	0.009167584	0	0	0	0
41.67727	0.04033737	0.009167584	0	0	0	0
41.69378	0.04033737	0.009167584	0	0	0	0
41.71035	0.04033737	0.009167584	0	0	0	0
41.72692	0.04033737	0.009167584	0	0	0	0
41.74348	0.04033737	0.009167584	0	0	0	0
41.76251	0.04033737	0.009167584	0	0	0	0
41.77908	0.04033737	0.009167584	0	0	0	0
41.79581	0.04033737	0.009167584	0	0	0	0
41.8125	0.04033737	0.009167584	0	0	0	0
41.82878	0.04033737	0.009167584	0	0	0	0
41.84535	0.04033737	0.009167584	0	0	0	0
41.86198	0.04033737	0.009167584	0	0	0	0
41.87866	0.04033737	0.009167584	0	0	0	0
41.89505	0.04033737	0.009167584	0	0	0	0
41.92976	0.04033737	0.009167584	0	0	0	0
41.94632	0.04033737	0.009167584	0	0	0	0
41.96289	0.04033737	0.009167584	0	0	0	0
41.97946	0.04033737	0.009167584	0	0	0	0
41.99662	0.04033737	0.009167584	0	0	0	0
42.01294	0.04033737	0.009167584	0	0	0	0
42.02916	0.04033737	0.009167584	0	0	0	0
42.04575	0.04033737	0.009167584	0	0	0	0
42.06229	0.04033737	0.009167584	0	0	0	0
42.07896	0.04033737	0.009167584	0	0	0	0
42.10334	0.04033737	0.009167584	0	0	0	0
42.11992	0.04033737	0.009167584	0	0	0	0
42.13648	0.04033737	0.009167584	0	0	0	0
42.15344	0.04033737	0.009167584	0	0	0	0
42.16961	0.04033737	0.009167584	0	0	0	0
42.18618	0.04033737	0.009167584	0	0	0	0
42.20275	0.04033737	0.009167584	0	0	0	0
42.21931	0.04033737	0.009167584	0	0	0	0
42.25389	0.04033737	0.009167584	0	0	0	0
42.27046	0.04033737	0.009167584	0	0	0	0
42.28703	0.04033737	0.009167584	0	0	0	0
42.30359	0.04033737	0.009167584	0	0	0	0
42.32043	0.04033737	0.009167584	0	0	0	0
42.33673	0.04033737	0.009167584	0	0	0	0
42.35329	0.04033737	0.009167584	0	0	0	0
42.36986	0.04033737	0.009167584	0	0	0	0
42.40241	0.04033737	0.009167584	0	0	0	0
42.41916	0.04033737	0.009167584	0	0	0	0
42.43576	0.04033737	0.009167584	0	0	0	0
42.45211	0.04033737	0.009167584	0	0	0	0
42.46868	0.04033737	0.009167584	0	0	0	0
42.48555	0.04033737	0.009167584	0	0	0	0
42.50182	0.04033737	0.009167584	0	0	0	0
42.51853	0.04033737	0.009167584	0	0	0	0
42.53495	0.04033737	0.009167584	0	0	0	0
42.56706	0.04033737	0.009167584	0	0	0	0
42.58363	0.04033737	0.009167584	0	0	0	0
42.6002	0.04033737	0.009167584	0	0	0	0
42.61676	0.04033737	0.009167584	0	0	0	0
42.63333	0.04033737	0.009167584	0	0	0	0
42.6499	0.04033737	0.009167584	0	0	0	0
42.66647	0.04033737	0.009167584	0	0	0	0
42.68303	0.04033737	0.009167584	0	0	0	0
42.6996	0.04033737	0.009167584	0	0	0	0
42.71658	0.04033737	0.009167584	0	0	0	0
42.73315	0.04033737	0.009167584	0	0	0	0
42.74971	0.04033737	0.009167584	0	0	0	0
42.76628	0.04033737	0.009167584	0	0	0	0
42.78285	0.04033737	0.009167584	0	0	0	0
42.79942	0.04033737	0.009167584	0	0	0	0
42.81607	0.04033737	0.009167584	0	0	0	0
42.83255	0.04033737	0.009167584	0	0	0	0
42.8492	0.04033737	0.009167584	0	0	0	0
42.86568	0.04033737	0.009167584	0	0	0	0
42.9165	0.04033737	0.009167584	0	0	0	0
42.93306	0.04033737	0.009167584	0	0	0	0
42.94971	0.04033737	0.009167584	0	0	0	0
42.96679	0.04033737	0.009167584	0	0	0	0
42.98284	0.04033737	0.009167584	0	0	0	0
42.99933	0.04033737	0.009167584	0	0	0	0
43.0159	0.04033737	0.009167584	0	0	0	0
43.0734	0.04033737	0.009167584	0	0	0	0
43.08997	0.04033737	0.009167584	0	0	0	0
43.10666	0.04033737	0.009167584	0	0	0	0
43.1231	0.04033737	0.009167584	0	0	0	0
43.13988	0.04033737	0.009167584	0	0	0	0
43.15624	0.04033737	0.009167584	0	0	0	0
43.17281	0.04033737	0.009167584	0	0	0	0
43.18937	0.04033737	0.009167584	0	0	0	0
43.20594	0.04033737	0.009167584	0	0	0	0
43.22251	0.04033737	0.009167584	0	0	0	0
43.23907	0.04033737	0.009167584	0	0	0	0
43.25564	0.04033737	0.009167584	0	0	0	0
43.27221	0.04033737	0.009167584	0	0	0	0
43.28878	0.04033737	0.009167584	0	0	0	0
43.30534	0.04033737	0.009167584	0	0	0	0
43.32191	0.04033737	0.009167584	0	0	0	0
43.35234	0.04033737	0.009167584	0	0	0	0
43.36891	0.04033737	0.009167584	0	0	0	0
43.38555	0.04033737	0.009167584	0	0	0	0
43.40208	0.04033737	0.009167584	0	0	0	0
43.41861	0.04033737	0.009167584	0	0	0	0
43.43554	0.04033737	0.009167584	0	0	0	0
43.45176	0.04033737	0.01038993	0	0.0753776	0	2.273853
43.51624	0.03911503	0.02139103	-0.01895697	0.1706131	-0.2349181	1.180174
43.60996	0.05133847	0.124068	0.1304205	1.095533	0.9442133	5.846406
43.62669	0.08311943	0.1607383	1.899496	2.191726	16.01632	9.924387
43.6431	0.09045349	0.1619606	0.4470077	0.07450121	-43.83113	-63.89063
43.65966	0.106344	0.1644053	0.9593721	0.1475954	15.54012	2.216963
43.67623	0.1344579	0.1692947	1.696959	0.2951238	22.26299	4.452927
43.69279	0.1650165	0.1766288	1.844947	0.4427872	4.466774	4.457004
43.71765	0.1906857	0.1790735	1.032853	0.09836675	-19.60814	-8.316087
43.73422	0.2249114	0.1839628	2.065388	0.295055	24.92615	4.748194
43.75078	0.2298008	0.1839629	0.2951918	8.99643E-07	-53.42464	-8.90475
43.76735	0.2371348	0.1864075	0.4425842	0.1475275	4.448314	4.452362
43.78406	0.2408019	0.1864075	0.2195216	0	-6.703489	-4.433503
43.80048	0.2420242	0.1876299	0.0744156	0.0744147	-4.379813	2.246099
43.81705	0.2432466	0.1876299	0.07378072	8.994359E-07	-0.01924265	-2.25542
43.83393	0.2444689	0.1876299	0.07242986	-8.829679E-07	-0.04039251	-5.329605E-05
43.85018	0.248136	0.1900746	0.2256036	0.1504021	4.623324	4.539693
43.87348	0.251803	0.1937416	0.1573807	0.1573813	-1.724778	0.1764458
43.89005	0.2628041	0.202298	0.6640283	0.5164669	12.70832	9.006996
43.90675	0.2628041	0.202298	0	0	-19.9577	-15.52267
43.92318	0.2676935	0.2071874	0.2975915	0.2975906	8.98133	8.981301
43.93981	0.2774722	0.2145215	0.5882124	0.4411606	8.792213	4.343454
43.95632	0.2848063	0.2194108	0.4442204	0.2961466	-4.345687	-4.376532
43.97289	0.2884733	0.2218555	0.221344	0.1475614	-6.73806	-4.492067
43.98954	0.2884733	0.2218555	0	0	-6.662532	-4.441652
44.00602	0.2884733	0.2218555	0	0	0	0
44.04358	0.2884733	0.2218555	0	0	0	0
44.06014	0.2884733	0.2218555	0	0	0	0
44.07671	0.2884733	0.2218555	0	0	0	0
44.09328	0.2884733	0.2218555	0	0	0	0
44.10985	0.2884733	0.2218555	0	0	0	0
44.12646	0.2884733	0.2218555	0	0	0	0
44.14298	0.2884733	0.2218555	0	0	0	0
44.15955	0.2884733	0.2218555	0	0	0	0
44.17612	0.2884733	0.2218555	0	0	0	0
44.23976	0.2884733	0.2218555	0	0	0	0
44.25633	0.2029092	0.1876299	-5.163472	-2.065388	-64.3731	-25.74924
44.27289	0.1919081	0.1827405	-0.6641794	-0.2951909	135.7889	53.42467
44.28946	0.1637942	0.1692947	-1.696961	-0.8115907	-31.173	-15.58677
44.30621	0.1381249	0.1534042	-1.53281	-0.9488824	4.927434	-4.121173
44.32279	0.1124557	0.1375138	-1.547973	-0.9582677	-0.4549438	-0.281597
44.35889	0.07456301	0.1130669	-1.049592	-0.6771563	9.459672	5.335723
44.37546	-0.002444689	0.01038993	-4.648194	-6.197592	-68.32418	-104.8127
44.39245	-0.01466813	-0.01161227	-0.7192598	-1.294668	117.066	146.0869
44.40859	-0.0330033	-0.04461557	-1.136009	-2.044816	-12.57752	-22.63952
44.42538	-0.0440044	-0.05928371	-0.6554255	-0.8739007	14.59646	35.56349
44.44173	-0.04767143	-0.06539543	-0.224234	-0.3737232	13.01189	15.09365
44.4583	-0.05011612	-0.06784012	-0.1475617	-0.1475619	2.32899	6.869853
44.47493	-0.05011612	-0.06784012	0	0	4.445232	4.445239
44.51643	-0.05011612	-0.06784012	0	0	0	0
44.533	-0.05011612	-0.06784012	0	0	0	0
44.54957	-0.05011612	-0.06784012	0	0	0	0
44.56614	-0.05011612	-0.06784012	0	0	0	0
44.58271	-0.05011613	-0.06539543	-2.247555E-07	0.147494	-6.781572E-06	4.450352
44.59931	-0.04644909	-0.05928371	0.2209357	0.368226	6.660191	6.654046
44.61585	-0.04278206	-0.05194964	0.2217	0.4433999	0.02306383	2.268491
44.6324	-0.03789268	-0.04339323	0.2953954	0.5169421	2.226953	2.222322
44.66044	-0.03544799	-0.03728151	0.08719189	0.2179796	-4.669288	-6.704698
44.67702	-0.03178096	-0.02750275	0.2210881	0.5895684	3.00052	8.327044
44.69358	-0.03178096	-0.02750275	0	0	-6.671684	-17.79116
44.71014	-0.03055861	-0.02261337	0.07378095	0.2951232	2.227739	8.910941
44.72746	-0.02933627	-0.01894634	0.07057934	0.2117382	-0.09448195	-2.460755
44.74328	-0.02933627	-0.01650165	1.177716E-07	0.1545732	-2.130085	-1.725244
44.75985	-0.02811392	-0.01650165	0.07378095	0	2.278384	-4.773286
44.77645	-0.02811392	-0.01650165	0	0	-2.224153	0
44.79298	-0.02811392	-0.01527931	-2.254299E-07	0.07396819	-6.804273E-06	2.232621
44.82225	-0.02811392	-0.01527931	0	0	4.922131E-06	-1.615052
44.83882	-0.02811392	-0.01527931	0	0	0	0
44.85539	-0.02811392	-0.01527931	0	0	0	0
44.87196	-0.02811392	-0.01527931	0	0	0	0
44.88852	-0.02811392	-0.01527931	0	0	0	0
44.90537	-0.02811392	-0.01527931	0	0	0	0
44.92175	-0.02811392	-0.01527931	0	0	0	0
44.93822	-0.02811392	-0.01527931	0	0	0	0
44.96808	-0.02811392	-0.01527931	0	0	0	0
45.00678	-0.02811392	-0.01527931	0	0	0	0
