Time	Pos X	Pos Y	Vel X	Vel Y	Acc X	Acc Y
0.01732386	0.3410341	0.06539543	-0.007579206	-0.00145336	0.0001685038	3.231165E-05
0.03843974	0.3410341	0.06539543	0	0	-0.0001685208	-3.231492E-05
0.05500685	0.3373671	0.06539543	-0.2213456	0	-5.873885	0
0.07157672	0.3324777	0.06539543	-0.2950758	0	-2.225013	0
0.0883266	0.3312554	0.06539543	-0.0729744	0	6.665757	0
0.104709	0.326366	0.06539543	-0.298455	0	-6.805471	0
0.1212761	0.3190319	0.06417309	-0.4426875	-0.07378125	-4.377386	-2.239224
0.1426655	0.3116978	0.06295074	-0.3428834	-0.05714735	2.629432	0.4382354
0.1592326	0.2994744	0.05928371	-0.7378126	-0.221344	-10.40477	-4.325911
0.1759762	0.2958074	0.05928371	-0.2190128	0	15.57458	6.644835
0.192368	0.2884733	0.05806137	-0.4474209	-0.07457015	-6.893171	-2.250467
0.2090433	0.2786945	0.05561667	-0.586423	-0.1466058	-4.203636	-2.178466
0.2255031	0.2689158	0.05439433	-0.5941007	-0.07426258	-0.231707	2.183285
0.242069	0.2493583	0.05194964	-1.180588	-0.1475736	-17.75853	-2.21982
0.2586365	0.2346901	0.05194964	-0.8853562	2.248553E-07	8.910387	4.453926
0.2756212	0.2187997	0.05194964	-0.9355727	0	-1.496667	-6.701645E-06
0.2935621	0.2029092	0.0507273	-0.885715	-0.06813201	1.427541	-1.950775
0.3101628	0.1833517	0.0507273	-1.178116	0	-8.465217	1.972467
0.3266983	0.1772399	0.05072729	-0.3696119	-2.252902E-07	24.39944	-6.798916E-06
0.3432749	0.1650165	0.05194964	-0.7373908	0.07373952	-11.10708	2.226972
0.3598325	0.1527931	0.05194964	-0.7382367	0	-0.02552977	-2.225479
0.3766598	0.1405696	0.05317198	-0.7264079	0.0726404	0.3543136	2.175847
0.3930532	0.1307909	0.05439433	-0.5965046	0.07456342	3.910315	0.05788637
0.4099479	0.1210121	0.05561667	-0.578804	0.07235038	0.5317404	-0.06648121
0.4261009	0.113678	0.05683902	-0.4540369	0.07567319	3.775357	0.1005457
0.4511075	0.1014546	0.05683902	-0.4888089	-1.489723E-07	-0.8448099	-1.838534
0.4679391	0.08434177	0.0592837	-1.016708	0.1452437	-12.61764	3.47156
0.4849204	0.0794524	0.06050605	-0.2879286	0.07198225	21.55335	-2.166676
0.5009431	0.06967364	0.06295075	-0.6103062	0.1525769	-9.767858	2.441971
0.5173779	0.06233957	0.06295074	-0.4462508	-4.533404E-07	5.054458	-4.700826
0.5342928	0.05867253	0.06417308	-0.2167933	0.07226422	6.880337	2.166873
0.5505126	0.05500551	0.06539543	-0.2260843	0.07536188	-0.2804003	0.09348708
0.5672305	0.05256081	0.06539543	-0.1462321	0	2.424342	-2.288017
0.583648	0.05011613	0.06661778	-0.148907	0.07445405	-0.08072475	2.246963
0.6221935	0.04644909	0.06906246	-0.09513518	0.06342326	0.9783262	-0.2006947
0.6389043	0.0440044	0.07028481	-0.146294	0.07314677	-0.9258442	0.1759708
0.6553337	0.0440044	0.07028481	0	0	4.414398	-2.207193
0.6762917	0.04033737	0.07028481	-0.1749704	3.555004E-07	-4.679933	9.508571E-06
0.6928659	0.02811392	0.06661777	-0.7374982	-0.2212499	-14.98787	-5.894945
0.7094322	0.02811392	0.06661777	0	0	22.25366	6.676111
0.7260005	0.02566924	0.06539543	-0.1475521	-0.07377595	-4.453108	-2.226551
0.7425665	0.02322455	0.06417309	-0.1475735	-0.07378656	-0.0006444504	-0.0003204263
0.7766047	0.02077986	0.06417308	-0.07182199	-2.188889E-07	1.496943	1.45811
0.7931733	0.01955751	0.06417308	-0.07377446	0	-0.03858128	4.325282E-06
0.8097412	0.01955751	0.06417308	0	0	2.226377	0
0.8263079	0.01955751	0.06417308	0	0	0	0
0.843038	0.01955751	0.06417308	0	0	0	0
0.8594409	0.01955751	0.06417308	0	0	0	0
0.8760061	0.01955751	0.06417308	0	0	0	0
0.8925744	0.01955751	0.06417308	0	0	0	0
0.9091415	0.01955751	0.06417308	0	0	0	0
0.9257098	0.01955751	0.06417308	0	0	0	0
0.9422745	0.01955751	0.06417308	0	0	0	0
0.9588412	0.01955751	0.06417308	0	0	0	0
0.9754079	0.01955751	0.06417308	0	0	0	0
0.991975	0.01955751	0.06417308	0	0	0	0
1.008541	0.01955751	0.06417308	0	0	0	0
1.025108	0.01955751	0.06417308	0	0	0	0
1.041675	0.01955751	0.06417308	0	0	0	0
1.058241	0.01955751	0.06417308	0	0	0	0
1.074807	0.01955751	0.06417308	0	0	0	0
1.091659	0.01955751	0.06417308	0	0	0	0
1.107941	0.01955751	0.06417308	0	0	0	0
1.124506	0.01955751	0.06417308	0	0	0	0
1.141411	0.01955751	0.06417308	0	0	0	0
1.157641	0.01955751	0.06417308	0	0	0	0
1.174213	0.01955751	0.06417308	0	0	0	0
1.190867	0.01955751	0.06417308	0	0	0	0
1.20789	0.01955751	0.06417308	0	0	0	0
1.223952	0.01955751	0.06417308	0	0	0	0
1.253827	0.01955751	0.06417308	0	0	0	0
1.270503	0.01955751	0.06417308	0	0	0	0
1.286964	0.01955751	0.06417308	0	0	0	0
1.304058	0.01955751	0.06417308	0	0	0	0
1.320097	0.01955751	0.06417308	0	0	0	0
1.336662	0.01955751	0.06417308	0	0	0	0
1.35323	0.01955751	0.06417308	0	0	0	0
1.369797	0.01955751	0.06417308	0	0	0	0
1.386363	0.01955751	0.06417308	0	0	0	0
1.406235	0.01955751	0.06417308	0	0	0	0
1.422805	0.01955751	0.06417308	0	0	0	0
1.439371	0.01955751	0.06417308	0	0	0	0
1.455939	0.01955751	0.06417308	0	0	0	0
1.472505	0.01955751	0.06417308	0	0	0	0
1.489399	0.01955751	0.06417308	0	0	0	0
1.506515	0.01955751	0.06417308	0	0	0	0
1.522398	0.01955751	0.06417308	0	0	0	0
1.539025	0.01955751	0.06417308	0	0	0	0
1.580467	0.01955751	0.06417308	0	0	0	0
1.597037	0.01955751	0.06417308	0	0	0	0
1.613604	0.01955751	0.06417308	0	0	0	0
1.630169	0.01955751	0.06417308	0	0	0	0
1.646735	0.01955751	0.06295074	0	-0.07378497	0	-2.227043
1.663304	0.01955751	0.06295074	0	0	0	2.226803
1.71816	0.02077986	0.06295074	0.02228261	0	0.3119718	0
1.75933	0.02689158	0.05439433	0.1484526	-0.2078336	1.313915	-2.164348
1.775955	0.0440044	0.0287251	1.029333	-1.543999	15.24154	-23.11917
1.792468	0.04889378	0.02139103	0.2960992	-0.4441488	-22.1268	33.19019
1.809034	0.05867253	0.006722894	0.5902934	-0.8854404	8.893807	-13.34072
1.825598	0.06845129	-0.009167584	0.5903363	-0.9592962	0.001295337	-2.229228
1.842166	0.0794524	-0.02383572	0.6640183	-0.8853576	2.22388	2.231624
1.858732	0.08923115	-0.03850385	0.5902934	-0.8854405	-2.225095	-0.002502312
1.875345	0.09778756	-0.05194964	0.5150466	-0.8093591	-2.267918	2.293072
1.891867	0.1038993	-0.0617284	0.3699026	-0.5918437	-4.380327	6.564439
1.928903	0.1087887	-0.07028481	0.1320185	-0.2310324	-4.441607	6.736819
1.945472	0.1271238	-0.1008434	1.106585	-1.844309	18.18061	-30.09579
1.962082	0.1295685	-0.1069551	0.1471834	-0.3679589	-28.916	44.49662
1.978606	0.1344579	-0.1167339	0.2958936	-0.5917886	4.488165	-6.755316
1.995411	0.1405696	-0.127735	0.3636813	-0.6546251	2.033878	-1.885327
2.011738	0.1442367	-0.1350691	0.2246054	-0.4492089	-4.197651	6.199965
2.028305	0.145459	-0.1399584	0.07377876	-0.2951187	-4.585212	4.684429
2.044915	0.1479037	-0.1436255	0.1471802	-0.2207712	2.212378	2.240892
2.065266	0.149126	-0.1460702	0.06006321	-0.1201264	-2.356993	2.722994
2.081837	0.149126	-0.1472925	0	-0.07376587	-1.626781	1.255652
2.098752	0.149126	-0.1472925	0	0	0	2.202894
2.114969	0.149126	-0.1472925	0	0	0	0
2.132244	0.149126	-0.1472925	0	0	0	0
2.148103	0.149126	-0.1472925	0	0	0	0
2.164712	0.149126	-0.1472925	0	0	0	0
2.181398	0.149126	-0.1472925	0	0	0	0
2.197803	0.149126	-0.1472925	0	0	0	0
2.21723	0.149126	-0.1472925	0	0	0	0
2.233802	0.149126	-0.1472925	0	0	0	0
2.250367	0.149126	-0.1472925	0	0	0	0
2.267311	0.149126	-0.1472925	0	0	0	0
2.2836	0.149126	-0.1472925	0	0	0	0
2.300518	0.149126	-0.1472925	0	0	0	0
2.316633	0.149126	-0.1472925	0	0	0	0
2.3332	0.149126	-0.1472925	0	0	0	0
2.350491	0.149126	-0.1472925	0	0	0	0
2.366561	0.149126	-0.1472925	0	0	0	0
2.383065	0.149126	-0.1472925	0	0	0	0
2.399469	0.149126	-0.1472925	0	0	0	0
2.416036	0.149126	-0.1472925	0	0	0	0
2.432631	0.149126	-0.1472925	0	0	0	0
2.449169	0.149126	-0.1472925	0	0	0	0
2.465736	0.149126	-0.1472925	0	0	0	0
2.482731	0.149126	-0.1472925	0	0	0	0
2.498869	0.149126	-0.1472925	0	0	0	0
2.524338	0.149126	-0.1472925	0	0	0	0
2.540908	0.149126	-0.1472925	0	0	0	0
2.55778	0.149126	-0.1472925	0	0	0	0
2.574042	0.149126	-0.1472925	0	0	0	0
2.590608	0.149126	-0.1472925	0	0	0	0
2.607178	0.149126	-0.1472925	0	0	0	0
2.623741	0.149126	-0.1472925	0	0	0	0
2.640308	0.149126	-0.1472925	0	0	0	0
2.656875	0.149126	-0.1472925	0	0	0	0
2.673465	0.149126	-0.1472925	0	0	0	0
2.690009	0.149126	-0.1472925	0	0	0	0
2.706575	0.149126	-0.1472925	0	0	0	0
2.723141	0.149126	-0.1472925	0	0	0	0
2.739708	0.149126	-0.1472925	0	0	0	0
2.756274	0.149126	-0.1472925	0	0	0	0
2.772842	0.149126	-0.1472925	0	0	0	0
2.789408	0.149126	-0.1472925	0	0	0	0
2.806096	0.149126	-0.1472925	0	0	0	0
2.822668	0.149126	-0.1472925	0	0	0	0
2.839627	0.149126	-0.1472925	0	0	0	0
2.856155	0.149126	-0.1472925	0	0	0	0
2.872722	0.149126	-0.1472925	0	0	0	0
2.888809	0.1503484	-0.1472925	0.07598297	0	2.326908	0
2.905376	0.1540154	-0.1436255	0.2213463	0.2213463	4.451616	6.778524
2.921941	0.1601271	-0.1387361	0.3689514	0.2951611	4.455053	2.227897
2.939074	0.1674612	-0.1338467	0.4280618	0.2853742	1.754104	-0.2904271
2.955644	0.1796846	-0.1252903	0.7376913	0.5163842	9.186978	6.854269
2.971813	0.1980198	-0.1142892	1.133949	0.6803689	12.10349	5.008822
2.993211	0.2175773	-0.1032881	0.9139847	0.5141163	-5.855206	-4.425452
3.010101	0.2615817	-0.08006356	2.605418	1.375082	44.17701	22.48679
3.026721	0.2615817	-0.08006356	0	0	-77.75219	-41.0359
3.042915	0.2848063	-0.06539543	1.434114	0.9057564	43.7043	27.60272
3.05965	0.3043638	-0.05317198	1.168639	0.7303982	-8.06189	-5.325233
3.076048	0.3202543	-0.04583792	0.9690808	0.4472681	-6.022969	-8.545314
3.092741	0.3337001	-0.03605916	0.8054579	0.5857872	-4.944659	4.186025
3.109179	0.3385894	-0.03239213	0.2974343	0.2230762	-15.3334	-10.94751
3.125746	0.3422565	-0.02994744	0.2213581	0.1475724	-2.305023	-2.28768
3.142373	0.3434788	-0.0287251	0.07351202	0.07351213	-4.454024	-2.231146
3.15901	0.3447011	-0.02750275	0.07347093	0.07347104	-0.001235235	-0.001235235
3.175724	0.3447011	-0.02750275	0	0	-2.20298	-2.202983
3.192013	0.3447012	-0.02628041	1.829572E-06	0.07504	5.543677E-05	2.273743
3.20858	0.3447012	-0.02628041	0	0	-5.568538E-05	-2.283939
3.225146	0.3447011	-0.02505806	-1.798924E-06	0.07378296	-5.429396E-05	2.22687
3.241714	0.3447011	-0.02139103	0	0.2213331	5.429123E-05	4.453039
3.258281	0.3398118	-0.01283462	-0.2951253	0.5164734	-8.906772	8.907225
3.274846	0.3324777	0.001833517	-0.4427499	0.8854978	-4.455669	11.13806
3.291415	0.3214766	0.01894634	-0.6639728	1.032843	-6.676713	4.447011
3.307979	0.3068085	0.04094854	-0.8855471	1.328323	-6.687511	8.918129
3.324546	0.2738052	0.08617529	-1.992054	2.729853	-33.39758	42.3022
3.341439	0.2664711	0.09595405	-0.4341559	0.5788755	46.55983	-64.28476
3.358032	0.2530253	0.1179563	-0.8103187	1.325976	-11.23347	22.3109
3.374426	0.2408019	0.1375138	-0.7455999	1.192957	1.961929	-4.032408
3.390986	0.2285784	0.1558489	-0.7381268	1.107191	0.2267707	-2.602597
3.407379	0.216355	0.1741841	-0.7456532	1.118479	-0.228396	0.3425533
3.423946	0.2041315	0.1876299	-0.7378294	0.8116131	0.2373737	-9.310332
3.441038	0.1943528	0.1998533	-0.572132	0.7151676	4.922898	-2.865412
3.457079	0.1894634	0.2084097	-0.304792	0.5333828	8.068569	-5.486436
3.473644	0.1857964	0.2145215	-0.2213717	0.3689514	2.558367	-5.042849
3.490212	0.1821293	0.2243002	-0.2213326	0.5902221	0.001180561	6.678252
3.507041	0.1821293	0.2279672	8.854698E-07	0.2179053	6.62745	-11.14839
3.523574	0.1821293	0.2328566	0	0.2957324	-2.654153E-05	2.33283
3.539915	0.1796847	0.2524141	-0.149609	1.196874	-4.551033	27.41228
3.556479	0.1760176	0.2793057	-0.2213822	1.62346	-2.181235	12.96424
3.573045	0.1723506	0.3025303	-0.2213549	1.401916	0.0008235283	-6.686971
3.589612	0.1686835	0.3196431	-0.2213463	1.032947	0.0002612955	-11.13592
3.606414	0.1674612	0.3257548	-0.07274861	0.3637492	4.453156	-20.05443
3.622748	0.1674612	0.3257548	0	0	2.195463	-10.9775
3.648706	0.1674612	0.3257548	0	0	0	0
3.665277	0.1674612	0.3257548	0	0	0	0
3.681845	0.1674612	0.3257548	0	0	0	0
3.698412	0.1674612	0.3257548	0	0	0	0
3.714977	0.1674612	0.3257548	0	0	0	0
3.73155	0.1674612	0.3257548	0	0	0	0
3.748166	0.1674612	0.3257548	0	0	0	0
3.764677	0.1674612	0.3257548	0	0	0	0
3.781258	0.1674612	0.3257548	0	0	0	0
3.801451	0.1674612	0.3257548	0	0	0	0
3.818022	0.1674612	0.3257548	0	0	0	0
3.834588	0.1674612	0.3257548	0	0	0	0
3.851153	0.1674612	0.3257548	0	0	0	0
3.8678	0.1674612	0.3257548	0	0	0	0
3.884285	0.1674612	0.3257548	0	0	0	0
3.900854	0.1662389	0.3257548	-0.07377223	0	-2.23183	0
3.917805	0.1625718	0.3110867	-0.2163399	-0.865358	-4.253275	-25.81655
3.934344	0.1564601	0.2915292	-0.3695205	-1.182467	-4.573927	-9.468793
3.959649	0.1503484	0.2536365	-0.2415273	-1.497465	3.058809	-7.527894
3.976219	0.1442367	0.202298	-0.3688293	-3.098172	-3.040039	-38.22571
3.992786	0.1430143	0.1888522	-0.07378268	-0.8116006	8.903692	69.0024
4.009853	0.1381249	0.1644053	-0.2864816	-1.432411	-6.323936	-18.45784
4.025918	0.1344579	0.1387361	-0.2282678	-1.597872	1.757047	-4.994067
4.042487	0.1295685	0.1155116	-0.2950889	-1.401675	-2.047604	6.012084
4.059146	0.1234568	0.09595403	-0.3668666	-1.173973	-2.160131	6.852637
4.075716	0.1112333	0.06295074	-0.7377029	-1.991796	-11.16006	-24.61182
4.092286	0.1002322	0.03728151	-0.6639318	-1.549175	2.226095	13.35641
4.131425	0.09656521	0.02872509	-0.09369194	-0.2186145	10.23607	23.88417
4.147995	0.07211833	-0.01527931	-1.475404	-2.655729	-24.80237	-43.74731
4.16456	0.07211833	-0.01527931	0	0	44.52715	80.1489
4.181215	0.06478426	-0.02628041	-0.4403532	-0.6605296	-13.25555	-19.88332
4.197996	0.05378316	-0.03972619	-0.6555561	-0.8012349	-6.436206	-4.20816
4.214261	0.0440044	-0.05194964	-0.6012178	-0.7515222	1.64431	1.504338
4.230828	0.03055861	-0.06539543	-0.8115893	-0.8115895	-6.407485	-1.829529
4.247393	0.02566923	-0.07028481	-0.2951659	-0.2951658	15.58681	15.58682
4.263961	0.0220022	-0.0727295	-0.2213361	-0.1475576	2.228316	4.455081
4.292581	0.01711282	-0.07639652	-0.1708393	-0.1281292	1.117497	0.4299527
4.309155	0.006111722	-0.08128591	-0.663722	-0.2949879	-10.90578	-3.692005
4.325777	0.006111722	-0.08128591	0	0	19.99405	8.886257
4.342288	-0.002444689	-0.0837306	-0.5182111	-0.1480605	-15.64054	-4.468731
4.359479	-0.007334067	-0.08495294	-0.2844161	-0.07110389	6.937049	2.283418
4.375415	-0.01711282	-0.08739763	-0.6136124	-0.1534028	-9.937307	-2.484322
4.391983	-0.01955751	-0.08739763	-0.1475574	-4.49705E-07	14.33835	4.71948
4.40927	-0.0220022	-0.08739763	-0.1414158	4.309869E-07	0.181411	2.601367E-05
4.425201	-0.02322454	-0.08739763	-0.07672895	0	1.947348	-1.297454E-05
4.447965	-0.02322454	-0.08739763	0	0	1.982924	0
4.464567	-0.02322454	-0.08739763	0	0	0	0
4.481102	-0.02322454	-0.08739763	0	0	0	0
4.49767	-0.02322454	-0.08739763	0	0	0	0
4.514453	-0.02322454	-0.08739763	0	0	0	0
4.530804	-0.02322454	-0.08739763	0	0	0	0
4.547369	-0.02322454	-0.08739763	0	0	0	0
4.563937	-0.02322454	-0.08739763	0	0	0	0
4.580504	-0.02322454	-0.08739763	0	0	0	0
4.601456	-0.02322454	-0.08739763	0	0	0	0
4.618026	-0.02322454	-0.08739763	0	0	0	0
4.634593	-0.02322454	-0.08739763	0	0	0	0
4.651161	-0.02322454	-0.08739763	0	0	0	0
4.667895	-0.02322454	-0.08739763	0	0	0	0
4.684295	-0.02322454	-0.08739763	0	0	0	0
4.703787	-0.02322454	-0.08739763	0	0	0	0
4.72061	-0.02322454	-0.08739763	0	0	0	0
4.736928	-0.02322454	-0.08739763	0	0	0	0
4.753489	-0.02322454	-0.08739763	0	0	0	0
4.770091	-0.02322454	-0.08739763	0	0	0	0
4.786627	-0.02322454	-0.08739763	0	0	0	0
4.803488	-0.02322454	-0.08739763	0	0	0	0
4.819757	-0.02322454	-0.08739763	0	0	0	0
4.836503	-0.02322454	-0.08739763	0	0	0	0
4.852892	-0.02322454	-0.08739763	0	0	0	0
4.869459	-0.02322454	-0.08739763	0	0	0	0
4.886028	-0.02322454	-0.08739763	0	0	0	0
4.902827	-0.02322454	-0.08739763	0	0	0	0
4.929829	-0.02322454	-0.08739763	0	0	0	0
4.946397	-0.02322454	-0.08739763	0	0	0	0
4.962963	-0.02322454	-0.08739763	0	0	0	0
4.980059	-0.02322454	-0.08739763	0	0	0	0
4.996099	-0.02322454	-0.08739763	0	0	0	0
5.012665	-0.02322454	-0.08739763	0	0	0	0
5.029235	-0.02322454	-0.08739763	0	0	0	0
5.045802	-0.02322454	-0.08739763	0	0	0	0
5.062864	-0.02322454	-0.08739763	0	0	0	0
5.089174	-0.02444689	-0.08739763	-0.04646034	-2.831898E-07	-1.071202	-6.529301E-06
5.105744	-0.02444689	-0.08617529	2.248201E-07	0.07376844	1.083512	1.720369
5.122597	-0.02444689	-0.08617529	0	0	-6.72652E-06	-2.207119
5.138878	-0.02444689	-0.08617529	0	0	0	0
5.155444	-0.02444689	-0.08617529	0	0	0	0
5.172011	-0.02444689	-0.08495294	-1.124295E-07	0.07378118	-3.393226E-06	2.226784
5.188851	-0.02444689	-0.08495294	0	0	3.365426E-06	-2.20854
5.205144	-0.02444689	-0.08495294	0	0	0	0
5.221815	-0.02444689	-0.08495294	0	0	0	0
5.238277	-0.02444689	-0.08495294	0	0	0	0
5.254847	-0.02444689	-0.08495294	0	0	0	0
5.27146	-0.02444689	-0.08495294	0	0	0	0
5.287983	-0.02444689	-0.08495294	0	0	0	0
5.304549	-0.02444689	-0.08495294	0	0	0	0
5.321115	-0.02444689	-0.08495294	0	0	0	0
5.337682	-0.02444689	-0.08495294	0	0	0	0
5.354248	-0.02444689	-0.08495294	0	0	0	0
5.370817	-0.02444689	-0.0837306	0	0.07376966	0	2.226341
5.398794	-0.02444689	-0.0837306	0	0	0	-1.656029
5.415366	-0.02444689	-0.08250826	0	0.07375737	0	1.655646
5.431931	-0.02444689	-0.0812859	0	0.07379436	0	0.001116344
5.448675	-0.02444689	-0.0812859	0	0	0	-2.215481
5.465064	-0.02444689	-0.08006357	0	0.07458095	0	2.250922
5.481629	-0.02444689	-0.07884122	0	0.07379135	0	-0.02396067
5.498198	-0.02444689	-0.07884122	0	0	0	-2.227059
5.525568	-0.02444689	-0.07761887	0	0.04466024	0	1.016412
5.5625	-0.02444689	-0.07761887	0	0	0	-0.6945444
5.579078	-0.02444689	-0.07761887	0	0	0	0
5.595634	-0.02444689	-0.07639652	0	0.07383218	0	2.22826
5.61261	-0.02444689	-0.07639652	0	0	0	-2.201833
5.628769	-0.02444689	-0.07517418	0	0.07564663	0	2.282987
5.645339	-0.02444689	-0.07517418	0	0	0	-2.311292
5.661903	-0.02444689	-0.07517418	0	0	0	0
5.678469	-0.02444689	-0.07517418	0	0	0	0
5.695036	-0.02444689	-0.07517418	0	0	0	0
5.714252	-0.02444689	-0.07517418	0	0	0	0
5.731189	-0.02444689	-0.07517418	0	0	0	0
5.747389	-0.02444689	-0.07517418	0	0	0	0
5.763957	-0.02444689	-0.07517418	0	0	0	0
5.78052	-0.02444689	-0.07517418	0	0	0	0
5.802484	-0.02322455	-0.07517419	0.05565189	-3.392167E-07	1.44449	-8.804646E-06
5.819624	-0.02322455	-0.07150715	1.08673E-07	0.2139475	-1.423174	5.471255
5.835621	-0.02322455	-0.07028481	-1.164376E-07	0.07641057	-6.793363E-06	-4.150575
5.85219	-0.02322455	-0.06906246	1.124165E-07	0.07377268	7.027381E-06	-0.08100104
5.87935	-0.02322455	-0.06784012	0	0.04500496	-2.570737E-06	-0.6578591
5.895919	-0.02322455	-0.06784012	0	0	0	-1.029172
5.912604	-0.02322455	-0.06784012	0	0	0	0
5.929475	-0.02322455	-0.06784012	0	0	0	0
5.945621	-0.02322455	-0.06784012	0	0	0	0
5.962187	-0.02322455	-0.06784012	0	0	0	0
5.978754	-0.02322455	-0.06784012	0	0	0	0
5.995358	-0.02322455	-0.06784012	0	0	0	0
6.011888	-0.02322455	-0.06784012	0	0	0	0
6.03903	-0.02322455	-0.06784012	0	0	0	0
6.055793	-0.02322455	-0.06784012	0	0	0	0
6.072165	-0.02322455	-0.06784012	0	0	0	0
6.0889	-0.02322455	-0.06784012	0	0	0	0
6.105298	-0.02322455	-0.06784012	0	0	0	0
6.121868	-0.02322455	-0.06784012	0	0	0	0
6.138434	-0.02322455	-0.06784012	0	0	0	0
6.155554	-0.02322455	-0.06784012	0	0	0	0
6.171567	-0.02322455	-0.06784012	0	0	0	0
6.198123	-0.02322455	-0.06784012	0	0	0	0
6.215333	-0.02322455	-0.06784012	0	0	0	0
6.231272	-0.02322455	-0.06784012	0	0	0	0
6.24783	-0.02322455	-0.06784012	0	0	0	0
6.264593	-0.02322455	-0.06784012	0	0	0	0
6.281113	-0.02322455	-0.06661778	0	0.07399156	0	2.223088
6.297553	-0.02444689	-0.06661777	-0.07435437	4.532138E-07	-2.255934	-2.244912
6.314097	-0.02566924	-0.06661778	-0.07388089	-4.503271E-07	0.01435486	-2.73931E-05
6.334366	-0.02811392	-0.06661777	-0.1206155	3.675952E-07	-1.269505	2.221814E-05
6.361103	-0.02811392	-0.06661777	0	0	2.565979	-7.820233E-06
6.377673	-0.02811392	-0.06784012	1.124101E-07	-0.07376844	2.595638E-06	-1.703372
6.394239	-0.02811392	-0.06784012	0	0	-3.392396E-06	2.22624
6.410807	-0.02811392	-0.06784012	0	0	0	0
6.427373	-0.02811392	-0.06906246	0	-0.07378497	0	-2.226867
6.443941	-0.02811392	-0.06906246	0	0	0	2.226835
6.460507	-0.02811392	-0.06906246	0	0	0	0
6.47722	-0.02811392	-0.06906246	0	0	0	0
6.493731	-0.02811392	-0.06906246	0	0	0	0
6.537267	-0.02566923	-0.06906246	0.05615302	0	0.9351562	0
6.553882	-0.02566923	-0.07028481	0	-0.07356898	-0.9335327	-1.22307
6.570407	-0.02566923	-0.07028481	0	0	0	2.219901
6.587032	-0.02566923	-0.07028481	0	0	0	0
6.603542	-0.02566923	-0.07028481	0	0	0	0
6.620116	-0.02566923	-0.07028481	0	0	0	0
6.637022	-0.02566923	-0.07028481	0	0	0	0
6.653339	-0.02566923	-0.07028481	0	0	0	0
6.697355	-0.02566923	-0.07028481	0	0	0	0
6.713924	-0.02566923	-0.07028481	0	0	0	0
6.730563	-0.02566923	-0.07028481	0	0	0	0
6.747151	-0.02566923	-0.07028481	0	0	0	0
6.763625	-0.02566923	-0.07028481	0	0	0	0
6.780191	-0.02566923	-0.07028481	0	0	0	0
6.796759	-0.02566923	-0.07028481	0	0	0	0
6.813324	-0.02566923	-0.07028481	0	0	0	0
6.830369	-0.02566923	-0.07028481	0	0	0	0
6.847178	-0.02566923	-0.07028481	0	0	0	0
6.863507	-0.02566923	-0.07028481	0	0	0	0
6.880074	-0.02566923	-0.07028481	0	0	0	0
6.897134	-0.02566923	-0.07028481	0	0	0	0
6.913205	-0.02566923	-0.07028481	0	0	0	0
6.929775	-0.02444689	-0.07028481	0.07376798	-4.496403E-07	2.259984	-1.377535E-05
6.946777	-0.02077986	-0.06661777	0.2156813	0.2156816	4.227108	6.424425
6.965492	-0.01833517	-0.06417308	0.1306279	0.1306281	-2.381314	-2.381317
6.998304	-0.01711282	-0.06417308	0.03725234	0	-1.81215	-2.535114
7.014871	-0.01711282	-0.06417308	0	0	-0.7544113	0
7.031441	-0.01711282	-0.06417308	0	0	0	0
7.048011	-0.01711282	-0.06417308	0	0	0	0
7.064577	-0.01711282	-0.06417308	0	0	0	0
7.081143	-0.01711282	-0.06417308	0	0	0	0
7.098201	-0.01711282	-0.06417308	0	0	0	0
7.114275	-0.01711282	-0.06417308	0	0	0	0
7.172266	-0.01711282	-0.06417308	0	0	0	0
7.216276	-0.01711282	-0.06417308	0	0	0	0
7.242778	-0.01711282	-0.06417308	0	0	0	0
7.259349	-0.01711282	-0.06417308	0	0	0	0
7.275915	-0.01711282	-0.06417308	0	0	0	0
7.292482	-0.01711282	-0.06417308	0	0	0	0
7.309209	-0.01711282	-0.06417308	0	0	0	0
7.325618	-0.01711282	-0.06417308	0	0	0	0
7.342184	-0.01711282	-0.06417308	0	0	0	0
7.365748	-0.01711282	-0.06417308	0	0	0	0
7.382316	-0.01711282	-0.06417308	0	0	0	0
7.399084	-0.01589048	-0.06539542	0.07289959	-0.07289948	2.186834	-2.18683
7.415668	-0.01466813	-0.06661777	0.07370659	-0.07370692	0.02419671	-0.02421012
7.432018	-0.01344579	-0.06906246	0.07475764	-0.1495156	0.03191328	-2.30179
7.448586	-0.01222344	-0.07150715	0.07377665	-0.147553	-0.02980035	0.05962107
7.465152	-0.0110011	-0.07517419	0.07378939	-0.2213686	0.0003845199	-2.227824
7.481723	-0.009778756	-0.07884122	0.07376385	-0.2212912	-0.0007705473	0.002334351
7.498284	-0.008556412	-0.08250825	0.07380633	-0.2214191	0.001281995	-0.003859702
7.521745	-0.007334067	-0.08617529	0.05210249	-0.1563075	-0.5422992	1.6269
7.538312	-0.004889378	-0.09228701	0.1475575	-0.3688939	2.3847	-5.31093
7.554881	-0.004889378	-0.09350936	0	-0.07377481	-4.453037	8.906199
7.571964	-0.003667034	-0.09595405	0.07155254	-0.1431049	2.12626	-2.060217
7.588315	-0.002444689	-0.09962108	0.07475992	-0.2242797	0.09593324	-2.427955
7.604581	-0.001222345	-0.1032881	0.0751434	-0.2254303	0.01175684	-0.03527349
7.62115	0	-0.1069551	0.07377662	-0.2213294	-0.04162567	0.124892
7.637715	0.001222344	-0.1093998	0.07378935	-0.1475789	0.000384295	2.22586
7.654505	0.001222344	-0.1106222	0	-0.07280218	-2.212227	2.241828
7.676881	0.001222345	-0.1118445	5.202562E-09	-0.05462607	1.328321E-07	0.4640734
7.693453	0.002444689	-0.1142892	0.07376176	-0.1475241	1.893849	-2.385178
7.710019	0.002444689	-0.1142892	0	0	-2.225942	4.451903
7.726586	0.002444689	-0.1142892	0	0	0	0
7.743153	0.002444689	-0.1155116	-1.405409E-08	-0.0737824	-4.241533E-07	-2.226757
7.759719	0.002444689	-0.1155116	0	0	4.241777E-07	2.226885
7.776287	0.002444689	-0.1167339	1.405328E-08	-0.07377905	4.241411E-07	-2.22672
7.792853	0.002444689	-0.1167339	0	0	-4.241289E-07	2.226656
7.80942	0.002444689	-0.1167339	0	0	0	0
7.830879	0.002444689	-0.1167339	0	0	0	0
7.847451	0.002444689	-0.1167339	0	0	0	0
7.86402	0.002444689	-0.1167339	0	0	0	0
7.880583	0.002444689	-0.1167339	0	0	0	0
7.897357	0.002444689	-0.1167339	0	0	0	0
7.913796	0.002444689	-0.1167339	0	0	0	0
7.930284	0.002444689	-0.1167339	0	0	0	0
7.947368	0.002444689	-0.1167339	0	0	0	0
7.964057	0.002444689	-0.1167339	0	0	0	0
7.986037	0.002444689	-0.1167339	0	0	0	0
8.002833	0.002444689	-0.1167339	0	0	0	0
8.019174	0.002444689	-0.1167339	0	0	0	0
8.040858	0.002444689	-0.1167339	0	0	0	0
8.057429	0.002444689	-0.1167339	0	0	0	0
8.073997	0.002444689	-0.1167339	0	0	0	0
8.090631	0.002444689	-0.1167339	0	0	0	0
8.107543	0.002444689	-0.1167339	0	0	0	0
8.1237	0.002444689	-0.1167339	0	0	0	0
8.156776	0.002444689	-0.1167339	0	0	0	0
8.173347	0.002444689	-0.1167339	0	0	0	0
8.189913	0.002444689	-0.1167339	0	0	0	0
8.206479	0.003667034	-0.1167339	0.07378511	0	2.227031	0
8.223513	0.003667034	-0.1155116	0	0.07176118	-2.195995	2.135759
8.239612	0.003667033	-0.1142892	-2.89249E-08	0.07592717	-8.730055E-07	0.1257369
8.256181	0.003667033	-0.1118445	0	0.1475445	8.85417E-07	2.192269
8.272748	0.003667033	-0.1093998	0	0.1475614	0	0.000512649
8.292692	0.003667034	-0.1032881	1.167411E-08	0.3064414	3.197385E-07	4.351514
8.30943	0.001222344	-0.09350935	-0.1460568	0.5842268	-3.981688	7.572773
8.32583	0	-0.08984232	-0.074536	0.223608	2.158315	-10.88256
8.342838	-0.003667034	-0.0837306	-0.2155965	0.3593273	-4.222335	4.062456
8.358963	-0.008556412	-0.07517418	-0.3032224	0.5306396	-2.644632	5.170367
8.375603	-0.01344579	-0.06906246	-0.293838	0.3672972	0.286422	-4.985358
8.392096	-0.01711282	-0.05928371	-0.2223409	0.5929089	2.15791	6.809365
8.40866	-0.02444689	-0.04706027	-0.4427616	0.737936	-6.667855	4.387156
8.425227	-0.0330033	-0.03728151	-0.516466	0.5902472	-2.224594	-4.457644
8.445221	-0.04644909	-0.01894634	-0.6724986	0.9170434	-4.267734	8.938382
8.461788	-0.06356192	-0.0006111722	-1.032932	1.106713	-9.858412	5.187749
8.478356	-0.06967364	0.00550055	-0.3688828	0.3688831	20.04047	-22.26711
8.49548	-0.07945239	0.01650165	-0.5710813	0.6424667	-6.001486	8.120278
8.511492	-0.09045349	0.0262804	-0.6870454	0.6107068	-3.499701	-0.9584869
8.528528	-0.09778757	0.03605916	-0.4304935	0.5739908	7.76286	-1.11097
8.544622	-0.1112333	0.0507273	-0.8354422	0.911392	-12.22278	10.18396
8.561193	-0.1161227	0.05806137	-0.2950729	0.4426088	16.54312	-14.35155
8.578097	-0.1234568	0.06661777	-0.4338445	0.5061516	-4.145542	1.89822
8.603045	-0.1283462	0.0727295	-0.1959818	0.2449774	5.683298	-6.24028
8.619621	-0.1393473	0.08250825	-0.6636836	0.5899411	-11.26343	8.307587
8.636466	-0.1430143	0.08495294	-0.2176955	0.1451308	13.34472	-13.30948
8.65275	-0.1466813	0.08861998	-0.2251931	0.2251926	-0.2263156	2.416688
8.669544	-0.1479037	0.08984232	-0.07278357	0.07278357	4.607553	-4.607538
8.685885	-0.1479037	0.08984232	0	0	2.196549	-2.196549
8.702468	-0.1479037	0.08984232	0	0	0	0
8.719016	-0.1479037	0.08984232	0	0	0	0
8.73558	-0.1479037	0.08984232	0	0	0	0
8.758448	-0.1320132	0.08128592	0.6949026	-0.374178	17.623	-9.489299
8.775018	-0.08311942	0.05806137	2.950725	-1.401595	57.20023	-26.05191
8.791584	-0.05256081	0.04706027	1.844627	-0.6640659	-33.38016	22.25738
8.808148	0.0220022	0.017724	4.50141	-1.771047	80.19108	-33.41259
8.824724	0.1149004	-0.006722894	5.604442	-1.474853	33.28384	8.937593
8.841283	0.2505806	-0.03239213	8.19392	-1.550201	78.1506	-2.274011
8.857853	0.330033	-0.04339323	4.79493	-0.6639132	-102.5994	26.75285
8.885413	0.3923726	-0.04828261	2.261939	-0.1774069	-57.39796	11.02431
8.911635	0.4681579	-0.0507273	2.890117	-0.09322961	11.67997	1.565144
8.928205	0.4877155	-0.05194964	1.180359	-0.07377223	-39.95567	0.4547035
8.944771	0.4877155	-0.05194964	0	0	-35.62229	2.226386
8.961335	0.4877155	-0.05194964	0	0	0	0
8.977904	0.4877155	-0.05194964	0	0	0	0
8.994473	0.4877155	-0.0507273	0	0.07377648	0	2.226386
9.011037	0.4877155	-0.0507273	0	0	0	-2.226707
9.027606	0.4877155	-0.0507273	0	0	0	0
9.04417	0.4877155	-0.0507273	0	0	0	0
9.06074	0.4730473	-0.06050605	-0.8852686	-0.5901787	-26.71823	-17.81214
9.085622	0.4461558	-0.08006357	-1.08075	-0.7860007	-4.715909	-4.724127
9.102194	0.3349224	-0.159516	-6.712127	-4.794376	-135.8454	-96.69381
9.119099	0.3031414	-0.1851852	-1.879993	-1.518455	144.3427	97.85637
9.135693	0.2432466	-0.2291896	-3.609444	-2.651837	-51.62732	-33.83355
9.151891	0.2041315	-0.2609706	-2.414783	-1.962011	36.43137	21.03638
9.169054	0.17724	-0.2841951	-1.566809	-1.353153	25.4178	18.25035
9.185023	0.1552377	-0.3037526	-1.377784	-1.224696	5.705123	3.877058
9.201596	0.1307909	-0.3245325	-1.475108	-1.253843	-2.990703	-0.8956679
9.218163	0.106344	-0.3465347	-1.475617	-1.328055	-0.0153741	-2.239335
9.257594	0.0770077	-0.3685369	-0.7439971	-0.5579976	13.06515	13.75155
9.274161	0.04155971	-0.386872	-2.139645	-1.106713	-24.92324	-9.798861
9.290729	0.03667033	-0.3893167	-0.2951236	-0.1475614	55.66776	28.94724
9.307381	0.03422565	-0.3905391	-0.1468095	-0.07340645	4.46469	2.232284
9.323864	0.02689158	-0.3929838	-0.4449391	-0.1483127	-8.99731	-2.260612
9.340431	0.02566924	-0.3929838	-0.07378072	0	11.23003	4.487453
9.356997	0.02566924	-0.3929838	0	0	2.226771	0
9.373564	0.02566924	-0.3929838	0	0	0	0
9.391955	0.02566924	-0.3929838	0	0	0	0
9.408525	0.02566924	-0.3929838	0	0	0	0
9.42509	0.02566924	-0.3929838	0	0	0	0
9.441859	0.02566924	-0.3929838	0	0	0	0
9.458222	0.02566924	-0.3929838	0	0	0	0
9.475004	0.02566924	-0.3929838	0	0	0	0
9.491358	0.02566924	-0.3929838	0	0	0	0
9.507925	0.02566924	-0.3929838	0	0	0	0
9.524491	0.02566924	-0.3929838	0	0	0	0
9.541058	0.02566924	-0.3929838	0	0	0	0
9.557621	0.02566923	-0.3942061	-2.249107E-07	-0.07379772	-6.788797E-06	-2.22754
9.57419	0.02566923	-0.3942061	0	0	6.788211E-06	2.227348
9.590759	0.02566923	-0.3942061	0	0	0	0
9.607326	0.02566923	-0.3942061	0	0	0	0
9.623893	0.02566923	-0.3942061	0	0	0	0
9.640459	0.02566923	-0.3942061	0	0	0	0
9.657025	0.02566923	-0.3942061	0	0	0	0
9.681645	0.02566923	-0.3942061	0	0	0	0
9.702018	0.02566923	-0.3942061	0	0	0	0
9.71859	0.02566923	-0.3942061	0	0	0	0
9.735158	0.02566923	-0.3942061	0	0	0	0
9.751722	0.02566923	-0.3942061	0	0	0	0
9.768288	0.02689158	-0.3917614	0.07378956	0.1475784	2.227294	4.454567
9.784853	0.03178096	-0.379538	0.2951574	0.737894	6.681664	17.81781
9.801726	0.03667034	-0.3624251	0.2897692	1.014192	-0.1611376	8.262818
9.8183	0.04155971	-0.3379782	0.2950042	1.475024	0.1565164	13.77787
9.834636	0.04644909	-0.308642	0.2993103	1.79586	0.1308465	9.749069
9.851282	0.05133847	-0.2817504	0.29372	1.615461	-0.1694967	-5.469625
9.877845	0.05867254	-0.2291896	0.2761041	1.978746	-0.4076895	8.407607
9.894414	0.06722895	-0.1656277	0.5164067	3.836162	5.571352	43.0637
9.911213	0.06967364	-0.1521819	0.1455258	0.8003947	-11.11483	-90.9781
9.927547	0.07089598	-0.127735	0.07483615	1.496725	-2.133542	21.01649
9.944114	0.07211832	-0.1032881	0.07378072	1.475618	-0.03207906	-0.6415403
9.96068	0.0770077	-0.07884122	0.2951408	1.475702	6.680852	0.002536482
9.977245	0.07823005	-0.05683902	0.07378922	1.328208	-6.68098	-4.451739
9.993814	0.07945239	-0.03728151	0.07377648	1.180426	-0.0003845199	-4.460208
10.01058	0.08067474	-0.017724	0.07290822	1.166526	-0.02604725	-0.4169849
10.03655	0.0794524	0.004278206	-0.04706837	0.8472322	-2.807449	-7.471475
10.05314	0.07334067	0.04094854	-0.3683532	2.210118	-7.548715	32.02154
10.07007	0.07334067	0.04094854	0	0	10.98977	-65.93856
10.08632	0.07089598	0.05194964	-0.1504541	0.677045	-4.535233	20.40859
10.10282	0.06722894	0.06417309	-0.2221359	0.7404512	-2.188301	1.935666
10.11939	0.06478426	0.0727295	-0.1475869	0.5165552	2.254108	-6.769861
10.13616	0.06233957	0.07884122	-0.145758	0.3643947	0.05486406	-4.564362
10.15285	0.05989488	0.08495294	-0.1464907	0.3662267	-0.02189976	0.05475207
10.16909	0.05745019	0.09106466	-0.1505074	0.3762683	-0.1219697	0.3049244
10.1924	0.05622784	0.0947317	-0.05243721	0.1573115	2.479422	-5.535693
10.20897	0.05133847	0.1032881	-0.2950722	0.5163768	-6.084012	9.003474
10.22554	0.05133847	0.1045105	-2.24859E-07	0.07378118	8.90452	-13.35641
10.2421	0.05011613	0.1057328	-0.07379347	0.07379392	-2.227277	0.000384542
10.25867	0.04889378	0.1069551	-0.0737767	0.07377603	0.0005061867	-0.0005399174
10.27524	0.04889378	0.1081775	0	0.07378497	2.226585	0.0002698308
10.29196	0.04889378	0.1081775	0	0	0	-2.216818
10.30837	0.04889378	0.1081775	0	0	0	0
10.32494	0.04889378	0.1093998	0	0.07376419	0	2.236313
10.36358	0.04767144	0.1093998	-0.03163566	0	-0.5730147	-1.336086
10.38015	0.04767144	0.1093998	0	0	0.5730147	0
10.39672	0.04767144	0.1093998	0	0	0	0
10.41361	0.04767144	0.1093998	0	0	0	0
10.42985	0.04767144	0.1093998	0	0	0	0
10.44642	0.04767144	0.1093998	0	0	0	0
10.46299	0.04767144	0.1093998	0	0	0	0
10.48145	0.04767144	0.1093998	0	0	0	0
10.52332	0.04767144	0.1093998	0	0	0	0
10.53989	0.04767144	0.1093998	0	0	0	0
10.55646	0.04767144	0.1093998	0	0	0	0
10.57302	0.04767144	0.1093998	0	0	0	0
10.58959	0.04767144	0.1093998	0	0	0	0
10.60616	0.04767144	0.1093998	0	0	0	0
10.62272	0.04767144	0.1093998	0	0	0	0
10.63929	0.04767144	0.1093998	0	0	0	0
10.65586	0.04767144	0.1093998	0	0	0	0
10.6883	0.04767144	0.1093998	0	0	0	0
10.7051	0.04767144	0.1093998	0	0	0	0
10.72143	0.04767144	0.1093998	0	0	0	0
10.73809	0.04767144	0.1093998	0	0	0	0
10.75465	0.04767144	0.1093998	0	0	0	0
10.77113	0.04767144	0.1093998	0	0	0	0
10.78806	0.04767144	0.1093998	0	0	0	0
10.80426	0.04767144	0.1093998	0	0	0	0
10.82083	0.04522675	0.1081775	-0.1475704	-0.07378497	-4.50267	-2.251328
10.83837	0.04033737	0.1057328	-0.2788319	-0.1394162	-3.849144	-1.924585
10.85493	0.03667033	0.1045105	-0.2213171	-0.07377223	1.686436	1.924797
10.8715	0.03667033	0.1045105	0	0	6.67898	2.226322
10.88814	0.03667033	0.1045105	0	0	0	0
10.90463	0.03544799	0.1032881	-0.0741135	-0.0741135	-2.237007	-2.237007
10.9212	0.03544799	0.1032881	0	0	2.241524	2.241524
10.93777	0.03544799	0.1032881	0	0	0	0
10.95466	0.03422564	0.1032881	-0.0723567	-4.410353E-07	-2.162629	-1.318186E-05
10.9709	0.03422564	0.1032881	0	0	2.183604	1.330971E-05
10.99637	0.03422564	0.1032881	0	0	0	0
11.01293	0.03422564	0.1032881	0	0	0	0
11.02982	0.03422564	0.1032881	0	0	0	0
11.04607	0.03422564	0.1032881	0	0	0	0
11.06264	0.03422564	0.1032881	0	0	0	0
11.07972	0.03422564	0.1032881	0	0	0	0
11.09577	0.03422564	0.1032881	0	0	0	0
11.11272	0.03422564	0.1032881	0	0	0	0
11.12921	0.03422564	0.1032881	0	0	0	0
11.17192	0.03422564	0.1032881	0	0	0	0
11.18849	0.03422564	0.1032881	0	0	0	0
11.20506	0.03422564	0.1032881	0	0	0	0
11.22162	0.03422564	0.1032881	0	0	0	0
11.23822	0.03422564	0.1032881	0	0	0	0
11.25476	0.03422564	0.1032881	0	0	0	0
11.27133	0.03422564	0.1032881	0	0	0	0
11.28809	0.03422564	0.1032881	0	0	0	0
11.31302	0.03422564	0.1032881	0	0	0	0
11.33137	0.03422564	0.1032881	0	0	0	0
11.34795	0.03422564	0.1032881	0	0	0	0
11.36451	0.03422564	0.1032881	0	0	0	0
11.38108	0.03422564	0.1032881	0	0	0	0
11.39764	0.03422564	0.1032881	0	0	0	0
11.41421	0.03422564	0.1032881	0	0	0	0
11.43098	0.03422564	0.1032881	0	0	0	0
11.44739	0.03422564	0.1032881	0	0	0	0
11.47097	0.03422564	0.1032881	0	0	0	0
11.48754	0.03422564	0.1032881	0	0	0	0
11.50418	0.03422564	0.1032881	0	0	0	0
11.52074	0.03422564	0.1032881	0	0	0	0
11.53778	0.03422564	0.1032881	0	0	0	0
11.5538	0.03422564	0.1032881	0	0	0	0
11.57037	0.03422564	0.1032881	0	0	0	0
11.58699	0.03422564	0.1032881	0	0	0	0
11.60351	0.03422564	0.1032881	0	0	0	0
11.62049	0.03422564	0.1032881	0	0	0	0
11.63698	0.03422564	0.1032881	0	0	0	0
11.6532	0.03422564	0.1032881	0	0	0	0
11.66977	0.03422564	0.1032881	0	0	0	0
11.68634	0.03422564	0.1032881	0	0	0	0
11.70291	0.03422564	0.1032881	0	0	0	0
11.71947	0.03422564	0.1032881	0	0	0	0
11.73604	0.03422564	0.1032881	0	0	0	0
11.7526	0.03422564	0.1032881	0	0	0	0
11.78154	0.03422564	0.1032881	0	0	0	0
11.79811	0.03422564	0.1032881	0	0	0	0
11.81469	0.03422564	0.1032881	0	0	0	0
11.83125	0.03422564	0.1032881	0	0	0	0
11.84798	0.03422564	0.1032881	0	0	0	0
11.86438	0.03422564	0.1032881	0	0	0	0
11.88102	0.03422564	0.1032881	0	0	0	0
11.89754	0.03422564	0.1032881	0	0	0	0
11.91408	0.03422564	0.1032881	0	0	0	0
11.93478	0.03422564	0.1032881	0	0	0	0
11.95136	0.03422564	0.1032881	0	0	0	0
11.96793	0.03422564	0.1032881	0	0	0	0
11.98449	0.03422564	0.1032881	0	0	0	0
12.00168	0.03422564	0.1032881	0	0	0	0
12.01762	0.03422564	0.1032881	0	0	0	0
12.03419	0.03422564	0.1032881	0	0	0	0
12.05076	0.03422564	0.1032881	0	0	0	0
12.06732	0.03422564	0.1032881	0	0	0	0
12.09872	0.03422564	0.1032881	0	0	0	0
12.11529	0.03422564	0.1032881	0	0	0	0
12.13221	0.03422564	0.1032881	0	0	0	0
12.14843	0.03422564	0.1032881	0	0	0	0
12.16499	0.03422564	0.1032881	0	0	0	0
12.18156	0.03422564	0.1032881	0	0	0	0
12.19813	0.03422564	0.1032881	0	0	0	0
12.2147	0.03422564	0.1032881	0	0	0	0
12.23126	0.03422564	0.1032881	0	0	0	0
12.25677	0.03422564	0.1032881	0	0	0	0
12.27385	0.03422564	0.1032881	0	0	0	0
12.28991	0.03422564	0.1032881	0	0	0	0
12.30648	0.03422564	0.1032881	0	0	0	0
12.32304	0.03422564	0.1032881	0	0	0	0
12.33961	0.03422564	0.1032881	0	0	0	0
12.35635	0.03422564	0.1032881	0	0	0	0
12.37274	0.03422564	0.1032881	0	0	0	0
12.3896	0.03422564	0.1032881	0	0	0	0
12.42626	0.03422564	0.1032881	0	0	0	0
12.44283	0.03422564	0.1032881	0	0	0	0
12.45978	0.03422564	0.1032881	0	0	0	0
12.47608	0.03422564	0.1032881	0	0	0	0
12.49253	0.03422564	0.1032881	0	0	0	0
12.50931	0.03422564	0.1032881	0	0	0	0
12.52567	0.03422564	0.1032881	0	0	0	0
12.54229	0.03422564	0.1032881	0	0	0	0
12.55881	0.03422564	0.1032881	0	0	0	0
12.65397	0.03422564	0.1032881	0	0	0	0
12.67072	0.03422564	0.1032881	0	0	0	0
12.68724	0.03422564	0.1032881	0	0	0	0
12.70368	0.03544799	0.092287	0.07437606	-0.6693839	2.25656	-20.30902
12.72024	0.03789268	0.07395184	0.1475789	-1.10684	2.218268	-13.25625
12.7386	0.04155971	0.05439433	0.1997384	-1.065271	1.493493	1.190253
12.75517	0.05256081	0.01161227	0.6640659	-2.582479	13.29481	-43.44131
12.77183	0.0550055	0.001833517	0.1467087	-0.5868351	-15.56906	60.05579
12.78849	0.05745019	-0.006722894	0.1467341	-0.5135688	0.0007628495	2.198588
12.80556	0.06356192	-0.03116979	0.3581227	-1.432491	6.267693	-27.24613
12.8215	0.06722894	-0.04461557	0.2300422	-0.8434898	-3.880441	17.84491
12.83812	0.07089598	-0.05683902	0.2206821	-0.7356067	-0.2874974	3.313619
12.85472	0.07456301	-0.07028481	0.2208468	-0.8097714	0.00495999	-2.232449
12.87114	0.07578535	-0.07884122	0.0744536	-0.5211761	-4.433213	8.739506
12.89295	0.07823005	-0.08495294	0.1120828	-0.2802068	0.9843101	6.303314
12.90952	0.08067473	-0.09839873	0.147553	-0.8115426	0.9241917	-13.8442
12.92702	0.08189709	-0.1020658	0.0698569	-0.209569	-2.280737	17.6707
12.94265	0.08311943	-0.1081775	0.07816788	-0.3908399	0.2508187	-5.470609
12.95922	0.08434177	-0.1142892	0.07376798	-0.3688404	-0.136611	0.6830557
12.97581	0.08556411	-0.1191786	0.07371283	-0.2948522	-0.001663496	2.231746
12.99245	0.08678646	-0.124068	0.07344251	-0.29377	-0.008135853	0.03257032
13.0203	0.08678646	-0.1265127	2.675147E-07	-0.08777747	-1.650587	4.629605
13.04167	0.08678646	-0.127735	0	-0.05719405	-5.434757E-06	0.6213243
13.05824	0.08678646	-0.127735	0	0	0	1.507372
13.07481	0.08678646	-0.127735	0	0	0	0
13.09138	0.08678646	-0.127735	0	0	0	0
13.10794	0.08678646	-0.127735	0	0	0	0
13.12515	0.08678646	-0.127735	0	0	0	0
13.14132	0.08678646	-0.127735	0	0	0	0
13.15764	0.08678646	-0.127735	0	0	0	0
13.17421	0.08678646	-0.127735	0	0	0	0
13.19078	0.08678646	-0.127735	0	0	0	0
13.21163	0.08678646	-0.127735	0	0	0	0
13.2282	0.08678646	-0.127735	0	0	0	0
13.24477	0.08678646	-0.127735	0	0	0	0
13.26133	0.08678646	-0.127735	0	0	0	0
13.2779	0.08678646	-0.127735	0	0	0	0
13.29478	0.08678646	-0.127735	0	0	0	0
13.31104	0.08678646	-0.127735	0	0	0	0
13.3276	0.08678646	-0.127735	0	0	0	0
13.34417	0.08678646	-0.127735	0	0	0	0
13.36933	0.08678646	-0.127735	0	0	0	0
13.38596	0.08678646	-0.127735	0	0	0	0
13.40303	0.08678646	-0.127735	0	0	0	0
13.41914	0.08678646	-0.127735	0	0	0	0
13.4356	0.08678646	-0.127735	0	0	0	0
13.45217	0.08556411	-0.127735	-0.07378967	0	-2.234566	0
13.46873	0.08311942	-0.1252903	-0.1475874	0.1475878	-2.22754	4.454851
13.4853	0.0794524	-0.124068	-0.2213294	0.07377603	-2.225667	-2.227773
13.50187	0.0770077	-0.1228456	-0.1475619	0.07378118	2.226245	0.0001553731
13.52526	0.07089598	-0.1191786	-0.261288	0.1567727	-2.84614	2.076969
13.54183	0.05867254	-0.1142892	-0.7376385	0.295055	-11.92014	3.46036
13.55853	0.05867254	-0.1142892	0	0	22.16818	-8.86726
13.57496	0.05622785	-0.1130669	-0.1487864	0.07439356	-4.490383	2.245202
13.59153	0.05622785	-0.1130669	0	0	4.509071	-2.254546
13.60813	0.05622785	-0.1130669	0	0	0	0
13.62467	0.05622785	-0.1130669	0	0	0	0
13.64123	0.05622785	-0.1130669	0	0	0	0
13.65779	0.05622785	-0.1130669	0	0	0	0
13.68037	0.05622785	-0.1130669	0	0	0	0
13.69694	0.05745019	-0.1142892	0.07375547	-0.0737557	1.884046	-1.884052
13.7135	0.06478427	-0.1179563	0.4428384	-0.2214191	11.13895	-4.45649
13.7302	0.08067474	-0.131402	0.9516459	-0.8052385	15.29816	-17.55352
13.74664	0.1051216	-0.1485149	1.487433	-1.041203	16.17054	-7.121627
13.76333	0.1332355	-0.1692947	1.684163	-1.244815	5.938356	-6.146097
13.77977	0.1637942	-0.1912969	1.858752	-1.338303	5.269274	-2.821532
13.79634	0.1919081	-0.2096321	1.69696	-1.106712	-4.90166	7.016288
13.81315	0.212688	-0.2243002	1.2362	-0.8726136	-13.80484	7.013821
13.85077	0.2322454	-0.2353013	0.519862	-0.2924218	-13.16072	10.65941
13.86734	0.2615817	-0.2511918	1.770028	-0.9587658	23.06815	-12.29543
13.88392	0.2640264	-0.2511918	0.147485	0	-48.9459	28.92229
13.90056	0.2652487	-0.2524141	0.07344251	-0.07344251	-2.228899	-2.210836
13.91704	0.2652487	-0.2536365	0	-0.07416067	-2.217074	-0.02167955
13.93361	0.2652487	-0.2536365	0	0	0	2.24431
13.95017	0.2652487	-0.2536365	0	0	0	0
13.96674	0.2652487	-0.2536365	0	0	0	0
13.98775	0.2652487	-0.2536365	0	0	0	0
14.00431	0.2652487	-0.2536365	0	0	0	0
14.02088	0.2652487	-0.2536365	0	0	0	0
14.03745	0.2652487	-0.2536365	0	0	0	0
14.05401	0.2652487	-0.2524141	0	0.07378497	0	2.226899
14.07058	0.2652487	-0.2524141	0	0	0	-2.226835
14.08715	0.2652487	-0.2524141	0	0	0	0
14.10372	0.2652487	-0.2524141	0	0	0	0
14.12083	0.2652487	-0.2524141	0	0	0	0
14.13685	0.2652487	-0.2524141	0	0	0	0
14.15736	0.2652487	-0.2524141	0	0	0	0
14.17395	0.2652487	-0.2524141	0	0	0	0
14.1905	0.2652487	-0.2524141	0	0	0	0
14.20707	0.2652487	-0.2524141	0	0	0	0
14.22363	0.2652487	-0.2524141	0	0	0	0
14.2402	0.2652487	-0.2524141	0	0	0	0
14.25677	0.2652488	-0.2511918	1.798975E-06	0.07378497	5.429475E-05	2.226899
14.27333	0.2652488	-0.2511918	0	0	-5.429631E-05	-2.226963
14.29016	0.2652488	-0.2511918	0	0	0	0
14.31068	0.2652488	-0.2511918	0	0	0	0
14.32725	0.2640264	-0.2475248	-0.07378072	0.2213413	-1.989065	5.967172
14.34382	0.2640264	-0.2475248	0	0	2.226578	-6.679708
14.36039	0.2628041	-0.2475248	-0.07377403	1.798665E-06	-2.226249	5.427756E-05
14.37696	0.2615817	-0.2463024	-0.07377893	0.07377983	-0.0001477238	2.226497
14.39391	0.2579147	-0.241413	-0.2163134	0.2884164	-4.252255	6.403289
14.41009	0.2530253	-0.237746	-0.3022031	0.2266523	-2.592378	-1.864207
14.42666	0.2444689	-0.2279673	-0.5164362	0.5902127	-6.542016	11.10201
14.44322	0.2334678	-0.2181885	-0.6640674	0.5902825	-4.455519	0.002106479
14.47575	0.223689	-0.2047427	-0.3005907	0.4133127	7.403084	-3.604419
14.49232	0.184574	-0.1607383	-2.360853	2.655958	-41.96059	45.67513
14.5089	0.1760176	-0.1509596	-0.5161985	0.5899411	55.65575	-62.33456
14.52546	0.1589048	-0.131402	-1.033467	1.181106	-15.61121	17.8414
14.54202	0.1430143	-0.1130669	-0.9592608	1.10684	2.24027	-2.242064
14.55859	0.1271238	-0.09350935	-0.959096	1.180426	0.004972225	2.220886
14.57537	0.1112334	-0.07395185	-0.9471025	1.165664	0.3596655	-0.4426765
14.59172	0.09778757	-0.05561668	-0.822095	1.121039	3.772843	-1.346833
14.60841	0.08556411	-0.04094854	-0.7327475	0.8792966	2.704454	-7.317283
14.62485	0.07211832	-0.01894634	-0.8174719	1.337681	-2.557354	13.83605
14.64184	0.06356191	-0.00550055	-0.5037363	0.7915856	9.383754	-16.33357
14.65799	0.06111722	-0.001833517	-0.1513781	0.2270676	10.63388	-17.0367
14.67465	0.0550055	0.00794524	-0.3668769	0.5870031	-6.568421	10.97086
14.69112	0.04644909	0.02261337	-0.519396	0.8903932	-4.603301	9.156859
14.70769	0.03911503	0.03239213	-0.442685	0.5902469	2.32169	-9.084056
14.72466	0.0330033	0.04339323	-0.3602164	0.648389	2.459251	1.733822
14.74092	0.02566923	0.05439433	-0.4508868	0.6763304	-2.728352	0.8407826
14.75739	0.01955751	0.06539543	-0.3710831	0.6679495	2.43781	-0.2560177
14.77396	0.01344579	0.07150716	-0.3689255	0.3689258	0.06531098	-9.051388
14.80071	0.008556412	0.07884122	-0.182731	0.2740966	4.297769	-2.188861
14.81728	0	0.09106466	-0.5164066	0.7377232	-7.701441	10.70079
14.83395	-0.001222344	0.09350935	-0.07334598	0.1466922	13.33131	-17.78361
14.85042	-0.002444689	0.0947317	-0.07419944	0.0741993	-0.02575366	-2.187524
14.86716	-0.004889378	0.09717639	-0.1460984	0.1460986	-2.165178	2.165188
14.88355	-0.006111722	0.1008434	-0.07454898	0.2236471	2.159676	2.340756
14.90012	-0.007334067	0.1008434	-0.07378514	0	0.02317282	-6.784832
14.91704	-0.007334067	0.1020658	0	0.07222985	2.20325	2.156809
14.93325	-0.007334067	0.1020658	0	0	0	-2.179964
14.95925	-0.007334067	0.1020658	0	0	0	0
14.97582	-0.007334067	0.1020658	0	0	0	0
14.99262	-0.007334067	0.1020658	0	0	0	0
15.00895	-0.007334067	0.1020658	0	0	0	0
15.02552	-0.007334067	0.1020658	0	0	0	0
15.04209	-0.007334067	0.1020658	0	0	0	0
15.05866	-0.007334067	0.1020658	0	0	0	0
15.07522	-0.007334067	0.1020658	0	0	0	0
15.09179	-0.007334067	0.1020658	0	0	0	0
15.11872	-0.007334067	0.1020658	0	0	0	0
15.13532	-0.007334067	0.1020658	0	0	0	0
15.15186	-0.007334067	0.1020658	0	0	0	0
15.16843	-0.007334067	0.1020658	0	0	0	0
15.185	-0.007334067	0.1020658	0	0	0	0
15.20156	-0.007334067	0.1020658	0	0	0	0
15.21813	-0.007334067	0.1020658	0	0	0	0
15.2347	-0.007334067	0.1020658	0	0	0	0
15.25127	-0.007334067	0.1020658	0	0	0	0
15.28312	-0.007334067	0.1020658	0	0	0	0
15.29969	-0.007334067	0.1020658	0	0	0	0
15.31625	-0.007334067	0.1020658	0	0	0	0
15.33282	-0.007334067	0.1020658	0	0	0	0
15.3495	-0.007334067	0.1020658	0	0	0	0
15.36596	-0.007334067	0.1020658	0	0	0	0
15.38269	-0.007334067	0.1020658	0	0	0	0
15.39909	-0.007334067	0.1020658	0	0	0	0
15.48765	-0.007334067	0.1020658	0	0	0	0
15.51695	-0.009778756	0.09350935	-0.08342908	-0.2920018	-0.7078211	-2.477374
15.53352	-0.0110011	0.08984233	-0.07376815	-0.221304	0.2106029	1.541175
15.55009	-0.0110011	0.08739763	0	-0.1475449	2.226007	2.225732
15.56666	-0.01222345	0.08495294	-0.07377665	-0.1475534	-2.226391	-0.0002563171
15.58322	-0.01344579	0.08250826	-0.07380633	-0.1476124	-0.0008959671	-0.001782039
15.59979	-0.01344579	0.08006357	0	-0.1475449	2.227736	0.002038356
15.6165	-0.01344579	0.07639653	0	-0.219523	0	-2.163212
15.63293	-0.01466813	0.07517419	-0.07438458	-0.07438447	-2.244737	4.37991
15.6495	-0.01466813	0.06906246	0	-0.3689258	2.254144	-8.925754
15.68409	-0.01589048	0.06539542	-0.03533634	-0.1060094	-0.6907302	5.139307
15.70074	-0.01589048	0.06050605	-1.118564E-07	-0.2936186	0.6895711	-3.661113
15.71722	-0.01589048	0.06050605	0	0	3.375736E-06	8.861174
15.73379	-0.01589048	0.05928371	0	-0.07376798	0	-2.231782
15.75036	-0.01589048	0.05806136	1.124165E-07	-0.07377268	3.39225E-06	-0.0001418656
15.76743	-0.01589048	0.05683902	-1.091436E-07	-0.07162441	-6.587163E-06	0.06387005
15.78382	-0.01589048	0.05683902	0	0	3.262411E-06	2.140924
15.80006	-0.01589048	0.05683902	0	0	0	0
15.81663	-0.01589048	0.05683902	0	0	0	0
15.85619	-0.01589048	0.05683902	0	0	0	0
15.87276	-0.01589048	0.05683902	0	0	0	0
15.88933	-0.01589048	0.05683902	0	0	0	0
15.90589	-0.01589048	0.05683902	0	0	0	0
15.92246	-0.01589048	0.05683902	0	0	0	0
15.9391	-0.01589048	0.05683902	0	0	0	0
15.95559	-0.01589048	0.05683902	0	0	0	0
15.97216	-0.01589048	0.05683902	0	0	0	0
15.98876	-0.01589048	0.05683902	0	0	0	0
16.00529	-0.01589048	0.05683902	0	0	0	0
16.02199	-0.01589048	0.05683902	0	0	0	0
16.03843	-0.01589048	0.05683902	0	0	0	0
16.05499	-0.01589048	0.05683902	0	0	0	0
16.07157	-0.01589048	0.05683902	0	0	0	0
16.08816	-0.01589048	0.05683902	0	0	0	0
16.10469	-0.01589048	0.05683902	0	0	0	0
16.12126	-0.01589048	0.05683902	0	0	0	0
16.13797	-0.01589048	0.05683902	0	0	0	0
16.17391	-0.01589048	0.05683902	0	0	0	0
16.19048	-0.01589048	0.05683902	0	0	0	0
16.20757	-0.01589048	0.05683902	0	0	0	0
16.22445	-0.01589048	0.05683902	0	0	0	0
16.24102	-0.01589048	0.05683902	0	0	0	0
16.25759	-0.01589048	0.05683902	0	0	0	0
16.27416	-0.01589048	0.05683902	0	0	0	0
16.29073	-0.01589048	0.05683902	0	0	0	0
16.32659	-0.01589048	0.05683902	0	0	0	0
16.34315	-0.01589048	0.05683902	0	0	0	0
16.35972	-0.01589048	0.05683902	0	0	0	0
16.37629	-0.01589048	0.05683902	0	0	0	0
16.39286	-0.01589048	0.05683902	0	0	0	0
16.40943	-0.01589048	0.05683902	0	0	0	0
16.42599	-0.01589048	0.05683902	0	0	0	0
16.44286	-0.01589048	0.05683902	0	0	0	0
16.48141	-0.01589048	0.05683902	0	0	0	0
16.49805	-0.01589048	0.05683902	0	0	0	0
16.51454	-0.01589048	0.05683902	0	0	0	0
16.53111	-0.01589048	0.05683902	0	0	0	0
16.54768	-0.01589048	0.05683902	0	0	0	0
16.56425	-0.01589048	0.05683902	0	0	0	0
16.58081	-0.01589048	0.05683902	0	0	0	0
16.59738	-0.01589048	0.05683902	0	0	0	0
16.62298	-0.01589048	0.05683902	0	0	0	0
16.63961	-0.01589048	0.05683902	0	0	0	0
16.65612	-0.01589048	0.05683902	0	0	0	0
16.67269	-0.01589048	0.05683902	0	0	0	0
16.68925	-0.01589048	0.05683902	0	0	0	0
16.70582	-0.01589048	0.05683902	0	0	0	0
16.72252	-0.01589048	0.05683902	0	0	0	0
16.73904	-0.01589048	0.05683902	0	0	0	0
16.75584	-0.01589048	0.05683902	0	0	0	0
16.78779	-0.01589048	0.05683902	0	0	0	0
16.80436	-0.01589048	0.05683902	0	0	0	0
16.82093	-0.01589048	0.05683902	0	0	0	0
16.83809	-0.01589048	0.05683902	0	0	0	0
16.85406	-0.01589048	0.05683902	0	0	0	0
16.87063	-0.01589048	0.05683902	0	0	0	0
16.8872	-0.01589048	0.05683902	0	0	0	0
16.90403	-0.01589048	0.05683902	0	0	0	0
16.92043	-0.01589048	0.05683902	0	0	0	0
16.94724	-0.01589048	0.05683902	0	0	0	0
16.96381	-0.01589048	0.05683902	0	0	0	0
16.98039	-0.01589048	0.05683902	0	0	0	0
16.99694	-0.01589048	0.05683902	0	0	0	0
17.01373	-0.01589048	0.05683902	0	0	0	0
17.03008	-0.01589048	0.05683902	0	0	0	0
17.04664	-0.01589048	0.05683902	0	0	0	0
17.06342	-0.01589048	0.05683902	0	0	0	0
17.07977	-0.01589048	0.05683902	0	0	0	0
17.10686	-0.01589048	0.05439433	0	-0.09024931	0	-2.077569
17.13084	0.001222344	0.02628041	0.7136532	-1.17243	13.97474	-21.19125
17.14741	0.01711282	0.001833517	0.9589304	-1.475278	6.048726	-7.468447
17.16398	0.02077986	-0.004278206	0.2213935	-0.3689893	-22.25891	33.38785
17.18054	0.02933627	-0.017724	0.5164661	-0.8115895	8.906334	-13.35924
17.19711	0.03422565	-0.02750275	0.2950895	-0.5901788	-6.680774	6.681803
17.21401	0.03911502	-0.03483682	0.2893275	-0.4339913	-0.1721635	4.666738
17.23025	0.0440044	-0.04339323	0.3011918	-0.5270856	0.3580869	-2.809753
17.24681	0.04644909	-0.04706026	0.1475614	-0.2213424	-4.683756	9.321248
17.27552	0.04889378	-0.05194964	0.08515311	-0.1703058	-1.378378	1.127216
17.29209	0.05256081	-0.05683902	0.2213169	-0.2950894	3.007247	-2.755908
17.30866	0.05256081	-0.05806136	0	-0.07377223	-6.678589	6.678596
17.32523	0.05256081	-0.05928371	-2.24859E-07	-0.07378095	-6.785866E-06	-0.0002630698
17.34179	0.05378316	-0.06050605	0.07378095	-0.07378072	2.22672	6.745769E-06
17.35836	0.05378316	-0.0617284	0	-0.07378095	-2.226713	-6.745769E-06
17.37497	0.05378316	-0.0617284	0	0	0	2.223897
17.3915	0.05378316	-0.0617284	0	0	0	0
17.40806	0.05378316	-0.0617284	0	0	0	0
17.42855	0.05378316	-0.0617284	0	0	0	0
17.44512	0.05378316	-0.0617284	0	0	0	0
17.46169	0.05378316	-0.0617284	0	0	0	0
17.47829	0.05378316	-0.0617284	0	0	0	0
17.49482	0.05378316	-0.0617284	0	0	0	0
17.51157	0.05378316	-0.0617284	0	0	0	0
17.52795	0.05378316	-0.0617284	0	0	0	0
17.54452	0.05378316	-0.0617284	0	0	0	0
17.56108	0.05378316	-0.0617284	0	0	0	0
17.59516	0.05378316	-0.0617284	0	0	0	0
17.61172	0.05378316	-0.0617284	0	0	0	0
17.6283	0.05378316	-0.0617284	0	0	0	0
17.64486	0.05378316	-0.0617284	0	0	0	0
17.66143	0.05378316	-0.0617284	0	0	0	0
17.678	0.05378316	-0.0617284	0	0	0	0
17.69456	0.05378316	-0.0617284	0	0	0	0
17.71113	0.05378316	-0.0617284	0	0	0	0
17.72775	0.05378316	-0.0617284	0	0	0	0
17.74944	0.05378316	-0.0617284	0	0	0	0
17.766	0.05745019	-0.06295074	0.2213171	-0.07377223	5.786074	-1.928687
17.78258	0.05989488	-0.06417309	0.1475279	-0.07376419	-2.226578	0.0002425809
17.7999	0.06967364	-0.06784012	0.5645103	-0.2116915	12.30269	-4.069422
17.81602	0.08311943	-0.07150716	0.8339606	-0.2274438	8.056432	-0.4709853
17.83227	0.1026769	-0.07884122	1.203352	-0.4512574	11.40967	-6.91309
17.84935	0.1320132	-0.09106467	1.717741	-0.7157254	15.43278	-7.934617
17.86544	0.149126	-0.09962107	1.063418	-0.5317079	-19.72594	5.547593
17.88197	0.1650165	-0.1069551	0.9613639	-0.4437069	-3.128431	2.697647
17.908	0.17724	-0.1106222	0.4696328	-0.1408901	-11.55471	7.115598
17.92457	0.1919081	-0.1167339	0.8851667	-0.3688187	9.754609	-5.350597
17.94857	0.1931304	-0.1167339	0.05093462	-6.209267E-07	-20.56314	9.091063
17.96514	0.1955751	-0.1179562	0.1475105	-0.0737548	2.380404	-1.817894
17.98178	0.1955751	-0.1179562	0	0	-4.441393	2.220683
17.9983	0.1955751	-0.1179562	0	0	0	0
18.01494	0.1955751	-0.1179562	0	0	0	0
18.08785	0.1955751	-0.1179562	0	0	0	0
18.12451	0.1320132	-0.1729617	-1.734219	-1.500766	-15.82839	-13.69764
18.14108	0.05133847	-0.2646376	-4.868976	-5.532927	-58.90104	-75.76294
18.15764	0.04155971	-0.2780834	-0.5902469	-0.8115898	129.1249	142.482
18.17421	0.02689158	-0.3037526	-0.8854722	-1.549577	-8.910431	-22.27379
18.19094	0.01589048	-0.3245325	-0.6574426	-1.241838	6.848046	9.241852
18.20734	0.004889378	-0.34409	-0.6706681	-1.192298	-0.3991215	1.49501
18.22404	-0.004889378	-0.3612028	-0.5856619	-1.024908	2.568152	5.05708
18.24059	-0.01222344	-0.3758709	-0.4432465	-0.8864914	4.284049	4.16377
18.25716	-0.01711282	-0.3856497	-0.2949876	-0.5899759	4.476265	8.952462
18.29211	-0.02077986	-0.3905391	-0.104933	-0.1399112	3.688856	8.735507
18.30868	-0.0220022	-0.3917614	-0.07377234	-0.07377223	0.6048779	1.283864
18.32541	-0.0220022	-0.3917614	0	0	2.215613	2.21561
18.34211	-0.0220022	-0.3917614	0	0	0	0
18.35838	-0.0220022	-0.3917614	0	0	0	0
18.37537	-0.0220022	-0.3917614	0	0	0	0
18.39152	-0.0220022	-0.3917614	0	0	0	0
18.40839	-0.0220022	-0.3917614	0	0	0	0
18.44262	-0.0220022	-0.3917614	0	0	0	0
18.45976	-0.02322455	-0.3905391	-0.07134157	0.07134135	-1.388917	1.388913
18.47576	-0.02322455	-0.3905391	0	0	2.152969	-2.152962
18.49233	-0.0220022	-0.3758709	0.07378095	0.8853705	2.265312	27.18372
18.50889	-0.01955751	-0.3612028	0.1475787	0.8854724	2.227348	0.003076248
18.52546	-0.004889377	-0.269527	0.8853704	5.533565	22.26788	140.2878
18.54203	0.0110011	-0.1497372	0.9591511	7.230525	2.226705	51.21434
18.55903	0.02566923	-0.01894634	0.8627245	7.692627	-2.872459	13.76561
18.57564	0.03544799	0.1020658	0.5888232	7.286688	-8.149549	-12.07813
18.59172	0.0440044	0.1974086	0.5319608	5.927562	-1.73934	-41.57373
18.60829	0.05745019	0.2927515	0.8114027	5.753582	8.557214	-5.327682
18.6251	0.05989488	0.3184207	0.145468	1.527416	-19.95209	-126.6203
18.64142	0.06478426	0.3538687	0.2995027	2.171393	4.64931	19.43751
18.65799	0.06722894	0.3758709	0.1475445	1.327904	-4.619614	-25.64255
18.67456	0.07089598	0.3942061	0.2213426	1.106713	2.227105	-6.675175
18.69135	0.07456301	0.4113189	0.2184008	1.019203	-0.08819115	-2.62337
18.70769	0.0770077	0.42232	0.1495941	0.6731734	-2.076708	-10.4438
18.72426	0.07823005	0.4308764	0.07378072	0.5164651	-2.303702	-4.761813
18.75222	0.08311942	0.4406552	0.1748476	0.3496948	2.269593	-3.745049
18.76879	0.1014546	0.4589903	1.106458	1.106458	20.91877	16.99267
18.78536	0.1087887	0.4651021	0.4427362	0.3689479	-20.03002	-22.25682
18.80193	0.1271238	0.4785479	1.106712	0.8115898	20.03999	13.35973
18.81849	0.1397455	0.4800741	0.7618492	0.09212562	-10.40799	-21.71347
18.83506	0.1472098	0.4778381	0.4505928	-0.1349813	-9.394277	-6.854495
18.85162	0.1505094	0.4768091	0.1991895	-0.06211859	-7.588239	2.199254
18.8685	0.1515776	0.4764706	0.06328037	-0.02005473	-4.063617	1.257689
18.88505	0.1515776	0.4764706	0	0	-1.892916	0.5999004
18.90132	0.1526435	0.4761302	0.06551418	-0.02091882	1.996182	-0.637385
18.91822	0.1590036	0.4740442	0.3764836	-0.1234846	9.376981	-3.092771
18.93451	0.1590036	0.4740442	0	0	-11.34402	3.720776
18.95103	0.1747953	0.4516563	0.9561619	-1.355549	29.14221	-41.31487
18.96782	0.184574	0.4174306	0.5822686	-2.037944	-11.22468	-20.4862
18.98416	0.2004645	0.3746486	0.9725878	-2.618506	11.78054	-17.52242
19.00092	0.2151326	0.3428676	0.8752934	-1.896467	-2.939735	21.8163
19.01729	0.2261337	0.3208654	0.6717622	-1.343524	-6.142586	16.68785
19.03386	0.2322454	0.3110867	0.3689036	-0.5902476	-9.193209	22.86556
19.06623	0.2334678	0.308642	0.03776026	-0.07551868	-6.766486	10.51782
19.08323	0.2334678	0.308642	0	0	-0.7649043	1.529771
19.09937	0.2334678	0.308642	0	0	0	0
19.1162	0.2334678	0.308642	0	0	0	0
19.13251	0.2334678	0.308642	0	0	0	0
19.14907	0.2334678	0.308642	0	0	0	0
19.16564	0.2334678	0.308642	0	0	0	0
19.18221	0.2334678	0.308642	0	0	0	0
19.19877	0.2334678	0.308642	0	0	0	0
19.21998	0.2334678	0.308642	0	0	0	0
19.23656	0.2334678	0.308642	0	0	0	0
19.25312	0.2334678	0.308642	0	0	0	0
19.26984	0.2334678	0.308642	0	0	0	0
19.28637	0.2334678	0.308642	0	0	0	0
19.30282	0.2334678	0.308642	0	0	0	0
19.31981	0.2334678	0.308642	0	0	0	0
19.33595	0.2334678	0.308642	0	0	0	0
19.35301	0.2334678	0.308642	0	0	0	0
19.39042	0.223689	0.2964185	-0.261376	-0.3267206	-4.79903	-5.998799
19.40699	0.1540154	0.2194108	-4.205024	-4.647658	-73.05518	-80.04436
19.42394	0.1381249	0.2035204	-0.9371415	-0.9371415	97.47464	110.6775
19.44012	0.110011	0.1754064	-1.737568	-1.737568	-24.15553	-24.15553
19.45703	0.08678646	0.1497372	-1.373841	-1.518456	10.99376	6.622715
19.47326	0.06233957	0.1228456	-1.506313	-1.656943	-3.99801	-4.179542
19.48982	0.04155971	0.09106467	-1.254563	-1.918744	7.676918	-7.98342
19.50639	0.03422564	0.08250825	-0.4426345	-0.516407	24.50547	42.32505
19.54111	0.02689158	0.06784012	-0.2112726	-0.4225453	4.511485	1.830273
19.55767	0.01344579	0.04583792	-0.8115895	-1.328056	-11.70643	-17.65782
19.57424	0.01344579	0.04339323	0	-0.1475614	24.49382	35.62739
19.59081	0.01344579	0.04094854	0	-0.1475282	0	0.001004554
19.60767	0.01222345	0.03605916	-0.07252007	-0.2900803	-2.169552	-4.264671
19.62394	0.0110011	0.03361448	-0.07511262	-0.1502251	-0.07825679	4.221566
19.65111	0.0110011	0.03116979	0	-0.08998327	1.729041	1.386726
19.68475	0.0110011	0.0287251	0	-0.07267644	0	0.2846224
19.70131	0.0110011	0.02505806	-5.620827E-08	-0.221317	-1.119527E-06	-2.960547
19.71796	0.0110011	0.02505806	0	0	1.692472E-06	6.664017
19.73445	0.0110011	0.02261337	5.646828E-08	-0.1482272	1.704216E-06	-4.473506
19.75102	0.0110011	0.02016868	-5.621474E-08	-0.1475619	-3.408432E-06	0.02012464
19.76759	0.0110011	0.01405696	5.61824E-08	-0.368692	3.391177E-06	-6.671798
19.78416	0.0110011	0.01038993	0	-0.2212917	-1.694905E-06	4.446757
19.80072	0.0110011	0.006722895	0	-0.2215466	0	-0.007695983
19.81728	0.0110011	0.003055861	-5.622121E-08	-0.2213681	-1.697639E-06	0.005390414
19.84244	0.0110011	-0.001833517	3.701624E-08	-0.1943327	2.234562E-06	0.64794
19.85901	0.009778757	-0.006722895	-0.07378083	-0.2951235	-1.768178	-2.415477
19.87558	0.009778756	-0.00794524	-5.620827E-08	-0.07377237	2.22658	6.680005
19.89262	0.009778756	-0.00794524	0	0	1.672493E-06	2.195117
19.90871	0.009778757	-0.009167585	5.786694E-08	-0.07594938	1.746528E-06	-2.292289
19.92536	0.009778757	-0.009167585	0	0	-1.767077E-06	2.319258
19.94184	0.009778757	-0.009167585	0	0	0	0
19.95841	0.009778757	-0.009167585	0	0	0	0
19.97498	0.009778757	-0.009167585	0	0	0	0
19.99977	0.009778757	-0.009167585	0	0	0	0
20.01634	0.009778757	-0.009167585	0	0	0	0
20.03292	0.009778757	-0.009167585	0	0	0	0
20.04947	0.009778757	-0.009167585	0	0	0	0
20.06604	0.009778757	-0.009167585	0	0	0	0
20.08261	0.009778757	-0.009167585	0	0	0	0
20.09917	0.009778757	-0.009167585	0	0	0	0
20.11584	0.009778757	-0.009167585	0	0	0	0
20.13231	0.009778757	-0.009167585	0	0	0	0
20.15233	0.009778757	-0.009167585	0	0	0	0
20.1689	0.009778757	-0.009167585	0	0	0	0
20.18546	0.009778757	-0.009167585	0	0	0	0
20.20203	0.009778757	-0.009167585	0	0	0	0
20.2186	0.009778757	-0.009167585	0	0	0	0
20.23529	0.009778757	-0.009167585	0	0	0	0
20.25183	0.009778757	-0.009167585	0	0	0	0
20.2683	0.009778757	-0.009167585	0	0	0	0
20.28487	0.009778757	-0.009167585	0	0	0	0
20.3079	0.009778757	-0.009167585	0	0	0	0
20.32447	0.009778757	-0.009167585	0	0	0	0
20.34103	0.009778757	-0.009167585	0	0	0	0
20.35827	0.009778757	-0.009167585	0	0	0	0
20.37417	0.009778757	-0.009167585	0	0	0	0
20.39074	0.009778757	-0.009167585	0	0	0	0
20.4073	0.009778757	-0.009167585	0	0	0	0
20.4243	0.009778757	-0.009167585	0	0	0	0
20.44044	0.009778757	-0.009167585	0	0	0	0
20.47773	0.009778757	-0.009167585	0	0	0	0
20.4943	0.009778757	-0.009167585	0	0	0	0
20.51087	0.009778757	-0.009167585	0	0	0	0
20.52815	0.009778757	-0.009167585	0	0	0	0
20.544	0.009778757	-0.009167585	0	0	0	0
20.56057	0.009778757	-0.009167585	0	0	0	0
20.57713	0.009778757	-0.009167585	0	0	0	0
20.5937	0.009778757	-0.009167585	0	0	0	0
20.61948	0.009778757	-0.009167585	0	0	0	0
20.63605	0.009778757	-0.009167585	0	0	0	0
20.65261	0.009778757	-0.009167585	0	0	0	0
20.66918	0.009778757	-0.009167585	0	0	0	0
20.68575	0.009778757	-0.009167585	0	0	0	0
20.70232	0.009778757	-0.009167585	0	0	0	0
20.71889	0.009778757	-0.009167585	0	0	0	0
20.73545	0.009778757	-0.009167585	0	0	0	0
20.75202	0.009778757	-0.009167585	0	0	0	0
20.77897	0.009778757	-0.009167585	0	0	0	0
20.79554	0.009778757	-0.009167585	0	0	0	0
20.81211	0.009778757	-0.009167585	0	0	0	0
20.82868	0.009778757	-0.009167585	0	0	0	0
20.84524	0.009778757	-0.009167585	0	0	0	0
20.86181	0.009778757	-0.009167585	0	0	0	0
20.87837	0.009778757	-0.009167585	0	0	0	0
20.89494	0.009778757	-0.009167585	0	0	0	0
20.91151	0.009778757	-0.009167585	0	0	0	0
20.94308	0.009778757	-0.009167585	0	0	0	0
20.96011	0.009778757	-0.009167585	0	0	0	0
20.97622	0.009778757	-0.009167585	0	0	0	0
20.99289	0.009778757	-0.009167585	0	0	0	0
21.00935	0.009778757	-0.009167585	0	0	0	0
21.02659	0.009778757	-0.009167585	0	0	0	0
21.04316	0.009778757	-0.009167585	0	0	0	0
21.05915	0.009778757	-0.009167585	0	0	0	0
21.07562	0.009778757	-0.009167585	0	0	0	0
21.11047	0.009778757	-0.009167585	0	0	0	0
21.12704	0.009778757	-0.009167585	0	0	0	0
21.1436	0.009778757	-0.009167585	0	0	0	0
21.16017	0.009778757	-0.009167585	0	0	0	0
21.17674	0.009778757	-0.009167585	0	0	0	0
21.19331	0.009778757	-0.009167585	0	0	0	0
21.20987	0.009778757	-0.009167585	0	0	0	0
21.22687	0.009778757	-0.009167585	0	0	0	0
21.24301	0.009778757	-0.009167585	0	0	0	0
21.25986	0.009778757	-0.009167585	0	0	0	0
21.28871	0.009778757	-0.009167585	0	0	0	0
21.30528	0.009778757	-0.009167585	0	0	0	0
21.32235	0.009778757	-0.009167585	0	0	0	0
21.33841	0.009778757	-0.009167585	0	0	0	0
21.35516	0.009778757	-0.009167585	0	0	0	0
21.37155	0.009778757	-0.009167585	0	0	0	0
21.38831	0.009778757	-0.009167585	0	0	0	0
21.40468	0.009778757	-0.009167585	0	0	0	0
21.42156	0.009778757	-0.009167585	0	0	0	0
21.43813	0.009778757	-0.009167585	0	0	0	0
21.45469	0.009778757	-0.009167585	0	0	0	0
21.47126	0.009778757	-0.009167585	0	0	0	0
21.48783	0.009778757	-0.009167585	0	0	0	0
21.50512	0.009778757	-0.009167585	0	0	0	0
21.52097	0.009778757	-0.009167585	0	0	0	0
21.53782	0.009778757	-0.009167585	0	0	0	0
21.5541	0.009778757	-0.009167585	0	0	0	0
21.57066	0.009778757	-0.009167585	0	0	0	0
21.58795	0.009778757	-0.009167585	0	0	0	0
21.6047	0.009778757	-0.009167585	0	0	0	0
21.62152	0.009778757	-0.009167585	0	0	0	0
21.63765	0.009778757	-0.009167585	0	0	0	0
21.65421	0.009778757	-0.009167585	0	0	0	0
21.67085	0.009778757	-0.009167585	0	0	0	0
21.68735	0.009778757	-0.009167585	0	0	0	0
21.70392	0.009778757	-0.009167585	0	0	0	0
21.72049	0.009778757	-0.009167585	0	0	0	0
21.74218	0.009778757	-0.009167585	0	0	0	0
21.75875	0.009778757	-0.009167585	0	0	0	0
21.77532	0.009778757	-0.009167585	0	0	0	0
21.79189	0.009778757	-0.009167585	0	0	0	0
21.80845	0.009778757	-0.009167585	0	0	0	0
21.82502	0.009778757	-0.009167585	0	0	0	0
21.84159	0.009778757	-0.009167585	0	0	0	0
21.85816	0.009778757	-0.009167585	0	0	0	0
21.87473	0.009778757	-0.009167585	0	0	0	0
21.91215	0.009778757	-0.009167585	0	0	0	0
21.92936	0.009778757	-0.009167585	0	0	0	0
21.94529	0.009778757	-0.009167585	0	0	0	0
21.96186	0.009778757	-0.009167585	0	0	0	0
21.97842	0.009778757	-0.009167585	0	0	0	0
21.99499	0.009778757	-0.009167585	0	0	0	0
22.01155	0.009778757	-0.009167585	0	0	0	0
22.02812	0.009778757	-0.009167585	0	0	0	0
22.04469	0.009778757	-0.009167585	0	0	0	0
22.0784	0.009778757	-0.009167585	0	0	0	0
22.09498	0.009778757	-0.009167585	0	0	0	0
22.11212	0.009778757	-0.009167585	0	0	0	0
22.12824	0.009778757	-0.009167585	0	0	0	0
22.14511	0.009778757	-0.009167585	0	0	0	0
22.16161	0.009778757	-0.009167585	0	0	0	0
22.17781	0.009778757	-0.009167585	0	0	0	0
22.1949	0.009778757	-0.009167585	0	0	0	0
22.21095	0.009778757	-0.009167585	0	0	0	0
22.23912	0.009778757	-0.009167585	0	0	0	0
22.25569	0.009778757	-0.009167585	0	0	0	0
22.27226	0.009778757	-0.009167585	0	0	0	0
22.28882	0.009778757	-0.009167585	0	0	0	0
22.30539	0.009778757	-0.009167585	0	0	0	0
22.32196	0.009778757	-0.009167585	0	0	0	0
22.33853	0.009778757	-0.009167585	0	0	0	0
22.35509	0.009778757	-0.009167585	0	0	0	0
22.37166	0.009778757	-0.009167585	0	0	0	0
22.39909	0.009778757	-0.009167585	0	0	0	0
22.41566	0.009778757	-0.009167585	0	0	0	0
22.43223	0.009778757	-0.009167585	0	0	0	0
22.44902	0.009778757	-0.009167585	0	0	0	0
22.46536	0.009778757	-0.009167585	0	0	0	0
22.48238	0.009778757	-0.009167585	0	0	0	0
22.4985	0.009778757	-0.009167585	0	0	0	0
22.51512	0.009778757	-0.009167585	0	0	0	0
22.53164	0.009778757	-0.009167585	0	0	0	0
22.5482	0.009778757	-0.009167585	0	0	0	0
22.56477	0.009778757	-0.009167585	0	0	0	0
22.58134	0.009778757	-0.009167585	0	0	0	0
22.5979	0.009778757	-0.009167585	0	0	0	0
22.61447	0.009778757	-0.009167585	0	0	0	0
22.63103	0.009778757	-0.009167585	0	0	0	0
22.6476	0.009778757	-0.009167585	0	0	0	0
22.66417	0.009778757	-0.009167585	0	0	0	0
22.68073	0.009778757	-0.009167585	0	0	0	0
22.71163	0.009778757	-0.009167585	0	0	0	0
22.72821	0.009778757	-0.009167585	0	0	0	0
22.74514	0.009778757	-0.009167585	0	0	0	0
22.7617	0.009778757	-0.009167585	0	0	0	0
22.77791	0.009778757	-0.009167585	0	0	0	0
22.79475	0.009778757	-0.009167585	0	0	0	0
22.81104	0.009778757	-0.009167585	0	0	0	0
22.82761	0.009778757	-0.009167585	0	0	0	0
22.84418	0.009778757	-0.009167585	0	0	0	0
22.87613	0.009778757	-0.009167585	0	0	0	0
22.89295	0.009778757	-0.009167585	0	0	0	0
22.90927	0.009778757	-0.009167585	0	0	0	0
22.92598	0.009778757	-0.009167585	0	0	0	0
22.9424	0.009778757	-0.009167585	0	0	0	0
22.95912	0.009778757	-0.009167585	0	0	0	0
22.97554	0.009778757	-0.009167585	0	0	0	0
22.9921	0.009778757	-0.009167585	0	0	0	0
23.00867	0.009778757	-0.009167585	0	0	0	0
23.03396	0.009778757	-0.009167585	0	0	0	0
23.05053	0.009778757	-0.009167585	0	0	0	0
23.06709	0.009778757	-0.009167585	0	0	0	0
23.08366	0.009778757	-0.009167585	0	0	0	0
23.10027	0.009778757	-0.009167585	0	0	0	0
23.11679	0.009778757	-0.009167585	0	0	0	0
23.13336	0.009778757	-0.009167585	0	0	0	0
23.15034	0.0110011	-0.009167584	0.07198247	5.484457E-08	2.145755	1.634885E-06
23.16736	0.01955751	-0.009167584	0.5026357	0	12.6647	-1.612876E-06
23.19573	0.03544799	-0.009167584	0.5600799	0	1.265432	0
23.2123	0.08434177	-0.02016868	2.950555	-0.6638749	53.18922	-14.77153
23.22911	0.1002322	-0.02383572	0.9455435	-0.2182024	-60.0722	13.35281
23.24544	0.1332356	-0.03361448	2.021171	-0.5988653	32.46249	-11.48843
23.26209	0.1662388	-0.04339323	1.981361	-0.58707	-1.206871	0.3575861
23.27857	0.2187997	-0.05683902	3.189468	-0.8159105	36.45865	-6.906022
23.29514	0.2469136	-0.06539543	1.696959	-0.516466	-45.1636	9.061248
23.31196	0.2689158	-0.07150716	1.308473	-0.3634647	-11.63745	4.58329
23.32827	0.2835839	-0.07517419	0.8991381	-0.2247845	-12.35589	4.186099
23.35012	0.2896957	-0.07761888	0.2796559	-0.1118627	-16.23043	2.958551
23.36669	0.290918	-0.07761887	0.07378072	4.497179E-07	-5.358314	2.911463
23.38326	0.290918	-0.07761887	0	0	-2.226578	-1.357173E-05
23.39983	0.290918	-0.07761887	0	0	0	0
23.41639	0.290918	-0.07761887	0	0	0	0
23.43296	0.2799169	-0.07028481	-0.6639519	0.4426343	-20.03811	13.35873
23.44953	0.2444689	-0.04339323	-2.139398	1.622992	-44.52394	35.61916
23.4661	0.1149004	0.04706026	-7.820771	5.459784	-171.4543	115.7879
23.53623	0.008556411	0.1228456	-1.516273	1.080562	72.71427	-50.50868
23.57572	-0.2334678	0.3563134	-6.129379	5.912683	-42.0823	44.08023
23.59229	-0.2322455	0.3746486	0.07376284	1.106458	110.6578	-85.73823
23.60886	-0.2322455	0.3783156	1.799079E-06	0.2213677	-2.225985	-26.71054
23.62542	-0.2285784	0.3856497	0.2213677	0.4427353	6.681604	6.681658
23.64202	-0.2273561	0.3917614	0.07362148	0.3680984	-4.454373	-2.250214
23.65855	-0.2261337	0.3966508	0.0739492	0.2958058	0.009890991	-2.181921
23.67512	-0.2249114	0.4003178	0.07378253	0.2213422	-0.005035893	-2.249907
23.69217	-0.2249114	0.4015402	0	0.07170054	-2.194921	-4.451618
23.70826	-0.2249114	0.4027625	-9.262004E-07	0.07597807	-2.795117E-05	0.1290888
23.73772	-0.2249114	0.4052072	5.057944E-07	0.08297961	3.143829E-05	0.1537132
23.75429	-0.2261337	0.4198753	-0.07377313	0.8852686	-1.602728	17.42968
23.77085	-0.2273561	0.42232	-0.07379772	0.1475954	-0.0007420773	-22.2643
23.78742	-0.2285784	0.4259871	-0.07376374	0.221293	0.001025357	2.224197
23.80399	-0.2285784	0.4259871	0	0	2.225938	-6.677868
23.82056	-0.2285784	0.4259871	0	0	0	0
23.83714	-0.2285784	0.4259871	0	0	0	0
23.85369	-0.2285784	0.4259871	0	0	0	0
23.87049	-0.2285784	0.4259871	0	0	0	0
23.89204	-0.2285784	0.4259871	0	0	0	0
23.90861	-0.2285784	0.4259871	0	0	0	0
23.92518	-0.2285784	0.4259871	0	0	0	0
23.94223	-0.2285784	0.4259871	0	0	0	0
23.95831	-0.2285784	0.4259871	0	0	0	0
23.97494	-0.2285784	0.4259871	0	0	0	0
23.99145	-0.2285784	0.4259871	0	0	0	0
24.00803	-0.2285784	0.4259871	0	0	0	0
24.02458	-0.2285784	0.4259871	0	0	0	0
24.06328	-0.2285784	0.4259871	0	0	0	0
24.07985	-0.2285784	0.4259871	0	0	0	0
24.09656	-0.2285784	0.4259871	0	0	0	0
24.11299	-0.2285784	0.4259871	0	0	0	0
24.12978	-0.2285784	0.4259871	0	0	0	0
24.14612	-0.2285784	0.4210977	0	-0.2992591	0	-9.031656
24.16272	-0.2114656	0.3880944	1.030797	-1.987962	31.29325	-51.26616
24.17925	-0.1747953	0.3306442	2.218278	-3.475305	35.84031	-44.89069
24.19582	-0.1149004	0.2536365	3.615678	-4.648728	42.22224	-35.45479
24.21247	-0.008556412	0.1326244	6.386583	-7.26749	83.41959	-78.83925
24.22896	0.05378316	0.05806136	3.781107	-4.522501	-78.62437	82.8344
24.24552	0.1051216	-0.004278206	3.099153	-3.763257	-20.63249	22.97089
24.26243	0.1381249	-0.04339323	1.9523	-2.313837	-34.26492	43.30485
24.2794	0.1540154	-0.06295074	0.9362989	-1.152368	-29.99141	34.28548
24.29522	0.1613495	-0.07395184	0.4634393	-0.6951604	-14.41783	13.94058
24.31179	0.1650165	-0.08128591	0.221394	-0.4427872	-7.473143	7.792018
24.32836	0.1662388	-0.0837306	0.07376374	-0.1475279	-4.455492	8.910942
24.35475	0.1662389	-0.08495294	5.646094E-07	-0.04631491	-1.716899	2.355817
24.37132	0.1662388	-0.08617529	-8.992288E-07	-0.07376374	-3.407204E-05	-0.6388944
24.38789	0.1662388	-0.08617529	0	0	2.713566E-05	2.225938
24.40446	0.1662388	-0.08617529	0	0	0	0
24.42108	0.1662388	-0.08617529	0	0	0	0
24.43759	0.1662388	-0.08617529	0	0	0	0
24.45416	0.1662388	-0.08617529	0	0	0	0
24.47072	0.1662388	-0.08617529	0	0	0	0
24.48729	0.1662388	-0.08617529	0	0	0	0
24.50499	0.1662388	-0.08617529	0	0	0	0
24.52189	0.1662388	-0.08617529	0	0	0	0
24.54012	0.1662388	-0.08617529	0	0	0	0
24.55669	0.1662388	-0.08617529	0	0	0	0
24.57325	0.1662388	-0.08617529	0	0	0	0
24.58982	0.1662388	-0.08617529	0	0	0	0
24.6067	0.1662388	-0.08617529	0	0	0	0
24.62295	0.1662388	-0.08617529	0	0	0	0
24.63952	0.1637942	-0.08617529	-0.1475614	0	-4.495856	0
24.67034	0.1625718	-0.08617529	-0.03966696	-2.417832E-07	2.277103	-5.102811E-06
24.68703	0.1515707	-0.08128591	-0.6590208	0.2928982	-13.03677	6.165214
24.70365	0.1466813	-0.07884122	-0.2941408	0.1470709	10.95221	-4.377142
24.72004	0.1356802	-0.07517419	-0.6712921	0.2237637	-11.4252	2.323289
24.73682	0.1222345	-0.06906246	-0.8012577	0.3642083	-3.918308	4.234238
24.75317	0.1075663	-0.06417309	-0.8969359	0.2989785	-2.887574	-1.96864
24.76974	0.09167584	-0.05806136	-0.9592617	0.368947	-1.893311	2.12548
24.78631	0.07211833	-0.05194964	-1.180358	0.3688616	-6.672699	-0.002576884
24.80287	0.06233957	-0.04706027	-0.5903151	0.2951573	17.80753	-2.224399
24.82394	0.0550055	-0.04339323	-0.348136	0.1740681	6.435458	-3.217721
24.84051	0.04644909	-0.04094854	-0.5164065	0.1475449	-4.471023	-0.7047329
24.85708	0.04522675	-0.04094854	-0.07378095	0	13.3577	-4.452658
24.87368	0.04155971	-0.03850385	-0.2208595	0.1472396	-4.43399	4.438845
24.89021	0.03789268	-0.03850385	-0.2218788	0	-0.0307665	-4.444211
24.90678	0.03667033	-0.03850385	-0.07376397	2.248072E-07	4.47501	6.792124E-06
24.92334	0.03667033	-0.03850385	0	0	2.226201	-6.784695E-06
24.93991	0.03544799	-0.03850385	-0.07377223	-2.248331E-07	-2.226578	-6.785867E-06
24.95678	0.03422564	-0.03728151	-0.07247945	0.07247923	0.03866673	2.167842
24.97964	0.0330033	-0.03728151	-0.05344949	0	0.4789353	-1.824116
24.99621	0.03178095	-0.03605916	-0.07377245	0.07377223	-0.515311	1.870576
25.01278	0.03178095	-0.03605916	0	0	2.226201	-2.226194
25.02935	0.03055861	-0.03605916	-0.07378061	0	-2.226575	0
25.04592	0.03055861	-0.03605916	0	0	2.226831	0
25.06248	0.03055861	-0.03605916	0	0	0	0
25.07938	0.03055861	-0.03605916	0	0	0	0
25.09564	0.03055861	-0.03605916	0	0	0	0
25.11281	0.03055861	-0.03605916	0	0	0	0
25.15138	0.03055861	-0.03605916	0	0	0	0
25.16795	0.03055861	-0.03605916	0	0	0	0
25.18452	0.03055861	-0.03605916	0	0	0	0
25.20112	0.03055861	-0.03605916	0	0	0	0
25.21765	0.03055861	-0.03605916	0	0	0	0
25.23432	0.03055861	-0.03605916	0	0	0	0
25.25079	0.03055861	-0.03605916	0	0	0	0
25.26738	0.03055861	-0.03605916	0	0	0	0
25.29382	0.03055861	-0.03605916	0	0	0	0
25.31044	0.03055861	-0.03605916	0	0	0	0
25.32695	0.03055861	-0.03605916	0	0	0	0
25.34352	0.03055861	-0.03605916	0	0	0	0
25.37007	0.03055861	-0.03605916	0	0	0	0
25.38716	0.03055861	-0.03605916	0	0	0	0
25.40321	0.03055861	-0.03605916	0	0	0	0
25.41977	0.03055861	-0.03605916	0	0	0	0
25.43634	0.03055861	-0.03605916	0	0	0	0
25.45359	0.03055861	-0.03605916	0	0	0	0
25.47022	0.03055861	-0.03605916	0	0	0	0
25.48672	0.03055861	-0.03605916	0	0	0	0
25.50329	0.03055861	-0.03605916	0	0	0	0
25.52079	0.03055861	-0.03605916	0	0	0	0
25.5368	0.03055861	-0.03605916	0	0	0	0
25.553	0.03055861	-0.03605916	0	0	0	0
25.56957	0.03055861	-0.03605916	0	0	0	0
25.58612	0.03055861	-0.03605916	0	0	0	0
25.61076	0.03055861	-0.03605916	0	0	0	0
25.62733	0.03055861	-0.03605916	0	0	0	0
25.64418	0.03055861	-0.03605916	0	0	0	0
25.66047	0.03055861	-0.03605916	0	0	0	0
25.67703	0.03055861	-0.03605916	0	0	0	0
25.6936	0.03055861	-0.03605916	0	0	0	0
25.71017	0.03055861	-0.03605916	0	0	0	0
25.72758	0.03055861	-0.03605916	0	0	0	0
25.74335	0.03055861	-0.03605916	0	0	0	0
25.76761	0.03055861	-0.03605916	0	0	0	0
25.78419	0.03055861	-0.03605916	0	0	0	0
25.80075	0.03055861	-0.03605916	0	0	0	0
25.81732	0.03055861	-0.03605916	0	0	0	0
25.83389	0.03055861	-0.03605916	0	0	0	0
25.85046	0.03055861	-0.03605916	0	0	0	0
25.86709	0.03055861	-0.03605916	0	0	0	0
25.88359	0.03055861	-0.03605916	0	0	0	0
25.90016	0.03055861	-0.03605916	0	0	0	0
25.92401	0.03055861	-0.03605916	0	0	0	0
25.94065	0.03055861	-0.03605916	0	0	0	0
25.95775	0.03055861	-0.03605916	0	0	0	0
25.97371	0.03055861	-0.03605916	0	0	0	0
25.99028	0.03055861	-0.03605916	0	0	0	0
26.01254	0.03055861	-0.03605916	0	0	0	0
26.02931	0.03055861	-0.03605916	0	0	0	0
26.04567	0.03055861	-0.03605916	0	0	0	0
26.06236	0.03055861	-0.03605916	0	0	0	0
26.0843	0.03055861	-0.03605916	0	0	0	0
26.10098	0.03055861	-0.03605916	0	0	0	0
26.11784	0.03055861	-0.03605916	0	0	0	0
26.14734	0.03055861	-0.03605916	0	0	0	0
26.16439	0.03055861	-0.03605916	0	0	0	0
26.18048	0.03055861	-0.03605916	0	0	0	0
26.19705	0.03055861	-0.03605916	0	0	0	0
26.21362	0.03055861	-0.03605916	0	0	0	0
26.24	0.03055861	-0.03605916	0	0	0	0
26.25657	0.03055861	-0.03605916	0	0	0	0
26.27314	0.03055861	-0.03605916	0	0	0	0
26.2897	0.03055861	-0.03605916	0	0	0	0
26.30637	0.03055861	-0.03605916	0	0	0	0
26.32284	0.03055861	-0.03605916	0	0	0	0
26.33961	0.03055861	-0.03605916	0	0	0	0
26.35597	0.03055861	-0.03605916	0	0	0	0
26.37254	0.03055861	-0.03605916	0	0	0	0
26.39603	0.03055861	-0.03605916	0	0	0	0
26.41261	0.03055861	-0.03605916	0	0	0	0
26.42917	0.03055861	-0.03605916	0	0	0	0
26.44603	0.03055861	-0.03605916	0	0	0	0
26.46231	0.03055861	-0.03605916	0	0	0	0
26.47887	0.03055861	-0.03605916	0	0	0	0
26.49544	0.03055861	-0.03605916	0	0	0	0
26.51201	0.03055861	-0.03605916	0	0	0	0
26.52858	0.03055861	-0.03605916	0	0	0	0
26.5592	0.03055861	-0.03605916	0	0	0	0
26.57577	0.03055861	-0.03605916	0	0	0	0
26.59255	0.03055861	-0.03605916	0	0	0	0
26.6089	0.03055861	-0.03605916	0	0	0	0
26.62556	0.03055861	-0.03605916	0	0	0	0
26.64203	0.03055861	-0.03605916	0	0	0	0
26.65861	0.03055861	-0.03605916	0	0	0	0
26.67559	0.03055861	-0.03605916	0	0	0	0
26.69173	0.03055861	-0.03605916	0	0	0	0
26.7083	0.03055861	-0.03605916	0	0	0	0
26.72486	0.03055861	-0.03605916	0	0	0	0
26.74143	0.03055861	-0.03605916	0	0	0	0
26.75807	0.03055861	-0.03605916	0	0	0	0
26.77456	0.03055861	-0.03605916	0	0	0	0
26.79113	0.03055861	-0.03605916	0	0	0	0
26.80802	0.03055861	-0.03605916	0	0	0	0
26.82504	0.03055861	-0.03605916	0	0	0	0
26.84084	0.03055861	-0.03605916	0	0	0	0
26.8574	0.03055861	-0.03605916	0	0	0	0
26.89706	0.03055861	-0.03605916	0	0	0	0
26.91363	0.03055861	-0.03605916	0	0	0	0
26.93055	0.03055861	-0.03605916	0	0	0	0
26.94688	0.03055861	-0.03605916	0	0	0	0
26.96367	0.03055861	-0.03605916	0	0	0	0
26.98047	0.03055861	-0.03605916	0	0	0	0
26.99681	0.03055861	-0.03605916	0	0	0	0
27.01342	0.03055861	-0.03605916	0	0	0	0
27.02993	0.03055861	-0.03605916	0	0	0	0
27.0465	0.03055861	-0.03605916	0	0	0	0
27.06396	0.03055861	-0.03728151	0	-0.07000888	0	-2.057099
27.07964	0.0330033	-0.03850385	0.1559462	-0.07797291	4.706194	-0.2403411
27.0962	0.03422565	-0.04094854	0.07381472	-0.1476297	-2.54781	-2.160831
27.11299	0.03667033	-0.04339323	0.1456335	-0.1456335	2.153735	0.05986083
27.12933	0.03667033	-0.04461557	0	-0.07477961	-4.395482	2.138499
27.1459	0.03789268	-0.04583792	0.07376397	-0.07376397	2.240906	0.0308548
27.16247	0.03789268	-0.04583792	0	0	-2.226201	2.226201
27.20015	0.03789268	-0.04706026	-9.887238E-08	-0.03244201	-1.822829E-06	-0.5981066
27.21675	0.04033737	-0.04706026	0.1472398	0	2.712538	0.5976653
27.23328	0.04033737	-0.04706026	0	0	-4.443451	0
27.24985	0.04033737	-0.04828261	0	-0.07378095	0	-2.229023
27.26642	0.04033737	-0.04828261	0	0	0	2.226329
27.28298	0.04033737	-0.04950495	-2.249367E-07	-0.07380599	-6.788602E-06	-2.227469
27.29955	0.04033737	-0.04950495	0	0	6.790165E-06	2.227982
27.31612	0.04033737	-0.04950495	0	0	0	0
27.33279	0.04033737	-0.04950495	0	0	0	0
27.37466	0.04033737	-0.04950495	0	0	0	0
27.39123	0.04033737	-0.04950495	0	0	0	0
27.40779	0.04033737	-0.04950495	0	0	0	0
27.42436	0.04033737	-0.04950495	0	0	0	0
27.44093	0.04033737	-0.04950495	0	0	0	0
27.45749	0.04033737	-0.04950495	0	0	0	0
27.47407	0.04033737	-0.04950495	0	0	0	0
27.49063	0.04033737	-0.04950495	0	0	0	0
27.53077	0.04033737	-0.04950495	0	0	0	0
27.54808	0.04033737	-0.04950495	0	0	0	0
27.56391	0.04033737	-0.04950495	0	0	0	0
27.62216	0.04033737	-0.04950495	0	0	0	0
27.6389	0.03789268	-0.03850385	-0.1460149	0.6570679	-1.947044	8.761707
27.6553	0.03422565	-0.03361448	-0.223608	0.2981439	-2.341227	-10.82985
27.69226	0.03178096	-0.0287251	-0.06614991	0.1322999	2.951076	-3.108244
27.70883	0.01466813	-0.009167585	-1.032813	1.180358	-18.05972	19.58038
27.7254	0.007334067	-0.003055861	-0.4426342	0.3688619	17.80959	-24.48817
27.74196	-0.007334067	0.01038993	-0.8853703	0.8115894	-13.36103	13.36077
27.75902	-0.0220022	0.02750275	-0.8601192	1.003473	0.7510548	5.707269
27.77509	-0.04033737	0.04461557	-1.140457	1.064426	-8.461576	1.839796
27.79166	-0.05989488	0.0617284	-1.180494	1.032932	-1.226468	-0.9647714
27.80823	-0.07823005	0.07884122	-1.10684	1.033051	2.223001	0.003590755
27.82479	-0.09534287	0.09595405	-1.032932	1.032932	2.230683	-0.003576363
27.84136	-0.1124557	0.1142892	-1.03317	1.106967	-0.007181923	2.234629
27.85795	-0.1332355	0.1362914	-1.252544	1.326224	-6.61692	6.613379
27.87449	-0.1442367	0.1485149	-0.6650236	0.7389141	17.73243	-17.72607
27.89106	-0.149126	0.1521819	-0.2950889	0.2213176	11.17237	-15.63189
27.90763	-0.1552377	0.1595159	-0.368947	0.4427353	-2.229041	6.6824
27.92419	-0.1625718	0.16685	-0.4426844	0.4426861	-2.225526	-0.001484155
27.9412	-0.1711282	0.1778511	-0.5029747	0.6466804	-1.795484	6.075076
27.95733	-0.180907	0.1864075	-0.6065173	0.5307019	-3.124923	-3.500236
27.97389	-0.1919081	0.1961863	-0.6641803	0.5903835	-1.764138	1.825894
27.99046	-0.2077986	0.2084097	-0.9591503	0.7378073	-8.903236	4.449769
28.00712	-0.2273561	0.2218555	-1.174007	0.8071294	-6.466507	2.086382
28.02359	-0.2334678	0.2255225	-0.3709115	0.2225464	24.23606	-17.64174
28.04087	-0.2456912	0.234079	-0.7073511	0.4951469	-9.96617	8.075101
28.05673	-0.259137	0.2389683	-0.8482094	0.3084391	-4.251357	-5.635178
28.0733	-0.2652487	0.2389683	-0.3688612	0	14.78507	-9.513526
28.09023	-0.2689158	0.2389684	-0.2166059	8.801825E-07	4.545102	2.627507E-05
28.10643	-0.2725828	0.237746	-0.2263454	-0.07545032	-0.2939744	-2.277384
28.12299	-0.2738052	0.237746	-0.07378922	8.995394E-07	4.655881	2.302705
28.13956	-0.2738052	0.237746	0	0	2.226963	-2.714815E-05
28.15764	-0.2738052	0.237746	0	0	0	0
28.17421	-0.2738052	0.2365237	0	-0.07377983	0	-2.12959
28.19077	-0.2738052	0.2365237	0	0	0	2.22668
28.20765	-0.2738052	0.2365237	0	0	0	0
28.22391	-0.2738052	0.2365237	0	0	0	0
28.24047	-0.2738052	0.2365237	0	0	0	0
28.25704	-0.2738052	0.2365237	0	0	0	0
28.27361	-0.2725828	0.2365237	0.07377223	0	2.22645	0
28.29018	-0.2725828	0.2365237	0	0	-2.226322	0
28.30759	-0.2725828	0.2365237	0	0	0	0
28.32416	-0.2725828	0.2365237	0	0	0	0
28.34073	-0.2725828	0.2365237	0	0	0	0
28.35729	-0.2676935	0.234079	0.2952929	-0.1476473	8.911444	-4.455749
28.37386	-0.248136	0.2218555	1.180629	-0.7378931	26.72874	-17.81981
28.39042	-0.220022	0.2010757	1.69696	-1.254275	15.58379	-15.58533
28.40716	-0.184574	0.1778511	2.118428	-1.387935	12.65654	-4.013761
28.42384	-0.1369026	0.1448478	2.858039	-1.978643	22.13548	-17.67903
28.44012	-0.09045348	0.1118445	2.852607	-2.026852	-0.164803	-1.462533
28.4718	-0.04889378	0.0812859	1.311973	-0.9646866	-32.12312	22.14678
28.48862	0.01222344	0.0287251	3.632584	-3.124022	47.84571	-44.52058
28.50493	0.01833517	0.02261337	0.3746846	-0.3746846	-98.31795	82.9704
28.52165	0.02811392	0.01283462	0.5850605	-0.5850604	6.370058	-6.370054
28.53822	0.03178095	0.00550055	0.221266	-0.4425324	-10.92901	4.281785
28.55467	0.03544799	0.0006111722	0.2229083	-0.2972107	0.04973125	4.400509
28.5712	0.03789268	-0.003055861	0.1479193	-0.221879	-2.273906	2.284297
28.58777	0.03911503	-0.00794524	0.07378095	-0.2951235	-2.240208	-2.213197
28.6051	0.04155971	-0.01038993	0.1410342	-0.1410344	1.983801	4.545237
28.62243	0.0440044	-0.01527931	0.1410657	-0.2821311	0.0009078904	-4.070391
28.639	0.0440044	-0.01650165	0	-0.0737724	-4.161314	6.146399
28.65586	0.0440044	-0.01650165	0	0	0	2.206766
28.67213	0.04522675	-0.017724	0.07511267	-0.07511256	2.266905	-2.266901
28.6887	0.04522675	-0.01894634	0	-0.07378083	-2.28718	0.040551
28.70527	0.04522675	-0.01894634	0	0	0	2.22671
28.72183	0.04522675	-0.01894634	0	0	0	0
28.7384	0.04522675	-0.01894634	0	0	0	0
28.75508	0.04522675	-0.01894634	0	0	0	0
28.77171	0.04522675	-0.01894634	0	0	0	0
28.78902	0.04522675	-0.01894634	0	0	0	0
28.80559	0.04522675	-0.01894634	0	0	0	0
28.82215	0.04522675	-0.01894634	0	0	0	0
28.83879	0.04522675	-0.01894634	0	0	0	0
28.85529	0.04522675	-0.01894634	0	0	0	0
28.87186	0.04522675	-0.01894634	0	0	0	0
28.88844	0.04522675	-0.01894634	0	0	0	0
28.90499	0.04522675	-0.01894634	0	0	0	0
28.92165	0.04522675	-0.01894634	0	0	0	0
28.93812	0.04522675	-0.01894634	0	0	0	0
28.97396	0.04522675	-0.01894634	0	0	0	0
28.99053	0.04522675	-0.01894634	0	0	0	0
29.00758	0.04522675	-0.01894634	0	0	0	0
29.02366	0.04522675	-0.01894634	0	0	0	0
29.04023	0.04522675	-0.01894634	0	0	0	0
29.0568	0.04522675	-0.01894634	0	0	0	0
29.07336	0.04522675	-0.01894634	0	0	0	0
29.08993	0.04522675	-0.01894634	0	0	0	0
29.1115	0.04522675	-0.01894634	0	0	0	0
29.12807	0.04522675	-0.01894634	0	0	0	0
29.14466	0.04522675	-0.01894634	0	0	0	0
29.16121	0.04522675	-0.01894634	0	0	0	0
29.17818	0.04522675	-0.01894634	0	0	0	0
29.19433	0.04522675	-0.01894634	0	0	0	0
29.2109	0.04522675	-0.01894634	0	0	0	0
29.22747	0.04522675	-0.01894634	0	0	0	0
29.24404	0.04522675	-0.01894634	0	0	0	0
29.27031	0.04522675	-0.01894634	0	0	0	0
29.28691	0.04522675	-0.01894634	0	0	0	0
29.30345	0.04522675	-0.01894634	0	0	0	0
29.32051	0.04522675	-0.01894634	0	0	0	0
29.33659	0.04522675	-0.01894634	0	0	0	0
29.35315	0.04522675	-0.01894634	0	0	0	0
29.36972	0.04522675	-0.01894634	0	0	0	0
29.38629	0.04522675	-0.01894634	0	0	0	0
29.40286	0.04522675	-0.01894634	0	0	0	0
29.46957	0.04522675	-0.01894634	0	0	0	0
29.48614	0.04522675	-0.01894634	0	0	0	0
29.50272	0.04522675	-0.01894634	0	0	0	0
29.51928	0.04522675	-0.01894634	0	0	0	0
29.53584	0.04522675	-0.01894634	0	0	0	0
29.55241	0.04522675	-0.01894634	0	0	0	0
29.58185	0.04522675	-0.01894634	0	0	0	0
29.59853	0.04522675	-0.01894634	0	0	0	0
29.61508	0.04522675	-0.01894634	0	0	0	0
29.63156	0.04522675	-0.01894634	0	0	0	0
29.64812	0.04522675	-0.01894634	0	0	0	0
29.66469	0.04522675	-0.01894634	0	0	0	0
29.6815	0.04522675	-0.01894634	0	0	0	0
29.69782	0.04522675	-0.01894634	0	0	0	0
29.71465	0.04522675	-0.01894634	0	0	0	0
29.73151	0.04522675	-0.01894634	0	0	0	0
29.74808	0.04522675	-0.01894634	0	0	0	0
29.76465	0.04522675	-0.01894634	0	0	0	0
29.78122	0.04522675	-0.01894634	0	0	0	0
29.79778	0.04522675	-0.01894634	0	0	0	0
29.81435	0.04522675	-0.01894634	0	0	0	0
29.83092	0.04522675	-0.01894634	0	0	0	0
29.84748	0.04522675	-0.01894634	0	0	0	0
29.86405	0.04522675	-0.01894634	0	0	0	0
29.88066	0.04522675	-0.01894634	0	0	0	0
29.89718	0.04522675	-0.01894634	0	0	0	0
29.91375	0.04522675	-0.01894634	0	0	0	0
29.93032	0.04522675	-0.01894634	0	0	0	0
29.94689	0.04522675	-0.01894634	0	0	0	0
29.96363	0.04522675	-0.01894634	0	0	0	0
29.98017	0.04522675	-0.01894634	0	0	0	0
29.99659	0.04522675	-0.01894634	0	0	0	0
30.01332	0.04522675	-0.01894634	0	0	0	0
30.02972	0.04522675	-0.01894634	0	0	0	0
30.05523	0.04522675	-0.01894634	0	0	0	0
30.07181	0.04522675	-0.01894634	0	0	0	0
30.08837	0.04522675	-0.01894634	0	0	0	0
30.10494	0.04522675	-0.01894634	0	0	0	0
30.12151	0.04522675	-0.01894634	0	0	0	0
30.13807	0.04522675	-0.01894634	0	0	0	0
30.15505	0.04522675	-0.01894634	0	0	0	0
30.1712	0.04522675	-0.01894634	0	0	0	0
30.18777	0.04522675	-0.01894634	0	0	0	0
30.20492	0.04522675	-0.01894634	0	0	0	0
30.23231	0.04522675	-0.01894634	0	0	0	0
30.24888	0.04522675	-0.01894634	0	0	0	0
30.26545	0.04522675	-0.01894634	0	0	0	0
30.28201	0.04522675	-0.01894634	0	0	0	0
30.29878	0.04522675	-0.01894634	0	0	0	0
30.31515	0.04522675	-0.01894634	0	0	0	0
30.33172	0.04522675	-0.01894634	0	0	0	0
30.34844	0.04522675	-0.017724	0	0.07309916	0	2.195772
30.38504	0.04522675	-0.017724	0	0	0	-1.370905
30.40161	0.04522675	-0.017724	0	0	0	0
30.41817	0.04522675	-0.017724	0	0	0	0
30.43497	0.04522675	-0.017724	0	0	0	0
30.45169	0.04522675	-0.017724	0	0	0	0
30.46788	0.04522675	-0.017724	0	0	0	0
30.48445	0.04522675	-0.017724	0	0	0	0
30.50187	0.04522675	-0.017724	0	0	0	0
30.53456	0.04522675	-0.017724	0	0	0	0
30.55112	0.04522675	-0.017724	0	0	0	0
30.56776	0.04522675	-0.017724	0	0	0	0
30.58426	0.04522675	-0.017724	0	0	0	0
30.60082	0.04522675	-0.017724	0	0	0	0
30.61739	0.04522675	-0.017724	0	0	0	0
30.63396	0.04522675	-0.017724	0	0	0	0
30.65088	0.04522675	-0.017724	0	0	0	0
30.68031	0.04522675	-0.017724	0	0	0	0
30.69688	0.04522675	-0.017724	0	0	0	0
30.71344	0.04522675	-0.017724	0	0	0	0
30.73001	0.04522675	-0.017724	0	0	0	0
30.74657	0.04522675	-0.017724	0	0	0	0
30.76314	0.04522675	-0.017724	0	0	0	0
30.78015	0.04522675	-0.017724	0	0	0	0
30.79628	0.04522675	-0.017724	0	0	0	0
30.81285	0.04522675	-0.017724	0	0	0	0
30.83746	0.04522675	-0.017724	0	0	0	0
30.85403	0.04522675	-0.017724	0	0	0	0
30.87059	0.04522675	-0.017724	0	0	0	0
30.88717	0.04522675	-0.017724	0	0	0	0
30.90372	0.04522675	-0.017724	0	0	0	0
30.92034	0.04522675	-0.017724	0	0	0	0
30.93718	0.04522675	-0.017724	0	0	0	0
30.95358	0.04522675	-0.017724	0	0	0	0
30.96999	0.04522675	-0.017724	0	0	0	0
30.98655	0.04522675	-0.017724	0	0	0	0
31.00312	0.04522675	-0.017724	0	0	0	0
31.01969	0.04522675	-0.017724	0	0	0	0
31.03685	0.04522675	-0.017724	0	0	0	0
31.05282	0.04522675	-0.017724	0	0	0	0
31.06939	0.04522675	-0.017724	0	0	0	0
31.08596	0.04522675	-0.017724	0	0	0	0
31.10279	0.04522675	-0.017724	0	0	0	0
31.11923	0.04522675	-0.017724	0	0	0	0
31.14764	0.04522675	-0.017724	0	0	0	0
31.16423	0.04522675	-0.017724	0	0	0	0
31.18134	0.04522675	-0.017724	0	0	0	0
31.19734	0.04522675	-0.017724	0	0	0	0
31.21391	0.04522675	-0.017724	0	0	0	0
31.23047	0.04522675	-0.017724	0	0	0	0
31.24725	0.04522675	-0.017724	0	0	0	0
31.26369	0.04522675	-0.017724	0	0	0	0
31.28019	0.04522675	-0.017724	0	0	0	0
31.30017	0.04522675	-0.017724	0	0	0	0
31.31674	0.04522675	-0.017724	0	0	0	0
31.3333	0.04522675	-0.017724	0	0	0	0
31.35028	0.04522675	-0.017724	0	0	0	0
31.36644	0.04522675	-0.017724	0	0	0	0
31.38301	0.04522675	-0.017724	0	0	0	0
31.39957	0.04522675	-0.017724	0	0	0	0
31.41614	0.04522675	-0.017724	0	0	0	0
31.43271	0.04522675	-0.017724	0	0	0	0
31.44948	0.04522675	-0.017724	0	0	0	0
31.47553	0.04522675	-0.017724	0	0	0	0
31.4921	0.04522675	-0.017724	0	0	0	0
31.50867	0.04522675	-0.017724	0	0	0	0
31.52524	0.04522675	-0.017724	0	0	0	0
31.5418	0.04522675	-0.017724	0	0	0	0
31.55847	0.04522675	-0.017724	0	0	0	0
31.57528	0.04522675	-0.017724	0	0	0	0
31.5915	0.04522675	-0.017724	0	0	0	0
31.60843	0.04522675	-0.017724	0	0	0	0
31.63912	0.04522675	-0.017724	0	0	0	0
31.65639	0.04522675	-0.017724	0	0	0	0
31.71476	0.04278206	-0.01772399	-0.04188499	3.191277E-08	-0.5537852	4.219368E-07
31.73195	-0.01711282	-0.04094854	-3.482938	-1.350527	-45.5386	-17.87276
31.74792	-0.04033737	-0.05072729	-1.454935	-0.612604	61.15948	22.2539
31.76448	-0.05011613	-0.05561668	-0.5904511	-0.2952258	26.57978	9.758245
31.78993	-0.07089598	-0.06417309	-0.8163218	-0.3361324	-5.375701	-0.9735746
31.80651	-0.1259015	-0.08739763	-3.317465	-1.400708	-59.49995	-25.32529
31.82307	-0.1393473	-0.09228701	-0.8121499	-0.2953274	75.60622	33.35852
31.83964	-0.1515707	-0.09717638	-0.7378082	-0.2951229	2.244413	0.006173162
31.85669	-0.1735729	-0.1069551	-1.290179	-0.5734131	-16.42943	-8.277315
31.87326	-0.1931304	-0.1142892	-1.180222	-0.4425834	3.270148	3.890889
31.89027	-0.1931304	-0.1155116	-8.761355E-07	-0.07186983	35.14772	11.04008
31.90639	-0.1931304	-0.1155116	0	0	2.644486E-05	2.169286
31.92308	-0.1931304	-0.1155116	0	0	0	0
31.94559	-0.1796846	-0.1069551	0.597109	0.3799786	15.23096	9.69243
31.9629	-0.06111723	-0.04950495	6.851479	3.319789	157.0521	73.82092
31.97873	-0.01955751	-0.03239213	2.625212	1.08097	-127.5416	-67.5638
31.99532	0.06233957	0.004278206	4.93593	2.210118	71.26782	34.82552
32.01186	0.1527931	0.04706026	5.468598	2.586499	16.07687	11.35985
32.02843	0.2249114	0.08984233	4.353071	2.582331	-33.69383	-0.125893
32.045	0.2811392	0.131402	3.393919	2.508549	-28.94726	-2.226744
32.06229	0.3190319	0.16685	2.19134	2.049963	-35.51699	-13.5439
32.07813	0.3447012	0.1961863	1.620284	1.851753	-17.2345	-5.98199
32.10239	0.3715927	0.2328566	1.10858	1.511701	-12.76066	-8.480067
32.11896	0.3984843	0.276861	1.623178	2.656111	12.605	28.03218
32.13553	0.3984843	0.276861	0	0	-48.98196	-80.15237
32.15209	0.4040277	0.2945532	0.3346798	1.068144	10.10066	32.23666
32.16866	0.3997143	0.3003805	-0.2603597	0.3517406	-17.9604	-21.6236
32.18523	0.3958992	0.3053913	-0.2302772	0.3024515	0.9078928	-1.487548
32.20179	0.3917199	0.3107338	-0.2522666	0.3224747	-0.663642	0.6043031
32.21836	0.3878134	0.3155959	-0.2357979	0.2934769	0.4970256	-0.8751556
32.23492	0.3861448	0.3176352	-0.1007348	0.1231215	4.076681	-5.141928
32.25755	0.3855895	0.3183092	-0.02454247	0.02978417	1.944069	-2.381529
32.27412	0.3855895	0.3183092	0	0	0.6261471	-0.7598775
32.29069	0.3855895	0.3183092	0	0	0	0
32.30727	0.3855895	0.3183092	0	0	0	0
32.3244	0.3861448	0.3176352	0.03242448	-0.0393496	0.9618517	-1.167281
32.34039	0.3861448	0.3176352	0	0	-0.9791365	1.188257
32.35696	0.3861448	0.3176352	0	0	0	0
32.37352	0.3848585	0.3191927	-0.07766259	0.09403249	-2.343862	2.837906
32.39009	0.375627	0.3300067	-0.5572131	0.6527314	-14.47453	16.86351
32.40665	0.3532576	0.3404229	-1.350533	0.6288702	-23.94521	-0.7202144
32.42339	0.2786945	0.3453123	-4.454478	0.2920981	-93.2051	-10.11258
32.43979	0.25547	0.3453123	-1.416513	-1.817706E-06	91.68598	-8.815594
32.45635	0.220022	0.3453123	-2.139646	1.798872E-06	-21.93785	0.0001097169
32.47292	0.2004645	0.34409	-1.180493	-0.07378072	28.94727	-2.226761
32.48949	0.1955751	0.3428676	-0.2951238	-0.07378072	26.7205	0
32.50614	0.1919081	0.3416453	-0.2201761	-0.07339205	2.255951	0.01169924
32.52277	0.188241	0.340423	-0.2205812	-0.07352678	-0.01217188	-0.004048414
32.53918	0.1870187	0.3392006	-0.07444928	-0.07445109	4.42249	-0.02797307
32.56043	0.1870187	0.3392006	0	0	1.976548	1.976596
32.57708	0.1870187	0.3392006	0	0	0	0
32.59357	0.1870187	0.3392006	0	0	0	0
32.61062	0.1870187	0.3392006	0	0	0	0
32.6267	0.1870187	0.3392006	0	0	0	0
32.64327	0.1870187	0.3392006	0	0	0	0
32.65983	0.1870187	0.3392006	0	0	0	0
32.6764	0.1870187	0.3392006	0	0	0	0
32.69297	0.1870187	0.3392006	0	0	0	0
32.71461	0.1870187	0.3392006	0	0	0	0
32.73119	0.1870187	0.3392006	0	0	0	0
32.74777	0.1870187	0.3392006	0	0	0	0
32.76432	0.1870187	0.3392006	0	0	0	0
32.7813	0.1870187	0.3392006	0	0	0	0
32.79755	0.1870187	0.3379782	0	-0.07521824	0	-2.263836
32.81401	0.1857964	0.3343112	-0.07422508	-0.2226752	-2.268586	-4.506817
32.83059	0.1857964	0.3281995	0	-0.3688187	2.246583	-4.423349
32.84715	0.1857964	0.3196431	8.994359E-07	-0.5164669	2.71419E-05	-4.455517
32.87478	0.1857964	0.2976409	-5.393883E-07	-0.7964295	-3.255754E-05	-6.33496
32.89153	0.184574	0.2646376	-0.07295758	-1.96986	-1.64391	-26.44041
32.90805	0.1833517	0.2585258	-0.07398605	-0.3699258	-0.03090765	48.0813
32.9245	0.180907	0.2401907	-0.1486913	-1.115186	-2.266349	-22.60914
32.94105	0.1747953	0.2169662	-0.3691586	-1.402804	-6.68141	-8.716434
32.95761	0.1674612	0.1876299	-0.4427872	-1.771149	-2.223139	-11.1218
32.97423	0.149126	0.127735	-1.103411	-3.604473	-19.91015	-55.25351
32.99075	0.1430143	0.09717638	-0.3700121	-1.85006	22.13402	52.9483
33.00734	0.1332356	0.07150716	-0.5894315	-1.54726	-6.627431	9.145895
33.04117	0.1295685	0.06050606	-0.1084002	-0.3251998	9.540702	24.23816
33.05788	0.1002323	-0.0006111722	-1.754981	-3.656211	-32.5767	-65.90223
33.07431	0.09412052	-0.01161227	-0.3721608	-0.6698891	41.72879	90.11698
33.09087	0.08678646	-0.02139103	-0.4427868	-0.5903828	-2.141108	2.410326
33.10744	0.07089598	-0.04583792	-0.9591512	-1.475617	-15.5857	-26.71951
33.124	0.04522675	-0.0812859	-1.549398	-2.139644	-17.8137	-20.04038
33.14057	0.03178096	-0.09839873	-0.8115893	-1.032932	22.26712	33.40063
33.15714	0.0220022	-0.1106222	-0.590383	-0.737978	6.676788	8.902765
33.1737	0.01344579	-0.1191786	-0.516466	-0.5164664	2.231077	6.686003
33.19088	0.006111723	-0.1265127	-0.4268609	-0.4268615	2.655073	2.65507
33.20745	-0.004889377	-0.1375137	-0.6638749	-0.6638737	-7.02213	-7.022076
33.22402	-0.008556412	-0.1399584	-0.2213936	-0.1475963	13.35411	15.58128
33.24059	-0.01344579	-0.1436255	-0.2950555	-0.2212912	-2.22312	-2.224116
33.25716	-0.01466813	-0.1448478	-0.07378089	-0.07378162	6.677311	4.451336
33.27373	-0.01589048	-0.1460702	-0.07376391	-0.07376374	0.0005126194	0.0005395994
33.29029	-0.01589048	-0.1460702	0	0	2.225943	2.225938
33.30686	-0.01589048	-0.1460702	0	0	0	0
33.32343	-0.01589048	-0.1460702	0	0	0	0
33.35003	-0.01589048	-0.1460702	0	0	0	0
33.3667	-0.01589048	-0.1460702	0	0	0	0
33.38317	-0.01589048	-0.1460702	0	0	0	0
33.39973	-0.01589048	-0.1460702	0	0	0	0
33.41726	-0.01589048	-0.1460702	0	0	0	0
33.43287	-0.01589048	-0.1460702	0	0	0	0
33.44944	-0.01589048	-0.1460702	0	0	0	0
33.466	-0.01589048	-0.1460702	0	0	0	0
33.48257	-0.01589048	-0.1460702	0	0	0	0
33.49913	-0.01589048	-0.1460702	0	0	0	0
33.5157	-0.01589048	-0.1448478	0	0.07378072	0	2.226963
33.53227	-0.01589048	-0.1448478	0	0	0	-2.226707
33.54927	-0.01589048	-0.1399585	0	0.2875743	0	8.566578
33.5654	-0.01222344	-0.131402	0.2273631	0.5305146	6.862623	7.332796
33.58197	-0.0110011	-0.1265127	0.07378072	0.2951229	-4.697317	-7.199454
33.59854	-0.009778756	-0.1204009	0.07376397	0.36882	-0.0005056496	2.223928
33.61571	-0.008556412	-0.1142892	0.07119089	0.3559543	-0.07625976	-0.3813083
33.6317	-0.006111722	-0.1069551	0.1528406	0.4585218	2.461925	3.092646
33.64824	-0.004889378	-0.1008434	0.07391702	0.3695849	-2.426048	-2.733853
33.68189	-0.004889378	-0.09350936	0	0.2179549	-1.472857	-3.02135
33.69846	-0.001222345	-0.07761887	0.2213426	0.9591517	4.40775	14.75997
33.71502	-0.001222345	-0.07761887	0	0	-6.680132	-28.94726
33.73177	-0.001222345	-0.07395184	0	0.2190228	0	6.575299
33.74815	-0.001222345	-0.07028481	0	0.2237637	0	0.1430992
33.76472	0	-0.06661777	0.07378086	0.2213431	2.238825	-0.07345369
33.78162	0	-0.06417309	0	0.1446962	-2.20488	-2.290529
33.79786	0.001222344	-0.0617284	0.07527138	0.1505429	2.271695	0.1764558
33.81461	0.001222344	-0.06050605	0	0.0729742	-2.281677	-2.351316
33.83103	0.001222344	-0.05928371	0	0.07443221	0	0.04395228
33.84756	0.001222345	-0.05806136	7.04306E-09	0.07395123	2.137411E-07	-0.01459666
33.86413	0.001222345	-0.05806136	0	0	-2.127804E-07	-2.234168
33.88069	0.001222345	-0.05806136	0	0	0	0
33.89726	0.001222345	-0.05806136	0	0	0	0
33.91415	0.001222345	-0.05806136	0	0	0	0
33.93039	0.001222345	-0.05806136	0	0	0	0
33.94719	0.001222345	-0.05806136	0	0	0	0
33.96353	0.001222345	-0.05806136	0	0	0	0
33.99195	0.001222345	-0.05806136	0	0	0	0
34.00873	0.001222345	-0.05806136	0	0	0	0
34.02508	0.001222345	-0.05806136	0	0	0	0
34.04165	0.001222345	-0.05806136	0	0	0	0
34.05822	0.001222345	-0.05806136	0	0	0	0
34.07478	0.001222345	-0.05806136	0	0	0	0
34.09135	0.001222345	-0.05806136	0	0	0	0
34.10792	0.001222345	-0.05806136	0	0	0	0
34.12448	0.001222345	-0.05806136	0	0	0	0
34.14609	0.001222345	-0.05806136	0	0	0	0
34.16266	0.001222345	-0.05806136	0	0	0	0
34.17923	0.001222345	-0.05806136	0	0	0	0
34.1958	0.001222345	-0.05806136	0	0	0	0
34.21236	0.001222345	-0.05806136	0	0	0	0
34.22893	0.001222345	-0.05806136	0	0	0	0
34.24594	0.001222345	-0.05806136	0	0	0	0
34.26207	0.001222345	-0.05806136	0	0	0	0
34.27935	0.001222345	-0.05806136	0	0	0	0
34.30319	0.001222345	-0.05806136	0	0	0	0
34.31976	0.001222345	-0.05806136	0	0	0	0
34.33677	0.001222345	-0.05806136	0	0	0	0
34.3529	0.001222345	-0.05806136	0	0	0	0
34.36952	0.001222345	-0.05806136	0	0	0	0
34.38603	0.001222345	-0.05806136	0	0	0	0
34.4026	0.001222345	-0.05806136	0	0	0	0
34.41965	0.001222345	-0.05806136	0	0	0	0
34.43614	0.001222345	-0.05806136	0	0	0	0
34.46358	0.001222345	-0.05806136	0	0	0	0
34.48033	0.001222345	-0.05806136	0	0	0	0
34.49676	0.001222345	-0.05806136	0	0	0	0
34.51353	0.001222345	-0.05806136	0	0	0	0
34.52985	0.001222345	-0.05806136	0	0	0	0
34.54674	0.001222345	-0.05806136	0	0	0	0
34.563	0.001222345	-0.05806136	0	0	0	0
34.57955	0.001222345	-0.05806136	0	0	0	0
34.59612	0.001222345	-0.05806136	0	0	0	0
34.62215	0.001222345	-0.05806136	0	0	0	0
34.63872	0.001222345	-0.05806136	0	0	0	0
34.65528	0.001222345	-0.05806136	0	0	0	0
34.67321	0.001222345	-0.05806136	0	0	0	0
34.68978	0.001222345	-0.05806136	0	0	0	0
34.70714	0.001222345	-0.05806136	0	0	0	0
34.72296	0.001222345	-0.05806136	0	0	0	0
34.7396	0.001222345	-0.05806136	0	0	0	0
34.75605	0.001222345	-0.05806136	0	0	0	0
34.77931	0.001222345	-0.05806136	0	0	0	0
34.79588	0.001222345	-0.05806136	0	0	0	0
34.81245	0.001222345	-0.05806136	0	0	0	0
34.8291	0.001222345	-0.05806136	0	0	0	0
34.84558	0.001222345	-0.05806136	0	0	0	0
34.86215	0.001222345	-0.05806136	0	0	0	0
34.87872	0.001222345	-0.05683902	0	0.07378095	0	2.226713
34.89528	0.001222345	-0.05683902	0	0	0	-2.226713
34.9124	0.001222345	-0.05683902	0	0	0	0
34.94502	0.001222345	-0.05683902	0	0	0	0
34.96178	0.001222345	-0.05683902	0	0	0	0
34.97816	0.001222345	-0.05683902	0	0	0	0
34.99493	0.001222345	-0.05683902	0	0	0	0
35.0117	0.001222345	-0.05683902	0	0	0	0
35.02805	0.001222345	-0.05683902	0	0	0	0
35.04478	0.001222345	-0.05683902	0	0	0	0
35.061	0.001222345	-0.05683902	0	0	0	0
35.09195	0.001222345	-0.05683902	0	0	0	0
35.10852	0.001222345	-0.05683902	0	0	0	0
35.12508	0.001222345	-0.05683902	0	0	0	0
35.14165	0.002444689	-0.05683902	0.07378085	-2.24859E-07	2.226967	-6.787038E-06
35.15841	0.002444689	-0.05683902	0	0	-2.21422	6.748189E-06
35.17478	0.002444689	-0.05683902	0	0	0	0
35.19135	0.007334067	-0.04950495	0.2951234	0.4426852	8.95841	13.43762
35.20792	0.02689158	-0.02994744	1.180222	1.180222	26.70926	22.25634
35.22448	0.0440044	-0.009167584	1.03317	1.254563	-4.438036	2.243629
35.24105	0.05378316	0.006722894	0.5903826	0.9593721	-13.36643	-8.910944
35.25814	0.05622785	0.01161227	0.1430175	0.2860346	-13.29186	-20.00582
35.27419	0.05622785	0.01161227	0	0	-4.315779	-8.631549
35.29075	0.05622785	0.01161227	0	0	0	0
35.30742	0.05622785	0.01161227	0	0	0	0
35.32396	0.05622785	0.01161227	0	0	0	0
35.34045	0.05622785	0.01161227	0	0	0	0
35.35702	0.05622785	0.01161227	0	0	0	0
35.37369	0.05622785	0.01161227	0	0	0	0
35.39015	0.05622785	0.01161227	0	0	0	0
35.40701	0.05622785	0.01161227	0	0	0	0
35.42328	0.05622785	0.01161227	0	0	0	0
35.43985	0.05622785	0.01161227	0	0	0	0
35.45667	0.05622785	0.01161227	0	0	0	0
35.47298	0.05622785	0.01161227	0	0	0	0
35.48978	0.05622785	0.01161227	0	0	0	0
35.50612	0.05622785	0.01161227	0	0	0	0
35.52269	0.05622785	0.01161227	0	0	0	0
35.5394	0.05622785	0.01161227	0	0	0	0
35.55584	0.05622785	0.01161227	0	0	0	0
35.57881	0.05622785	0.01161227	0	0	0	0
35.596	0.05622785	0.01161227	0	0	0	0
35.61215	0.05622785	0.01161227	0	0	0	0
35.62851	0.05622785	0.01161227	0	0	0	0
35.64508	0.05622785	0.01161227	0	0	0	0
35.66164	0.05622785	0.01161227	0	0	0	0
35.67821	0.05622785	0.01161227	0	0	0	0
35.69478	0.05622785	0.01161227	0	0	0	0
35.71135	0.05622785	0.01161227	0	0	0	0
35.72864	0.05622785	0.01161227	0	0	0	0
35.8087	0.05622785	0.01161227	0	0	0	0
35.82536	0.05622785	0.01161227	0	0	0	0
35.84184	0.05622785	0.01161227	0	0	0	0
35.8584	0.05622785	0.01161227	0	0	0	0
35.88592	0.05622785	0.01161227	0	0	0	0
35.90253	0.05622785	0.01161227	0	0	0	0
35.91924	0.05622785	0.01161227	0	0	0	0
35.93577	0.05622785	0.01161227	0	0	0	0
35.95219	0.05867254	0.01161227	0.1488988	0	4.519269	0
35.96876	0.06478426	0.01527931	0.3688194	0.2212917	6.666381	6.707942
35.98532	0.07823005	0.02016868	0.8117762	0.2951914	13.36846	2.230297
36.00189	0.08923115	0.02383572	0.6640279	0.2213425	-4.459568	-2.22902
36.01862	0.1014546	0.03239213	0.7307413	0.5115193	2.003727	8.715411
36.04055	0.1161227	0.04706026	0.6689569	0.6689567	-1.598384	4.072956
36.05711	0.141792	0.0727295	1.549399	1.549398	22.87212	22.87211
36.07373	0.141792	0.0727295	0	0	-46.69643	-46.69642
36.09025	0.145459	0.08250825	0.2219554	0.5918821	6.698629	17.86304
36.10704	0.1479037	0.092287	0.1456168	0.5824679	-2.291769	-0.2826242
36.12338	0.1479037	0.09962107	-9.118231E-07	0.448782	-4.395256	-4.035113
36.13995	0.145459	0.1093998	-0.1475606	0.5902472	-4.483815	4.298625
36.15651	0.1405696	0.1167339	-0.2951229	0.4426852	-4.45344	-4.453427
36.17336	0.1307909	0.1252903	-0.5803589	0.5078129	-8.535721	1.948953
36.20013	0.1197897	0.1338467	-0.4109255	0.3196084	3.884212	-4.314533
36.2167	0.07578536	0.1546266	-2.65611	1.254275	-51.80545	21.56652
36.23327	0.06233957	0.1570713	-0.8115895	0.1475614	55.66774	-33.40068
36.24984	0.04767144	0.1619606	-0.8853703	0.2951238	-2.226707	4.45344
36.2664	0.01589048	0.1656277	-1.918302	0.2213422	-31.17395	-2.226733
36.28355	-0.01466813	0.1656277	-1.782148	8.690211E-07	4.038467	-6.565207
36.29954	-0.05622784	0.1656277	-2.59953	-9.320568E-07	-24.66862	-5.435663E-05
36.3161	-0.0794524	0.1619606	-1.401837	-0.2213422	36.79026	-6.799072
36.33267	-0.1002323	0.1582936	-1.254275	-0.2213431	4.453431	-2.698308E-05
36.35946	-0.1197898	0.1521819	-0.7300135	-0.2281288	12.09149	-0.1565047
36.37603	-0.1527931	0.1460702	-1.991625	-0.3688196	-29.09508	-3.24459
36.3926	-0.1650165	0.1448478	-0.7378091	-0.07378072	37.83587	8.903266
36.40917	-0.1711282	0.1436255	-0.3688187	-0.07376464	11.13487	0.0004854146
36.42587	-0.184574	0.1424031	-0.8051015	-0.07318999	-13.11269	0.01727134
36.44236	-0.2090209	0.1375138	-1.48313	-0.2966264	-20.43237	-6.733246
36.45887	-0.2224667	0.1350691	-0.8144026	-0.1480729	20.26858	4.502534
36.47544	-0.2334678	0.131402	-0.6637227	-0.2212403	4.554344	-2.211507
36.49207	-0.2469136	0.127735	-0.8086081	-0.2205315	-4.363608	0.02134705
36.51504	-0.2628041	0.1204009	-0.6917312	-0.3192587	2.951409	-2.493089
36.53207	-0.3068085	0.1069551	-2.583535	-0.7894142	-47.28951	-11.7525
36.54818	-0.3190319	0.1008434	-0.759134	-0.379567	55.06054	12.36921
36.5652	-0.3312554	0.0947317	-0.7178102	-0.3589051	1.247298	0.6236489
36.58131	-0.3508129	0.08495294	-1.214326	-0.6071628	-14.98487	-7.492433
36.59827	-0.3630363	0.07639652	-0.7205525	-0.504388	14.93133	3.107832
36.61492	-0.3642586	0.07639653	-0.07342569	4.475538E-07	19.25325	15.00652
36.63845	-0.3642586	0.07639653	0	0	1.827409	-1.113866E-05
36.67837	-0.365481	0.07639653	-0.03062503	0	-0.4826941	0
36.69494	-0.365481	0.07639653	0	0	0.5421873	0
36.71151	-0.365481	0.07639653	0	0	0	0
36.72807	-0.365481	0.07639653	0	0	0	0
36.74464	-0.365481	0.07639653	0	0	0	0
36.76121	-0.365481	0.07639653	0	0	0	0
36.77777	-0.365481	0.07639653	0	0	0	0
36.79457	-0.365481	0.07639653	0	0	0	0
36.81091	-0.365481	0.07517418	0	-0.0747973	0	-2.257387
36.83216	-0.365481	0.07517418	0	0	0	1.989818
36.84872	-0.365481	0.07517418	0	0	0	0
36.86529	-0.365481	0.07517418	0	0	0	0
36.88191	-0.3642587	0.07517418	0.07355874	0	2.21669	0
36.89843	-0.3642587	0.07517418	0	0	-2.219752	0
36.91499	-0.3642587	0.07517418	0	0	0	0
36.93172	-0.3434788	0.07395184	1.241979	-0.07305738	37.30263	-2.194266
36.94813	-0.3104755	0.06784011	2.012004	-0.3725936	23.23939	-9.04002
36.96469	-0.2701381	0.06050605	2.434767	-0.4426848	12.82251	-2.125881
36.98841	-0.2114656	0.04583792	2.47357	-0.6183923	0.9631427	-4.361392
37.00498	-0.1307909	0.01650165	4.869537	-1.770741	59.47244	-28.60347
37.02155	-0.1307909	0.01650165	0	0	-146.946	53.43491
37.03859	-0.110011	0.009167584	1.219457	-0.4303966	36.28117	-12.80512
37.05468	-0.1087887	0.00794524	0.07596767	-0.07596733	-34.51455	10.69793
37.07125	-0.1075663	0.007945239	0.07378072	-5.621474E-08	-0.06696589	2.326173
37.08782	-0.1075663	0.007945239	0	0	-2.226707	1.696564E-06
37.10439	-0.1075663	0.007945239	0	0	0	0
37.12095	-0.1075663	0.007945239	0	0	0	0
37.14765	-0.1075663	0.007945239	0	0	0	0
37.16439	-0.1051216	0.00794524	0.1460149	5.562557E-08	3.360868	1.28035E-06
37.18079	-0.1051216	0.00794524	0	0	-4.406738	-1.678783E-06
37.19735	-0.1002323	0.009167584	0.2951233	0.07378083	8.954261	2.238565
37.21414	-0.08678646	0.01038993	0.800894	0.07280849	15.16294	-0.02915079
37.23077	-0.05256081	0.01283462	2.057809	0.1469864	37.60903	2.21953
37.24706	-0.02566924	0.01283462	1.651702	0	-12.33871	-4.465879
37.26362	0	0.01283462	1.549398	-5.621474E-08	-3.114439	-1.711341E-06
37.28019	0.01344579	0.01283462	0.8114026	0	-22.27019	1.696369E-06
37.30537	0.01711282	0.01283462	0.1456502	3.6991E-08	-15.94691	8.860535E-07
37.32238	0.0220022	0.01283462	0.2875104	0	3.362976	-8.769189E-07
37.3385	0.0220022	0.01283462	0	0	-8.67708	0
37.35507	0.0220022	0.01283462	0	0	0	0
37.37164	0.0220022	0.01283462	0	0	0	0
37.39769	0.0220022	0.01283462	0	0	0	0
37.41426	0.0220022	0.01283462	0	0	0	0
37.43083	0.0220022	0.01283462	0	0	0	0
37.4474	0.0220022	0.01283462	0	0	0	0
37.4776	0.0220022	0.01283462	0	0	0	0
37.49417	0.0220022	0.01283462	0	0	0	0
37.51074	0.0220022	0.01283462	0	0	0	0
37.52731	0.0220022	0.01283462	0	0	0	0
37.54387	0.0220022	0.01283462	0	0	0	0
37.56044	0.0220022	0.01283462	0	0	0	0
37.577	0.0220022	0.01283462	0	0	0	0
37.59372	0.0220022	0.01283462	0	0	0	0
37.61018	0.0220022	0.01283462	0	0	0	0
37.6342	0.0220022	0.01283462	0	0	0	0
37.65076	0.0220022	0.01283462	0	0	0	0
37.66733	0.0220022	0.01283462	0	0	0	0
37.6839	0.0220022	0.01283462	0	0	0	0
37.70047	0.0220022	0.01283462	0	0	0	0
37.71703	0.0220022	0.01283462	0	0	0	0
37.73394	0.0220022	0.01283462	0	0	0	0
37.75016	0.0220022	0.01283462	0	0	0	0
37.76673	0.0220022	0.01283462	0	0	0	0
37.79119	0.0220022	0.01283462	0	0	0	0
37.80777	0.0220022	0.01283462	0	0	0	0
37.82433	0.0220022	0.01283462	0	0	0	0
37.8409	0.0220022	0.01283462	0	0	0	0
37.85789	0.0220022	0.01283462	0	0	0	0
37.87414	0.0220022	0.01283462	0	0	0	0
37.8906	0.0220022	0.01283462	0	0	0	0
37.90736	0.0220022	0.01283462	0	0	0	0
37.92415	0.0220022	0.01283462	0	0	0	0
37.95034	0.0220022	0.01283462	0	0	0	0
37.96691	0.0220022	0.01283462	0	0	0	0
37.98347	0.0220022	0.01283462	0	0	0	0
38.00005	0.0220022	0.01283462	0	0	0	0
38.01661	0.0220022	0.01283462	0	0	0	0
38.03318	0.0220022	0.01283462	0	0	0	0
38.04974	0.0220022	0.01283462	0	0	0	0
38.06651	0.0220022	0.01283462	0	0	0	0
38.08288	0.0220022	0.01283462	0	0	0	0
38.10435	0.0220022	0.01283462	0	0	0	0
38.12091	0.0220022	0.01283462	0	0	0	0
38.13754	0.0220022	0.01283462	0	0	0	0
38.15405	0.0220022	0.01283462	0	0	0	0
38.17062	0.0220022	0.01283462	0	0	0	0
38.18719	0.0220022	0.01283462	0	0	0	0
38.20949	0.0220022	0.01283462	0	0	0	0
38.22607	0.0220022	0.01283462	0	0	0	0
38.24263	0.0220022	0.01283462	0	0	0	0
38.26393	0.0220022	0.01283462	0	0	0	0
38.2805	0.0220022	0.01283462	0	0	0	0
38.29721	0.0220022	0.01283462	0	0	0	0
38.31364	0.0220022	0.01283462	0	0	0	0
38.3302	0.0220022	0.01283462	0	0	0	0
38.34677	0.0220022	0.01283462	0	0	0	0
38.36334	0.0220022	0.01283462	0	0	0	0
38.38005	0.0220022	0.01283462	0	0	0	0
38.39652	0.0220022	0.01283462	0	0	0	0
38.42252	0.0220022	0.01283462	0	0	0	0
38.43909	0.0220022	0.01283462	0	0	0	0
38.45566	0.0220022	0.01283462	0	0	0	0
38.47223	0.0220022	0.01283462	0	0	0	0
38.48932	0.0220022	0.01283462	0	0	0	0
38.5054	0.0220022	0.01283462	0	0	0	0
38.52193	0.0220022	0.01283462	0	0	0	0
38.5386	0.0220022	0.01283462	0	0	0	0
38.55506	0.0220022	0.01283462	0	0	0	0
38.5791	0.0220022	0.01283462	0	0	0	0
38.59567	0.0220022	0.01283462	0	0	0	0
38.61224	0.0220022	0.01283462	0	0	0	0
38.62913	0.0220022	0.01283462	0	0	0	0
38.64537	0.0220022	0.01283462	0	0	0	0
38.66222	0.0220022	0.01283462	0	0	0	0
38.67851	0.0220022	0.01283462	0	0	0	0
38.69508	0.0220022	0.01283462	0	0	0	0
38.71164	0.0220022	0.01283462	0	0	0	0
38.73914	0.0220022	0.01283462	0	0	0	0
38.7564	0.0220022	0.01283462	0	0	0	0
38.77279	0.0220022	0.01283462	0	0	0	0
38.78884	0.0220022	0.01283462	0	0	0	0
38.8054	0.0220022	0.01283462	0	0	0	0
38.82197	0.0220022	0.01283462	0	0	0	0
38.83854	0.0220022	0.01283462	0	0	0	0
38.85511	0.02322455	0.01283462	0.07378083	-5.621474E-08	2.22671	-1.696564E-06
38.87168	0.02322455	0.01161227	0	-0.07376385	-2.226454	-2.22594
38.88824	0.02322455	0.01161227	0	0	0	2.225941
38.90481	0.02322455	0.01161227	0	0	0	0
38.92138	0.02322455	0.01161227	0	0	0	0
38.93794	0.02322455	0.01161227	0	0	0	0
38.95465	0.02322455	0.01161227	0	0	0	0
38.97107	0.02322455	0.01161227	0	0	0	0
38.98774	0.02322455	0.01161227	0	0	0	0
39.0042	0.02322455	0.01161227	0	0	0	0
39.02088	0.02322455	0.01161227	0	0	0	0
39.03734	0.02322455	0.01161227	0	0	0	0
39.05416	0.02322455	0.01161227	0	0	0	0
39.07047	0.02322455	0.01161227	0	0	0	0
39.08704	0.02322455	0.01161227	0	0	0	0
39.10389	0.02322455	0.01161227	0	0	0	0
39.12017	0.02322455	0.01161227	0	0	0	0
39.13674	0.02322455	0.01161227	0	0	0	0
39.15331	0.02322455	0.01161227	0	0	0	0
39.16988	0.02322455	0.01161227	0	0	0	0
39.18644	0.02322455	0.01161227	0	0	0	0
39.2174	0.02322455	0.01161227	0	0	0	0
39.23397	0.02322455	0.01161227	0	0	0	0
39.25054	0.02322455	0.01161227	0	0	0	0
39.26711	0.02322455	0.01161227	0	0	0	0
39.28368	0.02322455	0.01161227	0	0	0	0
39.30024	0.02322455	0.01161227	0	0	0	0
39.31686	0.02322455	0.01161227	0	0	0	0
39.33352	0.02322455	0.01161227	0	0	0	0
39.34995	0.02322455	0.01161227	0	0	0	0
39.3833	0.02322455	0.01161227	0	0	0	0
39.39987	0.02322455	0.01161227	0	0	0	0
39.41644	0.02322455	0.01161227	0	0	0	0
39.43336	0.02322455	0.01161227	0	0	0	0
39.44958	0.02322455	0.01161227	0	0	0	0
39.46614	0.02322455	0.01161227	0	0	0	0
39.48276	0.02322455	0.01161227	0	0	0	0
39.49928	0.02322455	0.01161227	0	0	0	0
39.52829	0.02322455	0.01161227	0	0	0	0
39.54485	0.02322455	0.01161227	0	0	0	0
39.56142	0.02322455	0.01161227	0	0	0	0
39.57798	0.02322455	0.01161227	0	0	0	0
39.59475	0.02322455	0.01161227	0	0	0	0
39.61112	0.02322455	0.01161227	0	0	0	0
39.62811	0.02322455	0.01161227	0	0	0	0
39.64425	0.02322455	0.01161227	0	0	0	0
39.66082	0.02322455	0.01161227	0	0	0	0
39.67738	0.02322455	0.01161227	0	0	0	0
39.69395	0.02322455	0.01161227	0	0	0	0
39.71052	0.02322455	0.01161227	0	0	0	0
39.72762	0.02322455	0.01161227	0	0	0	0
39.74369	0.02322455	0.01161227	0	0	0	0
39.76787	0.02322455	0.01161227	0	0	0	0
39.78444	0.02322455	0.01161227	0	0	0	0
39.80101	0.02322455	0.01161227	0	0	0	0
39.81757	0.02322455	0.01161227	0	0	0	0
39.84793	0.02322455	0.01161227	0	0	0	0
39.89031	0.02322455	0.01161227	0	0	0	0
39.90689	0.02322455	0.01161227	0	0	0	0
39.92348	0.02322455	0.01161227	0	0	0	0
39.94002	0.02322455	0.01161227	0	0	0	0
39.95664	0.02322455	0.01161227	0	0	0	0
39.97316	0.02322455	0.01161227	0	0	0	0
39.99751	0.02322455	0.01161227	0	0	0	0
40.01408	0.02322455	0.01161227	0	0	0	0
40.03064	0.02322455	0.01161227	0	0	0	0
40.04721	0.02322455	0.01161227	0	0	0	0
40.06412	0.02322455	0.01161227	0	0	0	0
40.08034	0.02322455	0.01161227	0	0	0	0
40.09742	0.02322455	0.01161227	0	0	0	0
40.11348	0.02322455	0.01161227	0	0	0	0
40.13005	0.02322455	0.01161227	0	0	0	0
40.14661	0.02322455	0.01161227	0	0	0	0
40.16859	0.02322455	0.01161227	0	0	0	0
40.18516	0.02322455	0.01161227	0	0	0	0
40.20173	0.02322455	0.01161227	0	0	0	0
40.2183	0.02322455	0.01161227	0	0	0	0
40.23486	0.02322455	0.01161227	0	0	0	0
40.25143	0.02322455	0.01161227	0	0	0	0
40.26814	0.02322455	0.01161227	0	0	0	0
40.28456	0.02322455	0.01161227	0	0	0	0
40.30113	0.02322455	0.01161227	0	0	0	0
40.32578	0.02322455	0.009167584	0	-0.09920443	0	-2.40728
40.34235	0.02444689	0.00794524	0.07376397	-0.07376385	1.78978	0.6172801
40.35891	0.02444689	0.00794524	0	0	-2.226201	2.226197
40.37548	0.02444689	0.00794524	0	0	0	0
40.39205	0.02444689	0.00794524	0	0	0	0
40.40861	0.02444689	0.00794524	0	0	0	0
40.42518	0.02444689	0.006722894	-1.124036E-07	-0.07376391	-3.392347E-06	-2.226199
40.44177	0.02444689	0.006722894	0	0	3.390006E-06	2.224662
40.45831	0.02444689	0.006722894	0	0	0	0
40.4897	0.02444689	0.006722894	0	0	0	0
40.50642	0.02444689	0.006722894	0	0	0	0
40.52284	0.02444689	0.006722894	0	0	0	0
40.53941	0.02444689	0.006722894	0	0	0	0
40.55647	0.02444689	0.006722894	0	0	0	0
40.57254	0.02444689	0.006722894	0	0	0	0
40.58911	0.02444689	0.006722894	0	0	0	0
40.61862	0.02444689	0.006722894	0	0	0	0
40.63933	0.02444689	0.006722894	0	0	0	0
40.6559	0.02444689	0.006722894	0	0	0	0
40.67247	0.02444689	0.006722894	0	0	0	0
40.68903	0.02444689	0.006722894	0	0	0	0
40.70593	0.02444689	0.01161227	1.102215E-07	0.2893277	3.293879E-06	8.646318
40.72237	0.02444689	0.0287251	0	1.040841	-3.305939E-06	22.54058
40.7388	0.01711282	0.05194964	-0.4464891	1.413882	-13.58455	11.34988
40.75529	0.004889378	0.07517418	-0.7408792	1.40767	-8.941329	-0.1886659
40.77186	-0.003667033	0.092287	-0.516466	1.032932	6.78687	-11.33311
40.78843	-0.01222344	0.1032881	-0.516466	0.6640279	0	-11.13355
40.81072	-0.01589048	0.1106222	-0.1645202	0.3290402	9.057577	-8.621146
40.828	-0.01833517	0.1155116	-0.1415015	0.283003	0.5817778	-1.163553
40.84385	-0.01833517	0.1155116	0	0	4.270524	-8.541048
40.86042	-0.01833517	0.1155116	0	0	0	0
40.87699	-0.01833517	0.1155116	0	0	0	0
40.89381	-0.01833517	0.1155116	0	0	0	0
40.91103	-0.01955751	0.1155116	-0.07095442	0	-2.084064	0
40.92669	-0.0220022	0.1155116	-0.1561552	0	-2.591052	0
40.94325	-0.02933627	0.1155116	-0.4427871	0	-8.896381	0
40.96571	-0.05622785	0.1155116	-1.197667	6.636511E-07	-19.34759	1.70094E-05
40.98227	-0.1014546	0.1167339	-2.729892	0.07377983	-39.26714	1.890778
40.99909	-0.1014546	0.1167339	0	0	81.77634	-2.21014
41.01541	-0.1332355	0.1179562	-1.947449	0.07490221	-58.77412	2.260553
41.03197	-0.1674612	0.1204009	-2.065864	0.1475614	-3.600721	2.209394
41.04865	-0.1735729	0.1216233	-0.3665414	0.0733081	51.12086	-2.23377
41.06577	-0.1747953	0.1216233	-0.07141377	4.352853E-07	8.734018	-2.16947
41.08184	-0.1747953	0.1216233	0	0	2.151556	-1.311429E-05
41.09868	-0.1747953	0.1216233	0	0	0	0
41.11481	-0.1747953	0.1228456	9.239002E-07	0.07578753	2.802533E-05	2.298918
41.13974	-0.1662389	0.1301797	0.3431774	0.2941533	8.357642	5.31803
41.15631	-0.1320132	0.1570713	2.065865	1.623178	41.51045	32.02462
41.17287	-0.1197898	0.16685	0.7378082	0.5902476	-40.08083	-31.17389
41.18944	-0.09778755	0.1815182	1.328056	0.8853696	17.81372	8.9068
41.20601	-0.08067475	0.1961863	1.033169	0.8855744	-8.900742	0.006181635
41.22257	-0.06722895	0.2071874	0.8115898	0.6640283	-6.688042	-6.687043
41.23914	-0.05745019	0.2194108	0.590111	0.7376383	-6.683473	2.221297
41.25571	-0.05011613	0.2328566	0.4426852	0.8115889	-4.448806	2.231576
41.27227	-0.04155971	0.2536365	0.5165852	1.254564	2.230561	13.37055
41.29794	-0.03667034	0.2683046	0.1905336	0.5716016	-7.721786	-16.1744
41.31451	-0.02933627	0.2915292	0.4425834	1.401515	5.968146	19.65104
41.33131	-0.02689158	0.2964185	0.1454849	0.2909673	-8.901887	-33.27504
41.34764	-0.02322455	0.3074196	0.2245481	0.6736452	2.386134	11.54924
41.36421	-0.01711282	0.3184207	0.3689044	0.6640283	4.388002	-0.2923237
41.38077	-0.01222344	0.3294218	0.2951913	0.6641812	-2.224922	0.004614637
41.39734	-0.0110011	0.3379782	0.07378083	0.5164651	-6.682951	-4.458596
41.42457	-0.0110011	0.3404229	3.420294E-08	0.08978137	-1.684626	-9.742407
41.45877	-0.0110011	0.3404229	0	0	-5.567275E-07	-1.461388
41.47539	-0.0110011	0.3404229	0	0	0	0
41.49191	-0.0110011	0.3404229	0	0	0	0
41.50848	-0.0110011	0.3404229	0	0	0	0
41.52505	-0.0110011	0.3404229	0	0	0	0
41.54161	-0.009778756	0.340423	0.07378083	1.798872E-06	2.226454	5.428381E-05
41.55818	-0.009778756	0.340423	0	0	-2.22671	-5.429006E-05
41.57481	-0.009778756	0.340423	0	0	0	0
41.59168	-0.009778756	0.340423	0	0	0	0
41.63311	-0.009778756	0.340423	0	0	0	0
41.64968	-0.01344579	0.3220878	-0.2213426	-1.106714	-3.816592	-19.08298
41.66624	-0.01466813	0.308642	-0.07378078	-0.8115898	4.453425	8.906881
41.68281	-0.01589048	0.2927515	-0.07378095	-0.9591494	-4.946897E-06	-4.453359
41.69963	-0.01589048	0.2426354	0	-2.979733	2.209921	-60.52148
41.71595	-0.01466813	0.2084097	0.07491943	-2.097744	2.261073	26.6185
41.73251	-0.006111722	0.1741841	0.516585	-2.066339	13.43311	0.955179
41.74908	0.003667034	0.131402	0.590111	-2.581736	2.21902	-15.55473
41.77383	0.0110011	0.09106467	0.2963289	-1.629808	-7.109788	23.0375
41.7904	0.02933627	0.01650165	1.106458	-4.499597	19.60584	-69.45142
41.80696	0.03178095	0.004278205	0.1475957	-0.7379785	-28.93853	113.5259
41.82353	0.03789268	-0.02139103	0.3689045	-1.549398	6.679884	-24.49151
41.8401	0.04155971	-0.04094854	0.2213424	-1.180494	-4.453434	11.13356
41.85667	0.04278206	-0.06050605	0.07376397	-1.180222	-4.453413	0.008209106
41.87324	0.0440044	-0.06784012	0.07378095	-0.4426857	0.0005123946	22.25632
41.88989	0.0440044	-0.07150716	0	-0.2201766	-2.220833	6.697603
41.90638	0.0440044	-0.07395184	0	-0.1483127	0	2.168606
41.93308	0.0440044	-0.07517418	0	-0.04577567	0	2.374303
41.94965	0.0440044	-0.07517418	0	0	0	1.057812
41.96667	0.0440044	-0.07517418	0	0	0	0
41.98278	0.0440044	-0.07517418	0	0	0	0
41.99935	0.0440044	-0.07517418	0	0	0	0
42.01592	0.0440044	-0.07517418	0	0	0	0
42.03249	0.0440044	-0.07517418	0	0	0	0
42.04962	0.0440044	-0.07517418	0	0	0	0
42.06572	0.0440044	-0.07517418	0	0	0	0
42.08474	0.0440044	-0.07517418	0	0	0	0
42.10131	0.0440044	-0.07517418	0	0	0	0
42.11853	0.0440044	-0.07517418	0	0	0	0
42.13445	0.0440044	-0.07517418	0	0	0	0
42.15113	0.0440044	-0.07517418	0	0	0	0
42.16758	0.0440044	-0.07517418	0	0	0	0
42.18415	0.0440044	-0.07517418	0	0	0	0
42.20288	0.0440044	-0.07517418	0	0	0	0
42.21945	0.0440044	-0.07517418	0	0	0	0
42.24279	0.0440044	-0.07517418	0	0	0	0
42.25935	0.0440044	-0.07517418	0	0	0	0
42.27592	0.0440044	-0.07517418	0	0	0	0
42.29249	0.0440044	-0.07517418	0	0	0	0
42.30942	0.0440044	-0.07517418	0	0	0	0
42.32563	0.0440044	-0.07517418	0	0	0	0
42.34219	0.0440044	-0.07517418	0	0	0	0
42.35913	0.0440044	-0.07517418	0	0	0	0
42.37567	0.0440044	-0.07517418	0	0	0	0
42.41082	0.0440044	-0.07517418	0	0	0	0
42.42739	0.0440044	-0.07517418	0	0	0	0
42.44395	0.0440044	-0.07517418	0	0	0	0
42.46052	0.0440044	-0.07395184	0	0.07378072	0	2.226707
42.47709	0.0440044	-0.07028481	-2.24859E-07	0.2213426	-6.786257E-06	4.453427
42.49366	0.0440044	-0.06784012	2.24859E-07	0.1475614	1.357251E-05	-2.22672
42.51022	0.04278206	-0.06295075	-0.07378072	0.2951233	-2.226713	4.453427
42.52679	0.04278206	-0.06050605	-2.24859E-07	0.1475624	2.2267	-4.453399
42.54386	0.04155971	-0.05561667	-0.07160462	0.2864178	-2.128676	4.127934
42.57256	0.04155971	-0.05317199	1.298275E-07	0.085198	1.564621	-4.396813
42.58912	0.04033737	-0.04706026	-0.07378095	0.3689045	-1.630111	6.268181
42.60569	0.04033737	-0.04706026	0	0	2.226713	-11.13356
42.62226	0.03911503	-0.04461557	-0.07378072	0.1475617	-2.226707	4.45342
42.63883	0.03911503	-0.04461557	0	0	2.22645	-4.452908
42.6554	0.03911503	-0.04461557	0	0	0	0
42.67196	0.03911502	-0.04339323	-2.24859E-07	0.07378072	-6.786257E-06	2.226707
42.68853	0.03911502	-0.04339323	0	0	6.786257E-06	-2.226707
42.7051	0.03911502	-0.04339323	0	0	0	0
42.73319	0.03911502	-0.04339323	0	0	0	0
42.74976	0.03789268	-0.04217089	-0.07378095	0.07378095	-1.652108	1.652108
42.76643	0.03789268	-0.04217089	0	0	2.219813	-2.219813
42.78289	0.03789268	-0.04217089	0	0	0	0
42.79946	0.03789268	-0.04094854	0	0.07378095	0	2.233657
