Time	Pos X	Pos Y	Vel X	Vel Y	Acc X	Acc Y
0.01693384	0.004889378	0.04583792	-0.0001086599	-0.001018686	2.415698E-06	2.264717E-05
0.03488891	0.004889378	0.04583792	0	0	-2.415784E-06	-2.264798E-05
0.06721546	0.004889378	0.04583792	0	0	0	0
0.08378573	0.004889378	0.04583792	0	0	0	0
0.1011704	0.004889378	0.04583792	0	0	0	0
0.1169195	0.004889378	0.04583792	0	0	0	0
0.1334863	0.004889378	0.04583792	0	0	0	0
0.1500549	0.004889378	0.04583792	0	0	0	0
0.1666205	0.004889378	0.04583792	0	0	0	0
0.1907428	0.004889378	0.04583792	0	0	0	0
0.2267355	0.004889378	0.04583792	0	0	0	0
0.2433061	0.004889378	0.04583792	0	0	0	0
0.2599313	0.006111722	0.04583792	0.07352386	0	2.214855	0
0.2764368	0.009778756	0.04583792	0.2221698	0	4.486658	0
0.2931235	0.01711282	0.04583792	0.4395156	0	6.548087	0
0.3097976	0.02444689	0.04583792	0.4398479	0	0.009961559	0
0.3261381	0.03422565	0.04583792	0.5984358	0	4.803566	0
0.3427116	0.04889378	0.04583792	0.8850389	-2.247749E-07	8.707647	-6.829167E-06
0.359272	0.07089598	0.04706026	1.328603	0.07381135	13.38704	2.22768
0.3921295	0.08189709	0.0482826	0.3348127	0.03720131	-20.10992	-0.7408254
0.4086989	0.09778756	0.0507273	0.9590214	0.147542	12.62891	2.232398
0.4256888	0.1002323	0.0507273	0.143891	0	-24.28922	-4.39645
0.4418328	0.1026769	0.05194964	0.1514307	0.07571557	0.2275523	2.285146
0.4585353	0.1210121	0.0617284	1.097749	0.5854663	28.81041	15.51922
0.4751663	0.1381249	0.07028481	1.028968	0.514484	-2.063441	-2.129453
0.4917251	0.1503484	0.07761887	0.7381826	0.4429095	-8.761252	-2.156517
0.508205	0.1589048	0.08617529	0.5192053	0.5192044	-6.627907	2.309262
0.5247685	0.1637942	0.08984232	0.2951888	0.221392	-6.779468	-9.012771
0.560055	0.1662388	0.0947317	0.06928116	0.1385627	-4.356948	-1.59748
0.5766245	0.1662388	0.09717638	0	0.1475408	-1.336032	0.1731352
0.5931892	0.1662388	0.09717638	0	0	0	-4.452823
0.6097559	0.1662388	0.09717638	0	0	0	0
0.6263254	0.1662388	0.09717638	0	0	0	0
0.6428917	0.1662388	0.09717638	0	0	0	0
0.6594596	0.1662388	0.09717638	0	0	0	0
0.6764668	0.1662388	0.09717638	0	0	0	0
0.710044	0.1662388	0.09717638	0	0	0	0
0.7266111	0.1662388	0.09717638	0	0	0	0
0.7431778	0.1662388	0.09717638	0	0	0	0
0.7601637	0.1662388	0.09717638	0	0	0	0
0.7763144	0.1662388	0.09717638	0	0	0	0
0.7928811	0.1662388	0.09717638	0	0	0	0
0.8094497	0.1662388	0.09717638	0	0	0	0
0.8260168	0.1662388	0.09717638	0	0	0	0
0.843109	0.1662388	0.09717638	0	0	0	0
0.8998353	0.1662388	0.09717638	0	0	0	0
0.9164056	0.1674612	0.09839874	0.07376809	0.07376809	1.006432	1.006432
0.9332838	0.1674612	0.09962108	-8.82865E-07	0.07242142	-2.205452	-0.04026105
0.9495383	0.1747953	0.1057328	0.4512037	0.376002	13.61812	9.162575
0.9662862	0.188241	0.1167339	0.8028342	0.6568645	10.6547	8.510371
0.9827641	0.2065762	0.131402	1.112714	0.8901712	9.326477	7.021861
0.9992881	0.2346901	0.1570713	1.701392	1.553444	17.83768	20.09799
1.037511	0.2542476	0.1717394	0.5116686	0.3837515	-21.73128	-21.3654
1.054461	0.2884733	0.1949639	2.019212	1.37018	27.32395	17.87883
1.070718	0.290918	0.1974086	0.1503791	0.15038	-56.2786	-36.73341
1.087323	0.2958074	0.202298	0.2944513	0.2944513	4.38418	4.384151
1.103783	0.2982521	0.2047427	0.1485197	0.1485188	-4.413401	-4.413428
1.12035	0.3019191	0.2084097	0.2213485	0.2213485	2.205111	2.205138
1.13731	0.3031414	0.2120768	0.07207071	0.2162174	-4.452511	-0.1530466
1.154058	0.3043638	0.2145215	0.07298481	0.1459661	0.02711792	-2.084102
1.190317	0.3043638	0.2157438	-8.219358E-07	0.03371211	-1.376905	-2.117719
1.224449	0.3043638	0.2169661	0	0.03581202	1.167681E-05	0.02983229
1.241081	0.3043638	0.2169661	0	0	0	-0.7054614
1.257587	0.3043638	0.2169661	0	0	0	0
1.274154	0.3043638	0.2169661	0	0	0	0
1.29101	0.3043638	0.2169661	0	0	0	0
1.307286	0.3031414	0.2169661	-0.07510199	0	-2.266738	0
1.360941	0.3031414	0.2169661	0	0	1.073951	0
1.377508	0.3031414	0.2169661	0	0	0	0
1.39408	0.3031414	0.2169661	0	0	0	0
1.410645	0.3031414	0.2169661	0	0	0	0
1.427211	0.3031414	0.2169661	0	0	0	0
1.443782	0.3031414	0.2169661	0	0	0	0
1.473017	0.3031414	0.2169661	0	0	0	0
1.538015	0.3031414	0.2169661	0	0	0	0
1.554582	0.251803	0.1925192	-3.098816	-1.475628	-37.9917	-18.0913
1.571152	0.2408019	0.1864075	-0.6639528	-0.3688612	73.48036	33.40048
1.587719	0.2310231	0.1815182	-0.590251	-0.2951259	2.224205	2.225214
1.604284	0.1980198	0.1644053	-1.992284	-1.033036	-42.31572	-22.27137
1.620854	0.1760176	0.1509596	-1.327817	-0.8114429	20.05286	6.687428
1.637418	0.1527931	0.1399584	-1.402148	-0.6641765	-2.243378	4.444606
1.673613	0.1320132	0.124068	-0.5741062	-0.439022	15.6949	4.267628
1.690183	0.08311942	0.08739763	-2.950704	-2.213028	-45.04086	-33.62065
1.706747	0.08311942	0.08739763	0	0	89.05338	66.79005
1.723316	0.07089598	0.07884122	-0.7377449	-0.5164214	-22.26647	-15.58652
1.740126	0.06233957	0.0727295	-0.5089977	-0.3635699	6.853034	4.579276
1.756449	0.05745019	0.06784012	-0.2995442	-0.299544	6.321592	1.932389
1.773144	0.05622784	0.06661777	-0.07321484	-0.07321484	6.854704	6.854697
1.789582	0.05500551	0.06661778	-0.0743605	4.532533E-07	-0.03457723	2.209714
1.826595	0.05378316	0.06539543	-0.03302472	-0.03302483	0.7733388	-0.6178602
1.843163	0.04522675	0.0617284	-0.5164587	-0.2213392	-9.02257	-3.514605
1.859732	0.04522675	0.0617284	0	0	15.58575	6.679598
1.876525	0.04278206	0.05928371	-0.1455754	-0.1455756	-4.363459	-4.363466
1.893038	0.03422565	0.05561667	-0.5181626	-0.2220701	-11.18671	-2.296701
1.909433	0.02811392	0.05194964	-0.3727804	-0.223668	4.417843	-0.04855562
1.925998	0.0220022	0.04950495	-0.3689679	-0.1475872	0.1156726	2.308323
1.942564	0.01711282	0.04583792	-0.2951404	-0.2213551	2.228373	-2.226578
1.972662	0.01222344	0.04339323	-0.1624475	-0.08122373	2.843553	3.002957
1.989232	0.001222344	0.03972619	-0.663937	-0.2213126	-10.74597	-3.001838
2.005798	-0.001222345	0.03850385	-0.147566	-0.07378285	15.58327	4.452217
2.022365	-0.006111722	0.03605916	-0.2951277	-0.147564	-4.453516	-2.226768
2.038934	-0.01222344	0.03239213	-0.3688619	-0.2213169	-2.22519	-2.225755
2.064332	-0.01711282	0.02994744	-0.1925121	-0.09625599	4.202115	2.979989
2.080902	-0.02444689	0.02750275	-0.4426151	-0.1475385	-5.959426	-1.221955
2.097466	-0.02566923	0.02628041	-0.07379358	-0.07379347	11.13113	2.225647
2.115695	-0.02689158	0.02505806	-0.06705664	-0.06705675	0.1936298	0.1936236
2.132264	-0.02811392	0.02505806	-0.07377245	0	-0.192996	1.927047
2.14883	-0.02811392	0.02505806	0	0	2.226409	0
2.165397	-0.02933627	0.02505806	-0.07378285	0	-2.226883	0
2.181994	-0.02933627	0.02505806	0	0	2.224802	0
2.198537	-0.02933627	0.02505806	0	0	0	0
2.2151	-0.02933627	0.02505806	0	0	0	0
2.231669	-0.02933627	0.02505806	0	0	0	0
2.248236	-0.02933627	0.02505806	0	0	0	0
2.289536	-0.02933627	0.02505806	0	0	0	0
2.306103	-0.02933627	0.02505806	0	0	0	0
2.32296	-0.02933627	0.02505806	0	0	0	0
2.34004	-0.02933627	0.02505806	0	0	0	0
2.355804	-0.02933627	0.02505806	0	0	0	0
2.372597	-0.02933627	0.02505806	0	0	0	0
2.388942	-0.02933627	0.02505806	0	0	0	0
2.405532	-0.02933627	0.02505806	0	0	0	0
2.446521	-0.02933627	0.02505806	0	0	0	0
2.463336	-0.02933627	0.02505806	0	0	0	0
2.479656	-0.02933627	0.02505806	0	0	0	0
2.496222	-0.02933627	0.02505806	0	0	0	0
2.512791	-0.02933627	0.02505806	0	0	0	0
2.529372	-0.02933627	0.02505806	0	0	0	0
2.546194	-0.02933627	0.02505806	0	0	0	0
2.562491	-0.02933627	0.02505806	0	0	0	0
2.607161	-0.02933627	0.02505806	0	0	0	0
2.623757	-0.02933627	0.02505806	0	0	0	0
2.640311	-0.02933627	0.02505806	0	0	0	0
2.656867	-0.02933627	0.02505806	0	0	0	0
2.673433	-0.02933627	0.02505806	0	0	0	0
2.689997	-0.02933627	0.02505806	0	0	0	0
2.706567	-0.02933627	0.02505806	0	0	0	0
2.723367	-0.02933627	0.02505806	0	0	0	0
2.780197	-0.02933627	0.02505806	0	0	0	0
2.796765	-0.02933627	0.02505806	0	0	0	0
2.813332	-0.02933627	0.02505806	0	0	0	0
2.829898	-0.02933627	0.02505806	0	0	0	0
2.846467	-0.02933627	0.02505806	0	0	0	0
2.863055	-0.02933627	0.02505806	0	0	0	0
2.879601	-0.02933627	0.02505806	0	0	0	0
2.898412	-0.02933627	0.02505806	0	0	0	0
2.914982	-0.02933627	0.02505806	0	0	0	0
2.931548	-0.02933627	0.02505806	0	0	0	0
2.948113	-0.02933627	0.02505806	0	0	0	0
2.964682	-0.02933627	0.02505806	0	0	0	0
2.981329	-0.02933627	0.02505806	0	0	0	0
2.998175	-0.02933627	0.02505806	0	0	0	0
3.014385	-0.02933627	0.02505806	0	0	0	0
3.030951	-0.02933627	0.02505806	0	0	0	0
3.064181	-0.02933627	0.02505806	0	0	0	0
3.080751	-0.02933627	0.02505806	0	0	0	0
3.097317	-0.02933627	0.02505806	0	0	0	0
3.113882	-0.02933627	0.02505806	0	0	0	0
3.130448	-0.02933627	0.02505806	0	0	0	0
3.147017	-0.02933627	0.02505806	0	0	0	0
3.163622	-0.02933627	0.02505806	0	0	0	0
3.180154	-0.02933627	0.02505806	0	0	0	0
3.213933	-0.02933627	0.02505806	0	0	0	0
3.230503	-0.02933627	0.02505806	0	0	0	0
3.247069	-0.02933627	0.02505806	0	0	0	0
3.263636	-0.02933627	0.02505806	0	0	0	0
3.280203	-0.02933627	0.02505806	0	0	0	0
3.297014	-0.02933627	0.02505806	0	0	0	0
3.313336	-0.02933627	0.02505806	0	0	0	0
3.329903	-0.02933627	0.02505806	0	0	0	0
3.346695	-0.02933627	0.02505806	0	0	0	0
3.402513	-0.03178095	0.03239213	-0.04379743	0.1313923	-0.603188	1.809565
3.419263	-0.06356192	0.05561667	-1.897387	1.386552	-25.54281	17.29633
3.435651	-0.06722895	0.05561668	-0.2237642	2.27319E-07	50.50494	-41.84199
3.452218	-0.07334067	0.05317198	-0.3688988	-0.1475598	-4.403969	-4.477566
3.46929	-0.0770077	0.05194964	-0.2147926	-0.07159762	4.581051	2.258096
3.485353	-0.0770077	0.05194964	0	0	6.482361	2.160789
3.501919	-0.0770077	0.05194964	0	0	0	0
3.537306	-0.0770077	0.05194964	0	0	0	0
3.553876	-0.0770077	0.05194964	0	0	0	0
3.570604	-0.0770077	0.05194964	0	0	0	0
3.587011	-0.0770077	0.05194964	0	0	0	0
3.603577	-0.0770077	0.05194964	0	0	0	0
3.620144	-0.0770077	0.05194964	0	0	0	0
3.636709	-0.0770077	0.05194964	0	0	0	0
3.653276	-0.0770077	0.05194964	0	0	0	0
3.669843	-0.0770077	0.05194964	0	0	0	0
3.723769	-0.0770077	0.05194964	0	0	0	0
3.740642	-0.0770077	0.05194964	0	0	0	0
3.756903	-0.0770077	0.05194964	0	0	0	0
3.77347	-0.0770077	0.05194964	0	0	0	0
3.79004	-0.0770077	0.05194964	0	0	0	0
3.806909	-0.0770077	0.05194964	0	0	0	0
3.823171	-0.0770077	0.05194964	0	0	0	0
3.887994	-0.0770077	0.05194964	0	0	0	0
3.904561	-0.08067474	0.03972619	-0.2213458	-0.7378192	-2.719573	-9.065242
3.92113	-0.08067474	0.03972619	0	0	6.679893	22.26631
3.937696	-0.08067474	0.03972619	0	0	0	0
3.954264	-0.08067474	0.03972619	0	0	0	0
3.970831	-0.08067474	0.03972619	0	0	0	0
3.9874	-0.08067474	0.03972619	0	0	0	0
4.025593	-0.08067474	0.03972619	0	0	0	0
4.043116	-0.08067474	0.03972619	0	0	0	0
4.058729	-0.08067474	0.03972619	0	0	0	0
4.075296	-0.08067474	0.03972619	0	0	0	0
4.09213	-0.08067474	0.03972619	0	0	0	0
4.10843	-0.08067474	0.03972619	0	0	0	0
4.124999	-0.08067474	0.03972619	0	0	0	0
4.141566	-0.08067474	0.03972619	0	0	0	0
4.185559	-0.08067474	0.03972619	0	0	0	0
4.202127	-0.07334067	0.03361448	0.4426725	-0.3688934	7.309625	-6.091349
4.218797	-0.06967364	0.02994744	0.2199688	-0.2199689	-6.700192	4.480496
4.235261	-0.06356192	0.02750275	0.3712119	-0.1484848	4.56446	2.157363
4.251829	-0.05378316	0.02016868	0.5902299	-0.4426724	6.630494	-8.906156
4.268399	-0.04155971	0.01527931	0.7377027	-0.2950809	4.450352	4.453935
4.284976	-0.03055861	0.01161227	0.6636457	-0.2212153	-2.234239	2.228466
4.301966	-0.01711282	0.009167584	0.7913634	-0.1438842	3.804808	2.303754
4.352275	0.004889378	0.00550055	0.4373397	-0.07288994	-5.260394	1.054895
4.368843	0.1014546	0.003055861	5.82852	-0.1475575	80.61351	-1.116493
4.385409	0.1014546	0.003055861	0	0	-175.9076	4.453358
4.401977	0.1344579	0.004278206	1.992084	0.07378086	60.12294	2.226775
4.418544	0.1650165	0.00550055	1.844468	0.07377871	-4.454993	-6.498331E-05
4.435347	0.1919081	0.006722895	1.600423	0.07274656	-7.313179	-0.03093006
4.451677	0.2126879	0.009167584	1.272477	0.1497031	-9.897856	2.322655
4.468245	0.2224667	0.01038993	0.5902297	0.07377877	-20.7383	-2.307876
4.490479	0.2273561	0.01038993	0.2199061	-4.188739E-08	-9.544012	-1.901434
4.507051	0.2273561	0.01038993	0	0	-5.666882	1.079419E-06
4.523624	0.2273561	0.01038993	0	0	0	0
4.540185	0.2273561	0.01038993	0	0	0	0
4.556748	0.2273561	0.01038993	0	0	0	0
4.573318	0.2273561	0.01161227	0	0.07376815	0	2.226424
4.589885	0.2285784	0.01161227	0.07378285	0	2.22661	-2.226167
4.611529	0.2285784	0.01283462	6.884473E-07	0.05647346	-1.930897	1.477924
4.637976	0.2310231	0.01283462	0.09243775	0	1.922112	-1.174294
4.654663	0.2334678	0.01527931	0.1465031	0.1465033	1.253435	3.39649
4.671111	0.2359125	0.01650165	0.1486309	0.07431557	0.06421745	-2.178599
4.688023	0.2383572	0.01894634	0.1445534	0.1445537	-0.1222279	2.10546
4.704245	0.2408019	0.02139103	0.1507071	0.1507065	0.1857258	0.1856952
4.720811	0.2432466	0.02628041	0.1475699	0.2951404	-0.09568197	4.405114
4.73763	0.2469136	0.02994744	0.2180226	0.218023	2.110263	-2.309892
4.754197	0.2493583	0.03728151	0.1475666	0.4426979	-2.110332	6.729568
4.770513	0.2505806	0.04461557	0.07491616	0.4495034	-2.209383	0.2069624
4.809939	0.2542476	0.05317198	0.0930096	0.2170227	0.324591	-4.170636
4.826507	0.25547	0.06295075	0.0737804	0.5902304	-0.3434151	6.665134
4.843075	0.25547	0.06295075	0	0	-2.226633	-17.81268
4.859646	0.25547	0.06417308	-1.798458E-06	0.07376329	-5.427053E-05	2.225892
4.876214	0.2566923	0.06539544	0.0737804	0.0737795	2.226463	0.0004892297
4.892791	0.2566923	0.06661778	0	0.07373615	-2.225992	-0.001307815
4.909345	0.2566923	0.06784012	0	0.07384023	0	0.003141371
4.926002	0.2566923	0.06784012	0	0	0	-2.223351
4.966714	0.2566923	0.06906247	0	0.0300244	0	0.5233537
4.983721	0.2566923	0.07028481	0	0.07187141	0	0.7250098
4.999849	0.2566923	0.07150715	0	0.07578931	0	0.1182391
5.016417	0.2579147	0.07395184	0.07378072	0.1475619	2.256616	2.195196
5.033416	0.259137	0.07639653	0.07190366	0.1438078	-0.05591994	-0.1118399
5.04955	0.2603593	0.08128591	0.07576329	0.303061	0.1164887	4.806479
5.066138	0.2640264	0.08617529	0.2210658	0.2947501	4.44058	-0.2539892
5.082683	0.2664711	0.0947317	0.1477595	0.5171655	-2.212484	6.712802
5.122498	0.2701381	0.1020658	0.0921014	0.1842019	-0.9875423	-5.907775
5.139066	0.2823616	0.1350691	0.7377878	1.992026	11.45177	32.06321
5.155632	0.2848063	0.1399584	0.1475639	0.2951314	-17.81299	-51.21238
5.172653	0.2860286	0.1436255	0.07181678	0.215446	-2.255221	-2.372476
5.188769	0.2921403	0.1534042	0.3792404	0.6067855	9.27753	11.80997
5.205339	0.2994744	0.1680724	0.4425952	0.8851913	1.938271	8.517523
5.221903	0.3031414	0.1754064	0.221395	0.4427881	-6.675932	-13.35195
5.23847	0.3055861	0.1802958	0.1475597	0.2951229	-2.22861	-4.457058
5.280971	0.3080308	0.1851852	0.05752202	0.115043	-1.524312	-3.048702
5.310424	0.3116978	0.1925192	0.1245032	0.2490064	0.9308916	1.861798
5.326998	0.3129202	0.1937416	0.07375101	0.0737519	-1.102656	-3.80763
5.343562	0.3129202	0.1937416	0	0	-2.225586	-2.225613
5.360271	0.3129202	0.1937416	0	0	0	0
5.376695	0.3129202	0.1937416	0	0	0	0
5.393377	0.3129202	0.1937416	0	0	0	0
5.409829	0.3129202	0.1937416	0	0	0	0
5.444923	0.3129202	0.1937416	0	0	0	0
5.461493	0.2603594	0.1998533	-3.172029	0.3688408	-61.39685	7.139174
5.478061	0.2420242	0.1998533	-1.106714	-8.994359E-07	62.32595	-11.1307
5.494625	0.2261337	0.1998533	-0.959316	0	4.44885	2.714737E-05
5.511588	0.1857964	0.1998533	-2.377961	0	-42.31304	0
5.527759	0.1381249	0.202298	-2.948049	0.1511827	-17.20579	4.562833
5.544327	0.110011	0.2084097	-1.696863	0.3688833	38.21738	6.649645
5.56095	0.08189708	0.2145215	-1.691216	0.367655	0.1701349	-0.03700634
5.577462	0.0550055	0.2243002	-1.628616	0.5922239	1.889193	6.77731
5.619857	0.02933627	0.2353013	-0.6054831	0.259493	17.36875	-5.648454
5.636427	-0.06478426	0.2744163	-5.680145	2.360579	-86.06268	35.63293
5.653009	-0.06478426	0.2744163	0	0	171.3359	-71.20451
5.66956	-0.09412052	0.2866398	-1.772424	0.7385105	-53.4934	22.28893
5.686126	-0.1283462	0.2988632	-2.066042	0.7378728	-8.866001	-0.01925611
5.70354	-0.1393473	0.3049749	-0.631736	0.3509635	42.21043	-11.38642
5.719259	-0.1442367	0.3074196	-0.31106	0.1555295	9.678579	-5.898549
5.735826	-0.1503484	0.3098643	-0.368893	0.1475572	-1.791263	-0.2469267
5.756817	-0.1552377	0.312309	-0.2329346	0.1164684	3.619951	-0.8277534
5.773386	-0.1613495	0.3147537	-0.3688621	0.1475427	-3.618989	0.8273351
5.790117	-0.1613495	0.3147537	0	0	11.07696	-4.430721
5.806648	-0.1613495	0.3147537	0	0	0	0
5.823086	-0.1613495	0.3147537	0	0	0	0
5.839653	-0.1613495	0.3147537	0	0	0	0
5.85622	-0.1613495	0.3147537	0	0	0	0
5.872787	-0.1613495	0.3147537	0	0	0	0
5.889353	-0.1613495	0.3147537	0	0	0	0
5.918679	-0.1613495	0.3147537	0	0	0	0
5.935709	-0.1613495	0.3147537	0	0	0	0
5.951815	-0.1613495	0.3147537	0	0	0	0
5.96872	-0.1613495	0.3147537	0	0	0	0
5.984948	-0.1613495	0.3147537	0	0	0	0
6.001515	-0.1613495	0.3147537	0	0	0	0
6.018269	-0.1613495	0.3147537	0	0	0	0
6.034648	-0.1613495	0.3147537	0	0	0	0
6.051306	-0.1613495	0.3147537	0	0	0	0
6.098912	-0.1613495	0.3147537	0	0	0	0
6.115823	-0.1613495	0.3147537	0	0	0	0
6.13235	-0.1613495	0.3147537	0	0	0	0
6.148859	-0.1613495	0.3147537	0	0	0	0
6.16536	-0.1613495	0.3147537	0	0	0	0
6.181749	-0.1576824	0.3110867	0.2237581	-0.2237554	6.80326	-6.803177
6.198396	-0.1405696	0.2915291	1.027991	-1.174848	24.34466	-28.79021
6.214882	-0.1112334	0.2585259	1.779447	-2.001876	22.67997	-24.96084
6.262769	-0.07456302	0.2206332	0.7657629	-0.7912884	-15.74692	18.80569
6.279339	0.04278206	0.09350935	7.08174	-7.671885	97.98682	-106.7464
6.295905	0.04278206	0.09350935	0	0	-213.7212	231.5313
6.312511	0.05745019	0.07884122	0.88326	-0.8832605	26.62657	-26.62658
6.329043	0.06356191	0.07028481	0.3696917	-0.5175683	-15.49751	11.03518
6.345641	0.06478426	0.06661778	0.07364552	-0.2209352	-8.935978	8.953695
6.362186	0.06478426	0.06661778	0	0	-2.22205	6.666111
6.410541	0.06478426	0.06539543	0	-0.02527911	0	-0.3895119
6.428482	0.06478426	0.06417309	0	-0.06812942	0	-0.6463521
6.445062	0.06356191	0.0617284	-0.07372388	-0.1474471	-2.135588	-2.297626
6.462072	0.06233957	0.0617284	-0.07186133	-2.190093E-07	0.05544975	4.389627
6.478188	0.06111722	0.06050605	-0.07584808	-0.07584831	-0.1203531	-2.289726
6.494754	0.05867254	0.06050605	-0.1475699	2.248719E-07	-2.194541	2.320809
6.511321	0.05378316	0.05928371	-0.2951323	-0.07378307	-4.453632	-2.22688
6.527888	0.05011613	0.05806137	-0.221336	-0.0737786	2.227175	0.0001349154
6.562055	0.04889378	0.05806137	-0.03577583	0	3.657474	1.454209
6.578625	0.04889378	0.05806137	0	0	0.7051243	0
6.595192	0.04889378	0.05806137	0	0	0	0
6.611759	0.04889378	0.05806137	0	0	0	0
6.628325	0.04889378	0.05806137	0	0	0	0
6.644892	0.04889378	0.05806137	0	0	0	0
6.661457	0.04889378	0.05806137	0	0	0	0
6.678025	0.04889378	0.05806137	0	0	0	0
6.694592	0.04889378	0.05806137	0	0	0	0
6.719128	0.04889378	0.05806137	0	0	0	0
6.735696	0.04522675	0.05561668	-0.221336	-0.1475574	-5.384739	-3.589828
6.752419	0.04033737	0.05439433	-0.2923635	-0.07309093	-2.133513	2.236813
6.768834	0.03544799	0.05194964	-0.2978754	-0.1489377	-0.166333	-2.28883
6.785403	0.02444689	0.04706027	-0.6639323	-0.2950809	-11.09809	-4.430758
6.801969	0.01222344	0.04339323	-0.7378723	-0.2213617	-2.231449	2.224784
6.818532	0.007334067	0.04217089	-0.2951999	-0.07380006	13.36219	4.454189
6.835099	0.004889378	0.04094854	-0.1475618	-0.07378095	4.456304	0.0005770628
6.851839	0.004889378	0.04094854	0	0	4.430406	2.215205
6.897281	0.004889378	0.04094854	0	0	0	0
6.913848	0.004889378	0.04094854	0	0	0	0
6.930416	0.004889378	0.04094854	0	0	0	0
6.946983	0.004889378	0.04094854	0	0	0	0
6.96355	0.004889378	0.04094854	0	0	0	0
6.980118	0.004889378	0.04094854	0	0	0	0
6.996686	0.004889378	0.04094854	0	0	0	0
7.013251	0.004889378	0.04094854	0	0	0	0
7.037575	0.004889378	0.04094854	0	0	0	0
7.054143	0.004889378	0.04094854	0	0	0	0
7.070709	0.004889378	0.04094854	0	0	0	0
7.087276	0.004889378	0.04094854	0	0	0	0
7.104165	0.004889378	0.04094854	0	0	0	0
7.120409	0.004889378	0.04094854	0	0	0	0
7.136978	0.004889378	0.04094854	0	0	0	0
7.153547	0.004889378	0.04094854	0	0	0	0
7.170113	0.004889378	0.04094854	0	0	0	0
7.199635	0.004889378	0.04094854	0	0	0	0
7.216205	0.004889378	0.04094854	0	0	0	0
7.23277	0.004889378	0.04094854	0	0	0	0
7.249336	0.004889378	0.04094854	0	0	0	0
7.265903	0.004889378	0.04094854	0	0	0	0
7.282472	0.004889378	0.04094854	0	0	0	0
7.299337	0.004889378	0.04094854	0	0	0	0
7.315713	0.004889378	0.04094854	0	0	0	0
7.332544	0.004889378	0.04094854	0	0	0	0
7.372467	0.004889378	0.04094854	0	0	0	0
7.389401	0.004889378	0.04094854	0	0	0	0
7.405604	0.004889378	0.04094854	0	0	0	0
7.422171	0.004889378	0.04094854	0	0	0	0
7.438739	0.004889378	0.04094854	0	0	0	0
7.455307	0.004889378	0.04094854	0	0	0	0
7.471873	0.004889378	0.04094854	0	0	0	0
7.48844	0.004889378	0.04094854	0	0	0	0
7.524663	0.004889378	0.04094854	0	0	0	0
7.541231	0.004889378	0.04094854	0	0	0	0
7.557826	0.004889378	0.04094854	0	0	0	0
7.574866	0.004889378	0.04094854	0	0	0	0
7.590934	0.004889378	0.04094854	0	0	0	0
7.6075	0.004889378	0.04094854	0	0	0	0
7.624068	0.004889378	0.04094854	0	0	0	0
7.640638	0.004889378	0.04094854	0	0	0	0
7.657204	0.004889378	0.04094854	0	0	0	0
7.707005	0.004889378	0.04094854	0	0	0	0
7.723955	0.004889378	0.04094854	0	0	0	0
7.740139	0.004889378	0.04094854	0	0	0	0
7.756719	0.004889378	0.04094854	0	0	0	0
7.773275	0.004889378	0.04094854	0	0	0	0
7.793886	0.004889378	0.04094854	0	0	0	0
7.810455	0.004889378	0.04094854	0	0	0	0
7.827323	0.004889378	0.04094854	0	0	0	0
7.856071	0.004889378	0.04094854	0	0	0	0
7.872717	0.004889378	0.04094854	0	0	0	0
7.889441	0.004889378	0.04094854	0	0	0	0
7.905776	0.004889378	0.04094854	0	0	0	0
7.926952	0.004889378	0.04094854	0	0	0	0
7.943522	0.004889378	0.04094854	0	0	0	0
7.960089	0.004889378	0.04094854	0	0	0	0
7.976734	0.004889378	0.04094854	0	0	0	0
8.033729	0.004889378	0.04094854	0	0	0	0
8.050297	0.004889378	0.04094854	0	0	0	0
8.066865	0.004889378	0.04094854	0	0	0	0
8.083444	0.004889378	0.04094854	0	0	0	0
8.099998	0.004889378	0.04094854	0	0	0	0
8.116568	0.004889378	0.04094854	0	0	0	0
8.133134	0.004889378	0.04094854	0	0	0	0
8.197718	0.004889378	0.04094854	0	0	0	0
8.214285	0.004889378	0.04094854	0	0	0	0
8.230852	0.004889378	0.04094854	0	0	0	0
8.247418	0.004889378	0.04094854	0	0	0	0
8.264037	0.004889378	0.04094854	0	0	0	0
8.28056	0.004889378	0.04094854	0	0	0	0
8.354613	0.004889378	0.04094854	0	0	0	0
8.371181	0.004889378	0.04094854	0	0	0	0
8.387888	0.004889378	0.04094854	0	0	0	0
8.40472	0.004889378	0.04094854	0	0	0	0
8.421385	0.004889378	0.04094854	0	0	0	0
8.43757	0.004889378	0.04094854	0	0	0	0
8.479307	0.004889378	0.04094854	0	0	0	0
8.495874	0.004889378	0.04094854	0	0	0	0
8.512443	0.004889378	0.04094854	0	0	0	0
8.529102	0.004889378	0.04094854	0	0	0	0
8.546126	0.004889378	0.04094854	0	0	0	0
8.562144	0.004889378	0.04094854	0	0	0	0
8.578743	0.004889378	0.04094854	0	0	0	0
8.595281	0.004889378	0.04094854	0	0	0	0
8.63108	0.004889378	0.04094854	0	0	0	0
8.647647	0.03178096	0.03850386	1.623179	-0.1475614	30.99666	-2.817873
8.664603	0.04033737	0.03728151	0.5046145	-0.07208811	-33.36652	2.251352
8.680782	0.05867254	0.03605916	1.133264	-0.07555076	18.97212	-0.1045002
8.697633	0.0770077	0.03605916	1.08811	0	-1.367063	2.287369
8.713918	0.09534287	0.03605916	1.125897	0	1.140383	0
8.730487	0.110011	0.03483682	0.8852682	-0.07377245	-7.324174	-2.245458
8.747053	0.1320132	0.03483682	1.328132	0	13.36527	2.226393
8.791841	0.1430143	0.03483682	0.2456295	0	-17.64364	0
8.808409	0.1833517	0.03728151	2.434628	0.1475532	35.67725	2.404886
8.825389	0.1906857	0.03850386	0.4319196	0.07198689	-59.69618	-2.252459
8.841543	0.2041315	0.04217089	0.8323349	0.2270004	12.08456	4.678318
8.858356	0.2175773	0.04461557	0.7997128	0.1454022	-0.989521	-2.475105
8.87495	0.2322455	0.04950495	0.8839458	0.2946486	2.521399	4.467491
8.89125	0.2456913	0.05317199	0.8249335	0.2249818	-1.794059	-2.117972
8.90781	0.259137	0.05683902	0.8119161	0.2214316	-0.3961502	-0.10804
8.953815	0.2701381	0.0617284	0.2391322	0.1062809	-9.155042	-1.840502
8.970382	0.2921403	0.07884122	1.328055	1.032932	17.40284	14.80947
8.986953	0.294585	0.08250824	0.1475275	0.2212912	-35.62428	-24.49255
9.012928	0.2994744	0.08861998	0.188232	0.2352912	0.9567118	0.3290521
9.029497	0.3092532	0.1081775	0.5901796	1.180357	9.447729	22.21367
9.046064	0.3092532	0.1081775	0	0	-17.81063	-35.62121
9.062632	0.3116978	0.1167339	0.1475614	0.516466	4.453413	15.58697
9.096613	0.3153649	0.1289573	0.107913	0.3597107	-0.7843634	-3.101083
9.113181	0.3214766	0.1436255	0.3688824	0.8853195	5.162649	10.3979
9.130018	0.322699	0.1472925	0.07259983	0.2177942	-8.869327	-19.98262
9.146314	0.3251436	0.1521819	0.1500227	0.3000463	2.336761	2.482516
9.162881	0.3275883	0.1582936	0.1475614	0.3689036	-0.07489426	2.095307
9.179708	0.3312553	0.1656277	0.21793	0.4358608	2.107229	2.005075
9.196015	0.3373671	0.1741841	0.3747734	0.524682	4.733544	2.68063
9.213229	0.3398118	0.1778511	0.1420187	0.213028	-6.943413	-9.297095
9.247947	0.3410341	0.1802958	0.03520818	0.07041637	-2.056762	-2.746156
9.264742	0.3422565	0.1851852	0.07277944	0.2911187	0.7293588	4.284423
9.281127	0.3434788	0.1851852	0.07460094	-9.094348E-07	0.05489723	-8.773885
9.29765	0.3434788	0.1864075	0	0.07397752	-2.266924	2.248008
9.314273	0.3434788	0.1864075	0	0	0	-2.231875
9.330786	0.3434788	0.1864075	0	0	0	0
9.347401	0.3434788	0.1864075	0	0	0	0
9.424759	0.3434788	0.1864075	0	0	0	0
9.477858	0.3434788	0.1864075	0	0	0	0
9.494428	0.3202543	0.1888522	-1.401594	0.1475369	-20.11796	2.11769
9.510995	0.3202543	0.1888522	0	0	42.29652	-4.452287
9.527738	0.2994744	0.1888522	-1.241128	-8.900091E-07	-37.26001	-2.671903E-05
9.544192	0.2701381	0.1900746	-1.782853	0.07428531	-16.31828	2.237711
9.560695	0.2065762	0.1961863	-3.85168	0.3703542	-62.77337	8.98347
9.577264	0.1527931	0.2047427	-3.245985	0.5164065	18.31471	4.416257
9.59383	0.1014546	0.2132991	-3.098975	0.5164957	4.436624	0.002691035
9.628687	0.05867254	0.2230779	-1.227366	0.2805412	36.39629	-4.588495
9.645255	-0.01711282	0.2438577	-4.57415	1.254203	-65.0809	18.93363
9.661824	-0.02933627	0.2475248	-0.7377235	0.2213158	115.7736	-31.1699
9.678391	-0.0550055	0.2560812	-1.549487	0.5164957	-24.49837	8.908291
9.694956	-0.0794524	0.2609706	-1.475787	0.2951587	2.224465	-6.680542
9.711523	-0.106344	0.2670823	-1.623179	0.3689036	-4.448549	2.225755
9.72845	-0.1320132	0.2719716	-1.516487	0.2888543	3.185402	-2.389961
9.744655	-0.1576824	0.276861	-1.584049	0.3017247	-2.039186	0.388463
9.761221	-0.1747953	0.2817504	-1.032991	0.2951381	16.81534	-0.2009884
9.78101	-0.1931304	0.2841951	-0.9265444	0.1235407	2.927986	-4.720047
9.798179	-0.1980198	0.2866398	-0.2847807	0.1423895	17.3648	0.5100095
9.814147	-0.1992421	0.2866398	-0.07654701	0	6.283961	-4.296951
9.830716	-0.2016868	0.2866398	-0.1475454	1.798665E-06	-2.18205	5.527981E-05
9.84728	-0.2053539	0.2878621	-0.2213932	0.07379591	-2.228859	2.227239
9.863847	-0.2077986	0.2878621	-0.1475624	0	2.228474	-2.227422
9.880514	-0.2102433	0.2890845	-0.1466749	0.07333746	0.02670226	2.20666
9.896983	-0.2102433	0.2890845	0	0	4.426403	-2.213202
9.913556	-0.2102433	0.2890845	0	0	0	0
9.930113	-0.2102433	0.2890845	0	0	0	0
10.00631	-0.2102433	0.2890845	0	0	0	0
10.02288	-0.2102433	0.2890845	0	0	0	0
10.03971	-0.2102433	0.2890845	0	0	0	0
10.05601	-0.2102433	0.2890845	0	0	0	0
10.07304	-0.2102433	0.2890845	0	0	0	0
10.08915	-0.2102433	0.2890845	0	0	0	0
10.15596	-0.2102433	0.2890845	0	0	0	0
10.17253	-0.1796846	0.2707493	1.844522	-1.106713	22.12144	-13.27286
10.1891	-0.1747953	0.2634152	0.2951238	-0.4426861	-46.76092	20.04036
10.20642	-0.1637942	0.2499695	0.635074	-0.7762005	10.03106	-9.841152
10.22224	-0.1564601	0.2353013	0.4637468	-0.9274945	-5.170221	-4.565666
10.2388	-0.1479037	0.2206332	0.5164966	-0.8854215	1.629034	1.299309
10.25537	-0.1393473	0.202298	0.5164948	-1.106777	-5.396926E-05	-6.680918
10.30773	-0.1283462	0.1644053	0.2100957	-0.7236615	-4.445159	5.558145
10.32434	-0.1087887	0.09228701	1.177849	-4.34332	14.03214	-52.48402
10.34108	-0.1075663	0.08861998	0.0729871	-0.2189604	-33.1274	123.6619
10.35743	-0.106344	0.08006357	0.07476149	-0.5233345	0.05361124	-9.19635
10.374	-0.1051216	0.07517419	0.07378118	-0.2951233	-0.02978125	6.932922
10.39057	-0.1026769	0.07150716	0.1475279	-0.2212917	2.225425	2.227988
10.40753	-0.1026769	0.07028481	-4.394476E-07	-0.07209622	-4.400486	4.450213
10.42374	-0.1014546	0.06784011	0.07536908	-0.1507377	2.272041	-2.370675
10.46386	-0.1014546	0.06784011	0	0	-1.337953	2.675898
10.48084	-0.1014546	0.06661777	0	-0.0719905	0	-1.260941
10.49699	-0.1014546	0.06661777	0	0	0	2.172615
10.51356	-0.1014546	0.06661777	0	0	0	0
10.53013	-0.1014546	0.06661777	0	0	0	0
10.54669	-0.1014546	0.06661777	0	0	0	0
10.56326	-0.1002323	0.06539543	0.07378497	-0.07378497	2.227027	-2.227027
10.57983	-0.09778756	0.06295075	0.1475619	-0.1475614	2.226656	-2.226643
10.60489	-0.09534287	0.06050605	0.09756214	-0.09756229	-1.201195	1.20118
10.62146	-0.09045349	0.05683902	0.2950724	-0.2213044	4.744663	-2.972578
10.63802	-0.0904535	0.05561667	-4.497179E-07	-0.07378072	-8.904548	4.451889
10.65459	-0.08800881	0.05561667	0.1475704	0	4.453825	2.226771
10.67127	-0.08678646	0.05439433	0.07329597	-0.07329574	-2.234276	-2.204835
10.68772	-0.08556412	0.05439433	0.07427625	2.263705E-07	0.02958577	2.21214
10.70429	-0.08311943	0.05317199	0.1475704	-0.07378497	2.219496	-2.234366
10.72088	-0.08311943	0.05317199	0	0	-4.450609	2.225298
10.73742	-0.08189708	0.05194964	0.07389177	-0.07389177	2.230122	-2.230122
10.77805	-0.08189708	0.05194964	0	0	-1.292386	1.292386
10.79462	-0.07945239	0.05072729	0.1475619	-0.07378095	2.579777	-1.289889
10.81186	-0.07945239	0.05072729	0	0	-4.364366	2.182183
10.82776	-0.07945239	0.05072729	0	0	0	0
10.84433	-0.07945239	0.05072729	0	0	0	0
10.861	-0.07945239	0.05072729	0	0	0	0
10.87746	-0.07945239	0.05072729	0	0	0	0
10.89404	-0.07945239	0.05072729	0	0	0	0
10.93765	-0.07945239	0.05072729	0	0	0	0
10.95422	-0.07945239	0.05072729	0	0	0	0
10.97109	-0.07945239	0.05072729	0	0	0	0
10.98736	-0.07945239	0.05072729	0	0	0	0
11.00403	-0.07945239	0.05072729	0	0	0	0
11.02065	-0.07945239	0.05072729	0	0	0	0
11.03706	-0.07945239	0.05072729	0	0	0	0
11.05363	-0.07945239	0.05072729	0	0	0	0
11.08971	-0.07945239	0.05072729	0	0	0	0
11.10628	-0.07945239	0.05072729	0	0	0	0
11.12285	-0.07945239	0.05072729	0	0	0	0
11.14	-0.07945239	0.05072729	0	0	0	0
11.15598	-0.07945239	0.05072729	0	0	0	0
11.17255	-0.07945239	0.05072729	0	0	0	0
11.18912	-0.07945239	0.05072729	0	0	0	0
11.20615	-0.07945239	0.05072729	0	0	0	0
11.24032	-0.07945239	0.05072729	0	0	0	0
11.25717	-0.07945239	0.05072729	0	0	0	0
11.2738	-0.07945239	0.05072729	0	0	0	0
11.29002	-0.07945239	0.05072729	0	0	0	0
11.30705	-0.07945239	0.05072729	0	0	0	0
11.32316	-0.07945239	0.05072729	0	0	0	0
11.33973	-0.07945239	0.05072729	0	0	0	0
11.35629	-0.07945239	0.05072729	0	0	0	0
11.39184	-0.07945239	0.05072729	0	0	0	0
11.40841	-0.07945239	0.05072729	0	0	0	0
11.42498	-0.07945239	0.05072729	0	0	0	0
11.4417	-0.07945239	0.05072729	0	0	0	0
11.45833	-0.07945239	0.05072729	0	0	0	0
11.47468	-0.07945239	0.05072729	0	0	0	0
11.49125	-0.07945239	0.05072729	0	0	0	0
11.50782	-0.07945239	0.05072729	0	0	0	0
11.54505	-0.07945239	0.05072729	0	0	0	0
11.56162	-0.07945239	0.05072729	0	0	0	0
11.57818	-0.07945239	0.05072729	0	0	0	0
11.59475	-0.07945239	0.05072729	0	0	0	0
11.62363	-0.07945239	0.05072729	0	0	0	0
11.6402	-0.07945239	0.05072729	0	0	0	0
11.657	-0.07945239	0.05072729	0	0	0	0
11.67334	-0.07945239	0.05072729	0	0	0	0
11.71644	-0.07945239	0.05072729	0	0	0	0
11.73301	-0.07945239	0.05072729	0	0	0	0
11.74957	-0.07945239	0.05072729	0	0	0	0
11.76614	-0.07945239	0.05072729	0	0	0	0
11.78271	-0.07945239	0.05072729	0	0	0	0
11.79927	-0.07945239	0.05072729	0	0	0	0
11.81584	-0.07945239	0.05072729	0	0	0	0
11.83241	-0.07945239	0.05072729	0	0	0	0
11.87244	-0.07945239	0.05072729	0	0	0	0
11.889	-0.07945239	0.05072729	0	0	0	0
11.90557	-0.07945239	0.05072729	0	0	0	0
11.92214	-0.07945239	0.05072729	0	0	0	0
11.94768	-0.07945239	0.05072729	0	0	0	0
11.96425	-0.07945239	0.05072729	0	0	0	0
11.98081	-0.07945239	0.05072729	0	0	0	0
12.04439	-0.07945239	0.05072729	0	0	0	0
12.06151	-0.07945239	0.05072729	0	0	0	0
12.07759	-0.07945239	0.05072729	0	0	0	0
12.0941	-0.07945239	0.05072729	0	0	0	0
12.11082	-0.07945239	0.05072729	0	0	0	0
12.12734	-0.07945239	0.05072729	0	0	0	0
12.1438	-0.07945239	0.05072729	0	0	0	0
12.2047	-0.07945239	0.05072729	0	0	0	0
12.22127	-0.07945239	0.05072729	0	0	0	0
12.23783	-0.07945239	0.05072729	0	0	0	0
12.2544	-0.07945239	0.05072729	0	0	0	0
12.27097	-0.07945239	0.05072729	0	0	0	0
12.28754	-0.07945239	0.05072729	0	0	0	0
12.30414	-0.07945239	0.05072729	0	0	0	0
12.33361	-0.07945239	0.05072729	0	0	0	0
12.35046	-0.07945239	0.05072729	0	0	0	0
12.36674	-0.07945239	0.05072729	0	0	0	0
12.38331	-0.07945239	0.05072729	0	0	0	0
12.39988	-0.07945239	0.05072729	0	0	0	0
12.41645	-0.07945239	0.05072729	0	0	0	0
12.43329	-0.07945239	0.05072729	0	0	0	0
12.44958	-0.07945239	0.05072729	0	0	0	0
12.46615	-0.07945239	0.05072729	0	0	0	0
12.49842	-0.07945239	0.05072729	0	0	0	0
12.5153	-0.07945239	0.05072729	0	0	0	0
12.53157	-0.07945239	0.05072729	0	0	0	0
12.54812	-0.07945239	0.05072729	0	0	0	0
12.56469	-0.07945239	0.05072729	0	0	0	0
12.58126	-0.07945239	0.05072729	0	0	0	0
12.59782	-0.07945239	0.05072729	0	0	0	0
12.61439	-0.07945239	0.05072729	0	0	0	0
12.63095	-0.07945239	0.05072729	0	0	0	0
12.66319	-0.07945239	0.05072729	0	0	0	0
12.67976	-0.07945239	0.05072729	0	0	0	0
12.69632	-0.07945239	0.05072729	0	0	0	0
12.71289	-0.07945239	0.05072729	0	0	0	0
12.72946	-0.07945239	0.05072729	0	0	0	0
12.74626	-0.07945239	0.05072729	0	0	0	0
12.76259	-0.07945239	0.05072729	0	0	0	0
12.77916	-0.07945239	0.05072729	0	0	0	0
12.79573	-0.07945239	0.05072729	0	0	0	0
12.84122	-0.07945239	0.05072729	0	0	0	0
12.85779	-0.05378316	0.02750275	1.54913	-1.401594	24.96052	-22.58333
12.87435	-0.04767144	0.02261337	0.3689466	-0.2951574	-35.617	33.39136
12.89118	-0.03667033	0.01283462	0.6538283	-0.5811806	8.531692	-8.565876
12.90749	-0.02444689	0.00550055	0.7495882	-0.449753	2.890207	3.966721
12.92406	-0.01711282	-0.0006111722	0.4426088	-0.3688406	-9.337217	2.461066
12.94063	-0.01222344	-0.004278205	0.2951065	-0.2213298	-4.451117	4.451372
12.95719	-0.007334067	-0.006722894	0.2951744	-0.1475872	0.002050832	2.225685
13.00595	-0.004889378	-0.009167584	0.05013284	-0.05013285	-3.750908	1.491756
13.02306	-0.001222344	-0.01038993	0.2144302	-0.07147673	2.494437	-0.3240524
13.03913	-0.001222344	-0.01038993	0	0	-6.462404	2.154134
13.05618	-0.001222344	-0.01038993	0	0	0	0
13.07298	-0.001222344	-0.01038993	0	0	0	0
13.08879	-0.001222344	-0.01038993	0	0	0	0
13.10536	-0.001222344	-0.01038993	0	0	0	0
13.12192	-0.001222344	-0.01038993	0	0	0	0
13.16209	-0.001222344	-0.01038993	0	0	0	0
13.17866	0.001222344	-0.007945239	0.1475617	0.1475617	2.600805	2.600805
13.19523	0.001222344	-0.007945239	0	0	-4.453422	-4.453422
13.21179	0.002444689	-0.006722894	0.0737851	0.07378508	2.226903	2.226902
13.22864	0.003667033	-0.001833517	0.07257352	0.2902941	-0.03626506	6.480537
13.24493	0.004889378	0.003055861	0.07503344	0.3001337	0.0742427	0.296969
13.2615	0.007334067	0.01038993	0.1475447	0.4426342	2.206686	4.336618
13.27844	0.009778756	0.02016868	0.1442892	0.5771569	-0.09714357	4.014153
13.31337	0.01222344	0.03483682	0.0699916	0.4199496	-1.432346	-3.030719
13.32994	0.01344579	0.1045104	0.07377665	4.205266	0.07350098	73.50629
13.34651	0.0110011	0.1179562	-0.1475447	0.8114963	-6.678916	-102.4153
13.36307	0.009778757	0.1326244	-0.07378508	0.885421	2.226007	2.230988
13.37964	0.003667034	0.1729618	-0.3688407	2.434349	-8.904283	46.74404
13.39629	-0.002444689	0.1949639	-0.3671501	1.32174	0.05089452	-33.4957
13.41278	-0.0110011	0.2132991	-0.5189754	1.11209	-4.582229	-6.327425
13.42934	-0.01589048	0.2304119	-0.2951065	1.032872	6.772556	-2.396516
13.48831	-0.02077986	0.2438577	-0.08292438	0.228042	2.809241	-10.65577
13.50487	-0.02811392	0.269527	-0.4426598	1.549311	-4.762811	17.49329
13.53298	-0.02811392	0.269527	0	0	9.909107	-34.68193
13.54955	-0.02933627	0.2744163	-0.07375961	0.2950362	-1.650996	6.603934
13.56622	-0.03055861	0.2756387	-0.07332929	0.07333086	0.01294522	-6.669581
13.58268	-0.03055861	0.2756387	0	0	2.213274	-2.213321
13.61053	-0.03055861	0.276861	6.688784E-08	0.04389448	1.509556E-06	0.9906309
13.62718	-0.03055861	0.276861	0	0	-1.503279E-06	-0.9865118
13.64366	-0.03055861	0.276861	0	0	0	0
13.66023	-0.03055861	0.276861	0	0	0	0
13.6768	-0.03055861	0.276861	0	0	0	0
13.69336	-0.03055861	0.2793057	1.124165E-07	0.1475427	3.392836E-06	4.452975
13.70993	-0.03055861	0.2793057	0	0	-3.39264E-06	-4.452718
13.7265	-0.03178095	0.2805281	-0.0737681	0.07376979	-2.226197	2.226249
13.74307	-0.03178095	0.2805281	0	0	2.226134	-2.226184
13.78554	-0.03178095	0.2805281	0	0	0	0
13.80211	-0.03178095	0.2805281	0	0	0	0
13.81868	-0.03178095	0.2805281	0	0	0	0
13.83524	-0.03178095	0.2805281	0	0	0	0
13.85193	-0.03178095	0.2805281	0	0	0	0
13.86838	-0.03178095	0.2805281	0	0	0	0
13.88495	-0.03178095	0.2805281	0	0	0	0
13.90151	-0.03178095	0.2805281	0	0	0	0
13.93847	-0.03178095	0.2805281	0	0	0	0
13.95504	-0.03178095	0.2805281	0	0	0	0
13.97198	-0.03178095	0.2805281	0	0	0	0
13.98858	-0.03178095	0.2805281	0	0	0	0
14.00474	-0.03178095	0.2805281	0	0	0	0
14.02131	-0.03178095	0.2805281	0	0	0	0
14.03814	-0.03178095	0.2805281	0	0	0	0
14.05452	-0.03178095	0.2805281	0	0	0	0
14.10326	-0.03178095	0.2805281	0	0	0	0
14.11982	-0.02444689	0.2511918	0.442685	-1.770741	6.779252	-27.11702
14.1367	-0.0220022	0.2389683	0.1448517	-0.7242594	-8.905325	31.29019
14.15296	-0.01589048	0.2120768	0.3758273	-1.653639	6.969853	-28.04471
14.16953	-0.006111722	0.1815182	0.5904167	-1.845053	6.537474	-5.831412
14.20631	0.007334067	0.1350691	0.365494	-1.262615	-4.215948	10.9172
14.2376	0.02077986	0.08739763	0.4297669	-1.523719	0.9441593	-3.835571
14.25417	0.01466813	0.06784011	-0.3688619	-1.180358	-16.68838	7.174963
14.27073	0.004889378	0.0617284	-0.5903488	-0.3689676	-6.684679	24.48853
14.2873	-0.02444689	0.04950495	-1.770741	-0.7378086	-35.62737	-11.13261
14.30387	-0.08067473	0.03239213	-3.394114	-1.032992	-48.99493	-8.908899
14.32043	-0.1515707	0.01894634	-4.27929	-0.8115895	-26.71541	6.682121
14.337	-0.2249114	0.01161227	-4.426853	-0.4426851	-4.45346	11.13356
14.35357	-0.2933626	0.00550055	-4.131964	-0.3689256	8.900023	2.22613
14.37032	-0.3544799	0.001833517	-3.648096	-0.2188856	14.52208	4.503072
14.39272	-0.404596	-0.004278205	-2.236956	-0.2727995	36.03808	-1.376868
14.40985	-0.4730473	-0.02505806	-3.99757	-1.213548	-44.54214	-23.80019
14.42596	-0.4840484	-0.0287251	-0.6826547	-0.2275513	99.73148	29.66438
14.44242	-0.4950495	-0.03605916	-0.6682597	-0.4455062	0.4418691	-6.690348
14.45899	-0.4983312	-0.04081685	-0.198081	-0.2871748	14.23509	4.793628
14.47562	-0.4981452	-0.04302714	0.01118568	-0.1329465	6.304611	4.646462
14.49241	-0.4980399	-0.04422982	0.006270232	-0.07162072	-0.1470912	1.835128
14.50869	-0.4980399	-0.04422982	0	0	-0.1895688	2.165319
14.52526	-0.4980399	-0.04422982	0	0	0	0
14.54489	-0.4980399	-0.04422982	0	0	0	0
14.56145	-0.4980399	-0.04422982	0	0	0	0
14.57848	-0.4980399	-0.04422982	0	0	0	0
14.59459	-0.4980399	-0.04422982	0	0	0	0
14.61157	-0.4980399	-0.04422982	0	0	0	0
14.62772	-0.4980399	-0.04422982	0	0	0	0
14.64429	-0.4980399	-0.04422982	0	0	0	0
14.66086	-0.4980399	-0.04422982	0	0	0	0
14.67774	-0.4980399	-0.04422982	0	0	0	0
14.70074	-0.4980399	-0.04422982	0	0	0	0
14.71767	-0.4980399	-0.04422982	0	0	0	0
14.73388	-0.4980399	-0.04422982	0	0	0	0
14.75066	-0.4980399	-0.04422982	0	0	0	0
14.76718	-0.4938272	-0.04461557	0.2550318	-0.0233527	7.658741	-0.7012941
14.78358	-0.4779367	-0.04461557	0.9688554	0	21.68366	0.7093799
14.80015	-0.4681579	-0.04339323	0.5902458	0.07378095	-11.48397	2.237921
14.81672	-0.4596016	-0.04461557	0.5164948	-0.07378519	-2.225873	-4.453683
14.84177	-0.4547121	-0.04461557	0.1951409	0	-7.72074	1.772738
14.87174	-0.4522675	-0.04583792	0.08158258	-0.04079191	-2.063898	-0.7413841
14.88831	-0.4522675	-0.04583792	0	0	-1.753126	0.8765763
14.90487	-0.4522675	-0.04583792	0	0	0	0
14.92144	-0.4522675	-0.04583792	0	0	0	0
14.93801	-0.4522675	-0.04583792	0	0	0	0
14.95457	-0.4522675	-0.04583792	0	0	0	0
14.9712	-0.4522675	-0.04583792	0	0	0	0
14.98771	-0.4522675	-0.04583792	0	0	0	0
15.00441	-0.4522675	-0.04583792	0	0	0	0
15.07222	-0.4522675	-0.04583792	0	0	0	0
15.08879	-0.4510451	-0.04583792	0.07377648	0	0.8743147	0
15.10536	-0.4449334	-0.04461557	0.3688842	0.0737767	8.905855	2.226457
15.12193	-0.4204865	-0.03483682	1.475701	0.5902809	33.4038	15.58813
15.13853	-0.3935949	-0.02750275	1.619174	0.4415922	4.324775	-4.482016
15.15506	-0.3642587	-0.01894634	1.774824	0.5176578	4.697136	2.295467
15.227	-0.3349224	-0.01038993	0.4078289	0.1189501	-15.45293	-4.507114
15.24375	-0.2090209	0.03605916	7.512934	2.771762	80.111	29.9108
15.26013	-0.2016868	0.03972619	0.447816	0.2239073	-213.2196	-76.8922
15.27683	-0.1906857	0.04583792	0.6589437	0.3660807	6.38379	4.298845
15.2933	-0.180907	0.05317198	0.5934244	0.4450674	-1.975045	2.381014
15.30983	-0.1711282	0.0592837	0.5915748	0.3697343	-0.05603548	-2.282228
15.37256	-0.1637942	0.06417308	0.1169169	0.07794458	-5.9887	-3.681476
15.3895	-0.1442366	0.07884122	1.154964	0.866223	13.03059	9.895248
15.40571	-0.1442366	0.07884122	0	0	-34.84887	-26.13664
15.42227	-0.141792	0.08128591	0.147603	0.1476044	4.50406	4.5041
15.43883	-0.1381249	0.0837306	0.2213686	0.1475789	2.226697	-0.0007691726
15.4554	-0.1307909	0.08861997	0.4427362	0.2951569	6.681658	4.454425
15.47196	-0.1197898	0.09595405	0.6640657	0.4427112	6.680313	4.453582
15.49442	-0.110011	0.1008434	0.4355339	0.2177668	-5.856992	-5.765051
15.51112	-0.08923115	0.1155116	1.243892	0.8780417	20.64357	16.86187
15.52764	-0.08189708	0.1204009	0.4440913	0.2960602	-24.07567	-17.51885
15.54412	-0.07334066	0.1252903	0.519156	0.2966603	2.274954	0.01818513
15.56069	-0.0550055	0.1350691	1.106776	0.5902815	17.78098	8.884778
15.57725	-0.04278205	0.1411808	0.7377663	0.3688824	-11.13674	-6.68184
15.59382	-0.03667033	0.1436255	0.3689466	0.1475793	-11.13132	-6.679132
15.6104	-0.03667033	0.1448478	0	0.07373828	-11.13227	-2.228015
15.62695	-0.03667033	0.1448478	0	0	0	-2.225362
15.64517	-0.03667033	0.1448478	0	0	0	0
15.66183	-0.03667033	0.1448478	0	0	0	0
15.67831	-0.03667033	0.1448478	0	0	0	0
15.69493	-0.03667033	0.1448478	0	0	0	0
15.71152	-0.03667033	0.1448478	0	0	0	0
15.72801	-0.03667033	0.1448478	0	0	0	0
15.74458	-0.03667033	0.1448478	0	0	0	0
15.76114	-0.03667033	0.1448478	0	0	0	0
15.77776	-0.03667033	0.1448478	0	0	0	0
15.81852	-0.03667033	0.1448478	0	0	0	0
15.83509	-0.03667033	0.1448478	0	0	0	0
15.85165	-0.03667033	0.1448478	0	0	0	0
15.8684	-0.03667033	0.1448478	0	0	0	0
15.88479	-0.03667033	0.1448478	0	0	0	0
15.9019	-0.03667033	0.1448478	0	0	0	0
15.91797	-0.03667033	0.1448478	0	0	0	0
15.93449	-0.03667033	0.1448478	0	0	0	0
15.974	-0.03667033	0.1448478	0	0	0	0
15.991	-0.03667033	0.1448478	0	0	0	0
16.00714	-0.03667033	0.1448478	0	0	0	0
16.02371	-0.03667033	0.1448478	0	0	0	0
16.04027	-0.03667033	0.1448478	0	0	0	0
16.05684	-0.03667033	0.1448478	0	0	0	0
16.07341	-0.03667033	0.1448478	0	0	0	0
16.08998	-0.03667033	0.1448478	0	0	0	0
16.12733	-0.03667033	0.1448478	0	0	0	0
16.1439	-0.03667033	0.1448478	0	0	0	0
16.16046	-0.03667033	0.1448478	0	0	0	0
16.17703	-0.03667033	0.1448478	0	0	0	0
16.19372	-0.03667033	0.1448478	0	0	0	0
16.21021	-0.03667033	0.1448478	0	0	0	0
16.22673	-0.03667033	0.1448478	0	0	0	0
16.2433	-0.03667033	0.1448478	0	0	0	0
16.27995	-0.03667033	0.1448478	0	0	0	0
16.29667	-0.03667033	0.1448478	0	0	0	0
16.31308	-0.03667033	0.1448478	0	0	0	0
16.32965	-0.03667033	0.1448478	0	0	0	0
16.34622	-0.03667033	0.1448478	0	0	0	0
16.36281	-0.03667033	0.1448478	0	0	0	0
16.37935	-0.03667033	0.1448478	0	0	0	0
16.39592	-0.03667033	0.1448478	0	0	0	0
16.43326	-0.03667033	0.1448478	0	0	0	0
16.45005	-0.03667033	0.1448478	0	0	0	0
16.46678	-0.03667033	0.1448478	0	0	0	0
16.48296	-0.03667033	0.1448478	0	0	0	0
16.49953	-0.03667033	0.1448478	0	0	0	0
16.5161	-0.03667033	0.1448478	0	0	0	0
16.53267	-0.03667033	0.1448478	0	0	0	0
16.54923	-0.03667033	0.1448478	0	0	0	0
16.58006	-0.03667033	0.1448478	0	0	0	0
16.59671	-0.03667033	0.1448478	0	0	0	0
16.61319	-0.03667033	0.1448478	0	0	0	0
16.62976	-0.03667033	0.1448478	0	0	0	0
16.64632	-0.03667033	0.1448478	0	0	0	0
16.66289	-0.03667033	0.1448478	0	0	0	0
16.67946	-0.03667033	0.1448478	0	0	0	0
16.69628	-0.03667033	0.1448478	0	0	0	0
16.71278	-0.03667033	0.1448478	0	0	0	0
16.73482	-0.03667033	0.1448478	0	0	0	0
16.75139	-0.03667033	0.1448478	0	0	0	0
16.76796	-0.03667033	0.1448478	0	0	0	0
16.78452	-0.03667033	0.1448478	0	0	0	0
16.80109	-0.03667033	0.1448478	0	0	0	0
16.81766	-0.03667033	0.1448478	0	0	0	0
16.83423	-0.03667033	0.1448478	0	0	0	0
16.85102	-0.03667033	0.1448478	0	0	0	0
16.86736	-0.03667033	0.1448478	0	0	0	0
16.90896	-0.03667033	0.1448478	0	0	0	0
16.92557	-0.03544799	0.1448478	0.073603	0	1.264555	0
16.9421	-0.03544799	0.1448478	0	0	-2.221215	0
16.95866	-0.03544799	0.1448478	0	0	0	0
16.97524	-0.03544799	0.1448478	0	0	0	0
16.99188	-0.03544799	0.1448478	0	0	0	0
17.00837	-0.03544799	0.1448478	0	0	0	0
17.02494	-0.03544799	0.1448478	0	0	0	0
17.06131	-0.03544799	0.1448478	0	0	0	0
17.07788	-0.03544799	0.1448478	0	0	0	0
17.09444	-0.03544799	0.1448478	0	0	0	0
17.11101	-0.03544799	0.1436255	0	-0.07378072	0	-2.226835
17.12758	-0.03544799	0.1252903	-2.24859E-07	-1.106714	-6.786257E-06	-31.17397
17.14421	-0.03667033	0.1008434	-0.07348462	-1.469695	-2.213304	-10.93276
17.16078	-0.03789268	0.07639652	-0.07378072	-1.475618	-0.008918377	-0.1783981
17.17728	-0.03911503	0.05683902	-0.07407968	-1.185269	-0.009040681	8.780422
17.24942	-0.04033737	0.04706026	-0.01694409	-0.135553	0.6445786	11.84244
17.26599	-0.04033737	0.04706026	0	0	0.1910119	1.528099
17.28255	-0.04033737	0.04706026	0	0	0	0
17.29912	-0.04033737	0.04706026	0	0	0	0
17.31569	-0.04033737	0.04706026	0	0	0	0
17.33226	-0.04033737	0.04706026	0	0	0	0
17.34882	-0.04033737	0.04706026	0	0	0	0
17.41697	-0.04033737	0.04706026	0	0	0	0
17.43353	-0.04033737	0.04706026	0	0	0	0
17.4501	-0.04033737	0.04706026	0	0	0	0
17.46667	-0.04033737	0.04706026	0	0	0	0
17.48325	-0.04033737	0.04706026	0	0	0	0
17.49981	-0.04033737	0.04706026	0	0	0	0
17.53955	-0.04033737	0.04706026	0	0	0	0
17.58653	-0.04033737	0.04706026	0	0	0	0
17.60311	-0.04033737	0.04706026	0	0	0	0
17.61967	-0.04033737	0.04706026	0	0	0	0
17.63624	-0.04033737	0.04706026	0	0	0	0
17.65281	-0.04033737	0.04706026	0	0	0	0
17.6925	-0.04033737	0.04706026	0	0	0	0
17.70907	-0.04033737	0.04706026	0	0	0	0
17.72564	-0.04033737	0.04706026	0	0	0	0
17.7422	-0.04033737	0.04706026	0	0	0	0
17.75882	-0.04033737	0.04706026	0	0	0	0
17.77534	-0.04033737	0.04706026	0	0	0	0
17.79191	-0.04033737	0.04706026	0	0	0	0
17.80891	-0.04033737	0.04706026	0	0	0	0
17.84342	-0.04033737	0.04706026	0	0	0	0
17.85999	-0.04033737	0.04706026	0	0	0	0
17.87656	-0.04033737	0.04706026	0	0	0	0
17.89313	-0.04033737	0.04706026	0	0	0	0
17.90998	-0.04033737	0.04706026	0	0	0	0
17.92626	-0.04033737	0.04706026	0	0	0	0
17.94283	-0.04033737	0.04706026	0	0	0	0
17.95939	-0.04033737	0.04706026	0	0	0	0
17.97596	-0.04033737	0.04706026	0	0	0	0
18.01171	-0.04033737	0.04706026	0	0	0	0
18.02828	-0.04033737	0.04706026	0	0	0	0
18.04485	-0.04033737	0.04706026	0	0	0	0
18.06144	-0.04033737	0.04706026	0	0	0	0
18.07798	-0.04033737	0.04706026	0	0	0	0
18.09455	-0.04033737	0.04706026	0	0	0	0
18.11111	-0.04033737	0.04339323	0	-0.2213679	0	-6.681281
18.12768	-0.03911502	0.03850385	0.07378945	-0.2951576	2.227226	-2.227233
18.16705	-0.03544799	0.03239213	0.09314835	-0.1552472	0.3461088	2.501391
18.18361	-0.02933627	0.02139103	0.3689041	-0.6640278	4.92994	-9.09594
18.20018	-0.02811392	0.01894634	0.07378095	-0.1475617	-8.906834	15.58698
18.21675	-0.02689158	0.017724	0.07378934	-0.07378934	0.0002532058	2.226582
18.23331	-0.02566923	0.01405696	0.07377245	-0.2213171	-0.0005095304	-4.452398
18.25076	-0.02444689	0.01283462	0.07006246	-0.07006241	-0.1090673	4.446621
18.26645	-0.02322455	0.01038993	0.07790656	-0.1558134	0.2367219	-2.58782
18.28302	-0.0220022	0.009167584	0.07378095	-0.07378089	-0.127898	2.543084
18.32153	-0.0220022	0.006722894	-4.836862E-08	-0.06348297	-1.339607	0.1869746
18.3381	-0.01955751	0.004278205	0.1475448	-0.1475447	2.67881	-1.526217
18.35467	-0.01955751	0.004278205	0	0	-4.452398	4.452396
18.37123	-0.01955751	0.003055861	0	-0.07379784	0	-2.227352
18.38788	-0.01955751	0.003055861	0	0	0	2.222107
18.40439	-0.01833517	0.003055861	0.07401089	0	2.231726	0
18.42093	-0.01833517	0.003055861	0	0	-2.238937	0
18.4375	-0.01833517	0.001833517	0	-0.07377235	0	-2.228121
18.47067	-0.01833517	0.001833517	0	0	0	1.483164
18.48724	-0.01833517	0.001833517	0	0	0	0
18.50443	-0.01833517	0.001833517	0	0	0	0
18.52037	-0.01833517	0.001833517	0	0	0	0
18.55432	-0.01833517	0.001833517	0	0	0	0
18.57089	-0.01833517	0.001833517	0	0	0	0
18.58746	-0.01833517	0.001833517	0	0	0	0
18.60402	-0.01833517	0.001833517	0	0	0	0
18.6499	-0.01833517	0.001833517	0	0	0	0
18.66647	-0.01833517	0.001833517	0	0	0	0
18.68312	-0.01833517	0.001833517	0	0	0	0
18.6996	-0.01833517	0.00550055	0	0.2224953	0	6.715308
18.71617	-0.02322455	0.03116979	-0.2951235	1.549398	-8.929976	40.15001
18.73274	-0.03422565	0.06661777	-0.6639513	2.139398	-11.13061	17.80522
18.74931	-0.05133847	0.1216233	-1.032694	3.319374	-11.12676	35.60559
18.79176	-0.07945239	0.1974086	-0.6622839	1.785287	6.275908	-25.99222
18.80832	-0.1149004	0.2817504	-2.139646	5.090878	-25.03274	56.01065
18.82558	-0.1149004	0.2817504	0	0	63.26362	-150.5237
18.84169	-0.1210121	0.2939739	-0.3792521	0.7585069	-11.36538	22.73084
18.85818	-0.1246791	0.3049749	-0.2223666	0.6670986	4.811532	-2.803409
18.8746	-0.1271238	0.3098643	-0.1489682	0.2979374	2.230835	-11.2201
18.89116	-0.1295685	0.3135314	-0.1475784	0.2213677	0.04214565	-2.321972
18.90779	-0.1307909	0.3159761	-0.07348462	0.1469692	2.231788	-2.240963
18.93512	-0.1320132	0.3184207	-0.04473713	0.08947426	0.6539949	-1.30799
18.95173	-0.1369026	0.3233101	-0.2943106	0.2943097	-5.680416	4.662156
18.96874	-0.1369026	0.3233101	0	0	8.752823	-8.752796
18.98482	-0.1381249	0.3233101	-0.07602128	1.853499E-06	-2.297368	5.601288E-05
19.00139	-0.1381249	0.3245325	0	0.07378922	2.328779	2.260346
19.01883	-0.1393473	0.3245325	-0.0700929	0	-2.061301	-2.170002
19.03452	-0.1393473	0.3245325	0	0	2.115165	0
19.05143	-0.1393473	0.3245325	0	0	0	0
19.10311	-0.1393473	0.3245325	0	0	0	0
19.11968	-0.1393473	0.3245325	0	0	0	0
19.13625	-0.1393473	0.3245325	0	0	0	0
19.15281	-0.1393473	0.3245325	0	0	0	0
19.16939	-0.1393473	0.3245325	0	0	0	0
19.18616	-0.1295685	0.3159761	0.5828652	-0.5100081	17.47722	-15.2926
19.2029	-0.1124557	0.3061973	1.022689	-0.5843942	13.12507	-2.219805
19.26915	-0.0880088	0.2964185	0.3690211	-0.1476082	-7.877309	5.26368
19.28572	0.0880088	0.2707493	10.62322	-1.54922	123.8174	-16.92419
19.30304	0.1112334	0.2707493	1.340713	1.720436E-06	-273.8875	45.71099
19.31912	0.149126	0.2707493	2.355826	0	30.38604	-5.149894E-05
19.3356	0.1906857	0.273194	2.521612	0.1483281	5.090766	4.554682
19.35198	0.2029092	0.2744164	0.7462293	0.07462448	-54.02588	-2.242842
19.36859	0.2298008	0.2756387	1.619636	0.07361789	26.47988	-0.03051768
19.40528	0.2456913	0.2756387	0.4330364	8.121524E-07	-22.26309	-1.381211
19.42185	0.2738052	0.2756387	1.696764	0	23.72546	-1.52475E-05
19.43883	0.2799169	0.2756387	0.3600738	0	-39.85048	0
19.45499	0.287251	0.2756387	0.4536541	-1.84344E-06	2.823771	-5.562553E-05
19.47155	0.294585	0.2756387	0.4428373	0	-0.3305035	5.632575E-05
19.48812	0.3043638	0.2756387	0.5901796	0	4.447312	0
19.50469	0.3116978	0.2756387	0.4427353	1.799079E-06	-4.449878	5.429631E-05
19.52136	0.3153649	0.2756387	0.2199998	-1.787962E-06	-6.70211	-0.000107934
19.57325	0.322699	0.276861	0.1413302	0.02355495	-1.147429	0.3435852
19.58982	0.3275883	0.2780834	0.295055	0.07376374	2.245327	0.7333576
19.60639	0.3275883	0.2780834	0	0	-8.903751	-2.225938
19.62306	0.3275883	0.2780834	0	0	0	0
19.63952	0.3275883	0.2780834	0	0	0	0
19.65609	0.3275883	0.2780834	0	0	0	0
19.67266	0.3275883	0.2780834	0	0	0	0
19.72495	0.3275883	0.2780834	0	0	0	0
19.74152	0.3275883	0.2780834	0	0	0	0
19.75809	0.3275883	0.2780834	0	0	0	0
19.77465	0.3275883	0.2780834	0	0	0	0
19.79139	0.3251436	0.2780834	-0.1460482	1.780424E-06	-4.385025	5.345636E-05
19.80787	0.3129202	0.2756387	-0.7418231	-0.1483642	-17.93612	-4.46664
19.82482	0.2982521	0.2719716	-0.8654414	-0.2163621	-3.698238	-2.034264
19.88914	0.2823616	0.2683046	-0.2470403	-0.0570092	7.609019	1.960733
19.90571	0.1980198	0.1888522	-5.090881	-4.795756	-59.88134	-58.58213
19.92228	0.1906857	0.1766288	-0.4426844	-0.7378082	140.2829	122.4691
19.93898	0.1833517	0.1644053	-0.4391972	-0.7319942	0.1048248	0.1747714
19.95541	0.1674612	0.1411808	-0.9668307	-1.413061	-15.92401	-20.55463
19.9722	0.1552377	0.1191786	-0.7281683	-1.310703	7.183822	3.080994
19.98865	0.145459	0.1032881	-0.5942834	-0.9657104	4.027671	10.37845
20.03696	0.1381249	0.08861998	-0.1518091	-0.3036174	6.8319	10.22286
20.05354	0.1356802	0.08373059	-0.1475266	-0.2950559	0.06600399	0.1319542
20.0701	0.1356802	0.08373059	0	0	4.451849	8.903779
20.08667	0.1356802	0.08373059	0	0	0	0
20.1033	0.1356802	0.08373059	0	0	0	0
20.1198	0.1356802	0.08373059	0	0	0	0
20.13637	0.1356802	0.08373059	0	0	0	0
20.15294	0.1356802	0.08373059	0	0	0	0
20.18137	0.1356802	0.08373059	0	0	0	0
20.19794	0.1356802	0.08373059	0	0	0	0
20.2148	0.1356802	0.08373059	0	0	0	0
20.23108	0.1356802	0.08373059	0	0	0	0
20.24765	0.1356802	0.08373059	0	0	0	0
20.26433	0.1356802	0.08373059	0	0	0	0
20.28078	0.1356802	0.08373059	0	0	0	0
20.29747	0.1356802	0.08373059	0	0	0	0
20.31391	0.1356802	0.08373059	0	0	0	0
20.36259	0.1356802	0.08373059	0	0	0	0
20.37916	0.1283462	0.07639653	-0.4426343	-0.4426338	-6.783626	-6.783619
20.39573	0.1283462	0.07639653	0	0	13.35873	13.35872
20.41229	0.1197898	0.07028481	-0.516466	-0.3689041	-15.58787	-11.13419
20.42887	0.1124557	0.06417309	-0.4425319	-0.3687772	2.230948	0.003830036
20.46018	0.1026769	0.05683902	-0.3123106	-0.2342328	2.719518	2.809798
20.50041	0.09289818	0.04950495	-0.2430609	-0.1822957	0.9679489	0.7259601
20.51698	0.08678646	0.04094854	-0.3688616	-0.5164065	-2.214769	-5.882147
20.53355	0.08678646	0.04094854	0	0	11.13163	15.58428
20.55043	0.08311943	0.03605916	-0.2171428	-0.2895235	-6.490613	-8.654146
20.56688	0.0794524	0.02750275	-0.2229856	-0.5202997	-0.1752886	-6.923391
20.58325	0.07578536	0.02261337	-0.224051	-0.2987346	-0.03247026	6.752541
20.59981	0.07334067	0.01650165	-0.1475789	-0.3689469	2.322103	-2.132021
20.61646	0.07089598	0.01038993	-0.1468686	-0.3671711	0.02138611	0.05346977
20.63295	0.06845129	0.004278206	-0.1482613	-0.3706539	-0.04202974	-0.1051108
20.66743	0.06478426	-0.003055861	-0.1063375	-0.212675	0.8224559	3.099213
20.684	0.05867254	-0.01650165	-0.3688194	-0.8114027	-5.141068	-11.7269
20.70057	0.05867254	-0.01650165	0	0	11.13099	24.48818
20.71713	0.05622785	-0.02016868	-0.1475617	-0.2213425	-4.453933	-6.6809
20.7337	0.05256081	-0.02383572	-0.2213681	-0.221368	-2.227611	-0.000769062
20.75027	0.05133847	-0.02750275	-0.07376397	-0.2212916	4.454445	0.00230692
20.76683	0.05011613	-0.02994744	-0.07379772	-0.1475958	-0.001018611	2.224143
20.7834	0.04767144	-0.03361447	-0.1475617	-0.2213425	-2.226457	-2.225937
20.82004	0.04644909	-0.03483682	-0.03336429	-0.03336439	2.146423	3.533185
20.83661	0.04522675	-0.03728151	-0.07377223	-0.1475445	-0.7594693	-2.14602
20.85407	0.04522675	-0.03728151	0	0	2.167557	4.335115
20.86978	0.04522675	-0.03728151	0	0	0	0
20.88633	0.04522675	-0.03728151	0	0	0	0
20.90287	0.04522675	-0.03728151	0	0	0	0
20.91944	0.04522675	-0.03728151	0	0	0	0
20.93601	0.04522675	-0.03728151	0	0	0	0
20.99014	0.04522675	-0.03728151	0	0	0	0
21.00671	0.04278206	-0.04094854	-0.1475449	-0.2213169	-2.086868	-3.130296
21.02328	0.04278206	-0.04094854	0	0	4.452914	6.679358
21.03984	0.04278206	-0.04094854	0	0	0	0
21.05642	0.04278206	-0.04094854	0	0	0	0
21.07298	0.04278206	-0.04094854	0	0	0	0
21.08955	0.04278206	-0.04217089	0	-0.07378967	0	-2.227105
21.14389	0.04278206	-0.04217089	0	0	0	1.040646
21.16046	0.04155971	-0.04461557	-0.07377223	-0.1475447	-1.040344	-2.08069
21.17791	0.04155971	-0.04461557	0	0	2.168651	4.337309
21.19401	0.04033737	-0.04461557	-0.07593144	0	-2.263472	0
21.21017	0.04033737	-0.04583792	0	-0.07564463	2.353946	-2.345055
21.22673	0.04033737	-0.04583792	0	0	0	2.311433
21.2433	0.04033737	-0.04583792	0	0	0	0
21.28499	0.04033737	-0.04583792	0	0	0	0
21.30156	0.04033737	-0.04583792	0	0	0	0
21.31813	0.04033737	-0.04583792	0	0	0	0
21.3347	0.04033737	-0.04583792	0	0	0	0
21.35126	0.04033737	-0.04583792	0	0	0	0
21.36823	0.04033737	-0.04583792	0	0	0	0
21.3844	0.04033737	-0.04583792	0	0	0	0
21.40147	0.04033737	-0.04706026	0	-0.0716124	0	-2.154817
21.43844	0.04033737	-0.04706026	0	0	0	1.325105
21.45501	0.04033737	-0.04706026	0	0	0	0
21.47158	0.04033737	-0.04706026	0	0	0	0
21.48814	0.04033737	-0.04706026	0	0	0	0
21.50472	0.04033737	-0.04706026	0	0	0	0
21.52128	0.04033737	-0.04706026	0	0	0	0
21.53785	0.04033737	-0.04706026	0	0	0	0
21.55488	0.04033737	-0.04706026	0	0	0	0
21.59302	0.04033737	-0.04706026	0	0	0	0
21.60965	0.04033737	-0.04706026	0	0	0	0
21.62675	0.04033737	-0.04706026	0	0	0	0
21.67813	0.04033737	-0.04706026	0	0	0	0
21.69469	0.04033737	-0.04706026	0	0	0	0
21.71126	0.04033737	-0.04706026	0	0	0	0
21.74134	0.04033737	-0.04706026	0	0	0	0
21.75836	0.04033737	-0.04706026	0	0	0	0
21.77447	0.04033737	-0.04706026	0	0	0	0
21.79126	0.04033737	-0.04706026	0	0	0	0
21.82468	0.04033737	-0.04706026	0	0	0	0
21.8415	0.04033737	-0.04706026	0	0	0	0
21.85781	0.04033737	-0.04706026	0	0	0	0
21.87457	0.04033737	-0.04706026	0	0	0	0
21.9004	0.04033737	-0.04706026	0	0	0	0
21.9171	0.04033737	-0.04706026	0	0	0	0
21.93353	0.04033737	-0.04706026	0	0	0	0
21.95062	0.04033737	-0.04706026	0	0	0	0
21.96667	0.04033737	-0.04706026	0	0	0	0
21.98324	0.04033737	-0.04706026	0	0	0	0
22.00033	0.04033737	-0.04706026	0	0	0	0
22.01637	0.04033737	-0.04706026	0	0	0	0
22.03304	0.04033737	-0.04706026	0	0	0	0
22.07116	0.04033737	-0.04706026	0	0	0	0
22.08773	0.04033737	-0.04706026	0	0	0	0
22.1043	0.04033737	-0.04706026	0	0	0	0
22.12086	0.04033737	-0.04706026	0	0	0	0
22.13744	0.04033737	-0.04706026	0	0	0	0
22.15429	0.04033737	-0.04706026	0	0	0	0
22.17078	0.04033737	-0.04706026	0	0	0	0
22.18714	0.04033737	-0.04706026	0	0	0	0
22.2286	0.04033737	-0.04706026	0	0	0	0
22.24517	0.04033737	-0.04706026	0	0	0	0
22.26174	0.04033737	-0.04706026	0	0	0	0
22.27831	0.04033737	-0.04706026	0	0	0	0
22.29487	0.04033737	-0.04706026	0	0	0	0
22.31144	0.04033737	-0.04706026	0	0	0	0
22.32801	0.04033737	-0.04706026	0	0	0	0
22.34457	0.04033737	-0.04706026	0	0	0	0
22.39815	0.04033737	-0.04706026	0	0	0	0
22.41472	0.04033737	-0.04706026	0	0	0	0
22.43129	0.04033737	-0.04706026	0	0	0	0
22.44785	0.04033737	-0.04706026	0	0	0	0
22.46443	0.04033737	-0.04706026	0	0	0	0
22.48132	0.04033737	-0.04706026	0	0	0	0
22.49756	0.04033737	-0.04706026	0	0	0	0
22.55208	0.04033737	-0.04706026	0	0	0	0
22.56879	0.04033737	-0.04706026	0	0	0	0
22.58536	0.04033737	-0.04706026	0	0	0	0
22.60178	0.04033737	-0.04706026	0	0	0	0
22.61835	0.04033737	-0.04706026	0	0	0	0
22.63492	0.04033737	-0.04706026	0	0	0	0
22.65148	0.04033737	-0.04706026	0	0	0	0
22.66805	0.04033737	-0.04706026	0	0	0	0
22.68883	0.04033737	-0.04706026	0	0	0	0
22.70539	0.04033737	-0.04706026	0	0	0	0
22.72202	0.04033737	-0.04706026	0	0	0	0
22.73853	0.04033737	-0.04706026	0	0	0	0
22.75522	0.04033737	-0.04706026	0	0	0	0
22.77171	0.04033737	-0.04706026	0	0	0	0
22.78823	0.04033737	-0.04706026	0	0	0	0
22.8048	0.04033737	-0.04706026	0	0	0	0
22.83049	0.04033737	-0.04706026	0	0	0	0
22.87737	0.04033737	-0.04706026	0	0	0	0
22.89394	0.04033737	-0.04706026	0	0	0	0
22.91063	0.04033737	-0.04706026	0	0	0	0
22.92731	0.04033737	-0.04706026	0	0	0	0
22.94386	0.04033737	-0.04706026	0	0	0	0
22.96037	0.04033737	-0.04706026	0	0	0	0
22.97678	0.04033737	-0.04706026	0	0	0	0
22.99334	0.04033737	-0.04706026	0	0	0	0
23.05916	0.04033737	-0.04706026	0	0	0	0
23.07573	0.04033737	-0.04706026	0	0	0	0
23.0923	0.04033737	-0.04706026	0	0	0	0
23.10887	0.04033737	-0.04706026	0	0	0	0
23.12543	0.04033737	-0.04706026	0	0	0	0
23.14206	0.04033737	-0.04706026	0	0	0	0
23.15857	0.04033737	-0.04339323	0	0.2221609	0	6.704828
23.23171	0.04033737	-0.04217088	-5.093027E-08	0.01671134	-5.680942E-07	-2.291656
23.24828	0.04033737	-0.03972619	2.24859E-07	0.1475617	3.074157E-06	1.458558
23.26485	0.04033737	-0.03972619	0	0	-6.785866E-06	-4.453164
23.28142	0.04033737	-0.03972619	0	0	0	0
23.29799	0.04033737	-0.03972619	0	0	0	0
23.31456	0.04033737	-0.03972619	0	0	0	0
23.35755	0.04033737	-0.03972619	0	0	0	0
23.37412	0.04033737	-0.03972619	0	0	0	0
23.39068	0.04033737	-0.03972619	0	0	0	0
23.40725	0.04033737	-0.03972619	0	0	0	0
23.42382	0.04033737	-0.03972619	0	0	0	0
23.44039	0.04033737	-0.03972619	0	0	0	0
23.45695	0.04033737	-0.03972619	0	0	0	0
23.47368	0.04033737	-0.03972619	0	0	0	0
23.51338	0.04033737	-0.03972619	0	0	0	0
23.52995	0.04033737	-0.03972619	0	0	0	0
23.54652	0.04033737	-0.03972619	0	0	0	0
23.56309	0.04033737	-0.03972619	0	0	0	0
23.57965	0.04033737	-0.03972619	0	0	0	0
23.59646	0.04033737	-0.03972619	0	0	0	0
23.61296	0.04033737	-0.03972619	0	0	0	0
23.62958	0.04033737	-0.03972619	0	0	0	0
23.66251	0.04033737	-0.03972619	0	0	0	0
23.67908	0.04033737	-0.03972619	0	0	0	0
23.69565	0.04033737	-0.03972619	0	0	0	0
23.71303	0.04033737	-0.03972619	0	0	0	0
23.72878	0.04033737	-0.03972619	0	0	0	0
23.74535	0.04033737	-0.03972619	0	0	0	0
23.76192	0.04033737	-0.03972619	0	0	0	0
23.77849	0.04033737	-0.03972619	0	0	0	0
23.79505	0.04033737	-0.03972619	0	0	0	0
23.81733	0.04033737	-0.03972619	0	0	0	0
23.83411	0.04033737	-0.03972619	0	0	0	0
23.85047	0.04033737	-0.03972619	0	0	0	0
23.86703	0.04033737	-0.03972619	0	0	0	0
23.8836	0.04033737	-0.03972619	0	0	0	0
23.90018	0.04033737	-0.03972619	0	0	0	0
23.91673	0.04033737	-0.03972619	0	0	0	0
23.9333	0.04033737	-0.03972619	0	0	0	0
23.94997	0.04033737	-0.03972619	0	0	0	0
23.97291	0.04033737	-0.03972619	0	0	0	0
23.9895	0.04033737	-0.03972619	0	0	0	0
24.00651	0.04033737	-0.03972619	0	0	0	0
24.02308	0.04033737	-0.03972619	0	0	0	0
24.03941	0.04033737	-0.03972619	0	0	0	0
24.05575	0.04033737	-0.03972619	0	0	0	0
24.07232	0.04033737	-0.03972619	0	0	0	0
24.08888	0.04033737	-0.03972619	0	0	0	0
24.10577	0.04033737	-0.03972619	0	0	0	0
24.1405	0.04033737	-0.03972619	0	0	0	0
24.15752	0.04033737	-0.03972619	0	0	0	0
24.17381	0.04033737	-0.03972619	0	0	0	0
24.1903	0.04033737	-0.03972619	0	0	0	0
24.20677	0.04033737	-0.03972619	0	0	0	0
24.22368	0.04033737	-0.03972619	0	0	0	0
24.2399	0.04033737	-0.03972619	0	0	0	0
24.25647	0.04033737	-0.03972619	0	0	0	0
24.29139	0.04033737	-0.03972619	0	0	0	0
24.30795	0.04033737	-0.03972619	0	0	0	0
24.32452	0.04033737	-0.03972619	0	0	0	0
24.34109	0.04033737	-0.03972619	0	0	0	0
24.3585	0.04033737	-0.03972619	0	0	0	0
24.37423	0.04033737	-0.03972619	0	0	0	0
24.39093	0.04033737	-0.03972619	0	0	0	0
24.40741	0.04033737	-0.03972619	0	0	0	0
24.45395	0.04033737	-0.03972619	0	0	0	0
24.47052	0.04033737	-0.03972619	0	0	0	0
24.48723	0.04033737	-0.03972619	0	0	0	0
24.50365	0.04033737	-0.03972619	0	0	0	0
24.52089	0.04033737	-0.03972619	0	0	0	0
24.53678	0.04033737	-0.03972619	0	0	0	0
24.55346	0.04033737	-0.03972619	0	0	0	0
24.56992	0.04033737	-0.03972619	0	0	0	0
24.61353	0.04033737	-0.03972619	0	0	0	0
24.6301	0.04033737	-0.03972619	0	0	0	0
24.64703	0.04033737	-0.03972619	0	0	0	0
24.66323	0.04033737	-0.03972619	0	0	0	0
24.6798	0.04155971	-0.03483682	0.07377245	0.2950892	2.251339	9.005338
24.69637	0.05011613	-0.02016868	0.5164065	0.8852686	13.35719	17.8096
24.71293	0.06233957	-0.0006111722	0.7378933	1.18063	6.684485	8.914014
24.7295	0.08067474	0.02016868	1.10684	1.254419	11.13613	2.227227
24.76741	0.1026769	0.04217089	0.5803728	0.5803728	-9.664252	-12.37332
24.78417	0.1760176	0.0947317	4.375968	3.13611	69.42697	46.74816
24.80054	0.1894634	0.1032881	0.8211379	0.5225425	-107.285	-78.87763
24.81733	0.2029092	0.1093998	0.801076	0.3641251	-0.6050169	-4.777471
24.83368	0.2346901	0.1252903	1.94336	0.9716799	34.47023	18.33393
24.85037	0.2615817	0.1375138	1.611676	0.7325799	-10.03912	-7.236881
24.86681	0.2933627	0.1509596	1.93254	0.8176141	9.684794	2.566631
24.88338	0.3080308	0.1570713	0.8852686	0.3688612	-31.72175	-13.59268
24.92079	0.3190319	0.1607383	0.2940929	0.0980311	-10.95255	-5.017596
24.93736	0.3337	0.1680724	0.8853687	0.4426844	10.9548	6.385524
24.95392	0.3349224	0.1692947	0.07378253	0.07378072	-24.49372	-11.13353
24.97049	0.3385894	0.1705171	0.2213422	0.07378162	4.453359	2.720794E-05
24.98706	0.3483682	0.1766288	0.5901778	0.3688621	11.13084	8.905032
25.0037	0.3508129	0.1778511	0.1469542	0.0734762	-13.34809	-8.895816
25.03823	0.3508129	0.1778511	0	0	-2.872076	-1.436021
25.0965	0.3508129	0.1778511	0	0	0	0
25.11307	0.3508129	0.1778511	0	0	0	0
25.12963	0.3508129	0.1778511	0	0	0	0
25.1462	0.3508129	0.1778511	0	0	0	0
25.16277	0.3508129	0.1778511	0	0	0	0
25.17933	0.3520352	0.1778511	0.07378922	0	2.226963	0
25.19595	0.3520352	0.1778511	0	0	-2.223891	0
25.21247	0.3520352	0.1778511	0	0	0	0
25.27962	0.3508129	0.1778511	-0.01820468	0	-0.217588	0
25.29618	0.2285784	0.1582936	-7.378087	-1.180493	-87.91948	-14.1019
25.31275	0.2126879	0.1546266	-0.9591512	-0.2213431	193.7239	28.94721
25.32932	0.1980198	0.1509596	-0.8853705	-0.2213422	2.226707	2.698308E-05
25.34588	0.1699059	0.1436255	-1.696959	-0.4426852	-24.4938	-6.680147
25.36245	0.1369026	0.1375138	-1.992313	-0.368947	-8.914315	2.225553
25.40171	0.0880088	0.1265126	-1.245417	-0.2802191	13.37942	1.589414
25.41866	0.02077986	0.1106222	-3.966614	-0.9375629	-48.41327	-11.69491
25.4352	0.01589048	0.1081775	-0.2955998	-0.1477997	109.6178	23.58261
25.45141	0.0110011	0.1069551	-0.3015815	-0.07539568	-0.1826311	2.210607
25.46798	0.004889378	0.1045105	-0.3688618	-0.1475445	-2.05238	-2.200892
25.48455	0	0.1032881	-0.2951234	-0.07378118	2.2253	2.226052
25.50111	-0.003667034	0.1008434	-0.2213426	-0.147561	2.226711	-2.226679
25.51768	-0.003667033	0.09962107	1.405369E-08	-0.07378162	6.680133	2.226666
25.54976	-0.004889378	0.09962108	-0.0381079	2.322798E-07	-0.7834185	1.5168
25.56633	-0.006111722	0.09962107	-0.07377237	-4.496662E-07	-0.7331577	-1.401882E-05
25.58333	-0.006111722	0.09962107	0	0	2.197612	1.339515E-05
25.59946	-0.006111722	0.09962107	0	0	0	0
25.61603	-0.006111722	0.09962107	0	0	0	0
25.6326	-0.006111722	0.09962107	0	0	0	0
25.64926	-0.006111722	0.09962107	0	0	0	0
25.66573	-0.006111722	0.09962107	0	0	0	0
25.70001	-0.006111722	0.09962107	0	0	0	0
25.71658	-0.006111722	0.09962107	0	0	0	0
25.73315	-0.006111722	0.09962107	0	0	0	0
25.75005	-0.006111722	0.09962107	0	0	0	0
25.76629	-0.006111722	0.09962107	0	0	0	0
25.78285	-0.006111722	0.09962107	0	0	0	0
25.79942	-0.006111722	0.09962107	0	0	0	0
25.81599	-0.006111722	0.09962107	0	0	0	0
25.84973	-0.006111722	0.09962107	0	0	0	0
25.8663	-0.006111722	0.09962107	0	0	0	0
25.88287	-0.006111722	0.09962107	0	0	0	0
25.89975	-0.006111722	0.09962107	0	0	0	0
25.916	-0.006111722	0.09962107	0	0	0	0
25.9327	-0.006111722	0.09962107	0	0	0	0
25.94914	-0.006111722	0.09962107	0	0	0	0
25.9657	-0.006111722	0.09962107	0	0	0	0
26.00518	-0.006111722	0.09962107	0	0	0	0
26.02176	-0.006111722	0.09962107	0	0	0	0
26.03832	-0.006111722	0.09962107	0	0	0	0
26.05489	-0.006111722	0.09962107	0	0	0	0
26.07146	-0.006111722	0.09962107	0	0	0	0
26.08803	-0.006111722	0.09962107	0	0	0	0
26.10459	-0.006111722	0.09962107	0	0	0	0
26.12116	-0.006111722	0.09962107	0	0	0	0
26.15917	-0.006111722	0.09962107	0	0	0	0
26.17575	-0.006111722	0.09962107	0	0	0	0
26.19242	-0.006111722	0.09962107	0	0	0	0
26.20887	-0.006111722	0.09962107	0	0	0	0
26.2255	-0.006111722	0.09962107	0	0	0	0
26.24201	-0.006111722	0.09962107	0	0	0	0
26.25858	-0.006111722	0.09962107	0	0	0	0
26.27514	-0.006111722	0.09962107	0	0	0	0
26.29354	-0.006111722	0.09962107	0	0	0	0
26.31018	-0.006111722	0.09962107	0	0	0	0
26.32668	-0.006111722	0.09962107	0	0	0	0
26.34325	-0.006111722	0.09962107	0	0	0	0
26.35982	-0.006111722	0.09962107	0	0	0	0
26.37638	-0.006111722	0.09962107	0	0	0	0
26.3931	-0.006111722	0.09962107	0	0	0	0
26.40952	-0.006111722	0.09962107	0	0	0	0
26.42609	-0.006111722	0.09962107	0	0	0	0
26.45924	-0.006111722	0.09962107	0	0	0	0
26.47581	-0.006111722	0.09962107	0	0	0	0
26.49238	-0.006111722	0.09962107	0	0	0	0
26.50895	-0.006111722	0.09962107	0	0	0	0
26.52551	-0.006111722	0.09962107	0	0	0	0
26.54226	-0.006111722	0.09962107	0	0	0	0
26.55865	-0.006111722	0.09962107	0	0	0	0
26.57521	-0.006111722	0.09962107	0	0	0	0
26.59178	-0.006111722	0.09962107	0	0	0	0
26.63149	-0.006111722	0.09962107	0	0	0	0
26.64806	-0.006111722	0.09962107	0	0	0	0
26.66481	-0.006111722	0.09962107	0	0	0	0
26.68119	-0.006111722	0.09962107	0	0	0	0
26.69776	-0.006111722	0.09962107	0	0	0	0
26.71433	-0.006111722	0.09962107	0	0	0	0
26.73096	-0.006111722	0.09962107	0	0	0	0
26.74747	-0.006111722	0.09962107	0	0	0	0
26.78125	-0.006111722	0.09962107	0	0	0	0
26.79782	-0.006111722	0.09962107	0	0	0	0
26.81439	-0.006111722	0.09962107	0	0	0	0
26.83095	-0.006111722	0.09962107	0	0	0	0
26.84752	-0.006111722	0.09962107	0	0	0	0
26.86409	-0.006111722	0.09962107	0	0	0	0
26.88077	-0.006111722	0.09962107	0	0	0	0
26.89722	-0.006111722	0.09962107	0	0	0	0
26.91379	-0.006111722	0.09962107	0	0	0	0
26.95482	-0.006111722	0.09962107	0	0	0	0
26.97138	-0.006111722	0.09962107	0	0	0	0
26.98803	-0.006111722	0.09962107	0	0	0	0
27.00511	-0.006111722	0.09962107	0	0	0	0
27.02109	-0.006111722	0.09962107	0	0	0	0
27.03776	-0.006111722	0.09962107	0	0	0	0
27.05461	-0.006111722	0.09962107	0	0	0	0
27.07079	-0.006111722	0.09962107	0	0	0	0
27.09038	-0.006111722	0.09962107	0	0	0	0
27.10695	-0.006111722	0.09962107	0	0	0	0
27.12371	-0.006111722	0.09962107	0	0	0	0
27.14034	-0.006111722	0.09962107	0	0	0	0
27.15665	-0.006111722	0.09962107	0	0	0	0
27.17322	-0.006111722	0.09962107	0	0	0	0
27.18979	-0.006111722	0.09962107	0	0	0	0
27.2068	-0.006111722	0.09962107	0	0	0	0
27.22292	-0.006111722	0.09962107	0	0	0	0
27.26318	-0.006111722	0.09962107	0	0	0	0
27.27975	-0.006111722	0.09962107	0	0	0	0
27.29632	-0.006111722	0.09962107	0	0	0	0
27.31289	-0.006111722	0.09962107	0	0	0	0
27.32952	-0.006111722	0.09962107	0	0	0	0
27.34602	-0.006111722	0.09962107	0	0	0	0
27.36264	-0.006111722	0.09962107	0	0	0	0
27.37916	-0.006111722	0.09962107	0	0	0	0
27.41475	-0.006111722	0.09962107	0	0	0	0
27.43132	-0.006111722	0.09962107	0	0	0	0
27.44789	-0.006111722	0.09962107	0	0	0	0
27.46517	-0.006111722	0.09962107	0	0	0	0
27.48174	-0.006111722	0.09962107	0	0	0	0
27.49835	-0.006111722	0.09962107	0	0	0	0
27.515	-0.006111722	0.09962107	0	0	0	0
27.53144	-0.006111722	0.09962107	0	0	0	0
27.54801	-0.006111722	0.09962107	0	0	0	0
27.57638	-0.006111722	0.09962107	0	0	0	0
27.59295	-0.006111722	0.09962107	0	0	0	0
27.60952	-0.006111722	0.09962107	0	0	0	0
27.62609	-0.006111722	0.09962107	0	0	0	0
27.64294	-0.006111722	0.09962107	0	0	0	0
27.65964	-0.006111722	0.09962107	0	0	0	0
27.67586	-0.006111722	0.09962107	0	0	0	0
27.69236	-0.006111722	0.09962107	0	0	0	0
27.70892	-0.006111722	0.09962107	0	0	0	0
27.74158	-0.006111722	0.09962107	0	0	0	0
27.75818	-0.006111722	0.09962107	0	0	0	0
27.77471	-0.006111722	0.09962107	0	0	0	0
27.7914	-0.006111722	0.09962107	0	0	0	0
27.80785	-0.006111722	0.09962107	0	0	0	0
27.82442	-0.006111722	0.09962107	0	0	0	0
27.84098	-0.006111722	0.09962107	0	0	0	0
27.85781	-0.006111722	0.09962107	0	0	0	0
27.8744	-0.006111722	0.09962107	0	0	0	0
27.93005	-0.006111722	0.09962107	0	0	0	0
27.94667	-0.006111722	0.09962107	0	0	0	0
27.96319	-0.006111722	0.09962107	0	0	0	0
27.97976	-0.006111722	0.09962107	0	0	0	0
27.99632	-0.006111722	0.09962107	0	0	0	0
28.01289	-0.006111722	0.09962107	0	0	0	0
28.02946	-0.006111722	0.09962107	0	0	0	0
28.1232	-0.006111722	0.09962107	0	0	0	0
28.13976	-0.006111722	0.09962107	0	0	0	0
28.15633	-0.006111722	0.09962107	0	0	0	0
28.1729	-0.006111722	0.09962107	0	0	0	0
28.18959	-0.006111722	0.09962107	0	0	0	0
28.2241	-0.006111722	0.09962107	0	0	0	0
28.24106	-0.006111722	0.09962107	0	0	0	0
28.25724	-0.006111722	0.09962107	0	0	0	0
28.27381	-0.006111722	0.09962107	0	0	0	0
28.29038	-0.006111722	0.09962107	0	0	0	0
28.30694	-0.006111722	0.09962107	0	0	0	0
28.32351	-0.006111722	0.09962107	0	0	0	0
28.34021	-0.006111722	0.09962107	0	0	0	0
28.35672	-0.006111722	0.09962107	0	0	0	0
28.39343	-0.006111722	0.09962107	0	0	0	0
28.41088	-0.006111722	0.09962107	0	0	0	0
28.42657	-0.006111722	0.09962107	0	0	0	0
28.44313	-0.006111722	0.09962107	0	0	0	0
28.4597	-0.006111722	0.09962107	0	0	0	0
28.4768	-0.006111722	0.09962107	0	0	0	0
28.49284	-0.006111722	0.09962107	0	0	0	0
28.50951	-0.006111722	0.09962107	0	0	0	0
28.55938	-0.006111722	0.09962107	0	0	0	0
28.57603	-0.006111722	0.09962107	0	0	0	0
28.59274	-0.006111722	0.09962107	0	0	0	0
28.60909	-0.006111722	0.09717639	0	-0.1495588	0	-4.525155
28.62565	-0.002444689	0.09106467	0.2213171	-0.3688616	6.723874	-6.662679
28.64258	0.002444689	0.08250826	0.2888061	-0.5054105	2.01467	-4.076236
28.65878	0.007334067	0.07517418	0.3017945	-0.4526922	0.3920364	1.591223
28.67535	0.0110011	0.06661778	0.2213171	-0.5164061	-2.455812	-1.944263
28.70689	0.01589048	0.05683902	0.1550313	-0.3100627	-1.377879	4.289245
28.72346	0.02811392	0.03361447	0.7378085	-1.401837	12.11463	-22.69553
28.74003	0.03055861	0.02994744	0.1475448	-0.2213169	-17.81317	35.6261
28.7566	0.03178096	0.02628041	0.07378095	-0.2213426	-2.226069	-0.0007757188
28.77357	0.03789268	0.01650165	0.3600745	-0.5761192	8.535698	-10.57749
28.78973	0.04522675	0.004278206	0.4538136	-0.7563561	2.829051	-5.439561
28.8063	0.05011613	-0.004278206	0.2951236	-0.516466	-4.848724	7.329769
28.82286	0.05378316	-0.01161227	0.2213681	-0.4427361	-2.226073	2.2253
28.85778	0.05745019	-0.01650165	0.1050131	-0.1400176	-2.259976	5.879736
28.87435	0.06233957	-0.02505806	0.2950894	-0.5164067	3.691599	-7.310105
28.89092	0.06233957	-0.02505806	0	0	-8.90479	15.58339
28.90749	0.06356192	-0.02505806	0.07378118	0	2.226592	0
28.92406	0.06356192	-0.02505806	0	0	-2.226592	0
28.94112	0.06356192	-0.02505806	0	0	0	0
28.95719	0.06356192	-0.02505806	0	0	0	0
28.97376	0.06356191	-0.02628041	-4.496144E-07	-0.07376385	-1.377476E-05	-2.25989
29.01608	0.06356191	-0.02628041	0	0	7.635144E-06	1.252624
29.03264	0.06356191	-0.02628041	0	0	0	0
29.04967	0.06356191	-0.02628041	0	0	0	0
29.06578	0.06356191	-0.02628041	0	0	0	0
29.08234	0.06356191	-0.02628041	0	0	0	0
29.09891	0.06356191	-0.02628041	0	0	0	0
29.11548	0.06356191	-0.02628041	0	0	0	0
29.13204	0.06356191	-0.02628041	0	0	0	0
29.15121	0.06356191	-0.02628041	0	0	0	0
29.16778	0.06356191	-0.02628041	0	0	0	0
29.18471	0.06356191	-0.02628041	0	0	0	0
29.20134	0.06356191	-0.02628041	0	0	0	0
29.21749	0.06356191	-0.02628041	0	0	0	0
29.23405	0.06356191	-0.02628041	0	0	0	0
29.2512	0.06356191	-0.02628041	0	0	0	0
29.26719	0.06356191	-0.02628041	0	0	0	0
29.28376	0.06356191	-0.02628041	0	0	0	0
29.33748	0.06356191	-0.02628041	0	0	0	0
29.35407	0.06356191	-0.02628041	0	0	0	0
29.37062	0.06356191	-0.02628041	0	0	0	0
29.38718	0.06356191	-0.02628041	0	0	0	0
29.40384	0.06356191	-0.02628041	0	0	0	0
29.42088	0.06356191	-0.02628041	0	0	0	0
29.43688	0.06356191	-0.02628041	0	0	0	0
29.45345	0.06478426	-0.02505806	0.07378118	0.07378083	2.264921	2.26491
29.47227	0.07334068	-0.01405696	0.4547417	0.5846674	10.7667	14.43867
29.48889	0.1075663	0.01772399	2.059225	1.912138	45.27755	37.46042
29.50541	0.1173451	0.0262804	0.5920193	0.5180166	-44.27527	-42.06984
29.52217	0.141792	0.04706026	1.457826	1.239152	26.01032	21.66416
29.53894	0.1686835	0.06784012	1.60434	1.239717	4.369472	0.01683732
29.55511	0.1931304	0.08495294	1.511998	1.058399	-2.804138	-5.506107
29.57191	0.2151326	0.1032881	1.309214	1.091012	-6.149782	0.9890495
29.58824	0.2456912	0.1252903	1.871454	1.347446	16.96843	7.739203
29.60544	0.2615817	0.1375138	0.9240465	0.710804	-28.25933	-18.98981
29.64027	0.2750275	0.1485149	0.3860176	0.315833	-10.34101	-7.591413
29.65684	0.3006967	0.1717394	1.549397	1.401837	22.63418	21.12879
29.6734	0.3043638	0.1754064	0.221344	0.2213422	-40.08072	-35.62739
29.69049	0.3141425	0.1839628	0.572132	0.5006164	10.42182	8.297167
29.70654	0.322699	0.1925192	0.5334163	0.5334154	-1.168508	0.989933
29.7231	0.3275883	0.1974086	0.2951247	0.2951238	-7.307758	-7.307757
29.73967	0.3337	0.202298	0.3689018	0.2951247	2.226598	2.788251E-05
29.75658	0.3373671	0.2059651	0.2168991	0.2168974	-4.540923	-2.336961
29.77327	0.3398118	0.2084097	0.1464654	0.1464645	-2.09637	-2.096344
29.81539	0.3398118	0.2096321	0	0.02902215	-2.490515	-1.997004
29.85369	0.3398118	0.2096321	0	0	0	-0.3608501
29.87031	0.3324777	0.2010757	-0.441365	-0.5149255	-8.035642	-9.37491
29.88683	0.3239213	0.1900746	-0.5179558	-0.6659433	-2.311383	-4.557462
29.9034	0.3043638	0.1619606	-1.180631	-1.697156	-20.02956	-31.1687
29.92035	0.2738052	0.1130669	-1.801991	-2.883188	-18.53501	-35.37907
29.93653	0.2444689	0.05317198	-1.813543	-3.702649	-0.3486393	-24.73136
30.00101	0.2139103	-0.00550055	-0.4738972	-0.9098825	16.60858	34.62399
30.01758	0.1857964	-0.124068	-1.696764	-7.15592	-15.08729	-77.06136
30.0486	0.184574	-0.1326244	-0.03941082	-0.2758762	34.82966	144.5857
30.06538	0.1833517	-0.1656277	-0.07282582	-1.966277	-0.6990576	-35.36398
30.08195	0.1833517	-0.1754064	0	-0.5902467	2.183558	41.25792
30.09852	0.1833517	-0.1827405	1.799079E-06	-0.4427371	5.429943E-05	4.452103
30.13266	0.1821293	-0.1876299	-0.03579864	-0.1431928	-0.7059743	5.906928
30.14938	0.1760176	-0.2169662	-0.3654961	-1.754381	-6.481549	-31.67447
30.1658	0.1735729	-0.2255226	-0.1489332	-0.5212669	6.535507	37.21331
30.18236	0.1711282	-0.234079	-0.1475793	-0.5165254	0.04104963	0.1437688
30.19912	0.1674612	-0.2499695	-0.2187989	-0.9481265	-2.137109	-12.95119
30.2155	0.1637942	-0.2634152	-0.2239201	-0.8210422	-0.1545497	3.83519
30.23207	0.1601271	-0.2744163	-0.2213686	-0.664103	0.07745643	4.764135
30.24863	0.1564601	-0.2927515	-0.2213422	-1.106713	0.0007964963	-13.35876
30.26578	0.1527931	-0.3037526	-0.2138336	-0.6415043	0.2226985	13.79777
30.2866	0.1515707	-0.312309	-0.05871364	-0.4109955	4.085579	6.071186
30.30317	0.1515707	-0.3184207	0	-0.3688612	1.570394	1.126952
30.32043	0.1503484	-0.3184207	-0.07080623	0	-2.092843	10.90255
30.3363	0.1503484	-0.3184207	0	0	2.137059	0
30.35289	0.1503484	-0.3184207	0	0	0	0
30.36943	0.1503484	-0.3184207	0	0	0	0
30.38621	0.1503484	-0.3184207	0	0	0	0
30.40257	0.1503484	-0.3184207	0	0	0	0
30.41913	0.1503484	-0.3184207	0	0	0	0
30.47705	0.1503484	-0.3184207	0	0	0	0
30.49362	0.1503484	-0.3098643	0	0.5164669	0	6.93412
30.51018	0.1503484	-0.3061973	0	0.2213422	0	-8.90688
30.52675	0.1503484	-0.3037526	0	0.1475614	0	-2.226707
30.54332	0.149126	-0.2951962	-0.07378072	0.5164669	-2.226707	11.13359
30.55989	0.145459	-0.2841951	-0.2213167	0.6639501	-4.452388	4.450797
30.57645	0.141792	-0.2683046	-0.2213677	0.9592617	-0.001538035	8.91252
30.63867	0.1344579	-0.2487471	-0.117885	0.3143594	1.313578	-8.186198
30.65523	0.06356191	-0.04583792	-4.27929	12.24762	-52.82235	151.4736
30.6718	0.05867254	-0.0262804	-0.2951231	1.180494	120.2424	-334.0066
30.68837	0.0550055	-0.006722894	-0.2213428	1.180494	2.226693	-3.597743E-06
30.70516	0.04644909	0.02261337	-0.5096593	1.747404	-8.643691	16.99591
30.72159	0.03911502	0.05194964	-0.4463336	1.785334	1.906237	1.141765
30.73807	0.03789268	0.0617284	-0.07416496	0.593321	11.30758	-36.21686
30.77313	0.03789268	0.06784012	0	0.1742985	1.438808	-8.129083
30.78974	0.03789268	0.06906246	0	0.07362814	0	-1.948473
30.80627	0.03789268	0.06906246	0	0	0	-2.221974
30.82284	0.03789268	0.06906246	0	0	0	0
30.83952	0.03789268	0.06906246	0	0	0	0
30.85597	0.03789268	0.06906246	0	0	0	0
30.87254	0.03789268	0.06906246	0	0	0	0
30.88927	0.03789268	0.06906246	0	0	0	0
30.90588	0.03789268	0.06906246	0	0	0	0
30.94842	0.03789268	0.06906246	0	0	0	0
30.96499	0.03789268	0.06906246	0	0	0	0
30.98156	0.03789268	0.06906246	0	0	0	0
30.99812	0.03789268	0.06906246	0	0	0	0
31.01469	0.03789268	0.06906246	0	0	0	0
31.03125	0.03789268	0.06906246	0	0	0	0
31.04782	0.03789268	0.06906246	0	0	0	0
31.06454	0.03789268	0.06906246	0	0	0	0
31.09994	0.03789268	0.06906246	0	0	0	0
31.11651	0.03789268	0.06906246	0	0	0	0
31.13307	0.03789268	0.06906246	0	0	0	0
31.14964	0.03789268	0.06906246	0	0	0	0
31.16628	0.03789268	0.06906246	0	0	0	0
31.18278	0.03789268	0.06906246	0	0	0	0
31.19934	0.03789268	0.06906246	0	0	0	0
31.21591	0.03789268	0.06906246	0	0	0	0
31.26129	0.03789268	0.06906246	0	0	0	0
31.27786	0.03789268	0.06906246	0	0	0	0
31.29443	0.03789268	0.06906246	0	0	0	0
31.3118	0.03789268	0.06906246	0	0	0	0
31.32756	0.03789268	0.06906246	0	0	0	0
31.3445	0.03789268	0.06906246	0	0	0	0
31.3607	0.03789268	0.06906246	0	0	0	0
31.37727	0.03789268	0.06906246	0	0	0	0
31.39874	0.03789268	0.06906246	0	0	0	0
31.41531	0.03789268	0.06906246	0	0	0	0
31.43187	0.03789268	0.06906246	0	0	0	0
31.44844	0.03789268	0.06906246	0	0	0	0
31.46525	0.03789268	0.06906246	0	0	0	0
31.48174	0.03789268	0.06906246	0	0	0	0
31.49814	0.03789268	0.06906246	0	0	0	0
31.5147	0.03789268	0.06906246	0	0	0	0
31.53127	0.03789268	0.06906246	0	0	0	0
31.56811	0.03789268	0.06906246	0	0	0	0
31.58468	0.03789268	0.06906246	0	0	0	0
31.60125	0.03789268	0.06906246	0	0	0	0
31.61781	0.03789268	0.06906246	0	0	0	0
31.63488	0.03789268	0.06906246	0	0	0	0
31.65098	0.03789268	0.06906246	0	0	0	0
31.66794	0.03789268	0.06906246	0	0	0	0
31.68408	0.03789268	0.06906246	0	0	0	0
31.7264	0.03789268	0.06906246	0	0	0	0
31.74297	0.03789268	0.06906246	0	0	0	0
31.76018	0.03789268	0.06906246	0	0	0	0
31.77612	0.03789268	0.06906246	0	0	0	0
31.79322	0.03789268	0.06906246	0	0	0	0
31.80924	0.03789268	0.06906246	0	0	0	0
31.82586	0.03789268	0.06906246	0	0	0	0
31.84237	0.03789268	0.06906246	0	0	0	0
31.89957	0.03789268	0.06906246	0	0	0	0
31.91614	0.03789268	0.06906246	0	0	0	0
31.93271	0.03789268	0.06906246	0	0	0	0
31.94928	0.03789268	0.06906246	0	0	0	0
31.96655	0.03789268	0.06906246	0	0	0	0
31.98241	0.03789268	0.06906246	0	0	0	0
31.99898	0.03789268	0.06906246	0	0	0	0
32.03727	0.03789268	0.06906246	0	0	0	0
32.05384	0.03789268	0.06906246	0	0	0	0
32.07081	0.03789268	0.06906246	0	0	0	0
32.08698	0.03789268	0.06906246	0	0	0	0
32.10355	0.03789268	0.06906246	0	0	0	0
32.12058	0.03789268	0.06906246	0	0	0	0
32.13668	0.03789268	0.06906246	0	0	0	0
32.15324	0.03789268	0.06906246	0	0	0	0
32.19514	0.03789268	0.06906246	0	0	0	0
32.2126	0.03789268	0.06906246	0	0	0	0
32.22828	0.03789268	0.06906246	0	0	0	0
32.24491	0.03789268	0.06906246	0	0	0	0
32.26146	0.03789268	0.06906246	0	0	0	0
32.27798	0.03789268	0.06906246	0	0	0	0
32.29475	0.03789268	0.06906246	0	0	0	0
32.31136	0.03789268	0.06906246	0	0	0	0
32.36142	0.03789268	0.06906246	0	0	0	0
32.37799	0.03789268	0.06906246	0	0	0	0
32.39455	0.03789268	0.06906246	0	0	0	0
32.41112	0.03789268	0.06906246	0	0	0	0
32.42786	0.03789268	0.06906246	0	0	0	0
32.44426	0.03789268	0.06906246	0	0	0	0
32.46138	0.03789268	0.06906246	0	0	0	0
32.47739	0.03789268	0.06906246	0	0	0	0
32.51246	0.03789268	0.06906246	0	0	0	0
32.52903	0.03789268	0.06906246	0	0	0	0
32.54559	0.03789268	0.06906246	0	0	0	0
32.56226	0.03789268	0.06906246	0	0	0	0
32.57883	0.03789268	0.06906246	0	0	0	0
32.59539	0.03789268	0.06906246	0	0	0	0
32.61196	0.03789268	0.06906246	0	0	0	0
32.62853	0.03789268	0.06906246	0	0	0	0
32.64549	0.03789268	0.06906246	0	0	0	0
32.66488	0.03789268	0.06906246	0	0	0	0
32.68145	0.03789268	0.06906246	0	0	0	0
32.69801	0.03789268	0.06906246	0	0	0	0
32.71458	0.03789268	0.06906246	0	0	0	0
32.73115	0.03789268	0.06906246	0	0	0	0
32.74795	0.03789268	0.06906246	0	0	0	0
32.76428	0.03789268	0.06906246	0	0	0	0
32.78085	0.03789268	0.06906246	0	0	0	0
32.79741	0.03789268	0.06906246	0	0	0	0
32.86895	0.03789268	0.06906246	0	0	0	0
32.88552	0.03789268	0.06906246	0	0	0	0
32.90208	0.03789268	0.06906246	0	0	0	0
32.919	0.03789268	0.06906246	0	0	0	0
32.93522	0.03789268	0.06906246	0	0	0	0
32.95179	0.03789268	0.06906246	0	0	0	0
32.96838	0.03789268	0.06906246	0	0	0	0
33.04354	0.03789268	0.06906246	0	0	0	0
33.06012	0.03789268	0.06906246	0	0	0	0
33.07668	0.03789268	0.06906246	0	0	0	0
33.09324	0.03789268	0.06906246	0	0	0	0
33.10981	0.03789268	0.06906246	0	0	0	0
33.12638	0.03789268	0.06906246	0	0	0	0
33.16737	0.03789268	0.06906246	0	0	0	0
33.18393	0.03789268	0.06906246	0	0	0	0
33.2005	0.03789268	0.06906246	0	0	0	0
33.21707	0.03789268	0.06906246	0	0	0	0
33.23364	0.03789268	0.06906246	0	0	0	0
33.25034	0.03789268	0.06906246	0	0	0	0
33.26691	0.03789268	0.06906246	0	0	0	0
33.28334	0.03789268	0.06906246	0	0	0	0
33.32718	0.03789268	0.06906246	0	0	0	0
33.34399	0.03789268	0.06906246	0	0	0	0
33.36055	0.03789268	0.06906246	0	0	0	0
33.37688	0.03789268	0.06906246	0	0	0	0
33.39345	0.03789268	0.06906246	0	0	0	0
33.41002	0.03789268	0.06906246	0	0	0	0
33.42658	0.03789268	0.06906246	0	0	0	0
33.44336	0.03789268	0.06906246	0	0	0	0
33.47006	0.03789268	0.06906246	0	0	0	0
33.48663	0.03789268	0.06906246	0	0	0	0
33.50319	0.03789268	0.06906246	0	0	0	0
33.51978	0.03789268	0.06906246	0	0	0	0
33.53633	0.03789268	0.06906246	0	0	0	0
33.55296	0.03789268	0.06906246	0	0	0	0
33.5695	0.03789268	0.06906246	0	0	0	0
33.58603	0.03789268	0.06906246	0	0	0	0
33.6026	0.03789268	0.06906246	0	0	0	0
33.64228	0.03789268	0.06906246	0	0	0	0
33.65885	0.03789268	0.06906246	0	0	0	0
33.67542	0.03789268	0.06906246	0	0	0	0
33.69199	0.03789268	0.06906246	0	0	0	0
33.70855	0.03789268	0.06906246	0	0	0	0
33.72512	0.03789268	0.06906246	0	0	0	0
33.74169	0.03789268	0.06906246	0	0	0	0
33.75826	0.03789268	0.06906246	0	0	0	0
33.81378	0.03789268	0.06906246	0	0	0	0
33.8305	0.03789268	0.06906246	0	0	0	0
33.84713	0.03789268	0.06906246	0	0	0	0
33.86406	0.03789268	0.06906246	0	0	0	0
33.88005	0.03789268	0.06906246	0	0	0	0
33.89709	0.03789268	0.06906246	0	0	0	0
33.93261	0.03789268	0.06906246	0	0	0	0
33.97449	0.03789268	0.06906246	0	0	0	0
33.99124	0.03789268	0.06906246	0	0	0	0
34.00777	0.03789268	0.06906246	0	0	0	0
34.02419	0.03789268	0.06906246	0	0	0	0
34.04076	0.03789268	0.06906246	0	0	0	0
34.05759	0.03789268	0.06906246	0	0	0	0
34.07422	0.03789268	0.06906246	0	0	0	0
34.09046	0.03789268	0.06906246	0	0	0	0
34.10703	0.03789268	0.06906246	0	0	0	0
34.12863	0.03789268	0.06906246	0	0	0	0
34.14524	0.03789268	0.06906246	0	0	0	0
34.16178	0.03789268	0.06906246	0	0	0	0
34.17833	0.03789268	0.06906246	0	0	0	0
34.1949	0.03789268	0.06906246	0	0	0	0
34.21147	0.03789268	0.06906246	0	0	0	0
34.22803	0.03789268	0.06906246	0	0	0	0
34.24464	0.03789268	0.06906246	0	0	0	0
34.2612	0.03789268	0.06906246	0	0	0	0
34.30545	0.03789268	0.06906246	0	0	0	0
34.32254	0.03789268	0.06906246	0	0	0	0
34.33858	0.03789268	0.06906246	0	0	0	0
34.35515	0.03789268	0.06906246	0	0	0	0
34.37172	0.03789268	0.06906246	0	0	0	0
34.38829	0.03789268	0.07028481	-2.24859E-07	0.07378072	-6.785476E-06	2.22645
34.40485	0.02933627	0.07884122	-0.5164658	0.5164664	-15.58696	13.36028
34.42142	0.01466813	0.09962107	-0.8853704	1.254274	-11.13356	22.26708
34.489	0.001222345	0.124068	-0.1989576	0.3617411	8.157168	-10.60665
34.50557	-0.08923115	0.2426354	-5.459784	7.156743	-62.51843	80.75021
34.52214	-0.09412052	0.2499694	-0.2951233	0.4426852	155.8698	-202.6307
34.5388	-0.0990099	0.2560812	-0.2933671	0.366711	0.05284647	-2.286066
34.55527	-0.106344	0.2670823	-0.4452487	0.6678711	-4.58327	9.087983
34.57184	-0.113678	0.2756387	-0.4427863	0.5165858	0.07453901	-4.579505
34.58841	-0.1197898	0.2829728	-0.368905	0.4426844	2.23	-2.230608
34.61092	-0.1210121	0.2841951	-0.05428252	0.05428252	8.049619	-9.937264
34.62749	-0.1210121	0.2854174	0	0.07376374	1.388683	0.4983787
34.64412	-0.1210121	0.2854174	0	0	0	-2.222101
34.66063	-0.1210121	0.2854174	0	0	0	0
34.67733	-0.1210121	0.2854174	0	0	0	0
34.69376	-0.1210121	0.2854174	0	0	0	0
34.7104	-0.1210121	0.2854174	0	0	0	0
34.72689	-0.1210121	0.2854174	0	0	0	0
34.7435	-0.1222345	0.2854175	-0.07359477	1.794327E-06	-2.223398	5.420907E-05
34.78846	-0.1222345	0.2854175	0	0	1.195392	-2.914506E-05
34.80503	-0.1234568	0.2854174	-0.07378028	-1.798872E-06	-1.199222	-2.92388E-05
34.82159	-0.1246791	0.2866398	-0.07378118	0.07378072	-2.720794E-05	2.226761
34.83816	-0.1246791	0.2866398	0	0	2.22672	-2.226707
34.85498	-0.1283462	0.2866398	-0.2179798	0	-6.528287	0
34.87129	-0.1320132	0.2866398	-0.2248629	0	-0.2077567	0
34.88786	-0.1356802	0.2866398	-0.2212921	0	0.108605	0
34.90443	-0.1381249	0.2866398	-0.1475614	1.798872E-06	2.22494	5.428381E-05
34.93892	-0.1405696	0.2854174	-0.07087628	-0.03543879	1.501872	-0.6941006
34.95597	-0.1466814	0.2829728	-0.3584234	-0.143369	-5.578652	-2.093935
34.97206	-0.1466814	0.2829728	0	0	10.81599	4.326386
34.98863	-0.1479037	0.2817504	-0.07378072	-0.07378072	-2.259483	-2.259483
35.00548	-0.149126	0.2817504	-0.07254376	0	0.0370164	2.207896
35.02176	-0.1503484	0.280528	-0.07505966	-0.07506149	-0.07593015	-2.26536
35.03833	-0.1527931	0.2793057	-0.1475624	-0.07377893	-2.206938	0.0390405
35.05491	-0.1540154	0.2780834	-0.0737298	-0.0737298	2.227502	0.001482208
35.08956	-0.1552377	0.2780834	-0.03527407	0	0.7506282	1.439153
35.10613	-0.1552377	0.2780834	0	0	0.6886786	0
35.1227	-0.1552377	0.2780834	0	0	0	0
35.13926	-0.1552377	0.2780834	0	0	0	0
35.15611	-0.1552377	0.2780834	0	0	0	0
35.1724	-0.1552377	0.2780834	0	0	0	0
35.18896	-0.1552377	0.2780834	0	0	0	0
35.20553	-0.1552377	0.2780834	0	0	0	0
35.23962	-0.1552377	0.2780834	0	0	0	0
35.25618	-0.1564601	0.2780834	-0.07378072	0	-1.456633	0
35.27279	-0.1564601	0.2780834	0	0	2.224402	0
35.28932	-0.1564601	0.2780834	0	0	0	0
35.30643	-0.1564601	0.2780834	0	0	0	0
35.32245	-0.1564601	0.2780834	0	0	0	0
35.33913	-0.1564601	0.2780834	0	0	0	0
35.35559	-0.1564601	0.2780834	0	0	0	0
35.38968	-0.1564601	0.2780834	0	0	0	0
35.40627	-0.1564601	0.2780834	0	0	0	0
35.4229	-0.1564601	0.2780834	0	0	0	0
35.43938	-0.1564601	0.2780834	0	0	0	0
35.45596	-0.1564601	0.2780834	0	0	0	0
35.47252	-0.1564601	0.2780834	0	0	0	0
35.48909	-0.1564601	0.2780834	0	0	0	0
35.50566	-0.1564601	0.2780834	0	0	0	0
35.54027	-0.1564601	0.2780834	0	0	0	0
35.55687	-0.1564601	0.2780834	0	0	0	0
35.57341	-0.1564601	0.2780834	0	0	0	0
35.58998	-0.1564601	0.2780834	0	0	0	0
35.60655	-0.1564601	0.2780834	0	0	0	0
35.62319	-0.1564601	0.2780834	0	0	0	0
35.63979	-0.1564601	0.2780834	0	0	0	0
35.65624	-0.1601271	0.273194	-0.222831	-0.2971086	-6.74213	-8.989525
35.68961	-0.1784623	0.2536365	-0.5495601	-0.5861974	-6.558199	-5.802672
35.70618	-0.25547	0.1509595	-4.644986	-6.193315	-82.00362	-112.2725
35.72295	-0.2701381	0.1252903	-0.8746943	-1.530717	113.0587	139.8161
35.73931	-0.2958074	0.07395184	-1.569638	-3.139276	-20.9807	-48.56317
35.76419	-0.3202543	0.02628041	-0.9826142	-1.916096	14.23673	29.66501
35.78087	-0.3593693	-0.07761887	-2.34479	-6.228349	-32.77523	-103.7569
35.79763	-0.365481	-0.09595405	-0.3646236	-1.093868	59.20938	153.5273
35.81389	-0.3679257	-0.1118445	-0.1503659	-0.9773796	6.488723	3.52782
35.84716	-0.3728151	-0.1399584	-0.1469355	-0.8448809	0.06925238	2.674911
35.86374	-0.3777044	-0.1815182	-0.295055	-2.507972	-2.971502	-33.36416
35.8803	-0.3789268	-0.1839628	-0.07379772	-0.1475945	6.677557	71.23635
35.89705	-0.3789268	-0.1876299	0	-0.2188736	2.214979	-2.139384
35.91343	-0.3813715	-0.1937416	-0.1492801	-0.3732011	-4.5058	-4.658149
35.93	-0.3825938	-0.1961863	-0.07376554	-0.1475284	2.291963	6.849456
35.94656	-0.3825938	-0.198631	0	-0.1475954	2.226248	-0.002023731
35.96313	-0.3838162	-0.2010757	-0.07376374	-0.1475275	-2.226194	0.002050714
35.98	-0.3838162	-0.202298	1.767134E-06	-0.07247901	2.206182	2.244553
36.00683	-0.3850385	-0.2047427	-0.04555552	-0.09110937	-1.042564	-0.4263497
36.0234	-0.3887056	-0.2108544	-0.2212912	-0.3688187	-4.048872	-6.398298
36.03997	-0.3887056	-0.2120768	0	-0.07378162	6.677813	8.903212
36.0567	-0.3887056	-0.2120768	0	0	0	2.216019
36.0731	-0.3887056	-0.2120768	0	0	0	0
36.08967	-0.3887056	-0.2120768	0	0	0	0
36.10624	-0.3887056	-0.2120768	0	0	0	0
36.12281	-0.3887056	-0.2120768	0	0	0	0
36.13937	-0.3887056	-0.2120768	0	0	0	0
36.18878	-0.3887056	-0.2120768	0	0	0	0
36.20535	-0.3887056	-0.2120768	0	0	0	0
36.22192	-0.3887056	-0.2120768	0	0	0	0
36.23878	-0.3887056	-0.2096321	0	0.1449589	0	4.335932
36.25505	-0.3887056	-0.2084097	0	0.07514767	0	-2.10715
36.27161	-0.3874832	-0.2071874	0.07378072	0.07378162	2.247145	-0.04160585
36.28818	-0.3801491	-0.2010757	0.4426861	0.3689036	11.13359	8.9068
36.30481	-0.3642586	-0.1900746	0.9558499	0.6617427	15.46061	8.822666
36.36716	-0.3410341	-0.1766288	0.3724336	0.2156194	-7.386577	-5.648324
36.38374	-0.1405696	-0.08617529	12.09728	5.458527	148.5475	66.42486
36.40034	-0.1161227	-0.07761887	1.472565	0.5153979	-320.2856	-149.0124
36.417	-0.09534287	-0.06906246	1.247381	0.5136276	-6.77034	-0.05322607
36.43344	-0.05378316	-0.05561667	2.527756	0.8178036	38.68188	9.18957
36.45001	-0.004889377	-0.03361447	2.950555	1.32775	12.80728	15.44712
36.46658	0.02077986	-0.02139103	1.548685	0.7374689	-42.29393	-17.80856
36.50812	0.04033737	-0.009167584	0.4708748	0.2942967	-18.54798	-7.62653
36.5246	0.06356191	0.00550055	1.408647	0.8896722	16.16249	10.26128
36.54117	0.06478426	0.00794524	0.07378118	0.1475618	-40.38398	-22.45122
36.55835	0.0660066	0.009167584	0.07115915	0.07115927	-0.07770152	-2.264126
36.57436	0.06722894	0.009167584	0.07634731	0	0.156327	-2.144135
36.59087	0.06722895	0.01038993	4.511723E-07	0.0740195	-2.347393	2.275835
36.60744	0.06845129	0.01161227	0.07378072	0.07378083	2.230288	-0.007214535
36.62402	0.06967364	0.01283462	0.07371283	0.07371294	-0.002047972	-0.002047972
36.64276	0.06967364	0.01405696	0	0.06524749	-2.087209	-0.2397027
36.65969	0.07089598	0.017724	0.07218555	0.2165558	2.023851	4.242198
36.67589	0.07089598	0.01894634	-4.598834E-07	0.07544859	-2.178578	-4.258623
36.69247	0.07089598	0.01894634	0	0	1.402789E-05	-2.301419
36.70903	0.07211832	0.02016868	0.07384874	0.07384885	2.228759	2.228763
36.72559	0.07211833	0.02139103	4.497179E-07	0.07378083	-2.229773	-0.002053683
36.74303	0.07211833	0.02139103	0	0	-1.322388E-05	-2.169513
36.75906	0.07211833	0.02139103	0	0	0	0
36.7753	0.07211833	0.02139103	0	0	0	0
36.79475	0.07211833	0.02139103	0	0	0	0
36.81157	0.07211833	0.02139103	0	0	0	0
36.82789	0.07211833	0.02139103	0	0	0	0
36.84446	0.07211833	0.02139103	0	0	0	0
36.8611	0.07211833	0.02139103	0	0	0	0
36.87759	0.07211833	0.02139103	0	0	0	0
36.89416	0.07211833	0.02139103	0	0	0	0
36.91073	0.07211833	0.02139103	0	0	0	0
36.92729	0.07211833	0.02139103	0	0	0	0
36.94826	0.07211833	0.02139103	0	0	0	0
36.96483	0.07211833	0.02139103	0	0	0	0
36.98156	0.07211833	0.02139103	0	0	0	0
36.99797	0.07211833	0.02139103	0	0	0	0
37.01453	0.07211833	0.02139103	0	0	0	0
37.03112	0.07211833	0.02139103	0	0	0	0
37.04767	0.07211833	0.02139103	0	0	0	0
37.06424	0.07211833	0.02139103	0	0	0	0
37.08085	0.07211833	0.02139103	0	0	0	0
37.09744	0.07211833	0.02139103	0	0	0	0
37.13156	0.07211833	0.02139103	0	0	0	0
37.14813	0.07211833	0.02139103	0	0	0	0
37.1647	0.07211833	0.02139103	0	0	0	0
37.18126	0.07211833	0.02139103	0	0	0	0
37.19783	0.07211833	0.02139103	0	0	0	0
37.21487	0.07211833	0.02139103	0	0	0	0
37.23097	0.07211833	0.02139103	0	0	0	0
37.24754	0.07211833	0.02139103	0	0	0	0
37.2641	0.07211833	0.02139103	0	0	0	0
37.30944	0.07211833	0.02139103	0	0	0	0
37.3261	0.07211833	0.02139103	0	0	0	0
37.34259	0.07211833	0.02139103	0	0	0	0
37.35914	0.07211833	0.02139103	0	0	0	0
37.37571	0.07211833	0.02139103	0	0	0	0
37.39227	0.07211833	0.02139103	0	0	0	0
37.40884	0.07211833	0.02139103	0	0	0	0
37.42577	0.07211833	0.02139103	0	0	0	0
37.46041	0.07211833	0.02139103	0	0	0	0
37.47698	0.07211833	0.02139103	0	0	0	0
37.49354	0.07211833	0.02139103	0	0	0	0
37.51011	0.07211833	0.02139103	0	0	0	0
37.52668	0.07211833	0.02139103	0	0	0	0
37.54359	0.07211833	0.02139103	0	0	0	0
37.55981	0.07211833	0.02139103	0	0	0	0
37.5972	0.07211833	0.02139103	0	0	0	0
37.62985	0.07211833	0.02139103	0	0	0	0
37.64642	0.07211833	0.02139103	0	0	0	0
37.66298	0.07211833	0.02139103	0	0	0	0
37.67956	0.07211833	0.02139103	0	0	0	0
37.69642	0.07211833	0.02139103	0	0	0	0
37.7131	0.07211833	0.02139103	0	0	0	0
37.72925	0.07211833	0.02139103	0	0	0	0
37.74619	0.06967364	0.02261337	-0.1443056	0.07215271	-4.360172	2.180083
37.76239	0.05256081	0.02505806	-1.056778	0.1509683	-27.53848	2.378659
37.7814	0.02444689	0.02994744	-1.478414	0.2571157	-11.97502	3.014724
37.79797	-0.04155971	0.03361447	-3.984166	0.2213424	-70.41894	-1.005334
37.81454	-0.0550055	0.03361448	-0.8114025	2.248072E-07	95.74318	-6.679351
37.8311	-0.06967364	0.03361448	-0.8855744	0	-2.238513	-6.784695E-06
37.84768	-0.07334067	0.03361448	-0.2212917	0	20.04809	0
37.86459	-0.07456301	0.03361448	-0.0722665	0	4.45045	0
37.88081	-0.07456301	0.03361448	0	0	2.181258	0
37.89783	-0.07456301	0.03361448	0	0	0	0
37.91394	-0.07456301	0.03361448	0	0	0	0
37.94175	-0.07456301	0.03361448	0	0	0	0
37.95861	-0.07456301	0.03361448	0	0	0	0
37.97488	-0.07456301	0.03361448	0	0	0	0
37.99145	-0.07456301	0.03361448	0	0	0	0
38.00802	-0.07456301	0.03361448	0	0	0	0
38.02484	-0.07456301	0.03361448	0	0	0	0
38.04123	-0.07456301	0.03361448	0	0	0	0
38.05772	-0.07456301	0.03361448	0	0	0	0
38.07429	-0.07456301	0.03361448	0	0	0	0
38.10957	-0.07456301	0.03361448	0	0	0	0
38.12614	-0.07456301	0.03361448	0	0	0	0
38.1427	-0.07456301	0.03361448	0	0	0	0
38.15927	-0.07456301	0.03361448	0	0	0	0
38.17619	-0.07456301	0.03361448	0	0	0	0
38.19241	-0.07456301	0.03361448	0	0	0	0
38.20897	-0.07456301	0.03361448	0	0	0	0
38.23528	-0.07456301	0.03361448	0	0	0	0
38.26471	-0.07456301	0.03361448	0	0	0	0
38.28128	-0.07456301	0.03361448	0	0	0	0
38.29785	-0.07456301	0.03361448	0	0	0	0
38.31441	-0.07456301	0.03361448	0	0	0	0
38.33098	-0.07456301	0.03361448	0	0	0	0
38.34755	-0.07456301	0.03361448	0	0	0	0
38.36412	-0.07456301	0.03361448	0	0	0	0
38.38068	-0.07456301	0.03361448	0	0	0	0
38.39725	-0.07456301	0.03361448	0	0	0	0
38.41385	-0.07456301	0.03361448	0	0	0	0
38.49266	-0.07456301	0.03361448	0	0	0	0
38.50923	-0.07456301	0.03361448	0	0	0	0
38.52581	-0.07456301	0.03361448	0	0	0	0
38.54284	-0.07456301	0.03361448	0	0	0	0
38.55894	-0.07456301	0.03361448	0	0	0	0
38.5755	-0.07456301	0.03361448	0	0	0	0
38.64418	-0.07456301	0.03361448	0	0	0	0
38.66075	-0.07456301	0.03361448	0	0	0	0
38.67732	-0.07456301	0.03361448	0	0	0	0
38.69389	-0.07456301	0.03361448	0	0	0	0
38.71125	-0.07456301	0.03361448	0	0	0	0
38.72702	-0.07456301	0.03361448	0	0	0	0
38.7603	-0.07456301	0.03361448	0	0	0	0
38.77686	-0.07456301	0.03361448	0	0	0	0
38.79349	-0.07456301	0.03361448	0	0	0	0
38.81001	-0.07456301	0.03361448	0	0	0	0
38.82657	-0.07456301	0.03361448	0	0	0	0
38.84352	-0.07456301	0.03361448	0	0	0	0
38.8597	-0.07456301	0.03361448	0	0	0	0
38.87627	-0.07456301	0.03361448	0	0	0	0
38.91641	-0.07456301	0.03361448	0	0	0	0
38.933	-0.07456301	0.03361448	0	0	0	0
38.94973	-0.07456301	0.03361448	0	0	0	0
38.96666	-0.07456301	0.03361448	0	0	0	0
38.98268	-0.07456301	0.03361448	0	0	0	0
38.99963	-0.07456301	0.03361448	0	0	0	0
39.01587	-0.07456301	0.03361448	0	0	0	0
39.03293	-0.07456301	0.03361448	0	0	0	0
39.07457	-0.07456301	0.03361448	0	0	0	0
39.09114	0.04033737	-0.03116979	6.9354	-3.910386	119.1554	-67.18339
39.1077	0.08189708	-0.05317198	2.508549	-1.328055	-133.6026	77.93488
39.12427	0.1711282	-0.09350935	5.386003	-2.434768	86.84173	-33.40067
39.14102	0.290918	-0.1424031	7.153113	-2.919638	53.04447	-14.55465
39.15753	0.3593693	-0.1705171	4.14509	-1.702447	-90.43874	36.59586
39.17466	0.404596	-0.1876299	2.641105	-0.9993369	-44.71087	20.90227
39.19058	0.4265982	-0.1974086	1.381824	-0.614145	-38.10608	11.65598
39.22852	0.4339323	-0.1998533	0.1933032	-0.06443428	-22.06541	10.20562
39.24509	0.4339323	-0.1998533	0	0	-3.546314	1.182102
39.26213	0.4339323	-0.1998533	0	0	0	0
39.27822	0.4339323	-0.1998533	0	0	0	0
39.29479	0.4339323	-0.1998533	0	0	0	0
39.31136	0.4339323	-0.1998533	0	0	0	0
39.32793	0.4229312	-0.1998533	-0.6640283	0	-20.04041	0
39.34521	0.4131525	-0.1998533	-0.5658802	8.623068E-07	2.899689	2.5476E-05
39.38455	0.4033737	-0.198631	-0.2485404	0.03106707	5.6042	0.5486271
39.40125	0.3825938	-0.198631	-1.244815	0	-17.77859	-0.5543939
39.41769	0.3801492	-0.1974086	-0.1486913	0.07434563	33.08109	2.243756
39.43476	0.3740374	-0.1961863	-0.3580237	0.07160527	-6.246471	-0.08177224
39.45082	0.3728151	-0.1961863	-0.07607543	0	8.508237	-2.160803
39.4674	0.369148	-0.1949639	-0.2212912	0.07376374	-4.449211	2.260019
39.48396	0.3642587	-0.1925193	-0.2951229	0.1475614	-2.227988	2.226963
39.50079	0.3569246	-0.1888522	-0.4358635	0.2179309	-4.214564	2.107256
39.54777	0.3434788	-0.1839629	-0.2861909	0.1040694	2.345655	-1.784426
39.56434	0.2566923	-0.1399584	-5.237235	2.6555	-77.90434	40.14659
39.58091	0.2408019	-0.131402	-0.9591521	0.516466	129.0979	-64.54874
39.5975	0.2114656	-0.1204009	-1.767891	0.6629593	-24.38812	4.417619
39.61404	0.1882411	-0.1093998	-1.404423	0.6652529	10.97075	0.06922676
39.63094	0.1662388	-0.09839873	-1.301681	0.6508402	3.072439	-0.4310047
39.64717	0.1442367	-0.08617529	-1.355521	0.7530676	-1.624888	3.085229
39.66374	0.1356802	-0.08128591	-0.516466	0.2951233	25.58191	-13.96224
39.70735	0.1295685	-0.07639654	-0.1401585	0.1121266	6.253755	-3.041176
39.72392	0.1259015	-0.07150716	-0.2213422	0.2951238	-1.34917	3.041183
39.74048	0.1246791	-0.07150715	-0.07378162	4.497179E-07	4.453386	-8.90684
39.75705	0.1234568	-0.07028481	-0.07378072	0.07378072	2.720794E-05	2.226693
39.77362	0.1234568	-0.06784011	4.497179E-07	0.1475619	2.22672	2.22672
39.79018	0.1222344	-0.06661777	-0.07378162	0.07378072	-2.226747	-2.22672
39.80719	0.1210121	-0.06539543	-0.07189358	0.07189358	0.05624312	-0.05621627
39.82331	0.1210121	-0.06417309	9.239002E-07	0.07578753	2.17003	0.1175331
39.86195	0.1197898	-0.06295075	-0.03164132	0.03164113	-0.5778352	-0.8061801
39.87851	0.1161227	-0.05683902	-0.2213431	0.3689047	-3.436709	6.109995
39.89508	0.1161227	-0.05439433	0	0.1475617	6.680147	-6.680147
39.91164	0.1161227	-0.05439433	0	0	0	-4.453933
39.92821	0.1149004	-0.0507273	-0.07378072	0.2213424	-2.226963	6.680896
39.94527	0.1149004	-0.04706026	4.367453E-07	0.2149577	2.194134	-0.1898694
39.96146	0.113678	-0.04094854	-0.07552052	0.3775987	-2.271643	4.892181
39.97791	0.113678	-0.03239213	4.527411E-07	0.5199378	2.313588	4.360563
40.01962	0.1149004	-0.0262804	0.02930849	0.1465427	0.5038975	-6.419839
40.03619	0.1234568	-0.003055861	0.5163475	1.401514	8.357292	21.53453
40.05312	0.1259015	0.003055861	0.1443698	0.3609262	-11.10233	-31.05815
40.06932	0.1320132	0.01405696	0.3772433	0.6790375	7.028138	9.600619
40.09164	0.1393473	0.02628041	0.3285903	0.5476505	-1.263031	-3.410807
40.10822	0.1552377	0.0507273	0.9589304	1.475278	16.20793	23.85208
40.12478	0.1601271	0.05806136	0.2951909	0.4427868	-20.0317	-31.16064
40.15755	0.1747953	0.07639653	0.4475805	0.5594756	3.088844	2.365211
40.17412	0.1943528	0.1045105	1.180494	1.69696	14.85457	23.05433
40.19069	0.1992422	0.1106222	0.2951238	0.3689041	-26.72054	-40.0808
40.20725	0.2065762	0.1228456	0.4426852	0.7378091	4.453413	11.13357
40.22395	0.2175773	0.1338467	0.6590199	0.6590204	6.504281	-2.368848
40.24039	0.2322455	0.1509596	0.8921494	1.040841	7.035864	11.52336
40.25695	0.2493583	0.170517	1.032931	1.180493	4.265002	4.230772
40.27353	0.2725828	0.1998533	1.401192	1.769926	11.11158	17.78504
40.29031	0.2860286	0.2145215	0.8010742	0.8739009	-17.9894	-26.85964
40.32493	0.2958074	0.2279672	0.2824733	0.3884005	-10.08891	-9.444975
40.3415	0.3092532	0.2438577	0.8114048	0.9589313	10.33283	11.14548
40.35807	0.3104755	0.2463024	0.07379591	0.1475945	-22.26108	-24.48619
40.37517	0.3129202	0.2487471	0.1429214	0.1429222	2.053118	-0.1387737
40.3912	0.3141425	0.2511918	0.07625647	0.1525129	-2.01195	0.2894479
40.40777	0.3153649	0.2524141	0.07378253	0.07378072	-0.07589576	-2.415351
40.42444	0.3153649	0.2536365	0	0.07332487	-2.219861	-0.01371491
40.44145	0.3153649	0.2548588	-1.751682E-06	0.07184522	-5.200372E-05	-0.04392784
40.49235	0.3153649	0.2548588	0	0	2.5793E-05	-1.0579
40.50892	0.3153649	0.2548588	0	0	0	0
40.52549	0.3153649	0.2548588	0	0	0	0
40.54205	0.3153649	0.2548588	0	0	0	0
40.55862	0.3153649	0.2548588	0	0	0	0
40.57519	0.3153649	0.2548588	0	0	0	0
40.59199	0.3153649	0.2548588	0	0	0	0
40.60832	0.3153649	0.2548588	0	0	0	0
40.63353	0.3153649	0.2548588	0	0	0	0
40.6501	0.3153649	0.2548588	0	0	0	0
40.66666	0.3153649	0.2548588	0	0	0	0
40.68323	0.3153649	0.2548588	0	0	0	0
40.70036	0.3153649	0.2548588	0	0	0	0
40.71637	0.3153649	0.2548588	0	0	0	0
40.73293	0.3153649	0.2548588	0	0	0	0
40.74979	0.3153649	0.2548588	0	0	0	0
40.77989	0.3153649	0.2548588	0	0	0	0
40.80901	0.3153649	0.2548588	0	0	0	0
40.82558	0.2848063	0.2450801	-1.84452	-0.5902458	-40.37153	-12.91888
40.8422	0.2689158	0.241413	-0.9560711	-0.2206327	26.77029	11.13699
40.85872	0.2542477	0.2401907	-0.8880268	-0.07400224	2.053343	4.424808
40.87564	0.220022	0.2365237	-2.022555	-0.2167009	-33.92765	-4.267351
40.89284	0.180907	0.2304119	-2.274066	-0.3553241	-7.370842	-4.062519
40.90841	0.141792	0.2279672	-2.511332	-0.156958	-7.239038	6.052197
40.92498	0.08678646	0.2267449	-3.320138	-0.07378072	-25.16302	2.587754
40.94154	0.07211833	0.2267449	-0.8855744	0	73.48373	2.226963
40.95811	0.0330033	0.2291896	-2.360988	0.1475614	-44.53319	4.453926
40.97804	0.01466813	0.2316343	-0.9198955	0.1226525	39.48303	-0.6824549
40.99461	-0.008556411	0.2365237	-1.401836	0.2951238	-13.20421	4.725367
41.01118	-0.01222344	0.2389683	-0.2213426	0.1475614	35.62737	-4.45344
41.02774	-0.01833517	0.2401907	-0.3689043	0.07378162	-4.45342	-2.226679
41.04431	-0.02444689	0.2438577	-0.3689043	0.2213422	0	4.453386
41.06088	-0.02933627	0.2450801	-0.2951235	0.07378072	2.22671	-4.453413
41.07798	-0.03422565	0.2475248	-0.285907	0.1429541	0.2737402	2.054542
41.09401	-0.03789268	0.2499694	-0.2287696	0.152512	1.724608	0.2884913
41.11058	-0.0440044	0.2524141	-0.3688194	0.1475284	-4.295951	-0.1528703
41.14957	-0.05256081	0.2548588	-0.2194298	0.06269412	2.688561	-1.52676
41.16614	-0.06845129	0.2621929	-0.9591514	0.4426861	-13.31367	6.839178
41.18271	-0.07089598	0.2634152	-0.1475614	0.07377893	24.49384	-11.13364
41.1993	-0.07823005	0.2658599	-0.4421762	0.1473936	-8.886374	2.220416
41.21605	-0.08434177	0.2683046	-0.3647057	0.1458819	2.323351	-0.04533368
41.23241	-0.08800881	0.269527	-0.224234	0.0747445	4.242377	-2.148416
41.24907	-0.09412053	0.2707493	-0.3667931	0.07335845	-4.317854	-0.04198102
41.26554	-0.1002323	0.2719716	-0.370954	0.07419071	-0.1255612	0.02511498
41.30214	-0.106344	0.273194	-0.1670126	0.03340326	3.84287	-0.7685585
41.31871	-0.1222344	0.2744163	-0.9591508	0.07377893	-14.90056	0.7594889
41.33527	-0.1246791	0.2744163	-0.1475614	0	24.49382	-2.226652
41.35238	-0.1320132	0.2670822	-0.4288606	-0.4288615	-8.354961	-12.73776
41.36842	-0.1466813	0.241413	-0.9142083	-1.599865	-14.64277	-35.32875
41.38573	-0.1760176	0.1497372	-1.695026	-5.296952	-23.41149	-110.8509
41.40155	-0.1894634	0.06295075	-0.8497431	-5.484703	25.51362	-5.666983
41.44398	-0.1955751	-0.02139103	-0.1440396	-1.987745	12.1142	60.02923
41.48296	-0.1796846	-0.1754064	0.407633	-3.950897	6.7762	-24.11341
41.4996	-0.1527931	-0.241413	1.616848	-3.968633	21.74281	-0.3189133
41.51627	-0.1466813	-0.2511918	0.3664584	-0.5863315	-37.53804	101.5403
41.53267	-0.1430143	-0.2597482	0.2237126	-0.5219957	-4.316526	1.945467
41.54972	-0.1369026	-0.273194	0.3584225	-0.7885312	4.02799	-7.969736
41.56581	-0.1332355	-0.2817504	0.2279025	-0.5317705	-3.938192	7.74727
41.58237	-0.1332355	-0.2866398	0	-0.2952589	-6.980171	7.243848
41.59894	-0.1307909	-0.2927515	0.1474935	-0.3687338	4.451364	-2.217478
41.61551	-0.1307909	-0.2964185	0	-0.221395	-4.450851	4.446184
41.66481	-0.1283462	-0.308642	0.0495794	-0.2478955	0.7526605	-0.4023021
41.68138	-0.1026769	-0.3856497	1.549397	-4.648195	22.76729	-66.79668
41.69795	-0.09534287	-0.3954284	0.4426852	-0.5902476	-33.40064	122.4691
41.71485	-0.0770077	-0.4113189	1.084733	-0.9401024	19.1827	-10.45274
41.73108	-0.05622785	-0.4247647	1.280215	-0.8283747	5.899648	3.371949
41.74765	-0.02077986	-0.4345435	2.139645	-0.5902476	26.20313	7.260246
41.76422	0.001222345	-0.4357658	1.328056	-0.07377893	-24.49382	15.58705
41.78079	0.01222344	-0.4357658	0.6638749	0	-20.0427	2.226396
41.81102	0.04033737	-0.4296541	0.9299554	0.2021638	5.685173	4.319508
41.82759	0.08678646	-0.4039848	2.803027	1.549042	40.02074	28.7779
41.84415	0.09778756	-0.3966508	0.6641808	0.4427881	-64.55051	-33.38681
41.86142	0.1087887	-0.3880944	0.6370385	0.4954734	-0.8022554	1.557236
41.87729	0.1259015	-0.3722039	1.07863	1.001585	13.32725	15.27449
41.89386	0.1442367	-0.3575358	1.106714	0.8853687	0.8659102	-3.583333
41.91042	0.1601271	-0.3416453	0.9591503	0.9591512	-4.453467	2.22676
41.92699	0.1747953	-0.3294218	0.8853705	0.7378109	-2.226679	-6.680065
41.94367	0.1857964	-0.3184207	0.6594729	0.6594711	-6.794137	-2.356161
41.98486	0.1955751	-0.3110867	0.237422	0.178066	-7.293218	-8.318884
42.00143	0.1992422	-0.3074197	0.2213422	0.2213422	-0.2784168	0.7493132
42.01826	0.1992422	-0.3074197	0	0	-6.627473	-6.627473
42.03456	0.1992422	-0.3074197	0	0	0	0
42.05113	0.1992422	-0.3074197	0	0	0	0
42.06769	0.1992422	-0.3074197	0	0	0	0
42.08426	0.1992422	-0.3074197	0	0	0	0
42.10082	0.1992422	-0.3074197	0	0	0	0
42.15056	0.1992422	-0.3074197	0	0	0	0
42.16715	0.1992422	-0.3074197	0	0	0	0
42.18369	0.1992422	-0.3074197	0	0	0	0
42.20035	0.1992422	-0.3074197	0	0	0	0
42.21683	0.1992422	-0.3074197	0	0	0	0
42.2334	0.1992422	-0.3074197	0	0	0	0
42.25026	0.1992422	-0.3074197	0	0	0	0
42.26653	0.1992422	-0.3074197	0	0	0	0
42.3384	0.1992422	-0.3074197	0	0	0	0
42.35504	0.1564601	-0.2793057	-2.571083	1.689569	-29.0477	19.08849
42.37154	0.145459	-0.273194	-0.6669452	0.3705246	57.46698	-39.80883
42.3881	0.1234568	-0.2634152	-1.328055	0.5902476	-19.99608	6.645789
42.40467	0.09778756	-0.2524141	-1.549042	0.6638755	-6.668618	2.221838
42.42124	0.07578535	-0.241413	-1.328362	0.6641812	6.660139	0.009228212
42.4724	0.04644909	-0.2279672	-0.5733914	0.2628042	11.1474	-5.926471
42.48906	0.01711282	-0.2071874	-1.761412	1.247667	-17.51786	14.5222
42.50554	0.01466813	-0.2047427	-0.1483474	0.148348	48.6824	-33.1775
42.5221	0.01222345	-0.198631	-0.1475616	0.3689045	0.02377839	6.674082
42.53868	0.007334067	-0.1912969	-0.2949876	0.4424815	-4.448302	2.220046
42.55576	0.002444689	-0.1827405	-0.2862263	0.5008959	0.2603131	1.735575
42.57181	-0.004889378	-0.1656277	-0.4568872	1.06607	-5.150558	17.057
42.6085	-0.008556412	-0.1546266	-0.09994707	0.299841	6.767664	-14.52787
42.62507	-0.01466813	-0.1338467	-0.3689042	1.254275	-5.050176	17.92129
42.64164	-0.01589048	-0.1265127	-0.07378083	0.4426844	8.906842	-24.49385
42.6582	-0.01711282	-0.1228456	-0.07378095	0.2213431	-3.372885E-06	-6.680093
42.67477	-0.01955751	-0.1155116	-0.1475617	0.4426852	-2.226707	6.68012
42.69134	-0.01955751	-0.1081775	0	0.4426852	4.45342	0
42.7079	-0.02077986	-0.1008434	-0.07378095	0.4426848	-2.226713	-1.349154E-05
42.72447	-0.0220022	-0.09350935	-0.07378072	0.4426852	6.745769E-06	1.349154E-05
42.74104	-0.02322455	-0.08617529	-0.07378095	0.4426852	-6.745769E-06	0
42.75975	-0.02322455	-0.08128591	0	0.2612557	2.09117	-5.142249
42.77633	-0.02566923	-0.0727295	-0.1475277	0.5163471	-4.180919	7.229262
42.79289	-0.02566924	-0.07150716	-1.124295E-07	0.07378072	4.451879	-13.35514
42.80946	-0.02566923	-0.06906246	1.124295E-07	0.1475619	6.786257E-06	2.22672
42.82603	-0.02689158	-0.06784012	-0.07376397	0.07376374	-2.225948	-2.226976
42.84262	-0.02689158	-0.06784012	0	0	2.224664	-2.224658
42.85916	-0.02689158	-0.06661778	0	0.0738828	0	2.230044
42.87573	-0.02689158	-0.06539543	1.124295E-07	0.07378118	3.395474E-06	-0.003068971
42.89229	-0.02689158	-0.06417308	0	0.07379816	-3.393519E-06	0.0005127375
42.93117	-0.02689158	-0.06295075	-4.790829E-08	0.03143914	-8.641028E-07	-0.7640129
42.94775	-0.02689158	-0.05683902	1.123777E-07	0.3687347	2.890419E-06	6.082411
42.96431	-0.02689158	-0.05561667	0	0.07379794	-3.391176E-06	-8.900185
42.98088	-0.02689158	-0.05317198	0	0.1475617	0	2.22645
42.99818	-0.02689158	-0.04706026	0	0.3531301	0	6.068529
43.01473	-0.02444689	-0.03361448	0.1477658	0.8127121	4.365103	13.57637
43.03058	-0.02322455	-0.01650165	0.07711918	1.079669	-2.180828	8.240828
43.04758	-0.0220022	-0.004278206	0.07187756	0.7187759	-0.1595331	-10.98409
43.08883	-0.02077986	0.001833517	0.02963927	0.1481964	-0.725163	-9.795925
43.1054	-0.02077986	0.006722894	0	0.2950555	-0.5126861	2.540298
43.12211	-0.02077986	0.006722894	0	0	0	-8.863973
43.13853	-0.02077986	0.006722894	0	0	0	0
43.1551	-0.02077986	0.006722894	0	0	0	0
43.17167	-0.02077986	0.006722894	0	0	0	0
43.18823	-0.02077986	0.006722894	0	0	0	0
43.2048	-0.02077986	0.006722894	0	0	0	0
43.238	-0.02077986	0.006722894	0	0	0	0
43.2547	-0.02077986	0.006722894	0	0	0	0
43.27113	-0.02077986	0.006722894	0	0	0	0
43.28776	-0.02077986	0.006722894	0	0	0	0
43.30426	-0.02077986	0.006722894	0	0	0	0
43.32104	-0.02077986	0.006722894	0	0	0	0
43.3374	-0.02077986	0.006722894	0	0	0	0
43.35421	-0.02077986	0.006722894	0	0	0	0
43.37117	-0.02077986	0.006722894	0	0	0	0
43.40344	-0.02077986	0.006722894	0	0	0	0
43.42006	-0.02077986	0.006722894	0	0	0	0
43.43687	-0.02077986	0.006722894	0	0	0	0
43.45314	-0.02077986	0.006722894	0	0	0	0
43.46972	-0.02077986	0.006722894	0	0	0	0
43.48631	-0.02077986	0.006722894	0	0	0	0
43.50285	-0.02077986	0.006722894	0	0	0	0
43.51942	-0.02077986	0.006722894	0	0	0	0
43.53598	-0.02077986	0.006722894	0	0	0	0
43.58277	-0.02077986	0.006722894	0	0	0	0
43.59972	-0.02077986	0.006722894	0	0	0	0
43.61591	-0.02077986	0.006722894	0	0	0	0
43.63265	-0.02077986	0.006722894	0	0	0	0
43.64929	-0.02077986	0.006722894	0	0	0	0
43.66587	-0.02077986	0.006722894	0	0	0	0
43.68218	-0.02077986	0.006722894	0	0	0	0
43.69875	-0.02077986	0.006722894	0	0	0	0
43.73743	-0.02077986	0.006722894	0	0	0	0
43.754	-0.02077986	0.006722894	0	0	0	0
43.77057	-0.02077986	0.006722894	0	0	0	0
43.78714	-0.02077986	0.006722894	0	0	0	0
43.80398	-0.02077986	0.006722894	0	0	0	0
43.82027	-0.02077986	0.006722894	0	0	0	0
43.83684	-0.02077986	0.006722894	0	0	0	0
43.85415	-0.02077986	0.006722894	0	0	0	0
43.89328	-0.02077986	0.006722894	0	0	0	0
43.90985	-0.02077986	0.006722894	0	0	0	0
43.92686	-0.02077986	0.006722894	0	0	0	0
43.94899	-0.02077986	0.006722894	0	0	0	0
43.96556	-0.02077986	0.006722894	0	0	0	0
43.98212	-0.02077986	0.006722894	0	0	0	0
43.99869	-0.02077986	0.006722894	0	0	0	0
44.01525	-0.02077986	0.006722894	0	0	0	0
44.0477	-0.02077986	0.006722894	0	0	0	0
44.06427	-0.02077986	0.006722894	0	0	0	0
44.08084	-0.02077986	0.006722894	0	0	0	0
44.0974	-0.02077986	0.006722894	0	0	0	0
44.11397	-0.02077986	0.006722894	0	0	0	0
44.13054	-0.02077986	0.006722894	0	0	0	0
44.14711	-0.02077986	0.006722894	0	0	0	0
44.16375	-0.02077986	0.006722894	0	0	0	0
44.20837	-0.02077986	0.006722894	0	0	0	0
44.22494	-0.02077986	0.006722894	0	0	0	0
44.2415	-0.02077986	0.006722894	0	0	0	0
44.25817	-0.02077986	0.006722894	0	0	0	0
44.27464	-0.02077986	0.006722894	0	0	0	0
44.29121	-0.02077986	0.006722894	0	0	0	0
44.30782	-0.02077986	0.006722894	0	0	0	0
44.32486	-0.02077986	0.006722894	0	0	0	0
44.36216	-0.02077986	0.006722894	0	0	0	0
44.37873	-0.02077986	0.006722894	0	0	0	0
44.39529	-0.02077986	0.006722894	0	0	0	0
44.41252	-0.02077986	0.006722894	0	0	0	0
44.42845	-0.02077986	0.006722894	0	0	0	0
44.44518	-0.02077986	0.006722894	0	0	0	0
44.46157	-0.02077986	0.006722894	0	0	0	0
44.47813	-0.02077986	0.006722894	0	0	0	0
44.51311	-0.02077986	0.006722894	0	0	0	0
44.52968	-0.02077986	0.006722894	0	0	0	0
44.54625	-0.02077986	0.006722894	0	0	0	0
44.56282	-0.02077986	0.006722894	0	0	0	0
44.58015	-0.02077986	0.006722894	0	0	0	0
44.59746	-0.02077986	0.006722894	0	0	0	0
44.61403	-0.02077986	0.006722894	0	0	0	0
44.6306	-0.02077986	0.006722894	0	0	0	0
44.64717	-0.02077986	0.006722894	0	0	0	0
44.67128	-0.02077986	0.006722894	0	0	0	0
44.68819	-0.02077986	0.006722894	0	0	0	0
44.70488	-0.02077986	0.006722894	0	0	0	0
44.72098	-0.02077986	0.006722894	0	0	0	0
44.73755	-0.02077986	0.006722894	0	0	0	0
44.75429	-0.02077986	0.006722894	0	0	0	0
44.77068	-0.02077986	0.006722894	0	0	0	0
44.78725	-0.02077986	0.006722894	0	0	0	0
44.80428	-0.02077986	0.006722894	0	0	0	0
44.85938	-0.02077986	0.006722894	0	0	0	0
44.87595	-0.02077986	0.006722894	0	0	0	0
44.89254	-0.02077986	0.006722894	0	0	0	0
44.90908	-0.02077986	0.006722894	0	0	0	0
44.92565	-0.02077986	0.006722894	0	0	0	0
44.94318	-0.02077986	0.006722894	0	0	0	0
44.95879	-0.02077986	0.006722894	0	0	0	0
45.02146	-0.02077986	0.006722894	0	0	0	0
