Time	Pos X	Pos Y	Vel X	Vel Y	Acc X	Acc Y
0.01645381	-0.04278206	0.03239213	0.0009508988	-0.0007199663	-2.114307E-05	1.600832E-05
0.03348792	-0.04278206	0.03239213	0	0	2.114323E-05	-1.600845E-05
0.08686285	-0.04278206	0.03239213	0	0	0	0
0.1034307	-0.04278206	0.03239213	0	0	0	0
0.1199971	-0.04278206	0.03239213	0	0	0	0
0.136565	-0.04278206	0.03239213	0	0	0	0
0.1531309	-0.04278206	0.03239213	0	0	0	0
0.1696972	-0.04278206	0.03239213	0	0	0	0
0.1862643	-0.04278206	0.03239213	0	0	0	0
0.2028302	-0.04278206	0.03239213	0	0	0	0
0.2402866	-0.04278206	0.03239213	0	0	0	0
0.2569011	-0.04278206	0.03239213	0	0	0	0
0.2734216	-0.04278206	0.03239213	0	0	0	0
0.2899895	-0.04278206	0.03239213	0	0	0	0
0.3065783	-0.04278206	0.03239213	0	0	0	0
0.3231233	-0.04278206	0.03239213	0	0	0	0
0.3400015	-0.04278206	0.03239213	0	0	0	0
0.356256	-0.04278206	0.03239213	0	0	0	0
0.4052152	-0.04278206	0.03239213	0	0	0	0
0.4217851	-0.04278206	0.03239213	0	0	0	0
0.4383522	-0.04278206	0.03239213	0	0	0	0
0.4551084	-0.04278206	0.03239213	0	0	0	0
0.4716368	-0.04278206	0.03239213	0	0	0	0
0.4880539	-0.04278206	0.03239213	0	0	0	0
0.5046191	-0.04278206	0.03239213	0	0	0	0
0.5390828	-0.04278206	0.03239213	0	0	0	0
0.5556531	-0.04278206	0.03239213	0	0	0	0
0.5722194	-0.04278206	0.03239213	0	0	0	0
0.5887873	-0.04278206	0.03239213	0	0	0	0
0.6054306	-0.04278206	0.03239213	0	0	0	0
0.6307909	-0.04278206	0.03239213	0	0	0	0
0.6473619	-0.04278206	0.03239213	0	0	0	0
0.6640562	-0.04278206	0.03239213	0	0	0	0
0.6972958	-0.04278206	0.03239213	0	0	0	0
0.7138633	-0.04278206	0.03239213	0	0	0	0
0.7304328	-0.04278206	0.03239213	0	0	0	0
0.7469987	-0.04278206	0.03239213	0	0	0	0
0.7635654	-0.04278206	0.03239213	0	0	0	0
0.7801306	-0.04278206	0.03239213	0	0	0	0
0.7967055	-0.04278206	0.03239213	0	0	0	0
0.8135067	-0.04278206	0.03239213	0	0	0	0
0.829833	-0.04278206	0.03239213	0	0	0	0
0.8647634	-0.04278206	0.03239213	0	0	0	0
0.8816265	-0.04278206	0.03239213	0	0	0	0
0.8979003	-0.04278206	0.03239213	0	0	0	0
0.9146463	-0.04278206	0.03239213	0	0	0	0
0.9310338	-0.04278206	0.03239213	0	0	0	0
0.9480553	-0.04278206	0.03239213	0	0	0	0
0.964168	-0.04278206	0.03239213	0	0	0	0
0.9807359	-0.04278206	0.03239213	0	0	0	0
1.00752	-0.04278206	0.03239213	0	0	0	0
1.024178	-0.04278206	0.03239213	0	0	0	0
1.040658	-0.04278206	0.03239213	0	0	0	0
1.057225	-0.04278206	0.03239213	0	0	0	0
1.073844	-0.04278206	0.03239213	0	0	0	0
1.090407	-0.04278206	0.03239213	0	0	0	0
1.106925	-0.04278206	0.03239213	0	0	0	0
1.12362	-0.04278206	0.03239213	0	0	0	0
1.140058	-0.04278206	0.03239213	0	0	0	0
1.179972	-0.04278206	0.03239213	0	0	0	0
1.19654	-0.04278206	0.03239213	0	0	0	0
1.213363	-0.04278206	0.03239213	0	0	0	0
1.229679	-0.04278206	0.03239213	0	0	0	0
1.246394	-0.04278206	0.03239213	0	0	0	0
1.262905	-0.04278206	0.03239213	0	0	0	0
1.279375	-0.04278206	0.03239213	0	0	0	0
1.295945	-0.04278206	0.03239213	0	0	0	0
1.316797	-0.04278206	0.03239213	0	0	0	0
1.333471	-0.04278206	0.03239213	0	0	0	0
1.349931	-0.04278206	0.03239213	0	0	0	0
1.366498	-0.04278206	0.03239213	0	0	0	0
1.383501	-0.04278206	0.03239213	0	0	0	0
1.399632	-0.04278206	0.03239213	0	0	0	0
1.416705	-0.04278206	0.03239213	0	0	0	0
1.432768	-0.04278206	0.03239213	0	0	0	0
1.449336	-0.04278206	0.03239213	0	0	0	0
1.479692	-0.04278206	0.03239213	0	0	0	0
1.496322	-0.04278206	0.03239213	0	0	0	0
1.512846	-0.04278206	0.03239213	0	0	0	0
1.5294	-0.04278206	0.03239213	0	0	0	0
1.546244	-0.04278206	0.03239213	0	0	0	0
1.562528	-0.04278206	0.03239213	0	0	0	0
1.579578	-0.04278206	0.03239213	0	0	0	0
1.595664	-0.04278206	0.03239213	0	0	0	0
1.632236	-0.04278206	0.03239213	0	0	0	0
1.649333	-0.04278206	0.03239213	0	0	0	0
1.665373	-0.04278206	0.03239213	0	0	0	0
1.682433	-0.04278206	0.03239213	0	0	0	0
1.698911	-0.04278206	0.03239213	0	0	0	0
1.715083	-0.04278206	0.03239213	0	0	0	0
1.731644	-0.04278206	0.03239213	0	0	0	0
1.748208	-0.04278206	0.03239213	0	0	0	0
1.778224	-0.04278206	0.03239213	0	0	0	0
1.794795	-0.04278206	0.03239213	0	0	0	0
1.811361	-0.04278206	0.03239213	0	0	0	0
1.827925	-0.04278206	0.03239213	0	0	0	0
1.844494	-0.04278206	0.03239213	0	0	0	0
1.86106	-0.04278206	0.03239213	0	0	0	0
1.877912	-0.04278206	0.03239213	0	0	0	0
1.894195	-0.04278206	0.03239213	0	0	0	0
1.910764	-0.04278206	0.03239213	0	0	0	0
1.936152	-0.04278206	0.03239213	0	0	0	0
1.952722	-0.04278206	0.03239213	0	0	0	0
1.970074	-0.04278206	0.03239213	0	0	0	0
1.985853	-0.04278206	0.03239213	0	0	0	0
2.00242	-0.04278206	0.03239213	0	0	0	0
2.018986	-0.04278206	0.03239213	0	0	0	0
2.035556	-0.04278206	0.03239213	0	0	0	0
2.052122	-0.04278206	0.03239213	0	0	0	0
2.070697	-0.04278206	0.03239213	0	0	0	0
2.090637	-0.04278206	0.03239213	0	0	0	0
2.107208	-0.04278206	0.03239213	0	0	0	0
2.123844	-0.04278206	0.03239213	0	0	0	0
2.140343	-0.04278206	0.03239213	0	0	0	0
2.15691	-0.04278206	0.03239213	0	0	0	0
2.17389	-0.04278206	0.03239213	0	0	0	0
2.19004	-0.04278206	0.03239213	0	0	0	0
2.206609	-0.04278206	0.03239213	0	0	0	0
2.223398	-0.04278206	0.03239213	0	0	0	0
2.239742	-0.04278206	0.03239213	0	0	0	0
2.264336	-0.04278206	0.03239213	0	0	0	0
2.280913	-0.04278206	0.03239213	0	0	0	0
2.297472	-0.04278206	0.03239213	0	0	0	0
2.314039	-0.04278206	0.03239213	0	0	0	0
2.331209	-0.04278206	0.03239213	0	0	0	0
2.347466	-0.04278206	0.03239213	0	0	0	0
2.363739	-0.04278206	0.03239213	0	0	0	0
2.380489	-0.04278206	0.03239213	0	0	0	0
2.396872	-0.04278206	0.03239213	0	0	0	0
2.413813	-0.04278206	0.03239213	0	0	0	0
2.43053	-0.04278206	0.03239213	0	0	0	0
2.447033	-0.04278206	0.03239213	0	0	0	0
2.463568	-0.04278206	0.03239213	0	0	0	0
2.480083	-0.04278206	0.03239213	0	0	0	0
2.496826	-0.04278206	0.03239213	0	0	0	0
2.513215	-0.04278206	0.03239213	0	0	0	0
2.529783	-0.04278206	0.03239213	0	0	0	0
2.546353	-0.04278206	0.03239213	0	0	0	0
2.56292	-0.04278206	0.03239213	0	0	0	0
2.588869	-0.04278206	0.03239213	0	0	0	0
2.605439	-0.04278206	0.03239213	0	0	0	0
2.622863	-0.04278206	0.03239213	0	0	0	0
2.638936	-0.04278206	0.03239213	0	0	0	0
2.65514	-0.04278206	0.03239213	0	0	0	0
2.671933	-0.04278206	0.03239213	0	0	0	0
2.688272	-0.04278206	0.03239213	0	0	0	0
2.704842	-0.04278206	0.03239213	0	0	0	0
2.721409	-0.04278206	0.03239213	0	0	0	0
2.772397	-0.04278206	0.03239213	0	0	0	0
2.788968	-0.04278206	0.03239213	0	0	0	0
2.805533	-0.04278206	0.03239213	0	0	0	0
2.822101	-0.04278206	0.03239213	0	0	0	0
2.838669	-0.04278206	0.03239213	0	0	0	0
2.855319	-0.04278206	0.03239213	0	0	0	0
2.871825	-0.04278206	0.03239213	0	0	0	0
2.897971	-0.04278206	0.03239213	0	0	0	0
2.914541	-0.04278206	0.03239213	0	0	0	0
2.931111	-0.04278206	0.03239213	0	0	0	0
2.947976	-0.04278206	0.03239213	0	0	0	0
2.964497	-0.04278206	0.03239213	0	0	0	0
2.980832	-0.04278206	0.03239213	0	0	0	0
2.997377	-0.04278206	0.03239213	0	0	0	0
3.013944	-0.04278206	0.03239213	0	0	0	0
3.03051	-0.04278206	0.03239213	0	0	0	0
3.064583	-0.04278206	0.03239213	0	0	0	0
3.081151	-0.04278206	0.03239213	0	0	0	0
3.097944	-0.04278206	0.03239213	0	0	0	0
3.114672	-0.04278206	0.03239213	0	0	0	0
3.130855	-0.04278206	0.03239213	0	0	0	0
3.148034	-0.04278206	0.03239213	0	0	0	0
3.163989	-0.04278206	0.03239213	0	0	0	0
3.180552	-0.04278206	0.03239213	0	0	0	0
3.215751	-0.04278206	0.03239213	0	0	0	0
3.232397	-0.04278206	0.03239213	0	0	0	0
3.249299	-0.04278206	0.03239213	0	0	0	0
3.265454	-0.04278206	0.03239213	0	0	0	0
3.282023	-0.04278206	0.03239213	0	0	0	0
3.29859	-0.04278206	0.03239213	0	0	0	0
3.315276	-0.04278206	0.03239213	0	0	0	0
3.331723	-0.04278206	0.03239213	0	0	0	0
3.366446	-0.04278206	0.03239213	0	0	0	0
3.383014	-0.04278206	0.0287251	0	-0.2213393	0	-4.315425
3.399773	-0.04644909	0.02016868	-0.2188045	-0.5105442	-6.565408	-8.677831
3.416148	-0.05011613	0.01161227	-0.2239371	-0.5225193	-0.154902	-0.3614051
3.432714	-0.05745019	-0.006722894	-0.4427299	-1.106824	-6.641986	-17.738
3.449283	-0.06600661	-0.0287251	-0.5163993	-1.327884	-2.223317	-6.671488
3.465849	-0.07334067	-0.05317198	-0.4427167	-1.475723	2.223683	-4.461674
3.482417	-0.0904535	-0.09962108	-1.032917	-2.803632	-17.81281	-40.07754
3.498984	-0.1051216	-0.1387361	-0.8853951	-2.361055	4.452269	13.35711
3.526715	-0.1173451	-0.1692947	-0.440784	-1.101958	10.03684	28.42338
3.543283	-0.1320132	-0.2157438	-0.8853323	-2.803553	-10.03515	-38.41147
3.559851	-0.1344579	-0.2218555	-0.1475487	-0.3688727	22.26491	73.47404
3.576644	-0.1356802	-0.2255225	-0.07279081	-0.2183715	2.240864	4.511263
3.592986	-0.1369026	-0.2316343	-0.07479811	-0.373997	-0.06058104	-4.696819
3.609552	-0.1393473	-0.2353013	-0.1475699	-0.2213549	-2.211374	4.638453
3.626119	-0.1393473	-0.2365237	-8.994488E-07	-0.07378179	4.453803	4.453926
3.642716	-0.1393473	-0.2365237	0	0	2.712142E-05	2.22477
3.659252	-0.1393473	-0.2365237	0	0	0	0
3.676789	-0.1393473	-0.237746	0	-0.06970114	0	-2.045635
3.693911	-0.1405696	-0.2401907	-0.07139102	-0.1427812	-2.059817	-2.10855
3.709925	-0.141792	-0.241413	-0.07632913	-0.07633006	-0.1490258	2.005412
3.726491	-0.1442366	-0.2438577	-0.1475699	-0.147569	-2.186617	-2.186561
3.74306	-0.1479037	-0.2487471	-0.2213144	-0.2950865	-2.225533	-4.451925
3.759625	-0.1503484	-0.2524141	-0.1475878	-0.2213804	2.225121	2.224502
3.776295	-0.152793	-0.2560812	-0.1466468	-0.2199715	0.02831616	0.04239331
3.792758	-0.1527931	-0.2597482	-9.051412E-07	-0.222748	4.42594	-0.08379941
3.809328	-0.1527931	-0.2670823	0	-0.4426143	2.740141E-05	-6.656028
3.843807	-0.1466813	-0.2841951	0.1772611	-0.4963307	3.472404	-1.052263
3.860376	-0.1014546	-0.3330888	2.72946	-2.950765	49.99555	-48.08043
3.876941	-0.0904535	-0.3416453	0.664123	-0.516543	-62.33154	73.46445
3.893587	-0.06722895	-0.3563134	1.395191	-0.8811713	22.01282	-10.97914
3.910079	-0.04644909	-0.3660922	1.260041	-0.5929612	-4.078438	8.697384
3.926646	-0.03055861	-0.3722039	0.9591788	-0.368916	-9.100998	6.777301
3.943209	-0.0220022	-0.3758709	0.5165924	-0.2213963	-13.35911	4.452762
3.959778	-0.01955751	-0.3770933	0.1475448	-0.07377223	-11.1386	4.455593
3.99663	-0.01955751	-0.3770933	0	0	-2.761899	1.380947
4.013654	-0.01955751	-0.3770933	0	0	0	0
4.029766	-0.01955751	-0.3770933	0	0	0	0
4.046697	-0.01955751	-0.3770933	0	0	0	0
4.062925	-0.01955751	-0.3770933	0	0	0	0
4.079465	-0.01955751	-0.3770933	0	0	0	0
4.096038	-0.01955751	-0.3770933	0	0	0	0
4.112674	-0.01955751	-0.3770933	0	0	0	0
4.129168	-0.01955751	-0.3770933	0	0	0	0
4.184453	-0.01955751	-0.3770933	0	0	0	0
4.201019	-0.01955751	-0.3770933	0	0	0	0
4.217588	-0.01955751	-0.3770933	0	0	0	0
4.23416	-0.01955751	-0.3770933	0	0	0	0
4.250721	-0.01833517	-0.3685369	0.07380633	0.5166453	2.227544	15.59284
4.267288	-0.01711282	-0.3538687	0.07378296	0.885396	-0.0007055146	11.131
4.283855	-0.01589048	-0.3306442	0.07378296	1.401876	0	15.58784
4.342635	-0.01222344	-0.3013079	0.06238606	0.4990884	-0.1512599	-11.98182
4.359203	0	-0.1558489	0.7377661	8.779417	8.963489	109.8946
4.376144	0.001222344	-0.1411808	0.0721507	0.8658085	-19.86335	-236.1585
4.392487	0.002444689	-0.1167339	0.074797	1.495939	0.07950728	18.93211
4.408905	0.003667033	-0.09962107	0.07444939	1.042292	-0.01061051	-13.84733
4.425471	0.006111722	-0.07884122	0.1475745	1.254383	2.216969	6.430059
4.442037	0.008556412	-0.06661777	0.1475702	0.7378511	-0.0001281788	-15.59008
4.477339	0.009778756	-0.05561667	0.03462566	0.311631	-2.17754	-8.217405
4.493906	0.01222344	-0.03850385	0.1475575	1.032902	2.177234	13.90553
4.510473	0.01344579	-0.03483682	0.07378296	0.221349	-2.22652	-24.49273
4.52704	0.01344579	-0.02994744	0	0.295132	-2.226838	2.226838
4.543611	0.01344579	-0.02750275	0	0.1475277	0	-4.454256
4.560178	0.01466813	-0.02383572	0.07378302	0.221349	2.226552	2.227707
4.576743	0.01466813	-0.02261337	0	0.07378934	-2.226936	-4.45368
4.593311	0.01589048	-0.01894634	0.07377654	0.2213298	2.226644	4.452907
4.609874	0.01589048	-0.01772399	1.124586E-07	0.07380006	-2.226801	-4.452903
4.636675	0.01589048	-0.01650165	0	0.04560871	-2.593389E-06	-0.6501161
4.653302	0.01589048	-0.01405696	0	0.1470286	0	2.33536
4.669809	0.01589048	-0.01405696	0	0	0	-4.437331
4.686377	0.01711282	-0.01405696	0.07377871	0	2.230659	0
4.703002	0.01711282	-0.01405696	0	0	-2.222712	0
4.719513	0.01711282	-0.01405696	0	0	0	0
4.73616	0.01711282	-0.01405696	0	0	0	0
4.753237	0.01711282	-0.01405696	0	0	0	0
4.769212	0.01711282	-0.01405696	0	0	0	0
4.790246	0.01711282	-0.01405696	0	0	0	0
4.806816	0.01711282	-0.01405696	0	0	0	0
4.82338	0.01711282	-0.01405696	0	0	0	0
4.83995	0.01711282	-0.01405696	0	0	0	0
4.856525	0.01711282	-0.01405696	0	0	0	0
4.873165	0.01711282	-0.01405696	0	0	0	0
4.88965	0.01711282	-0.01405696	0	0	0	0
4.906419	0.01711282	-0.01405696	0	0	0	0
4.922783	0.01711282	-0.01405696	0	0	0	0
4.939346	0.01711282	-0.01405696	0	0	0	0
4.955916	0.01711282	-0.01405696	0	0	0	0
4.972483	0.01711282	-0.01405696	0	0	0	0
4.989528	0.01711282	-0.01405696	0	0	0	0
5.006129	0.01711282	-0.01405696	0	0	0	0
5.022282	0.01711282	-0.01405696	0	0	0	0
5.038751	0.01711282	-0.01405696	0	0	0	0
5.055317	0.01711282	-0.01405696	0	0	0	0
5.071884	0.01711282	-0.01405696	0	0	0	0
5.088451	0.01711282	-0.01405696	0	0	0	0
5.105013	0.01711282	-0.01405696	0	0	0	0
5.121581	0.01711282	-0.01405696	0	0	0	0
5.138399	0.01711282	-0.01405696	0	0	0	0
5.154717	0.01711282	-0.01405696	0	0	0	0
5.171284	0.01711282	-0.01405696	0	0	0	0
5.188007	0.01711282	-0.01405696	0	0	0	0
5.204417	0.01711282	-0.01405696	0	0	0	0
5.220984	0.01711282	-0.01405696	0	0	0	0
5.237715	0.01711282	-0.01405696	0	0	0	0
5.254119	0.01711282	-0.01405696	0	0	0	0
5.289452	0.01711282	-0.01405696	0	0	0	0
5.306263	0.01711282	-0.01405696	0	0	0	0
5.32259	0.01711282	-0.01405696	0	0	0	0
5.339945	0.01711282	-0.01405696	0	0	0	0
5.355726	0.01711282	-0.01405696	0	0	0	0
5.372289	0.01711282	-0.01405696	0	0	0	0
5.388856	0.01711282	-0.01405696	0	0	0	0
5.405446	0.01711282	-0.01405696	0	0	0	0
5.437064	0.01711282	-0.01405696	0	0	0	0
5.453939	0.01711282	-0.01405696	0	0	0	0
5.470266	0.01711282	-0.01405696	0	0	0	0
5.486768	0.01711282	-0.01405696	0	0	0	0
5.551487	0.01711282	-0.01405696	0	0	0	0
5.596278	0.01711282	-0.01405696	0	0	0	0
5.617972	0.01711282	-0.01405696	0	0	0	0
5.634543	0.01711282	-0.01405696	0	0	0	0
5.651411	0.01711282	-0.01405696	0	0	0	0
5.667919	0.01711282	-0.01405696	0	0	0	0
5.684244	0.01711282	-0.01405696	0	0	0	0
5.70081	0.01711282	-0.01405696	0	0	0	0
5.717381	0.01711282	-0.01405696	0	0	0	0
5.768357	0.01711282	-0.01405696	0	0	0	0
5.78547	0.01711282	-0.01405696	0	0	0	0
5.801563	0.01711282	-0.01405696	0	0	0	0
5.818061	0.01711282	-0.01405696	0	0	0	0
5.834629	0.01711282	-0.01405696	0	0	0	0
5.851195	0.01711282	-0.01405696	0	0	0	0
5.868113	0.01711282	-0.01405696	0	0	0	0
5.919236	0.01711282	-0.01405696	0	0	0	0
5.935805	0.01711282	-0.01405696	0	0	0	0
5.952371	0.01711282	-0.01405696	0	0	0	0
5.969129	0.01711282	-0.01405696	0	0	0	0
5.985514	0.01711282	-0.01405696	0	0	0	0
6.002072	0.01711282	-0.01405696	0	0	0	0
6.018857	0.01711282	-0.01405696	0	0	0	0
6.054864	0.01711282	-0.01405696	0	0	0	0
6.07187	0.01711282	-0.01405696	0	0	0	0
6.088	0.01711282	-0.01405696	0	0	0	0
6.104942	0.01711282	-0.01405696	0	0	0	0
6.121134	0.01711282	-0.01405696	0	0	0	0
6.137876	0.01711282	-0.01405696	0	0	0	0
6.154266	0.01711282	-0.01405696	0	0	0	0
6.170836	0.01711282	-0.01405696	0	0	0	0
6.206798	0.01711282	-0.01405696	0	0	0	0
6.22365	0.01711282	-0.01405696	0	0	0	0
6.239933	0.01711282	-0.01405696	0	0	0	0
6.256816	0.01711282	-0.01405696	0	0	0	0
6.27307	0.01711282	-0.01405696	0	0	0	0
6.289638	0.01711282	-0.01405696	0	0	0	0
6.306202	0.01711282	-0.01405696	0	0	0	0
6.32277	0.01711282	-0.01405696	0	0	0	0
6.371735	0.01711282	-0.01405696	0	0	0	0
6.388306	0.01711282	-0.01405696	0	0	0	0
6.404872	0.01711282	-0.01405696	0	0	0	0
6.421514	0.01711282	-0.01405696	0	0	0	0
6.438581	0.01711282	-0.01405696	0	0	0	0
6.454575	0.01711282	-0.01405696	0	0	0	0
6.471141	0.01711282	-0.01405696	0	0	0	0
6.487708	0.01711282	-0.01405696	0	0	0	0
6.518522	0.01711282	-0.01405696	0	0	0	0
6.535785	0.01711282	-0.01405696	0	0	0	0
6.55166	0.01711282	-0.01405696	0	0	0	0
6.568226	0.01711282	-0.01405696	0	0	0	0
6.58493	0.01711282	-0.01405696	0	0	0	0
6.601466	0.01711282	-0.01405696	0	0	0	0
6.617928	0.01711282	-0.01405696	0	0	0	0
6.635166	0.01711282	-0.01405696	0	0	0	0
6.651061	0.01711282	-0.01405696	0	0	0	0
6.686926	0.01711282	-0.01405696	0	0	0	0
6.703744	0.01711282	-0.01405696	0	0	0	0
6.720063	0.01711282	-0.01405696	0	0	0	0
6.737264	0.01711282	-0.01405696	0	0	0	0
6.753442	0.01711282	-0.01405696	0	0	0	0
6.769966	0.01711282	-0.01405696	0	0	0	0
6.786332	0.01711282	-0.01405696	0	0	0	0
6.802898	0.01711282	-0.01405696	0	0	0	0
6.838058	0.01711282	-0.01405696	0	0	0	0
6.854694	0.01711282	-0.01405696	0	0	0	0
6.871194	0.01711282	-0.01405696	0	0	0	0
6.887762	0.01711282	-0.01405696	0	0	0	0
6.904535	0.01711282	-0.01405696	0	0	0	0
6.920896	0.01711282	-0.01405696	0	0	0	0
6.937462	0.01711282	-0.01405696	0	0	0	0
6.954029	0.01711282	-0.01405696	0	0	0	0
6.993261	0.01711282	-0.01405696	0	0	0	0
7.009831	0.01711282	-0.01405696	0	0	0	0
7.026484	0.01711282	-0.01405696	0	0	0	0
7.042965	0.01711282	-0.01405696	0	0	0	0
7.059731	0.01711282	-0.01405696	0	0	0	0
7.076099	0.01711282	-0.01405696	0	0	0	0
7.104815	0.01711282	-0.01405696	0	0	0	0
7.164141	0.01711282	-0.01405696	0	0	0	0
7.180708	0.01711282	-0.01405696	0	0	0	0
7.197276	0.01711282	-0.01405696	0	0	0	0
7.213843	0.01711282	-0.01405696	0	0	0	0
7.230412	0.01711282	-0.01405696	0	0	0	0
7.246977	0.01711282	-0.01405696	0	0	0	0
7.263546	0.01711282	-0.01405696	0	0	0	0
7.280115	0.01711282	-0.01405696	0	0	0	0
7.342076	0.01711282	-0.01405696	0	0	0	0
7.358643	0.01711282	-0.01405696	0	0	0	0
7.37521	0.01711282	-0.01405696	0	0	0	0
7.391779	0.01711282	-0.01405696	0	0	0	0
7.40835	0.01711282	-0.01405696	0	0	0	0
7.424917	0.01711282	-0.01405696	0	0	0	0
7.44148	0.01711282	-0.01405696	0	0	0	0
7.485335	0.01711282	-0.01405696	0	0	0	0
7.502038	0.01711282	-0.01405696	0	0	0	0
7.518473	0.01711282	-0.01405696	0	0	0	0
7.535043	0.01711282	-0.01405696	0	0	0	0
7.551711	0.01711282	-0.01405696	0	0	0	0
7.568177	0.01711282	-0.01405696	0	0	0	0
7.58474	0.01711282	-0.01405696	0	0	0	0
7.601511	0.01711282	-0.01405696	0	0	0	0
7.633133	0.01711282	-0.01405696	0	0	0	0
7.649737	0.01711282	-0.01405696	0	0	0	0
7.666271	0.01711282	-0.01405696	0	0	0	0
7.682837	0.01711282	-0.01405696	0	0	0	0
7.699458	0.01711282	-0.01405696	0	0	0	0
7.716187	0.01711282	-0.01405696	0	0	0	0
7.732658	0.01711282	-0.01405696	0	0	0	0
7.749144	0.01711282	-0.01405696	0	0	0	0
7.765673	0.01711282	-0.01405696	0	0	0	0
7.813319	0.01711282	-0.01405696	0	0	0	0
7.829887	0.01711282	-0.01405696	0	0	0	0
7.847059	0.01711282	-0.01405696	0	0	0	0
7.86302	0.01711282	-0.01405696	0	0	0	0
7.879592	0.01711282	-0.01405696	0	0	0	0
7.89616	0.01711282	-0.01405696	0	0	0	0
7.912725	0.01711282	-0.01405696	0	0	0	0
7.92946	0.01711282	-0.01405696	0	0	0	0
7.963208	0.01711282	-0.01405696	0	0	0	0
7.979778	0.01711282	-0.01405696	0	0	0	0
7.996345	0.01711282	-0.01405696	0	0	0	0
8.01291	0.01711282	-0.01405696	0	0	0	0
8.029475	0.01711282	-0.01405696	0	0	0	0
8.046043	0.01711282	-0.01405696	0	0	0	0
8.062612	0.01711282	-0.01405696	0	0	0	0
8.079472	0.01711282	-0.01405696	0	0	0	0
8.095749	0.01711282	-0.01405696	0	0	0	0
8.129535	0.01711282	-0.01405696	0	0	0	0
8.146104	0.01711282	-0.01405696	0	0	0	0
8.162668	0.01711282	-0.01405696	0	0	0	0
8.17926	0.01711282	-0.01405696	0	0	0	0
8.195807	0.01711282	-0.01405696	0	0	0	0
8.212373	0.01711282	-0.01405696	0	0	0	0
8.22894	0.01711282	-0.01405696	0	0	0	0
8.245507	0.01711282	-0.01405696	0	0	0	0
8.262114	0.01711282	-0.01405696	0	0	0	0
8.287506	0.01711282	-0.01405696	0	0	0	0
8.304073	0.01711282	-0.01405696	0	0	0	0
8.320642	0.01711282	-0.01405696	0	0	0	0
8.337209	0.01711282	-0.01405696	0	0	0	0
8.354175	0.01711282	-0.01405696	0	0	0	0
8.370343	0.01711282	-0.01405696	0	0	0	0
8.386912	0.01711282	-0.01405696	0	0	0	0
8.403506	0.01711282	-0.01405696	0	0	0	0
8.420046	0.01711282	-0.01405696	0	0	0	0
8.447879	0.01711282	-0.01405696	0	0	0	0
8.464448	0.01711282	-0.01405696	0	0	0	0
8.481015	0.01711282	-0.01405696	0	0	0	0
8.498283	0.01711282	-0.01405696	0	0	0	0
8.514569	0.01711282	-0.01405696	0	0	0	0
8.530716	0.01711282	-0.01405696	0	0	0	0
8.547282	0.01711282	-0.01405696	0	0	0	0
8.564232	0.01711282	-0.01405696	0	0	0	0
8.580442	0.01711282	-0.01405696	0	0	0	0
8.596978	0.01711282	-0.01405696	0	0	0	0
8.613548	0.01711282	-0.01405696	0	0	0	0
8.630117	0.01711282	-0.01405696	0	0	0	0
8.646685	0.01711282	-0.01405696	0	0	0	0
8.66325	0.01711282	-0.01405696	0	0	0	0
8.679813	0.01711282	-0.01405696	0	0	0	0
8.696749	0.01711282	-0.01405696	0	0	0	0
8.713792	0.01711282	-0.01405696	0	0	0	0
8.729514	0.01711282	-0.01405696	0	0	0	0
8.758117	0.01711282	-0.01405696	0	0	0	0
8.774687	0.01711282	-0.01405696	0	0	0	0
8.791253	0.01711282	-0.01405696	0	0	0	0
8.80782	0.01711282	-0.01405696	0	0	0	0
8.824389	0.01711282	-0.01405696	0	0	0	0
8.840956	0.01711282	-0.01405696	0	0	0	0
8.857521	0.01711282	-0.01405696	0	0	0	0
8.874087	0.01711282	-0.01405696	0	0	0	0
8.890656	0.01711282	-0.01405696	0	0	0	0
8.920368	0.01711282	-0.01405696	0	0	0	0
8.936935	0.01711282	-0.01405696	0	0	0	0
8.953505	0.01711282	-0.01405696	0	0	0	0
8.970072	0.01711282	-0.01405696	0	0	0	0
8.986639	0.01711282	-0.01405696	0	0	0	0
9.003374	0.01711282	-0.01405696	0	0	0	0
9.019776	0.01711282	-0.01405696	0	0	0	0
9.036339	0.01711282	-0.01405696	0	0	0	0
9.07503	0.01711282	-0.01405696	0	0	0	0
9.091905	0.01711282	-0.01405696	0	0	0	0
9.108165	0.01711282	-0.01405696	0	0	0	0
9.124734	0.01711282	-0.01405696	0	0	0	0
9.141305	0.01711282	-0.01405696	0	0	0	0
9.157871	0.01711282	-0.01405696	0	0	0	0
9.174438	0.01711282	-0.01405696	0	0	0	0
9.191003	0.01711282	-0.01405696	0	0	0	0
9.23984	0.01711282	-0.01405696	0	0	0	0
9.256691	0.01711282	-0.01405696	0	0	0	0
9.272975	0.01711282	-0.01405696	0	0	0	0
9.289543	0.01711282	-0.01405696	0	0	0	0
9.30611	0.01711282	-0.01405696	0	0	0	0
9.322752	0.01711282	-0.01405696	0	0	0	0
9.339281	0.01711282	-0.01405696	0	0	0	0
9.355808	0.02077986	-0.006722894	0.2218791	0.4437581	6.712164	13.42433
9.386944	0.02444689	0.003055861	0.1177763	0.3140703	-2.184153	-2.720946
9.403514	0.04033737	0.05194964	0.9589856	2.950725	17.63333	55.26923
9.420081	0.04278206	0.06417309	0.1475617	0.7378088	-24.48671	-66.78017
9.437469	0.04767143	0.08495294	0.2812024	1.195111	3.935864	13.46803
9.453212	0.05133847	0.1045105	0.2329273	1.242279	-1.457114	1.423701
9.46978	0.05378316	0.1228456	0.1475532	1.106649	-2.642226	-4.197581
9.486348	0.05745019	0.1460702	0.2213299	1.401756	2.226457	8.905831
9.502913	0.05989488	0.1619606	0.1475874	0.9593169	-2.225681	-13.3536
9.51948	0.06111722	0.1680724	0.07378072	0.3689045	-2.227682	-17.82022
9.547408	0.06233957	0.1864075	0.04376707	0.6565072	-0.674531	6.463623
9.563979	0.06233956	0.2243002	-2.248072E-07	2.28668	-0.983548	36.6336
9.580545	0.06233957	0.2304119	2.248719E-07	0.3689249	1.357017E-05	-57.87298
9.597112	0.06356191	0.241413	0.07378497	0.6640666	2.226956	8.907907
9.614353	0.06356192	0.2548588	4.321312E-07	0.7798508	-2.182474	3.424783
9.630244	0.06478426	0.269527	0.07692005	0.9230424	2.321572	4.321781
9.646811	0.06478426	0.2866398	0	1.032991	-2.369881	3.387491
9.663378	0.06600661	0.3049749	0.07378118	1.106713	2.226784	2.224977
9.679944	0.06722895	0.3208654	0.07378497	0.9592065	0.0001144565	-4.451875
9.708732	0.06722894	0.3465346	-2.58812E-07	0.8916758	-1.626878	-1.488972
9.725302	0.06478425	0.3746486	-0.1475364	1.696669	-3.252726	17.74767
9.741868	0.06478426	0.3770933	4.497438E-07	0.1475699	4.452415	-46.74921
9.758665	0.06356191	0.3783156	-0.07277162	0.0727694	-2.181198	-2.241998
9.775002	0.06356191	0.3783156	0	0	2.196252	-2.196185
9.791861	0.06356191	0.3783156	0	0	0	0
9.808207	0.06356191	0.3783156	0	0	0	0
9.8247	0.06356191	0.3783156	0	0	0	0
9.841268	0.06356191	0.3783156	0	0	0	0
9.886631	0.06356191	0.3783156	0	0	0	0
9.903198	0.06356191	0.3783156	0	0	0	0
9.919767	0.06478426	0.3783156	0.07377268	0	2.226336	0
9.936337	0.06478426	0.3783156	0	0	-2.226208	0
9.953531	0.06478426	0.3783156	0	0	0	0
9.96947	0.06478426	0.3783156	0	0	0	0
9.986076	0.06356191	0.3758709	-0.07360745	-0.1472122	-2.261707	-4.523331
10.0026	0.05989488	0.351424	-0.2219044	-1.479367	-4.475998	-40.20798
10.06327	0.05622784	0.3220878	-0.0604424	-0.4835387	2.091608	12.90014
10.07984	0.03667033	0.2132991	-1.180426	-6.566118	-14.5004	-78.75105
10.09641	0.03544799	0.2035204	-0.07378072	-0.5902467	33.39766	180.347
10.11297	0.03544799	0.1961863	0	-0.4427107	2.226771	4.452772
10.12955	0.03422565	0.1790735	-0.07375525	-1.032575	-2.225618	-17.79959
10.14611	0.03178096	0.1570713	-0.1475957	-1.328361	-2.22838	-8.926305
10.16268	0.03178096	0.1436255	0	-0.8114963	4.454702	15.5999
10.1998	0.02933627	0.131402	-0.06585766	-0.3292883	-1.226629	8.981344
10.21714	0.02444689	0.1093998	-0.2819914	-1.26896	-3.9687	-17.25449
10.23294	0.02444689	0.1093998	0	0	8.508557	38.28848
10.24951	0.02322455	0.1057328	-0.07379358	-0.2213813	-2.279852	-6.839573
10.2665	0.0220022	0.09962108	-0.07193	-0.3596499	0.0555334	-4.1203
10.28321	0.02077986	0.0947317	-0.07314087	-0.2925639	-0.03592495	1.990344
10.29932	0.02077986	0.08861997	-1.156037E-07	-0.3793199	2.228235	-2.643022
10.31577	0.01955751	0.08373059	-0.0743285	-0.297314	-2.282989	2.518802
10.33234	0.01833517	0.07761888	-0.07377659	-0.3688824	0.01671799	-2.167862
10.35915	0.01711282	0.07150715	-0.04558039	-0.2279025	0.6498989	3.249471
10.37572	0.01466813	0.0617284	-0.1475363	-0.5901448	-2.349896	-8.349019
10.39229	0.01344579	0.05928371	-0.07379352	-0.1475869	2.225562	13.35642
10.40886	0.01344579	0.05683902	-5.620827E-08	-0.1475449	2.227155	0.001268691
10.42615	0.01344579	0.05683902	0	0	1.659823E-06	4.356981
10.44199	0.01344579	0.05683902	0	0	0	0
10.45856	0.01344579	0.05683902	0	0	0	0
10.47513	0.01344579	0.05683902	0	0	0	0
10.49169	0.01344579	0.05683902	0	0	0	0
10.52621	0.01344579	0.05683902	0	0	0	0
10.54294	0.01344579	0.05683902	0	0	0	0
10.55966	0.01344579	0.05683902	0	0	0	0
10.57627	0.01344579	0.05683902	0	0	0	0
10.59265	0.01344579	0.05683902	0	0	0	0
10.60928	0.01344579	0.05683902	0	0	0	0
10.62578	0.01344579	0.05683902	0	0	0	0
10.64282	0.01344579	0.05683902	0	0	0	0
10.67766	0.01344579	0.05683902	0	0	0	0
10.69441	0.01344579	0.05683902	0	0	0	0
10.71089	0.01344579	0.05683902	0	0	0	0
10.72737	0.01344579	0.05683902	0	0	0	0
10.74438	0.01344579	0.05683902	0	0	0	0
10.76051	0.01344579	0.05683902	0	0	0	0
10.77731	0.01344579	0.05683902	0	0	0	0
10.79364	0.01344579	0.05683902	0	0	0	0
10.82789	0.01344579	0.05683902	0	0	0	0
10.84515	0.01344579	0.05683902	0	0	0	0
10.86103	0.01344579	0.05683902	0	0	0	0
10.87759	0.01344579	0.05683902	0	0	0	0
10.89416	0.01344579	0.05683902	0	0	0	0
10.91073	0.01344579	0.05683902	0	0	0	0
10.92736	0.01344579	0.05683902	0	0	0	0
10.94386	0.01344579	0.05683902	0	0	0	0
11.02974	0.01344579	0.05683902	0	0	0	0
11.04631	0.01344579	0.05683902	0	0	0	0
11.06352	0.01344579	0.05683902	0	0	0	0
11.07976	0.01344579	0.05683902	0	0	0	0
11.09601	0.01344579	0.05683902	0	0	0	0
11.11258	0.01344579	0.05683902	0	0	0	0
11.12914	0.01344579	0.05683902	0	0	0	0
11.14571	0.01344579	0.05683902	0	0	0	0
11.16244	0.01344579	0.05683902	0	0	0	0
11.17946	0.01344579	0.05683902	0	0	0	0
11.19541	0.01344579	0.05683902	0	0	0	0
11.21229	0.01344579	0.05683902	0	0	0	0
11.22855	0.01344579	0.05683902	0	0	0	0
11.24511	0.01344579	0.05683902	0	0	0	0
11.26168	0.01344579	0.05683902	0	0	0	0
11.29591	0.01344579	0.05683902	0	0	0	0
11.31441	0.01344579	0.05683902	0	0	0	0
11.33098	0.01344579	0.05683902	0	0	0	0
11.34762	0.01344579	0.05683902	0	0	0	0
11.36457	0.01344579	0.05683902	0	0	0	0
11.38114	0.01344579	0.05683902	0	0	0	0
11.39725	0.01344579	0.05683902	0	0	0	0
11.41382	0.01344579	0.05683902	0	0	0	0
11.45187	0.01344579	0.05683902	0	0	0	0
11.46844	0.01344579	0.05683902	0	0	0	0
11.48518	0.01344579	0.05683902	0	0	0	0
11.50163	0.01344579	0.05683902	0	0	0	0
11.51815	0.01344579	0.05683902	0	0	0	0
11.53471	0.01344579	0.05683902	0	0	0	0
11.55128	0.01344579	0.05683902	0	0	0	0
11.56785	0.01344579	0.05683902	0	0	0	0
11.58443	0.01344579	0.05683902	0	0	0	0
11.61743	0.01344579	0.05683902	0	0	0	0
11.63412	0.01344579	0.05683902	0	0	0	0
11.65056	0.01344579	0.05683902	0	0	0	0
11.66713	0.01344579	0.05683902	0	0	0	0
11.6837	0.01344579	0.05683902	0	0	0	0
11.70026	0.01344579	0.05683902	0	0	0	0
11.71684	0.01344579	0.05683902	0	0	0	0
11.73346	0.01344579	0.05683902	0	0	0	0
11.74997	0.01344579	0.05683902	0	0	0	0
11.78239	0.01344579	0.05683902	0	0	0	0
11.79896	0.01344579	0.05683902	0	0	0	0
11.81552	0.01344579	0.05683902	0	0	0	0
11.83213	0.01344579	0.05683902	0	0	0	0
11.84866	0.01344579	0.05683902	0	0	0	0
11.86522	0.01344579	0.05683902	0	0	0	0
11.88196	0.01344579	0.05683902	0	0	0	0
11.89836	0.01344579	0.05683902	0	0	0	0
11.91492	0.01344579	0.05683902	0	0	0	0
11.93191	0.01344579	0.05683902	0	0	0	0
11.94848	0.01344579	0.05683902	0	0	0	0
11.96504	0.01344579	0.05683902	0	0	0	0
11.98161	0.01344579	0.05683902	0	0	0	0
11.99817	0.01344579	0.05683902	0	0	0	0
12.01474	0.01344579	0.05683902	0	0	0	0
12.03196	0.01344579	0.05683902	0	0	0	0
12.04788	0.01344579	0.05561667	5.850482E-08	-0.07678664	1.765679E-06	-2.317425
12.06445	0.01344579	0.05561667	0	0	-1.800821E-06	2.363548
12.08101	0.01344579	0.05561667	0	0	0	0
12.13089	0.01344579	0.05561667	0	0	0	0
12.14745	0.01344579	0.05561667	0	0	0	0
12.16422	0.01344579	0.05561667	0	0	0	0
12.18059	0.01344579	0.05561667	0	0	0	0
12.19728	0.01344579	0.05561667	0	0	0	0
12.21387	0.01344579	0.05561667	0	0	0	0
12.23033	0.01344579	0.05561667	0	0	0	0
12.2906	0.01344579	0.05561667	0	0	0	0
12.30717	0.01344579	0.05561667	0	0	0	0
12.32373	0.01344579	0.05561667	0	0	0	0
12.3403	0.01344579	0.05561667	0	0	0	0
12.35687	0.01344579	0.05561667	0	0	0	0
12.37344	0.01344579	0.05561667	0	0	0	0
12.39033	0.01344579	0.05561667	0	0	0	0
12.42478	0.01344579	0.05561667	0	0	0	0
12.44135	0.01344579	0.05561667	0	0	0	0
12.45797	0.01344579	0.05561667	0	0	0	0
12.47449	0.01344579	0.05561667	0	0	0	0
12.49106	0.01344579	0.05561667	0	0	0	0
12.50762	0.01344579	0.05561667	0	0	0	0
12.52419	0.01344579	0.05561667	0	0	0	0
12.54076	0.01344579	0.05561667	0	0	0	0
12.5769	0.01344579	0.05561667	0	0	0	0
12.59362	0.01344579	0.05561667	0	0	0	0
12.61004	0.01344579	0.05561667	0	0	0	0
12.62676	0.01344579	0.05561667	0	0	0	0
12.64323	0.01344579	0.05561667	0	0	0	0
12.65974	0.01344579	0.05561667	0	0	0	0
12.67631	0.01344579	0.05561667	0	0	0	0
12.69288	0.01344579	0.05561667	0	0	0	0
12.70945	0.01344579	0.05561667	0	0	0	0
12.75959	0.01344579	0.05561667	0	0	0	0
12.77617	0.01344579	0.05561667	0	0	0	0
12.79273	0.01344579	0.05561667	0	0	0	0
12.80959	0.01344579	0.05561667	0	0	0	0
12.82587	0.01344579	0.05561667	0	0	0	0
12.84243	0.01344579	0.05561667	0	0	0	0
12.8592	0.01344579	0.05561667	0	0	0	0
12.9082	0.01344579	0.05561667	0	0	0	0
12.92477	0.01344579	0.05561667	0	0	0	0
12.94138	0.01466813	0.05439433	0.07356909	-0.0735692	2.217129	-2.217132
12.9579	0.01589048	0.05317198	0.07398959	-0.07398942	0.01269045	-0.01268191
12.97461	0.01711282	0.0507273	0.0731534	-0.1463068	-0.02516394	-2.176279
12.99105	0.01711282	0.0507273	0	0	-2.206567	4.413135
13.00766	0.01833517	0.04950495	0.0736198	-0.07361991	2.227749	-2.227752
13.02419	0.01955751	0.04950495	0.07391699	0	0.00896785	2.22147
13.05478	0.01955751	0.04950495	0	0	-1.56844	0
13.07135	0.01955751	0.04950495	0	0	0	0
13.08792	0.02077986	0.04828261	0.0737767	-0.07377648	2.226521	-2.226514
13.10449	0.02077986	0.04828261	0	0	-2.226585	2.226578
13.12105	0.0220022	0.04706027	0.07377659	-0.07377648	2.226582	-2.226578
13.13762	0.02322455	0.04461557	0.07377659	-0.1475534	0	-2.226464
13.15429	0.02566924	0.04339323	0.1467088	-0.07335424	2.194656	2.23278
13.17075	0.02689158	0.04217089	0.07423368	-0.0742339	-2.187619	-0.02655202
13.18732	0.02933627	0.04094854	0.1475618	-0.07378095	2.219819	0.01371214
13.2302	0.03055861	0.0397262	0.02850612	-0.02850608	-2.00271	0.7615969
13.24677	0.04033737	0.03483682	0.5901787	-0.2950896	9.447944	-4.484224
13.26334	0.04278206	0.03361448	0.1475704	-0.07378497	-13.35756	6.678794
13.2799	0.04644909	0.03116978	0.2213681	-0.1475789	2.227412	-2.227297
13.29674	0.0550055	0.02994744	0.5079857	-0.07256951	8.579021	2.245177
13.31304	0.06356192	0.0287251	0.5252037	-0.07502879	0.5196269	-0.07421909
13.3296	0.07578535	0.02750275	0.7378931	-0.07378945	6.473196	0.03771941
13.34617	0.09167584	0.02505806	0.9592069	-0.1475703	6.67984	-2.226902
13.36273	0.110011	0.02505806	1.10684	1.124424E-07	4.455976	4.454068
13.3793	0.1564601	0.02994744	2.803672	0.2951235	51.21343	8.907352
13.39587	0.1833517	0.03361447	1.622993	0.2213169	-35.63092	-2.227358
13.41244	0.1833517	0.03361447	0	0	-48.98061	-6.679166
13.42904	0.2065762	0.03850385	1.399097	0.2945471	42.18477	8.881013
13.44557	0.2298008	0.04583792	1.404423	0.4435022	0.1607343	4.495215
13.46268	0.2383572	0.04828261	0.5000305	0.1428658	-26.87767	-8.934616
13.47871	0.2432466	0.05194964	0.3051721	0.2288788	-5.881008	2.595952
13.49527	0.2469136	0.05317199	0.2213549	0.07378519	-2.572024	-4.759224
13.53385	0.2481359	0.05439433	0.03168532	0.03168493	-3.439514	-0.7634562
13.55042	0.2505806	0.05439433	0.1475521	2.24846E-07	2.101082	-0.5745581
13.56699	0.2505806	0.05439433	0	0	-4.452874	-6.785476E-06
13.58355	0.2505806	0.05561668	0	0.07378497	0	2.226835
13.60012	0.2493583	0.05806137	-0.07376798	0.1475362	-2.226194	2.225688
13.61669	0.2420242	0.06784011	-0.4427107	0.5902805	-11.13407	13.36128
13.63325	0.220022	0.08739763	-1.328284	1.180698	-26.72974	17.82088
13.64982	0.1735729	0.124068	-2.80335	2.213171	-44.51886	31.16099
13.68893	0.1356802	0.1546266	-0.9689169	0.7813851	32.94753	-25.71573
13.70575	0.04889378	0.2267449	-5.160025	4.287908	-74.93854	62.69791
13.72207	0.03422565	0.2365237	-0.8989804	0.59932	128.5949	-111.3186
13.73863	0.0220022	0.2463024	-0.7378511	0.5902807	4.900127	-0.2748967
13.75524	-0.002444689	0.2646376	-1.472143	1.104108	-22.13548	15.4895
13.77238	-0.02322455	0.2805281	-1.212063	0.9268718	7.705941	-5.251351
13.78834	-0.0440044	0.2951962	-1.302484	0.9194008	-2.731894	-0.2257229
13.8049	-0.04889378	0.3000856	-0.2951916	0.2951909	30.977	-19.19616
13.84136	-0.05133847	0.3025303	-0.06705664	0.06705736	4.30277	-4.302743
13.85794	-0.05133847	0.3025303	0	0	1.264253	-1.264267
13.87449	-0.05133847	0.3025303	0	0	0	0
13.89106	-0.05133847	0.3025303	0	0	0	0
13.90763	-0.05133847	0.3025303	0	0	0	0
13.9242	-0.01833517	0.2658599	1.992313	-2.213682	60.12811	-66.80905
13.94076	0.03422564	0.2230779	3.172212	-2.582033	35.60942	-11.11687
13.95768	0.1075663	0.1692947	4.335754	-3.179552	34.74874	-17.84466
13.99661	0.1919081	0.1228456	2.166342	-1.193058	-38.84485	35.56958
14.01337	0.4058184	0.03850385	12.76615	-5.03351	190.3398	-68.96266
14.02975	0.4253759	0.03605916	1.193964	-0.1492455	-349.229	147.3989
14.04632	0.4473781	0.03239213	1.327369	-0.221228	4.047946	-2.184191
14.06288	0.4547122	0.02994744	0.4429138	-0.1476382	-26.69291	2.220946
14.07945	0.4547122	0.02994744	0	0	-13.37063	4.456883
14.09602	0.4547122	0.02994744	0	0	0	0
14.11258	0.4547122	0.02994744	0	0	0	0
14.16296	0.4547122	0.02994744	0	0	0	0
14.17953	0.4559345	0.02628041	0.07377648	-0.2213299	1.101982	-3.305953
14.1961	0.4559345	0.02628041	0	0	-2.226578	6.679749
14.21267	0.4559345	0.02383572	0	-0.1475617	0	-4.453548
14.22924	0.4571568	0.02139103	0.07377223	-0.1475448	2.226322	0.0005090514
14.2458	0.4571568	0.01772399	0	-0.2213426	-2.226322	-2.227094
14.26237	0.4571568	0.01650165	0	-0.07378508	0	4.453424
14.29153	0.4571568	0.01650165	0	0	0	1.613709
14.30833	0.4571568	0.01650165	0	0	0	0
14.32466	0.4571568	0.01650165	0	0	0	0
14.34123	0.4571568	0.01650165	0	0	0	0
14.35782	0.4571568	0.01650165	0	0	0	0
14.37436	0.4571568	0.01650165	0	0	0	0
14.39107	0.4571568	0.01650165	0	0	0	0
14.4075	0.4571568	0.01650165	0	0	0	0
14.42406	0.4571568	0.01650165	0	0	0	0
14.49074	0.4571568	0.01650165	0	0	0	0
14.50807	0.4571568	0.01650165	0	0	0	0
14.52387	0.4571568	0.01650165	0	0	0	0
14.54044	0.4571568	0.01650165	0	0	0	0
14.55705	0.4571568	0.01650165	0	0	0	0
14.57357	0.4522675	0.01894634	-0.2959577	0.1479792	-8.93202	4.466021
14.63609	0.440044	0.02505806	-0.1955364	0.09776817	1.270626	-0.635318
14.65325	0.3214766	0.05439433	-6.908587	1.709341	-84.25572	20.22691
14.66937	0.3068085	0.05561668	-0.9100441	0.07583709	180.2427	-49.08311
14.686	0.2933627	0.05683902	-0.8084253	0.07349327	3.102853	-0.07156669
14.70236	0.2628041	0.06050605	-1.867854	0.2241422	-32.11132	4.566177
14.71893	0.2187997	0.06417309	-2.656111	0.2213426	-23.93918	-0.08502359
14.73549	0.1906857	0.06661777	-1.69735	0.1475954	28.93881	-2.225951
14.78403	0.1613495	0.06784012	-0.6043358	0.02518077	16.78813	-1.880225
14.8006	0.0794524	0.06906246	-4.942749	0.07377223	-66.62988	0.7462737
14.81717	0.06967364	0.06784012	-0.5903151	-0.07378922	131.3567	-4.453413
14.83374	0.0550055	0.06784012	-0.8851665	0	-8.89812	2.226835
14.8503	0.04033737	0.06661778	-0.8855232	-0.07379347	-0.01076594	-2.227027
14.86687	0.02689158	0.06539543	-0.811683	-0.07378967	2.228822	0.0001146946
14.88344	0.004889378	0.06417308	-1.32775	-0.07376419	-15.57403	0.0007689734
14.9	-0.001222344	0.06417309	-0.3689255	4.497438E-07	28.93487	2.226029
14.94244	-0.02077986	0.0617284	-0.460916	-0.05761458	-1.559211	-0.9765572
14.959	-0.03667034	0.06050606	-0.9591514	-0.0737805	-8.444802	-0.2740031
14.97594	-0.03667034	0.06050606	0	0	28.62429	2.201857
14.99214	-0.0440044	0.06050605	-0.4528782	-2.300365E-07	-13.6675	-6.942316E-06
15.0087	-0.05011613	0.06050605	-0.3689468	0	2.562035	7.021943E-06
15.02528	-0.05622785	0.06050605	-0.3687981	0	0.0044851	0
15.04184	-0.06111722	0.06050605	-0.2951403	-2.248719E-07	2.222741	-6.785866E-06
15.05841	-0.06356192	0.06050606	-0.1475704	4.497438E-07	4.453926	2.036112E-05
15.09707	-0.0660066	0.06050605	-0.06323542	-9.63602E-08	1.527079	-9.888473E-06
15.11364	-0.0660066	0.06050605	0	0	1.144825	1.744522E-06
15.13021	-0.0660066	0.06050605	0	0	0	0
15.14677	-0.0660066	0.06050605	0	0	0	0
15.16336	-0.0660066	0.06050605	0	0	0	0
15.17995	-0.0660066	0.06050605	0	0	0	0
15.19647	-0.0660066	0.06050605	0	0	0	0
15.21304	-0.0660066	0.06050605	0	0	0	0
15.24868	-0.0660066	0.06050605	0	0	0	0
15.26525	-0.0660066	0.06050605	0	0	0	0
15.28181	-0.0660066	0.06050605	0	0	0	0
15.29875	-0.0660066	0.06050605	0	0	0	0
15.31495	-0.0660066	0.06050605	0	0	0	0
15.33152	-0.0660066	0.06050605	0	0	0	0
15.34808	-0.0660066	0.06050605	0	0	0	0
15.36465	-0.0660066	0.06050605	0	0	0	0
15.39798	-0.0660066	0.06050605	0	0	0	0
15.41455	-0.0660066	0.06050605	0	0	0	0
15.43113	-0.0660066	0.06050605	0	0	0	0
15.44813	-0.0660066	0.06050605	0	0	0	0
15.46425	-0.0660066	0.06050605	0	0	0	0
15.48082	-0.0660066	0.06050605	0	0	0	0
15.49738	-0.0660066	0.06050605	0	0	0	0
15.51395	-0.0660066	0.06050605	0	0	0	0
15.54825	-0.0660066	0.06050605	0	0	0	0
15.57742	-0.0660066	0.06050605	0	0	0	0
15.59399	-0.0660066	0.06050605	0	0	0	0
15.61069	-0.0660066	0.06050605	0	0	0	0
15.62745	-0.0660066	0.06050605	0	0	0	0
15.64369	-0.0660066	0.06050605	0	0	0	0
15.66033	-0.0660066	0.06050605	0	0	0	0
15.67684	-0.0660066	0.06050605	0	0	0	0
15.69339	-0.0660066	0.06050605	0	0	0	0
15.70996	-0.0660066	0.06050605	0	0	0	0
15.75796	-0.0660066	0.06050605	0	0	0	0
15.77453	-0.0660066	0.06050605	0	0	0	0
15.79116	-0.0660066	0.06050605	0	0	0	0
15.80773	-0.0660066	0.06050605	0	0	0	0
15.82423	-0.0660066	0.06050605	0	0	0	0
15.84083	-0.0660066	0.06050605	0	0	0	0
15.85736	-0.0660066	0.06050605	0	0	0	0
15.87428	-0.0660066	0.06050605	0	0	0	0
15.91432	-0.0660066	0.06050605	0	0	0	0
15.93089	-0.0660066	0.06050605	0	0	0	0
15.94745	-0.0660066	0.06050605	0	0	0	0
15.96467	-0.0660066	0.06050605	0	0	0	0
15.98135	-0.0660066	0.06050605	0	0	0	0
15.99726	-0.0660066	0.06050605	0	0	0	0
16.01372	-0.0660066	0.06050605	0	0	0	0
16.03029	-0.0660066	0.06050605	0	0	0	0
16.05838	-0.0660066	0.06050605	0	0	0	0
16.07497	-0.0660066	0.06050605	0	0	0	0
16.09171	-0.0660066	0.06050605	0	0	0	0
16.10808	-0.0660066	0.06050605	0	0	0	0
16.12466	-0.0660066	0.06050605	0	0	0	0
16.14126	-0.0660066	0.06050605	0	0	0	0
16.15779	-0.0660066	0.06050605	0	0	0	0
16.17435	-0.0660066	0.06050605	0	0	0	0
16.19121	-0.0660066	0.06050605	0	0	0	0
16.2304	-0.0660066	0.06050605	0	0	0	0
16.24723	-0.0660066	0.06050605	0	0	0	0
16.26353	-0.0660066	0.06050605	0	0	0	0
16.2801	-0.0660066	0.06050605	0	0	0	0
16.29677	-0.0660066	0.06050605	0	0	0	0
16.31328	-0.0660066	0.06050605	0	0	0	0
16.33064	-0.0660066	0.06050605	0	0	0	0
16.34637	-0.0660066	0.06050605	0	0	0	0
16.36293	-0.0660066	0.06050605	0	0	0	0
16.37989	-0.0660066	0.06050605	0	0	0	0
16.44201	-0.0660066	0.06050605	0	0	0	0
16.45976	-0.0660066	0.06050605	0	0	0	0
16.47863	-0.0660066	0.06050605	0	0	0	0
16.4952	-0.0660066	0.06050605	0	0	0	0
16.51177	-0.0660066	0.06050605	0	0	0	0
16.55487	-0.0660066	0.06050605	0	0	0	0
16.57144	-0.0660066	0.06050605	0	0	0	0
16.58801	-0.0660066	0.06050605	0	0	0	0
16.60457	-0.0660066	0.06050605	0	0	0	0
16.62114	-0.0660066	0.06050605	0	0	0	0
16.63771	-0.0660066	0.06050605	0	0	0	0
16.65428	-0.0660066	0.06050605	0	0	0	0
16.67085	-0.0660066	0.06050605	0	0	0	0
16.72441	-0.0660066	0.06050605	0	0	0	0
16.74146	-0.0660066	0.06050605	0	0	0	0
16.75754	-0.0660066	0.06050605	0	0	0	0
16.77411	-0.0660066	0.06050605	0	0	0	0
16.79076	-0.0660066	0.06050605	0	0	0	0
16.80725	-0.0660066	0.06050605	0	0	0	0
16.82381	-0.0660066	0.06050605	0	0	0	0
16.85525	-0.0660066	0.06050605	0	0	0	0
16.87186	-0.0660066	0.06050605	0	0	0	0
16.88852	-0.0660066	0.06050605	0	0	0	0
16.90495	-0.0660066	0.06050605	0	0	0	0
16.92152	-0.0660066	0.06050605	0	0	0	0
16.93809	-0.0660066	0.06050605	0	0	0	0
16.95465	-0.0660066	0.06050605	0	0	0	0
16.97122	-0.0660066	0.06050605	0	0	0	0
16.98779	-0.0660066	0.06050605	0	0	0	0
17.01847	-0.0660066	0.06050605	0	0	0	0
17.03525	-0.0660066	0.06050605	0	0	0	0
17.05161	-0.0660066	0.06050605	0	0	0	0
17.06822	-0.0660066	0.06050605	0	0	0	0
17.08474	-0.0660066	0.06050605	0	0	0	0
17.10131	-0.0660066	0.06050605	0	0	0	0
17.11788	-0.0660066	0.06050605	0	0	0	0
17.13445	-0.0660066	0.06050605	0	0	0	0
17.15102	-0.0660066	0.06050605	0	0	0	0
17.1984	-0.0660066	0.06050605	0	0	0	0
17.21497	-0.0660066	0.06050605	0	0	0	0
17.23153	-0.0660066	0.06050605	0	0	0	0
17.2481	-0.0660066	0.06050605	0	0	0	0
17.26467	-0.0660066	0.06050605	0	0	0	0
17.28124	-0.0660066	0.06050605	0	0	0	0
17.29781	-0.0660066	0.06050605	0	0	0	0
17.31437	-0.0660066	0.06050605	0	0	0	0
17.3534	-0.0660066	0.06050605	0	0	0	0
17.36997	-0.06356192	0.05683902	0.1475614	-0.2213426	2.654294	-3.981449
17.38658	-0.05622784	0.05072729	0.441415	-0.3678458	8.855773	-4.415121
17.4031	-0.03911503	0.03605916	1.035913	-0.8879257	17.94199	-15.69604
17.41968	-0.01955751	0.02139103	1.180086	-0.8850647	4.356671	0.08645353
17.43624	0.004889378	0.004278206	1.475957	-1.03317	8.928881	-4.469568
17.45304	0.01466813	-0.004278206	0.5821373	-0.5093703	-26.792	15.70076
17.46937	0.0220022	-0.01038993	0.4489391	-0.3741159	-4.019932	4.081985
17.49814	0.02566924	-0.01527931	0.1274753	-0.169967	-7.127313	4.526273
17.51471	0.02933627	-0.02016868	0.221317	-0.2950894	2.069926	-2.759904
17.53149	0.03055861	-0.02139103	0.07284988	-0.07284977	-4.452044	6.664241
17.54784	0.0330033	-0.02505806	0.1494892	-0.2242341	2.313114	-4.56905
17.56462	0.03544799	-0.02994744	0.1457163	-0.2914326	-0.1138803	-2.02829
17.58098	0.03911503	-0.03239213	0.2241819	-0.1494545	2.368096	4.284908
17.59754	0.04155971	-0.03728151	0.1475614	-0.2951233	-2.327146	-4.424309
17.61411	0.04278206	-0.03728151	0.07378095	0	-2.2267	8.90684
17.63068	0.04278205	-0.03850385	-2.24859E-07	-0.07378095	-2.22672	-2.226713
17.65693	0.04278205	-0.03850385	0	0	5.251497E-06	1.723126
17.67647	0.04278205	-0.03850385	0	0	0	0
17.6932	0.04278205	-0.03850385	0	0	0	0
17.70961	0.04278205	-0.03850385	0	0	0	0
17.72618	0.0440044	-0.03850385	0.07378118	0	2.237281	0
17.7428	0.05133847	-0.02750275	0.4411613	0.6617423	11.06844	19.93699
17.75931	0.06356191	-0.003055861	0.7403654	1.480731	9.029998	24.71713
17.77588	0.08923115	0.04217089	1.549577	2.730206	24.4657	37.77663
17.79244	0.1026769	0.07028481	0.8115898	1.69696	-22.27377	-31.18523
17.82836	0.1173451	0.09595405	0.4084298	0.7147525	-7.682063	-18.71559
17.84492	0.1527931	0.16685	2.139645	4.27929	32.98766	67.92093
17.86149	0.1527931	0.16685	0	0	-64.57462	-129.1492
17.87807	0.1601271	0.1851852	0.4424815	1.106203	13.35104	33.37759
17.89463	0.1662389	0.2010757	0.3689895	0.9593721	-2.217737	-4.430861
17.91139	0.1711282	0.2157438	0.2917307	0.8751929	-2.318464	-2.526136
17.92792	0.17724	0.2316343	0.3697986	0.9614767	2.345294	2.592112
17.94433	0.180907	0.241413	0.2234517	0.595872	-4.443102	-11.09978
17.9781	0.1833517	0.2487471	0.07238486	0.2171546	-3.010243	-7.546539
17.99467	0.188241	0.2609705	0.2951238	0.7378082	4.424633	10.34261
18.01123	0.1906857	0.2634152	0.1475624	0.1475632	-4.453413	-17.81363
18.02791	0.1931304	0.269527	0.1465827	0.3664566	-0.02946877	6.584232
18.04437	0.1967975	0.276861	0.2227785	0.4455587	2.299329	2.387031
18.06098	0.1992421	0.2817504	0.1472225	0.2944449	-2.28502	-4.570095
18.0775	0.2029092	0.2903068	0.2219051	0.5177765	2.254186	6.740936
18.09432	0.2065762	0.2964185	0.2180297	0.3633831	-0.116224	-4.630281
18.12948	0.2090209	0.3025303	0.06953727	0.1738442	-2.856984	-3.646715
18.14605	0.216355	0.3135314	0.4426861	0.6640283	7.214303	9.477014
18.16271	0.2175773	0.3147537	0.07336595	0.07336684	-11.11475	-17.77606
18.17918	0.2187997	0.3171984	0.0742088	0.1484158	0.02543863	2.265112
18.19585	0.2187997	0.3184207	0	0.0733081	-2.238853	-2.265972
18.21299	0.2187997	0.3196431	0	0.0713096	0	-0.05910029
18.22888	0.2187997	0.3196431	0	0	0	-2.158839
18.24545	0.2187997	0.3196431	0	0	0	0
18.26202	0.2187997	0.3196431	0	0	0	0
18.29258	0.2187997	0.3196431	0	0	0	0
18.30956	0.2187997	0.3208654	-8.779076E-07	0.07201476	-1.846794E-05	1.514925
18.32572	0.2187997	0.3208654	0	0	2.649378E-05	-2.173285
18.34229	0.2187997	0.3208654	0	0	0	0
18.35923	0.2187997	0.3208654	0	0	0	0
18.37542	0.2187997	0.3208654	0	0	0	0
18.39199	0.2187997	0.3208654	0	0	0	0
18.42686	0.2187997	0.3208654	0	0	0	0
18.45617	0.2187997	0.3208654	0	0	0	0
18.47274	0.2187997	0.3208654	0	0	0	0
18.48948	0.2187997	0.3208654	0	0	0	0
18.50587	0.2187997	0.3208654	0	0	0	0
18.52244	0.2187997	0.3208654	0	0	0	0
18.53905	0.2187997	0.3208654	0	0	0	0
18.55572	0.2187997	0.3208654	0	0	0	0
18.57214	0.2187997	0.3208654	0	0	0	0
18.58871	0.2187997	0.3208654	0	0	0	0
18.61829	0.2187997	0.3208654	0	0	0	0
18.63514	0.2187997	0.3208654	0	0	0	0
18.65143	0.2187997	0.3208654	0	0	0	0
18.66799	0.2187997	0.3208654	0	0	0	0
18.68456	0.2187997	0.3208654	0	0	0	0
18.70113	0.2187997	0.3208654	0	0	0	0
18.71769	0.2187997	0.3208654	0	0	0	0
18.73426	0.2187997	0.3208654	0	0	0	0
18.75161	0.2187997	0.3208654	0	0	0	0
18.79276	0.2187997	0.3208654	0	0	0	0
18.80933	0.2285784	0.2096321	0.5901117	-6.712512	10.22501	-116.3094
18.82589	0.2285784	0.2096321	0	0	-17.80858	202.5724
18.84246	0.2408019	0.1460702	0.7378091	-3.836606	22.2684	-115.7957
18.85938	0.2505806	0.1069551	0.5778732	-2.311489	-4.775742	45.54053
18.87559	0.259137	0.06784013	0.5278286	-2.412935	-1.510434	-3.061834
18.89216	0.2701381	0.02750275	0.6640283	-2.434769	4.155244	-0.6661187
18.90873	0.2799169	-0.00550055	0.5901778	-1.991854	-2.228685	13.36643
18.93531	0.2884733	-0.03239213	0.321855	-1.011546	-6.217831	22.71662
18.95233	0.2970297	-0.0947317	0.5027492	-3.662881	4.148578	-60.805
18.96849	0.2994744	-0.1106222	0.1512531	-0.983147	-10.59293	80.75832
18.98522	0.3019191	-0.1216233	0.1461481	-0.6576678	-0.1552134	9.895897
19.00159	0.3031414	-0.1595159	0.07470276	-2.315733	-2.159083	-50.10684
19.01821	0.3031414	-0.1851852	0	-1.544066	-2.264571	23.39264
19.03472	0.2994744	-0.2120768	-0.2221111	-1.628804	-6.703327	-2.557409
19.05129	0.2958074	-0.237746	-0.2213422	-1.549397	0.02324649	2.40066
19.06785	0.2933627	-0.2597482	-0.1475614	-1.328058	2.226707	6.680038
19.10136	0.2921404	-0.2744163	-0.03647582	-0.4377206	2.218277	17.7792
19.121	0.2848063	-0.3000856	-0.3734264	-1.30699	-6.339595	-16.35497
19.13757	0.2799169	-0.312309	-0.2950907	-0.7377241	2.163425	15.72163
19.15414	0.2774722	-0.3159761	-0.1475597	-0.221344	4.45224	15.58349
19.17071	0.2738052	-0.3220878	-0.221344	-0.3689036	-2.226815	-4.453359
19.18727	0.2664711	-0.3269771	-0.4427371	-0.2951551	-6.682043	2.225864
19.20384	0.259137	-0.3318665	-0.4427353	-0.2951587	5.487191E-05	-0.0001088443
19.22041	0.2542476	-0.3355336	-0.2950907	-0.2213167	4.455922	2.228556
19.23697	0.251803	-0.3367559	-0.1475597	-0.07378072	4.45224	4.452388
19.26321	0.2505806	-0.3367559	-0.04659892	0	2.358951	1.723889
19.27984	0.2493583	-0.3379782	-0.07346867	-0.07346777	-0.6267791	-1.713751
19.29637	0.2493583	-0.3379782	0	0	2.215631	2.215604
19.31295	0.2493583	-0.3379782	0	0	0	0
19.32947	0.2493583	-0.3379782	0	0	0	0
19.34604	0.2493583	-0.3379782	0	0	0	0
19.36277	0.2493583	-0.3379782	0	0	0	0
19.37918	0.2493583	-0.3379782	0	0	0	0
19.39584	0.2493583	-0.3379782	0	0	0	0
19.44121	0.2493583	-0.3379782	0	0	0	0
19.4578	0.2493583	-0.3379782	0	0	0	0
19.47435	0.2493583	-0.3379782	0	0	0	0
19.49092	0.2493583	-0.3379782	0	0	0	0
19.50748	0.2493583	-0.3379782	0	0	0	0
19.52408	0.2493583	-0.3379782	0	0	0	0
19.54069	0.2493583	-0.3379782	0	0	0	0
19.55726	0.2456912	-0.3306442	-0.2211885	0.4423788	-6.66474	13.32953
19.62942	0.2408019	-0.3220878	-0.06775845	0.1185777	1.729033	-3.648977
19.64599	0.1637942	-0.2389684	-4.648195	5.017097	-51.62449	55.2095
19.66273	0.1515707	-0.2267449	-0.7299922	0.7299931	117.6219	-128.6961
19.67912	0.1246791	-0.202298	-1.640747	1.491587	-27.48663	22.98494
19.69584	0.09900991	-0.1790735	-1.535958	1.389678	3.165622	-3.078616
19.71226	0.07823005	-0.1607383	-1.265493	1.116611	8.163131	-8.24165
19.73979	0.05867253	-0.1411808	-0.7104395	0.7104395	12.62945	-9.241861
19.75682	0.0330033	-0.1106222	-1.506894	1.793921	-17.87243	24.31332
19.77317	0.02933627	-0.1057328	-0.2242864	0.2990478	38.41945	-44.77771
19.78949	0.02566923	-0.09717639	-0.2246794	0.5242524	-0.01203049	6.893109
19.80606	0.0220022	-0.08984232	-0.2213426	0.4426852	0.1014587	-2.480117
19.82262	0.01955751	-0.08006356	-0.1475787	0.5903151	2.226329	4.455734
19.83919	0.01589048	-0.07028481	-0.2213426	0.5902467	-2.226329	-0.002065224
19.85576	0.01344579	-0.05928371	-0.1475446	0.663951	2.227099	2.224272
19.87232	0.008556412	-0.04706026	-0.2951914	0.7379788	-4.456246	2.234291
19.90473	-0.004889378	-0.02261337	-0.4149674	0.7544861	-2.446132	0.3371231
19.9213	-0.04278206	0.01527931	-2.28668	2.28668	-38.21922	31.28646
19.93786	-0.05256081	0.02261337	-0.5903829	0.4427871	51.19436	-55.6488
19.95443	-0.07456302	0.03728151	-1.328056	0.8853704	-22.26558	13.35873
19.971	-0.09167583	0.04706026	-1.032813	0.5901787	8.909943	-8.908389
19.98756	-0.1014546	0.05439433	-0.5903826	0.442787	13.35333	-4.448547
20.00413	-0.1075663	0.05928371	-0.3689474	0.2951578	6.684082	-4.456228
20.02098	-0.110011	0.06050605	-0.14504	0.07251979	6.69969	-6.661707
20.03726	-0.110011	0.0617284	-4.576743E-07	0.0750865	4.377303	0.07746324
20.06031	-0.110011	0.0617284	0	0	1.163804E-05	-1.909349
20.07688	-0.110011	0.0617284	0	0	0	0
20.09376	-0.110011	0.0617284	0	0	0	0
20.11001	-0.110011	0.0617284	0	0	0	0
20.12658	-0.110011	0.0617284	0	0	0	0
20.1433	-0.110011	0.0617284	0	0	0	0
20.15972	-0.110011	0.0617284	0	0	0	0
20.17628	-0.110011	0.0617284	0	0	0	0
20.19285	-0.110011	0.0617284	0	0	0	0
20.23782	-0.110011	0.0617284	0	0	0	0
20.25448	-0.110011	0.0617284	0	0	0	0
20.27095	-0.110011	0.0617284	0	0	0	0
20.28752	-0.110011	0.0617284	0	0	0	0
20.30409	-0.110011	0.0617284	0	0	0	0
20.32066	-0.110011	0.0617284	0	0	0	0
20.33722	-0.110011	0.0617284	0	0	0	0
20.35379	-0.110011	0.0617284	0	0	0	0
20.37452	-0.110011	0.0617284	0	0	0	0
20.39109	-0.110011	0.0617284	0	0	0	0
20.40766	-0.110011	0.0617284	0	0	0	0
20.42458	-0.110011	0.0617284	0	0	0	0
20.44079	-0.110011	0.0617284	0	0	0	0
20.45754	-0.110011	0.0617284	0	0	0	0
20.4787	-0.110011	0.0617284	0	0	0	0
20.49527	-0.110011	0.0617284	0	0	0	0
20.51229	-0.110011	0.0617284	0	0	0	0
20.54719	-0.110011	0.0617284	0	0	0	0
20.56376	-0.110011	0.0617284	0	0	0	0
20.58033	-0.110011	0.0617284	0	0	0	0
20.597	-0.110011	0.0617284	0	0	0	0
20.61346	-0.110011	0.0617284	0	0	0	0
20.63003	-0.110011	0.0617284	0	0	0	0
20.6466	-0.110011	0.0617284	0	0	0	0
20.66316	-0.110011	0.0617284	0	0	0	0
20.67973	-0.110011	0.0617284	0	0	0	0
20.70378	-0.110011	0.0617284	0	0	0	0
20.72035	-0.110011	0.0617284	0	0	0	0
20.73692	-0.110011	0.0617284	0	0	0	0
20.75349	-0.110011	0.0617284	0	0	0	0
20.77006	-0.110011	0.0617284	0	0	0	0
20.78662	-0.110011	0.0617284	0	0	0	0
20.80319	-0.110011	0.0617284	0	0	0	0
20.81975	-0.110011	0.0617284	0	0	0	0
20.83632	-0.110011	0.0617284	0	0	0	0
20.86595	-0.110011	0.0617284	0	0	0	0
20.88252	-0.110011	0.0617284	0	0	0	0
20.89909	-0.110011	0.0617284	0	0	0	0
20.91566	-0.110011	0.0617284	0	0	0	0
20.93222	-0.110011	0.0617284	0	0	0	0
20.94879	-0.110011	0.0617284	0	0	0	0
20.96546	-0.110011	0.0617284	0	0	0	0
20.98255	-0.110011	0.0617284	0	0	0	0
20.99849	-0.110011	0.0617284	0	0	0	0
21.02789	-0.110011	0.0617284	0	0	0	0
21.04488	-0.110011	0.0617284	0	0	0	0
21.06102	-0.110011	0.0617284	0	0	0	0
21.07759	-0.110011	0.0617284	0	0	0	0
21.09416	-0.110011	0.0617284	0	0	0	0
21.11072	-0.110011	0.0617284	0	0	0	0
21.12729	-0.110011	0.0617284	0	0	0	0
21.14386	-0.110011	0.0617284	0	0	0	0
21.16042	-0.110011	0.0617284	0	0	0	0
21.21031	-0.110011	0.0617284	0	0	0	0
21.22705	-0.110011	0.0617284	0	0	0	0
21.24345	-0.110011	0.0617284	0	0	0	0
21.26002	-0.110011	0.0617284	0	0	0	0
21.27682	-0.110011	0.0617284	0	0	0	0
21.29319	-0.110011	0.0617284	0	0	0	0
21.30972	-0.110011	0.0617284	0	0	0	0
21.32628	-0.110011	0.0617284	0	0	0	0
21.36674	-0.110011	0.0617284	0	0	0	0
21.38331	-0.110011	0.0617284	0	0	0	0
21.40001	-0.110011	0.0617284	0	0	0	0
21.41644	-0.110011	0.0617284	0	0	0	0
21.43362	-0.110011	0.0617284	0	0	0	0
21.44958	-0.110011	0.0617284	0	0	0	0
21.46615	-0.110011	0.0617284	0	0	0	0
21.48272	-0.110011	0.0617284	0	0	0	0
21.51331	-0.110011	0.0617284	0	0	0	0
21.52988	-0.110011	0.0617284	0	0	0	0
21.54644	-0.110011	0.0617284	0	0	0	0
21.56301	-0.110011	0.0617284	0	0	0	0
21.57958	-0.110011	0.0617284	0	0	0	0
21.59619	-0.110011	0.0617284	0	0	0	0
21.61271	-0.110011	0.0617284	0	0	0	0
21.62957	-0.110011	0.0617284	0	0	0	0
21.64585	-0.110011	0.0617284	0	0	0	0
21.68666	-0.110011	0.0617284	0	0	0	0
21.7036	-0.110011	0.0617284	0	0	0	0
21.7198	-0.110011	0.0617284	0	0	0	0
21.7366	-0.110011	0.0617284	0	0	0	0
21.75312	-0.110011	0.0617284	0	0	0	0
21.76964	-0.1087887	0.06295075	0.07402834	0.0740281	2.241017	2.24101
21.78606	-0.09900991	0.06661777	0.5953185	0.2232441	15.8264	4.530207
21.80318	-0.08311942	0.07395184	0.9281631	0.4283828	9.921902	6.115066
21.81919	-0.06967364	0.07884122	0.8397219	0.3053533	-2.669314	-3.713251
21.83617	-0.06111723	0.08128591	0.5041606	0.1440462	-10.17352	-4.890501
21.85299	-0.05622785	0.08495294	0.290574	0.2179304	-6.319466	2.18604
21.8689	-0.05622785	0.08495294	0	0	-8.877881	-6.658409
21.88553	-0.05622785	0.08495294	0	0	0	0
21.90203	-0.05622785	0.08495294	0	0	0	0
21.9186	-0.05622785	0.08495294	0	0	0	0
21.93516	-0.05622785	0.08495294	0	0	0	0
21.95173	-0.05622785	0.08495294	0	0	0	0
21.9683	-0.05622785	0.08495294	0	0	0	0
21.98486	-0.05622785	0.08495294	0	0	0	0
22.02867	-0.05622785	0.08495294	0	0	0	0
22.04524	-0.05622785	0.08495294	0	0	0	0
22.06181	-0.05622785	0.08495294	0	0	0	0
22.07837	-0.05622785	0.08495294	0	0	0	0
22.09563	-0.05622785	0.08495294	0	0	0	0
22.11151	-0.05622785	0.08495294	0	0	0	0
22.12815	-0.05622785	0.08495294	0	0	0	0
22.14464	-0.05622785	0.08495294	0	0	0	0
22.19797	-0.05622785	0.08495294	0	0	0	0
22.21454	-0.05622785	0.08495294	0	0	0	0
22.23111	-0.05622785	0.08495294	0	0	0	0
22.24767	-0.05622785	0.08495294	0	0	0	0
22.26424	-0.05622785	0.08495294	0	0	0	0
22.28081	-0.05622785	0.08495294	0	0	0	0
22.29794	-0.05622785	0.08495294	0	0	0	0
22.32634	-0.05622785	0.08495294	0	0	0	0
22.3431	-0.05622785	0.08495294	0	0	0	0
22.35947	-0.05622785	0.08495294	0	0	0	0
22.37604	-0.05622785	0.08495294	0	0	0	0
22.3926	-0.05622785	0.08495294	0	0	0	0
22.40917	-0.05622785	0.08495294	0	0	0	0
22.42574	-0.05622785	0.08495294	0	0	0	0
22.44231	-0.05622785	0.08495294	0	0	0	0
22.45887	-0.05622785	0.08495294	0	0	0	0
22.49545	-0.05622785	0.08495294	0	0	0	0
22.51373	-0.05622785	0.08495294	0	0	0	0
22.53039	-0.05622785	0.08495294	0	0	0	0
22.54687	-0.05622785	0.08495294	0	0	0	0
22.56343	-0.05622785	0.08495294	0	0	0	0
22.58	-0.05622785	0.08495294	0	0	0	0
22.59657	-0.05622785	0.08495294	0	0	0	0
22.61362	-0.05622785	0.08495294	0	0	0	0
22.64756	-0.05622785	0.08495294	0	0	0	0
22.66414	-0.05622785	0.08495294	0	0	0	0
22.6807	-0.05622785	0.08495294	0	0	0	0
22.69726	-0.05256081	0.08128591	0.2213681	-0.2213681	6.682441	-6.682441
22.71383	-0.04155971	0.06906246	0.6640279	-0.7378086	13.36027	-15.5871
22.73051	-0.02689158	0.05317198	0.8791959	-0.9524623	6.471061	-6.455593
22.74711	-0.003667034	0.03116979	1.399741	-1.326071	15.64346	-11.2277
22.76353	0.0110011	0.01650165	0.892978	-0.8929781	-15.34804	13.11682
22.79883	0.0220022	0.004278206	0.3116521	-0.3462801	-11.2387	10.56924
22.81559	0.03422565	-0.01161227	0.7294941	-0.9483423	8.026877	-11.56581
22.83197	0.03544799	-0.01405696	0.07462288	-0.1492456	-19.76291	24.1154
22.84854	0.03911503	-0.02016868	0.2213426	-0.3689042	4.453132	-6.666919
22.86535	0.04155971	-0.0262804	0.145369	-0.3634231	-2.275726	0.1641817
22.88167	0.0440044	-0.03116978	0.1498215	-0.2996425	0.1343748	1.924904
22.89864	0.04767144	-0.04217089	0.2161419	-0.6484258	1.992607	-10.47925
22.9148	0.04889378	-0.04461557	0.0756087	-0.1512176	-4.241544	15.00663
22.93137	0.05256081	-0.05194965	0.2213171	-0.4426345	4.451039	-8.902079
22.9623	0.05378316	-0.05561667	0.03952762	-0.1185825	-3.827713	6.823156
22.97888	0.05500551	-0.05683902	0.07372154	-0.07372176	0.7198048	0.9443487
22.9958	0.05500551	-0.05683902	0	0	-2.200223	2.20023
23.01207	0.05500551	-0.05683902	0	0	0	0
23.02856	0.05500551	-0.05683902	0	0	0	0
23.04513	0.05500551	-0.05683902	0	0	0	0
23.0617	0.05500551	-0.05683902	0	0	0	0
23.07827	0.05500551	-0.05683902	0	0	0	0
23.09483	0.05500551	-0.05683902	0	0	0	0
23.1358	0.05500551	-0.05683902	0	0	0	0
23.15265	0.05500551	-0.05683902	0	0	0	0
23.16962	0.05500551	-0.05683902	0	0	0	0
23.1855	0.05500551	-0.05683902	0	0	0	0
23.20217	0.05500551	-0.05683902	0	0	0	0
23.21864	0.05500551	-0.05683902	0	0	0	0
23.23521	0.05500551	-0.05683902	0	0	0	0
23.25177	0.05500551	-0.05683902	0	0	0	0
23.29585	0.05500551	-0.05683902	0	0	0	0
23.31241	0.05500551	-0.05683902	0	0	0	0
23.32898	0.05500551	-0.05683902	0	0	0	0
23.34561	0.0550055	-0.05439433	-2.240079E-07	0.1470032	-6.747754E-06	4.428153
23.36211	0.05989488	-0.04339323	0.2962491	0.6665603	8.940823	15.68026
23.37868	0.07211833	-0.02505806	0.7377236	1.106586	13.34832	13.3045
23.39525	0.1002323	0.004278206	1.697351	1.771148	28.96327	20.05769
23.41201	0.1234568	0.02261337	1.385723	1.093992	-9.351636	-20.32081
23.4491	0.1479037	0.0397262	0.6590501	0.4613352	-13.4934	-11.74763
23.46567	0.2102433	0.07884122	3.761958	2.360444	57.81978	35.38811
23.48226	0.220022	0.08617529	0.5895001	0.4421249	-95.67337	-57.8517
23.4988	0.2395795	0.0947317	1.182263	0.5172401	17.89168	2.267242
23.51564	0.2530253	0.1045105	0.7985361	0.5807533	-11.49554	1.902704
23.53193	0.2640264	0.1130669	0.6751416	0.5251105	-3.724267	-1.679399
23.5485	0.2738052	0.1216233	0.5901796	0.5164061	-2.585289	-0.2648669
23.56507	0.2799169	0.1265127	0.3689461	0.2951582	-6.676841	-6.677272
23.60456	0.2848063	0.1301797	0.1237957	0.09284677	-4.372939	-3.608787
23.62141	0.2970297	0.1411808	0.7254482	0.6529036	10.67801	9.939781
23.6377	0.2982521	0.1424031	0.0750527	0.07505087	-19.62785	-17.43862
23.65427	0.2994744	0.1448478	0.07377043	0.1475445	-0.0390269	2.206404
23.67129	0.3031414	0.1472925	0.2155115	0.1436743	4.220419	-0.1152353
23.6874	0.3043638	0.1485149	0.07585217	0.07585032	-4.215412	-2.047168
23.7043	0.3055861	0.1485149	0.07234809	0	-0.1061506	-2.297765
23.72053	0.3055861	0.1485149	0	0	-2.183595	0
23.75034	0.3055861	0.1485149	0	0	0	0
23.76691	0.3055861	0.1485149	0	0	0	0
23.78348	0.3055861	0.1485149	0	0	0	0
23.80005	0.3055861	0.1485149	0	0	0	0
23.81662	0.3019191	0.1509596	-0.2213422	0.1475624	-6.679736	4.453184
23.83319	0.2738052	0.1570713	-1.69696	0.3689036	-44.53424	6.680093
23.84975	0.2371348	0.1582936	-2.213426	0.07378072	-15.58698	-8.906827
23.86632	0.184574	0.1619606	-3.172577	0.2213431	-28.94721	4.453441
23.88293	0.1344579	0.1680724	-3.01772	0.3680139	4.667934	4.42119
23.91905	0.0550055	0.1802958	-2.199711	0.3384174	15.51412	-0.5613192
23.93562	-0.04033737	0.2035204	-5.754244	1.401676	-67.46304	20.18005
23.95218	-0.05622784	0.2071874	-0.9592614	0.2213668	144.7129	-35.6218
23.96875	-0.06845129	0.2096321	-0.7378088	0.1475624	6.683837	-2.22755
23.98532	-0.1026769	0.2218555	-2.065626	0.7377241	-40.0713	17.81009
24.01299	-0.113678	0.2255225	-0.3975834	0.1325271	37.70522	-13.68016
24.02956	-0.1246791	0.2291896	-0.6639519	0.2213176	-6.021117	2.007062
24.04612	-0.1271238	0.2291896	-0.1475619	0	15.58378	-6.678994
24.06701	-0.1332355	0.2316343	-0.2925497	0.1170199	-3.870633	3.123994
24.08358	-0.141792	0.2328566	-0.516466	0.07378072	-5.977728	-1.154324
24.10015	-0.145459	0.234079	-0.2213176	0.07377313	8.907083	-0.0002291181
24.1173	-0.152793	0.2353013	-0.4277624	0.07129373	-6.123361	-0.07354141
24.13329	-0.1650165	0.237746	-0.7644768	0.152895	-10.16206	2.462731
24.15032	-0.1796846	0.2401907	-0.8608897	0.1434822	-2.919157	-0.284997
24.16642	-0.1992421	0.2426354	-1.215045	0.1518795	-10.68843	0.25343
24.18299	-0.216355	0.2438577	-1.032933	0.07378253	5.575431	-2.390966
24.19956	-0.2261337	0.2450801	-0.5901787	0.07377134	13.36158	-0.0003377187
24.23687	-0.2273561	0.2450801	-0.0327558	3.9931E-07	10.34441	-1.369008
24.25344	-0.2285784	0.2450801	-0.07376284	-1.798458E-06	-0.7609634	-4.078375E-05
24.27001	-0.2285784	0.2450801	0	0	2.226039	5.427443E-05
24.28671	-0.2285784	0.2450801	0	0	0	0
24.30317	-0.2285784	0.2450801	0	0	0	0
24.31971	-0.2285784	0.2450801	0	0	0	0
24.33635	-0.2285784	0.2450801	0	0	0	0
24.35284	-0.2285784	0.2450801	0	0	0	0
24.39806	-0.2285784	0.2450801	0	0	0	0
24.41463	-0.2285784	0.2450801	0	0	0	0
24.4312	-0.2285784	0.2450801	0	0	0	0
24.44776	-0.2285784	0.2450801	0	0	0	0
24.46436	-0.2285784	0.2450801	0	0	0	0
24.4809	-0.2285784	0.2450801	0	0	0	0
24.49747	-0.2285784	0.2450801	0	0	0	0
24.51496	-0.2285784	0.2450801	0	0	0	0
24.58231	-0.2285784	0.2450801	0	0	0	0
24.59887	-0.2029092	0.2010757	1.549398	-2.656111	18.46458	-31.65356
24.61544	-0.2029092	0.2010757	0	0	-46.76092	80.16158
24.63201	-0.1674612	0.1558489	2.139646	-2.72989	64.57463	-82.38825
24.64857	-0.1515707	0.1399584	0.9591512	-0.9591521	-35.62739	53.44099
24.6655	-0.1295685	0.1130669	1.299919	-1.588791	10.1743	-18.7991
24.69854	-0.1087887	0.09228701	0.6289112	-0.628911	-13.42908	19.21036
24.71551	-0.07211833	0.05439433	2.161175	-2.233215	30.63991	-32.08045
24.73168	-0.07211833	0.05194964	0	-0.1512174	-65.2244	62.8348
24.74824	-0.06967364	0.0507273	0.1475619	-0.07378095	4.50792	2.365633
24.76481	-0.06967364	0.04828261	0	-0.1475447	-4.45317	-2.226066
24.78138	-0.06845129	0.04706026	0.07377223	-0.07377245	2.226194	2.226194
24.79795	-0.0660066	0.04217089	0.1475619	-0.2951233	2.226848	-6.679998
24.81494	-0.06233957	0.03850385	0.2158265	-0.2158265	2.034233	2.362988
24.85252	-0.0550055	0.02505806	0.1951562	-0.3577864	-0.3787767	-2.601374
24.86909	-0.03911502	0.001833517	0.9590408	-1.401675	14.10692	-19.27785
24.88566	-0.03544799	-0.0006111722	0.2213169	-0.1475447	-22.26199	37.84537
24.90222	-0.0330033	-0.00550055	0.1475789	-0.2951574	-2.225418	-4.45496
24.91879	-0.03055861	-0.01038993	0.1475448	-0.2950894	-0.001028955	0.002052513
24.93536	-0.02689158	-0.01405696	0.2213424	-0.2213426	2.227088	2.225555
24.95193	-0.02689158	-0.01650165	0	-0.1475618	-6.680127	2.22671
24.96851	-0.02566923	-0.017724	0.07369611	-0.07369599	2.222873	2.227992
25.00269	-0.02566923	-0.017724	0	0	-1.451792	1.451789
25.01926	-0.02566923	-0.01894634	0	-0.07376374	0	-1.453561
25.03661	-0.02566923	-0.01894634	0	0	0	2.17462
25.05239	-0.02566923	-0.01894634	0	0	0	0
25.06896	-0.02566923	-0.01894634	0	0	0	0
25.08553	-0.02566923	-0.01894634	0	0	0	0
25.10209	-0.02566923	-0.01894634	0	0	0	0
25.11866	-0.02566923	-0.01894634	0	0	0	0
25.13523	-0.02566923	-0.01894634	0	0	0	0
25.15742	-0.02566923	-0.01894634	0	0	0	0
25.17399	-0.02566923	-0.01894634	0	0	0	0
25.19056	-0.02566923	-0.01894634	0	0	0	0
25.20718	-0.02566923	-0.01894634	0	0	0	0
25.22369	-0.02566923	-0.01894634	0	0	0	0
25.24035	-0.02566923	-0.01894634	0	0	0	0
25.25723	-0.02566923	-0.01894634	0	0	0	0
25.27339	-0.02566923	-0.01894634	0	0	0	0
25.28996	-0.02566923	-0.01894634	0	0	0	0
25.33376	-0.02566923	-0.01894634	0	0	0	0
25.35481	-0.02566923	-0.01894634	0	0	0	0
25.37145	-0.02566923	-0.01894634	0	0	0	0
25.38795	-0.02566923	-0.01894634	0	0	0	0
25.40452	-0.02566923	-0.01894634	0	0	0	0
25.42187	-0.02566923	-0.01894634	0	0	0	0
25.43802	-0.02566923	-0.01894634	0	0	0	0
25.45422	-0.02566923	-0.01894634	0	0	0	0
25.47078	-0.02566923	-0.01894634	0	0	0	0
25.48735	-0.02566923	-0.01894634	0	0	0	0
25.50392	-0.02566923	-0.01894634	0	0	0	0
25.52048	-0.02566923	-0.01894634	0	0	0	0
25.53705	-0.02566923	-0.01894634	0	0	0	0
25.55362	-0.02566923	-0.01894634	0	0	0	0
25.57018	-0.02566923	-0.01894634	0	0	0	0
25.58685	-0.02566923	-0.01894634	0	0	0	0
25.60332	-0.02566923	-0.01894634	0	0	0	0
25.64681	-0.02566923	-0.01894634	0	0	0	0
25.66338	-0.02566923	-0.01894634	0	0	0	0
25.67995	-0.02566923	-0.01894634	0	0	0	0
25.69652	-0.02566923	-0.01894634	0	0	0	0
25.71308	-0.02566923	-0.01894634	0	0	0	0
25.72965	-0.02566923	-0.01894634	0	0	0	0
25.74622	-0.02566923	-0.01894634	0	0	0	0
25.76282	-0.02566923	-0.01894634	0	0	0	0
25.7979	-0.02566923	-0.01894634	0	0	0	0
25.81447	-0.02566923	-0.01894634	0	0	0	0
25.83104	-0.02566923	-0.01894634	0	0	0	0
25.84787	-0.02566923	-0.01894634	0	0	0	0
25.86421	-0.02566923	-0.01894634	0	0	0	0
25.88074	-0.02566923	-0.01894634	0	0	0	0
25.8973	-0.02566923	-0.01894634	0	0	0	0
25.91387	-0.02566923	-0.01894634	0	0	0	0
25.9558	-0.02566923	-0.01894634	0	0	0	0
25.97237	-0.02566923	-0.01894634	0	0	0	0
25.98894	-0.02566923	-0.01894634	0	0	0	0
26.0055	-0.02566923	-0.01894634	0	0	0	0
26.02221	-0.02566923	-0.01894634	0	0	0	0
26.03864	-0.02566923	-0.01894634	0	0	0	0
26.05537	-0.02566923	-0.01894634	0	0	0	0
26.08444	-0.02566923	-0.01894634	0	0	0	0
26.1234	-0.02566923	-0.01894634	0	0	0	0
26.13997	-0.02566923	-0.01894634	0	0	0	0
26.15653	-0.02566923	-0.01894634	0	0	0	0
26.17353	-0.02566923	-0.01894634	0	0	0	0
26.18967	-0.02566923	-0.01894634	0	0	0	0
26.20623	-0.02566923	-0.01894634	0	0	0	0
26.2228	-0.02566923	-0.01894634	0	0	0	0
26.23937	-0.02566923	-0.01894634	0	0	0	0
26.25593	-0.02566923	-0.01894634	0	0	0	0
26.28911	-0.02566923	-0.01894634	0	0	0	0
26.30569	-0.02566923	-0.01894634	0	0	0	0
26.32224	-0.02566923	-0.01894634	0	0	0	0
26.33881	-0.02566923	-0.01894634	0	0	0	0
26.35538	-0.02566923	-0.01894634	0	0	0	0
26.37194	-0.02566923	-0.01894634	0	0	0	0
26.38858	-0.02566923	-0.01894634	0	0	0	0
26.40508	-0.02566923	-0.01894634	0	0	0	0
26.42165	-0.02566923	-0.01894634	0	0	0	0
26.4567	-0.02566923	-0.01894634	0	0	0	0
26.47326	-0.02566923	-0.01894634	0	0	0	0
26.48983	-0.02566923	-0.01894634	0	0	0	0
26.50641	-0.02566923	-0.01894634	0	0	0	0
26.523	-0.02566923	-0.01894634	0	0	0	0
26.53963	-0.02566923	-0.01894634	0	0	0	0
26.5561	-0.02566923	-0.01894634	0	0	0	0
26.57267	-0.02566923	-0.02016868	0	-0.07378083	0	-2.233653
26.58923	-0.02566923	-0.02016868	0	0	0	2.22671
26.63129	-0.02566923	-0.02016868	0	0	0	0
26.64786	-0.02444689	-0.01894634	0.07378083	0.07378083	1.258578	1.258578
26.6651	-0.02444689	-0.01894634	0	0	-2.182364	-2.182364
26.68099	-0.02444689	-0.01772399	-1.171781E-07	0.07689709	-3.536239E-06	2.320625
26.69756	-0.02444689	-0.01772399	0	0	3.609158E-06	-2.368477
26.71413	-0.02444689	-0.01772399	0	0	0	0
26.73069	-0.02444689	-0.01772399	0	0	0	0
26.76628	-0.02444689	-0.01772399	0	0	0	0
26.81728	-0.02444689	-0.01772399	0	0	0	0
26.83385	-0.02444689	-0.01772399	0	0	0	0
26.85042	-0.02444689	-0.01772399	0	0	0	0
26.8673	-0.02444689	-0.01772399	0	0	0	0
26.88366	-0.02444689	-0.01772399	0	0	0	0
26.90012	-0.02444689	-0.01772399	0	0	0	0
26.91669	-0.02444689	-0.01772399	0	0	0	0
26.93326	-0.02444689	-0.01772399	0	0	0	0
26.97197	-0.02444689	-0.01772399	0	0	0	0
26.98854	-0.02444689	-0.01772399	0	0	0	0
27.00573	-0.02444689	-0.01772399	0	0	0	0
27.02168	-0.02444689	-0.01772399	0	0	0	0
27.03859	-0.02444689	-0.01772399	0	0	0	0
27.05481	-0.02444689	-0.01772399	0	0	0	0
27.0718	-0.02444689	-0.01772399	0	0	0	0
27.08863	-0.02444689	-0.01772399	0	0	0	0
27.13152	-0.02444689	-0.01772399	0	0	0	0
27.14834	-0.02444689	-0.01772399	0	0	0	0
27.16465	-0.02444689	-0.01772399	0	0	0	0
27.18139	-0.02444689	-0.01772399	0	0	0	0
27.19779	-0.02444689	-0.01772399	0	0	0	0
27.21436	-0.02444689	-0.01772399	0	0	0	0
27.23092	-0.02444689	-0.01772399	0	0	0	0
27.24749	-0.02444689	-0.01772399	0	0	0	0
27.28902	-0.02444689	-0.01772399	0	0	0	0
27.34575	-0.02444689	-0.01772399	0	0	0	0
27.36284	-0.02444689	-0.01772399	0	0	0	0
27.37889	-0.02444689	-0.01772399	0	0	0	0
27.39546	-0.02444689	-0.01772399	0	0	0	0
27.41202	-0.02444689	-0.01772399	0	0	0	0
27.44564	-0.02444689	-0.01772399	0	0	0	0
27.46251	-0.02444689	-0.01772399	0	0	0	0
27.47877	-0.02444689	-0.01772399	0	0	0	0
27.49534	-0.02444689	-0.01772399	0	0	0	0
27.51191	-0.02444689	-0.01772399	0	0	0	0
27.52847	-0.02444689	-0.01772399	0	0	0	0
27.54504	-0.02444689	-0.01772399	0	0	0	0
27.56176	-0.02444689	-0.01772399	0	0	0	0
27.57822	-0.02444689	-0.01772399	0	0	0	0
27.60831	-0.02444689	-0.01772399	0	0	0	0
27.62488	-0.0220022	-0.02016868	0.1475618	-0.1475618	3.163043	-3.163043
27.64168	-0.0220022	-0.02139103	0	-0.07273412	-4.421608	2.24217
27.65826	-0.0220022	-0.02139103	0	0	0	2.178442
27.67458	-0.02077986	-0.02261337	0.07491938	-0.07491938	2.277327	-2.277327
27.69122	-0.02077986	-0.02261337	0	0	-2.273504	2.273504
27.70771	-0.02077986	-0.02383572	1.129235E-07	-0.07410504	3.408235E-06	-2.236623
27.72431	-0.01955751	-0.02383572	0.073662	-1.122486E-07	2.226196	2.239585
27.74121	-0.01955751	-0.02505806	1.102215E-07	-0.07233198	-2.199319	-2.159609
27.75987	-0.01955751	-0.0262804	0	-0.06549396	-3.099373E-06	0.1922816
27.77644	-0.01833517	-0.02750275	0.07376374	-0.07376408	2.093512	-0.2347167
27.79301	-0.01833517	-0.02750275	0	0	-2.225938	2.225948
27.8104	-0.01833517	-0.02750275	0	0	0	0
27.82614	-0.01833517	-0.02750275	0	0	0	0
27.8427	-0.01833517	-0.02750275	0	0	0	0
27.85927	-0.01833517	-0.02750275	0	0	0	0
27.87584	-0.01833517	-0.02750275	0	0	0	0
27.89241	-0.01833517	-0.02750275	0	0	0	0
27.92619	-0.01833517	-0.02750275	0	0	0	0
27.94276	-0.01833517	-0.02750275	0	0	0	0
27.95947	-0.01833517	-0.02750275	0	0	0	0
27.97589	-0.01711282	-0.02628041	0.07441492	0.07441492	2.245976	2.245976
27.99246	-0.01466813	-0.02016868	0.1475788	0.3689468	2.217664	8.927531
28.00918	-0.009778756	-0.00794524	0.2924301	0.7310752	4.35183	10.87958
28.02559	-0.001222344	0.006722894	0.521267	0.8936006	6.906312	4.905025
28.04216	0.0110011	0.02505806	0.7378085	1.106713	6.565471	6.4615
28.08207	0.03178095	0.05683902	0.5206264	0.7962521	-3.845264	-5.496789
28.09893	0.0770077	0.1216233	2.682335	3.842263	38.07559	53.65139
28.11521	0.08311942	0.1289573	0.3754747	0.45057	-69.61317	-102.3497
28.13202	0.08923115	0.1375138	0.3636297	0.5090812	-0.3580184	1.768519
28.14861	0.1038993	0.1558489	0.8841485	1.105186	15.58548	17.84869
28.16492	0.110011	0.16685	0.3748168	0.6746696	-15.48307	-13.08718
28.18148	0.113678	0.1741841	0.2213422	0.4426844	-4.668691	-7.056981
28.20652	0.1149004	0.1778511	0.04881622	0.1464493	-4.146571	-7.119854
28.22964	0.1161227	0.1864075	0.05288491	0.370195	0.08449521	4.646566
28.2462	0.1112334	0.1925193	-0.2950889	0.3688621	-8.768973	-0.03359094
28.26277	0.1087887	0.1937416	-0.1475624	0.07378072	4.452104	-8.90506
28.27972	0.09656522	0.198631	-0.7212833	0.2885129	-17.11883	6.407235
28.29597	0.08067474	0.2010757	-0.9778389	0.1504374	-7.728185	-4.159228
28.31247	0.04767143	0.1912969	-1.999681	-0.5924986	-31.19661	-22.68168
28.32909	0.01833517	0.1766288	-1.765861	-0.88293	7.060337	-8.76978
28.34616	-0.02322455	0.1534042	-2.433738	-1.36003	-19.82448	-14.16169
28.36217	-0.07823005	0.1204009	-3.435636	-2.061381	-30.28091	-21.19732
28.37874	-0.1405696	0.08495294	-3.76369	-2.140138	-10.07113	-2.417811
28.41477	-0.2077986	0.04706026	-1.865728	-1.051592	36.08495	20.69596
28.43157	-0.3324777	-0.01772399	-7.422251	-3.856661	-105.1741	-53.09447
28.44791	-0.3508129	-0.02505806	-1.122087	-0.4488345	190.1174	102.8366
28.46447	-0.3825938	-0.03728151	-1.918744	-0.7379783	-24.2118	-8.787584
28.48128	-0.443711	-0.05561668	-3.636293	-1.090889	-51.46835	-10.57537
28.49783	-0.4877155	-0.06417309	-2.658254	-0.5168825	29.31647	17.20568
28.51418	-0.4954361	-0.06740235	-0.4724374	-0.197603	66.44618	9.705713
28.53074	-0.495308	-0.0683372	0.007729752	-0.05642791	14.59058	4.289812
28.5675	-0.495194	-0.06915823	0.003102296	-0.0223382	-0.08678351	0.6393198
28.58406	-0.4951709	-0.06932392	0.001397723	-0.01000083	-0.03196763	0.2313755
28.60063	-0.4951709	-0.06932392	0	0	-0.04218337	0.3018256
28.6172	-0.4951709	-0.06932392	0	0	0	0
28.63377	-0.4951709	-0.06932392	0	0	0	0
28.65034	-0.4951709	-0.06932392	0	0	0	0
28.6669	-0.4951709	-0.06932392	0	0	0	0
28.68347	-0.4951709	-0.06932392	0	0	0	0
28.70801	-0.4951709	-0.06932392	0	0	0	0
28.72458	-0.4951709	-0.06932392	0	0	0	0
28.74138	-0.4951709	-0.06932392	0	0	0	0
28.75771	-0.4951709	-0.06932392	0	0	0	0
28.77428	-0.4951709	-0.06932392	0	0	0	0
28.79085	-0.4951709	-0.06932392	0	0	0	0
28.80742	-0.4951709	-0.06932392	0	0	0	0
28.82398	-0.4951709	-0.06932392	0	0	0	0
28.84055	-0.4951709	-0.06932392	0	0	0	0
28.86005	-0.4951709	-0.06932392	0	0	0	0
28.87662	-0.4951709	-0.06932392	0	0	0	0
28.89318	-0.4951709	-0.06932392	0	0	0	0
28.90975	-0.4951102	-0.06975599	0.003658484	-0.02607704	0.1104196	-0.7870519
28.92632	-0.4954215	-0.06750916	-0.01878922	0.1356192	-0.6774339	4.879721
28.943	-0.4960027	-0.06309769	-0.0348272	0.2643597	-0.4822782	3.871356
28.95976	-0.4968927	-0.05565657	-0.05312642	0.4441862	-0.5472317	5.377645
28.97626	-0.4978206	-0.04663284	-0.05623627	0.5468773	-0.09352168	3.088201
28.99259	-0.4632685	-0.03116979	2.116019	0.9469796	66.16821	12.18736
29.01516	-0.4534898	-0.02628041	0.4332339	0.2166167	-43.25883	-18.77522
29.03173	-0.4155971	-0.007945239	2.286678	1.106458	47.35106	22.73332
29.0483	-0.4094854	-0.00550055	0.368863	0.1475447	-57.86977	-28.93506
29.06492	-0.4058184	-0.004278206	0.220631	0.07354376	-4.466195	-2.229631
29.08195	-0.404596	-0.004278205	0.07178085	2.73455E-08	-4.423553	-2.185585
29.09799	-0.404596	-0.004278205	0	0	-2.170223	-8.267642E-07
29.1147	-0.404596	-0.004278205	0	0	0	0
29.13113	-0.404596	-0.004278205	0	0	0	0
29.1477	-0.404596	-0.004278205	0	0	0	0
29.19368	-0.404596	-0.004278205	0	0	0	0
29.21025	-0.404596	-0.004278205	0	0	0	0
29.22682	-0.404596	-0.004278205	0	0	0	0
29.24368	-0.404596	-0.004278205	0	0	0	0
29.25995	-0.404596	-0.004278205	0	0	0	0
29.27689	-0.404596	-0.004278205	0	0	0	0
29.29309	-0.404596	-0.004278205	0	0	0	0
29.30965	-0.404596	-0.004278205	0	0	0	0
29.36274	-0.404596	-0.004278205	0	0	0	0
29.37931	-0.404596	-0.004278205	0	0	0	0
29.39587	-0.404596	-0.004278205	0	0	0	0
29.41244	-0.404596	-0.004278205	0	0	0	0
29.42901	-0.404596	-0.004278205	0	0	0	0
29.44563	-0.404596	-0.004278205	0	0	0	0
29.46257	-0.404596	-0.004278205	0	0	0	0
29.5333	-0.404596	-0.004278205	0	0	0	0
29.54987	-0.2762499	-0.03116979	7.745207	-1.622805	88.72205	-18.58938
29.56643	-0.2334678	-0.03972619	2.582925	-0.5165848	-155.798	33.3858
29.58301	-0.149126	-0.05439433	5.087366	-0.8847591	75.56678	-11.10896
29.59957	-0.07089598	-0.0617284	4.725238	-0.4429915	-10.92902	13.33257
29.61613	-0.004889378	-0.06906247	3.983708	-0.4426345	-22.38587	0.01077565
29.64769	0.05133847	-0.07517419	1.781782	-0.1936719	-45.75315	5.173119
29.66435	0.1185674	-0.07761887	4.034722	-0.1467169	46.72241	0.9737717
29.68083	0.1210121	-0.07761887	0.1483991	0	-117.2827	4.42767
29.69742	0.1222344	-0.07761887	0.07367893	0	-2.259871	0
29.7141	0.1222344	-0.07761887	0	0	-2.214203	0
29.73125	0.1222344	-0.07761887	0	0	0	0
29.7471	0.1222344	-0.07761887	0	0	0	0
29.76381	0.1222344	-0.07761887	0	0	0	0
29.78023	0.1222344	-0.07761887	0	0	0	0
29.81761	0.1222344	-0.07761887	0	0	0	0
29.83418	0.1222344	-0.07761887	0	0	0	0
29.85075	0.1222344	-0.07761887	0	0	0	0
29.86731	0.1222344	-0.07761887	0	0	0	0
29.88388	0.1222344	-0.07761887	0	0	0	0
29.90045	0.1222344	-0.07761887	0	0	0	0
29.91702	0.1222344	-0.07761887	0	0	0	0
29.93358	0.1222344	-0.07761887	0	0	0	0
29.97119	0.1222344	-0.07761887	0	0	0	0
29.98817	0.1222344	-0.07761887	0	0	0	0
30.00434	0.1222344	-0.07761887	0	0	0	0
30.0209	0.1222344	-0.07761887	0	0	0	0
30.03746	0.1222344	-0.07761887	0	0	0	0
30.05408	0.1222344	-0.07761887	0	0	0	0
30.07118	0.1222344	-0.07761887	0	0	0	0
30.08722	0.1222344	-0.07761887	0	0	0	0
30.12635	0.1173451	-0.07517418	-0.1249364	0.0624682	-2.264256	1.132128
30.14332	0.0990099	-0.07028481	-1.080466	0.2881242	-17.0312	4.022055
30.15949	0.09656522	-0.07028481	-0.1512174	-4.608601E-07	28.04317	-8.69512
30.17606	0.09412052	-0.06906246	-0.1475619	0.07378118	0.1116734	2.253981
30.19271	0.08800881	-0.06784012	-0.3670027	0.07340045	-6.605627	-0.01146061
30.20939	0.08678646	-0.06784012	-0.07329971	0	8.812234	-2.202299
30.22577	0.08556411	-0.06661777	-0.07458837	0.07458837	-0.03897484	2.255886
30.24233	0.08434177	-0.06661778	-0.07384874	-4.501325E-07	0.02245404	-2.26439
30.29196	0.08189708	-0.06417309	-0.04925156	0.04925156	0.3716213	0.7441139
30.30853	0.07945239	-0.0617284	-0.1475449	0.1475447	-1.48466	1.484656
30.32554	0.07945239	-0.0617284	0	0	4.39448	-4.394473
30.34167	0.07945239	-0.0617284	0	0	0	0
30.35875	0.07945239	-0.0617284	0	0	0	0
30.37485	0.07945239	-0.0617284	0	0	0	0
30.39186	0.07945239	-0.0617284	0	0	0	0
30.40794	0.07945239	-0.0617284	0	0	0	0
30.44252	0.07945239	-0.0617284	0	0	0	0
30.45909	0.0770077	-0.05439433	-0.1475445	0.4426345	-2.884258	8.652795
30.47566	0.07578535	-0.05194964	-0.07378118	0.1475614	2.226052	-8.904811
30.49223	0.07456302	-0.04950495	-0.07378877	0.1475787	-0.0002291445	0.0005199038
30.50903	0.07211833	-0.04583792	-0.145485	0.2182273	-2.148583	2.117188
30.52554	0.07211833	-0.04461558	0	0.07401934	4.366615	-4.328285
30.54212	0.07089598	-0.04339323	-0.07373025	0.07373025	-2.228005	-0.008735816
30.55849	0.06967364	-0.04339323	-0.07465697	0	-0.02812405	-2.237548
30.58085	0.06967364	-0.04339323	0	0	1.927501	0
30.59743	0.06967364	-0.04339323	0	0	0	0
30.61399	0.06967364	-0.04339323	0	0	0	0
30.63056	0.06967364	-0.04339323	0	0	0	0
30.64713	0.06967364	-0.04339323	0	0	0	0
30.66377	0.06967364	-0.04339323	0	0	0	0
30.68026	0.06967364	-0.04339323	0	0	0	0
30.69683	0.06967364	-0.04339323	0	0	0	0
30.71339	0.06967364	-0.04339323	0	0	0	0
30.74347	0.06967364	-0.04339323	0	0	0	0
30.76004	0.06967364	-0.04339323	0	0	0	0
30.77661	0.06967364	-0.04339323	0	0	0	0
30.79317	0.06967364	-0.04339323	0	0	0	0
30.81005	0.06967364	-0.04339323	0	0	0	0
30.82631	0.06967364	-0.04339323	0	0	0	0
30.84323	0.06967364	-0.04339323	0	0	0	0
30.85944	0.06967364	-0.04339323	0	0	0	0
30.87601	0.06967364	-0.04339323	0	0	0	0
30.91288	0.06967364	-0.04339323	0	0	0	0
30.92963	0.06967364	-0.04339323	0	0	0	0
30.94602	0.06967364	-0.04339323	0	0	0	0
30.96329	0.06967364	-0.04339323	0	0	0	0
30.97928	0.06967364	-0.04339323	0	0	0	0
30.99572	0.06967364	-0.04339323	0	0	0	0
31.01228	0.06967364	-0.04339323	0	0	0	0
31.02885	0.06967364	-0.04339323	0	0	0	0
31.04552	0.06967364	-0.04339323	0	0	0	0
31.06264	0.06967364	-0.04339323	0	0	0	0
31.07921	0.06967364	-0.04339323	0	0	0	0
31.0959	0.06967364	-0.04339323	0	0	0	0
31.11241	0.06967364	-0.04339323	0	0	0	0
31.12891	0.06967364	-0.04339323	0	0	0	0
31.14548	0.06845129	-0.04217088	-0.07377313	0.07377245	-2.230586	2.230566
31.16205	0.06845129	-0.04217088	0	0	2.226349	-2.226329
31.17903	0.06722894	-0.04094854	-0.07199858	0.07199858	-2.146358	2.146358
31.19518	0.0660066	-0.04094854	-0.07565333	-2.30566E-07	-0.1103005	-2.172929
31.2132	0.0660066	-0.04094854	0	0	2.213647	6.746457E-06
31.22977	0.0660066	-0.04094854	0	0	0	0
31.24634	0.0660066	-0.04094854	0	0	0	0
31.26291	0.0660066	-0.04094854	0	0	0	0
31.27947	0.0660066	-0.04094854	0	0	0	0
31.29609	0.0660066	-0.04094854	0	0	0	0
31.31308	0.0660066	-0.04094854	0	0	0	0
31.32917	0.0660066	-0.04094854	0	0	0	0
31.34574	0.0660066	-0.04094854	0	0	0	0
31.39009	0.0660066	-0.04094854	0	0	0	0
31.40666	0.0660066	-0.04094854	0	0	0	0
31.42323	0.0660066	-0.04094854	0	0	0	0
31.4398	0.0660066	-0.04094854	0	0	0	0
31.45637	0.0660066	-0.04094854	0	0	0	0
31.47293	0.0660066	-0.04094854	0	0	0	0
31.48951	0.0660066	-0.04094854	0	0	0	0
31.50607	0.0660066	-0.04094854	0	0	0	0
31.54395	0.0660066	-0.04094854	0	0	0	0
31.56052	0.0660066	-0.04094854	0	0	0	0
31.57709	0.0660066	-0.04094854	0	0	0	0
31.59415	0.0660066	-0.04094854	0	0	0	0
31.61022	0.0660066	-0.04094854	0	0	0	0
31.62679	0.0660066	-0.04094854	0	0	0	0
31.64336	0.0660066	-0.04094854	0	0	0	0
31.65992	0.0660066	-0.04094854	0	0	0	0
31.69767	0.0660066	-0.04094854	0	0	0	0
31.71424	0.0660066	-0.04094854	0	0	0	0
31.7308	0.0660066	-0.04094854	0	0	0	0
31.74737	0.0660066	-0.04094854	0	0	0	0
31.76394	0.0660066	-0.04094854	0	0	0	0
31.78051	0.0660066	-0.04094854	0	0	0	0
31.79707	0.0660066	-0.04094854	0	0	0	0
31.81371	0.0660066	-0.04094854	0	0	0	0
31.85087	0.0660066	-0.04094854	0	0	0	0
31.86743	0.0660066	-0.04094854	0	0	0	0
31.884	0.0660066	-0.04094854	0	0	0	0
31.90057	0.0660066	-0.04094854	0	0	0	0
31.91714	0.0660066	-0.04094854	0	0	0	0
31.9337	0.0660066	-0.04094854	0	0	0	0
31.95027	0.0660066	-0.04094854	0	0	0	0
31.96684	0.0660066	-0.04094854	0	0	0	0
31.98376	0.0660066	-0.04094854	0	0	0	0
32.0009	0.0660066	-0.04094854	0	0	0	0
32.01746	0.0660066	-0.04094854	0	0	0	0
32.03403	0.0660066	-0.04094854	0	0	0	0
32.05088	0.0660066	-0.04094854	0	0	0	0
32.06717	0.0660066	-0.04094854	0	0	0	0
32.08377	0.0660066	-0.04094854	0	0	0	0
32.1003	0.0660066	-0.04094854	0	0	0	0
32.11686	0.0660066	-0.04094854	0	0	0	0
32.13359	0.0660066	-0.04094854	0	0	0	0
32.17069	0.0660066	-0.04094854	0	0	0	0
32.18726	0.0660066	-0.04094854	0	0	0	0
32.20426	0.0660066	-0.04094854	0	0	0	0
32.2204	0.0660066	-0.04094854	0	0	0	0
32.23737	0.0660066	-0.04094854	0	0	0	0
32.25353	0.0660066	-0.04094854	0	0	0	0
32.2701	0.0660066	-0.04094854	0	0	0	0
32.28667	0.0660066	-0.04094854	0	0	0	0
32.34064	0.0660066	-0.04094854	0	0	0	0
32.35722	0.0660066	-0.04094854	0	0	0	0
32.37378	0.0660066	-0.04094854	0	0	0	0
32.39039	0.0660066	-0.04094854	0	0	0	0
32.40692	0.0660066	-0.04094854	0	0	0	0
32.42357	0.0660066	-0.04094854	0	0	0	0
32.44006	0.0660066	-0.04094854	0	0	0	0
32.47843	0.0660066	-0.04094854	0	0	0	0
32.495	0.0660066	-0.04094854	0	0	0	0
32.51157	0.0660066	-0.04094854	0	0	0	0
32.52813	0.0660066	-0.04094854	0	0	0	0
32.54473	0.0660066	-0.04094854	0	0	0	0
32.56176	0.0660066	-0.04094854	0	0	0	0
32.57784	0.0660066	-0.04094854	0	0	0	0
32.5944	0.0660066	-0.04094854	0	0	0	0
32.61139	0.0660066	-0.04094854	0	0	0	0
32.64542	0.0660066	-0.04094854	0	0	0	0
32.66199	0.06233957	-0.03483682	-0.2213426	0.3689045	-4.374191	7.290321
32.67896	0.06233957	-0.03483682	0	0	6.600346	-11.00058
32.69513	0.06233957	-0.03361448	2.3043E-07	0.0756087	6.954392E-06	2.281875
32.7117	0.06233957	-0.03361448	0	0	-7.038668E-06	-2.309528
32.72837	0.06233957	-0.03361448	0	0	0	0
32.74562	0.06233957	-0.03361448	0	0	0	0
32.80807	0.06233957	-0.03361448	0	0	0	0
32.86344	0.06233957	-0.03239213	6.727954E-08	0.02207583	5.710515E-07	0.187374
32.88032	0.09167583	-0.01894634	1.737926	0.7965499	24.05422	10.71931
32.89683	0.09900991	-0.01527931	0.4441173	0.2220583	-38.74392	-17.20351
32.91314	0.1161227	-0.006722894	1.049362	0.5246812	18.4404	9.220218
32.92986	0.1332355	0.001833517	1.023505	0.5117526	-0.7828742	-0.3914461
32.94627	0.1552377	0.01283462	1.3404	0.6702003	9.56391	4.781962
32.96287	0.1760176	0.02505806	1.252257	0.7366213	-2.670324	2.012234
32.97941	0.2016868	0.03972619	1.551899	0.8867996	9.04323	4.532391
32.99974	0.2310231	0.05439433	1.442839	0.7214192	-2.957735	-4.485154
33.01641	0.2811392	0.08250825	3.006324	1.686475	42.25343	26.08078
33.03288	0.290918	0.08984232	0.5938025	0.4453514	-72.80167	-37.45287
33.04944	0.3092532	0.09962108	1.106968	0.5903831	15.53565	4.390713
33.06601	0.3251436	0.1093998	0.9591512	0.5902472	-4.46162	-0.004103699
33.08258	0.3410341	0.1191786	0.9591512	0.5902463	0	-2.698308E-05
33.09914	0.3569246	0.1326244	0.9591512	0.8115893	0	6.680146
33.1162	0.361814	0.1350691	0.286738	0.143369	-20.00103	-19.87631
33.13249	0.365481	0.1387361	0.2250735	0.2250745	-1.849327	2.45036
33.14884	0.3679257	0.1424031	0.1495239	0.2242858	-2.314466	-0.02415968
33.16541	0.3679257	0.1424031	0	0	-4.541922	-6.812883
33.18198	0.3679257	0.1424031	0	0	0	0
33.19854	0.3679257	0.1424031	0	0	0	0
33.21511	0.3667034	0.1411808	-0.07376194	-0.07376284	-2.22614	-2.226167
33.23167	0.3532576	0.1167339	-0.8117767	-1.475958	-22.27333	-42.31833
33.24825	0.3178096	0.04706026	-2.139152	-4.204541	-40.06027	-82.34879
33.26565	0.294585	-0.003055861	-1.334542	-2.879798	23.68333	38.99318
33.28138	0.2762499	-0.04339323	-1.165766	-2.564686	5.09425	9.511211
33.31666	0.2566923	-0.07639653	-0.5542576	-0.9353101	11.98708	31.93981
33.33323	0.2126879	-0.1558489	-2.656111	-4.795756	-40.53471	-74.44955
33.3498	0.2016868	-0.1754064	-0.6640283	-1.180493	60.12119	109.1088
33.36636	0.1760176	-0.2132991	-1.549397	-2.287208	-26.72048	-33.40071
33.38316	0.1479037	-0.2511918	-1.674216	-2.256551	-3.741627	0.9189966
33.3995	0.1222345	-0.2854175	-1.570736	-2.094317	3.123029	4.896212
33.41607	0.1014546	-0.312309	-1.254275	-1.623178	9.616133	14.31626
33.43263	0.07334068	-0.3489794	-1.696959	-2.213425	-13.36024	-17.81371
33.47106	0.05867254	-0.3648699	-0.3817299	-0.4135413	23.91645	32.72952
33.48826	0.03055861	-0.3966508	-1.634123	-1.847268	-22.51303	-25.77267
33.50419	0.02689158	-0.3990955	-0.2301941	-0.1534625	42.37067	51.11916
33.52127	0.02566923	-0.4015402	-0.07158851	-0.1431768	4.805536	0.3116426
33.53732	0.02322455	-0.4039849	-0.1522595	-0.1522612	-2.434937	-0.2741976
33.55389	0.01955751	-0.4064295	-0.2212917	-0.1475257	-2.115791	0.1451391
33.57046	0.01955751	-0.4076519	0	-0.07378253	6.677827	2.225317
33.58703	0.01955751	-0.4076519	0	0	0	2.226761
33.6036	0.01955751	-0.4076519	0	0	0	0
33.66871	0.01955751	-0.4076519	0	0	0	0
33.68528	0.01955751	-0.4088742	0	-0.07376374	0	-0.9029945
33.70185	0.01955751	-0.4088742	0	0	0	2.225938
33.71841	0.01955751	-0.4088742	0	0	0	0
33.73498	0.01955751	-0.4088742	0	0	0	0
33.75155	0.01955751	-0.4088742	0	0	0	0
33.76811	0.01955751	-0.4088742	0	0	0	0
33.80444	0.01955751	-0.4076519	0	0.03364445	0	0.6361117
33.82161	0.01711282	-0.4003178	-0.1424451	0.4273345	-2.662848	7.359588
33.83759	0.01711282	-0.3978731	0	0.1529881	4.298011	-8.277886
33.85415	0.01711282	-0.3893167	0	0.516584	0	11.17272
33.87071	0.01711282	-0.3807603	-1.124554E-07	0.5165858	-3.394692E-06	5.397858E-05
33.88728	0.01711282	-0.3587581	1.124295E-07	1.328055	6.78782E-06	24.493
33.90385	0.01711282	-0.3502017	0	0.5164669	-3.393129E-06	-24.49377
33.92042	0.01833517	-0.3318665	0.07376385	1.106458	2.225941	17.80392
33.96978	0.01711283	-0.3025303	-0.02476273	0.5943066	-1.494339	-7.767727
33.98635	0	-0.2634152	-1.032932	2.360987	-15.29165	26.79654
34.0034	-0.002444689	-0.2573035	-0.1433692	0.3584242	26.46018	-59.56652
34.01948	-0.004889378	-0.2487471	-0.1520428	0.532149	-0.2617997	5.243627
34.03605	-0.01344579	-0.2145215	-0.516466	2.065864	-11.16281	46.97992
34.05261	-0.01955751	-0.1876299	-0.3689043	1.62318	4.45342	-13.36024
34.0697	-0.02322455	-0.1582936	-0.2146218	1.716974	4.584474	2.787095
34.08575	-0.02689158	-0.1228456	-0.2284437	2.208288	-0.4170973	14.82617
34.12041	-0.02933627	-0.08984232	-0.07054044	0.9522969	3.113924	-24.76872
34.13698	-0.02566923	0.009167584	0.2212916	5.974874	5.696776	98.04441
34.15355	-0.02322455	0.02994744	0.1475616	1.254275	-2.224919	-142.4516
34.17018	-0.01955751	0.04828261	0.2204797	1.102398	2.196375	-4.574705
34.18668	-0.01344579	0.08495294	0.3704396	2.222638	4.526319	33.8128
34.2037	-0.007334067	0.1106222	0.3589049	1.5074	-0.3440371	-21.33293
34.21984	-0.004889378	0.1252903	0.1514679	0.9088069	-6.253982	-18.04689
34.23638	-0.004889378	0.127735	-2.816574E-08	0.1478688	-4.63589	-23.28959
34.25294	-0.004889378	0.127735	0	0	8.509253E-07	-4.467318
34.29024	-0.004889378	0.127735	0	0	0	0
34.30724	-0.004889378	0.127735	0	0	0	0
34.32338	-0.004889378	0.127735	0	0	0	0
34.33995	-0.004889378	0.127735	0	0	0	0
34.35651	-0.004889378	0.127735	0	0	0	0
34.37308	-0.004889378	0.127735	0	0	0	0
34.38964	-0.004889378	0.127735	0	0	0	0
34.40646	-0.004889378	0.127735	0	0	0	0
34.46183	-0.004889378	0.127735	0	0	0	0
34.4784	-0.004889378	0.127735	0	0	0	0
34.49496	-0.004889378	0.127735	0	0	0	0
34.51154	-0.004889378	0.127735	0	0	0	0
34.5281	-0.004889378	0.127735	0	0	0	0
34.54509	-0.004889378	0.127735	0	0	0	0
34.56157	-0.004889378	0.127735	0	0	0	0
34.57779	-0.004889378	0.127735	0	0	0	0
34.59461	-0.004889378	0.127735	0	0	0	0
34.61111	-0.004889378	0.127735	0	0	0	0
34.62749	-0.004889378	0.127735	0	0	0	0
34.64406	-0.004889378	0.127735	0	0	0	0
34.66064	-0.004889378	0.127735	0	0	0	0
34.67719	-0.004889378	0.127735	0	0	0	0
34.69376	-0.004889378	0.127735	0	0	0	0
34.71033	-0.004889378	0.127735	0	0	0	0
34.72689	-0.004889378	0.127735	0	0	0	0
34.74382	-0.004889378	0.127735	0	0	0	0
34.76039	-0.004889378	0.127735	0	0	0	0
34.77695	-0.004889378	0.127735	0	0	0	0
34.7939	-0.006111723	0.1228456	-0.07212026	-0.2884809	-2.15182	-8.607277
34.81009	-0.007334067	0.1167339	-0.07553753	-0.3776884	-0.1031452	-2.692599
34.82665	-0.008556412	0.1118445	-0.07378086	-0.2951229	0.05363984	2.521149
34.84322	-0.0110011	0.1069551	-0.1475617	-0.2951238	-2.226709	-2.698308E-05
34.85979	-0.01222344	0.1045105	-0.07378089	-0.1475614	2.226708	4.45344
34.87647	-0.01344579	0.1008434	-0.07327474	-0.2198242	0.01522322	-2.173386
34.89292	-0.01344579	0.09839873	0	-0.1485883	2.211436	2.149902
34.90948	-0.01344579	0.09595405	0	-0.1475954	0	0.03007203
34.92606	-0.01589048	0.09350936	-0.1475278	-0.1475275	-4.452396	0.002050714
34.94262	-0.01589048	0.09228701	0	-0.07378118	4.451884	2.225412
34.95922	-0.01589048	0.09228701	0	0	0	2.224927
34.97576	-0.01589048	0.09106466	0	-0.07390029	0	-2.230315
34.99232	-0.01589048	0.09106466	0	0	0	2.232114
35.00955	-0.01589048	0.09106466	0	0	0	0
35.02546	-0.01589048	0.09106466	0	0	0	0
35.04202	-0.01589048	0.09106466	0	0	0	0
35.05859	-0.01589048	0.09106466	0	0	0	0
35.1154	-0.01589048	0.09106466	0	0	0	0
35.132	-0.01589048	0.09106466	0	0	0	0
35.14854	-0.01589048	0.09106466	0	0	0	0
35.16549	-0.01589048	0.09106466	0	0	0	0
35.18167	-0.01589048	0.09106466	0	0	0	0
35.19824	-0.01589048	0.09106466	0	0	0	0
35.21481	-0.01589048	0.09106466	0	0	0	0
35.25625	-0.01589048	0.09106466	0	0	0	0
35.27282	-0.01589048	0.09106466	0	0	0	0
35.28939	-0.01589048	0.09106466	0	0	0	0
35.30595	-0.01589048	0.09106466	0	0	0	0
35.32329	-0.01589048	0.09106466	0	0	0	0
35.33915	-0.01589048	0.09106466	0	0	0	0
35.3557	-0.01589048	0.09106466	0	0	0	0
35.37222	-0.01589048	0.09106466	0	0	0	0
35.40456	-0.01589048	0.09106466	0	0	0	0
35.42112	-0.01589048	0.09106466	0	0	0	0
35.43769	-0.01589048	0.09106466	0	0	0	0
35.45426	-0.01589048	0.09106466	0	0	0	0
35.47107	-0.01589048	0.09106466	0	0	0	0
35.48739	-0.01589048	0.09106466	0	0	0	0
35.50396	-0.01589048	0.09106466	0	0	0	0
35.52052	-0.01589048	0.09106466	0	0	0	0
35.55576	-0.01589048	0.09106466	0	0	0	0
35.57233	-0.01589048	0.09106466	0	0	0	0
35.58889	-0.01589048	0.09106466	0	0	0	0
35.60566	-0.01589048	0.09106466	0	0	0	0
35.62203	-0.01589048	0.09106466	0	0	0	0
35.6388	-0.01589048	0.09106466	0	0	0	0
35.65536	-0.01589048	0.09106466	0	0	0	0
35.67426	-0.01589048	0.09106466	0	0	0	0
35.69628	-0.01589048	0.09106466	0	0	0	0
35.71285	-0.01589048	0.09106466	0	0	0	0
35.72942	-0.01589048	0.09106466	0	0	0	0
35.74599	-0.01589048	0.09106466	0	0	0	0
35.76255	-0.01589048	0.09106466	0	0	0	0
35.77916	-0.01589048	0.09106466	0	0	0	0
35.79569	-0.01589048	0.09106466	0	0	0	0
35.813	-0.01589048	0.09106466	0	0	0	0
35.82951	-0.01589048	0.09106466	0	0	0	0
35.86602	-0.01589048	0.09106466	0	0	0	0
35.88259	-0.01589048	0.09106466	0	0	0	0
35.89916	-0.01589048	0.09106466	0	0	0	0
35.91573	-0.01589048	0.09106466	0	0	0	0
35.93237	-0.01589048	0.09106466	0	0	0	0
35.94886	-0.01589048	0.09106466	0	0	0	0
35.9658	-0.01589048	0.09106466	0	0	0	0
35.98199	-0.01589048	0.09106466	0	0	0	0
35.99856	-0.01589048	0.09106466	0	0	0	0
36.05433	-0.01589048	0.09106466	0	0	0	0
36.0709	-0.01589048	0.09106466	0	0	0	0
36.08747	-0.01589048	0.09106466	0	0	0	0
36.10464	-0.01589048	0.09106466	0	0	0	0
36.1206	-0.01589048	0.09106466	0	0	0	0
36.13717	-0.01589048	0.09106466	0	0	0	0
36.15374	-0.01589048	0.09106466	0	0	0	0
36.18964	-0.01589048	0.09106466	0	0	0	0
36.20621	-0.01589048	0.09106466	0	0	0	0
36.22278	-0.01589048	0.09106466	0	0	0	0
36.23935	-0.01589048	0.09106466	0	0	0	0
36.25592	-0.01589048	0.09106466	0	0	0	0
36.27248	-0.01589048	0.09106466	0	0	0	0
36.28974	-0.01589048	0.09106466	0	0	0	0
36.30561	-0.01589048	0.09106466	0	0	0	0
36.34477	-0.01589048	0.09106466	0	0	0	0
36.3623	-0.01589048	0.08984231	1.062867E-07	-0.06975003	1.875121E-06	-1.230537
36.37791	-0.01466813	0.08495294	0.07830644	-0.3132255	2.36329	-7.348104
36.39447	-0.008556412	0.07395184	0.3689043	-0.6640279	9.031237	-10.90228
36.41112	-0.003667034	0.06050605	0.2937706	-0.807869	-2.26233	-4.331161
36.4276	0.002444689	0.04950495	0.3706968	-0.6672541	2.321903	4.244256
36.44417	0.008556412	0.03850385	0.3689043	-0.6640279	-0.05422768	0.09760351
36.46364	0.01344579	0.02750275	0.2511209	-0.5650221	-3.268362	2.747304
36.48786	0.02322455	0.00794524	0.4038189	-0.8076378	3.495361	-5.553637
36.50467	0.02933627	-0.00550055	0.3634646	-0.7996219	-0.9835114	0.1953619
36.52099	0.03178096	-0.01038993	0.1498037	-0.2996076	-6.448297	15.09046
36.53756	0.0330033	-0.01283462	0.07378072	-0.1475617	-2.311678	4.623353
36.55413	0.03544799	-0.01894634	0.1475619	-0.3689044	2.22672	-6.680135
36.57069	0.03911502	-0.0262804	0.2213424	-0.442685	2.2267	-2.226706
36.58727	0.04155971	-0.03239213	0.1475277	-0.3688195	-2.227475	2.229011
36.60387	0.0440044	-0.04217089	0.1471891	-0.5887557	-0.01020529	-6.628532
36.6204	0.04767144	-0.04950495	0.2219047	-0.4438093	2.25492	4.374491
36.66921	0.05133847	-0.05806137	0.07512426	-0.1752901	-2.246474	4.109687
36.68578	0.05378316	-0.06539543	0.1475279	-0.4425831	1.107362	-4.088055
36.70235	0.05378316	-0.06661777	-2.249107E-07	-0.07379772	-4.452409	11.12996
36.71891	0.05378316	-0.06661777	0	0	6.788601E-06	2.227476
36.73548	0.05378316	-0.06661777	0	0	0	0
36.75205	0.05378316	-0.06661777	0	0	0	0
36.76862	0.05378316	-0.06661777	0	0	0	0
36.78518	0.05378316	-0.06661777	0	0	0	0
36.80262	0.05378316	-0.06661777	0	0	0	0
36.81918	0.05378316	-0.06661777	0	0	0	0
36.83575	0.05378316	-0.06661777	0	0	0	0
36.85232	0.05378316	-0.06661777	0	0	0	0
36.86928	0.05378316	-0.06661777	0	0	0	0
36.88545	0.05378316	-0.06661777	0	0	0	0
36.90261	0.05378316	-0.06661777	0	0	0	0
36.91859	0.05378316	-0.06661777	0	0	0	0
36.93515	0.05378316	-0.06661777	0	0	0	0
36.96239	0.05378316	-0.06661777	0	0	0	0
36.97897	0.05378316	-0.06661777	0	0	0	0
36.99553	0.05378316	-0.06661777	0	0	0	0
37.0121	0.05378316	-0.06661777	0	0	0	0
37.02867	0.05378316	-0.06661777	0	0	0	0
37.04523	0.05378316	-0.06661777	0	0	0	0
37.06186	0.05378316	-0.06539543	2.24085E-07	0.07352678	6.75124E-06	2.215217
37.07837	0.05378316	-0.0617284	-2.256904E-07	0.2221611	-1.357581E-05	4.486309
37.09493	0.05256081	-0.05439433	-0.07378095	0.442685	-2.230816	6.667708
37.12356	0.05011612	-0.04706026	-0.0854025	0.2562076	-0.2571554	-4.126271
37.14132	0.04155971	-0.0287251	-0.4817465	1.032314	-8.544342	16.73122
37.15789	0.03911502	-0.02261337	-0.1475617	0.3689044	9.734921	-19.32535
37.17445	0.03789268	-0.01894634	-0.07378072	0.2213425	2.226713	-4.453427
37.19102	0.03422565	-0.01038993	-0.2213426	0.5164661	-4.453427	8.906847
37.20759	0.03055861	-0.0006111723	-0.2213425	0.5902469	3.148026E-06	2.226708
37.22416	0.02444689	0.01038993	-0.3689044	0.6640277	-4.453427	2.22671
37.24072	0.01955751	0.03116979	-0.2951235	1.254275	2.226714	17.81369
37.25757	0.01833517	0.04828261	-0.07254475	1.015627	6.660693	-7.141563
37.29644	0.01833517	0.07028481	4.791769E-08	0.56602	1.301923	-8.068854
37.31301	0.01833517	0.1436255	-1.124295E-07	4.426852	-2.892317E-06	69.64109
37.32972	0.01833517	0.1521819	0	0.5119863	3.378349E-06	-117.6362
37.34622	0.01833517	0.1607383	0	0.5186154	0	0.1996091
37.36286	0.01833517	0.1717394	0	0.6612875	0	4.305853
37.37928	0.01833517	0.1802958	0	0.5209029	0	-4.246106
37.39585	0.01711282	0.1864075	-0.07378083	0.3689036	-2.236236	-4.60697
37.41257	0.01711282	0.1888522	-1.11378E-07	0.1461823	2.216245	-6.690164
37.44587	0.01589048	0.1900746	-0.03670864	0.03670909	-0.7338458	-2.188496
37.46257	-0.003667034	0.163183	-1.171056	-1.610203	-22.6873	-32.93874
37.47901	-0.0220022	0.1338467	-1.115704	-1.785127	1.670529	-5.279224
37.4957	-0.07089598	0.06906246	-2.928978	-3.880896	-54.73733	-63.265
37.51214	-0.1234568	0.01161227	-3.196869	-3.494251	-8.084943	11.66897
37.52871	-0.1723506	-0.03850385	-2.951234	-3.025015	7.441545	14.21558
37.54528	-0.2139103	-0.08006357	-2.508549	-2.508549	13.36025	15.58697
37.56189	-0.2408019	-0.1106222	-1.618335	-1.839017	26.82656	20.17633
37.57841	-0.2628041	-0.1338467	-1.33235	-1.406369	8.632056	13.05884
37.6194	-0.290918	-0.163183	-0.685891	-0.7157119	11.24222	12.01086
37.63596	-0.3288107	-0.2108544	-2.287206	-2.877454	-27.82179	-37.55883
37.65253	-0.3324777	-0.2132991	-0.221395	-0.1475972	62.35348	82.39671
37.66909	-0.3361447	-0.2181885	-0.2213422	-0.2951229	0.001593084	-4.452846
37.68589	-0.3447012	-0.2243002	-0.5095447	-0.3639601	-8.639286	-2.063494
37.70223	-0.3495905	-0.2291896	-0.2991856	-0.2991874	6.34865	1.954844
37.7188	-0.3557023	-0.2316343	-0.3689054	-0.1475614	-2.11854	4.607376
37.73536	-0.3593693	-0.234079	-0.2213422	-0.1475632	4.453468	-5.441587E-05
37.75196	-0.3605916	-0.234079	-0.07364507	0	4.453406	4.44937
37.76849	-0.361814	-0.234079	-0.07393394	-9.013036E-07	-0.008719011	-2.720453E-05
37.78506	-0.361814	-0.234079	0	0	2.233388	2.722647E-05
37.80172	-0.361814	-0.234079	0	0	0	0
37.8182	-0.361814	-0.234079	0	0	0	0
37.83928	-0.361814	-0.234079	0	0	0	0
37.85584	-0.361814	-0.234079	0	0	0	0
37.87326	-0.361814	-0.234079	0	0	0	0
37.88898	-0.361814	-0.234079	0	0	0	0
37.92605	-0.361814	-0.234079	0	0	0	0
37.94262	-0.3605916	-0.2328566	0.07378072	0.07378253	1.375421	1.375455
37.95924	-0.3557023	-0.2291896	0.2941746	0.220631	6.640798	4.424763
37.97576	-0.3361447	-0.2157438	1.184039	0.8140264	26.85308	17.90665
37.99255	-0.3092532	-0.1974086	1.601786	1.092128	12.54264	8.349875
38.00889	-0.2713605	-0.1692947	2.318706	1.720331	21.63917	18.96138
38.02546	-0.216355	-0.1399584	3.320139	1.77074	30.43001	1.531754
38.04202	-0.1222345	-0.09595405	5.682435	2.656722	71.30243	26.74206
38.09638	-0.08678646	-0.08006356	0.6521038	0.2923226	-70.9268	-33.33762
38.11295	0.1271238	0.01038993	12.91165	5.459784	172.8482	72.85639
38.12951	0.1430143	0.01772399	0.9591503	0.4426851	-360.7272	-151.4163
38.14608	0.1674612	0.02750275	1.475618	0.5902469	15.58703	4.453424
38.16278	0.1894634	0.03605916	1.317739	0.5124542	-4.746233	-2.338634
38.17922	0.2053539	0.04339323	0.9664951	0.4460745	-10.59933	-2.003114
38.19579	0.2175773	0.0482826	0.7378091	0.2951233	-6.92808	-4.573089
38.23579	0.220022	0.0507273	0.06111572	0.0611159	-11.96245	-4.136735
38.25245	0.220022	0.0507273	0	0	-1.078573	-1.078576
38.26902	0.220022	0.0507273	0	0	0	0
38.2855	0.220022	0.0507273	0	0	0	0
38.30206	0.220022	0.0507273	0	0	0	0
38.31863	0.220022	0.0507273	0	0	0	0
38.3352	0.220022	0.0507273	0	0	0	0
38.35201	0.220022	0.0507273	0	0	0	0
38.38005	0.220022	0.0507273	0	0	0	0
38.39661	0.220022	0.0507273	0	0	0	0
38.41359	0.220022	0.0507273	0	0	0	0
38.42975	0.220022	0.0507273	0	0	0	0
38.44632	0.220022	0.0507273	0	0	0	0
38.46288	0.220022	0.0507273	0	0	0	0
38.47945	0.212688	0.04950495	-0.4426844	-0.07378095	-13.36178	-2.22697
38.49672	0.2053539	0.04706026	-0.4245056	-0.1415015	0.5371332	-2.000963
38.51276	0.1894634	0.04339323	-0.9908643	-0.228661	-17.00075	-2.616323
38.54776	0.1711282	0.03850385	-0.5239208	-0.1397123	9.149832	1.742965
38.5647	0.1222345	0.0287251	-2.88611	-0.5772218	-45.48172	-8.423832
38.5813	0.1222345	0.0287251	0	0	86.05281	17.21056
38.59746	0.1112333	0.02628041	-0.6804802	-0.1512178	-20.76887	-4.615302
38.61446	0.1014546	0.0262804	-0.5751495	-1.095538E-07	3.175595	4.559034
38.63059	0.09534287	0.02628041	-0.3789386	1.154875E-07	5.92234	6.792542E-06
38.64716	0.08189708	0.02383572	-0.8115893	-0.1475618	-13.23262	-4.51318
38.66373	0.07334068	0.02261337	-0.5163466	-0.07376374	8.909415	2.226973
38.70331	0.06356192	0.02139103	-0.2470551	-0.03088191	4.795732	0.7636696
38.71989	0.04522675	0.01894634	-1.106203	-0.1474937	-15.29927	-2.076564
38.73645	0.0440044	0.01894634	-0.07379794	0	31.15447	4.450858
38.75301	0.04155971	0.01894634	-0.1475957	0	-2.227732	0
38.77018	0.04155971	0.01894634	0	0	4.375856	0
38.78615	0.04155971	0.01894634	0	0	0	0
38.80286	0.04155971	0.01894634	0	0	0	0
38.81929	0.04155971	0.01894634	0	0	0	0
38.86268	0.04155971	0.01894634	0	0	0	0
38.87925	0.04155971	0.01894634	0	0	0	0
38.89581	0.04155971	0.01894634	0	0	0	0
38.91238	0.04155971	0.01894634	0	0	0	0
38.92935	0.04155971	0.01894634	0	0	0	0
38.94553	0.04033737	0.01772399	-0.07553764	-0.07553764	-2.278419	-2.278419
38.96223	0.03911502	0.017724	-0.07319111	1.115307E-07	0.07136066	2.297189
38.97865	0.03911502	0.017724	0	0	2.210184	-3.367941E-06
39.00865	0.03911502	0.017724	0	0	0	0
39.02534	0.03911502	0.017724	0	0	0	0
39.04178	0.03911502	0.017724	0	0	0	0
39.05843	0.03911502	0.017724	0	0	0	0
39.07492	0.03911502	0.017724	0	0	0	0
39.09177	0.03911502	0.017724	0	0	0	0
39.10879	0.03911502	0.017724	0	0	0	0
39.12463	0.03911502	0.017724	0	0	0	0
39.14119	0.03911502	0.017724	0	0	0	0
39.17482	0.03911502	0.017724	0	0	0	0
39.19375	0.03911502	0.017724	0	0	0	0
39.21032	0.03911502	0.017724	0	0	0	0
39.22689	0.03911502	0.017724	0	0	0	0
39.24346	0.03911502	0.017724	0	0	0	0
39.26003	0.03911502	0.017724	0	0	0	0
39.27659	0.03911502	0.017724	0	0	0	0
39.29316	0.03911502	0.017724	0	0	0	0
39.32819	0.03911502	0.017724	0	0	0	0
39.34476	0.03911502	0.017724	0	0	0	0
39.36138	0.03911502	0.017724	0	0	0	0
39.37789	0.03911502	0.017724	0	0	0	0
39.39488	0.03911502	0.017724	0	0	0	0
39.41103	0.03911502	0.017724	0	0	0	0
39.42759	0.03911502	0.017724	0	0	0	0
39.44455	0.03911502	0.017724	0	0	0	0
39.46072	0.03911502	0.017724	0	0	0	0
39.49839	0.03911502	0.017724	0	0	0	0
39.51496	0.03911502	0.017724	0	0	0	0
39.53153	0.03911502	0.017724	0	0	0	0
39.54813	0.03911502	0.017724	0	0	0	0
39.56507	0.03911502	0.017724	0	0	0	0
39.58123	0.03911502	0.017724	0	0	0	0
39.59785	0.03911502	0.017724	0	0	0	0
39.61436	0.03911502	0.017724	0	0	0	0
39.65349	0.03911502	0.017724	0	0	0	0
39.67006	0.03911502	0.017724	0	0	0	0
39.68663	0.03911502	0.017724	0	0	0	0
39.7032	0.03911502	0.017724	0	0	0	0
39.71976	0.03911502	0.017724	0	0	0	0
39.73633	0.03911502	0.017724	0	0	0	0
39.7529	0.03911502	0.017724	0	0	0	0
39.76946	0.03911502	0.017724	0	0	0	0
39.79831	0.03911502	0.017724	0	0	0	0
39.81522	0.03911502	0.017724	0	0	0	0
39.83144	0.03911502	0.017724	0	0	0	0
39.84801	0.03911502	0.017724	0	0	0	0
39.86458	0.03911502	0.017724	0	0	0	0
39.88131	0.03911502	0.017724	0	0	0	0
39.89781	0.03911502	0.017724	0	0	0	0
39.91449	0.03911502	0.017724	0	0	0	0
39.93095	0.03911502	0.017724	0	0	0	0
39.9511	0.03911502	0.017724	0	0	0	0
39.96767	0.03911502	0.017724	0	0	0	0
39.98424	0.03911502	0.017724	0	0	0	0
40.0008	0.03911502	0.017724	0	0	0	0
40.01737	0.03911502	0.017724	0	0	0	0
40.03442	0.03911502	0.017724	0	0	0	0
40.05091	0.03911502	0.017724	0	0	0	0
40.06707	0.03911502	0.017724	0	0	0	0
40.08377	0.03911502	0.017724	0	0	0	0
40.12138	0.03911502	0.017724	0	0	0	0
40.13832	0.03911502	0.017724	0	0	0	0
40.15452	0.03911502	0.017724	0	0	0	0
40.17109	0.03911502	0.017724	0	0	0	0
40.18766	0.03911502	0.017724	0	0	0	0
40.20462	0.03911502	0.017724	0	0	0	0
40.22079	0.03911502	0.017724	0	0	0	0
40.23759	0.03911502	0.017724	0	0	0	0
40.27685	0.03911502	0.017724	0	0	0	0
40.29342	0.03911502	0.017724	0	0	0	0
40.30998	0.03911502	0.017724	0	0	0	0
40.32655	0.03911502	0.017724	0	0	0	0
40.34354	0.03911503	0.01650165	2.192552E-07	-0.07194211	6.533639E-06	-2.143821
40.35968	0.03911503	0.01650165	0	0	-6.617134E-06	2.171217
40.37625	0.03911503	0.01650165	0	0	0	0
40.39282	0.03911503	0.01650165	0	0	0	0
40.47438	0.03911503	0.01650165	0	0	0	0
40.49095	0.03911503	0.01650165	0	0	0	0
40.50764	0.03911503	0.01650165	0	0	0	0
40.52408	0.03911503	0.01650165	0	0	0	0
40.54065	0.03911503	0.01650165	0	0	0	0
40.55722	0.03911503	0.01650165	0	0	0	0
40.64338	0.03911503	0.01650165	0	0	0	0
40.65995	0.03911503	0.01650165	0	0	0	0
40.67651	0.03911503	0.01650165	0	0	0	0
40.69341	0.03911503	0.01650165	0	0	0	0
40.70964	0.03911503	0.01650165	0	0	0	0
40.74273	0.03911503	0.01650165	0	0	0	0
40.7593	0.03911503	0.01650165	0	0	0	0
40.77586	0.03911503	0.01650165	0	0	0	0
40.79243	0.03911503	0.01650165	0	0	0	0
40.80915	0.03911503	0.01650165	0	0	0	0
40.82557	0.03911503	0.01650165	0	0	0	0
40.84213	0.03911503	0.01650165	0	0	0	0
40.8587	0.03911503	0.01650165	0	0	0	0
40.89712	0.03911503	0.01650165	0	0	0	0
40.91368	0.03911503	0.01650165	0	0	0	0
40.93025	0.03911503	0.01650165	0	0	0	0
40.94682	0.03911503	0.01650165	0	0	0	0
40.96359	0.03911503	0.01650165	0	0	0	0
40.98018	0.03911503	0.01650165	0	0	0	0
40.99652	0.03911503	0.01650165	0	0	0	0
41.01309	0.03911503	0.01650165	0	0	0	0
41.02995	0.03911503	0.01650165	0	0	0	0
41.06526	0.03911503	0.01650165	0	0	0	0
41.08183	0.03911503	0.01650165	0	0	0	0
41.09839	0.03911503	0.01650165	0	0	0	0
41.11496	0.03911503	0.01650165	0	0	0	0
41.13155	0.03911503	0.01650165	0	0	0	0
41.14809	0.03911503	0.01650165	0	0	0	0
41.16466	0.03911503	0.01650165	0	0	0	0
41.18123	0.03911503	0.01650165	0	0	0	0
41.21491	0.03911503	0.01650165	0	0	0	0
41.23148	0.03911503	0.01650165	0	0	0	0
41.24809	0.03911503	0.01650165	0	0	0	0
41.26461	0.03911503	0.01650165	0	0	0	0
41.28127	0.03911503	0.01650165	0	0	0	0
41.29774	0.03911503	0.01650165	0	0	0	0
41.31468	0.03911503	0.01650165	0	0	0	0
41.33088	0.03911503	0.01650165	0	0	0	0
41.34745	0.03911503	0.01650165	0	0	0	0
41.37913	0.03911503	0.01650165	0	0	0	0
41.39585	0.03911503	0.01650165	0	0	0	0
41.41264	0.03911503	0.01650165	0	0	0	0
41.42883	0.03911503	0.01650165	0	0	0	0
41.4454	0.03911503	0.01650165	0	0	0	0
41.46212	0.03911503	0.01650165	0	0	0	0
41.48314	0.03911503	0.01650165	0	0	0	0
41.4951	0.03911503	0.01650165	0	0	0	0
41.53391	0.03911503	0.01650165	0	0	0	0
41.55048	0.03911503	0.01650165	0	0	0	0
41.56705	0.03911503	0.01650165	0	0	0	0
41.58361	0.03911503	0.01650165	0	0	0	0
41.60018	0.03911503	0.01650165	0	0	0	0
41.61674	0.03911503	0.01650165	0	0	0	0
41.63351	0.03911503	0.01650165	0	0	0	0
41.64988	0.03911503	0.01650165	0	0	0	0
41.66645	0.03911503	0.01650165	0	0	0	0
41.69133	0.03911503	0.01650165	0	0	0	0
41.7079	0.03911503	0.01650165	0	0	0	0
41.72446	0.03911503	0.01650165	0	0	0	0
41.74113	0.03911503	0.01650165	0	0	0	0
41.7576	0.03911503	0.01650165	0	0	0	0
41.77436	0.03789268	0.006722894	-0.07292482	-0.5833961	-2.194307	-17.55438
41.79073	0.03422565	-0.01161227	-0.2239725	-1.119864	-4.558629	-16.19062
41.80737	0.0330033	-0.02994744	-0.07349327	-1.102398	4.559319	0.5291913
41.82387	0.0330033	-0.04583792	0	-0.9629202	2.218031	4.209439
41.84494	0.03422564	-0.05439433	0.05801732	-0.406122	1.544207	14.81991
41.86151	0.03667034	-0.05806137	0.1475282	-0.2212919	2.378101	4.91052
41.87807	0.03667034	-0.05806137	0	0	-4.451896	6.677834
41.8947	0.03667034	-0.05806137	0	0	0	0
41.91134	0.04155971	-0.05683902	0.2937705	0.07344273	8.830429	2.207611
41.92777	0.05867254	-0.04461557	1.041566	0.7439756	22.61015	20.27407
41.94434	0.09289818	-0.01772399	2.065388	1.622805	31.02404	26.63044
41.96151	0.1210121	0.003055861	1.637755	1.210514	-12.67544	-12.22067
41.97785	0.1515707	0.02505806	1.869925	1.346346	6.92873	4.05367
42.00922	0.1894634	0.04950495	1.207994	0.7793512	-13.87392	-11.88409
42.02579	0.220022	0.07517419	1.844522	1.549398	13.27884	16.06424
42.04258	0.2285784	0.0837306	0.5096596	0.5096596	-40.019	-31.17124
42.05892	0.2310231	0.08739763	0.1495588	0.2243382	-10.86786	-8.611017
42.07549	0.2346901	0.092287	0.2213422	0.2951233	2.18099	2.150661
42.09205	0.2371348	0.09839872	0.1475963	0.368989	-2.22591	2.229527
42.10862	0.2408019	0.1045104	0.2213422	0.3689045	2.22591	-0.002550194
42.12519	0.2444689	0.1118445	0.2213431	0.4426852	2.698308E-05	2.226707
42.14175	0.2481359	0.1167339	0.2213422	0.2951233	-2.698308E-05	-4.453427
42.17355	0.2505806	0.1216233	0.07688775	0.153776	-2.986895	-2.922651
42.19017	0.2615817	0.1362914	0.6618947	0.8825256	12.08289	15.05179
42.20668	0.2640264	0.1399585	0.1480387	0.2220589	-15.5082	-19.93293
42.22326	0.2652487	0.1411808	0.07376374	0.07376374	-2.244982	-4.482265
42.23982	0.2676934	0.1448478	0.1475954	0.2213932	2.228245	4.455464
42.25639	0.2676934	0.1472925	0	0.1475614	-4.454952	-2.228502
42.27296	0.2676934	0.1472925	0	0	0	-4.4529
42.28952	0.2676934	0.1472925	0	0	0	0
42.32537	0.2676934	0.1472925	0	0	0	0
42.34194	0.2676934	0.1472925	0	0	0	0
42.3586	0.2676934	0.1472925	0	0	0	0
42.37523	0.2676934	0.1472925	0	0	0	0
42.39189	0.2676934	0.1472925	0	0	0	0
42.40824	0.2676934	0.1472925	0	0	0	0
42.42477	0.2676935	0.1485149	1.802607E-06	0.07393394	5.48257E-05	2.248676
42.44441	0.2676935	0.1485149	0	0	-4.983051E-05	-2.043798
42.50503	0.2676935	0.1485149	0	0	0	0
42.52185	0.2676935	0.1485149	0	0	0	0
42.53817	0.2676935	0.1485149	0	0	0	0
42.55473	0.2676935	0.1485149	0	0	0	0
42.5713	0.2689158	0.1485149	0.07376374	0	2.225938	0
42.58787	0.2689158	0.1485149	0	0	-2.226194	0
42.60454	0.2689158	0.1485149	0	0	0	0
42.66782	0.2689158	0.1485149	0	0	0	0
42.68438	0.2689158	0.1485149	0	0	0	0
42.70095	0.2689158	0.1485149	0	0	0	0
42.71762	0.2652487	0.1448478	-0.2199261	-0.2199252	-6.616055	-6.616028
42.73425	0.25547	0.1399584	-0.5880811	-0.2940396	-11.05494	-2.225505
42.75065	0.2444689	0.1338467	-0.6708228	-0.3726802	-2.505226	-2.381054
42.76722	0.2298008	0.1228456	-0.8853705	-0.6640274	-6.508029	-8.837643
42.78383	0.2090209	0.1130669	-1.251105	-0.5887555	-11.02394	2.268837
42.80036	0.1650165	0.092287	-2.662241	-1.25717	-42.58327	-20.17046
42.81692	0.1552378	0.08739763	-0.5903817	-0.2951913	62.60814	29.06938
42.83349	0.1295685	0.07517418	-1.549399	-0.7378086	-28.94652	-13.35975
42.85019	0.1026769	0.06050605	-1.610203	-0.878292	-1.827697	-4.222781
42.86662	0.06845129	0.04217088	-2.083132	-1.115964	-14.27468	-7.173769
42.8834	0.03911503	0.02750275	-1.748198	-0.8740993	10.08509	7.282711
42.89976	0.01222344	0.01161227	-1.643999	-0.9714538	3.144386	-2.937827
42.91632	-0.01222344	-0.0006111722	-1.475957	-0.7379785	5.104418	7.092021
42.96153	-0.02933627	-0.01405696	-0.3785355	-0.2974207	17.76585	7.132068
42.9781	-0.06111722	-0.03728151	-1.918302	-1.401837	-24.92532	-17.87798
42.99467	-0.06233957	-0.03850385	-0.07376374	-0.07376374	55.66188	40.0767
43.01123	-0.06600661	-0.0397262	-0.2213431	-0.07378095	-4.45344	-0.0005191396
43.0278	-0.06845129	-0.04339323	-0.1475954	-0.2213936	2.225964	-4.455472
43.04437	-0.06967364	-0.04461557	-0.07376419	-0.07376374	2.228231	4.455478
43.06094	-0.07089598	-0.04583792	-0.07378072	-0.07378095	-0.0004989046	-0.0005191396
43.0777	-0.07211833	-0.04583792	-0.07290778	0	0.02618882	2.213462
43.11709	-0.07211833	-0.04583792	0	0	1.298304	0
43.13372	-0.07211833	-0.04583792	0	0	0	0
43.15023	-0.07211833	-0.04583792	0	0	0	0
43.16679	-0.07211833	-0.04583792	0	0	0	0
43.18336	-0.07211833	-0.04583792	0	0	0	0
43.19999	-0.07211833	-0.04583792	0	0	0	0
43.2165	-0.07211833	-0.04583792	0	0	0	0
43.2334	-0.07211833	-0.04583792	0	0	0	0
43.2688	-0.07211833	-0.04583792	0	0	0	0
43.28536	-0.07211833	-0.04583792	0	0	0	0
43.30193	-0.07211833	-0.04583792	0	0	0	0
43.3185	-0.07211833	-0.04583792	0	0	0	0
43.33507	-0.07211833	-0.04583792	0	0	0	0
43.35187	-0.07211833	-0.04583792	0	0	0	0
43.36826	-0.07211833	-0.04583792	0	0	0	0
43.38477	-0.07211833	-0.04583792	0	0	0	0
43.40135	-0.07211833	-0.04583792	0	0	0	0
43.41798	-0.07211833	-0.04583792	0	0	0	0
43.43449	-0.07211833	-0.04583792	0	0	0	0
43.45118	-0.07211833	-0.04583792	0	0	0	0
43.46762	-0.07211833	-0.04583792	0	0	0	0
43.48419	-0.07211833	-0.04583792	0	0	0	0
43.50141	-0.07211833	-0.04583792	0	0	0	0
43.51733	-0.07211833	-0.04583792	0	0	0	0
43.53389	-0.07211833	-0.04583792	0	0	0	0
43.55092	-0.07211833	-0.04583792	0	0	0	0
43.59236	-0.07211833	-0.04583792	0	0	0	0
43.60893	-0.07211833	-0.04583792	0	0	0	0
43.62565	-0.07211833	-0.04583792	0	0	0	0
43.64206	-0.07211833	-0.04583792	0	0	0	0
43.65863	-0.07211833	-0.04583792	0	0	0	0
43.6752	-0.07211833	-0.04583792	0	0	0	0
43.69176	-0.07211833	-0.04583792	0	0	0	0
43.70833	-0.07211833	-0.04583792	0	0	0	0
43.72639	-0.07211833	-0.04583792	0	0	0	0
43.74338	-0.07211833	-0.04583792	0	0	0	0
43.76006	-0.07211833	-0.04583792	0	0	0	0
43.7761	-0.07211833	-0.04583792	0	0	0	0
43.79267	-0.07211833	-0.04583792	0	0	0	0
43.80923	-0.07211833	-0.04583792	0	0	0	0
43.8258	-0.07211833	-0.04583792	0	0	0	0
43.84237	-0.07211833	-0.04583792	0	0	0	0
43.85894	-0.07211833	-0.04583792	0	0	0	0
43.89599	-0.07211833	-0.04583792	0	0	0	0
43.91256	-0.07211833	-0.04583792	0	0	0	0
43.92913	-0.07211833	-0.04583792	0	0	0	0
43.94569	-0.07211833	-0.04583792	0	0	0	0
43.96304	-0.07211833	-0.04583792	0	0	0	0
43.97916	-0.07211833	-0.04583792	0	0	0	0
43.9954	-0.07211833	-0.04583792	0	0	0	0
44.01197	-0.07211833	-0.04583792	0	0	0	0
44.03863	-0.07211833	-0.04583792	0	0	0	0
44.05547	-0.07211833	-0.04583792	0	0	0	0
44.07177	-0.07211833	-0.04583792	0	0	0	0
44.08833	-0.07211833	-0.04583792	0	0	0	0
44.10502	-0.07211833	-0.04583792	0	0	0	0
44.12181	-0.07211833	-0.04583792	0	0	0	0
44.13803	-0.07211833	-0.04583792	0	0	0	0
44.1546	-0.07211833	-0.04583792	0	0	0	0
44.17135	-0.07211833	-0.04583792	0	0	0	0
44.20228	-0.07211833	-0.04583792	0	0	0	0
44.21885	-0.07211833	-0.04583792	0	0	0	0
44.23542	-0.07211833	-0.04583792	0	0	0	0
44.25198	-0.07089598	-0.04583792	0.07378072	0	2.226707	0
44.26856	-0.07089598	-0.04583792	0	0	-2.226194	0
44.28513	-0.07089598	-0.04583792	0	0	0	0
44.30169	-0.07089598	-0.04583792	0	0	0	0
44.31826	-0.07089598	-0.04583792	0	0	0	0
44.34878	-0.07089598	-0.04583792	0	0	0	0
44.36535	-0.07089598	-0.04583792	0	0	0	0
44.38192	-0.07089598	-0.04583792	0	0	0	0
44.39848	-0.07089598	-0.04583792	0	0	0	0
44.41505	-0.07089598	-0.04583792	0	0	0	0
44.43162	-0.07089598	-0.04583792	0	0	0	0
44.44818	-0.07089598	-0.04583792	0	0	0	0
44.46494	-0.07089598	-0.04583792	0	0	0	0
44.48145	-0.07089598	-0.04583792	0	0	0	0
44.50883	-0.07089598	-0.04583792	0	0	0	0
44.5254	-0.06845129	-0.04339323	0.1475279	0.1475277	3.356497	3.356492
44.54208	-0.06845129	-0.04217088	4.468371E-07	0.07330854	-4.437572	-2.232485
44.55854	-0.06722894	-0.04094854	0.07425949	0.07425949	2.241142	0.02869965
44.5751	-0.06722894	-0.04094854	0	0	-2.248404	-2.248404
44.59167	-0.06722894	-0.04094854	0	0	0	0
44.60824	-0.06722894	-0.04094854	0	0	0	0
44.62482	-0.06600661	-0.0397262	0.07369543	0.07369588	2.222853	2.222867
44.64137	-0.06600661	-0.0397262	0	0	-2.224133	-2.224146
44.67126	-0.06600661	-0.0397262	0	0	0	0
44.68784	-0.06600661	-0.0397262	0	0	0	0
44.7044	-0.06600661	-0.0397262	0	0	0	0
44.72106	-0.06600661	-0.0397262	0	0	0	0
44.74282	-0.06600661	-0.0397262	0	0	0	0
44.7594	-0.06600661	-0.0397262	0	0	0	0
44.77596	-0.06600661	-0.0397262	0	0	0	0
44.7927	-0.06600661	-0.0397262	0	0	0	0
44.8091	-0.06600661	-0.0397262	0	0	0	0
44.83483	-0.06600661	-0.0397262	0	0	0	0
44.85152	-0.06600661	-0.0397262	0	0	0	0
44.86797	-0.06600661	-0.0397262	0	0	0	0
44.88453	-0.06600661	-0.0397262	0	0	0	0
44.9011	-0.06600661	-0.0397262	0	0	0	0
44.91766	-0.06600661	-0.0397262	0	0	0	0
44.93423	-0.06600661	-0.0397262	0	0	0	0
44.9508	-0.06600661	-0.0397262	0	0	0	0
44.96804	-0.06600661	-0.0397262	0	0	0	0
45.02409	-0.06600661	-0.0397262	0	0	0	0
