Time	Pos X	Pos Y	Vel X	Vel Y	Acc X	Acc Y
0.01605748	0.1014546	0.07884122	-0.002254848	-0.001752262	5.013348E-05	3.895915E-05
0.034491	0.1014546	0.07884122	0	0	-5.013499E-05	-3.896033E-05
0.05106284	0.1014546	0.07884122	0	0	0	0
0.06762916	0.1014546	0.07884122	0	0	0	0
0.09416385	0.1014546	0.07884122	0	0	0	0
0.1107337	0.1014546	0.0837306	0	0.2950763	0	6.845592
0.1272985	0.1014546	0.0837306	0	0	0	-8.905379
0.1441016	0.1014546	0.08495294	0	0.07274472	0	2.18008
0.1604343	0.1014546	0.08495294	0	0	0	-2.195351
0.1772485	0.1014546	0.08495294	0	0	0	0
0.1935693	0.1014546	0.08495294	0	0	0	0
0.2104352	0.1014546	0.08495294	0	0	0	0
0.2267031	0.1014546	0.08495294	0	0	0	0
0.2555057	0.1014546	0.08495294	0	0	0	0
0.272074	0.1014546	0.08495294	0	0	0	0
0.2887172	0.1014546	0.08495294	0	0	0	0
0.3052768	0.1014546	0.08495294	0	0	0	0
0.3217761	0.1014546	0.08495294	0	0	0	0
0.338342	0.1014546	0.08495294	0	0	0	0
0.3552924	0.1014546	0.08739763	0	0.144226	0	4.303153
0.3716925	0.1026769	0.0947317	0.07453248	0.4471953	2.23482	9.084386
0.3880413	0.1038993	0.1008434	0.0747669	0.3738331	0.007158022	-2.24014
0.4284209	0.106344	0.1032881	0.06054263	0.06054263	-0.2507434	-5.522643
0.4449912	0.106344	0.1057328	0	0.1475348	-1.063087	1.527524
0.4621492	0.106344	0.1057328	0	0	0	-4.374211
0.4781242	0.106344	0.1057328	0	0	0	0
0.4946889	0.106344	0.1057328	0	0	0	0
0.5112556	0.106344	0.1057328	0	0	0	0
0.5278223	0.106344	0.1057328	0	0	0	0
0.5443898	0.106344	0.1057328	0	0	0	0
0.5792314	0.106344	0.1032881	0	-0.07016602	0	-1.364857
0.5957989	0.1051216	0.04706027	-0.0737794	-3.393858	-1.435144	-64.65187
0.6123668	0.1051216	0.03850385	0	-0.5164458	2.226603	86.83797
0.6289355	0.106344	0.03116979	0.07377435	-0.4426469	2.226374	2.227113
0.6455041	0.106344	0.02139103	4.496791E-07	-0.590196	-2.226309	-4.452654
0.6622757	0.106344	0.02016868	-4.442375E-07	-0.07288172	-2.681192E-05	15.5162
0.6786336	0.106344	0.02016868	0	0	1.340912E-05	2.199903
0.6952015	0.106344	0.02016868	0	0	0	0
0.72973	0.106344	0.02016868	0	0	0	0
0.7463011	0.106344	0.02383572	0	0.2212917	0	4.3306
0.7628662	0.106344	0.0287251	0	0.2951606	0	2.229253
0.7794321	0.106344	0.04094854	0	0.7378669	0	13.36227
0.7959988	0.106344	0.05439433	0	0.8116156	0	2.225865
0.8125651	0.106344	0.05806136	-4.497422E-07	0.2213546	-1.357383E-05	-17.81488
0.8291327	0.106344	0.06417309	8.994197E-07	0.3688979	4.071852E-05	4.452946
0.8456978	0.106344	0.07028481	0	0.368951	-2.714601E-05	0.001602881
0.8622669	0.106344	0.0727295	-4.496678E-07	0.147545	-1.35711E-05	-6.682095
0.8793942	0.106344	0.07639653	4.350126E-07	0.2141049	2.625449E-05	1.975286
0.8959617	0.106344	0.07639653	0	0	-1.291038E-05	-6.354242
0.9125308	0.106344	0.07639653	0	0	0	0
0.9291263	0.1038993	0.07639654	-0.1473102	4.489507E-07	-4.441786	1.353704E-05
0.9456646	0.1002323	0.0727295	-0.2217295	-0.22173	-2.246021	-6.691958
0.9628029	0.09656522	0.07028481	-0.2139672	-0.1426445	0.2304965	2.348379
0.9787977	0.09534287	0.06906246	-0.07642157	-0.07642204	4.151314	1.998684
0.9953652	0.09534287	0.06906246	0	0	2.346937	2.346951
1.01193	0.09534287	0.06906246	0	0	0	0
1.029097	0.09534287	0.06906246	0	0	0	0
1.045667	0.08189708	0.07028481	-0.8114613	0.07376905	-24.05201	2.186541
1.062234	0.07578536	0.07028481	-0.3689147	4.497309E-07	13.35522	-2.226197
1.078799	0.07211832	0.07150715	-0.2213765	0.07379142	4.453111	2.227216
1.095366	0.06478426	0.07395184	-0.4426975	0.1475661	-6.680082	2.226726
1.111937	0.05989488	0.07517418	-0.295049	0.07376215	4.455543	-2.22716
1.128503	0.05745019	0.07639653	-0.1475702	0.07378542	4.450489	0.0007023912
1.14507	0.05622784	0.07639653	-0.0737833	0	2.226988	-2.226945
1.161637	0.05622784	0.07639653	0	0	2.226825	0
1.211744	0.05622784	0.07639653	0	0	0	0
1.228312	0.05622784	0.07639653	0	0	0	0
1.244878	0.05622784	0.07639653	0	0	0	0
1.261987	0.05622784	0.07639653	0	0	0	0
1.278014	0.05622784	0.07639653	0	0	0	0
1.294739	0.05622784	0.07639653	0	0	0	0
1.311272	0.05622784	0.07639653	0	0	0	0
1.35848	0.05622784	0.07639653	0	0	0	0
1.384922	0.05622784	0.07639653	0	0	0	0
1.40149	0.05622784	0.07639653	0	0	0	0
1.418061	0.05622785	0.07517419	2.248121E-07	-0.07376533	6.783914E-06	-2.225938
1.434624	0.05622784	0.07028481	-2.249091E-07	-0.2951896	-1.357271E-05	-6.682647
1.451622	0.06111722	0.05194964	0.2876413	-1.078655	8.570528	-23.34403
1.467758	0.06356192	0.0397262	0.1515086	-0.7575405	-4.108568	9.691436
1.524873	0.06478426	0.03116979	0.02140135	-0.1498097	-1.776186	8.296565
1.541441	0.07334068	0.00550055	0.5164441	-1.549331	6.718535	-18.99378
1.558009	0.07578536	0.003055861	0.1475551	-0.1475554	-11.13261	42.30386
1.574575	0.07945239	-0.001833517	0.2213597	-0.2951468	2.227468	-4.454398
1.591144	0.08434176	-0.00550055	0.2950979	-0.2213235	2.225414	2.227985
1.607712	0.0904535	-0.00794524	0.3688811	-0.1475522	2.226614	2.226253
1.624279	0.1002323	-0.01038993	0.5902637	-0.1475659	6.68122	-0.0004137331
1.655464	0.1026769	-0.01038993	0.07839318	0	-10.71943	3.090278
1.672033	0.1026769	-0.01038993	0	0	-1.641591	0
1.6886	0.1026769	-0.01038993	0	0	0	0
1.705167	0.1026769	-0.01038993	0	0	0	0
1.721743	0.1026769	-0.01038993	0	0	0	0
1.738399	0.1026769	-0.01038993	0	0	0	0
1.75487	0.1026769	-0.01038993	0	0	0	0
1.771546	0.1026769	-0.01038993	0	0	0	0
1.788001	0.1026769	-0.01038993	0	0	0	0
1.834895	0.1026769	-0.01038993	0	0	0	0
1.851463	0.1051216	-0.01527931	0.1475598	-0.2951192	2.32518	-4.650354
1.86803	0.106344	-0.01650165	0.07377966	-0.07377978	-2.226656	6.679942
1.884597	0.106344	-0.01772399	0	-0.07378296	-2.226691	-9.601547E-05
1.901432	0.106344	-0.01772399	0	0	0	2.208948
1.917732	0.106344	-0.01772399	0	0	0	0
1.93456	0.106344	-0.01772399	0	0	0	0
1.950867	0.106344	-0.01772399	0	0	0	0
1.984294	0.106344	-0.01772399	0	0	0	0
2.000862	0.106344	-0.01772399	0	0	0	0
2.01743	0.106344	-0.01772399	0	0	0	0
2.033996	0.1075663	-0.01772399	0.07378604	0	2.226899	0
2.050566	0.1112334	-0.02016868	0.221308	-0.1475384	4.452031	-4.452527
2.067133	0.1124557	-0.02016869	0.07377966	-1.124279E-07	-4.452031	4.452331
2.0837	0.1149004	-0.02261337	0.1475699	-0.1475701	2.227043	-4.453766
2.100304	0.1307909	-0.03116979	0.9570174	-0.5153166	24.40266	-11.08657
2.133786	0.1332355	-0.03239213	0.07301428	-0.03650742	-17.64961	9.559691
2.150627	0.1332355	-0.03239213	0	0	-1.450906	0.7254583
2.166921	0.1332355	-0.03239213	0	0	0	0
2.183488	0.1332355	-0.03239213	0	0	0	0
2.200282	0.1332355	-0.03239213	0	0	0	0
2.216626	0.1332355	-0.03239213	0	0	0	0
2.233192	0.1332355	-0.03239213	0	0	0	0
2.24987	0.1332355	-0.03239213	0	0	0	0
2.266326	0.1332355	-0.03239213	0	0	0	0
2.30755	0.1332355	-0.03239213	0	0	0	0
2.324118	0.1332355	-0.03239213	0	0	0	0
2.340686	0.1332355	-0.03239213	0	0	0	0
2.357254	0.1332355	-0.03239213	0	0	0	0
2.373851	0.1332355	-0.03239213	0	0	0	0
2.390389	0.1332355	-0.03239213	0	0	0	0
2.406956	0.1332355	-0.03239213	0	0	0	0
2.423895	0.1332355	-0.03239213	0	0	0	0
2.467487	0.1332355	-0.03239213	0	0	0	0
2.484056	0.1332355	-0.03239213	0	0	0	0
2.500622	0.1332355	-0.03239213	0	0	0	0
2.517189	0.1332355	-0.03239213	0	0	0	0
2.533758	0.1332355	-0.03239213	0	0	0	0
2.553121	0.1332355	-0.03239213	0	0	0	0
2.570147	0.1332355	-0.03239213	0	0	0	0
2.58628	0.1332355	-0.03239213	0	0	0	0
2.609824	0.1332355	-0.03239213	0	0	0	0
2.626392	0.1283462	-0.02994744	-0.2951102	0.1475553	-7.357151	3.678581
2.642959	0.1234568	-0.02628041	-0.2951318	0.221349	-0.0006538852	2.227082
2.659527	0.1173451	-0.02261337	-0.3688992	0.2213394	-2.22632	-0.000288721
2.676093	0.1075663	-0.01527931	-0.5902807	0.4427105	-6.681449	6.681138
2.69266	0.1002323	-0.007945239	-0.4426789	0.4426789	4.454727	-0.000956121
2.709514	0.09412052	0.001833517	-0.3626266	0.5802022	2.395231	4.114813
2.725807	0.08556411	0.02139103	-0.5251648	1.200377	-4.903577	18.70991
2.742362	0.08067474	0.04217089	-0.2953486	1.255232	6.996479	1.670006
2.759031	0.07823005	0.06295074	-0.1466607	1.246614	4.475368	-0.2593972
2.775601	0.07578535	0.09962106	-0.1475385	2.213075	-0.026411	29.07621
2.792606	0.07456301	0.1106222	-0.07188149	0.6469355	2.253387	-46.64625
2.808736	0.07089598	0.1387361	-0.2273391	1.742936	-4.691618	33.07664
2.8253	0.05378316	0.1974086	-1.033141	3.542195	-24.64669	55.03314
2.841866	0.03544799	0.2524141	-1.106745	3.320235	-2.221628	-6.699547
2.858563	0.02689158	0.2756387	-0.5124615	1.390968	17.86595	-57.9996
2.875002	0.01711282	0.3135314	-0.5948697	2.30512	-2.487031	27.58855
2.891595	0.009778756	0.340423	-0.4419919	1.620637	4.628216	-20.72198
2.943631	0.008556411	0.3465347	-0.02349046	0.117452	6.098023	-21.90306
2.960203	0.008556412	0.3502017	5.619776E-08	0.2212753	0.3423872	1.513281
2.976768	0.008556412	0.3502017	0	0	-1.695917E-06	-6.677573
2.993335	0.008556412	0.3502017	0	0	0	0
3.010894	0.008556412	0.3502017	0	0	0	0
3.026597	0.008556412	0.3502017	0	0	0	0
3.043037	0.008556412	0.3502017	0	0	0	0
3.079146	0.008556412	0.3502017	0	0	0	0
3.096288	0.008556412	0.3502017	0	0	0	0
3.11228	0.008556412	0.3502017	0	0	0	0
3.12892	0.008556412	0.3502017	0	0	0	0
3.14581	0.008556412	0.3502017	0	0	0	0
3.162063	0.007334067	0.3526464	-0.07520732	0.1504144	-2.269125	4.538242
3.178707	0.002444689	0.3563134	-0.2937664	0.2203262	-6.643788	2.125187
3.195117	-0.003667034	0.3599805	-0.3724363	0.2234614	-2.380052	0.09485224
3.211684	-0.01222344	0.3624251	-0.5164958	0.1475699	-4.368563	-2.301388
3.255684	-0.02689158	0.3660922	-0.333362	0.08334033	3.023662	-1.060474
3.272268	-0.04767143	0.3685369	-1.252994	0.1474108	-15.17926	1.057534
3.288822	-0.05011613	0.3685369	-0.1476852	0	33.35517	-4.448452
3.305389	-0.05133847	0.3685369	-0.07378201	0	2.231349	0
3.321955	-0.05133847	0.3685369	0	0	2.226826	0
3.338728	-0.05133847	0.3685369	0	0	0	0
3.355249	-0.05133847	0.3685369	0	0	0	0
3.371657	-0.05133847	0.3685369	0	0	0	0
3.421585	-0.05133847	0.3685369	0	0	0	0
3.438207	-0.05133847	0.3685369	0	0	0	0
3.454721	-0.05133847	0.3685369	0	0	0	0
3.471287	-0.05133847	0.3685369	0	0	0	0
3.487856	-0.05133847	0.3685369	0	0	0	0
3.504663	-0.05133847	0.3685369	0	0	0	0
3.520989	-0.05133847	0.3685369	0	0	0	0
3.537691	-0.05133847	0.3685369	0	0	0	0
3.576511	-0.05133847	0.3685369	0	0	0	0
3.593079	-0.05133847	0.3685369	0	0	0	0
3.609648	-0.05133847	0.3685369	0	0	0	0
3.626258	-0.05133847	0.3685369	0	0	0	0
3.642782	-0.05133847	0.3685369	0	0	0	0
3.659708	-0.05133847	0.3685369	0	0	0	0
3.675914	-0.05133847	0.3685369	0	0	0	0
3.692484	-0.05133847	0.3685369	0	0	0	0
3.72503	-0.05133847	0.3685369	0	0	0	0
3.741597	-0.05133847	0.3685369	0	0	0	0
3.75839	-0.05133847	0.3685369	0	0	0	0
3.774731	-0.05133847	0.3685369	0	0	0	0
3.7913	-0.05133847	0.3685369	0	0	0	0
3.807867	-0.05133847	0.3685369	0	0	0	0
3.824435	-0.05133847	0.3685369	0	0	0	0
3.847541	-0.05133847	0.3685369	0	0	0	0
3.871847	-0.05133847	0.3685369	0	0	0	0
3.888414	-0.05133847	0.3685369	0	0	0	0
3.904985	-0.05133847	0.3685369	0	0	0	0
3.921553	-0.05133847	0.3685369	0	0	0	0
3.93825	-0.05133847	0.3685369	0	0	0	0
3.954928	-0.05133847	0.3685369	0	0	0	0
3.971252	-0.05133847	0.3685369	0	0	0	0
3.988065	-0.05133847	0.3685369	0	0	0	0
4.004423	-0.05133847	0.3685369	0	0	0	0
4.020952	-0.05133847	0.3685369	0	0	0	0
4.053595	-0.05133847	0.3685369	0	0	0	0
4.070373	-0.05133847	0.3685369	0	0	0	0
4.08673	-0.05133847	0.3685369	0	0	0	0
4.103296	-0.05133847	0.3685369	0	0	0	0
4.119866	-0.05133847	0.3685369	0	0	0	0
4.136432	-0.05133847	0.3685369	0	0	0	0
4.153378	-0.05133847	0.3685369	0	0	0	0
4.169565	-0.05133847	0.3685369	0	0	0	0
4.186309	-0.05133847	0.3685369	0	0	0	0
4.224354	-0.05133847	0.3685369	0	0	0	0
4.240921	-0.05133847	0.3685369	0	0	0	0
4.25749	-0.05133847	0.3685369	0	0	0	0
4.274055	-0.05133847	0.3685369	0	0	0	0
4.290625	-0.05133847	0.3685369	0	0	0	0
4.30719	-0.05133847	0.3685369	0	0	0	0
4.324124	-0.05011613	0.3685369	0.07218126	0	2.154683	0
4.340326	-0.04889378	0.3685369	0.07544672	0	0.09854738	0
4.37269	-0.04767144	0.3673145	0.03776859	-0.0377687	-0.7758227	-0.7776877
4.38926	-0.04767144	0.3673145	0	0	-0.7718274	0.7718297
4.405825	-0.04767144	0.3673145	0	0	0	0
4.422393	-0.04767144	0.3673145	0	0	0	0
4.439605	-0.04767144	0.3673145	0	0	0	0
4.45564	-0.04767144	0.3673145	0	0	0	0
4.472096	-0.04767144	0.3673145	0	0	0	0
4.48866	-0.04767144	0.3673145	0	0	0	0
4.505245	-0.04767144	0.3673145	0	0	0	0
4.55373	-0.04767144	0.3673145	0	0	0	0
4.570299	-0.04889378	0.3636475	-0.07377435	-0.2213231	-1.134049	-3.402147
4.586865	-0.04889378	0.3636475	0	0	2.226514	6.679543
4.603432	-0.05011612	0.3624251	-0.07378285	-0.07378285	-2.226899	-2.226899
4.620005	-0.05256081	0.3612028	-0.1475067	-0.07375313	-2.224607	0.0008968075
4.636569	-0.05500551	0.3612028	-0.1475959	0	-0.002690919	2.225713
4.653131	-0.05867254	0.3587581	-0.2213998	-0.1476015	-2.22795	-4.455712
4.683319	-0.06233957	0.3575357	-0.1214767	-0.04049217	2.137388	2.291105
4.699889	-0.0660066	0.351424	-0.2213042	-0.3688399	-2.135016	-7.022397
4.716456	-0.06722895	0.3489794	-0.07378118	-0.1475614	4.451869	6.677621
4.733023	-0.06845129	0.3453123	-0.0737824	-0.2213503	-3.68774E-05	-2.226985
4.749591	-0.07089598	0.340423	-0.1475539	-0.2951041	-2.226395	-2.225861
4.766158	-0.07334067	0.3343112	-0.1475657	-0.368916	-0.0003570709	-2.227616
4.782982	-0.07578536	0.3257548	-0.1453035	-0.5085609	0.06774619	-4.182051
4.799291	-0.08434178	0.2951962	-0.5246662	-1.873807	-11.44968	-41.20498
4.815856	-0.09534288	0.2499695	-0.6640852	-2.730127	-4.240998	-26.04848
4.861085	-0.1026769	0.1961863	-0.1621539	-1.189131	8.122555	24.93732
4.877825	-0.1051216	0.1069551	-0.1460398	-5.330465	0.2600355	-66.82933
4.894221	-0.106344	0.09839873	-0.07455366	-0.5218729	2.157395	145.1194
4.910788	-0.106344	0.08861997	4.497309E-07	-0.5902641	2.261798	-2.07483
4.927846	-0.106344	0.08373059	-8.735394E-07	-0.2866262	-3.935362E-05	9.030091
4.943986	-0.106344	0.08128591	4.616225E-07	-0.1514676	4.021771E-05	4.071244
4.961087	-0.106344	0.08006357	-4.356858E-07	-0.07147861	-2.699419E-05	2.40635
4.977058	-0.106344	0.08006357	0	0	1.317367E-05	2.161272
5.012065	-0.106344	0.08006357	0	0	0	0
5.028824	-0.106344	0.08006357	0	0	0	0
5.045201	-0.106344	0.08006357	0	0	0	0
5.062491	-0.106344	0.07761887	0	-0.1413925	0	-4.199664
5.078846	-0.106344	0.07028481	0	-0.4484544	0	-9.126743
5.094902	-0.106344	0.06050605	4.640354E-07	-0.6090386	1.43176E-05	-4.954751
5.111471	-0.1026769	0.03605916	0.2213103	-1.475405	6.783304	-26.55474
5.128034	-0.09778756	0.01650165	0.2952003	-1.1808	2.230131	8.891712
5.168068	-0.09656521	0.003055861	0.03053256	-0.3358568	-4.676336	14.92905
5.184637	-0.09534287	-0.01894634	0.07377391	-1.327941	0.7639414	-17.52707
5.201205	-0.09534287	-0.01894634	0	0	-2.226341	40.07445
5.217893	-0.09534287	-0.02139103	0	-0.1464949	0	-4.40506
5.234342	-0.09534287	-0.02139103	0	0	0	4.420907
5.251026	-0.09534287	-0.02139103	0	0	0	0
5.267605	-0.09534287	-0.02139103	0	0	0	0
5.292606	-0.09534287	-0.02139103	0	0	0	0
5.321196	-0.09534287	-0.02139103	0	0	0	0
5.337774	-0.09534287	-0.02139103	0	0	0	0
5.354333	-0.09534287	-0.02139103	0	0	0	0
5.370901	-0.09534287	-0.02139103	0	0	0	0
5.387466	-0.09534287	-0.02139103	0	0	0	0
5.404032	-0.09534287	-0.02139103	0	0	0	0
5.420598	-0.09534287	-0.02139103	0	0	0	0
5.437313	-0.09534287	-0.02139103	0	0	0	0
5.453732	-0.09534287	-0.02139103	0	0	0	0
5.471169	-0.09534287	-0.02139103	0	0	0	0
5.487737	-0.09534287	-0.02139103	0	0	0	0
5.504307	-0.09534287	-0.02139103	0	0	0	0
5.521805	-0.09534287	-0.02139103	0	0	0	0
5.537598	-0.09534287	-0.02139103	0	0	0	0
5.554009	-0.09534287	-0.02139103	0	0	0	0
5.570619	-0.09534287	-0.02139103	0	0	0	0
5.587142	-0.09534287	-0.02139103	0	0	0	0
5.603709	-0.09534287	-0.02139103	0	0	0	0
5.641473	-0.09534287	-0.02139103	0	0	0	0
5.658043	-0.09534287	-0.02139103	0	0	0	0
5.674609	-0.09534287	-0.02139103	0	0	0	0
5.691176	-0.09534287	-0.02139103	0	0	0	0
5.707743	-0.09534287	-0.02139103	0	0	0	0
5.724428	-0.09534287	-0.02139103	0	0	0	0
5.741101	-0.09534287	-0.02139103	0	0	0	0
5.757443	-0.09534287	-0.02139103	0	0	0	0
5.778841	-0.09534287	-0.02139103	0	0	0	0
5.795411	-0.09534287	-0.02139103	0	0	0	0
5.811978	-0.09534287	-0.02139103	0	0	0	0
5.828545	-0.09534287	-0.02139103	0	0	0	0
5.845516	-0.09534287	-0.02139103	0	0	0	0
5.861678	-0.09534287	-0.02139103	0	0	0	0
5.878244	-0.09534287	-0.02139103	0	0	0	0
5.894812	-0.09534287	-0.02139103	0	0	0	0
5.911806	-0.09534287	-0.02139103	0	0	0	0
5.955223	-0.09534287	-0.02139103	0	0	0	0
5.972152	-0.09534287	-0.01772399	0	0.2166107	0	3.589471
5.988359	-0.09534287	-0.01772399	0	0	0	-6.536946
6.004927	-0.09534287	-0.01650165	4.49705E-07	0.07377871	1.372101E-05	2.251072
6.021497	-0.09534287	-0.01405696	0	0.1475362	-1.357076E-05	2.225783
6.038064	-0.09534287	-0.01038993	-4.497309E-07	0.2213489	-1.357193E-05	2.227509
6.054631	-0.09412052	-0.009167584	0.07378118	0.07378089	2.226766	-4.453675
6.071414	-0.09167584	-0.006722894	0.1456623	0.1456625	2.155325	2.155342
6.11799	-0.09167584	-0.006722894	0	0	-2.298972	-2.298976
6.134559	-0.09167584	-0.01161227	0	-0.295098	0	-4.673327
6.151125	-0.09167583	-0.01283462	4.497568E-07	-0.0737872	1.357369E-05	6.679172
6.167691	-0.09167583	-0.01283462	0	0	-1.357486E-05	2.227095
6.184259	-0.09167583	-0.01283462	0	0	0	0
6.200826	-0.09167583	-0.01283462	0	0	0	0
6.217393	-0.09167583	-0.01283462	0	0	0	0
6.23396	-0.09167583	-0.01283462	0	0	0	0
6.255205	-0.09167584	-0.01161227	-3.50698E-07	0.05753561	-9.274958E-06	1.521652
6.271775	-0.09412052	-0.003055861	-0.1475317	0.516362	-3.901339	12.13327
6.288721	-0.09412052	-0.003055861	0	0	4.401776	-15.40625
6.304911	-0.09412052	-0.001833517	0	0.07550197	0	2.278589
6.321477	-0.09412052	-0.001833517	0	0	0	-2.304958
6.3384	-0.09534287	-0.001833517	-0.07223189	0	-2.156869	0
6.354612	-0.09534287	-0.001833517	0	0	2.179931	0
6.371232	-0.09534287	-0.001833517	0	0	0	0
6.387884	-0.09534287	-0.001833517	0	0	0	0
6.424191	-0.09534287	-0.001833517	0	0	0	0
6.440759	-0.09534287	-0.001833517	0	0	0	0
6.457338	-0.09534287	-0.001833517	0	0	0	0
6.473893	-0.09534287	-0.001833517	0	0	0	0
6.490461	-0.09289818	-0.001833517	0.147553	0	4.45476	0
6.507084	-0.08678646	-0.001833517	0.3676664	0	6.631681	0
6.523592	-0.08189708	-0.0006111722	0.2961718	0.07404298	-2.157897	2.234814
6.540163	-0.0770077	0.0006111722	0.2950639	0.07376599	-0.03349334	-0.008373335
6.556946	-0.07456302	0.001833517	0.1456664	0.07283334	-4.479239	-0.02796269
6.635574	-0.07089598	0.003055861	0.04663782	0.01554591	-1.037918	-0.6004292
6.652143	-0.07089598	0.003055861	0	0	-0.4899075	-0.1633021
6.668736	-0.07089598	0.003055861	0	0	0	0
6.685287	-0.07089598	0.003055861	0	0	0	0
6.701844	-0.07089598	0.003055861	0	0	0	0
6.718849	-0.07089598	0.003055861	0	0	0	0
6.766475	-0.07089598	0.003055861	0	0	0	0
6.783043	-0.07089598	0.003055861	0	0	0	0
6.799691	-0.07089598	0.003055861	0	0	0	0
6.816522	-0.07089598	0.003055861	0	0	0	0
6.832744	-0.07089598	0.003055861	0	0	0	0
6.849315	-0.07089598	0.003055861	0	0	0	0
6.865888	-0.07089598	0.003055861	0	0	0	0
6.902774	-0.07089598	0.003055861	0	0	0	0
6.919342	-0.07089598	0.003055861	0	0	0	0
6.935911	-0.07089598	0.003055861	0	0	0	0
6.952913	-0.07089598	0.003055861	0	0	0	0
6.969241	-0.07089598	0.003055861	0	0	0	0
6.985655	-0.07089598	0.003055861	0	0	0	0
7.002191	-0.07089598	0.003055861	0	0	0	0
7.019325	-0.07089598	0.003055861	0	0	0	0
7.055003	-0.07089598	0.003055861	0	0	0	0
7.071573	-0.07089598	0.003055861	0	0	0	0
7.088139	-0.07089598	0.003055861	0	0	0	0
7.104704	-0.07089598	0.003055861	0	0	0	0
7.121277	-0.07089598	0.003055861	0	0	0	0
7.138146	-0.07089598	0.003055861	0	0	0	0
7.154675	-0.07089598	0.003055861	0	0	0	0
7.170974	-0.07089598	0.003055861	0	0	0	0
7.201696	-0.07089598	0.003055861	0	0	0	0
7.218264	-0.07089598	0.003055861	0	0	0	0
7.234832	-0.07089598	0.003055861	0	0	0	0
7.251398	-0.07089598	0.003055861	0	0	0	0
7.267966	-0.07089598	0.003055861	0	0	0	0
7.284532	-0.07089598	0.003055861	0	0	0	0
7.302049	-0.07089598	0.003055861	0	0	0	0
7.318488	-0.07089598	0.004278206	0	0.0743544	0	2.189694
7.334579	-0.07089598	0.00550055	-4.630316E-07	0.0759651	-1.423385E-05	0.04951371
7.376827	-0.06722895	0.01038993	0.0867973	0.1157297	1.487814	0.6816117
7.393396	-0.003667034	0.02994744	3.836274	1.180392	63.74827	18.1013
7.41002	0.006111722	0.03116979	0.5882153	0.07352689	-97.85339	-33.34623
7.426533	0.01711282	0.03239213	0.6662329	0.07402585	2.354408	0.01505772
7.443599	0.04767144	0.03361447	1.790563	0.0716224	33.48327	-0.07157634
7.459662	0.06233957	0.03483682	0.9131504	0.07609598	-26.48419	0.1350324
7.476229	0.07823005	0.03483682	0.9591788	0	1.410619	-2.332089
7.492795	0.08311943	0.03483682	0.2951578	0	-20.04164	0
7.511578	0.09167584	0.03605916	0.4555379	0.06507693	4.537124	1.841014
7.528145	0.1014546	0.03728151	0.5902467	0.07378095	3.81068	0.2462216
7.544713	0.1026769	0.03728151	0.07377693	-2.24846E-07	-15.58664	-2.226656
7.561585	0.1026769	0.03728151	0	0	-2.206209	6.723746E-06
7.577846	0.1026769	0.03728151	0	0	0	0
7.594413	0.1038993	0.03850385	0.07378028	0.07378095	2.247523	2.247543
7.61098	0.106344	0.03972619	0.1475619	0.07378072	2.226734	-6.745769E-06
7.627548	0.1087887	0.03972619	0.1475576	0	-0.0001281678	-2.226675
7.644113	0.1124557	0.04217089	0.2213681	0.1475789	2.2277	4.454132
7.66068	0.1161227	0.04461557	0.2213485	0.1475657	-0.0005905221	-0.0003984788
7.678419	0.1246791	0.04950495	0.4823422	0.2756242	7.607803	3.732827
7.69499	0.1466813	0.06906246	1.32775	1.180222	24.64003	26.36516
7.711848	0.1515707	0.07517418	0.290039	0.3625492	-31.04254	-24.46023
7.728122	0.1552377	0.08250825	0.225325	0.4506492	-1.953212	2.659052
7.744689	0.1564601	0.09595405	0.07378285	0.8116131	-4.614392	10.99119
7.761256	0.1564601	0.1093998	0	0.8116127	-2.226835	-1.439139E-05
7.777823	0.1527931	0.1228456	-0.2213422	0.8115889	-6.680216	-0.0007177602
7.79439	0.149126	0.1399585	-0.2213485	1.032963	-0.0001920323	6.681181
7.811173	0.1430143	0.1558489	-0.3641566	0.9468057	-4.282101	-2.583431
7.829001	0.1320132	0.1778511	-0.6170523	1.234105	-7.306654	8.300655
7.845681	0.1222344	0.1937416	-0.5862826	0.9527065	0.8916769	-8.154661
7.862144	0.1197898	0.1974086	-0.1484932	0.2227416	13.20928	-22.025
7.87871	0.1173451	0.202298	-0.1475699	0.2951399	0.02795167	2.191925
7.895284	0.1161227	0.2047427	-0.07375101	0.1475029	2.227475	-4.454923
7.912175	0.1161227	0.2047427	0	0	2.203831	-4.407689
7.928406	0.1161227	0.2047427	0	0	0	0
7.944972	0.1161227	0.2047427	0	0	0	0
7.96172	0.1185674	0.202298	0.1459604	-0.1459617	4.381323	-4.381363
7.979985	0.1222345	0.194964	0.2007717	-0.401541	1.565425	-7.299412
7.996773	0.1503484	0.1362914	1.674643	-3.494909	42.04722	-88.24886
8.013126	0.1601271	0.1142892	0.5979744	-1.345443	-32.48739	64.85795
8.029825	0.1833517	0.07639653	1.390787	-2.269181	23.98686	-27.94806
8.046258	0.2016868	0.04339323	1.115769	-2.008384	-8.300794	7.871535
8.062822	0.220022	0.01894634	1.106905	-1.475872	-0.2686308	16.13814
8.079389	0.2395795	-0.006722895	1.180562	-1.549487	2.223244	-2.221967
8.095956	0.2481359	-0.01772399	0.5164651	-0.6640276	-20.04307	26.72399
8.112527	0.2505806	-0.02016868	0.1475275	-0.1475277	-11.13328	15.5862
8.146284	0.2566923	-0.0287251	0.1810499	-0.2534692	0.6660763	-2.10501
8.162854	0.2652488	-0.04950495	0.5163777	-1.254058	6.662939	-19.88163
8.179423	0.2689158	-0.05317199	0.2213167	-0.2213174	-8.903677	31.16369
8.196589	0.2725828	-0.06050606	0.2136317	-0.4272642	-0.2278106	-6.104964
8.212556	0.2786945	-0.07395185	0.3827626	-0.8420793	5.104675	-12.51987
8.229122	0.2860286	-0.09228701	0.4427116	-1.106776	1.842678	-8.136103
8.245721	0.2970297	-0.1118445	0.6627693	-1.178256	6.635243	-2.155265
8.262259	0.3019191	-0.1191786	0.2956505	-0.4434766	-11.07903	22.1744
8.304696	0.3080308	-0.1289573	0.1440166	-0.2304269	-2.571146	3.61253
8.321265	0.3092532	-0.1301797	0.07377223	-0.07377223	-1.190447	2.654863
8.337831	0.3092532	-0.1301797	0	0	-2.22645	2.22645
8.354398	0.3092532	-0.1301797	0	0	0	0
8.371789	0.3092532	-0.1301797	0	0	0	0
8.387532	0.3092532	-0.1301797	0	0	0	0
8.404099	0.3092532	-0.1301797	0	0	0	0
8.420665	0.3092532	-0.1301797	0	0	0	0
8.483539	0.3092532	-0.1301797	0	0	0	0
8.500108	0.3080308	-0.124068	-0.07377223	0.3688621	-0.9286186	4.643105
8.516674	0.3080308	-0.1228456	0	0.07378452	2.226386	-8.905201
8.533241	0.3080308	-0.1228456	0	0	0	-2.226885
8.549812	0.3055861	-0.1191786	-0.1475275	0.2212917	-4.451876	6.677827
8.566379	0.3043638	-0.1167339	-0.07378497	0.1475704	2.225361	-2.224721
8.596805	0.3019191	-0.1130669	-0.08034847	0.1205229	-0.1396718	-0.5755717
8.662493	0.290918	-0.09839873	-0.1674749	0.2232997	-0.9064885	1.069319
8.679149	0.2408019	-0.05683902	-3.008907	2.495191	-34.50683	27.59023
8.695631	0.2310231	-0.05194964	-0.5932871	0.2966433	72.89516	-66.34467
8.712527	0.2053539	-0.03850386	-1.519227	0.7957854	-27.74052	14.95395
8.729136	0.1760176	-0.02628041	-1.766267	0.7359448	-7.37315	-1.785995
8.745334	0.1466813	-0.01161227	-1.811193	0.9055966	-1.369408	5.171303
8.762035	0.1112334	0.0006111723	-2.122418	0.7318684	-9.460048	-5.280669
8.792919	0.0794524	0.01405696	-1.02905	0.4353672	22.97692	-6.230917
8.809489	0.001222344	0.04583792	-4.72116	1.917971	-77.80418	31.24305
8.826056	-0.007334067	0.04950495	-0.516466	0.2213426	126.887	-51.19992
8.842623	-0.01589048	0.05317198	-0.5164958	0.2213554	-0.0009012607	0.0003845199
8.859189	-0.02566924	0.05683902	-0.5902809	0.2213556	-2.226966	6.746157E-06
8.875758	-0.0330033	0.0617284	-0.4426341	0.2950894	4.455862	2.225226
8.892324	-0.03789268	0.06295074	-0.2951403	0.07378475	4.451242	-6.678794
8.908892	-0.03789268	0.06417309	-2.24859E-07	0.07378118	8.907602	-0.0001077105
8.925458	-0.03789268	0.06417309	0	0	6.786453E-06	-2.226784
8.965929	-0.03789268	0.06417309	0	0	0	0
8.982499	-0.03789268	0.06417309	0	0	0	0
8.999187	-0.03789268	0.06417309	0	0	0	0
9.015635	-0.03789268	0.06417309	0	0	0	0
9.032202	-0.03789268	0.06417309	0	0	0	0
9.048767	-0.03789268	0.06417309	0	0	0	0
9.065335	-0.03789268	0.06417309	0	0	0	0
9.082253	-0.03789268	0.06417309	0	0	0	0
9.123362	-0.03789268	0.06417309	0	0	0	0
9.139929	-0.03789268	0.06417309	0	0	0	0
9.156653	-0.03789268	0.06417309	0	0	0	0
9.173063	-0.03789268	0.06417309	0	0	0	0
9.189635	-0.03789268	0.06417309	0	0	0	0
9.206202	-0.03789268	0.06417309	0	0	0	0
9.222769	-0.03789268	0.06417309	0	0	0	0
9.239335	-0.03789268	0.06417309	0	0	0	0
9.296782	-0.03789268	0.06417309	0	0	0	0
9.313349	-0.03789268	0.06417309	0	0	0	0
9.329918	-0.03789268	0.06417309	0	0	0	0
9.34714	-0.03789268	0.06417309	0	0	0	0
9.363127	-0.03789268	0.06417309	0	0	0	0
9.37977	-0.03789268	0.06417309	0	0	0	0
9.396185	-0.03789268	0.06417309	0	0	0	0
9.421058	-0.03789268	0.06417309	0	0	0	0
9.437629	-0.03789268	0.06417309	0	0	0	0
9.454475	-0.03789268	0.06417309	0	0	0	0
9.470762	-0.03789268	0.06417309	0	0	0	0
9.487722	-0.03789268	0.06417309	0	0	0	0
9.503894	-0.03789268	0.06417309	0	0	0	0
9.520462	-0.03789268	0.06417309	0	0	0	0
9.537027	-0.03789268	0.06417309	0	0	0	0
9.553596	-0.03789268	0.06417309	0	0	0	0
9.570422	-0.03789268	0.06417309	0	0	0	0
9.586994	-0.03789268	0.06417309	0	0	0	0
9.603642	-0.03789268	0.06417309	0	0	0	0
9.620787	-0.03789268	0.06417309	0	0	0	0
9.636694	-0.03789268	0.06417309	0	0	0	0
9.653275	-0.03789268	0.06417309	0	0	0	0
9.670291	-0.03789268	0.06417309	0	0	0	0
9.686398	-0.03789268	0.06417309	0	0	0	0
9.70319	-0.03789268	0.06417309	0	0	0	0
9.745618	-0.03789268	0.06417309	0	0	0	0
9.762185	-0.03789268	0.06417309	0	0	0	0
9.778752	-0.03789268	0.06417309	0	0	0	0
9.795321	-0.03789268	0.06417309	0	0	0	0
9.811892	-0.03789268	0.06417309	0	0	0	0
9.828458	-0.03789268	0.06417309	0	0	0	0
9.845308	-0.03789268	0.06417309	0	0	0	0
9.861589	-0.03789268	0.06417309	0	0	0	0
9.903475	-0.03789268	0.06417309	0	0	0	0
9.920178	-0.03789268	0.06417309	0	0	0	0
9.936713	-0.03789268	0.06417309	0	0	0	0
9.953812	-0.03789268	0.06417309	0	0	0	0
9.969742	-0.03789268	0.06417309	0	0	0	0
9.986313	-0.03789268	0.06417309	0	0	0	0
10.00288	-0.03789268	0.06417309	0	0	0	0
10.01944	-0.03789268	0.06417309	0	0	0	0
10.05264	-0.03789268	0.06417309	0	0	0	0
10.06921	-0.03789268	0.06417309	0	0	0	0
10.08577	-0.03789268	0.06417309	0	0	0	0
10.10234	-0.03789268	0.06417309	0	0	0	0
10.11956	-0.03789268	0.06417309	0	0	0	0
10.13548	-0.03789268	0.06417309	0	0	0	0
10.15204	-0.03789268	0.06417309	0	0	0	0
10.16861	-0.03789268	0.06417309	0	0	0	0
10.18536	-0.03789268	0.06417309	0	0	0	0
10.20836	-0.03789268	0.06417309	0	0	0	0
10.22493	-0.03789268	0.06417309	0	0	0	0
10.2415	-0.03789268	0.06417309	0	0	0	0
10.25806	-0.03789268	0.06417309	0	0	0	0
10.27464	-0.03789268	0.06417309	0	0	0	0
10.2912	-0.03789268	0.06417309	0	0	0	0
10.30875	-0.03789268	0.06417309	0	0	0	0
10.32433	-0.03789268	0.06417309	0	0	0	0
10.3409	-0.03789268	0.06417309	0	0	0	0
10.36096	-0.03789268	0.06417309	0	0	0	0
10.37753	-0.03789268	0.06417309	0	0	0	0
10.39418	-0.03789268	0.06417309	0	0	0	0
10.41066	-0.03789268	0.06417309	0	0	0	0
10.42723	-0.03789268	0.06417309	0	0	0	0
10.44384	-0.03789268	0.06417309	0	0	0	0
10.46037	-0.03789268	0.06417309	0	0	0	0
10.47725	-0.03789268	0.06417309	0	0	0	0
10.4935	-0.03789268	0.06417309	0	0	0	0
10.51445	-0.03789268	0.06417309	0	0	0	0
10.53114	-0.03789268	0.06417309	0	0	0	0
10.54759	-0.03789268	0.06417309	0	0	0	0
10.56447	-0.03789268	0.06417309	0	0	0	0
10.58096	-0.03789268	0.06417309	0	0	0	0
10.59742	-0.03789268	0.06417309	0	0	0	0
10.61436	-0.03789268	0.06417309	0	0	0	0
10.63093	-0.03789268	0.06417309	0	0	0	0
10.64749	-0.03789268	0.06417309	0	0	0	0
10.69338	-0.03789268	0.06417309	0	0	0	0
10.70994	-0.03789268	0.06417309	0	0	0	0
10.72675	-0.03789268	0.06417309	0	0	0	0
10.74308	-0.03789268	0.06417309	0	0	0	0
10.75965	-0.03789268	0.06661777	2.248331E-07	0.1475445	6.833664E-06	4.484524
10.77621	-0.03789268	0.06661777	0	0	-6.785281E-06	-4.452773
10.79278	-0.03789268	0.06661777	0	0	0	0
10.80935	-0.03789268	0.06661777	0	0	0	0
10.84932	-0.03789268	0.06661777	0	0	0	0
10.86589	-0.03789268	0.06661777	0	0	0	0
10.88245	-0.03789268	0.06661777	0	0	0	0
10.89902	-0.03789268	0.06661777	0	0	0	0
10.91561	-0.03789268	0.06661777	0	0	0	0
10.93216	-0.03789268	0.06661777	0	0	0	0
10.94873	-0.03789268	0.06661777	0	0	0	0
10.9657	-0.03789268	0.06661777	0	0	0	0
10.99964	-0.03789268	0.06661777	0	0	0	0
11.01621	-0.03789268	0.06661777	0	0	0	0
11.03278	-0.03789268	0.06661777	0	0	0	0
11.04938	-0.03789268	0.06661777	0	0	0	0
11.06591	-0.03789268	0.06661777	0	0	0	0
11.08247	-0.03789268	0.06661777	0	0	0	0
11.09904	-0.03789268	0.06661777	0	0	0	0
11.1164	-0.03789268	0.06661777	0	0	0	0
11.13246	-0.03789268	0.06661777	0	0	0	0
11.15806	-0.03789268	0.06661777	0	0	0	0
11.17463	-0.03789268	0.06661777	0	0	0	0
11.1912	-0.03789268	0.06661777	0	0	0	0
11.20777	-0.03789268	0.06661777	0	0	0	0
11.22508	-0.03789268	0.06661777	0	0	0	0
11.24129	-0.03789268	0.06661777	0	0	0	0
11.25788	-0.03789268	0.06661777	0	0	0	0
11.27404	-0.03789268	0.06661777	0	0	0	0
11.2906	-0.03789268	0.06661777	0	0	0	0
11.32015	-0.03789268	0.06661777	0	0	0	0
11.33672	-0.03789268	0.06661777	0	0	0	0
11.35328	-0.03789268	0.06661777	0	0	0	0
11.36985	-0.03789268	0.06661777	0	0	0	0
11.38642	-0.03789268	0.06661777	0	0	0	0
11.40328	-0.03789268	0.06661777	0	0	0	0
11.41955	-0.03789268	0.06661777	0	0	0	0
11.43612	-0.03789268	0.06661777	0	0	0	0
11.45268	-0.03789268	0.06661777	0	0	0	0
11.49366	-0.03789268	0.06661777	0	0	0	0
11.51023	-0.03789268	0.06661777	0	0	0	0
11.52691	-0.03789268	0.06661777	0	0	0	0
11.54336	-0.03789268	0.06661777	0	0	0	0
11.56068	-0.03789268	0.06661777	0	0	0	0
11.5765	-0.03789268	0.06661777	0	0	0	0
11.59306	-0.03789268	0.06661777	0	0	0	0
11.60977	-0.03789268	0.06661777	0	0	0	0
11.64445	-0.03789268	0.06661777	0	0	0	0
11.66101	-0.03789268	0.06661777	0	0	0	0
11.67758	-0.03789268	0.06661777	0	0	0	0
11.6945	-0.02689158	0.0812859	0.6502897	0.8670527	19.41953	25.89271
11.71072	-0.006111722	0.1020658	1.281495	1.281495	19.05091	12.50862
11.7273	0.008556412	0.1179562	0.8841997	0.957883	-12.111	-9.86488
11.74417	0.0220022	0.1326244	0.7970902	0.8695527	-2.603567	-2.640054
11.76041	0.03055861	0.1387361	0.5268379	0.3763129	-8.162338	-14.89715
11.78987	0.03544799	0.1448478	0.1660099	0.2075125	-7.896721	-3.694197
11.80643	0.04033737	0.1497372	0.2951238	0.2951229	2.805632	1.903764
11.82301	0.04155971	0.1521819	0.07375503	0.1475114	-6.679769	-4.454154
11.83978	0.0440044	0.1558489	0.1457826	0.2186736	2.160242	2.134287
11.85613	0.04644909	0.1607383	0.1494459	0.2988918	0.1105805	2.421478
11.87341	0.04644909	0.1619606	0	0.07075456	-4.443274	-6.782897
11.8896	0.04644909	0.1619606	0	0	0	-2.11408
11.91215	0.04644909	0.1619606	0	0	0	0
11.94541	0.04644909	0.1619606	0	0	0	0
11.96214	0.04644909	0.1619606	0	0	0	0
11.97854	0.04644909	0.1619606	0	0	0	0
11.99536	0.04644909	0.1619606	0	0	0	0
12.01168	0.04644909	0.1619606	0	0	0	0
12.02858	0.04644909	0.1619606	0	0	0	0
12.04482	0.04644909	0.1619606	0	0	0	0
12.06139	0.04644909	0.1644053	0	0.1475114	0	4.495638
12.07795	0.04644909	0.1705171	0	0.3691586	0	6.690482
12.125	0.04644909	0.1851852	0	0.3117469	0	-0.9025978
12.14157	0.04278206	0.2304119	-0.2213171	2.729577	-3.478704	38.00391
12.15813	0.04278206	0.2304119	0	0	6.679365	-82.3788
12.1747	0.04155971	0.2524141	-0.07378095	1.328056	-2.226841	40.08311
12.19127	0.04033737	0.2646376	-0.07377201	0.7377241	0.0002698152	-17.81522
12.20819	0.04033737	0.2756387	-2.200952E-07	0.6499588	2.202475	-2.620256
12.2244	0.04033737	0.2854174	-2.298876E-07	0.6034476	-2.955684E-07	-1.403873
12.24097	0.04033737	0.2939738	0	0.5164651	7.014743E-06	-2.654166
12.26693	0.04033737	0.3025303	1.434803E-07	0.3295535	3.373544E-06	-4.394712
12.2835	0.04155971	0.3159761	0.07377648	0.8115413	1.734609	11.33237
12.30006	0.04155971	0.3159761	0	0	-2.226578	-24.49236
12.31663	0.04155971	0.3196431	0	0.2213422	0	6.680313
12.3332	0.04278206	0.3220878	0.07377245	0.1475463	2.226329	-2.227037
12.34977	0.0440044	0.3245324	0.07378497	0.1475682	0.0003777522	0.0006606166
12.36652	0.04522675	0.3269772	0.07297879	0.1459585	-0.02419809	-0.04831566
12.3829	0.04644909	0.3306442	0.0746094	0.2238289	0.04921457	2.350269
12.39947	0.04644909	0.3330889	2.24846E-07	0.147553	-2.264222	-2.314804
12.43257	0.04644909	0.3330889	0	0	-4.527038E-06	-2.970824
12.44922	0.04644909	0.3343112	0	0.07337944	0	1.474756
12.4657	0.04644909	0.3343112	0	0	0	-2.214532
12.48285	0.04644909	0.3343112	0	0	0	0
12.49948	0.04644909	0.3343112	0	0	0	0
12.5154	0.04644909	0.3343112	0	0	0	0
12.53197	0.04767144	0.3330889	0.07378945	-0.07378922	2.271026	-2.271019
12.54854	0.04767144	0.3318665	0	-0.07376798	-2.226906	0.0006408296
12.56511	0.04889378	0.3318665	0.07377223	0	2.22613	2.226002
12.63857	0.04889378	0.3318665	0	0	-0.8194382	0
12.65513	0.04767144	0.3318665	-0.07378072	0	-0.8195499	0
12.6717	0.04767144	0.3318665	0	0	2.226643	0
12.68836	0.04767144	0.3318665	0	0	0	0
12.70484	0.04767144	0.3318665	0	0	0	0
12.72236	0.04767144	0.3330889	0	0.06974581	0	2.051151
12.76272	0.04767144	0.3330889	0	0	0	-1.20484
12.77929	0.03055861	0.2988632	-1.032873	-2.065745	-18.14268	-36.28535
12.79586	0.02689158	0.2878621	-0.2213425	-0.6640283	24.49132	42.30267
12.81243	0.01955751	0.2683046	-0.4426852	-1.180493	-6.680137	-15.58694
12.82899	0.01222344	0.2438577	-0.4427361	-1.475787	-0.001535425	-8.912495
12.84558	0.007334067	0.2206332	-0.2946824	-1.399742	4.465186	2.293474
12.86214	0	0.1961863	-0.4430677	-1.476892	-4.476861	-2.327683
12.87869	-0.0110011	0.1607383	-0.664525	-2.141247	-6.688985	-20.06643
12.90571	-0.01589048	0.1399585	-0.1809638	-0.7690957	11.09763	31.49059
12.92228	-0.02322455	0.1179562	-0.4425832	-1.32775	-6.001879	-12.81624
12.93899	-0.02322455	0.1155116	0	-0.1463154	13.29901	35.50047
12.95541	-0.02689158	0.1106222	-0.2232704	-0.2976934	-6.738701	-4.56886
12.97202	-0.02933627	0.1045104	-0.1472396	-0.3680998	2.302034	-2.131742
12.98855	-0.03055861	0.09962107	-0.07395549	-0.2958215	2.21191	2.181551
13.0052	-0.0330033	0.09595405	-0.1467593	-0.2201383	-2.193815	2.280579
13.02182	-0.03544799	0.092287	-0.1470957	-0.2206445	-0.01010919	-0.0152108
13.03825	-0.03667033	0.08984232	-0.07443221	-0.148864	2.199129	2.172406
13.07843	-0.03789268	0.08739763	-0.03041799	-0.06083597	0.7775369	1.555066
13.09552	-0.04033737	0.08373059	-0.1430173	-0.214526	-1.965816	-2.6832
13.1117	-0.04033737	0.08373059	0	0	4.298701	6.448054
13.12813	-0.04155971	0.08250825	-0.07438901	-0.07438879	-2.281309	-2.281302
13.1447	-0.04155971	0.08128591	0	-0.07377648	2.254213	0.01855488
13.16127	-0.04278206	0.07884122	-0.07377648	-0.1475534	-2.22645	-2.226464
13.17784	-0.04278206	0.07884122	0	0	2.226258	4.452529
13.19462	-0.0440044	0.07761887	-0.07282515	-0.07282493	-2.183289	-2.183282
13.25854	-0.0440044	0.07761887	0	0	0.9023978	0.9023951
13.27511	-0.0440044	0.07639653	0	-0.07376798	0	-0.9165176
13.29207	-0.0440044	0.07639653	0	0	0	2.200169
13.30872	-0.0440044	0.07639653	0	0	0	0
13.32481	-0.0440044	0.07639653	0	0	0	0
13.34195	-0.0440044	0.07639653	0	0	0	0
13.35795	-0.0440044	0.07639653	0	0	0	0
13.38456	-0.0440044	0.07639653	0	0	0	0
13.40113	-0.0440044	0.07639653	0	0	0	0
13.4177	-0.0440044	0.07639653	0	0	0	0
13.43426	-0.0440044	0.07639653	0	0	0	0
13.45083	-0.0440044	0.07639653	0	0	0	0
13.4674	-0.0440044	0.07639653	0	0	0	0
13.48396	-0.0440044	0.07639653	0	0	0	0
13.50062	-0.0440044	0.07639653	0	0	0	0
13.51713	-0.0440044	0.07639653	0	0	0	0
13.56365	-0.0440044	0.07639653	0	0	0	0
13.58022	-0.0440044	0.07639653	0	0	0	0
13.59704	-0.0440044	0.07639653	0	0	0	0
13.61335	-0.0440044	0.07639653	0	0	0	0
13.63072	-0.0440044	0.07639653	0	0	0	0
13.64729	-0.0440044	0.07639653	0	0	0	0
13.66386	-0.0440044	0.07639653	0	0	0	0
13.68042	-0.0440044	0.07639653	0	0	0	0
13.71766	-0.0440044	0.07639653	0	0	0	0
13.73422	-0.0440044	0.07639653	0	0	0	0
13.75079	-0.0440044	0.07639653	0	0	0	0
13.76736	-0.0440044	0.07639653	0	0	0	0
13.78393	-0.0440044	0.07639653	0	0	0	0
13.80049	-0.0440044	0.07639653	0	0	0	0
13.81706	-0.0440044	0.07639653	0	0	0	0
13.83363	-0.0440044	0.07639653	0	0	0	0
13.85019	-0.0440044	0.07639653	0	0	0	0
13.87129	-0.0440044	0.07639653	0	0	0	0
13.88789	-0.0440044	0.07639653	0	0	0	0
13.90443	-0.0440044	0.07639653	0	0	0	0
13.92099	-0.0440044	0.07639653	0	0	0	0
13.93766	-0.0440044	0.07639653	0	0	0	0
13.95413	-0.0440044	0.07639653	0	0	0	0
13.97126	-0.0440044	0.07639653	0	0	0	0
13.98727	-0.0440044	0.07639653	0	0	0	0
14.00408	-0.0440044	0.07639653	0	0	0	0
14.04373	-0.0440044	0.07639653	0	0	0	0
14.06038	-0.0440044	0.07639653	0	0	0	0
14.07687	-0.0440044	0.07639653	0	0	0	0
14.09344	-0.0440044	0.07639653	0	0	0	0
14.11001	-0.0440044	0.07639653	0	0	0	0
14.12658	-0.0440044	0.07639653	0	0	0	0
14.14314	-0.0440044	0.07639653	0	0	0	0
14.15971	-0.0440044	0.07639653	0	0	0	0
14.17804	-0.0440044	0.07639653	0	0	0	0
14.19465	-0.0440044	0.07639653	0	0	0	0
14.21117	-0.0440044	0.07395184	0	-0.1479366	0	-4.464478
14.22808	-0.04644909	0.07028481	-0.1445658	-0.2168484	-4.323681	-2.061018
14.24431	-0.04644909	0.06661778	0	-0.2260531	4.363257	-0.2778153
14.26117	-0.04644909	0.06417309	0	-0.1449421	0	2.451324
14.27769	-0.0464491	0.05806136	-2.255862E-07	-0.3700975	-6.75802E-06	-6.745119
14.29401	-0.04644909	0.05194964	2.281821E-07	-0.3743561	1.381764E-05	-0.1296755
14.31058	-0.04644909	0.04706026	2.248719E-07	-0.2951406	-1.006384E-07	2.408335
14.34321	-0.04644909	0.04339323	-1.141611E-07	-0.1123758	-6.891174E-06	3.71487
14.35979	-0.04644909	0.04094854	0	-0.1474853	2.319985E-06	-0.7134948
14.37635	-0.04644909	0.04094854	0	0	0	4.45073
14.39291	-0.04644909	0.04094854	0	0	0	0
14.41027	-0.04644909	0.04094854	0	0	0	0
14.42605	-0.04644909	0.04094854	0	0	0	0
14.44272	-0.04644909	0.04094854	0	0	0	0
14.45941	-0.04644909	0.04094854	0	0	0	0
14.47794	-0.04644909	0.04094854	0	0	0	0
14.49459	-0.04644909	0.04094854	0	0	0	0
14.51107	-0.04644909	0.04094854	0	0	0	0
14.52794	-0.04644909	0.04094854	0	0	0	0
14.5442	-0.04644909	0.04094854	0	0	0	0
14.56077	-0.04644909	0.04094854	0	0	0	0
14.57776	-0.04644909	0.04094854	0	0	0	0
14.59391	-0.04644909	0.04094854	0	0	0	0
14.61048	-0.04644909	0.04094854	0	0	0	0
14.62785	-0.04644909	0.04094854	0	0	0	0
14.65674	-0.04644909	0.04094854	0	0	0	0
14.67331	-0.04644909	0.04094854	0	0	0	0
14.69005	-0.04644909	0.04094854	0	0	0	0
14.70644	-0.04644909	0.04094854	0	0	0	0
14.72301	-0.04644909	0.04094854	0	0	0	0
14.73958	-0.04644909	0.04094854	0	0	0	0
14.75624	-0.04644909	0.04094854	0	0	0	0
14.77283	-0.04644909	0.04094854	0	0	0	0
14.78928	-0.04644909	0.04094854	0	0	0	0
14.82407	-0.04644909	0.04094854	0	0	0	0
14.84066	-0.04644909	0.04094854	0	0	0	0
14.85721	-0.04644909	0.04094854	0	0	0	0
14.87378	-0.04644909	0.04094854	0	0	0	0
14.89034	-0.04644909	0.04094854	0	0	0	0
14.90743	-0.04644909	0.04094854	0	0	0	0
14.92348	-0.04644909	0.04094854	0	0	0	0
14.94004	-0.04644909	0.04094854	0	0	0	0
14.97945	-0.04644909	0.04094854	0	0	0	0
14.99602	-0.04644909	0.04339323	0	0.1475617	0	2.636209
15.01285	-0.04644909	0.04339323	0	0	0	-4.418448
15.02915	-0.04644909	0.04339323	0	0	0	0
15.04572	-0.04644909	0.04339323	0	0	0	0
15.06232	-0.04644909	0.04339323	0	0	0	0
15.07886	-0.04644909	0.04339323	0	0	0	0
15.09542	-0.04644909	0.04461557	0	0.07378095	0	2.228766
15.16849	-0.04644909	0.04461557	0	0	0	-0.8231363
15.18506	-0.04644909	0.04950495	2.248201E-07	0.2950724	2.508123E-06	3.291867
15.20162	-0.04644909	0.04950495	0	0	-6.78489E-06	-8.905046
15.21839	-0.04644909	0.04950495	0	0	0	0
15.23476	-0.04644909	0.04950495	0	0	0	0
15.25133	-0.04644909	0.0507273	-2.248331E-07	0.07377245	-6.825157E-06	2.239477
15.2985	-0.04644909	0.0507273	0	0	3.527359E-06	-1.157401
15.31513	-0.04644909	0.05194964	0	0.07348906	0	1.1518
15.33164	-0.04644909	0.05194964	0	0	0	-2.217713
15.34821	-0.04644909	0.05194964	0	0	0	0
15.36477	-0.04644909	0.05194964	0	0	0	0
15.38134	-0.04644909	0.05194964	0	0	0	0
15.39791	-0.04644909	0.05194964	0	0	0	0
15.43214	-0.04644909	0.05194964	0	0	0	0
15.44872	-0.04644909	0.05194964	0	0	0	0
15.46528	-0.04644909	0.05194964	0	0	0	0
15.48229	-0.04644909	0.05194964	0	0	0	0
15.49842	-0.04644909	0.05194964	0	0	0	0
15.51498	-0.04644909	0.05194964	0	0	0	0
15.53155	-0.04644909	0.05194964	0	0	0	0
15.54812	-0.04644909	0.05194964	0	0	0	0
15.56468	-0.04644909	0.05194964	0	0	0	0
15.58993	-0.04644909	0.05194964	0	0	0	0
15.60649	-0.04644909	0.05194964	0	0	0	0
15.62306	-0.04644909	0.05194964	0	0	0	0
15.6398	-0.04644909	0.05194964	0	0	0	0
15.65629	-0.04644909	0.05194964	0	0	0	0
15.67276	-0.04644909	0.05194964	0	0	0	0
15.68933	-0.04644909	0.05194964	0	0	0	0
15.70601	-0.04644909	0.05194964	0	0	0	0
15.72246	-0.04644909	0.05194964	0	0	0	0
15.75469	-0.04644909	0.05194964	0	0	0	0
15.77126	-0.01833517	0.03361448	1.696667	-1.106522	34.77151	-22.67707
15.78783	-0.006111722	0.02750275	0.7378086	-0.3689044	-28.9359	22.25942
15.8047	0.01466813	0.01283462	1.231588	-0.8693563	14.7663	-14.96583
15.82119	0.03544799	-0.0006111722	1.259786	-0.8151557	0.8450754	1.624371
15.83753	0.05378316	-0.01527931	1.122413	-0.8979307	-4.184336	-2.521304
15.85409	0.07578536	-0.02994744	1.328438	-0.8856252	6.262537	0.3740488
15.87066	0.08311943	-0.03483682	0.4426852	-0.2951233	-26.73592	17.82395
15.92314	0.08678646	-0.03850385	0.06987636	-0.0698765	-5.399426	3.262271
15.93971	0.08800881	-0.04094854	0.07376844	-0.1475364	0.05636701	-1.124709
15.95627	0.08800881	-0.04094854	0	0	-2.226208	4.452402
15.97344	0.08800881	-0.04094854	0	0	0	0
15.98941	0.08800881	-0.04094854	0	0	0	0
16.00598	0.08800881	-0.04094854	0	0	0	0
16.02254	0.08800881	-0.04094854	0	0	0	0
16.03911	0.08800881	-0.04094854	0	0	0	0
16.0793	0.08800881	-0.04094854	0	0	0	0
16.09593	0.08800881	-0.04094854	0	0	0	0
16.11244	0.08800881	-0.04094854	0	0	0	0
16.12902	0.08800881	-0.04094854	0	0	0	0
16.14557	0.08800881	-0.04094854	0	0	0	0
16.16259	0.08800881	-0.04094854	0	0	0	0
16.17871	0.08800881	-0.04094854	0	0	0	0
16.19527	0.08800881	-0.04094854	0	0	0	0
16.23486	0.08800881	-0.04094854	0	0	0	0
16.25143	0.07823005	-0.02994744	-0.5902472	0.6640279	-10.51046	11.82427
16.26814	0.07578536	-0.0287251	-0.1462815	0.07314099	13.34055	-17.75533
16.28456	0.07334067	-0.02505806	-0.1488644	0.2232963	-0.07795186	4.531696
16.30131	0.07089598	-0.02261337	-0.1459983	0.1459985	0.08641598	-2.330572
16.3177	0.06967364	-0.02016868	-0.07457101	0.1491415	2.155555	0.09484994
16.33427	0.06845129	-0.01772399	-0.07378072	0.1475618	0.023978	-0.04792842
16.35083	0.06722895	-0.01405696	-0.07379772	0.2213934	-0.0005129623	2.2285
16.3918	0.06722894	-0.009167584	-1.818637E-07	0.1193465	1.282736	-1.773763
16.40837	0.0794524	0.01527931	0.7377241	1.475447	12.82172	23.56916
16.42493	0.0794524	0.01527931	0	0	-22.26328	-44.52652
16.4415	0.09167583	0.02750275	0.7378082	0.7378086	22.2671	22.26711
16.45807	0.1210121	0.05317198	1.770741	1.549398	31.17396	24.49382
16.47463	0.1503484	0.08128591	1.771149	1.697351	0.01233808	4.465731
16.4912	0.180907	0.1081775	1.844309	1.622992	2.208102	-2.244283
16.50777	0.2077986	0.1338467	1.623179	1.549398	-6.673355	-2.220939
16.53273	0.2322454	0.1534042	0.9793096	0.7834479	-15.50348	-18.44303
16.54954	0.2603594	0.1790735	1.672886	1.527418	16.60504	17.81152
16.56587	0.2652488	0.1827405	0.2993989	0.2245478	-41.44953	-39.31843
16.58243	0.2713605	0.1888522	0.3689461	0.368947	2.114152	4.389562
16.61154	0.2774722	0.1974086	0.2099939	0.2939925	-3.480485	-1.641236
16.62817	0.2823616	0.2071874	0.2940059	0.5880127	1.836954	6.428863
16.64467	0.2835839	0.2096321	0.0740621	0.1481242	-6.637917	-13.27586
16.66124	0.2848063	0.2120768	0.07378922	0.1475775	-0.008251835	-0.01653071
16.69637	0.2860286	0.2169662	0.03479423	0.1391744	-0.754302	-0.1625469
16.71294	0.2835839	0.2279673	-0.1475293	0.6638755	-3.526397	10.14847
16.72951	0.2823616	0.2291896	-0.07377223	0.07377043	2.225608	-17.80633
16.74675	0.2762499	0.2328566	-0.3545361	0.2127234	-8.304717	4.11009
16.76275	0.2701381	0.2365237	-0.3818731	0.2291248	-0.8223345	0.4933767
16.77921	0.2664711	0.2389684	-0.2228577	0.1485706	4.898921	-2.4817
16.79577	0.2664711	0.2389684	0	0	6.748781	-4.499151
16.81265	0.2664711	0.2389684	0	0	0	0
16.8378	0.2676934	0.237746	0.04860519	-0.04860578	1.156694	-1.156708
16.85437	0.3165872	0.1509595	2.950217	-5.236633	69.54742	-124.3495
16.87093	0.3337001	0.1130669	1.033289	-2.287996	-57.85302	88.99003
16.8875	0.3715927	0.02139103	2.287469	-5.534202	37.85996	-97.99323
16.90406	0.4143748	-0.07395184	2.582331	-5.754907	8.899445	-6.661274
16.92063	0.4559345	-0.1692947	2.507971	-5.753582	-2.243928	0.03995913
16.9375	0.4474349	-0.2231637	-0.5039297	-3.19381	-90.07491	76.55343
16.95377	0.4277267	-0.2589399	-1.21163	-2.199466	-21.35967	30.01108
16.97034	0.4233372	-0.2660557	-0.2648876	-0.4294087	28.83165	53.90449
17.00371	0.4215693	-0.268848	-0.05297247	-0.08367149	4.243062	6.922509
17.02028	0.4215693	-0.268848	0	0	1.06068	1.675373
17.03684	0.4215693	-0.268848	0	0	0	0
17.05368	0.4215693	-0.268848	0	0	0	0
17.06998	0.4215693	-0.268848	0	0	0	0
17.08656	0.4215693	-0.268848	0	0	0	0
17.10368	0.4215693	-0.268848	0	0	0	0
17.11969	0.4215693	-0.268848	0	0	0	0
17.16671	0.4215693	-0.268848	0	0	0	0
17.18328	0.4177561	-0.274736	-0.2301445	-0.3553604	-3.619137	-5.588218
17.19997	0.4153393	-0.2783762	-0.1447942	-0.2180876	2.56613	4.127222
17.21641	0.4099924	-0.2861927	-0.3251725	-0.4753636	-5.44383	-7.764605
17.23298	0.4053127	-0.2927825	-0.2824642	-0.3977575	1.29378	2.350952
17.24955	0.400995	-0.2986686	-0.2606151	-0.3552898	0.659407	1.28168
17.26655	0.3978254	-0.3028778	-0.1864464	-0.247593	2.209544	3.208369
17.28268	0.3955445	-0.3058506	-0.1413564	-0.1842346	1.360742	1.912051
17.32424	0.3985721	-0.3018946	0.07286001	0.09520233	3.713254	4.843796
17.3412	0.3141425	-0.2120768	-4.976995	5.294627	-86.29655	88.85254
17.35737	0.3055861	-0.202298	-0.5291361	0.6047269	134.2366	-141.5415
17.37394	0.2958074	-0.1900746	-0.5902476	0.7378091	-1.8667	4.0651
17.39051	0.2921403	-0.1864075	-0.2213167	0.2213176	11.13371	-15.58685
17.40707	0.2921403	-0.1864075	0	0	6.678967	-6.678994
17.42364	0.2921403	-0.1864075	0	0	0	0
17.44021	0.2921403	-0.1864075	0	0	0	0
17.49477	0.2921403	-0.1864075	0	0	0	0
17.51134	0.2921403	-0.1864075	0	0	0	0
17.52791	0.2921403	-0.1864075	0	0	0	0
17.54447	0.2921403	-0.1864075	0	0	0	0
17.56104	0.2921403	-0.1864075	0	0	0	0
17.57764	0.2921403	-0.1864075	0	0	0	0
17.5946	0.2921403	-0.1864075	0	0	0	0
17.6438	0.2921403	-0.1864075	0	0	0	0
17.66036	0.2921403	-0.1864075	0	0	0	0
17.67693	0.2921403	-0.1864075	0	0	0	0
17.6935	0.2921403	-0.1864075	0	0	0	0
17.74868	0.2921403	-0.1864075	0	0	0	0
17.78657	0.2921403	-0.1864075	0	0	0	0
17.80314	0.2921403	-0.1864075	0	0	0	0
17.81985	0.2921403	-0.1864075	0	0	0	0
17.83627	0.2921403	-0.1864075	0	0	0	0
17.8529	0.2921403	-0.1864075	0	0	0	0
17.86941	0.2921403	-0.1864075	0	0	0	0
17.88597	0.2921403	-0.1864075	0	0	0	0
17.90254	0.2921403	-0.1864075	0	0	0	0
17.91911	0.2921403	-0.1864075	0	0	0	0
17.97234	0.2921403	-0.1864075	0	0	0	0
17.98891	0.2921403	-0.1864075	0	0	0	0
18.00548	0.2921403	-0.1864075	0	0	0	0
18.02205	0.2921403	-0.1864075	0	0	0	0
18.03861	0.2848063	-0.1815182	-0.4428901	0.2952598	-13.36645	8.910957
18.05518	0.2786945	-0.1778511	-0.3689461	0.2213677	2.232277	-2.230711
18.07175	0.2713605	-0.1754064	-0.4423788	0.1474605	-2.215564	-2.229881
18.08831	0.2640264	-0.1717394	-0.4429393	0.2214697	-0.01691652	2.233473
18.10587	0.2542477	-0.16685	-0.556847	0.2784227	-3.338576	1.669263
18.12244	0.2273561	-0.1570713	-1.62318	0.5902467	-31.24492	9.136847
18.13901	0.2187997	-0.1521819	-0.5164065	0.2950898	33.40055	-8.907339
18.15557	0.2102433	-0.1497372	-0.5165254	0.1475784	-0.003588749	-4.451902
18.17214	0.1931304	-0.1436255	-1.032932	0.3689045	-15.58608	6.680019
18.18871	0.1723506	-0.1375138	-1.254275	0.3689045	-6.680146	0
18.20528	0.1503484	-0.1326244	-1.328055	0.2951238	-2.226679	-2.226707
18.22185	0.1295685	-0.1265126	-1.254131	0.3688621	2.230908	2.225297
18.23841	0.1112333	-0.1216233	-1.106713	0.2951229	4.448811	-2.225324
18.27611	0.09778756	-0.1179562	-0.356646	0.09726713	13.82157	-3.645909
18.29268	0.0770077	-0.1093998	-1.25413	0.5164065	-16.53745	7.723255
18.30947	0.0770077	-0.1093998	0	0	37.60081	-15.48269
18.32582	0.07578535	-0.1081775	-0.0747624	0.07476285	-2.256334	2.256347
18.34253	0.07456302	-0.1081775	-0.07314032	-1.337452E-06	0.04906182	-2.261334
18.3593	0.07456302	-0.1081775	0	0	2.184618	3.994814E-05
18.37552	0.07211833	-0.1069551	-0.1507023	0.07535136	-4.568188	2.284101
18.3922	0.06967364	-0.1045104	-0.1465663	0.1465668	0.1257047	2.164487
18.43303	0.06845129	-0.1032881	-0.02993411	0.02993393	2.027886	-2.027897
18.44978	0.04767144	-0.0837306	-1.240564	1.167589	-21.02343	19.75619
18.46617	0.04278206	-0.07884122	-0.2984218	0.298422	28.43389	-26.23152
18.48273	0.03055861	-0.06661777	-0.7378086	0.7378086	-13.33441	13.3344
18.4993	0.01833517	-0.05561667	-0.7378086	0.6640276	0	-2.226714
18.51587	0.008556412	-0.04583792	-0.5902469	0.5902469	4.453422	-2.226707
18.53244	-0.001222345	-0.03850385	-0.5902469	0.442685	-1.798872E-06	-4.453426
18.549	-0.006111722	-0.03483682	-0.2951234	0.2213426	8.906844	-6.680127
18.56648	-0.008556412	-0.03361447	-0.1398953	0.06994776	4.559851	-4.44725
18.58305	-0.009778756	-0.03239213	-0.07376385	0.07376374	1.942406	0.1120827
18.59962	-0.009778756	-0.03239213	0	0	2.225941	-2.225938
18.62643	-0.0110011	-0.03239213	-0.04558043	-1.389136E-07	-1.050614	-3.201914E-06
18.64339	-0.0110011	-0.03239213	0	0	1.041276	3.173452E-06
18.65982	-0.0110011	-0.03239213	0	0	0	0
18.67614	-0.0110011	-0.03239213	0	0	0	0
18.69271	-0.0110011	-0.03239213	0	0	0	0
18.70927	-0.0110011	-0.03239213	0	0	0	0
18.75208	-0.0110011	-0.03239213	0	0	0	0
18.76865	-0.0110011	-0.03239213	0	0	0	0
18.78522	-0.0110011	-0.03239213	0	0	0	0
18.80188	-0.0110011	-0.03239213	0	0	0	0
18.81835	-0.0110011	-0.03239213	0	0	0	0
18.83492	-0.0110011	-0.03239213	0	0	0	0
18.85149	-0.0110011	-0.03239213	0	0	0	0
18.86845	-0.0110011	-0.03239213	0	0	0	0
18.90411	-0.0110011	-0.03239213	0	0	0	0
18.92076	-0.0110011	-0.03239213	0	0	0	0
18.93726	-0.0110011	-0.03239213	0	0	0	0
18.95382	-0.0110011	-0.03239213	0	0	0	0
18.97038	-0.0110011	-0.03239213	0	0	0	0
18.98729	-0.0110011	-0.03239213	0	0	0	0
19.00352	-0.0110011	-0.03239213	0	0	0	0
19.02008	-0.0110011	-0.03239213	0	0	0	0
19.03665	-0.0110011	-0.03239213	0	0	0	0
19.05322	-0.0110011	-0.03239213	0	0	0	0
19.06978	-0.0110011	-0.03239213	0	0	0	0
19.08635	-0.0110011	-0.03239213	0	0	0	0
19.10292	-0.0110011	-0.03239213	0	0	0	0
19.11949	-0.0110011	-0.03239213	0	0	0	0
19.13605	-0.0110011	-0.03239213	0	0	0	0
19.15262	-0.0110011	-0.03239213	0	0	0	0
19.16919	-0.0110011	-0.03239213	0	0	0	0
19.20351	-0.0110011	-0.03239213	0	0	0	0
19.22008	-0.0110011	-0.03239213	0	0	0	0
19.23665	-0.0110011	-0.03239213	0	0	0	0
19.25341	-0.0110011	-0.03239213	0	0	0	0
19.26979	-0.0110011	-0.03239213	0	0	0	0
19.28635	-0.0110011	-0.03239213	0	0	0	0
19.30292	-0.0110011	-0.03239213	0	0	0	0
19.33417	-0.0110011	-0.03239213	0	0	0	0
19.38214	-0.0110011	-0.03239213	0	0	0	0
19.3987	-0.0110011	-0.03239213	0	0	0	0
19.41527	-0.0110011	-0.03239213	0	0	0	0
19.43184	-0.0110011	-0.03239213	0	0	0	0
19.44841	-0.0110011	-0.03239213	0	0	0	0
19.46521	-0.0110011	-0.03239213	0	0	0	0
19.48154	-0.0110011	-0.03239213	0	0	0	0
19.49811	-0.0110011	-0.03239213	0	0	0	0
19.54807	-0.0110011	-0.03239213	0	0	0	0
19.56464	-0.0110011	-0.03239213	0	0	0	0
19.58121	-0.0110011	-0.03239213	0	0	0	0
19.59816	-0.0110011	-0.03239213	0	0	0	0
19.61434	-0.0110011	-0.03239213	0	0	0	0
19.63137	-0.0110011	-0.03239213	0	0	0	0
19.64748	-0.0110011	-0.03239213	0	0	0	0
19.68747	-0.0110011	-0.03239213	0	0	0	0
19.70404	-0.0110011	-0.03239213	0	0	0	0
19.72061	-0.0110011	-0.03239213	0	0	0	0
19.73718	-0.0110011	-0.03239213	0	0	0	0
19.75374	-0.0110011	-0.03239213	0	0	0	0
19.77031	-0.0110011	-0.03239213	0	0	0	0
19.78687	-0.0110011	-0.03239213	0	0	0	0
19.80344	-0.0110011	-0.03239213	0	0	0	0
19.84781	-0.0110011	-0.03239213	0	0	0	0
19.86438	-0.0110011	-0.03361448	0	-0.07377223	0	-1.210576
19.88095	-0.0110011	-0.03361448	0	0	0	2.22645
19.89759	-0.0110011	-0.03361448	0	0	0	0
19.91408	-0.0110011	-0.03361448	0	0	0	0
19.93065	-0.0110011	-0.03361448	0	0	0	0
19.94722	-0.0110011	-0.03361448	0	0	0	0
19.96378	-0.0110011	-0.03361448	0	0	0	0
20.02996	-0.0110011	-0.03361448	0	0	0	0
20.04653	-0.0110011	-0.03361448	0	0	0	0
20.06346	-0.0110011	-0.03361448	0	0	0	0
20.08053	-0.0110011	-0.03361448	0	0	0	0
20.09624	-0.0110011	-0.03361448	0	0	0	0
20.1128	-0.0110011	-0.03361448	0	0	0	0
20.14536	-0.0110011	-0.03361448	0	0	0	0
20.16192	-0.0110011	-0.03361448	0	0	0	0
20.17907	-0.0110011	-0.03361448	0	0	0	0
20.19506	-0.0110011	-0.03361448	0	0	0	0
20.21189	-0.0110011	-0.03361448	0	0	0	0
20.22819	-0.0110011	-0.03361448	0	0	0	0
20.24476	-0.0110011	-0.03361448	0	0	0	0
20.26167	-0.0110011	-0.03361448	0	0	0	0
20.27792	-0.0110011	-0.03361448	0	0	0	0
20.31274	-0.0110011	-0.03361448	0	0	0	0
20.3293	-0.0110011	-0.03361448	0	0	0	0
20.34594	-0.0110011	-0.03361448	0	0	0	0
20.36256	-0.0110011	-0.03361448	0	0	0	0
20.37901	-0.0110011	-0.03361448	0	0	0	0
20.39625	-0.0110011	-0.03361448	0	0	0	0
20.41214	-0.0110011	-0.03361448	0	0	0	0
20.42871	-0.0110011	-0.03361448	0	0	0	0
20.46357	-0.0110011	-0.03361448	0	0	0	0
20.48014	-0.0110011	-0.03361448	0	0	0	0
20.49671	-0.0110011	-0.03361448	0	0	0	0
20.51327	-0.0110011	-0.03361448	0	0	0	0
20.52984	-0.0110011	-0.03361448	0	0	0	0
20.54641	-0.0110011	-0.03361448	0	0	0	0
20.56298	-0.0110011	-0.03361448	0	0	0	0
20.57954	-0.0110011	-0.03361448	0	0	0	0
20.63499	-0.0110011	-0.03361448	0	0	0	0
20.65156	-0.0110011	-0.03361448	0	0	0	0
20.66827	-0.0110011	-0.03361448	0	0	0	0
20.68469	-0.0110011	-0.03361448	0	0	0	0
20.70126	-0.0110011	-0.03361448	0	0	0	0
20.71799	-0.0110011	-0.03361448	0	0	0	0
20.7344	-0.0110011	-0.03361448	0	0	0	0
20.75096	-0.0110011	-0.03361448	0	0	0	0
20.78365	-0.0110011	-0.03361448	0	0	0	0
20.80022	-0.0110011	-0.03361448	0	0	0	0
20.8168	-0.0110011	-0.03361448	0	0	0	0
20.83338	-0.0110011	-0.03361448	0	0	0	0
20.84992	-0.0110011	-0.03361448	0	0	0	0
20.86649	-0.0110011	-0.03361448	0	0	0	0
20.88305	-0.0110011	-0.03361448	0	0	0	0
20.89962	-0.0110011	-0.03361448	0	0	0	0
20.91619	-0.0110011	-0.03361448	0	0	0	0
20.95674	-0.0110011	-0.03361448	0	0	0	0
20.97331	-0.0110011	-0.03361448	0	0	0	0
20.98988	-0.0110011	-0.03361448	0	0	0	0
21.00675	-0.0110011	-0.03361448	0	0	0	0
21.02301	-0.0110011	-0.03361448	0	0	0	0
21.03957	-0.0110011	-0.03361448	0	0	0	0
21.05628	-0.01222344	-0.03850385	-0.07316592	-0.2926637	-2.199038	-8.796151
21.07271	-0.01589048	-0.04217089	-0.2232445	-0.2232445	-4.529643	2.095195
21.09002	-0.02077986	-0.04950495	-0.2824418	-0.4236626	-1.754658	-5.94057
21.10659	-0.03911502	-0.06906246	-1.106586	-1.180358	-24.32521	-22.33442
21.12315	-0.04522675	-0.0727295	-0.3689045	-0.2213426	22.26197	28.94147
21.13972	-0.05011613	-0.07761887	-0.2951233	-0.2951233	2.226721	-2.226707
21.15629	-0.06478426	-0.08739763	-0.8853703	-0.5902472	-17.81369	-8.906855
21.17286	-0.08311943	-0.09717639	-1.106713	-0.5902467	-6.680142	1.439097E-05
21.18942	-0.1161227	-0.1118445	-1.992083	-0.8853701	-26.72052	-8.906842
21.20639	-0.1295685	-0.1179562	-0.792609	-0.3602771	35.77189	15.65984
21.22256	-0.1711282	-0.131402	-2.570094	-0.8315009	-53.64461	-14.22156
21.23991	-0.2004645	-0.1411808	-1.690554	-0.5635176	26.23649	7.993882
21.25735	-0.2249114	-0.1485149	-1.401706	-0.4205123	8.301673	4.110074
21.27443	-0.2481359	-0.1534042	-1.359575	-0.2862257	1.22039	3.88977
21.29049	-0.2505806	-0.1534042	-0.1522593	0	36.43266	8.637315
21.30706	-0.251803	-0.1546266	-0.07378072	-0.07378162	2.405599	-2.261624
21.32362	-0.251803	-0.1546266	0	0	2.226835	2.226862
21.34019	-0.2444689	-0.1350691	0.4426334	1.180357	13.3587	35.62326
21.35701	-0.2395795	-0.1216233	0.2906401	0.7992595	-4.551795	-11.41287
21.37332	-0.2175773	-0.08006357	1.349022	2.548153	31.94386	52.78476
21.38989	-0.1931304	-0.0287251	1.475617	3.098796	3.850583	16.7486
21.40645	-0.1625718	0.02261337	1.844947	3.09951	11.14767	0.02153857
21.42303	-0.1173451	0.09595405	2.728635	4.424814	26.66671	39.99314
21.43959	-0.1075663	0.1093998	0.5904511	0.8118697	-64.52682	-109.0326
21.45616	-0.09167583	0.131402	0.9591512	1.328055	11.12931	15.5812
21.47272	-0.07578536	0.1521819	0.9591508	1.254275	-1.25921E-05	-2.226694
21.48929	-0.06111722	0.1717394	0.8853705	1.180494	-2.226694	-2.226705
21.50586	-0.04644909	0.1876299	0.8853705	0.9591503	0	-6.680175
21.52262	-0.03055861	0.2047427	0.9480185	1.020943	1.879684	1.854019
21.53963	-0.01955751	0.2181885	0.6468982	0.7906538	-8.917407	-6.819806
21.55556	-0.009778756	0.2316343	0.6137776	0.8439445	-1.005543	1.617912
21.5735	0.002444689	0.2438577	0.6813316	0.6813312	1.994357	-4.800733
21.59007	0.02811392	0.2719716	1.549041	1.696569	25.14258	29.41731
21.60666	0.03667033	0.2793057	0.515694	0.4420246	-31.15958	-37.82955
21.6232	0.04522675	0.2878621	0.5173	0.517297	0.04846979	2.271858
21.63977	0.05867254	0.3000856	0.8115895	0.7378126	8.888841	6.660542
21.65634	0.07578536	0.3196431	1.032932	1.180493	6.680134	13.36013
21.6729	0.08434176	0.3294218	0.5164655	0.590244	-15.58699	-17.81376
21.68974	0.09656522	0.3392006	0.7261057	0.5808867	6.276373	-0.2801454
21.70604	0.09656522	0.3416453	0	0.1499963	-21.91518	-13.00505
21.72451	0.09656522	0.3428676	0	0.06618397	0	-2.410677
21.74108	0.09656522	0.3453123	0	0.1475427	0	2.322014
21.75781	0.09656522	0.3453123	0	0	0	-4.43015
21.77421	0.09656522	0.3453123	0	0	0	0
21.82689	0.09656522	0.3453123	0	0	0	0
21.84346	0.09656522	0.3416453	0	-0.2213149	0	-3.196054
21.86003	0.09778756	0.3416453	0.07378072	0	2.226578	6.678912
21.90046	0.09778756	0.3416453	0	0	-1.294503	0
21.91702	0.09778756	0.3428676	0	0.07378072	0	1.294503
21.93359	0.09778756	0.3428676	0	0	0	-2.226578
21.95016	0.09778756	0.3428676	0	0	0	0
21.96692	0.09778756	0.3428676	0	0	0	0
21.98329	0.09778756	0.3428676	0	0	0	0
22.00007	0.09778756	0.3428676	0	0	0	0
22.01642	0.09778756	0.3428676	0	0	0	0
22.06186	0.09778756	0.3428676	0	0	0	0
22.07862	0.08311942	0.3269771	-0.8748951	-0.9478047	-14.06658	-15.23882
22.09499	0.0794524	0.3196431	-0.2239984	-0.4479949	19.64297	15.08342
22.11165	0.07578535	0.312309	-0.2200762	-0.4401525	0.118733	0.2374109
22.12813	0.0660066	0.2976409	-0.5936641	-0.8904983	-11.2749	-13.59146
22.14469	0.05745019	0.2793057	-0.5164657	-1.106711	2.336575	-6.544144
22.16126	0.04400441	0.2573035	-0.8115893	-1.328055	-8.906847	-6.680171
22.17783	0.02444689	0.2206332	-1.180494	-2.213426	-11.13356	-26.72057
22.19559	0.01222344	0.1961863	-0.6882095	-1.37642	14.34042	24.3823
22.21227	-0.004889378	0.159516	-1.025611	-2.197738	-9.79489	-23.84316
22.22872	-0.01222344	0.1472925	-0.4458677	-0.7431133	17.49669	43.90067
22.24575	-0.0220022	0.1265126	-0.5743122	-1.220414	-3.836925	-14.25804
22.26186	-0.0330033	0.1081775	-0.6829774	-1.138295	-3.279523	2.478342
22.27843	-0.04278206	0.08984232	-0.5902469	-1.106713	2.837982	0.9665555
22.29499	-0.05256081	0.0727295	-0.5902469	-1.032932	0	2.226723
22.31156	-0.05989488	0.05683902	-0.442685	-0.9591514	4.453426	2.226699
22.32831	-0.06967364	0.0397262	-0.5836617	-1.021408	-4.230818	-1.868358
22.34469	-0.07578535	0.02750275	-0.3731572	-0.7463149	6.353405	8.302794
22.36217	-0.08189708	0.01650165	-0.3496622	-0.6293917	0.6939398	3.453409
22.37874	-0.0904535	0.0006111722	-0.5164664	-0.9591511	-4.899352	-9.685653
22.39531	-0.09167583	-0.001833517	-0.07378028	-0.1475617	13.3603	24.49382
22.41187	-0.09534287	-0.00794524	-0.2213426	-0.3689043	-4.453441	-6.680133
22.42844	-0.0990099	-0.01405696	-0.2213171	-0.3688618	0.0007689734	0.00128432
22.44501	-0.1014546	-0.01894634	-0.1475789	-0.2951574	2.225425	2.224403
22.46196	-0.1026769	-0.02139103	-0.072112	-0.1442244	2.251672	4.503319
22.47814	-0.1038993	-0.02505806	-0.07552007	-0.226559	-0.1028497	-2.48472
22.49522	-0.1051216	-0.02628041	-0.0715964	-0.07159662	0.1179752	4.659341
22.53839	-0.1051216	-0.02750275	0	-0.02831281	1.18841	0.718457
22.55658	-0.1051216	-0.0287251	0	-0.06719737	0	-0.6336786
22.57328	-0.1051216	-0.0287251	0	0	0	1.926126
22.58978	-0.1051216	-0.0287251	0	0	0	0
22.60629	-0.1051216	-0.0287251	0	0	0	0
22.62285	-0.1051216	-0.0287251	0	0	0	0
22.63956	-0.1051216	-0.0287251	0	0	0	0
22.65612	-0.1051216	-0.0287251	0	0	0	0
22.68498	-0.1051216	-0.0287251	0	0	0	0
22.70155	-0.1051216	-0.0287251	0	0	0	0
22.71814	-0.1051216	-0.0287251	0	0	0	0
22.73468	-0.1051216	-0.0287251	0	0	0	0
22.75125	-0.1051216	-0.0287251	0	0	0	0
22.76781	-0.1051216	-0.0287251	0	0	0	0
22.78438	-0.1051216	-0.0287251	0	0	0	0
22.80133	-0.1051216	-0.0287251	0	0	0	0
22.81752	-0.1051216	-0.0287251	0	0	0	0
22.84937	-0.1051216	-0.0287251	0	0	0	0
22.86594	-0.1051216	-0.0287251	0	0	0	0
22.88251	-0.1051216	-0.0287251	0	0	0	0
22.89932	-0.1051216	-0.0287251	0	0	0	0
22.91565	-0.1051216	-0.0287251	0	0	0	0
22.93221	-0.1051216	-0.0287251	0	0	0	0
22.94878	-0.1051216	-0.0287251	0	0	0	0
22.96535	-0.1051216	-0.0287251	0	0	0	0
22.98191	-0.1051216	-0.0287251	0	0	0	0
23.01208	-0.1051216	-0.0287251	0	0	0	0
23.02865	-0.1051216	-0.0287251	0	0	0	0
23.04521	-0.1051216	-0.0287251	0	0	0	0
23.0622	-0.1051216	-0.0287251	0	0	0	0
23.07835	-0.1051216	-0.0287251	0	0	0	0
23.09492	-0.1051216	-0.0287251	0	0	0	0
23.11148	-0.1051216	-0.0287251	0	0	0	0
23.12805	-0.1051216	-0.0287251	0	0	0	0
23.14535	-0.1051216	-0.0287251	0	0	0	0
23.16206	-0.1051216	-0.0287251	0	0	0	0
23.17863	-0.1051216	-0.0287251	0	0	0	0
23.19538	-0.1051216	-0.0287251	0	0	0	0
23.21177	-0.1051216	-0.0287251	0	0	0	0
23.22878	-0.1051216	-0.0287251	0	0	0	0
23.2449	-0.1051216	-0.0287251	0	0	0	0
23.26146	-0.1051216	-0.0287251	0	0	0	0
23.27803	-0.1051216	-0.0287251	0	0	0	0
23.2946	-0.1051216	-0.0287251	0	0	0	0
23.31117	-0.1051216	-0.0287251	0	0	0	0
23.3489	-0.1051216	-0.0287251	0	0	0	0
23.36557	-0.1051216	-0.0287251	0	0	0	0
23.38204	-0.1051216	-0.0287251	0	0	0	0
23.39948	-0.1051216	-0.0287251	0	0	0	0
23.41517	-0.1051216	-0.0287251	0	0	0	0
23.43174	-0.1051216	-0.0287251	0	0	0	0
23.44838	-0.1051216	-0.0287251	0	0	0	0
23.46487	-0.1051216	-0.0287251	0	0	0	0
23.50064	-0.1051216	-0.0287251	0	0	0	0
23.51721	-0.1051216	-0.0287251	0	0	0	0
23.53378	-0.1051216	-0.0287251	0	0	0	0
23.55035	-0.1051216	-0.0287251	0	0	0	0
23.56692	-0.1051216	-0.0287251	0	0	0	0
23.58354	-0.1051216	-0.0287251	0	0	0	0
23.60006	-0.1051216	-0.0287251	0	0	0	0
23.61662	-0.1051216	-0.0287251	0	0	0	0
23.64496	-0.1051216	-0.0287251	0	0	0	0
23.66155	-0.1051216	-0.0287251	0	0	0	0
23.67835	-0.1051216	-0.0287251	0	0	0	0
23.69469	-0.1051216	-0.0287251	0	0	0	0
23.71123	-0.1051216	-0.0287251	0	0	0	0
23.7278	-0.1051216	-0.0287251	0	0	0	0
23.74436	-0.1051216	-0.0287251	0	0	0	0
23.76093	-0.1051216	-0.0287251	0	0	0	0
23.77785	-0.1051216	-0.0287251	0	0	0	0
23.82529	-0.1051216	-0.0287251	0	0	0	0
23.84186	-0.1051216	-0.0287251	0	0	0	0
23.85858	-0.1051216	-0.0287251	0	0	0	0
23.87499	-0.1051216	-0.0287251	0	0	0	0
23.89156	-0.1051216	-0.0287251	0	0	0	0
23.90813	-0.1051216	-0.0287251	0	0	0	0
23.92487	-0.1051216	-0.0287251	0	0	0	0
23.95361	-0.1051216	-0.0287251	0	0	0	0
23.98627	-0.1051216	-0.02505806	0	0.1122807	0	1.828748
24.00284	-0.1038993	-0.02139103	0.07377268	0.2213171	1.498572	2.214898
24.0194	-0.1038993	-0.02139103	0	0	-2.226464	-6.679365
24.03597	-0.1038993	-0.02139103	0	0	0	0
24.05254	-0.1038993	-0.02139103	0	0	0	0
24.06911	-0.1038993	-0.02139103	0	0	0	0
24.08568	-0.1038993	-0.02139103	0	0	0	0
24.10226	-0.1038993	-0.02139103	0	0	0	0
24.11881	-0.1038993	-0.02139103	0	0	0	0
24.16211	-0.1038993	-0.02139103	0	0	0	0
24.17868	-0.1038993	-0.02139103	0	0	0	0
24.19524	-0.1038993	-0.02139103	0	0	0	0
24.21181	-0.1038993	-0.02139103	0	0	0	0
24.22838	-0.1038993	-0.02139103	0	0	0	0
24.24495	-0.1038993	-0.02139103	0	0	0	0
24.26151	-0.1038993	-0.02139103	0	0	0	0
24.27809	-0.1038993	-0.02139103	0	0	0	0
24.29859	-0.1038993	-0.02139103	0	0	0	0
24.3156	-0.1026769	-0.01894634	0.07184479	0.1436907	1.915354	3.830738
24.33173	-0.1026769	-0.01894634	0	0	-2.16803	-4.336093
24.3483	-0.1014546	-0.01772399	0.07376419	0.07376397	2.256078	2.256071
24.36486	-0.1014546	-0.01650165	0	0.07379783	-2.226208	0.001021984
24.38143	-0.1014546	-0.01650165	0	0	0	-2.227479
24.39825	-0.1014546	-0.01650165	0	0	0	0
24.41456	-0.1014546	-0.01650165	0	0	0	0
24.4316	-0.1014546	-0.01650165	0	0	0	0
24.46999	-0.1014546	-0.01650165	0	0	0	0
24.48656	-0.1014546	-0.01650165	0	0	0	0
24.50313	-0.1014546	-0.01650165	0	0	0	0
24.51969	-0.1014546	-0.01650165	0	0	0	0
24.53645	-0.1014546	-0.01650165	0	0	0	0
24.55283	-0.1014546	-0.01650165	0	0	0	0
24.5694	-0.1014546	-0.01650165	0	0	0	0
24.58596	-0.1014546	-0.01650165	0	0	0	0
24.6028	-0.1014546	-0.01650165	0	0	0	0
24.61936	-0.1014546	-0.01650165	0	0	0	0
24.63593	-0.1014546	-0.01650165	0	0	0	0
24.6525	-0.1014546	-0.01650165	0	0	0	0
24.66907	-0.1014546	-0.01650165	0	0	0	0
24.6859	-0.1014546	-0.01650165	0	0	0	0
24.70221	-0.0904535	-0.00794524	0.6746686	0.5247425	20.36037	15.83585
24.71877	-0.07089598	0.0006111722	1.180494	0.516466	15.38718	-0.2517697
24.73534	-0.05378316	0.006722894	1.032932	0.3689043	-4.453413	-4.453422
24.78144	-0.0440044	0.01038993	0.2121001	0.07953756	-13.09734	-4.617186
24.79865	-0.04155971	0.01161227	0.1421294	0.07106452	-1.105297	-0.1338449
24.81458	-0.04155971	0.01161227	0	0	-4.289226	-2.144608
24.83115	-0.04155971	0.01161227	0	0	0	0
24.84772	-0.04155971	0.01161227	0	0	0	0
24.86429	-0.04155971	0.01161227	0	0	0	0
24.88097	-0.04155971	0.01161227	0	0	0	0
24.89742	-0.04155971	0.01161227	0	0	0	0
24.94429	-0.04155971	0.01161227	0	0	0	0
24.9611	-0.04155971	0.01161227	0	0	0	0
24.97742	-0.04155971	0.01161227	0	0	0	0
24.99399	-0.04155971	0.01161227	0	0	0	0
25.01056	-0.04155971	0.01161227	0	0	0	0
25.02713	-0.04155971	0.01161227	0	0	0	0
25.0437	-0.04155971	0.01161227	0	0	0	0
25.11878	-0.04155971	0.01161227	0	0	0	0
25.13546	-0.04155971	0.01161227	0	0	0	0
25.15192	-0.04155971	0.01161227	0	0	0	0
25.16849	-0.04155971	0.01161227	0	0	0	0
25.18537	-0.04155971	0.01161227	0	0	0	0
25.20162	-0.04155971	0.01161227	0	0	0	0
25.24422	-0.04155971	0.01161227	0	0	0	0
25.26083	-0.04155971	0.01161227	0	0	0	0
25.27751	-0.04155971	0.01161227	0	0	0	0
25.29392	-0.04155971	0.01161227	0	0	0	0
25.31049	-0.04155971	0.01161227	0	0	0	0
25.32732	-0.04155971	0.01161227	0	0	0	0
25.34362	-0.04155971	0.01161227	0	0	0	0
25.36019	-0.04155971	0.01161227	0	0	0	0
25.39678	-0.04155971	0.01161227	0	0	0	0
25.41335	-0.04155971	0.01161227	0	0	0	0
25.43019	-0.04155971	0.01161227	0	0	0	0
25.44649	-0.04155971	0.01161227	0	0	0	0
25.46305	-0.04155971	0.01161227	0	0	0	0
25.47962	-0.04155971	0.01161227	0	0	0	0
25.49619	-0.04155971	0.01161227	0	0	0	0
25.51275	-0.04155971	0.01161227	0	0	0	0
25.55989	-0.04155971	0.01161227	0	0	0	0
25.57646	-0.04155971	0.01161227	0	0	0	0
25.59305	-0.04155971	0.01161227	0	0	0	0
25.60959	-0.04155971	0.01161227	0	0	0	0
25.62616	-0.04155971	0.01161227	0	0	0	0
25.64304	-0.04033737	0.01161227	0.07240552	5.516679E-08	2.164643	1.649272E-06
25.65929	-0.03667033	0.001833517	0.2256814	-0.6018176	4.626409	-18.16498
25.67656	-0.03055861	-0.007945239	0.3540276	-0.566444	3.829844	1.055547
25.6969	-0.02322455	-0.01894634	0.3605065	-0.5407599	0.1722776	0.682956
25.71347	0.003667034	-0.03728151	1.622992	-1.106585	34.20173	-15.32866
25.73004	0.0110011	-0.04094854	0.4426851	-0.2213426	-35.61969	26.71514
25.74661	0.02811392	-0.04461557	1.032694	-0.2212917	17.80446	0.001537409
25.76317	0.0440044	-0.04461557	0.9592614	0	-2.216082	6.678212
25.77981	0.06356192	-0.03850385	1.175756	0.3674238	6.521067	11.06721
25.7963	0.08311943	-0.0287251	1.185407	0.5927032	0.2912721	6.799339
25.81287	0.106344	-0.01650165	1.401675	0.7377239	6.540149	4.385568
25.82944	0.1259015	-0.003055861	1.180493	0.8115894	-6.67488	2.229138
25.86456	0.1393473	0.01038993	0.3828944	0.3828942	-15.43239	-8.294636
25.93173	0.1699059	0.0507273	0.4549238	0.6004997	0.7041745	2.127355
25.9483	0.1796846	0.08006357	0.5900438	1.770129	1.61345	13.9664
25.96503	0.1796847	0.08617529	8.909226E-07	0.3654123	-17.71981	-42.18561
25.9816	0.1796846	0.09350935	-1.798458E-06	0.4425834	-8.077046E-05	2.317686
26.03394	0.1784623	0.1020658	-0.0233521	0.1634669	-0.3388304	-4.050189
26.05136	0.1589048	0.1582936	-1.122716	3.22781	-15.75851	43.92493
26.06708	0.1527931	0.1754064	-0.3888719	1.08884	22.14619	-64.55054
26.08365	0.1369026	0.2206332	-0.9591512	2.729892	-17.66457	50.8321
26.10022	0.1161227	0.269527	-1.25413	2.950895	-8.901969	6.66948
26.11692	0.0990099	0.3025303	-1.024558	1.975932	6.899915	-29.30299
26.13335	0.08923116	0.3269772	-0.5951798	1.487952	12.95939	-14.72811
26.14992	0.07945239	0.351424	-0.5902476	1.475616	0.1494744	-0.3738403
26.18928	0.06967364	0.3746486	-0.2484436	0.5900535	6.111578	-15.83418
26.20585	0.05989488	0.4162083	-0.5900431	2.507684	-6.107298	34.28442
26.22241	0.05867253	0.418653	-0.07379794	0.1475954	15.57941	-71.22352
26.23942	0.05745019	0.42232	-0.07185306	0.2155616	0.05792647	2.024305
26.25567	0.05622784	0.4272094	-0.07525402	0.3010143	-0.1022705	2.569649
26.27211	0.0550055	0.4333211	-0.07432839	0.3716419	0.02831701	2.160651
26.28868	0.05378316	0.4357658	-0.07376374	0.1475275	0.0171022	-6.788013
26.30525	0.05378316	0.4369882	0	0.07379102	2.226066	-2.225243
26.34321	0.05378316	0.4369882	0	0	0	-1.353239
26.35978	0.05378316	0.4369882	0	0	0	0
26.37635	0.05378316	0.4369882	0	0	0	0
26.39291	0.05378316	0.4369882	0	0	0	0
26.41002	0.05378316	0.4369882	0	0	0	0
26.42635	0.05378316	0.4369882	0	0	0	0
26.44262	0.05378316	0.4369882	0	0	0	0
26.45918	0.05378316	0.4369882	0	0	0	0
26.50643	0.05378316	0.4369882	0	0	0	0
26.523	0.05378316	0.4369882	0	0	0	0
26.53957	0.05500551	0.4369882	0.07376397	0	2.225945	0
26.55658	0.05500551	0.4369882	0	0	-2.196613	0
26.57271	0.05500551	0.4369882	0	0	0	0
26.58927	0.05500551	0.4369882	0	0	0	0
26.60584	0.05500551	0.4369882	0	0	0	0
26.6224	0.05500551	0.4369882	0	0	0	0
26.69789	0.05500551	0.4369882	0	0	0	0
26.71446	0.07211832	0.3636475	1.032931	-4.426853	11.22065	-48.08855
26.73103	0.07334067	0.3502017	0.07377268	-0.8114963	-28.9458	109.1054
26.7476	0.07578536	0.3392006	0.1475619	-0.6640283	2.226835	4.450336
26.76416	0.08923115	0.2903068	0.8116828	-2.951574	20.04436	-69.04224
26.78073	0.09534287	0.2573035	0.3688191	-1.991625	-13.36488	28.96967
26.82068	0.1002322	0.2230779	0.1223833	-0.8566836	-4.35997	20.0795
26.83758	0.110011	0.1179563	0.5789167	-6.223351	8.031507	-94.41244
26.85382	0.110011	0.09962108	0	-1.128806	-17.47174	153.7537
26.87039	0.1075663	0.06906247	-0.147561	-1.844521	-4.497411	-21.8138
26.88696	0.1051216	0.04339323	-0.1475284	-1.549042	0.0009843193	8.916564
26.90412	0.1014546	0.01772399	-0.2136915	-1.49584	-1.961465	1.577212
26.92028	0.09778756	-0.006722894	-0.2269337	-1.512891	-0.3974317	-0.5117351
26.93679	0.09289818	-0.02994744	-0.2961462	-1.406695	-2.118595	3.250653
26.9732	0.0880088	-0.05194964	-0.134268	-0.6042053	3.058627	15.16274
26.98977	0.0770077	-0.09350935	-0.6640274	-2.508549	-9.998793	-35.943
27.00634	0.07456302	-0.09717639	-0.1475445	-0.2213171	15.58659	69.02483
27.02291	0.07334067	-0.1045105	-0.07378118	-0.4426852	2.226052	-6.680518
27.03978	0.07089598	-0.1106222	-0.1449093	-0.3622726	-2.127181	2.404849
27.05604	0.06967364	-0.1142892	-0.0751653	-0.2254968	2.104999	4.128138
27.07287	0.06967364	-0.1167339	0	-0.1452702	2.271501	2.424455
27.08942	0.06845129	-0.1179562	-0.0738577	-0.0738568	-2.212726	2.139496
27.12348	0.06845129	-0.1191786	0	-0.03588059	1.459142	0.7502627
27.14065	0.0660066	-0.1228456	-0.1424448	-0.2136681	-2.780525	-3.470415
27.15662	0.0660066	-0.1228456	0	0	4.298994	6.448517
27.17358	0.0660066	-0.124068	0	-0.07205525	0	-2.187729
27.18976	0.0660066	-0.124068	0	0	0	2.174256
27.20632	0.0660066	-0.124068	0	0	0	0
27.22289	0.0660066	-0.124068	0	0	0	0
27.23978	0.0660066	-0.124068	0	0	0	0
27.27709	0.0660066	-0.124068	0	0	0	0
27.29365	0.0660066	-0.124068	0	0	0	0
27.31022	0.0660066	-0.124068	0	0	0	0
27.32702	0.0660066	-0.124068	0	0	0	0
27.34336	0.0660066	-0.124068	0	0	0	0
27.35992	0.0660066	-0.124068	0	0	0	0
27.37649	0.0660066	-0.124068	0	0	0	0
27.39306	0.0660066	-0.124068	0	0	0	0
27.41852	0.0660066	-0.124068	0	0	0	0
27.43509	0.0660066	-0.124068	0	0	0	0
27.45188	0.0660066	-0.124068	0	0	0	0
27.46846	0.0660066	-0.124068	0	0	0	0
27.48479	0.0660066	-0.124068	0	0	0	0
27.50139	0.0660066	-0.124068	0	0	0	0
27.51792	0.0660066	-0.124068	0	0	0	0
27.53449	0.0660066	-0.124068	0	0	0	0
27.55106	0.0660066	-0.124068	0	0	0	0
27.59092	0.0660066	-0.124068	0	0	0	0
27.60748	0.06478426	-0.1204009	-0.07377223	0.2213171	-1.307348	3.922052
27.62405	0.06478426	-0.1191786	0	0.07378118	2.226322	-4.452388
27.64062	0.06478426	-0.1191786	0	0	0	-2.22672
27.65719	0.06478427	-0.1179563	4.497179E-07	0.07378028	1.357251E-05	2.226693
27.67379	0.06478426	-0.1167339	-4.488395E-07	0.07363705	-2.7092E-05	-0.004318238
27.69037	0.06478426	-0.1155116	0	0.07371283	1.352654E-05	0.002283754
27.70688	0.06478426	-0.1142892	0	0.07401078	0	0.009001955
27.72395	0.06356191	-0.1130669	-0.07162084	0.07162084	-2.132671	-0.07116599
27.74052	0.06233957	-0.1069551	-0.07378072	0.3689045	-0.06421699	8.838737
27.75715	0.06233957	-0.1045105	2.240336E-07	0.1470198	2.222619	-6.684181
27.77365	0.06233957	-0.1020658	-2.256904E-07	0.1481075	-1.35727E-05	0.03282761
27.79022	0.06233957	-0.0947317	0	0.4425834	6.823133E-06	8.902671
27.80684	0.06111723	-0.08861998	-0.07358565	0.3679298	-2.217628	-2.24981
27.82338	0.05867254	-0.07761887	-0.147732	0.6647933	-2.236067	8.952657
27.83992	0.05867254	-0.07150715	0	0.3695427	4.464985	-8.923522
27.85649	0.05867253	-0.06784011	-2.24859E-07	0.2213426	-6.792122E-06	-4.476552
27.90082	0.05745019	-0.06295074	-0.02757333	0.1102935	-0.4527765	-1.823532
27.91739	0.05622784	-0.04950495	-0.07378095	0.8115893	-0.7587728	11.51594
27.93396	0.05622784	-0.04950495	0	0	2.226457	-24.49099
27.95052	0.05622785	-0.04828261	4.498215E-07	0.07379749	1.357564E-05	2.227213
27.96709	0.05622784	-0.04461557	-4.496144E-07	0.2212921	-2.714503E-05	4.451397
27.99411	0.0550055	-0.04339323	-0.04524884	0.04524871	-1.038169	-4.039099
28.01068	0.0550055	-0.04094854	-2.247813E-07	0.1475112	1.038128	2.346184
28.0472	0.0550055	-0.03972619	1.020015E-07	0.03346874	6.154698E-06	-2.147899
28.06414	0.05378316	-0.03605916	-0.07216094	0.2164826	-1.349787	3.423311
28.08034	0.05378316	-0.03605916	0	0	2.177696	-6.533082
28.0969	0.05378316	-0.03483682	0	0.07378922	0	2.252244
28.11347	0.05378316	-0.03361447	0	0.07378095	0	-0.0002496078
28.13028	0.05378316	-0.03361447	0	0	0	-2.210679
28.14661	0.05378316	-0.03116978	0	0.1497162	0	4.518185
28.16317	0.05378316	-0.03116978	0	0	0	-4.551193
28.20208	0.05378316	-0.02994744	0	0.03141472	0	0.5662643
28.21865	0.05378316	-0.0287251	2.248331E-07	0.07377223	4.052577E-06	0.7634865
28.23522	0.05378316	-0.0287251	0	0	-6.785867E-06	-2.226578
28.25178	0.05378316	-0.0287251	0	0	0	0
28.26835	0.05378316	-0.0287251	0	0	0	0
28.28519	0.05378316	-0.0287251	0	0	0	0
28.30149	0.05378316	-0.0287251	0	0	0	0
28.31858	0.05378316	-0.0287251	0	0	0	0
28.35271	0.05378316	-0.0287251	0	0	0	0
28.36928	0.05378316	-0.0287251	0	0	0	0
28.38585	0.05378316	-0.0287251	0	0	0	0
28.40242	0.05378316	-0.0287251	0	0	0	0
28.41922	0.05378316	-0.0287251	0	0	0	0
28.43555	0.05378316	-0.0287251	0	0	0	0
28.45212	0.05378316	-0.0287251	0	0	0	0
28.46895	0.05378316	-0.0287251	0	0	0	0
28.52688	0.05378316	-0.0287251	0	0	0	0
28.54366	0.05378316	-0.0287251	0	0	0	0
28.56002	0.05378316	-0.0287251	0	0	0	0
28.57659	0.05378316	-0.0287251	0	0	0	0
28.59315	0.05378316	-0.0287251	0	0	0	0
28.61015	0.05378316	-0.0287251	0	0	0	0
28.63719	0.05378316	-0.0287251	0	0	0	0
28.69313	0.05378316	-0.0287251	0	0	0	0
28.70997	0.05378316	-0.0287251	0	0	0	0
28.72626	0.05378316	-0.0287251	0	0	0	0
28.74283	0.05378316	-0.0287251	0	0	0	0
28.75982	0.05378316	-0.02750275	-2.192798E-07	0.0719503	-6.534744E-06	2.144187
28.77636	0.05378316	-0.02750275	0	0	6.539949E-06	-2.145895
28.79253	0.05378316	-0.02750275	0	0	0	0
28.80947	0.05378316	-0.02750275	0	0	0	0
28.83999	0.05378316	-0.02750275	0	0	0	0
28.8573	0.05378316	-0.02750275	0	0	0	0
28.87313	0.05378316	-0.02750275	0	0	0	0
28.88969	0.05378316	-0.02750275	0	0	0	0
28.90626	0.05378316	-0.02750275	0	0	0	0
28.92283	0.05378316	-0.02750275	0	0	0	0
28.93973	0.05378316	-0.02750275	0	0	0	0
28.95596	0.05378316	-0.02750275	0	0	0	0
28.97258	0.05378316	-0.02750275	0	0	0	0
28.995	0.05378316	-0.02750275	0	0	0	0
29.01157	0.05378316	-0.02750275	0	0	0	0
29.02814	0.05378316	-0.02750275	0	0	0	0
29.0451	0.05378316	-0.02750275	0	0	0	0
29.06127	0.05378316	-0.02750275	0	0	0	0
29.07796	0.05378316	-0.02750275	0	0	0	0
29.09462	0.05378316	-0.02750275	0	0	0	0
29.11097	0.05378316	-0.02750275	0	0	0	0
29.12754	0.05378316	-0.02750275	0	0	0	0
29.1688	0.05378316	-0.02750275	0	0	0	0
29.18537	0.05378316	-0.02750275	0	0	0	0
29.20198	0.05378316	-0.02750275	0	0	0	0
29.21875	0.05378316	-0.02750275	0	0	0	0
29.23507	0.05378316	-0.02750275	0	0	0	0
29.25164	0.05378316	-0.02750275	0	0	0	0
29.26821	0.05378316	-0.02750275	0	0	0	0
29.2928	0.05378316	-0.02750275	0	0	0	0
29.32052	0.05378316	-0.02750275	0	0	0	0
29.33724	0.05378316	-0.02750275	0	0	0	0
29.35378	0.05378316	-0.02750275	0	0	0	0
29.37025	0.05378316	-0.02750275	0	0	0	0
29.3868	0.05378316	-0.02750275	0	0	0	0
29.40336	0.05378316	-0.02750275	0	0	0	0
29.41993	0.05378316	-0.02750275	0	0	0	0
29.43686	0.05378316	-0.02750275	0	0	0	0
29.45306	0.05378316	-0.02750275	0	0	0	0
29.46963	0.05378316	-0.02750275	0	0	0	0
29.49976	0.05378316	-0.02750275	0	0	0	0
29.51633	0.05378316	-0.02750275	0	0	0	0
29.53307	0.05378316	-0.02750275	0	0	0	0
29.54967	0.05378316	-0.02750275	0	0	0	0
29.56603	0.05378316	-0.02750275	0	0	0	0
29.5826	0.05378316	-0.02750275	0	0	0	0
29.59941	0.05378316	-0.02750275	0	0	0	0
29.61576	0.05378316	-0.02750275	0	0	0	0
29.6323	0.05378316	-0.02750275	0	0	0	0
29.66398	0.05378316	-0.02750275	0	0	0	0
29.68083	0.05378316	-0.02750275	0	0	0	0
29.69786	0.05378316	-0.02750275	0	0	0	0
29.71368	0.05378316	-0.02383572	2.355717E-07	0.2318877	7.171075E-06	7.058929
29.7308	0.0550055	-0.01405696	0.07138903	0.5711133	2.167494	10.29951
29.74682	0.05622785	0.00550055	0.07632028	1.221123	0.148808	19.61507
29.76341	0.05745019	0.03239213	0.07367046	1.620753	-0.08126261	12.25558
29.77995	0.0550055	0.05194964	-0.1477999	1.1824	-6.684373	-13.2303
29.80975	0.05133847	0.07395184	-0.123061	0.7383658	0.5338672	-9.582286
29.82632	0.03789268	0.1252903	-0.8114959	3.09844	-14.84731	50.89916
29.84355	0.03789268	0.1252903	0	0	24.00867	-91.66948
29.85945	0.03178096	0.1424031	-0.3843472	1.076172	-11.60029	32.48081
29.87602	0.02811393	0.159516	-0.2213425	1.032932	5.02035	-1.331746
29.89258	0.02444689	0.1741841	-0.2213682	0.8854715	-0.0007758081	-4.45062
29.90915	0.02077986	0.1888522	-0.2213171	0.8852686	0.001541633	-0.006125158
29.92572	0.01711282	0.2059651	-0.2212916	1.032695	0.0007720324	4.448572
29.94228	0.01344579	0.2230779	-0.2214191	1.033288	-0.003849357	0.01789261
29.97804	0.01344579	0.2328566	2.604444E-08	0.2734633	4.231978	-14.52251
30.00821	0.01222344	0.2524141	-0.04051466	0.648234	-0.614516	5.684423
30.02478	0.01222344	0.2585258	0	0.3688612	0.8668169	-5.977222
30.04135	0.01222344	0.2597482	0	0.07377403	0	-8.904722
30.05792	0.01222344	0.2621929	0	0.1475784	0	2.227421
30.07448	0.01222344	0.2646376	0	0.1475614	0	-0.000512708
30.09105	0.01222344	0.2670823	0	0.1475784	0	0.000512708
30.13319	0.0110011	0.269527	-0.02900348	0.05800682	-0.4940117	-1.525659
30.14977	0.0110011	0.2707493	0	0.07376374	0.4939636	0.268359
30.16633	0.0110011	0.2707493	0	0	0	-2.226066
30.18307	0.009778756	0.2707493	-0.07303252	0	-2.193017	0
30.19946	-0.004889378	0.2536365	-0.8946401	-1.043747	-24.7976	-31.50215
30.21615	-0.04155971	0.2047427	-2.19799	-2.930653	-39.40094	-57.04217
30.2326	-0.09656521	0.127735	-3.343232	-4.680526	-34.5615	-52.80824
30.24916	-0.1637942	0.02261337	-4.058415	-6.345884	-21.66033	-50.4377
30.27972	-0.2359125	-0.08739763	-2.359927	-3.59989	36.04229	58.27059
30.29629	-0.3557023	-0.2780834	-7.230525	-11.50981	-103.351	-167.8435
30.31286	-0.3679257	-0.2951962	-0.7378091	-1.032932	195.9506	316.1929
30.32943	-0.3801492	-0.3159761	-0.7378091	-1.254276	0	-6.680175
30.34599	-0.3802606	-0.3246565	-0.006728805	-0.5238917	22.06277	22.04177
30.36256	-0.3759971	-0.3295849	0.257378	-0.2975155	7.970759	6.832047
30.37913	-0.3729689	-0.3330079	0.1827834	-0.2066112	-2.2514	2.743654
30.39606	-0.3711896	-0.3349899	0.105089	-0.1170616	-2.31932	2.67322
30.42427	-0.369478	-0.3368769	0.06067444	-0.06689169	-0.9839023	1.1114
30.44084	-0.3654341	-0.3412593	0.2440853	-0.2645187	4.096103	-4.413591
30.4574	-0.3643138	-0.342455	0.06762139	-0.07217253	-5.325692	5.805019
30.47397	-0.3609709	-0.3459768	0.2017777	-0.2125781	4.048844	-4.237447
30.49054	-0.3581922	-0.3488528	0.167725	-0.1735983	-1.027711	1.176411
30.50722	-0.3527409	-0.354364	0.3267442	-0.3303329	4.782415	-4.713707
30.52367	-0.3473545	-0.3596455	0.3274275	-0.3210471	0.02062406	0.2802462
30.5405	-0.344166	-0.362698	0.1894281	-0.1813474	-4.146214	4.1973
30.55703	-0.3425837	-0.3641928	0.09574821	-0.09045692	-2.808351	2.724729
30.58537	-0.341497	-0.365212	0.03835151	-0.03596926	-1.279439	1.214593
30.60217	-0.341497	-0.365212	0	0	-0.8495177	0.7967491
30.6185	-0.341497	-0.365212	0	0	0	0
30.63559	-0.341497	-0.365212	0	0	0	0
30.6521	-0.3377394	-0.3686897	0.2275424	-0.2105946	6.772511	-6.26808
30.6682	-0.3337505	-0.3723044	0.2477565	-0.2245161	0.619801	-0.4268602
30.68495	-0.3190319	-0.3685369	0.8787043	0.2249256	19.20678	13.68153
30.70139	-0.2774722	-0.3355336	2.527462	2.007101	49.67097	53.69035
30.71895	-0.2175773	-0.2915291	3.412168	2.5069	26.02337	14.70144
30.73552	-0.2041315	-0.2780834	0.8114954	0.8114945	-76.21584	-49.68589
30.75208	-0.2041315	-0.2780834	0	0	-24.49098	-24.49095
30.76872	-0.2004645	-0.273194	0.2203284	0.2937718	6.634631	8.846191
30.78521	-0.2004645	-0.273194	0	0	-6.649908	-8.866562
30.80178	-0.2004645	-0.273194	0	0	0	0
30.81835	-0.2004645	-0.273194	0	0	0	0
30.83492	-0.2004645	-0.273194	0	0	0	0
30.85148	-0.2004645	-0.273194	0	0	0	0
30.86805	-0.2004645	-0.273194	0	0	0	0
30.90812	-0.2004645	-0.273194	0	0	0	0
30.92468	-0.2004645	-0.273194	0	0	0	0
30.94125	-0.2004645	-0.273194	0	0	0	0
30.95782	-0.2004645	-0.273194	0	0	0	0
30.97439	-0.2004645	-0.273194	0	0	0	0
30.99096	-0.2004645	-0.273194	0	0	0	0
31.00752	-0.2004645	-0.273194	0	0	0	0
31.02409	-0.2004645	-0.273194	0	0	0	0
31.07975	-0.2004645	-0.273194	0	0	0	0
31.09649	-0.1967975	-0.2634152	0.2190482	0.5841261	3.025563	8.068136
31.11302	-0.1955751	-0.2621929	0.07392541	0.07392721	-4.361236	-15.33252
31.12945	-0.1931304	-0.2597482	0.1488303	0.1488294	2.272538	2.272456
31.14602	-0.1772399	-0.2438577	0.9591512	0.9591503	24.56015	24.56015
31.16258	-0.1650165	-0.2291896	0.7378073	0.8853705	-6.680173	-2.226679
31.17915	-0.1515707	-0.2157438	0.8116832	0.8116832	2.229709	-2.224014
31.21007	-0.1356802	-0.2035204	0.5138268	0.3952511	-6.271841	-8.76864
31.2279	-0.07945239	-0.1534042	3.154584	2.811695	54.16946	49.56816
31.24447	-0.05867254	-0.1326244	1.25413	1.254129	-55.2565	-45.28689
31.26103	-0.04767144	-0.124068	0.6640276	0.5164664	-17.8083	-22.26141
31.27778	-0.03178096	-0.1045105	0.9489905	1.167988	8.554399	19.55827
31.29417	-0.008556412	-0.07761887	1.417008	1.640746	14.1248	14.26787
31.3111	0.001222344	-0.06295074	0.5774168	0.8661255	-25.19389	-23.2443
31.32735	0.0110011	-0.0507273	0.6018176	0.7522718	0.7353162	-3.430974
31.34387	0.01589048	-0.03728151	0.2960778	0.8142142	-9.331996	1.890648
31.3806	0.0220022	-0.02628041	0.1663968	0.2995141	-2.435615	-9.666883
31.39716	0.0330033	0.004278206	0.6640276	1.844522	9.336931	28.98861
31.41394	0.03422565	0.009167584	0.07287484	0.291499	-17.7308	-46.58072
31.43032	0.03667033	0.017724	0.1492282	0.5222988	2.30289	6.961145
31.44715	0.03667033	0.02383572	0	0.3631348	-4.493111	-4.792268
31.46343	0.03911502	0.0287251	0.1501371	0.3002745	4.534019	-1.898331
31.48	0.04033737	0.03361447	0.07378095	0.2951232	-2.32437	-0.1568097
31.49657	0.04033737	0.03605916	0	0.1475619	-2.226713	-4.453411
31.51367	0.04033737	0.03972619	0	0.2143823	0	1.984429
31.53106	0.04033737	0.04217088	-2.141819E-07	0.140555	-6.208493E-06	-2.140032
31.54779	0.04155971	0.04583792	0.07309116	0.2192726	2.14239	2.307302
31.56421	0.04155971	0.04583792	0	0	-2.205515	-6.616517
31.58077	0.04155971	0.04706026	-2.249107E-07	0.07379794	-6.819618E-06	2.23766
31.59742	0.04155971	0.04706026	0	0	6.771449E-06	-2.221854
31.6139	0.04155971	0.0482826	0	0.07416496	0	2.238432
31.63047	0.04278206	0.0482826	0.07376397	0	2.231725	-2.243857
31.64746	0.04278206	0.04950495	0	0.0719586	-2.198111	2.144312
31.66365	0.04278206	0.04950495	0	0	0	-2.168844
31.70127	0.04278206	0.04950495	0	0	0	0
31.71795	0.04278206	0.04950495	0	0	0	0
31.73441	0.04278206	0.04950495	0	0	0	0
31.75098	0.04278206	0.04950495	0	0	0	0
31.76765	0.04278206	0.04950495	0	0	0	0
31.78411	0.04278206	0.04950495	0	0	0	0
31.80068	0.04278206	0.04950495	0	0	0	0
31.81725	0.04278206	0.04950495	0	0	0	0
31.85873	0.04278206	0.04950495	0	0	0	0
31.8753	0.04278206	0.04950495	0	0	0	0
31.89186	0.04278206	0.04950495	0	0	0	0
31.90847	0.04278206	0.04950495	0	0	0	0
31.92571	0.04278206	0.04950495	0	0	0	0
31.95129	0.04278206	0.04950495	0	0	0	0
31.96786	0.04278206	0.04950495	0	0	0	0
31.98443	0.04278206	0.04950495	0	0	0	0
32.00099	0.04278206	0.04950495	0	0	0	0
32.01756	0.04278206	0.04950495	0	0	0	0
32.03435	0.04278206	0.04950495	0	0	0	0
32.05069	0.04278206	0.04950495	0	0	0	0
32.06801	0.04278206	0.04950495	0	0	0	0
32.08383	0.04278206	0.04950495	0	0	0	0
32.1004	0.04278206	0.04950495	0	0	0	0
32.11702	0.04278206	0.04950495	0	0	0	0
32.13371	0.04278206	0.04950495	0	0	0	0
32.16668	0.04278206	0.04950495	0	0	0	0
32.18324	0.04278206	0.04950495	0	0	0	0
32.19981	0.04278206	0.04950495	0	0	0	0
32.21638	0.04278206	0.04950495	0	0	0	0
32.23295	0.04278206	0.04950495	0	0	0	0
32.24953	0.04278206	0.04950495	0	0	0	0
32.26608	0.04278206	0.04950495	0	0	0	0
32.28265	0.04278206	0.04950495	0	0	0	0
32.31857	0.04278206	0.04950495	0	0	0	0
32.33514	0.04278206	0.04950495	0	0	0	0
32.35189	0.04278206	0.04950495	0	0	0	0
32.36827	0.04278206	0.04950495	0	0	0	0
32.38484	0.04278206	0.04950495	0	0	0	0
32.40141	0.04278206	0.04950495	0	0	0	0
32.41822	0.04278206	0.04950495	0	0	0	0
32.43455	0.04278206	0.04950495	0	0	0	0
32.479	0.04278206	0.04950495	0	0	0	0
32.49557	0.04278206	0.04950495	0	0	0	0
32.51213	0.04278206	0.04950495	0	0	0	0
32.52913	0.04278206	0.04950495	0	0	0	0
32.54615	0.04278206	0.04950495	0	0	0	0
32.56196	0.04278206	0.04950495	0	0	0	0
32.57841	0.04278206	0.04950495	0	0	0	0
32.59497	0.04278206	0.04950495	0	0	0	0
32.64689	0.04278206	0.04950495	0	0	0	0
32.66351	0.04278206	0.04950495	0	0	0	0
32.68002	0.04278206	0.04950495	0	0	0	0
32.6969	0.04278206	0.04950495	0	0	0	0
32.71316	0.04278206	0.04950495	0	0	0	0
32.72978	0.04278206	0.04950495	0	0	0	0
32.7463	0.04278206	0.04950495	0	0	0	0
32.78595	0.04278206	0.04950495	0	0	0	0
32.80251	0.04278206	0.04950495	0	0	0	0
32.81908	0.04278206	0.04950495	0	0	0	0
32.83565	0.04278206	0.04950495	0	0	0	0
32.85446	0.04278206	0.04950495	0	0	0	0
32.87114	0.04278206	0.04950495	0	0	0	0
32.88766	0.04278206	0.04950495	0	0	0	0
32.90495	0.04278206	0.04950495	0	0	0	0
32.95419	0.04278206	0.04950495	0	0	0	0
32.97107	0.04278206	0.04950495	0	0	0	0
32.98732	0.04278206	0.04950495	0	0	0	0
33.00396	0.04278206	0.04950495	0	0	0	0
33.02047	0.04278206	0.04950495	0	0	0	0
33.03708	0.04278206	0.04950495	0	0	0	0
33.0536	0.04278206	0.04950495	0	0	0	0
33.13499	0.04278206	0.04950495	0	0	0	0
33.15156	0.04278206	0.04950495	0	0	0	0
33.16813	0.04278206	0.04950495	0	0	0	0
33.18492	0.04278206	0.04950495	0	0	0	0
33.20182	0.04278206	0.04950495	0	0	0	0
33.21784	0.04278206	0.04950495	0	0	0	0
33.24841	0.04278206	0.04950495	0	0	0	0
33.2655	0.04278206	0.04950495	0	0	0	0
33.28155	0.04278206	0.04950495	0	0	0	0
33.29812	0.04278206	0.04950495	0	0	0	0
33.31469	0.04278206	0.04950495	0	0	0	0
33.33125	0.04278206	0.04950495	0	0	0	0
33.34782	0.04278206	0.04950495	0	0	0	0
33.36511	0.04278206	0.04950495	0	0	0	0
33.38095	0.04278206	0.04950495	0	0	0	0
33.41635	0.04278206	0.04950495	0	0	0	0
33.43292	0.04278206	0.04950495	0	0	0	0
33.44987	0.04278206	0.04950495	0	0	0	0
33.46606	0.04278206	0.04950495	0	0	0	0
33.48262	0.04278206	0.04950495	0	0	0	0
33.49919	0.04278206	0.04950495	0	0	0	0
33.51601	0.04278206	0.04950495	0	0	0	0
33.53232	0.04278206	0.04950495	0	0	0	0
33.57242	0.04278206	0.04950495	0	0	0	0
33.58948	0.04278206	0.04950495	0	0	0	0
33.60556	0.04278206	0.04950495	0	0	0	0
33.62212	0.04278206	0.04950495	0	0	0	0
33.63869	0.04278206	0.04950495	0	0	0	0
33.65525	0.04278206	0.04950495	0	0	0	0
33.67182	0.04278206	0.04950495	0	0	0	0
33.68881	0.04278206	0.04950495	0	0	0	0
33.72484	0.04278206	0.04950495	0	0	0	0
33.74141	0.04278206	0.04950495	0	0	0	0
33.75797	0.04278206	0.04950495	0	0	0	0
33.77454	0.04278206	0.04950495	0	0	0	0
33.79111	0.04278206	0.04950495	0	0	0	0
33.80767	0.04278206	0.04950495	0	0	0	0
33.82424	0.05256081	0.0482826	0.5902467	-0.07378118	17.81368	-2.22672
33.84081	0.06845129	0.04583792	0.9589307	-0.1475277	11.12562	-2.225419
33.87581	0.08434177	0.04461557	0.4540651	-0.03492802	-9.790462	2.183558
33.89238	0.1405696	0.04217089	3.39392	-0.1475617	57.01453	-2.184378
33.90894	0.1527931	0.04339323	0.7378082	0.07378095	-80.16162	6.680134
33.92551	0.1650165	0.04461557	0.7378082	0.0737805	0	-1.349154E-05
33.94221	0.1931304	0.04583792	1.68301	0.07317462	28.40849	-0.01821006
33.95864	0.2346901	0.05439433	2.530103	0.5209038	25.56829	13.51405
33.97521	0.2346901	0.05439433	0	0	-76.68533	-15.78816
33.99178	0.25547	0.05928371	1.254276	0.2951233	37.85412	8.90684
34.00875	0.2725828	0.06417309	1.008322	0.2880921	-7.333417	-0.2096455
34.0456	0.2884733	0.06906246	0.4311316	0.1326558	-10.72262	-2.887583
34.06218	0.2958074	0.07884122	0.4425842	0.5901108	0.2143534	8.561979
34.07906	0.2958074	0.07884122	0	0	-13.23079	-17.64101
34.09531	0.2970297	0.08128591	0.07519875	0.1504016	2.269503	4.53913
34.11188	0.2970297	0.08495294	0	0.2213426	-2.291132	2.161408
34.12903	0.2970297	0.08739763	0	0.1425399	0	-2.337104
34.14501	0.2970297	0.08984232	0	0.1529867	0	0.3153214
34.16171	0.2970297	0.0947317	0	0.292764	0	4.277083
34.20163	0.2970297	0.09962107	0	0.1224886	0	-3.007456
34.21819	0.2896957	0.1167339	-0.4426844	1.032932	-7.83731	16.11855
34.23476	0.2884733	0.1179563	-0.07378072	0.07378118	11.13353	-28.94724
34.25133	0.2848063	0.1228456	-0.221344	0.2951224	-4.453468	6.680093
34.2679	0.2823616	0.127735	-0.1474917	0.2949884	2.228352	-0.004044731
34.28447	0.2762499	0.1350691	-0.3689904	0.4427863	-6.684073	4.460036
34.30117	0.2676935	0.1460702	-0.5123362	0.6587206	-4.309317	6.4915
34.31782	0.2530253	0.159516	-0.8809099	0.8074984	-11.05106	4.460849
34.35469	0.2298008	0.1790735	-0.6299191	0.530459	4.689646	-5.176351
34.37125	0.1735729	0.2206332	-3.39392	2.508549	-51.72519	37.01774
34.38782	0.1613495	0.2291896	-0.7378082	0.5164651	80.16163	-60.12122
34.40475	0.1356802	0.2463024	-1.516574	1.011049	-23.25157	14.76676
34.42104	0.1075663	0.2621929	-1.725162	0.9750931	-6.278577	-1.08228
34.43835	0.08067474	0.276861	-1.55343	0.847324	5.109928	-3.801804
34.45409	0.0550055	0.2903068	-1.631282	0.854481	-2.355798	0.216573
34.47066	0.02933627	0.3025303	-1.548685	0.7374694	2.556353	-3.621475
34.50668	0.02077986	0.3061973	-0.2376072	0.1018315	24.93225	-12.08768
34.52325	0.01711282	0.308642	-0.2212916	0.1475293	0.3102901	0.8690805
34.53981	0.01711282	0.308642	0	0	6.677824	-4.45193
34.55639	0.01711282	0.308642	0	0	0	0
34.57373	0.01711282	0.308642	0	0	0	0
34.58969	0.01711282	0.308642	0	0	0	0
34.60608	0.01589048	0.308642	-0.07457067	0	-2.304675	0
34.62265	0.01589048	0.3098643	-1.124295E-07	0.07378072	2.262526	2.238562
34.66587	0.01466813	0.3098643	-0.02827905	0	-0.4729587	-1.233965
34.68245	0.01466813	0.3098643	0	0	0.4729304	0
34.69901	0.01466813	0.3098643	0	0	0	0
34.71558	0.01466813	0.3098643	0	0	0	0
34.73219	0.01466813	0.3098643	0	0	0	0
34.74873	0.01466813	0.3098643	0	0	0	0
34.76557	0.01466813	0.3098643	0	0	0	0
34.78185	0.01466813	0.3098643	0	0	0	0
34.82354	0.01466813	0.3098643	0	0	0	0
34.8401	0.01466813	0.3098643	0	0	0	0
34.85667	0.01466813	0.3098643	0	0	0	0
34.87324	0.01466813	0.3098643	0	0	0	0
34.89001	0.01589048	0.3098643	0.07289125	0	2.186521	0
34.90638	0.01589048	0.308642	1.137919E-07	-0.07467483	-2.199606	-2.253431
34.92294	0.01589048	0.308642	0	0	-3.454931E-06	2.267264
34.93977	0.01589048	0.308642	0	0	0	0
35.00204	0.01589048	0.308642	0	0	0	0
35.01861	0.01589048	0.308642	0	0	0	0
35.03546	0.01589048	0.308642	0	0	0	0
35.05174	0.01589048	0.308642	0	0	0	0
35.0684	0.01589048	0.308642	0	0	0	0
35.08488	0.01589048	0.308642	0	0	0	0
35.10144	0.01589048	0.308642	0	0	0	0
35.1401	0.01589048	0.2988632	0	-0.2529799	0	-4.581497
35.15667	0.01466813	0.2463024	-0.07378089	-3.172577	-1.336089	-52.87061
35.17323	0.01466813	0.2353013	-5.621474E-08	-0.6640274	2.22671	75.70818
35.18988	0.01589048	0.2120768	0.07344262	-1.39541	2.211413	-22.02248
35.20639	0.01833517	0.1864075	0.1480732	-1.554768	2.25106	-4.80665
35.22344	0.02322455	0.1558489	0.2866744	-1.791714	4.129272	-7.059218
35.24411	0.02689158	0.1289573	0.1774254	-1.30112	-2.896042	13.00498
35.27271	0.03178095	0.08739763	0.1709416	-1.453005	-0.1315961	-3.082664
35.2895	0.03178096	0.05561668	2.218956E-07	-1.893021	-3.765968	-9.693887
35.30585	0.03178096	0.05561668	0	0	-6.696822E-06	57.13148
35.32241	0.0330033	0.04217088	0.07379772	-0.8117767	2.242451	-24.66702
35.33965	0.03178095	0.02994744	-0.07089174	-0.7089165	-4.280013	3.042673
35.35555	0.03055861	0.01283462	-0.07689697	-1.07656	-0.1812175	-11.09421
35.37211	0.02933627	0.003055861	-0.07379772	-0.5903828	0.0954814	14.97806
35.38868	0.02689158	-0.01283462	-0.1475958	-0.9593721	-2.227743	-11.13868
35.40524	0.02566923	-0.01650165	-0.07378095	-0.2213426	2.227993	22.27634
35.43504	0.02444689	-0.02383572	-0.04101769	-0.2461063	0.7065974	-0.5340726
35.45161	0.02444689	-0.02994744	1.124036E-07	-0.3688194	0.8845484	-2.646307
35.46853	0.02444689	-0.02994744	0	0	-3.356793E-06	11.01433
35.48475	0.02322455	-0.02994744	-0.0753776	0	-2.275162	0
35.50132	0.02322455	-0.02994744	0	0	2.298986	0
35.51788	0.02322455	-0.02994744	0	0	0	0
35.53451	0.02322455	-0.02994744	0	0	0	0
35.5512	0.02322455	-0.02994744	0	0	0	0
35.56758	0.02322455	-0.02994744	0	0	0	0
35.61194	0.02322455	-0.02994744	0	0	0	0
35.62851	0.02322455	-0.02994744	0	0	0	0
35.64513	0.02322455	-0.02994744	0	0	0	0
35.66164	0.02322455	-0.02994744	0	0	0	0
35.67821	0.02322455	-0.02994744	0	0	0	0
35.69477	0.02322455	-0.02994744	0	0	0	0
35.71134	0.02322455	-0.02994744	0	0	0	0
35.72791	0.02322455	-0.02994744	0	0	0	0
35.76562	0.02322455	-0.02994744	0	0	0	0
35.78219	0.02322455	-0.02994744	0	0	0	0
35.79877	0.02322455	-0.02994744	0	0	0	0
35.81532	0.02322455	-0.02994744	0	0	0	0
35.83189	0.02322455	-0.02994744	0	0	0	0
35.84855	0.02322455	-0.02994744	0	0	0	0
35.86502	0.02322455	-0.02994744	0	0	0	0
35.88159	0.02322455	-0.02994744	0	0	0	0
35.92041	0.02322455	-0.02994744	0	0	0	0
35.93843	0.02322455	-0.02994744	0	0	0	0
35.95513	0.02322455	-0.02994744	0	0	0	0
35.97157	0.02322455	-0.02994744	0	0	0	0
35.98813	0.02322455	-0.02994744	0	0	0	0
36.0047	0.02322455	-0.02994744	0	0	0	0
36.02127	0.02322455	-0.02994744	0	0	0	0
36.03817	0.02322455	-0.02994744	0	0	0	0
36.08318	0.02322455	-0.02994744	0	0	0	0
36.09975	0.02322455	-0.02994744	0	0	0	0
36.11632	0.02322455	-0.02994744	0	0	0	0
36.13289	0.02322455	-0.02994744	0	0	0	0
36.14946	0.02322455	-0.02994744	0	0	0	0
36.16605	0.02322455	-0.02994744	0	0	0	0
36.18259	0.02322455	-0.02994744	0	0	0	0
36.19916	0.02322455	-0.02994744	0	0	0	0
36.23587	0.02322455	-0.02994744	0	0	0	0
36.25245	0.02322455	-0.02994744	0	0	0	0
36.26902	0.02322455	-0.02994744	0	0	0	0
36.28558	0.02322455	-0.02994744	0	0	0	0
36.30215	0.02322455	-0.02994744	0	0	0	0
36.31871	0.02322455	-0.02994744	0	0	0	0
36.33528	0.02322455	-0.02994744	0	0	0	0
36.35185	0.02322455	-0.02994744	0	0	0	0
36.39132	0.02322455	-0.02994744	0	0	0	0
36.40789	0.02322455	-0.02994744	0	0	0	0
36.42446	0.02322455	-0.02994744	0	0	0	0
36.44102	0.02322455	-0.02994744	0	0	0	0
36.45771	0.02322455	-0.02994744	0	0	0	0
36.47416	0.02322455	-0.02994744	0	0	0	0
36.49073	0.02322455	-0.02994744	0	0	0	0
36.50821	0.02322455	-0.02994744	0	0	0	0
36.54713	0.02322455	-0.02994744	0	0	0	0
36.5637	0.02322455	-0.02994744	0	0	0	0
36.58041	0.02322455	-0.02994744	0	0	0	0
36.59683	0.02322455	-0.02994744	0	0	0	0
36.61345	0.02322455	-0.02994744	0	0	0	0
36.62997	0.02322455	-0.02994744	0	0	0	0
36.64654	0.02322455	-0.02994744	0	0	0	0
36.67513	0.02322455	-0.02994744	0	0	0	0
36.7088	0.02322455	-0.02994744	0	0	0	0
36.72555	0.02322455	-0.02994744	0	0	0	0
36.74194	0.02322455	-0.02994744	0	0	0	0
36.75851	0.02322455	-0.02994744	0	0	0	0
36.77536	0.02322455	-0.02994744	0	0	0	0
36.79164	0.02322455	-0.02994744	0	0	0	0
36.8082	0.02322455	-0.02994744	0	0	0	0
36.82477	0.02322455	-0.02994744	0	0	0	0
36.84134	0.02322455	-0.02994744	0	0	0	0
36.88728	0.02322455	-0.02994744	0	0	0	0
36.90405	0.02322455	-0.02994744	0	0	0	0
36.92042	0.02322455	-0.02994744	0	0	0	0
36.93699	0.02322454	-0.0287251	-2.24859E-07	0.07378095	-6.827129E-06	2.240124
36.95356	0.02322455	-0.02750275	1.124036E-07	0.07376385	1.017743E-05	-0.0005157671
36.97012	0.02322455	-0.02750275	0	0	-3.391957E-06	-2.225941
36.98669	0.02322455	-0.02750275	0	0	0	0
37.00325	0.02322455	-0.02750275	0	0	0	0
37.0625	0.02322455	-0.02750275	0	0	0	0
37.07909	0.02322455	-0.02750275	0	0	0	0
37.09564	0.02322455	-0.02750275	0	0	0	0
37.11221	0.02322455	-0.02750275	0	0	0	0
37.12878	0.02322455	-0.02750275	0	0	0	0
37.14571	0.02322455	-0.02750275	0	0	0	0
37.16191	0.02322455	-0.02750275	0	0	0	0
37.20308	0.02322455	-0.02750275	0	0	0	0
37.21972	0.02322455	-0.02628041	1.119398E-07	0.07345946	1.936536E-06	1.270835
37.23621	0.02322455	-0.02628041	0	0	-3.378349E-06	-2.217011
37.25278	0.02322455	-0.02628041	0	0	0	0
37.26934	0.02322455	-0.02628041	0	0	0	0
37.28592	0.02322455	-0.02628041	0	0	0	0
37.30248	0.02322455	-0.02628041	0	0	0	0
37.31905	0.02322455	-0.02628041	0	0	0	0
37.36204	0.02322455	-0.02628041	0	0	0	0
37.37881	0.02322455	-0.02628041	0	0	0	0
37.39518	0.02322455	-0.02628041	0	0	0	0
37.41174	0.02322455	-0.02628041	0	0	0	0
37.42831	0.02322455	-0.02628041	0	0	0	0
37.44489	0.02322455	-0.02628041	0	0	0	0
37.46144	0.02322455	-0.02628041	0	0	0	0
37.47801	0.02322455	-0.02628041	0	0	0	0
37.49524	0.02322455	-0.02628041	0	0	0	0
37.51181	0.02322455	-0.02628041	0	0	0	0
37.52837	0.02322455	-0.02628041	0	0	0	0
37.54494	0.02322455	-0.02628041	0	0	0	0
37.56151	0.02322455	-0.02628041	0	0	0	0
37.57821	0.02322455	-0.02628041	0	0	0	0
37.59483	0.02322455	-0.02628041	0	0	0	0
37.61121	0.02322455	-0.02628041	0	0	0	0
37.62799	0.02322455	-0.02628041	0	0	0	0
37.65934	0.02322455	-0.02628041	0	0	0	0
37.67601	0.02322455	-0.02628041	0	0	0	0
37.69248	0.02322455	-0.02628041	0	0	0	0
37.70905	0.02322455	-0.02628041	0	0	0	0
37.72578	0.02322455	-0.02628041	0	0	0	0
37.74218	0.02322455	-0.02628041	0	0	0	0
37.75875	0.02322455	-0.02628041	0	0	0	0
37.77532	0.02322455	-0.02628041	0	0	0	0
37.79188	0.02322455	-0.02628041	0	0	0	0
37.83605	0.02322455	-0.02628041	0	0	0	0
37.85328	0.02322455	-0.02628041	0	0	0	0
37.86919	0.02322455	-0.02628041	0	0	0	0
37.88656	0.02322455	-0.02628041	0	0	0	0
37.90266	0.02322455	-0.02628041	0	0	0	0
37.91889	0.02322455	-0.02628041	0	0	0	0
37.93546	0.02322455	-0.02628041	0	0	0	0
37.958	0.02322455	-0.02628041	0	0	0	0
37.98617	0.02322455	-0.02628041	0	0	0	0
38.00274	0.02322455	-0.02628041	0	0	0	0
38.01931	0.02322455	-0.02628041	0	0	0	0
38.03588	0.02322455	-0.02628041	0	0	0	0
38.05245	0.02322455	-0.02628041	0	0	0	0
38.06915	0.02322455	-0.02628041	0	0	0	0
38.08558	0.02322455	-0.02628041	0	0	0	0
38.10215	0.02322455	-0.02628041	0	0	0	0
38.11871	0.02322455	-0.02628041	0	0	0	0
38.14425	0.02322455	-0.02628041	0	0	0	0
38.1612	0.02322455	-0.02628041	0	0	0	0
38.17771	0.02322455	-0.02628041	0	0	0	0
38.19395	0.02322455	-0.02628041	0	0	0	0
38.2108	0.02322455	-0.02628041	0	0	0	0
38.22732	0.02322455	-0.02628041	0	0	0	0
38.24366	0.02322455	-0.02628041	0	0	0	0
38.2605	0.02322455	-0.02628041	0	0	0	0
38.27679	0.02322455	-0.02628041	0	0	0	0
38.31206	0.02322455	-0.02628041	0	0	0	0
38.32863	0.02077986	-0.02261337	-0.1475618	0.2213426	-2.846599	4.269898
38.3452	0.02077986	-0.02016868	-1.124295E-07	0.1475617	4.45342	-2.226714
38.36176	0.01833517	-0.017724	-0.1475957	0.1475957	-4.454955	0.001025925
38.37833	0.01222344	-0.01283462	-0.3689043	0.2951236	-6.679877	4.452914
38.39489	0.002444689	-0.006722894	-0.5903828	0.3689892	-6.685005	2.229526
38.41172	-0.01589048	0.004278206	-1.089405	0.6536429	-14.94353	8.524133
38.42802	-0.02933627	0.01405696	-0.8246918	0.599776	7.989054	-1.625707
38.46794	-0.04278206	0.02261337	-0.3368437	0.2143551	8.677327	-6.85546
38.48451	-0.08678646	0.07395184	-2.655499	3.098083	-41.04684	51.05024
38.50108	-0.09656521	0.08373059	-0.5902467	0.5902467	62.32228	-75.67793
38.51765	-0.1112334	0.1020658	-0.885371	1.106713	-8.906869	15.58699
38.53421	-0.1234568	0.1167339	-0.7379785	0.8855749	4.448825	-6.674736
38.55078	-0.1320132	0.1289573	-0.5163466	0.7376383	6.688864	-4.464735
38.56735	-0.1405696	0.1399584	-0.516466	0.6640274	-0.003600927	-2.221326
38.58392	-0.149126	0.1534042	-0.516466	0.8115898	0	4.453442
38.62795	-0.1552377	0.1644053	-0.1387866	0.2498156	6.231912	-9.269575
38.64452	-0.1637942	0.1876299	-0.5164669	1.401837	-6.231926	19.00896
38.66109	-0.1637942	0.1876299	0	0	15.587	-42.30751
38.67765	-0.1637942	0.1876299	0	0	0	0
38.69468	-0.1637942	0.1876299	0	0	0	0
38.71079	-0.1637942	0.1876299	0	0	0	0
38.72736	-0.1552377	0.1644053	0.5164669	-1.401837	15.80351	-42.89518
38.74392	-0.1466813	0.1252903	0.516466	-2.360987	-2.698308E-05	-28.94721
38.76099	-0.1307909	0.05317198	0.931067	-4.225612	12.32677	-55.4384
38.77756	-0.09045349	-0.1326244	2.434768	-11.21469	44.70753	-207.7969
38.79458	-0.08067474	-0.1717394	0.574505	-2.29802	-55.38409	265.4687
38.8107	-0.07456301	-0.2071874	0.3792076	-2.199403	-5.893408	2.975934
38.82752	-0.06967364	-0.2573035	0.2905737	-2.978381	-2.690464	-23.64573
38.84383	-0.06845129	-0.2866398	0.07495432	-1.798907	-6.507406	35.5966
38.86098	-0.06722895	-0.3196431	0.0712541	-1.923864	-0.110578	-3.734236
38.87781	-0.06845129	-0.3367559	-0.07265979	-1.017239	-4.235563	26.6831
38.89353	-0.07089598	-0.3526464	-0.1555111	-1.010823	-2.545889	0.1971486
38.93563	-0.07211832	-0.3636475	-0.02903214	-0.2612908	2.18734	12.96249
38.9522	-0.07578536	-0.3783156	-0.2213431	-0.8853687	-3.277838	-10.63708
38.96877	-0.07578535	-0.3795379	4.497179E-07	-0.07378072	6.680161	24.49377
38.98533	-0.0770077	-0.3807603	-0.07378118	-0.07378253	-2.226734	-5.441587E-05
39.0019	-0.0770077	-0.3807603	0	0	2.22672	2.226761
39.01846	-0.0770077	-0.3819827	0	-0.07379951	0	-2.22753
39.03503	-0.07823005	-0.3844273	-0.07376374	-0.1475257	-2.226194	-2.22506
39.05181	-0.07945239	-0.3856497	-0.07285804	-0.07285804	0.02715898	2.239038
39.09082	-0.07945239	-0.3856497	0	0	1.305935	1.305935
39.1074	-0.07945239	-0.3856497	0	0	0	0
39.12396	-0.07945239	-0.3856497	0	0	0	0
39.14053	-0.07945239	-0.3856497	0	0	0	0
39.15727	-0.07945239	-0.3856497	0	0	0	0
39.17369	-0.07945239	-0.3856497	0	0	0	0
39.19023	-0.07945239	-0.3856497	0	0	0	0
39.2068	-0.07945239	-0.3856497	0	0	0	0
39.26808	-0.07945239	-0.3856497	0	0	0	0
39.28531	-0.07456302	-0.3709816	0.2837544	0.8512633	3.614233	10.8427
39.30122	-0.07456302	-0.3709816	0	0	-8.56274	-25.68822
39.31784	-0.06967363	-0.3563134	0.294176	0.8825274	9.043797	27.13138
39.33435	-0.06233957	-0.340423	0.4440137	0.9620291	4.52159	2.39909
39.35091	-0.0550055	-0.3196431	0.4428892	1.254854	-0.03399442	8.852757
39.36816	-0.04033737	-0.2817504	0.8506998	2.197641	12.06468	27.89142
39.40915	-0.02689158	-0.2426354	0.3280348	0.9542829	-8.975663	-21.35203
39.42571	0	-0.1485149	1.623179	5.681127	22.50227	82.12578
39.44228	0.002444689	-0.1362914	0.1475278	0.7376383	-44.53011	-149.1776
39.45905	0.006111722	-0.1142892	0.2187237	1.312343	2.135667	17.23942
39.47541	0.007334067	-0.0947317	0.07469241	1.195078	-4.347374	-3.539475
39.49253	0.01222344	-0.06784012	0.2857158	1.571437	6.303385	11.24207
39.50855	0.01222344	-0.05317198	0	0.9155152	-8.622919	-19.79576
39.5253	0.01344579	-0.03605916	0.0729743	1.021641	2.226723	3.238293
39.57277	0.01466813	-0.02505806	0.02574772	0.2317293	-0.7353388	-12.29927
39.58934	0.01589048	0.003055861	0.07378089	1.69696	0.7500362	22.87952
39.60591	0.01589048	0.003055861	0	0	-2.226712	-51.21435
39.62252	0.01589048	0.006722894	-1.121454E-07	0.2207834	-3.380275E-06	6.654828
39.63916	0.01589048	0.009167584	0	0.1468516	3.372133E-06	-2.223074
39.65561	0.01589048	0.01038993	1.13264E-07	0.07432856	3.42265E-06	-2.191526
39.67218	0.01589048	0.01283462	-1.124295E-07	0.1475617	-6.836631E-06	2.218352
39.68874	0.01589048	0.01405696	1.124295E-07	0.07378089	6.786257E-06	-2.226708
39.72603	0.01589048	0.01527931	0	0.03278396	-2.087746E-06	-0.7612879
39.74263	0.01589048	0.01650165	0	0.0736114	0	0.7576038
39.75979	0.01589048	0.01650165	0	0	0	-2.180428
39.77573	0.01589048	0.01650165	0	0	0	0
39.79242	0.01589048	0.01650165	0	0	0	0
39.80958	0.01589048	0.01650165	0	0	0	0
39.82544	0.01589048	0.01650165	0	0	0	0
39.842	0.01589048	0.01650165	0	0	0	0
39.8818	0.01589048	0.01650165	0	0	0	0
39.90371	0.01589048	0.01650165	0	0	0	0
39.92028	0.01589048	0.01650165	0	0	0	0
39.93703	0.01589048	0.01650165	0	0	0	0
39.95374	0.01589048	0.01650165	0	0	0	0
39.99781	0.01589048	0.01650165	0	0	0	0
40.03103	0.01589048	0.01650165	0	0	0	0
40.0476	0.01589048	0.01650165	0	0	0	0
40.06475	0.01589048	0.01650165	0	0	0	0
40.08076	0.01589048	0.01650165	0	0	0	0
40.09742	0.01589048	0.01650165	0	0	0	0
40.11395	0.01589048	0.01650165	0	0	0	0
40.13044	0.01589048	0.01650165	0	0	0	0
40.14783	0.01589048	0.01650165	0	0	0	0
40.16357	0.01589048	0.01650165	0	0	0	0
40.19678	0.01589048	0.01650165	0	0	0	0
40.21336	0.01589048	0.01650165	0	0	0	0
40.22992	0.01589048	0.01650165	0	0	0	0
40.24649	0.01589048	0.01650165	0	0	0	0
40.26305	0.01589048	0.01650165	0	0	0	0
40.27962	0.01589048	0.01650165	0	0	0	0
40.29669	0.01589048	0.01650165	0	0	0	0
40.31276	0.01589048	0.01650165	0	0	0	0
40.32932	0.01589048	0.01650165	0	0	0	0
40.36486	0.01589048	0.01650165	0	0	0	0
40.38143	0.01589048	0.01650165	0	0	0	0
40.39799	0.01589048	0.01650165	0	0	0	0
40.41456	0.01589048	0.01650165	0	0	0	0
40.43113	0.01589048	0.01650165	0	0	0	0
40.44782	0.01589048	0.01650165	0	0	0	0
40.46426	0.01589048	0.01650165	0	0	0	0
40.48085	0.01589048	0.01650165	0	0	0	0
40.50218	0.01589048	0.01650165	0	0	0	0
40.51937	0.01589048	0.01650165	0	0	0	0
40.53563	0.01589048	0.01650165	0	0	0	0
40.5519	0.01589048	0.01650165	0	0	0	0
40.56845	0.01589048	0.01650165	0	0	0	0
40.58578	0.01589048	0.01650165	0	0	0	0
40.60187	0.01589048	0.01650165	0	0	0	0
40.61859	0.01589048	0.01650165	0	0	0	0
40.65631	0.01589048	0.01650165	0	0	0	0
40.68605	0.01589048	0.01650165	0	0	0	0
40.70262	0.01589048	0.01650165	0	0	0	0
40.71918	0.01589048	0.01650165	0	0	0	0
40.73597	0.01589048	0.01650165	0	0	0	0
40.75232	0.01589048	0.01650165	0	0	0	0
40.76889	0.01589048	0.01650165	0	0	0	0
40.78545	0.01589048	0.01650165	0	0	0	0
40.80222	0.01589048	0.01650165	0	0	0	0
40.81859	0.01589048	0.01650165	0	0	0	0
40.8638	0.01589048	0.01650165	0	0	0	0
40.88036	0.01589048	0.01650165	0	0	0	0
40.89693	0.01589048	0.01650165	0	0	0	0
40.9135	0.01589048	0.01650165	0	0	0	0
40.93007	0.01589048	0.01650165	0	0	0	0
40.94664	0.01589048	0.01650165	0	0	0	0
40.9632	0.01589048	0.01650165	0	0	0	0
40.98074	0.01589048	0.01650165	0	0	0	0
41.01539	0.01589048	0.01650165	0	0	0	0
41.03196	0.01589048	0.01650165	0	0	0	0
41.04853	0.01589048	0.01650165	0	0	0	0
41.0651	0.01589048	0.01650165	0	0	0	0
41.08167	0.01589048	0.01650165	0	0	0	0
41.09824	0.01589048	0.01650165	0	0	0	0
41.1148	0.01589048	0.01772399	0	0.07383172	0	2.228246
41.13849	0.01589048	0.01772399	0	0	0	-1.83438
41.19222	0.01589048	0.01772399	0	0	0	0
41.20879	0.01589048	0.01527931	0	-0.1475616	0	-2.099224
41.22535	0.01589048	0.01527931	0	0	0	4.453419
41.24192	0.01589048	0.01527931	0	0	0	0
41.25883	0.01589048	0.01527931	0	0	0	0
41.27505	0.01589048	0.01527931	0	0	0	0
41.29162	0.01589048	0.01527931	0	0	0	0
41.30819	0.01589048	0.01527931	0	0	0	0
41.34846	0.01589048	0.01527931	0	0	0	0
41.36543	0.01589048	0.01527931	0	0	0	0
41.38159	0.01589048	0.01527931	0	0	0	0
41.39861	0.01589048	0.01527931	0	0	0	0
41.41473	0.01589048	0.01527931	0	0	0	0
41.43164	0.01589048	0.01527931	0	0	0	0
41.44786	0.01589048	0.01527931	0	0	0	0
41.46443	0.01589048	0.01527931	0	0	0	0
41.49924	0.01589048	0.01527931	0	0	0	0
41.5158	0.01589048	0.01527931	0	0	0	0
41.53237	0.01589048	0.01527931	0	0	0	0
41.54894	0.01589048	0.01527931	0	0	0	0
41.56551	0.01589048	0.01527931	0	0	0	0
41.58207	0.01589048	0.01527931	0	0	0	0
41.59864	0.01589048	0.01527931	0	0	0	0
41.6152	0.01589048	0.01527931	0	0	0	0
41.63177	0.01589048	0.01527931	0	0	0	0
41.65186	0.01589048	0.01527931	0	0	0	0
41.66858	0.01589048	0.01527931	0	0	0	0
41.68499	0.01589048	0.01527931	0	0	0	0
41.70156	0.01589048	0.01527931	0	0	0	0
41.71812	0.01589048	0.01527931	0	0	0	0
41.73469	0.01589048	0.01527931	0	0	0	0
41.75126	0.01589048	0.01527931	0	0	0	0
41.76783	0.01589048	0.01527931	0	0	0	0
41.7844	0.01589048	0.01527931	0	0	0	0
41.8021	0.01589048	0.01527931	0	0	0	0
41.81871	0.01589048	0.01527931	0	0	0	0
41.83523	0.01589048	0.01527931	0	0	0	0
41.8518	0.01589048	0.01527931	0	0	0	0
41.86848	0.01589048	0.01527931	0	0	0	0
41.88906	0.01589048	0.01527931	0	0	0	0
41.90563	0.01589048	0.01527931	0	0	0	0
41.9222	0.01589048	0.01527931	0	0	0	0
41.93876	0.01589048	0.01527931	0	0	0	0
41.96165	0.01589048	0.01527931	0	0	0	0
41.97822	0.01589048	0.01527931	0	0	0	0
41.99509	0.01589048	0.01527931	0	0	0	0
42.01136	0.01589048	0.01527931	0	0	0	0
42.02792	0.01589048	0.01527931	0	0	0	0
42.04449	0.01589048	0.01527931	0	0	0	0
42.06106	0.01589048	0.01527931	0	0	0	0
42.07763	0.01589048	0.01527931	0	0	0	0
42.09419	0.01589048	0.01527931	0	0	0	0
42.12868	0.01589048	0.01527931	0	0	0	0
42.14525	0.01589048	0.01527931	0	0	0	0
42.16182	0.01589048	0.01527931	0	0	0	0
42.17839	0.01589048	0.01527931	0	0	0	0
42.19495	0.01589048	0.01527931	0	0	0	0
42.21152	0.01589048	0.01527931	0	0	0	0
42.22809	0.01589048	0.01527931	0	0	0	0
42.24466	0.01589048	0.01527931	0	0	0	0
42.27839	0.01589048	0.01527931	0	0	0	0
42.29496	0.01589048	0.01527931	0	0	0	0
42.31152	0.01589048	0.01527931	0	0	0	0
42.32809	0.01589048	0.01527931	0	0	0	0
42.34478	0.01589048	0.01527931	0	0	0	0
42.36123	0.01589048	0.01527931	0	0	0	0
42.37786	0.02077986	0.01527931	0.2939053	-5.598272E-08	8.8844	-1.692289E-06
42.39436	0.03789268	0.02261337	1.037471	0.4446303	22.44343	13.42052
42.41105	0.05867254	0.03361447	1.2451	0.6591707	6.256912	6.465167
42.44361	0.07211832	0.03850385	0.4128287	0.1501195	-16.89577	-10.33414
42.46024	0.1589048	0.08128591	5.220411	2.573442	97.72634	49.26019
42.47675	0.1589048	0.08128591	0	0	-157.5523	-77.66663
42.49332	0.1796846	0.0947317	1.254274	0.8115898	37.91955	24.5362
42.51016	0.1919081	0.1045105	0.725776	0.5806209	-15.81898	-6.913347
42.52645	0.1992421	0.1130669	0.450148	0.5251721	-8.318469	-1.673451
42.54302	0.2041315	0.1191786	0.2951238	0.3689045	-4.717746	-4.755583
42.55959	0.2041315	0.1191786	0	0	-8.905828	-11.13228
42.57632	0.2041315	0.1204009	0	0.07307449	0	2.194529
42.61652	0.2041315	0.1204009	0	0	0	-1.283573
42.63309	0.106344	0.1252903	-5.902469	0.2951229	-103.971	5.198542
42.64965	0.07211833	0.124068	-2.065864	-0.07378028	115.789	-11.13352
42.66622	-0.01222345	0.1179562	-5.090879	-0.3689045	-91.29515	-8.906868
42.68279	-0.1014546	0.1093998	-5.387243	-0.5165849	-8.945308	-4.457517
42.69935	-0.1931304	0.09962107	-5.533565	-0.5902472	-4.416494	-2.223386
42.71623	-0.2860286	0.08861997	-5.503434	-0.6517227	0.9008326	-1.837985
42.73274	-0.3679257	0.08006357	-4.960452	-0.5182555	16.2618	3.997217
42.75357	-0.440044	0.07395185	-3.461892	-0.2933804	40.13062	6.02203
42.77014	-0.4972681	0.05219631	-3.45405	-1.313167	0.2096848	-27.26753
42.78671	-0.4977696	0.04717425	-0.03027321	-0.3031326	103.3298	30.48289
42.8033	-0.4985606	0.03791138	-0.04766882	-0.5582078	-0.5245778	-7.691987
42.81984	-0.4990611	0.03062649	-0.03025902	-0.440427	0.5254288	3.554633
42.83641	-0.4994195	0.02408618	-0.02163821	-0.3948647	0.2604164	1.376341
42.85332	-0.4996059	0.01984868	-0.01101677	-0.2504699	0.3172323	4.312661
42.86965	-0.4998079	0.01385701	-0.01237223	-0.3669818	-0.0407716	-3.504636
42.8861	-0.4998814	0.01088757	-0.004466874	-0.1804824	0.2411661	5.689481
42.90267	-0.4999359	0.008002741	-0.003290894	-0.1741686	0.03561825	0.1912307
42.91924	-0.4999734	0.005159201	-0.002262981	-0.1716364	0.03102606	0.07643072
42.9358	-0.4999822	0.004213334	-0.000532466	-0.05709265	0.05222704	3.456939
42.95237	-0.4999822	0.004213334	0	0	0.01606986	1.72306
42.96894	-0.4999893	0.003270958	-0.000424436	-0.05686882	-0.01280803	-1.716107
42.98551	-0.4999893	0.003270958	0	0	0.01280803	1.716107
43.00208	-0.4999893	0.003270958	0	0	0	0
43.01864	-0.4999893	0.003270958	0	0	0	0
43.03572	-0.4999893	0.003270958	0	0	0	0
43.05641	-0.4999893	0.003270958	0	0	0	0
43.07298	-0.4999945	0.00234519	-0.000318327	-0.0558666	-0.008543823	-1.499447
43.08955	-0.4999945	0.00234519	0	0	0.009606022	1.685863
43.10611	-0.4999944	0.002362923	8.994359E-06	0.001070343	0.0002714503	0.03230301
43.12268	-0.4999808	0.004377264	0.0008184866	0.1215859	0.02443052	3.637167
43.13925	-0.4998876	0.01060367	0.00562867	0.3758269	0.1451716	7.673008
43.15582	-0.4997329	0.01634148	0.009337943	0.3463344	0.1119461	-0.8900862
43.17238	-0.4994403	0.02365191	0.01766132	0.4412585	0.2512001	2.864817
43.18895	-0.4990662	0.03054331	0.02257764	0.4159662	0.1483748	-0.7633252
43.22379	-0.4987653	0.03511594	0.008635319	0.1312334	-0.2711951	-5.538397
43.24076	-0.4984441	0.03941468	0.01892806	0.2532903	0.1986439	2.355627
43.25693	-0.4984441	0.03941468	0	0	-0.5711842	-7.643437
43.2735	-0.4984441	0.03941468	0	0	0	0
43.29007	-0.4984441	0.03941468	0	0	0	0
43.30663	-0.4984441	0.03941468	0	0	0	0
43.3232	-0.4984441	0.03941468	0	0	0	0
43.33977	-0.4984441	0.03941468	0	0	0	0
43.36499	-0.4984441	0.03941468	0	0	0	0
43.38175	-0.4984441	0.03941468	0	0	0	0
43.39812	-0.4984441	0.03941468	0	0	0	0
43.41469	-0.4984441	0.03941468	0	0	0	0
43.43126	-0.4984441	0.03941468	0	0	0	0
43.44786	-0.4984441	0.03941468	0	0	0	0
43.46439	-0.4984441	0.03941468	0	0	0	0
43.48096	-0.4984365	0.03951021	0.0004605112	0.005766058	0.01391588	0.1742406
43.49752	-0.4983231	0.04091623	0.006846506	0.08486784	0.1927297	2.387297
43.51552	-0.4950495	0.04094854	0.1818865	0.001795194	5.064087	-2.403377
43.53209	-0.4938272	0.04217089	0.07378072	0.07378095	-3.127611	2.082621
43.54866	-0.4926049	0.04217089	0.07376194	0	-0.0005668042	-2.226457
43.56523	-0.4913825	0.04339323	0.07378253	0.07378072	0.0006212138	2.22645
43.58179	-0.4840484	0.04461557	0.4426844	0.07378095	11.13348	6.745769E-06
43.59836	-0.4706026	0.04706027	0.8115898	0.1475619	11.13359	2.226713
43.61493	-0.4534898	0.04950495	1.032694	0.1475277	6.672177	-0.001031534
43.63149	-0.4351546	0.05194964	1.107224	0.1476294	2.249583	0.003070578
43.64806	-0.4204865	0.05439433	0.8853687	0.1475617	-6.697158	-0.002045788
43.66611	-0.4119301	0.05439433	0.4741102	2.064178E-07	-11.88108	-4.262988
43.68268	-0.4094854	0.05439433	0.1475275	2.248072E-07	-9.433797	5.312043E-07
43.69949	-0.4094854	0.05439433	0	0	-4.419822	-6.73507E-06
43.71588	-0.4094854	0.05439433	0	0	0	0
43.73238	-0.4094854	0.05439433	0	0	0	0
43.749	-0.4082631	0.05439433	0.07354365	-2.241364E-07	2.22083	-6.768347E-06
43.76551	-0.4082631	0.05439433	0	0	-2.219807	6.76523E-06
43.78207	-0.4082631	0.05439433	0	0	0	0
43.79864	-0.4082631	0.05439433	0	0	0	0
43.8756	-0.4082631	0.05439433	0	0	0	0
43.89216	-0.4070407	0.05439433	0.07378072	0	0.7889205	0
43.90891	-0.4070407	0.05439433	0	0	-2.214469	0
43.92593	-0.4070407	0.05439433	0	0	0	0
43.94194	-0.4058184	0.05439433	0.07636551	-2.327365E-07	2.312436	-7.047532E-06
43.95843	-0.4058184	0.05439433	0	0	-2.349895	7.161696E-06
44.01781	-0.404596	0.05439433	0.02058258	1.254577E-07	0.2712584	1.65341E-06
44.03456	-0.3874832	0.05683902	1.021641	0.1459484	13.14802	1.916903
44.05095	-0.3874832	0.05683902	0	0	-30.83317	-4.404731
44.06752	-0.3679257	0.05683902	1.180493	2.24859E-07	35.82534	6.823967E-06
44.08408	-0.3483682	0.05561667	1.180495	-0.0737814	5.396615E-05	-2.226734
44.10123	-0.3251436	0.05317198	1.354432	-0.1425716	5.159142	-2.040387
44.11722	-0.2970297	0.0507273	1.758504	-0.1529135	12.19492	-0.3121177
44.16153	-0.2676935	0.04706026	0.6619892	-0.08274864	-18.1835	1.163543
44.1781	-0.1552377	0.03850385	6.78784	-0.516466	100.6175	-7.123834
44.19467	-0.1393473	0.03605916	0.9589304	-0.1475277	-175.8966	11.1333
44.21124	-0.1222344	0.03483682	1.032932	-0.07378095	2.233112	2.225425
44.22808	-0.08311942	0.03116978	2.323011	-0.2177823	38.61898	-4.310733
44.24438	-0.05867254	0.02994744	1.49979	-0.07498951	-24.84198	4.308999
44.26094	-0.03544799	0.0287251	1.402159	-0.07379772	-2.970796	0.03626487
44.27798	-0.01466813	0.02628041	1.219457	-0.1434656	-5.436975	-2.073223
44.31646	0.002444689	0.02383572	0.4447332	-0.0635333	-13.95418	1.439726
44.33303	0.03178096	0.02016868	1.770333	-0.2212918	24.07997	-2.865736
44.34975	0.03422565	0.02016869	0.1461816	2.22756E-07	-48.78111	6.646468
44.36617	0.03667033	0.02016868	0.148968	-1.13501E-07	0.0840923	-1.014826E-05
44.38274	0.03789268	0.02016868	0.07376397	0	-2.280163	3.441314E-06
44.3993	0.03789268	0.02016868	0	0	-2.225945	0
44.41605	0.03789268	0.02016868	0	0	0	0
44.43265	0.03789268	0.02016868	0	0	0	0
44.46991	0.03789268	0.02016868	0	0	0	0
44.48936	0.03789268	0.02016868	0	0	0	0
44.50593	0.03789268	0.02016868	0	0	0	0
44.5225	0.03789268	0.02016868	0	0	0	0
44.53907	0.03789268	0.02016868	0	0	0	0
44.55564	0.03789268	0.02016868	0	0	0	0
44.57306	0.03789268	0.02016868	0	0	0	0
44.58963	0.03789268	0.02016868	0	0	0	0
44.62342	0.03789268	0.02016868	0	0	0	0
44.63999	0.03789268	0.02016868	0	0	0	0
44.6566	0.03789268	0.02016868	0	0	0	0
44.67312	0.03789268	0.02016868	0	0	0	0
44.68969	0.03789268	0.02016868	0	0	0	0
44.70626	0.03789268	0.02016868	0	0	0	0
44.72282	0.03789268	0.02016868	0	0	0	0
44.73939	0.03789268	0.02016868	0	0	0	0
44.75596	0.03789268	0.02016868	0	0	0	0
44.79179	0.03789268	0.02016868	0	0	0	0
44.80835	0.03789268	0.02016868	0	0	0	0
44.82492	0.03789268	0.02016868	0	0	0	0
44.84155	0.03789268	0.02016868	0	0	0	0
44.85819	0.03789268	0.02016868	0	0	0	0
44.87462	0.03789268	0.02016868	0	0	0	0
44.89119	0.03789268	0.02016868	0	0	0	0
44.90776	0.03789268	0.02016868	0	0	0	0
44.95234	0.03789268	0.02016868	0	0	0	0
44.96904	0.03789268	0.02016868	0	0	0	0
44.98573	0.03789268	0.02016868	0	0	0	0
45.00226	0.03789268	0.02016868	0	0	0	0
