Time	Pos X	Pos Y	Vel X	Vel Y	Acc X	Acc Y
0.01621538	0.1906857	-0.1558489	-0.004238845	0.003464441	9.426287E-05	-7.704178E-05
0.03274341	0.1894634	-0.1607383	-0.07395663	-0.295822	0.00155036	0.006655427
0.04930973	0.188241	-0.1656277	-0.07378478	-0.2951409	0.005192884	0.02058062
0.06587487	0.1870187	-0.1692947	-0.07379005	-0.2213701	-0.0001592146	2.226607
0.08244316	0.1857964	-0.1754064	-0.07377598	-0.3688799	0.0004247718	-4.451992
0.09900909	0.1833517	-0.1802958	-0.1475731	-0.2951479	-2.227217	2.225252
0.115577	0.1821293	-0.1864076	-0.07377774	-0.3688896	2.22719	-2.225571
0.1357601	0.1821293	-0.1912969	-7.382997E-07	-0.2422509	2.007484	3.445859
0.1528001	0.1796846	-0.1974086	-0.1434672	-0.3586679	-3.85423	-3.127546
0.1688963	0.1796846	-0.198631	0	-0.07593999	4.329622	8.5323
0.1854638	0.1796846	-0.2010757	0	-0.1475591	0	-2.192622
0.2024193	0.1784623	-0.2010757	-0.07209184	0	-2.150515	4.401719
0.2185976	0.17724	-0.2071874	-0.0755536	-0.3777744	-0.1044782	-11.40147
0.2351639	0.1735729	-0.2194109	-0.2213543	-0.7378495	-4.452664	-10.99647
0.2517306	0.1711282	-0.237746	-0.1475679	-1.106747	2.226975	-11.13381
0.268295	0.1674612	-0.2548588	-0.2213799	-1.033112	-2.22788	2.222519
0.2909851	0.1662388	-0.2646376	-0.05387165	-0.4309679	4.267235	15.33949
0.307555	0.1637942	-0.273194	-0.1475378	-0.5163842	-2.385788	-2.175653
0.3241194	0.1637942	-0.273194	0	0	4.452733	15.58462
0.341521	0.1637942	-0.2744163	0	-0.07024295	0	-2.068039
0.3573306	0.1637942	-0.2744163	0	0	0	2.115038
0.3738242	0.1637942	-0.2744163	0	0	0	0
0.3903913	0.1637942	-0.2744163	0	0	0	0
0.4069577	0.1637942	-0.2744163	0	0	0	0
0.4235248	0.1637942	-0.2744163	0	0	0	0
0.4839583	0.1637942	-0.2744163	0	0	0	0
0.5005274	0.1637942	-0.2744163	0	0	0	0
0.5175409	0.1637942	-0.2744163	0	0	0	0
0.5336643	0.1637942	-0.2744163	0	0	0	0
0.5502307	0.1637942	-0.2744163	0	0	0	0
0.5667954	0.1637942	-0.2744163	0	0	0	0
0.5833617	0.1637942	-0.2744163	0	0	0	0
0.6415018	0.1637942	-0.2744163	0	0	0	0
0.6582244	0.1637942	-0.2744163	0	0	0	0
0.6746371	0.1637942	-0.2744163	0	0	0	0
0.6912398	0.1637942	-0.2744163	0	0	0	0
0.7078961	0.1637942	-0.2744163	0	0	0	0
0.7243381	0.1637942	-0.273194	0	0.07434294	0	2.246127
0.7410315	0.1637942	-0.2634152	0	0.5857842	0	15.43491
0.7597551	0.1662389	-0.2524141	0.1305673	0.5875511	3.686564	0.04988724
0.7763254	0.1674612	-0.2304119	0.07376719	1.327812	-1.609346	20.97417
0.7928921	0.1674612	-0.2255226	-8.99465E-07	0.2951325	-2.226157	-31.16398
0.8094584	0.1674612	-0.2181885	0	0.44271	2.714708E-05	4.454093
0.8260228	0.1674612	-0.2071874	1.799182E-06	0.6641412	5.430559E-05	6.683564
0.8428844	0.1674612	-0.1949639	-8.837326E-07	0.7249276	-8.026435E-05	1.818536
0.8591598	0.1674612	-0.1839629	0	0.6759337	2.666904E-05	-1.478524
0.8758911	0.1662389	-0.1644053	-0.07305712	1.168917	-2.213401	14.93583
0.8922952	0.1650165	-0.1521819	-0.07451538	0.7451456	-0.04400903	-12.78907
0.9344469	0.1613495	-0.1424031	-0.08699609	0.2319903	-0.2131424	-8.763538
0.9510152	0.1503484	-0.1045104	-0.6639853	2.287058	-9.826122	34.99779
0.9675819	0.1466813	-0.09595405	-0.2213493	0.5164822	13.35856	-53.43523
0.9845425	0.1405696	-0.08006357	-0.3603468	0.936901	-4.145789	12.53957
1.001082	0.1356802	-0.06784012	-0.2956175	0.739045	1.932207	-5.906117
1.017286	0.1295685	-0.05683902	-0.377185	0.6789328	-2.491142	-1.835877
1.034132	0.1246791	-0.04094854	-0.2902361	0.943269	2.630855	7.998142
1.050417	0.1222344	-0.03483682	-0.1501136	0.3752825	4.229238	-17.14322
1.079259	0.1197898	-0.02994744	-0.08476371	0.1695272	1.448136	-4.55948
1.095828	0.1173451	-0.02261337	-0.1475445	0.4426342	-1.382519	6.014194
1.112435	0.1173451	-0.02016868	0	0.1472089	4.447317	-8.904771
1.129086	0.1173451	-0.02016868	0	0	0	-4.426261
1.145527	0.1173451	-0.01894634	0	0.07434629	0	2.246629
1.162095	0.1161227	-0.017724	-0.07377799	0.07377765	-2.235075	-0.0172266
1.17866	0.1161227	-0.01650165	4.497762E-07	0.07379051	2.226734	0.0003878985
1.19523	0.1161227	-0.01527931	0	0.07377075	-1.357422E-05	-0.000596099
1.211796	0.1161227	-0.01527931	0	0	0	-2.226286
1.239168	0.1161227	-0.01527931	0	0	0	0
1.255739	0.1161227	-0.01527931	0	0	0	0
1.272305	0.1161227	-0.01527931	0	0	0	0
1.288875	0.1161227	-0.01527931	0	0	0	0
1.360529	0.1161227	-0.01527931	0	0	0	0
1.407282	0.1161227	-0.01527931	0	0	0	0
1.423849	0.1161227	-0.01527931	0	0	0	0
1.440418	0.1161227	-0.01527931	0	0	0	0
1.456984	0.1161227	-0.01527931	0	0	0	0
1.473554	0.1161227	-0.01527931	0	0	0	0
1.490118	0.1161227	-0.01527931	0	0	0	0
1.50675	0.1161227	-0.01527931	0	0	0	0
1.523254	0.1161227	-0.01527931	0	0	0	0
1.560524	0.1161227	-0.01527931	0	0	0	0
1.577091	0.1161227	-0.01527931	0	0	0	0
1.593659	0.1161227	-0.01527931	0	0	0	0
1.610224	0.1161227	-0.01527931	0	0	0	0
1.626794	0.1161227	-0.01527931	0	0	0	0
1.643361	0.1161227	-0.01527931	0	0	0	0
1.660293	0.1161227	-0.01527931	0	0	0	0
1.676494	0.1161227	-0.01527931	0	0	0	0
1.694523	0.1161227	-0.01527931	0	0	0	0
1.711094	0.1161227	-0.01527931	0	0	0	0
1.727661	0.1161227	-0.01527931	0	0	0	0
1.744227	0.1161227	-0.01527931	0	0	0	0
1.760795	0.1161227	-0.01527931	0	0	0	0
1.777624	0.1161227	-0.01527931	0	0	0	0
1.793928	0.1161227	-0.01527931	0	0	0	0
1.810494	0.1161227	-0.01527931	0	0	0	0
1.827063	0.1161227	-0.01527931	0	0	0	0
1.85624	0.1161227	-0.01527931	0	0	0	0
1.882328	0.1161227	-0.01527931	0	0	0	0
1.898895	0.1161227	-0.01527931	0	0	0	0
1.915714	0.1161227	-0.01527931	0	0	0	0
1.932034	0.1161227	-0.01527931	0	0	0	0
1.948599	0.1161227	-0.01527931	0	0	0	0
1.965196	0.1161227	-0.01527931	0	0	0	0
1.981733	0.1161227	-0.01527931	0	0	0	0
1.998299	0.1161227	-0.01527931	0	0	0	0
2.015183	0.1161227	-0.01527931	0	0	0	0
2.031902	0.1161227	-0.01527931	0	0	0	0
2.065457	0.1161227	-0.01527931	0	0	0	0
2.082057	0.1161227	-0.01527931	0	0	0	0
2.098626	0.1161227	-0.01527931	0	0	0	0
2.115162	0.1161227	-0.01527931	0	0	0	0
2.131729	0.1161227	-0.01527931	0	0	0	0
2.148296	0.1161227	-0.01527931	0	0	0	0
2.164863	0.1161227	-0.01527931	0	0	0	0
2.181847	0.1161227	-0.01527931	0	0	0	0
2.219322	0.1161227	-0.01527931	0	0	0	0
2.23589	0.1161227	-0.01527931	0	0	0	0
2.252638	0.1161227	-0.01527931	0	0	0	0
2.269024	0.1161227	-0.01527931	0	0	0	0
2.285597	0.1161227	-0.01527931	0	0	0	0
2.302566	0.1161227	-0.01527931	0	0	0	0
2.31873	0.1161227	-0.01527931	0	0	0	0
2.335293	0.1161227	-0.01527931	0	0	0	0
2.37793	0.1161227	-0.01527931	0	0	0	0
2.394498	0.1161227	-0.01527931	0	0	0	0
2.411068	0.1161227	-0.01527931	0	0	0	0
2.427631	0.1161227	-0.01527931	0	0	0	0
2.444201	0.1161227	-0.01527931	0	0	0	0
2.460784	0.1161227	-0.01527931	0	0	0	0
2.477334	0.1161227	-0.01527931	0	0	0	0
2.494067	0.1161227	-0.01527931	0	0	0	0
2.533738	0.1161227	-0.01527931	0	0	0	0
2.550309	0.1161227	-0.01527931	0	0	0	0
2.567545	0.1161227	-0.01527931	0	0	0	0
2.583442	0.1161227	-0.01527931	0	0	0	0
2.600067	0.1161227	-0.01527931	0	0	0	0
2.617129	0.1161227	-0.01527931	0	0	0	0
2.633145	0.1161227	-0.01527931	0	0	0	0
2.649714	0.1161227	-0.01527931	0	0	0	0
2.70184	0.1161227	-0.01527931	0	0	0	0
2.718409	0.113678	-0.017724	-0.1475492	-0.147549	-2.147886	-2.147884
2.734977	0.113678	-0.017724	0	0	4.452754	4.452751
2.751541	0.1087887	-0.02628041	-0.2951871	-0.5165775	-8.909533	-15.59169
2.76811	0.1002322	-0.03850385	-0.5163996	-0.737713	-6.676495	-6.674172
2.784675	0.09900991	-0.04094854	-0.07379089	-0.1475831	13.35805	17.81028
2.801244	0.08923114	-0.0507273	-0.5901966	-0.5901957	-15.5856	-13.35846
2.848754	0.08434176	-0.05439433	-0.1029117	-0.07718377	7.604434	8.005923
2.865322	0.05989488	-0.06661777	-1.475532	-0.7377661	-21.4209	-10.30894
2.881955	0.05745019	-0.06661777	-0.1469821	0	40.01567	22.22138
2.898501	0.05745019	-0.06661777	0	0	4.43	0
2.915139	0.05622784	-0.06661777	-0.07346799	0	-2.213955	0
2.931591	0.05622784	-0.06661777	0	0	2.22024	0
2.948573	0.05622784	-0.06661777	0	0	0	0
2.964725	0.05622784	-0.06661777	0	0	0	0
3.038984	0.05622784	-0.06661777	0	0	0	0
3.055552	0.05622784	-0.06784011	0	-0.07377966	0	-0.8123099
3.072157	0.05622784	-0.06784011	0	0	0	2.224098
3.088688	0.05622784	-0.06784011	0	0	0	0
3.105256	0.05622784	-0.06784011	0	0	0	0
3.121823	0.05622784	-0.06784011	0	0	0	0
3.209421	0.05622784	-0.06784011	0	0	0	0
3.225988	0.05622784	-0.06784011	0	0	0	0
3.242556	0.05622784	-0.06784011	0	0	0	0
3.259123	0.05622784	-0.06784011	0	0	0	0
3.275693	0.05622784	-0.06784011	0	0	0	0
3.305332	0.05622784	-0.06784011	0	0	0	0
3.322377	0.05622784	-0.06784011	0	0	0	0
3.338468	0.05622784	-0.06784011	0	0	0	0
3.355033	0.05622784	-0.06784011	0	0	0	0
3.371852	0.05622784	-0.06784011	0	0	0	0
3.388352	0.05622784	-0.06784011	0	0	0	0
3.404736	0.05622784	-0.06784011	0	0	0	0
3.421304	0.05622784	-0.06784011	0	0	0	0
3.437871	0.05622784	-0.06784011	0	0	0	0
3.484862	0.05622784	-0.06784011	0	0	0	0
3.50143	0.05622784	-0.06784011	0	0	0	0
3.517998	0.05622784	-0.06784011	0	0	0	0
3.53464	0.05622784	-0.06784011	0	0	0	0
3.551376	0.05745019	-0.06661777	0.07303991	0.07303969	2.188272	2.188266
3.568056	0.05989488	-0.06539543	0.146564	0.0732819	2.200312	0.0072485
3.584266	0.06111722	-0.06539543	0.07540543	0	-2.163512	-2.228069
3.600833	0.06111723	-0.06417309	2.248622E-07	0.07378179	-2.300531	2.251002
3.632868	0.06111723	-0.06417309	0	0	-4.626594E-06	-1.518078
3.649436	0.06111723	-0.06417309	0	0	0	0
3.666003	0.06111723	-0.06417309	0	0	0	0
3.682569	0.06111723	-0.06417309	0	0	0	0
3.699543	0.06111723	-0.06417309	0	0	0	0
3.715705	0.06111723	-0.06417309	0	0	0	0
3.732274	0.06111723	-0.06417309	0	0	0	0
3.748838	0.06111723	-0.06417309	0	0	0	0
3.765407	0.06111723	-0.06417309	0	0	0	0
3.797049	0.06111723	-0.06417309	0	0	0	0
3.81389	0.06111723	-0.06417309	0	0	0	0
3.830187	0.06111723	-0.06417309	0	0	0	0
3.846752	0.06111723	-0.06417309	0	0	0	0
3.863317	0.06111723	-0.06417309	0	0	0	0
3.880249	0.06111723	-0.06417309	0	0	0	0
3.896452	0.06111723	-0.06417309	0	0	0	0
3.913106	0.06111723	-0.06417309	0	0	0	0
3.92959	0.06111723	-0.06417309	0	0	0	0
3.963163	0.06111723	-0.06417309	0	0	0	0
3.979732	0.06111723	-0.06417309	0	0	0	0
3.996315	0.06111723	-0.06417309	0	0	0	0
4.012871	0.06111723	-0.06417309	0	0	0	0
4.029998	0.06111723	-0.06417309	0	0	0	0
4.046004	0.06111723	-0.06417309	0	0	0	0
4.063056	0.06111723	-0.06417309	0	0	0	0
4.079136	0.06111723	-0.06417309	0	0	0	0
4.11703	0.06111723	-0.06417309	0	0	0	0
4.1336	0.06111723	-0.06417309	0	0	0	0
4.150165	0.06233957	-0.06417309	0.07379347	0	2.227091	0
4.166737	0.06233957	-0.06417309	0	0	-2.226963	0
4.1835	0.06233957	-0.06417309	0	0	0	0
4.19987	0.06233957	-0.06417309	0	0	0	0
4.216438	0.06233957	-0.06417309	0	0	0	0
4.233004	0.06233957	-0.06417309	0	0	0	0
4.269117	0.06233957	-0.06417309	0	0	0	0
4.285686	0.06233957	-0.06417309	0	0	0	0
4.302252	0.06233957	-0.06417309	0	0	0	0
4.319661	0.06233957	-0.06417309	0	0	0	0
4.335493	0.06233957	-0.06417309	0	0	0	0
4.35209	0.06233957	-0.06417309	0	0	0	0
4.369115	0.06233957	-0.06417309	0	0	0	0
4.385087	0.06233957	-0.06417309	0	0	0	0
4.401654	0.06233957	-0.06417309	0	0	0	0
4.419261	0.06233957	-0.06417309	0	0	0	0
4.435831	0.06233957	-0.06417309	0	0	0	0
4.452401	0.06233957	-0.06417309	0	0	0	0
4.468964	0.06233957	-0.06417309	0	0	0	0
4.485553	0.06233957	-0.06417309	0	0	0	0
4.516887	0.06233957	-0.06417309	0	0	0	0
4.533457	0.06233957	-0.06417309	0	0	0	0
4.550026	0.06233957	-0.06417309	0	0	0	0
4.591427	0.05011613	-0.0617284	-0.2952424	0.05904855	-5.093016	1.018605
4.607996	-0.03667033	-0.0507273	-5.23814	0.6639894	-85.26711	10.43549
4.624928	-0.05378316	-0.04706026	-1.01065	0.216568	126.1912	-13.3556
4.641131	-0.08800881	-0.04339323	-2.112313	0.2263193	-33.24727	0.294286
4.657855	-0.1283462	-0.03605916	-2.411929	0.4385324	-9.099409	6.444952
4.674265	-0.1589048	-0.0287251	-1.862154	0.4469172	16.59225	0.2530536
4.690834	-0.1955751	-0.02139103	-2.213236	0.4426469	-10.64562	-0.1294858
4.707508	-0.2114656	-0.01772399	-0.9530334	0.219931	37.90969	-6.699789
4.741035	-0.2175773	-0.01527931	-0.1822902	0.07291619	15.35316	-2.928527
4.757649	-0.220022	-0.01527931	-0.1471431	0	0.700954	-1.454199
4.774539	-0.220022	-0.01527931	0	0	4.391743	0
4.790737	-0.220022	-0.01527931	0	0	0	0
4.807305	-0.220022	-0.01527931	0	0	0	0
4.823963	-0.220022	-0.01405696	0	0.07337961	0	2.208499
4.84044	-0.2102433	-0.009167585	0.5934579	0.2967289	17.91008	6.740502
4.857008	-0.1870187	-0.004278206	1.401756	0.2951065	24.45995	-0.04909671
4.873576	-0.1540154	-0.003055861	1.992083	0.07378086	17.8156	-6.679429
4.907955	-0.09289818	-0.00550055	1.777724	-0.07110894	-4.207522	-2.843948
4.924525	0.06233957	-0.02139103	9.368552	-0.9589857	148.9871	-17.42658
4.94115	0.06233957	-0.02139103	0	0	-282.2317	28.88986
4.957661	0.1124557	-0.02139103	3.035324	1.128126E-07	91.60362	3.404594E-06
4.974227	0.1527931	-0.02016868	2.434839	0.07378296	-18.15377	2.230591
4.991072	0.1894634	-0.01527931	2.177021	0.2902696	-7.716554	6.479496
5.007362	0.2004645	-0.01038993	0.6753015	0.3001337	-45.32132	0.2976964
5.023977	0.2041315	-0.007945239	0.2207133	0.1471425	-13.81513	-4.649469
5.063779	0.2053539	-0.00550055	0.03071052	0.06142113	-3.367857	-1.519437
5.080347	0.2053539	0.01405696	8.9941E-07	1.18046	-0.5447887	19.85175
5.096959	0.2029092	0.02261337	-0.1471642	0.5150726	-4.435388	-20.05401
5.113483	0.1980198	0.04217089	-0.2958903	1.18356	-4.488304	20.17381
5.130048	0.1857964	0.06417308	-0.7378931	1.328208	-13.35774	4.371412
5.146706	0.1723506	0.08984232	-0.8071988	1.541016	-2.086095	6.405494
5.163181	0.152793	0.1155116	-1.187054	1.558008	-11.46455	0.5128553
5.179751	0.1259015	0.1448478	-1.622898	1.770435	-13.18908	6.42826
5.242602	0.08189708	0.1888522	-0.7001391	0.7001391	11.61856	-13.47622
5.25917	-0.02933627	0.2829728	-6.714058	5.681126	-75.72471	62.71847
5.275799	-0.04155971	0.2903068	-0.7350373	0.4410233	180.1077	-157.849
5.292717	-0.06478426	0.3061973	-1.372834	0.9393057	-19.01207	14.8533
5.309205	-0.08434177	0.3208654	-1.186127	0.8895952	5.589063	-1.488081
5.325441	-0.1087887	0.3355336	-1.505693	0.9034159	-9.765242	0.4223306
5.342007	-0.1185674	0.3392006	-0.5902981	0.2213613	27.90659	-20.79301
5.375096	-0.1210121	0.340423	-0.07388173	0.03694177	10.4001	-3.71402
5.391664	-0.1405696	0.312309	-1.18046	-1.696911	-22.2845	-34.91668
5.408231	-0.1503484	0.2878621	-0.5902628	-1.475662	17.8122	6.677311
5.4248	-0.1857964	0.2206332	-2.139338	-4.057361	-46.74848	-77.91134
5.44137	-0.2224667	0.1350691	-2.213108	-5.163917	-2.226071	-33.39111
5.457936	-0.2628041	0.04583792	-2.434978	-5.386468	-6.695856	-6.71642
5.474991	-0.3190319	-0.09350935	-3.296754	-8.170219	-25.63186	-82.79723
5.491066	-0.3483682	-0.1754064	-1.825001	-5.094795	44.42334	92.82852
5.507631	-0.3605917	-0.2084097	-0.7378958	-1.992313	33.30596	95.05157
5.54698	-0.3825938	-0.2756387	-0.5591531	-1.708527	3.196719	5.075375
5.56355	-0.3665119	-0.3401015	0.9705378	-3.890311	27.35539	-39.01675
5.580117	-0.3627387	-0.344123	0.2277599	-0.2427467	-22.41547	110.0758
5.596684	-0.3563909	-0.3506928	0.3831507	-0.3965541	4.689771	-4.641982
5.613513	-0.3522747	-0.3548274	0.2445917	-0.2456808	-4.14894	4.517673
5.630037	-0.3487196	-0.358322	0.2151571	-0.2114939	-0.8825327	1.025021
5.646387	-0.3457247	-0.3612124	0.1831673	-0.1767786	-0.9731143	1.056023
5.663156	-0.3442309	-0.3626363	0.08908209	-0.08491626	-2.840806	2.773689
5.700118	-0.3432389	-0.3635753	0.02683789	-0.02540509	-1.158452	1.107587
5.716685	-0.3427442	-0.3640418	0.02986401	-0.02815513	0.05653197	-0.05137454
5.733252	-0.3427442	-0.3640418	0	0	-0.9012976	0.8497235
5.749818	-0.3427442	-0.3640418	0	0	0	0
5.766388	-0.3427442	-0.3640418	0	0	0	0
5.782954	-0.3427442	-0.3640418	0	0	0	0
5.799572	-0.3427442	-0.3640418	0	0	0	0
5.816091	-0.3432682	-0.3635477	-0.03172178	0.02990864	-0.9572963	0.9025796
5.854611	-0.3439293	-0.3629223	-0.01716172	0.01623563	0.2645389	-0.2484223
5.871493	-0.3419511	-0.3647869	0.117176	-0.1104448	2.424769	-2.286556
5.887755	-0.3419511	-0.3647869	0	0	-3.535413	3.332319
5.904344	-0.3349224	-0.3624251	0.4237061	0.142369	12.8981	4.333877
5.94554	-0.3080308	-0.3379782	0.6527581	0.5934172	3.96383	7.805559
5.96232	-0.2786945	-0.3098643	1.748299	1.675453	18.89621	18.66328
5.979461	-0.2774722	-0.308642	0.07130984	0.07131159	-49.43841	-47.29084
6.021586	-0.2774722	-0.308642	0	0	-1.203225	-1.203254
6.038154	-0.2774722	-0.308642	0	0	0	0
6.054924	-0.2774722	-0.308642	0	0	0	0
6.071287	-0.2774722	-0.308642	0	0	0	0
6.088801	-0.2774722	-0.308642	0	0	0	0
6.104422	-0.2774722	-0.308642	0	0	0	0
6.120989	-0.2774722	-0.308642	0	0	0	0
6.137555	-0.2774722	-0.308642	0	0	0	0
6.200504	-0.2762499	-0.3074196	0.01941825	0.01941777	0.2442072	0.2442012
6.217072	-0.2762499	-0.2915292	-1.79882E-06	0.9591218	-0.244224	11.8176
6.233823	-0.2762499	-0.2915292	0	0	5.398859E-05	-28.78645
6.250206	-0.2762499	-0.2903068	1.819081E-06	0.07460962	5.490078E-05	2.251755
6.266777	-0.2762499	-0.2903068	0	0	-5.520027E-05	-2.264039
6.283435	-0.2762499	-0.2903068	0	0	0	0
6.29991	-0.2762499	-0.2890845	0	0.07419896	0	2.239458
6.331934	-0.2762498	-0.2878621	9.306135E-07	0.03816911	1.918845E-05	-0.7429045
6.348504	-0.2762498	-0.2878621	0	0	-1.91506E-05	-0.785462
6.365777	-0.2762498	-0.2878621	0	0	0	0
6.381641	-0.2762498	-0.2878621	0	0	0	0
6.398202	-0.2762498	-0.2878621	0	0	0	0
6.414981	-0.2762498	-0.2878621	0	0	0	0
6.431362	-0.2762499	-0.2866398	-1.819293E-06	0.07461831	-5.486374E-05	2.250236
6.448078	-0.2762499	-0.2866398	0	0	5.496887E-05	-2.254548
6.506335	-0.2762499	-0.2866398	0	0	0	0
6.523207	-0.2762499	-0.2866398	0	0	0	0
6.539555	-0.2762499	-0.2854174	0	0.07477285	0	2.250851
6.55604	-0.2762499	-0.2854174	0	0	0	-2.277395
6.572606	-0.2762499	-0.2854174	0	0	0	0
6.589292	-0.2762499	-0.2854174	0	0	0	0
6.60574	-0.2762499	-0.2854174	0	0	0	0
6.631176	-0.2762499	-0.2854174	0	0	0	0
6.64786	-0.2762499	-0.2841951	0	0.07326201	0	1.739345
6.664737	-0.2762499	-0.2841951	0	0	0	-2.182905
6.680876	-0.2762499	-0.2841951	0	0	0	0
6.697934	-0.2762499	-0.2841951	0	0	0	0
6.714013	-0.2762499	-0.2841951	0	0	0	0
6.730952	-0.2762499	-0.2841951	0	0	0	0
6.747147	-0.2762499	-0.2841951	0	0	0	0
6.763714	-0.2762499	-0.2841951	0	0	0	0
6.806082	-0.2762499	-0.2841951	0	0	0	0
6.822652	-0.2762499	-0.2841951	0	0	0	0
6.839218	-0.2762499	-0.2841951	0	0	0	0
6.855784	-0.2762499	-0.2841951	0	0	0	0
6.872351	-0.2762499	-0.280528	0	0.2213503	0	6.680559
6.889019	-0.2762498	-0.2744163	1.787962E-06	0.3666663	5.379744E-05	4.372368
6.905603	-0.2762498	-0.269527	0	0.2948259	-5.376967E-05	-2.160468
6.922052	-0.2786945	-0.2646376	-0.1486284	0.2972532	-4.499472	0.07348265
6.94091	-0.2811393	-0.2597482	-0.1296383	0.2592735	0.5378644	-1.075715
6.957529	-0.2860286	-0.2548589	-0.2941999	0.2941999	-4.638521	0.9844752
6.974274	-0.2860286	-0.2548589	0	0	8.817933	-8.817933
6.99061	-0.287251	-0.2524141	-0.07482304	0.1496479	-2.26181	4.523674
7.00718	-0.2884733	-0.2524141	-0.07376619	1.798561E-06	0.03211695	-4.547611
7.023747	-0.2884733	-0.2524141	0	0	2.226076	-5.4276E-05
7.040313	-0.2896957	-0.2524141	-0.0737889	-1.799027E-06	-2.227049	-5.429709E-05
7.057212	-0.2896957	-0.2524141	0	0	2.204963	5.375862E-05
7.073448	-0.2896957	-0.2524141	0	0	0	0
7.091949	-0.2896957	-0.2524141	0	0	0	0
7.108973	-0.2896957	-0.2524141	0	0	0	0
7.125148	-0.2896957	-0.2524141	0	0	0	0
7.141654	-0.2896957	-0.2524141	0	0	0	0
7.158217	-0.2896957	-0.2524141	0	0	0	0
7.17497	-0.2896957	-0.2524141	0	0	0	0
7.191372	-0.2896957	-0.2524141	0	0	0	0
7.20792	-0.2896957	-0.2524141	0	0	0	0
7.224771	-0.2896957	-0.2524141	0	0	0	0
7.241052	-0.2896957	-0.2524141	0	0	0	0
7.282196	-0.2860286	-0.2499694	0.08912688	0.05941828	1.552056	1.034711
7.299566	-0.2762499	-0.2426354	0.5629461	0.4222091	8.097453	6.200006
7.315769	-0.2762499	-0.241413	0	0.07543868	-16.76751	-10.32866
7.331899	-0.2762499	-0.241413	0	0	0	-2.333221
7.348466	-0.2750275	-0.2389683	0.0737786	0.1475581	2.256419	4.512866
7.365424	-0.2738052	-0.2365237	0.07208159	0.1441623	-0.05061857	-0.1012905
7.381675	-0.2713605	-0.234079	0.1504321	0.150433	2.359325	0.1888255
7.398169	-0.2689158	-0.2304119	0.1482227	0.222335	-0.06747306	2.195855
7.439944	-0.2652488	-0.2255226	0.08777893	0.1170386	-1.037322	-1.807073
7.456523	-0.2493583	-0.2132991	0.9584625	0.7372794	14.9205	10.62878
7.473079	-0.2469136	-0.2132991	0.1476644	0	-24.46958	-22.25082
7.490513	-0.2444689	-0.2108544	0.140228	0.1402263	-0.2187851	4.125585
7.50696	-0.2432466	-0.2084097	0.07431761	0.1486361	-1.945338	0.2482166
7.522961	-0.2408019	-0.202298	0.1527902	0.3819764	2.418424	7.191248
7.539347	-0.2408019	-0.1949639	9.093554E-07	0.4475684	-4.717643	2.02527
7.555914	-0.2408019	-0.1912969	0	0.2213422	-2.759491E-05	-6.864964
7.590789	-0.2408019	-0.1876299	0	0.105148	0	-2.258735
7.607359	-0.2408019	-0.1778511	0	0.5901457	0	9.427499
7.623926	-0.2408019	-0.1754064	-8.994876E-07	0.147569	-2.714503E-05	-13.35622
7.640582	-0.2383572	-0.1692947	0.1467757	0.3669401	4.418027	6.603148
7.65706	-0.2359125	-0.1644053	0.1483609	0.2967208	0.04784123	-2.119254
7.673685	-0.2322454	-0.1595159	0.2205686	0.2940911	2.181273	-0.07943783
7.690365	-0.2273561	-0.1558489	0.2931225	0.2198426	2.178428	-2.229309
7.706759	-0.2224667	-0.1521819	0.2982398	0.22368	0.1547191	0.1160262
7.747799	-0.2175773	-0.1485148	0.1191376	0.08935299	-3.118396	-2.338804
7.764369	-0.2090209	-0.1436255	0.5163759	0.295071	6.895298	3.570872
7.780937	-0.2090209	-0.1436255	0	0	-15.58269	-8.904365
7.797569	-0.2090209	-0.1424031	8.959289E-07	0.07349394	2.698598E-05	2.213687
7.814403	-0.2090209	-0.1424031	0	0	-2.677181E-05	-2.196118
7.830637	-0.2090209	-0.1424031	0	0	0	0
7.847204	-0.2065762	-0.1411808	0.1475648	0.07378195	4.498703	2.249338
7.864894	-0.2041315	-0.1399584	0.1381961	0.06909806	-0.2734829	-0.1367284
7.891674	-0.1955751	-0.1350691	0.3195111	0.1825778	4.077258	2.551836
7.908244	-0.1821293	-0.1289573	0.8114488	0.3688408	11.34811	4.296751
7.92481	-0.1784623	-0.1265126	0.2213622	0.1475751	-17.80808	-6.677525
7.941375	-0.1747953	-0.124068	0.221374	0.1475822	0.0003575669	0.0002154397
7.957943	-0.1674612	-0.1204009	0.4426607	0.2213303	6.678732	2.225818
7.974779	-0.1625718	-0.1155116	0.2904087	0.2904091	-4.557848	2.067958
7.991079	-0.1564601	-0.1106222	0.3749479	0.2999581	2.551251	0.2881708
8.007646	-0.1552377	-0.1093998	0.07378497	0.07378542	-9.163225	-6.881559
8.024213	-0.1540154	-0.1069551	0.07378072	0.147561	-0.0001281733	2.226615
8.041144	-0.1527931	-0.1045105	0.07219324	0.1443869	-0.04738944	-0.09475219
8.074785	-0.1503484	-0.1020658	0.07267053	0.07267053	0.009437937	-1.418093
8.091354	-0.1369026	-0.08739763	0.8114954	0.8852682	14.7147	16.18398
8.107921	-0.1369026	-0.08739763	0	0	-24.49028	-26.71668
8.170479	-0.1283462	-0.08250825	0.1367755	0.07815728	1.728612	0.9877765
8.18705	-0.06722894	-0.05683902	3.688193	1.549041	44.88124	18.58838
8.220771	-0.05011613	-0.05439433	0.5074829	0.07249756	-63.24484	-29.35941
8.237339	-0.0110011	-0.04583792	2.360852	0.5164362	36.85424	8.827722
8.253906	-0.003667034	-0.04461557	0.4426852	0.07378095	-57.88872	-13.35898
8.270474	0.004889378	-0.04217089	0.5164363	0.1475532	2.225748	2.226386
8.28704	0.01955751	-0.03850385	0.8854722	0.2213681	11.13785	2.227803
8.304177	0.03422565	-0.03483682	0.8559073	0.2139769	-0.8772231	-0.2193062
8.320211	0.05011613	-0.02750275	0.9910412	0.4574036	4.073775	7.338396
8.336745	0.07456302	-0.01527931	1.478596	0.739298	14.97039	8.655572
8.353312	0.09045349	-0.006722894	0.9591508	0.5164661	-15.69271	-6.731863
8.394168	0.1075663	0.003055861	0.4188631	0.2393503	-9.408967	-4.825897
8.410998	0.1369026	0.0262804	1.743048	1.379913	22.95511	19.77196
8.427304	0.1369026	0.02750275	0	0.0749632	-52.60227	-39.38119
8.443871	0.1381249	0.02994744	0.07378497	0.1475704	2.244601	2.208772
8.460526	0.1381249	0.03116979	-8.946977E-07	0.07339216	-2.221045	-2.232855
8.477004	0.1381249	0.03116979	0	0	2.700281E-05	-2.215044
8.510929	0.1381249	0.03116979	0	0	0	0
8.552642	0.1381249	0.03116979	0	0	0	0
8.569213	0.1381249	0.03116979	0	0	0	0
8.585779	0.1381249	0.03116979	0	0	0	0
8.602518	0.1381249	0.03116979	0	0	0	0
8.618912	0.1381249	0.03116979	0	0	0	0
8.635539	0.1381249	0.03116979	0	0	0	0
8.652045	0.1381249	0.03116979	0	0	0	0
8.668612	0.1381249	0.03116979	0	0	0	0
8.685183	0.1381249	0.03116979	0	0	0	0
8.703007	0.1381249	0.03116979	0	0	0	0
8.719575	0.1381249	0.03116979	0	0	0	0
8.736143	0.1393473	0.03116978	0.07377738	-1.12423E-07	2.226478	-3.392738E-06
8.752709	0.1381249	0.03116979	-0.07378587	1.12436E-07	-4.453468	6.786257E-06
8.769276	0.1307909	0.03361447	-0.4427098	0.1475701	-11.13479	4.453926
8.786323	0.1197898	0.03605916	-0.6453418	0.1434095	-6.028343	-0.1237765
8.80241	0.113678	0.03728151	-0.379905	0.07598072	8.010898	-2.035006
8.818976	0.1026769	0.03972619	-0.6640657	0.1475702	-8.702222	2.192377
8.835543	0.09534287	0.04094854	-0.4427103	0.07378519	6.680903	-2.226963
8.867483	0.09045349	0.04094854	-0.1530781	0	5.970969	-1.521133
8.884335	0.07334067	0.04094854	-1.015512	0	-17.67576	0
8.900619	0.07089598	0.04094854	-0.1501286	0	26.11657	0
8.91729	0.06722894	0.04094854	-0.2199625	0	-2.119058	0
8.934297	0.0660066	0.04094854	-0.07187343	2.190462E-07	4.397197	6.504121E-06
8.950321	0.0660066	0.04094854	0	0	2.175908	-6.63144E-06
8.966921	0.0660066	0.04094854	0	0	0	0
8.983978	0.0660066	0.04094854	0	0	0	0
9.00002	0.0660066	0.04094854	0	0	0	0
9.053103	0.0660066	0.04094854	0	0	0	0
9.070244	0.0660066	0.04094854	0	0	0	0
9.086238	0.0660066	0.04094854	0	0	0	0
9.102806	0.0660066	0.04094854	0	0	0	0
9.119377	0.0660066	0.04094854	0	0	0	0
9.136077	0.0660066	0.04094854	0	0	0	0
9.152914	0.0660066	0.04094854	0	0	0	0
9.252054	0.0660066	0.04094854	0	0	0	0
9.268622	0.0660066	0.04094854	0	0	0	0
9.285191	0.0660066	0.04094854	0	0	0	0
9.30245	0.0660066	0.04094854	0	0	0	0
9.318327	0.0660066	0.04094854	0	0	0	0
9.354169	0.0660066	0.04094854	0	0	0	0
9.37133	0.0660066	0.04094854	0	0	0	0
9.387305	0.0660066	0.04094854	0	0	0	0
9.40387	0.0660066	0.04094854	0	0	0	0
9.420459	0.0660066	0.04094854	0	0	0	0
9.437119	0.0660066	0.04094854	0	0	0	0
9.453573	0.0660066	0.04094854	0	0	0	0
9.47014	0.0660066	0.04094854	0	0	0	0
9.50871	0.0660066	0.04094854	0	0	0	0
9.525277	0.0660066	0.04094854	0	0	0	0
9.541846	0.0660066	0.04094854	0	0	0	0
9.558413	0.0660066	0.04094854	0	0	0	0
9.574983	0.0660066	0.04094854	0	0	0	0
9.591556	0.0660066	0.04094854	0	0	0	0
9.60816	0.0660066	0.04094854	0	0	0	0
9.624683	0.0660066	0.04094854	0	0	0	0
9.662493	0.0660066	0.04094854	0	0	0	0
9.67906	0.0660066	0.04094854	0	0	0	0
9.695628	0.0660066	0.04094854	0	0	0	0
9.712193	0.0660066	0.04094854	0	0	0	0
9.728763	0.0660066	0.04094854	0	0	0	0
9.745329	0.0660066	0.04094854	0	0	0	0
9.761898	0.0660066	0.04094854	0	0	0	0
9.779242	0.0660066	0.04094854	0	0	0	0
9.81347	0.0660066	0.04094854	0	0	0	0
9.830038	0.0660066	0.04094854	0	0	0	0
9.846927	0.0660066	0.04094854	0	0	0	0
9.863173	0.0660066	0.04094854	0	0	0	0
9.879739	0.0660066	0.04094854	0	0	0	0
9.896577	0.0660066	0.04094854	0	0	0	0
9.912875	0.0660066	0.04094854	0	0	0	0
9.929441	0.0660066	0.04094854	0	0	0	0
9.946009	0.0660066	0.04094854	0	0	0	0
9.983665	0.0660066	0.04094854	0	0	0	0
10.00023	0.0660066	0.04094854	0	0	0	0
10.0168	0.0660066	0.04094854	0	0	0	0
10.03337	0.0660066	0.04094854	0	0	0	0
10.04994	0.0660066	0.04094854	0	0	0	0
10.06736	0.0660066	0.04094854	0	0	0	0
10.08307	0.0660066	0.04094854	0	0	0	0
10.09963	0.0660066	0.04094854	0	0	0	0
10.13848	0.0660066	0.04094854	0	0	0	0
10.15524	0.0660066	0.04094854	0	0	0	0
10.17216	0.0660066	0.04094854	0	0	0	0
10.18819	0.0660066	0.04094854	0	0	0	0
10.20475	0.0660066	0.04094854	0	0	0	0
10.22132	0.0660066	0.04094854	0	0	0	0
10.23788	0.0660066	0.04094854	0	0	0	0
10.25445	0.0660066	0.04094854	0	0	0	0
10.29164	0.0660066	0.04094854	0	0	0	0
10.30821	0.0660066	0.04094854	0	0	0	0
10.32478	0.0660066	0.04094854	0	0	0	0
10.34134	0.0660066	0.04094854	0	0	0	0
10.35791	0.0660066	0.04094854	0	0	0	0
10.37448	0.0660066	0.04094854	0	0	0	0
10.39104	0.0660066	0.04094854	0	0	0	0
10.40761	0.0660066	0.04094854	0	0	0	0
10.42418	0.06111722	0.02994744	-0.2952085	-0.6642193	-8.910181	-20.04791
10.46418	0.05011613	0.003055861	-0.2749752	-0.6721618	0.3576691	-0.1404022
10.48075	0.04644909	-0.07395184	-0.2213171	-4.647659	0.9484118	-70.26736
10.49732	0.04889378	-0.08617529	0.1475702	-0.7378511	11.13272	117.9949
10.51418	0.05500551	-0.1020658	0.3624164	-0.9422821	6.426731	-6.11518
10.53045	0.05867254	-0.1106222	0.2253904	-0.5259113	-4.135573	12.56646
10.54709	0.06111722	-0.1118445	0.1469777	-0.07348838	-2.383169	13.75032
10.56359	0.06111722	-0.1118445	0	0	-4.435411	2.217692
10.58015	0.06111722	-0.1118445	0	0	0	0
10.62239	0.06356192	-0.1093998	0.05788527	0.05788483	0.9844796	0.9844722
10.63896	0.1405696	0.0617284	4.647391	10.32754	78.0481	174.6434
10.65552	0.1552377	0.09839874	0.8855234	2.213809	-113.5334	-244.8728
10.67209	0.1735729	0.1534042	1.106777	3.32033	6.678224	33.39872
10.68923	0.180907	0.1790735	0.4279299	1.497754	-20.141	-54.07472
10.70584	0.180907	0.1912969	0	0.7356493	-12.67777	-22.57798
10.72179	0.1821293	0.198631	0.07665323	0.4599203	2.354052	-8.467749
10.73836	0.1833517	0.1998533	0.07378497	0.07378408	-0.08821993	-11.87649
10.77321	0.1833517	0.2010757	-4.2752E-07	0.03506989	-1.434923	-0.7528843
10.78978	0.184574	0.2145215	0.07376798	0.8114488	1.434486	15.09731
10.80635	0.184574	0.2145215	0	0	-2.226194	-24.48816
10.82323	0.184574	0.2426354	0	1.665513	0	49.79661
10.83948	0.1833517	0.2475248	-0.07520941	0.3008386	-2.269955	-41.18832
10.85645	0.1711282	0.2621929	-0.720269	0.8643255	-19.41597	16.96067
10.8728	0.1589048	0.2719717	-0.7476649	0.5981323	-0.8222172	-7.989118
10.88918	0.145459	0.2817504	-0.8208032	0.5969465	-2.23459	-0.03622888
10.92786	0.1381249	0.2854174	-0.1896037	0.09480168	11.46337	-9.119576
10.94443	0.1112333	0.2976409	-1.622805	0.7376392	-25.93933	11.63463
10.961	0.1051216	0.3000856	-0.3689466	0.1475784	37.83936	-17.80704
10.97756	0.09412052	0.3037526	-0.6640661	0.2213567	-8.907494	2.226825
10.99413	0.08434176	0.3074196	-0.5902811	0.2213531	2.226962	-0.000108838
11.0107	0.07334067	0.308642	-0.6639892	0.07377828	-2.224514	-4.453817
11.0273	0.05745019	0.308642	-0.9572777	-1.795358E-06	-8.842556	-2.224446
11.04387	0.0330033	0.3037526	-1.475362	-0.2950719	-15.6192	-8.895761
11.07832	0.02077986	0.2988632	-0.3548213	-0.1419283	21.96292	3.001659
11.09489	-0.006111722	0.2841951	-1.622992	-0.8852686	-24.85697	-14.56995
11.11145	-0.0110011	0.2805281	-0.2951404	-0.2213549	40.07349	20.03638
11.12802	-0.02566924	0.269527	-0.8853704	-0.6640265	-17.81369	-13.36024
11.14502	-0.04522675	0.2487471	-1.150622	-1.222537	-7.90273	-16.63989
11.16115	-0.06845129	0.2206332	-1.439369	-1.742396	-8.714912	-15.69026
11.17772	-0.1002323	0.1815182	-1.918413	-2.361124	-14.64899	-18.92048
11.19429	-0.1332355	0.131402	-1.991853	-3.024667	-2.216362	-20.0252
11.21085	-0.1686835	0.07639653	-2.139892	-3.320521	-4.467811	-8.928887
11.2518	-0.2016868	0.01772399	-0.8059821	-1.432858	23.19309	32.82136
11.26837	-0.290918	-0.1509596	-5.385074	-10.18	-79.61144	-152.0766
11.28546	-0.290918	-0.1509596	0	0	159.9847	302.4367
11.3015	-0.3043638	-0.1778511	-0.8381729	-1.676349	-25.29829	-50.59667
11.31837	-0.3165872	-0.2035204	-0.7246706	-1.521804	3.448932	4.696049
11.33491	-0.3288107	-0.2291896	-0.7391688	-1.552256	-0.4340205	-0.9116146
11.35121	-0.3385895	-0.2560812	-0.5999891	-1.649964	4.238761	-2.975726
11.36777	-0.3508129	-0.2854174	-0.7378479	-1.770841	-4.194757	-3.678027
11.40983	-0.3532576	-0.2939738	-0.05813381	-0.2034659	11.59536	26.73812
11.4264	-0.3532576	-0.2939738	0	0	0.9916178	3.47062
11.44297	-0.3532576	-0.2939738	0	0	0	0
11.4599	-0.3532576	-0.2939738	0	0	0	0
11.4761	-0.3532576	-0.2939738	0	0	0	0
11.49266	-0.3532575	-0.3000856	1.798665E-06	-0.368863	5.489367E-05	-11.25737
11.50935	-0.3532576	-0.3074197	-1.786633E-06	-0.4396743	-0.000107829	-2.129674
11.5258	-0.3532576	-0.312309	0	-0.297124	5.391759E-05	4.301929
11.56895	-0.3532576	-0.3159761	0	-0.08497583	0	3.558971
11.58552	-0.3532576	-0.3159761	0	0	0	1.422835
11.60209	-0.3532576	-0.3159761	0	0	0	0
11.61866	-0.3532576	-0.3159761	0	0	0	0
11.63522	-0.3532576	-0.3159761	0	0	0	0
11.65212	-0.3532576	-0.3159761	0	0	0	0
11.66866	-0.3532576	-0.3159761	0	0	0	0
11.68502	-0.3532576	-0.3159761	0	0	0	0
11.73618	-0.3532576	-0.3159761	0	0	0	0
11.75275	-0.3532576	-0.3159761	0	0	0	0
11.76931	-0.3532576	-0.3159761	0	0	0	0
11.78588	-0.3532576	-0.3159761	0	0	0	0
11.80245	-0.3532576	-0.3159761	0	0	0	0
11.81902	-0.3495905	-0.3098643	0.2214186	0.3690311	6.682428	11.13738
11.83592	-0.3349224	-0.2817504	0.8676401	1.662977	19.30905	38.663
11.96129	-0.2994744	-0.2328566	0.2827576	0.3900106	-4.111044	-8.947474
11.97802	0.2114656	0.3110867	30.53282	32.50504	212.8796	226.004
11.99442	0.216355	0.3171984	0.2981279	0.3726595	-912.4849	-969.7571
12.02891	0.2187997	0.3233101	0.0708876	0.1772199	-4.465578	-3.840651
12.04569	0.220022	0.3294218	0.07284562	0.3642281	0.03819285	3.647755
12.06204	0.220022	0.3294218	0	0	-2.198422	-10.99211
12.07861	0.220022	0.3294218	0	0	0	0
12.09518	0.220022	0.3294218	0	0	0	0
12.11175	0.220022	0.3294218	0	0	0	0
12.12831	0.220022	0.3294218	0	0	0	0
12.14494	0.220022	0.3294218	0	0	0	0
12.16145	0.220022	0.3294218	0	0	0	0
12.19419	0.220022	0.3294218	0	0	0	0
12.21136	0.220022	0.3294218	0	0	0	0
12.22733	0.220022	0.3294218	0	0	0	0
12.24436	0.220022	0.3294218	0	0	0	0
12.26051	0.220022	0.3294218	0	0	0	0
12.27744	0.220022	0.3294218	0	0	0	0
12.2936	0.220022	0.3294218	0	0	0	0
12.31017	0.220022	0.3294218	0	0	0	0
12.32712	0.220022	0.3294218	0	0	0	0
12.37245	0.220022	0.3294218	0	0	0	0
12.38902	0.220022	0.3294218	0	0	0	0
12.4056	0.220022	0.3294218	0	0	0	0
12.42215	0.220022	0.3294218	0	0	0	0
12.43872	0.220022	0.3294218	0	0	0	0
12.45553	0.220022	0.3294218	0	0	0	0
12.47185	0.220022	0.3294218	0	0	0	0
12.48842	0.220022	0.3294218	0	0	0	0
12.50594	0.220022	0.3294218	0	0	0	0
12.52281	0.220022	0.3294218	0	0	0	0
12.53908	0.220022	0.3294218	0	0	0	0
12.55564	0.220022	0.3294218	0	0	0	0
12.57259	0.220022	0.3294218	0	0	0	0
12.58878	0.220022	0.3294218	0	0	0	0
12.60553	0.220022	0.3294218	0	0	0	0
12.62191	0.220022	0.3294218	0	0	0	0
12.63855	0.220022	0.3294218	0	0	0	0
12.65504	0.220022	0.3294218	0	0	0	0
12.67384	0.220022	0.3294218	0	0	0	0
12.69041	0.220022	0.3294218	0	0	0	0
12.70697	0.220022	0.3294218	0	0	0	0
12.72354	0.220022	0.3294218	0	0	0	0
12.74011	0.220022	0.3294218	0	0	0	0
12.75668	0.220022	0.3294218	0	0	0	0
12.77324	0.220022	0.3294218	0	0	0	0
12.78981	0.220022	0.3294218	0	0	0	0
12.80637	0.220022	0.3294218	0	0	0	0
12.84084	0.220022	0.3294218	0	0	0	0
12.85741	0.220022	0.3294218	0	0	0	0
12.87397	0.220022	0.3294218	0	0	0	0
12.89054	0.220022	0.3294218	0	0	0	0
12.90711	0.220022	0.3294218	0	0	0	0
12.92368	0.220022	0.3294218	0	0	0	0
12.94024	0.220022	0.3294218	0	0	0	0
12.95688	0.220022	0.3294218	0	0	0	0
12.97344	0.220022	0.3294218	0	0	0	0
13.00329	0.220022	0.3294218	0	0	0	0
13.01986	0.220022	0.3294218	0	0	0	0
13.03642	0.220022	0.3294218	0	0	0	0
13.05345	0.220022	0.3269771	0	-0.1436117	0	-4.275633
13.06956	0.216355	0.3220878	-0.2276183	-0.3034892	-6.869732	-4.825253
13.08636	0.2090209	0.3098643	-0.4364793	-0.7274675	-6.345809	-12.88171
13.10269	0.2016869	0.3013079	-0.4490956	-0.523943	-0.3807718	6.142558
13.11926	0.1919081	0.2878621	-0.5902825	-0.8116383	-4.291788	-8.745337
13.13582	0.1796846	0.273194	-0.7378506	-0.8854197	-4.453871	-2.226854
13.1711	0.1674612	0.2548588	-0.3465045	-0.5197579	7.548722	7.053295
13.18769	0.1149004	0.1155116	-3.167836	-8.398447	-54.39399	-151.8976
13.20424	0.1038993	0.07150715	-0.6649853	-2.659939	75.534	173.1835
13.2208	0.1038993	0.07150715	0	0	20.08433	80.33724
13.23737	0.09656521	0.03483682	-0.4426343	-2.213171	-13.35835	-66.7917
13.25394	0.09534287	0.02383572	-0.07378452	-0.6640659	11.13159	46.75073
13.2705	0.09534287	0.01527931	-4.497179E-07	-0.5164661	2.226872	4.4547
13.28734	0.09534287	0.01038993	4.425844E-07	-0.2904421	2.671445E-05	6.766884
13.33191	0.09534287	0.01038993	0	0	-7.207047E-06	4.72956
13.34848	0.09534287	0.01038993	0	0	0	0
13.36591	0.09534287	0.01038993	0	0	0	0
13.38162	0.09534287	0.01038993	0	0	0	0
13.39819	0.09534287	0.01038993	0	0	0	0
13.41475	0.09534287	0.01038993	0	0	0	0
13.43132	0.09534287	0.01038993	0	0	0	0
13.44788	0.09534287	0.01038993	0	0	0	0
13.4866	0.09534287	0.009167584	0	-0.03157028	0	-0.5710413
13.50368	0.08923115	-0.003055861	-0.357823	-0.7156455	-6.412766	-12.25974
13.52024	0.08923115	-0.003055861	0	0	10.63716	21.27431
13.53631	0.08923115	-0.003055861	0	0	0	0
13.55287	0.08923115	-0.003055861	0	0	0	0
13.56944	0.08923115	-0.003055861	0	0	0	0
13.58683	0.08923115	-0.003055861	0	0	0	0
13.60257	0.08923115	-0.003055861	0	0	0	0
13.64072	0.08923115	-0.003055861	0	0	0	0
13.65729	0.08923115	-0.003055861	0	0	0	0
13.67386	0.08923115	-0.003055861	0	0	0	0
13.69049	0.08923115	-0.003055861	0	0	0	0
13.707	0.08923115	-0.003055861	0	0	0	0
13.72356	0.08923115	-0.003055861	0	0	0	0
13.7406	0.08923115	-0.003055861	0	0	0	0
13.75669	0.08923115	-0.003055861	0	0	0	0
13.79726	0.08923115	-0.003055861	0	0	0	0
13.81409	0.08923115	-0.003055861	0	0	0	0
13.83039	0.08923115	-0.003055861	0	0	0	0
13.84696	0.08923115	-0.003055861	0	0	0	0
13.86406	0.08923115	-0.003055861	0	0	0	0
13.8801	0.08923115	-0.003055861	0	0	0	0
13.89666	0.08923115	-0.003055861	0	0	0	0
13.9293	0.08923115	-0.003055861	0	0	0	0
13.95859	0.08923115	-0.003055861	0	0	0	0
13.97542	0.08800881	-0.003055861	-0.07263508	0	-1.574926	0
13.992	0.08800881	-0.003055861	0	0	2.174296	0
14.0207	0.08800881	-0.003055861	0	0	0	0
14.03727	0.07823005	-0.007945239	-0.5901792	-0.2950894	-13.03716	-6.518574
14.05384	0.07456301	-0.01038993	-0.2213299	-0.1475532	11.13093	4.452267
14.0704	0.0660066	-0.01283462	-0.5164957	-0.1475703	-8.908123	-0.0005144773
14.08697	0.06233957	-0.01527931	-0.2213679	-0.1475787	8.907744	-0.0002545623
14.10354	0.05622785	-0.01650165	-0.3689043	-0.07378078	-4.452914	2.227354
14.12238	0.04889378	-0.017724	-0.3892063	-0.06486779	-0.5733282	0.2517022
14.13895	0.04644909	-0.017724	-0.1475362	0	6.824191	1.831712
14.15552	0.04644909	-0.017724	0	0	4.452395	0
14.1722	0.04644909	-0.017724	0	0	0	0
14.18865	0.04644909	-0.017724	0	0	0	0
14.20552	0.04644909	-0.017724	0	0	0	0
14.22179	0.04644909	-0.017724	0	0	0	0
14.23835	0.04644909	-0.017724	0	0	0	0
14.25492	0.04644909	-0.017724	0	0	0	0
14.30231	0.04644909	-0.017724	0	0	0	0
14.31894	0.04644909	-0.01650165	0	0.07349749	0	1.14802
14.33544	0.04644909	-0.01650165	0	0	0	-2.218095
14.35205	0.04644909	-0.01650165	0	0	0	0
14.36858	0.04644909	-0.01650165	0	0	0	0
14.38515	0.04644909	-0.01405696	0	0.1475702	0	4.459197
14.40171	0.04767144	-0.01283462	0.07378945	0.07378928	2.227162	-2.226906
14.46805	0.05011613	-0.01161227	0.03685382	0.01842692	-0.4455441	-0.6678205
14.48462	0.05011613	-0.01038993	0	0.07377665	-0.444542	0.6676451
14.50119	0.05011613	-0.01038993	0	0	0	-2.226071
14.51775	0.05011613	-0.01038993	0	0	0	0
14.53446	0.05133847	-0.01038993	0.07315329	0	2.198658	0
14.55089	0.05133847	-0.009167584	0	0.07442345	-2.207834	2.246169
14.56745	0.05133847	-0.009167584	0	0	0	-2.255974
14.60482	0.05256081	-0.009167584	0.0327137	0	0.6065924	0
14.62138	0.05256081	-0.00794524	0	0.07377659	-0.6065602	1.367927
14.63795	0.05256081	-0.00794524	0	0	0	-2.226582
14.65478	0.05378316	-0.00794524	0.07263943	0	2.175233	0
14.67132	0.05378316	-0.00794524	0	0	-2.176725	0
14.68765	0.0550055	-0.006722894	0.07484903	0.07484943	2.276839	2.276851
14.70422	0.0550055	-0.006722894	0	0	-2.275056	-2.275069
14.72079	0.0550055	-0.00550055	2.248719E-07	0.07378508	6.786453E-06	2.226774
14.75826	0.0550055	-0.00550055	0	0	-4.161509E-06	-1.365476
14.77483	0.05622785	-0.00550055	0.07377245	0	1.365171	0
14.79139	0.05622785	-0.00550055	0	0	-2.226457	0
14.80796	0.05622785	-0.00550055	0	0	0	0
14.82452	0.05745019	-0.004278206	0.07378922	0.07378936	2.227027	2.227031
14.84109	0.05867254	-0.003055861	0.07377245	0.07377237	-0.0005059327	-0.0005126785
14.85766	0.06111722	-0.001833517	0.1475872	0.07379361	2.227797	0.0006410914
14.87427	0.06233957	-0.0006111722	0.07356898	0.0735691	-2.230855	-0.006766522
14.89257	0.06478426	0.0006111722	0.1336102	0.06680502	1.719782	-0.1937461
14.90929	0.06845129	0.001833517	0.2193351	0.0731117	2.44816	0.1801082
14.92586	0.06967364	0.003055861	0.07375101	0.07375113	-4.372844	0.01920631
14.97527	0.07211833	0.004278206	0.04947781	0.02473888	-0.3678662	-0.7427924
14.99185	0.0794524	0.00794524	0.4425579	0.2212789	5.957396	2.978698
15.00841	0.0794524	0.00794524	0	0	-13.35527	-6.677634
15.02498	0.0794524	0.00794524	0	0	0	0
15.06564	0.0794524	0.009167584	0	0.03005771	0	0.5251914
15.08221	0.08189708	0.009167584	0.147536	0	2.577647	-0.5251477
15.09908	0.08189708	0.009167584	0	0	-4.412889	0
15.11534	0.08434177	0.01038993	0.1502782	0.07513904	4.535927	2.267962
15.13191	0.09045349	0.01161227	0.3688828	0.07377659	6.657477	-0.04149263
15.14848	0.09778756	0.01283462	0.4426088	0.07376815	2.224798	-0.000254511
15.17704	0.1075663	0.01283462	0.3423513	0	-2.221349	-1.63444
15.20489	0.1295685	0.01283462	0.7902104	-3.34485E-08	7.939782	-5.929853E-07
15.22146	0.1344579	0.01283462	0.2951238	5.621474E-08	-11.14791	2.018956E-06
15.23802	0.1356802	0.01283462	0.07377648	-5.62115E-08	-6.680083	-3.392933E-06
15.25485	0.1369026	0.01283462	0.0726392	5.5345E-08	-0.03405436	3.340438E-06
15.27116	0.1381249	0.01283462	0.07494555	-5.710224E-08	0.06959953	-3.393371E-06
15.2878	0.1381249	0.01283462	0	0	-2.274759	1.733176E-06
15.30433	0.1381249	0.01283462	0	0	0	0
15.32086	0.1381249	0.01283462	0	0	0	0
15.33751	0.1381249	0.01283462	0	0	0	0
15.35399	0.1381249	0.01283462	0	0	0	0
15.38044	0.1393473	0.01161227	0.04622138	-0.04622145	1.076773	-1.076775
15.39701	0.145459	0.006722894	0.3688408	-0.2950725	7.500078	-5.785151
15.41433	0.1466813	0.00550055	0.07058311	-0.07058322	-8.801313	6.624474
15.43014	0.1503484	0.004278206	0.2318874	-0.07729594	4.868592	-0.2026076
15.44679	0.1515707	0.001833517	0.07339294	-0.1467844	-4.881438	-2.140161
15.46328	0.1515707	0.001833517	0	0	-2.214812	4.429579
15.47984	0.1515707	0.001833517	0	0	0	0
15.49641	0.1515707	0.001833517	0	0	0	0
15.51298	0.1515707	0.001833517	0	0	0	0
15.54892	0.1515707	0.001833517	0	0	0	0
15.56548	0.1515707	0.001833517	0	0	0	0
15.58205	0.1515707	0.001833517	0	0	0	0
15.59899	0.1515707	0.001833517	0	0	0	0
15.61518	0.1515707	0.0006111722	0	-0.07547083	0	-2.277911
15.63175	0.1527931	-0.001833517	0.07378497	-0.1475702	2.252115	-2.200666
15.64832	0.1527931	-0.003055861	0	-0.07378511	-2.226963	2.226967
15.66488	0.1540154	-0.004278206	0.07378497	-0.07378511	2.226963	0
15.68145	0.1540154	-0.004278206	0	0	-2.226899	2.226903
15.6997	0.1552377	-0.004278206	0.06696195	0	1.923005	0
15.71627	0.1919081	0.04950495	2.213298	3.246171	61.63653	93.2206
15.73304	0.2090209	0.07517419	1.020421	1.530631	-35.7807	-51.45815
15.74941	0.2493583	0.1387361	2.464704	3.883777	43.58602	71.01398
15.76597	0.2921403	0.2132991	2.582479	4.500892	3.576299	18.73892
15.78254	0.326366	0.2780834	2.066102	3.910834	-15.58566	-17.80953
15.79911	0.3495905	0.3245325	1.401757	2.803513	-20.05055	-33.41997
15.81568	0.3568986	0.3501762	0.440987	1.547412	-28.99108	-37.90267
15.83224	0.3502731	0.3568036	-0.4001235	0.4002387	-25.38769	-34.62574
15.89963	0.3467759	0.3602033	-0.051892	0.05044682	4.148033	-4.166619
15.91642	0.3394219	0.3671413	-0.437965	0.4131897	-4.586078	4.308945
15.93277	0.3394219	0.3671413	0	0	13.21591	-12.4683
15.94957	0.3394219	0.3671413	0	0	0	0
15.9659	0.3394219	0.3671413	0	0	0	0
15.98256	0.3394219	0.3671413	0	0	0	0
16.01926	0.3394219	0.3671413	0	0	0	0
16.03619	0.3394219	0.3671413	0	0	0	0
16.0524	0.3394219	0.3671413	0	0	0	0
16.06897	0.3394219	0.3671413	0	0	0	0
16.08587	0.3362221	0.3700739	-0.189261	0.1734544	-5.654297	5.182065
16.1021	0.3306344	0.3750745	-0.3443322	0.308153	-4.680057	4.06521
16.11867	0.322699	0.379538	-0.4789856	0.2694152	-4.105919	-1.181211
16.13534	0.3080308	0.3746486	-0.8800009	-0.2933348	-12.06586	-16.93217
16.17009	0.2994744	0.3722039	-0.2462003	-0.07034294	12.32545	4.336498
16.18666	0.2933627	0.3697592	-0.368863	-0.1475427	-2.390017	-1.504195
16.20323	0.2921403	0.3697592	-0.07378072	-1.798872E-06	8.905087	4.452536
16.22044	0.290918	0.3697592	-0.07099362	0	0.08249569	5.32449E-05
16.23636	0.2896957	0.3697592	-0.07680482	0	-0.1753924	0
16.25346	0.287251	0.3685369	-0.1429532	-0.07147662	-2.003514	-2.164895
16.26949	0.2860286	0.3685369	-0.07625647	0	2.013144	2.157417
16.28606	0.2848063	0.3685369	-0.07377403	0	0.07615188	0
16.30302	0.2848063	0.3685369	0	0	2.200036	0
16.34734	0.2848063	0.3685369	0	0	0	0
16.36391	0.2848063	0.3673145	1.798665E-06	-0.07377223	2.95404E-05	-1.2116
16.38047	0.2848063	0.3673145	0	0	-5.428693E-05	2.226578
16.39704	0.2848063	0.3673145	0	0	0	0
16.41394	0.2848063	0.3673145	0	0	0	0
16.43018	0.2848063	0.3673145	0	0	0	0
16.44674	0.2848063	0.3673145	0	0	0	0
16.46362	0.2848063	0.3673145	0	0	0	0
16.5089	0.2848063	0.3673145	0	0	0	0
16.52547	0.2848063	0.3673145	0	0	0	0
16.54203	0.2848063	0.3673145	0	0	0	0
16.55872	0.2799169	0.3538687	-0.2930331	-0.8058378	-8.812304	-24.23374
16.57517	0.2652488	0.3257548	-0.8917338	-1.709158	-18.06882	-27.26227
16.59182	0.2505806	0.2841951	-0.8807082	-2.495335	0.3330621	-23.74874
16.60867	0.2285784	0.2169661	-1.30625	-3.991319	-12.70321	-44.65788
16.62487	0.2077986	0.1436255	-1.282172	-4.525318	0.7285102	-16.15704
16.66417	0.1955751	0.07028481	-0.3110825	-1.866493	17.4971	47.90672
16.68073	0.180907	-0.07517419	-0.8853705	-8.779922	-10.28075	-123.7624
16.6973	0.1784623	-0.09839873	-0.1475614	-1.401836	22.26712	222.6711
16.71387	0.1784623	-0.1057328	0	-0.4426852	4.453413	28.94723
16.73043	0.1760176	-0.1204009	-0.1475784	-0.8854724	-4.454182	-13.36411
16.747	0.1747953	-0.127735	-0.07378162	-0.4426852	2.22732	13.36411
16.76357	0.1735729	-0.1326244	-0.07377983	-0.2951238	5.419101E-05	4.453413
16.78014	0.1735729	-0.1350691	-8.994359E-07	-0.1475614	2.226652	4.45344
16.80289	0.1723506	-0.1362914	-0.05371315	-0.0537138	-1.365896	2.386535
16.81946	0.1686835	-0.1399584	-0.221344	-0.2213422	-4.262834	-4.262771
16.83603	0.1625718	-0.1411808	-0.3689027	-0.07378162	-4.453331	4.453386
16.85259	0.1552377	-0.1448478	-0.4426861	-0.2213422	-2.226788	-4.453386
16.86916	0.1369026	-0.1509595	-1.106713	-0.3689036	-20.04036	-4.453413
16.88644	0.1161227	-0.1595159	-1.202365	-0.4950914	-2.825791	-3.727884
16.9023	0.09778755	-0.16685	-1.15651	-0.4626049	1.383814	0.9803898
16.91887	0.07334067	-0.1754064	-1.475617	-0.516466	-9.842547	-1.661297
16.93544	0.06111722	-0.1790735	-0.737639	-0.2212903	22.26965	8.907393
16.97133	0.05011612	-0.1802958	-0.3065177	-0.03405788	8.21784	3.568941
16.98789	0.04644909	-0.1802958	-0.2213424	-8.994359E-07	1.623692	0.6492262
17.00446	0.04644909	-0.1802958	0	0	6.680127	2.714503E-05
17.0213	0.04644909	-0.1802958	0	0	0	0
17.03777	0.04644909	-0.1802958	0	0	0	0
17.0542	0.04522675	-0.1778511	-0.07442334	0.1488476	-2.262118	4.524262
17.07105	0.04155971	-0.1692947	-0.2176344	0.5078134	-4.304031	10.78828
17.10028	0.03789268	-0.1607383	-0.1254376	0.2926876	2.000648	-4.668179
17.12959	0.02811392	-0.1411808	-0.3336295	0.6672593	-3.556152	6.398105
17.14637	0.02322455	-0.131402	-0.2913334	0.5826656	0.9176264	-1.835283
17.16273	0.02322455	-0.127735	0	0.224156	8.790435	-10.81735
17.1793	0.02077986	-0.124068	-0.1475788	0.2213686	-4.482318	-0.08466076
17.19586	0.01711282	-0.1167339	-0.221368	0.4427358	-2.22722	6.681644
17.21269	0.01589048	-0.1130669	-0.0726599	0.2179798	4.45392	-6.731611
17.22926	0.01466813	-0.1081775	-0.07375542	0.2950219	-0.03280411	2.306941
17.24594	0.01344579	-0.1045104	-0.07329144	0.2198744	0.01395387	-2.260019
17.26214	0.0110011	-0.09962107	-0.150915	0.3018299	-2.361032	2.492793
17.30239	0.0110011	-0.09595404	-2.31391E-08	0.09110899	2.673523	-3.733011
17.31903	0.007334067	-0.08739763	-0.2202522	0.5139214	-3.870992	7.431044
17.33596	0.007334067	-0.08495294	0	0.1444683	6.56074	-11.00505
17.35209	0.007334067	-0.08250825	0	0.1515039	0	0.2128239
17.36883	0.006111722	-0.07884122	-0.0730492	0.2191476	-2.222411	2.057959
17.38522	0.004889378	-0.07639653	-0.07454468	0.1490891	-0.04513889	-2.114615
17.40187	0.004889378	-0.07395185	0	0.1468514	2.255866	-0.0677169
17.41895	0.003667034	-0.0727295	-0.07156454	0.07156485	-2.121836	-2.23219
17.45955	0.002444689	-0.07150715	-0.03010855	0.03010868	0.7187459	-0.7187491
17.47612	0.002444689	-0.07028481	1.405369E-08	0.07378028	0.5266945	0.7639549
17.49269	0.002444689	-0.07028481	0	0	-4.241166E-07	-2.226565
17.50936	0.002444689	-0.07028481	0	0	0	0
17.52647	0.002444689	-0.07028481	0	0	0	0
17.54239	0.002444689	-0.07028481	0	0	0	0
17.55895	0.002444689	-0.07028481	0	0	0	0
17.57552	0.002444689	-0.07028481	0	0	0	0
17.61274	0.002444689	-0.07028481	0	0	0	0
17.62938	0.002444689	-0.07028481	0	0	0	0
17.64592	0.002444689	-0.07028481	0	0	0	0
17.66245	0.002444689	-0.07028481	0	0	0	0
17.67901	0.002444689	-0.06661777	-1.405369E-08	0.2213431	-4.247034E-07	6.689003
17.69558	0	-0.06050605	-0.1475447	0.3688616	-4.452652	4.451862
17.71215	-0.001222344	-0.05439433	-0.07378086	0.3689043	2.22607	0.001287918
17.72874	-0.002444689	-0.04950495	-0.0736706	0.2946823	0.003325199	-2.238349
17.78851	-0.002444689	-0.04828261	0	0.02045259	0.9648193	-3.591421
17.80527	-0.002444689	-0.04706026	0	0.07292459	0	0.6856698
17.82203	-0.002444689	-0.04706026	0	0	0	-2.175324
17.83821	-0.002444689	-0.04583792	-1.43883E-08	0.07553741	-4.367538E-07	2.292922
17.85477	-0.002444689	-0.04461557	1.405692E-08	0.07379794	8.686793E-07	-0.05312095
17.87134	-0.002444689	-0.04461557	0	0	-4.24312E-07	-2.227611
17.88815	-0.002444689	-0.04339323	0	0.07269298	0	2.177707
17.91062	-0.002444689	-0.04339323	0	0	0	-1.850639
17.92719	-0.002444689	-0.04339323	0	0	0	0
17.94419	-0.002444689	-0.04217089	0	0.07188552	0	2.141161
17.96032	-0.002444689	-0.04217089	0	0	0	-2.169634
17.97689	-0.002444689	-0.04217089	0	0	0	0
17.99373	-0.002444689	-0.04217089	0	0	0	0
18.01002	-0.002444689	-0.04217089	0	0	0	0
18.02659	-0.002444689	-0.04217089	0	0	0	0
18.04355	-0.002444689	-0.04217089	0	0	0	0
18.0673	-0.002444689	-0.04217089	0	0	0	0
18.08387	-0.002444689	-0.04217089	0	0	0	0
18.10044	-0.002444689	-0.04217089	0	0	0	0
18.11701	-0.002444689	-0.04217089	0	0	0	0
18.13358	-0.002444689	-0.04217089	0	0	0	0
18.15014	-0.002444689	-0.04217089	0	0	0	0
18.16671	-0.002444689	-0.04217089	0	0	0	0
18.18341	-0.002444689	-0.04217089	0	0	0	0
18.19984	-0.002444689	-0.04217089	0	0	0	0
18.23893	-0.002444689	-0.04217089	0	0	0	0
18.25584	-0.002444689	-0.04217089	0	0	0	0
18.27274	-0.002444689	-0.04217089	0	0	0	0
18.28863	-0.002444689	-0.04217089	0	0	0	0
18.30545	-0.002444689	-0.04217089	0	0	0	0
18.32177	-0.002444689	-0.04217089	0	0	0	0
18.33834	-0.002444689	-0.04217089	0	0	0	0
18.35506	-0.002444689	-0.04217089	0	0	0	0
18.39894	-0.002444689	-0.04217089	0	0	0	0
18.41551	-0.002444689	-0.04217089	0	0	0	0
18.43208	-0.002444689	-0.04217089	0	0	0	0
18.44864	-0.002444689	-0.04217089	0	0	0	0
18.46557	-0.002444689	-0.04217089	0	0	0	0
18.48214	-0.002444689	-0.04217089	0	0	0	0
18.49875	-0.002444689	-0.04217089	0	0	0	0
18.51537	-0.002444689	-0.04217089	0	0	0	0
18.55384	-0.002444689	-0.04217089	0	0	0	0
18.57041	-0.002444689	-0.04217089	0	0	0	0
18.58698	-0.002444689	-0.04217089	0	0	0	0
18.6037	-0.002444689	-0.04217089	0	0	0	0
18.62019	-0.002444689	-0.04217089	0	0	0	0
18.63669	-0.002444689	-0.04217089	0	0	0	0
18.66069	-0.002444689	-0.04217089	0	0	0	0
18.70572	-0.002444689	-0.04217089	0	0	0	0
18.72229	-0.002444689	-0.04217089	0	0	0	0
18.73886	-0.002444689	-0.04217089	0	0	0	0
18.75543	-0.002444689	-0.04217089	0	0	0	0
18.772	-0.002444689	-0.04217089	0	0	0	0
18.78935	-0.002444689	-0.04217089	0	0	0	0
18.80513	-0.002444689	-0.04217089	0	0	0	0
18.82174	-0.002444689	-0.04217089	0	0	0	0
18.83826	-0.002444689	-0.04217089	0	0	0	0
18.89701	-0.002444689	-0.04217089	0	0	0	0
18.91358	-0.002444689	-0.04217089	0	0	0	0
18.93015	-0.002444689	-0.04217089	0	0	0	0
18.94671	-0.002444689	-0.04217089	0	0	0	0
18.96375	-0.002444689	-0.04217089	0	0	0	0
18.97985	-0.002444689	-0.04217089	0	0	0	0
18.99649	-0.002444689	-0.04217089	0	0	0	0
19.032	-0.002444689	-0.04217089	0	0	0	0
19.04857	-0.002444689	-0.04217089	0	0	0	0
19.06514	-0.002444689	-0.04217089	0	0	0	0
19.0817	-0.002444689	-0.04217089	0	0	0	0
19.09827	-0.002444689	-0.04217089	0	0	0	0
19.11484	-0.002444689	-0.04217089	0	0	0	0
19.13157	-0.002444689	-0.04217089	0	0	0	0
19.14797	-0.002444689	-0.04217089	0	0	0	0
19.16811	-0.002444689	-0.04217089	0	0	0	0
19.18477	-0.002444689	-0.04217089	0	0	0	0
19.20164	-0.002444689	-0.04217089	0	0	0	0
19.21781	-0.002444689	-0.04217089	0	0	0	0
19.23474	-0.002444689	-0.04217089	0	0	0	0
19.25094	-0.002444689	-0.04217089	0	0	0	0
19.26751	-0.002444689	-0.04217089	0	0	0	0
19.28408	-0.002444689	-0.04217089	0	0	0	0
19.30065	-0.002444689	-0.04217089	0	0	0	0
19.31852	-0.002444689	-0.04217089	0	0	0	0
19.33523	-0.002444689	-0.04217089	0	0	0	0
19.35166	-0.002444689	-0.04217089	0	0	0	0
19.36823	-0.002444689	-0.04217089	0	0	0	0
19.38499	-0.002444689	-0.04217089	0	0	0	0
19.40136	-0.002444689	-0.04217089	0	0	0	0
19.41793	-0.002444689	-0.04217089	0	0	0	0
19.4345	-0.002444689	-0.04217089	0	0	0	0
19.45181	-0.002444689	-0.04217089	0	0	0	0
19.47052	-0.002444689	-0.04217089	0	0	0	0
19.48709	-0.002444689	-0.04217089	0	0	0	0
19.50366	-0.002444689	-0.04217089	0	0	0	0
19.52023	-0.002444689	-0.04217089	0	0	0	0
19.53679	-0.002444689	-0.04217089	0	0	0	0
19.55336	-0.002444689	-0.04217089	0	0	0	0
19.56993	-0.002444689	-0.04217089	0	0	0	0
19.58675	-0.002444689	-0.04217089	0	0	0	0
19.60306	-0.002444689	-0.04217089	0	0	0	0
19.64821	-0.002444689	-0.04217089	0	0	0	0
19.66478	-0.002444689	-0.04217089	0	0	0	0
19.682	-0.002444689	-0.04217089	0	0	0	0
19.69792	-0.002444689	-0.04217089	0	0	0	0
19.71448	-0.002444689	-0.04217089	0	0	0	0
19.73118	-0.002444689	-0.04217089	0	0	0	0
19.74762	-0.002444689	-0.04217089	0	0	0	0
19.76423	-0.002444689	-0.04217089	0	0	0	0
19.78233	-0.002444689	-0.04217089	0	0	0	0
19.7989	-0.002444689	-0.0397262	0	0.1475277	0	4.255447
19.81546	-0.002444689	-0.0397262	0	0	0	-4.451882
19.83278	-0.002444689	-0.0397262	0	0	0	0
19.8486	-0.002444689	-0.0397262	0	0	0	0
19.86585	-0.002444689	-0.0397262	0	0	0	0
19.88173	-0.002444689	-0.0397262	0	0	0	0
19.8983	-0.002444689	-0.03850385	1.405369E-08	0.07378095	4.331675E-07	2.274101
19.91487	-0.006111722	-0.03728151	-0.2213171	0.07377245	-6.67898	-0.0002563245
19.94938	-0.01344579	-0.03483682	-0.2124986	0.07083286	0.1726314	-0.05754579
19.9663	-0.02933627	-0.03850385	-0.9391485	-0.2167266	-14.12793	-5.590892
19.98289	-0.03544799	-0.04217089	-0.3684377	-0.2210627	17.03192	-0.1294016
19.99908	-0.05011613	-0.05194964	-0.9058101	-0.6038734	-16.3925	-11.67761
20.01593	-0.06845129	-0.06784012	-1.088418	-0.9432957	-5.527025	-10.27335
20.03245	-0.08800881	-0.08128591	-1.183628	-0.8137441	-2.85324	3.882386
20.04892	-0.1051216	-0.09717639	-1.039032	-0.9648162	4.382577	-4.578869
20.06599	-0.1210121	-0.1093998	-0.9306518	-0.7158858	3.230939	7.420891
20.10158	-0.1307909	-0.1216233	-0.2747671	-0.3434588	12.45418	7.071783
20.1184	-0.1515707	-0.1436255	-1.235639	-1.308324	-18.33505	-18.41125
20.13472	-0.1540154	-0.1460702	-0.1498035	-0.1498035	32.76871	34.96222
20.15132	-0.1576824	-0.1509595	-0.2209361	-0.2945803	-2.160967	-4.398234
20.16797	-0.1613495	-0.1534042	-0.2202518	-0.1468354	0.02058204	4.443855
20.18482	-0.1625718	-0.1558489	-0.07253554	-0.1450729	4.409352	0.05261339
20.20099	-0.1662389	-0.1607383	-0.2268012	-0.3024001	-4.671883	-4.7646
20.21755	-0.1699059	-0.1656277	-0.2213677	-0.2951569	0.1659913	0.2212747
20.24905	-0.1735729	-0.1692947	-0.1164211	-0.1164216	2.183508	3.718749
20.26586	-0.1857964	-0.1790735	-0.7270119	-0.581609	-12.63869	-9.628969
20.28218	-0.1894634	-0.1827405	-0.224679	-0.224679	15.16044	10.77217
20.29875	-0.1955751	-0.1900746	-0.3689045	-0.4426861	-4.3853	-6.628692
20.3154	-0.2041315	-0.198631	-0.5139807	-0.5139807	-4.367847	-2.146484
20.33191	-0.216355	-0.2120768	-0.7401942	-0.8142136	-6.82164	-9.05375
20.34845	-0.2187997	-0.2145215	-0.1478176	-0.1478167	17.92232	20.1618
20.36502	-0.2224667	-0.2194108	-0.2213422	-0.2951229	-2.220893	-4.449551
20.38159	-0.2249114	-0.2218555	-0.1475624	-0.1475624	2.226679	4.453386
20.39936	-0.2249114	-0.2218555	0	0	4.296872	4.296872
20.41593	-0.2261337	-0.2218555	-0.07377983	0	-2.148396	0
20.4325	-0.2261337	-0.2218555	0	0	2.226552	0
20.44924	-0.2261337	-0.2218555	0	0	0	0
20.46563	-0.2261337	-0.2218555	0	0	0	0
20.4822	-0.2261337	-0.2218555	0	0	0	0
20.49877	-0.2261337	-0.2218555	0	0	0	0
20.51533	-0.2261337	-0.2218555	0	0	0	0
20.5319	-0.2261337	-0.2218555	0	0	0	0
20.59987	-0.2261337	-0.2218555	0	0	0	0
20.61644	-0.2187997	-0.2047427	0.4426334	1.032813	5.235941	12.21722
20.63301	-0.2187997	-0.2047427	0	0	-13.35793	-31.16857
20.64957	-0.2090209	-0.1888522	0.5902476	0.9591512	17.81371	28.94724
20.66614	-0.1980198	-0.1692947	0.664103	1.180628	2.229089	6.68458
20.68271	-0.1796846	-0.1362914	1.106586	1.991855	13.35417	24.48286
20.74162	-0.145459	-0.07639653	0.5809218	1.016613	-6.963805	-12.91963
20.75819	0.04767144	0.1656277	11.65603	14.60693	146.7189	180.0394
20.77476	0.05989488	0.1778511	0.7378086	0.7378091	-329.4937	-418.5468
20.79133	0.06967364	0.1888522	0.5902467	0.6640274	-4.453427	-2.226735
20.8079	0.08678646	0.2071874	1.032932	1.106713	13.36028	13.36027
20.82446	0.1014546	0.2255226	0.885472	1.106841	-4.45062	0.003871395
20.84103	0.106344	0.2316343	0.2951578	0.3689479	-17.81777	-22.27222
20.88966	0.110011	0.2365236	0.07539507	0.1005263	-3.370454	-4.116724
20.90623	0.1124557	0.2389684	0.1475454	0.1475463	1.106489	0.7210921
20.92312	0.1124557	0.2389684	0	0	-4.409775	-4.409801
20.93965	0.1124557	0.2389684	0	0	0	0
20.95594	0.1124557	0.2389684	0	0	0	0
20.9725	0.1124557	0.2389684	0	0	0	0
20.98907	0.1124557	0.2389684	0	0	0	0
21.00564	0.1124557	0.2389684	0	0	0	0
21.03686	0.1124557	0.2389684	0	0	0	0
21.05343	0.1124557	0.2389684	0	0	0	0
21.07	0.1124557	0.2389684	0	0	0	0
21.08657	0.1124557	0.2389684	0	0	0	0
21.10313	0.1124557	0.2389684	0	0	0	0
21.1197	0.1124557	0.2389684	0	0	0	0
21.13627	0.1124557	0.2389684	0	0	0	0
21.15283	0.1124557	0.2389684	0	0	0	0
21.16964	0.1124557	0.2389684	0	0	0	0
21.21073	0.110011	0.2279672	-0.05949031	-0.2677071	-1.027476	-4.623654
21.2273	0.1002323	0.1925193	-0.5902472	-2.139645	-9.204771	-32.4645
21.24408	0.09900991	0.1876299	-0.07286633	-0.2914662	15.51722	55.43034
21.26044	0.09534287	0.1778511	-0.224156	-0.5977478	-4.565931	-9.243597
21.27701	0.09412053	0.1705171	-0.07376329	-0.4425834	4.566991	4.711895
21.29357	0.09167584	0.163183	-0.1475789	-0.4427362	-2.227631	-0.004612941
21.31034	0.0904535	0.1570713	-0.07289948	-0.3644974	2.240417	2.347199
21.32671	0.0880088	0.1509596	-0.149368	-0.3734186	-2.307824	-0.2692407
21.36249	0.08434177	0.1399584	-0.1024828	-0.3074494	0.8990641	1.265018
21.37961	0.07823005	0.1216233	-0.3568665	-1.070599	-4.808043	-14.4241
21.39568	0.07823005	0.1179562	0	-0.2282809	10.7523	25.37884
21.41219	0.07456302	0.1081775	-0.2220836	-0.5922235	-6.817483	-11.17224
21.42876	0.07211833	0.1008434	-0.1475449	-0.4426347	2.253215	4.521887
21.44532	0.06845129	0.09228701	-0.2213681	-0.5165254	-2.227988	-2.230026
21.46189	0.06722895	0.08739763	-0.07378922	-0.2951578	4.454453	6.681658
21.47853	0.06478426	0.0812859	-0.1469023	-0.3672555	-2.201741	-2.171165
21.49502	0.06356191	0.07884122	-0.07411394	-0.1482265	2.196757	6.610309
21.51681	0.06233957	0.07639653	-0.05611711	-0.1122349	0.4702009	0.9403487
21.53338	0.06233957	0.07395184	-2.248072E-07	-0.1475279	1.463169	-0.9202164
21.54994	0.06233957	0.07395184	0	0	6.784695E-06	4.452402
21.56651	0.06233957	0.07395184	0	0	0	0
21.58311	0.06233957	0.07395184	0	0	0	0
21.59964	0.06233957	0.07395184	0	0	0	0
21.61621	0.06233957	0.07395184	0	0	0	0
21.63278	0.06233957	0.07395184	0	0	0	0
21.64935	0.06233957	0.07395184	0	0	0	0
21.67038	0.06233957	0.07395184	0	0	0	0
21.68694	0.06233957	0.07395184	0	0	0	0
21.70351	0.06233957	0.07395184	0	0	0	0
21.72008	0.06233957	0.07395184	0	0	0	0
21.73702	0.06233957	0.07395184	0	0	0	0
21.80659	0.06233957	0.07395184	0	0	0	0
21.8416	0.06233957	0.07395184	0	0	0	0
21.85818	0.06233957	0.07395184	0	0	0	0
21.87474	0.06233957	0.07395184	0	0	0	0
21.89142	0.06233957	0.07395184	0	0	0	0
21.90788	0.06233957	0.07395184	0	0	0	0
21.92445	0.06233957	0.07395184	0	0	0	0
21.94101	0.06233957	0.07395184	0	0	0	0
21.95758	0.06233957	0.07395184	0	0	0	0
21.97415	0.06233957	0.07395184	0	0	0	0
22.00584	0.06233957	0.07395184	0	0	0	0
22.02241	0.06233957	0.07395184	0	0	0	0
22.03897	0.06233957	0.07395184	0	0	0	0
22.05568	0.06233957	0.07395184	0	0	0	0
22.07211	0.06233957	0.07395184	0	0	0	0
22.0887	0.06233957	0.07395184	0	0	0	0
22.10524	0.06233957	0.07395184	0	0	0	0
22.12181	0.06233957	0.07395184	0	0	0	0
22.13837	0.06233957	0.07395184	0	0	0	0
22.17559	0.06233957	0.07395184	0	0	0	0
22.19279	0.06233957	0.07395184	0	0	0	0
22.20885	0.06233957	0.07395184	0	0	0	0
22.22529	0.06233957	0.07395184	0	0	0	0
22.24186	0.06233957	0.07395184	0	0	0	0
22.25843	0.06233957	0.07395184	0	0	0	0
22.29137	0.06233957	0.07395184	0	0	0	0
22.31946	0.06233957	0.07395184	0	0	0	0
22.33603	0.06233957	0.07395184	0	0	0	0
22.3526	0.06233957	0.07395184	0	0	0	0
22.36917	0.06233957	0.07395184	0	0	0	0
22.38614	0.06233957	0.07395184	0	0	0	0
22.4024	0.06233957	0.07395184	0	0	0	0
22.41901	0.06233957	0.07395184	0	0	0	0
22.4358	0.06233957	0.07395184	0	0	0	0
22.452	0.05867254	0.0702848	-0.2264256	-0.2264263	-6.863963	-6.863985
22.46857	0.05500551	0.06661778	-0.2213169	-0.2213162	0.1559225	0.1559644
22.49653	0.05256081	0.06417309	-0.08743589	-0.08743589	3.006606	3.006591
22.51309	0.05133847	0.06417309	-0.07378095	0	0.3066661	1.963658
22.52966	0.05133847	0.06417309	0	0	2.226713	0
22.54677	0.05133847	0.06417309	0	0	0	0
22.56293	0.05133847	0.06417309	0	0	0	0
22.57936	0.05133847	0.06417309	0	0	0	0
22.5966	0.05133847	0.06417309	0	0	0	0
22.6125	0.05133847	0.06417309	0	0	0	0
22.62921	0.05133847	0.06417309	0	0	0	0
22.65071	0.05133847	0.06417309	0	0	0	0
22.66766	0.05133847	0.06417309	0	0	0	0
22.68385	0.05133847	0.06417309	0	0	0	0
22.70042	0.05133847	0.06417309	0	0	0	0
22.71699	0.05133847	0.06417309	0	0	0	0
22.73355	0.05133847	0.06417309	0	0	0	0
22.75012	0.05133847	0.06417309	0	0	0	0
22.76669	0.05133847	0.06417309	0	0	0	0
22.78359	0.05133847	0.06417309	0	0	0	0
22.79982	0.05133847	0.06417309	0	0	0	0
22.81698	0.05133847	0.06417309	0	0	0	0
22.83355	0.05133847	0.06417309	0	0	0	0
22.85012	0.05133847	0.06417309	0	0	0	0
22.86669	0.05133847	0.06417309	0	0	0	0
22.88325	0.05133847	0.06417309	0	0	0	0
22.89983	0.05133847	0.06417309	0	0	0	0
22.91639	0.05133847	0.06417309	0	0	0	0
22.93295	0.05133847	0.06417309	0	0	0	0
22.94952	0.05133847	0.06417309	0	0	0	0
22.99327	0.05133847	0.06417309	0	0	0	0
23.00984	0.05133847	0.06417309	0	0	0	0
23.02641	0.05133847	0.06417309	0	0	0	0
23.04297	0.05133847	0.06417309	0	0	0	0
23.05954	0.05133847	0.06417309	0	0	0	0
23.07611	0.05133847	0.06417309	0	0	0	0
23.09268	0.05133847	0.06417309	0	0	0	0
23.10924	0.05133847	0.06417309	0	0	0	0
23.17851	0.05133847	0.06417309	0	0	0	0
23.19508	0.05133847	0.06417309	0	0	0	0
23.21164	0.05133847	0.06417309	0	0	0	0
23.22821	0.05133847	0.06417309	0	0	0	0
23.24498	0.05133847	0.06417309	0	0	0	0
23.26135	0.05133847	0.06417309	0	0	0	0
23.29516	0.05133847	0.06417309	0	0	0	0
23.31173	0.05133847	0.06417309	0	0	0	0
23.32829	0.05133847	0.06417309	0	0	0	0
23.34567	0.05133847	0.06417309	0	0	0	0
23.36143	0.05133847	0.06417309	0	0	0	0
23.378	0.05133847	0.06417309	0	0	0	0
23.39456	0.05133847	0.06417309	0	0	0	0
23.41128	0.05133847	0.06417309	0	0	0	0
23.4277	0.05133847	0.06417309	0	0	0	0
23.47053	0.05133847	0.06417309	0	0	0	0
23.4871	0.05133847	0.06539543	0	0.07377223	0	1.241945
23.50371	0.05133847	0.06539543	0	0	0	-2.223379
23.52023	0.05133847	0.06661777	0	0.07398515	0	2.233005
23.5368	0.05133847	0.06661777	0	0	0	-2.235837
23.55337	0.05133847	0.06661777	0	0	0	0
23.56994	0.05133847	0.06661777	0	0	0	0
23.5865	0.05133847	0.06784012	0	0.07382367	0	2.227875
23.60432	0.05133847	0.06784012	0	0	0	-2.147526
23.62089	0.05256081	0.06784012	0.07378095	0	2.145688	0
23.63775	0.05256081	0.06784012	0	0	-2.206896	0
23.65402	0.05256081	0.06784012	0	0	0	0
23.67073	0.05256081	0.06784012	0	0	0	0
23.68716	0.05256081	0.06784012	0	0	0	0
23.70373	0.05256081	0.06784012	0	0	0	0
23.72029	0.05256081	0.06784012	0	0	0	0
23.73686	0.05256081	0.06784012	0	0	0	0
23.75465	0.05256081	0.06784012	0	0	0	0
23.77122	0.05256081	0.06784012	0	0	0	0
23.78779	0.05256081	0.06784012	0	0	0	0
23.80435	0.05256081	0.06784012	0	0	0	0
23.82092	0.05256081	0.06784012	0	0	0	0
23.83749	0.05256081	0.06784012	0	0	0	0
23.85406	0.05256081	0.06784012	0	0	0	0
23.87062	0.05256081	0.06784012	0	0	0	0
23.88719	0.05256081	0.06784012	0	0	0	0
23.91835	0.05256081	0.06784012	0	0	0	0
23.93493	0.05256081	0.06784012	0	0	0	0
23.95149	0.05256081	0.06784012	0	0	0	0
23.96832	0.05256081	0.06784012	0	0	0	0
23.98496	0.05256081	0.06784012	0	0	0	0
24.00119	0.05256081	0.06784012	0	0	0	0
24.01776	0.05256081	0.06784012	0	0	0	0
24.03432	0.05256081	0.06784012	0	0	0	0
24.05141	0.05256081	0.06784012	0	0	0	0
24.0697	0.05256081	0.06784012	0	0	0	0
24.08628	0.05256081	0.06784012	0	0	0	0
24.10284	0.05256081	0.06784012	0	0	0	0
24.1194	0.05256081	0.06784012	0	0	0	0
24.13597	0.05256081	0.06784012	0	0	0	0
24.15254	0.05256081	0.06784012	0	0	0	0
24.16911	0.05256081	0.06784012	0	0	0	0
24.18567	0.05256081	0.06784012	0	0	0	0
24.20224	0.05256081	0.06784012	0	0	0	0
24.23856	0.05256081	0.06784012	0	0	0	0
24.25512	0.05256081	0.06784012	0	0	0	0
24.27169	0.05256081	0.06784012	0	0	0	0
24.28857	0.05256081	0.06784012	0	0	0	0
24.30483	0.05256081	0.06784012	0	0	0	0
24.32139	0.05256081	0.06784012	0	0	0	0
24.33801	0.05256081	0.06784012	0	0	0	0
24.35453	0.05256081	0.06784012	0	0	0	0
24.37149	0.05256081	0.06784012	0	0	0	0
24.42229	0.05256081	0.06784012	0	0	0	0
24.43898	0.05256081	0.06784012	0	0	0	0
24.45543	0.05256081	0.06784012	0	0	0	0
24.472	0.05256081	0.06784012	0	0	0	0
24.48886	0.05256081	0.06784012	0	0	0	0
24.50513	0.05256081	0.06784012	0	0	0	0
24.52192	0.05378316	0.07150716	0.07280011	0.2184008	2.202182	6.606561
24.57512	0.05378316	0.07517419	7.002205E-08	0.06892704	-1.040118	-2.135581
24.59246	0.05378316	0.08984232	-2.148652E-07	0.8460203	-4.038693E-06	11.01643
24.60891	0.05378316	0.08984232	0	0	6.360166E-06	-25.04281
24.62483	0.05378316	0.0947317	0	0.3071093	0	9.488698
24.64192	0.05378316	0.09962107	0	0.2860664	0	-0.6374229
24.65796	0.05133847	0.1057328	-0.1524225	0.3810566	-4.600649	2.867138
24.67452	0.05133847	0.1130669	0	0.4426852	4.674658	1.890095
24.69109	0.04889378	0.1191786	-0.1475447	0.3688616	-4.452651	-2.227873
24.72193	0.04644909	0.127735	-0.07928987	0.2775148	1.439932	-1.927089
24.73862	0.03422565	0.1619606	-0.732412	2.050754	-13.74369	37.31438
24.75506	0.02933627	0.1705171	-0.2973142	0.5202996	13.13128	-46.18919
24.77163	0.02444689	0.1778511	-0.2951232	0.4426852	0.06636833	-2.351068
24.7882	0.006111722	0.2071874	-1.106586	1.770537	-24.48857	40.07234
24.80521	-0.01222345	0.2267449	-1.077559	1.149397	0.8642698	-18.49478
24.82133	-0.03667033	0.2475248	-1.51683	1.289305	-13.25797	4.222656
24.83789	-0.05989488	0.2658599	-1.401998	1.10684	3.513565	-5.582959
24.86433	-0.08067474	0.2817504	-0.7859349	0.6010091	14.32539	-11.76215
24.89981	-0.1112334	0.3135314	-0.8614644	0.895923	-1.21994	4.763395
24.91637	-0.1271238	0.3318665	-0.9591503	1.106711	-1.877127	4.050491
24.93294	-0.1307909	0.3367559	-0.2213176	0.2950907	22.26655	-24.49334
24.94979	-0.1356802	0.3453123	-0.2901457	0.507755	-2.059455	6.363277
24.96608	-0.1405696	0.351424	-0.3002747	0.3753441	-0.305694	-3.99617
24.98264	-0.145459	0.3587581	-0.2951569	0.4427353	0.1558027	2.051585
24.99936	-0.1503484	0.3660922	-0.2924638	0.4386962	0.08091332	-0.1213566
25.01578	-0.1527931	0.3697592	-0.1488995	0.2233478	4.332531	-6.498852
25.03234	-0.1564601	0.3734262	-0.2213932	0.2213932	-2.197986	-0.05926512
25.07794	-0.1589048	0.3770933	-0.0536127	0.08041905	2.699067	-2.267836
25.09482	-0.1650165	0.3819827	-0.3621502	0.2897229	-4.938559	3.350192
25.11108	-0.1674612	0.3819827	-0.1503492	-1.832845E-06	6.391799	-8.743408
25.12765	-0.1674612	0.3819827	0	0	4.579993	5.58328E-05
25.14459	-0.1674612	0.3819827	0	0	0	0
25.16078	-0.1674612	0.3819827	0	0	0	0
25.17735	-0.1674612	0.3819827	0	0	0	0
25.19391	-0.1674612	0.3819827	0	0	0	0
25.24397	-0.1674612	0.3819827	0	0	0	0
25.26053	-0.1674612	0.3844273	8.994359E-07	0.1475597	1.350101E-05	2.21495
25.2771	-0.1674612	0.3856497	0	0.07378253	-2.714503E-05	-2.226598
25.29384	-0.1674612	0.3856497	0	0	0	-2.21503
25.31024	-0.1674612	0.3856497	0	0	0	0
25.32681	-0.1674612	0.3856497	0	0	0	0
25.34337	-0.1674612	0.3856497	0	0	0	0
25.41593	-0.1662389	0.3844273	0.01684501	-0.01684522	0.1890171	-0.1890194
25.4325	-0.1271238	0.2609705	2.360717	-7.45101	26.29655	-83.40594
25.44907	-0.1246791	0.2524141	0.1475606	-0.5164651	-66.78934	209.2729
25.46563	-0.1210121	0.2401907	0.2213435	-0.7378091	2.226774	-6.680175
25.48233	-0.1173451	0.2291896	0.2195731	-0.6587188	-0.053217	2.377368
25.49946	-0.106344	0.1974086	0.6424306	-1.855911	12.50136	-35.39378
25.53408	-0.09412052	0.16685	0.3530912	-0.8827286	-5.591904	18.80816
25.55064	-0.05622784	0.09350935	2.287207	-4.426851	37.78631	-69.24061
25.56721	-0.05133847	0.0837306	0.2951231	-0.5902467	-60.1212	115.789
25.58378	-0.04278206	0.06906246	0.5164662	-0.8853705	6.680147	-8.906855
25.60035	-0.03422565	0.05683902	0.5164065	-0.7377234	-0.001800567	4.455741
25.61691	-0.03055861	0.05194964	0.2213426	-0.2951238	-8.904534	13.35691
25.63353	-0.02933627	0.04950495	0.07357754	-0.1471549	-4.453407	4.45955
25.65005	-0.02933627	0.0482826	0	-0.07400269	-2.22083	2.207991
25.68528	-0.02811392	0.0482826	0.03469173	0	0.6703446	1.429946
25.70185	-0.02811392	0.0482826	0	0	-0.6696535	0
25.7185	-0.02811392	0.0482826	0	0	0	0
25.73515	-0.02811392	0.0482826	0	0	0	0
25.75155	-0.02811392	0.0482826	0	0	0	0
25.76812	-0.02811392	0.0482826	0	0	0	0
25.78469	-0.02811392	0.0482826	0	0	0	0
25.80137	-0.02811392	0.0482826	0	0	0	0
25.83312	-0.02811392	0.0482826	0	0	0	0
25.84969	-0.02811392	0.0482826	0	0	0	0
25.86643	-0.02811392	0.0482826	0	0	0	0
25.88282	-0.02811392	0.0482826	0	0	0	0
25.89964	-0.02811392	0.0482826	0	0	0	0
25.91596	-0.02811392	0.0482826	0	0	0	0
25.93253	-0.02811392	0.0482826	0	0	0	0
25.9495	-0.02811392	0.0482826	0	0	0	0
25.96566	-0.02811392	0.0482826	0	0	0	0
26.00366	-0.02811392	0.0482826	0	0	0	0
26.02023	-0.02811392	0.0482826	0	0	0	0
26.0368	-0.02811392	0.0482826	0	0	0	0
26.05337	-0.02811392	0.0482826	0	0	0	0
26.06993	-0.02811392	0.0482826	0	0	0	0
26.0865	-0.02811392	0.0482826	0	0	0	0
26.10307	-0.02811392	0.0482826	0	0	0	0
26.11964	-0.02811392	0.0482826	0	0	0	0
26.13766	-0.02811392	0.0482826	0	0	0	0
26.15434	-0.02811392	0.0482826	0	0	0	0
26.1708	-0.02811392	0.0482826	0	0	0	0
26.18737	-0.02811392	0.0482826	0	0	0	0
26.20428	-0.02811392	0.0482826	0	0	0	0
26.2205	-0.02811392	0.0482826	0	0	0	0
26.23707	-0.02811392	0.0482826	0	0	0	0
26.25363	-0.02811392	0.0482826	0	0	0	0
26.2702	-0.02811392	0.0482826	0	0	0	0
26.30771	-0.02811392	0.0482826	0	0	0	0
26.32428	-0.02811392	0.0482826	0	0	0	0
26.34098	-0.02811392	0.0482826	0	0	0	0
26.35748	-0.02811392	0.0482826	0	0	0	0
26.3744	-0.02811392	0.0482826	0	0	0	0
26.39092	-0.02811392	0.0482826	0	0	0	0
26.40711	-0.02811392	0.0482826	0	0	0	0
26.42413	-0.02811392	0.0482826	0	0	0	0
26.45587	-0.02811392	0.0482826	0	0	0	0
26.47244	-0.02811392	0.0482826	0	0	0	0
26.48916	-0.02811392	0.0482826	0	0	0	0
26.50578	-0.02811392	0.0482826	0	0	0	0
26.52214	-0.02811392	0.0482826	0	0	0	0
26.53871	-0.02811392	0.0482826	0	0	0	0
26.5554	-0.02811392	0.0482826	0	0	0	0
26.57184	-0.02811392	0.0482826	0	0	0	0
26.60845	-0.02811392	0.0482826	0	0	0	0
26.62502	-0.02811392	0.0482826	0	0	0	0
26.64174	-0.02811392	0.0482826	0	0	0	0
26.65815	-0.02811392	0.0482826	0	0	0	0
26.67472	-0.02811392	0.0482826	0	0	0	0
26.69128	-0.02811392	0.0482826	0	0	0	0
26.70785	-0.02811392	0.0482826	0	0	0	0
26.72452	-0.02811392	0.0482826	0	0	0	0
26.74099	-0.02811392	0.0482826	0	0	0	0
26.80981	-0.02811392	0.0482826	0	0	0	0
26.82638	-0.02811392	0.0482826	0	0	0	0
26.84295	-0.02811392	0.0482826	0	0	0	0
26.8596	-0.02811392	0.0482826	0	0	0	0
26.87609	-0.02811392	0.0482826	0	0	0	0
26.89265	-0.02811392	0.0482826	0	0	0	0
26.92474	-0.02811392	0.0482826	0	0	0	0
26.94131	-0.02811392	0.0482826	0	0	0	0
26.95788	-0.02811392	0.0482826	0	0	0	0
26.97444	-0.02811392	0.0482826	0	0	0	0
26.99125	-0.02811392	0.0482826	0	0	0	0
27.00757	-0.02811392	0.0482826	0	0	0	0
27.0244	-0.02811392	0.0482826	0	0	0	0
27.0412	-0.02811392	0.0482826	0	0	0	0
27.05727	-0.02811392	0.0482826	0	0	0	0
27.09236	-0.02811392	0.0482826	0	0	0	0
27.10917	-0.02811392	0.0482826	0	0	0	0
27.1255	-0.02811392	0.0482826	0	0	0	0
27.1423	-0.02811392	0.0482826	0	0	0	0
27.15863	-0.02811392	0.0482826	0	0	0	0
27.1752	-0.02811392	0.0482826	0	0	0	0
27.19177	-0.02811392	0.0482826	0	0	0	0
27.20834	-0.02811392	0.0482826	0	0	0	0
27.24484	-0.02811392	0.0482826	0	0	0	0
27.26141	-0.02811392	0.0482826	0	0	0	0
27.27798	-0.02811392	0.0482826	0	0	0	0
27.29454	-0.02811392	0.0482826	0	0	0	0
27.31111	-0.02811392	0.0482826	0	0	0	0
27.32768	-0.02811392	0.0482826	0	0	0	0
27.3444	-0.02811392	0.0482826	0	0	0	0
27.3612	-0.02811392	0.0482826	0	0	0	0
27.40241	-0.02811392	0.0482826	0	0	0	0
27.41898	-0.02811392	0.0482826	0	0	0	0
27.43639	-0.02811392	0.0482826	0	0	0	0
27.45296	-0.02811392	0.0482826	0	0	0	0
27.46953	-0.02811392	0.0482826	0	0	0	0
27.48614	-0.02811392	0.0482826	0	0	0	0
27.50266	-0.02811392	0.04950495	0	0.07396852	0	2.232374
27.51941	-0.02811392	0.05317198	0	0.2189477	0	4.357172
27.56253	-0.02811392	0.05439433	0	0.02834792	0	-3.183675
27.57945	-0.02811392	0.05683902	0	0.1445006	0	1.934666
27.59566	-0.02811392	0.05683902	0	0	0	-4.361038
27.61228	-0.02811392	0.05683902	0	0	0	0
27.62968	-0.02811392	0.05683902	0	0	0	0
27.64576	-0.02811392	0.05683902	0	0	0	0
27.66194	-0.02811392	0.05683902	0	0	0	0
27.6785	-0.02811392	0.05683902	0	0	0	0
27.74206	-0.02811392	0.05683902	0	0	0	0
27.75863	-0.02811392	0.05683902	0	0	0	0
27.77519	-0.02811392	0.05683902	0	0	0	0
27.79176	-0.02811392	0.05683902	0	0	0	0
27.80833	-0.02811392	0.05683902	0	0	0	0
27.8249	-0.02811392	0.05683902	0	0	0	0
27.84151	-0.02811392	0.05683902	0	0	0	0
27.87809	-0.02811392	0.05683902	0	0	0	0
27.89497	-0.02811392	0.05683902	0	0	0	0
27.91123	-0.02811392	0.05683902	0	0	0	0
27.92779	-0.02811392	0.05683902	0	0	0	0
27.94436	-0.02811392	0.05683902	0	0	0	0
27.96099	-0.02811392	0.05683902	0	0	0	0
27.97749	-0.02811392	0.05683902	0	0	0	0
27.99461	-0.02811392	0.05683902	0	0	0	0
28.03636	-0.02811392	0.05683902	0	0	0	0
28.05293	-0.02811392	0.05683902	0	0	0	0
28.06949	-0.02811392	0.05683902	0	0	0	0
28.08659	-0.02811392	0.05683902	0	0	0	0
28.10262	-0.02811392	0.05683902	0	0	0	0
28.11929	-0.02811392	0.05683902	0	0	0	0
28.13576	-0.02811392	0.05683902	0	0	0	0
28.15316	-0.02811392	0.05683902	0	0	0	0
28.19911	-0.02811392	0.05683902	0	0	0	0
28.21597	-0.02077986	0.0507273	0.435121	-0.3626007	6.927476	-5.772895
28.23225	-0.01344579	0.04461557	0.4504643	-0.3753869	0.4630353	-0.3858654
28.24889	0.007334067	0.02750275	1.248668	-1.028315	24.24475	-19.83212
28.26538	0.02566923	0.01405696	1.111833	-0.8153442	-4.129929	6.427841
28.28195	0.05378316	-0.00550055	1.696569	-1.180222	17.68606	-11.03618
28.29852	0.07211833	-0.01772399	1.106713	-0.7378086	-17.79984	13.35053
28.31534	0.0880088	-0.0262804	0.9445786	-0.5086194	-4.855774	6.863997
28.35285	0.1014546	-0.03361448	0.358478	-0.1955334	-10.78763	5.762585
28.36942	0.1197898	-0.04339323	1.106713	-0.5902467	13.83693	-7.299334
28.38626	0.1197898	-0.04339323	0	0	-33.12419	17.66622
28.40255	0.1234568	-0.04461557	0.2251263	-0.07504231	6.794715	-2.264912
28.41912	0.1246791	-0.04583792	0.07377223	-0.07377223	-4.606321	0.03865367
28.43569	0.1271238	-0.04583791	0.1475445	2.248331E-07	2.226194	2.226201
28.45226	0.1283462	-0.04706026	0.07378162	-0.07378118	-2.226039	-2.226599
28.46882	0.1283462	-0.04706026	0	0	-2.226734	2.22672
28.5027	0.1283462	-0.04706026	0	0	0	0
28.51927	0.1283462	-0.04706026	0	0	0	0
28.53584	0.1283462	-0.04706026	0	0	0	0
28.5524	0.1283462	-0.04706026	0	0	0	0
28.6157	0.1283462	-0.04706026	0	0	0	0
28.65797	0.1295685	-0.01161227	0.02892095	0.8387091	0.2739509	7.94459
28.67454	0.1210121	0.06661777	-0.5164065	4.721431	-9.268906	65.99445
28.6911	0.1210121	0.06661777	0	0	15.58428	-142.4849
28.70767	0.1185674	0.09839873	-0.1475619	1.918302	-4.453427	57.89448
28.72424	0.1161227	0.1326244	-0.1475784	2.066102	-0.0004992157	4.460851
28.74623	0.113678	0.163183	-0.1111645	1.38955	0.9444172	-17.54676
28.7628	0.110011	0.2255226	-0.2213162	3.762392	-2.856569	61.53496
28.77959	0.110011	0.2255226	0	0	6.633515	-112.7702
28.80667	0.1087887	0.2450801	-0.04514739	0.7223494	-1.029141	16.46605
28.82329	0.1087887	0.2841951	0	2.353672	1.033274	37.33556
28.83981	0.1087887	0.2927515	4.51016E-07	0.5179576	1.361012E-05	-55.3956
28.85637	0.1075663	0.3061973	-0.07378072	0.811588	-2.229929	8.874554
28.87294	0.1075663	0.3184207	0	0.737894	2.226835	-2.224217
28.88951	0.1051216	0.3281995	-0.1475624	0.5902458	-4.453697	-4.456288
28.90607	0.1026769	0.3379782	-0.147578	0.5903156	-0.0004717813	0.0021066
28.92264	0.1002323	0.3453123	-0.1475449	0.4426352	0.0009983738	-4.457004
28.93929	0.09778755	0.3502017	-0.1468523	0.2937028	0.02085217	-4.483691
28.96535	0.09656522	0.3526464	-0.04690101	0.09380375	2.340266	-4.68045
28.98192	0.09534287	0.3538687	-0.07374676	0.07374497	-0.6296369	-0.4704562
28.99849	0.09534287	0.3563134	-4.498733E-07	0.1476124	2.22554	2.229196
29.01505	0.09534287	0.3563134	0	0	1.357955E-05	-4.455722
29.03197	0.09534287	0.3599804	0	0.2167018	0	6.47079
29.04819	0.09534287	0.3636475	4.595588E-07	0.2261875	1.386951E-05	0.2862796
29.06476	0.09534287	0.3648698	0	0.07377223	-1.40188E-05	-4.649415
29.08132	0.09534287	0.3660922	0	0.07378922	0	0.0005126785
29.09789	0.09534287	0.3660922	0	0	0	-2.226963
29.13173	0.09534287	0.3660922	0	0	0	0
29.14831	0.09534287	0.3660922	0	0	0	0
29.16487	0.09534287	0.3660922	0	0	0	0
29.18144	0.09534287	0.3660922	0	0	0	0
29.19801	0.09534287	0.3660922	0	0	0	0
29.21457	0.09534287	0.3660922	0	0	0	0
29.23125	0.09534287	0.3660922	0	0	0	0
29.24771	0.09534287	0.3660922	0	0	0	0
29.26452	0.09534287	0.3660922	0	0	0	0
29.29518	0.09534287	0.3660922	0	0	0	0
29.31175	0.09534287	0.3660922	0	0	0	0
29.32832	0.09534287	0.3660922	0	0	0	0
29.3452	0.09534287	0.3660922	0	0	0	0
29.36145	0.09534287	0.3660922	0	0	0	0
29.37822	0.09534287	0.3660922	0	0	0	0
29.39459	0.09534287	0.3660922	0	0	0	0
29.41115	0.09534287	0.3660922	0	0	0	0
29.42999	0.09534287	0.3660922	0	0	0	0
29.44656	0.09534287	0.3660922	0	0	0	0
29.46327	0.09534287	0.3660922	0	0	0	0
29.47969	0.09534287	0.3660922	0	0	0	0
29.49677	0.09534287	0.3660922	0	0	0	0
29.51285	0.09534287	0.3660922	0	0	0	0
29.5294	0.09534287	0.3660922	0	0	0	0
29.54596	0.09534287	0.3660922	0	0	0	0
29.56253	0.09534287	0.3660922	0	0	0	0
29.57909	0.09534287	0.3660922	0	0	0	0
29.628	0.09778756	0.3660922	0.04998123	6.093043E-07	0.7633359	9.305571E-06
29.64489	0.09778756	0.3673145	0	0.07238719	-0.7596185	1.100137
29.66114	0.09778756	0.3673145	0	0	0	-2.184524
29.67823	0.09778756	0.3673145	0	0	0	0
29.69427	0.09778756	0.3673145	0	0	0	0
29.71085	0.09412052	0.3489794	-0.2212917	-1.106458	-6.785225	-33.92611
29.72741	0.08923115	0.3196431	-0.2951913	-1.771147	-2.230296	-20.06036
29.78803	0.08556411	0.2927515	-0.06049279	-0.4436144	3.040815	17.19986
29.8046	0.0770077	0.2157438	-0.516407	-4.647659	-5.906505	-54.46465
29.82117	0.07578535	0.2071874	-0.07378072	-0.516466	13.35772	124.6725
29.83773	0.07089598	0.1851852	-0.2951229	-1.328055	-6.68012	-24.4938
29.85469	0.06845129	0.163183	-0.1441596	-1.297435	4.502945	0.9133385
29.87091	0.06356192	0.1399585	-0.3013686	-1.431501	-4.737761	-4.040301
29.88834	0.05989488	0.1179562	-0.2104635	-1.26278	2.701688	5.014349
29.91635	0.0550055	0.09962107	-0.1745619	-0.6546074	0.7902091	13.38613
29.93292	0.0440044	0.06295075	-0.6638748	-2.212916	-10.97595	-34.95497
29.9497	0.04278206	0.05806136	-0.07285827	-0.2914331	17.72265	57.61899
29.96605	0.04033737	0.04706026	-0.1494718	-0.6726232	-2.312334	-11.505
29.98262	0.03911502	0.04094854	-0.07377245	-0.3688618	2.299169	9.225956
29.99928	0.03667033	0.02994744	-0.1467003	-0.6601514	-2.194399	-8.764901
30.01575	0.03544799	0.02261337	-0.07424251	-0.4454547	2.187159	6.480679
30.03232	0.03422565	0.01772399	-0.07376374	-0.2950555	0.01449259	4.552685
30.04888	0.03422565	0.01405696	0	-0.2213935	2.226194	2.223124
30.08726	0.03422565	0.01038993	0	-0.09556051	0	2.290481
30.10383	0.0330033	0.00794524	-0.07377245	-0.1475447	-1.342707	-0.9461458
30.12039	0.0330033	0.00794524	0	0	2.226329	4.452651
30.13728	0.0330033	0.00794524	0	0	0	0
30.15353	0.0330033	0.00794524	0	0	0	0
30.1701	0.0330033	0.00794524	0	0	0	0
30.18671	0.0330033	0.00794524	0	0	0	0
30.2033	0.0330033	0.00794524	0	0	0	0
30.24131	0.0330033	0.00794524	0	0	0	0
30.25817	0.0330033	0.00794524	0	0	0	0
30.27488	0.0330033	0.00794524	0	0	0	0
30.29101	0.0330033	0.00794524	0	0	0	0
30.30793	0.0330033	0.00794524	0	0	0	0
30.32415	0.0330033	0.00794524	0	0	0	0
30.34072	0.0330033	0.00794524	0	0	0	0
30.35797	0.0330033	0.00794524	0	0	0	0
30.37385	0.0330033	0.00794524	0	0	0	0
30.41757	0.0330033	0.00794524	0	0	0	0
30.43413	0.0330033	0.00794524	0	0	0	0
30.4507	0.0330033	0.00794524	0	0	0	0
30.46727	0.0330033	0.00794524	0	0	0	0
30.48384	0.0330033	0.00794524	0	0	0	0
30.50041	0.0330033	0.00794524	0	0	0	0
30.51697	0.0330033	0.00794524	0	0	0	0
30.53354	0.0330033	0.00794524	0	0	0	0
30.57092	0.0330033	0.00794524	0	0	0	0
30.58749	0.0330033	0.00794524	0	0	0	0
30.60457	0.0330033	0.00794524	0	0	0	0
30.62062	0.0330033	0.00794524	0	0	0	0
30.6372	0.0330033	0.00794524	0	0	0	0
30.65376	0.0330033	0.00794524	0	0	0	0
30.67066	0.0330033	0.00794524	0	0	0	0
30.68689	0.0330033	0.00794524	0	0	0	0
30.73314	0.0330033	0.00794524	0	0	0	0
30.74971	0.0330033	0.00794524	0	0	0	0
30.76628	0.0330033	0.00794524	0	0	0	0
30.78285	0.0330033	0.00794524	0	0	0	0
30.79942	0.0330033	0.00794524	0	0	0	0
30.81638	0.0330033	0.00794524	0	0	0	0
30.83255	0.0330033	0.00794524	0	0	0	0
30.84912	0.0330033	0.00794524	0	0	0	0
30.88792	0.0330033	0.00794524	0	0	0	0
30.90495	0.0330033	0.00794524	0	0	0	0
30.92105	0.0330033	0.00794524	0	0	0	0
30.93762	0.0330033	0.00794524	0	0	0	0
30.95454	0.0330033	0.00794524	0	0	0	0
30.97075	0.0330033	0.00794524	0	0	0	0
30.98732	0.0330033	0.00794524	0	0	0	0
31.00389	0.0330033	0.00794524	0	0	0	0
31.03286	0.0330033	0.00794524	0	0	0	0
31.04966	0.0330033	0.00794524	0	0	0	0
31.06599	0.0330033	0.00794524	0	0	0	0
31.08256	0.0330033	0.00794524	0	0	0	0
31.09929	0.0330033	0.00794524	0	0	0	0
31.1157	0.0330033	0.00794524	0	0	0	0
31.13227	0.0330033	0.00794524	0	0	0	0
31.14885	0.0330033	0.00794524	0	0	0	0
31.1654	0.0330033	0.00794524	0	0	0	0
31.20074	0.0330033	0.00794524	0	0	0	0
31.2173	0.0330033	0.00794524	0	0	0	0
31.2339	0.0330033	0.00794524	0	0	0	0
31.25051	0.0330033	0.00794524	0	0	0	0
31.26701	0.0330033	0.00794524	0	0	0	0
31.28367	0.0330033	0.00794524	0	0	0	0
31.30045	0.0330033	0.00794524	0	0	0	0
31.3239	0.0330033	0.00794524	0	0	0	0
31.34895	0.0330033	0.00794524	0	0	0	0
31.36552	0.0330033	0.00794524	0	0	0	0
31.3827	0.0330033	0.00794524	0	0	0	0
31.39882	0.0330033	0.00794524	0	0	0	0
31.41523	0.0330033	0.00794524	0	0	0	0
31.43179	0.0330033	0.00794524	0	0	0	0
31.44836	0.0330033	0.00794524	0	0	0	0
31.46494	0.0330033	0.00794524	0	0	0	0
31.4815	0.0330033	0.00794524	0	0	0	0
31.49807	0.0330033	0.00794524	0	0	0	0
31.53152	0.0330033	0.00794524	0	0	0	0
31.54809	0.0330033	0.00794524	0	0	0	0
31.56466	0.0330033	0.00794524	0	0	0	0
31.58122	0.0330033	0.00794524	0	0	0	0
31.59779	0.0330033	0.00794524	0	0	0	0
31.61528	0.0330033	0.00794524	0	0	0	0
31.63128	0.0330033	0.00794524	0	0	0	0
31.64752	0.0330033	0.00794524	0	0	0	0
31.68864	0.0330033	0.00794524	0	0	0	0
31.70521	0.0330033	0.00794524	0	0	0	0
31.72178	0.0330033	0.00794524	0	0	0	0
31.73834	0.0330033	0.00794524	0	0	0	0
31.75491	0.0330033	0.01038993	2.248331E-07	0.1475447	6.785086E-06	4.452653
31.79343	0.0330033	0.01650165	-9.671329E-08	0.1586681	-5.836954E-06	0.2019197
31.82174	0.03422565	0.01894634	0.0431789	0.08635775	0.6461236	-1.08204
31.83831	0.03422565	0.02139103	0	0.1475447	-0.9621395	1.363406
31.85504	0.03422565	0.02139103	0	0	0	-4.430464
31.87144	0.03422565	0.02139103	0	0	0	0
31.88816	0.03422565	0.02139103	0	0	0	0
31.90458	0.03422565	0.02139103	0	0	0	0
31.92121	0.03422565	0.02139103	0	0	0	0
31.93771	0.03422565	0.02139103	0	0	0	0
31.95428	0.03422565	0.02139103	0	0	0	0
31.97084	0.03422565	0.02139103	0	0	0	0
32.00074	0.03422565	0.02139103	0	0	0	0
32.01731	0.03422565	0.02261337	0	0.07376385	0	1.587452
32.03387	0.03422565	0.02261337	0	0	0	-2.225941
32.05044	0.03422565	0.02261337	0	0	0	0
32.06701	0.03422565	0.02261337	0	0	0	0
32.08358	0.03422565	0.02261337	0	0	0	0
32.10014	0.03422565	0.02261337	0	0	0	0
32.11671	0.03422565	0.02261337	0	0	0	0
32.13334	0.03422565	0.02261337	0	0	0	0
32.15141	0.03422565	0.02261337	0	0	0	0
32.16806	0.03422565	0.02261337	0	0	0	0
32.18454	0.03422565	0.02261337	0	0	0	0
32.20111	0.03422565	0.02261337	0	0	0	0
32.21768	0.03422565	0.02261337	0	0	0	0
32.23425	0.03422565	0.02261337	0	0	0	0
32.25111	0.03422565	0.02261337	0	0	0	0
32.26738	0.03422565	0.02261337	0	0	0	0
32.28395	0.03422565	0.02261337	0	0	0	0
32.33214	0.03422565	0.02261337	0	0	0	0
32.34871	0.03422565	0.02261337	0	0	0	0
32.36531	0.03422565	0.02261337	0	0	0	0
32.38184	0.03422565	0.02261337	0	0	0	0
32.39852	0.03422565	0.02261337	0	0	0	0
32.41497	0.03422565	0.02261337	0	0	0	0
32.43154	0.03544799	0.02383572	0.07378095	0.07378095	2.234431	2.234431
32.48825	0.03544799	0.02505806	-6.568659E-08	0.02155308	-1.006832	-0.7127132
32.50482	0.03544799	0.02628041	2.24859E-07	0.07378095	3.96485E-06	0.7127132
32.52139	0.03544799	0.02628041	0	0	-6.786257E-06	-2.226713
32.53796	0.03544799	0.02628041	0	0	0	0
32.55453	0.03544799	0.02628041	0	0	0	0
32.57109	0.03544799	0.02628041	0	0	0	0
32.58826	0.03544799	0.02628041	0	0	0	0
32.61909	0.03544799	0.02628041	0	0	0	0
32.63567	0.03544799	0.02628041	0	0	0	0
32.65223	0.03544799	0.02628041	0	0	0	0
32.6688	0.03544799	0.02628041	0	0	0	0
32.68584	0.03544799	0.02628041	0	0	0	0
32.70193	0.03544799	0.02628041	0	0	0	0
32.7185	0.03544799	0.02628041	0	0	0	0
32.73507	0.03544799	0.02628041	0	0	0	0
32.75164	0.03544799	0.02628041	0	0	0	0
32.77808	0.03544799	0.02628041	0	0	0	0
32.79465	0.03544799	0.02628041	0	0	0	0
32.8116	0.03544799	0.02628041	0	0	0	0
32.82778	0.03544799	0.02628041	0	0	0	0
32.84435	0.03544799	0.02628041	0	0	0	0
32.8611	0.03544799	0.02628041	0	0	0	0
32.87749	0.03544799	0.02628041	0	0	0	0
32.89405	0.03544799	0.02628041	0	0	0	0
32.91072	0.03544799	0.02628041	0	0	0	0
32.9438	0.03544799	0.02628041	0	0	0	0
32.96073	0.03544799	0.02628041	0	0	0	0
32.97693	0.03544799	0.02628041	0	0	0	0
32.9935	0.03544799	0.02628041	0	0	0	0
33.01007	0.03544799	0.02628041	0	0	0	0
33.02666	0.03544799	0.02628041	0	0	0	0
33.04346	0.03544799	0.02628041	0	0	0	0
33.05977	0.03544799	0.02628041	0	0	0	0
33.10051	0.03544799	0.02628041	0	0	0	0
33.11708	0.03544799	0.02628041	0	0	0	0
33.13373	0.03544799	0.02628041	0	0	0	0
33.1503	0.03544799	0.02628041	0	0	0	0
33.16732	0.03544799	0.02628041	0	0	0	0
33.18335	0.03544799	0.02628041	0	0	0	0
33.20978	0.03544799	0.02628041	0	0	0	0
33.23732	0.03544799	0.02628041	0	0	0	0
33.25388	0.03544799	0.02628041	0	0	0	0
33.27045	0.03544799	0.02628041	0	0	0	0
33.28768	0.03544799	0.02628041	0	0	0	0
33.30359	0.03544799	0.02628041	0	0	0	0
33.3204	0.03544799	0.02628041	0	0	0	0
33.33672	0.03544799	0.02628041	0	0	0	0
33.35335	0.03544799	0.02628041	0	0	0	0
33.36985	0.03544799	0.02628041	0	0	0	0
33.38642	0.03544799	0.02628041	0	0	0	0
33.4213	0.03544799	0.02628041	0	0	0	0
33.43787	0.03544799	0.02628041	0	0	0	0
33.45486	0.03667033	0.02505806	0.07192586	-0.07192607	2.142849	-2.142856
33.471	0.03789268	0.02139103	0.07573403	-0.2272017	0.1149308	-4.686229
33.48758	0.04155971	0.01772399	0.2212915	-0.2212917	4.449797	0.1806747
33.50454	0.0440044	0.01527931	0.1440785	-0.1440783	-2.302196	2.302211
33.52071	0.04644909	0.01283462	0.151182	-0.151182	0.2143572	-0.2143676
33.53739	0.04644909	0.01283462	0	0	-4.602955	4.602957
33.57356	0.04644909	0.01283462	0	0	0	0
33.59043	0.04644909	0.01283462	0	0	0	0
33.6067	0.04644909	0.01283462	0	0	0	0
33.62326	0.04644909	0.01283462	0	0	0	0
33.64057	0.04644909	0.01283462	0	0	0	0
33.6567	0.04644909	0.01283462	0	0	0	0
33.67329	0.04644909	0.01283462	0	0	0	0
33.68966	0.04644909	0.01283462	0	0	0	0
33.72327	0.04644909	0.01283462	0	0	0	0
33.73984	0.04767144	0.01283462	0.07378095	0	1.470145	0
33.75641	0.05011613	0.01161227	0.1475617	-0.07378089	2.226707	-2.226712
33.77297	0.05745019	0.009167584	0.442787	-0.1475957	8.910944	-2.227992
33.78954	0.06845129	0.004278206	0.6640279	-0.2951234	6.677832	-4.452908
33.80611	0.08189708	-0.0006111722	0.8115893	-0.2951234	4.453413	0
33.82307	0.09778756	-0.00550055	0.9365094	-0.2881567	3.725065	0.2077435
33.83924	0.1197898	-0.01038993	1.360638	-0.302364	12.79877	-0.4287261
33.89997	0.1332355	-0.01405696	0.2214166	-0.06038638	-14.81497	3.146789
33.91654	0.1479037	-0.02016868	0.8851667	-0.3688194	8.586987	-3.990222
33.93311	0.1479037	-0.02016868	0	0	-26.71131	11.12971
33.94968	0.1479037	-0.02016868	0	0	0	0
33.96624	0.1479037	-0.02016868	0	0	0	0
33.98281	0.1479037	-0.02016868	0	0	0	0
33.99938	0.1479037	-0.02016868	0	0	0	0
34.02676	0.1479037	-0.02016868	0	0	0	0
34.04333	0.149126	-0.01894634	0.07378072	0.07378095	1.67863	1.678635
34.0599	0.149126	-0.01894634	0	0	-2.226707	-2.226713
34.07646	0.1515707	0.001833517	0.1475963	1.254563	4.454979	37.86716
34.09303	0.1515707	0.02016868	0	1.106713	-4.454979	-4.462651
34.1096	0.149126	0.04461557	-0.1475614	1.475617	-4.453413	11.13355
34.12616	0.141792	0.0727295	-0.4426852	1.69696	-8.906855	6.680135
34.14273	0.1307909	0.1069551	-0.6640283	2.065864	-6.680148	11.13354
34.1593	0.1185674	0.1424031	-0.7378082	2.139645	-2.226679	2.226708
34.18766	0.110011	0.1705171	-0.3016828	0.9912439	9.706882	-25.56006
34.20423	0.09778755	0.2353013	-0.7376397	3.909485	-9.702307	64.94603
34.22079	0.09778756	0.2463024	4.498215E-07	0.6641812	22.26202	-97.94345
34.23736	0.09778756	0.2573035	0	0.6640292	-1.35772E-05	-0.004587651
34.25393	0.0990099	0.2903068	0.07378072	1.992083	2.226707	40.08075
34.2705	0.1026769	0.3110867	0.2213431	1.254274	4.453441	-22.26712
34.28706	0.1075663	0.3269772	0.2951229	0.9591512	2.226679	-8.906827
34.30392	0.113678	0.3404229	0.3624779	0.7974495	2.014916	-4.837286
34.32019	0.1197898	0.3550911	0.3756507	0.9015625	0.3976027	3.1425
34.35311	0.1259015	0.3673145	0.1856924	0.3713844	-3.862284	-10.77973
34.36967	0.145459	0.4003178	1.181037	1.993001	20.11903	32.77794
34.38623	0.145459	0.4003178	0	0	-35.65199	-60.16274
34.4028	0.149126	0.4076519	0.2213422	0.4426844	6.68012	13.36024
34.41938	0.1527931	0.4125413	0.2212412	0.2949888	-0.003047037	-4.456433
34.43595	0.1540154	0.4162083	0.07376374	0.2212912	-4.449341	-2.223431
34.45251	0.1552377	0.4174307	0.07379772	0.07379951	0.001025357	-4.451308
34.46908	0.1552377	0.4174307	0	0	-2.227476	-2.22753
34.51394	0.1552377	0.4174307	0	0	0	0
34.53051	0.113678	0.3636475	-2.507972	-3.245612	-40.82778	-52.83597
34.54707	0.113678	0.3636475	0	0	75.69073	97.95275
34.5836	0.06845129	0.3110867	-1.238216	-1.439009	-23.32334	-27.10552
34.60016	-0.07578535	0.16685	-8.706141	-8.706141	-140.6575	-136.8756
34.61673	-0.1112333	0.1350691	-2.139153	-1.91786	198.1693	204.8471
34.63343	-0.1466813	0.1081775	-2.123509	-1.610939	0.4702838	9.226777
34.67785	-0.1601271	0.09962108	-0.3026822	-0.1926157	29.79332	23.20735
34.69442	-0.2151326	0.07028481	-3.32014	-1.770741	-49.47513	-25.8754
34.71098	-0.2224667	0.06784012	-0.4426844	-0.1475619	86.84178	48.98763
34.72755	-0.2359125	0.06539543	-0.8115889	-0.1475619	-11.13356	0
34.74412	-0.2481359	0.0617284	-0.7378091	-0.2213426	2.226679	-2.226707
34.76131	-0.259137	0.05928371	-0.6398658	-0.142192	2.901158	2.344504
34.77725	-0.2652487	0.05928371	-0.3833808	-2.336833E-07	7.74073	4.291356
34.79423	-0.2701381	0.05806137	-0.2879637	-0.0719905	2.898381	-2.186769
34.81277	-0.2725828	0.05683902	-0.1318369	-0.06591847	4.395157	0.1709349
34.82934	-0.2786945	0.05561667	-0.3689036	-0.07378118	-6.752022	-0.223942
34.84591	-0.2799169	0.05439433	-0.07378072	-0.07378072	8.906827	1.37164E-05
34.86248	-0.2811392	0.05439433	-0.07378072	-2.24859E-07	0	2.2267
34.87904	-0.2848063	0.05439433	-0.221344	2.24859E-07	-4.453468	1.357251E-05
34.89561	-0.2860286	0.05439433	-0.07378072	2.24859E-07	4.453468	0
34.91217	-0.2860286	0.05439433	0	0	2.226963	-6.787038E-06
34.92895	-0.2860286	0.05439433	0	0	0	0
34.94531	-0.2860286	0.05439433	0	0	0	0
34.97982	-0.2860286	0.05439433	0	0	0	0
34.99639	-0.2860286	0.05439433	0	0	0	0
35.01296	-0.2860286	0.05439433	0	0	0	0
35.02953	-0.2860286	0.05439433	0	0	0	0
35.0461	-0.2860286	0.05439433	0	0	0	0
35.06308	-0.2860286	0.05439433	0	0	0	0
35.07923	-0.287251	0.05439433	-0.07566226	-2.305933E-07	-2.283492	-6.959319E-06
35.0958	-0.290918	0.05317198	-0.2213404	-0.07378095	-4.451928	-2.254741
35.13115	-0.2933627	0.05317198	-0.06915584	0	2.931246	1.421105
35.14789	-0.3019191	0.05317198	-0.5110521	-2.225023E-07	-8.482752	-4.271209E-06
35.16429	-0.3019191	0.05317198	0	0	15.42181	6.714359E-06
35.18085	-0.3031414	0.05317199	-0.07378253	4.497179E-07	-2.238357	1.36432E-05
35.19743	-0.3031414	0.05317199	0	0	2.226505	-1.357095E-05
35.21399	-0.3031414	0.05317199	0	0	0	0
35.23097	-0.3031414	0.05317199	0	0	0	0
35.24713	-0.3031414	0.05317199	0	0	0	0
35.26369	-0.3031414	0.05317199	0	0	0	0
35.31081	-0.3031414	0.05317199	0	0	0	0
35.32751	-0.3031414	0.05317199	0	0	0	0
35.34404	-0.3031414	0.05317199	0	0	0	0
35.36051	-0.3031414	0.05317199	0	0	0	0
35.37708	-0.3031414	0.05317199	0	0	0	0
35.43531	-0.3031414	0.05317199	0	0	0	0
35.50805	-0.3031414	0.05317199	0	0	0	0
35.52461	-0.3031414	0.05317199	0	0	0	0
35.54118	-0.3031414	0.05317199	0	0	0	0
35.55776	-0.3031414	0.05317199	0	0	0	0
35.57431	-0.3031414	0.05317199	0	0	0	0
35.59088	-0.3031414	0.05317199	0	0	0	0
35.60745	-0.3031414	0.05317199	0	0	0	0
35.65283	-0.2994744	0.05317199	0.08081455	0	1.304578	0
35.6694	-0.2065762	0.03728151	5.607347	-0.9591514	89.21956	-15.48441
35.68596	-0.2065762	0.03728151	0	0	-169.2301	28.94725
35.70253	-0.1650165	0.02872509	2.509127	-0.5165851	75.73432	-15.59236
35.71909	-0.1185674	0.01650165	2.803673	-0.7378085	8.890429	-6.677305
35.73566	-0.07334066	0.006722894	2.729892	-0.5902469	-2.226694	4.453418
35.75223	-0.02933627	-0.0006111723	2.656111	-0.4426851	-2.226737	4.453422
35.76879	0.007334067	-0.00794524	2.213936	-0.4427871	-13.3464	-0.003079124
35.78679	0.05011612	-0.01527931	2.377583	-0.4075857	4.735532	1.01864
35.80335	0.08311942	-0.01894634	1.992083	-0.2213426	-11.15414	5.388796
35.81992	0.09167584	-0.02016868	0.5163475	-0.07376385	-44.53267	4.453424
35.84695	0.1051216	-0.02016868	0.4975625	6.892733E-08	-0.4309057	1.692052
35.86381	0.1246791	-0.02016869	1.159666	-2.208918E-07	15.08618	-6.603593E-06
35.88008	0.1271238	-0.02016868	0.1502606	1.144856E-07	-30.46393	1.012171E-05
35.89733	0.1307909	-0.01894634	0.2126275	0.07087595	1.860816	2.114691
35.91322	0.1320132	-0.01894634	0.07693484	0	-4.095213	-2.13904
35.93055	0.1332356	-0.01894634	0.07050158	0	-0.1936211	0
35.9482	0.1332356	-0.01894634	0	0	-2.014998	0
35.96477	0.1344579	-0.017724	0.07377983	0.07378083	2.156181	2.15621
35.98137	0.1344579	-0.017724	0	0	-2.224375	-2.224405
35.99791	0.1356802	-0.017724	0.07391778	0	2.230586	0
36.01448	0.1369026	-0.01772399	0.07378072	1.124295E-07	-0.004140319	3.396256E-06
36.03104	0.1369026	-0.01650165	-8.994359E-07	0.07378083	-2.226734	2.226707
36.04761	0.1369026	-0.01650165	0	0	2.714503E-05	-2.22671
36.06418	0.1369026	-0.01650165	0	0	0	0
36.08075	0.1369026	-0.01650165	0	0	0	0
36.11089	0.1369026	-0.01650165	0	0	0	0
36.12768	0.1369026	-0.01650165	0	0	0	0
36.14403	0.1369026	-0.01650165	0	0	0	0
36.161	0.1369026	-0.01650165	0	0	0	0
36.17716	0.1369026	-0.01650165	0	0	0	0
36.19373	0.1369026	-0.01650165	0	0	0	0
36.2103	0.1369026	-0.01650165	0	0	0	0
36.22686	0.1369026	-0.01650165	0	0	0	0
36.2595	0.1369026	-0.01650165	0	0	0	0
36.27607	0.1369026	-0.01650165	0	0	0	0
36.29337	0.1369026	-0.01650165	0	0	0	0
36.3092	0.1369026	-0.01650165	0	0	0	0
36.32577	0.1369026	-0.01650165	0	0	0	0
36.34234	0.1369026	-0.01650165	0	0	0	0
36.35891	0.1369026	-0.01650165	0	0	0	0
36.37552	0.1369026	-0.01527931	8.969575E-07	0.07357748	2.703289E-05	2.217509
36.39204	0.1259015	-0.01161227	-0.6658682	0.2219559	-20.09597	4.47807
36.4423	0.113678	-0.004278206	-0.2432107	0.1459265	6.329094	-1.138504
36.45887	0.0904535	0.00550055	-1.401836	0.5902469	-17.33798	6.648929
36.47544	0.09045349	0.006722894	-4.496144E-07	0.07376382	42.30261	-15.5857
36.49201	0.08923114	0.006722895	-0.07378118	5.621474E-08	-2.22645	-2.225939
36.50861	0.0880088	0.006722894	-0.07362814	-2.804924E-08	0.004613823	-2.54046E-06
36.52514	0.0880088	0.006722894	0	0	2.222358	8.466254E-07
36.54171	0.0880088	0.006722894	0	0	0	0
36.55828	0.0880088	0.006722894	0	0	0	0
36.57629	0.0880088	0.006722894	0	0	0	0
36.59379	0.0880088	0.006722894	0	0	0	0
36.60943	0.0880088	0.006722894	0	0	0	0
36.62613	0.0880088	0.006722894	0	0	0	0
36.64256	0.0880088	0.006722894	0	0	0	0
36.65929	0.0880088	0.006722894	0	0	0	0
36.67638	0.0880088	0.006722894	0	0	0	0
36.69226	0.0880088	0.006722894	0	0	0	0
36.70883	0.0880088	0.006722894	0	0	0	0
36.74695	0.0880088	0.006722894	0	0	0	0
36.76352	0.0880088	0.006722894	0	0	0	0
36.78008	0.0880088	0.006722894	0	0	0	0
36.79665	0.0880088	0.006722894	0	0	0	0
36.81322	0.0880088	0.006722894	0	0	0	0
36.82978	0.0880088	0.006722894	0	0	0	0
36.84635	0.0880088	0.006722894	0	0	0	0
36.86292	0.0880088	0.006722894	0	0	0	0
36.90038	0.0880088	0.006722894	0	0	0	0
36.91695	0.0880088	0.006722894	0	0	0	0
36.93352	0.0880088	0.006722894	0	0	0	0
36.95008	0.0880088	0.006722894	0	0	0	0
36.96665	0.0880088	0.006722894	0	0	0	0
36.98322	0.0880088	0.006722894	0	0	0	0
36.99979	0.0880088	0.006722894	0	0	0	0
37.01664	0.0880088	0.006722894	0	0	0	0
37.03381	0.0880088	0.006722894	0	0	0	0
37.08302	0.0880088	0.006722894	0	0	0	0
37.09959	0.0880088	0.006722894	0	0	0	0
37.11629	0.0880088	0.006722894	0	0	0	0
37.13272	0.0880088	0.006722894	0	0	0	0
37.14936	0.0880088	0.006722894	0	0	0	0
37.16606	0.0880088	0.006722894	0	0	0	0
37.18242	0.0880088	0.006722894	0	0	0	0
37.2408	0.0880088	0.006722894	0	0	0	0
37.25783	0.0880088	0.006722894	0	0	0	0
37.27394	0.0880088	0.006722894	0	0	0	0
37.2905	0.0880088	0.006722894	0	0	0	0
37.30707	0.0880088	0.006722894	0	0	0	0
37.32364	0.0880088	0.006722894	0	0	0	0
37.3402	0.0880088	0.006722894	0	0	0	0
37.3776	0.0880088	0.006722894	0	0	0	0
37.39417	0.0880088	0.006722894	0	0	0	0
37.41073	0.0880088	0.006722894	0	0	0	0
37.4273	0.0880088	0.006722894	0	0	0	0
37.44387	0.0880088	0.006722894	0	0	0	0
37.46044	0.0880088	0.006722894	0	0	0	0
37.47743	0.0880088	0.006722894	0	0	0	0
37.49357	0.0880088	0.006722894	0	0	0	0
37.53011	0.0880088	0.006722894	0	0	0	0
37.54668	0.0880088	0.006722894	0	0	0	0
37.5635	0.0880088	0.006722894	0	0	0	0
37.57991	0.0880088	0.006722894	0	0	0	0
37.59689	0.0880088	0.006722894	0	0	0	0
37.61304	0.0880088	0.006722894	0	0	0	0
37.62952	0.0880088	0.006722894	0	0	0	0
37.64618	0.0880088	0.006722894	0	0	0	0
37.72023	0.0880088	0.006722894	0	0	0	0
37.7368	0.07211833	0.01161227	-0.9591508	0.2951234	-10.58409	3.256644
37.75337	0.06722895	0.01283462	-0.2951233	0.07378089	20.04039	-6.68013
37.76994	0.05989488	0.01405696	-0.4426855	0.07378083	-4.453434	-1.798872E-06
37.7865	0.05378316	0.01527931	-0.3689041	0.07378095	2.226727	3.372885E-06
37.80307	0.05011613	0.01650165	-0.2213426	0.07378078	4.453413	-4.946897E-06
37.89204	0.04889378	0.01650165	-0.01373946	0	1.967176	-0.6991212
37.9086	0.04889378	0.01650165	0	0	0.1301904	0
37.92517	0.04889378	0.01650165	0	0	0	0
37.94192	0.04889378	0.01650165	0	0	0	0
37.95831	0.04889378	0.01650165	0	0	0	0
37.97626	0.04889378	0.01650165	0	0	0	0
37.99283	0.04889378	0.01650165	0	0	0	0
38.00965	0.04889378	0.01650165	0	0	0	0
38.02597	0.04889378	0.01650165	0	0	0	0
38.04325	0.04889378	0.01650165	0	0	0	0
38.05914	0.04889378	0.01650165	0	0	0	0
38.07575	0.04889378	0.01650165	0	0	0	0
38.09223	0.04889378	0.01650165	0	0	0	0
38.10879	0.04889378	0.01650165	0	0	0	0
38.1277	0.04889378	0.01650165	0	0	0	0
38.14427	0.04889378	0.01650165	0	0	0	0
38.16084	0.04889378	0.01650165	0	0	0	0
38.17741	0.04889378	0.01650165	0	0	0	0
38.19397	0.04889378	0.01650165	0	0	0	0
38.21054	0.04889378	0.01650165	0	0	0	0
38.22711	0.04889378	0.01650165	0	0	0	0
38.24373	0.04889378	0.01650165	0	0	0	0
38.26024	0.04889378	0.01650165	0	0	0	0
38.27877	0.04889378	0.01650165	0	0	0	0
38.29533	0.04889378	0.01650165	0	0	0	0
38.3124	0.04889378	0.01650165	0	0	0	0
38.32847	0.04889378	0.01650165	0	0	0	0
38.34504	0.04889378	0.01650165	0	0	0	0
38.3616	0.04889378	0.01650165	0	0	0	0
38.37817	0.04889378	0.01650165	0	0	0	0
38.3951	0.04889378	0.01650165	0	0	0	0
38.4113	0.04889378	0.01650165	0	0	0	0
38.45993	0.04889378	0.01650165	0	0	0	0
38.47651	0.04889378	0.01650165	0	0	0	0
38.49329	0.04889378	0.01650165	0	0	0	0
38.50964	0.04889378	0.01650165	0	0	0	0
38.52621	0.04889378	0.01650165	0	0	0	0
38.54305	0.04889378	0.01650165	0	0	0	0
38.55934	0.04889378	0.01650165	0	0	0	0
38.57591	0.04889378	0.01650165	0	0	0	0
38.61187	0.04889378	0.01650165	0	0	0	0
38.62844	0.04889378	0.01650165	0	0	0	0
38.64501	0.04889378	0.01650165	0	0	0	0
38.66158	0.04889378	0.01650165	0	0	0	0
38.67814	0.04889378	0.01650165	0	0	0	0
38.69471	0.04889378	0.01650165	0	0	0	0
38.71135	0.04889378	0.01650165	0	0	0	0
38.72812	0.04889378	0.01650165	0	0	0	0
38.76362	0.04889378	0.01650165	0	0	0	0
38.78019	0.04889378	0.01650165	0	0	0	0
38.79676	0.04889378	0.01650165	0	0	0	0
38.81332	0.04889378	0.01650165	0	0	0	0
38.83006	0.04889378	0.01650165	0	0	0	0
38.84646	0.04889378	0.01650165	0	0	0	0
38.86303	0.04889378	0.01650165	0	0	0	0
38.8796	0.04889378	0.01650165	0	0	0	0
38.91471	0.04889378	0.01650165	0	0	0	0
38.93128	0.04889378	0.01650165	0	0	0	0
38.94785	0.05133847	0.02016868	0.1475619	0.2213426	4.452914	6.679365
38.96442	0.06478426	0.03483682	0.8115895	0.8853703	20.04039	20.04039
38.98098	0.08067474	0.04950495	0.9591512	0.8853703	4.45342	0
38.99775	0.09534287	0.06295075	0.8750942	0.8021699	-2.522036	-2.496336
39.01412	0.110011	0.07639654	0.8958905	0.8212336	0.6276336	0.575344
39.03069	0.1271238	0.0947317	1.032932	1.106713	4.160359	8.666664
39.06388	0.1356802	0.1032881	0.2577582	0.2577582	-15.57741	-17.06005
39.08045	0.1515707	0.1204009	0.9589304	1.032694	14.08923	15.57143
39.09702	0.1515707	0.1204009	0	0	-28.94058	-31.16677
39.11358	0.1613495	0.1362914	0.5902467	0.9591512	17.81573	28.95057
39.13015	0.1650165	0.1399584	0.2213422	0.2213422	-11.13356	-22.26712
39.14672	0.1699059	0.1497372	0.295055	0.5901108	2.224401	11.12818
39.16333	0.1760176	0.1607383	0.368057	0.6625029	2.20042	2.182033
39.17985	0.1821293	0.170517	0.3698412	0.5917446	0.05385363	-2.135735
39.19642	0.1882411	0.1839629	0.3688205	0.8114038	-0.03084209	6.636969
39.23555	0.1906857	0.194964	0.0624802	0.2811616	-5.499984	-9.519883
39.25212	0.1967975	0.2304119	0.3689036	2.139645	5.501853	33.36919
39.26868	0.1967975	0.237746	0	0.4426844	-11.13353	-51.21436
39.28525	0.1967975	0.2487471	8.994359E-07	0.6640283	2.714503E-05	6.680175
39.30182	0.1931304	0.2634152	-0.221344	0.8853687	-6.680202	6.680065
39.31873	0.1882411	0.2756387	-0.2890652	0.7226686	-2.022639	-4.859389
39.33495	0.1796846	0.2878621	-0.5275201	0.7535976	-7.196585	0.9334381
39.35152	0.1723506	0.3013079	-0.4426852	0.8115898	2.587429	1.768739
39.39067	0.1686835	0.3098643	-0.09365638	0.2185323	6.263834	-10.64328
39.40724	0.1540154	0.3257548	-0.8853705	0.9591512	-14.20847	13.29149
39.42381	0.1540154	0.3257548	0	0	26.72054	-28.94724
39.44037	0.145459	0.3306442	-0.5165849	0.2951891	-15.59236	8.90985
39.45694	0.1344579	0.3355336	-0.6640283	0.2951247	-4.450364	-0.001943005
39.4735	0.1197898	0.340423	-0.885574	0.2951927	-6.68703	0.00205095
39.49007	0.09045349	0.34409	-1.770741	0.2213422	-26.71745	-2.229069
39.50664	0.06722895	0.3453123	-1.401836	0.07378072	11.13356	-4.453413
39.55087	0.0330033	0.3453123	-0.773786	0	10.33	-1.213526
39.56799	-0.03422565	0.3453123	-3.925967	-1.740365E-06	-51.3756	-2.836523E-05
39.584	-0.03422565	0.3453123	0	0	118.4859	5.252433E-05
39.60057	-0.05500551	0.3453123	-1.254275	1.798872E-06	-38.50124	5.52182E-05
39.61714	-0.07578535	0.3465347	-1.253985	0.07376374	0.008734316	2.225884
39.63371	-0.0990099	0.347757	-1.402159	0.07379772	-4.471898	0.001025357
39.65056	-0.1320132	0.3502017	-1.958266	0.1450564	-16.64154	2.132426
39.66684	-0.1466813	0.351424	-0.9007177	0.07505966	31.91318	-2.112264
39.68491	-0.1589048	0.351424	-0.6767267	0	6.521314	-2.1853
39.70148	-0.1674612	0.351424	-0.516348	0	4.630721	0
39.71804	-0.1699059	0.351424	-0.1475614	0	11.12872	0
39.73461	-0.1723506	0.351424	-0.1475954	0	-0.001025925	0
39.75122	-0.1735729	0.351424	-0.07357832	0	2.231016	0
39.78107	-0.1796846	0.34409	-0.2047474	-0.2456969	-2.823086	-5.28801
39.79764	-0.184574	0.3343112	-0.2951238	-0.5902476	-1.947043	-7.422904
39.81421	-0.184574	0.3343112	0	0	8.906854	17.81371
39.83077	-0.184574	0.3343112	0	0	0	0
39.87652	-0.184574	0.3343112	0	0	0	0
39.89309	-0.184574	0.3343112	0	0	0	0
39.91058	-0.184574	0.3343112	0	0	0	0
39.92669	-0.1833517	0.3343112	0.0758593	1.84955E-06	2.257215	5.503388E-05
39.94279	-0.1833517	0.3355336	0	0.07592935	-2.355052	2.35717
39.95936	-0.1833517	0.3355336	0	0	0	-2.324469
39.97593	-0.1833517	0.3355336	0	0	0	0
40.04211	-0.1833517	0.3355336	0	0	0	0
40.05868	-0.1833517	0.3355336	0	0	0	0
40.07568	-0.1833517	0.3355336	0	0	0	0
40.09182	-0.1833517	0.3355336	0	0	0	0
40.10839	-0.1833517	0.3355336	0	0	0	0
40.12495	-0.1833517	0.3355336	0	0	0	0
40.14152	-0.1833517	0.3355336	0	0	0	0
40.17397	-0.1833517	0.3355336	0	0	0	0
40.19054	-0.1833517	0.3355336	0	0	0	0
40.20711	-0.1833517	0.3355336	0	0	0	0
40.22372	-0.1833517	0.3355336	0	0	0	0
40.24024	-0.1833517	0.3355336	0	0	0	0
40.25681	-0.1833517	0.3355336	0	0	0	0
40.27337	-0.1833517	0.3355336	0	0	0	0
40.28994	-0.1833517	0.3355336	0	0	0	0
40.30663	-0.1747953	0.3281995	0.5125721	-0.4393478	15.41091	-13.20936
40.33792	-0.1527931	0.308642	0.703126	-0.625	3.971106	-3.868957
40.35449	-0.01589048	0.2218555	8.263456	-5.238441	157.9703	-96.39614
40.37181	0.01222344	0.2084097	1.623325	-0.776374	-195.9552	131.679
40.38762	0.04155971	0.1912969	1.854879	-1.082012	6.988297	-9.224184
40.40441	0.09412052	0.1607383	3.130766	-1.820212	39.13258	-22.64124
40.42076	0.1283462	0.1436255	2.093827	-1.046914	-31.29488	23.33818
40.43806	0.1625718	0.1252903	1.978402	-1.059857	-3.430623	-0.3846903
40.45391	0.1747953	0.1179562	0.7708195	-0.4624932	-36.41974	18.01604
40.48492	0.1784623	0.1155116	0.1182693	-0.0788454	-13.92447	8.186483
40.50149	0.1796847	0.1142892	0.07376464	-0.07376329	-0.935426	0.106819
40.51806	0.1796847	0.1142892	0	0	-2.225965	2.225924
40.53559	0.1796847	0.1142892	0	0	0	0
40.5512	0.1796847	0.1142892	0	0	0	0
40.56779	0.1796847	0.1142892	0	0	0	0
40.58433	0.1796847	0.1142892	0	0	0	0
40.60126	0.1796847	0.1142892	0	0	0	0
40.61746	0.1796847	0.1142892	0	0	0	0
40.63567	0.1796847	0.1142892	0	0	0	0
40.65224	0.1796847	0.1142892	0	0	0	0
40.66881	0.1796847	0.1142892	0	0	0	0
40.68538	0.1796847	0.1142892	0	0	0	0
40.70194	0.1796847	0.1142892	0	0	0	0
40.71851	0.1796847	0.1118445	0	-0.1475968	0	-4.454992
40.73507	0.1796846	0.1106222	-8.994359E-07	-0.07378072	-2.714815E-05	2.228029
40.75164	0.1796847	0.1093998	8.994359E-07	-0.07378072	5.429006E-05	0
40.76871	0.1796846	0.1081775	-8.731001E-07	-0.07162084	-5.270043E-05	0.06421699
40.80472	0.1796846	0.1069551	0	-0.03394023	1.644829E-05	0.7098632
40.82129	0.1735729	0.09839873	-0.3689045	-0.516466	-7.015823	-9.17667
40.89548	0.1735729	0.09839873	0	0	4.064648	5.690503
40.9121	0.1430143	0.0727295	-1.839017	-1.544774	-20.25151	-17.01127
40.92914	0.1381249	0.06784011	-0.2869306	-0.2869314	46.11472	37.37231
40.97532	0.1332356	0.06539543	-0.1058834	-0.05294171	2.863892	3.701364
40.99269	0.1246791	0.05928371	-0.4923208	-0.3516575	-6.080202	-4.69999
41.00872	0.1234568	0.05806136	-0.0762574	-0.0762567	12.45359	8.243281
41.02502	0.1222345	0.05806137	-0.0750236	2.286496E-07	0.03817226	2.359294
41.04159	0.1222345	0.05806137	0	0	2.282877	-6.95753E-06
41.06949	0.1210121	0.05683902	-0.04381099	-0.04381073	-0.9851423	-0.9851363
41.08627	0.1185674	0.05561668	-0.1456494	-0.07282471	-2.279011	-0.649295
41.10272	0.1185674	0.05561668	0	0	4.383093	2.191546
41.1249	0.1173451	0.05439433	-0.05511346	-0.05511363	-1.42693	-1.426934
41.14147	0.1173451	0.05439433	0	0	1.422294	1.422298
41.15833	0.1173451	0.05439433	0	0	0	0
41.17463	0.1173451	0.05439433	0	0	0	0
41.19117	0.1173451	0.05439433	0	0	0	0
41.20781	0.1149004	0.05317198	-0.1469874	-0.07349327	-4.430479	-2.215226
41.2243	0.1149004	0.05194964	4.515896E-07	-0.07408801	4.436614	-0.01795143
41.24087	0.113678	0.05194964	-0.07378072	2.24859E-07	-2.231344	2.240631
41.25744	0.113678	0.05194964	0	0	2.226707	-6.786257E-06
41.2984	0.1124557	0.0507273	-0.02983795	-0.02983803	-0.5186208	-0.5186223
41.31593	0.1051216	0.04706027	-0.4185896	-0.2092946	-6.646811	-3.068318
41.33181	0.1038993	0.04583792	-0.07695284	-0.07695284	10.22702	3.961699
41.34813	0.09778756	0.04583792	-0.3745968	2.283289E-07	-9.243641	2.389858
41.36471	0.08800881	0.04339323	-0.5897036	-0.1474261	-6.538608	-4.481323
41.38174	0.06722894	0.04217089	-1.220004	-0.07176477	-18.7505	2.250813
41.39781	0.0550055	0.03972619	-0.7607554	-0.1521513	13.87452	-2.428587
41.41438	0.04889378	0.0397262	-0.3689041	2.24859E-07	12.00719	4.662258
41.45422	0.04522675	0.0397262	-0.0920337	0	4.908027	-3.986031E-06
41.47079	0.0440044	0.03972619	-0.07376397	-2.248072E-07	0.3238421	-3.984844E-06
41.48742	0.0440044	0.03972619	0	0	2.221852	6.771442E-06
41.50393	0.0440044	0.03972619	0	0	0	0
41.52061	0.0440044	0.03972619	0	0	0	0
41.53706	0.0440044	0.03972619	0	0	0	0
41.55362	0.0440044	0.03972619	0	0	0	0
41.57019	0.0440044	0.03972619	0	0	0	0
41.58676	0.0440044	0.03972619	0	0	0	0
41.60496	0.0440044	0.03972619	0	0	0	0
41.62181	0.0440044	0.03972619	0	0	0	0
41.63809	0.0440044	0.03972619	0	0	0	0
41.65466	0.0440044	0.03972619	0	0	0	0
41.67137	0.0440044	0.03972619	0	0	0	0
41.68779	0.0440044	0.03972619	0	0	0	0
41.70436	0.0440044	0.03972619	0	0	0	0
41.73164	0.0440044	0.03972619	0	0	0	0
41.76564	0.0440044	0.03972619	0	0	0	0
41.78221	0.0440044	0.03972619	0	0	0	0
41.79877	0.0440044	0.03972619	0	0	0	0
41.81534	0.0440044	0.03972619	0	0	0	0
41.83212	0.0440044	0.03972619	0	0	0	0
41.84847	0.0440044	0.03972619	0	0	0	0
41.86505	0.0440044	0.03972619	0	0	0	0
41.8816	0.0440044	0.03972619	0	0	0	0
41.89817	0.0440044	0.03972619	0	0	0	0
41.93776	0.0440044	0.03972619	0	0	0	0
41.95435	0.0440044	0.03972619	0	0	0	0
41.9709	0.0440044	0.03972619	0	0	0	0
41.98746	0.0440044	0.03972619	0	0	0	0
42.00431	0.0440044	0.03972619	0	0	0	0
42.0206	0.0440044	0.03972619	0	0	0	0
42.03717	0.0440044	0.03972619	0	0	0	0
42.05376	0.0440044	0.03972619	0	0	0	0
42.07628	0.0440044	0.03972619	0	0	0	0
42.09285	0.0440044	0.03972619	0	0	0	0
42.10942	0.0440044	0.03972619	0	0	0	0
42.12599	0.0440044	0.03972619	0	0	0	0
42.14255	0.0440044	0.03972619	0	0	0	0
42.15912	0.0440044	0.03972619	0	0	0	0
42.17569	0.0440044	0.03972619	0	0	0	0
42.19237	0.0440044	0.03972619	0	0	0	0
42.20882	0.0440044	0.03972619	0	0	0	0
42.22656	0.0440044	0.03972619	0	0	0	0
42.28133	0.0440044	0.03972619	0	0	0	0
42.2979	0.0440044	0.03972619	0	0	0	0
42.31446	0.0440044	0.03972619	0	0	0	0
42.33104	0.0440044	0.03972619	0	0	0	0
42.34813	0.0440044	0.03972619	0	0	0	0
42.36469	0.0440044	0.03972619	0	0	0	0
42.43236	0.0440044	0.03972619	0	0	0	0
42.44903	0.0440044	0.03972619	0	0	0	0
42.46564	0.0440044	0.03972619	0	0	0	0
42.48231	0.0440044	0.03972619	0	0	0	0
42.49863	0.0440044	0.03972619	0	0	0	0
42.5152	0.0440044	0.03972619	0	0	0	0
42.57067	0.0440044	0.03972619	0	0	0	0
42.58723	0.0440044	0.03972619	0	0	0	0
42.60381	0.0440044	0.03972619	0	0	0	0
42.62064	0.0440044	0.03972619	0	0	0	0
42.63694	0.0440044	0.03972619	0	0	0	0
42.65366	0.0440044	0.03972619	0	0	0	0
42.67007	0.0440044	0.03972619	0	0	0	0
42.68743	0.0440044	0.03972619	0	0	0	0
42.70399	0.0440044	0.03972619	0	0	0	0
42.72078	0.0440044	0.03972619	0	0	0	0
42.73713	0.0440044	0.03972619	0	0	0	0
42.75389	0.0440044	0.03972619	0	0	0	0
42.77027	0.0440044	0.03972619	0	0	0	0
42.78683	0.0440044	0.03972619	0	0	0	0
42.8036	0.0440044	0.03972619	0	0	0	0
42.82002	0.0440044	0.03972619	0	0	0	0
42.8644	0.0440044	0.03972619	0	0	0	0
42.88158	0.0440044	0.03972619	0	0	0	0
42.89754	0.0440044	0.03972619	0	0	0	0
42.9141	0.0440044	0.03972619	0	0	0	0
42.93073	0.0440044	0.03972619	0	0	0	0
42.96041	0.0440044	0.03972619	0	0	0	0
42.97795	0.0440044	0.03972619	0	0	0	0
43.0073	0.0440044	0.03972619	0	0	0	0
43.02387	0.0440044	0.03972619	0	0	0	0
43.04044	0.0440044	0.03972619	0	0	0	0
43.05727	0.0440044	0.03972619	0	0	0	0
43.0738	0.0440044	0.03972619	0	0	0	0
43.09033	0.0440044	0.03972619	0	0	0	0
43.10693	0.0440044	0.03972619	0	0	0	0
43.12327	0.0440044	0.03972619	0	0	0	0
43.14028	0.0440044	0.03972619	0	0	0	0
43.17611	0.0440044	0.03972619	0	0	0	0
43.19268	0.0440044	0.03972619	0	0	0	0
43.20942	0.0440044	0.03972619	0	0	0	0
43.22581	0.0440044	0.03972619	0	0	0	0
43.24238	0.0440044	0.03972619	0	0	0	0
43.25895	0.0440044	0.03972619	0	0	0	0
43.27552	0.0440044	0.03972619	0	0	0	0
43.29208	0.0440044	0.03972619	0	0	0	0
43.3243	0.0440044	0.03972619	0	0	0	0
43.34087	0.0440044	0.03972619	0	0	0	0
43.35743	0.0440044	0.03972619	0	0	0	0
43.374	0.0440044	0.03972619	0	0	0	0
43.39057	0.04522675	0.03728151	0.07378118	-0.1475617	2.22672	-4.45342
43.40714	0.04767143	0.03483682	0.1475614	-0.1475617	2.226693	0
43.4239	0.05011613	0.03116978	0.1458492	-0.2187736	-0.05137454	-2.136634
43.44027	0.05133847	0.0287251	0.07467505	-0.1493498	-2.148287	2.095455
43.45683	0.05256081	0.02750275	0.07379772	-0.07379794	-0.0266406	2.294157
43.49833	0.05378316	0.02628041	0.02945676	-0.02945667	-0.7637132	0.7637186
43.51489	0.0550055	0.02505806	0.07378072	-0.07378095	0.7633703	-0.7633757
43.53146	0.0550055	0.02383572	-2.248072E-07	-0.07376397	-2.226457	0.0005123946
43.54803	0.05622785	0.02383572	0.07379816	0	2.22724	2.226201
43.5648	0.05622785	0.02383572	0	0	-2.213472	0
43.58116	0.05622785	0.02383572	0	0	0	0
43.59801	0.05622785	0.02383572	0	0	0	0
43.6143	0.05622785	0.02383572	0	0	0	0
43.66831	0.05622785	0.02383572	0	0	0	0
43.68488	0.06233957	0.02383572	0.3688191	0	5.225018	0
43.70145	0.06233957	0.02505806	0	0.07379794	-11.13098	2.227226
43.71801	0.06478426	0.02750275	0.1475619	0.1475617	4.453939	2.22645
43.73463	0.06722895	0.03239213	0.1470878	0.2941754	-0.01428655	4.41769
43.75115	0.06967364	0.03850385	0.1480045	0.3700116	0.02766346	2.288479
43.76772	0.07089598	0.0507273	0.07379816	0.7379785	-2.243166	11.12319
43.80299	0.07089598	0.06661777	-2.112172E-07	0.4504805	-1.423637	-5.546095
43.81956	0.07089598	0.1179562	0	3.098083	4.073969E-06	51.0671
43.83613	0.07089598	0.1265127	4.497179E-07	0.5164669	1.357095E-05	-77.90435
43.85305	0.07211833	0.1350691	0.07225021	0.5057524	2.157649	-0.3199743
43.86926	0.07578535	0.1534042	0.2261325	1.130663	4.644175	18.85984
43.88596	0.08189709	0.1741841	0.3660394	1.244533	4.250783	3.459695
43.9024	0.09289818	0.1961863	0.6692669	1.338534	9.151424	2.836954
43.91906	0.110011	0.2267449	1.027255	1.834385	10.81656	14.98206
43.96027	0.1259015	0.2450801	0.3855245	0.444836	-11.08792	-24.00882
43.97705	0.1699059	0.2866398	2.623492	2.477741	38.59161	35.05552
43.99341	0.1747953	0.2915291	0.2988395	0.2988386	-70.15813	-65.75942
44.00998	0.1870187	0.3025303	0.7378082	0.6640283	13.33098	11.0904
44.02655	0.1967975	0.312309	0.5901117	0.5901117	-4.456974	-2.230551
44.0436	0.2041315	0.3220878	0.4300108	0.5733494	-4.761147	-0.4984845
44.05968	0.2041315	0.3281995	9.269696E-07	0.3801966	-12.97922	-5.830035
44.07624	0.2041315	0.3306442	-8.994359E-07	0.1475614	-5.595199E-05	-7.126786
44.10889	0.1980198	0.3379783	-0.1871892	0.2246274	-3.803309	1.565833
44.12548	0.1430143	0.347757	-3.317084	0.5897009	-63.57377	7.415297
44.14204	0.1246791	0.3453123	-1.107222	-0.1476276	66.67841	-22.2475
44.1586	0.07334067	0.3294218	-3.098796	-0.9591512	-60.11967	-24.49747
44.17595	0.01466813	0.3037526	-3.38185	-1.47956	-8.345602	-15.34384
44.19173	-0.08067474	0.2585258	-6.042931	-2.866519	-80.33009	-41.86814
44.2083	-0.1442367	0.2267449	-3.836605	-1.918302	68.21266	29.31589
44.22486	-0.1760176	0.2108544	-1.918743	-0.959373	57.88784	28.94386
44.24143	-0.2322455	0.1888522	-3.39392	-1.328054	-44.52606	-11.12809
44.27496	-0.2713605	0.1741841	-1.166527	-0.4374475	44.46036	17.77714
44.29153	-0.3190319	0.1570713	-2.877454	-1.032933	-34.15131	-11.88631
44.30851	-0.3251436	0.1546266	-0.3597908	-0.1439163	75.03299	26.49504
44.32502	-0.3361447	0.1472925	-0.666636	-0.4444249	-9.162504	-8.97329
44.34658	-0.3508129	0.1362914	-0.6800799	-0.5100586	-0.3531313	-1.723996
44.36315	-0.3630363	0.1228456	-0.7378073	-0.8115898	-1.513742	-7.906831
44.37972	-0.3679257	0.1155116	-0.2951247	-0.4426848	13.36019	11.13357
44.39629	-0.3777044	0.09839874	-0.5902458	-1.032932	-8.906772	-17.81369
44.43085	-0.3862608	0.07639653	-0.2475726	-0.6366166	6.70221	7.751376
44.44742	-0.3997067	0.001833517	-0.8114048	-4.499597	-11.02695	-75.54887
44.46399	-0.3997067	-0.01283462	0	-0.8853704	24.48543	109.065
44.48055	-0.3948173	-0.04461557	0.2951247	-1.918302	8.906881	-31.17395
44.49725	-0.3874832	-0.07517418	0.4391453	-1.829775	4.329106	2.661034
44.51368	-0.3777045	-0.1093998	0.5951794	-2.083132	4.70966	-7.647197
44.53025	-0.3667034	-0.1436255	0.6640283	-2.065863	2.086514	0.5233309
44.54682	-0.3544799	-0.1717394	0.7378109	-1.69696	2.22676	11.13352
44.58129	-0.3422565	-0.1974086	0.3546145	-0.7446918	-7.508231	18.65845
44.59805	-0.3055861	-0.2487471	2.187737	-3.062829	35.78123	-45.24838
44.61442	-0.3055861	-0.2487471	0	0	-66.02602	92.43636
44.63099	-0.294585	-0.2597482	0.6640265	-0.6640292	20.15872	-20.15881
44.64756	-0.2835839	-0.269527	0.6638737	-0.5901099	-0.004611776	2.230632
44.66412	-0.2750275	-0.276861	0.5165858	-0.4427881	-4.445156	4.446182
44.68069	-0.2640264	-0.2890845	0.6640265	-0.7378073	4.450281	-8.904721
44.69733	-0.2530253	-0.2964185	0.661136	-0.4407579	-0.08704588	8.9454
44.71383	-0.2444689	-0.3061973	0.5187353	-0.5928394	-4.297659	-4.589828
44.73935	-0.2346901	-0.3147537	0.3830617	-0.3351787	-3.228579	6.131464
44.75637	-0.216355	-0.3269772	1.077438	-0.7182929	16.32085	-9.00485
44.77249	-0.2126879	-0.3281995	0.2274711	-0.0758234	-25.64909	19.38754
44.78905	-0.2016868	-0.3330889	0.6641812	-0.2951909	13.36145	-6.711702
44.80562	-0.1980198	-0.3355336	0.2213422	-0.1475632	-13.36645	4.455924
44.82219	-0.1821293	-0.3416453	0.9591503	-0.3689018	22.26709	-6.680011
44.83912	-0.1735729	-0.3453123	0.5055253	-0.2166547	-13.54386	4.545635
44.85532	-0.1662388	-0.3465347	0.4525852	-0.07543072	-1.597919	4.262639
44.87189	-0.1601271	-0.3465347	0.3688187	0	-2.555737	2.301409
44.90884	-0.1540154	-0.3465346	0.1654262	8.066598E-07	-3.800565	1.507314E-05
44.92552	-0.1405696	-0.340423	0.8060212	0.3663711	11.94538	6.831823
44.94197	-0.1393473	-0.3392006	0.07429392	0.07429392	-22.08357	-8.814906
44.95853	-0.1393473	-0.3392006	0	0	-2.250226	-2.250226
44.9751	-0.1393473	-0.3392006	0	0	0	0
44.99239	-0.1393473	-0.3392006	0	0	0	0
45.00824	-0.1393473	-0.3392006	0	0	0	0
