Time	Pos X	Pos Y	Vel X	Vel Y	Acc X	Acc Y
0.01700452	0.0279138	-0.09351871	-0.0004180737	0.001400659	6.263101E-06	-2.098307E-05
0.05770428	0.0279138	-0.09351871	0	0	-6.26544E-06	2.09909E-05
0.07427299	0.0279138	-0.09351871	0	0	0	0
0.09101065	0.0278875	-0.09353814	-0.001571006	-0.001160922	-0.04716832	-0.03485584
0.1075782	0.0278875	-0.09353814	0	0	0.04717001	0.03485709
0.1241654	0.0278875	-0.09353814	0	0	0	0
0.1407144	0.0278875	-0.093577	0	-0.002347866	0	-0.07085494
0.2058184	0.0278875	-0.093577	0	0	0	0.02875421
0.2231083	0.0278875	-0.093577	0	0	0	0
0.2396743	0.02786121	-0.09379072	-0.00158729	-0.01290161	-0.04688374	-0.3810745
0.2562445	0.02786121	-0.09379072	0	0	0.04790194	0.3893504
0.2728117	0.02786121	-0.09379072	0	0	0	0
0.2893788	0.02783491	-0.09388787	-0.001587176	-0.005863904	-0.04790131	-0.1769739
0.3059448	0.02783491	-0.09388787	0	0	0.04790304	0.1769803
0.3230085	0.02783491	-0.09388787	0	0	0	0
0.3390751	0.02780862	-0.09386844	-0.001636625	0.001209412	-0.0493996	0.03650469
0.3558815	0.02780862	-0.09386844	0	0	0.04978637	-0.03679049
0.3724513	0.02780862	-0.09386844	0	0	0	0
0.3891274	0.02780862	-0.09386844	0	0	0	0
0.4055824	0.02780862	-0.09386844	0	0	0	0
0.4222581	0.02780862	-0.09386844	0	0	0	0
0.4387151	0.02765085	-0.09398503	-0.00958702	-0.007084325	-0.2893524	-0.2138169
0.4552822	0.02765085	-0.09398503	0	0	0.2903035	0.2145196
0.4724893	0.02765085	-0.09398503	0	0	0	0
0.4884153	0.027309	-0.09423766	-0.0214647	-0.01586251	-0.6478333	-0.4787517
0.5050476	0.027309	-0.09423766	0	0	0.6592698	0.4872033
0.5215499	0.027309	-0.09423766	0	0	0	0
0.7711227	0.02704603	-0.094432	-0.001053659	-0.0007786946	-0.003960005	-0.002926597
0.7876922	0.02704603	-0.094432	0	0	0.003959006	0.002925859
0.8074158	0.02704603	-0.094432	0	0	0	0
0.8239877	0.02704603	-0.094432	0	0	0	0
0.840554	0.02704603	-0.094432	0	0	0	0
0.8590602	0.02675677	-0.09460691	-0.01563064	-0.009451836	-0.4456664	-0.2694942
0.8756304	0.02675677	-0.09460691	0	0	0.4456164	0.269464
0.8921972	0.02675677	-0.09460691	0	0	0	0
0.908762	0.01210467	-0.1054161	-0.8845329	-0.6525425	-26.69761	-19.69551
0.9253311	0.01210467	-0.1054161	0	0	26.69574	19.69413
0.9418974	0.01210467	-0.1054161	0	0	0	0
0.9585044	-0.002789466	-0.1165647	-0.8968598	-0.6713182	-27.03557	-20.23669
0.9750305	-0.002789466	-0.1165647	0	0	27.0684	20.26126
0.9915956	-0.002789466	-0.1165647	0	0	0	0
1.008166	-0.008605051	-0.1208612	-0.3509637	-0.2592858	-10.59178	-7.825023
1.024729	-0.008605051	-0.1208612	0	0	10.59253	7.825572
1.041297	-0.008605051	-0.1208612	0	0	0	0
1.057861	-0.008157713	-0.1204489	0.02700795	0.02489303	0.8151662	0.7513326
1.074428	-0.008157713	-0.1204489	0	0	-0.8151955	-0.7513596
1.090997	-0.008157713	-0.1204489	0	0	0	0
1.107561	-0.007999829	-0.1203311	0.009532043	0.007111627	0.2876931	0.2146409
1.124529	-0.007999829	-0.1203311	0	0	-0.2842689	-0.2120861
1.140938	-0.007999829	-0.1203311	0	0	0	0
1.157261	-0.007973515	-0.1203507	0.001612118	-0.001202783	0.04925256	-0.0367468
1.173829	-0.007973515	-0.1203507	0	0	-0.04901496	0.03656952
1.190397	-0.007973515	-0.1203507	0	0	0	0
1.206961	-0.007973515	-0.1203507	0	0	0	0
1.223531	-0.007973515	-0.1203507	0	0	0	0
1.240094	-0.007973515	-0.1203507	0	0	0	0
1.256718	-0.007947201	-0.1202918	0.00158296	0.003542514	0.04769849	0.1067447
1.273385	-0.007947201	-0.1202918	0	0	-0.04754972	-0.1064118
1.289797	-0.007947201	-0.1202918	0	0	0	0
1.306361	-0.007894573	-0.1202525	0.003177348	0.002370542	0.09635359	0.07188709
1.322931	-0.007894573	-0.1202525	0	0	-0.09589565	-0.07154543
1.339686	-0.007894573	-0.1202525	0	0	0	0
1.356061	-0.007868258	-0.1202329	0.001607046	0.001198957	0.04850737	0.03618953
1.372629	-0.007868258	-0.1202329	0	0	-0.04878348	-0.03639553
1.389198	-0.007868258	-0.1202329	0	0	0	0
1.405761	-0.007868258	-0.1202329	0	0	0	0
1.42233	-0.007868258	-0.1202329	0	0	0	0
1.438897	-0.007868258	-0.1202329	0	0	0	0
1.455463	-0.007868258	-0.1202329	0	0	0	0
1.472031	-0.007868258	-0.1202329	0	0	0	0
1.488596	-0.007868258	-0.1202329	0	0	0	0
1.505161	-0.007841945	-0.1202525	0.001588531	-0.001185186	0.04794801	-0.03577349
1.52173	-0.007841945	-0.1202525	0	0	-0.04794231	0.03576924
1.538428	-0.007841945	-0.1202525	0	0	0	0
1.554861	-0.007841945	-0.1202525	0	0	0	0
1.571428	-0.007841945	-0.1202525	0	0	0	0
1.587996	-0.007841945	-0.1202525	0	0	0	0
1.604561	-0.007841945	-0.1202525	0	0	0	0
1.621131	-0.007841945	-0.1202525	0	0	0	0
1.637697	-0.007841945	-0.1202525	0	0	0	0
1.654694	-0.007868258	-0.1202722	-0.001548166	-0.00115507	-0.04612713	-0.03441495
1.67083	-0.007868258	-0.1202722	0	0	0.04672508	0.03486107
1.687538	-0.007868258	-0.1202722	0	0	0	0
1.703964	-0.007868258	-0.1202722	0	0	0	0
1.720531	-0.007868258	-0.1202722	0	0	0	0
1.737097	-0.007868258	-0.1202722	0	0	0	0
1.753664	-0.007868258	-0.1202722	0	0	0	0
1.77023	-0.007868258	-0.1202722	0	0	0	0
1.786798	-0.007868258	-0.1202722	0	0	0	0
1.803363	-0.007868258	-0.1202722	0	0	0	0
1.819928	-0.007868258	-0.1202722	0	0	0	0
1.836495	-0.007868258	-0.1202722	0	0	0	0
1.853783	-0.007868258	-0.1202722	0	0	0	0
1.86963	-0.007868258	-0.1202722	0	0	0	0
1.886215	-0.007868258	-0.1202722	0	0	0	0
1.903885	-0.007841945	-0.1202525	0.001489124	0.001111019	0.04347125	0.03243342
1.920456	-0.007841945	-0.1202525	0	0	-0.04348971	-0.0324472
1.937023	-0.007841945	-0.1202525	0	0	0	0
1.95359	-0.007841945	-0.1202525	0	0	0	0
1.970156	-0.007841945	-0.1202525	0	0	0	0
1.986723	-0.007841945	-0.1202525	0	0	0	0
2.003298	-0.007841945	-0.1202525	0	0	0	0
2.019856	-0.007841945	-0.1202525	0	0	0	0
2.036425	-0.007841945	-0.1202525	0	0	0	0
2.054124	-0.007841945	-0.1202525	0	0	0	0
2.070694	-0.007841945	-0.1202525	0	0	0	0
2.087261	-0.007841945	-0.1202525	0	0	0	0
2.103827	-0.007841945	-0.1202525	0	0	0	0
2.120395	-0.007841945	-0.1202525	0	0	0	0
2.136961	-0.007841945	-0.1202525	0	0	0	0
2.15357	-0.007841945	-0.1202525	0	0	0	0
2.170094	-0.007841945	-0.1202525	0	0	0	0
2.186661	-0.007841945	-0.1202525	0	0	0	0
2.203226	-0.007868258	-0.1202329	-0.00158852	0.001185177	-0.04794507	0.0357713
2.219794	-0.007868258	-0.1202329	0	0	0.04794335	-0.03577001
2.236362	-0.007868258	-0.1202329	0	0	0	0
2.252928	-0.007841945	-0.1202525	0.001588406	-0.001185092	0.0479399	-0.03576744
2.269495	-0.007841945	-0.1202525	0	0	-0.0479399	0.03576744
2.286062	-0.007841945	-0.1202525	0	0	0	0
2.302628	-0.007868258	-0.1202329	-0.001588383	0.001185075	-0.04793956	0.03576718
2.319193	-0.007868258	-0.1202329	0	0	0.04794197	-0.03576898
2.335761	-0.007868258	-0.1202329	0	0	0	0
2.352325	-0.007841945	-0.1202525	0.001588611	-0.001185246	0.04794749	-0.0357731
2.368895	-0.007841945	-0.1202525	0	0	-0.04794577	0.03577181
2.385462	-0.007841945	-0.1202525	0	0	0	0
2.402029	-0.007868258	-0.1202329	-0.001588291	0.001185007	-0.04793542	0.03576409
2.41896	-0.007868258	-0.1202329	0	0	0.04741444	-0.0353754
2.435162	-0.007868258	-0.1202329	0	0	0	0
2.451726	-0.007868258	-0.1202329	0	0	0	0
2.468295	-0.007868258	-0.1202329	0	0	0	0
2.484861	-0.007868258	-0.1202329	0	0	0	0
2.501427	-0.007868258	-0.1202329	0	0	0	0
2.517995	-0.007868258	-0.1202329	0	0	0	0
2.534562	-0.007868258	-0.1202329	0	0	0	0
2.551128	-0.007868258	-0.1202329	0	0	0	0
2.567695	-0.007868258	-0.1202329	0	0	0	0
2.584261	-0.007868258	-0.1202329	0	0	0	0
2.600877	-0.007841945	-0.1202525	0.001583665	-0.001181555	0.0477271	-0.03560867
2.617411	-0.007841945	-0.1202525	0	0	-0.04777276	0.03564273
2.634032	-0.007841945	-0.1202525	0	0	0	0
2.650527	-0.007841945	-0.1202525	0	0	0	0
2.667335	-0.007841945	-0.1202525	0	0	0	0
2.683685	-0.007841945	-0.1202525	0	0	0	0
2.700229	-0.007841945	-0.1202525	0	0	0	0
2.716799	-0.007841945	-0.1202525	0	0	0	0
2.73359	-0.007841945	-0.1202525	0	0	0	0
2.749929	-0.007841945	-0.1202525	0	0	0	0
2.766922	-0.007841945	-0.1202525	0	0	0	0
2.783067	-0.007841945	-0.1202525	0	0	0	0
2.799627	-0.007841945	-0.1202525	0	0	0	0
2.816199	-0.007841945	-0.1202525	0	0	0	0
2.832967	-0.007841945	-0.1202525	0	0	0	0
2.849329	-0.007868258	-0.1202329	-0.001608218	0.001199874	-0.04854276	0.03621722
2.865895	-0.007868258	-0.1202329	0	0	0.0488394	-0.03643854
2.883136	-0.007868258	-0.1202329	0	0	0	0
2.899029	-0.007868258	-0.1202329	0	0	0	0
2.915597	-0.007868258	-0.1202329	0	0	0	0
2.932161	-0.007868258	-0.1202329	0	0	0	0
2.948871	-0.007868258	-0.1202329	0	0	0	0
2.965294	-0.007868258	-0.1202329	0	0	0	0
2.98221	-0.007868258	-0.1202329	0	0	0	0
2.99843	-0.007868258	-0.1202329	0	0	0	0
3.014999	-0.007868258	-0.1202329	0	0	0	0
3.032013	-0.007868258	-0.1202329	0	0	0	0
3.048674	-0.007868258	-0.1202329	0	0	0	0
3.064696	-0.007868258	-0.1202329	0	0	0	0
3.081263	-0.007868258	-0.1202329	0	0	0	0
3.09783	-0.007868258	-0.1202329	0	0	0	0
3.233336	-0.007868258	-0.1202329	0	0	0	0
3.250364	-0.007868258	-0.1202329	0	0	0	0
3.267319	-0.007841945	-0.1202525	0.001551888	-0.001157847	0.04566629	-0.03407112
3.283887	-0.007841945	-0.1202525	0	0	-0.04629213	0.03453805
3.300454	-0.007841945	-0.1202525	0	0	0	0
3.31702	-0.007841945	-0.1202525	0	0	0	0
3.333587	-0.007841945	-0.1202525	0	0	0	0
3.350153	-0.007841945	-0.1202525	0	0	0	0
3.366721	-0.00781563	-0.1202722	0.001588347	-0.001185007	0.04793815	-0.03576486
3.383289	-0.00781563	-0.1202722	0	0	-0.04793539	0.03576281
3.399856	-0.00781563	-0.1202722	0	0	0	0
3.41642	-0.007789316	-0.1202918	0.001588639	-0.001185246	0.04794972	-0.03577413
3.432989	-0.007789316	-0.1202918	0	0	-0.047948	0.03577284
3.449563	-0.007789316	-0.1202918	0	0	0	0
3.466123	-0.007289344	-0.1207041	0.03019138	-0.02489589	0.9111843	-0.7513648
3.482692	-0.007289344	-0.1207041	0	0	-0.9113089	0.7514676
3.499259	-0.007289344	-0.1207041	0	0	0	0
3.515889	-0.006710425	-0.1211361	0.03481286	-0.02597708	1.0487	-0.7825313
3.53239	-0.006710425	-0.1211361	0	0	-1.050775	0.78408
3.549436	-0.006710425	-0.1211361	0	0	0	0
3.565794	-0.003105253	-0.1239065	0.220403	-0.16937	6.598174	-5.070406
3.582308	-0.003105253	-0.1239065	0	0	-6.704991	5.152491
3.598889	-0.003105253	-0.1239065	0	0	0	0
3.615223	0.003631563	-0.1289444	0.4124278	-0.3084182	12.52986	-9.369971
3.631795	0.003631563	-0.1289444	0	0	-12.5334	9.372619
3.648598	0.003631563	-0.1289444	0	0	0	0
3.664923	0.03075346	-0.1493794	1.661324	-1.251726	50.14823	-37.78424
3.681489	0.03075346	-0.1493794	0	0	-50.50993	38.05676
3.698058	0.03075346	-0.1493794	0	0	0	0
3.714831	0.0562826	-0.1687701	1.522083	-1.156104	45.65109	-34.67447
3.73152	0.0562826	-0.1687701	0	0	-45.48683	34.54971
3.747756	0.0562826	-0.1687701	0	0	0	0
3.76432	0.09012362	-0.1948649	2.04306	-1.575398	62.28803	-48.03013
3.780887	0.09012362	-0.1948649	0	0	-61.66766	47.55176
3.797458	0.09012362	-0.1948649	0	0	0	0
3.81402	0.1104175	-0.2107136	1.225275	-0.9568945	36.97967	-28.87976
3.830587	0.1104175	-0.2107136	0	0	-36.98446	28.8835
3.847262	0.1104175	-0.2107136	0	0	0	0
3.863723	0.1112493	-0.2113672	0.05053293	-0.03970467	1.525032	-1.198246
3.88029	0.1112493	-0.2113672	0	0	-1.53003	1.202173
3.896915	0.1112493	-0.2113672	0	0	0	0
3.913469	0.1112753	-0.2113876	0.001569904	-0.001234139	0.04731545	-0.0371958
3.92999	0.1112753	-0.2113876	0	0	-0.04746552	0.03731378
3.946556	0.1112753	-0.2113876	0	0	0	0
3.96312	0.111925	-0.2118984	0.03922657	-0.03083572	1.184022	-0.9307511
3.97969	0.111925	-0.2118984	0	0	-1.183877	0.9306372
3.996494	0.111925	-0.2118984	0	0	0	0
4.012823	0.1122368	-0.2121436	0.01909788	-0.01501676	0.5764126	-0.4532359
4.029443	0.1122368	-0.2121436	0	0	-0.5796199	0.4557579
4.045956	0.1122368	-0.2121436	0	0	0	0
4.062521	0.1132502	-0.2129407	0.06117535	-0.04812183	1.84947	-1.454832
4.07909	0.1132502	-0.2129407	0	0	-1.846329	1.452362
4.096141	0.1132502	-0.2129407	0	0	0	0
4.112221	0.1312154	-0.2271146	1.11728	-0.8814982	33.72296	-26.60635
4.129062	0.1312154	-0.2271146	0	0	-33.93886	26.77669
4.145357	0.1312154	-0.2271146	0	0	0	0
4.161921	0.1502023	-0.2423205	1.146247	-0.9179861	34.88347	-27.93685
4.17849	0.1502023	-0.2423205	0	0	-34.59481	27.70567
4.195055	0.1502023	-0.2423205	0	0	0	0
4.211622	0.155549	-0.2465557	0.3227302	-0.2556341	9.740857	-7.715718
4.228188	0.155549	-0.2465557	0	0	-9.740437	7.715384
4.244756	0.155549	-0.2465557	0	0	0	0
4.261766	0.1567302	-0.2455999	0.06944328	0.05618833	2.068065	1.673324
4.27789	0.1567302	-0.2455999	0	0	-2.095832	-1.695792
4.294456	0.1567302	-0.2455999	0	0	0	0
4.311024	0.1680321	-0.2363774	0.6821789	0.5566698	20.58879	16.80081
4.327864	0.1680321	-0.2363774	0	0	-20.42011	-16.66316
4.344157	0.1680321	-0.2363774	0	0	0	0
4.360721	0.1817865	-0.225263	0.8303871	0.6710001	25.27281	20.42187
4.37729	0.1817865	-0.225263	0	0	-25.06185	-20.25141
4.394249	0.1817865	-0.225263	0	0	0	0
4.41042	0.18517	-0.2225298	0.2092321	0.1690207	6.315454	5.101717
4.426991	0.18517	-0.2225298	0	0	-6.390508	-5.162346
4.443556	0.18517	-0.2225298	0	0	0	0
4.46012	0.18517	-0.2225298	0	0	0	0
4.476689	0.18517	-0.2225298	0	0	0	0
4.493482	0.18517	-0.2225298	0	0	0	0
4.509989	0.18517	-0.2225298	0	0	0	0
4.526389	0.18517	-0.2225298	0	0	0	0
4.542956	0.18517	-0.2225298	0	0	0	0
4.55952	0.18517	-0.2225298	0	0	0	0
4.57609	0.18517	-0.2225298	0	0	0	0
4.592657	0.18517	-0.2225298	0	0	0	0
4.609283	0.18517	-0.2225298	0	0	0	0
4.62579	0.18517	-0.2225298	0	0	0	0
4.642356	0.18517	-0.2225298	0	0	0	0
4.658955	0.18517	-0.2225298	0	0	0	0
4.67549	0.18517	-0.2225298	0	0	0	0
4.692053	0.18517	-0.2225298	0	0	0	0
4.708621	0.18517	-0.2225298	0	0	0	0
4.725384	0.18517	-0.2225298	0	0	0	0
4.741756	0.18517	-0.2225298	0	0	0	0
4.758431	0.1851446	-0.2225093	-0.001525415	0.001232306	-0.046158	0.03728874
4.774889	0.1851446	-0.2225093	0	0	0.04603909	-0.03719268
4.791507	0.1851446	-0.2225093	0	0	0	0
4.808642	0.1851191	-0.2225298	-0.001483581	-0.001199214	-0.04395479	-0.0355297
4.82459	0.1851191	-0.2225298	0	0	0.04484428	0.03624869
4.841156	0.1851191	-0.2225298	0	0	0	0
4.85772	0.1851191	-0.2225298	0	0	0	0
4.87429	0.1851191	-0.2225298	0	0	0	0
4.890856	0.1851191	-0.2225298	0	0	0	0
5.12696	0.1850683	-0.2225709	-0.000215341	-0.0001739389	-0.0008522607	-0.0006884029
5.149943	0.1850683	-0.2225709	0	0	0.0008311528	0.0006713532
5.167396	0.1850683	-0.2225709	0	0	0	0
5.183963	0.1850683	-0.2225709	0	0	0	0
5.200532	0.1850683	-0.2225709	0	0	0	0
5.217096	0.1850174	-0.2225298	-0.003070393	0.002479345	-0.09266865	0.07483
5.233663	0.1850174	-0.2225298	0	0	0.09267532	-0.07483539
5.25023	0.1850174	-0.2225298	0	0	0	0
5.266797	0.1848649	-0.2224476	-0.009208055	0.004958875	-0.2779077	0.1496635
5.291982	0.1848649	-0.2224476	0	0	0.2205424	-0.1187702
5.318241	0.1848649	-0.2224476	0	0	0	0
5.344036	0.1802842	-0.2187544	-0.1775807	0.143176	-3.411476	2.750532
5.368792	0.1802842	-0.2187544	0	0	3.51294	-2.832339
5.385359	0.1661897	-0.2074692	-0.8507186	0.68116	-20.58696	16.48372
5.401927	0.1661897	-0.2074692	0	0	25.67437	-20.55716
5.418494	0.1661897	-0.2074692	0	0	0	0
5.43506	0.1587836	-0.201544	-0.4470771	0.3576718	-13.4934	10.79502
5.45163	0.1587836	-0.201544	0	0	13.49223	-10.79409
5.468195	0.1587836	-0.201544	0	0	0	0
5.484762	0.1570127	-0.2001415	-0.1068947	0.08465914	-3.226321	2.555202
5.501329	0.1570127	-0.2001415	0	0	3.226136	-2.555055
5.517896	0.1570127	-0.2001415	0	0	0	0
5.53446	0.1367723	-0.1846725	-1.221921	0.9338701	-36.88137	28.1871
5.55103	0.1367723	-0.1846725	0	0	36.87818	-28.18466
5.567838	0.1367723	-0.1846725	0	0	0	0
5.587325	0.1285503	-0.1801175	-0.4219228	0.2337506	-11.62484	6.44031
5.603895	0.1285503	-0.1801175	0	0	11.70155	-6.48281
5.620743	0.1285503	-0.1801175	0	0	0	0
5.637026	0.1252618	-0.1778836	-0.2019687	0.1371918	-6.096042	4.140873
5.653595	0.1252618	-0.1778836	0	0	6.147803	-4.176033
5.670162	0.1252618	-0.1778836	0	0	0	0
5.686726	0.1035233	-0.1616693	-1.3124	0.9788977	-39.61286	29.54659
5.703293	0.1035233	-0.1616693	0	0	39.61229	-29.54617
5.719862	0.1035233	-0.1616693	0	0	0	0
5.736426	0.08304541	-0.1472744	-1.236263	0.8690258	-37.3121	26.22838
5.753076	0.08304541	-0.1472744	0	0	37.22157	-26.16475
5.769562	0.08304541	-0.1472744	0	0	0	0
5.786126	0.06053123	-0.1569807	-1.359272	-0.5860085	-41.12766	-17.73094
5.802693	0.06053123	-0.1569807	0	0	41.02703	17.68756
5.819263	0.06053123	-0.1569807	0	0	0	0
5.835956	0.04150247	-0.1708345	-1.139884	-0.8298875	-34.2691	-24.94947
5.852396	0.04150247	-0.1708345	0	0	34.40324	25.04714
5.868963	0.04150247	-0.1708345	0	0	0	0
5.885526	0.04144993	-0.1707543	-0.003172141	0.004842778	-0.09574644	0.1461722
5.902096	0.04144993	-0.1707543	0	0	0.09573817	-0.1461595
5.918877	0.04144993	-0.1707543	0	0	0	0
5.935227	0.0414762	-0.1707744	0.001606794	-0.001226741	0.04849872	-0.03702739
5.951796	0.0414762	-0.1707744	0	0	-0.04881064	0.03726552
5.968498	0.0414762	-0.1707744	0	0	0	0
5.984927	0.04150247	-0.1707543	0.001599052	0.001220831	0.04826505	0.03684898
6.001496	0.04150247	-0.1707543	0	0	-0.04845824	-0.03699648
6.018062	0.04150247	-0.1707543	0	0	0	0
6.034626	0.04118722	-0.1704736	-0.01903252	0.01694609	-0.5744854	0.5115076
6.051193	0.04118722	-0.1704736	0	0	0.5744606	-0.5114855
6.067763	0.04118722	-0.1704736	0	0	0	0
6.084329	0.02912334	-0.16121	-0.728219	0.5591863	-21.97675	16.87555
6.100896	0.02912334	-0.16121	0	0	21.97864	-16.877
6.117463	0.02912334	-0.16121	0	0	0	0
6.134027	0.009683908	-0.1465004	-1.173603	0.8880489	-35.42348	26.80446
6.150596	0.009683908	-0.1465004	0	0	35.42094	-26.80253
6.167229	0.009683908	-0.1465004	0	0	0	0
6.18373	0.00557889	-0.143407	-0.2487747	0.1874711	-7.508143	5.65797
6.200295	0.00557889	-0.143407	0	0	7.523409	-5.669475
6.2171	0.00557889	-0.143407	0	0	0	0
6.237189	0.005342055	-0.1432287	-0.01178947	0.008877495	-0.3195553	0.2406258
6.253912	0.005342055	-0.1432287	0	0	0.3202632	-0.2411588
6.270326	0.005236794	-0.1431494	-0.006412965	0.00482976	-0.1935297	0.145752
6.286893	0.005236794	-0.1431494	0	0	0.1944447	-0.146441
6.30346	0.005236794	-0.1431494	0	0	0	0
6.320024	0.005184164	-0.1431098	-0.003177391	0.002392082	-0.0959049	0.07220149
6.336593	0.005184164	-0.1431098	0	0	0.09589662	-0.07219525
6.353158	0.005184164	-0.1431098	0	0	0	0
6.369762	0.005210479	-0.1430899	0.001584772	0.001193536	0.04777833	0.03598318
6.386293	0.005210479	-0.1430899	0	0	-0.04782646	-0.03601943
6.402859	0.005210479	-0.1430899	0	0	0	0
6.419424	0.005210479	-0.1430899	0	0	0	0
6.435993	0.005210479	-0.1430899	0	0	0	0
6.452594	0.005210479	-0.1430899	0	0	0	0
6.469126	0.005184164	-0.1430701	-0.00159172	0.001197867	-0.04804028	0.03615326
6.485694	0.005184164	-0.1430701	0	0	0.04808803	-0.0361892
6.50226	0.005184164	-0.1430701	0	0	0	0
6.518892	0.005210479	-0.1430899	0.001582137	-0.001190655	0.04765709	-0.03586489
6.535393	0.005210479	-0.1430899	0	0	-0.04775036	0.03593509
6.55196	0.005210479	-0.1430899	0	0	0	0
6.568717	0.005210479	-0.1430899	0	0	0	0
6.585093	0.005210479	-0.1430899	0	0	0	0
6.60166	0.005210479	-0.1430899	0	0	0	0
6.618227	0.005210479	-0.1430899	0	0	0	0
6.634903	0.005210479	-0.1430899	0	0	0	0
6.65136	0.005210479	-0.1430899	0	0	0	0
6.667924	0.005210479	-0.1430899	0	0	0	0
6.684493	0.005210479	-0.1430899	0	0	0	0
6.70106	0.005210479	-0.1430899	0	0	0	0
6.717625	0.005210479	-0.1430899	0	0	0	0
6.734193	0.005210479	-0.1430899	0	0	0	0
6.75076	0.005210479	-0.1430899	0	0	0	0
6.767326	0.005210479	-0.1430899	0	0	0	0
6.783893	0.005210479	-0.1430899	0	0	0	0
6.80046	0.005210479	-0.1430899	0	0	0	0
6.817025	0.005210479	-0.1430899	0	0	0	0
6.833593	0.005210479	-0.1430899	0	0	0	0
6.85016	0.005210479	-0.1430899	0	0	0	0
6.866748	0.005210479	-0.1430899	0	0	0	0
6.883376	0.005210479	-0.1430899	0	0	0	0
7.000179	0.005210479	-0.1430899	0	0	0	0
7.030976	0.005210479	-0.1430899	0	0	0	0
7.047551	0.005210479	-0.1430899	0	0	0	0
7.06411	0.005210479	-0.1430899	0	0	0	0
7.080677	0.005210479	-0.1430899	0	0	0	0
7.097641	0.005210479	-0.1430899	0	0	0	0
7.11381	0.005210479	-0.1430899	0	0	0	0
7.130708	0.005210479	-0.1430899	0	0	0	0
7.146945	0.005210479	-0.1430899	0	0	0	0
7.163512	0.005210479	-0.1430899	0	0	0	0
7.180231	0.005210479	-0.1430899	0	0	0	0
7.196647	0.005210479	-0.1430899	0	0	0	0
7.213211	0.005210479	-0.1430899	0	0	0	0
7.230136	0.005210479	-0.1430899	0	0	0	0
7.246347	0.005210479	-0.1430899	0	0	0	0
7.262914	0.005210479	-0.1430899	0	0	0	0
7.279736	0.005210479	-0.1430899	0	0	0	0
7.296365	0.005210479	-0.1430899	0	0	0	0
7.312612	0.005210479	-0.1430899	0	0	0	0
7.32918	0.005210479	-0.1430899	0	0	0	0
7.345748	0.005210479	-0.1430899	0	0	0	0
7.362472	0.005210479	-0.1430899	0	0	0	0
7.379162	0.005210479	-0.1430899	0	0	0	0
7.395448	0.005210479	-0.1430899	0	0	0	0
7.412014	0.005210479	-0.1430899	0	0	0	0
7.428728	0.005210479	-0.1430899	0	0	0	0
7.445148	0.005210479	-0.1430899	0	0	0	0
7.461711	0.005236794	-0.1431098	0.001588696	-0.001196491	0.04816597	-0.03627513
7.478677	0.005236794	-0.1431098	0	0	-0.04738166	0.03568444
7.494847	0.005236794	-0.1431098	0	0	0	0
7.511412	0.005210479	-0.1431296	-0.00158865	-0.001196456	-0.04853152	-0.03655044
7.528205	0.005210479	-0.1431296	0	0	0.04762412	0.03586705
7.544547	0.005210479	-0.1431296	0	0	0	0
7.561111	0.005184164	-0.1431098	-0.00158865	0.001196456	-0.04827835	0.03635976
7.577678	0.005184164	-0.1431098	0	0	0.04795107	-0.03611328
7.594248	0.005184164	-0.1431098	0	0	0	0
7.61103	0.005210479	-0.1431296	0.001568022	-0.001180921	0.04701379	-0.03540739
7.627378	0.005210479	-0.1431296	0	0	-0.04732912	0.03564487
7.651698	0.005210479	-0.1431296	0	0	0	0
7.668265	0.005210479	-0.1430899	0	0.002392431	0	0.05851272
7.684834	0.005210479	-0.1430899	0	0	0	-0.07219954
7.701402	0.005210479	-0.1430899	0	0	0	0
7.831694	0.005210479	-0.1430899	0	0	0	0
7.848648	0.005210479	-0.1430899	0	0	0	0
7.865217	0.005210479	-0.1430899	0	0	0	0
7.881782	0.005210479	-0.1430899	0	0	0	0
7.898354	0.005210479	-0.1430899	0	0	0	0
7.914916	0.005210479	-0.1430899	0	0	0	0
7.931483	0.005210479	-0.1430899	0	0	0	0
7.948294	0.005210479	-0.1430899	0	0	0	0
7.964631	0.005210479	-0.1430899	0	0	0	0
7.981704	0.005210479	-0.1430899	0	0	0	0
7.997776	0.005210479	-0.1430899	0	0	0	0
8.015003	0.005210479	-0.1430899	0	0	0	0
8.030904	0.005210479	-0.1430899	0	0	0	0
8.048054	0.005210479	-0.1430899	0	0	0	0
8.064029	0.005210479	-0.1430899	0	0	0	0
8.080599	0.005210479	-0.1430899	0	0	0	0
8.097801	0.005210479	-0.1430899	0	0	0	0
8.11373	0.005210479	-0.1430899	0	0	0	0
8.130384	0.005210479	-0.1430899	0	0	0	0
8.147305	0.005210479	-0.1430899	0	0	0	0
8.163429	0.005210479	-0.1430899	0	0	0	0
8.180211	0.005210479	-0.1430899	0	0	0	0
8.19657	0.005210479	-0.1430899	0	0	0	0
8.213132	0.005210479	-0.1430899	0	0	0	0
8.229956	0.005210479	-0.1430899	0	0	0	0
8.246265	0.005210479	-0.1430899	0	0	0	0
8.26283	0.005210479	-0.1430899	0	0	0	0
8.2794	0.005210479	-0.1430899	0	0	0	0
8.29597	0.005210479	-0.1430899	0	0	0	0
8.31253	0.005210479	-0.1430899	0	0	0	0
8.32919	0.005210479	-0.1430899	0	0	0	0
8.345666	0.005210479	-0.1430899	0	0	0	0
8.362317	0.005210479	-0.1430899	0	0	0	0
8.456474	0.005210479	-0.1430899	0	0	0	0
8.473488	0.005210479	-0.1430899	0	0	0	0
8.491436	0.005210479	-0.1430899	0	0	0	0
8.508007	0.005210479	-0.1430899	0	0	0	0
8.531878	0.005210479	-0.1430899	0	0	0	0
8.548445	0.005210479	-0.1430899	0	0	0	0
8.565013	0.005210479	-0.1430899	0	0	0	0
8.581751	0.005210479	-0.1430899	0	0	0	0
8.598145	0.005210479	-0.1430899	0	0	0	0
8.614717	0.005210479	-0.1430899	0	0	0	0
8.631286	0.005210479	-0.1430899	0	0	0	0
8.647851	0.005210479	-0.1430899	0	0	0	0
8.664706	0.005210479	-0.1430899	0	0	0	0
8.680987	0.005210479	-0.1430899	0	0	0	0
8.697883	0.005210479	-0.1430899	0	0	0	0
8.714765	0.005210479	-0.1430899	0	0	0	0
8.730682	0.005210479	-0.1430899	0	0	0	0
8.747252	0.005210479	-0.1430899	0	0	0	0
8.763817	0.005210479	-0.1430899	0	0	0	0
8.780385	0.005210479	-0.1430899	0	0	0	0
8.874684	0.005210479	-0.1430899	0	0	0	0
8.891734	0.005210479	-0.1430899	0	0	0	0
8.910353	0.005210479	-0.1430899	0	0	0	0
8.926925	0.005210479	-0.1430899	0	0	0	0
8.943487	0.005210479	-0.1430899	0	0	0	0
8.960053	0.005210479	-0.1430899	0	0	0	0
8.97662	0.005210479	-0.1430899	0	0	0	0
8.993187	0.005210479	-0.1430899	0	0	0	0
9.009752	0.005210479	-0.1430899	0	0	0	0
9.02632	0.005210479	-0.1430899	0	0	0	0
9.042886	0.005210479	-0.1430899	0	0	0	0
9.059455	0.005210479	-0.1430899	0	0	0	0
9.076021	0.005210479	-0.1430899	0	0	0	0
9.168133	0.005210479	-0.1430899	0	0	0	0
9.192293	0.005236794	-0.1431098	0.001089179	-0.0008202909	0.009367512	-0.007054933
9.209726	0.005236794	-0.1431098	0	0	-0.02618625	0.01972159
9.226682	0.005289424	-0.1431098	0.003104029	0	0.09026345	0
9.243399	0.005289424	-0.1431098	0	0	-0.09218335	0
9.260223	0.005289424	-0.1431098	0	0	0	0
9.284172	0.005289424	-0.1431098	0	0	0	0
9.300738	0.005289424	-0.1431098	0	0	0	0
9.317305	0.005315739	-0.1431296	0.001588467	-0.001196319	0.04794279	-0.03610704
9.333872	0.005315739	-0.1431296	0	0	-0.04794141	0.03610601
9.350438	0.005315739	-0.1431296	0	0	0	0
9.367004	0.00536837	-0.1431296	0.003176962	0	0.09588643	0
9.38358	0.00536837	-0.1431296	0	0	-0.09585884	0
9.400138	0.00536837	-0.1431296	0	0	0	0
9.416704	0.00536837	-0.1431296	0	0	0	0
9.433271	0.00536837	-0.1431296	0	0	0	0
9.449838	0.00536837	-0.1431296	0	0	0	0
9.466405	0.00547363	-0.1430503	0.006353503	0.004784099	0.1917546	0.1443886
9.482971	0.00547363	-0.1430503	0	0	-0.1917546	-0.1443886
9.499538	0.00547363	-0.1430503	0	0	0	0
9.516105	0.005552575	-0.1429909	0.004765401	0.003588056	0.1438242	0.1082909
9.532672	0.005552575	-0.1429909	0	0	-0.1438242	-0.1082909
9.549238	0.005552575	-0.1429909	0	0	0	0
9.565804	0.00557889	-0.1430107	0.001588467	-0.001195419	0.04794279	-0.0360799
9.582371	0.00557889	-0.1430107	0	0	-0.04794279	0.0360799
9.598939	0.00557889	-0.1430107	0	0	0	0
9.615505	0.00557889	-0.1430107	0	0	0	0
9.632074	0.00557889	-0.1430107	0	0	0	0
9.648641	0.00557889	-0.1430107	0	0	0	0
9.665343	0.005605204	-0.1430305	0.001575497	-0.001186551	0.04735642	-0.03566543
9.681773	0.005605204	-0.1430305	0	0	-0.04755135	0.03581223
9.698339	0.005605204	-0.1430305	0	0	0	0
9.714906	0.005684149	-0.1430899	0.004765401	-0.003588056	0.1438284	-0.108294
9.731472	0.005684149	-0.1430899	0	0	-0.1438284	0.108294
9.748044	0.005684149	-0.1430899	0	0	0	0
9.764606	0.005868354	-0.1432287	0.01112244	-0.008375742	0.3356856	-0.2527876
9.781176	0.005868354	-0.1432287	0	0	-0.335705	0.2528022
9.797866	0.005868354	-0.1432287	0	0	0	0
9.814304	0.005973613	-0.1433079	0.006403235	-0.004821568	0.1932834	-0.1455404
9.830875	0.005973613	-0.1433079	0	0	-0.1939814	0.146066
9.847513	0.005973613	-0.1433079	0	0	0	0
9.864202	0.006052558	-0.1432881	0.004730246	0.0011875	0.1419339	0.03563166
9.880573	0.006052558	-0.1432881	0	0	-0.1430803	-0.03591946
9.897144	0.006052558	-0.1432881	0	0	0	0
9.91371	0.006499908	-0.1429116	0.02700524	0.02272686	0.8149729	0.6858586
9.930476	0.006499908	-0.1429116	0	0	-0.8101928	-0.6818358
9.94699	0.006499908	-0.1429116	0	0	0	0
9.963405	0.006631482	-0.1428126	0.00801562	0.006035034	0.2434252	0.1832771
9.97998	0.006631482	-0.1428126	0	0	-0.2429749	-0.182938
9.99716	0.006631482	-0.1428126	0	0	0	0
10.01311	0.006657796	-0.1428324	0.001650285	-0.001242898	0.04981862	-0.03752045
10.02967	0.006657796	-0.1428324	0	0	-0.05075675	0.03822699
10.04625	0.006657796	-0.1428324	0	0	0	0
10.06281	0.00678937	-0.1428918	0.00794634	-0.003589916	0.2398417	-0.1083532
10.07937	0.00678937	-0.1428918	0	0	-0.2398763	0.1083688
10.09635	0.00678937	-0.1428918	0	0	0	0
10.11253	0.006999886	-0.1430503	0.01300856	-0.009794515	0.392328	-0.295395
10.12907	0.006999886	-0.1430503	0	0	-0.3975304	0.299312
10.14627	0.006999886	-0.1430503	0	0	0	0
10.1622	0.007289344	-0.1432287	0.01816612	-0.01119224	0.5482861	-0.337802
10.17937	0.007289344	-0.1432287	0	0	-0.548839	0.3381427
10.19534	0.007289344	-0.1432287	0	0	0	0
10.2119	0.0167879	-0.1501146	0.5733667	-0.4156577	17.62329	-12.77587
10.22847	0.0167879	-0.1501146	0	0	-17.30524	12.5453
10.24527	0.0167879	-0.1501146	0	0	0	0
10.2617	0.02949145	-0.1594934	0.7730624	-0.5707419	23.26144	-17.17362
10.27827	0.02949145	-0.1594934	0	0	-23.42546	17.29471
10.29491	0.02949145	-0.1594934	0	0	0	0
10.31141	0.03164732	-0.1593737	0.1306857	0.007256981	3.94433	0.2190287
10.32797	0.03164732	-0.1593737	0	0	-3.952635	-0.2194899
10.34511	0.03164732	-0.1593737	0	0	0	0
10.3611	0.03193651	-0.1591143	0.01807633	0.01621181	0.5455605	0.4892875
10.37767	0.03193651	-0.1591143	0	0	-0.5550502	-0.4977984
10.39441	0.03193651	-0.1591143	0	0	0	0
10.41081	0.03183135	-0.1590744	-0.006412284	0.002433342	-0.1935398	0.07344475
10.42739	0.03183135	-0.1590744	0	0	0.1944016	-0.07377177
10.44394	0.03183135	-0.1590744	0	0	0	0
10.46051	0.03177877	-0.1590346	-0.00317439	0.002408344	-0.09586123	0.07272793
10.47726	0.03177877	-0.1590346	0	0	0.09528223	-0.07228866
10.49364	0.03177877	-0.1590346	0	0	0	0
10.51021	0.0316999	-0.1589747	-0.004760763	0.003612343	-0.1444869	0.1096329
10.52739	0.0316999	-0.1589747	0	0	0.1410534	-0.1070276
10.54334	0.0316999	-0.1589747	0	0	0	0
10.55991	0.03156846	-0.158875	-0.007935519	0.006021864	-0.2440675	0.1852105
10.57648	0.03156846	-0.158875	0	0	0.2394807	-0.1817297
10.594	0.03156846	-0.158875	0	0	0	0
10.61016	0.03154217	-0.158855	-0.001626529	0.001233553	-0.04828545	0.03661949
10.62673	0.03154217	-0.158855	0	0	0.0496894	-0.03768423
10.6433	0.03154217	-0.158855	0	0	0	0
10.65986	0.03154217	-0.158855	0	0	0	0
10.67671	0.03154217	-0.158855	0	0	0	0
10.693	0.03154217	-0.158855	0	0	0	0
10.70956	0.03154217	-0.158855	0	0	0	0
10.72655	0.03154217	-0.158855	0	0	0	0
10.7427	0.03154217	-0.158855	0	0	0	0
10.75926	0.03154217	-0.1588949	0	-0.002407928	0	-0.07361428
10.77583	0.03154217	-0.1588949	0	0	0	0.07267561
10.7924	0.03154217	-0.1588949	0	0	0	0
10.80896	0.03154217	-0.1588949	0	0	0	0
10.82553	0.03154217	-0.1588949	0	0	0	0
10.8421	0.03154217	-0.1588949	0	0	0	0
10.85894	0.03154217	-0.1588949	0	0	0	0
10.87523	0.03154217	-0.1588949	0	0	0	0
10.8918	0.03154217	-0.1588949	0	0	0	0
10.90836	0.03154217	-0.1588949	0	0	0	0
10.92497	0.03154217	-0.1588949	0	0	0	0
10.9415	0.03154217	-0.1588949	0	0	0	0
10.95806	0.03154217	-0.1588949	0	0	0	0
10.97463	0.03154217	-0.1588949	0	0	0	0
10.9912	0.03154217	-0.1588949	0	0	0	0
11.00776	0.03154217	-0.1588949	0	0	0	0
11.02433	0.03154217	-0.1588949	0	0	0	0
11.04112	0.03154217	-0.1588949	0	0	0	0
11.05747	0.03148959	-0.1589348	-0.003216429	-0.002440238	-0.09707203	-0.07364654
11.07403	0.03148959	-0.1589348	0	0	0.09772457	0.07414161
11.0906	0.03148959	-0.1589348	0	0	0	0
11.10716	0.0314633	-0.1589548	-0.001587195	-0.001204622	-0.04790854	-0.0363608
11.12373	0.0314633	-0.1589548	0	0	0.04790716	0.03635975
11.14086	0.0314633	-0.1589548	0	0	0	0
11.15686	0.0314633	-0.1589548	0	0	0	0
11.17343	0.0314633	-0.1589548	0	0	0	0
11.19	0.0314633	-0.1589548	0	0	0	0
11.20656	0.03143701	-0.1589348	-0.001587195	0.001204622	-0.04790716	0.03635975
11.22313	0.03143701	-0.1589348	0	0	0.04790302	-0.03635661
11.2397	0.03143701	-0.1589348	0	0	0	0
11.25627	0.03143701	-0.1589348	0	0	0	0
11.27283	0.03143701	-0.1589348	0	0	0	0
11.2897	0.03143701	-0.1589348	0	0	0	0
11.30606	0.03143701	-0.1589348	0	0	0	0
11.32257	0.03143701	-0.1589348	0	0	0	0
11.3391	0.03143701	-0.1589348	0	0	0	0
11.35982	0.03143701	-0.1589348	0	0	0	0
11.37639	0.03143701	-0.1589348	0	0	0	0
11.39296	0.03143701	-0.1590545	0	-0.007225584	0	-0.2180497
11.40953	0.03143701	-0.1590545	0	0	0	0.2180748
11.42609	0.03143701	-0.1590545	0	0	0	0
11.44266	0.03256743	-0.1625882	0.06823603	-0.2133045	2.059486	-6.437913
11.45923	0.03256743	-0.1625882	0	0	-2.059486	6.437913
11.47579	0.03256743	-0.1625882	0	0	0	0
11.49237	0.06273337	-0.2010154	1.819877	-2.318274	54.91293	-69.95155
11.50893	0.06273337	-0.2010154	0	0	-54.92241	69.96364
11.52549	0.06273337	-0.2010154	0	0	0	0
11.5421	0.07404857	-0.2783205	0.6811051	-4.653286	20.52921	-140.2548
11.55863	0.07404857	-0.2783205	0	0	-20.55461	140.4284
11.5755	0.07404857	-0.2783205	0	0	0	0
11.59211	0.07203305	-0.3333387	-0.1213917	-3.313656	-3.625831	-98.97511
11.60833	0.07203305	-0.3333387	0	0	3.698418	100.9565
11.62489	0.07203305	-0.3333387	0	0	0	0
11.64146	0.07119525	-0.3483948	-0.05058108	-0.9089957	-1.526716	-27.4367
11.65803	0.07119525	-0.3483948	0	0	1.526628	27.43512
11.67459	0.07119525	-0.3483948	0	0	0	0
11.69116	0.07216395	-0.3492083	0.05848063	-0.04911408	1.765152	-1.482437
11.70773	0.07216395	-0.3492083	0	0	-1.765	1.482309
11.72429	0.07216395	-0.3492083	0	0	0	0
11.74094	0.07247809	-0.3494723	0.01886805	-0.01585233	0.5680819	-0.4772841
11.75743	0.07247809	-0.3494723	0	0	-0.5694225	0.4784106
11.77399	0.07247809	-0.3494723	0	0	0	0
11.79056	0.07247809	-0.3494723	0	0	0	0
11.80713	0.07247809	-0.3494723	0	0	0	0
12.09087	0.07247809	-0.3494723	0	0	0	0
12.11473	0.07289692	-0.3498242	0.01755244	-0.01475011	0.05706096	-0.0479509
12.1313	0.07289692	-0.3498242	0	0	-0.4341125	0.3648044
12.14787	0.07289692	-0.3498242	0	0	0	0
12.16444	0.07289692	-0.3498242	0	0	0	0
12.18127	0.07289692	-0.3498242	0	0	0	0
12.19757	0.07289692	-0.3498242	0	0	0	0
12.21414	0.07289692	-0.3498242	0	0	0	0
12.2307	0.07289692	-0.3498242	0	0	0	0
12.24727	0.07289692	-0.3498242	0	0	0	0
12.26391	0.07289692	-0.3498242	0	0	0	0
12.28041	0.07289692	-0.3498242	0	0	0	0
12.30047	0.07287074	-0.3498022	-0.001304806	0.001096126	-0.03568846	0.02998075
12.31704	0.07287074	-0.3498022	0	0	0.03561785	-0.02992143
12.33361	0.07289692	-0.3498242	0.0015804	-0.001327644	0.04769656	-0.04006837
12.35018	0.07289692	-0.3498242	0	0	-0.04769519	0.04006721
12.36674	0.07289692	-0.3498242	0	0	0	0
12.38343	0.07289692	-0.3498242	0	0	0	0
12.39987	0.07289692	-0.3498242	0	0	0	0
12.41661	0.07289692	-0.3498242	0	0	0	0
12.43301	0.07289692	-0.3498242	0	0	0	0
12.44958	0.07289692	-0.3498242	0	0	0	0
12.46615	0.07289692	-0.3498242	0	0	0	0
12.48271	0.07292309	-0.3498462	0.001580223	-0.001327873	0.0476926	-0.04007644
12.49928	0.07292309	-0.3498462	0	0	-0.04769809	0.04008106
12.51584	0.07292309	-0.3498462	0	0	0	0
12.53241	0.07289692	-0.3498242	-0.00157995	0.001327644	-0.04768573	0.04007068
12.54898	0.07289692	-0.3498242	0	0	0.04768436	-0.04006952
12.56565	0.07289692	-0.3498242	0	0	0	0
12.58211	0.07287074	-0.3498022	-0.001590379	0.001336027	-0.04799912	0.04032254
12.5991	0.07287074	-0.3498022	0	0	0.04753666	-0.03993404
12.61525	0.07287074	-0.3498022	0	0	0	0
12.63181	0.07281839	-0.3497582	-0.003161538	0.002658464	-0.09666461	0.08128303
12.64838	0.07281839	-0.3497582	0	0	0.09544288	-0.08025569
12.66772	0.07281839	-0.3497582	0	0	0	0
12.68429	0.07273985	-0.3496482	-0.004739386	0.006638107	-0.1319528	0.1848165
12.70086	0.07273985	-0.3496482	0	0	0.1430226	-0.2003212
12.71784	0.07273985	-0.3496482	0	0	0	0
12.73399	0.07242573	-0.3492523	-0.01944294	0.02450416	-0.5868566	0.7396222
12.75056	0.07242573	-0.3492523	0	0	0.594125	-0.7487826
12.76713	0.07242573	-0.3492523	0	0	0	0
12.78369	0.06912652	-0.3462639	-0.1991749	0.1804112	-6.011802	5.445448
12.80026	0.06912652	-0.3462639	0	0	6.011283	-5.444978
12.81683	0.06912652	-0.3462639	0	0	0	0
12.83343	0.06855032	-0.3456054	-0.0347099	0.03966615	-1.046523	1.195957
12.84996	0.06855032	-0.3456054	0	0	1.047607	-1.197196
12.86724	0.06855032	-0.3456054	0	0	0	0
12.88324	0.0686027	-0.3456493	0.003273521	-0.002743221	0.09836756	-0.08243232
12.89993	0.0686027	-0.3456493	0	0	-0.1001352	0.08391365
12.91674	0.0686027	-0.3456493	0	0	0	0
12.93641	0.06923129	-0.3461761	0.0319541	-0.02677771	0.875913	-0.7340198
12.953	0.06923129	-0.3461761	0	0	-0.8810955	0.7383628
12.9698	0.06923129	-0.3461761	0	0	0	0
12.9864	0.06925748	-0.3461981	0.001577308	-0.001322875	0.04722539	-0.03960752
13.00268	0.06925748	-0.3461981	0	0	-0.0479733	0.04023479
13.01924	0.06925748	-0.3461981	0	0	0	0
13.03581	0.06925748	-0.3461981	0	0	0	0
13.05238	0.06925748	-0.3461981	0	0	0	0
13.06894	0.06925748	-0.3461981	0	0	0	0
13.08551	0.06959794	-0.3464835	0.02055504	-0.01723176	0.6204239	-0.5201155
13.10208	0.06959794	-0.3464835	0	0	-0.6203882	0.5200856
13.11864	0.06959794	-0.3464835	0	0	0	0
13.13525	0.06985982	-0.3467031	0.01576811	-0.01322136	0.4753078	-0.3985397
13.15178	0.06985982	-0.3467031	0	0	-0.4758961	0.399033
13.16853	0.06985982	-0.3467031	0	0	0	0
13.18491	0.06985982	-0.3467031	0	0	0	0
13.20148	0.06985982	-0.3467031	0	0	0	0
13.21804	0.06985982	-0.3467031	0	0	0	0
13.23461	0.06930985	-0.3457591	-0.03320358	0.05699239	-1.002201	1.720232
13.25118	0.06930985	-0.3457591	0	0	1.002115	-1.720083
13.26814	0.06930985	-0.3457591	0	0	0	0
13.28431	0.05625637	-0.3333823	-0.8076692	0.7657993	-24.37901	23.11519
13.30088	0.05625637	-0.3333823	0	0	24.67593	-23.39672
13.31744	0.05625637	-0.3333823	0	0	0	0
13.33401	0.03177877	-0.3062298	-1.477556	1.639021	-44.59401	49.46718
13.35058	0.03177877	-0.3062298	0	0	44.59529	-49.46861
13.36746	0.03177877	-0.3062298	0	0	0	0
13.38371	0.03845472	-0.2670085	0.4108121	2.413525	12.39869	72.84243
13.40028	0.03845472	-0.2670085	0	0	-12.51831	-73.54522
13.41684	0.03845472	-0.2670085	0	0	0	0
13.43341	0.05106084	-0.2408486	0.7609508	1.579107	22.96686	47.6603
13.44997	0.05106084	-0.2408486	0	0	-22.96686	-47.6603
13.46654	0.05106084	-0.2408486	0	0	0	0
13.48311	0.05321287	-0.2304312	0.129897	0.6287974	3.920524	18.97824
13.49968	0.05321287	-0.2304312	0	0	-3.920073	-18.97605
13.51624	0.05321287	-0.2304312	0	0	0	0
13.53364	0.04315739	-0.2123479	-0.5780348	1.039509	-17.01944	30.60692
13.55021	0.04315739	-0.2123479	0	0	17.01801	-30.60435
13.56684	0.04315739	-0.2123479	0	0	0	0
13.5838	0.03937438	-0.2089581	-0.2230032	0.1998222	-6.638349	5.948298
13.59991	0.03937438	-0.2089581	0	0	6.743643	-6.042647
13.61647	0.03937438	-0.2089581	0	0	0	0
13.63304	0.03940065	-0.2089785	0.001586022	-0.001231399	0.04786898	-0.03716582
13.64961	0.03940065	-0.2089785	0	0	-0.04786898	0.03716582
13.66617	0.03940065	-0.2089785	0	0	0	0
13.68274	0.03940065	-0.2089785	0	0	0	0
13.69931	0.03940065	-0.2089785	0	0	0	0
13.71597	0.03940065	-0.2089785	0	0	0	0
13.73244	0.0394532	-0.2090193	0.003191518	-0.002478823	0.09632298	-0.07481317
13.749	0.0394532	-0.2090193	0	0	-0.09662334	0.07504646
13.766	0.0394532	-0.2090193	0	0	0	0
13.78214	0.03942693	-0.2089989	-0.001628201	0.00126507	-0.0491406	0.03818099
13.91984	0.03942693	-0.2089989	0	0	0.01058412	-0.008223587
13.93732	0.03942693	-0.2089989	0	0	0	0
13.95432	0.0393481	-0.2089377	-0.004636617	0.003599903	-0.1344686	0.1044024
13.97866	0.0393481	-0.2089377	0	0	0.1121378	-0.08706459
13.99559	0.0393481	-0.2089377	0	0	0	0
14.01181	0.03932182	-0.2089581	-0.001620102	-0.00125768	-0.04888351	-0.03794813
14.02839	0.03932182	-0.2089581	0	0	0.04938228	0.03833532
14.04505	0.03932182	-0.2089581	0	0	0	0
14.0615	0.03932182	-0.2089581	0	0	0	0
14.07807	0.03932182	-0.2089581	0	0	0	0
14.09464	0.03932182	-0.2089581	0	0	0	0
14.1112	0.03929555	-0.2089785	-0.00158657	-0.001231824	-0.04788828	-0.0371808
14.12777	0.03929555	-0.2089785	0	0	0.04788277	0.03717652
14.14433	0.03929555	-0.2089785	0	0	0	0
14.1609	0.039243	-0.2090193	-0.003171678	-0.002463413	-0.09573521	-0.07435666
14.17747	0.039243	-0.2090193	0	0	0.09572143	0.07434595
14.19435	0.039243	-0.2090193	0	0	0	0
14.2106	0.03900652	-0.2089173	-0.01455472	0.006279531	-0.4393129	0.1895384
14.22717	0.03900652	-0.2089173	0	0	0.4435002	-0.1913451
14.24394	0.03900652	-0.2089173	0	0	0	0
14.26062	0.03750871	-0.2085297	-0.08979774	0.02323917	-2.684373	0.6947014
14.27687	0.03750871	-0.2085297	0	0	2.727134	-0.7057676
14.29365	0.03750871	-0.2085297	0	0	0	0
14.31	0.03664149	-0.2091622	-0.0530422	-0.03868427	-1.600909	-1.167561
14.32657	0.03664149	-0.2091622	0	0	1.611391	1.175206
14.34313	0.03664149	-0.2091622	0	0	0	0
14.3597	0.03629984	-0.2089785	-0.0206256	0.01108656	-0.6225536	0.3346317
14.37627	0.03629984	-0.2089785	0	0	0.6224998	-0.3346027
14.39283	0.03629984	-0.2089785	0	0	0	0
14.40944	0.03616843	-0.2089173	-0.007913909	0.003686606	-0.2386019	0.11115
14.42597	0.03616843	-0.2089173	0	0	0.2388491	-0.1112652
14.44253	0.03616843	-0.2089173	0	0	0	0
14.45914	0.03614215	-0.2089377	-0.001582463	-0.001229185	-0.04769979	-0.03705101
14.47571	0.03614215	-0.2089377	0	0	0.04769705	0.03704888
14.49228	0.03614215	-0.2089377	0	0	0	0
14.50884	0.03608959	-0.2088969	-0.003172901	0.002463839	-0.0957666	0.07436521
14.52541	0.03608959	-0.2088969	0	0	0.09576384	-0.07436308
14.54198	0.03608959	-0.2088969	0	0	0	0
14.66335	0.0353274	-0.2082645	-0.006279896	0.005210584	-0.04552678	0.03777469
14.67992	0.0353274	-0.2082645	0	0	0.04552678	-0.03777469
14.6979	0.01634065	-0.1935882	-1.055511	0.8158848	-30.54376	23.60959
14.71447	0.01634065	-0.1935882	0	0	30.54376	-23.60959
14.73104	0.01634065	-0.1935882	0	0	0	0
14.75214	-0.03035909	-0.1579177	-2.213653	1.690849	-58.77307	44.89248
14.76871	-0.03035909	-0.1579177	0	0	58.76861	-44.88907
14.78528	-0.04334126	-0.1480884	-0.7835153	0.5932293	-23.64246	17.9006
14.80184	-0.04334126	-0.1480884	0	0	23.64858	-17.90524
14.81841	-0.04334126	-0.1480884	0	0	0	0
14.83497	-0.04373525	-0.1477509	-0.02378382	0.02037547	-0.7178592	0.6149859
14.85154	-0.04373525	-0.1477509	0	0	0.7178385	-0.6149682
14.86811	-0.04373525	-0.1477509	0	0	0	0
14.88761	-0.04370899	-0.1477707	0.001346522	-0.001017627	0.03732698	-0.02820967
14.90426	-0.04370899	-0.1477707	0	0	-0.03724428	0.02814716
14.92075	-0.04370899	-0.1477707	0	0	0	0
14.93732	-0.04370899	-0.1477707	0	0	0	0
14.95461	-0.04370899	-0.1477707	0	0	0	0
14.97093	-0.04370899	-0.1477707	0	0	0	0
14.98701	-0.04368272	-0.1477906	0.001633725	-0.001234504	0.0504145	-0.03809509
15.00358	-0.04368272	-0.1477906	0	0	-0.05004045	0.03781244
15.02015	-0.04368272	-0.1477906	0	0	0	0
15.03681	-0.04355139	-0.1478898	0.00788384	-0.005959452	0.2372928	-0.1793713
15.05328	-0.04355139	-0.1478898	0	0	-0.2379416	0.1798618
15.06985	-0.04355139	-0.1478898	0	0	0	0
15.08641	-0.04355139	-0.1478898	0	0	0	0
15.10298	-0.04355139	-0.1478898	0	0	0	0
15.11955	-0.04355139	-0.1478898	0	0	0	0
15.13611	-0.04352513	-0.1479097	0.001585846	-0.001199224	0.04786367	-0.03619474
15.15268	-0.04352513	-0.1479097	0	0	-0.04786643	0.03619682
15.16925	-0.04352513	-0.1479097	0	0	0	0
15.1891	-0.04352513	-0.14787	0	0.002000703	0	0.05493725
15.20567	-0.04352513	-0.14787	0	0	0	-0.05493582
15.22224	-0.04352513	-0.14787	0	0	0	0
15.23881	-0.04352513	-0.14787	0	0	0	0
15.25537	-0.04352513	-0.14787	0	0	0	0
15.27208	-0.04352513	-0.14787	0	0	0	0
15.2889	-0.04349886	-0.1478898	0.001561836	-0.001180182	0.04657859	-0.03519653
15.30544	-0.04349886	-0.1478898	0	0	-0.04681694	0.03537663
15.32181	-0.04349886	-0.1478898	0	0	0	0
15.33822	-0.04349886	-0.1478898	0	0	0	0
15.35491	-0.04349886	-0.1478898	0	0	0	0
15.37133	-0.04349886	-0.1478898	0	0	0	0
15.3879	-0.04344633	-0.1478898	0.003171101	0	0.09611623	0
15.40447	-0.04344633	-0.1478898	0	0	-0.09570954	0
15.42103	-0.04344633	-0.1478898	0	0	0	0
15.4376	-0.04339379	-0.1478898	0.003171144	0	0.09571082	0
15.45416	-0.04339379	-0.1478898	0	0	-0.09571082	0
15.4711	-0.04339379	-0.1478898	0	0	0	0
15.4873	-0.04334126	-0.1478898	0.00324279	0	0.09787042	0
15.50387	-0.04334126	-0.1478898	0	0	-0.09896711	0
15.52043	-0.04334126	-0.1478898	0	0	0	0
15.537	-0.04320993	-0.1477906	0.007927859	0.005992387	0.2392702	0.1808558
15.55357	-0.04320993	-0.1477906	0	0	-0.2392495	-0.1808402
15.57014	-0.04320993	-0.1477906	0	0	0	0
15.5867	-0.04292099	-0.1476119	0.0174443	0.01078672	0.5265459	0.3255907
15.60327	-0.04292099	-0.1476119	0	0	-0.5265004	-0.3255626
15.61983	-0.04292099	-0.1476119	0	0	0	0
15.6364	-0.04034651	-0.1456672	0.1554047	0.1173885	4.690258	3.542895
15.65339	-0.04034651	-0.1456672	0	0	-4.631997	-3.498886
15.66953	-0.04034651	-0.1456672	0	0	0	0
15.6861	-0.03940065	-0.1449532	0.05709565	0.04309895	1.745201	1.317374
15.70267	-0.03940065	-0.1449532	0	0	-1.723249	-1.300804
15.71923	-0.03940065	-0.1449532	0	0	0	0
15.7358	-0.0393481	-0.1449532	0.003172591	0	0.09576277	0
15.75236	-0.0393481	-0.1449532	0	0	-0.09576001	0
15.76893	-0.0393481	-0.1449532	0	0	0	0
15.78632	-0.039243	-0.1450325	0.006043377	-0.004560862	0.177954	-0.1342996
15.8063	-0.039243	-0.1450325	0	0	-0.1617392	0.1220625
15.82334	-0.039243	-0.1450325	0	0	0	0
15.83943	-0.03921673	-0.1450524	0.001632639	-0.001232407	0.04927314	-0.03719413
15.856	-0.03921673	-0.1450524	0	0	-0.04998674	0.0377328
15.87318	-0.03921673	-0.1450524	0	0	0	0
15.88914	-0.03916417	-0.145092	0.003293024	-0.002485583	0.09938081	-0.07501289
15.9057	-0.03916417	-0.145092	0	0	-0.1012398	0.07641608
15.92227	-0.03916417	-0.145092	0	0	0	0
15.93883	-0.0391379	-0.1451119	0.001586296	-0.001197425	0.04788414	-0.03614563
15.9554	-0.0391379	-0.1451119	0	0	-0.04788138	0.03614356
16.07984	-0.0391379	-0.1451119	0	0	0	0
16.1019	-0.03905907	-0.1451713	0.003572316	-0.002695782	0.02438352	-0.01840057
16.11884	-0.03905907	-0.1451713	0	0	-0.09160337	0.06912678
16.13504	-0.03884887	-0.14533	0.01297339	-0.009792525	0.3915378	-0.295539
16.15161	-0.03884887	-0.14533	0	0	-0.3958675	0.2988071
16.16817	-0.03884887	-0.14533	0	0	0	0
16.18492	-0.03527484	-0.1480288	0.2134921	-0.1612106	6.409629	-4.839992
16.20131	-0.03527484	-0.1480288	0	0	-6.443575	4.865625
16.21787	-0.03527484	-0.1480288	0	0	0	0
16.23754	-0.03530112	-0.148009	-0.001336239	0.00100914	-0.0368762	0.02784924
16.25411	-0.03530112	-0.148009	0	0	0.0368762	-0.02784924
16.27068	-0.03530112	-0.148009	0	0	0	0
16.28724	-0.03537997	-0.1479494	-0.004759913	0.003595459	-0.1436545	0.1085112
16.30381	-0.03537997	-0.1479494	0	0	0.143671	-0.1085237
16.32038	-0.03537997	-0.1479494	0	0	0	0
16.33694	-0.03537997	-0.1479494	0	0	0	0
16.35351	-0.03537997	-0.1479494	0	0	0	0
16.37008	-0.03537997	-0.1479494	0	0	0	0
16.38664	-0.03537997	-0.1479494	0	0	0	0
16.40321	-0.03537997	-0.1479494	0	0	0	0
16.41978	-0.03537997	-0.1479494	0	0	0	0
16.43636	-0.0353274	-0.1479891	0.003171159	-0.002394719	0.09567824	-0.07225195
16.45291	-0.0353274	-0.1479891	0	0	-0.09570578	0.07227275
16.46957	-0.0353274	-0.1479891	0	0	0	0
16.48604	-0.03522227	-0.1480685	0.006382485	-0.004821749	0.192646	-0.1455374
16.50261	-0.03522227	-0.1480685	0	0	-0.1931575	0.1459239
16.51918	-0.03522227	-0.1480685	0	0	0	0
16.53575	-0.03177877	-0.1506313	0.2078739	-0.1547082	6.274369	-4.66964
16.55263	-0.03177877	-0.1506313	0	0	-6.214265	4.624908
16.56888	-0.03177877	-0.1506313	0	0	0	0
16.58935	0.005947298	-0.1781452	1.842852	-1.344003	50.18361	-36.5992
16.60592	0.005947298	-0.1781452	0	0	-49.75462	36.28634
16.62251	0.02325896	-0.1818094	1.043373	-0.2208453	31.4655	-6.660139
16.72929	0.02325896	-0.1818094	0	0	-8.457187	1.790089
16.74852	0.02325896	-0.1818094	0	0	0	0
16.76556	0.0583285	-0.164887	2.05735	0.9927548	56.72296	27.37113
16.78213	0.0583285	-0.164887	0	0	-61.19965	-29.53131
16.7987	0.0583285	-0.164887	0	0	0	0
16.81526	0.0583285	-0.164887	0	0	0	0
16.83183	0.0583285	-0.164887	0	0	0	0
16.8484	0.0583285	-0.164887	0	0	0	0
16.86496	0.0583285	-0.164887	0	0	0	0
16.88153	0.0583285	-0.164887	0	0	0	0
16.8981	0.0583285	-0.164887	0	0	0	0
16.91466	0.0583285	-0.164887	0	0	0	0
16.93123	0.0583285	-0.164887	0	0	0	0
16.9478	0.0583285	-0.164887	0	0	0	0
16.96436	0.05830227	-0.164867	-0.001583007	0.001207043	-0.04777525	0.03642863
16.98093	0.05830227	-0.164867	0	0	0.04777525	-0.03642863
16.9975	0.05830227	-0.164867	0	0	0	0
17.01407	0.0583285	-0.164887	0.001582825	-0.001206904	0.047767	-0.03642234
17.03063	0.0583285	-0.164887	0	0	-0.047767	0.03642234
17.0472	0.0583285	-0.164887	0	0	0	0
17.06384	0.0583285	-0.164887	0	0	0	0
17.08033	0.0583285	-0.164887	0	0	0	0
17.0969	0.0583285	-0.164887	0	0	0	0
17.1138	0.0583285	-0.164887	0	0	0	0
17.13014	0.0583285	-0.164887	0	0	0	0
17.14675	0.0583285	-0.164887	0	0	0	0
17.16342	0.0583285	-0.164887	0	0	0	0
17.1798	0.0583285	-0.164887	0	0	0	0
17.19638	0.0583285	-0.164887	0	0	0	0
17.21287	0.0583285	-0.164887	0	0	0	0
17.22943	0.0583285	-0.164887	0	0	0	0
17.246	0.0583285	-0.164887	0	0	0	0
17.26257	0.0583285	-0.164887	0	0	0	0
17.27918	0.0583285	-0.164887	0	0	0	0
17.2957	0.0583285	-0.164887	0	0	0	0
17.31227	0.0583285	-0.164887	0	0	0	0
17.32883	0.0583285	-0.164887	0	0	0	0
17.34589	0.0583285	-0.164887	0	0	0	0
17.55709	0.0583285	-0.164887	0	0	0	0
17.62019	0.0583285	-0.164887	0	0	0	0
17.68737	0.05830227	-0.1649069	-0.0003903699	-0.0002976571	-0.002996359	-0.002284723
17.70409	0.05830227	-0.1649069	0	0	0.004652563	0.00354758
17.72063	0.05830227	-0.1649069	0	0	0	0
17.73707	0.05830227	-0.1649069	0	0	0	0
17.75415	0.05830227	-0.1649069	0	0	0	0
17.7702	0.05830227	-0.1649069	0	0	0	0
17.78677	0.05830227	-0.1649069	0	0	0	0
17.80334	0.05830227	-0.1649069	0	0	0	0
17.82135	0.05830227	-0.1649069	0	0	0	0
17.83792	0.05830227	-0.1649069	0	0	0	0
17.85449	0.05830227	-0.1649069	0	0	0	0
17.8718	0.05830227	-0.1649069	0	0	0	0
17.88837	0.05830227	-0.1649069	0	0	0	0
17.90494	0.05830227	-0.1649069	0	0	0	0
17.9215	0.05830227	-0.1649069	0	0	0	0
17.93807	0.05830227	-0.1649069	0	0	0	0
17.95464	0.05830227	-0.1649069	0	0	0	0
17.9713	0.05830227	-0.1649069	0	0	0	0
17.98777	0.05830227	-0.1649069	0	0	0	0
18.00473	0.05830227	-0.1649069	0	0	0	0
18.02095	0.05830227	-0.1649069	0	0	0	0
18.03747	0.05830227	-0.1649069	0	0	0	0
18.05472	0.05830227	-0.1649069	0	0	0	0
18.07105	0.05830227	-0.1649069	0	0	0	0
18.08717	0.05830227	-0.1649069	0	0	0	0
18.10374	0.05830227	-0.1649069	0	0	0	0
18.12031	0.05830227	-0.1649069	0	0	0	0
18.13687	0.05830227	-0.1649069	0	0	0	0
18.15344	0.05830227	-0.1649069	0	0	0	0
18.17001	0.05830227	-0.1649069	0	0	0	0
18.18749	0.05830227	-0.1649069	0	0	0	0
18.20475	0.05830227	-0.1649069	0	0	0	0
18.22063	0.05830227	-0.1649069	0	0	0	0
18.23719	0.05830227	-0.1649069	0	0	0	0
18.25376	0.05830227	-0.1649069	0	0	0	0
18.2705	0.05830227	-0.1649069	0	0	0	0
18.28689	0.05830227	-0.1649069	0	0	0	0
18.30346	0.05830227	-0.1649069	0	0	0	0
18.32003	0.05830227	-0.1649069	0	0	0	0
18.33659	0.05830227	-0.1649069	0	0	0	0
18.35348	0.05830227	-0.1649069	0	0	0	0
18.36973	0.05830227	-0.1649069	0	0	0	0
18.38629	0.05830227	-0.1649069	0	0	0	0
18.40286	0.05830227	-0.1649069	0	0	0	0
18.41943	0.05830227	-0.1649069	0	0	0	0
18.43599	0.05830227	-0.1649069	0	0	0	0
18.45309	0.05830227	-0.1649069	0	0	0	0
18.46913	0.05827605	-0.164887	-0.001635153	0.001246804	-0.04935185	0.03763079
18.48569	0.05827605	-0.164887	0	0	0.05014571	-0.0382361
18.50226	0.05827605	-0.164887	0	0	0	0
18.51914	0.05835472	-0.164627	0.004661544	0.0154034	0.1393779	0.4605542
18.53539	0.05835472	-0.164627	0	0	-0.1406938	-0.4649023
18.55251	0.05835472	-0.164627	0	0	0	0
18.56853	0.06577341	-0.1586954	0.4630939	0.3702617	13.97781	11.17581
18.58509	0.06577341	-0.1586954	0	0	-14.21015	-11.36157
18.60166	0.06577341	-0.1586954	0	0	0	0
18.61845	0.1052153	-0.1284913	2.348808	1.79869	70.4089	53.91832
18.63479	0.1052153	-0.1284913	0	0	-70.89124	-54.28769
18.65136	0.1052153	-0.1284913	0	0	0	0
18.66792	0.1428364	-0.09931464	2.271339	1.761513	68.55703	53.1687
18.68449	0.1428364	-0.09931464	0	0	-68.55309	-53.16563
18.70106	0.1428364	-0.09931464	0	0	0	0
18.71762	0.1644744	-0.07740296	1.306219	1.322744	39.42632	39.92509
18.93296	0.1644744	-0.07740296	0	0	-5.632702	-5.703959
18.95801	0.1644744	-0.07740296	0	0	0	0
18.98277	0.1951425	-0.01281425	1.238367	2.608063	24.85875	52.35378
18.99934	0.1951425	-0.01281425	0	0	-29.95989	-63.09704
19.01591	0.1956996	-0.01239854	0.03363198	0.02509484	1.015015	0.7573639
19.03248	0.1956996	-0.01239854	0	0	-1.015074	-0.7574075
19.04904	0.1956996	-0.01239854	0	0	0	0
19.06561	0.1957756	-0.01237965	0.004584953	0.001140616	0.1383821	0.03442584
19.08218	0.1957756	-0.01237965	0	0	-0.1383821	-0.03442584
19.09874	0.1957756	-0.01237965	0	0	0	0
19.11531	0.1958009	-0.01236076	0.001529041	0.001140428	0.04614655	0.0344182
19.13188	0.1958009	-0.01236076	0	0	-0.04614655	-0.0344182
19.14845	0.1958009	-0.01236076	0	0	0	0
19.1682	0.1958516	-0.01232297	0.002562935	0.001912726	0.07055849	0.05265801
19.18477	0.1958516	-0.01232297	0	0	-0.07055849	-0.05265801
19.20134	0.1958516	-0.01232297	0	0	0	0
19.2179	0.1958516	-0.01228518	0	0.002280857	0	0.0688364
19.23447	0.1958516	-0.01228518	0	0	0	-0.0688364
19.25104	0.1958516	-0.01228518	0	0	0	0
19.2676	0.1960288	-0.01200179	0.01069822	0.01710767	0.3228916	0.5163401
19.28417	0.1960288	-0.01200179	0	0	-0.3228916	-0.5163401
19.30074	0.1960288	-0.01200179	0	0	0	0
19.3173	0.1961047	-0.01179398	0.004584425	0.0125432	0.1383582	0.3785544
19.33387	0.1961047	-0.01179398	0	0	-0.1383662	-0.3785762
19.35088	0.1961047	-0.01179398	0	0	0	0
19.367	0.1961554	-0.0115673	0.003140899	0.01406143	0.09479797	0.4243991
19.38357	0.1961554	-0.0115673	0	0	-0.09608679	-0.430169
19.40014	0.1961554	-0.0115673	0	0	0	0
19.4167	0.1980028	-0.009244715	0.111535	0.1402236	3.366134	4.231956
19.43327	0.1980028	-0.009244715	0	0	-3.366328	-4.2322
19.44984	0.1980028	-0.009244715	0	0	0	0
19.4664	0.1968135	0.004449621	-0.07180051	0.8267822	-2.167193	24.95521
19.48297	0.1968135	0.004449621	0	0	2.167068	-24.95377
19.4998	0.1968135	0.004449621	0	0	0	0
19.51611	0.1937999	0.006685859	-0.1847972	0.1371266	-5.577189	4.138489
19.53288	0.1937999	0.006685859	0	0	5.585549	-4.144692
19.5496	0.1937999	0.006685859	0	0	0	0
19.5658	0.1938505	0.006573142	0.003127023	-0.00695489	0.09499163	-0.2112733
19.58237	0.1938505	0.006573142	0	0	-0.09540068	0.212183
19.59894	0.1938505	0.006573142	0	0	0	0
19.6155	0.1938252	0.006554356	-0.001529393	-0.001134225	-0.04616515	-0.03423689
19.63207	0.1938252	0.006554356	0	0	0.04615983	0.03423295
19.64867	0.1938252	0.006554356	0	0	0	0
19.6652	0.1937999	0.006573142	-0.001533117	0.001136319	-0.04627757	0.03430009
19.68177	0.1937999	0.006573142	0	0	0.04631223	-0.03432577
19.6989	0.1937999	0.006573142	0	0	0	0
19.71563	0.1937999	0.006573142	0	0	0	0
19.73221	0.1937999	0.006573142	0	0	0	0
19.74891	0.1937999	0.006573142	0	0	0	0
19.76708	0.1937999	0.006573142	0	0	0	0
19.78365	0.1937999	0.006573142	0	0	0	0
19.80818	0.1937999	0.006573142	0	0	0	0
19.82475	0.1937239	0.006516783	-0.004588022	-0.003401863	-0.1116475	-0.08278283
19.84132	0.1937239	0.006516783	0	0	0.1384588	0.1026625
19.85788	0.1937239	0.006516783	0	0	0	0
19.8745	0.1937239	0.006479209	0	-0.002261447	0	-0.06815252
19.89102	0.1937239	0.006479209	0	0	0	0.06825453
19.90758	0.1937239	0.006479209	0	0	0	0
19.92415	0.1936732	0.006441636	-0.003059686	-0.002268478	-0.09235214	-0.06847069
19.94071	0.1936732	0.006441636	0	0	0.09235214	0.06847069
19.95732	0.1936732	0.006441636	0	0	0	0
19.97385	0.1936732	0.006441636	0	0	0	0
19.99042	0.1936732	0.006441636	0	0	0	0
20.00708	0.1936732	0.006441636	0	0	0	0
20.02355	0.1936478	0.006422848	-0.001539333	-0.001140954	-0.04645984	-0.03443604
20.04013	0.1936478	0.006422848	0	0	0.04657782	0.03452348
20.05668	0.1936478	0.006422848	0	0	0	0
20.17191	0.1915944	0.003735217	-0.01782141	-0.0233251	-0.1352413	-0.1770072
20.18848	0.1915944	0.003735217	0	0	0.1352198	0.176979
20.20504	0.1745221	-0.01064184	-1.030841	-0.8681008	-31.11265	-26.20084
20.22182	0.1745221	-0.01064184	0	0	30.92218	26.04044
20.23818	0.1745221	-0.01064184	0	0	0	0
20.25474	0.1577827	-0.04245172	-1.010621	-1.92049	-30.69497	-58.32985
20.27131	0.1577827	-0.04245172	0	0	30.50236	57.96384
20.28788	0.1577827	-0.04245172	0	0	0	0
20.30444	0.146135	-0.09142131	-0.7030593	-2.95581	-21.21837	-89.20654
20.32125	0.146135	-0.09142131	0	0	21.06318	88.55405
20.33758	0.146135	-0.09142131	0	0	0	0
20.35419	0.1067245	-0.1407332	-2.371993	-2.967929	-72.01804	-90.11176
20.37071	0.1067245	-0.1407332	0	0	71.59102	89.57745
20.38728	0.1067245	-0.1407332	0	0	0	0
20.40384	0.09200269	-0.1481678	-0.8886116	-0.4487537	-26.81835	-13.54342
20.42041	0.09200269	-0.1481678	0	0	26.81835	13.54342
20.43698	0.09200269	-0.1481678	0	0	0	0
20.45354	0.08952323	-0.1462822	-0.1496948	0.1138426	-4.518317	3.436173
20.47011	0.08952323	-0.1462822	0	0	4.518317	-3.436173
20.48668	0.08952323	-0.1462822	0	0	0	0
20.50331	0.08944491	-0.1462227	-0.004709542	0.003579646	-0.1418648	0.1078291
20.51981	0.08944491	-0.1462227	0	0	0.1421343	-0.1080339
20.53638	0.08944491	-0.1462227	0	0	0	0
20.55294	0.08944491	-0.1462227	0	0	0	0
20.56968	0.08944491	-0.1462227	0	0	0	0
20.58689	0.08944491	-0.1462227	0	0	0	0
20.60264	0.08941881	-0.1462425	-0.001657484	-0.001260142	-0.05027764	-0.03822479
20.61921	0.08941881	-0.1462425	0	0	0.05128349	0.03898951
20.63584	0.08941881	-0.1462425	0	0	0	0
20.65234	0.08934049	-0.146302	-0.004746561	-0.003606881	-0.1432762	-0.1088747
20.669	0.08934049	-0.146302	0	0	0.1431526	0.1087807
20.68618	0.08934049	-0.146302	0	0	0	0
20.70204	0.08920996	-0.1462028	-0.008229148	0.006253946	-0.2490443	0.1892674
20.71861	0.08920996	-0.1462028	0	0	0.2537311	-0.1928293
20.73518	0.08920996	-0.1462028	0	0	0	0
20.75174	0.08905331	-0.1462425	-0.009457497	-0.002395749	-0.2854771	-0.07231635
20.76831	0.08905331	-0.1462425	0	0	0.2854607	0.07231218
20.78487	0.08905331	-0.1462425	0	0	0	0
20.80144	0.08699043	-0.1478104	-0.1245157	-0.09463954	-3.75789	-2.856227
20.81801	0.08699043	-0.1478104	0	0	3.75789	2.856227
20.83458	0.08699043	-0.1478104	0	0	0	0
20.85114	0.08636358	-0.1475722	-0.03783657	0.01438018	-1.14191	0.4339947
20.86789	0.08636358	-0.1475722	0	0	1.135894	-0.4317085
20.88428	0.08636358	-0.1475722	0	0	0	0
20.90084	0.07881011	-0.141842	-0.455981	0.3459161	-13.8356	10.49596
20.91741	0.07881011	-0.141842	0	0	13.76233	-10.44037
20.93398	0.07881011	-0.141842	0	0	0	0
20.95054	0.06338865	-0.1302449	-0.9309487	0.7000837	-28.09932	21.131
20.96711	0.06338865	-0.1302449	0	0	28.0977	-21.12978
20.98368	0.06338865	-0.1302449	0	0	0	0
21.00032	0.05730561	-0.1257551	-0.3655317	0.2697887	-11.00706	8.124001
21.01681	0.05730561	-0.1257551	0	0	11.0324	-8.142707
21.03338	0.05730561	-0.1257551	0	0	0	0
21.05024	0.05727938	-0.1257355	-0.001555651	0.001166572	-0.04653444	0.03489587
21.06651	0.05727938	-0.1257355	0	0	0.04694964	-0.03520723
21.08308	0.05727938	-0.1257355	0	0	0	0
21.09964	0.05725315	-0.1257158	-0.001583597	0.001187529	-0.04779854	0.03584382
21.11621	0.05725315	-0.1257158	0	0	0.04779579	-0.03584176
21.1334	0.05725315	-0.1257158	0	0	0	0
21.15298	0.05714823	-0.1256371	-0.005359296	0.004019662	-0.1457599	0.1093251
21.17005	0.05714823	-0.1256371	0	0	0.1462379	-0.1096836
21.18662	0.05714823	-0.1256371	0	0	0	0
21.20397	0.05554806	-0.1244373	-0.09226319	0.06917623	-2.720306	2.039606
21.22054	0.05554806	-0.1244373	0	0	2.720612	-2.039835
21.24026	0.05554806	-0.1244373	0	0	0	0
21.25687	0.03509085	-0.1092051	-1.231114	0.9166747	-33.87878	25.22578
21.27339	0.03509085	-0.1092051	0	0	37.15297	-27.66371
21.28996	0.03509085	-0.1092051	0	0	0	0
21.30652	0.02194384	-0.09945094	-0.793555	0.5887635	-23.95229	17.77097
21.32309	0.02194384	-0.09945094	0	0	23.94816	-17.7679
21.33966	0.02194384	-0.09945094	0	0	0	0
21.35622	0.02102322	-0.09876952	-0.05556917	0.04113075	-1.677274	1.241471
21.37279	0.02102322	-0.09876952	0	0	1.677081	-1.241329
21.38936	0.02102322	-0.09876952	0	0	0	0
21.40593	0.02099691	-0.09878898	-0.001587729	-0.001175113	-0.04791776	-0.03546498
21.42249	0.02099691	-0.09878898	0	0	0.04791776	0.03546498
21.43912	0.02099691	-0.09878898	0	0	0	0
21.45563	0.02099691	-0.09878898	0	0	0	0
21.47219	0.02099691	-0.09878898	0	0	0	0
21.48888	0.02099691	-0.09878898	0	0	0	0
21.50533	0.02102322	-0.09880845	0.0015997	-0.00118352	0.04827905	-0.0357187
21.52189	0.02102322	-0.09880845	0	0	-0.04846317	0.03585492
21.53862	0.02102322	-0.09880845	0	0	0	0
21.55503	0.02107583	-0.09884738	0.003207213	-0.002373728	0.09679946	-0.07164338
21.57159	0.02107583	-0.09884738	0	0	-0.09727544	0.07199568
21.58816	0.02107583	-0.09884738	0	0	0	0
21.69564	0.02115474	-0.09894472	0.0007342286	-0.0009056976	0.005919078	-0.007301398
21.7122	0.02115474	-0.09894472	0	0	-0.005919078	0.007301398
21.73047	0.02112843	-0.09896419	-0.001440014	-0.001065786	-0.04133943	-0.03059622
21.7471	0.02112843	-0.09896419	0	0	0.04126938	0.03054437
21.76361	0.02112843	-0.09896419	0	0	0	0
21.78121	0.02107583	-0.09904207	-0.002988626	-0.004423895	-0.08760488	-0.1296766
21.79778	0.02107583	-0.09904207	0	0	0.08744843	0.129445
21.81484	0.02107583	-0.09904207	0	0	0	0
21.83091	0.02133887	-0.09966514	0.01637087	-0.03877871	0.4941876	-1.170613
21.84748	0.02133887	-0.09966514	0	0	-0.5016394	1.188265
21.86405	0.02133887	-0.09966514	0	0	0	0
21.88062	0.02062865	-0.1017106	-0.04286858	-0.1234669	-1.293702	-3.726024
21.89718	0.02062865	-0.1017106	0	0	1.293776	3.726239
21.91375	0.02062865	-0.1017106	0	0	0	0
21.93032	-0.004842068	-0.1210379	-1.537593	-1.166729	-46.40731	-35.21397
21.94689	-0.004842068	-0.1210379	0	0	46.39663	35.20586
21.96345	-0.004842068	-0.1210379	0	0	0	0
21.98018	-0.03440747	-0.1430899	-1.766874	-1.317864	-53.06776	-39.58183
21.99676	-0.03440747	-0.1430899	0	0	53.05256	39.5705
22.01333	-0.03440747	-0.1430899	0	0	0	0
22.02989	-0.05182198	-0.1563829	-1.052111	-0.803103	-31.75643	-24.24049
22.04645	-0.05182198	-0.1563829	0	0	31.76741	24.24887
22.06302	-0.05182198	-0.1563829	0	0	0	0
22.07959	-0.05714823	-0.1602318	-0.32153	-0.2323474	-9.704353	-7.012663
22.09615	-0.05714823	-0.1602318	0	0	9.704353	7.012663
22.11272	-0.05714823	-0.1602318	0	0	0	0
22.12929	-0.05649246	-0.1594934	0.03958693	0.04457308	1.194805	1.345296
22.14585	-0.05649246	-0.1594934	0	0	-1.194805	-1.345296
22.16242	-0.05649246	-0.1594934	0	0	0	0
22.17899	-0.0563613	-0.1594735	0.007917746	0.001204483	0.2389718	0.03635347
22.19555	-0.0563613	-0.1594735	0	0	-0.2389718	-0.03635347
22.21212	-0.0563613	-0.1594735	0	0	0	0
22.35339	-0.05602027	-0.159254	0.002414021	0.001553513	0.0152944	0.009842521
22.37719	-0.05602027	-0.159254	0	0	-0.01462409	-0.009411153
22.40058	-0.05570547	-0.1591343	0.01346129	0.005118491	0.2852705	0.1084706
22.41715	-0.05570547	-0.1591343	0	0	-0.3368939	-0.1280998
22.43376	-0.05560053	-0.1592141	0.006317324	-0.004803759	0.1903833	-0.1447694
22.45028	-0.05560053	-0.1592141	0	0	-0.1906792	0.1449944
22.46685	-0.05560053	-0.1592141	0	0	0	0
22.48341	-0.05481346	-0.1584561	0.047513	0.04575777	1.434028	1.381052
22.5003	-0.05481346	-0.1584561	0	0	-1.420292	-1.367823
22.51654	-0.05481346	-0.1584561	0	0	0	0
22.53311	-0.04084569	-0.14787	0.8431932	0.6390535	25.69911	19.47728
22.54968	-0.04084569	-0.14787	0	0	-25.44469	-19.28445
22.56625	-0.04084569	-0.14787	0	0	0	0
22.58282	-0.02228578	-0.1339728	1.120278	0.8388346	33.81202	25.31754
22.59938	-0.02228578	-0.1339728	0	0	-33.81396	-25.31899
22.61595	-0.02228578	-0.1339728	0	0	0	0
22.63251	-0.01599864	-0.1293778	0.3795367	0.2773883	11.4551	8.372077
22.64908	-0.01599864	-0.1293778	0	0	-11.4551	-8.372077
22.66565	-0.01599864	-0.1293778	0	0	0	0
22.68221	-0.01457791	-0.1305208	0.08576473	-0.06900097	2.588534	-2.082573
22.69897	-0.01457791	-0.1305208	0	0	-2.574012	2.07089
22.71539	-0.01457791	-0.1305208	0	0	0	0
22.73192	-0.01368336	-0.13127	0.05410155	-0.04530782	1.641481	-1.374673
22.74848	-0.01368336	-0.13127	0	0	-1.634953	1.369205
22.76918	-0.01368336	-0.13127	0	0	0	0
22.78574	-0.01368336	-0.13127	0	0	0	0
22.80231	-0.01368336	-0.13127	0	0	0	0
22.81888	-0.01368336	-0.13127	0	0	0	0
22.83544	-0.01373598	-0.1311911	-0.003176611	0.004761262	-0.09587584	0.1437035
22.85201	-0.01373598	-0.1311911	0	0	0.09587584	-0.1437035
22.86864	-0.01373598	-0.1311911	0	0	0	0
22.88515	-0.01376229	-0.1311714	-0.001594364	0.00119463	-0.04811522	0.03605193
22.90171	-0.01376229	-0.1311714	0	0	0.04821235	-0.0361247
22.91828	-0.01376229	-0.1311714	0	0	0	0
22.93484	-0.0137886	-0.1311517	-0.001588488	0.001190228	-0.0479462	0.03592528
23.20841	-0.0137886	-0.1311517	0	0	0.005475044	-0.004102359
23.28098	-0.0137886	-0.1311517	0	0	0	0
23.34825	-0.01376229	-0.1312108	0.0003910985	-0.000879352	0.002796812	-0.006288396
23.36482	-0.01376229	-0.1312108	0	0	-0.004664746	0.01048829
23.38138	-0.01376229	-0.1312108	0	0	0	0
23.39795	-0.01376229	-0.1312108	0	0	0	0
23.41452	-0.01376229	-0.1312108	0	0	0	0
23.43108	-0.0137886	-0.1312305	-0.001588306	-0.001190091	-0.04794068	-0.03592114
23.44765	-0.0137886	-0.1312305	0	0	0.04793792	0.03591907
23.46433	-0.0137886	-0.1312305	0	0	0	0
23.48088	-0.0137886	-0.1312305	0	0	0	0
23.49735	-0.0137886	-0.1312305	0	0	0	0
23.51392	-0.0137886	-0.1312305	0	0	0	0
23.53128	-0.01376229	-0.1312502	0.001516038	-0.001135942	0.04468661	-0.03348293
23.54784	-0.01376229	-0.1312502	0	0	-0.04469164	0.03348669
23.56442	-0.01376229	-0.1312502	0	0	0	0
23.58098	-0.0137886	-0.1312305	-0.001589037	0.001190639	-0.04796	0.03593563
23.59754	-0.0137886	-0.1312305	0	0	0.04797105	-0.0359439
23.61411	-0.0137886	-0.1312305	0	0	0	0
23.63084	-0.0137886	-0.1312305	0	0	0	0
23.64725	-0.0137886	-0.1312305	0	0	0	0
23.66388	-0.0137886	-0.1312305	0	0	0	0
23.68038	-0.0137886	-0.1312305	0	0	0	0
23.69695	-0.0137886	-0.1312305	0	0	0	0
23.71351	-0.0137886	-0.1312305	0	0	0	0
23.73008	-0.0137886	-0.1312305	0	0	0	0
23.74665	-0.0137886	-0.1312305	0	0	0	0
23.76322	-0.0137886	-0.1312305	0	0	0	0
23.7801	-0.0137886	-0.13127	0	-0.002335541	0	-0.06982359
23.79635	-0.0137886	-0.13127	0	0	0	0.07049489
23.81292	-0.0137886	-0.13127	0	0	0	0
23.82948	-0.0137886	-0.13127	0	0	0	0
23.84605	-0.0137886	-0.13127	0	0	0	0
23.86277	-0.0137886	-0.13127	0	0	0	0
23.87918	-0.0137886	-0.13127	0	0	0	0
23.89575	-0.0137886	-0.13127	0	0	0	0
23.91232	-0.0137886	-0.13127	0	0	0	0
23.92888	-0.0137886	-0.13127	0	0	0	0
23.94545	-0.0137886	-0.13127	0	0	0	0
23.96227	-0.0137886	-0.13127	0	0	0	0
23.97858	-0.0137886	-0.13127	0	0	0	0
23.99515	-0.0137886	-0.13127	0	0	0	0
24.01171	-0.0137886	-0.13127	0	0	0	0
24.02839	-0.0137886	-0.13127	0	0	0	0
24.04485	-0.0137886	-0.13127	0	0	0	0
24.06142	-0.0137886	-0.13127	0	0	0	0
24.07798	-0.0137886	-0.13127	0	0	0	0
24.09455	-0.0137886	-0.13127	0	0	0	0
24.11112	-0.0137886	-0.13127	0	0	0	0
24.12768	-0.0137886	-0.13127	0	0	0	0
24.14425	-0.0137886	-0.13127	0	0	0	0
24.16099	-0.0137886	-0.13127	0	0	0	0
24.17738	-0.01381491	-0.1312897	-0.001605311	-0.001203741	-0.04845395	-0.03633317
24.19395	-0.01381491	-0.1312897	0	0	0.04870631	0.03652241
24.21052	-0.01381491	-0.1312897	0	0	0	0
24.22709	-0.01381491	-0.1312897	0	0	0	0
24.24365	-0.01381491	-0.1312897	0	0	0	0
24.26026	-0.01381491	-0.1312897	0	0	0	0
24.27692	-0.0137886	-0.1313094	0.001579756	-0.001183685	0.04748853	-0.03558236
24.29335	-0.0137886	-0.1313094	0	0	-0.0477431	0.03577311
24.30992	-0.0137886	-0.1313094	0	0	0	0
24.32648	-0.01381491	-0.1312897	-0.001588488	0.001190228	-0.0479462	0.03592528
24.34305	-0.01381491	-0.1312897	0	0	0.04794344	-0.03592321
24.3597	-0.01381491	-0.1312897	0	0	0	0
24.37624	-0.01381491	-0.1312897	0	0	0	0
24.39275	-0.01381491	-0.1312897	0	0	0	0
24.40932	-0.01381491	-0.1312897	0	0	0	0
24.42588	-0.01381491	-0.1312897	0	0	0	0
24.44246	-0.01381491	-0.1312897	0	0	0	0
24.45901	-0.01381491	-0.1312897	0	0	0	0
24.47558	-0.0137886	-0.1313094	0.001588123	-0.001189954	0.04794068	-0.03592114
24.49216	-0.0137886	-0.1313094	0	0	-0.04792136	0.03590667
24.50872	-0.0137886	-0.1313094	0	0	0	0
24.52528	-0.0137886	-0.1313094	0	0	0	0
24.54185	-0.0137886	-0.1313094	0	0	0	0
24.55931	-0.0137886	-0.1313094	0	0	0	0
24.57531	-0.0137886	-0.1313094	0	0	0	0
24.59188	-0.0137886	-0.1313094	0	0	0	0
24.60908	-0.0137886	-0.1313094	0	0	0	0
24.62501	-0.0137886	-0.1313094	0	0	0	0
24.64158	-0.0137886	-0.1313094	0	0	0	0
24.65815	-0.0137886	-0.1313094	0	0	0	0
24.67478	-0.0137886	-0.1313094	0	0	0	0
24.69142	-0.0137886	-0.1313094	0	0	0	0
24.70785	-0.0137886	-0.1313094	0	0	0	0
24.72441	-0.0137886	-0.1313094	0	0	0	0
24.74098	-0.0137886	-0.1313094	0	0	0	0
24.75755	-0.0137886	-0.1313094	0	0	0	0
24.77436	-0.0137886	-0.1313094	0	0	0	0
24.79068	-0.0137886	-0.1313094	0	0	0	0
24.80725	-0.0137886	-0.1313094	0	0	0	0
24.94771	-0.0137886	-0.1313094	0	0	0	0
24.96428	-0.0137886	-0.1313094	0	0	0	0
24.98084	-0.0137886	-0.1313094	0	0	0	0
24.99741	-0.0137886	-0.1313094	0	0	0	0
25.01398	-0.0137886	-0.1313094	0	0	0	0
25.03055	-0.0137886	-0.1313094	0	0	0	0
25.04711	-0.0137886	-0.1313094	0	0	0	0
25.06368	-0.0137886	-0.1313094	0	0	0	0
25.08066	-0.01376229	-0.1313291	0.00154924	-0.00116082	0.04617669	-0.03459942
25.09681	-0.01376229	-0.1313291	0	0	-0.04675885	0.03503562
25.11341	-0.01376229	-0.1313291	0	0	0	0
25.12995	-0.01376229	-0.1313291	0	0	0	0
25.14651	-0.01376229	-0.1313291	0	0	0	0
25.16308	-0.01376229	-0.1313291	0	0	0	0
25.17965	-0.01376229	-0.1313291	0	0	0	0
25.19622	-0.01376229	-0.1313291	0	0	0	0
25.21278	-0.01376229	-0.1313291	0	0	0	0
25.22938	-0.01376229	-0.1313291	0	0	0	0
25.24591	-0.01376229	-0.1313291	0	0	0	0
25.26269	-0.01376229	-0.1313291	0	0	0	0
25.281	-0.01376229	-0.1313291	0	0	0	0
25.38641	-0.01376229	-0.1313291	0	0	0	0
25.40297	-0.01376229	-0.1313291	0	0	0	0
25.41954	-0.01376229	-0.1313291	0	0	0	0
25.43611	-0.01376229	-0.1313291	0	0	0	0
25.45267	-0.01376229	-0.1313291	0	0	0	0
25.46924	-0.01373598	-0.1313488	0.001588123	-0.001189954	0.04792964	-0.03591287
25.48581	-0.01373598	-0.1313488	0	0	-0.04792964	0.03591287
25.50238	-0.01373598	-0.1313488	0	0	0	0
25.51894	-0.01370967	-0.1313686	0.001588306	-0.00119099	0.04793792	-0.03594622
25.53551	-0.01370967	-0.1313686	0	0	-0.04793792	0.03594622
25.55208	-0.01370967	-0.1313686	0	0	0	0
25.56864	-0.01370967	-0.1313686	0	0	0	0
25.58521	-0.01370967	-0.1313686	0	0	0	0
25.60178	-0.01370967	-0.1313686	0	0	0	0
25.61834	-0.01370967	-0.1313686	0	0	0	0
25.63494	-0.01370967	-0.1313686	0	0	0	0
25.65148	-0.01370967	-0.1313686	0	0	0	0
25.66813	-0.01370967	-0.1313686	0	0	0	0
25.68487	-0.01370967	-0.1313686	0	0	0	0
25.70145	-0.01370967	-0.1313686	0	0	0	0
25.71778	-0.01370967	-0.1313686	0	0	0	0
25.73431	-0.01370967	-0.1313686	0	0	0	0
25.75125	-0.01370967	-0.1313686	0	0	0	0
25.76744	-0.01370967	-0.1313686	0	0	0	0
25.78401	-0.01370967	-0.1313686	0	0	0	0
25.80058	-0.01370967	-0.1313686	0	0	0	0
25.81714	-0.01370967	-0.1313686	0	0	0	0
25.83371	-0.01370967	-0.1313686	0	0	0	0
25.85106	-0.01370967	-0.1313686	0	0	0	0
25.86716	-0.01370967	-0.1313686	0	0	0	0
25.8839	-0.01370967	-0.1313686	0	0	0	0
25.89998	-0.01370967	-0.1313686	0	0	0	0
25.91679	-0.01370967	-0.1313686	0	0	0	0
25.93344	-0.01370967	-0.1313686	0	0	0	0
25.95007	-0.01370967	-0.1313686	0	0	0	0
25.96624	-0.01370967	-0.1313686	0	0	0	0
25.98281	-0.01370967	-0.1313686	0	0	0	0
25.99937	-0.01370967	-0.1313686	0	0	0	0
26.01594	-0.01370967	-0.1313686	0	0	0	0
26.03251	-0.01370967	-0.1313686	0	0	0	0
26.04907	-0.01370967	-0.1313686	0	0	0	0
26.06564	-0.01370967	-0.1313686	0	0	0	0
26.08221	-0.01370967	-0.1313686	0	0	0	0
26.09878	-0.01370967	-0.1313686	0	0	0	0
26.11534	-0.01370967	-0.1313686	0	0	0	0
26.13193	-0.01370967	-0.1313686	0	0	0	0
26.14869	-0.01370967	-0.1313686	0	0	0	0
26.16504	-0.01370967	-0.1313686	0	0	0	0
26.33948	-0.01370967	-0.1313686	0	0	0	0
26.35669	-0.01370967	-0.1313686	0	0	0	0
26.37683	-0.01373598	-0.1314277	-0.001306538	-0.002937642	-0.03498659	-0.07866441
26.39339	-0.01373598	-0.1314277	0	0	0.03559379	0.08002964
26.40996	-0.01373598	-0.1314277	0	0	0	0
26.42653	-0.01373598	-0.1314277	0	0	0	0
26.44309	-0.01373598	-0.1314277	0	0	0	0
26.45966	-0.01373598	-0.1314277	0	0	0	0
26.47623	-0.01373598	-0.1314277	0	0	0	0
26.49279	-0.01373598	-0.1314277	0	0	0	0
26.50936	-0.01384122	-0.1315066	-0.006353954	-0.00476181	-0.1917848	-0.1437283
26.52593	-0.01384122	-0.1315066	0	0	0.1917737	0.14372
26.54249	-0.01384122	-0.1315066	0	0	0	0
26.55906	-0.01360442	-0.1321969	0.01429475	-0.04167116	0.4314661	-1.257783
26.57562	-0.01360442	-0.1321969	0	0	-0.4314412	1.257711
26.59256	-0.01360442	-0.1321969	0	0	0	0
26.60876	0.01594602	-0.1589149	1.824846	-1.649931	55.07713	-49.79788
26.62532	0.01594602	-0.1589149	0	0	-55.70242	50.36324
26.6419	0.01594602	-0.1589149	0	0	0	0
26.65846	0.06087207	-0.2190824	2.712367	-3.632559	81.85468	-109.6245
26.67503	0.06087207	-0.2190824	0	0	-81.8641	109.6372
26.6916	0.06087207	-0.2190824	0	0	0	0
26.70816	0.06275958	-0.2735726	0.1139564	-3.289791	3.439608	-99.29752
26.72473	0.06275958	-0.2735726	0	0	-3.439608	99.29752
26.74185	0.06275958	-0.2735726	0	0	0	0
26.75786	0.06008548	-0.3036573	-0.1670634	-1.879532	-5.042274	-56.72765
26.77445	0.06008548	-0.3036573	0	0	5.125781	57.66713
26.791	0.06008548	-0.3036573	0	0	0	0
26.80756	0.07692684	-0.320986	1.016781	-1.046206	30.70594	-31.59455
26.82439	0.07692684	-0.320986	0	0	-30.44813	31.32928
26.84069	0.07692684	-0.320986	0	0	0	0
26.85726	0.09833966	-0.3395594	1.292629	-1.121218	39.32629	-34.11137
26.87398	0.09833966	-0.3395594	0	0	-38.83279	33.68332
26.8904	0.09833966	-0.3395594	0	0	0	0
26.90696	0.1061001	-0.3476256	0.4686888	-0.4871595	14.21296	-14.77308
26.92353	0.1061001	-0.3476256	0	0	-14.14831	14.70589
26.9401	0.1061001	-0.3476256	0	0	0	0
26.95666	0.08427361	-0.3658963	-1.318054	-1.103332	-39.78354	-33.30245
26.97335	0.08427361	-0.3658963	0	0	39.63295	33.17639
26.98979	0.08427361	-0.3658963	0	0	0	0
27.00685	0.06289063	-0.3840148	-1.253588	-1.062203	-37.42619	-31.71233
27.02292	0.06289063	-0.3840148	0	0	37.83555	32.05919
27.18359	0.06289063	-0.3840148	0	0	0	0
27.20684	0.06283821	-0.3839249	-0.002255406	0.003867143	-0.01226349	0.0210271
27.22341	0.06283821	-0.3839249	0	0	0.05664857	-0.09713023
27.24243	0.06283821	-0.3839249	0	0	0	0
27.259	0.06283821	-0.3839249	0	0	0	0
27.27556	0.06283821	-0.3839249	0	0	0	0
27.29223	0.06273337	-0.383835	-0.00629149	0.00539194	-0.1893326	0.162262
27.30869	0.06273337	-0.383835	0	0	0.1898885	-0.1627384
27.32526	0.06273337	-0.383835	0	0	0	0
27.34183	0.06262852	-0.3837452	-0.006330338	0.005424847	-0.191061	0.1637316
27.3584	0.06262852	-0.3837452	0	0	0.19105	-0.1637222
27.37496	0.06262852	-0.3837452	0	0	0	0
27.39153	0.06252366	-0.3836553	-0.00632888	0.005423598	-0.191028	0.1637034
27.40809	0.06252366	-0.3836553	0	0	0.191017	-0.1636939
27.42466	0.06252366	-0.3836553	0	0	0	0
27.44127	0.0623926	-0.383543	-0.007893946	0.00676515	-0.2379795	0.2039496
27.45779	0.0623926	-0.383543	0	0	0.2382535	-0.2041844
27.47437	0.0623926	-0.383543	0	0	0	0
27.49093	0.0622091	-0.3833858	-0.01107971	0.009492327	-0.3344054	0.2864955
27.50749	0.0622091	-0.3833858	0	0	0.3344632	-0.2865449
27.52406	0.0622091	-0.3833858	0	0	0	0
27.54063	0.06218288	-0.3833633	-0.001582697	0.001356662	-0.04776589	0.04094413
27.55762	0.06218288	-0.3833633	0	0	0.04715782	-0.04042291
27.57467	0.06218288	-0.3833633	0	0	0	0
27.59033	0.06218288	-0.3833633	0	0	0	0
27.60689	0.06218288	-0.3833633	0	0	0	0
27.62495	0.06218288	-0.3833633	0	0	0	0
27.64152	0.06218288	-0.3833633	0	0	0	0
27.65808	0.06218288	-0.3833633	0	0	0	0
27.67465	0.06218288	-0.3833633	0	0	0	0
27.69122	0.06218288	-0.3833633	0	0	0	0
27.70778	0.06218288	-0.3833633	0	0	0	0
27.72435	0.06218288	-0.3833633	0	0	0	0
27.74092	0.06218288	-0.3833633	0	0	0	0
27.75748	0.06218288	-0.3833633	0	0	0	0
27.77414	0.06218288	-0.3833633	0	0	0	0
27.79062	0.06218288	-0.3833184	0	0.002725333	0	0.08225544
27.80719	0.06218288	-0.3833184	0	0	0	-0.0824548
27.82376	0.06218288	-0.3833184	0	0	0	0
27.84032	0.06192074	-0.382555	-0.01582857	0.04609402	-0.4777896	1.391361
27.85689	0.06192074	-0.382555	0	0	0.4777071	-1.39112
27.87354	0.06192074	-0.382555	0	0	0	0
27.89044	0.05161202	-0.3718388	-0.6100156	0.6341281	-18.18007	18.89869
27.90659	0.05161202	-0.3718388	0	0	18.45919	-19.18884
27.92315	0.05161202	-0.3718388	0	0	0	0
27.93972	0.01920816	-0.334472	-1.956351	2.255986	-59.05639	68.10148
27.95629	0.01920816	-0.334472	0	0	59.04959	-68.09364
27.97294	0.01920816	-0.334472	0	0	0	0
27.98942	-0.005894668	-0.280498	-1.52363	3.275981	-45.98588	98.87498
28.00599	-0.005894668	-0.280498	0	0	46.10532	-99.13179
28.02304	-0.005894668	-0.280498	0	0	0	0
28.03912	0.0001842105	-0.2364394	0.378199	2.741115	11.41604	82.7413
28.05605	0.0001842105	-0.2364394	0	0	-11.45892	-83.05211
28.07277	0.0001842105	-0.2364394	0	0	0	0
28.09198	0.007657745	-0.2081421	0.3891047	1.473281	10.82876	41.0013
28.10864	0.007657745	-0.2081421	0	0	-10.84949	-41.0798
28.12545	0.007657745	-0.2081421	0	0	0	0
28.14211	0.002921044	-0.1988211	-0.2843365	0.559524	-8.496195	16.71901
28.15872	0.002921044	-0.1988211	0	0	8.545875	-16.81677
28.17482	0.002921044	-0.1988211	0	0	0	0
28.19142	-0.004131556	-0.1933451	-0.4247666	0.3298114	-12.98845	10.08493
28.20795	-0.004131556	-0.1933451	0	0	12.81948	-9.953727
28.22452	-0.004131556	-0.1933451	0	0	0	0
28.24151	-0.0181559	-0.1825753	-0.8251369	0.6336568	-24.58567	18.88035
28.25792	-0.0181559	-0.1825753	0	0	24.70642	-18.97308
28.27455	-0.0181559	-0.1825753	0	0	0	0
28.2946	-0.03156846	-0.1717571	-0.6688902	0.5395069	-18.23477	14.70762
28.31116	-0.03156846	-0.1717571	0	0	18.26611	-14.7329
28.32773	-0.03753499	-0.1604514	-0.3601409	0.6824155	-10.86907	20.59534
28.3443	-0.03753499	-0.1604514	0	0	10.86907	-20.59534
28.36087	-0.03753499	-0.1604514	0	0	0	0
28.3776	-0.03099008	-0.1289838	0.391179	1.880767	11.74697	56.47881
28.394	-0.03099008	-0.1289838	0	0	-11.80716	-56.76819
28.53321	-0.03099008	-0.1289838	0	0	0	0
28.55467	-0.01036805	-0.1116299	0.9611415	0.8088212	5.98211	5.034073
28.57124	-0.01036805	-0.1116299	0	0	-25.2779	-21.2719
28.5878	-0.01034174	-0.1116494	0.001588235	-0.001180959	0.04793303	-0.03564142
28.60437	-0.01034174	-0.1116494	0	0	-0.04793303	0.03564142
28.62094	-0.01034174	-0.1116494	0	0	0	0
28.6375	-0.01023648	-0.1117668	0.006353728	-0.007086122	0.1917559	-0.2138596
28.6544	-0.01023648	-0.1117668	0	0	-0.1898976	0.2117871
28.67083	-0.01023648	-0.1117668	0	0	0	0
28.6872	-0.01015755	-0.1118255	0.004821998	-0.003585394	0.1469835	-0.1092895
28.70377	-0.01015755	-0.1118255	0	0	-0.1463962	0.1088528
28.72034	-0.01015755	-0.1118255	0	0	0	0
28.73691	-0.01015755	-0.1118255	0	0	0	0
28.75347	-0.01015755	-0.1118255	0	0	0	0
28.77004	-0.01015755	-0.1118255	0	0	0	0
28.78661	-0.01021017	-0.1117864	-0.003176526	0.002361919	-0.09586776	0.07128284
28.80378	-0.01021017	-0.1117864	0	0	0.09416039	-0.07001332
28.81974	-0.01021017	-0.1117864	0	0	0	0
28.83631	-0.01023648	-0.1117668	-0.001588291	0.001180959	-0.04881996	0.03629963
28.85288	-0.01023648	-0.1117668	0	0	0.04793473	-0.03564142
28.86945	-0.01023648	-0.1117668	0	0	0	0
28.88601	-0.0102628	-0.1117473	-0.001588967	0.001181503	-0.04795787	0.0356599
28.90258	-0.0102628	-0.1117473	0	0	0.04796616	-0.03566606
28.91914	-0.0102628	-0.1117473	0	0	0	0
28.93571	-0.01023648	-0.1117668	0.001588235	-0.001180959	0.04793303	-0.03564142
28.95242	-0.01023648	-0.1117668	0	0	-0.04772972	0.03549024
28.96884	-0.01023648	-0.1117668	0	0	0	0
28.98541	-0.01021017	-0.1117864	0.001588291	-0.001180959	0.04814257	-0.03579596
29.00198	-0.01021017	-0.1117864	0	0	-0.04793473	0.03564142
29.01858	-0.01021017	-0.1117864	0	0	0	0
29.03511	-0.01018386	-0.111806	0.001592084	-0.001183821	0.04805196	-0.03572986
29.05168	-0.01018386	-0.111806	0	0	-0.04810735	0.03577104
29.06824	-0.01018386	-0.111806	0	0	0	0
29.0862	-0.01010492	-0.1118646	0.004395413	-0.003268207	0.1273043	-0.09465703
29.1029	-0.01010492	-0.1118646	0	0	-0.1268348	0.09430798
29.11934	-0.01010492	-0.1118646	0	0	0	0
29.13591	-0.00994704	-0.111982	0.009529579	-0.007086206	0.2887168	-0.2146901
29.15247	-0.00994704	-0.111982	0	0	-0.2876033	0.2138621
29.16904	-0.00994704	-0.111982	0	0	0	0
29.1858	-0.009815474	-0.112119	0.007850958	-0.00817307	0.2355728	-0.2452379
29.20218	-0.009815474	-0.112119	0	0	-0.236956	0.2466779
29.21875	-0.009815474	-0.112119	0	0	0	0
29.23535	-0.009789161	-0.1121386	0.001585133	-0.001179101	0.04778713	-0.03554647
29.25187	-0.009789161	-0.1121386	0	0	-0.04784766	0.03559149
29.26894	-0.009789161	-0.1121386	0	0	0	0
29.28899	-0.009789161	-0.1121386	0	0	0	0
29.30556	-0.009789161	-0.1121386	0	0	0	0
29.32213	-0.009789161	-0.1121386	0	0	0	0
29.3387	-0.009789161	-0.1121386	0	0	0	0
29.35526	-0.009789161	-0.1121386	0	0	0	0
29.37183	-0.009789161	-0.1121386	0	0	0	0
29.3884	-0.009789161	-0.1121386	0	0	0	0
29.40497	-0.009789161	-0.1121386	0	0	0	0
29.42153	-0.009789161	-0.1121386	0	0	0	0
29.4383	-0.009789161	-0.1121386	0	0	0	0
29.45467	-0.009789161	-0.1121386	0	0	0	0
29.47123	-0.009789161	-0.1121386	0	0	0	0
29.48812	-0.009789161	-0.1121386	0	0	0	0
29.50437	-0.009789161	-0.1121386	0	0	0	0
29.52093	-0.009789161	-0.1121386	0	0	0	0
29.5375	-0.009789161	-0.1121386	0	0	0	0
29.55412	-0.009789161	-0.1121386	0	0	0	0
29.57063	-0.009789161	-0.1121386	0	0	0	0
29.5872	-0.009789161	-0.1121386	0	0	0	0
29.60388	-0.009789161	-0.1121386	0	0	0	0
29.62033	-0.009789161	-0.1121386	0	0	0	0
29.6369	-0.009789161	-0.1121386	0	0	0	0
29.65347	-0.009789161	-0.1121386	0	0	0	0
29.67012	-0.009789161	-0.1121386	0	0	0	0
29.6866	-0.009789161	-0.1121386	0	0	0	0
29.70325	-0.009789161	-0.1121386	0	0	0	0
29.71974	-0.009789161	-0.1121386	0	0	0	0
29.7363	-0.009789161	-0.1121386	0	0	0	0
29.75323	-0.009789161	-0.1121386	0	0	0	0
29.76943	-0.009789161	-0.1121386	0	0	0	0
29.786	-0.009789161	-0.1121386	0	0	0	0
29.8033	-0.009789161	-0.1121386	0	0	0	0
29.81917	-0.009789161	-0.1121386	0	0	0	0
29.8357	-0.009789161	-0.1121386	0	0	0	0
29.85243	-0.009789161	-0.1121386	0	0	0	0
29.86884	-0.009815474	-0.1121581	-0.001603744	-0.001192492	-0.04840668	-0.03599361
29.8854	-0.009815474	-0.1121581	0	0	0.04863346	0.03616225
29.90197	-0.009815474	-0.1121581	0	0	0	0
29.91854	-0.009815474	-0.1121581	0	0	0	0
29.93511	-0.009815474	-0.1121581	0	0	0	0
29.95219	-0.009815474	-0.1121581	0	0	0	0
29.96824	-0.009815474	-0.1121581	0	0	0	0
29.98481	-0.009815474	-0.1121581	0	0	0	0
30.00137	-0.009815474	-0.1121581	0	0	0	0
30.01794	-0.009815474	-0.1121581	0	0	0	0
30.03456	-0.009815474	-0.1121581	0	0	0	0
30.05183	-0.009815474	-0.1121581	0	0	0	0
30.06764	-0.009815474	-0.1121581	0	0	0	0
30.08421	-0.009815474	-0.1121581	0	0	0	0
30.10077	-0.009815474	-0.1121581	0	0	0	0
30.11785	-0.009841788	-0.1121777	-0.001541269	-0.001145996	-0.04581668	-0.03406657
30.13437	-0.009841788	-0.1121777	0	0	0.04587911	0.03411299
30.15096	-0.009841788	-0.1121777	0	0	0	0
30.17285	-0.009815474	-0.1121973	0.001201629	-0.0008938001	0.0312221	-0.02322374
30.18948	-0.009815474	-0.1121973	0	0	-0.03118809	0.02319845
30.20599	-0.009841788	-0.1121777	-0.001594349	0.001185915	-0.04811754	0.03579097
30.22256	-0.009841788	-0.1121777	0	0	0.04820633	-0.03585703
30.23927	-0.009841788	-0.1121777	0	0	0	0
30.25569	-0.009841788	-0.1121777	0	0	0	0
30.27275	-0.009841788	-0.1121777	0	0	0	0
30.28895	-0.009841788	-0.1121777	0	0	0	0
30.30539	-0.009841788	-0.1121777	0	0	0	0
30.32196	-0.009841788	-0.1121777	0	0	0	0
30.33855	-0.009841788	-0.1121777	0	0	0	0
30.35509	-0.009841788	-0.1121777	0	0	0	0
30.37192	-0.009841788	-0.1121777	0	0	0	0
30.38822	-0.009841788	-0.1121777	0	0	0	0
30.40479	-0.009815474	-0.1121973	0.001588108	-0.001181273	0.04831019	-0.03593428
30.42175	-0.009815474	-0.1121973	0	0	-0.04736213	0.03522908
30.43792	-0.009815474	-0.1121973	0	0	0	0
30.45449	-0.009815474	-0.1121973	0	0	0	0
30.47105	-0.009815474	-0.1121973	0	0	0	0
30.48762	-0.009815474	-0.1121973	0	0	0	0
30.50419	-0.009789161	-0.1122169	0.001588235	-0.001180959	0.04793579	-0.03564347
30.52076	-0.009789161	-0.1122169	0	0	-0.04793027	0.03563937
30.53732	-0.009789161	-0.1122169	0	0	0	0
30.55389	-0.009762848	-0.1122364	0.001588657	-0.001181231	0.04795129	-0.03565373
30.57046	-0.009762848	-0.1122364	0	0	-0.04794853	0.03565168
30.58702	-0.009762848	-0.1122364	0	0	0	0
30.60359	-0.009762848	-0.1122364	0	0	0	0
30.62038	-0.009762848	-0.1122364	0	0	0	0
30.63672	-0.009762848	-0.1122364	0	0	0	0
30.65342	-0.009762848	-0.1122364	0	0	0	0
30.66986	-0.009762848	-0.1122364	0	0	0	0
30.68642	-0.009762848	-0.1122364	0	0	0	0
30.70299	-0.009762848	-0.1122364	0	0	0	0
30.71956	-0.009762848	-0.1122364	0	0	0	0
30.73612	-0.009762848	-0.1122364	0	0	0	0
30.75269	-0.009762848	-0.1122364	0	0	0	0
30.76926	-0.009762848	-0.1122364	0	0	0	0
30.78582	-0.009762848	-0.1122364	0	0	0	0
30.80239	-0.009762848	-0.1122364	0	0	0	0
30.81896	-0.009762848	-0.1122364	0	0	0	0
30.83568	-0.009762848	-0.1122364	0	0	0	0
30.85209	-0.009762848	-0.1122364	0	0	0	0
30.86866	-0.009762848	-0.1122364	0	0	0	0
30.88561	-0.009762848	-0.1122364	0	0	0	0
30.90179	-0.009762848	-0.1122364	0	0	0	0
30.91835	-0.009762848	-0.1122364	0	0	0	0
30.93492	-0.009762848	-0.1122364	0	0	0	0
30.95149	-0.009762848	-0.1122364	0	0	0	0
30.96827	-0.009762848	-0.1122364	0	0	0	0
30.98462	-0.009762848	-0.1122364	0	0	0	0
31.00118	-0.009736534	-0.112256	0.001588657	-0.001181681	0.04825968	-0.0358967
31.01775	-0.009736534	-0.112256	0	0	-0.04794853	0.03566526
31.03432	-0.009736534	-0.112256	0	0	0	0
31.05491	-0.009736534	-0.1122951	0	-0.001900661	0	-0.0511547
31.07148	-0.009736534	-0.1122951	0	0	0	0.05114682
31.08805	-0.009710222	-0.1123147	0.001588235	-0.001180959	0.04793027	-0.03563937
31.10472	-0.009710222	-0.1123147	0	0	-0.0477845	0.03553098
31.12123	-0.009710222	-0.1123147	0	0	0	0
31.13775	-0.009604968	-0.112393	0.006371447	-0.004738826	0.1928903	-0.143464
31.15431	-0.009604968	-0.112393	0	0	-0.1925678	0.1432242
31.17109	-0.009604968	-0.112393	0	0	0	0
31.18745	-0.009447088	-0.1125104	0.009649673	-0.007176334	0.2912277	-0.2165822
31.20402	-0.009447088	-0.1125104	0	0	-0.2930496	0.2179371
31.22077	-0.009447088	-0.1125104	0	0	0	0
31.23759	-0.009420774	-0.11253	0.001563984	-0.001163328	0.04658171	-0.03464859
31.25439	-0.009420774	-0.11253	0	0	-0.04651037	0.03459552
31.27073	-0.009420774	-0.11253	0	0	0	0
31.28769	-0.00939446	-0.1125495	0.001551496	-0.001154039	0.04659624	-0.03465939
31.30426	-0.00939446	-0.1125495	0	0	-0.04627022	0.0344169
31.32082	-0.00939446	-0.1125495	0	0	0	0
31.44038	-0.009368147	-0.1125691	0.0002200935	-0.0001637108	0.001616932	-0.001202713
31.45923	-0.009368147	-0.1125691	0	0	-0.001590193	0.001182824
31.4758	-0.009368147	-0.1125691	0	0	0	0
31.49236	-0.009368147	-0.1125691	0	0	0	0
31.50893	-0.009368147	-0.1125691	0	0	0	0
31.5255	-0.009368147	-0.1125691	0	0	0	0
31.54217	-0.009368147	-0.1125691	0	0	0	0
31.55863	-0.009368147	-0.1125691	0	0	0	0
31.5752	-0.009368147	-0.1125691	0	0	0	0
31.59176	-0.009368147	-0.1125691	0	0	0	0
31.60833	-0.009368147	-0.1125691	0	0	0	0
31.6249	-0.009368147	-0.1125691	0	0	0	0
31.64147	-0.009368147	-0.1125691	0	0	0	0
31.65803	-0.009368147	-0.1125691	0	0	0	0
31.67459	-0.009341833	-0.1125887	0.001588474	-0.001181095	0.04794852	-0.03565168
31.74051	-0.009341833	-0.1125887	0	0	-0.01925858	0.01431954
31.75757	-0.009341833	-0.1125887	0	0	0	0
31.77413	-0.009210266	-0.1126865	0.007942315	-0.005907725	0.2362185	-0.1757062
31.79072	-0.009210266	-0.1126865	0	0	-0.2395892	0.1782134
31.80727	-0.009210266	-0.1126865	0	0	0	0
31.82384	-0.009183953	-0.1127061	0.001588291	-0.001180959	0.04795957	-0.0356599
31.8404	-0.009183953	-0.1127061	0	0	-0.04793197	0.03563937
31.85705	-0.009183953	-0.1127061	0	0	0	0
31.87354	-0.009183953	-0.1127061	0	0	0	0
31.89011	-0.009183953	-0.1127061	0	0	0	0
31.90667	-0.009183953	-0.1127061	0	0	0	0
31.92337	-0.009052385	-0.112804	0.007877069	-0.005859152	0.236817	-0.1761502
31.93993	-0.009052385	-0.112804	0	0	-0.236817	0.1761502
31.95638	-0.009052385	-0.112804	0	0	0	0
31.97294	-0.004947328	-0.1158592	0.2478959	-0.1844963	7.510912	-5.589991
31.98951	-0.004947328	-0.1158592	0	0	-7.481943	5.56843
32.00636	-0.004947328	-0.1158592	0	0	0	0
32.02264	0.004815752	-0.1231399	0.5995158	-0.447084	18.09342	-13.49302
32.03942	0.004815752	-0.1231399	0	0	-18.13518	13.52416
32.05578	0.004815752	-0.1231399	0	0	0	0
32.07234	0.005815724	-0.1238868	0.06038622	-0.04510589	1.834073	-1.369973
32.08893	0.005815724	-0.1238868	0	0	-1.821831	1.360829
32.10559	0.005815724	-0.1238868	0	0	0	0
32.12204	0.005815724	-0.1238868	0	0	0	0
32.13861	0.005815724	-0.1238868	0	0	0	0
32.1555	0.005815724	-0.1238868	0	0	0	0
32.17767	0.005815724	-0.1238868	0	0	0	0
32.19424	0.005815724	-0.1238868	0	0	0	0
32.21096	0.005815724	-0.1238868	0	0	0	0
32.22738	0.005815724	-0.1238868	0	0	0	0
32.24394	0.005815724	-0.1238868	0	0	0	0
32.26051	0.005815724	-0.1238868	0	0	0	0
32.27707	0.005815724	-0.1238868	0	0	0	0
32.29364	0.005815724	-0.1238868	0	0	0	0
32.31105	0.005815724	-0.1238868	0	0	0	0
32.32762	0.005815724	-0.1238868	0	0	0	0
32.34418	0.005815724	-0.1238868	0	0	0	0
32.36075	0.005815724	-0.1238868	0	0	0	0
32.37732	0.005815724	-0.1238868	0	0	0	0
32.39389	0.005815724	-0.1238868	0	0	0	0
32.41045	0.005815724	-0.1238868	0	0	0	0
32.42702	0.005815724	-0.1238868	0	0	0	0
32.59559	0.005815724	-0.1238868	0	0	0	0
32.62138	0.005868354	-0.1239261	0.002040318	-0.0015242	0.01049748	-0.007842042
32.63795	0.005868354	-0.1239261	0	0	-0.04815929	0.03597694
32.65457	0.005842039	-0.1239065	-0.001583999	0.001183087	-0.04773374	0.03565228
32.67109	0.005842039	-0.1239065	0	0	0.04781068	-0.03570975
32.68824	0.005842039	-0.1239065	0	0	0	0
32.708	0.005842039	-0.1239065	0	0	0	0
32.72457	0.005842039	-0.1239065	0	0	0	0
32.74113	0.005842039	-0.1239065	0	0	0	0
32.75774	0.005842039	-0.1239065	0	0	0	0
32.77427	0.005842039	-0.1239065	0	0	0	0
32.79083	0.005842039	-0.1239065	0	0	0	0
32.80746	0.005842039	-0.1239065	0	0	0	0
32.82403	0.005842039	-0.1239065	0	0	0	0
32.8406	0.005842039	-0.1239065	0	0	0	0
32.85732	0.005868354	-0.1239261	0.00157388	-0.001175529	0.04728205	-0.03531491
32.874	0.005868354	-0.1239261	0	0	-0.04712543	0.03519793
32.8903	0.005868354	-0.1239261	0	0	0	0
32.90721	0.006473594	-0.1242997	0.03579067	-0.02209018	1.077559	-0.6650751
32.92343	0.006473594	-0.1242997	0	0	-1.080289	0.6667598
32.94012	0.006473594	-0.1242997	0	0	0	0
32.95657	0.009289207	-0.1256568	0.171252	-0.08254015	5.168395	-2.491067
32.97313	0.009289207	-0.1256568	0	0	-5.188106	2.500567
32.9897	0.009289207	-0.1256568	0	0	0	0
33.00627	0.03968967	-0.1147424	1.834553	0.6586406	55.36055	19.87552
33.02295	0.03968967	-0.1147424	0	0	-55.18269	-19.81167
33.03949	0.03968967	-0.1147424	0	0	0	0
33.05598	0.1057097	-0.1122169	4.004342	0.1531834	121.2281	4.637499
33.07255	0.1057097	-0.1122169	0	0	-121.1302	-4.633753
33.08956	0.1057097	-0.1122169	0	0	0	0
33.32175	0.1526711	-0.1051624	0.202248	0.0303812	0.8115678	0.1219117
33.39168	0.1526711	-0.1051624	0	0	-0.6694205	-0.1005587
33.41671	0.1529796	-0.1053186	0.01232672	-0.006238984	0.129821	-0.06570697
33.43328	0.1529796	-0.1053186	0	0	-0.2963477	0.1499919
33.44984	0.1581934	-0.108697	0.3148513	-0.2040167	9.503325	-6.157947
33.4664	0.1581934	-0.108697	0	0	-9.50442	6.158656
33.48297	0.1581934	-0.108697	0	0	0	0
33.49953	0.1900722	-0.1177999	1.924212	-0.5494542	58.07951	-16.58447
33.5161	0.1900722	-0.1177999	0	0	-58.07283	16.58256
33.53267	0.1900722	-0.1177999	0	0	0	0
33.54924	0.2098134	-0.1168392	1.19158	0.05799248	35.96195	1.750216
33.5658	0.2098134	-0.1168392	0	0	-35.96195	-1.750216
33.58237	0.2098134	-0.1168392	0	0	0	0
33.59894	0.2167009	-0.1221771	0.415731	-0.3221973	12.54679	-9.723932
33.61551	0.2167009	-0.1221771	0	0	-12.54679	9.723932
33.63213	0.2167009	-0.1221771	0	0	0	0
33.65049	0.2217903	-0.1261683	0.2770825	-0.2172966	7.919268	-6.210533
33.66708	0.2217903	-0.1261683	0	0	-7.926181	6.215954
33.68363	0.2217903	-0.1261683	0	0	0	0
33.7002	0.2218654	-0.1261093	0.004534956	0.003563565	0.1369598	0.1076229
33.71676	0.2218654	-0.1261093	0	0	-0.1368652	-0.1075486
33.73333	0.2218654	-0.1261093	0	0	0	0
33.74991	0.2221158	-0.1262667	0.01510021	-0.009492897	0.4555156	-0.2863643
33.76647	0.2221158	-0.1262667	0	0	-0.4556729	0.2864632
33.78305	0.2221158	-0.1262667	0	0	0	0
33.7996	0.222216	-0.1263454	0.006050681	-0.0047561	0.1826099	-0.1435394
33.81617	0.222216	-0.1263454	0	0	-0.1827151	0.1436221
33.83304	0.222216	-0.1263454	0	0	0	0
33.8493	0.2223161	-0.1264241	0.006158552	-0.004839975	0.1858655	-0.1460707
33.86587	0.2223161	-0.1264241	0	0	-0.1875932	0.1474286
33.88269	0.2223161	-0.1264241	0	0	0	0
33.899	0.2223912	-0.1264832	0.004605263	-0.003620249	0.1390031	-0.1092719
33.91557	0.2223912	-0.1264832	0	0	-0.1400675	0.1101086
33.9325	0.2223912	-0.1264832	0	0	0	0
33.9487	0.2224663	-0.1265422	0.004635625	-0.003644116	0.1399195	-0.1099923
33.96529	0.2224663	-0.1265422	0	0	-0.1413518	0.1111182
33.98183	0.2224663	-0.1265422	0	0	0	0
33.9984	0.2224663	-0.1265816	0	-0.002376857	0	-0.07179981
34.01497	0.2224663	-0.1265816	0	0	0	0.07174194
34.03232	0.2224663	-0.1265816	0	0	0	0
34.0481	0.2224914	-0.1266013	0.001587062	-0.001247922	0.04790313	-0.03766669
34.06467	0.2224914	-0.1266013	0	0	-0.04906695	0.03858181
34.08123	0.2224914	-0.1266013	0	0	0	0
34.0978	0.2224914	-0.1266013	0	0	0	0
34.11438	0.2224914	-0.1266013	0	0	0	0
34.13094	0.2224914	-0.1266013	0	0	0	0
34.1475	0.2225164	-0.1266209	0.001511748	-0.001187802	0.04564042	-0.03586033
34.16407	0.2225164	-0.1266209	0	0	-0.04562991	0.03585207
34.1809	0.2225164	-0.1266209	0	0	0	0
34.1972	0.2225414	-0.1266406	0.001536166	-0.001207902	0.04636691	-0.03645875
34.21377	0.2225414	-0.1266406	0	0	-0.04674366	0.03675498
34.23034	0.2225414	-0.1266406	0	0	0	0
34.2469	0.2225915	-0.12668	0.003022105	-0.00237631	0.0912073	-0.07171717
34.26347	0.2225915	-0.12668	0	0	-0.09121779	0.07172542
34.28003	0.2225915	-0.12668	0	0	0	0
34.30313	0.2226165	-0.1266997	0.001083636	-0.0008514283	0.02731692	-0.0214633
34.31971	0.2226165	-0.1266997	0	0	-0.0273143	0.02146123
34.33627	0.2226165	-0.126739	0	-0.002376857	0	-0.07173368
34.35295	0.2226165	-0.126739	0	0	0	0.07150318
34.36941	0.2226165	-0.126739	0	0	0	0
34.38597	0.2226165	-0.126739	0	0	0	0
34.40254	0.2226165	-0.126739	0	0	0	0
34.41937	0.2226165	-0.126739	0	0	0	0
34.43567	0.2226416	-0.1267587	0.001536166	-0.001207902	0.04636691	-0.03645875
34.45227	0.2226416	-0.1267587	0	0	-0.04670029	0.03672089
34.4688	0.2226416	-0.1267587	0	0	0	0
34.48537	0.2226416	-0.1267587	0	0	0	0
34.50193	0.2226416	-0.1267587	0	0	0	0
34.5185	0.2226416	-0.1267587	0	0	0	0
34.53507	0.2225164	-0.1268177	-0.007555261	-0.003563565	-0.2280182	-0.1075486
34.55164	0.2225164	-0.1268177	0	0	0.227992	0.1075362
34.56963	0.2225164	-0.1268177	0	0	0	0
34.5863	0.2205128	-0.1257551	-0.1202202	0.06375798	-3.468906	1.839711
34.60295	0.2205128	-0.1257551	0	0	3.607901	-1.913425
34.61934	0.2205128	-0.1257551	0	0	0	0
34.6359	0.2017945	-0.1157808	-1.130097	0.6021927	-34.2999	18.27732
34.65247	0.2017945	-0.1157808	0	0	34.10641	-18.17421
34.66908	0.2017945	-0.1157808	0	0	0	0
34.6856	0.1755938	-0.09762122	-1.586224	1.099403	-47.87786	33.18386
34.70217	0.1755938	-0.09762122	0	0	47.9441	-33.22977
34.71886	0.1755938	-0.09762122	0	0	0	0
34.73544	0.1556004	-0.08246753	-1.205973	0.9140472	-36.24197	27.46899
34.75191	0.1556004	-0.08246753	0	0	36.49298	-27.65924
34.76844	0.1556004	-0.08246753	0	0	0	0
34.785	0.1413149	-0.07182724	-0.862273	0.6422494	-26.05645	19.4077
34.80159	0.1413149	-0.07182724	0	0	26.01147	-19.3742
34.81814	0.1413149	-0.07182724	0	0	0	0
34.83575	0.1180278	-0.05882824	-1.321907	0.7378972	-38.68819	21.59599
34.85236	0.1180278	-0.05882824	0	0	38.63212	-21.5647
34.86898	0.1180278	-0.05882824	0	0	0	0
34.88548	0.07582802	-0.07219347	-2.557786	-0.810084	-77.22969	-24.45965
34.90216	0.07582802	-0.07219347	0	0	77.08763	24.41465
34.91902	0.07582802	-0.07219347	0	0	0	0
34.93516	0.05751544	-0.08318352	-1.134341	-0.6807601	-34.36901	-20.62612
34.95173	0.05751544	-0.08318352	0	0	34.67359	20.8089
35.11111	0.05751544	-0.08318352	0	0	0	0
35.13539	0.05717446	-0.08316417	-0.01404332	0.0007968995	-0.07646587	0.004339117
35.1541	0.05717446	-0.08316417	0	0	0.3266524	-0.01853615
35.18008	0.05722692	-0.08312546	0.002019376	0.001490226	0.04518714	0.03334646
35.19665	0.05722692	-0.08312546	0	0	-0.04745987	-0.03502364
35.21321	0.05720069	-0.08314481	-0.001583597	-0.001168636	-0.04779304	-0.03526951
35.22978	0.05720069	-0.08314481	0	0	0.04779854	0.03527357
35.24635	0.05720069	-0.08314481	0	0	0	0
35.32586	0.05717446	-0.08320288	-0.000329878	-0.0007302199	-0.00343334	-0.007600062
35.34243	0.05717446	-0.08320288	0	0	0.00343334	0.007600062
35.35899	0.057122	-0.08328029	-0.003166689	-0.004672569	-0.09557086	-0.1410184
35.37556	0.057122	-0.08328029	0	0	0.09557086	0.1410184
35.39213	0.057122	-0.08328029	0	0	0	0
35.40869	0.0568597	-0.08351255	-0.01583619	-0.01402274	-0.4779922	-0.4232557
35.42526	0.0568597	-0.08351255	0	0	0.4779922	0.4232557
35.44183	0.0568597	-0.08351255	0	0	0	0
35.45839	0.04623019	-0.09144072	-0.6415982	-0.4785453	-19.36347	-14.44253
35.47496	0.04623019	-0.09144072	0	0	19.36347	14.44253
35.49164	0.04623019	-0.09144072	0	0	0	0
35.50809	0.01962906	-0.1111213	-1.616816	-1.196183	-48.80123	-36.10503
35.52466	0.01962906	-0.1111213	0	0	48.96473	36.22599
35.54123	0.01962906	-0.1111213	0	0	0	0
35.55779	0.0137886	-0.1154673	-0.3525307	-0.2623245	-10.6394	-7.916969
35.57436	0.0137886	-0.1154673	0	0	10.6394	7.916969
35.59093	0.0137886	-0.1154673	0	0	0	0
35.6075	0.0137886	-0.1154673	0	0	0	0
35.62444	0.0137886	-0.1154673	0	0	0	0
35.64143	0.0137886	-0.1154673	0	0	0	0
35.65719	0.01389384	-0.1153497	0.006678496	0.007460266	0.2038812	0.2277471
35.67376	0.01389384	-0.1153497	0	0	-0.2065755	-0.2307568
35.69033	0.01389384	-0.1153497	0	0	0	0
35.70689	0.0140254	-0.1152517	0.007942386	0.005914253	0.2397293	0.1785131
35.72346	0.0140254	-0.1152517	0	0	-0.2397293	-0.1785131
35.74003	0.0140254	-0.1152517	0	0	0	0
35.75734	0.01410433	-0.115193	0.004560646	0.003395691	0.1346335	0.1002432
35.77316	0.01410433	-0.115193	0	0	-0.1376406	-0.1024822
35.78992	0.01410433	-0.115193	0	0	0	0
35.8063	0.01444636	-0.1148991	0.0208809	0.01793928	0.6301869	0.5414084
35.94397	0.01444636	-0.1148991	0	0	-0.1355439	-0.1164489
35.96054	0.01444636	-0.1148991	0	0	0	0
35.99139	0.01465685	-0.1147032	0.006822022	0.006348864	0.1438623	0.1338844
36.00867	0.01465685	-0.1147032	0	0	-0.1417302	-0.1319002
36.02452	0.01463053	-0.1146836	-0.001659581	0.001235507	-0.05008624	0.03728766
36.0411	0.01463053	-0.1146836	0	0	0.05118224	-0.03810361
36.05766	0.01463053	-0.1146836	0	0	0	0
36.07423	0.01460422	-0.1146641	-0.001588066	0.001182308	-0.04792794	0.03568214
36.0908	0.01460422	-0.1146641	0	0	0.04792794	-0.03568214
36.10736	0.01460422	-0.1146641	0	0	0	0
36.12393	0.01460422	-0.1146249	0	0.002365161	0	0.07138893
36.14064	0.01460422	-0.1146249	0	0	0	-0.07107794
36.15714	0.01460422	-0.1146249	0	0	0	0
36.17363	0.01457791	-0.1145661	-0.001596152	0.003564532	-0.04838923	0.108063
36.19019	0.01457791	-0.1145661	0	0	0.04829428	-0.107851
36.20676	0.01457791	-0.1145661	0	0	0	0
36.22336	0.0145516	-0.1145465	-0.001585203	0.001180135	-0.04779749	0.03558376
36.23989	0.0145516	-0.1145465	0	0	0.04784151	-0.03561653
36.25646	0.0145516	-0.1145465	0	0	0	0
36.27303	0.0145516	-0.1145465	0	0	0	0
36.2896	0.0145516	-0.1145465	0	0	0	0
36.30616	0.0145516	-0.1145465	0	0	0	0
36.32273	0.0145516	-0.1145465	0	0	0	0
36.3393	0.0145516	-0.1145465	0	0	0	0
36.35615	0.0145516	-0.1145465	0	0	0	0
36.37273	0.0145516	-0.1145465	0	0	0	0
36.389	0.0145516	-0.1145465	0	0	0	0
36.40557	0.0145516	-0.1145465	0	0	0	0
36.42213	0.0145516	-0.1145465	0	0	0	0
36.43871	0.0145516	-0.1145465	0	0	0	0
36.45527	0.0145516	-0.1145465	0	0	0	0
36.47257	0.0145516	-0.1145465	0	0	0	0
36.48914	0.0145516	-0.1145465	0	0	0	0
36.5057	0.0145516	-0.1145465	0	0	0	0
36.52403	0.01452529	-0.1145661	-0.001435673	-0.001068852	-0.04114497	-0.03063225
36.54082	0.01452529	-0.1145661	0	0	0.04088128	0.03043593
36.55716	0.01452529	-0.1145661	0	0	0	0
36.57373	0.0145516	-0.1145857	0.001588066	-0.001182308	0.04825572	-0.03592617
36.59064	0.0145516	-0.1145857	0	0	-0.04743643	0.03531621
36.60686	0.0145516	-0.1145857	0	0	0	0
36.62343	0.0145516	-0.1145857	0	0	0	0
36.64	0.0145516	-0.1145857	0	0	0	0
36.65701	0.0145516	-0.1145857	0	0	0	0
36.67346	0.01452529	-0.1146053	-0.001599483	-0.001190808	-0.04779924	-0.03558633
36.68991	0.01452529	-0.1146053	0	0	0.04860828	0.03618865
36.70626	0.01452529	-0.1146053	0	0	0	0
36.72283	0.01452529	-0.1146053	0	0	0	0
36.7394	0.01452529	-0.1146053	0	0	0	0
36.75596	0.01452529	-0.1146053	0	0	0	0
36.77253	0.01452529	-0.1146053	0	0	0	0
36.78909	0.01452529	-0.1146053	0	0	0	0
36.80566	0.01452529	-0.1146053	0	0	0	0
36.82223	0.01452529	-0.1146053	0	0	0	0
36.83879	0.01452529	-0.1146053	0	0	0	0
36.85542	0.01452529	-0.1146053	0	0	0	0
36.87193	0.01452529	-0.1146053	0	0	0	0
36.8885	0.01452529	-0.1146053	0	0	0	0
36.90507	0.01452529	-0.1146053	0	0	0	0
36.92163	0.01452529	-0.1146053	0	0	0	0
36.93821	0.01452529	-0.1146053	0	0	0	0
36.95477	0.01452529	-0.1146053	0	0	0	0
36.97133	0.01452529	-0.1146053	0	0	0	0
36.9879	0.01452529	-0.1146053	0	0	0	0
37.00447	0.01452529	-0.1146053	0	0	0	0
37.02103	0.01452529	-0.1146053	0	0	0	0
37.0376	0.01452529	-0.1146053	0	0	0	0
37.05442	0.01452529	-0.1146053	0	0	0	0
37.07074	0.01452529	-0.1146053	0	0	0	0
37.0873	0.01452529	-0.1146053	0	0	0	0
37.10387	0.01452529	-0.1146053	0	0	0	0
37.12052	0.01452529	-0.1146053	0	0	0	0
37.13704	0.01452529	-0.1146053	0	0	0	0
37.15357	0.01452529	-0.1146053	0	0	0	0
37.17013	0.01452529	-0.1146053	0	0	0	0
37.18678	0.01452529	-0.1146053	0	0	0	0
37.20337	0.01452529	-0.1146053	0	0	0	0
37.21983	0.01452529	-0.1146053	0	0	0	0
37.2364	0.01452529	-0.1146053	0	0	0	0
37.25296	0.01452529	-0.1146053	0	0	0	0
37.27269	0.01452529	-0.1146053	0	0	0	0
37.29181	0.01452529	-0.1146053	0	0	0	0
37.30838	0.01452529	-0.1146053	0	0	0	0
37.42827	0.0145516	-0.1146249	0.0002194601	-0.0001633249	0.00160829	-0.00119691
37.44487	0.0145516	-0.1146249	0	0	-0.001607975	0.001196675
37.46144	0.0145516	-0.1146249	0	0	0	0
37.47797	0.0145516	-0.1146249	0	0	0	0
37.49453	0.0145516	-0.1146249	0	0	0	0
37.5111	0.0145516	-0.1146249	0	0	0	0
37.52766	0.0145516	-0.1146249	0	0	0	0
37.54423	0.0145516	-0.1146249	0	0	0	0
37.5608	0.0145516	-0.1146249	0	0	0	0
37.57737	0.0145516	-0.1146249	0	0	0	0
37.59393	0.0145516	-0.1146249	0	0	0	0
37.6105	0.0145516	-0.1146249	0	0	0	0
37.6272	0.0145516	-0.1146249	0	0	0	0
37.64363	0.0145516	-0.1146249	0	0	0	0
37.66038	0.0145516	-0.1146249	0	0	0	0
37.67684	0.0145516	-0.1146249	0	0	0	0
37.69334	0.0145516	-0.1146249	0	0	0	0
37.7099	0.01457791	-0.1146445	0.001588488	-0.001182581	0.04804577	-0.0357686
37.72647	0.01457791	-0.1146445	0	0	-0.04794068	0.03569036
37.74326	0.01457791	-0.1146445	0	0	0	0
37.7596	0.01457791	-0.1146445	0	0	0	0
37.77617	0.01457791	-0.1146445	0	0	0	0
37.79274	0.01457791	-0.1146445	0	0	0	0
37.80931	0.01460422	-0.1146641	0.001588066	-0.001182308	0.04792794	-0.03568214
37.82603	0.01460422	-0.1146641	0	0	-0.04770277	0.0355145
37.84244	0.01460422	-0.1146641	0	0	0	0
37.85901	0.01460422	-0.1146641	0	0	0	0
37.87558	0.01460422	-0.1146641	0	0	0	0
37.89214	0.01460422	-0.1146641	0	0	0	0
37.90871	0.01460422	-0.1146641	0	0	0	0
37.92528	0.01460422	-0.1146641	0	0	0	0
37.94184	0.01460422	-0.1146641	0	0	0	0
38.02229	0.01460422	-0.1146641	0	0	0	0
38.03886	0.01460422	-0.1146641	0	0	0	0
38.05543	0.01463053	-0.1146836	0.001588066	-0.001182308	0.04792242	-0.03567803
38.072	0.01463053	-0.1146836	0	0	-0.04792242	0.03567803
38.08857	0.01463053	-0.1146836	0	0	0	0
38.10513	0.01463053	-0.1146836	0	0	0	0
38.1217	0.01463053	-0.1146836	0	0	0	0
38.13827	0.01463053	-0.1146836	0	0	0	0
38.15483	0.01465685	-0.1147032	0.001588854	-0.001182853	0.04795724	-0.03570269
38.1714	0.01465685	-0.1147032	0	0	-0.04796276	0.0357068
38.18831	0.01465685	-0.1147032	0	0	0	0
38.20453	0.01468316	-0.1147228	0.001622435	-0.001207896	0.04897084	-0.03645857
38.2211	0.01468316	-0.1147228	0	0	-0.04948938	0.03684462
38.23782	0.01468316	-0.1147228	0	0	0	0
38.25427	0.01468316	-0.1147228	0	0	0	0
38.27079	0.01468316	-0.1147228	0	0	0	0
38.28736	0.01468316	-0.1147228	0	0	0	0
38.30393	0.01468316	-0.1147228	0	0	0	0
38.3205	0.01468316	-0.1147228	0	0	0	0
38.33706	0.01468316	-0.1147228	0	0	0	0
38.35363	0.01473578	-0.114762	0.003176864	-0.002365161	0.095889	-0.07138893
38.37019	0.01473578	-0.114762	0	0	-0.095889	0.07138893
38.3869	0.01473578	-0.114762	0	0	0	0
38.40333	0.01476209	-0.1147816	0.001601769	-0.001192468	0.04834148	-0.03598874
38.42008	0.01476209	-0.1147816	0	0	-0.04827479	0.03593909
38.43668	0.01476209	-0.1147816	0	0	0	0
38.45303	0.01476209	-0.1147816	0	0	0	0
38.46995	0.01476209	-0.1147816	0	0	0	0
38.48616	0.01476209	-0.1147816	0	0	0	0
38.50273	0.01476209	-0.1147816	0	0	0	0
38.51962	0.01476209	-0.1147816	0	0	0	0
38.53586	0.01476209	-0.1147816	0	0	0	0
38.55243	0.01476209	-0.1147816	0	0	0	0
38.569	0.01476209	-0.1147816	0	0	0	0
38.58566	0.01476209	-0.1147816	0	0	0	0
38.60213	0.01476209	-0.1147816	0	0	0	0
38.6188	0.01476209	-0.1147816	0	0	0	0
38.63571	0.01476209	-0.1147816	0	0	0	0
38.65227	0.0147884	-0.114762	0.001588432	0.001182581	0.04745817	0.0353324
38.6684	0.0147884	-0.114762	0	0	-0.04858786	-0.03617345
38.80173	0.0147884	-0.114762	0	0	0	0
38.8254	0.01476209	-0.1147424	-0.001111877	0.0008277874	-0.007082123	0.005272609
38.84262	0.01476209	-0.1147424	0	0	0.02719208	-0.02024438
38.86182	0.01476209	-0.1147424	0	0	0	0
38.8784	0.01476209	-0.1147424	0	0	0	0
38.89495	0.01476209	-0.1147424	0	0	0	0
38.91232	0.01476209	-0.1147424	0	0	0	0
38.92889	0.01476209	-0.1147424	0	0	0	0
38.94546	0.01476209	-0.1147424	0	0	0	0
38.96202	0.01476209	-0.1147424	0	0	0	0
38.9786	0.01476209	-0.1147424	0	0	0	0
38.99516	0.01476209	-0.1147424	0	0	0	0
39.01189	0.01476209	-0.1147424	0	0	0	0
39.02829	0.01476209	-0.1147424	0	0	0	0
39.04486	0.01476209	-0.1147424	0	0	0	0
39.06143	0.01476209	-0.1147424	0	0	0	0
39.078	0.01476209	-0.1147424	0	0	0	0
39.09476	0.01476209	-0.1147424	0	0	0	0
39.11113	0.01476209	-0.1147424	0	0	0	0
39.1277	0.01476209	-0.1147424	0	0	0	0
39.14426	0.01476209	-0.1147424	0	0	0	0
39.16083	0.01476209	-0.1147424	0	0	0	0
39.1774	0.01476209	-0.1147424	0	0	0	0
39.19397	0.01476209	-0.1147424	0	0	0	0
39.21053	0.01476209	-0.1147424	0	0	0	0
39.22728	0.01476209	-0.1147424	0	0	0	0
39.24367	0.01476209	-0.1147424	0	0	0	0
39.26023	0.01476209	-0.1147424	0	0	0	0
39.2768	0.01476209	-0.1147424	0	0	0	0
39.29337	0.01476209	-0.1147424	0	0	0	0
39.30993	0.01476209	-0.1147424	0	0	0	0
39.3265	0.01476209	-0.1147424	0	0	0	0
39.34307	0.01476209	-0.1147424	0	0	0	0
39.35963	0.01476209	-0.1147424	0	0	0	0
39.3762	0.01476209	-0.1147424	0	0	0	0
39.39289	0.01476209	-0.1147424	0	0	0	0
39.40968	0.01476209	-0.1147424	0	0	0	0
39.42601	0.01476209	-0.1147424	0	0	0	0
39.44247	0.01476209	-0.1147424	0	0	0	0
39.45903	0.01476209	-0.1147424	0	0	0	0
39.4756	0.01476209	-0.1147424	0	0	0	0
39.49216	0.01476209	-0.1147424	0	0	0	0
39.50873	0.01476209	-0.1147424	0	0	0	0
39.52576	0.01476209	-0.1147424	0	0	0	0
39.54203	0.01476209	-0.1147424	0	0	0	0
39.55848	0.01476209	-0.1147424	0	0	0	0
39.575	0.01476209	-0.1147424	0	0	0	0
39.59157	0.01476209	-0.1147424	0	0	0	0
39.60814	0.01476209	-0.1147424	0	0	0	0
39.6247	0.01476209	-0.1147424	0	0	0	0
39.64147	0.01476209	-0.1147424	0	0	0	0
39.65784	0.01476209	-0.1147424	0	0	0	0
39.6744	0.01476209	-0.1147424	0	0	0	0
39.691	0.01476209	-0.1147424	0	0	0	0
39.70753	0.01476209	-0.1147424	0	0	0	0
39.72421	0.01476209	-0.1147424	0	0	0	0
39.74085	0.01476209	-0.1147424	0	0	0	0
39.75834	0.01476209	-0.1147424	0	0	0	0
39.77491	0.01476209	-0.1147424	0	0	0	0
39.79164	0.01476209	-0.1147424	0	0	0	0
39.80805	0.01476209	-0.1147424	0	0	0	0
39.82481	0.01476209	-0.1147424	0	0	0	0
39.84172	0.01476209	-0.1147424	0	0	0	0
39.85774	0.0147884	-0.114762	0.001642527	-0.001222854	0.04987013	-0.03712809
39.87435	0.0147884	-0.114762	0	0	-0.05034242	0.03747971
39.89088	0.0147884	-0.114762	0	0	0	0
39.90745	0.01476209	-0.1147424	-0.001588066	0.001182308	-0.04798318	0.03572327
39.9244	0.01476209	-0.1147424	0	0	0.04737705	-0.035272
39.9409	0.01476209	-0.1147424	0	0	0	0
39.95715	0.01476209	-0.1147424	0	0	0	0
39.97372	0.01476209	-0.1147424	0	0	0	0
39.99028	0.01476209	-0.1147424	0	0	0	0
40.00685	0.0147884	-0.114762	0.001588432	-0.001182581	0.0479445	-0.03569447
40.02341	0.0147884	-0.114762	0	0	-0.0479445	0.03569447
40.03998	0.0147884	-0.114762	0	0	0	0
40.05655	0.0147884	-0.114762	0	0	0	0
40.07312	0.0147884	-0.114762	0	0	0	0
40.08968	0.0147884	-0.114762	0	0	0	0
40.10625	0.0147884	-0.114762	0	0	0	0
40.12281	0.0147884	-0.114762	0	0	0	0
40.13938	0.0147884	-0.114762	0	0	0	0
40.15595	0.01476209	-0.1147424	-0.001588066	0.001182308	-0.04792794	0.03568214
40.17252	0.01476209	-0.1147424	0	0	0.04792794	-0.03568214
40.18908	0.01476209	-0.1147424	0	0	0	0
40.20565	0.01476209	-0.1147424	0	0	0	0
40.22222	0.01476209	-0.1147424	0	0	0	0
40.23878	0.01476209	-0.1147424	0	0	0	0
40.25535	0.01476209	-0.1147424	0	0	0	0
40.27192	0.01476209	-0.1147424	0	0	0	0
40.28848	0.01476209	-0.1147424	0	0	0	0
40.30526	0.01476209	-0.1147424	0	0	0	0
40.32162	0.01476209	-0.1147424	0	0	0	0
40.33843	0.01476209	-0.1147424	0	0	0	0
40.35475	0.01476209	-0.1147424	0	0	0	0
40.37132	0.01476209	-0.1147424	0	0	0	0
40.38789	0.01476209	-0.1147424	0	0	0	0
40.40445	0.01476209	-0.1147424	0	0	0	0
40.42102	0.01476209	-0.1147424	0	0	0	0
40.43797	0.01476209	-0.1147424	0	0	0	0
40.45415	0.01476209	-0.1147424	0	0	0	0
40.4708	0.01476209	-0.1147424	0	0	0	0
40.48729	0.01476209	-0.1147424	0	0	0	0
40.50385	0.01476209	-0.1147032	0	0.002364617	0	0.07153723
40.52042	0.01476209	-0.1147032	0	0	0	-0.07135607
40.53699	0.01476209	-0.1147032	0	0	0	0
40.55365	0.0147884	-0.1146836	0.001579701	0.00117608	0.04754955	0.03540043
40.57013	0.0147884	-0.1146836	0	0	-0.04767546	-0.03549417
40.58745	0.0147884	-0.1146836	0	0	0	0
40.60399	0.01499888	-0.1144878	0.01272216	0.01183854	0.3756521	0.349561
40.6213	0.01499888	-0.1144878	0	0	-0.3758214	-0.3497185
40.63713	0.01499888	-0.1144878	0	0	0	0
40.65369	0.02386389	-0.1077396	0.5353398	0.4075058	16.52569	12.57951
40.67027	0.02386389	-0.1077396	0	0	-16.15845	-12.29996
40.68694	0.02386389	-0.1077396	0	0	0	0
40.70344	0.06058366	-0.08057205	2.225634	1.646664	67.08482	49.63357
40.71997	0.06058366	-0.08057205	0	0	-67.387	-49.85714
40.73654	0.06058366	-0.08057205	0	0	0	0
40.75478	0.08432587	-0.06305215	1.301794	0.960623	37.39809	27.59688
40.77156	0.08432587	-0.06305215	0	0	-37.16998	-27.42855
40.78824	0.08432587	-0.06305215	0	0	0	0
40.80448	0.1021433	-0.04984426	1.097187	0.8133355	33.33192	24.70866
40.82105	0.1021433	-0.04984426	0	0	-33.44431	-24.79198
40.83762	0.1021433	-0.04984426	0	0	0	0
40.8545	0.1300254	-0.02929723	1.651781	1.217239	49.38463	36.39277
40.87075	0.1300254	-0.02929723	0	0	-49.85085	-36.73633
40.88732	0.1300254	-0.02929723	0	0	0	0
40.90389	0.1456198	-0.01398607	0.9410627	0.9239708	28.39806	27.88228
40.92049	0.1456198	-0.01398607	0	0	-28.37193	-27.85663
40.93702	0.1456198	-0.01398607	0	0	0	0
40.95358	0.1284209	0.00952132	-1.038604	1.419562	-31.38128	42.89186
40.97015	0.1284209	0.00952132	0	0	31.35237	-42.85234
40.987	0.1284209	0.00952132	0	0	0	0
41.00342	0.1317068	0.02280383	0.2000406	0.8086227	6.01232	24.30355
41.02013	0.1317068	0.02280383	0	0	-6.037239	-24.40428
41.03642	0.1317068	0.02280383	0	0	0	0
41.05298	0.1412117	0.02986498	0.5737178	0.4262122	17.46362	12.97364
41.06955	0.1412117	0.02986498	0	0	-17.31284	-12.86163
41.08625	0.1412117	0.02986498	0	0	0	0
41.10268	0.1407732	0.03018222	-0.02669074	0.01930871	-0.805621	0.582805
41.11925	0.1407732	0.03018222	0	0	0.8088807	-0.5851632
41.13582	0.1407732	0.03018222	0	0	0	0
41.15239	0.1405668	0.0303315	-0.01245809	0.009010549	-0.3759858	0.2719389
41.16895	0.1405668	0.0303315	0	0	0.3759858	-0.2719389
41.1857	0.1405668	0.0303315	0	0	0	0
41.20222	0.1405668	0.0303315	0	0	0	0
41.21865	0.1405668	0.0303315	0	0	0	0
41.23522	0.1405668	0.0303315	0	0	0	0
41.25179	0.1405668	0.03029418	0	-0.002253043	0	-0.06800482
41.26836	0.1405668	0.03029418	0	0	0	0.06799699
41.28492	0.1405668	0.03029418	0	0	0	0
41.30149	0.1405668	0.03029418	0	0	0	0
41.31806	0.1405668	0.03029418	0	0	0	0
41.33463	0.1405668	0.03029418	0	0	0	0
41.35119	0.140541	0.03031284	-0.001556923	0.001126206	-0.04698804	0.03398897
41.36776	0.140541	0.03031284	0	0	0.04698804	-0.03398897
41.38433	0.140541	0.03031284	0	0	0	0
41.40089	0.140541	0.03031284	0	0	0	0
41.41746	0.140541	0.03031284	0	0	0	0
41.43414	0.140541	0.03031284	0	0	0	0
41.4506	0.1405152	0.03029418	-0.001567026	-0.001133514	-0.04729295	-0.03420952
41.46716	0.1405152	0.03029418	0	0	0.04744589	0.03432016
41.48413	0.1405152	0.03029418	0	0	0	0
41.5004	0.1405152	0.03029418	0	0	0	0
41.51744	0.1405152	0.03029418	0	0	0	0
41.5338	0.1405152	0.03029418	0	0	0	0
41.55	0.1405152	0.03025686	0	-0.002303556	0	-0.07074314
41.56656	0.1405152	0.03025686	0	0	0	0.0703066
41.58313	0.1405152	0.03025686	0	0	0	0
41.59982	0.140412	0.03018222	-0.006182516	-0.004471411	-0.1858825	-0.1344367
41.61626	0.140412	0.03018222	0	0	0.1865887	0.1349474
41.6329	0.140412	0.03018222	0	0	0	0
41.6494	0.1403862	0.03016356	-0.001563403	-0.001131006	-0.0471836	-0.03413383
41.66597	0.1403862	0.03016356	0	0	0.04728158	0.03420472
41.68253	0.1403862	0.03016356	0	0	0	0
41.6991	0.1403862	0.03016356	0	0	0	0
41.71567	0.1403862	0.03016356	0	0	0	0
41.73223	0.1403862	0.03016356	0	0	0	0
41.7488	0.1403604	0.0301449	-0.001558182	-0.001126578	-0.04703143	-0.0340041
41.76537	0.1403604	0.0301449	0	0	0.04703143	0.0340041
41.7823	0.1403604	0.0301449	0	0	0	0
41.7985	0.1403604	0.0301449	0	0	0	0
41.81507	0.1403604	0.0301449	0	0	0	0
41.83163	0.1403604	0.0301449	0	0	0	0
41.8482	0.1403604	0.0301449	0	0	0	0
41.86477	0.1403604	0.0301449	0	0	0	0
41.88134	0.1403604	0.0301449	0	0	0	0
41.8979	0.1403604	0.03010758	0	-0.002253268	0	-0.0680116
41.91447	0.1403604	0.03010758	0	0	0	0.06800377
41.93109	0.1403604	0.03010758	0	0	0	0
41.94761	0.1403604	0.03010758	0	0	0	0
41.96417	0.1403604	0.03010758	0	0	0	0
41.98074	0.1403604	0.03010758	0	0	0	0
41.99738	0.140283	0.0300516	-0.004650255	-0.00336369	-0.1400387	-0.1012948
42.01387	0.140283	0.0300516	0	0	0.1403288	0.1015047
42.0305	0.140283	0.0300516	0	0	0	0
42.04701	0.1398443	0.02969702	-0.02656936	-0.02147648	-0.8018649	-0.6481614
42.06361	0.1398443	0.02969702	0	0	0.8023267	0.6485347
42.08014	0.1398443	0.02969702	0	0	0	0
42.09711	0.1375986	0.0275128	-0.1323506	-0.1287273	-3.951584	-3.843405
42.11327	0.1375986	0.0275128	0	0	3.994808	3.885445
42.12984	0.1375986	0.0275128	0	0	0	0
42.1464	0.1178981	0.006291335	-1.18913	-1.28093	-35.88802	-38.65856
42.16297	0.1178981	0.006291335	0	0	35.89215	38.66301
42.17954	0.1178981	0.006291335	0	0	0	0
42.1961	0.07629897	-0.05493624	-2.511504	-3.696555	-75.79735	-111.5622
42.47995	0.07629897	-0.05493624	0	0	8.360327	12.30514
42.54449	0.07629897	-0.05493624	0	0	0	0
42.56106	0.03306689	-0.09662904	-2.609493	-2.516582	-32.17152	-31.02605
42.57764	0.03306689	-0.09662904	0	0	78.71841	75.91565
42.5942	0.03306689	-0.09662904	0	0	0	0
42.61611	0.03309318	-0.0968041	0.001199621	-0.007989655	0.0311854	-0.2076993
42.63268	0.03309318	-0.0968041	0	0	-0.03117303	0.207617
42.64924	0.03306689	-0.09697918	-0.00158697	-0.01056991	-0.04789486	-0.3190004
42.66581	0.03306689	-0.09697918	0	0	0.04790037	0.3190371
42.68281	0.03306689	-0.09697918	0	0	0	0
42.69894	0.03306689	-0.09697918	0	0	0	0
42.71551	0.03306689	-0.09697918	0	0	0	0
42.73208	0.03306689	-0.09697918	0	0	0	0
42.74868	0.03306689	-0.09697918	0	0	0	0
42.76521	0.03306689	-0.09697918	0	0	0	0
42.78179	0.03306689	-0.09697918	0	0	0	0
42.79834	0.03306689	-0.09701809	0	-0.00235005	0	-0.07093283
42.81491	0.03306689	-0.09701809	0	0	0	0.07094917
42.83148	0.03306689	-0.09701809	0	0	0	0
42.84805	0.0332509	-0.09742665	0.01110668	-0.02466073	0.3352004	-0.7442624
42.86461	0.0332509	-0.09742665	0	0	-0.335239	0.7443481
42.88118	0.0332509	-0.09742665	0	0	0	0
42.89775	0.04483835	-0.1064507	0.6994198	-0.5446943	21.1061	-16.43701
42.91431	0.04483835	-0.1064507	0	0	-21.10853	16.43891
42.93138	0.04483835	-0.1064507	0	0	0	0
42.94745	0.05903658	-0.116996	0.8834516	-0.6561545	26.66262	-19.80278
42.96402	0.05903658	-0.116996	0	0	-27.06773	20.10367
42.98066	0.05903658	-0.116996	0	0	0	0
42.99715	0.06055744	-0.1181333	0.09224562	-0.06898436	2.784299	-2.082192
43.01382	0.06055744	-0.1181333	0	0	-2.782057	2.080515
43.03078	0.06055744	-0.1181333	0	0	0	0
43.04685	0.06058366	-0.118153	0.001632165	-0.001221225	0.04941244	-0.03697157
43.06342	0.06058366	-0.118153	0	0	-0.05001897	0.03742539
43.07998	0.06058366	-0.118153	0	0	0	0
43.09655	0.06053123	-0.1181137	-0.003165844	0.00236876	-0.09555636	0.07149755
43.11311	0.06053123	-0.1181137	0	0	0.09555636	-0.07149755
43.12987	0.06053123	-0.1181137	0	0	0	0
43.14658	0.06053123	-0.1181137	0	0	0	0
43.16314	0.06053123	-0.1181137	0	0	0	0
43.18251	0.06053123	-0.1181137	0	0	0	0
43.19909	0.06055744	-0.1181333	0.001582193	-0.001183835	0.04402063	-0.03293729
43.21565	0.06055744	-0.1181333	0	0	-0.04774518	0.03572409
43.23222	0.06055744	-0.1181333	0	0	0	0
43.24878	0.06060988	-0.1181726	0.00316534	-0.002367765	0.09554113	-0.07146752
43.26535	0.06060988	-0.1181726	0	0	-0.09553014	0.07145929
43.28192	0.06060988	-0.1181726	0	0	0	0
43.29848	0.06089829	-0.1183883	0.01740813	-0.01302383	0.5253784	-0.39306
43.31543	0.06089829	-0.1183883	0	0	-0.5194578	0.3886305
43.33162	0.06089829	-0.1183883	0	0	0	0
43.34818	0.06087207	-0.1183687	-0.001582922	0.00118438	-0.04832908	0.03616097
43.36475	0.06087207	-0.1183687	0	0	0.04777268	-0.03574466
43.38132	0.06087207	-0.1183687	0	0	0	0
43.39789	0.06079341	-0.1183099	-0.004747672	0.003551872	-0.143285	0.1071957
43.41446	0.06079341	-0.1183099	0	0	0.143285	-0.1071957
43.43165	0.06079341	-0.1183099	0	0	0	0
43.44759	0.06071476	-0.118251	-0.00493517	0.003692145	-0.1489609	0.111442
43.46415	0.06071476	-0.118251	0	0	0.1518279	-0.1135869
43.48072	0.06071476	-0.118251	0	0	0	0
43.49729	0.06071476	-0.118251	0	0	0	0
43.51385	0.06071476	-0.118251	0	0	0	0
43.53043	0.06071476	-0.118251	0	0	0	0
43.54699	0.06071476	-0.118251	0	0	0	0
43.56356	0.06071476	-0.118251	0	0	0	0
43.58099	0.06071476	-0.118251	0	0	0	0
43.59669	0.0606361	-0.1183491	-0.005010727	-0.006247627	-0.1512415	-0.1885755
43.61326	0.0606361	-0.1183491	0	0	0.1552822	0.1936136
43.62983	0.0606361	-0.1183491	0	0	0	0
43.64639	0.06058366	-0.1183883	-0.00316534	-0.002368215	-0.09554113	-0.07148109
43.66296	0.06058366	-0.1183883	0	0	0.09553014	0.07147285
43.67953	0.06058366	-0.1183883	0	0	0	0
43.69609	0.06055744	-0.1183687	-0.001582922	0.00118438	-0.04777818	0.03574878
43.71266	0.06055744	-0.1183687	0	0	0.04777818	-0.03574878
43.72924	0.06055744	-0.1183687	0	0	0	0
43.74579	0.06047879	-0.1183883	-0.004754241	-0.001185745	-0.1434998	-0.03578999
43.76282	0.06047879	-0.1183883	0	0	0.1416084	0.03531827
43.77936	0.06047879	-0.1183883	0	0	0	0
43.79549	0.06021659	-0.1183099	-0.01625695	0.004864797	-0.497567	0.148894
43.81206	0.06021659	-0.1183099	0	0	0.4971606	-0.1487724
43.82863	0.06021659	-0.1183099	0	0	0	0
43.84519	0.05748921	-0.1201544	-0.1646626	-0.111361	-4.970098	-3.361267
43.86176	0.05748921	-0.1201544	0	0	4.970098	3.361267
43.87833	0.05748921	-0.1201544	0	0	0	0
43.89489	0.0321731	-0.1341702	-1.528083	-0.8459968	-46.11765	-25.53223
43.91146	0.0321731	-0.1341702	0	0	46.11765	25.53223
43.92803	0.0321731	-0.1341702	0	0	0	0
43.94459	0.01760344	-0.1451317	-0.879629	-0.6617882	-26.55031	-19.97511
43.96116	0.01760344	-0.1451317	0	0	26.55031	19.97511
43.97773	0.01760344	-0.1451317	0	0	0	0
43.99447	0.01334131	-0.1483465	-0.2545664	-0.1920132	-7.642356	-5.764443
44.01086	0.01334131	-0.1483465	0	0	7.682829	5.794971
44.02752	0.01334131	-0.1483465	0	0	0	0
44.04399	0.01334131	-0.1483465	0	0	0	0
44.06056	0.01334131	-0.1483465	0	0	0	0
44.07714	0.01334131	-0.1483465	0	0	0	0
44.09369	0.01336762	-0.1483267	0.001590376	0.001199706	0.04800317	0.03621137
44.11026	0.01336762	-0.1483267	0	0	-0.04803082	-0.03623223
44.12717	0.01336762	-0.1483267	0	0	0	0
44.14342	0.01342025	-0.1483267	0.00323737	0	0.09760289	0
44.15996	0.01342025	-0.1483267	0	0	-0.09873846	0
44.17681	0.01342025	-0.1483267	0	0	0	0
44.19309	0.01347287	-0.1482869	0.003232875	0.002440605	0.0975796	0.0736661
44.20966	0.01347287	-0.1482869	0	0	-0.0984296	-0.07430778
44.22622	0.01347287	-0.1482869	0	0	0	0
44.24287	0.01344656	-0.1482671	-0.001580843	0.001192557	-0.04760033	0.03590875
44.25935	0.01344656	-0.1482671	0	0	0.04771542	-0.03599558
44.27592	0.01344656	-0.1482671	0	0	0	0
44.29248	0.01342025	-0.1482472	-0.001588545	0.001199224	-0.04794789	0.03619682
44.30914	0.01342025	-0.1482472	0	0	0.04781576	-0.03609707
44.32584	0.01342025	-0.1482472	0	0	0	0
44.34219	0.01334131	-0.1481479	-0.004827787	0.006072642	-0.1460897	0.1837593
44.35876	0.01334131	-0.1481479	0	0	0.1466653	-0.1844833
44.37532	0.01334131	-0.1481479	0	0	0	0
44.39189	0.01334131	-0.1481479	0	0	0	0
44.40846	0.01334131	-0.1481479	0	0	0	0
44.42503	0.01334131	-0.1481479	0	0	0	0
44.44159	0.013315	-0.1481281	-0.001588488	0.001198324	-0.0479462	0.03616967
44.45816	0.013315	-0.1481281	0	0	0.04794068	-0.03616551
44.47473	0.013315	-0.1481281	0	0	0	0
44.49463	0.013315	-0.1480884	0	0.001996195	0	0.05474323
44.51119	0.013315	-0.1480884	0	0	0	-0.05474896
44.52776	0.013315	-0.1480884	0	0	0	0
44.54433	0.01334131	-0.1480685	0.001588123	0.001198948	0.04792964	0.03618432
44.56122	0.01334131	-0.1480685	0	0	-0.04745974	-0.03582957
44.57814	0.01334131	-0.1480685	0	0	0	0
44.59403	0.01336762	-0.1480884	0.001655656	-0.001249888	0.05046746	-0.0380989
44.6106	0.01336762	-0.1480884	0	0	-0.05100719	0.03850635
44.62743	0.01336762	-0.1480884	0	0	0	0
44.64373	0.01336762	-0.1480884	0	0	0	0
44.6603	0.01336762	-0.1480884	0	0	0	0
44.67687	0.01336762	-0.1480884	0	0	0	0
44.69352	0.01336762	-0.1480884	0	0	0	0
44.71	0.01336762	-0.1480884	0	0	0	0
44.72656	0.01336762	-0.1480884	0	0	0	0
44.74323	0.01336762	-0.1480884	0	0	0	0
44.7598	0.01336762	-0.1480884	0	0	0	0
44.7765	0.01336762	-0.1480884	0	0	0	0
44.79293	0.01336762	-0.1480884	0	0	0	0
44.80962	0.01336762	-0.1480884	0	0	0	0
44.82607	0.01336762	-0.1480884	0	0	0	0
44.84263	0.01336762	-0.1480884	0	0	0	0
44.8592	0.01336762	-0.1480884	0	0	0	0
44.87576	0.01336762	-0.1480884	0	0	0	0
44.89233	0.01336762	-0.1480884	0	0	0	0
44.90922	0.01336762	-0.1480884	0	0	0	0
44.92546	0.01336762	-0.1480884	0	0	0	0
44.94203	0.01336762	-0.1480884	0	0	0	0
44.9586	0.01336762	-0.1480884	0	0	0	0
44.9756	0.01336762	-0.1480884	0	0	0	0
44.99173	0.01336762	-0.1480884	0	0	0	0
45.00872	0.01336762	-0.1480884	0	0	0	0
45.02486	0.01336762	-0.1480884	0	0	0	0
45.04143	0.01336762	-0.1480884	0	0	0	0
45.05799	0.01336762	-0.1480884	0	0	0	0
45.07456	0.01336762	-0.1480884	0	0	0	0
45.09133	0.01339394	-0.1480685	0.001569333	0.001184763	0.0470807	0.03554342
45.10769	0.01339394	-0.1480685	0	0	-0.047368	-0.03576032
45.12426	0.01339394	-0.1480685	0	0	0	0
45.14083	0.01339394	-0.1480685	0	0	0	0
45.15752	0.01339394	-0.1480685	0	0	0	0
45.1744	0.01339394	-0.1480685	0	0	0	0
45.19066	0.01339394	-0.1480685	0	0	0	0
45.20723	0.01339394	-0.1480685	0	0	0	0
45.2238	0.01339394	-0.1480685	0	0	0	0
45.24036	0.01342025	-0.1480487	0.001588488	0.001198324	0.0479462	0.03616967
45.25693	0.01342025	-0.1480487	0	0	-0.04794068	-0.03616551
45.2735	0.01342025	-0.1480487	0	0	0	0
45.29006	0.01342025	-0.1480487	0	0	0	0
45.30685	0.01342025	-0.1480487	0	0	0	0
45.3232	0.01342025	-0.1480487	0	0	0	0
45.33976	0.01342025	-0.1480487	0	0	0	0
45.35678	0.01342025	-0.1480487	0	0	0	0
45.37306	0.01342025	-0.1480487	0	0	0	0
45.38947	0.01344656	-0.1480685	0.001603688	-0.001209748	0.04906596	-0.03701308
45.40603	0.01344656	-0.1480685	0	0	-0.04863456	0.03668766
45.4226	0.01344656	-0.1480685	0	0	0	0
45.43917	0.01347287	-0.1480884	0.001588488	-0.001199224	0.04794068	-0.03619266
45.45574	0.01347287	-0.1480884	0	0	-0.04794068	0.03619266
45.47276	0.01347287	-0.1480884	0	0	0	0
45.48887	0.01347287	-0.1480884	0	0	0	0
