Time	Pos X	Pos Y	Vel X	Vel Y	Acc X	Acc Y
0.0165087	-0.01149949	-0.1331439	0.0001907245	0.002208254	-3.164122E-06	-3.663496E-05
0.03757171	-0.01149949	-0.1331439	0	0	3.164361E-06	3.663772E-05
0.05413924	-0.01149949	-0.1331439	0	0	0	0
0.07070558	-0.01147318	-0.1331636	0.00158832	-0.001190917	0.04793647	-0.0359426
0.08727311	-0.01147318	-0.1331636	0	0	-0.04793647	0.03594259
0.1040577	-0.01147318	-0.1331636	0	0	0	0
0.1205392	-0.01149949	-0.1331439	-0.0015965	0.00119705	-0.04799178	0.03598407
0.1369725	-0.01149949	-0.1331439	0	0	0.04850405	-0.03636817
0.1535393	-0.01149949	-0.1331439	0	0	0	0
0.170106	-0.01149949	-0.1331439	0	0	0	0
0.1868622	-0.01149949	-0.1331439	0	0	0	0
0.2032399	-0.01149949	-0.1331439	0	0	0	0
0.2199973	-0.01149949	-0.1331439	0	0	0	0
0.2363757	-0.01149949	-0.1331439	0	0	0	0
0.2529424	-0.01149949	-0.1331439	0	0	0	0
0.269506	-0.01149949	-0.1331439	0	0	0	0
0.2861643	-0.01149949	-0.1331439	0	0	0	0
0.3029106	-0.01149949	-0.1331439	0	0	0	0
0.3192093	-0.01149949	-0.1331439	0	0	0	0
0.3357756	-0.01149949	-0.1331439	0	0	0	0
0.352342	-0.01149949	-0.1331439	0	0	0	0
0.3689091	-0.01149949	-0.1331439	0	0	0	0
0.3854758	-0.01149949	-0.1331439	0	0	0	0
0.4020426	-0.01149949	-0.1331439	0	0	0	0
0.4186065	-0.01149949	-0.1331439	0	0	0	0
0.4351753	-0.01149949	-0.1331439	0	0	0	0
0.4519655	-0.01149949	-0.1331439	0	0	0	0
0.468306	-0.01147318	-0.1331636	0.001610267	-0.001207373	0.04860342	-0.03644267
0.4848755	-0.01147318	-0.1331636	0	0	-0.04892934	0.03668705
0.5019969	-0.01147318	-0.1331636	0	0	0	0
0.5180094	-0.01147318	-0.1331636	0	0	0	0
0.5346148	-0.01147318	-0.1331636	0	0	0	0
0.551142	-0.01147318	-0.1331636	0	0	0	0
0.5679125	-0.01147318	-0.1331636	0	0	0	0
0.5842759	-0.01147318	-0.1331636	0	0	0	0
0.6015046	-0.01147318	-0.1331636	0	0	0	0
0.6174093	-0.01147318	-0.1331636	0	0	0	0
0.6339757	-0.01147318	-0.1331636	0	0	0	0
0.6510465	-0.01147318	-0.1331636	0	0	0	0
0.667106	-0.01147318	-0.1331636	0	0	0	0
0.6836755	-0.01147318	-0.1331636	0	0	0	0
0.7006354	-0.01147318	-0.1331636	0	0	0	0
0.7168089	-0.01147318	-0.1331636	0	0	0	0
0.7334001	-0.01147318	-0.1331636	0	0	0	0
0.7504714	-0.01147318	-0.1331636	0	0	0	0
0.7708514	-0.01147318	-0.1331636	0	0	0	0
0.7874221	-0.01147318	-0.1331636	0	0	0	0
0.8040738	-0.01147318	-0.1331636	0	0	0	0
0.8205549	-0.01147318	-0.1331636	0	0	0	0
0.837122	-0.01147318	-0.1331636	0	0	0	0
0.8536887	-0.01147318	-0.1331636	0	0	0	0
0.8702555	-0.01147318	-0.1331636	0	0	0	0
0.8868214	-0.01147318	-0.1331636	0	0	0	0
0.9033853	-0.01147318	-0.1331636	0	0	0	0
0.9199572	-0.01147318	-0.1331636	0	0	0	0
0.9366242	-0.01147318	-0.1331636	0	0	0	0
0.9563482	-0.01147318	-0.1331636	0	0	0	0
0.9729158	-0.01147318	-0.1331636	0	0	0	0
0.9894848	-0.01147318	-0.1331636	0	0	0	0
1.006052	-0.01147318	-0.1331636	0	0	0	0
1.022618	-0.01147318	-0.1331636	0	0	0	0
1.039527	-0.01147318	-0.1331636	0	0	0	0
1.055749	-0.01147318	-0.1331636	0	0	0	0
1.072318	-0.01147318	-0.1331636	0	0	0	0
1.088885	-0.01147318	-0.1331636	0	0	0	0
1.105449	-0.01147318	-0.1331636	0	0	0	0
1.122018	-0.01147318	-0.1331636	0	0	0	0
1.138625	-0.01147318	-0.1331636	0	0	0	0
1.155149	-0.01147318	-0.1331636	0	0	0	0
1.171718	-0.01147318	-0.1331636	0	0	0	0
1.18842	-0.01147318	-0.1331636	0	0	0	0
1.20485	-0.01147318	-0.1331636	0	0	0	0
1.221418	-0.01147318	-0.1331636	0	0	0	0
1.238794	-0.01147318	-0.1331636	0	0	0	0
1.254549	-0.01147318	-0.1331636	0	0	0	0
1.271118	-0.01147318	-0.1331636	0	0	0	0
1.287685	-0.01147318	-0.1331636	0	0	0	0
1.304249	-0.01147318	-0.1331636	0	0	0	0
1.320818	-0.01147318	-0.1331636	0	0	0	0
1.337385	-0.01147318	-0.1331636	0	0	0	0
1.353949	-0.01147318	-0.1331636	0	0	0	0
1.370519	-0.01147318	-0.1331636	0	0	0	0
1.387085	-0.01147318	-0.1331636	0	0	0	0
1.403649	-0.01147318	-0.1331636	0	0	0	0
1.420219	-0.01147318	-0.1331636	0	0	0	0
1.436785	-0.01147318	-0.1331636	0	0	0	0
1.457588	-0.01147318	-0.1331636	0	0	0	0
1.474162	-0.01147318	-0.1331636	0	0	0	0
1.490723	-0.01147318	-0.1331636	0	0	0	0
1.507293	-0.01147318	-0.1331636	0	0	0	0
1.52416	-0.01147318	-0.1331636	0	0	0	0
1.540423	-0.01147318	-0.1331636	0	0	0	0
1.556998	-0.01147318	-0.1331636	0	0	0	0
1.574048	-0.01147318	-0.1331636	0	0	0	0
1.590128	-0.01147318	-0.1331636	0	0	0	0
1.606694	-0.01147318	-0.1331636	0	0	0	0
1.623263	-0.01147318	-0.1331636	0	0	0	0
1.639829	-0.01147318	-0.1331636	0	0	0	0
1.656396	-0.01147318	-0.1331636	0	0	0	0
1.672968	-0.01147318	-0.1331636	0	0	0	0
1.690007	-0.01147318	-0.1331636	0	0	0	0
1.706097	-0.01147318	-0.1331636	0	0	0	0
1.722658	-0.01147318	-0.1331636	0	0	0	0
1.739223	-0.01147318	-0.1331636	0	0	0	0
1.756156	-0.01147318	-0.1331636	0	0	0	0
1.772661	-0.01147318	-0.1331636	0	0	0	0
1.789676	-0.01147318	-0.1331636	0	0	0	0
1.805492	-0.01147318	-0.1331636	0	0	0	0
1.822059	-0.01147318	-0.1331636	0	0	0	0
1.838622	-0.01147318	-0.1331636	0	0	0	0
1.855192	-0.01147318	-0.1331636	0	0	0	0
1.872263	-0.01147318	-0.1331636	0	0	0	0
1.888322	-0.01147318	-0.1331636	0	0	0	0
1.904892	-0.01147318	-0.1331636	0	0	0	0
1.921459	-0.01147318	-0.1331636	0	0	0	0
1.938025	-0.01147318	-0.1331636	0	0	0	0
1.954592	-0.01147318	-0.1331636	0	0	0	0
1.971166	-0.01147318	-0.1331636	0	0	0	0
1.988047	-0.01147318	-0.1331636	0	0	0	0
2.004292	-0.01147318	-0.1331636	0	0	0	0
2.021082	-0.01147318	-0.1331636	0	0	0	0
2.03798	-0.01147318	-0.1331636	0	0	0	0
2.053991	-0.01147318	-0.1331636	0	0	0	0
2.070686	-0.01147318	-0.1331636	0	0	0	0
2.087123	-0.01147318	-0.1331636	0	0	0	0
2.103693	-0.01147318	-0.1331636	0	0	0	0
2.120259	-0.01147318	-0.1331636	0	0	0	0
2.136911	-0.01147318	-0.1331636	0	0	0	0
2.153392	-0.01147318	-0.1331636	0	0	0	0
2.169959	-0.01147318	-0.1331636	0	0	0	0
2.186525	-0.01147318	-0.1331636	0	0	0	0
2.203092	-0.01147318	-0.1331636	0	0	0	0
2.219659	-0.01147318	-0.1331636	0	0	0	0
2.236223	-0.01147318	-0.1331636	0	0	0	0
2.252791	-0.01147318	-0.1331636	0	0	0	0
2.269359	-0.01147318	-0.1331636	0	0	0	0
2.285925	-0.01149949	-0.1331439	-0.001588281	0.001190887	-0.04793476	0.03594131
2.302904	-0.01149949	-0.1331439	0	0	0.04734707	-0.03550067
2.319379	-0.01149949	-0.1331439	0	0	0	0
2.335622	-0.01149949	-0.1331439	0	0	0	0
2.352192	-0.01149949	-0.1331439	0	0	0	0
2.368759	-0.01149949	-0.1331439	0	0	0	0
2.385325	-0.01149949	-0.1331439	0	0	0	0
2.402084	-0.01149949	-0.1331439	0	0	0	0
2.418902	-0.01149949	-0.1331439	0	0	0	0
2.435025	-0.01149949	-0.1331439	0	0	0	0
2.451592	-0.01149949	-0.1331439	0	0	0	0
2.468244	-0.01149949	-0.1331439	0	0	0	0
2.484726	-0.01149949	-0.1331439	0	0	0	0
2.501292	-0.01149949	-0.1331439	0	0	0	0
2.517944	-0.01149949	-0.1331439	0	0	0	0
2.534425	-0.01147318	-0.1331636	0.00159646	-0.00119702	0.04818334	-0.0361277
2.551664	-0.01147318	-0.1331636	0	0	-0.04734391	0.03549829
2.568162	-0.01147318	-0.1331636	0	0	0	0
2.584123	-0.01147318	-0.1331636	0	0	0	0
2.60087	-0.01147318	-0.1331636	0	0	0	0
2.617259	-0.01147318	-0.1331636	0	0	0	0
2.633823	-0.01147318	-0.1331636	0	0	0	0
2.650393	-0.01147318	-0.1331636	0	0	0	0
2.666959	-0.01147318	-0.1331636	0	0	0	0
2.683612	-0.01147318	-0.1331636	0	0	0	0
2.700092	-0.01147318	-0.1331636	0	0	0	0
2.716659	-0.01147318	-0.1331636	0	0	0	0
2.733226	-0.01147318	-0.1331636	0	0	0	0
2.749792	-0.01147318	-0.1331636	0	0	0	0
2.766461	-0.01147318	-0.1331636	0	0	0	0
2.787095	-0.01144687	-0.1332228	0.001275183	-0.002869106	0.03418449	-0.0769136
2.803665	-0.01144687	-0.1332228	0	0	-0.03427519	0.07711766
2.820232	-0.01099956	-0.1336373	0.02700055	-0.02501673	0.8148254	-0.7549576
2.836945	-0.01099956	-0.1336373	0	0	-0.8113229	0.7517124
2.853365	-0.01099956	-0.1336373	0	0	0	0
2.869932	0.007999829	-0.1561637	1.146805	-1.359698	34.76449	-41.21817
2.886498	0.007999829	-0.1561637	0	0	-34.6119	41.03724
2.903066	0.007999829	-0.1561637	0	0	0	0
2.919632	0.04239563	-0.2234747	2.076284	-4.063193	62.66328	-122.6292
2.936793	0.04239563	-0.2234747	0	0	-61.56161	120.4733
2.952766	0.04239563	-0.2234747	0	0	0	0
2.969574	0.0409245	-0.3006179	-0.08752531	-4.589664	-2.67003	-140.0114
2.985899	0.0409245	-0.3006179	0	0	2.641614	138.5213
3.002466	0.0409245	-0.3006179	0	0	0	0
3.01903	0.03974222	-0.3604625	-0.07137822	-3.613004	-2.154432	-109.0525
3.0356	0.03974222	-0.3604625	0	0	2.154261	109.0438
3.052166	0.03974222	-0.3604625	0	0	0	0
3.068822	0.05641376	-0.3871409	1.000909	-1.601692	30.12751	-48.21114
3.085299	0.05641376	-0.3871409	0	0	-30.2088	48.34124
3.101866	0.05641376	-0.3871409	0	0	0	0
3.118433	0.06228774	-0.3955379	0.3545642	-0.5068593	10.70108	-15.29748
3.134999	0.06228774	-0.3955379	0	0	-10.70108	15.29748
3.151566	0.06228774	-0.3955379	0	0	0	0
3.16813	0.06600922	-0.3996173	0.224668	-0.2462739	6.781176	-7.43331
3.184699	0.06600922	-0.3996173	0	0	-6.780786	7.432882
3.201266	0.06600922	-0.3996173	0	0	0	0
3.217833	0.05455109	-0.4096576	-0.6916543	-0.6060676	-20.87477	-18.29168
3.234432	0.05455109	-0.4096576	0	0	20.85451	18.27393
3.250966	0.05455109	-0.4096576	0	0	0	0
3.267786	0.05140205	-0.4221809	-0.1872229	-0.7445604	-5.6132	-22.32294
3.284123	0.05140205	-0.4221809	0	0	5.646621	22.45585
3.300664	0.05140205	-0.4221809	0	0	0	0
3.317729	0.05232063	-0.4229872	0.05382859	-0.04725114	1.601764	-1.40604
3.334301	0.05232063	-0.4229872	0	0	-1.6003	1.404755
3.350865	0.05232063	-0.4229872	0	0	0	0
3.367439	0.05234687	-0.4230102	0.001583493	-0.001389968	0.04778373	-0.04194388
3.384174	0.05234687	-0.4230102	0	0	-0.04754021	0.04173011
3.400566	0.05234687	-0.4230102	0	0	0	0
3.417132	0.05234687	-0.4230102	0	0	0	0
3.433699	0.05234687	-0.4230102	0	0	0	0
3.450505	0.05234687	-0.4230102	0	0	0	0
3.46683	0.05232063	-0.4229872	-0.001607707	0.001411223	-0.04852629	0.04259569
3.483741	0.05232063	-0.4229872	0	0	0.04837243	-0.04246063
3.500427	0.05232063	-0.4229872	0	0	0	0
3.516529	0.0522419	-0.4229181	-0.004889667	0.004294133	-0.1491328	0.1309693
3.533096	0.0522419	-0.4229181	0	0	0.1496749	-0.1314453
3.549976	0.0522419	-0.4229181	0	0	0	0
3.567057	0.05192696	-0.4226416	-0.01843756	0.01618616	-0.5428953	0.4766027
3.582796	0.05192696	-0.4226416	0	0	0.5617865	-0.4931871
3.599363	0.05192696	-0.4226416	0	0	0	0
3.615929	0.051717	-0.4224572	-0.01267455	0.01112714	-0.3825381	0.3358347
3.632495	0.051717	-0.4224572	0	0	0.3825436	-0.3358396
3.649063	0.051717	-0.4224572	0	0	0	0
3.665671	0.05161202	-0.4223651	-0.006321286	0.005546743	-0.1905423	0.1671953
3.682196	0.05161202	-0.4223651	0	0	0.190785	-0.1674083
3.69879	0.05161202	-0.4223651	0	0	0	0
3.715474	0.05155953	-0.4223191	-0.003146256	0.002761543	-0.09454399	0.08298347
3.731896	0.05155953	-0.4223191	0	0	0.09503626	-0.08341555
3.748462	0.05155953	-0.4223191	0	0	0	0
3.765032	0.05153328	-0.422296	-0.001583903	0.001390328	-0.04779955	0.04195776
3.781599	0.05153328	-0.422296	0	0	0.04779955	-0.04195776
3.798748	0.05153328	-0.422296	0	0	0	0
3.814729	0.05150703	-0.422273	-0.001642479	0.00144154	-0.04957619	0.04351109
3.831299	0.05150703	-0.422273	0	0	0.05045931	-0.04428617
3.847959	0.05150703	-0.422273	0	0	0	0
3.864429	0.05145454	-0.4221809	-0.003187109	0.005592991	-0.09619822	0.1688162
3.880999	0.05145454	-0.4221809	0	0	0.09646131	-0.1692779
3.897566	0.05145454	-0.4221809	0	0	0	0
3.914132	0.04767437	-0.4183624	-0.2281845	0.2304973	-6.886919	6.956723
3.930699	0.04767437	-0.4183624	0	0	6.887019	-6.956823
3.947272	0.04767437	-0.4183624	0	0	0	0
3.964199	0.01910294	-0.3862407	-1.687873	1.897608	-50.38361	56.64427
3.980399	0.01910294	-0.3862407	0	0	50.95073	-57.28187
3.997236	0.01910294	-0.3862407	0	0	0	0
4.013529	-0.01870834	-0.3199912	-2.320768	4.066235	-70.05099	122.7369
4.030099	-0.01870834	-0.3199912	0	0	70.6202	-123.7342
4.046882	-0.01870834	-0.3199912	0	0	0	0
4.063229	-0.005236794	-0.2353645	0.8241026	5.176919	24.87469	156.26
4.080367	-0.005236794	-0.2353645	0	0	-24.61149	-154.6066
4.096362	-0.005236794	-0.2353645	0	0	0	0
4.112932	0.002499995	-0.1612899	0.4669129	4.470381	14.33782	137.2751
4.129499	0.002499995	-0.1612899	0	0	-14.09024	-134.9047
4.146065	0.002499995	-0.1612899	0	0	0	0
4.16263	-0.01689313	-0.134111	-1.170774	1.640803	-35.33808	49.52524
4.179199	-0.01689313	-0.134111	0	0	35.33503	-49.52096
4.195765	-0.01689313	-0.134111	0	0	0	0
4.212774	-0.01912924	-0.1324336	-0.1314646	0.09861653	-3.915543	2.937196
4.228935	-0.01912924	-0.1324336	0	0	3.963274	-2.973001
4.245465	-0.01912924	-0.1324336	0	0	0	0
4.262033	-0.01841897	-0.1329663	0.04287105	-0.03215301	1.295305	-0.9714701
4.279035	-0.01841897	-0.1329663	0	0	-1.277071	0.9577953
4.295453	-0.01841897	-0.1329663	0	0	0	0
4.311791	-0.01836636	-0.1330058	0.003220379	-0.002415142	0.09831318	-0.07373054
4.328299	-0.01836636	-0.1330058	0	0	-0.09804628	0.07353038
4.344866	-0.01836636	-0.1330058	0	0	0	0
4.36143	-0.01836636	-0.1330058	0	0	0	0
4.377999	-0.01836636	-0.1330058	0	0	0	0
4.394566	-0.01836636	-0.1330058	0	0	0	0
4.41143	-0.01836636	-0.1329663	0	0.002339818	0	0.06999035
4.427699	-0.01836636	-0.1329663	0	0	0	-0.07061889
4.444265	-0.01836636	-0.1329663	0	0	0	0
4.460829	-0.01831374	-0.1329268	0.003176436	0.002382186	0.09587743	0.07190384
4.477455	-0.01831374	-0.1329268	0	0	-0.09570663	-0.07177573
4.494081	-0.01831374	-0.1329268	0	0	0	0
4.510532	-0.01828744	-0.1329071	0.001599072	0.001200181	0.04834286	0.03628368
4.527099	-0.01828744	-0.1329071	0	0	-0.04843083	-0.0363497
4.543783	-0.01828744	-0.1329071	0	0	0	0
4.560229	-0.01828744	-0.1329071	0	0	0	0
4.576798	-0.01828744	-0.1329071	0	0	0	0
4.593366	-0.01828744	-0.1329071	0	0	0	0
4.609929	-0.01828744	-0.1329071	0	0	0	0
4.626499	-0.01828744	-0.1329071	0	0	0	0
4.643066	-0.01828744	-0.1329071	0	0	0	0
4.65963	-0.01828744	-0.1329071	0	0	0	0
4.676198	-0.01828744	-0.1329071	0	0	0	0
4.692765	-0.01828744	-0.1329071	0	0	0	0
4.709367	-0.01826113	-0.1329268	0.00158467	-0.001189288	0.04777662	-0.03585615
4.725946	-0.01826113	-0.1329268	0	0	-0.04775809	0.03584223
4.742465	-0.01826113	-0.1329268	0	0	0	0
4.761811	-0.01810328	-0.1330452	0.008159219	-0.006119824	0.2275022	-0.1706381
4.778381	-0.01810328	-0.1330452	0	0	-0.227176	0.1703934
4.794948	-0.01810328	-0.1330452	0	0	0	0
4.811512	-0.01773498	-0.1333215	0.02223592	-0.01667938	0.6711681	-0.50345
4.828082	-0.01773498	-0.1333215	0	0	-0.6711006	0.5033993
4.844648	-0.01773498	-0.1333215	0	0	0	0
4.861211	-0.01755083	-0.1334991	0.01111801	-0.01072284	0.3355906	-0.3236627
4.877781	-0.01755083	-0.1334991	0	0	-0.335552	0.3236254
4.894603	-0.01755083	-0.1334991	0	0	0	0
4.910912	-0.01752452	-0.1335188	0.001613118	-0.001210638	0.04869032	-0.03654187
4.927482	-0.01752452	-0.1335188	0	0	-0.04906245	0.03682116
4.944048	-0.01752452	-0.1335188	0	0	0	0
4.960615	-0.01752452	-0.1335188	0	0	0	0
4.977181	-0.01752452	-0.1335188	0	0	0	0
4.993748	-0.01752452	-0.1335188	0	0	0	0
5.010312	-0.01755083	-0.1334991	-0.00158832	0.001192027	-0.0479418	0.03598011
5.026932	-0.01755083	-0.1334991	0	0	0.04786395	-0.03592169
5.043558	-0.01755083	-0.1334991	0	0	0	0
5.060011	-0.01757714	-0.1334794	-0.001598953	0.001199102	-0.04833719	0.03624947
5.07658	-0.01757714	-0.1334794	0	0	0.04842165	-0.03631281
5.093148	-0.01757714	-0.1334794	0	0	0	0
5.109714	-0.01757714	-0.1334794	0	0	0	0
5.126281	-0.01757714	-0.1334794	0	0	0	0
5.142928	-0.01757714	-0.1334794	0	0	0	0
5.159414	-0.01755083	-0.1334991	0.001595762	-0.001196709	0.04816296	-0.03611881
5.176108	-0.01755083	-0.1334991	0	0	-0.04809375	0.03606691
5.192697	-0.01755083	-0.1334991	0	0	0	0
5.209113	-0.01752452	-0.1335188	0.001602576	-0.001202726	0.0485552	-0.03644046
5.225681	-0.01752452	-0.1335188	0	0	-0.04858678	0.03646417
5.242249	-0.01752452	-0.1335188	0	0	0	0
5.258814	-0.01752452	-0.1335188	0	0	0	0
5.275381	-0.01752452	-0.1335188	0	0	0	0
5.292027	-0.01752452	-0.1335188	0	0	0	0
5.308634	-0.01752452	-0.1335188	0	0	0	0
5.325363	-0.01752452	-0.1335188	0	0	0	0
5.341669	-0.01752452	-0.1335188	0	0	0	0
5.358214	-0.01752452	-0.1335188	0	0	0	0
5.374781	-0.01752452	-0.1335188	0	0	0	0
5.391347	-0.01752452	-0.1335188	0	0	0	0
5.407912	-0.01749821	-0.1335386	0.001588228	-0.001191059	0.04793765	-0.03594984
5.425047	-0.01749821	-0.1335386	0	0	-0.04712912	0.0353435
5.441047	-0.01749821	-0.1335386	0	0	0	0
5.457612	-0.01752452	-0.1335188	-0.001588228	0.001191059	-0.04877156	0.03657522
5.474181	-0.01752452	-0.1335188	0	0	0.0479342	-0.03594726
5.491228	-0.01752452	-0.1335188	0	0	0	0
5.507312	-0.01752452	-0.1335188	0	0	0	0
5.523881	-0.01752452	-0.1335188	0	0	0	0
5.540639	-0.01752452	-0.1335188	0	0	0	0
5.557374	-0.01752452	-0.1335188	0	0	0	0
5.574008	-0.01752452	-0.1335188	0	0	0	0
5.590152	-0.01752452	-0.1335188	0	0	0	0
5.606712	-0.01752452	-0.1335188	0	0	0	0
5.623287	-0.01752452	-0.1335188	0	0	0	0
5.639852	-0.01752452	-0.1335188	0	0	0	0
5.656412	-0.01749821	-0.1335386	0.001588686	-0.001191402	0.04796043	-0.03596693
5.672987	-0.01749821	-0.1335386	0	0	-0.04794663	0.03595658
5.690295	-0.01749821	-0.1335386	0	0	0	0
5.70614	-0.01749821	-0.1335386	0	0	0	0
5.722686	-0.01749821	-0.1335386	0	0	0	0
5.739251	-0.01749821	-0.1335386	0	0	0	0
5.755814	-0.01749821	-0.1335386	0	0	0	0
5.772385	-0.01749821	-0.1335386	0	0	0	0
5.789142	-0.01749821	-0.1335386	0	0	0	0
5.810536	-0.01749821	-0.1335386	0	0	0	0
5.827106	-0.01749821	-0.1335386	0	0	0	0
5.843669	-0.01749821	-0.1335386	0	0	0	0
5.860237	-0.01749821	-0.1335386	0	0	0	0
5.876887	-0.01749821	-0.1335386	0	0	0	0
5.89337	-0.01749821	-0.1335386	0	0	0	0
5.909937	-0.01749821	-0.1335386	0	0	0	0
5.926504	-0.01749821	-0.1335386	0	0	0	0
5.94307	-0.01749821	-0.1335386	0	0	0	0
5.959638	-0.01749821	-0.1335386	0	0	0	0
5.976205	-0.01749821	-0.1335386	0	0	0	0
5.993892	-0.01749821	-0.1335386	0	0	0	0
6.010462	-0.01749821	-0.1335386	0	0	0	0
6.027399	-0.01749821	-0.1335386	0	0	0	0
6.112713	-0.01749821	-0.1335386	0	0	0	0
6.129285	-0.01749821	-0.1335386	0	0	0	0
6.148726	-0.01749821	-0.1335386	0	0	0	0
6.165758	-0.01749821	-0.1335386	0	0	0	0
6.181863	-0.01749821	-0.1335386	0	0	0	0
6.198488	-0.01749821	-0.1335386	0	0	0	0
6.214996	-0.01749821	-0.1335386	0	0	0	0
6.231756	-0.01749821	-0.1335386	0	0	0	0
6.248127	-0.01749821	-0.1335386	0	0	0	0
6.264697	-0.01749821	-0.1335386	0	0	0	0
6.281263	-0.01749821	-0.1335386	0	0	0	0
6.297827	-0.01752452	-0.1335188	-0.001588274	0.001191093	-0.04794041	0.03595192
6.314396	-0.01752452	-0.1335188	0	0	0.04793559	-0.0359483
6.33141	-0.01752452	-0.1335188	0	0	0	0
6.351021	-0.01752452	-0.1335188	0	0	0	0
6.367589	-0.01752452	-0.1335188	0	0	0	0
6.384159	-0.01752452	-0.1335188	0	0	0	0
6.400722	-0.01752452	-0.1335188	0	0	0	0
6.417292	-0.01752452	-0.1335188	0	0	0	0
6.434063	-0.01752452	-0.1335188	0	0	0	0
6.450422	-0.01752452	-0.1335188	0	0	0	0
6.466991	-0.01752452	-0.1335188	0	0	0	0
6.483555	-0.01752452	-0.1335188	0	0	0	0
6.500121	-0.01752452	-0.1335188	0	0	0	0
6.516688	-0.01752452	-0.1335188	0	0	0	0
6.533255	-0.01752452	-0.1335188	0	0	0	0
6.549821	-0.01752452	-0.1335188	0	0	0	0
6.566388	-0.01752452	-0.1335188	0	0	0	0
6.582958	-0.01752452	-0.1335188	0	0	0	0
6.599524	-0.01752452	-0.1335188	0	0	0	0
6.616092	-0.01752452	-0.1335188	0	0	0	0
6.633411	-0.01752452	-0.1335188	0	0	0	0
6.650627	-0.01752452	-0.1335188	0	0	0	0
6.667194	-0.01752452	-0.1335188	0	0	0	0
6.683761	-0.01752452	-0.1335188	0	0	0	0
6.700327	-0.01752452	-0.1335188	0	0	0	0
6.716894	-0.01752452	-0.1335188	0	0	0	0
6.733462	-0.01752452	-0.1335188	0	0	0	0
6.750027	-0.01752452	-0.1335188	0	0	0	0
6.766594	-0.01752452	-0.1335188	0	0	0	0
6.783635	-0.01752452	-0.1335188	0	0	0	0
6.815527	-0.01752452	-0.1335188	0	0	0	0
6.832098	-0.01752452	-0.1335188	0	0	0	0
6.848661	-0.01752452	-0.1335188	0	0	0	0
6.865228	-0.01752452	-0.1335188	0	0	0	0
6.881795	-0.01752452	-0.1335188	0	0	0	0
6.898361	-0.01752452	-0.1335188	0	0	0	0
6.914927	-0.01752452	-0.1335188	0	0	0	0
6.931495	-0.01752452	-0.1335188	0	0	0	0
6.948061	-0.01752452	-0.1335188	0	0	0	0
6.964628	-0.01752452	-0.1335188	0	0	0	0
6.981195	-0.01752452	-0.1335188	0	0	0	0
6.997763	-0.01752452	-0.1335188	0	0	0	0
7.014328	-0.01752452	-0.1335188	0	0	0	0
7.030895	-0.01752452	-0.1335188	0	0	0	0
7.047461	-0.01752452	-0.1335188	0	0	0	0
7.064028	-0.01752452	-0.1335188	0	0	0	0
7.080618	-0.01752452	-0.1335188	0	0	0	0
7.097164	-0.01752452	-0.1335188	0	0	0	0
7.11373	-0.01752452	-0.1335188	0	0	0	0
7.130635	-0.01752452	-0.1335188	0	0	0	0
7.146907	-0.01755083	-0.1334991	-0.001616806	0.001213406	-0.04873288	0.03657381
7.16343	-0.01755083	-0.1334991	0	0	0.04930044	-0.03699977
7.18028	-0.01755083	-0.1334991	0	0	0	0
7.196561	-0.01755083	-0.1334991	0	0	0	0
7.21313	-0.01755083	-0.1334991	0	0	0	0
7.229697	-0.01755083	-0.1334991	0	0	0	0
7.246278	-0.01755083	-0.1334991	0	0	0	0
7.262831	-0.01755083	-0.1334991	0	0	0	0
7.279397	-0.01755083	-0.1334991	0	0	0	0
7.295961	-0.01755083	-0.1334991	0	0	0	0
7.31253	-0.01755083	-0.1334991	0	0	0	0
7.329312	-0.01755083	-0.1334991	0	0	0	0
7.345661	-0.01755083	-0.1334991	0	0	0	0
7.36223	-0.01755083	-0.1334991	0	0	0	0
7.378902	-0.01755083	-0.1334991	0	0	0	0
7.39536	-0.01755083	-0.1334991	0	0	0	0
7.411928	-0.01755083	-0.1334991	0	0	0	0
7.428775	-0.01755083	-0.1334991	0	0	0	0
7.445061	-0.01755083	-0.1334991	0	0	0	0
7.461627	-0.01755083	-0.1334991	0	0	0	0
7.47839	-0.01755083	-0.1334991	0	0	0	0
7.494761	-0.01755083	-0.1334991	0	0	0	0
7.511327	-0.01755083	-0.1334991	0	0	0	0
7.528059	-0.01755083	-0.1334991	0	0	0	0
7.544461	-0.01755083	-0.1334991	0	0	0	0
7.561028	-0.01755083	-0.1334991	0	0	0	0
7.577621	-0.01755083	-0.1334991	0	0	0	0
7.59416	-0.01755083	-0.1334991	0	0	0	0
7.61081	-0.01755083	-0.1334991	0	0	0	0
7.627294	-0.01755083	-0.1334991	0	0	0	0
7.643861	-0.01755083	-0.1334991	0	0	0	0
7.660428	-0.01755083	-0.1334991	0	0	0	0
7.676996	-0.01755083	-0.1334991	0	0	0	0
7.693719	-0.01755083	-0.1334991	0	0	0	0
7.710178	-0.01755083	-0.1334991	0	0	0	0
7.726696	-0.01755083	-0.1334991	0	0	0	0
7.743348	-0.01755083	-0.1334991	0	0	0	0
7.759831	-0.01755083	-0.1334991	0	0	0	0
7.776398	-0.01755083	-0.1334991	0	0	0	0
7.793371	-0.01755083	-0.1334991	0	0	0	0
7.809531	-0.01755083	-0.1334991	0	0	0	0
7.82635	-0.01755083	-0.1334991	0	0	0	0
7.842972	-0.01755083	-0.1334991	0	0	0	0
7.859807	-0.01755083	-0.1334991	0	0	0	0
7.87611	-0.01755083	-0.1334991	0	0	0	0
7.892937	-0.01755083	-0.1334991	0	0	0	0
7.909507	-0.01755083	-0.1334991	0	0	0	0
7.926074	-0.01755083	-0.1334991	0	0	0	0
7.942638	-0.01755083	-0.1334991	0	0	0	0
7.959208	-0.01755083	-0.1334991	0	0	0	0
7.975774	-0.01755083	-0.1334991	0	0	0	0
7.992338	-0.01755083	-0.1334991	0	0	0	0
8.008907	-0.01755083	-0.1334991	0	0	0	0
8.025704	-0.01755083	-0.1334991	0	0	0	0
8.042038	-0.01755083	-0.1334991	0	0	0	0
8.058607	-0.01755083	-0.1334991	0	0	0	0
8.075265	-0.01755083	-0.1334991	0	0	0	0
8.091738	-0.01755083	-0.1334991	0	0	0	0
8.108469	-0.01755083	-0.1334991	0	0	0	0
8.125193	-0.01755083	-0.1334991	0	0	0	0
8.145252	-0.01752452	-0.1335188	0.001311493	-0.0009842695	0.03565465	-0.02675866
8.161823	-0.01752452	-0.1335188	0	0	-0.03580317	0.02687012
8.178387	-0.01752452	-0.1335188	0	0	0	0
8.194958	-0.01752452	-0.1335188	0	0	0	0
8.211762	-0.01752452	-0.1335188	0	0	0	0
8.22829	-0.01752452	-0.1335188	0	0	0	0
8.244657	-0.01752452	-0.1335188	0	0	0	0
8.261459	-0.01752452	-0.1335188	0	0	0	0
8.277806	-0.01755083	-0.1334991	-0.001609354	0.001207813	-0.04854804	0.03643509
8.294813	-0.01755083	-0.1334991	0	0	0.04825099	-0.03621215
8.310946	-0.01755083	-0.1334991	0	0	0	0
8.327507	-0.01757714	-0.1334794	-0.001588503	0.001191264	-0.04858718	0.03643695
8.344081	-0.01757714	-0.1334794	0	0	0.04793973	-0.0359514
8.360643	-0.01757714	-0.1334794	0	0	0	0
8.377207	-0.01760344	-0.1334202	-0.001588207	0.003575181	-0.04794461	0.1079271
8.393777	-0.01760344	-0.1334202	0	0	0.04793357	-0.1079023
8.410699	-0.01760344	-0.1334202	0	0	0	0
8.42691	-0.01394646	-0.1306785	0.2255792	0.1691175	6.80819	5.104123
8.443478	-0.01394646	-0.1306785	0	0	-6.881876	-5.159365
8.460044	-0.01394646	-0.1306785	0	0	0	0
8.476608	0.01528828	-0.108951	1.764918	1.311698	53.27145	39.59169
8.493178	0.01528828	-0.108951	0	0	-53.26532	-39.58714
8.509905	0.01528828	-0.108951	0	0	0	0
8.526309	0.05426247	-0.08039805	2.375873	1.740596	71.71226	52.53734
8.597282	0.05426247	-0.08039805	0	0	-27.19089	-19.9204
8.614532	0.05426247	-0.08039805	0	0	0	0
8.631109	0.1455425	-0.01305992	5.506187	4.061965	162.7757	120.0812
8.647669	0.1455425	-0.01305992	0	0	-166.1627	-122.5798
8.664236	0.1455425	-0.01305992	0	0	0	0
8.680802	0.1692341	0.005727652	1.430108	1.134085	43.16199	34.22775
8.697369	0.1692341	0.005727652	0	0	-43.16323	-34.22873
8.713935	0.1692341	0.005727652	0	0	0	0
8.730616	0.1682367	0.01085374	-0.05979236	0.307306	-1.798429	9.243121
8.747864	0.1682367	0.01085374	0	0	1.762285	-9.05736
8.763636	0.1682367	0.01085374	0	0	0	0
8.780199	0.1542902	0.02112054	-0.8420038	0.6198483	-26.03979	19.16941
8.796938	0.1542902	0.02112054	0	0	25.28365	-18.61277
8.813334	0.1542902	0.02112054	0	0	0	0
8.830305	0.1556774	0.02403773	0.08174083	0.1718963	2.449739	5.151661
8.846794	0.1556774	0.02403773	0	0	-2.442966	-5.137418
8.863032	0.1556774	0.02403773	0	0	0	0
8.879671	0.1561397	0.02448632	0.02778235	0.02696033	0.84504	0.8200371
8.896169	0.1561397	0.02448632	0	0	-0.8384249	-0.8136176
8.913032	0.1561397	0.02448632	0	0	0	0
8.929302	0.1557545	0.02476665	-0.02367607	0.01722965	-0.7145659	0.5200069
8.945868	0.1557545	0.02476665	0	0	0.72102	-0.5247037
8.962479	0.1557545	0.02476665	0	0	0	0
8.979	0.1548041	0.02545806	-0.05752496	0.04184889	-1.736257	1.263111
8.995896	0.1548041	0.02545806	0	0	1.721392	-1.252297
9.012377	0.1548041	0.02545806	0	0	0	0
9.028698	0.1548041	0.02545806	0	0	0	0
9.045268	0.1548041	0.02545806	0	0	0	0
9.062761	0.1548041	0.02545806	0	0	0	0
9.079669	0.1548041	0.02545806	0	0	0	0
9.096239	0.1548041	0.02545806	0	0	0	0
9.112805	0.1548041	0.02545806	0	0	0	0
9.129373	0.1547784	0.02547674	-0.001550627	0.001127893	-0.04679938	0.03404085
9.145939	0.1547784	0.02547674	0	0	0.04679938	-0.03404085
9.162801	0.1547784	0.02547674	0	0	0	0
9.179071	0.1547784	0.02547674	0	0	0	0
9.195654	0.1547784	0.02547674	0	0	0	0
9.212238	0.1547784	0.02547674	0	0	0	0
9.233725	0.1546756	0.02551411	-0.004782512	0.001739174	-0.1256219	0.04568277
9.250294	0.1546756	0.02551411	0	0	0.1256723	-0.04570109
9.266858	0.1545728	0.02558885	-0.006204481	0.004512012	-0.187257	0.1361767
9.283424	0.1545728	0.02558885	0	0	0.1872732	-0.1361885
9.299991	0.1545728	0.02558885	0	0	0	0
9.316876	0.1545728	0.02558885	0	0	0	0
9.333674	0.1545728	0.02558885	0	0	0	0
9.350217	0.1545728	0.02558885	0	0	0	0
9.366278	0.1545472	0.02557017	-0.001599519	-0.001163339	-0.04906009	-0.03568168
9.382863	0.1545472	0.02557017	0	0	0.0489956	0.03563477
9.39939	0.1545472	0.02557017	0	0	0	0
9.416211	0.1544701	0.02547674	-0.004581727	-0.005553971	-0.137391	-0.1665454
9.432524	0.1544701	0.02547674	0	0	0.1382808	0.167624
9.44909	0.1544701	0.02547674	0	0	0	0
9.46579	0.1543159	0.02536463	-0.009231697	-0.006713302	-0.2775109	-0.2018063
9.482225	0.1543159	0.02536463	0	0	0.2786051	0.202602
9.498793	0.1543159	0.02536463	0	0	0	0
9.519403	0.1518483	0.02338344	-0.1197278	-0.09612843	-3.220473	-2.58569
9.535974	0.1518483	0.02338344	0	0	3.220143	2.585425
9.552537	0.1364365	0.01214813	-0.9304729	-0.6783211	-28.08173	-20.47177
9.569106	0.1364365	0.01214813	0	0	28.08335	20.47295
9.585673	0.1364365	0.01214813	0	0	0	0
9.602238	0.08688596	-0.02381226	-2.991395	-2.170948	-90.28829	-65.525
9.618807	0.08688596	-0.02381226	0	0	90.2831	65.52122
9.635373	0.08688596	-0.02381226	0	0	0	0
9.651939	0.03474917	-0.06191876	-3.147164	-2.300245	-94.98708	-69.42554
9.668506	0.03474917	-0.06191876	0	0	94.98708	69.42554
9.68557	0.03474917	-0.06191876	0	0	0	0
9.701639	0.0002894737	-0.08723142	-2.144428	-1.575208	-64.72082	-47.54123
9.718204	0.0002894737	-0.08723142	0	0	65.70997	48.26783
9.735317	0.0002894737	-0.08723142	0	0	0	0
9.751464	-0.002789466	-0.08942254	-0.1906859	-0.1357011	-5.733294	-4.080082
9.767902	-0.002789466	-0.08942254	0	0	5.851927	4.164507
9.784698	-0.002789466	-0.08942254	0	0	0	0
9.801041	-0.00294736	-0.08957773	-0.009661156	-0.009495627	-0.2915407	-0.2865456
9.817604	-0.00294736	-0.08957773	0	0	0.2935939	0.2885636
9.834168	-0.00294736	-0.08957773	0	0	0	0
9.850738	-0.003631563	-0.09012096	-0.04129383	-0.03278606	-1.246286	-0.9895138
9.86733	-0.003631563	-0.09012096	0	0	1.245247	0.9886885
9.883871	-0.003631563	-0.09012096	0	0	0	0
9.900434	-0.003605247	-0.09014037	0.00158877	-0.001171335	0.04799198	-0.03538254
9.917004	-0.003605247	-0.09014037	0	0	-0.04795192	0.035353
9.933783	-0.003605247	-0.09014037	0	0	0	0
9.950298	-0.003447355	-0.09037322	0.00956014	-0.01409886	0.2871372	-0.4234569
9.966972	-0.003447355	-0.09037322	0	0	-0.2880448	0.4247953
9.983272	-0.003447355	-0.09037322	0	0	0	0
9.999835	-0.003078938	-0.0910719	0.02224283	-0.04218201	0.676842	-1.283585
10.0164	-0.003078938	-0.0910719	0	0	-0.6713286	1.273129
10.03297	-0.003078938	-0.0910719	0	0	0	0
10.04953	-0.0001842105	-0.09332444	0.1747663	-0.135995	5.275065	-4.104809
10.0661	-0.0001842105	-0.09332444	0	0	-5.274762	4.104573
10.08267	-0.0001842105	-0.09332444	0	0	0	0
10.09924	-0.0002368421	-0.09328559	-0.003177397	0.002345234	-0.0959023	0.07078543
10.1158	-0.0002368421	-0.09328559	0	0	0.09589678	-0.07078135
10.13308	-0.0002368421	-0.09328559	0	0	0	0
10.14894	-0.0002368421	-0.09328559	0	0	0	0
10.16551	-0.0002368421	-0.09328559	0	0	0	0
10.18207	-0.0002368421	-0.09328559	0	0	0	0
10.19864	-0.0002894737	-0.09324674	-0.003177397	0.002345684	-0.09590509	0.07080104
10.21521	-0.0002894737	-0.09324674	0	0	0.0958968	-0.07079493
10.23177	-0.0002894737	-0.09324674	0	0	0	0
10.24834	-0.0003157895	-0.09322731	-0.001588515	0.001172482	-0.04794699	0.03538965
10.2649	-0.0003157895	-0.09322731	0	0	0.04794284	-0.0353866
10.28147	-0.0003157895	-0.09322731	0	0	0	0
10.29804	-0.0003157895	-0.09322731	0	0	0	0
10.3146	-0.0003157895	-0.09322731	0	0	0	0
10.33117	-0.0003157895	-0.09322731	0	0	0	0
10.34774	-0.0003157895	-0.09322731	0	0	0	0
10.3643	-0.0003157895	-0.09322731	0	0	0	0
10.38087	-0.0003157895	-0.09322731	0	0	0	0
10.39744	-0.0002894737	-0.09324674	0.001588515	-0.001172482	0.04794423	-0.03538762
10.414	-0.0002894737	-0.09324674	0	0	-0.04794284	0.0353866
10.4306	-0.0002894737	-0.09324674	0	0	0	0
10.44713	-0.0003157895	-0.09322731	-0.001591813	0.001174917	-0.04804794	0.03546417
10.4637	-0.0003157895	-0.09322731	0	0	0.04808947	-0.03549482
10.48027	-0.0003157895	-0.09322731	0	0	0	0
10.49683	-0.0002894737	-0.09324674	0.001588697	-0.001172617	0.0479525	-0.03539373
10.51349	-0.0002894737	-0.09324674	0	0	-0.04781624	0.03529315
10.53047	-0.0002894737	-0.09324674	0	0	0	0
10.55065	-0.0002894737	-0.09324674	0	0	0	0
10.56722	-0.0002894737	-0.09324674	0	0	0	0
10.59025	-0.0002894737	-0.09324674	0	0	0	0
10.60682	-0.0002894737	-0.09324674	0	0	0	0
10.62374	-0.0003157895	-0.09322731	-0.001555122	0.001147835	-0.04643252	0.03427183
10.63995	-0.0003157895	-0.09322731	0	0	0.04693503	-0.03464273
10.65661	-0.0003157895	-0.09322731	0	0	0	0
10.67308	-0.0002894737	-0.09324674	0.001597342	-0.001178998	0.04821205	-0.0355853
10.68965	-0.0002894737	-0.09324674	0	0	-0.04834145	0.03568081
10.70622	-0.0002894737	-0.09324674	0	0	0	0
10.72279	-0.0002894737	-0.09324674	0	0	0	0
10.73935	-0.0002894737	-0.09324674	0	0	0	0
10.75607	-0.0002894737	-0.09324674	0	0	0	0
10.77248	-0.0002894737	-0.09332444	0	-0.004734257	0	-0.1428925
10.78905	-0.0002894737	-0.09332444	0	0	0	0.1435453
10.80573	-0.0002894737	-0.09332444	0	0	0	0
10.82218	-0.000368421	-0.09338272	-0.004797583	-0.003541999	-0.1448038	-0.106907
10.83875	-0.000368421	-0.09338272	0	0	0.1452722	0.1072527
10.85532	-0.000368421	-0.09338272	0	0	0	0
10.87188	-0.0003947368	-0.09340215	-0.001588516	-0.001172482	-0.04794704	-0.03538965
10.88845	-0.0003947368	-0.09340215	0	0	0.04794152	0.03538558
10.90552	-0.0003947368	-0.09340215	0	0	0	0
10.92158	-0.0003947368	-0.09340215	0	0	0	0
10.93816	-0.0003947368	-0.09340215	0	0	0	0
10.95472	-0.0003947368	-0.09340215	0	0	0	0
10.97128	-0.0003947368	-0.09340215	0	0	0	0
10.98786	-0.0003947368	-0.09340215	0	0	0	0
11.00442	-0.0003947368	-0.09340215	0	0	0	0
11.02098	-0.0003947368	-0.09340215	0	0	0	0
11.03755	-0.0003947368	-0.09340215	0	0	0	0
11.05429	-0.0003947368	-0.09340215	0	0	0	0
11.07068	-0.0004210526	-0.09338272	-0.001604961	0.001184621	-0.04844756	0.03575913
11.08725	-0.0004210526	-0.09338272	0	0	0.04868301	-0.03593292
11.10382	-0.0004210526	-0.09338272	0	0	0	0
11.12064	-0.0004210526	-0.09338272	0	0	0	0
11.13773	-0.0004210526	-0.09338272	0	0	0	0
11.15373	-0.0004210526	-0.09338272	0	0	0	0
11.17054	-0.0004210526	-0.09338272	0	0	0	0
11.18665	-0.0004210526	-0.09338272	0	0	0	0
11.20322	-0.0004210526	-0.09338272	0	0	0	0
11.21978	-0.0004210526	-0.09338272	0	0	0	0
11.23635	-0.0004210526	-0.09338272	0	0	0	0
11.25292	-0.0004210526	-0.09338272	0	0	0	0
11.26948	-0.0004210526	-0.09338272	0	0	0	0
11.28605	-0.0004210526	-0.09338272	0	0	0	0
11.30305	-0.0004210526	-0.09338272	0	0	0	0
11.31918	-0.0003947368	-0.09340215	0.001631531	-0.001204233	0.04924538	-0.036348
11.33575	-0.0003947368	-0.09340215	0	0	-0.04989892	0.03683038
11.35295	-0.0003947368	-0.09340215	0	0	0	0
11.36888	-0.0003947368	-0.09340215	0	0	0	0
11.38545	-0.0003947368	-0.09340215	0	0	0	0
11.40202	-0.0003947368	-0.09340215	0	0	0	0
11.41858	-0.0003947368	-0.09340215	0	0	0	0
11.43515	-0.0003947368	-0.09340215	0	0	0	0
11.45171	-0.0003947368	-0.09340215	0	0	0	0
11.46828	-0.0003947368	-0.09340215	0	0	0	0
11.48485	-0.0003947368	-0.09340215	0	0	0	0
11.54929	-0.0003947368	-0.09340215	0	0	0	0
11.57197	-0.0004210526	-0.09338272	-0.001159951	0.0008561599	-0.01331324	0.009826496
11.58854	-0.0004210526	-0.09338272	0	0	0.02954975	-0.02181066
11.60511	-0.0004210526	-0.09338272	0	0	0	0
11.62169	-0.0004210526	-0.09338272	0	0	0	0
11.63841	-0.0004210526	-0.09338272	0	0	0	0
11.65531	-0.0004210526	-0.09342158	0	-0.002298961	0	-0.0683713
11.67188	-0.0004210526	-0.09342158	0	0	0	0.06868885
11.68845	-0.0004210526	-0.09342158	0	0	0	0
11.70505	-0.0004210526	-0.09342158	0	0	0	0
11.72158	-0.0004210526	-0.09342158	0	0	0	0
11.73848	-0.0004210526	-0.09342158	0	0	0	0
11.75471	-0.0004473684	-0.093441	-0.001621752	-0.001197014	-0.04895163	-0.03613114
11.77131	-0.0004473684	-0.093441	0	0	0.04939669	0.03645965
11.78826	-0.0004473684	-0.093441	0	0	0	0
11.80441	-0.0004473684	-0.093441	0	0	0	0
11.82099	-0.0004473684	-0.093441	0	0	0	0
11.83755	-0.0004473684	-0.093441	0	0	0	0
11.85412	-0.0004736842	-0.09346043	-0.001588515	-0.001172932	-0.04794699	-0.03540323
11.87127	-0.0004736842	-0.09346043	0	0	0.04711295	0.03478739
11.8877	-0.0004736842	-0.09346043	0	0	0	0
11.90382	-0.0005	-0.09347986	-0.001631726	-0.001204375	-0.05011977	-0.03699334
11.9208	-0.0005	-0.09347986	0	0	0.04929382	0.03638371
11.93742	-0.0005	-0.09347986	0	0	0	0
11.95351	-0.0005263158	-0.09346043	-0.001635013	0.001206801	-0.04998209	0.03689172
11.97008	-0.0005263158	-0.09346043	0	0	0.05004774	-0.03694018
11.98665	-0.0005263158	-0.09346043	0	0	0	0
12.00354	-0.0005263158	-0.09346043	0	0	0	0
12.01978	-0.0005263158	-0.09346043	0	0	0	0
12.03635	-0.0005263158	-0.09346043	0	0	0	0
12.05291	-0.0005	-0.09347986	0.001589157	-0.001172955	0.04797327	-0.03540902
12.06948	-0.0005	-0.09347986	0	0	-0.04797189	0.035408
12.08626	-0.0005	-0.09347986	0	0	0	0
12.10261	-0.0005	-0.09347986	0	0	0	0
12.11918	-0.0005	-0.09347986	0	0	0	0
12.13575	-0.0005	-0.09347986	0	0	0	0
12.15231	-0.0005263158	-0.09346043	-0.001588516	0.001172482	-0.04794704	0.03538965
12.16888	-0.0005263158	-0.09346043	0	0	0.04794428	-0.03538762
12.18588	-0.0005263158	-0.09346043	0	0	0	0
12.20737	-0.0005263158	-0.09346043	0	0	0	0
12.22394	-0.0005263158	-0.09346043	0	0	0	0
12.24078	-0.0005263158	-0.09346043	0	0	0	0
12.25708	-0.0005263158	-0.09346043	0	0	0	0
12.27384	-0.0005263158	-0.09346043	0	0	0	0
12.29089	-0.0005263158	-0.09346043	0	0	0	0
12.30745	-0.0005263158	-0.09346043	0	0	0	0
12.32402	-0.0005263158	-0.09346043	0	0	0	0
12.34059	-0.0005263158	-0.09346043	0	0	0	0
12.35716	-0.0005263158	-0.09346043	0	0	0	0
12.37372	-0.0005263158	-0.09346043	0	0	0	0
12.39029	-0.0005263158	-0.09346043	0	0	0	0
12.40761	-0.0005263158	-0.09346043	0	0	0	0
12.42344	-0.0005263158	-0.09346043	0	0	0	0
12.43999	-0.0005263158	-0.09346043	0	0	0	0
12.45656	-0.0005263158	-0.09346043	0	0	0	0
12.47312	-0.0005263158	-0.09346043	0	0	0	0
12.48969	-0.0005263158	-0.09346043	0	0	0	0
12.50626	-0.0005263158	-0.09346043	0	0	0	0
12.52304	-0.0005263158	-0.09346043	0	0	0	0
12.53939	-0.0005263158	-0.09346043	0	0	0	0
12.55596	-0.0005263158	-0.09346043	0	0	0	0
12.57314	-0.0005263158	-0.09346043	0	0	0	0
12.58909	-0.0005263158	-0.09346043	0	0	0	0
12.60566	-0.0005263158	-0.09346043	0	0	0	0
12.62233	-0.0005263158	-0.09346043	0	0	0	0
12.63879	-0.0005263158	-0.09346043	0	0	0	0
12.65536	-0.0005263158	-0.09346043	0	0	0	0
12.67241	-0.0005263158	-0.09346043	0	0	0	0
12.68888	-0.0005263158	-0.09346043	0	0	0	0
12.70506	-0.0005263158	-0.09346043	0	0	0	0
12.72169	-0.0005263158	-0.09346043	0	0	0	0
12.73819	-0.0005263158	-0.09346043	0	0	0	0
12.75476	-0.0005263158	-0.09346043	0	0	0	0
12.77149	-0.0005263158	-0.09346043	0	0	0	0
12.78793	-0.0005263158	-0.09346043	0	0	0	0
12.80448	-0.0005263158	-0.09346043	0	0	0	0
12.82122	-0.0005263158	-0.09346043	0	0	0	0
12.83759	-0.0005263158	-0.09346043	0	0	0	0
12.85416	-0.0005263158	-0.09346043	0	0	0	0
12.87072	-0.0005263158	-0.09346043	0	0	0	0
12.88745	-0.0005263158	-0.09346043	0	0	0	0
12.90386	-0.0005263158	-0.09346043	0	0	0	0
12.92043	-0.0005263158	-0.09346043	0	0	0	0
12.93699	-0.0005	-0.09347986	0.001588608	-0.00117255	0.04794842	-0.03539068
12.95371	-0.0005	-0.09347986	0	0	-0.0477286	0.03522843
12.97013	-0.0005	-0.09347986	0	0	0	0
12.98669	-0.0005526315	-0.09347986	-0.003177395	0	-0.0963404	0
13.00326	-0.0005526315	-0.09347986	0	0	0.09590225	0
13.02038	-0.0005526315	-0.09347986	0	0	0	0
13.03639	-0.0005789473	-0.09349929	-0.001644073	-0.001213954	-0.04962678	-0.03664352
13.05374	-0.0005789473	-0.09349929	0	0	0.0492905	0.03639522
13.06983	-0.0005789473	-0.09349929	0	0	0	0
13.08609	-0.0005789473	-0.09349929	0	0	0	0
13.10266	-0.0005789473	-0.09349929	0	0	0	0
13.11943	-0.0005789473	-0.09349929	0	0	0	0
13.13579	-0.0005789473	-0.09349929	0	0	0	0
13.15236	-0.0005789473	-0.09349929	0	0	0	0
13.16934	-0.0005789473	-0.09349929	0	0	0	0
13.18566	-0.0005789473	-0.09349929	0	0	0	0
13.20221	-0.0005789473	-0.09349929	0	0	0	0
13.21862	-0.0005789473	-0.09349929	0	0	0	0
13.23559	-0.0005789473	-0.09349929	0	0	0	0
13.25176	-0.0005789473	-0.09349929	0	0	0	0
13.26832	-0.0005789473	-0.09349929	0	0	0	0
13.28489	-0.0005789473	-0.09349929	0	0	0	0
13.30145	-0.0005789473	-0.09349929	0	0	0	0
13.31816	-0.0005789473	-0.09349929	0	0	0	0
13.33459	-0.0005789473	-0.09349929	0	0	0	0
13.35134	-0.0005789473	-0.09349929	0	0	0	0
13.36772	-0.0005789473	-0.09349929	0	0	0	0
13.3843	-0.0005789473	-0.09349929	0	0	0	0
13.40086	-0.0005789473	-0.09349929	0	0	0	0
13.41784	-0.0005789473	-0.09349929	0	0	0	0
13.43399	-0.0005789473	-0.09349929	0	0	0	0
13.4506	-0.0005789473	-0.09349929	0	0	0	0
13.46717	-0.0005789473	-0.09349929	0	0	0	0
13.48372	-0.0005789473	-0.09349929	0	0	0	0
13.50029	-0.0005789473	-0.09349929	0	0	0	0
13.51686	-0.0005789473	-0.09349929	0	0	0	0
13.54448	-0.0005789473	-0.09349929	0	0	0	0
13.56105	-0.0005789473	-0.09349929	0	0	0	0
13.57762	-0.0005789473	-0.09349929	0	0	0	0
13.59425	-0.0005789473	-0.09349929	0	0	0	0
13.61075	-0.0005789473	-0.09349929	0	0	0	0
13.62732	-0.0005789473	-0.09349929	0	0	0	0
13.64389	-0.0005789473	-0.09349929	0	0	0	0
13.66045	-0.0005789473	-0.09349929	0	0	0	0
13.67702	-0.0005789473	-0.09349929	0	0	0	0
13.69359	-0.0005789473	-0.09349929	0	0	0	0
13.71022	-0.0005789473	-0.09349929	0	0	0	0
13.72687	-0.0005789473	-0.09349929	0	0	0	0
13.74329	-0.0005789473	-0.09349929	0	0	0	0
13.76036	-0.0005789473	-0.09349929	0	0	0	0
13.77642	-0.0005789473	-0.09349929	0	0	0	0
13.79299	-0.0005789473	-0.09349929	0	0	0	0
13.80955	-0.0005789473	-0.09349929	0	0	0	0
13.82612	-0.0005789473	-0.09349929	0	0	0	0
13.84269	-0.0005789473	-0.09349929	0	0	0	0
13.85925	-0.0005789473	-0.09349929	0	0	0	0
13.87582	-0.0006052631	-0.09347986	-0.001588516	0.001172932	-0.04794428	0.03540119
13.89239	-0.0006052631	-0.09347986	0	0	0.04794428	-0.03540119
13.90896	-0.0006052631	-0.09347986	0	0	0	0
13.92552	-0.0006052631	-0.09347986	0	0	0	0
13.94209	-0.0006052631	-0.09347986	0	0	0	0
13.95865	-0.0006052631	-0.09347986	0	0	0	0
13.97528	-0.0006052631	-0.09347986	0	0	0	0
13.99188	-0.0006052631	-0.09347986	0	0	0	0
14.00835	-0.0006052631	-0.09347986	0	0	0	0
14.02492	-0.0006052631	-0.09347986	0	0	0	0
14.04149	-0.0006052631	-0.09347986	0	0	0	0
14.05831	-0.0006052631	-0.09347986	0	0	0	0
14.07462	-0.0006052631	-0.09347986	0	0	0	0
14.09126	-0.0006052631	-0.09347986	0	0	0	0
14.10775	-0.0006052631	-0.09347986	0	0	0	0
14.12432	-0.0006052631	-0.09347986	0	0	0	0
14.14097	-0.0006052631	-0.09347986	0	0	0	0
14.15779	-0.0006052631	-0.09347986	0	0	0	0
14.17402	-0.0006052631	-0.09347986	0	0	0	0
14.19059	-0.0006052631	-0.09347986	0	0	0	0
14.20715	-0.0006052631	-0.09347986	0	0	0	0
14.22378	-0.0008947366	-0.09330501	-0.01741252	0.01051721	-0.52465	0.31689
14.24066	-0.0008947366	-0.09330501	0	0	0.5196774	-0.3138866
14.25685	-0.0008947366	-0.09330501	0	0	0	0
14.27352	-0.01049961	-0.08622372	-0.5763015	0.4248841	-17.53717	12.92946
14.28999	-0.01049961	-0.08622372	0	0	17.39381	-12.82376
14.30655	-0.01049961	-0.08622372	0	0	0	0
14.32312	-0.06517074	-0.04615523	-3.300715	2.419096	-99.62726	73.01687
14.33969	-0.06517074	-0.04615523	0	0	99.62152	-73.01266
14.35625	-0.06517074	-0.04615523	0	0	0	0
14.37282	-0.1199218	-0.006320245	-3.304971	2.404583	-99.74709	72.57254
14.38939	-0.1199218	-0.006320245	0	0	99.74995	-72.57463
14.40629	-0.1199218	-0.006320245	0	0	0	0
14.42252	-0.1566789	0.02050314	-2.264948	1.652838	-68.36414	49.88851
14.43909	-0.1566789	0.02050314	0	0	69.05789	-50.39478
14.45623	-0.1566789	0.02050314	0	0	0	0
14.47242	-0.1849412	0.04117539	-1.745194	1.276511	-52.35063	38.29153
14.48878	-0.1849412	0.04117539	0	0	53.60346	-39.20791
14.50579	-0.1849412	0.04117539	0	0	0	0
14.52191	-0.1905543	0.04528484	-0.3480473	0.254809	-10.5056	7.691257
14.53848	-0.1905543	0.04528484	0	0	10.64472	-7.793104
14.55505	-0.1905543	0.04528484	0	0	0	0
14.57162	-0.1905543	0.04524767	0	-0.002243643	0	-0.06771522
14.58844	-0.1905543	0.04524767	0	0	0	0.0671892
14.60475	-0.1905543	0.04524767	0	0	0	0
14.62132	-0.1905543	0.04528484	0	0.00224403	0	0.06826529
14.63788	-0.1905543	0.04528484	0	0	0	-0.06772692
14.65451	-0.1905543	0.04528484	0	0	0	0
14.67101	-0.190529	0.04526626	0.001537403	-0.00112597	0.04640426	-0.03398574
14.68785	-0.190529	0.04526626	0	0	-0.04611225	0.03377187
14.70415	-0.190529	0.04526626	0	0	0	0
14.72856	-0.1905036	0.04524767	0.001039224	-0.0007615585	0.02552781	-0.01870715
14.74531	-0.1905036	0.04524767	0	0	-0.02525273	0.01850556
14.76188	-0.1904782	0.04522909	0.001531122	-0.00112137	0.04594883	-0.03365219
14.77834	-0.1904782	0.04522909	0	0	-0.04635078	0.03394657
14.79483	-0.1904782	0.04522909	0	0	0	0
14.81139	-0.1904528	0.04517334	0.00153218	-0.003366208	0.04635737	-0.1018474
14.82802	-0.1904528	0.04517334	0	0	-0.04615627	0.1014056
14.84453	-0.1904528	0.04517334	0	0	0	0
14.86109	-0.1904528	0.04517334	0	0	0	0
14.87766	-0.1904528	0.04517334	0	0	0	0
14.89423	-0.1904528	0.04517334	0	0	0	0
14.91079	-0.1904275	0.04515475	0.001531827	-0.001121886	0.04623198	-0.03385956
14.92736	-0.1904275	0.04515475	0	0	-0.04623331	0.03386053
14.94393	-0.1904275	0.04515475	0	0	0	0
14.96049	-0.1903514	0.04509899	0.004595112	-0.003366045	0.1386847	-0.1015904
14.97706	-0.1903514	0.04509899	0	0	-0.1386847	0.1015904
14.99389	-0.1903514	0.04509899	0	0	0	0
15.01019	-0.1902499	0.04502465	0.006225686	-0.004560491	0.1879132	-0.1376517
15.02676	-0.1902499	0.04502465	0	0	-0.1893906	0.138734
15.04363	-0.1902499	0.04502465	0	0	0	0
15.06071	-0.1899707	0.0448202	0.0163503	-0.01197536	0.4816692	-0.3527862
15.07646	-0.1899707	0.0448202	0	0	-0.4980691	0.3647978
15.09308	-0.1899707	0.0448202	0	0	0	0
15.10959	-0.1898946	0.04476444	0.004609547	-0.003376184	0.1391364	-0.1019081
15.12616	-0.1898946	0.04476444	0	0	-0.1393209	0.1020432
15.14274	-0.1898946	0.04476444	0	0	0	0
15.1593	-0.1898438	0.04472726	0.003066126	-0.002245807	0.09253853	-0.06778054
15.17586	-0.1898438	0.04472726	0	0	-0.0925785	0.06780981
15.19243	-0.1898438	0.04472726	0	0	0	0
15.20899	-0.1897677	0.0446715	0.004596911	-0.003366495	0.138747	-0.1016098
15.22599	-0.1897677	0.0446715	0	0	-0.1369728	0.1003105
15.24213	-0.1897677	0.0446715	0	0	0	0
15.25869	-0.1894631	0.04444844	0.01838569	-0.01346543	0.5621949	-0.4117441
15.27526	-0.1894631	0.04444844	0	0	-0.5548811	0.4063875
15.29183	-0.1894631	0.04444844	0	0	0	0
15.30839	-0.1877873	0.043147	0.1011739	-0.07857325	3.053873	-2.371687
15.32496	-0.1877873	0.043147	0	0	-3.053873	2.371687
15.34153	-0.1877873	0.043147	0	0	0	0
15.35809	-0.1783988	0.0354593	0.5667584	-0.4640839	17.1053	-14.00648
15.37466	-0.1783988	0.0354593	0	0	-17.10628	14.00729
15.39123	-0.1783988	0.0354593	0	0	0	0
15.40779	-0.1623992	-0.007131287	0.9659046	-2.571217	29.15274	-77.60394
15.42436	-0.1623992	-0.007131287	0	0	-29.15358	77.60618
15.44092	-0.1623992	-0.007131287	0	0	0	0
15.45754	-0.1600405	-0.0717116	0.1419849	-3.887558	4.279446	-117.1716
15.47406	-0.1600405	-0.0717116	0	0	-4.285235	117.3301
15.49062	-0.1600405	-0.0717116	0	0	0	0
15.50719	-0.1469334	-0.09381016	0.7912403	-1.334025	23.88174	-40.26443
15.52376	-0.1469334	-0.09381016	0	0	-23.88174	40.26443
15.54046	-0.1469334	-0.09381016	0	0	0	0
15.55689	-0.145594	-0.09482072	0.08154813	-0.06152877	2.461198	-1.856995
15.57346	-0.145594	-0.09482072	0	0	-2.471799	1.864994
15.59002	-0.145594	-0.09482072	0	0	0	0
15.60659	-0.1455683	-0.09484015	0.001555483	-0.001173584	0.04694726	-0.03542089
15.62315	-0.1455683	-0.09484015	0	0	-0.04695132	0.03542395
15.63972	-0.1455683	-0.09484015	0	0	0	0
15.65629	-0.145491	-0.09482072	0.004664475	0.001173314	0.140762	0.03540763
15.67286	-0.145491	-0.09482072	0	0	-0.1407782	-0.03541171
15.68946	-0.145491	-0.09482072	0	0	0	0
15.70682	-0.1453622	-0.09472353	0.007417392	0.005595862	0.2183827	0.1647532
15.7234	-0.1453622	-0.09472353	0	0	-0.2185484	-0.1648782
15.73996	-0.1453622	-0.09472353	0	0	0	0
15.75652	-0.1451303	-0.09474297	0.01400096	-0.00117372	0.4226349	-0.03543006
15.77309	-0.1451303	-0.09474297	0	0	-0.4226105	0.03542802
15.78966	-0.1451303	-0.09474297	0	0	0	0
15.80622	-0.1360749	-0.1014963	0.546678	-0.4077015	16.49925	-12.30481
15.82279	-0.1360749	-0.1014963	0	0	-16.5002	12.30552
15.83939	-0.1360749	-0.1014963	0	0	0	0
15.85592	-0.1177423	-0.1116103	1.108726	-0.6116807	33.46335	-18.46162
15.87249	-0.1177423	-0.1116103	0	0	-33.4942	18.47865
15.88906	-0.1177423	-0.1116103	0	0	0	0
15.90562	-0.1147567	-0.1138611	0.1802218	-0.1358667	5.439418	-4.100702
15.92219	-0.1147567	-0.1138611	0	0	-5.439418	4.100702
15.93876	-0.1147567	-0.1138611	0	0	0	0
15.95532	-0.1147308	-0.1138415	0.001567807	0.001181927	0.04731787	0.03567165
15.97189	-0.1147308	-0.1138415	0	0	-0.04731923	-0.03567268
15.98846	-0.1147308	-0.1138415	0	0	0	0
16.00505	-0.1145749	-0.1137241	0.009393505	0.007082183	0.283309	0.2135993
16.02159	-0.1145749	-0.1137241	0	0	-0.2835129	-0.213753
16.03816	-0.1145749	-0.1137241	0	0	0	0
16.05473	-0.1137438	-0.1130584	0.05017008	0.04017735	1.514136	1.212555
16.07129	-0.1137438	-0.1130584	0	0	-1.514136	-1.212555
16.08788	-0.1137438	-0.1130584	0	0	0	0
16.10443	-0.1061001	-0.1073099	0.4620129	0.3474599	13.94358	10.48636
16.12099	-0.1061001	-0.1073099	0	0	-13.95322	-10.49361
16.13756	-0.1061001	-0.1073099	0	0	0	0
16.15413	-0.09695818	-0.1004637	0.5518053	0.4132409	16.65351	12.47163
16.1707	-0.09695818	-0.1004637	0	0	-16.65351	-12.47163
16.18726	-0.09695818	-0.1004637	0	0	0	0
16.20383	-0.09695818	-0.1004637	0	0	0	0
16.2204	-0.09695818	-0.1004637	0	0	0	0
16.23697	-0.09695818	-0.1004637	0	0	0	0
16.25353	-0.09698425	-0.1004831	-0.001573563	-0.001175563	-0.04749023	-0.03547855
16.2701	-0.09698425	-0.1004831	0	0	0.04749023	0.03547855
16.28667	-0.09698425	-0.1004831	0	0	0	0
16.30403	-0.09695818	-0.1004637	0.001501315	0.001121588	0.04424515	0.03305425
16.3206	-0.09695818	-0.1004637	0	0	-0.04424515	-0.03305425
16.33717	-0.09695818	-0.1004637	0	0	0	0
16.35634	-0.0968539	-0.1005416	0.005438905	-0.004064023	0.1521721	-0.113705
16.37291	-0.0968539	-0.1005416	0	0	-0.152164	0.113699
16.38948	-0.0968539	-0.1005416	0	0	0	0
16.40605	-0.09596746	-0.101204	0.05350609	-0.03998262	1.614817	-1.206678
16.42261	-0.09596746	-0.101204	0	0	-1.61491	1.206747
16.43918	-0.09596746	-0.101204	0	0	0	0
16.45617	-0.08443038	-0.1097915	0.6791007	-0.5054846	20.23669	-15.06306
16.47231	-0.08443038	-0.1097915	0	0	-20.49766	15.25731
16.48901	-0.08443038	-0.1097915	0	0	0	0
16.50544	-0.07776392	-0.114194	0.4056104	-0.2678612	12.24205	-8.084533
16.52201	-0.07776392	-0.114194	0	0	-12.28945	8.115836
16.53858	-0.07776392	-0.114194	0	0	0	0
16.55515	-0.06881224	-0.1074662	0.5403249	0.4060926	16.30704	12.2559
16.57171	-0.06881224	-0.1074662	0	0	-16.30704	-12.2559
16.58828	-0.06881224	-0.1074662	0	0	0	0
16.60485	-0.0573843	-0.099081	0.6897917	0.5061306	20.81796	15.27505
16.62141	-0.0573843	-0.099081	0	0	-20.81915	-15.27593
16.63798	-0.0573843	-0.099081	0	0	0	0
16.65465	-0.05730561	-0.09906153	0.00471981	0.001167719	0.1419946	0.0351306
16.67147	-0.05730561	-0.09906153	0	0	-0.1409272	-0.03486651
16.68768	-0.05730561	-0.09906153	0	0	0	0
16.70425	-0.05683346	-0.09921729	0.02849863	-0.009401353	0.8695	-0.2868375
16.72081	-0.05683346	-0.09921729	0	0	-0.8601397	0.2837497
16.73738	-0.05683346	-0.09921729	0	0	0	0
16.75394	-0.05087711	-0.1036407	0.3595677	-0.267031	10.85303	-8.059939
16.77065	-0.05087711	-0.1036407	0	0	-10.80698	8.025747
16.78708	-0.05087711	-0.1036407	0	0	0	0
16.80365	-0.04636149	-0.1069975	0.2725946	-0.2026352	8.261639	-6.141349
16.82021	-0.04636149	-0.1069975	0	0	-8.227396	6.115894
16.83684	-0.04636149	-0.1069975	0	0	0	0
16.8576	-0.04633523	-0.1068998	0.001264821	0.004702931	0.03383147	0.1257941
16.87417	-0.04633523	-0.1068998	0	0	-0.03387986	-0.1259741
16.89073	-0.04602012	-0.1066655	0.01902475	0.01414689	0.5741681	0.4269539
16.9073	-0.04602012	-0.1066655	0	0	-0.5742012	-0.4269785
16.92388	-0.04602012	-0.1066655	0	0	0	0
16.94043	-0.04121349	-0.1031337	0.2903291	0.2133262	8.763159	6.43894
16.957	-0.04121349	-0.1031337	0	0	-8.764672	-6.440053
16.97357	-0.04121349	-0.1031337	0	0	0	0
16.99013	-0.0246266	-0.09089721	1.001417	0.738767	30.22631	22.2986
17.00694	-0.0246266	-0.09089721	0	0	-30.00692	-22.13675
17.0236	-0.0246266	-0.09089721	0	0	0	0
17.0399	-0.02383759	-0.09031501	0.04841631	0.03572591	1.469157	1.084076
17.0564	-0.02383759	-0.09031501	0	0	-1.476162	-1.089246
17.07297	-0.02383759	-0.09031501	0	0	0	0
17.08953	-0.02386389	-0.09033441	-0.001587687	-0.0011712	-0.04791925	-0.03534893
17.1061	-0.02386389	-0.09033441	0	0	0.04791649	0.0353469
17.12267	-0.02386389	-0.09033441	0	0	0	0
17.13954	-0.02386389	-0.09037322	0	-0.00230047	0	-0.06879863
17.1558	-0.02386389	-0.09037322	0	0	0	0.06943232
17.17237	-0.02386389	-0.09037322	0	0	0	0
17.18898	-0.02386389	-0.09037322	0	0	0	0
17.2055	-0.02386389	-0.09037322	0	0	0	0
17.22207	-0.02386389	-0.09037322	0	0	0	0
17.23863	-0.02389019	-0.09035382	-0.001587982	0.001171335	-0.04792816	0.035353
17.25535	-0.02389019	-0.09035382	0	0	0.04771392	-0.03519497
17.27177	-0.02389019	-0.09035382	0	0	0	0
17.28834	-0.02389019	-0.09035382	0	0	0	0
17.3049	-0.02389019	-0.09035382	0	0	0	0
17.32147	-0.02389019	-0.09035382	0	0	0	0
17.33803	-0.02389019	-0.09035382	0	0	0	0
17.3546	-0.02389019	-0.09035382	0	0	0	0
17.37117	-0.02389019	-0.09035382	0	0	0	0
17.38773	-0.02386389	-0.09037322	0.001587982	-0.001171335	0.04793092	-0.03535504
17.4043	-0.02386389	-0.09037322	0	0	-0.04792816	0.035353
17.42112	-0.02386389	-0.09037322	0	0	0	0
17.43743	-0.02389019	-0.09039263	-0.001612493	-0.001189872	-0.04867074	-0.03591453
17.454	-0.02389019	-0.09039263	0	0	0.04904059	0.03618745
17.47057	-0.02389019	-0.09039263	0	0	0	0
17.48963	-0.02391649	-0.09048966	-0.001379872	-0.005090673	-0.03873068	-0.1428866
17.5062	-0.02391649	-0.09048966	0	0	0.03872654	0.1428713
17.52277	-0.02391649	-0.09048966	0	0	0	0
17.53933	-0.02391649	-0.09052847	0	-0.00234312	0	-0.07072365
17.5559	-0.02391649	-0.09052847	0	0	0	0.07071958
17.57247	-0.02391649	-0.09052847	0	0	0	0
17.58904	-0.02391649	-0.09052847	0	0	0	0
17.60568	-0.02391649	-0.09052847	0	0	0	0
17.62217	-0.02391649	-0.09052847	0	0	0	0
17.63874	-0.02375869	-0.0906449	0.009525138	-0.007028192	0.2881659	-0.2126253
17.6553	-0.02375869	-0.0906449	0	0	-0.2874858	0.2121235
17.67187	-0.02375869	-0.0906449	0	0	0	0
17.68843	-0.01357811	-0.09820504	0.6145714	-0.4563831	18.54994	-13.77526
17.705	-0.01357811	-0.09820504	0	0	-18.5478	13.77367
17.72157	-0.01357811	-0.09820504	0	0	0	0
17.73813	-0.006999886	-0.1030752	0.3970626	-0.2939644	11.98406	-8.872375
17.7547	-0.006999886	-0.1030752	0	0	-11.98337	8.871863
17.77128	-0.006999886	-0.1030752	0	0	0	0
17.78798	-0.006578852	-0.1033872	0.02521333	-0.01868397	0.7577121	-0.5614914
17.8044	-0.006578852	-0.1033872	0	0	-0.7612464	0.5641105
17.82117	-0.006578852	-0.1033872	0	0	0	0
17.83914	-0.006578852	-0.1033872	0	0	0	0
17.85571	-0.006578852	-0.1033872	0	0	0	0
17.87228	-0.006578852	-0.1033872	0	0	0	0
17.88887	-0.006578852	-0.1033872	0	0	0	0
17.90562	-0.006578852	-0.1033872	0	0	0	0
17.92198	-0.006578852	-0.1033872	0	0	0	0
17.93854	-0.006578852	-0.1033872	0	0	0	0
17.95511	-0.006578852	-0.1033872	0	0	0	0
17.97185	-0.006578852	-0.1033872	0	0	0	0
17.98837	-0.006605167	-0.1033677	-0.001592197	0.001179764	-0.04786524	0.03546653
18.00481	-0.006605167	-0.1033677	0	0	0.04830564	-0.03579285
18.02147	-0.006605167	-0.1033677	0	0	0	0
18.03794	-0.006631482	-0.1033482	-0.001597757	0.001183863	-0.04822318	0.03573111
18.05466	-0.006631482	-0.1033482	0	0	0.04814003	-0.03566951
18.07166	-0.006631482	-0.1033482	0	0	0	0
18.08764	-0.006631482	-0.1033482	0	0	0	0
18.10461	-0.006631482	-0.1033482	0	0	0	0
18.12147	-0.006631482	-0.1033482	0	0	0	0
18.13738	-0.006631482	-0.1033482	0	0	0	0
18.1539	-0.006631482	-0.1033482	0	0	0	0
18.17073	-0.006631482	-0.1033482	0	0	0	0
18.18704	-0.006631482	-0.1033482	0	0	0	0
18.20361	-0.006631482	-0.1033482	0	0	0	0
18.22096	-0.006631482	-0.1033482	0	0	0	0
18.23674	-0.006631482	-0.1033482	0	0	0	0
18.25331	-0.006631482	-0.1033482	0	0	0	0
18.26987	-0.006631482	-0.1033482	0	0	0	0
18.28644	-0.006631482	-0.1033482	0	0	0	0
18.30301	-0.006631482	-0.1033482	0	0	0	0
18.37251	-0.006631482	-0.1033482	0	0	0	0
18.39566	-0.006684111	-0.1033092	-0.002273068	0.001684588	-0.02453306	0.01818164
18.41223	-0.006684111	-0.1033092	0	0	0.05722103	-0.04240695
18.42879	-0.006657796	-0.1033287	0.001588896	-0.001177319	0.04795574	-0.03553359
18.44536	-0.006657796	-0.1033287	0	0	-0.04796127	0.03553768
18.46193	-0.006657796	-0.1033287	0	0	0	0
18.47879	-0.006684111	-0.1033482	-0.001560501	-0.00115672	-0.04667951	-0.03460116
18.49506	-0.006684111	-0.1033482	0	0	0.04709601	0.03490988
18.51163	-0.006684111	-0.1033482	0	0	0	0
18.5282	-0.006710425	-0.1033677	-0.001588347	-0.001176912	-0.04793642	-0.03551927
18.54476	-0.006710425	-0.1033677	0	0	0.04793642	0.03551927
18.56133	-0.006710425	-0.1033677	0	0	0	0
18.5779	-0.006710425	-0.1033677	0	0	0	0
18.59447	-0.006710425	-0.1033677	0	0	0	0
18.61103	-0.006710425	-0.1033677	0	0	0	0
18.62763	-0.006710425	-0.1033677	0	0	0	0
18.64417	-0.006710425	-0.1033677	0	0	0	0
18.66073	-0.006710425	-0.1033677	0	0	0	0
18.6773	-0.006710425	-0.1033677	0	0	0	0
18.69387	-0.006710425	-0.1033677	0	0	0	0
18.71045	-0.006710425	-0.1033677	0	0	0	0
18.727	-0.00673674	-0.1033482	-0.001589629	0.001177861	-0.04797785	0.03554996
18.74357	-0.00673674	-0.1033482	0	0	0.04799443	-0.03556225
18.76014	-0.00673674	-0.1033482	0	0	0	0
18.777	-0.00673674	-0.1033482	0	0	0	0
18.79327	-0.00673674	-0.1033482	0	0	0	0
18.80984	-0.00673674	-0.1033482	0	0	0	0
18.82726	-0.00673674	-0.1033482	0	0	0	0
18.84297	-0.00673674	-0.1033482	0	0	0	0
18.85959	-0.00673674	-0.1033482	0	0	0	0
18.88133	-0.00673674	-0.1033482	0	0	0	0
18.8979	-0.00673674	-0.1033482	0	0	0	0
18.91466	-0.00673674	-0.1033482	0	0	0	0
18.93103	-0.00673674	-0.1033482	0	0	0	0
18.9476	-0.00673674	-0.1033482	0	0	0	0
18.96416	-0.00673674	-0.1033482	0	0	0	0
18.98107	-0.00673674	-0.1033482	0	0	0	0
18.9973	-0.00673674	-0.1033482	0	0	0	0
19.01391	-0.00673674	-0.1033482	0	0	0	0
19.03043	-0.00673674	-0.1033482	0	0	0	0
19.04712	-0.00673674	-0.1033482	0	0	0	0
19.06357	-0.00673674	-0.1033482	0	0	0	0
19.08035	-0.00673674	-0.1033482	0	0	0	0
19.09698	-0.00673674	-0.1033482	0	0	0	0
19.11327	-0.00673674	-0.1033482	0	0	0	0
19.12983	-0.00673674	-0.1033482	0	0	0	0
19.1464	-0.00673674	-0.1033482	0	0	0	0
19.16309	-0.00673674	-0.1033482	0	0	0	0
19.17961	-0.00673674	-0.1033482	0	0	0	0
19.1961	-0.00673674	-0.1033482	0	0	0	0
19.26465	-0.00673674	-0.1033482	0	0	0	0
19.28122	-0.00673674	-0.1033482	0	0	0	0
19.29779	-0.00673674	-0.1033482	0	0	0	0
19.31441	-0.00673674	-0.1033482	0	0	0	0
19.33092	-0.00673674	-0.1033482	0	0	0	0
19.34767	-0.00673674	-0.1033482	0	0	0	0
19.36406	-0.00673674	-0.1033482	0	0	0	0
19.38062	-0.00673674	-0.1033482	0	0	0	0
19.39789	-0.00673674	-0.1033482	0	0	0	0
19.41376	-0.00673674	-0.1033482	0	0	0	0
19.43033	-0.00673674	-0.1033482	0	0	0	0
19.44697	-0.006763055	-0.1033287	-0.001580732	0.001171696	-0.04759153	0.03527657
19.46346	-0.006763055	-0.1033287	0	0	0.04770659	-0.03536186
19.48003	-0.006763055	-0.1033287	0	0	0	0
19.49659	-0.006763055	-0.1033287	0	0	0	0
19.51357	-0.006763055	-0.1033287	0	0	0	0
19.53	-0.006763055	-0.1033287	0	0	0	0
19.54629	-0.00673674	-0.1033482	0.001614774	-0.001196929	0.04933893	-0.0365718
19.56286	-0.00673674	-0.1033482	0	0	-0.04913562	0.0364211
19.57943	-0.00673674	-0.1033482	0	0	0	0
19.60321	-0.00673674	-0.1033482	0	0	0	0
19.61992	-0.00673674	-0.1033482	0	0	0	0
19.6367	-0.00673674	-0.1033482	0	0	0	0
19.65294	-0.00673674	-0.1033482	0	0	0	0
19.66951	-0.00673674	-0.1033482	0	0	0	0
19.68607	-0.00673674	-0.1033482	0	0	0	0
19.70291	-0.00673674	-0.1033482	0	0	0	0
19.71947	-0.00673674	-0.1033482	0	0	0	0
19.73577	-0.00673674	-0.1033482	0	0	0	0
19.75234	-0.00673674	-0.1033482	0	0	0	0
19.76891	-0.00673674	-0.1033482	0	0	0	0
19.7855	-0.00673674	-0.1033482	0	0	0	0
19.8026	-0.00673674	-0.1033482	0	0	0	0
19.81861	-0.00673674	-0.1033482	0	0	0	0
19.83517	-0.003684194	-0.1056113	0.1842733	-0.1366162	5.657118	-4.194065
19.85174	-0.003684194	-0.1056113	0	0	-5.561698	4.123322
19.86838	-0.003684194	-0.1056113	0	0	0	0
19.88487	0.05145454	-0.1470759	3.342805	-2.513807	100.8861	-75.86685
19.90186	0.05145454	-0.1470759	0	0	-99.85144	75.08882
19.91801	0.05145454	-0.1470759	0	0	0	0
19.93472	0.1172752	-0.1980496	3.938481	-3.050089	119.8293	-92.79975
19.95115	0.1172752	-0.1980496	0	0	-118.8704	92.05718
19.96771	0.1172752	-0.1980496	0	0	0	0
19.98427	0.1273595	-0.2059201	0.6089031	-0.4752291	18.37991	-14.34492
20.00084	0.1273595	-0.2059201	0	0	-18.37885	14.34409
20.01772	0.1273595	-0.2059201	0	0	0	0
20.03398	0.1352482	-0.2121436	0.4852687	-0.3828318	14.64544	-11.55389
20.05055	0.1352482	-0.2121436	0	0	-14.7833	11.66264
20.06711	0.1352482	-0.2121436	0	0	0	0
20.08388	0.1664457	-0.2370805	1.860592	-1.487221	55.81541	-44.61477
20.10045	0.1664457	-0.2370805	0	0	-55.81541	44.61477
20.11702	0.1664457	-0.2370805	0	0	0	0
20.1349	0.1707167	-0.2405378	0.238878	-0.193364	6.93471	-5.613422
20.15146	0.1707167	-0.2405378	0	0	-6.934326	5.613111
20.16803	0.1707167	-0.2405378	0	0	0	0
20.18462	0.17064	-0.2404756	-0.004621745	0.003746802	-0.1394043	0.1130137
20.20116	0.17064	-0.2404756	0	0	0.1394845	-0.1130787
20.21774	0.17064	-0.2404756	0	0	0	0
20.2343	0.1699755	-0.239937	-0.0401269	0.03252314	-1.211102	0.9816068
20.25086	0.1699755	-0.239937	0	0	1.211241	-0.9817199
20.26766	0.1699755	-0.239937	0	0	0	0
20.28407	0.1699243	-0.2398956	-0.003115737	0.002524555	-0.09383329	0.0760293
20.30056	0.1699243	-0.2398956	0	0	0.0946927	-0.07672565
20.31776	0.1699243	-0.2398956	0	0	0	0
20.3337	0.1699243	-0.2398956	0	0	0	0
20.35027	0.1699243	-0.2398956	0	0	0	0
20.36698	0.1699243	-0.2398956	0	0	0	0
20.3834	0.1699499	-0.2399163	0.001557418	-0.001261545	0.04700566	-0.03807568
20.39997	0.1699499	-0.2399163	0	0	-0.04720676	0.03823858
20.41655	0.1699499	-0.2399163	0	0	0	0
20.4331	0.1699755	-0.239937	0.001543955	-0.001251368	0.04660738	-0.03777507
20.44967	0.1699755	-0.239937	0	0	-0.04661006	0.03777725
20.46624	0.1699755	-0.239937	0	0	0	0
20.4828	0.170001	-0.2399577	0.001544143	-0.001250792	0.04661306	-0.03775766
20.49937	0.170001	-0.2399577	0	0	-0.04661038	0.03775549
20.5162	0.170001	-0.2399577	0	0	0	0
20.5325	0.1699755	-0.239937	-0.001569084	0.001270994	-0.04736321	0.03836531
20.54907	0.1699755	-0.239937	0	0	0.04773977	-0.03867033
20.56567	0.1699755	-0.239937	0	0	0	0
20.5822	0.1699499	-0.2399163	-0.001546271	0.001253246	-0.04667192	0.03782739
20.59877	0.1699499	-0.2399163	0	0	0.04672034	-0.03786663
20.61544	0.1699499	-0.2399163	0	0	0	0
20.63208	0.1699499	-0.2399163	0	0	0	0
20.64847	0.1699499	-0.2399163	0	0	0	0
20.66561	0.1699499	-0.2399163	0	0	0	0
20.6816	0.1699243	-0.2398956	-0.001599028	0.00129525	-0.04826431	0.03909522
20.69817	0.1699243	-0.2398956	0	0	0.04910967	-0.03977998
20.71504	0.1699243	-0.2398956	0	0	0	0
20.7313	0.1699243	-0.2398956	0	0	0	0
20.74787	0.1699243	-0.2398956	0	0	0	0
20.76443	0.1699243	-0.2398956	0	0	0	0
20.78135	0.1698988	-0.2398749	-0.001511045	0.001224695	-0.04513319	0.03658025
20.79757	0.1698988	-0.2398749	0	0	0.04560343	-0.03696138
20.81413	0.1698988	-0.2398749	0	0	0	0
20.8308	0.1696431	-0.2396677	-0.01534241	0.0124306	-0.4617323	0.3741012
20.84727	0.1696431	-0.2396677	0	0	0.4630614	-0.3751779
20.86411	0.1696431	-0.2396677	0	0	0	0
20.8804	0.1661897	-0.2368737	-0.2119619	0.1714909	-6.397758	5.1762
20.89783	0.1661897	-0.2368737	0	0	6.285224	-5.085154
20.91353	0.1661897	-0.2368737	0	0	0	0
20.9301	0.1429395	-0.218119	-1.403385	1.132035	-43.49084	35.0817
20.94667	0.1429395	-0.218119	0	0	42.35181	-34.1629
20.96323	0.1429395	-0.218119	0	0	0	0
20.9798	0.09896511	-0.1834825	-2.654913	2.091147	-80.13467	63.11822
20.99637	0.09896511	-0.1834825	0	0	80.13005	-63.11459
21.01293	0.09896511	-0.1834825	0	0	0	0
21.0295	0.05082461	-0.1465203	-2.905766	2.231044	-87.69619	67.33305
21.04607	0.05082461	-0.1465203	0	0	87.69619	-67.33305
21.06265	0.05082461	-0.1465203	0	0	0	0
21.0792	0.007210401	-0.113822	-2.635593	1.975949	-79.54694	59.6377
21.09577	0.007210401	-0.113822	0	0	79.58818	-59.66862
21.1128	0.007210401	-0.113822	0	0	0	0
21.1289	-0.02701974	-0.08847219	-2.125853	1.57434	-64.15837	47.51368
21.14547	-0.02701974	-0.08847219	0	0	65.07235	-48.19054
21.16204	-0.02701974	-0.08847219	0	0	0	0
21.17861	-0.04759561	-0.07333101	-1.241819	0.9138184	-37.47601	27.57751
21.19517	-0.04759561	-0.07333101	0	0	37.48032	-27.58068
21.21173	-0.04759561	-0.07333101	0	0	0	0
21.22878	-0.06372937	-0.06149625	-0.9462734	0.6941289	-28.15184	20.65048
21.2449	-0.06372937	-0.06149625	0	0	28.52739	-20.92597
21.26163	-0.06372937	-0.06149625	0	0	0	0
21.278	-0.07022643	-0.05673779	-0.396731	0.2905666	-11.98647	8.778919
21.29473	-0.07022643	-0.05673779	0	0	11.98509	-8.777907
21.3115	-0.07022643	-0.05673779	0	0	0	0
21.3277	-0.07030499	-0.05679531	-0.00484844	-0.003549882	-0.1470372	-0.1076562
21.34427	-0.07030499	-0.05679531	0	0	0.1479529	0.1083267
21.36088	-0.07030499	-0.05679531	0	0	0	0
21.3774	-0.07035736	-0.056872	-0.003170924	-0.004643155	-0.0957097	-0.1401468
21.39397	-0.07035736	-0.056872	0	0	0.09584212	0.1403407
21.41116	-0.07035736	-0.056872	0	0	0	0
21.4271	-0.07025262	-0.05706373	0.006571026	-0.01202865	0.1983368	-0.3630672
21.44374	-0.07025262	-0.05706373	0	0	-0.2016925	0.3692101
21.461	-0.07025262	-0.05706373	0	0	0	0
21.4768	-0.07014787	-0.05714042	0.006628602	-0.004853227	0.2004786	-0.1467833
21.49337	-0.07014787	-0.05714042	0	0	-0.2047906	0.1499404
21.50994	-0.07014787	-0.05714042	0	0	0	0
21.5265	-0.07014787	-0.05714042	0	0	0	0
21.54336	-0.07014787	-0.05714042	0	0	0	0
21.55964	-0.07014787	-0.05714042	0	0	0	0
21.58613	-0.07017406	-0.0571596	-0.0009883724	-0.0007236348	-0.02310571	-0.0169168
21.60275	-0.07017406	-0.0571596	0	0	0.0229258	0.01678507
21.61927	-0.07017406	-0.0571596	0	0	0	0
21.63584	-0.07017406	-0.0571596	0	0	0	0
21.6524	-0.07017406	-0.0571596	0	0	0	0
21.66897	-0.06930985	-0.05802257	0.0521757	-0.05210125	1.575119	-1.572872
21.68558	-0.06930985	-0.05802257	0	0	-1.572584	1.57034
21.7021	-0.06930985	-0.05802257	0	0	0	0
21.71866	-0.06936223	-0.05867476	-0.003162245	-0.03937558	-0.09558531	-1.190207
21.73523	-0.06936223	-0.05867476	0	0	0.09544224	1.188426
21.7518	-0.06936223	-0.05867476	0	0	0	0
21.76837	-0.06933604	-0.05873232	0.001580759	-0.003473846	0.04770739	-0.1048409
21.78493	-0.06933604	-0.05873232	0	0	-0.04770739	0.1048409
21.8015	-0.06933604	-0.05873232	0	0	0	0
21.81807	-0.06923129	-0.05900092	0.006323034	-0.01621278	0.1908296	-0.4893027
21.83464	-0.06923129	-0.05900092	0	0	-0.1908296	0.4893027
21.85121	-0.06923129	-0.05900092	0	0	0	0
21.86777	-0.06110803	-0.06995831	0.4904899	-0.6616184	14.80387	-19.96883
21.88436	-0.06110803	-0.06995831	0	0	-14.7945	19.95619
21.90124	-0.06110803	-0.06995831	0	0	0	0
21.91747	-0.02959662	-0.093713	1.941826	-1.463834	58.6517	-44.21422
21.93404	-0.02959662	-0.093713	0	0	-59.20081	44.62816
21.95061	-0.02959662	-0.093713	0	0	0	0
21.96784	-0.0168142	-0.1030947	0.741745	-0.5444072	21.94504	-16.10666
21.98374	-0.0168142	-0.1030947	0	0	-22.3872	16.43119
22.00031	-0.0168142	-0.1030947	0	0	0	0
22.01688	-0.01673528	-0.1031142	0.004763314	-0.001177226	0.1437571	-0.03552875
22.0335	-0.01673528	-0.1031142	0	0	-0.1434845	0.03546139
22.05025	-0.01673528	-0.1031142	0	0	0	0
22.06657	-0.01673528	-0.1031142	0	0	0	0
22.08314	-0.01673528	-0.1031142	0	0	0	0
22.0997	-0.01673528	-0.1031142	0	0	0	0
22.11634	-0.01663005	-0.1029582	0.006324261	0.009374731	0.1904828	0.2823611
22.13284	-0.01663005	-0.1029582	0	0	-0.1908446	-0.2828974
22.14941	-0.01663005	-0.1029582	0	0	0	0
22.16638	-0.01660374	-0.1028997	0.001550469	0.003447389	0.04623434	0.1027997
22.18254	-0.01660374	-0.1028997	0	0	-0.04679593	-0.1040484
22.19911	-0.01660374	-0.1028997	0	0	0	0
22.21584	-0.01657743	-0.1028412	0.001572676	0.003496074	0.04723237	0.104998
22.23224	-0.01657743	-0.1028412	0	0	-0.04746893	-0.1055239
22.2488	-0.01657743	-0.1028412	0	0	0	0
22.26537	-0.01655112	-0.1027827	0.001587954	0.003530736	0.04793007	0.1065701
22.282	-0.01655112	-0.1027827	0	0	-0.04783643	-0.1063619
22.2985	-0.01655112	-0.1027827	0	0	0	0
22.31513	-0.01652481	-0.1027633	0.001581944	0.001172457	0.04774316	0.03538484
22.33164	-0.01652481	-0.1027633	0	0	-0.04774316	-0.03538484
22.34821	-0.01652481	-0.1027633	0	0	0	0
22.36477	-0.01652481	-0.1027633	0	0	0	0
22.38134	-0.01652481	-0.1027633	0	0	0	0
22.39791	-0.01652481	-0.1027633	0	0	0	0
22.41447	-0.01647219	-0.1028022	0.00317602	-0.002353824	0.09585249	-0.07103854
22.43112	-0.01647219	-0.1028022	0	0	-0.09562679	0.07087128
22.44803	-0.01647219	-0.1028022	0	0	0	0
22.46417	-0.01641958	-0.1028412	0.003260479	-0.002416418	0.09865132	-0.07311282
22.48074	-0.01641958	-0.1028412	0	0	-0.09968103	0.07387596
22.4973	-0.01641958	-0.1028412	0	0	0	0
22.51395	-0.01639327	-0.1028607	0.001580132	-0.001170667	0.04757345	-0.03524558
22.5307	-0.01639327	-0.1028607	0	0	-0.04731803	0.03505635
22.54701	-0.01639327	-0.1028607	0	0	0	0
22.56357	-0.01639327	-0.1028607	0	0	0	0
22.58014	-0.01639327	-0.1028607	0	0	0	0
22.5967	-0.01639327	-0.1028607	0	0	0	0
22.61327	-0.01636696	-0.1029192	0.001588066	-0.003530736	0.04793346	-0.1065701
22.63024	-0.01636696	-0.1029192	0	0	-0.04736087	0.1052971
22.64641	-0.01636696	-0.1029192	0	0	0	0
22.66297	-0.01631434	-0.1029582	0.00317664	-0.002354366	0.09703298	-0.07191597
22.67959	-0.01631434	-0.1029582	0	0	-0.09574991	0.07096503
22.69611	-0.01631434	-0.1029582	0	0	0	0
22.71267	-0.01620911	-0.1030362	0.006353504	-0.004708732	0.1920255	-0.1423146
22.72926	-0.01620911	-0.1030362	0	0	-0.1916829	0.1420607
22.74581	-0.01620911	-0.1030362	0	0	0	0
22.76238	-0.01613018	-0.1030947	0.004764087	-0.003530736	0.1438384	-0.1066008
22.77894	-0.01613018	-0.1030947	0	0	-0.1437804	0.1065578
22.79559	-0.01613018	-0.1030947	0	0	0	0
22.8145	-0.01613018	-0.1030947	0	0	0	0
22.83118	-0.01613018	-0.1030947	0	0	0	0
22.8477	-0.01613018	-0.1030947	0	0	0	0
22.8642	-0.01607756	-0.1031337	0.003188501	-0.002363525	0.09655152	-0.07157028
22.88077	-0.01607756	-0.1031337	0	0	-0.09641787	0.07147121
22.89793	-0.01607756	-0.1031337	0	0	0	0
22.91391	-0.01607756	-0.1031337	0	0	0	0
22.93048	-0.01607756	-0.1031337	0	0	0	0
22.94704	-0.01607756	-0.1031337	0	0	0	0
22.96361	-0.01607756	-0.1031337	0	0	0	0
22.98048	-0.01607756	-0.1031337	0	0	0	0
22.99674	-0.01607756	-0.1031337	0	0	0	0
23.01331	-0.01610387	-0.1031142	-0.001588066	0.001176912	-0.04837347	0.03584945
23.02988	-0.01610387	-0.1031142	0	0	0.04792794	-0.03551927
23.04645	-0.01610387	-0.1031142	0	0	0	0
23.06301	-0.01610387	-0.1031142	0	0	0	0
23.07958	-0.01610387	-0.1031142	0	0	0	0
23.09615	-0.01610387	-0.1031142	0	0	0	0
23.11271	-0.01610387	-0.1031142	0	0	0	0
23.12969	-0.01610387	-0.1031142	0	0	0	0
23.14592	-0.01610387	-0.1031142	0	0	0	0
23.16241	-0.01610387	-0.1031142	0	0	0	0
23.17898	-0.01610387	-0.1031142	0	0	0	0
23.19555	-0.01610387	-0.1031142	0	0	0	0
23.21214	-0.01610387	-0.1031142	0	0	0	0
23.22885	-0.01610387	-0.1031142	0	0	0	0
23.24524	-0.01610387	-0.1031142	0	0	0	0
23.26181	-0.01610387	-0.1031142	0	0	0	0
23.27838	-0.01610387	-0.1031142	0	0	0	0
23.29494	-0.01610387	-0.1031142	0	0	0	0
23.31151	-0.01610387	-0.1031142	0	0	0	0
23.32808	-0.01610387	-0.1031142	0	0	0	0
23.34465	-0.01610387	-0.1031142	0	0	0	0
23.36121	-0.01610387	-0.1031142	0	0	0	0
23.37778	-0.01610387	-0.1031142	0	0	0	0
23.39462	-0.01610387	-0.1031142	0	0	0	0
23.41091	-0.01610387	-0.1031142	0	0	0	0
23.42748	-0.01610387	-0.1031142	0	0	0	0
23.44404	-0.01610387	-0.1031142	0	0	0	0
23.46061	-0.01610387	-0.1031142	0	0	0	0
23.47718	-0.01610387	-0.1031142	0	0	0	0
23.49374	-0.01610387	-0.1031142	0	0	0	0
23.51031	-0.01610387	-0.1031142	0	0	0	0
23.52688	-0.01610387	-0.1031142	0	0	0	0
23.54392	-0.01610387	-0.1031142	0	0	0	0
23.56001	-0.01610387	-0.1031142	0	0	0	0
23.57658	-0.01610387	-0.1031142	0	0	0	0
23.59339	-0.01610387	-0.1031142	0	0	0	0
23.60971	-0.01610387	-0.1031142	0	0	0	0
23.62628	-0.01610387	-0.1031142	0	0	0	0
23.64284	-0.01610387	-0.1031142	0	0	0	0
23.65941	-0.01610387	-0.1031142	0	0	0	0
23.67598	-0.01610387	-0.1031142	0	0	0	0
23.6926	-0.01610387	-0.1031142	0	0	0	0
23.70911	-0.01610387	-0.1031142	0	0	0	0
23.72568	-0.01610387	-0.1031142	0	0	0	0
23.74225	-0.01610387	-0.1031142	0	0	0	0
23.75881	-0.01610387	-0.1031142	0	0	0	0
23.77538	-0.01610387	-0.1031142	0	0	0	0
23.82494	-0.01610387	-0.1031142	0	0	0	0
23.84436	-0.01610387	-0.1031142	0	0	0	0
23.86093	-0.01610387	-0.1031142	0	0	0	0
23.8775	-0.01610387	-0.1031142	0	0	0	0
23.89406	-0.01610387	-0.1031142	0	0	0	0
23.91063	-0.01610387	-0.1031142	0	0	0	0
23.92719	-0.01610387	-0.1031142	0	0	0	0
23.94376	-0.01610387	-0.1031142	0	0	0	0
23.96033	-0.01610387	-0.1031142	0	0	0	0
23.9769	-0.01610387	-0.1031142	0	0	0	0
23.99347	-0.01610387	-0.1031142	0	0	0	0
24.0101	-0.01610387	-0.1031142	0	0	0	0
24.02691	-0.01610387	-0.1031142	0	0	0	0
24.04316	-0.01610387	-0.1031142	0	0	0	0
24.05973	-0.01610387	-0.1031142	0	0	0	0
24.07641	-0.01610387	-0.1031142	0	0	0	0
24.09286	-0.01610387	-0.1031142	0	0	0	0
24.10943	-0.01610387	-0.1031142	0	0	0	0
24.126	-0.01610387	-0.1031142	0	0	0	0
24.14256	-0.01610387	-0.1031142	0	0	0	0
24.15913	-0.01610387	-0.1031142	0	0	0	0
24.1757	-0.01610387	-0.1031142	0	0	0	0
24.19235	-0.01610387	-0.1031142	0	0	0	0
24.20883	-0.01610387	-0.1031142	0	0	0	0
24.2254	-0.01610387	-0.1031142	0	0	0	0
24.24519	-0.01610387	-0.1031142	0	0	0	0
24.26176	-0.01610387	-0.1031142	0	0	0	0
24.27833	-0.01610387	-0.1031142	0	0	0	0
24.29489	-0.01610387	-0.1031142	0	0	0	0
24.31146	-0.01610387	-0.1031142	0	0	0	0
24.32803	-0.01610387	-0.1031142	0	0	0	0
24.34459	-0.01610387	-0.1031142	0	0	0	0
24.36116	-0.01610387	-0.1031142	0	0	0	0
24.37773	-0.01610387	-0.1031142	0	0	0	0
24.39437	-0.01610387	-0.1031142	0	0	0	0
24.41133	-0.01610387	-0.1031142	0	0	0	0
24.42743	-0.01610387	-0.1031142	0	0	0	0
24.44399	-0.01610387	-0.1031142	0	0	0	0
24.46056	-0.01610387	-0.1031142	0	0	0	0
24.47713	-0.01610387	-0.1031142	0	0	0	0
24.4937	-0.01610387	-0.1031142	0	0	0	0
24.51033	-0.01610387	-0.1031142	0	0	0	0
24.52683	-0.01610387	-0.1031142	0	0	0	0
24.54339	-0.01610387	-0.1031142	0	0	0	0
24.55996	-0.01610387	-0.1031142	0	0	0	0
24.57653	-0.01610387	-0.1031142	0	0	0	0
24.5931	-0.01610387	-0.1031142	0	0	0	0
24.60966	-0.01610387	-0.1031142	0	0	0	0
24.62637	-0.01610387	-0.1031142	0	0	0	0
24.64298	-0.01610387	-0.1031142	0	0	0	0
24.65936	-0.01610387	-0.1031142	0	0	0	0
24.67616	-0.01610387	-0.1031142	0	0	0	0
24.69249	-0.01610387	-0.1031142	0	0	0	0
24.70906	-0.01610387	-0.1031142	0	0	0	0
24.72613	-0.01610387	-0.1031142	0	0	0	0
24.74219	-0.01610387	-0.1031142	0	0	0	0
24.75876	-0.01610387	-0.1031142	0	0	0	0
24.77533	-0.01610387	-0.1031142	0	0	0	0
24.79196	-0.01610387	-0.1031142	0	0	0	0
24.80846	-0.01610387	-0.1031142	0	0	0	0
24.82503	-0.01610387	-0.1031142	0	0	0	0
24.84159	-0.01610387	-0.1031142	0	0	0	0
24.85817	-0.01610387	-0.1031142	0	0	0	0
24.8749	-0.01610387	-0.1031142	0	0	0	0
24.89129	-0.01610387	-0.1031142	0	0	0	0
24.90808	-0.01610387	-0.1031142	0	0	0	0
24.92443	-0.01610387	-0.1031142	0	0	0	0
24.94099	-0.01610387	-0.1031142	0	0	0	0
24.95789	-0.01610387	-0.1031142	0	0	0	0
24.97413	-0.01610387	-0.1031142	0	0	0	0
24.99076	-0.01610387	-0.1031142	0	0	0	0
25.00726	-0.01610387	-0.1031142	0	0	0	0
25.02383	-0.01610387	-0.1031142	0	0	0	0
25.0404	-0.01610387	-0.1031142	0	0	0	0
25.05698	-0.01610387	-0.1031142	0	0	0	0
25.07353	-0.01610387	-0.1031142	0	0	0	0
25.0901	-0.01610387	-0.1031142	0	0	0	0
25.10711	-0.01610387	-0.1031142	0	0	0	0
25.12361	-0.01610387	-0.1031142	0	0	0	0
25.13979	-0.01610387	-0.1031142	0	0	0	0
25.15636	-0.01610387	-0.1031142	0	0	0	0
25.17294	-0.01610387	-0.1031142	0	0	0	0
25.19511	-0.01610387	-0.1031142	0	0	0	0
25.21168	-0.01610387	-0.1031142	0	0	0	0
25.22824	-0.01610387	-0.1031142	0	0	0	0
25.24481	-0.01610387	-0.1031142	0	0	0	0
25.26138	-0.01610387	-0.1031142	0	0	0	0
25.27794	-0.01610387	-0.1031142	0	0	0	0
25.29451	-0.01610387	-0.1031142	0	0	0	0
25.31108	-0.01610387	-0.1031142	0	0	0	0
25.32764	-0.01610387	-0.1031142	0	0	0	0
25.34428	-0.01610387	-0.1031142	0	0	0	0
25.36077	-0.01610387	-0.1031142	0	0	0	0
25.37781	-0.01610387	-0.1031142	0	0	0	0
25.39391	-0.01610387	-0.1031142	0	0	0	0
25.41047	-0.01610387	-0.1031142	0	0	0	0
25.42719	-0.01610387	-0.1031142	0	0	0	0
25.44361	-0.01610387	-0.1031142	0	0	0	0
25.46017	-0.01610387	-0.1031142	0	0	0	0
25.47674	-0.01610387	-0.1031142	0	0	0	0
25.49331	-0.01610387	-0.1031142	0	0	0	0
25.50988	-0.01610387	-0.1031142	0	0	0	0
25.52644	-0.01610387	-0.1031142	0	0	0	0
25.54301	-0.01610387	-0.1031142	0	0	0	0
25.55987	-0.01610387	-0.1031142	0	0	0	0
25.58046	-0.01610387	-0.1031142	0	0	0	0
25.59703	-0.01610387	-0.1031142	0	0	0	0
25.61391	-0.01605125	-0.1031532	0.003116813	-0.002309944	0.09316995	-0.06905045
25.63017	-0.01605125	-0.1031532	0	0	-0.09406561	0.06971424
25.64697	-0.01605125	-0.1031532	0	0	0	0
25.6633	-0.01131531	-0.1067436	0.2900701	-0.2199064	8.754836	-6.637169
25.67987	-0.01131531	-0.1067436	0	0	-8.818292	6.685276
25.69643	-0.01131531	-0.1067436	0	0	0	0
25.713	0.02659899	-0.1350785	2.289038	-1.710691	69.09127	-51.6347
25.72957	0.02659899	-0.1350785	0	0	-69.0873	51.63173
25.74636	0.02659899	-0.1350785	0	0	0	0
25.7627	0.09252454	-0.1853183	4.033136	-3.073526	121.7203	-92.75919
25.77927	0.09252454	-0.1853183	0	0	-122.5456	93.38816
25.79593	0.09252454	-0.1853183	0	0	0	0
25.8124	0.1494561	-0.2307611	3.457494	-2.759773	104.3594	-83.29969
25.82897	0.1494561	-0.2307611	0	0	-104.6607	83.54016
25.84553	0.1494561	-0.2307611	0	0	0	0
25.8621	0.1531852	-0.2575179	0.2250874	-1.615043	6.793152	-48.7421
25.87867	0.1531852	-0.2575179	0	0	-6.793152	48.7421
25.89524	0.1531852	-0.2575179	0	0	0	0
25.9118	0.1467789	-0.2960898	-0.3866864	-2.328204	-11.67022	-70.26534
25.92837	0.1467789	-0.2960898	0	0	11.67022	70.26534
25.94494	0.1467789	-0.2960898	0	0	0	0
25.9615	0.1645256	-0.3233672	1.071193	-1.646471	32.32867	-49.69061
25.9783	0.1645256	-0.3233672	0	0	-32.10322	49.34407
25.99523	0.1645256	-0.3233672	0	0	0	0
26.0112	0.1662665	-0.326229	0.1089869	-0.1791493	3.313072	-5.445921
26.02777	0.1662665	-0.326229	0	0	-3.348995	5.504971
26.04434	0.1662665	-0.326229	0	0	0	0
26.06206	0.1660106	-0.326012	-0.01444669	0.01224567	-0.4213522	0.3571571
26.07863	0.1660106	-0.326012	0	0	0.4213287	-0.3571373
26.09526	0.1660106	-0.326012	0	0	0	0
26.11176	0.1658314	-0.3258601	-0.01085947	0.009204138	-0.3277585	0.2777974
26.12833	0.1658314	-0.3258601	0	0	0.3284012	-0.2783422
26.14489	0.1658314	-0.3258601	0	0	0	0
26.16146	0.165729	-0.32573	-0.006182347	0.007857482	-0.1866051	0.2371666
26.17826	0.165729	-0.32573	0	0	0.1853036	-0.2355124
26.19459	0.165729	-0.32573	0	0	0	0
26.21116	0.165729	-0.3257734	0	-0.002619761	0	-0.07962833
26.22772	0.165729	-0.3257734	0	0	0	0.07907364
26.24429	0.165729	-0.3257734	0	0	0	0
26.26455	0.1657546	-0.3257951	0.001263473	-0.001069319	0.0343047	-0.0290332
26.28113	0.1657546	-0.3257951	0	0	-0.03430115	0.02903019
26.29774	0.165729	-0.3257734	-0.001540796	0.001304026	-0.04642649	0.03929226
26.31426	0.165729	-0.3257734	0	0	0.04650667	-0.03936013
26.33083	0.165729	-0.3257734	0	0	0	0
26.34739	0.165729	-0.3257734	0	0	0	0
26.36412	0.165729	-0.3257734	0	0	0	0
26.38053	0.165729	-0.3257734	0	0	0	0
26.39709	0.1657034	-0.3257517	-0.001545231	0.001309579	-0.04686989	0.03972209
26.41366	0.1657034	-0.3257517	0	0	0.04663516	-0.03952316
26.43023	0.1657034	-0.3257517	0	0	0	0
26.44702	0.1656266	-0.3256866	-0.00457408	0.003876519	-0.1371225	0.1162109
26.46336	0.1656266	-0.3256866	0	0	0.138046	-0.1169936
26.47993	0.1656266	-0.3256866	0	0	0	0
26.4965	0.1654986	-0.3255782	-0.007724375	0.006544587	-0.2331087	0.1975047
26.51446	0.1654986	-0.3255782	0	0	0.2236716	-0.1895089
26.53103	0.1654986	-0.3255782	0	0	0	0
26.5476	0.1652938	-0.3254046	-0.01236417	0.01047424	-0.3731514	0.3161131
26.56417	0.1652938	-0.3254046	0	0	0.3731514	-0.3161131
26.58073	0.1652938	-0.3254046	0	0	0	0
26.5973	0.165217	-0.3253396	-0.004636592	0.003926937	-0.1399326	0.1185152
26.61405	0.165217	-0.3253396	0	0	0.1391556	-0.1178571
26.63043	0.165217	-0.3253396	0	0	0	0
26.647	0.1646792	-0.3248842	-0.03245704	0.02748496	-0.9851128	0.8342037
26.66357	0.1646792	-0.3248842	0	0	0.9795555	-0.8294978
26.68013	0.1646792	-0.3248842	0	0	0	0
26.6967	0.1584756	-0.3195157	-0.3745358	0.3241216	-11.30481	9.783135
26.71327	0.1584756	-0.3195157	0	0	11.30416	-9.782572
26.73039	0.1584756	-0.3195157	0	0	0	0
26.7464	0.1233962	-0.2898925	-2.191058	1.85026	-66.13388	55.84737
26.76297	0.1233962	-0.2898925	0	0	67.25282	-56.79228
26.77953	0.1233962	-0.2898925	0	0	0	0
26.7961	0.06802645	-0.2434822	-3.342123	2.801332	-100.8655	84.54436
26.81267	0.06802645	-0.2434822	0	0	100.8655	-84.54436
26.82924	0.06802645	-0.2434822	0	0	0	0
26.8458	-0.01499888	-0.1782256	-5.012573	3.939801	-151.2972	118.9171
26.86237	-0.01499888	-0.1782256	0	0	151.2885	-118.9103
26.87927	-0.01499888	-0.1782256	0	0	0	0
26.8955	-0.08016991	-0.1285307	-4.014143	3.060908	-121.1471	92.37837
26.91207	-0.08016991	-0.1285307	0	0	122.387	-93.32386
26.92901	-0.08016991	-0.1285307	0	0	0	0
26.9452	-0.08636358	-0.1068217	-0.3826169	1.341083	-11.5474	40.47396
26.96188	-0.08636358	-0.1068217	0	0	11.64054	-40.80042
26.97833	-0.08636358	-0.1068217	0	0	0	0
26.9949	-0.07540937	-0.1001325	0.6611978	0.4037586	20.0253	12.2284
27.01147	-0.07540937	-0.1001325	0	0	-19.95499	-12.18546
27.02803	-0.07540937	-0.1001325	0	0	0	0
27.0446	-0.07540937	-0.1001325	0	0	0	0
27.06117	-0.07540937	-0.1001325	0	0	0	0
27.07774	-0.07540937	-0.1001325	0	0	0	0
27.0943	-0.0753832	-0.100152	0.001579409	-0.001175563	0.04766667	-0.03547855
27.11087	-0.0753832	-0.100152	0	0	-0.04766667	0.03547855
27.12792	-0.0753832	-0.100152	0	0	0	0
27.144	-0.07535703	-0.1001715	0.001626986	-0.001210975	0.04910538	-0.03654939
27.16057	-0.07535703	-0.1001715	0	0	-0.04982823	0.03708741
27.17714	-0.07535703	-0.1001715	0	0	0	0
27.19371	-0.07533087	-0.100191	0.001579409	-0.001175563	0.04766667	-0.03547855
27.21027	-0.07533087	-0.100191	0	0	-0.04766941	0.0354806
27.22684	-0.07533087	-0.100191	0	0	0	0
27.24341	-0.07491218	-0.1005026	0.02526899	-0.01880954	0.7625757	-0.5676402
27.26021	-0.07491218	-0.1005026	0	0	-0.7571715	0.5636174
27.27654	-0.07491218	-0.1005026	0	0	0	0
27.2932	-0.07436263	-0.1009507	0.03299267	-0.02690003	1.000212	-0.8155062
27.30996	-0.07436263	-0.1009507	0	0	-0.9871968	0.8048946
27.32671	-0.07436263	-0.1009507	0	0	0	0
27.34366	-0.07150944	-0.1031142	0.168286	-0.1276077	4.993228	-3.786258
27.36024	-0.07150944	-0.1031142	0	0	-5.019648	3.806291
27.37706	-0.07150944	-0.1031142	0	0	0	0
27.3937	-0.07119525	-0.1033482	0.01888372	-0.01406438	0.5642921	-0.4202785
27.40993	-0.07119525	-0.1033482	0	0	-0.5745085	0.4278876
27.4265	-0.07119525	-0.1033482	0	0	0	0
27.44307	-0.07122143	-0.1033677	-0.001580309	-0.001176912	-0.04769382	-0.03551927
27.46008	-0.07122143	-0.1033677	0	0	0.04705992	0.03504719
27.4762	-0.07122143	-0.1033677	0	0	0	0
27.49277	-0.07119525	-0.1034262	0.001580309	-0.003531185	0.04834784	-0.1080328
27.50933	-0.07119525	-0.1034262	0	0	-0.04769382	0.1065714
27.5259	-0.07119525	-0.1034262	0	0	0	0
27.54247	-0.06611403	-0.1072123	0.3067384	-0.2285536	9.257917	-6.89816
27.55903	-0.06611403	-0.1072123	0	0	-9.257917	6.89816
27.5756	-0.06611403	-0.1072123	0	0	0	0
27.59217	-0.04418176	-0.123592	1.323835	-0.9886788	39.95341	-29.83839
27.60873	-0.04418176	-0.123592	0	0	-39.95341	29.83839
27.6253	-0.04418176	-0.123592	0	0	0	0
27.64187	-0.0372722	-0.1287671	0.4171095	-0.3124069	12.58911	-9.429002
27.65843	-0.0372722	-0.1287671	0	0	-12.58911	9.429002
27.675	-0.0372722	-0.1287671	0	0	0	0
27.69157	-0.0372722	-0.1287671	0	0	0	0
27.70814	-0.0372722	-0.1287671	0	0	0	0
27.7247	-0.0372722	-0.1287671	0	0	0	0
27.74127	-0.03724593	-0.1287474	0.001586155	0.001189054	0.04787577	0.03588986
27.75784	-0.03724593	-0.1287474	0	0	-0.0478675	-0.03588366
27.7744	-0.03724593	-0.1287474	0	0	0	0
27.79134	-0.03721965	-0.1287671	0.001551677	-0.001163208	0.04631516	-0.03471996
27.80754	-0.03721965	-0.1287671	0	0	-0.04683241	0.03510771
27.8241	-0.03721965	-0.1287671	0	0	0	0
27.84068	-0.03721965	-0.1287671	0	0	0	0
27.85724	-0.03721965	-0.1287671	0	0	0	0
27.87381	-0.03721965	-0.1287671	0	0	0	0
27.89054	-0.03721965	-0.1287671	0	0	0	0
27.90711	-0.03721965	-0.1287671	0	0	0	0
27.92374	-0.03721965	-0.1287671	0	0	0	0
27.94024	-0.03721965	-0.1287671	0	0	0	0
27.9568	-0.03721965	-0.1287671	0	0	0	0
27.97342	-0.03721965	-0.1287671	0	0	0	0
27.98994	-0.03721965	-0.1287671	0	0	0	0
28.0065	-0.03721965	-0.1287671	0	0	0	0
28.02307	-0.03721965	-0.1287671	0	0	0	0
28.03964	-0.03719337	-0.1287474	0.00158638	0.001189054	0.04787704	0.03588573
28.0562	-0.03719337	-0.1287474	0	0	-0.0478798	-0.03588779
28.07277	-0.03719337	-0.1287474	0	0	0	0
28.08934	-0.03716709	-0.1287277	0.001586338	0.001189191	0.04787853	0.03589192
28.1059	-0.03716709	-0.1287277	0	0	-0.04787853	-0.03589192
28.12247	-0.03716709	-0.1287277	0	0	0	0
28.13904	-0.03714081	-0.128708	0.001586338	0.001189191	0.04787853	0.03589192
28.1556	-0.03714081	-0.128708	0	0	-0.04787853	-0.03589192
28.17217	-0.03714081	-0.128708	0	0	0	0
28.18874	-0.03714081	-0.128708	0	0	0	0
28.20531	-0.03714081	-0.128708	0	0	0	0
28.22187	-0.03714081	-0.128708	0	0	0	0
28.24189	-0.03714081	-0.128708	0	0	0	0
28.25846	-0.03714081	-0.128708	0	0	0	0
28.27503	-0.03714081	-0.128708	0	0	0	0
28.2916	-0.03714081	-0.128708	0	0	0	0
28.30816	-0.03714081	-0.128708	0	0	0	0
28.32473	-0.03711453	-0.1287277	0.00158638	-0.001189054	0.04787704	-0.03588573
28.3413	-0.03711453	-0.1287277	0	0	-0.04787704	0.03588573
28.35786	-0.03711453	-0.1287277	0	0	0	0
28.37443	-0.03711453	-0.1287277	0	0	0	0
28.391	-0.03711453	-0.1287277	0	0	0	0
28.40756	-0.03711453	-0.1287277	0	0	0	0
28.42413	-0.03711453	-0.1287277	0	0	0	0
28.4407	-0.03711453	-0.1287277	0	0	0	0
28.45727	-0.03711453	-0.1287277	0	0	0	0
28.47384	-0.03711453	-0.1287277	0	0	0	0
28.4904	-0.03711453	-0.1287277	0	0	0	0
28.50702	-0.03711453	-0.1287277	0	0	0	0
28.52353	-0.03711453	-0.1287277	0	0	0	0
28.5401	-0.03711453	-0.1287277	0	0	0	0
28.55667	-0.03711453	-0.1287277	0	0	0	0
28.57323	-0.03711453	-0.1287277	0	0	0	0
28.5898	-0.03711453	-0.1287277	0	0	0	0
28.60637	-0.03711453	-0.1287277	0	0	0	0
28.62293	-0.03708825	-0.128708	0.00158652	0.001189328	0.0478868	0.03589812
28.6395	-0.03708825	-0.128708	0	0	-0.04788128	-0.03589399
28.65607	-0.03708825	-0.128708	0	0	0	0
28.67263	-0.03695685	-0.1286095	0.007933052	0.005945741	0.2394476	0.1794635
28.68931	-0.03695685	-0.1286095	0	0	-0.2386644	-0.1788765
28.70577	-0.03695685	-0.1286095	0	0	0	0
28.72234	-0.03690429	-0.1286095	0.003173266	0	0.09608462	0
28.7389	-0.03690429	-0.1286095	0	0	-0.09578038	0
28.75547	-0.03690429	-0.1286095	0	0	0	0
28.77224	-0.03690429	-0.1286095	0	0	0	0
28.7886	-0.03690429	-0.1286095	0	0	0	0
28.80517	-0.03690429	-0.1286095	0	0	0	0
28.82174	-0.03690429	-0.1286095	0	0	0	0
28.8383	-0.03690429	-0.1286095	0	0	0	0
28.8549	-0.03690429	-0.1286095	0	0	0	0
28.87144	-0.03690429	-0.1286095	0	0	0	0
28.888	-0.03690429	-0.1286095	0	0	0	0
28.90461	-0.03690429	-0.1286095	0	0	0	0
28.92114	-0.03685173	-0.1285307	0.003180591	0.004767392	0.09599595	0.1438885
28.9377	-0.03685173	-0.1285307	0	0	-0.09611214	-0.1440626
28.95427	-0.03685173	-0.1285307	0	0	0	0
28.97084	-0.03674661	-0.1284519	0.006345801	0.004755865	0.1915277	0.1435405
28.9874	-0.03674661	-0.1284519	0	0	-0.1915277	-0.1435405
29.00397	-0.03674661	-0.1284519	0	0	0	0
29.02054	-0.03666777	-0.1283928	0.004759463	0.003567573	0.1436491	0.1076758
29.03789	-0.03666777	-0.1283928	0	0	-0.1403132	-0.1051752
29.05367	-0.03666777	-0.1283928	0	0	0	0
29.07062	-0.03406576	-0.1264832	0.1534878	0.1126475	4.689225	3.441509
29.08719	-0.03406576	-0.1264832	0	0	-4.579025	-3.360631
29.10386	-0.03406576	-0.1264832	0	0	0	0
29.12037	-0.02720381	-0.1215485	0.4155277	0.2988214	12.52191	9.00497
29.13689	-0.02720381	-0.1215485	0	0	-12.57903	-9.046045
29.15373	-0.02720381	-0.1215485	0	0	0	0
29.17002	-0.02691455	-0.121411	0.01775211	0.008437098	0.5358213	0.2546614
29.18659	-0.02691455	-0.121411	0	0	-0.5401751	-0.2567306
29.2035	-0.02691455	-0.121411	0	0	0	0
29.28327	-0.02683566	-0.1215092	0.0009888903	-0.001230918	0.01022852	-0.01273192
29.29984	-0.02683566	-0.1215092	0	0	-0.01026416	0.01277628
29.31641	-0.02667788	-0.1216271	0.009524773	-0.007114008	0.2874748	-0.2147135
29.33298	-0.02667788	-0.1216271	0	0	-0.2874417	0.2146888
29.35001	-0.02667788	-0.1216271	0	0	0	0
29.36611	-0.02594155	-0.1221771	0.04572436	-0.03415459	1.380043	-1.030847
29.38268	-0.02594155	-0.1221771	0	0	-1.399541	1.045411
29.39924	-0.02594155	-0.1221771	0	0	0	0
29.41581	-0.02591525	-0.1221967	0.001587279	-0.001185906	0.04790419	-0.03579072
29.43238	-0.02591525	-0.1221967	0	0	-0.04790419	0.03579072
29.44894	-0.02591525	-0.1221967	0	0	0	0
29.46551	-0.02588895	-0.1222164	0.001587575	-0.001185593	0.04791862	-0.03578539
29.48208	-0.02588895	-0.1222164	0	0	-0.0479131	0.03578127
29.49945	-0.02588895	-0.1222164	0	0	0	0
29.51521	-0.02581006	-0.1222753	0.005007661	-0.003741204	0.1511489	-0.1129228
29.53178	-0.02581006	-0.1222753	0	0	-0.1549033	0.1157277
29.54835	-0.02581006	-0.1222753	0	0	0	0
29.56491	-0.02570486	-0.1223932	0.006348837	-0.007114618	0.1916193	-0.214732
29.58148	-0.02570486	-0.1223932	0	0	-0.1916303	0.2147443
29.59805	-0.02570486	-0.1223932	0	0	0	0
29.61461	-0.02562597	-0.1224521	0.004763708	-0.003558948	0.143769	-0.1074093
29.63118	-0.02562597	-0.1224521	0	0	-0.1437773	0.1074154
29.64775	-0.02562597	-0.1224521	0	0	0	0
29.66431	-0.02562597	-0.1224521	0	0	0	0
29.68088	-0.02562597	-0.1224521	0	0	0	0
29.69745	-0.02562597	-0.1224521	0	0	0	0
29.71401	-0.02562597	-0.1224521	0	0	0	0
29.73058	-0.02562597	-0.1224521	0	0	0	0
29.74793	-0.02562597	-0.1224521	0	0	0	0
29.76372	-0.02562597	-0.1224521	0	0	0	0
29.78028	-0.02562597	-0.1224521	0	0	0	0
29.79685	-0.02562597	-0.1224521	0	0	0	0
29.81481	-0.02562597	-0.1224521	0	0	0	0
29.83138	-0.02562597	-0.1224521	0	0	0	0
29.84794	-0.02562597	-0.1224521	0	0	0	0
29.91273	-0.02562597	-0.1224521	0	0	0	0
29.9293	-0.02562597	-0.1224521	0	0	0	0
29.94587	-0.02562597	-0.1224521	0	0	0	0
29.96244	-0.02562597	-0.1224521	0	0	0	0
29.979	-0.02562597	-0.1224521	0	0	0	0
29.99557	-0.02562597	-0.1224521	0	0	0	0
30.01214	-0.02562597	-0.1224521	0	0	0	0
30.02875	-0.02562597	-0.1224521	0	0	0	0
30.04527	-0.02565227	-0.1224325	-0.001592342	0.001189604	-0.04805973	0.03590439
30.06192	-0.02565227	-0.1224325	0	0	0.04801551	-0.03587135
30.07841	-0.02565227	-0.1224325	0	0	0	0
30.09497	-0.02562597	-0.1224521	0.001587757	-0.001186179	0.04803752	-0.0358878
30.11164	-0.02562597	-0.1224521	0	0	-0.04777012	0.03568803
30.1281	-0.02562597	-0.1224521	0	0	0	0
30.14467	-0.02562597	-0.1224521	0	0	0	0
30.16142	-0.02562597	-0.1224521	0	0	0	0
30.1778	-0.02562597	-0.1224521	0	0	0	0
30.19463	-0.02562597	-0.1224521	0	0	0	0
30.21093	-0.02562597	-0.1224521	0	0	0	0
30.2275	-0.02562597	-0.1224521	0	0	0	0
30.24407	-0.02562597	-0.1224521	0	0	0	0
30.26063	-0.02562597	-0.1224521	0	0	0	0
30.27804	-0.02562597	-0.1224521	0	0	0	0
30.29518	-0.02562597	-0.1224521	0	0	0	0
30.31175	-0.02562597	-0.1224521	0	0	0	0
30.32832	-0.02562597	-0.1224521	0	0	0	0
30.34488	-0.02562597	-0.1224521	0	0	0	0
30.36145	-0.02562597	-0.1224521	0	0	0	0
30.37802	-0.02562597	-0.1224521	0	0	0	0
30.39459	-0.02562597	-0.1224521	0	0	0	0
30.41115	-0.02562597	-0.1224521	0	0	0	0
30.42807	-0.02562597	-0.1224521	0	0	0	0
30.44429	-0.02562597	-0.1224521	0	0	0	0
30.46085	-0.02562597	-0.1224521	0	0	0	0
30.47759	-0.02562597	-0.1224521	0	0	0	0
30.49399	-0.02562597	-0.1224521	0	0	0	0
30.51068	-0.02562597	-0.1224521	0	0	0	0
30.52712	-0.02562597	-0.1224521	0	0	0	0
30.54369	-0.02562597	-0.1224521	0	0	0	0
30.56027	-0.02562597	-0.1224521	0	0	0	0
30.57683	-0.02562597	-0.1224521	0	0	0	0
30.59339	-0.02559967	-0.1224718	0.001587575	-0.001186043	0.0479269	-0.03580515
30.60996	-0.02559967	-0.1224718	0	0	-0.04791586	0.0357969
30.62653	-0.02559967	-0.1224718	0	0	0	0
30.64309	-0.02562597	-0.1224521	-0.001587392	0.001185906	-0.04790758	0.03579072
30.65966	-0.02562597	-0.1224521	0	0	0.04790758	-0.03579072
30.67623	-0.02562597	-0.1224521	0	0	0	0
30.69285	-0.02562597	-0.1224521	0	0	0	0
30.70936	-0.02562597	-0.1224521	0	0	0	0
30.72593	-0.02562597	-0.1224521	0	0	0	0
30.74249	-0.02562597	-0.1224521	0	0	0	0
30.75906	-0.02562597	-0.1224521	0	0	0	0
30.77563	-0.02562597	-0.1224521	0	0	0	0
30.79219	-0.02562597	-0.1224521	0	0	0	0
30.80885	-0.02562597	-0.1224521	0	0	0	0
30.82533	-0.02562597	-0.1224521	0	0	0	0
30.84189	-0.02562597	-0.1224521	0	0	0	0
30.85846	-0.02562597	-0.1224521	0	0	0	0
30.87503	-0.02562597	-0.1224521	0	0	0	0
30.89159	-0.02562597	-0.1224521	0	0	0	0
30.90816	-0.02562597	-0.1224521	0	0	0	0
30.92482	-0.02562597	-0.1224521	0	0	0	0
30.94129	-0.02562597	-0.1224521	0	0	0	0
30.95786	-0.02562597	-0.1224521	0	0	0	0
30.97443	-0.02562597	-0.1224521	0	0	0	0
30.99099	-0.02562597	-0.1224521	0	0	0	0
31.00756	-0.02562597	-0.1224521	0	0	0	0
31.02413	-0.02562597	-0.1224521	0	0	0	0
31.04069	-0.02562597	-0.1224521	0	0	0	0
31.05726	-0.02562597	-0.1224521	0	0	0	0
31.07383	-0.02562597	-0.1224521	0	0	0	0
31.09039	-0.02562597	-0.1224521	0	0	0	0
31.10696	-0.02562597	-0.1224521	0	0	0	0
31.1237	-0.02562597	-0.1224521	0	0	0	0
31.14009	-0.02562597	-0.1224521	0	0	0	0
31.15666	-0.02562597	-0.1224521	0	0	0	0
31.17372	-0.02562597	-0.1224521	0	0	0	0
31.18979	-0.02562597	-0.1224521	0	0	0	0
31.2064	-0.02562597	-0.1224521	0	0	0	0
31.22292	-0.02562597	-0.1224521	0	0	0	0
31.23949	-0.02565227	-0.1224325	-0.001587392	0.001185906	-0.04796833	0.0358361
31.25606	-0.02565227	-0.1224325	0	0	0.04790482	-0.03578866
31.27262	-0.02565227	-0.1224325	0	0	0	0
31.28919	-0.02565227	-0.1224325	0	0	0	0
31.30576	-0.02565227	-0.1224325	0	0	0	0
31.32232	-0.02565227	-0.1224325	0	0	0	0
31.33889	-0.02565227	-0.1224325	0	0	0	0
31.35546	-0.02565227	-0.1224325	0	0	0	0
31.37202	-0.02565227	-0.1224325	0	0	0	0
31.38859	-0.02565227	-0.1224325	0	0	0	0
31.40516	-0.02565227	-0.1224325	0	0	0	0
31.42173	-0.02565227	-0.1224325	0	0	0	0
31.43848	-0.02583635	-0.1222557	-0.01098505	0.01055168	-0.3296508	0.3166457
31.45486	-0.02583635	-0.1222557	0	0	0.3315295	-0.3184502
31.47143	-0.02583635	-0.1222557	0	0	0	0
31.48799	-0.03051684	-0.1177019	-0.2825797	0.27493	-8.529253	8.298359
31.50464	-0.03051684	-0.1177019	0	0	8.508191	-8.277867
31.52114	-0.03051684	-0.1177019	0	0	0	0
31.53769	-0.03585305	-0.09138248	-0.3223542	1.589923	-9.752809	48.10303
31.55426	-0.03585305	-0.09138248	0	0	9.73259	-48.00331
31.57085	-0.03585305	-0.09138248	0	0	0	0
31.58739	-0.027309	-0.06497417	0.5166717	1.59695	15.59498	48.2016
31.60403	-0.027309	-0.06497417	0	0	-15.57167	-48.12956
31.62073	-0.027309	-0.06497417	0	0	0	0
31.6413	-0.02538928	-0.02937321	0.09335732	1.731301	2.505432	46.46296
31.65799	-0.02538928	-0.02937321	0	0	-2.505689	-46.46772
31.67509	-0.0248107	-0.007225607	0.03384778	1.295662	1.001749	38.34604
31.69109	-0.0248107	-0.007225607	0	0	-1.022764	-39.15049
31.70757	-0.0248107	-0.007225607	0	0	0	0
31.72454	-0.02662528	0.0317307	-0.1068951	2.294868	-3.195018	68.59197
31.74073	-0.02662528	0.0317307	0	0	3.223502	-69.20348
31.75804	-0.02662528	0.0317307	0	0	0	0
31.77383	-0.02599414	0.05838342	0.03997818	1.688256	1.207726	51.00158
31.7904	-0.02599414	0.05838342	0	0	-1.235562	-52.17711
31.80696	-0.02599414	0.05838342	0	0	0	0
31.8237	-0.02901817	0.07640243	-0.1807203	1.076844	-5.427281	32.33912
31.8401	-0.02901817	0.07640243	0	0	5.454463	-32.50108
31.85666	-0.02901817	0.07640243	0	0	0	0
31.87323	-0.02912334	0.090946	-0.006348331	0.8778521	-0.191593	26.49363
31.8898	-0.02912334	0.090946	0	0	0.191593	-26.49363
31.90637	-0.02912334	0.090946	0	0	0	0
31.92303	-0.01910294	0.09842003	0.6015087	0.4486539	18.10355	13.50309
31.9395	-0.01910294	0.09842003	0	0	-18.15462	-13.54118
31.95608	-0.01910294	0.09842003	0	0	0	0
31.97263	-0.01834005	0.1114476	0.04609584	0.7871622	1.391255	23.75797
31.9892	-0.01834005	0.1114476	0	0	-1.391896	-23.76892
32.00576	-0.01834005	0.1114476	0	0	0	0
32.02233	-0.02115474	0.1133685	-0.1699341	0.1159712	-5.129508	3.500622
32.03889	-0.02115474	0.1133685	0	0	5.129213	-3.50042
32.0555	-0.02115474	0.1133685	0	0	0	0
32.07203	-0.02304855	0.1147218	-0.1145745	0.08187439	-3.458262	2.471258
32.0887	-0.02304855	0.1147218	0	0	3.450317	-2.46558
32.10516	-0.02304855	0.1147218	0	0	0	0
32.12173	-0.02302225	0.1147035	0.001587617	-0.001104058	0.04806932	-0.03342828
32.13841	-0.02302225	0.1147035	0	0	-0.04774945	0.03320583
32.15487	-0.02302225	0.1147035	0	0	0	0
32.17143	-0.02302225	0.1147035	0	0	0	0
32.188	-0.02302225	0.1147035	0	0	0	0
32.20465	-0.02302225	0.1147035	0	0	0	0
32.22115	-0.02302225	0.1146669	0	-0.002215377	0	-0.06682175
32.2377	-0.02302225	0.1146669	0	0	0	0.06702999
32.25427	-0.02302225	0.1146669	0	0	0	0
32.27711	-0.02299595	0.1146121	0.001151281	-0.002401212	0.02920752	-0.06091778
32.29406	-0.02299595	0.1146121	0	0	-0.02893589	0.06035123
32.32006	-0.02296964	0.1145938	0.001011522	-0.0007031938	0.0235555	-0.01637541
32.33662	-0.02296964	0.1145938	0	0	-0.02376237	0.01651922
32.35319	-0.02294334	0.1145755	0.001587617	-0.001104058	0.04791437	-0.03332052
32.36976	-0.02294334	0.1145755	0	0	-0.04790885	0.03331669
32.38633	-0.02294334	0.1145755	0	0	0	0
32.40289	-0.02296964	0.1145938	-0.001587982	0.001104312	-0.04793092	0.03333203
32.41946	-0.02296964	0.1145938	0	0	0.04793092	-0.03333203
32.43629	-0.02296964	0.1145938	0	0	0	0
32.45288	-0.02302225	0.1146304	-0.003170741	0.00220417	-0.09486312	0.065945
32.46917	-0.02302225	0.1146304	0	0	0.0964594	-0.06705467
32.48573	-0.02302225	0.1146304	0	0	0	0
32.5023	-0.02320636	0.1147218	-0.01111298	0.005518938	-0.335429	0.1665811
32.51886	-0.02320636	0.1147218	0	0	0.3353904	-0.1665619
32.53543	-0.02320636	0.1147218	0	0	0	0
32.552	-0.02344307	0.1146304	-0.0142881	-0.005518938	-0.4312158	-0.1665619
32.56857	-0.02344307	0.1146304	0	0	0.4312158	0.1665619
32.58513	-0.02344307	0.1146304	0	0	0	0
32.6017	-0.02381129	0.1143744	-0.02222551	-0.01545231	-0.6707672	-0.4663516
32.61845	-0.02381129	0.1143744	0	0	0.6671572	0.4638417
32.63484	-0.02381129	0.1143744	0	0	0	0
32.65141	-0.02562597	0.1130393	-0.1095343	-0.08058766	-3.323352	-2.445089
32.66797	-0.02562597	0.1130393	0	0	3.305752	2.43214
32.68454	-0.02562597	0.1130393	0	0	0	0
32.7011	-0.02720381	0.1119782	-0.09526084	-0.06405863	-2.875309	-1.933516
32.71767	-0.02720381	0.1119782	0	0	2.875309	1.933516
32.73424	-0.02720381	0.1119782	0	0	0	0
32.7508	-0.02723011	0.1119965	-0.001587279	0.001104058	-0.04790419	0.03332052
32.76737	-0.02723011	0.1119965	0	0	0.04790419	-0.03332052
32.78408	-0.02723011	0.1119965	0	0	0	0
32.80051	-0.02723011	0.1119965	0	0	0	0
32.81708	-0.02723011	0.1119965	0	0	0	0
32.83364	-0.02723011	0.1119965	0	0	0	0
32.85021	-0.0272827	0.1120331	-0.003175178	0.002209073	-0.09583808	0.06667764
32.86678	-0.0272827	0.1120331	0	0	0.09582705	-0.06666997
32.88335	-0.0272827	0.1120331	0	0	0	0
32.89991	-0.02778232	0.1123807	-0.03015719	0.02098159	-0.9101457	0.6332257
32.91648	-0.02778232	0.1123807	0	0	0.9101457	-0.6332257
32.9332	-0.02778232	0.1123807	0	0	0	0
32.94961	-0.02786121	0.112399	-0.004808112	0.001114839	-0.1451258	0.03364978
32.96618	-0.02786121	0.112399	0	0	0.1458142	-0.03380939
32.98275	-0.02786121	0.112399	0	0	0	0
32.99931	-0.0278875	0.1124173	-0.001587167	0.001104058	-0.0479008	0.03332052
33.01588	-0.0278875	0.1124173	0	0	0.0479008	-0.03332052
33.03245	-0.0278875	0.1124173	0	0	0	0
33.04902	-0.02799269	0.1124905	-0.00634878	0.00441713	-0.1916066	0.1333092
33.06558	-0.02799269	0.1124905	0	0	0.1916066	-0.1333092
33.08255	-0.02799269	0.1124905	0	0	0	0
33.09872	-0.02799269	0.1124905	0	0	0	0
33.11528	-0.02799269	0.1124905	0	0	0	0
33.13185	-0.02799269	0.1124905	0	0	0	0
33.14841	-0.02804528	0.1125271	-0.003175065	0.002209073	-0.09583469	0.06667764
33.16498	-0.02804528	0.1125271	0	0	0.09583469	-0.06667764
33.18186	-0.02804528	0.1125271	0	0	0	0
33.19811	-0.02809787	0.1125636	-0.003236181	0.002251137	-0.09769064	0.0679551
33.21468	-0.02809787	0.1125636	0	0	0.09861043	-0.06859492
33.23124	-0.02809787	0.1125636	0	0	0	0
33.24781	-0.02815046	0.1125636	-0.003174334	0	-0.09580159	0
33.26438	-0.02815046	0.1125636	0	0	0.09580159	0
33.28094	-0.02815046	0.1125636	0	0	0	0
33.29751	-0.02817675	0.1125454	-0.001587533	-0.001104312	-0.04791734	-0.03333203
33.31408	-0.02817675	0.1125454	0	0	0.04790631	0.03332436
33.331	-0.02817675	0.1125454	0	0	0	0
33.34755	-0.02820305	0.1125271	-0.00158863	-0.001105075	-0.04746949	-0.0330205
33.36462	-0.02820305	0.1125271	0	0	0.04725404	0.03287063
33.38068	-0.02820305	0.1125271	0	0	0	0
33.39725	-0.02833452	0.112399	-0.007937663	-0.007731532	-0.2432559	-0.2369388
33.41382	-0.02833452	0.112399	0	0	0.2395592	0.2333381
33.43039	-0.02833452	0.112399	0	0	0	0
33.44698	-0.02846599	0.1122344	-0.007924775	-0.009924605	-0.2390051	-0.2993184
33.46352	-0.02846599	0.1122344	0	0	0.2391977	0.2995597
33.48008	-0.02846599	0.1122344	0	0	0	0
33.49665	-0.02933369	0.11013	-0.05237415	-0.1270192	-1.580655	-3.833448
33.51322	-0.02933369	0.11013	0	0	1.580655	3.833448
33.52979	-0.02933369	0.11013	0	0	0	0
33.54635	-0.06026903	0.0871951	-1.867691	-1.384672	-56.36702	-41.78949
33.56297	-0.06026903	0.0871951	0	0	56.28278	41.72704
33.57949	-0.06026903	0.0871951	0	0	0	0
33.59606	-0.08876612	0.04966833	-1.720484	-2.265642	-52.00214	-68.4797
33.61263	-0.08876612	0.04966833	0	0	51.93029	68.38508
33.62918	-0.08876612	0.04966833	0	0	0	0
33.64578	-0.09090665	-0.001175728	-0.128965	-3.063311	-3.889486	-92.38708
33.66246	-0.09090665	-0.001175728	0	0	3.876108	92.06931
33.67889	-0.09090665	-0.001175728	0	0	0	0
33.69545	-0.0838294	-0.04969125	0.4273807	-2.929752	12.95206	-88.78809
33.71202	-0.0838294	-0.04969125	0	0	-12.89986	88.43027
33.72859	-0.0838294	-0.04969125	0	0	0	0
33.74516	-0.07232102	-0.07277182	0.6948069	-1.393466	20.97173	-42.05974
33.76172	-0.07232102	-0.07277182	0	0	-20.97173	42.05974
33.77882	-0.07232102	-0.07277182	0	0	0	0
33.79486	-0.05478722	-0.08570064	1.093335	-0.8061876	32.99691	-24.33079
33.81142	-0.05478722	-0.08570064	0	0	-33.53354	24.72648
33.82799	-0.05478722	-0.08570064	0	0	0	0
33.84455	-0.02891299	-0.1048892	1.562131	-1.158493	47.15064	-34.96742
33.86113	-0.02891299	-0.1048892	0	0	-47.14521	34.9634
33.87769	-0.02891299	-0.1048892	0	0	0	0
33.89426	-0.005973613	-0.1219217	1.384624	-1.02808	41.78803	-31.02753
33.91083	-0.005973613	-0.1219217	0	0	-41.78803	31.02753
33.92739	-0.005973613	-0.1219217	0	0	0	0
33.94396	-0.002736835	-0.124339	0.1954173	-0.1459441	5.898386	-4.40511
33.96053	-0.002736835	-0.124339	0	0	-5.898386	4.40511
33.97721	-0.002736835	-0.124339	0	0	0	0
33.99366	-0.002657888	-0.124398	0.004799498	-0.003586014	0.1448491	-0.1082261
34.01022	-0.002657888	-0.124398	0	0	-0.1453847	0.1086263
34.02732	-0.002657888	-0.124398	0	0	0	0
34.04336	-0.002552626	-0.1244373	0.006565295	-0.00245314	0.198141	-0.07403591
34.05993	-0.002552626	-0.1244373	0	0	-0.2013869	0.07524876
34.07649	-0.002552626	-0.1244373	0	0	0	0
34.09306	-0.002552626	-0.124398	0	0.002374061	0	0.0716493
34.10963	-0.002552626	-0.124398	0	0	0	-0.0716493
34.12619	-0.002552626	-0.124398	0	0	0	0
34.14276	-0.002526311	-0.1244177	0.00158877	-0.001187529	0.04795468	-0.03584382
34.15933	-0.002526311	-0.1244177	0	0	-0.04794916	0.03583969
34.17596	-0.002526311	-0.1244177	0	0	0	0
34.19246	-0.002421048	-0.1244177	0.0063801	0	0.192574	0
34.20903	-0.002421048	-0.1244177	0	0	-0.1929517	0
34.22559	-0.002421048	-0.1244177	0	0	0	0
34.24252	-0.002342101	-0.1243587	0.004663248	0.003484643	0.1392304	0.1040408
34.25916	-0.002342101	-0.1243587	0	0	-0.1388981	-0.1037925
34.27529	-0.002342101	-0.1243587	0	0	0	0
34.29551	-0.002342101	-0.1243587	0	0	0	0
34.31221	-0.002342101	-0.1243587	0	0	0	0
34.32865	-0.002315785	-0.1243783	0.001601323	-0.001196448	0.04832802	-0.03610887
34.34557	-0.002315785	-0.1243783	0	0	-0.04801294	0.03587345
34.36213	-0.002315785	-0.1243783	0	0	0	0
34.37835	-0.002315785	-0.1243783	0	0	0	0
34.39492	-0.002315785	-0.1243783	0	0	0	0
34.41149	-0.002315785	-0.1243783	0	0	0	0
34.42834	-0.002315785	-0.1243783	0	0	0	0
34.44462	-0.002315785	-0.1243783	0	0	0	0
34.4614	-0.002315785	-0.1243783	0	0	0	0
34.478	-0.002236838	-0.1244373	0.004755385	-0.003553503	0.1424681	-0.1064605
34.49432	-0.002236838	-0.1244373	0	0	-0.1444491	0.1079408
34.51089	-0.002236838	-0.1244373	0	0	0	0
34.52761	-0.002157891	-0.1244963	0.004720688	-0.003527119	0.1418013	-0.1059486
34.5444	-0.002157891	-0.1244963	0	0	-0.1408651	0.1052491
34.56059	-0.002157891	-0.1244963	0	0	0	0
34.57716	-0.002131576	-0.124516	0.001588418	-0.001187255	0.04849123	-0.03624454
34.59372	-0.002131576	-0.124516	0	0	-0.04793854	0.03583144
34.61029	-0.002131576	-0.124516	0	0	0	0
34.62707	-0.00210526	-0.1245357	0.001568197	-0.001171697	0.0470251	-0.03513537
34.64342	-0.00210526	-0.1245357	0	0	-0.04732828	0.0353619
34.66083	-0.00210526	-0.1245357	0	0	0	0
34.74102	-0.002052629	-0.124575	0.0006563123	-0.0004904646	0.00672484	-0.005025499
34.75759	-0.002052629	-0.124575	0	0	-0.006782635	0.005068689
34.77524	-0.002078944	-0.1245553	-0.001490923	0.001114383	-0.04356665	0.03256369
34.79181	-0.002078944	-0.1245553	0	0	0.04356665	-0.03256369
34.80873	-0.002078944	-0.1245553	0	0	0	0
34.82494	-0.002078944	-0.1245553	0	0	0	0
34.84151	-0.002078944	-0.1245553	0	0	0	0
34.85808	-0.002078944	-0.1245553	0	0	0	0
34.87465	-0.002078944	-0.1245553	0	0	0	0
34.89122	-0.002078944	-0.1245553	0	0	0	0
34.90778	-0.002078944	-0.1245553	0	0	0	0
34.92488	-0.002078944	-0.1245553	0	0	0	0
34.94092	-0.002078944	-0.1245553	0	0	0	0
34.95749	-0.002078944	-0.1245553	0	0	0	0
34.97416	-0.002078944	-0.1245553	0	0	0	0
34.99062	-0.002078944	-0.1245553	0	0	0	0
35.00718	-0.002078944	-0.1245553	0	0	0	0
35.02649	-0.002078944	-0.1245553	0	0	0	0
35.04306	-0.002078944	-0.1245553	0	0	0	0
35.05963	-0.002078944	-0.1245553	0	0	0	0
35.07619	-0.002078944	-0.1245553	0	0	0	0
35.09276	-0.002078944	-0.1245553	0	0	0	0
35.10963	-0.002078944	-0.1245553	0	0	0	0
35.12589	-0.002078944	-0.1245553	0	0	0	0
35.14246	-0.002078944	-0.1245553	0	0	0	0
35.1591	-0.002078944	-0.1245553	0	0	0	0
35.17559	-0.002078944	-0.1245553	0	0	0	0
35.19216	-0.002078944	-0.1245553	0	0	0	0
35.20873	-0.002078944	-0.1245553	0	0	0	0
35.22548	-0.002078944	-0.1245553	0	0	0	0
35.24186	-0.002078944	-0.1245553	0	0	0	0
35.25843	-0.002078944	-0.1245553	0	0	0	0
35.27499	-0.002078944	-0.1245553	0	0	0	0
35.29156	-0.002078944	-0.1245553	0	0	0	0
35.30813	-0.002078944	-0.1245553	0	0	0	0
35.3247	-0.002026313	-0.1245947	0.003176836	-0.002374061	0.09587709	-0.0716493
35.34126	-0.002026313	-0.1245947	0	0	-0.09587709	0.0716493
35.35783	-0.002026313	-0.1245947	0	0	0	0
35.3745	-0.001947366	-0.1246536	0.004735811	-0.003538866	0.1424842	-0.1064722
35.39096	-0.001947366	-0.1246536	0	0	-0.1429435	0.1068155
35.40753	-0.001947366	-0.1246536	0	0	0	0
35.42413	-0.001789472	-0.1247716	0.00950862	-0.007105821	0.2866407	-0.2142075
35.44066	-0.001789472	-0.1247716	0	0	-0.2870038	0.2144788
35.45723	-0.001789472	-0.1247716	0	0	0	0
35.47381	-0.0002105263	-0.1259519	0.09521764	-0.07117426	2.872351	-2.147055
35.49036	-0.0002105263	-0.1259519	0	0	-2.873674	2.148044
35.50693	-0.0002105263	-0.1259519	0	0	0	0
35.52349	-0.0002105263	-0.1259519	0	0	0	0
35.54006	-0.0002105263	-0.1259519	0	0	0	0
35.55663	-0.0002105263	-0.1259519	0	0	0	0
35.57363	-0.0002105263	-0.1259519	0	0	0	0
35.58976	-0.0002105263	-0.1259519	0	0	0	0
35.60633	-0.0002105263	-0.1259519	0	0	0	0
35.62289	-0.0002105263	-0.1259519	0	0	0	0
35.6396	-0.0002105263	-0.1259519	0	0	0	0
35.65611	-0.0002105263	-0.1259519	0	0	0	0
35.67259	-0.0002105263	-0.1259519	0	0	0	0
35.68916	-0.0002105263	-0.1259519	0	0	0	0
35.70603	-0.0002105263	-0.1259519	0	0	0	0
35.72229	-0.0002368421	-0.1259322	-0.001618612	0.001210736	-0.04885544	0.03654429
35.73886	-0.0002368421	-0.1259322	0	0	0.04930391	-0.03687975
35.75604	-0.0002368421	-0.1259322	0	0	0	0
35.772	-0.0002368421	-0.1259322	0	0	0	0
35.78905	-0.0002368421	-0.1259322	0	0	0	0
35.80513	-0.0002368421	-0.1259322	0	0	0	0
35.8217	-0.0002631579	-0.1259125	-0.001588424	0.001187255	-0.04866143	0.03637161
35.83841	-0.0002631579	-0.1259125	0	0	0.04772445	-0.03567128
35.85494	-0.0002631579	-0.1259125	0	0	0	0
35.8714	-0.0002631579	-0.1259125	0	0	0	0
35.88797	-0.0002631579	-0.1259125	0	0	0	0
35.90453	-0.0002631579	-0.1259125	0	0	0	0
35.9211	-0.0002894737	-0.1258929	-0.001588791	0.001187529	-0.04795532	0.03584382
35.93767	-0.0002894737	-0.1258929	0	0	0.0479498	-0.03583969
35.95424	-0.0002894737	-0.1258929	0	0	0	0
35.9708	-0.0003157895	-0.1258732	-0.001588423	0.001188155	-0.0479387	0.03585858
35.98773	-0.0003157895	-0.1258732	0	0	0.04742546	-0.03547468
36.00394	-0.0003157895	-0.1258732	0	0	0	0
36.0205	-0.0003157895	-0.1258732	0	0	0	0
36.03707	-0.0003157895	-0.1258732	0	0	0	0
36.05364	-0.0003157895	-0.1258732	0	0	0	0
36.0702	-0.0003157895	-0.1258732	0	0	0	0
36.08677	-0.0003157895	-0.1258732	0	0	0	0
36.10361	-0.0003157895	-0.1258732	0	0	0	0
36.1199	-0.0003421053	-0.1258535	-0.001615581	0.001207553	-0.04876393	0.03644821
36.13647	-0.0003421053	-0.1258535	0	0	0.04917157	-0.0367529
36.15304	-0.0003421053	-0.1258535	0	0	0	0
36.16961	-0.0003421053	-0.1258535	0	0	0	0
36.18617	-0.0003421053	-0.1258535	0	0	0	0
36.20274	-0.0003421053	-0.1258535	0	0	0	0
36.21953	-0.0003421053	-0.1258535	0	0	0	0
36.23587	-0.0003421053	-0.1258535	0	0	0	0
36.25244	-0.0003421053	-0.1258535	0	0	0	0
36.269	-0.0003421053	-0.1258535	0	0	0	0
36.28558	-0.0003421053	-0.1258535	0	0	0	0
36.30214	-0.0003421053	-0.1258535	0	0	0	0
36.32256	-0.0003421053	-0.1258535	0	0	0	0
36.33913	-0.0003421053	-0.1258535	0	0	0	0
36.35569	-0.0003421053	-0.1258535	0	0	0	0
36.37226	-0.0003421053	-0.1258535	0	0	0	0
36.38897	-0.0003421053	-0.1258535	0	0	0	0
36.40539	-0.0003157895	-0.1258732	0.001603191	-0.001198292	0.04838996	-0.03616868
36.42196	-0.0003157895	-0.1258732	0	0	-0.04860823	0.03633183
36.43852	-0.0003157895	-0.1258732	0	0	0	0
36.45566	-0.0003157895	-0.1258732	0	0	0	0
36.47166	-0.0003157895	-0.1258732	0	0	0	0
36.48824	-0.0003157895	-0.1258732	0	0	0	0
36.50596	-0.0003157895	-0.1258732	0	0	0	0
36.52253	-0.0003157895	-0.1258732	0	0	0	0
36.53909	-0.0003157895	-0.1258732	0	0	0	0
36.55566	-0.0002894737	-0.1258929	0.001588423	-0.001188155	0.0479387	-0.03585858
36.57223	-0.0002894737	-0.1258929	0	0	-0.0479387	0.03585858
36.58908	-0.0002894737	-0.1258929	0	0	0	0
36.60536	-0.0003157895	-0.1258732	-0.001615957	0.001208751	-0.04876969	0.03648016
36.62193	-0.0003157895	-0.1258732	0	0	0.04918875	-0.03679363
36.6385	-0.0003157895	-0.1258732	0	0	0	0
36.65508	-0.0003157895	-0.1258732	0	0	0	0
36.67163	-0.0003157895	-0.1258732	0	0	0	0
36.6882	-0.0003157895	-0.1258732	0	0	0	0
36.70477	-0.0002894737	-0.1258929	0.001588423	-0.001188155	0.0479387	-0.03585858
36.72133	-0.0002894737	-0.1258929	0	0	-0.0479387	0.03585858
36.7379	-0.0002894737	-0.1258929	0	0	0	0
36.75473	-0.0002894737	-0.1258929	0	0	0	0
36.77128	-0.0002894737	-0.1258929	0	0	0	0
36.78761	-0.0002894737	-0.1258929	0	0	0	0
36.80417	-0.0002894737	-0.1258929	0	0	0	0
36.82074	-0.0002894737	-0.1258929	0	0	0	0
36.83772	-0.0002894737	-0.1258929	0	0	0	0
36.85387	-0.0002894737	-0.1258929	0	0	0	0
36.87044	-0.0002894737	-0.1258929	0	0	0	0
36.88701	-0.0002894737	-0.1258929	0	0	0	0
36.90371	-0.0003157895	-0.1258732	-0.001575365	0.001178387	-0.04734836	0.035417
36.92014	-0.0003157895	-0.1258732	0	0	0.04755007	-0.03556788
36.93671	-0.0003157895	-0.1258732	0	0	0	0
36.95327	-0.0003157895	-0.1258732	0	0	0	0
36.96984	-0.0003157895	-0.1258732	0	0	0	0
36.9864	-0.0003157895	-0.1258732	0	0	0	0
37.00297	-0.0003157895	-0.1258732	0	0	0	0
37.01954	-0.0003157895	-0.1258732	0	0	0	0
37.03622	-0.0003157895	-0.1258732	0	0	0	0
37.05267	-0.0003157895	-0.1258732	0	0	0	0
37.06924	-0.0003157895	-0.1258732	0	0	0	0
37.08597	-0.0003157895	-0.1258732	0	0	0	0
37.10237	-0.0003157895	-0.1258732	0	0	0	0
37.11894	-0.0003157895	-0.1258732	0	0	0	0
37.13552	-0.0003157895	-0.1258732	0	0	0	0
37.15207	-0.0003157895	-0.1258732	0	0	0	0
37.16874	-0.0003157895	-0.1258732	0	0	0	0
37.1852	-0.0003157895	-0.1258732	0	0	0	0
37.20216	-0.0003157895	-0.1258732	0	0	0	0
37.21846	-0.0003157895	-0.1258732	0	0	0	0
37.2349	-0.0003157895	-0.1258732	0	0	0	0
37.25147	-0.0003157895	-0.1258732	0	0	0	0
37.26804	-0.0003157895	-0.1258732	0	0	0	0
37.2846	-0.0003157895	-0.1258732	0	0	0	0
37.30117	-0.0003157895	-0.1258732	0	0	0	0
37.31774	-0.0003157895	-0.1258732	0	0	0	0
37.33439	-0.0003157895	-0.1258732	0	0	0	0
37.35087	-0.0003157895	-0.1258732	0	0	0	0
37.36806	-0.0003157895	-0.1258732	0	0	0	0
37.384	-0.0003157895	-0.1258732	0	0	0	0
37.40057	-0.0003157895	-0.1258732	0	0	0	0
37.41764	-0.0003157895	-0.1258732	0	0	0	0
37.43377	-0.0003157895	-0.1258732	0	0	0	0
37.45026	-0.0003421053	-0.1258535	-0.001595036	0.001192197	-0.04889826	0.03654861
37.46684	-0.0003421053	-0.1258535	0	0	0.04823267	-0.03605112
37.48365	-0.0003421053	-0.1258535	0	0	0	0
37.49997	-0.0003157895	-0.1258732	0.001612559	-0.001205295	0.04867274	-0.03638005
37.51654	-0.0003157895	-0.1258732	0	0	-0.04902839	0.03664587
37.5331	-0.0003157895	-0.1258732	0	0	0	0
37.55141	-0.0003157895	-0.1258732	0	0	0	0
37.56807	-0.0003157895	-0.1258732	0	0	0	0
37.58485	-0.0003157895	-0.1258732	0	0	0	0
37.60355	-0.0003157895	-0.1258732	0	0	0	0
37.62087	-0.0003157895	-0.1258732	0	0	0	0
37.63669	-0.0003157895	-0.1258732	0	0	0	0
37.65936	-0.0003157895	-0.1258732	0	0	0	0
37.67593	-0.0003157895	-0.1258732	0	0	0	0
37.6925	-0.0003157895	-0.1258732	0	0	0	0
37.70911	-0.0003157895	-0.1258732	0	0	0	0
37.72568	-0.0003157895	-0.1258732	0	0	0	0
37.7422	-0.0003157895	-0.1258732	0	0	0	0
37.75877	-0.0003157895	-0.1258732	0	0	0	0
37.77533	-0.0003157895	-0.1258732	0	0	0	0
37.7919	-0.0003421053	-0.1258535	-0.001588425	0.001187255	-0.04793876	0.03583144
37.80847	-0.0003421053	-0.1258535	0	0	0.04793876	-0.03583144
37.82504	-0.0003421053	-0.1258535	0	0	0	0
37.8416	-0.000368421	-0.1258338	-0.001588423	0.001187255	-0.0479387	0.03583144
37.85817	-0.000368421	-0.1258338	0	0	0.0479387	-0.03583144
37.87474	-0.000368421	-0.1258338	0	0	0	0
37.89131	-0.000368421	-0.1258338	0	0	0	0
37.90821	-0.000368421	-0.1258338	0	0	0	0
37.92452	-0.000368421	-0.1258338	0	0	0	0
37.94101	-0.000368421	-0.1258338	0	0	0	0
37.95757	-0.000368421	-0.1258338	0	0	0	0
37.97414	-0.000368421	-0.1258338	0	0	0	0
37.99071	-0.0003421053	-0.1258142	0.001588423	0.001188155	0.0479387	0.03585858
38.00731	-0.0003421053	-0.1258142	0	0	-0.04789459	-0.03582559
38.02384	-0.0003421053	-0.1258142	0	0	0	0
38.04041	-0.0001578947	-0.1257158	0.01112153	0.005938543	0.3359966	0.1794115
38.05697	-0.0001578947	-0.1257158	0	0	-0.3356871	-0.1792462
38.07354	-0.0001578947	-0.1257158	0	0	0	0
38.09011	0.0003421053	-0.1255387	0.03018006	0.0106871	0.9108359	0.3225372
38.10667	0.0003421053	-0.1255387	0	0	-0.9108359	-0.3225372
38.12324	0.0003421053	-0.1255387	0	0	0	0
38.1398	0.003052622	-0.1272902	0.1636448	-0.1057413	4.939379	-3.191648
38.15637	0.003052622	-0.1272902	0	0	-4.939379	3.191648
38.17294	0.003052622	-0.1272902	0	0	0	0
38.18951	0.04121349	-0.1514464	2.303395	-1.458074	69.51659	-44.00475
38.20607	0.04121349	-0.1514464	0	0	-69.52459	44.00982
38.22305	0.04121349	-0.1514464	0	0	0	0
38.2392	0.107583	-0.1672681	4.108234	-0.9793545	123.9867	-29.55698
38.25578	0.107583	-0.1672681	0	0	-125.5331	29.92562
38.27234	0.107583	-0.1672681	0	0	0	0
38.28891	0.1557802	-0.1525403	2.909185	0.8889737	87.79939	26.82928
38.30558	0.1557802	-0.1525403	0	0	-87.53736	-26.74921
38.32204	0.1557802	-0.1525403	0	0	0	0
38.33861	0.1814301	-0.1489026	1.548234	0.2195712	46.87149	6.647335
38.35518	0.1814301	-0.1489026	0	0	-46.72042	-6.625909
38.37175	0.1814301	-0.1489026	0	0	0	0
38.38831	0.1954211	-0.1424956	0.8446928	0.3868177	25.49582	11.67553
38.40488	0.1954211	-0.1424956	0	0	-25.49288	-11.67418
38.42193	0.1954211	-0.1424956	0	0	0	0
38.43801	0.2037891	-0.1360266	0.5203095	0.4022307	15.70297	12.13935
38.45458	0.2037891	-0.1360266	0	0	-15.93598	-12.31947
38.47194	0.2037891	-0.1360266	0	0	0	0
38.48771	0.2041676	-0.1361649	0.0240035	-0.008769692	0.7245105	-0.2647003
38.50428	0.2041676	-0.1361649	0	0	-0.7422003	0.2711633
38.52085	0.2041676	-0.1361649	0	0	0	0
38.53741	0.2078238	-0.1390314	0.2207355	-0.1730643	6.662578	-5.223693
38.55398	0.2078238	-0.1390314	0	0	-6.662578	5.223693
38.5706	0.2078238	-0.1390314	0	0	0	0
38.58712	0.2165503	-0.1459052	0.5284374	-0.4162444	15.94827	-12.56228
38.60368	0.2165503	-0.1459052	0	0	-15.97402	12.58256
38.62039	0.2165503	-0.1459052	0	0	0	0
38.63681	0.2174538	-0.1466195	0.05500138	-0.04348402	1.660136	-1.312501
38.65366	0.2174538	-0.1466195	0	0	-1.653093	1.306934
38.66995	0.2174538	-0.1466195	0	0	0	0
38.68712	0.2174538	-0.1466195	0	0	0	0
38.70308	0.2174538	-0.1466195	0	0	0	0
38.71965	0.2174538	-0.1466195	0	0	0	0
38.73622	0.2174538	-0.1466195	0	0	0	0
38.75297	0.2174538	-0.1466195	0	0	0	0
38.76957	0.2174538	-0.1466195	0	0	0	0
38.78591	0.2174538	-0.1466195	0	0	0	0
38.80248	0.2174538	-0.1466195	0	0	0	0
38.81938	0.2174538	-0.1466195	0	0	0	0
38.83561	0.2174287	-0.1465997	-0.001545975	0.001222826	-0.046663	0.03690922
38.85228	0.2174287	-0.1465997	0	0	0.04698761	-0.03716597
38.8691	0.2174287	-0.1465997	0	0	0	0
38.88531	0.2173785	-0.1465997	-0.003095588	0	-0.09371635	0
38.90188	0.2173785	-0.1465997	0	0	0.09442516	0
38.91845	0.2173785	-0.1465997	0	0	0	0
38.93502	0.2173785	-0.1465997	0	0	0	0
38.95158	0.2173785	-0.1465997	0	0	0	0
38.96853	0.2173785	-0.1465997	0	0	0	0
38.98471	0.2173534	-0.1466195	-0.001550348	-0.001226284	-0.04679497	-0.0370136
39.00129	0.2173534	-0.1466195	0	0	0.04732902	0.03743602
39.01785	0.2173534	-0.1466195	0	0	0	0
39.03442	0.2173283	-0.1466393	-0.001514999	-0.001197425	-0.04572802	-0.03614251
39.05111	0.2173283	-0.1466393	0	0	0.04556016	0.03600984
39.06771	0.2173283	-0.1466393	0	0	0	0
39.08427	0.2173283	-0.146679	0	-0.002397754	0	-0.07229776
39.10069	0.2173283	-0.146679	0	0	0	0.07272436
39.11725	0.2173283	-0.146679	0	0	0	0
39.13382	0.2172028	-0.1467783	-0.007574994	-0.005990723	-0.2286401	-0.1808212
39.15039	0.2172028	-0.1467783	0	0	0.2286138	0.1808004
39.16707	0.2172028	-0.1467783	0	0	0	0
39.18352	0.2149684	-0.1485054	-0.1358715	-0.1050238	-4.101083	-3.169991
39.20009	0.2149684	-0.1485054	0	0	4.115298	3.180979
39.21666	0.2149684	-0.1485054	0	0	0	0
39.23323	0.2148679	-0.1485451	-0.0060635	-0.002396445	-0.1829757	-0.07231652
39.24979	0.2148679	-0.1485451	0	0	0.1830179	0.07233317
39.26635	0.2148679	-0.1485451	0	0	0	0
39.28292	0.2139132	-0.1480685	-0.05764103	0.02877328	-1.73981	0.8684794
39.29979	0.2139132	-0.1480685	0	0	1.72393	-0.8605526
39.31605	0.2139132	-0.1480685	0	0	0	0
39.33261	0.2084284	-0.1444972	-0.3311388	0.2156165	-10.08786	6.568574
39.34919	0.2084284	-0.1444972	0	0	9.993789	-6.50732
39.3659	0.2084284	-0.1444972	0	0	0	0
39.38238	0.1653962	-0.1370542	-2.611259	0.4516529	-78.67208	13.60741
39.39888	0.1653962	-0.1370542	0	0	79.16338	-13.69239
39.41545	0.1653962	-0.1370542	0	0	0	0
39.43202	0.08589341	-0.1287474	-4.798797	0.5013986	-144.828	15.13224
39.44859	0.08589341	-0.1287474	0	0	144.828	-15.13224
39.46527	0.08589341	-0.1287474	0	0	0	0
39.48172	0.01655112	-0.1147816	-4.216577	0.8492342	-127.2712	25.63289
39.49829	0.01655112	-0.1147816	0	0	127.7123	-25.72174
39.51506	0.01655112	-0.1147816	0	0	0	0
39.53142	-0.02536298	-0.1035432	-2.562391	0.6870491	-77.342	20.73757
39.54799	-0.02536298	-0.1035432	0	0	77.8259	-20.86732
39.56455	-0.02536298	-0.1035432	0	0	0	0
39.58112	-0.03989987	-0.09522894	-0.8776503	0.5019671	-26.49059	15.15114
39.59769	-0.03989987	-0.09522894	0	0	26.48754	-15.1494
39.61456	-0.03989987	-0.09522894	0	0	0	0
39.63082	-0.03992614	-0.0952095	-0.001615842	0.001195613	-0.04877182	0.03608783
39.64738	-0.03992614	-0.0952095	0	0	0.04922525	-0.03642334
39.66396	-0.03992614	-0.0952095	0	0	0	0
39.68055	-0.03987359	-0.09524838	0.003165804	-0.002342314	0.09544526	-0.07061799
39.69709	-0.03987359	-0.09524838	0	0	-0.09554416	0.07069116
39.71366	-0.03987359	-0.09524838	0	0	0	0
39.73022	-0.03950575	-0.09552056	0.02220302	-0.0164291	0.6700886	-0.4958311
39.74679	-0.03950575	-0.09552056	0	0	-0.6700886	0.4958311
39.76336	-0.03950575	-0.09552056	0	0	0	0
39.77993	-0.0393481	-0.09563722	0.009515582	-0.007041683	0.2871808	-0.2125184
39.79649	-0.0393481	-0.09563722	0	0	-0.2871808	0.2125184
39.81306	-0.0393481	-0.09563722	0	0	0	0
39.82963	-0.03926928	-0.09569556	0.004758016	-0.003520842	0.1435972	-0.1062592
39.8462	-0.03926928	-0.09569556	0	0	-0.1435972	0.1062592
39.86276	-0.03926928	-0.09569556	0	0	0	0
39.87963	-0.03921673	-0.09573445	0.00311449	-0.002305067	0.09313768	-0.06893219
39.89589	-0.03921673	-0.09573445	0	0	-0.09400633	0.06957508
39.91246	-0.03921673	-0.09573445	0	0	0	0
39.92911	-0.03916417	-0.09577333	0.003156821	-0.002335784	0.09504326	-0.07032406
39.94559	-0.03916417	-0.09577333	0	0	-0.09528401	0.07050221
39.96216	-0.03916417	-0.09577333	0	0	0	0
39.97873	-0.03905907	-0.09585112	0.006343946	-0.004695055	0.1914607	-0.141697
39.99529	-0.03905907	-0.09585112	0	0	-0.1914607	0.141697
40.01241	-0.03905907	-0.09585112	0	0	0	0
40.02842	-0.0390328	-0.09587056	0.001640709	-0.001214306	0.04952239	-0.03665204
40.045	-0.0390328	-0.09587056	0	0	-0.05034554	0.03726127
40.06159	-0.0390328	-0.09587056	0	0	0	0
40.07813	-0.0390328	-0.09587056	0	0	0	0
40.0947	-0.0390328	-0.09587056	0	0	0	0
40.11126	-0.0390328	-0.09587056	0	0	0	0
40.18667	-0.03827078	-0.09643453	0.01010516	-0.007478844	0.1098763	-0.0813196
40.20429	-0.03827078	-0.09643453	0	0	-0.1086237	0.08039259
40.22086	-0.03361891	-0.09987935	0.2807875	-0.2079298	8.213205	-6.082074
40.23743	-0.03361891	-0.09987935	0	0	-8.473207	6.274611
40.25399	-0.03361891	-0.09987935	0	0	0	0
40.27056	-0.02104952	-0.1092051	0.7586897	-0.5629043	22.8973	-16.98849
40.28713	-0.02104952	-0.1092051	0	0	-22.8973	16.98849
40.3037	-0.02104952	-0.1092051	0	0	0	0
40.32026	-0.01999733	-0.1099871	0.06352481	-0.04720832	1.917403	-1.424914
40.33683	-0.01999733	-0.1099871	0	0	-1.917182	1.42475
40.3534	-0.01999733	-0.1099871	0	0	0	0
40.36996	-0.02002364	-0.1099675	-0.001588095	0.001180332	-0.04793432	0.03562658
40.38653	-0.02002364	-0.1099675	0	0	0.04793432	-0.03562658
40.4031	-0.02002364	-0.1099675	0	0	0	0
40.41966	-0.02004994	-0.1099479	-0.001588573	0.001180604	-0.04794876	0.03563479
40.43623	-0.02004994	-0.1099479	0	0	0.04795428	-0.03563889
40.4528	-0.02004994	-0.1099479	0	0	0	0
40.46936	-0.02039191	-0.1096547	-0.02064104	0.01770045	-0.6228762	0.5341391
40.48593	-0.02039191	-0.1096547	0	0	0.6229479	-0.5342006
40.5025	-0.02039191	-0.1096547	0	0	0	0
40.51906	-0.02065496	-0.1094592	-0.01588129	0.01180197	-0.4793533	0.3562251
40.53563	-0.02065496	-0.1094592	0	0	0.4792981	-0.3561841
40.55228	-0.02065496	-0.1094592	0	0	0	0
40.56876	-0.02083909	-0.1093224	-0.01116811	0.0082992	-0.3370929	0.2504992
40.58533	-0.02083909	-0.1093224	0	0	0.337832	-0.2510484
40.60211	-0.02083909	-0.1093224	0	0	0	0
40.61851	-0.02099691	-0.109166	-0.009621639	0.009532158	-0.2900144	0.2873172
40.63504	-0.02099691	-0.109166	0	0	0.2921982	-0.2894808
40.65185	-0.02099691	-0.109166	0	0	0	0
40.66817	-0.02104952	-0.1091269	-0.003223706	0.002395523	-0.09730285	0.07230534
40.68474	-0.02104952	-0.1091269	0	0	0.09801383	-0.07283367
40.70141	-0.02104952	-0.1091269	0	0	0	0
40.71787	-0.02104952	-0.1091269	0	0	0	0
40.73474	-0.02104952	-0.1091269	0	0	0	0
40.7511	-0.02104952	-0.1091269	0	0	0	0
40.76757	-0.02104952	-0.1091269	0	0	0	0
40.78414	-0.02104952	-0.1091269	0	0	0	0
40.8007	-0.02104952	-0.1091269	0	0	0	0
40.81727	-0.02102322	-0.1091465	0.001587729	-0.00117961	0.04791776	-0.0356007
40.83384	-0.02102322	-0.1091465	0	0	-0.04791776	0.0356007
40.85112	-0.02102322	-0.1091465	0	0	0	0
40.86714	-0.02102322	-0.1091465	0	0	0	0
40.88354	-0.02102322	-0.1091465	0	0	0	0
40.90025	-0.02102322	-0.1091465	0	0	0	0
40.91667	-0.02102322	-0.1091465	0	0	0	0
40.93324	-0.02102322	-0.1091465	0	0	0	0
40.94981	-0.02102322	-0.1091465	0	0	0	0
