Time	Pos X	Pos Y	Vel X	Vel Y	Acc X	Acc Y
0.01697728	-0.05969216	-0.194034	0.0009367263	0.003044901	-1.470351E-05	-4.77949E-05
0.03312992	-0.05969216	-0.194034	0	0	1.470342E-05	4.779459E-05
0.04984666	-0.05969216	-0.194034	0	0	0	0
0.06626339	-0.05958727	-0.1938719	0.00638917	0.00987376	0.1928313	0.2979996
0.08285696	-0.05958727	-0.1938719	0	0	-0.1935508	-0.2991115
0.0998299	-0.05958727	-0.1938719	0	0	0	0
0.115966	-0.0595086	-0.1938111	0.004875228	0.003766833	0.1472478	0.1137707
0.1328848	-0.0595086	-0.1938111	0	0	-0.1474887	-0.1139568
0.1490971	-0.0595086	-0.1938111	0	0	0	0
0.165916	-0.05924637	-0.1936085	0.01559135	0.01204568	0.4720184	0.3646757
0.1822301	-0.05924637	-0.1936085	0	0	-0.4705675	-0.3635547
0.1987992	-0.05924637	-0.1936085	0	0	0	0
0.2154576	-0.05898413	-0.1934464	0.01574239	0.009728773	0.473777	0.2927935
0.2319327	-0.05898413	-0.1934464	0	0	-0.4751204	-0.2936237
0.2485409	-0.05898413	-0.1934464	0	0	0	0
0.2650634	-0.05872189	-0.1933249	0.01587201	0.007355653	0.4790729	0.2220193
0.2816329	-0.05872189	-0.1933249	0	0	-0.4796329	-0.2222788
0.2984448	-0.05872189	-0.1933249	0	0	0	0
0.314766	-0.05864321	-0.1933451	0.004820615	-0.00124076	0.1454926	-0.03744781
0.3313331	-0.05864321	-0.1933451	0	0	-0.1465753	0.03772647
0.347899	-0.05864321	-0.1933451	0	0	0	0
0.364664	-0.05762036	-0.1925148	0.06101132	0.0495283	1.830476	1.485959
0.3810298	-0.05762036	-0.1925148	0	0	-1.841534	-1.494936
0.3975993	-0.05762036	-0.1925148	0	0	0	0
0.4141628	-0.04050415	-0.179594	1.033365	0.7800717	31.18834	23.54361
0.4307386	-0.04050415	-0.179594	0	0	-31.18239	-23.53912
0.4472995	-0.04050415	-0.179594	0	0	0	0
0.4638634	-0.020918	-0.1698121	1.182454	0.5905532	35.69694	17.82813
0.4804329	-0.020918	-0.1698121	0	0	-35.6876	-17.82346
0.4969993	-0.020918	-0.1698121	0	0	0	0
0.513566	-0.01563031	-0.1663074	0.319175	0.2115534	9.63312	6.384959
0.5301324	-0.01563031	-0.1663074	0	0	-9.63312	-6.384959
0.5466995	-0.01563031	-0.1663074	0	0	0	0
0.5632662	-0.01557769	-0.1663474	0.003176224	-0.002415954	0.09586037	-0.07291496
0.5798321	-0.01557769	-0.1663474	0	0	-0.09586382	0.07291758
0.5963992	-0.01557769	-0.1663474	0	0	0	0
0.6129628	-0.015604	-0.1664074	-0.001588415	-0.003624623	-0.04794389	-0.1094037
0.6295328	-0.015604	-0.1664074	0	0	0.04793984	0.1093945
0.6460995	-0.015604	-0.1664074	0	0	0	0
0.6626663	-0.01563031	-0.1663874	-0.001588112	0.001207977	-0.0479307	0.03645787
0.6792326	-0.01563031	-0.1663874	0	0	0.04793131	-0.03645833
0.6958479	-0.01563031	-0.1663874	0	0	0	0
0.7123649	-0.015604	-0.1664074	0.001592898	-0.001211617	0.04807694	-0.03656911
0.7290303	-0.015604	-0.1664074	0	0	-0.04800431	0.03651387
0.7459933	-0.015604	-0.1664074	0	0	0	0
0.762262	-0.015604	-0.1664074	0	0	0	0
0.7786325	-0.015604	-0.1664074	0	0	0	0
0.7951993	-0.015604	-0.1664074	0	0	0	0
0.8117632	-0.015604	-0.1664074	0	0	0	0
0.8283331	-0.015604	-0.1664074	0	0	0	0
0.8448995	-0.015604	-0.1664074	0	0	0	0
0.8614666	-0.01555138	-0.1664875	0.0031761	-0.004831804	0.09585781	-0.1458286
0.8781146	-0.01555138	-0.1664875	0	0	-0.09562197	0.1454698
0.8950616	-0.01555138	-0.1664875	0	0	0	0
0.9111633	-0.01165737	-0.1694514	0.2418383	-0.1840745	7.317649	-5.569807
0.9278322	-0.01165737	-0.1694514	0	0	-7.379712	5.617046
0.9442991	-0.01165737	-0.1694514	0	0	0	0
0.9609341	-0.001447367	-0.1772401	0.6137661	-0.4682108	18.54174	-14.14455
0.9774325	-0.001447367	-0.1772401	0	0	-18.52406	14.13106
0.9939997	-0.001447367	-0.1772401	0	0	0	0
1.010564	-0.001578946	-0.1771395	-0.007943504	0.006069564	-0.2397574	0.1831966
1.027133	-0.001578946	-0.1771395	0	0	0.2397462	-0.183188
1.044741	-0.001578946	-0.1771395	0	0	0	0
1.060437	-0.001631577	-0.1770993	-0.003353117	0.002562277	-0.1006811	0.07693525
1.076832	-0.001631577	-0.1770993	0	0	0.1044869	-0.07984345
1.093401	-0.001631577	-0.1770993	0	0	0	0
1.109963	-0.001842103	-0.1769385	-0.01271138	0.009712486	-0.3836689	0.2931529
1.126531	-0.001842103	-0.1769385	0	0	0.3836786	-0.2931603
1.143098	-0.001842103	-0.1769385	0	0	0	0
1.159663	-0.001973682	-0.1767977	-0.007943289	0.008495556	-0.2397505	0.2564195
1.17623	-0.001973682	-0.1767977	0	0	0.2397479	-0.2564167
1.192797	-0.001973682	-0.1767977	0	0	0	0
1.209365	-0.002026313	-0.1767575	-0.00317679	0.002427543	-0.09587433	0.07326233
1.226119	-0.002026313	-0.1767575	0	0	0.09533686	-0.07285162
1.242498	-0.002026313	-0.1767575	0	0	0	0
1.259283	-0.002157891	-0.176657	-0.007839036	0.005987976	-0.23637	0.1805551
1.275631	-0.002157891	-0.176657	0	0	0.2365928	-0.1807253
1.292244	-0.002157891	-0.176657	0	0	0	0
1.308765	-0.002368417	-0.176456	-0.01274263	0.012168	-0.3845802	0.3672375
1.325336	-0.002368417	-0.176456	0	0	0.3850665	-0.3677019
1.341902	-0.002368417	-0.176456	0	0	0	0
1.358486	-0.002421048	-0.1764158	-0.003173684	0.002424271	-0.09573686	0.07313018
1.375034	-0.002421048	-0.1764158	0	0	0.09578956	-0.07317043
1.392004	-0.002421048	-0.1764158	0	0	0	0
1.408164	-0.002473679	-0.1763756	-0.003256851	0.00248781	-0.09830645	0.07509333
1.424737	-0.002473679	-0.1763756	0	0	0.09949578	-0.07600182
1.441304	-0.002473679	-0.1763756	0	0	0	0
1.458343	-0.002473679	-0.1763756	0	0	0	0
1.474435	-0.002473679	-0.1763756	0	0	0	0
1.491547	-0.002473679	-0.1763756	0	0	0	0
1.507564	-0.002473679	-0.1763756	0	0	0	0
1.524136	-0.002473679	-0.1763756	0	0	0	0
1.540705	-0.002473679	-0.1763756	0	0	0	0
1.557275	-0.002447363	-0.1763957	0.001588121	-0.001213112	0.04792302	-0.03660679
1.573946	-0.002447363	-0.1763957	0	0	-0.04777677	0.03649507
1.590403	-0.002447363	-0.1763957	0	0	0	0
1.608097	-0.002447363	-0.1764359	0	-0.002272222	0	-0.06653418
1.624669	-0.002447363	-0.1764359	0	0	0	0.06631105
1.641236	-0.002447363	-0.1764359	0	0	0	0
1.657798	-0.002421048	-0.176456	0.001588907	-0.001213723	0.0479621	-0.03663696
1.674371	-0.002421048	-0.176456	0	0	-0.04795296	0.03662997
1.690938	-0.002421048	-0.176456	0	0	0	0
1.713119	-0.002447363	-0.1764359	-0.00118642	0.0009062742	-0.03061884	0.02338891
1.729688	-0.002447363	-0.1764359	0	0	0.03061696	-0.02338747
1.746253	-0.002447363	-0.1764359	0	0	0	0
1.762823	-0.002447363	-0.1764359	0	0	0	0
1.779389	-0.002447363	-0.1764359	0	0	0	0
1.795956	-0.002473679	-0.1764158	-0.001588429	0.001213348	-0.04794148	0.03662089
1.812522	-0.002473679	-0.1764158	0	0	0.04794096	-0.03662049
1.829089	-0.002473679	-0.1764158	0	0	0	0
1.845652	-0.002499995	-0.1763957	-0.001588772	0.00121361	-0.04795476	0.03663103
1.866452	-0.002499995	-0.1763957	0	0	0.04252187	-0.03248103
1.883025	-0.002499995	-0.1763957	0	0	0	0
1.903862	-0.002499995	-0.1763957	0	0	0	0
1.920429	-0.002499995	-0.1763957	0	0	0	0
1.936995	-0.002499995	-0.1763957	0	0	0	0
1.953565	-0.002499995	-0.1763957	0	0	0	0
1.970492	-0.002499995	-0.1763957	0	0	0	0
1.987084	-0.002526311	-0.1763756	-0.00158601	0.0012115	-0.04731653	0.03614351
2.003505	-0.002526311	-0.1763756	0	0	0.04804078	-0.03669674
2.019835	-0.002526311	-0.1763756	0	0	0	0
2.036396	-0.002526311	-0.1763756	0	0	0	0
2.052964	-0.002526311	-0.1763756	0	0	0	0
2.069532	-0.002526311	-0.1763756	0	0	0	0
2.086155	-0.002526311	-0.1763756	0	0	0	0
2.102827	-0.002526311	-0.1763756	0	0	0	0
2.119231	-0.002526311	-0.1763756	0	0	0	0
2.135797	-0.002526311	-0.1763756	0	0	0	0
2.152406	-0.002526311	-0.1763756	0	0	0	0
2.168931	-0.002526311	-0.1763756	0	0	0	0
2.1855	-0.002526311	-0.1763756	0	0	0	0
2.202067	-0.002526311	-0.1763756	0	0	0	0
2.218632	-0.002526311	-0.1763756	0	0	0	0
2.235195	-0.002526311	-0.1763756	0	0	0	0
2.251765	-0.002526311	-0.1763756	0	0	0	0
2.268332	-0.002526311	-0.1763756	0	0	0	0
2.285148	-0.002526311	-0.1763756	0	0	0	0
2.301938	-0.002526311	-0.1763756	0	0	0	0
2.319052	-0.002526311	-0.1763756	0	0	0	0
2.334594	-0.002526311	-0.1763756	0	0	0	0
2.351165	-0.002526311	-0.1763756	0	0	0	0
2.36773	-0.002526311	-0.1763756	0	0	0	0
2.384298	-0.002526311	-0.1763756	0	0	0	0
2.401048	-0.002526311	-0.1763756	0	0	0	0
2.417432	-0.002526311	-0.1763756	0	0	0	0
2.433996	-0.002526311	-0.1763756	0	0	0	0
2.450565	-0.002526311	-0.1763756	0	0	0	0
2.467132	-0.002526311	-0.1763756	0	0	0	0
2.483724	-0.002526311	-0.1763756	0	0	0	0
2.500266	-0.002526311	-0.1763756	0	0	0	0
2.516832	-0.002526311	-0.1763756	0	0	0	0
2.533399	-0.002526311	-0.1763756	0	0	0	0
2.549965	-0.002526311	-0.1763756	0	0	0	0
2.566532	-0.002526311	-0.1763756	0	0	0	0
2.583096	-0.002526311	-0.1763756	0	0	0	0
2.599665	-0.002526311	-0.1763756	0	0	0	0
2.616579	-0.002526311	-0.1763756	0	0	0	0
2.632796	-0.002526311	-0.1763756	0	0	0	0
2.649366	-0.002526311	-0.1763756	0	0	0	0
2.665933	-0.002526311	-0.1763756	0	0	0	0
2.682497	-0.002526311	-0.1763756	0	0	0	0
2.699066	-0.002526311	-0.1763756	0	0	0	0
2.715632	-0.002526311	-0.1763756	0	0	0	0
2.7322	-0.002526311	-0.1763756	0	0	0	0
2.748766	-0.002526311	-0.1763756	0	0	0	0
2.765528	-0.002526311	-0.1763756	0	0	0	0
2.781896	-0.002526311	-0.1763756	0	0	0	0
2.798468	-0.002526311	-0.1763756	0	0	0	0
2.815033	-0.002526311	-0.1763756	0	0	0	0
2.831597	-0.002552626	-0.1763555	-0.001588724	0.001213584	-0.04795606	0.03663235
2.848166	-0.002552626	-0.1763555	0	0	0.04794916	-0.03662708
2.864951	-0.002552626	-0.1763555	0	0	0	0
2.881297	-0.006868313	-0.1727001	-0.2640252	0.2236286	-7.969272	6.749949
2.897866	-0.006868313	-0.1727001	0	0	8.021339	-6.79405
2.914837	-0.006868313	-0.1727001	0	0	0	0
2.930997	-0.02183863	-0.1268177	-0.9263942	2.839294	-27.96185	85.69993
2.947565	-0.02183863	-0.1268177	0	0	28.3061	-86.75502
2.964133	-0.02183863	-0.1268177	0	0	0	0
2.980697	-0.006473594	-0.05330813	0.9276359	4.438007	27.99812	133.949
2.997362	-0.006473594	-0.05330813	0	0	-27.91676	-133.5597
3.013833	-0.006473594	-0.05330813	0	0	0	0
3.031504	0.007605116	0.003735217	0.7967186	3.228101	23.33543	94.54922
3.0481	0.007605116	0.003735217	0	0	-23.25068	-94.20582
3.06464	0.007605116	0.003735217	0	0	0	0
3.081207	0.001578946	0.02396296	-0.3637613	1.221019	-10.98743	36.88095
3.097771	0.001578946	0.02396296	0	0	10.97944	-36.85415
3.114342	0.001578946	0.02396296	0	0	0	0
3.130905	-0.003947348	0.02788627	-0.3336398	0.2368625	-10.06941	7.148627
3.147472	-0.003947348	0.02788627	0	0	10.07065	-7.149501
3.164041	-0.003947348	0.02788627	0	0	0	0
3.180608	-0.004868383	0.02857707	-0.05559536	0.04169826	-1.677799	1.258402
3.197175	-0.004868383	0.02857707	0	0	1.677896	-1.258474
3.272401	-0.004868383	0.02857707	0	0	0	0
3.293567	0.01268353	0.04323997	0.829219	0.6927311	8.602514	7.186556
3.310138	0.01268353	0.04323997	0	0	-21.97314	-18.3564
3.326705	0.01352549	0.04413242	0.05082375	0.05387099	1.533731	1.625689
3.343271	0.01352549	0.04413242	0	0	-1.533963	-1.625935
3.359838	0.01352549	0.04413242	0	0	0	0
3.376402	0.01336762	0.04431831	-0.009530713	0.01122317	-0.2876644	0.3387477
3.392971	0.01336762	0.04431831	0	0	0.2876561	-0.338738
3.409648	0.01336762	0.04431831	0	0	0	0
3.426104	0.003526301	0.05126446	-0.598034	0.4221009	-18.04922	12.7394
3.442672	0.003526301	0.05126446	0	0	18.10929	-12.7818
3.459238	0.003526301	0.05126446	0	0	0	0
3.475805	-0.0006842104	0.05423226	-0.254147	0.1791368	-7.670447	5.406555
3.492371	-0.0006842104	0.05423226	0	0	7.670447	-5.406555
3.508938	-0.0006842104	0.05423226	0	0	0	0
3.525504	-0.0006578946	0.05421372	0.001588471	-0.001119155	0.04794152	-0.03377715
3.542072	-0.0006578946	0.05421372	0	0	-0.04794082	0.03377666
3.558638	-0.0006578946	0.05421372	0	0	0	0
3.575203	-0.0007105262	0.05425081	-0.003177395	0.002238858	-0.09590363	0.06757566
3.592019	-0.0007105262	0.05425081	0	0	0.09518781	-0.06707128
3.608336	-0.0007105262	0.05425081	0	0	0	0
3.624905	-0.004026294	0.05721635	-0.2001258	0.1789875	-6.085434	5.44266
3.641469	-0.004026294	0.05721635	0	0	6.040112	-5.402124
3.658042	-0.004026294	0.05721635	0	0	0	0
3.674607	-0.0241269	0.07728749	-1.213449	1.211671	-36.61829	36.56462
3.691176	-0.0241269	0.07728749	0	0	36.62251	-36.56882
3.707742	-0.0241269	0.07728749	0	0	0	0
3.724365	-0.01060487	0.1171897	0.8134404	2.400385	24.50912	72.32407
3.740945	-0.01060487	0.1171897	0	0	-24.49891	-72.29395
3.757437	-0.01060487	0.1171897	0	0	0	0
3.774004	-0.004394709	0.1377999	0.3748296	1.243981	11.33808	37.62872
3.790577	-0.004394709	0.1377999	0	0	-11.31027	-37.53641
3.807142	-0.004394709	0.1377999	0	0	0	0
3.823704	-0.006526223	0.1400748	-0.1286955	0.1373546	-3.884933	4.146325
3.840373	-0.006526223	0.1400748	0	0	3.872752	-4.133325
3.85749	-0.006526223	0.1400748	0	0	0	0
3.873525	-0.006526223	0.1400385	0	-0.002269382	0	-0.06845362
3.889977	-0.006526223	0.1400385	0	0	0	0.06985628
3.906543	-0.006526223	0.1400385	0	0	0	0
3.923104	-0.006499908	0.1400203	0.001588965	-0.001098638	0.04796506	-0.03316388
3.9398	-0.006499908	0.1400203	0	0	-0.04777903	0.03303526
3.956266	-0.006499908	0.1400203	0	0	0	0
3.97286	-0.006447279	0.1399839	0.003171611	-0.002192888	0.09593479	-0.0663304
3.989602	-0.006447279	0.1399839	0	0	-0.09514094	0.06578153
4.005942	-0.006447279	0.1399839	0	0	0	0
4.022503	-0.006473594	0.1400021	-0.00158897	0.001098622	-0.04829543	0.03339171
4.039263	-0.006473594	0.1400021	0	0	0.0476862	-0.03297049
4.055638	-0.006473594	0.1400021	0	0	0	0
4.072202	-0.006473594	0.1400021	0	0	0	0
4.089573	-0.006473594	0.1400021	0	0	0	0
4.105339	-0.006473594	0.1400021	0	0	0	0
4.121902	-0.006447279	0.1399839	0.001588741	-0.001098464	0.04914352	-0.03397809
4.138472	-0.006447279	0.1399839	0	0	-0.04794969	0.03315267
4.155713	-0.006447279	0.1399839	0	0	0	0
4.171602	-0.006473594	0.1399657	-0.001656159	-0.001145077	-0.04998945	-0.03456296
4.188172	-0.006473594	0.1399657	0	0	0.05102344	0.03527787
4.204739	-0.006473594	0.1399657	0	0	0	0
4.221303	-0.006473594	0.1399657	0	0	0	0
4.237872	-0.006473594	0.1399657	0	0	0	0
4.254439	-0.006473594	0.1399657	0	0	0	0
4.271047	-0.006473594	0.1398565	0	-0.006574084	0	-0.1981638
4.287572	-0.006473594	0.1398565	0	0	0	0.1984148
4.304139	-0.006473594	0.1398565	0	0	0	0
4.320704	-0.006499908	0.1398019	-0.001588622	-0.003295203	-0.04794953	-0.09945943
4.337272	-0.006499908	0.1398019	0	0	0.04794677	0.09945371
4.354234	-0.006499908	0.1398019	0	0	0	0
4.370405	-0.00639465	0.1395836	0.006509101	-0.0135033	0.1964536	-0.4075481
4.386972	-0.00639465	0.1395836	0	0	-0.1988257	0.4124691
4.404018	-0.00639465	0.1395836	0	0	0	0
4.420103	-0.006236761	0.1391832	0.009816086	-0.02489105	0.2962799	-0.7512891
4.436673	-0.006236761	0.1391832	0	0	-0.3006064	0.7622599
4.453239	-0.006236761	0.1391832	0	0	0	0
4.469806	-0.005684149	0.1384734	0.03335668	-0.04284406	1.00675	-1.293092
4.48639	-0.005684149	0.1384734	0	0	-1.0062	1.292385
4.502939	-0.005684149	0.1384734	0	0	0	0
4.519506	-0.003868402	0.1372174	0.1096019	-0.07581563	3.309649	-2.289405
4.536425	-0.003868402	0.1372174	0	0	-3.273124	2.264139
4.552639	-0.003868402	0.1372174	0	0	0	0
4.569316	-0.003868402	0.137181	0	-0.002182934	0	-0.06636818
4.585773	-0.003868402	0.137181	0	0	0	0.06588392
4.602339	-0.003868402	0.137181	0	0	0	0
4.618903	-0.005184164	0.1344859	-0.07943787	-0.162713	-2.39775	-4.911325
4.635472	-0.005184164	0.1344859	0	0	2.397543	4.910901
4.652039	-0.005184164	0.1344859	0	0	0	0
4.668603	0.004710491	0.0881883	0.597363	-2.795092	18.03053	-84.36575
4.685173	0.004710491	0.0881883	0	0	-18.02897	84.35847
4.701743	0.004710491	0.0881883	0	0	0	0
4.72492	0.0005	0.05150568	-0.1816656	-1.582706	-4.570467	-39.8188
4.741488	0.0005	0.05150568	0	0	4.570742	39.82119
4.758054	-0.003894717	0.04439267	-0.2652886	-0.4293792	-8.00654	-12.95888
4.774853	-0.003894717	0.04439267	0	0	7.951271	12.86942
4.791187	-0.003894717	0.04439267	0	0	0	0
4.807754	-0.007789316	-0.004340635	-0.2350852	-2.941633	-7.145168	-89.40783
4.824526	-0.007789316	-0.004340635	0	0	7.051454	88.23518
4.840887	-0.007789316	-0.004340635	0	0	0	0
4.857453	0.002973675	-0.05865558	0.6496742	-3.278551	19.73044	-99.56873
4.874022	0.002973675	-0.05865558	0	0	-19.60664	98.94402
4.890587	0.002973675	-0.05865558	0	0	0	0
4.907156	-0.0009210524	-0.11345	-0.2350727	-3.307205	-7.094713	-99.81451
4.923721	-0.0009210524	-0.11345	0	0	7.094713	99.81451
4.9404	-0.0009210524	-0.11345	0	0	0	0
4.956855	-0.006157817	-0.1364415	-0.318235	-1.397184	-9.604353	-42.1671
4.973421	-0.006157817	-0.1364415	0	0	9.637222	42.31141
4.989989	-0.006157817	-0.1364415	0	0	0	0
5.006555	-0.005868354	-0.1362242	0.01747403	0.01312068	0.5273825	0.3959944
5.023122	-0.005868354	-0.1362242	0	0	-0.5273977	-0.3960057
5.039693	-0.005868354	-0.1362242	0	0	0	0
5.056599	-0.005894668	-0.136323	-0.001556495	-0.005843675	-0.04649405	-0.1745563
5.072823	-0.005894668	-0.136323	0	0	0.04698121	0.1763853
5.089388	-0.005894668	-0.136323	0	0	0	0
5.105962	-0.005894668	-0.1364415	0	-0.007153235	0	-0.2158571
5.12253	-0.005894668	-0.1364415	0	0	0	0.2158416
5.139367	-0.005894668	-0.1364415	0	0	0	0
5.15566	-0.005894668	-0.1364415	0	0	0	0
5.172227	-0.005894668	-0.1364415	0	0	0	0
5.188958	-0.005894668	-0.1364415	0	0	0	0
5.205354	-0.005868354	-0.1364613	0.001604931	-0.001205104	0.04844806	-0.03637848
5.221923	-0.005868354	-0.1364613	0	0	-0.04868634	0.0365574
5.238952	-0.005868354	-0.1364613	0	0	0	0
5.255392	-0.005894668	-0.1364415	-0.001600695	0.001201923	-0.04782658	0.03591183
5.271624	-0.005894668	-0.1364415	0	0	0.04899368	-0.03678818
5.288262	-0.005894668	-0.1364415	0	0	0	0
5.305188	-0.005894668	-0.1364415	0	0	0	0
5.321336	-0.005894668	-0.1364415	0	0	0	0
5.33789	-0.005894668	-0.1364415	0	0	0	0
5.354456	-0.005868354	-0.1364613	0.001588439	-0.001192721	0.04796058	-0.03601244
5.371024	-0.005868354	-0.1364613	0	0	-0.04793987	0.0359969
5.38759	-0.005868354	-0.1364613	0	0	0	0
5.404154	-0.005947298	-0.136402	-0.004765922	0.003578574	-0.1438524	0.108014
5.420721	-0.005947298	-0.136402	0	0	0.1438524	-0.108014
5.43729	-0.005947298	-0.136402	0	0	0	0
5.453853	-0.005920983	-0.1364218	0.001588741	-0.001192927	0.04795107	-0.03600467
5.470423	-0.005920983	-0.1364218	0	0	-0.04794969	0.03600363
5.486994	-0.005920983	-0.1364218	0	0	0	0
5.511808	-0.005920983	-0.1364218	0	0	0	0
5.528379	-0.005920983	-0.1364218	0	0	0	0
5.545046	-0.005894668	-0.1364415	0.001578878	-0.001185521	0.04750161	-0.03566718
5.561512	-0.005894668	-0.1364415	0	0	-0.04765406	0.03578166
5.578078	-0.005894668	-0.1364415	0	0	0	0
5.594643	-0.005894668	-0.1364415	0	0	0	0
5.611211	-0.005894668	-0.1364415	0	0	0	0
5.627778	-0.005894668	-0.1364415	0	0	0	0
5.644342	-0.005920983	-0.1364218	-0.00158865	0.001192858	-0.04795038	0.03600415
5.661221	-0.005920983	-0.1364218	0	0	0.04750393	-0.03566893
5.677844	-0.005920983	-0.1364218	0	0	0	0
5.694045	-0.005947298	-0.136402	-0.00162428	0.001219611	-0.04948445	0.03715603
5.710777	-0.005947298	-0.136402	0	0	0.04931966	-0.0370323
5.727176	-0.005947298	-0.136402	0	0	0	0
5.743742	-0.005999928	-0.1363625	-0.003176815	0.002385373	-0.09636878	0.07236036
5.760312	-0.005999928	-0.1363625	0	0	0.09587232	-0.07198758
5.776878	-0.005999928	-0.1363625	0	0	0	0
5.793507	-0.005973613	-0.1363823	0.001582472	-0.00118824	0.04767129	-0.03579522
5.810012	-0.005973613	-0.1363823	0	0	-0.04776048	0.03586219
5.826579	-0.005973613	-0.1363823	0	0	0	0
5.843384	-0.005999928	-0.1363625	-0.001565858	0.001175765	-0.04692143	0.03523217
5.859713	-0.005999928	-0.1363625	0	0	0.0472577	-0.03548467
5.876279	-0.005999928	-0.1363625	0	0	0	0
5.892843	-0.005973613	-0.1363823	0.001588622	-0.001192858	0.04795091	-0.03600519
5.909411	-0.005973613	-0.1363823	0	0	-0.04794746	0.0360026
5.925979	-0.005973613	-0.1363823	0	0	0	0
5.942544	-0.005973613	-0.1363823	0	0	0	0
5.959246	-0.005973613	-0.1363823	0	0	0	0
5.975681	-0.005973613	-0.1363823	0	0	0	0
5.992242	-0.005973613	-0.1363823	0	0	0	0
6.00881	-0.005973613	-0.1363823	0	0	0	0
6.025757	-0.005973613	-0.1363823	0	0	0	0
6.041945	-0.005973613	-0.1363823	0	0	0	0
6.058604	-0.005973613	-0.1363823	0	0	0	0
6.075078	-0.005973613	-0.1363823	0	0	0	0
6.091643	-0.005973613	-0.1363823	0	0	0	0
6.108212	-0.005973613	-0.1363823	0	0	0	0
6.124777	-0.005973613	-0.1363823	0	0	0	0
6.141343	-0.005973613	-0.1363823	0	0	0	0
6.15791	-0.005973613	-0.1363823	0	0	0	0
6.174479	-0.005973613	-0.1363823	0	0	0	0
6.191043	-0.005973613	-0.1363823	0	0	0	0
6.207612	-0.005973613	-0.1363823	0	0	0	0
6.224231	-0.005973613	-0.1363823	0	0	0	0
6.240743	-0.005973613	-0.1363823	0	0	0	0
6.257312	-0.005973613	-0.1363823	0	0	0	0
6.273885	-0.005973613	-0.1363823	0	0	0	0
6.290444	-0.005973613	-0.1363823	0	0	0	0
6.307045	-0.005973613	-0.1363823	0	0	0	0
6.323579	-0.005973613	-0.1363823	0	0	0	0
6.340144	-0.005973613	-0.1363823	0	0	0	0
6.356715	-0.005973613	-0.1363823	0	0	0	0
6.373283	-0.005973613	-0.1363823	0	0	0	0
6.392744	-0.005973613	-0.1363823	0	0	0	0
6.409314	-0.005973613	-0.1363823	0	0	0	0
6.425881	-0.005973613	-0.1363823	0	0	0	0
6.442579	-0.005973613	-0.1363823	0	0	0	0
6.459014	-0.005973613	-0.1363823	0	0	0	0
6.475859	-0.005973613	-0.1363823	0	0	0	0
6.492145	-0.005973613	-0.1363823	0	0	0	0
6.508714	-0.005973613	-0.1363823	0	0	0	0
6.52528	-0.005973613	-0.1363823	0	0	0	0
6.541847	-0.005973613	-0.1363823	0	0	0	0
6.558414	-0.005973613	-0.1363823	0	0	0	0
6.574981	-0.005973613	-0.1363823	0	0	0	0
6.591545	-0.005999928	-0.1363625	-0.001588622	0.001192858	-0.04794884	0.03600363
6.60813	-0.005999928	-0.1363625	0	0	0.04792401	-0.03598499
6.62468	-0.005999928	-0.1363625	0	0	0	0
6.641247	-0.005999928	-0.1363625	0	0	0	0
6.657814	-0.005999928	-0.1363625	0	0	0	0
6.67438	-0.005999928	-0.1363625	0	0	0	0
6.690945	-0.005999928	-0.1363625	0	0	0	0
6.70751	-0.005999928	-0.1363625	0	0	0	0
6.724081	-0.005999928	-0.1363625	0	0	0	0
6.74084	-0.005999928	-0.1363625	0	0	0	0
6.757214	-0.005999928	-0.1363625	0	0	0	0
6.773785	-0.005999928	-0.1363625	0	0	0	0
6.790345	-0.005999928	-0.1363625	0	0	0	0
6.807003	-0.005999928	-0.1363625	0	0	0	0
6.823883	-0.005999928	-0.1363625	0	0	0	0
6.840163	-0.005999928	-0.1363625	0	0	0	0
6.856619	-0.005999928	-0.1363625	0	0	0	0
6.87322	-0.005999928	-0.1363625	0	0	0	0
6.889747	-0.005999928	-0.1363625	0	0	0	0
6.906553	-0.005999928	-0.1363625	0	0	0	0
6.922883	-0.005999928	-0.1363625	0	0	0	0
6.939445	-0.006026243	-0.1363427	-0.001588787	0.001192961	-0.04830211	0.03626826
6.956018	-0.006026243	-0.1363427	0	0	0.04794762	-0.03600208
6.972612	-0.006026243	-0.1363427	0	0	0	0
6.989145	-0.006236761	-0.1361451	-0.01273294	0.01195094	-0.3843694	0.3607632
7.005711	-0.006236761	-0.1361451	0	0	0.3846906	-0.3610646
7.022876	-0.006236761	-0.1361451	0	0	0	0
7.038874	-0.008657678	-0.1341702	-0.1513273	0.1234491	-4.563192	3.722542
7.055418	-0.008657678	-0.1341702	0	0	4.650182	-3.793506
7.072423	-0.008657678	-0.1341702	0	0	0	0
7.088545	-0.024574	-0.1215485	-0.9872799	0.7829184	-29.80303	23.63397
7.105118	-0.024574	-0.1215485	0	0	30.19727	-23.9466
7.121806	-0.024574	-0.1215485	0	0	0	0
7.138245	-0.03624728	-0.1126082	-0.7100981	0.5438447	-21.43574	16.41705
7.154815	-0.03624728	-0.1126082	0	0	21.51222	-16.47562
7.171381	-0.03624728	-0.1126082	0	0	0	0
7.187944	-0.03798173	-0.1111995	-0.1047188	0.0850538	-3.160919	2.567335
7.204681	-0.03798173	-0.1111995	0	0	3.14467	-2.554137
7.221081	-0.03798173	-0.1111995	0	0	0	0
7.238131	-0.03792917	-0.1111995	0.003082438	0	0.09215159	0
7.254213	-0.03792917	-0.1111995	0	0	-0.09303353	0
7.27078	-0.03792917	-0.1111995	0	0	0	0
7.287347	-0.03790289	-0.1112191	0.001586155	-0.001180959	0.04787095	-0.03564193
7.362639	-0.03790289	-0.1112191	0	0	-0.01726731	0.01285624
7.379206	-0.03790289	-0.1112191	0	0	0	0
7.395772	-0.03782406	-0.1112778	0.004759013	-0.003542386	0.1436356	-0.1069156
7.412342	-0.03782406	-0.1112778	0	0	-0.1436232	0.1069064
7.428908	-0.03782406	-0.1112778	0	0	0	0
7.445473	-0.03782406	-0.1113169	0	-0.002361877	0	-0.07128876
7.462042	-0.03782406	-0.1113169	0	0	0	0.07128363
7.478608	-0.03782406	-0.1113169	0	0	0	0
7.495175	-0.03771894	-0.1113951	0.006344438	-0.004722802	0.191481	-0.1425385
7.511742	-0.03771894	-0.1113951	0	0	-0.1914783	0.1425365
7.528309	-0.03771894	-0.1113951	0	0	0	0
7.544873	-0.03756127	-0.1115516	0.009519074	-0.009448228	0.2873152	-0.2851768
7.561441	-0.03756127	-0.1115516	0	0	-0.2873028	0.2851645
7.578009	-0.03756127	-0.1115516	0	0	0	0
7.594759	-0.03721965	-0.1118451	0.02039447	-0.01751936	0.612115	-0.5258219
7.611375	-0.03721965	-0.1118451	0	0	-0.6112227	0.5250554
7.627803	-0.03721965	-0.1118451	0	0	0	0
7.644359	-0.03724593	-0.1118255	-0.001587252	0.001181776	-0.04812219	0.03582899
7.660841	-0.03724593	-0.1118255	0	0	0.04804301	-0.03577004
7.677762	-0.03724593	-0.1118255	0	0	0	0
7.694004	-0.03721965	-0.1118451	0.001617914	-0.001204605	0.04878731	-0.03632421
7.710544	-0.03721965	-0.1118451	0	0	-0.04935432	0.03674637
7.736386	-0.03721965	-0.1118451	0	0	0	0
7.752953	-0.03721965	-0.1118451	0	0	0	0
7.769604	-0.03721965	-0.1118451	0	0	0	0
7.786823	-0.03721965	-0.1118451	0	0	0	0
7.802653	-0.03721965	-0.1118451	0	0	0	0
7.81922	-0.03721965	-0.1118451	0	0	0	0
7.835786	-0.03721965	-0.1118451	0	0	0	0
7.852353	-0.03721965	-0.1118451	0	0	0	0
7.86892	-0.03721965	-0.1118451	0	0	0	0
7.885488	-0.03721965	-0.1118451	0	0	0	0
7.902057	-0.03695685	-0.1120407	0.01586062	-0.01180868	0.4786402	-0.3563611
7.918623	-0.03695685	-0.1120407	0	0	-0.4786539	0.3563714
7.935189	-0.03695685	-0.1120407	0	0	0	0
7.951757	-0.03643124	-0.1124321	0.03172489	-0.02362255	0.9574866	-0.7129506
7.968377	-0.03643124	-0.1124321	0	0	-0.955932	0.7117931
7.98489	-0.03643124	-0.1124321	0	0	0	0
8.00147	-0.03566908	-0.1129997	0.04596862	-0.03423291	1.389075	-1.034446
8.018023	-0.03566908	-0.1129997	0	0	-1.387396	1.033196
8.034852	-0.03566908	-0.1129997	0	0	0	0
8.051156	-0.03438118	-0.113959	0.07899234	-0.0588396	2.384062	-1.775834
8.067722	-0.03438118	-0.113959	0	0	-2.403153	1.790054
8.084793	-0.03438118	-0.113959	0	0	0	0
8.100927	-0.03393434	-0.1143311	0.02769563	-0.02306115	0.8340793	-0.6945075
8.117422	-0.03393434	-0.1143311	0	0	-0.8488038	0.7067681
8.1348	-0.03393434	-0.1143311	0	0	0	0
8.150553	-0.03367148	-0.1145269	0.01668634	-0.01243293	0.5036528	-0.3752699
8.167122	-0.03367148	-0.1145269	0	0	-0.5162545	0.3846593
8.183688	-0.03367148	-0.1145269	0	0	0	0
8.200847	-0.0303328	-0.1170548	0.1945788	-0.1473237	5.769608	-4.368411
8.216823	-0.0303328	-0.1170548	0	0	-5.872399	4.446239
8.233389	-0.0303328	-0.1170548	0	0	0	0
8.249955	-0.01313082	-0.1299098	1.038373	-0.7759745	31.33996	-23.42031
8.266522	-0.01313082	-0.1299098	0	0	-31.33906	23.41963
8.283089	-0.01313082	-0.1299098	0	0	0	0
8.299655	-0.004289447	-0.1366194	0.5336973	-0.4050132	16.10794	-12.22403
8.316333	-0.004289447	-0.1366194	0	0	-16.05388	12.183
8.332842	-0.004289447	-0.1366194	0	0	0	0
8.349355	-0.004342078	-0.1366589	-0.003187237	-0.002393156	-0.09651881	-0.07247173
8.365921	-0.004342078	-0.1366589	0	0	0.09635185	0.07234637
8.382488	-0.004342078	-0.1366589	0	0	0	0
8.40303	-0.004368393	-0.1365996	-0.001281047	0.002886345	-0.03452084	0.0777794
8.419601	-0.004368393	-0.1365996	0	0	0.0345173	-0.07777141
8.436169	-0.004394709	-0.1365798	-0.001588404	0.001192652	-0.0479326	0.03599016
8.452735	-0.004394709	-0.1365798	0	0	0.0479395	-0.03599534
8.469302	-0.004394709	-0.1365798	0	0	0	0
8.486185	-0.004789437	-0.1362835	-0.02338038	0.01755529	-0.6989623	0.5248197
8.502436	-0.004789437	-0.1362835	0	0	0.7056415	-0.5298349
8.519002	-0.004789437	-0.1362835	0	0	0	0
8.535568	-0.005078904	-0.1360661	-0.01747325	0.01311903	-0.5273741	0.3959558
8.552135	-0.005078904	-0.1360661	0	0	0.5273589	-0.3959444
8.568702	-0.005078904	-0.1360661	0	0	0	0
8.585268	-0.005315739	-0.1358883	-0.01429623	0.01073359	-0.431486	0.3239589
8.60277	-0.005315739	-0.1358883	0	0	0.4196368	-0.3150626
8.618401	-0.005315739	-0.1358883	0	0	0	0
8.635182	-0.005315739	-0.1358883	0	0	0	0
8.651534	-0.005315739	-0.1358883	0	0	0	0
8.668474	-0.005315739	-0.1358883	0	0	0	0
8.684754	-0.00536837	-0.1358093	-0.003232793	0.004853809	-0.09731381	0.1461098
8.701234	-0.00536837	-0.1358093	0	0	0.09868211	-0.1481642
8.7178	-0.00536837	-0.1358093	0	0	0	0
8.734364	-0.005394685	-0.135829	-0.001588741	-0.001192927	-0.04795521	-0.03600778
8.750933	-0.005394685	-0.135829	0	0	0.04795107	0.03600467
8.768113	-0.005394685	-0.135829	0	0	0	0
8.784136	-0.005394685	-0.135829	0	0	0	0
8.800632	-0.005394685	-0.135829	0	0	0	0
8.817264	-0.005394685	-0.135829	0	0	0	0
8.833766	-0.00536837	-0.1358488	0.001594617	-0.001197339	0.04812704	-0.0361368
8.850332	-0.00536837	-0.1358488	0	0	-0.04822142	0.03620766
8.866899	-0.00536837	-0.1358488	0	0	0	0
8.88393	-0.00536837	-0.1358488	0	0	0	0
8.900031	-0.00536837	-0.1358488	0	0	0	0
8.916598	-0.00536837	-0.1358488	0	0	0	0
8.933165	-0.00536837	-0.1358488	0	0	0	0
8.949731	-0.00536837	-0.1358488	0	0	0	0
8.966298	-0.00536837	-0.1358488	0	0	0	0
8.982862	-0.00536837	-0.1358488	0	0	0	0
8.999432	-0.00536837	-0.1358488	0	0	0	0
9.015998	-0.00536837	-0.1358488	0	0	0	0
9.032563	-0.005394685	-0.135829	-0.001588559	0.001192789	-0.04794693	0.03600156
9.049131	-0.005394685	-0.135829	0	0	0.04794417	-0.03599949
9.065698	-0.005394685	-0.135829	0	0	0	0
9.082261	-0.00536837	-0.1358488	0.001588741	-0.001192927	0.04795521	-0.03600778
9.098831	-0.00536837	-0.1358488	0	0	-0.04794969	0.03600363
9.115397	-0.00536837	-0.1358488	0	0	0	0
9.131965	-0.00536837	-0.1358488	0	0	0	0
9.148531	-0.00536837	-0.1358488	0	0	0	0
9.165097	-0.00536837	-0.1358488	0	0	0	0
9.181701	-0.00536837	-0.1358488	0	0	0	0
9.198229	-0.00536837	-0.1358488	0	0	0	0
9.214865	-0.00536837	-0.1358488	0	0	0	0
9.231366	-0.00536837	-0.1358488	0	0	0	0
9.247931	-0.00536837	-0.1358488	0	0	0	0
9.264497	-0.00536837	-0.1358488	0	0	0	0
9.281061	-0.00536837	-0.1358488	0	0	0	0
9.29763	-0.00536837	-0.1358488	0	0	0	0
9.314198	-0.00536837	-0.1358488	0	0	0	0
9.330762	-0.005342055	-0.1358686	0.00158865	-0.001192858	0.04794969	-0.03600363
9.347331	-0.005342055	-0.1358686	0	0	-0.04794693	0.03600156
9.363897	-0.005342055	-0.1358686	0	0	0	0
9.380461	-0.00536837	-0.1358488	-0.001588741	0.001192927	-0.04795521	0.03600778
9.397031	-0.00536837	-0.1358488	0	0	0.04794969	-0.03600363
9.413597	-0.00536837	-0.1358488	0	0	0	0
9.430164	-0.00536837	-0.1358488	0	0	0	0
9.446731	-0.00536837	-0.1358488	0	0	0	0
9.463467	-0.00536837	-0.1358488	0	0	0	0
9.479864	-0.00536837	-0.1358488	0	0	0	0
9.49643	-0.00536837	-0.1358488	0	0	0	0
9.512997	-0.00536837	-0.1358488	0	0	0	0
9.529561	-0.00536837	-0.1358488	0	0	0	0
9.54613	-0.00536837	-0.1358488	0	0	0	0
9.562697	-0.00536837	-0.1358488	0	0	0	0
9.579333	-0.005315739	-0.1358883	0.003163667	-0.002374563	0.09528221	-0.07151625
9.595831	-0.005315739	-0.1358883	0	0	-0.09548241	0.07166652
9.612398	-0.005315739	-0.1358883	0	0	0	0
9.629082	-0.006131502	-0.1412083	-0.04889617	-0.3188772	-1.470526	-9.590058
9.645532	-0.006131502	-0.1412083	0	0	1.475732	9.62401
9.662098	-0.006131502	-0.1412083	0	0	0	0
9.678662	-0.01318345	-0.2127158	-0.4257297	-4.316946	-12.85003	-130.3007
9.695231	-0.01318345	-0.2127158	0	0	12.84892	130.2894
9.711799	-0.01318345	-0.2127158	0	0	0	0
9.730021	-0.01310451	-0.3083763	0.004331794	-5.249769	0.1245159	-150.9028
9.746648	-0.01310451	-0.3083763	0	0	-0.1243012	150.6426
9.763157	-0.01310451	-0.3083763	0	0	0	0
9.779847	-0.01197311	-0.359046	0.06778815	-3.035882	2.041854	-91.44413
9.796291	-0.01197311	-0.359046	0	0	-2.04585	91.6231
9.812858	-0.01197311	-0.359046	0	0	0	0
9.829494	-0.008368226	-0.3864657	0.2166933	-1.648224	6.526478	-49.64207
9.84599	-0.008368226	-0.3864657	0	0	-6.540192	49.74637
9.862557	-0.008368226	-0.3864657	0	0	0	0
9.879122	0.002210523	-0.3960812	0.6386448	-0.5804954	19.276	-17.5209
9.895692	0.002210523	-0.3960812	0	0	-19.27434	17.51939
9.912477	0.002210523	-0.3960812	0	0	0	0
9.928821	0.009710222	-0.4025474	0.4588636	-0.3956321	13.85092	-11.94226
9.945415	0.009710222	-0.4025474	0	0	-13.93113	12.01142
9.961957	0.009710222	-0.4025474	0	0	0	0
9.978858	0.01189418	-0.4044357	0.1292203	-0.1117238	3.863844	-3.340677
9.99509	0.01189418	-0.4044357	0	0	-3.899988	3.371927
10.01166	0.01189418	-0.4044357	0	0	0	0
10.02822	0.01186786	-0.404413	-0.001588545	0.001372855	-0.04794927	0.04143882
10.04498	0.01186786	-0.404413	0	0	0.04766934	-0.04119689
10.06136	0.01186786	-0.404413	0	0	0	0
10.07792	0.01186786	-0.404413	0	0	0	0
10.09449	0.01186786	-0.404413	0	0	0	0
10.11106	0.01186786	-0.404413	0	0	0	0
10.12762	0.01186786	-0.404413	0	0	0	0
10.14419	0.01186786	-0.404413	0	0	0	0
10.1612	0.01186786	-0.404413	0	0	0	0
10.17732	0.01186786	-0.404413	0	0	0	0
10.19389	0.01186786	-0.404413	0	0	0	0
10.21046	0.01186786	-0.404413	0	0	0	0
10.22702	0.01210467	-0.4046634	0.01429789	-0.01511847	0.4315734	-0.4563421
10.24365	0.01210467	-0.4046634	0	0	-0.4308169	0.4555421
10.26016	0.01210467	-0.4046634	0	0	0	0
10.27672	0.02189124	-0.4134311	0.5908204	-0.5293159	17.86287	-16.00334
10.29378	0.02189124	-0.4134311	0	0	-17.57155	15.74235
10.30986	0.02189124	-0.4134311	0	0	0	0
10.32642	0.0341709	-0.4243013	0.74133	-0.6562392	22.712	-20.10509
10.343	0.0341709	-0.4243013	0	0	-22.36888	19.80135
10.35956	0.0341709	-0.4243013	0	0	0	0
10.37612	0.04956464	-0.4389972	0.9293281	-0.8871984	28.05606	-26.78418
10.39269	0.04956464	-0.4389972	0	0	-28.05041	26.77879
10.40986	0.04956464	-0.4389972	0	0	0	0
10.42582	0.03256743	-0.4738731	-1.065133	-2.185502	-32.1467	-65.96047
10.44239	0.03256743	-0.4738731	0	0	32.74614	67.19045
10.45896	0.03256743	-0.4738731	0	0	0	0
10.47552	0.02002364	-0.5032917	-0.7571881	-1.775815	-22.85264	-53.59575
10.49223	0.02002364	-0.5032917	0	0	22.75701	53.37147
10.50866	0.02002364	-0.5032917	0	0	0	0
10.52522	0.0248107	-0.5079358	0.2889641	-0.2803307	8.758263	-8.496591
10.54179	0.0248107	-0.5079358	0	0	-8.721457	8.460885
10.55836	0.0248107	-0.5079358	0	0	0	0
10.57492	0.0248107	-0.5079358	0	0	0	0
10.59149	0.0248107	-0.5079358	0	0	0	0
10.60826	0.0248107	-0.5079358	0	0	0	0
10.62473	0.0248107	-0.5079358	0	0	0	0
10.64119	0.0248107	-0.5079358	0	0	0	0
10.65776	0.0248107	-0.5079358	0	0	0	0
10.67432	0.0248107	-0.5079358	0	0	0	0
10.69089	0.0248107	-0.5079358	0	0	0	0
10.70746	0.0248107	-0.5079358	0	0	0	0
10.72402	0.0248107	-0.5079358	0	0	0	0
10.74059	0.0248107	-0.5079358	0	0	0	0
10.75716	0.0248107	-0.5079358	0	0	0	0
10.77372	0.0248107	-0.5079358	0	0	0	0
10.79029	0.0248107	-0.5079358	0	0	0	0
10.80686	0.0248107	-0.5079358	0	0	0	0
10.82342	0.0248107	-0.5079358	0	0	0	0
10.83999	0.0248107	-0.5079358	0	0	0	0
10.85656	0.0248107	-0.5079358	0	0	0	0
10.87312	0.0248107	-0.5079358	0	0	0	0
10.88969	0.0248107	-0.5079358	0	0	0	0
10.90629	0.0248107	-0.5079358	0	0	0	0
10.92282	0.0248107	-0.5079358	0	0	0	0
10.93939	0.0248107	-0.5079358	0	0	0	0
10.95613	0.0248107	-0.5079358	0	0	0	0
10.97252	0.0248107	-0.5079358	0	0	0	0
10.98909	0.0248107	-0.5079358	0	0	0	0
11.00589	0.0248107	-0.5079358	0	0	0	0
11.0276	0.0248107	-0.5079358	0	0	0	0
11.04417	0.0248107	-0.5079358	0	0	0	0
11.06073	0.0248107	-0.5079358	0	0	0	0
11.07742	0.0248107	-0.5079358	0	0	0	0
11.09387	0.0248107	-0.5079358	0	0	0	0
11.11043	0.0247844	-0.5079113	-0.001587779	0.001478928	-0.04810061	0.04480306
11.127	0.0247844	-0.5079113	0	0	0.04792063	-0.04463542
11.14357	0.0247844	-0.5079113	0	0	0	0
11.16015	0.0247844	-0.5079113	0	0	0	0
11.1767	0.0247844	-0.5079113	0	0	0	0
11.19327	0.0247844	-0.5079113	0	0	0	0
11.20983	0.0247844	-0.5079113	0	0	0	0
11.2264	0.0247844	-0.5079113	0	0	0	0
11.24297	0.0247844	-0.5079113	0	0	0	0
11.25953	0.0247844	-0.5079113	0	0	0	0
11.2761	0.0247844	-0.5079113	0	0	0	0
11.29267	0.0247844	-0.5079113	0	0	0	0
11.30923	0.0246266	-0.5077644	-0.009525237	0.00886535	-0.2874888	0.2675722
11.3258	0.0246266	-0.5077644	0	0	0.2874888	-0.2675722
11.34237	0.0246266	-0.5077644	0	0	0	0
11.35893	0.0185505	-0.5016336	-0.3668172	0.370117	-11.07152	11.17112
11.3755	0.0185505	-0.5016336	0	0	11.07088	-11.17048
11.4081	0.0185505	-0.5016336	0	0	0	0
11.42605	-0.03293546	-0.4478534	-2.867985	2.995787	-56.73401	59.26217
11.44262	-0.03293546	-0.4478534	0	0	83.07458	-86.77652
11.45919	-0.03293546	-0.4478534	0	0	0	0
11.47576	-0.05866943	-0.3834082	-1.553395	3.89014	-46.88427	117.4114
11.49232	-0.05866943	-0.3834082	0	0	46.88292	-117.408
11.50889	-0.05866943	-0.3834082	0	0	0	0
11.52545	-0.04431308	-0.3248409	0.8668008	3.536152	26.16462	106.7397
11.54202	-0.04431308	-0.3248409	0	0	-26.16161	-106.7274
11.55859	-0.04431308	-0.3248409	0	0	0	0
11.57515	-0.03406576	-0.3113644	0.6185646	0.8134894	18.66939	24.55257
11.59172	-0.03406576	-0.3113644	0	0	-18.66885	-24.55187
11.60831	-0.03406576	-0.3113644	0	0	0	0
11.62485	-0.03498572	-0.3106115	-0.05562453	0.04552171	-1.678993	1.374046
11.64142	-0.03498572	-0.3106115	0	0	1.680057	-1.374916
11.65799	-0.03498572	-0.3106115	0	0	0	0
11.67455	-0.05323911	-0.2954286	-1.101777	0.9164424	-33.25266	27.65908
11.69112	-0.05323911	-0.2954286	0	0	33.25266	-27.65908
11.70779	-0.05323911	-0.2954286	0	0	0	0
11.72425	-0.09030634	-0.2647206	-2.252292	1.86589	-67.98409	56.32076
11.74082	-0.09030634	-0.2647206	0	0	68.19808	-56.49804
11.75739	-0.09030634	-0.2647206	0	0	0	0
11.77395	-0.1189879	-0.2402892	-1.731521	1.47494	-52.26041	44.51634
11.79052	-0.1189879	-0.2402892	0	0	52.2589	-44.51506
11.80709	-0.1189879	-0.2402892	0	0	0	0
11.8241	-0.1177164	-0.2258183	0.07473043	0.8504997	2.225393	25.32698
11.84064	-0.1177164	-0.2258183	0	0	-2.227544	-25.35146
11.85679	-0.1177164	-0.2258183	0	0	0	0
11.87335	-0.09114153	-0.2052071	1.604154	1.244167	49.03015	38.02733
11.88992	-0.09114153	-0.2052071	0	0	-48.41903	-37.55335
11.90649	-0.09114153	-0.2052071	0	0	0	0
11.92305	-0.06862889	-0.1877414	1.3591	1.054413	41.01891	31.82315
11.93962	-0.06862889	-0.1877414	0	0	-41.01891	-31.82315
11.95619	-0.06862889	-0.1877414	0	0	0	0
11.97275	-0.04205414	-0.1665675	1.604055	1.278061	48.41188	38.57306
11.98932	-0.04205414	-0.1665675	0	0	-48.41188	-38.57306
12.00589	-0.04205414	-0.1665675	0	0	0	0
12.02245	-0.02704603	-0.1419014	0.9059432	1.488937	27.34299	44.9388
12.03902	-0.02704603	-0.1419014	0	0	-27.34299	-44.9388
12.05575	-0.02704603	-0.1419014	0	0	0	0
12.07306	-0.01805067	-0.1183295	0.5196013	1.361588	15.26423	39.99913
12.08908	-0.01805067	-0.1183295	0	0	-15.58961	-40.85178
12.10528	-0.01805067	-0.1183295	0	0	0	0
12.12208	-0.01165737	-0.112393	0.3807068	0.3535058	11.53657	10.7123
12.13883	-0.01165737	-0.112393	0	0	-11.34736	-10.5366
12.1551	-0.01165737	-0.112393	0	0	0	0
12.17155	-0.01157843	-0.1124517	0.004798903	-0.003568802	0.1466803	-0.1090818
12.18812	-0.01157843	-0.1124517	0	0	-0.1453205	0.1080706
12.20469	-0.01157843	-0.1124517	0	0	0	0
12.22174	-0.01155212	-0.1124713	0.001543315	-0.001148036	0.04591135	-0.03415237
12.23782	-0.01155212	-0.1124713	0	0	-0.04658137	0.03465078
12.25439	-0.01155212	-0.1124713	0	0	0	0
12.27096	-0.01107849	-0.1128627	0.02858965	-0.02362819	0.8628623	-0.7131208
12.28752	-0.01107849	-0.1128627	0	0	-0.8628374	0.7131003
12.30409	-0.01107849	-0.1128627	0	0	0	0
12.32105	-0.01078906	-0.113078	0.01706483	-0.0126946	0.5089821	-0.3786339
12.33745	-0.01078906	-0.113078	0	0	-0.5114845	0.3804954
12.35434	-0.01078906	-0.113078	0	0	0	0
12.3732	-0.002868413	-0.1190161	0.420016	-0.3148871	11.7492	-8.808406
12.38977	-0.002868413	-0.1190161	0	0	-11.85483	8.887596
12.40644	-0.002868413	-0.1190161	0	0	0	0
12.42291	0.0003421053	-0.121411	0.1949318	-0.1454093	5.883562	-4.38884
12.43947	0.0003421053	-0.121411	0	0	-5.900376	4.401383
12.45604	0.0003421053	-0.121411	0	0	0	0
12.47267	0.0002894737	-0.1215288	-0.00316555	-0.007087444	-0.09536906	-0.2135246
12.48917	0.0002894737	-0.1215288	0	0	0.09553925	0.2139056
12.50574	0.0002894737	-0.1215288	0	0	0	0
12.52231	-0.0005263158	-0.1224128	-0.04924398	-0.05336031	-1.486272	-1.61051
12.53887	-0.0005263158	-0.1224128	0	0	1.486272	1.61051
12.55564	-0.0005263158	-0.1224128	0	0	0	0
12.572	-0.0005	-0.1224325	0.001608142	-0.001200627	0.04853942	-0.03623917
12.58866	-0.0005	-0.1224325	0	0	-0.04870626	0.03636374
12.60567	-0.0005	-0.1224325	0	0	0	0
12.62175	-0.0002105263	-0.1227665	0.01801182	-0.02078435	0.5443341	-0.6281225
12.63828	-0.0002105263	-0.1227665	0	0	-0.5524706	0.6375114
12.65484	-0.0002105263	-0.1227665	0	0	0	0
12.6714	0.008999757	-0.1298507	0.5561259	-0.4277495	16.78826	-12.91285
12.68798	0.008999757	-0.1298507	0	0	-16.78343	12.90913
12.70454	0.008999757	-0.1298507	0	0	0	0
12.7211	0.01347287	-0.1333215	0.2700442	-0.2095346	8.151357	-6.324859
12.73767	0.01347287	-0.1333215	0	0	-8.149949	6.323766
12.75464	0.01347287	-0.1333215	0	0	0	0
12.7708	0.01315714	-0.1336373	-0.01953563	-0.01953794	-0.5897392	-0.5898088
12.78763	0.01315714	-0.1336373	0	0	0.5921087	0.5921786
12.80393	0.01315714	-0.1336373	0	0	0	0
12.8205	0.0130782	-0.133657	-0.004764755	-0.001190922	-0.1449647	-0.03623305
12.83707	0.0130782	-0.133657	0	0	0.1437799	0.03593691
12.85364	0.0130782	-0.133657	0	0	0	0
12.8702	0.0130782	-0.133657	0	0	0	0
12.88678	0.0130782	-0.133657	0	0	0	0
12.90334	0.0130782	-0.133657	0	0	0	0
12.9199	0.01305189	-0.1336373	-0.001588488	0.001191127	-0.04795034	0.03595554
12.93648	0.01305189	-0.1336373	0	0	0.04793792	-0.03594622
12.95312	0.01305189	-0.1336373	0	0	0	0
12.9696	0.01302558	-0.1336175	-0.001595988	0.001197612	-0.04817949	0.03615338
12.98617	0.01302558	-0.1336175	0	0	0.04828236	-0.03623056
13.00276	0.01302558	-0.1336175	0	0	0	0
13.0193	0.01302558	-0.1336175	0	0	0	0
13.03848	0.01302558	-0.1336175	0	0	0	0
13.05505	0.01302558	-0.1336175	0	0	0	0
13.07162	0.01299927	-0.1335978	-0.001588453	0.001191059	-0.04793961	0.03594622
13.08818	0.01299927	-0.1335978	0	0	0.04794513	-0.03595036
13.10514	0.01299927	-0.1335978	0	0	0	0
13.12132	0.01297296	-0.133578	-0.001626798	0.001220775	-0.04909827	0.03684413
13.13789	0.01297296	-0.133578	0	0	0.04968026	-0.03728085
13.15446	0.01297296	-0.133578	0	0	0	0
13.17102	0.01297296	-0.133578	0	0	0	0
13.18759	0.01297296	-0.133578	0	0	0	0
13.20416	0.01297296	-0.133578	0	0	0	0
13.22072	0.01292033	-0.133657	-0.00317685	-0.004766034	-0.09588029	-0.1438433
13.23762	0.01292033	-0.133657	0	0	0.09492944	0.1424168
13.25419	0.01292033	-0.133657	0	0	0	0
13.27042	0.01247304	-0.1339926	-0.02755887	-0.0206745	-0.8403632	-0.6304356
13.28699	0.01247304	-0.1339926	0	0	0.8401189	0.6302523
13.30357	0.01247304	-0.1339926	0	0	0	0
13.32091	0.01013123	-0.1357895	-0.1350768	-0.1036515	-3.982182	-3.055738
13.33704	0.01013123	-0.1357895	0	0	4.036658	3.097541
13.3533	0.01013123	-0.1357895	0	0	0	0
13.36991	0.009973354	-0.1358686	-0.009503867	-0.004756839	-0.2890737	-0.1446861
13.38639	0.009973354	-0.1358686	0	0	0.2872075	0.143752
13.40296	0.009973354	-0.1358686	0	0	0	0
13.41952	0.009973354	-0.1358686	0	0	0	0
13.43609	0.009973354	-0.1358686	0	0	0	0
13.45266	0.009973354	-0.1358686	0	0	0	0
13.47297	0.009999666	-0.1358883	0.001295283	-0.0009719321	0.03512108	-0.02635355
13.48982	0.009999666	-0.1358883	0	0	-0.03485699	0.02615539
13.50635	0.009999666	-0.1358883	0	0	0	0
13.52268	0.009999666	-0.1358883	0	0	0	0
13.53924	0.009999666	-0.1358883	0	0	0	0
13.55581	0.009999666	-0.1359278	0	-0.002385991	0	-0.0720197
13.57238	0.009999666	-0.1359278	0	0	0	0.07201556
13.58894	0.009999666	-0.1359278	0	0	0	0
13.60551	0.01002598	-0.1359476	0.001588383	-0.001192721	0.04793886	-0.03599742
13.62208	0.01002598	-0.1359476	0	0	-0.04793886	0.03599742
13.63864	0.01002598	-0.1359476	0	0	0	0
13.66046	0.01002598	-0.1360661	0	-0.005432318	0	-0.1415134
13.67703	0.01002598	-0.1360661	0	0	0	0.1414994
13.6936	0.009999666	-0.1360859	-0.001588657	-0.001192027	-0.04794715	-0.03597648
13.71017	0.009999666	-0.1360859	0	0	0.04794715	0.03597648
13.72673	0.009999666	-0.1360859	0	0	0	0
13.7433	0.009999666	-0.1360859	0	0	0	0
13.75987	0.009999666	-0.1360859	0	0	0	0
13.77643	0.009999666	-0.1360859	0	0	0	0
13.793	0.009999666	-0.1360859	0	0	0	0
13.80957	0.009999666	-0.1360859	0	0	0	0
13.82613	0.009999666	-0.1360859	0	0	0	0
13.8427	0.009999666	-0.1361254	0	-0.002385716	0	-0.07201141
13.85927	0.009999666	-0.1361254	0	0	0	0.07200313
13.87583	0.009999666	-0.1361254	0	0	0	0
13.8924	0.01002598	-0.1362242	0.001588566	-0.00596429	0.04794853	-0.1800234
13.90897	0.01002598	-0.1362242	0	0	-0.04794301	0.1800026
13.92553	0.01002598	-0.1362242	0	0	0	0
13.9421	0.01002598	-0.1362242	0	0	0	0
13.95914	0.01002598	-0.1362242	0	0	0	0
13.97523	0.01002598	-0.1362242	0	0	0	0
13.9918	0.01002598	-0.1362637	0	-0.002385716	0	-0.07305235
14.00837	0.01002598	-0.1362637	0	0	0	0.07200105
14.02493	0.01002598	-0.1362637	0	0	0	0
14.04161	0.01002598	-0.1362242	0	0.002369211	0	0.07126296
14.05809	0.01002598	-0.1362242	0	0	0	-0.07144947
14.07463	0.01002598	-0.1362242	0	0	0	0
14.0912	0.009999666	-0.1362439	-0.001588383	-0.001192721	-0.04797753	-0.03602645
14.10777	0.009999666	-0.1362439	0	0	0.04793886	0.03599742
14.12433	0.009999666	-0.1362439	0	0	0	0
14.1409	0.01002598	-0.1362637	0.001588566	-0.001192858	0.04794853	-0.03600467
14.15747	0.01002598	-0.1362637	0	0	-0.04794439	0.03600156
14.17403	0.01002598	-0.1362637	0	0	0	0
14.1906	0.009999666	-0.136323	-0.001588566	-0.003578574	-0.04794853	-0.108014
14.20718	0.009999666	-0.136323	0	0	0.04792507	0.1079612
14.22373	0.009999666	-0.136323	0	0	0	0
14.24044	0.009973354	-0.1364218	-0.001574998	-0.00591356	-0.04735499	-0.1778012
14.25687	0.009973354	-0.1364218	0	0	0.04753354	0.1784716
14.27369	0.009973354	-0.1364218	0	0	0	0
14.2902	0.009973354	-0.1364218	0	0	0	0
14.30685	0.009973354	-0.1364218	0	0	0	0
14.32405	0.009973354	-0.1364218	0	0	0	0
14.3397	0.00994704	-0.1364415	-0.001681401	-0.001262569	-0.05118826	-0.03843739
14.35627	0.00994704	-0.1364415	0	0	0.05218675	0.03918716
14.37283	0.00994704	-0.1364415	0	0	0	0
14.3894	0.00994704	-0.1364415	0	0	0	0
14.40597	0.00994704	-0.1364415	0	0	0	0
14.42253	0.00994704	-0.1364415	0	0	0	0
14.4391	0.00994704	-0.1364415	0	0	0	0
14.45567	0.00994704	-0.1364415	0	0	0	0
14.47254	0.00994704	-0.1364415	0	0	0	0
14.4888	0.00994704	-0.1364415	0	0	0	0
14.50537	0.00994704	-0.1364415	0	0	0	0
14.52193	0.00994704	-0.1364415	0	0	0	0
14.5385	0.00994704	-0.1364415	0	0	0	0
14.55507	0.00994704	-0.1364415	0	0	0	0
14.57163	0.00994704	-0.1364415	0	0	0	0
14.5882	0.00994704	-0.1364415	0	0	0	0
14.60477	0.00994704	-0.1364415	0	0	0	0
14.62133	0.00994704	-0.1364415	0	0	0	0
14.6379	0.00994704	-0.1364415	0	0	0	0
14.65447	0.00994704	-0.1364415	0	0	0	0
14.67103	0.00994704	-0.1364415	0	0	0	0
14.6876	0.00994704	-0.1364415	0	0	0	0
14.70417	0.00994704	-0.1364415	0	0	0	0
14.72074	0.00994704	-0.1364415	0	0	0	0
14.73741	0.009920727	-0.1364218	-0.001577971	0.001184944	-0.04746887	0.03564575
14.75387	0.009920727	-0.1364218	0	0	0.047626	-0.03576374
14.77094	0.009920727	-0.1364218	0	0	0	0
14.787	0.009920727	-0.1364218	0	0	0	0
14.80357	0.009920727	-0.1364218	0	0	0	0
14.82014	0.009920727	-0.1364218	0	0	0	0
14.8367	0.009920727	-0.1364218	0	0	0	0
14.85327	0.009920727	-0.1364218	0	0	0	0
14.8701	0.009920727	-0.1364218	0	0	0	0
14.8864	0.009894414	-0.136402	-0.001614311	0.00121219	-0.04873121	0.03659239
14.90297	0.009894414	-0.136402	0	0	0.04910584	-0.0368737
14.92026	0.009894414	-0.136402	0	0	0	0
14.9361	0.009841788	-0.136323	-0.003321253	0.004987963	-0.1002443	0.15055
14.95277	0.009841788	-0.136323	0	0	0.1021406	-0.153398
14.96933	0.009841788	-0.136323	0	0	0	0
14.98947	0.009841788	-0.136323	0	0	0	0
15.00604	0.009841788	-0.136323	0	0	0	0
15.0226	0.009841788	-0.136323	0	0	0	0
15.03917	0.009841788	-0.136323	0	0	0	0
15.05574	0.009841788	-0.136323	0	0	0	0
15.0723	0.009841788	-0.136323	0	0	0	0
15.08887	0.009841788	-0.136323	0	0	0	0
15.10544	0.009841788	-0.136323	0	0	0	0
15.122	0.009841788	-0.1363625	0	-0.002385029	0	-0.07197826
15.13857	0.009841788	-0.1363625	0	0	0	0.0719824
15.15514	0.009841788	-0.1363625	0	0	0	0
15.1717	0.009841788	-0.1363625	0	0	0	0
15.18827	0.009841788	-0.1363625	0	0	0	0
15.20483	0.009841788	-0.1363625	0	0	0	0
15.2214	0.009841788	-0.1363625	0	0	0	0
15.23797	0.009841788	-0.1363625	0	0	0	0
15.25453	0.009841788	-0.1363625	0	0	0	0
15.2711	0.0098681	-0.1363823	0.001588509	-0.001192858	0.04794683	-0.03600467
15.28767	0.0098681	-0.1363823	0	0	-0.04794269	0.03600156
15.30423	0.0098681	-0.1363823	0	0	0	0
15.3208	0.0098681	-0.1363823	0	0	0	0
15.3374	0.0098681	-0.1363823	0	0	0	0
15.35414	0.0098681	-0.1363823	0	0	0	0
15.37064	0.0098681	-0.1363823	0	0	0	0
15.38715	0.0098681	-0.1363823	0	0	0	0
15.40367	0.0098681	-0.1363823	0	0	0	0
15.4202	0.0098681	-0.1363823	0	0	0	0
15.43677	0.0098681	-0.1363823	0	0	0	0
15.45333	0.0098681	-0.1363823	0	0	0	0
15.47021	0.0098681	-0.1363823	0	0	0	0
15.52801	0.0098681	-0.1363823	0	0	0	0
15.54458	0.0098681	-0.1363823	0	0	0	0
15.56115	0.0098681	-0.1363823	0	0	0	0
15.57772	0.0098681	-0.1363823	0	0	0	0
15.5949	0.0098681	-0.1363823	0	0	0	0
15.61085	0.0098681	-0.1363823	0	0	0	0
15.62742	0.0098681	-0.1363823	0	0	0	0
15.64399	0.0098681	-0.1363823	0	0	0	0
15.66055	0.0098681	-0.1363823	0	0	0	0
15.67712	0.0098681	-0.1363823	0	0	0	0
15.69376	0.0098681	-0.1363823	0	0	0	0
15.71025	0.009841788	-0.1363625	-0.001595583	0.00119817	-0.04815618	0.03616187
15.72682	0.009841788	-0.1363625	0	0	0.04826314	-0.03624219
15.74339	0.009841788	-0.1363625	0	0	0	0
15.75995	0.0098681	-0.1363823	0.001588601	-0.001192927	0.04795097	-0.03600778
15.77652	0.0098681	-0.1363823	0	0	-0.04794545	0.03600363
15.79309	0.0098681	-0.1363823	0	0	0	0
15.80965	0.009841788	-0.1363625	-0.001588601	0.001192927	-0.04795097	0.03600778
15.82665	0.009841788	-0.1363625	0	0	0.04733239	-0.03554327
15.84308	0.009841788	-0.1363625	0	0	0	0
15.85935	0.009841788	-0.1363625	0	0	0	0
15.87592	0.009841788	-0.1363625	0	0	0	0
15.89248	0.009841788	-0.1363625	0	0	0	0
15.90905	0.0098681	-0.1363823	0.001588235	-0.001192652	0.04793441	-0.03599534
15.92562	0.0098681	-0.1363823	0	0	-0.04793441	0.03599534
15.94218	0.0098681	-0.1363823	0	0	0	0
15.95875	0.0098681	-0.1363823	0	0	0	0
15.97538	0.0098681	-0.1363823	0	0	0	0
15.99188	0.0098681	-0.1363823	0	0	0	0
16.00848	0.0098681	-0.1363823	0	0	0	0
16.02502	0.0098681	-0.1363823	0	0	0	0
16.04161	0.0098681	-0.1363823	0	0	0	0
16.05815	0.009841788	-0.1363625	-0.001590983	0.001194715	-0.04801595	0.03605657
16.07472	0.009841788	-0.1363625	0	0	0.04806022	-0.03608982
16.09128	0.009841788	-0.1363625	0	0	0	0
16.10823	0.009815474	-0.1363427	-0.001552368	0.001165677	-0.04631733	0.0347798
16.12442	0.009815474	-0.1363427	0	0	0.04684788	-0.03517819
16.14108	0.009815474	-0.1363427	0	0	0	0
16.15755	0.009631281	-0.1361254	-0.01118748	0.01320124	-0.3376776	0.3984601
16.17412	0.009631281	-0.1361254	0	0	0.338672	-0.3996335
16.19069	0.009631281	-0.1361254	0	0	0	0
16.20725	0.008420854	-0.1349403	-0.07306151	0.07153483	-2.205001	2.158926
16.22382	0.008420854	-0.1349403	0	0	2.205001	-2.158926
16.24039	0.008420854	-0.1349403	0	0	0	0
16.25695	-0.01226254	-0.1133129	-1.248596	1.305579	-37.68487	39.40473
16.27352	-0.01226254	-0.1133129	0	0	37.68487	-39.40473
16.29009	-0.01226254	-0.1133129	0	0	0	0
16.30665	-0.03509085	-0.05725547	-1.378237	3.384413	-41.60006	102.1535
16.32322	-0.03509085	-0.05725547	0	0	41.60006	-102.1535
16.33998	-0.03509085	-0.05725547	0	0	0	0
16.35635	-0.02026039	-0.0100376	0.9062279	2.885287	27.35159	87.08314
16.37292	-0.02026039	-0.0100376	0	0	-27.51633	-87.60764
16.38976	-0.02026039	-0.0100376	0	0	0	0
16.40605	-0.006289391	0.02921175	0.8574067	2.408752	25.87956	72.70464
16.42262	-0.006289391	0.02921175	0	0	-26.08985	-73.29539
16.43988	-0.006289391	0.02921175	0	0	0	0
16.45617	-0.01223623	0.05769804	-0.3651741	1.749241	-10.88439	52.13792
16.47232	-0.01223623	0.05769804	0	0	11.25817	-53.92838
16.48892	-0.01223623	0.05769804	0	0	0	0
16.50596	-0.0150778	0.07887277	-0.1667565	1.24263	-4.956823	36.93708
16.52202	-0.0150778	0.07887277	0	0	5.038523	-37.54588
16.53859	-0.0150778	0.07887277	0	0	0	0
16.55515	-0.007394602	0.0912033	0.4638124	0.7443581	13.99869	22.46606
16.57194	-0.007394602	0.0912033	0	0	-13.90424	-22.31448
16.58829	-0.007394602	0.0912033	0	0	0	0
16.60485	-0.007868258	0.09149734	-0.02859324	0.01775016	-0.8688977	0.5393959
16.62198	-0.007868258	0.09149734	0	0	0.8486325	-0.5268156
16.63799	-0.007868258	0.09149734	0	0	0	0
16.65455	-0.01078906	0.09353669	-0.17632	0.1231096	-5.412954	3.779418
16.67112	-0.01078906	0.09353669	0	0	5.321653	-3.715669
16.68769	-0.01078906	0.09353669	0	0	0	0
16.70425	-0.01121006	0.09379384	-0.02541756	0.01552514	-0.7671476	0.4685766
16.72082	-0.01121006	0.09379384	0	0	0.7671476	-0.4685766
16.73739	-0.01121006	0.09379384	0	0	0	0
16.75396	-0.01121006	0.09372037	0	-0.004432627	0	-0.1337462
16.77052	-0.01121006	0.09372037	0	0	0	0.1337847
16.78709	-0.01121006	0.09372037	0	0	0	0
16.80371	-0.01123637	0.09373873	-0.001583313	0.001105119	-0.04771034	0.03330081
16.82022	-0.01123637	0.09373873	0	0	0.04779	-0.03335641
16.83708	-0.01123637	0.09373873	0	0	0	0
16.85335	-0.01121006	0.09375711	0.001616523	0.001128757	0.04878677	0.03406595
16.86992	-0.01121006	0.09375711	0	0	-0.04921455	-0.03436466
16.8865	-0.01121006	0.09375711	0	0	0	0
16.90454	-0.01126268	0.09379384	-0.002916834	0.002035925	-0.08425216	0.05880728
16.92111	-0.01126268	0.09379384	0	0	0.08427538	-0.05882348
16.93768	-0.01126268	0.09379384	0	0	0	0
16.95425	-0.01123637	0.09377547	0.001588179	-0.001108555	0.04793134	-0.03345625
16.97081	-0.01123637	0.09377547	0	0	-0.04793409	0.03345817
16.98774	-0.01123637	0.09377547	0	0	0	0
17.01026	-0.01123637	0.09377547	0	0	0	0
17.02683	-0.01123637	0.09377547	0	0	0	0
17.0434	-0.01126268	0.09375711	-0.001588545	-0.00110881	-0.04794237	-0.03346395
17.05997	-0.01126268	0.09375711	0	0	0.04794513	0.03346588
17.07653	-0.01126268	0.09375711	0	0	0	0
17.0931	-0.01126268	0.09375711	0	0	0	0
17.10967	-0.01126268	0.09375711	0	0	0	0
17.1265	-0.01126268	0.09375711	0	0	0	0
17.1428	-0.01123637	0.09373873	0.001614763	-0.001127568	0.04873645	-0.03403202
17.15937	-0.01123637	0.09373873	0	0	-0.04913814	0.03431251
17.17593	-0.01123637	0.09373873	0	0	0	0
17.1925	-0.01123637	0.09373873	0	0	0	0
17.20907	-0.01123637	0.09373873	0	0	0	0
17.22563	-0.01123637	0.09373873	0	0	0	0
17.2422	-0.01123637	0.09373873	0	0	0	0
17.2588	-0.01123637	0.09373873	0	0	0	0
17.27533	-0.01123637	0.09373873	0	0	0	0
17.2919	-0.01123637	0.09351832	0	-0.01330707	0	-0.4020942
17.30846	-0.01123637	0.09351832	0	0	0	0.4016544
17.32514	-0.01123637	0.09351832	0	0	0	0
17.3416	-0.01057855	0.09261817	0.03997743	-0.05470471	1.206591	-1.651086
17.35817	-0.01057855	0.09261817	0	0	-1.210563	1.656522
17.37473	-0.01057855	0.09261817	0	0	0	0
17.3913	-0.01334131	0.08193106	-0.1667989	-0.645224	-5.034582	-19.47514
17.40787	-0.01334131	0.08193106	0	0	5.034292	19.47402
17.42471	-0.01334131	0.08193106	0	0	0	0
17.441	-0.0189188	0.05343489	-0.3422928	-1.748824	-10.33042	-52.77961
17.45757	-0.0189188	0.05343489	0	0	10.41616	53.21767
17.47413	-0.0189188	0.05343489	0	0	0	0
17.49384	-0.01860312	0.05013239	0.01602041	-0.1675986	0.4416736	-4.620598
17.51041	-0.01860312	0.05013239	0	0	-0.4416736	4.620598
17.52697	-0.01860312	0.05013239	0	0	0	0
17.54354	-0.01647219	0.004656394	0.1286375	-2.745253	3.882511	-82.85666
17.56013	-0.01647219	0.004656394	0	0	-3.880277	82.80899
17.57667	-0.01647219	0.004656394	0	0	0	0
17.59324	-0.03020134	-0.03997255	-0.8287883	-2.694118	-25.02873	-81.36017
17.60981	-0.03020134	-0.03997255	0	0	25.01432	81.31333
17.62637	-0.03020134	-0.03997255	0	0	0	0
17.64294	-0.04536359	-0.09701809	-0.9153008	-3.443672	-27.62543	-103.9362
17.65979	-0.04536359	-0.09701809	0	0	27.39048	103.0523
17.67612	-0.04536359	-0.09701809	0	0	0	0
17.69264	-0.043315	-0.165407	0.1240391	-4.140835	3.776113	-126.0591
17.70963	-0.043315	-0.165407	0	0	-3.701954	123.5834
17.72615	-0.043315	-0.165407	0	0	0	0
17.74234	-0.03322461	-0.1910776	0.6231175	-1.585255	19.04805	-48.45956
17.75891	-0.03322461	-0.1910776	0	0	-19.02143	48.39185
17.77547	-0.03322461	-0.1910776	0	0	0	0
17.79204	-0.0332509	-0.1910979	-0.001586788	-0.001221575	-0.0478921	-0.03686932
17.8087	-0.0332509	-0.1910979	0	0	0.04775739	0.03676561
17.82521	-0.0332509	-0.1910979	0	0	0	0
17.84174	-0.03322461	-0.1911181	0.00159045	-0.001224394	0.04813565	-0.03705681
17.85831	-0.03322461	-0.1911181	0	0	-0.04805797	0.03699701
17.87488	-0.03322461	-0.1911181	0	0	0	0
17.89213	-0.03322461	-0.1911181	0	0	0	0
17.90801	-0.03322461	-0.1911181	0	0	0	0
17.92481	-0.03322461	-0.1911181	0	0	0	0
17.94114	-0.03319832	-0.1911384	0.001609435	-0.001238834	0.04857565	-0.03739024
17.95771	-0.03319832	-0.1911384	0	0	-0.04891638	0.03765251
17.9747	-0.03319832	-0.1911384	0	0	0	0
17.99119	-0.03317204	-0.1911586	0.001593208	-0.001226517	0.04757917	-0.03662841
18.00776	-0.03317204	-0.1911586	0	0	-0.04818019	0.0370911
18.02452	-0.03317204	-0.1911586	0	0	0	0
18.04089	-0.03317204	-0.1911991	0	-0.002471895	0	-0.07461054
18.05746	-0.03317204	-0.1911991	0	0	0	0.07503822
18.0742	-0.03317204	-0.1911991	0	0	0	0
18.09059	-0.03314575	-0.1912193	0.00160303	-0.001234079	0.04838512	-0.03724886
18.10716	-0.03314575	-0.1912193	0	0	-0.04862586	0.0374342
18.12385	-0.03314575	-0.1912193	0	0	0	0
18.14029	-0.03314575	-0.1912193	0	0	0	0
18.15734	-0.03314575	-0.1912193	0	0	0	0
18.17389	-0.03314575	-0.1912193	0	0	0	0
18.18999	-0.03314575	-0.1912193	0	0	0	0
18.20656	-0.03314575	-0.1912193	0	0	0	0
18.22313	-0.03314575	-0.1912193	0	0	0	0
18.2397	-0.03314575	-0.1911788	0	0.002442868	0	0.07372589
18.25626	-0.03314575	-0.1911788	0	0	0	-0.07372589
18.27283	-0.03314575	-0.1911788	0	0	0	0
18.29013	-0.03311946	-0.1911991	0.001519815	-0.001169851	0.04487867	-0.03454456
18.30596	-0.03311946	-0.1911991	0	0	-0.04587603	0.03531226
18.32253	-0.03311946	-0.1911991	0	0	0	0
18.3391	-0.03311946	-0.1911991	0	0	0	0
18.35566	-0.03311946	-0.1911991	0	0	0	0
18.37319	-0.03311946	-0.1911991	0	0	0	0
18.38879	-0.03309318	-0.1912193	0.001684955	-0.001297148	0.05085791	-0.03915252
18.40549	-0.03309318	-0.1912193	0	0	-0.05216427	0.0401582
18.42193	-0.03309318	-0.1912193	0	0	0	0
18.4385	-0.03311946	-0.1912395	-0.001586605	-0.001221434	-0.04807478	-0.03700995
18.45506	-0.03311946	-0.1912395	0	0	0.04788383	0.03686295
18.47163	-0.03311946	-0.1912395	0	0	0	0
18.4882	-0.03309318	-0.1912193	0.001587153	0.001221856	0.04790589	0.03687993
18.50575	-0.03309318	-0.1912193	0	0	-0.04652384	-0.03581597
18.52133	-0.03309318	-0.1912193	0	0	0	0
18.5379	-0.03309318	-0.1912193	0	0	0	0
18.55447	-0.03309318	-0.1912193	0	0	0	0
18.57103	-0.03309318	-0.1912193	0	0	0	0
18.5876	-0.03306689	-0.1912395	0.001586788	-0.001221575	0.0478921	-0.03686932
18.60417	-0.03306689	-0.1912395	0	0	-0.0478921	0.03686932
18.62073	-0.03306689	-0.1912395	0	0	0	0
18.6373	-0.03306689	-0.1912395	0	0	0	0
18.65387	-0.03306689	-0.1912395	0	0	0	0
18.67043	-0.03306689	-0.1912395	0	0	0	0
18.687	-0.03306689	-0.1912395	0	0	0	0
18.70356	-0.03306689	-0.1912395	0	0	0	0
18.72025	-0.03306689	-0.1912395	0	0	0	0
18.7367	-0.0330406	-0.1912598	0.001598609	-0.001230501	0.0482461	-0.03713658
18.75327	-0.0330406	-0.1912598	0	0	-0.0484245	0.0372739
18.76983	-0.0330406	-0.1912598	0	0	0	0
18.7864	-0.03298803	-0.1913002	0.003173575	-0.002443149	0.09577868	-0.07373439
18.80297	-0.03298803	-0.1913002	0	0	-0.09576766	0.0737259
18.81954	-0.03298803	-0.1913002	0	0	0	0
18.8361	-0.03298803	-0.1913002	0	0	0	0
18.85284	-0.03298803	-0.1913002	0	0	0	0
18.86939	-0.03298803	-0.1913002	0	0	0	0
18.8872	-0.03298803	-0.1913002	0	0	0	0
18.90388	-0.03298803	-0.1913002	0	0	0	0
18.92039	-0.03298803	-0.1913002	0	0	0	0
18.93691	-0.03296174	-0.1913205	0.001592145	-0.001225526	0.04821479	-0.03711248
18.95392	-0.03296174	-0.1913205	0	0	-0.04749333	0.03655715
18.97004	-0.03296174	-0.1913205	0	0	0	0
18.9866	-0.03296174	-0.1913205	0	0	0	0
19.00346	-0.03296174	-0.1913205	0	0	0	0
19.01996	-0.03296174	-0.1913205	0	0	0	0
19.0363	-0.03296174	-0.1913205	0	0	0	0
19.05287	-0.03296174	-0.1913205	0	0	0	0
19.06944	-0.03296174	-0.1913205	0	0	0	0
19.086	-0.03296174	-0.1913205	0	0	0	0
19.10277	-0.03296174	-0.1913205	0	0	0	0
19.11914	-0.03296174	-0.1913205	0	0	0	0
19.1357	-0.03296174	-0.1913205	0	0	0	0
19.15227	-0.03296174	-0.1913205	0	0	0	0
19.16886	-0.03296174	-0.1913205	0	0	0	0
19.1854	-0.03298803	-0.1913002	-0.001589208	0.001223265	-0.04797345	0.03692671
19.20197	-0.03298803	-0.1913002	0	0	0.04799279	-0.0369416
19.21854	-0.03298803	-0.1913002	0	0	0	0
19.23558	-0.03298803	-0.1913002	0	0	0	0
19.25172	-0.03298803	-0.1913002	0	0	0	0
19.26842	-0.03298803	-0.1913002	0	0	0	0
19.2848	-0.03298803	-0.1913002	0	0	0	0
19.30158	-0.03298803	-0.1913002	0	0	0	0
19.31794	-0.03298803	-0.1913002	0	0	0	0
19.33455	-0.03298803	-0.1913002	0	0	0	0
19.35155	-0.03298803	-0.1913002	0	0	0	0
19.36764	-0.03298803	-0.1913002	0	0	0	0
19.3842	-0.03298803	-0.1913002	0	0	0	0
19.40077	-0.03298803	-0.1913002	0	0	0	0
19.41734	-0.03298803	-0.1913002	0	0	0	0
19.43436	-0.03298803	-0.1913002	0	0	0	0
19.45047	-0.03298803	-0.1913002	0	0	0	0
19.46766	-0.03298803	-0.1913002	0	0	0	0
19.4836	-0.03296174	-0.19128	0.001649498	0.001269671	0.04978767	0.03832318
19.50017	-0.03296174	-0.19128	0	0	-0.05074294	-0.03905847
19.51673	-0.03296174	-0.19128	0	0	0	0
19.5333	-0.03296174	-0.19128	0	0	0	0
19.54986	-0.03296174	-0.19128	0	0	0	0
19.56705	-0.03296174	-0.19128	0	0	0	0
19.64134	-0.03280402	-0.1911181	0.002123119	0.002179132	0.02321043	0.02382277
19.66475	-0.03280402	-0.1911181	0	0	-0.0217314	-0.02230472
19.68131	-0.03280402	-0.1911181	0	0	0	0
19.69788	-0.03280402	-0.1911181	0	0	0	0
19.71479	-0.03280402	-0.1911181	0	0	0	0
19.73101	-0.03280402	-0.1911181	0	0	0	0
19.74758	-0.03280402	-0.1911181	0	0	0	0
19.76415	-0.03280402	-0.1911181	0	0	0	0
19.78071	-0.03277773	-0.1911384	0.00158697	-0.001221715	0.04790037	-0.03687568
19.79728	-0.03277773	-0.1911384	0	0	-0.04789761	0.03687356
19.81486	-0.03277773	-0.1911384	0	0	0	0
19.83041	-0.03277773	-0.1911384	0	0	0	0
19.84698	-0.03277773	-0.1911384	0	0	0	0
19.86362	-0.03277773	-0.1911384	0	0	0	0
19.88011	-0.03277773	-0.1910979	0	0.00245417	0	0.07407125
19.89668	-0.03277773	-0.1910979	0	0	0	-0.07424649
19.91325	-0.03277773	-0.1910979	0	0	0	0
19.92981	-0.03272516	-0.1910574	0.003173435	0.002442868	0.09576894	0.07372165
19.94638	-0.03272516	-0.1910574	0	0	-0.09577445	-0.07372589
19.96295	-0.03272516	-0.1910574	0	0	0	0
19.98014	-0.03272516	-0.1910574	0	0	0	0
19.99608	-0.03272516	-0.1910574	0	0	0	0
20.01272	-0.03272516	-0.1910574	0	0	0	0
20.02921	-0.03267258	-0.1909765	0.003188116	0.004908339	0.09622308	0.1481425
20.04578	-0.03267258	-0.1909765	0	0	-0.09645072	-0.148493
20.06271	-0.03267258	-0.1909765	0	0	0	0
20.07891	-0.03262001	-0.1909765	0.003244786	0	0.09793346	0
20.09548	-0.03262001	-0.1909765	0	0	-0.09901648	0
20.11274	-0.03262001	-0.1909765	0	0	0	0
20.12861	-0.03262001	-0.1909765	0	0	0	0
20.14526	-0.03262001	-0.1909765	0	0	0	0
20.16174	-0.03262001	-0.1909765	0	0	0	0
20.17831	-0.03262001	-0.1909765	0	0	0	0
20.19488	-0.03262001	-0.1909765	0	0	0	0
20.21144	-0.03262001	-0.1909765	0	0	0	0
20.22801	-0.03262001	-0.1909765	0	0	0	0
20.24458	-0.03262001	-0.1909765	0	0	0	0
20.26115	-0.03262001	-0.1909765	0	0	0	0
20.27785	-0.03262001	-0.1909765	0	0	0	0
20.29447	-0.03262001	-0.1909765	0	0	0	0
20.311	-0.03262001	-0.1909765	0	0	0	0
20.33351	-0.03262001	-0.1909765	0	0	0	0
20.35036	-0.03262001	-0.1909765	0	0	0	0
20.36664	-0.03262001	-0.1909765	0	0	0	0
20.38321	-0.03262001	-0.1909765	0	0	0	0
20.39977	-0.03262001	-0.1909765	0	0	0	0
20.41634	-0.03262001	-0.1909765	0	0	0	0
20.43291	-0.03262001	-0.1909765	0	0	0	0
20.44948	-0.03262001	-0.1909765	0	0	0	0
20.46604	-0.03259372	-0.1909967	0.001587195	-0.001221715	0.04790716	-0.03687568
20.48261	-0.03259372	-0.1909967	0	0	-0.04790441	0.03687356
20.49918	-0.03259372	-0.1909967	0	0	0	0
20.51575	-0.03259372	-0.1909967	0	0	0	0
20.53259	-0.03259372	-0.1909967	0	0	0	0
20.54891	-0.03259372	-0.1909967	0	0	0	0
20.56616	-0.03262001	-0.1909765	-0.001524185	0.001173214	-0.0454015	0.03494699
20.58201	-0.03262001	-0.1909765	0	0	0.04604505	-0.03544235
20.59862	-0.03262001	-0.1909765	0	0	0	0
20.61514	-0.03262001	-0.1909765	0	0	0	0
20.63171	-0.03262001	-0.1909765	0	0	0	0
20.64876	-0.03262001	-0.1909765	0	0	0	0
20.66485	-0.03262001	-0.1909765	0	0	0	0
20.68142	-0.03262001	-0.1909765	0	0	0	0
20.69896	-0.03262001	-0.1909765	0	0	0	0
20.71467	-0.03262001	-0.1909765	0	0	0	0
20.73112	-0.03262001	-0.1909765	0	0	0	0
20.74768	-0.03262001	-0.1909765	0	0	0	0
20.76425	-0.03262001	-0.1909765	0	0	0	0
20.78082	-0.03262001	-0.1909765	0	0	0	0
20.79738	-0.03262001	-0.1909765	0	0	0	0
20.81395	-0.03262001	-0.1909765	0	0	0	0
20.83052	-0.03262001	-0.1909765	0	0	0	0
20.84709	-0.03262001	-0.1909765	0	0	0	0
20.86365	-0.03262001	-0.1909765	0	0	0	0
20.88029	-0.03262001	-0.1909765	0	0	0	0
20.89736	-0.03262001	-0.1909765	0	0	0	0
20.91335	-0.03262001	-0.1909765	0	0	0	0
20.92992	-0.03262001	-0.1909765	0	0	0	0
20.94648	-0.03262001	-0.1909765	0	0	0	0
20.96305	-0.03262001	-0.1909765	0	0	0	0
20.97962	-0.03262001	-0.1909765	0	0	0	0
20.99654	-0.03262001	-0.1909765	0	0	0	0
21.01311	-0.03262001	-0.1909765	0	0	0	0
21.02967	-0.03262001	-0.1909765	0	0	0	0
21.04626	-0.03262001	-0.1909765	0	0	0	0
21.06281	-0.03262001	-0.1909765	0	0	0	0
21.07937	-0.03262001	-0.1909765	0	0	0	0
21.09594	-0.03262001	-0.1909765	0	0	0	0
21.11251	-0.03262001	-0.1909765	0	0	0	0
21.12908	-0.03262001	-0.1909765	0	0	0	0
21.14564	-0.03262001	-0.1909765	0	0	0	0
21.1622	-0.03262001	-0.1909765	0	0	0	0
21.17877	-0.03262001	-0.1909765	0	0	0	0
21.19534	-0.03262001	-0.1909765	0	0	0	0
21.2119	-0.03262001	-0.1909765	0	0	0	0
21.22847	-0.03262001	-0.1909765	0	0	0	0
21.24504	-0.03262001	-0.1909765	0	0	0	0
21.2616	-0.03262001	-0.1909765	0	0	0	0
21.27817	-0.03262001	-0.1909765	0	0	0	0
21.29474	-0.03262001	-0.1909765	0	0	0	0
21.3113	-0.03262001	-0.1909765	0	0	0	0
21.32787	-0.03262001	-0.1909765	0	0	0	0
21.34444	-0.03262001	-0.1909765	0	0	0	0
21.36101	-0.03262001	-0.1909765	0	0	0	0
21.37757	-0.03262001	-0.1909765	0	0	0	0
21.39439	-0.03262001	-0.1909765	0	0	0	0
21.4107	-0.03262001	-0.1909765	0	0	0	0
21.42727	-0.03262001	-0.1909765	0	0	0	0
21.44384	-0.03262001	-0.1909765	0	0	0	0
21.46061	-0.03262001	-0.1909765	0	0	0	0
21.47697	-0.03262001	-0.1909765	0	0	0	0
21.49354	-0.03262001	-0.1909765	0	0	0	0
21.51011	-0.03262001	-0.1909765	0	0	0	0
21.52678	-0.03262001	-0.1909765	0	0	0	0
21.54324	-0.03262001	-0.1909765	0	0	0	0
21.5598	-0.03262001	-0.1909765	0	0	0	0
21.5764	-0.03262001	-0.1909765	0	0	0	0
21.59353	-0.03262001	-0.1909765	0	0	0	0
21.60951	-0.03262001	-0.1909765	0	0	0	0
21.62614	-0.03262001	-0.1909765	0	0	0	0
21.64264	-0.03262001	-0.1909765	0	0	0	0
21.65921	-0.03262001	-0.1909765	0	0	0	0
21.67577	-0.03262001	-0.1909765	0	0	0	0
21.69234	-0.03262001	-0.1909765	0	0	0	0
21.7089	-0.03262001	-0.1909765	0	0	0	0
21.72547	-0.03262001	-0.1909765	0	0	0	0
21.74204	-0.03262001	-0.1909765	0	0	0	0
21.75882	-0.03262001	-0.1909765	0	0	0	0
21.77541	-0.03262001	-0.1909765	0	0	0	0
21.79196	-0.03262001	-0.1909765	0	0	0	0
21.80852	-0.03262001	-0.1909765	0	0	0	0
21.82509	-0.03262001	-0.1909765	0	0	0	0
21.84165	-0.03262001	-0.1909765	0	0	0	0
21.85822	-0.03262001	-0.1909765	0	0	0	0
21.87546	-0.03262001	-0.1909765	0	0	0	0
21.89166	-0.03262001	-0.1909765	0	0	0	0
21.90952	-0.03262001	-0.1909765	0	0	0	0
21.92609	-0.03262001	-0.1909765	0	0	0	0
21.94265	-0.03262001	-0.1909765	0	0	0	0
21.95922	-0.03262001	-0.1909765	0	0	0	0
21.97579	-0.03262001	-0.1909765	0	0	0	0
21.99235	-0.03262001	-0.1909765	0	0	0	0
22.00892	-0.03262001	-0.1909765	0	0	0	0
22.02601	-0.03262001	-0.1909765	0	0	0	0
22.04276	-0.03262001	-0.1909765	0	0	0	0
22.05862	-0.03262001	-0.1909765	0	0	0	0
22.07522	-0.03262001	-0.1909765	0	0	0	0
22.09209	-0.03262001	-0.1909765	0	0	0	0
22.10857	-0.03262001	-0.1909765	0	0	0	0
22.12514	-0.03262001	-0.1909765	0	0	0	0
22.14227	-0.03262001	-0.1909765	0	0	0	0
22.16011	-0.03262001	-0.1909765	0	0	0	0
22.17679	-0.03262001	-0.1909765	0	0	0	0
22.19324	-0.03262001	-0.1909765	0	0	0	0
22.20981	-0.03262001	-0.1909765	0	0	0	0
22.22642	-0.03262001	-0.1909765	0	0	0	0
22.24295	-0.03262001	-0.1909765	0	0	0	0
22.25951	-0.03262001	-0.1909765	0	0	0	0
22.27608	-0.03262001	-0.1909765	0	0	0	0
22.29265	-0.03262001	-0.1909765	0	0	0	0
22.31538	-0.03262001	-0.1909765	0	0	0	0
22.33197	-0.03262001	-0.1909765	0	0	0	0
22.34852	-0.03262001	-0.1909765	0	0	0	0
22.36559	-0.03262001	-0.1909765	0	0	0	0
22.38165	-0.03262001	-0.1909765	0	0	0	0
22.39822	-0.03264629	-0.1909562	-0.001586605	0.001221434	-0.04863127	0.03743836
22.41479	-0.03264629	-0.1909562	0	0	0.04788383	-0.03686295
22.43135	-0.03264629	-0.1909562	0	0	0	0
22.44792	-0.03269887	-0.1908753	-0.0031738	0.004885399	-0.09579099	0.1474501
22.46449	-0.03269887	-0.1908753	0	0	0.09579099	-0.1474501
22.48116	-0.03269887	-0.1908753	0	0	0	0
22.49762	-0.03280402	-0.190228	-0.006387314	0.03932319	-0.1927695	1.186776
22.51419	-0.03280402	-0.190228	0	0	0.1933818	-1.190545
22.53075	-0.03280402	-0.190228	0	0	0	0
22.54732	-0.02010255	-0.1756119	0.7668383	0.8824319	23.14722	26.63645
22.56389	-0.02010255	-0.1756119	0	0	-23.14456	-26.63338
22.58045	-0.02010255	-0.1756119	0	0	0	0
22.59702	0.01563031	-0.1287868	2.157336	2.827019	65.11604	85.32944
22.61359	0.01563031	-0.1287868	0	0	-65.11229	-85.32453
22.63017	0.01563031	-0.1287868	0	0	0	0
22.64672	0.03030651	-0.1019835	0.886776	1.619526	26.76604	48.88303
22.66376	0.03030651	-0.1019835	0	0	-26.39376	-48.20313
22.67986	0.03030651	-0.1019835	0	0	0	0
22.69642	0.04163382	-0.08827828	0.6837181	0.8272494	20.93594	25.33097
22.71299	0.04163382	-0.08827828	0	0	-20.63465	-24.96644
22.72956	0.04163382	-0.08827828	0	0	0	0
22.74612	0.05295046	-0.06374393	0.6832308	1.481238	20.62232	44.70898
22.76269	0.05295046	-0.06374393	0	0	-20.62113	-44.70641
22.77925	0.05295046	-0.06374393	0	0	0	0
22.79595	0.06614023	-0.04342487	0.7898616	1.216794	23.74512	36.57974
22.81239	0.06614023	-0.04342487	0	0	-23.83807	-36.72293
22.82896	0.06614023	-0.04342487	0	0	0	0
22.84552	0.06923129	-0.03389768	0.1865982	0.5751286	5.631869	17.35842
22.86209	0.06923129	-0.03389768	0	0	-5.631869	-17.35842
22.87897	0.06923129	-0.03389768	0	0	0	0
22.89527	0.06147507	-0.02823364	-0.4761141	0.3476866	-14.35098	10.47993
22.91179	0.06147507	-0.02823364	0	0	14.50863	-10.59505
22.92835	0.06147507	-0.02823364	0	0	0	0
22.94492	0.06026903	-0.02717041	-0.07280535	0.06418371	-2.197649	1.937403
22.96149	0.06026903	-0.02717041	0	0	2.197143	-1.936957
22.97805	0.06026903	-0.02717041	0	0	0	0
22.99462	0.0704621	-0.01884802	0.6152551	0.5023406	18.57164	15.16329
23.01129	0.0704621	-0.01884802	0	0	-18.51302	-15.11542
23.02798	0.0704621	-0.01884802	0	0	0	0
23.04432	0.06697861	0.0107224	-0.2131596	1.809456	-6.452112	54.77027
23.06095	0.06697861	0.0107224	0	0	6.466298	-54.89069
23.07746	0.06697861	0.0107224	0	0	0	0
23.09402	0.05533818	0.03894213	-0.7026177	1.703347	-21.24173	51.49604
23.11062	0.05533818	0.03894213	0	0	21.18431	-51.35685
23.1272	0.05533818	0.03894213	0	0	0	0
23.14372	0.0520057	0.0508191	-0.2017531	0.7190472	-6.095587	21.72465
23.16029	0.0520057	0.0508191	0	0	6.097695	-21.73216
23.17686	0.0520057	0.0508191	0	0	0	0
23.19342	0.04581003	0.05519632	-0.3740572	0.2642704	-11.29037	7.976614
23.20999	0.04581003	0.05519632	0	0	11.28972	-7.976155
23.22656	0.04581003	0.05519632	0	0	0	0
23.24312	0.04604638	0.05610453	0.01426573	0.05481994	0.4305405	1.654469
23.25969	0.04604638	0.05610453	0	0	-0.4305405	-1.654469
23.27626	0.04604638	0.05610453	0	0	0	0
23.29282	0.05360649	0.08472953	0.4563818	1.728007	13.77442	52.15437
23.30952	0.05360649	0.08472953	0	0	-13.72229	-51.95696
23.32598	0.05360649	0.08472953	0	0	0	0
23.34253	0.05155953	0.09528135	-0.12374	0.6378636	-3.748724	19.32418
23.35909	0.05155953	0.09528135	0	0	3.737278	-19.26518
23.37566	0.05155953	0.09528135	0	0	0	0
23.39223	0.05226814	0.09581379	0.042772	0.03213819	1.290861	0.9699326
23.40879	0.05226814	0.09581379	0	0	-1.290861	-0.9699326
23.42536	0.05226814	0.09581379	0	0	0	0
23.44193	0.05229438	0.09579543	0.001584496	-0.00110836	0.0478257	-0.03345423
23.45849	0.05229438	0.09579543	0	0	-0.04782294	0.03345231
23.47506	0.05229438	0.09579543	0	0	0	0
23.49162	0.05229438	0.09579543	0	0	0	0
23.50824	0.05229438	0.09579543	0	0	0	0
23.52476	0.05229438	0.09579543	0	0	0	0
23.54137	0.05232063	0.09577707	0.001579724	-0.001105178	0.04767341	-0.03335243
23.5579	0.05232063	0.09577707	0	0	-0.04767615	0.03335435
23.57446	0.05232063	0.09577707	0	0	0	0
23.59103	0.05232063	0.09577707	0	0	0	0
23.6076	0.05232063	0.09577707	0	0	0	0
23.62416	0.05232063	0.09577707	0	0	0	0
23.64073	0.05237311	0.09570363	0.003168992	-0.004433891	0.0956514	-0.1338305
23.6573	0.05237311	0.09570363	0	0	-0.09564589	0.1338228
23.71905	0.05237311	0.09570363	0	0	0	0
23.74313	0.05263555	0.09548331	0.01089821	-0.009149443	0.1269733	-0.1065987
23.7597	0.05263555	0.09548331	0	0	-0.2680898	0.2250712
23.77626	0.05268803	0.09544659	0.003168768	-0.00221672	0.0956336	-0.06690076
23.79283	0.05268803	0.09544659	0	0	-0.09564461	0.06690846
23.80958	0.05268803	0.09544659	0	0	0	0
23.82596	0.05276676	0.09524462	0.004807517	-0.01233294	0.1450995	-0.3722303
23.84253	0.05276676	0.09524462	0	0	-0.1459228	0.3743422
23.8591	0.05276676	0.09524462	0	0	0	0
23.87566	0.0529767	0.09465702	0.01267339	-0.03547199	0.3825056	-1.070608
23.89223	0.0529767	0.09465702	0	0	-0.3825056	1.070608
23.9088	0.0529767	0.09465702	0	0	0	0
23.92536	0.05295046	0.09463865	-0.001584496	-0.00110881	-0.0478257	-0.03346781
23.94193	0.05295046	0.09463865	0	0	0.04782294	0.03346588
23.9585	0.05295046	0.09463865	0	0	0	0
23.97506	0.05644	0.09087249	0.2107018	-0.2274047	6.359724	-6.863877
23.99163	0.05644	0.09087249	0	0	-6.359724	6.863877
24.0082	0.05644	0.09087249	0	0	0	0
24.02476	0.07198069	0.04758866	0.9382544	-2.613219	28.31983	-78.87619
24.04133	0.07198069	0.04758866	0	0	-28.3182	78.87164
24.0579	0.07198069	0.04758866	0	0	0	0
24.07446	0.0562826	-0.02770198	-0.9476477	-4.545075	-28.60171	-137.1785
24.09103	0.0562826	-0.02770198	0	0	28.60171	137.1785
24.1076	0.0562826	-0.02770198	0	0	0	0
24.12416	0.0459676	-0.1008533	-0.6226149	-4.415421	-18.79056	-133.2577
24.14073	0.0459676	-0.1008533	0	0	18.79164	133.2654
24.1573	0.0459676	-0.1008533	0	0	0	0
24.17483	0.04872456	-0.1410499	0.1572673	-2.292963	4.612258	-67.2469
24.19043	0.04872456	-0.1410499	0	0	-4.746335	69.20175
24.20741	0.04872456	-0.1410499	0	0	0	0
24.22356	0.05203194	-0.148704	0.2048216	-0.4740054	6.18224	-14.30716
24.24013	0.05203194	-0.148704	0	0	-6.26045	14.48816
24.2567	0.05203194	-0.148704	0	0	0	0
24.27326	0.03288288	-0.1631876	-1.15584	-0.8742337	-34.88331	-26.38442
24.28984	0.03288288	-0.1631876	0	0	34.87327	26.37683
24.3064	0.03288288	-0.1631876	0	0	0	0
24.32296	0.02097061	-0.1722185	-0.7191917	-0.5452313	-21.714	-16.46175
24.33953	0.02097061	-0.1722185	0	0	21.70775	16.45701
24.35626	0.02097061	-0.1722185	0	0	0	0
24.37266	0.01849789	-0.1741053	-0.1507462	-0.1150254	-4.54979	-3.471674
24.38923	0.01849789	-0.1741053	0	0	4.572163	3.488746
24.40602	0.01849789	-0.1741053	0	0	0	0
24.42236	0.01741929	-0.1749288	-0.06598566	-0.05037741	-1.991566	-1.520481
24.43893	0.01741929	-0.1749288	0	0	2.004722	1.530525
24.4555	0.01741929	-0.1749288	0	0	0	0
24.47206	0.01731406	-0.1748484	-0.006351704	0.004850658	-0.1916948	0.1463931
24.48863	0.01731406	-0.1748484	0	0	0.1917058	-0.1464016
24.50569	0.01731406	-0.1748484	0	0	0	0
24.52176	0.01720883	-0.1746877	-0.00654859	0.009999073	-0.1976596	0.3018074
24.53833	0.01720883	-0.1746877	0	0	0.2006398	-0.3063578
24.55503	0.01720883	-0.1746877	0	0	0	0
24.57146	0.0171036	-0.1746074	-0.006404908	0.004890295	-0.1933228	0.1476064
24.58803	0.0171036	-0.1746074	0	0	0.1940938	-0.1481951
24.6046	0.0171036	-0.1746074	0	0	0	0
24.62116	0.01691944	-0.1744668	-0.01111835	0.008488132	-0.3355911	0.2562018
24.63773	0.01691944	-0.1744668	0	0	0.3355718	-0.2561871
24.6543	0.01691944	-0.1744668	0	0	0	0
24.67086	0.01689313	-0.1744869	-0.00158832	-0.001212719	-0.0479411	-0.03660414
24.68743	0.01689313	-0.1744869	0	0	0.04793835	0.03660203
24.704	0.01689313	-0.1744869	0	0	0	0
24.72082	0.01686682	-0.174507	-0.001564006	-0.001194155	-0.04684316	-0.03576583
24.73713	0.01686682	-0.174507	0	0	0.04720723	0.03604381
24.75384	0.01686682	-0.174507	0	0	0	0
24.77026	0.01686682	-0.174507	0	0	0	0
24.78683	0.01686682	-0.174507	0	0	0	0
24.8038	0.01686682	-0.174507	0	0	0	0
24.81996	0.01686682	-0.174507	0	0	0	0
24.83653	0.01686682	-0.174507	0	0	0	0
24.85317	0.01686682	-0.174507	0	0	0	0
24.86974	0.01684051	-0.1744869	-0.001587588	0.00121216	-0.04779796	0.03649484
24.88636	0.01684051	-0.1744869	0	0	0.04783641	-0.03652421
24.90303	0.01684051	-0.1744869	0	0	0	0
24.91936	0.01676159	-0.1744266	-0.004832405	0.003689565	-0.1464323	0.1118018
24.93593	0.01676159	-0.1744266	0	0	0.1468822	-0.1121453
24.95249	0.01676159	-0.1744266	0	0	0	0
24.96906	0.0164985	-0.1742258	-0.01588171	0.01212309	-0.4793384	0.3658967
24.98562	0.0164985	-0.1742258	0	0	0.479366	-0.3659178
25.00239	0.0164985	-0.1742258	0	0	0	0
25.01889	0.01644589	-0.1741856	-0.003189863	0.002434631	-0.09590039	0.07319501
25.03533	0.01644589	-0.1741856	0	0	0.09685568	-0.07392412
25.05189	0.01644589	-0.1741856	0	0	0	0
25.06846	0.01644589	-0.1741856	0	0	0	0
25.08503	0.01644589	-0.1741856	0	0	0	0
25.10159	0.01644589	-0.1741856	0	0	0	0
25.11817	0.01644589	-0.1741856	0	0	0	0
25.13473	0.01644589	-0.1741856	0	0	0	0
25.15129	0.01644589	-0.1741856	0	0	0	0
25.16786	0.01639327	-0.1741856	-0.003176386	0	-0.09587456	0
25.18443	0.01639327	-0.1741856	0	0	0.09586353	0
25.20099	0.01639327	-0.1741856	0	0	0	0
25.21756	0.01615649	-0.1743262	-0.01429368	-0.008486255	-0.4314339	-0.2561452
25.23413	0.01615649	-0.1743262	0	0	0.4313842	0.2561157
25.2507	0.01615649	-0.1743262	0	0	0	0
25.26732	0.002789466	-0.1844305	-0.8043348	-0.608004	-24.23442	-18.31902
25.28383	0.002789466	-0.1844305	0	0	24.27487	18.3496
25.30044	0.002789466	-0.1844305	0	0	0	0
25.31714	-0.01860312	-0.2007715	-1.281082	-0.9785748	-38.46386	-29.38123
25.33353	-0.01860312	-0.2007715	0	0	38.71439	29.5726
25.3501	-0.01860312	-0.2007715	0	0	0	0
25.36667	-0.02588895	-0.2064092	-0.4396726	-0.3402106	-13.26858	-10.26699
25.38324	-0.02588895	-0.2064092	0	0	13.26782	10.2664
25.40035	-0.02588895	-0.2064092	0	0	0	0
25.41636	-0.02654639	-0.2069187	-0.04106868	-0.03182991	-1.239741	-0.9608498
25.43293	-0.02654639	-0.2069187	0	0	1.260645	0.9770515
25.44967	-0.02654639	-0.2069187	0	0	0	0
25.46626	-0.02654639	-0.2068779	0	0.002456332	0	0.07369529
25.48267	-0.02654639	-0.2068779	0	0	0	-0.07441926
25.4992	-0.02654639	-0.2068779	0	0	0	0
25.51576	-0.02654639	-0.2068372	0	0.002461423	0	0.07438439
25.53244	-0.02654639	-0.2068372	0	0	0	-0.07405145
25.54907	-0.02654639	-0.2068372	0	0	0	0
25.56576	-0.02659899	-0.2067557	-0.00315206	0.004885938	-0.09459572	0.1466307
25.58212	-0.02659899	-0.2067557	0	0	0.09539844	-0.147875
25.5986	-0.02659899	-0.2067557	0	0	0	0
25.61516	-0.02696715	-0.2064296	-0.0222297	0.01969006	-0.672675	0.5958248
25.63173	-0.02696715	-0.2064296	0	0	0.6710097	-0.5943497
25.64891	-0.02696715	-0.2064296	0	0	0	0
25.66488	-0.03046426	-0.2036394	-0.219003	0.1747324	-6.607242	5.271613
25.68143	-0.03046426	-0.2036394	0	0	6.733954	-5.37271
25.698	-0.03046426	-0.2036394	0	0	0	0
25.71457	-0.03038538	-0.2036597	0.004759731	-0.001228347	0.1436324	-0.03706731
25.73113	-0.03038538	-0.2036597	0	0	-0.143649	0.03707157
25.7477	-0.03038538	-0.2036597	0	0	0	0
25.76426	-0.03041167	-0.2036394	-0.001586942	0.001228629	-0.04789677	0.03708224
25.78083	-0.03041167	-0.2036394	0	0	0.04789401	-0.03708011
25.7974	-0.03041167	-0.2036394	0	0	0	0
25.81396	-0.03041167	-0.2036394	0	0	0	0
25.83053	-0.03041167	-0.2036394	0	0	0	0
25.8471	-0.03041167	-0.2036394	0	0	0	0
25.86366	-0.03038538	-0.2036597	0.001587308	-0.001228912	0.04791056	-0.03709292
25.88023	-0.03038538	-0.2036597	0	0	-0.0479078	0.03709079
25.8972	-0.03038538	-0.2036597	0	0	0	0
25.91336	-0.03041167	-0.2036394	-0.001626068	0.001258921	-0.04907766	0.0379965
25.92993	-0.03041167	-0.2036394	0	0	0.04967244	-0.03845699
25.9465	-0.03041167	-0.2036394	0	0	0	0
25.96306	-0.03038538	-0.203619	0.001587308	0.001228912	0.04791056	0.03709292
25.97963	-0.03038538	-0.203619	0	0	-0.0479078	-0.03709079
25.9962	-0.03038538	-0.203619	0	0	0	0
26.0168	-0.03038538	-0.2035376	0	0.003951823	0	0.1063273
26.03337	-0.03038538	-0.2035376	0	0	0	-0.1063109
26.05011	-0.03035909	-0.2034765	0.001570668	0.003648089	0.04715043	0.1095133
26.06651	-0.03035909	-0.2034765	0	0	-0.04740285	-0.1100995
26.08307	-0.03035909	-0.2034765	0	0	0	0
26.09982	-0.03043796	-0.2033341	-0.004710929	0.008508487	-0.1414272	0.2554339
26.11621	-0.03043796	-0.2033341	0	0	0.1421843	-0.2568014
26.13277	-0.03043796	-0.2033341	0	0	0	0
26.14936	-0.04176517	-0.1945	-0.6828468	0.5325508	-20.5965	16.06317
26.1659	-0.04176517	-0.1945	0	0	20.61073	-16.07426
26.18247	-0.04176517	-0.1945	0	0	0	0
26.20591	-0.05106084	-0.1873374	-0.3965829	0.3055807	-9.912928	7.63825
26.22248	-0.05106084	-0.1873374	0	0	9.912928	-7.63825
26.23904	-0.0510346	-0.1873172	0.001584131	0.001219635	0.04780918	0.03680866
26.25561	-0.0510346	-0.1873172	0	0	-0.04780643	-0.03680654
26.27218	-0.0510346	-0.1873172	0	0	0	0
26.28874	-0.0510346	-0.1873172	0	0	0	0
26.30531	-0.0510346	-0.1873172	0	0	0	0
26.32188	-0.0510346	-0.1873172	0	0	0	0
26.33844	-0.0510346	-0.1873172	0	0	0	0
26.35501	-0.0510346	-0.1873172	0	0	0	0
26.37158	-0.0510346	-0.1873172	0	0	0	0
26.38814	-0.0510346	-0.1873172	0	0	0	0
26.40525	-0.0510346	-0.1873172	0	0	0	0
26.42128	-0.0510346	-0.1873172	0	0	0	0
26.43819	-0.0509821	-0.1873172	0.00310368	0	0.09422249	0
26.45477	-0.0509821	-0.1873172	0	0	-0.09268754	0
26.47149	-0.0509821	-0.1873172	0	0	0	0
26.48806	-0.05095585	-0.1873374	0.001583809	-0.001219214	0.04756399	-0.03661469
26.50447	-0.05095585	-0.1873374	0	0	-0.04803171	0.03697474
26.52103	-0.05095585	-0.1873374	0	0	0	0
26.5376	-0.05095585	-0.1873374	0	0	0	0
26.55416	-0.05095585	-0.1873374	0	0	0	0
26.57127	-0.05095585	-0.1873374	0	0	0	0
26.58729	-0.05095585	-0.1873374	0	0	0	0
26.60387	-0.05095585	-0.1873374	0	0	0	0
26.62108	-0.05095585	-0.1873374	0	0	0	0
26.637	-0.05095585	-0.1873374	0	0	0	0
26.65357	-0.05095585	-0.1873374	0	0	0	0
26.67013	-0.05095585	-0.1873374	0	0	0	0
26.6867	-0.05095585	-0.1873374	0	0	0	0
26.70327	-0.05095585	-0.1873374	0	0	0	0
26.71983	-0.05095585	-0.1873374	0	0	0	0
26.7364	-0.05092961	-0.1873172	0.001584131	0.001219635	0.04780918	0.03680866
26.75297	-0.05092961	-0.1873172	0	0	-0.04780918	-0.03680866
26.76954	-0.05092961	-0.1873172	0	0	0	0
26.7861	-0.05092961	-0.1873172	0	0	0	0
26.8028	-0.05092961	-0.1873172	0	0	0	0
26.81924	-0.05092961	-0.1873172	0	0	0	0
26.8358	-0.05027339	-0.1868123	0.03960913	0.03047828	1.200242	0.9235579
26.85237	-0.05027339	-0.1868123	0	0	-1.195406	-0.9198364
26.86932	-0.05027339	-0.1868123	0	0	0	0
26.8855	-0.04974839	-0.1864084	0.03243601	0.02495286	0.9790333	0.7531657
26.90217	-0.04974839	-0.1864084	0	0	-0.9871602	-0.7594176
26.9189	-0.04974839	-0.1864084	0	0	0	0
26.93835	-0.04940713	-0.1865901	0.01754633	-0.009344047	0.4850688	-0.2583165
26.95492	-0.04940713	-0.1865901	0	0	-0.4871236	0.2594107
26.97149	-0.04940713	-0.1865901	0	0	0	0
26.98826	-0.04938088	-0.1866103	0.001565299	-0.001203905	0.04695162	-0.0361115
27.00472	-0.04938088	-0.1866103	0	0	-0.04710253	0.03622757
27.02118	-0.04938088	-0.1866103	0	0	0	0
27.03776	-0.04888208	-0.1861863	0.03010034	0.02558845	0.9110521	0.7744902
27.05432	-0.04888208	-0.1861863	0	0	-0.9084823	-0.7723055
27.07088	-0.04888208	-0.1861863	0	0	0	0
27.08745	-0.04730678	-0.1849752	0.09510711	0.07311579	2.870669	2.206893
27.10402	-0.04730678	-0.1849752	0	0	-2.870503	-2.206766
27.12058	-0.04730678	-0.1849752	0	0	0	0
27.13715	-0.04725427	-0.1849752	0.003170202	0	0.09568239	0
27.15388	-0.04725427	-0.1849752	0	0	-0.09521648	0
27.17033	-0.04725427	-0.1849752	0	0	0	0
27.18685	-0.04725427	-0.1849349	0	0.002443605	0	0.07411934
27.20359	-0.04725427	-0.1849349	0	0	0	-0.07346059
27.22001	-0.04725427	-0.1849349	0	0	0	0
27.23655	-0.04686041	-0.1846322	0.02381456	0.01829914	0.7225515	0.5552096
27.25312	-0.04686041	-0.1846322	0	0	-0.7193461	-0.5527465
27.26977	-0.04686041	-0.1846322	0	0	0	0
27.28625	-0.04541612	-0.1835632	0.08764174	0.06487178	2.645337	1.95806
27.30282	-0.04541612	-0.1835632	0	0	-2.651902	-1.962919
27.31939	-0.04541612	-0.1835632	0	0	0	0
27.33612	-0.02886041	-0.1709749	0.9890566	0.7520368	29.69594	22.57954
27.35252	-0.02886041	-0.1709749	0	0	-29.85151	-22.69782
27.36909	-0.02886041	-0.1709749	0	0	0	0
27.38565	-0.01728775	-0.1622086	0.6986071	0.5291963	21.08401	15.97118
27.40222	-0.01728775	-0.1622086	0	0	-21.08401	-15.97118
27.41882	-0.01728775	-0.1622086	0	0	0	0
27.43536	-0.01720883	-0.1622685	0.004771553	-0.003623371	0.1440058	-0.1093536
27.45192	-0.01720883	-0.1622685	0	0	-0.1441219	0.1094418
27.46849	-0.01720883	-0.1622685	0	0	0	0
27.48506	-0.01699836	-0.1624683	0.01270374	-0.01205784	0.3833998	-0.3639062
27.50163	-0.01699836	-0.1624683	0	0	-0.3833998	0.3639062
27.51821	-0.01699836	-0.1624683	0	0	0	0
27.53478	-0.01557769	-0.1637073	0.08569291	-0.07473467	2.584283	-2.25381
27.55132	-0.01557769	-0.1637073	0	0	-2.587409	2.256536
27.56789	-0.01557769	-0.1637073	0	0	0	0
27.58446	-0.0142885	-0.164687	0.07781543	-0.05913341	2.348474	-1.78465
27.60102	-0.0142885	-0.164687	0	0	-2.348745	1.784855
27.61759	-0.0142885	-0.164687	0	0	0	0
27.63416	-0.0142885	-0.164687	0	0	0	0
27.65072	-0.0142885	-0.164687	0	0	0	0
27.66729	-0.0142885	-0.164687	0	0	0	0
27.68386	-0.0142885	-0.164687	0	0	0	0
27.70043	-0.0142885	-0.164687	0	0	0	0
27.71699	-0.0142885	-0.164687	0	0	0	0
27.73356	-0.0142885	-0.164687	0	0	0	0
27.79328	-0.0142885	-0.164687	0	0	0	0
27.80985	-0.0142885	-0.164687	0	0	0	0
27.82693	-0.0142885	-0.164687	0	0	0	0
27.8435	-0.0142885	-0.164687	0	0	0	0
27.86007	-0.0142885	-0.164687	0	0	0	0
27.87663	-0.0142885	-0.164687	0	0	0	0
27.8932	-0.0142885	-0.164687	0	0	0	0
27.90977	-0.0142885	-0.164687	0	0	0	0
27.92633	-0.01431481	-0.164667	-0.001588306	0.001207182	-0.04793792	0.03643492
27.9429	-0.01431481	-0.164667	0	0	0.0479324	-0.03643073
27.95947	-0.01431481	-0.164667	0	0	0	0
27.97603	-0.01431481	-0.164667	0	0	0	0
27.99261	-0.01431481	-0.164667	0	0	0	0
28.00917	-0.01431481	-0.164667	0	0	0	0
28.02573	-0.01431481	-0.164667	0	0	0	0
28.0423	-0.01431481	-0.164667	0	0	0	0
28.05887	-0.01431481	-0.164667	0	0	0	0
28.07543	-0.01431481	-0.164667	0	0	0	0
28.092	-0.01431481	-0.164667	0	0	0	0
28.10857	-0.01431481	-0.164667	0	0	0	0
28.12513	-0.01431481	-0.164667	0	0	0	0
28.1417	-0.01431481	-0.164667	0	0	0	0
28.15827	-0.01431481	-0.164667	0	0	0	0
28.17483	-0.01431481	-0.164667	0	0	0	0
28.1914	-0.01431481	-0.164667	0	0	0	0
28.20797	-0.01431481	-0.164667	0	0	0	0
28.22453	-0.01431481	-0.164667	0	0	0	0
28.2411	-0.01431481	-0.164667	0	0	0	0
28.25767	-0.01431481	-0.164667	0	0	0	0
28.27423	-0.01431481	-0.164667	0	0	0	0
28.2908	-0.01431481	-0.164667	0	0	0	0
28.30776	-0.01431481	-0.164667	0	0	0	0
28.32432	-0.01431481	-0.164667	0	0	0	0
28.34103	-0.01431481	-0.164667	0	0	0	0
28.35746	-0.01431481	-0.164667	0	0	0	0
28.37403	-0.01431481	-0.164707	0	-0.002414086	0	-0.07316048
28.39059	-0.01431481	-0.164707	0	0	0	0.07285726
28.40725	-0.01431481	-0.164707	0	0	0	0
28.42373	-0.01431481	-0.164707	0	0	0	0
28.44029	-0.01431481	-0.164707	0	0	0	0
28.45686	-0.01431481	-0.164707	0	0	0	0
28.47343	-0.01436743	-0.164707	-0.003176189	0	-0.09585758	0
28.49	-0.01436743	-0.164707	0	0	0.09585758	0
28.50656	-0.01436743	-0.164707	0	0	0	0
28.52313	-0.01434112	-0.164687	0.001588066	0.001207043	0.04792794	0.03642863
28.5397	-0.01434112	-0.164687	0	0	-0.04792794	-0.03642863
28.55626	-0.01434112	-0.164687	0	0	0	0
28.57288	-0.01436743	-0.164707	-0.001583509	-0.001203579	-0.04772171	-0.03627188
28.58945	-0.01436743	-0.164707	0	0	0.04771623	0.03626771
28.60623	-0.01436743	-0.164707	0	0	0	0
28.62253	-0.01434112	-0.164687	0.001614082	0.001226817	0.04880017	0.03709159
28.6391	-0.01434112	-0.164687	0	0	-0.04910316	-0.03732188
28.65566	-0.01434112	-0.164687	0	0	0	0
28.67271	-0.01436743	-0.164707	-0.001543465	-0.001173143	-0.04591841	-0.03490124
28.6888	-0.01436743	-0.164707	0	0	0.04658454	0.03540755
28.70545	-0.01436743	-0.164707	0	0	0	0
28.72201	-0.01434112	-0.164727	0.001589164	-0.001207877	0.04785089	-0.03637007
28.7385	-0.01434112	-0.164727	0	0	-0.04809118	0.0365527
28.75507	-0.01434112	-0.164727	0	0	0	0
28.77163	-0.01436743	-0.164747	-0.001588981	-0.001207738	-0.04795831	-0.03645171
28.7882	-0.01436743	-0.164747	0	0	0.04796659	0.036458
28.80477	-0.01436743	-0.164747	0	0	0	0
28.82133	-0.01436743	-0.164747	0	0	0	0
28.8379	-0.01436743	-0.164747	0	0	0	0
28.85447	-0.01436743	-0.164747	0	0	0	0
28.87103	-0.01436743	-0.164747	0	0	0	0
28.8876	-0.01436743	-0.164747	0	0	0	0
28.90417	-0.01436743	-0.164747	0	0	0	0
28.92073	-0.01436743	-0.164747	0	0	0	0
28.9373	-0.01436743	-0.164747	0	0	0	0
28.95387	-0.01436743	-0.164747	0	0	0	0
28.97284	-0.01436743	-0.164747	0	0	0	0
28.98946	-0.01436743	-0.164747	0	0	0	0
29.00613	-0.01436743	-0.164747	0	0	0	0
29.02254	-0.01436743	-0.164747	0	0	0	0
29.03911	-0.01436743	-0.164747	0	0	0	0
29.05568	-0.01436743	-0.164747	0	0	0	0
29.07224	-0.01439374	-0.164727	-0.001588488	0.001207321	-0.0479462	0.03644121
29.08881	-0.01439374	-0.164727	0	0	0.04794344	-0.03643912
29.106	-0.01439374	-0.164727	0	0	0	0
29.12213	-0.01439374	-0.164727	0	0	0	0
29.13851	-0.01439374	-0.164727	0	0	0	0
29.15525	-0.01439374	-0.164727	0	0	0	0
29.17691	-0.01436743	-0.164747	0.001214406	-0.0009230016	0.03162147	-0.0240337
29.19354	-0.01436743	-0.164747	0	0	-0.0317144	0.02410434
29.21005	-0.01436743	-0.164747	0	0	0	0
29.22662	-0.01436743	-0.164747	0	0	0	0
29.24319	-0.01436743	-0.164747	0	0	0	0
29.25975	-0.01436743	-0.164747	0	0	0	0
29.27632	-0.01436743	-0.164747	0	0	0	0
29.29289	-0.01436743	-0.164747	0	0	0	0
29.3098	-0.01444636	-0.164807	-0.00466548	-0.003546893	-0.1393287	-0.1059235
29.32602	-0.01444636	-0.164807	0	0	0.1408126	0.1070516
29.34258	-0.01444636	-0.164807	0	0	0	0
29.35915	-0.01631434	-0.1663074	-0.1127384	-0.09055378	-3.402453	-2.732918
29.37572	-0.01631434	-0.1663074	0	0	3.402257	2.732761
29.39229	-0.01631434	-0.1663074	0	0	0	0
29.40918	-0.01915555	-0.1684296	-0.1681846	-0.1256254	-5.026346	-3.754425
29.42542	-0.01915555	-0.1684296	0	0	5.075822	3.791382
29.44199	-0.01915555	-0.1684296	0	0	0	0
29.45855	-0.01920816	-0.1684296	-0.003177146	0	-0.09589751	0
29.47576	-0.01920816	-0.1684296	0	0	0.09409364	0
29.49169	-0.01920816	-0.1684296	0	0	0	0
29.50866	-0.01947122	-0.16867	-0.01550174	-0.01416471	-0.4711794	-0.4305402
29.52524	-0.01947122	-0.16867	0	0	0.4620189	0.4221697
29.54139	-0.01947122	-0.16867	0	0	0	0
29.55795	-0.03766639	-0.1825753	-1.098642	-0.8396147	-33.58432	-25.66614
29.57481	-0.03766639	-0.1825753	0	0	32.8751	25.12413
29.59114	-0.03766639	-0.1825753	0	0	0	0
29.60855	-0.08555381	-0.2195951	-2.750225	-2.126088	-81.50988	-63.012
29.62512	-0.08555381	-0.2195951	0	0	80.92887	62.56285
29.65115	-0.08555381	-0.2195951	0	0	0	0
29.66772	-0.1190398	-0.2460985	-2.021217	-1.599748	-47.45208	-37.55727
29.68429	-0.1190398	-0.2460985	0	0	60.99694	48.27772
29.70086	-0.1190398	-0.2460985	0	0	0	0
29.71742	-0.1283433	-0.2537388	-0.5616248	-0.4612209	-16.95085	-13.92047
29.73399	-0.1283433	-0.2537388	0	0	16.94987	13.91967
29.75056	-0.1283433	-0.2537388	0	0	0	0
29.76712	-0.1452849	-0.2673866	-1.022597	-0.8237861	-30.86383	-24.86335
29.78369	-0.1452849	-0.2673866	0	0	30.86205	24.86192
29.80029	-0.1452849	-0.2673866	0	0	0	0
29.81682	-0.1542131	-0.2743104	-0.5402175	-0.4189339	-16.30567	-12.64491
29.83339	-0.1542131	-0.2743104	0	0	16.32259	12.65802
29.84995	-0.1542131	-0.2743104	0	0	0	0
29.86652	-0.1545215	-0.2743526	-0.01861023	-0.002545404	-0.5617225	-0.07682928
29.88309	-0.1545215	-0.2743526	0	0	0.5616578	0.07682043
29.89966	-0.1545215	-0.2743526	0	0	0	0
29.91622	-0.1549325	-0.2746899	-0.02481094	-0.02036323	-0.7487525	-0.6145281
29.93279	-0.1549325	-0.2746899	0	0	0.7487956	0.6145635
29.94936	-0.1549325	-0.2746899	0	0	0	0
29.96592	-0.1551894	-0.2746478	-0.01550538	0.002545404	-0.4679801	0.07682485
29.98249	-0.1551894	-0.2746478	0	0	0.4679801	-0.07682485
29.99922	-0.1551894	-0.2746478	0	0	0	0
30.01563	-0.1555233	-0.2744158	-0.02035228	0.01413734	-0.614127	0.426592
30.0322	-0.1555233	-0.2744158	0	0	0.6172175	-0.4287388
30.04905	-0.1555233	-0.2744158	0	0	0	0
30.06538	-0.155549	-0.2743947	-0.001572901	0.001291895	-0.0473993	0.03893121
30.0819	-0.155549	-0.2743947	0	0	0.0478837	-0.03932907
30.09847	-0.155549	-0.2743947	0	0	0	0
30.11502	-0.1557031	-0.2745634	-0.009307495	-0.01019045	-0.2809654	-0.3076193
30.1316	-0.1557031	-0.2745634	0	0	0.2809493	0.3076016
30.14826	-0.1557031	-0.2745634	0	0	0	0
30.16472	-0.1599123	-0.2781093	-0.2557168	-0.215415	-7.719326	-6.502734
30.18129	-0.1599123	-0.2781093	0	0	7.741613	6.521509
30.19786	-0.1599123	-0.2781093	0	0	0	0
30.2147	-0.1837967	-0.2980962	-1.417836	-1.186469	-42.43859	-35.51332
30.23099	-0.1837967	-0.2980962	0	0	42.78791	35.80563
30.24756	-0.1837967	-0.2980962	0	0	0	0
30.26412	-0.1982051	-0.3104395	-0.8700931	-0.7453892	-26.264	-22.49977
30.28083	-0.1982051	-0.3104395	0	0	26.15258	22.40432
30.29761	-0.1982051	-0.3104395	0	0	0	0
30.31776	-0.1984075	-0.3102675	-0.010042	0.008536441	-0.2719333	0.2311634
30.33433	-0.1984075	-0.3102675	0	0	0.2734872	-0.2324842
30.35089	-0.1991156	-0.3096655	-0.04274209	0.03633361	-1.289959	1.096551
30.36746	-0.1991156	-0.3096655	0	0	1.289959	-1.096551
30.38414	-0.1991156	-0.3096655	0	0	0	0
30.40116	-0.2017692	-0.3074101	-0.1559182	0.1325227	-4.626784	3.932537
30.41716	-0.2017692	-0.3074101	0	0	4.721928	-4.013404
30.43373	-0.2017692	-0.3074101	0	0	0	0
30.45029	-0.201744	-0.3074315	0.001524544	-0.001295188	0.04601347	-0.03909109
30.46686	-0.201744	-0.3074315	0	0	-0.04601083	0.03908884
30.48343	-0.201744	-0.3074315	0	0	0	0
30.50016	-0.201744	-0.3074315	0	0	0	0
30.5166	-0.201744	-0.3074315	0	0	0	0
30.53313	-0.201744	-0.3074315	0	0	0	0
30.54969	-0.2017692	-0.3074101	-0.001524719	0.001295337	-0.04607181	0.03914066
30.56626	-0.2017692	-0.3074101	0	0	0.04601612	-0.03909334
30.58283	-0.2017692	-0.3074101	0	0	0	0
30.5994	-0.2017945	-0.3073886	-0.001524368	0.001296837	-0.04600553	0.03913863
30.61596	-0.2017945	-0.3073886	0	0	0.04600288	-0.03913637
30.63253	-0.2017945	-0.3073886	0	0	0	0
30.6491	-0.2017692	-0.3074101	0.001524544	-0.001296986	0.04601083	-0.03914313
30.66567	-0.2017692	-0.3074101	0	0	-0.04600818	0.03914088
30.68224	-0.2017692	-0.3074101	0	0	0	0
30.6988	-0.2017945	-0.3073886	-0.001525246	0.001297584	-0.04603997	0.03916793
30.71553	-0.2017945	-0.3073886	0	0	0.04581051	-0.03897272
30.73194	-0.2017945	-0.3073886	0	0	0	0
30.7485	-0.2017945	-0.3073886	0	0	0	0
30.76507	-0.2017945	-0.3073886	0	0	0	0
30.78215	-0.2017945	-0.3073886	0	0	0	0
30.7982	-0.2017945	-0.3073886	0	0	0	0
30.81477	-0.2017945	-0.3073886	0	0	0	0
30.83134	-0.2017945	-0.3073886	0	0	0	0
30.8479	-0.2017945	-0.3073886	0	0	0	0
30.86471	-0.2017945	-0.3073886	0	0	0	0
30.88112	-0.2017945	-0.3073886	0	0	0	0
30.89824	-0.2017945	-0.3073886	0	0	0	0
30.91417	-0.2017945	-0.3073886	0	0	0	0
30.93073	-0.2017945	-0.3073886	0	0	0	0
30.95677	-0.2017945	-0.3073886	0	0	0	0
30.97334	-0.2017945	-0.3073886	0	0	0	0
30.98991	-0.2017945	-0.3073886	0	0	0	0
31.00648	-0.2017945	-0.3073886	0	0	0	0
31.02305	-0.2017945	-0.3073886	0	0	0	0
31.04375	-0.2017945	-0.3073886	0	0	0	0
31.06032	-0.2017945	-0.3073886	0	0	0	0
31.07688	-0.201845	-0.3073457	-0.00304979	0.002590972	-0.09204284	0.07819569
31.09345	-0.201845	-0.3073457	0	0	0.09205874	-0.0782092
31.11002	-0.201845	-0.3073457	0	0	0	0
31.12658	-0.201744	-0.3073457	0.006098175	0	0.1840327	0
31.14315	-0.201744	-0.3073457	0	0	-0.1840433	0
31.15972	-0.201744	-0.3073457	0	0	0	0
31.17628	-0.201264	-0.3071096	0.0289775	0.01425574	0.8746434	0.4302887
31.19285	-0.201264	-0.3071096	0	0	-0.8745428	-0.4302392
31.20981	-0.201264	-0.3071096	0	0	0	0
31.22598	-0.1993685	-0.3056721	0.1172363	0.08890416	3.538607	2.683442
31.24255	-0.1993685	-0.3056721	0	0	-3.581077	-2.715648
31.25912	-0.1993685	-0.3056721	0	0	0	0
31.27584	-0.1852208	-0.294384	0.846159	0.6751351	25.42007	20.28222
31.29225	-0.1852208	-0.294384	0	0	-25.5386	-20.37679
31.30882	-0.1852208	-0.294384	0	0	0	0
31.32538	-0.1408506	-0.2600065	2.67881	2.075507	80.85596	62.64614
31.34208	-0.1408506	-0.2600065	0	0	-80.5499	-62.409
31.35852	-0.1408506	-0.2600065	0	0	0	0
31.37508	-0.09573279	-0.229751	2.723316	1.826227	82.50329	55.32584
31.39165	-0.09573279	-0.229751	0	0	-82.18984	-55.11565
31.40852	-0.09573279	-0.229751	0	0	0	0
31.42478	-0.06820981	-0.2080809	1.692665	1.332707	51.08766	40.2235
31.44135	-0.06820981	-0.2080809	0	0	-51.55959	-40.59507
31.45792	-0.06820981	-0.2080809	0	0	0	0
31.47545	-0.04181771	-0.1875798	1.505174	1.169205	44.13807	34.28604
31.49112	-0.04181771	-0.1875798	0	0	-45.3401	-35.21977
31.50762	-0.04181771	-0.1875798	0	0	0	0
31.52418	-0.0178139	-0.1690105	1.449206	1.121101	43.82796	33.90516
31.54075	-0.0178139	-0.1690105	0	0	-43.73965	-33.83684
31.55732	-0.0178139	-0.1690105	0	0	0	0
31.57388	-0.005947298	-0.1595533	0.7164347	0.5709738	21.62453	17.23401
31.59094	-0.005947298	-0.1595533	0	0	-21.30804	-16.98177
31.60702	-0.005947298	-0.1595533	0	0	0	0
31.62887	-0.005920983	-0.158855	0.001204525	0.0319614	0.03176011	0.8427369
31.64578	-0.005920983	-0.158855	0	0	-0.03107711	-0.824614
31.66226	0.004657861	-0.1502934	0.64194	0.5195313	19.22439	15.55858
31.67857	0.004657861	-0.1502934	0	0	-19.57663	-15.84365
31.69514	0.004657861	-0.1502934	0	0	0	0
31.7117	0.03330347	-0.1288262	1.729451	1.296064	52.20094	39.1198
31.72833	0.03330347	-0.1288262	0	0	-52.10196	-39.04562
31.74484	0.03330347	-0.1288262	0	0	0	0
31.7614	0.0372722	-0.1258142	0.2395806	0.1818257	7.244319	5.497955
31.77797	0.0372722	-0.1258142	0	0	-7.230974	-5.487827
31.79454	0.0372722	-0.1258142	0	0	0	0
31.8111	0.03735104	-0.1259125	0.004759786	-0.005939443	0.1436672	-0.1792734
31.82767	0.03735104	-0.1259125	0	0	-0.1436589	0.1792631
31.89976	0.03735104	-0.1259125	0	0	0	0
31.91909	0.03735104	-0.1261093	0	-0.01017822	0	-0.1113333
31.93566	0.03735104	-0.1261093	0	0	0	0.2834999
31.9523	0.03735104	-0.1261093	0	0	0	0
31.9688	0.0363524	-0.1271327	-0.06052904	-0.06202944	-1.826875	-1.87216
31.98558	0.0363524	-0.1271327	0	0	1.818813	1.863898
32.00193	0.0363524	-0.1271327	0	0	0	0
32.01849	0.03629984	-0.1271721	-0.003173491	-0.002376857	-0.0964088	-0.07220753
32.03506	0.03629984	-0.1271721	0	0	0.09578717	0.07174194
32.05163	0.03629984	-0.1271721	0	0	0	0
32.06819	0.03624728	-0.1272114	-0.003173266	-0.002377756	-0.09578038	-0.0717691
32.08476	0.03624728	-0.1272114	0	0	0.09576935	0.07176083
32.10133	0.03624728	-0.1272114	0	0	0	0
32.1179	0.03296174	-0.1296733	-0.1983153	-0.1486003	-5.985167	-4.484766
32.13446	0.03296174	-0.1296733	0	0	5.985167	4.484766
32.15103	0.03296174	-0.1296733	0	0	0	0
32.16759	0.03193651	-0.1304025	-0.06189746	-0.04402493	-1.868284	-1.328828
32.18416	0.03193651	-0.1304025	0	0	1.868284	1.328828
32.20137	0.03193651	-0.1304025	0	0	0	0
32.21762	0.03191022	-0.1303828	-0.001617747	0.001213138	-0.04835606	0.0362619
32.23386	0.03191022	-0.1303828	0	0	0.0497808	-0.03733031
32.25043	0.03191022	-0.1303828	0	0	0	0
32.267	0.03191022	-0.1303828	0	0	0	0
32.28357	0.03191022	-0.1303828	0	0	0	0
32.30013	0.03191022	-0.1303828	0	0	0	0
32.3167	0.03188393	-0.1303631	-0.001587195	0.001190228	-0.04790716	0.03592528
32.33326	0.03188393	-0.1303631	0	0	0.04790716	-0.03592528
32.34983	0.03188393	-0.1303631	0	0	0	0
32.3664	0.03188393	-0.1303631	0	0	0	0
32.38297	0.03188393	-0.1303631	0	0	0	0
32.39987	0.03188393	-0.1303631	0	0	0	0
32.4161	0.03088491	-0.1311911	-0.06157682	-0.05103475	-1.858606	-1.540409
32.43266	0.03088491	-0.1311911	0	0	1.87785	1.556358
32.44923	0.03088491	-0.1311911	0	0	0	0
32.4658	-0.001026315	-0.1552274	-1.926166	-1.450837	-58.13179	-43.78634
32.48236	-0.001026315	-0.1552274	0	0	58.13179	43.78634
32.49925	-0.001026315	-0.1552274	0	0	0	0
32.5155	-0.04255324	-0.186893	-2.556007	-1.949036	-77.14046	-58.82203
32.53206	-0.04255324	-0.186893	0	0	77.9028	59.40334
32.54863	-0.04255324	-0.186893	0	0	0	0
32.56519	-0.0509821	-0.1933856	-0.508884	-0.3919853	-15.35992	-11.8315
32.58176	-0.0509821	-0.1933856	0	0	15.35992	11.8315
32.59833	-0.0509821	-0.1933856	0	0	0	0
32.6154	-0.05095585	-0.1934059	0.001537622	-0.001186278	0.04571087	-0.03526601
32.63207	-0.05095585	-0.1934059	0	0	-0.04556618	0.03515438
32.64878	-0.05095585	-0.1934059	0	0	0	0
32.66459	-0.05090336	-0.1934464	0.003319841	-0.002562387	0.1020852	-0.07879347
32.68116	-0.05090336	-0.1934464	0	0	-0.1025181	0.07912762
32.69773	-0.05090336	-0.1934464	0	0	0	0
32.71429	-0.05090336	-0.1934464	0	0	0	0
32.73087	-0.05090336	-0.1934464	0	0	0	0
32.74743	-0.05090336	-0.1934464	0	0	0	0
32.76399	-0.05090336	-0.1934464	0	0	0	0
32.78056	-0.05090336	-0.1934464	0	0	0	0
32.79724	-0.05090336	-0.1934464	0	0	0	0
32.81369	-0.05087711	-0.1934262	0.001595377	0.001230836	0.04815411	0.03715097
32.83026	-0.05087711	-0.1934262	0	0	-0.04831544	-0.03727543
32.84683	-0.05087711	-0.1934262	0	0	0	0
32.8634	-0.05085086	-0.1934059	0.001584356	0.001223233	0.04781597	0.03691724
32.87996	-0.05085086	-0.1934059	0	0	-0.04782147	-0.03692149
32.89653	-0.05085086	-0.1934059	0	0	0	0
32.91309	-0.05087711	-0.1934262	-0.001584721	-0.001223515	-0.04783249	-0.03692999
32.92966	-0.05087711	-0.1934262	0	0	0.04783249	0.03692999
32.94622	-0.05087711	-0.1934262	0	0	0	0
32.96279	-0.05090336	-0.1934059	-0.001584356	0.001223233	-0.04782147	0.03692149
32.97945	-0.05090336	-0.1934059	0	0	0.04767327	-0.03680706
32.99592	-0.05090336	-0.1934059	0	0	0	0
33.01667	-0.05087711	-0.1934262	0.001265096	-0.000976742	0.03399666	-0.02624778
33.03324	-0.05087711	-0.1934262	0	0	-0.03389936	0.02617265
33.0498	-0.05090336	-0.1934059	-0.001584356	0.001223233	-0.04781047	0.03691299
33.06637	-0.05090336	-0.1934059	0	0	0.04781597	-0.03691724
33.08294	-0.05090336	-0.1934059	0	0	0	0
33.09951	-0.05087711	-0.1933451	0.001584356	0.003667899	0.04781597	0.1106974
33.11607	-0.05087711	-0.1933451	0	0	-0.04781597	-0.1106974
33.13264	-0.05087711	-0.1933451	0	0	0	0
33.1494	-0.05074587	-0.1932439	0.007831396	0.006042995	0.2349992	0.1813341
33.16631	-0.05074587	-0.1932439	0	0	-0.2326293	-0.1795054
33.18245	-0.05074587	-0.1932439	0	0	0	0
33.19891	-0.05061463	-0.1931426	0.007971339	0.00615171	0.244488	0.1886784
33.21548	-0.05061463	-0.1931426	0	0	-0.2413256	-0.1862379
33.23204	-0.05061463	-0.1931426	0	0	0	0
33.2504	-0.05014215	-0.1927375	0.02574483	0.02207019	0.7372574	0.6320262
33.26697	-0.05014215	-0.1927375	0	0	-0.7371768	-0.6319572
33.28353	-0.05014215	-0.1927375	0	0	0	0
33.30322	-0.04318366	-0.1873374	0.3534441	0.2742905	9.749895	7.566411
33.31979	-0.04318366	-0.1873374	0	0	-9.747843	-7.564819
33.33635	-0.04318366	-0.1873374	0	0	0	0
33.35292	-0.02118104	-0.1705338	1.328081	1.01427	40.08617	30.61424
33.3698	-0.02118104	-0.1705338	0	0	-39.71123	-30.3279
33.38605	-0.02118104	-0.1705338	0	0	0	0
33.40453	-0.002184207	-0.1561438	1.028057	0.7787469	29.59575	22.41861
33.4211	-0.002184207	-0.1561438	0	0	-29.33481	-22.22095
33.43767	-0.002184207	-0.1561438	0	0	0	0
33.45423	-0.0002368421	-0.1547097	0.1175703	0.08658165	3.548686	2.61334
33.4708	-0.0002368421	-0.1547097	0	0	-3.548686	-2.61334
33.48737	-0.0002368421	-0.1547097	0	0	0	0
33.50393	-0.0002368421	-0.1547495	0	-0.002403293	0	-0.07253151
33.5205	-0.0002368421	-0.1547495	0	0	0	0.07253151
33.53707	-0.0002368421	-0.1547495	0	0	0	0
33.55391	-0.0002894737	-0.1549088	-0.003124333	-0.009456911	-0.09350669	-0.2830315
33.57021	-0.0002894737	-0.1549088	0	0	0.0942817	0.2853773
33.58677	-0.0002894737	-0.1549088	0	0	0	0
33.60334	-0.0003421053	-0.1549486	-0.003176848	-0.002404192	-0.09587746	-0.07255866
33.61991	-0.0003421053	-0.1549486	0	0	0.09587746	0.07255866
33.63647	-0.0003421053	-0.1549486	0	0	0	0
33.65304	-0.0003421053	-0.1549486	0	0	0	0
33.66961	-0.0003421053	-0.1549486	0	0	0	0
33.68618	-0.0003421053	-0.1549486	0	0	0	0
33.70274	-0.0003421053	-0.1549885	0	-0.002404746	0	-0.07258373
33.71931	-0.0003421053	-0.1549885	0	0	0	0.07257538
33.73588	-0.0003421053	-0.1549885	0	0	0	0
33.75245	-0.000368421	-0.1549685	-0.001588423	0.001202546	-0.0479387	0.0362929
33.76901	-0.000368421	-0.1549685	0	0	0.0479387	-0.0362929
33.78558	-0.000368421	-0.1549685	0	0	0	0
33.80214	-0.000368421	-0.1549685	0	0	0	0
33.81871	-0.000368421	-0.1549685	0	0	0	0
33.83528	-0.000368421	-0.1549685	0	0	0	0
33.85184	-0.0003421053	-0.1550283	0.001588423	-0.003605838	0.0479387	-0.1088244
33.86841	-0.0003421053	-0.1550283	0	0	-0.0479387	0.1088244
33.88498	-0.0003421053	-0.1550283	0	0	0	0
33.90154	-0.0004210526	-0.1551279	-0.004766368	-0.006012314	-0.1438658	-0.1814729
33.91821	-0.0004210526	-0.1551279	0	0	0.1434529	0.180952
33.93468	-0.0004210526	-0.1551279	0	0	0	0
33.95124	-0.0003947368	-0.1551079	0.001588423	0.001202546	0.04807708	0.03639766
33.96781	-0.0003947368	-0.1551079	0	0	-0.0479387	-0.0362929
33.98438	-0.0003947368	-0.1551079	0	0	0	0
34.0016	-0.0004210526	-0.1551279	-0.00152825	-0.001156991	-0.0452322	-0.0342439
34.01751	-0.0004210526	-0.1551279	0	0	0.04612268	0.03491805
34.03408	-0.0004210526	-0.1551279	0	0	0	0
34.05074	-0.0004210526	-0.1551279	0	0	0	0
34.06721	-0.0004210526	-0.1551279	0	0	0	0
34.08417	-0.0004210526	-0.1551279	0	0	0	0
34.10035	-0.0004210526	-0.1551279	0	0	0	0
34.11692	-0.0004210526	-0.1551279	0	0	0	0
34.13348	-0.0004210526	-0.1551279	0	0	0	0
34.15005	-0.0004210526	-0.1551279	0	0	0	0
34.16661	-0.0004210526	-0.1551279	0	0	0	0
34.18318	-0.0004210526	-0.1551279	0	0	0	0
34.19975	-0.0004210526	-0.1551279	0	0	0	0
34.21632	-0.0004210526	-0.1551279	0	0	0	0
34.23288	-0.0004210526	-0.1551279	0	0	0	0
34.24945	-0.0004210526	-0.1551279	0	0	0	0
34.26602	-0.0004210526	-0.1551279	0	0	0	0
34.28259	-0.0004210526	-0.1551279	0	0	0	0
34.3019	-0.0004473684	-0.1551079	-0.001363076	0.001031942	-0.03798876	0.02876008
34.31847	-0.0004473684	-0.1551079	0	0	0.0379928	-0.02876314
34.33504	-0.0004473684	-0.1551079	0	0	0	0
34.35199	-0.0004473684	-0.1551079	0	0	0	0
34.36817	-0.0004473684	-0.1551079	0	0	0	0
34.38474	-0.0004473684	-0.1551079	0	0	0	0
34.4013	-0.0004736842	-0.155088	-0.001588789	0.001201923	-0.04795527	0.03627829
34.4179	-0.0004736842	-0.155088	0	0	0.04790562	-0.03624073
34.43444	-0.0004736842	-0.155088	0	0	0	0
34.45142	-0.0004473684	-0.1550681	0.001549881	0.001173367	0.04624839	0.03501321
34.46757	-0.0004473684	-0.1550681	0	0	-0.04677551	-0.03541228
34.48414	-0.0004473684	-0.1550681	0	0	0	0
34.5007	-0.0004736842	-0.155088	-0.001588789	-0.001202823	-0.04795527	-0.03630544
34.51727	-0.0004736842	-0.155088	0	0	0.04795527	0.03630544
34.53384	-0.0004736842	-0.155088	0	0	0	0
34.55059	-0.0004736842	-0.155088	0	0	0	0
34.56697	-0.0004736842	-0.155088	0	0	0	0
34.58354	-0.0004736842	-0.155088	0	0	0	0
34.6001	-0.0004736842	-0.155088	0	0	0	0
34.61667	-0.0004736842	-0.155088	0	0	0	0
34.63324	-0.0004736842	-0.155088	0	0	0	0
34.6498	-0.0004473684	-0.1551079	0.001588423	-0.001201646	0.0479387	-0.03626576
34.66637	-0.0004473684	-0.1551079	0	0	-0.0479387	0.03626576
34.68294	-0.0004473684	-0.1551079	0	0	0	0
34.6995	-0.0004473684	-0.1551079	0	0	0	0
34.71607	-0.0004473684	-0.1551079	0	0	0	0
34.73264	-0.0004473684	-0.1551079	0	0	0	0
34.7492	-0.0004473684	-0.1551079	0	0	0	0
34.76577	-0.0004473684	-0.1551079	0	0	0	0
34.78234	-0.0004473684	-0.1551079	0	0	0	0
34.79903	-0.0004473684	-0.1551079	0	0	0	0
34.81547	-0.0004473684	-0.1551079	0	0	0	0
34.83204	-0.0004473684	-0.1551079	0	0	0	0
34.84885	-0.0004473684	-0.1551079	0	0	0	0
34.86517	-0.0004473684	-0.1551079	0	0	0	0
34.88173	-0.0004473684	-0.1551079	0	0	0	0
34.8983	-0.0004473684	-0.1551079	0	0	0	0
34.91486	-0.0004473684	-0.1551079	0	0	0	0
34.93143	-0.0004473684	-0.1551079	0	0	0	0
34.95126	-0.0004473684	-0.1551079	0	0	0	0
34.96783	-0.0004473684	-0.1551079	0	0	0	0
34.98477	-0.0004473684	-0.1551079	0	0	0	0
35.00096	-0.0004473684	-0.1551079	0	0	0	0
35.01753	-0.0004473684	-0.1551079	0	0	0	0
35.03445	-0.0004473684	-0.1551079	0	0	0	0
35.05067	-0.0004473684	-0.1551079	0	0	0	0
35.06723	-0.0004473684	-0.1551079	0	0	0	0
35.08379	-0.0004473684	-0.1551079	0	0	0	0
35.10036	-0.0004736842	-0.155088	-0.001588789	0.001201923	-0.04795527	0.03627829
35.11692	-0.0004736842	-0.155088	0	0	0.04795527	-0.03627829
35.13349	-0.0004736842	-0.155088	0	0	0	0
35.15006	-0.0004736842	-0.155088	0	0	0	0
35.16663	-0.0004736842	-0.155088	0	0	0	0
35.18319	-0.0004736842	-0.155088	0	0	0	0
35.19976	-0.0004736842	-0.155088	0	0	0	0
35.21633	-0.0004736842	-0.155088	0	0	0	0
35.23289	-0.0004736842	-0.155088	0	0	0	0
35.24946	-0.0004736842	-0.155088	0	0	0	0
35.26603	-0.0004736842	-0.155088	0	0	0	0
35.2826	-0.0004736842	-0.155088	0	0	0	0
35.29916	-0.0004736842	-0.155088	0	0	0	0
35.31579	-0.0004736842	-0.155088	0	0	0	0
35.33281	-0.0004736842	-0.155088	0	0	0	0
35.34886	-0.0004473684	-0.1551079	0.001639382	-0.001240197	0.04956797	-0.0374983
35.36543	-0.0004473684	-0.1551079	0	0	-0.0502519	0.0380157
35.382	-0.0004473684	-0.1551079	0	0	0	0
35.39856	-0.0004473684	-0.1551079	0	0	0	0
35.41556	-0.0004473684	-0.1551079	0	0	0	0
35.4317	-0.0004473684	-0.1551079	0	0	0	0
35.44827	-0.0004473684	-0.1551079	0	0	0	0
35.46483	-0.0004473684	-0.1551079	0	0	0	0
35.4814	-0.0004473684	-0.1551079	0	0	0	0
35.49796	-0.0004473684	-0.1551079	0	0	0	0
35.51453	-0.0004473684	-0.1551079	0	0	0	0
35.5311	-0.0004473684	-0.1551079	0	0	0	0
35.54766	-0.0004473684	-0.1551079	0	0	0	0
35.56423	-0.0004473684	-0.1551079	0	0	0	0
35.5808	-0.0004473684	-0.1551079	0	0	0	0
35.59736	-0.0004736842	-0.155088	-0.001588789	0.001201923	-0.04795527	0.03627829
35.61393	-0.0004736842	-0.155088	0	0	0.04795527	-0.03627829
35.6305	-0.0004736842	-0.155088	0	0	0	0
35.64706	-0.0004736842	-0.155088	0	0	0	0
35.66364	-0.0004736842	-0.155088	0	0	0	0
35.68062	-0.0004736842	-0.155088	0	0	0	0
35.69676	-0.0004736842	-0.1550482	0	0.002467251	0	0.07447893
35.71333	-0.0004736842	-0.1550482	0	0	0	-0.07541686
35.7299	-0.0004736842	-0.1550482	0	0	0	0
35.74646	-0.0004736842	-0.1550482	0	0	0	0
35.76303	-0.0004736842	-0.1550482	0	0	0	0
35.7796	-0.0004736842	-0.1550482	0	0	0	0
35.79616	-0.0004736842	-0.155088	0	-0.002404746	0	-0.07258373
35.81273	-0.0004736842	-0.155088	0	0	0	0.07259209
35.8293	-0.0004736842	-0.155088	0	0	0	0
35.84586	-0.0004736842	-0.155088	0	0	0	0
35.86243	-0.0004736842	-0.155088	0	0	0	0
35.87958	-0.0004736842	-0.155088	0	0	0	0
35.89556	-0.0004736842	-0.155088	0	0	0	0
35.9122	-0.0004736842	-0.155088	0	0	0	0
35.97395	-0.0004736842	-0.155088	0	0	0	0
35.99495	-0.002999991	-0.1574791	-0.1203227	-0.1138795	-1.454079	-1.376214
36.01151	-0.002999991	-0.1574791	0	0	3.203196	3.031668
36.02808	-0.004342078	-0.171015	-0.08100852	-0.8170304	-2.444842	-24.65803
36.04467	-0.004342078	-0.171015	0	0	2.442873	24.63817
36.06121	-0.004342078	-0.171015	0	0	0	0
36.07778	-0.0007631577	-0.2374736	0.216024	-4.011449	6.524877	-121.1634
36.09435	-0.0007631577	-0.2374736	0	0	-6.520369	121.0797
36.11092	-0.0007631577	-0.2374736	0	0	0	0
36.12748	-0.003105253	-0.3157372	-0.1413692	-4.724004	-4.266039	-142.5543
36.14405	-0.003105253	-0.3157372	0	0	4.26653	142.5707
36.16062	-0.003105253	-0.3157372	0	0	0	0
36.17719	-0.01594602	-0.3805809	-0.7750701	-3.913971	-23.39166	-118.1239
36.19375	-0.01594602	-0.3805809	0	0	23.39166	118.1239
36.21032	-0.01594602	-0.3805809	0	0	0	0
36.22689	-0.01557769	-0.4242783	0.02223248	-2.637578	0.6709776	-79.60226
36.24345	-0.01557769	-0.4242783	0	0	-0.6709776	79.60226
36.26002	-0.01557769	-0.4242783	0	0	0	0
36.27658	-0.005552575	-0.4357394	0.6052563	-0.691955	18.26878	-20.88565
36.29315	-0.005552575	-0.4357394	0	0	-18.26878	20.88565
36.30983	-0.005552575	-0.4357394	0	0	0	0
36.33928	0.001131578	-0.4425425	0.2269703	-0.2310102	4.920111	-5.007684
36.35585	0.001131578	-0.4425425	0	0	-4.932347	5.020138
36.37242	0.01591971	-0.4559156	0.8926132	-0.8071987	26.93912	-24.36131
36.38899	0.01591971	-0.4559156	0	0	-26.93602	24.3585
36.40595	0.01591971	-0.4559156	0	0	0	0
36.42212	0.03064829	-0.4694156	0.9108306	-0.8348557	27.49209	-25.19889
36.43869	0.03064829	-0.4694156	0	0	-27.82204	25.50133
36.45525	0.03064829	-0.4694156	0	0	0	0
36.47182	0.04029397	-0.4785126	0.5823482	-0.5492231	17.57733	-16.57749
36.48839	0.04029397	-0.4785126	0	0	-17.5753	16.57558
36.50496	0.04029397	-0.4785126	0	0	0	0
36.52152	0.03963712	-0.4825671	-0.03965649	-0.2447857	-1.196973	-7.388497
36.53809	0.03963712	-0.4825671	0	0	1.196973	7.388497
36.55473	0.03963712	-0.4825671	0	0	0	0
36.57122	0.007631431	-0.5120803	-1.940805	-1.789662	-58.57361	-54.01212
36.58779	0.007631431	-0.5120803	0	0	58.70879	54.13677
36.60476	0.007631431	-0.5120803	0	0	0	0
36.62092	0.007736688	-0.5120312	0.006510715	0.00303799	0.1964938	0.09168671
36.63749	0.007736688	-0.5120312	0	0	-0.1988981	-0.09280862
36.65417	0.007736688	-0.5120312	0	0	0	0
36.67063	0.007710373	-0.5120558	-0.001598256	-0.001491543	-0.04822434	-0.0450045
36.68756	0.007710373	-0.5120558	0	0	0.0478553	0.04466009
36.70386	0.007710373	-0.5120558	0	0	0	0
36.72036	0.007710373	-0.5120558	0	0	0	0
36.73689	0.007710373	-0.5120558	0	0	0	0
36.75378	0.007710373	-0.5120558	0	0	0	0
36.77002	0.007684059	-0.5120312	-0.001620407	0.001512215	-0.0489096	0.045644
36.78677	0.007684059	-0.5120312	0	0	0.04911886	-0.04583928
36.80315	0.007684059	-0.5120312	0	0	0	0
36.81972	0.007684059	-0.5120312	0	0	0	0
36.83628	0.007684059	-0.5120312	0	0	0	0
36.85285	0.007684059	-0.5120312	0	0	0	0
36.86942	0.007657745	-0.5120066	-0.001588347	0.00148227	-0.04793642	0.04473501
36.88647	0.007657745	-0.5120066	0	0	0.04724563	-0.04409035
36.90255	0.007657745	-0.5120066	0	0	0	0
36.91912	0.007526174	-0.5118838	-0.007941653	0.007414949	-0.2432644	0.2271307
36.93589	0.007526174	-0.5118838	0	0	0.238226	-0.2224264
36.95225	0.007526174	-0.5118838	0	0	0	0
36.96881	0.007368288	-0.5117365	-0.009532223	0.00889567	-0.2894828	0.2701513
36.98538	0.007368288	-0.5117365	0	0	0.2877162	-0.2685028
37.00195	0.007368288	-0.5117365	0	0	0	0
37.01852	0.007157772	-0.5115401	-0.01270965	0.0118573	-0.383578	0.3578539
37.03508	0.007157772	-0.5115401	0	0	0.3836222	-0.3578951
37.05165	0.007157772	-0.5115401	0	0	0	0
37.06822	0.007105144	-0.5114909	-0.003176667	0.002964541	-0.095872	0.08947001
37.08479	0.007105144	-0.5114909	0	0	0.095872	-0.08947001
37.10135	0.007105144	-0.5114909	0	0	0	0
37.11792	0.006999886	-0.5113927	-0.00635339	0.005929081	-0.1917457	0.17894
37.13449	0.006999886	-0.5113927	0	0	0.1917457	-0.17894
37.15105	0.006999886	-0.5113927	0	0	0	0
37.16769	0.006894628	-0.5112945	-0.006325716	0.005899673	-0.1904938	0.1776639
37.18419	0.006894628	-0.5112945	0	0	0.1909105	-0.1780525
37.20076	0.006894628	-0.5112945	0	0	0	0
37.21754	0.006868313	-0.51127	-0.001567771	0.001463068	-0.04700696	0.04386761
37.23389	0.006868313	-0.51127	0	0	0.04731543	-0.04415549
37.25046	0.006868313	-0.51127	0	0	0	0
37.26702	0.006868313	-0.51127	0	0	0	0
37.28359	0.006868313	-0.51127	0	0	0	0
37.30016	0.006868313	-0.51127	0	0	0	0
37.31709	0.006841999	-0.5112454	-0.001554347	0.001450541	-0.04640278	0.04330379
37.33329	0.006841999	-0.5112454	0	0	0.0469157	-0.04378245
37.35003	0.006841999	-0.5112454	0	0	0	0
37.36642	0.004631546	-0.5087931	-0.1348201	0.1495754	-4.06888	4.514194
37.38299	0.004631546	-0.5087931	0	0	4.090069	-4.537703
37.39956	0.004631546	-0.5087931	0	0	0	0
37.41613	-0.01439374	-0.4898425	-1.148369	1.143858	-34.65784	34.52169
37.43291	-0.01439374	-0.4898425	0	0	34.43583	-34.30055
37.45018	-0.01439374	-0.4898425	0	0	0	0
37.46582	-0.03892769	-0.4663965	-1.568641	1.499084	-47.65992	45.54656
37.48239	-0.03892769	-0.4663965	0	0	48.69846	-46.53905
37.49896	-0.03892769	-0.4663965	0	0	0	0
37.51553	-0.05008965	-0.4547375	-0.6737368	0.7037366	-20.33342	21.23881
37.53209	-0.05008965	-0.4547375	0	0	20.33342	-21.23881
37.54866	-0.05008965	-0.4547375	0	0	0	0
37.56523	-0.06640223	-0.4363904	-0.9846298	1.107432	-29.71618	33.42237
37.58179	-0.06640223	-0.4363904	0	0	29.71618	-33.42237
37.59836	-0.06640223	-0.4363904	0	0	0	0
37.61573	-0.06391283	-0.4055743	0.1433301	1.77427	4.223598	52.28352
37.6315	-0.06391283	-0.4055743	0	0	-4.325711	-53.54757
37.64806	-0.06391283	-0.4055743	0	0	0	0
37.66463	-0.05045713	-0.3734897	0.8123745	1.937077	24.52033	58.46783
37.68121	-0.05045713	-0.3734897	0	0	-24.50904	-58.44092
37.69779	-0.05045713	-0.3734897	0	0	0	0
37.71432	-0.03971595	-0.3497582	0.649536	1.43508	19.61432	43.33574
37.73089	-0.03971595	-0.3497582	0	0	-19.62111	-43.35072
37.74746	-0.03971595	-0.3497582	0	0	0	0
37.76402	-0.06129156	-0.3315966	-1.302606	1.096488	-39.31726	33.0959
37.78059	-0.06129156	-0.3315966	0	0	39.31726	-33.0959
37.79733	-0.06129156	-0.3315966	0	0	0	0
37.81372	-0.09813116	-0.3011527	-2.247447	1.857271	-67.83589	56.05902
37.83043	-0.09813116	-0.3011527	0	0	67.89062	-56.10424
37.84686	-0.09813116	-0.3011527	0	0	0	0
37.86342	-0.1108074	-0.2907644	-0.7651402	0.6270381	-23.19345	19.0072
37.87999	-0.1108074	-0.2907644	0	0	23.09198	-18.92405
37.89672	-0.1108074	-0.2907644	0	0	0	0
37.91312	-0.09914752	-0.2710453	0.7109957	1.202429	21.46036	36.29356
37.92973	-0.09914752	-0.2710453	0	0	-21.53973	-36.42777
37.94625	-0.09914752	-0.2710453	0	0	0	0
37.96283	-0.06653323	-0.2131451	1.968149	3.494058	59.46733	105.5724
37.97939	-0.06653323	-0.2131451	0	0	-59.39202	-105.4387
37.99619	-0.06653323	-0.2131451	0	0	0	0
38.01252	-0.03017505	-0.1825954	2.226367	1.87069	67.20738	56.47052
38.02909	-0.03017505	-0.1825954	0	0	-67.65927	-56.85022
38.04566	-0.03017505	-0.1825954	0	0	0	0
38.06223	-0.02389019	-0.1782659	0.3793547	0.261332	11.45027	7.887924
38.07879	-0.02389019	-0.1782659	0	0	-11.44895	-7.887015
38.09536	-0.02389019	-0.1782659	0	0	0	0
38.11192	-0.02391649	-0.1782055	-0.00158787	0.003643554	-0.04793305	0.109988
38.12849	-0.02391649	-0.1782055	0	0	0.04792201	-0.1099627
38.14521	-0.02391649	-0.1782055	0	0	0	0
38.16166	-0.02394279	-0.1782256	-0.001598547	-0.001222684	-0.04819429	-0.03686249
38.17818	-0.02394279	-0.1782256	0	0	0.04847303	0.03707569
38.19476	-0.02394279	-0.1782256	0	0	0	0
38.21148	-0.02394279	-0.1782256	0	0	0	0
38.22807	-0.02394279	-0.1782256	0	0	0	0
38.24501	-0.02394279	-0.1782256	0	0	0	0
38.26102	-0.02394279	-0.1782256	0	0	0	0
38.27761	-0.02394279	-0.1782256	0	0	0	0
38.29416	-0.02394279	-0.1782256	0	0	0	0
38.31072	-0.02391649	-0.1782457	0.00158787	-0.001214518	0.04795514	-0.03667957
38.32729	-0.02391649	-0.1782457	0	0	-0.04792753	0.03665845
38.34439	-0.02391649	-0.1782457	0	0	0	0
38.36042	-0.02389019	-0.1782256	0.001641164	0.001255282	0.04953044	0.03788447
38.37699	-0.02389019	-0.1782256	0	0	-0.05035362	-0.0385141
38.39357	-0.02389019	-0.1782256	0	0	0	0
38.41012	-0.02386389	-0.1782457	0.00158908	-0.001215358	0.04796406	-0.03668379
38.42669	-0.02386389	-0.1782457	0	0	-0.04797511	0.03669224
38.44372	-0.02386389	-0.1782457	0	0	0	0
38.45982	-0.02386389	-0.1782457	0	0	0	0
38.47639	-0.02386389	-0.1782457	0	0	0	0
38.49296	-0.02386389	-0.1782457	0	0	0	0
38.50953	-0.02378499	-0.1783061	0.004762513	-0.003642715	0.1437329	-0.1099374
38.52609	-0.02378499	-0.1783061	0	0	-0.1437329	0.1099374
38.54293	-0.02378499	-0.1783061	0	0	0	0
38.55923	-0.02375869	-0.1783262	0.001614266	-0.001234708	0.04871865	-0.03726356
38.57598	-0.02375869	-0.1783262	0	0	-0.048848	0.03736249
38.59236	-0.02375869	-0.1783262	0	0	0	0
38.609	-0.02365348	-0.1784067	0.00632247	-0.004836693	0.1914738	-0.1464776
38.62549	-0.02365348	-0.1784067	0	0	-0.1908345	0.1459885
38.64244	-0.02365348	-0.1784067	0	0	0	0
38.65863	-0.02341677	-0.1785878	0.01462128	-0.01118491	0.4412712	-0.3375612
38.67519	-0.02341677	-0.1785878	0	0	-0.4463587	0.341453
38.69176	-0.02341677	-0.1785878	0	0	0	0
38.70833	-0.02162821	-0.1799967	0.1079579	-0.08504166	3.258177	-2.566562
38.7249	-0.02162821	-0.1799967	0	0	-3.258177	2.566562
38.74146	-0.02162821	-0.1799967	0	0	0	0
38.75803	-0.02020778	-0.1811244	0.08575712	-0.06808768	2.588453	-2.055127
38.77465	-0.02020778	-0.1811244	0	0	-2.583693	2.051348
38.79192	-0.02020778	-0.1811244	0	0	0	0
38.80787	-0.02023408	-0.1811043	-0.001649248	0.001263155	-0.04966007	0.03803451
38.8243	-0.02023408	-0.1811043	0	0	0.05092951	-0.03900677
38.84101	-0.02023408	-0.1811043	0	0	0	0
38.85743	-0.02023408	-0.1811043	0	0	0	0
38.874	-0.02023408	-0.1811043	0	0	0	0
38.89057	-0.02023408	-0.1811043	0	0	0	0
38.90713	-0.02023408	-0.1811043	0	0	0	0
38.9237	-0.02023408	-0.1811043	0	0	0	0
38.94034	-0.02023408	-0.1811043	0	0	0	0
38.96129	-0.02023408	-0.1811043	0	0	0	0
38.97786	-0.02023408	-0.1811043	0	0	0	0
38.99443	-0.02023408	-0.1811043	0	0	0	0
39.01099	-0.02023408	-0.1811043	0	0	0	0
39.02756	-0.02023408	-0.1811043	0	0	0	0
39.0443	-0.02023408	-0.1811043	0	0	0	0
39.06069	-0.02023408	-0.1811043	0	0	0	0
39.07771	-0.02023408	-0.1811043	0	0	0	0
39.09382	-0.02026039	-0.1810841	-0.001632575	0.001250296	-0.04928255	0.0377427
39.11039	-0.02026039	-0.1810841	0	0	0.04994978	-0.03825368
39.12739	-0.02026039	-0.1810841	0	0	0	0
39.14352	-0.02026039	-0.1810841	0	0	0	0
39.16009	-0.02026039	-0.1810841	0	0	0	0
39.17679	-0.02026039	-0.1810841	0	0	0	0
39.19325	-0.02026039	-0.1810841	0	0	0	0
39.20982	-0.02026039	-0.1810841	0	0	0	0
39.22638	-0.02026039	-0.1810841	0	0	0	0
39.24295	-0.02026039	-0.1810841	0	0	0	0
39.25951	-0.02026039	-0.1810841	0	0	0	0
39.27608	-0.02026039	-0.1810841	0	0	0	0
39.29293	-0.02026039	-0.1810841	0	0	0	0
39.30923	-0.02026039	-0.1810841	0	0	0	0
39.32578	-0.02026039	-0.1810841	0	0	0	0
39.34235	-0.02026039	-0.1810841	0	0	0	0
39.35891	-0.02026039	-0.1810841	0	0	0	0
39.37548	-0.02026039	-0.1810841	0	0	0	0
39.39205	-0.02026039	-0.1810841	0	0	0	0
39.40888	-0.02026039	-0.1810841	0	0	0	0
39.42518	-0.02026039	-0.1810841	0	0	0	0
39.44175	-0.02026039	-0.1810841	0	0	0	0
39.45832	-0.02026039	-0.1810841	0	0	0	0
39.47488	-0.02026039	-0.1810841	0	0	0	0
39.49145	-0.02026039	-0.1810841	0	0	0	0
39.50802	-0.02026039	-0.1810841	0	0	0	0
39.52479	-0.02026039	-0.1810841	0	0	0	0
39.54115	-0.02026039	-0.1810841	0	0	0	0
39.55772	-0.02026039	-0.1810841	0	0	0	0
39.57429	-0.02026039	-0.1810841	0	0	0	0
39.59085	-0.02023408	-0.1811043	0.001587842	-0.001216037	0.04792115	-0.03670008
39.60742	-0.02023408	-0.1811043	0	0	-0.04792115	0.03670008
39.62426	-0.02023408	-0.1811043	0	0	0	0
39.64056	-0.02023408	-0.1811043	0	0	0	0
39.65748	-0.02023408	-0.1811043	0	0	0	0
39.67369	-0.02023408	-0.1811043	0	0	0	0
39.69026	-0.02023408	-0.1811043	0	0	0	0
39.70683	-0.02023408	-0.1811043	0	0	0	0
39.7234	-0.02023408	-0.1811043	0	0	0	0
39.73996	-0.02023408	-0.1811043	0	0	0	0
39.75653	-0.02023408	-0.1811043	0	0	0	0
39.77341	-0.02023408	-0.1811043	0	0	0	0
39.78967	-0.02023408	-0.1811043	0	0	0	0
39.80623	-0.02023408	-0.1811043	0	0	0	0
39.8228	-0.02023408	-0.1811043	0	0	0	0
39.83937	-0.02023408	-0.1811043	0	0	0	0
39.85593	-0.02023408	-0.1811043	0	0	0	0
39.8725	-0.02023408	-0.1811043	0	0	0	0
39.88907	-0.02026039	-0.1810841	-0.001587842	0.001216037	-0.04792115	0.03670008
