Time	Pos X	Pos Y	Vel X	Vel Y	Acc X	Acc Y
0.01656673	-0.03806056	-0.1492204	0.0006030614	0.002364366	-9.557889E-06	-3.747271E-05
0.03313189	-0.03806056	-0.1492204	0	0	9.557888E-06	3.747271E-05
0.04969744	-0.03806056	-0.1492204	0	0	0	0
0.06626339	-0.03779778	-0.1485054	0.01586256	0.04316368	0.4787758	1.302799
0.0828317	-0.03779778	-0.1485054	0	0	-0.4787359	-1.302691
0.09940001	-0.03779778	-0.1485054	0	0	0	0
0.115964	-0.02286444	-0.1371727	0.9015555	0.6841743	27.21078	20.64978
0.1325445	-0.02286444	-0.1371727	0	0	-27.20074	-20.64215
0.1490994	-0.02286444	-0.1371727	0	0	0	0
0.1656666	-0.008683993	-0.1266209	0.8559387	0.6369125	25.84198	19.22928
0.1822333	-0.008683993	-0.1266209	0	0	-25.83274	-19.2224
0.1988	-0.008683993	-0.1266209	0	0	0	0
0.2153636	-0.008605051	-0.12668	0.00476598	-0.00356525	0.1438556	-0.1076129
0.2319335	-0.008605051	-0.12668	0	0	-0.1438418	0.1076026
0.2485504	-0.008605051	-0.12668	0	0	0	0
0.2650634	-0.008578737	-0.1266603	0.001593504	0.001192054	0.04809867	0.03598122
0.2816333	-0.008578737	-0.1266603	0	0	-0.04816698	-0.03603232
0.2982004	-0.008578737	-0.1266603	0	0	0	0
0.314764	-0.008578737	-0.1266603	0	0	0	0
0.3313331	-0.008578737	-0.1266603	0	0	0	0
0.3484154	-0.008578737	-0.1266603	0	0	0	0
0.3644831	-0.008552423	-0.1266406	0.00163772	0.001225088	0.04940326	0.03695584
0.3810333	-0.008552423	-0.1266406	0	0	-0.05020921	-0.03755873
0.398202	-0.008552423	-0.1266406	0	0	0	0
0.4141636	-0.008526109	-0.1266209	0.00164856	0.00123324	0.04975991	0.03722395
0.4307299	-0.008526109	-0.1266209	0	0	-0.05068143	-0.03791331
0.4478639	-0.008526109	-0.1266209	0	0	0	0
0.4638669	-0.008526109	-0.1266209	0	0	0	0
0.4804329	-0.008526109	-0.1266209	0	0	0	0
0.4970734	-0.008526109	-0.1266209	0	0	0	0
0.5135632	-0.008526109	-0.1266209	0	0	0	0
0.5301327	-0.008526109	-0.1266209	0	0	0	0
0.5469347	-0.008526109	-0.1266209	0	0	0	0
0.5632634	-0.008526109	-0.1266209	0	0	0	0
0.5798309	-0.008526109	-0.1266209	0	0	0	0
0.5972922	-0.008526109	-0.1266209	0	0	0	0
0.612964	-0.008526109	-0.1266209	0	0	0	0
0.6295331	-0.008526109	-0.1266209	0	0	0	0
0.6461579	-0.008526109	-0.1266209	0	0	0	0
0.6626638	-0.008526109	-0.1266209	0	0	0	0
0.6792333	-0.008526109	-0.1266209	0	0	0	0
0.6958001	-0.008526109	-0.1266209	0	0	0	0
0.7124418	-0.008526109	-0.1266209	0	0	0	0
0.7289332	-0.008526109	-0.1266209	0	0	0	0
0.745599	-0.008526109	-0.1266209	0	0	0	0
0.7620662	-0.008526109	-0.1266209	0	0	0	0
0.7786847	-0.008526109	-0.1266209	0	0	0	0
0.7958416	-0.008526109	-0.1266209	0	0	0	0
0.8117633	-0.008526109	-0.1266209	0	0	0	0
0.8283328	-0.008526109	-0.1266209	0	0	0	0
0.8449003	-0.008526109	-0.1266209	0	0	0	0
0.8614639	-0.008552423	-0.1266013	-0.00158864	0.001187516	-0.04795008	0.03584291
0.8780334	-0.008552423	-0.1266013	0	0	0.04794723	-0.03584078
0.8947102	-0.008552423	-0.1266013	0	0	0	0
0.9112233	-0.008526109	-0.1266209	0.001593503	-0.001191151	0.04801168	-0.03588896
0.9694684	-0.008526109	-0.1266209	0	0	-0.02131543	0.01593339
0.9875333	-0.008526109	-0.1266209	0	0	0	0
1.008358	-0.008526109	-0.1266209	0	0	0	0
1.025053	-0.008526109	-0.1266209	0	0	0	0
1.041562	-0.008526109	-0.1266209	0	0	0	0
1.058062	-0.008526109	-0.1266209	0	0	0	0
1.074629	-0.008526109	-0.1266209	0	0	0	0
1.091193	-0.008552423	-0.1266013	-0.001588531	0.001187435	-0.04794576	0.03583969
1.107762	-0.008552423	-0.1266013	0	0	0.04794404	-0.0358384
1.124328	-0.008552423	-0.1266013	0	0	0	0
1.14386	-0.008552423	-0.1266013	0	0	0	0
1.160431	-0.008552423	-0.1266013	0	0	0	0
1.177035	-0.008552423	-0.1266013	0	0	0	0
1.193561	-0.008552423	-0.1266013	0	0	0	0
1.21013	-0.008552423	-0.1266013	0	0	0	0
1.226697	-0.008552423	-0.1266013	0	0	0	0
1.243638	-0.008552423	-0.1266013	0	0	0	0
1.260105	-0.008552423	-0.1266013	0	0	0	0
1.276397	-0.008552423	-0.1266013	0	0	0	0
1.292961	-0.008552423	-0.1266013	0	0	0	0
1.310098	-0.008552423	-0.1266013	0	0	0	0
1.326097	-0.008552423	-0.1266013	0	0	0	0
1.342661	-0.008552423	-0.1266013	0	0	0	0
1.359279	-0.008552423	-0.1266013	0	0	0	0
1.375797	-0.008552423	-0.1266013	0	0	0	0
1.392363	-0.008552423	-0.1266013	0	0	0	0
1.409497	-0.008552423	-0.1266013	0	0	0	0
1.425497	-0.008552423	-0.1266013	0	0	0	0
1.442064	-0.008552423	-0.1266013	0	0	0	0
1.45863	-0.008552423	-0.1266013	0	0	0	0
1.475197	-0.008552423	-0.1266013	0	0	0	0
1.491764	-0.008552423	-0.1266013	0	0	0	0
1.50833	-0.008552423	-0.1266013	0	0	0	0
1.525309	-0.008552423	-0.1266013	0	0	0	0
1.541461	-0.008552423	-0.1266013	0	0	0	0
1.558117	-0.008552423	-0.1266013	0	0	0	0
1.574599	-0.008552423	-0.1266013	0	0	0	0
1.59302	-0.008552423	-0.1266013	0	0	0	0
1.609587	-0.008552423	-0.1266013	0	0	0	0
1.626154	-0.008552423	-0.1266013	0	0	0	0
1.64272	-0.008552423	-0.1266013	0	0	0	0
1.659288	-0.008552423	-0.1266013	0	0	0	0
1.676156	-0.008552423	-0.1266013	0	0	0	0
1.692716	-0.008552423	-0.1266013	0	0	0	0
1.709411	-0.008552423	-0.1266013	0	0	0	0
1.725554	-0.008552423	-0.1266013	0	0	0	0
1.742121	-0.008552423	-0.1266013	0	0	0	0
1.758687	-0.008552423	-0.1266013	0	0	0	0
1.775254	-0.008552423	-0.1266013	0	0	0	0
1.791821	-0.008526109	-0.1266209	0.001588371	-0.001187315	0.04793852	-0.03583428
1.808387	-0.008526109	-0.1266209	0	0	-0.04793956	0.03583505
1.824956	-0.008526109	-0.1266209	0	0	0	0
1.841521	-0.008526109	-0.1266209	0	0	0	0
1.858088	-0.008526109	-0.1266209	0	0	0	0
1.874654	-0.008526109	-0.1266209	0	0	0	0
1.89122	-0.008552423	-0.1266013	-0.001588417	0.001187349	-0.04794111	0.03583621
1.907787	-0.008552423	-0.1266013	0	0	0.04794111	-0.03583621
1.924354	-0.008552423	-0.1266013	0	0	0	0
1.94092	-0.008552423	-0.1266013	0	0	0	0
1.957488	-0.008552423	-0.1266013	0	0	0	0
1.974054	-0.008552423	-0.1266013	0	0	0	0
1.99062	-0.008552423	-0.1266013	0	0	0	0
2.007187	-0.008552423	-0.1266013	0	0	0	0
2.023754	-0.008552423	-0.1266013	0	0	0	0
2.040321	-0.008552423	-0.1266013	0	0	0	0
2.056889	-0.008552423	-0.1266013	0	0	0	0
2.073455	-0.008552423	-0.1266013	0	0	0	0
2.09002	-0.008552423	-0.1266013	0	0	0	0
2.10659	-0.008552423	-0.1266013	0	0	0	0
2.124085	-0.008552423	-0.1266013	0	0	0	0
2.139721	-0.008552423	-0.1266013	0	0	0	0
2.15629	-0.008552423	-0.1266013	0	0	0	0
2.172857	-0.008552423	-0.1266013	0	0	0	0
2.189421	-0.008552423	-0.1266013	0	0	0	0
2.20599	-0.008552423	-0.1266013	0	0	0	0
2.222556	-0.008552423	-0.1266013	0	0	0	0
2.239133	-0.008552423	-0.1266013	0	0	0	0
2.255691	-0.008552423	-0.1266013	0	0	0	0
2.272256	-0.008552423	-0.1266013	0	0	0	0
2.288821	-0.008526109	-0.1266209	0.001588451	-0.001187375	0.04794507	-0.03583917
2.305391	-0.008526109	-0.1266209	0	0	-0.04793818	0.03583401
2.322407	-0.008526109	-0.1266209	0	0	0	0
2.338521	-0.008499796	-0.1266406	0.001632941	-0.001221556	0.04928934	-0.03687193
2.355094	-0.008499796	-0.1266406	0	0	-0.0499566	0.03737108
2.37166	-0.008499796	-0.1266406	0	0	0	0
2.388222	-0.008499796	-0.1266406	0	0	0	0
2.404793	-0.008499796	-0.1266406	0	0	0	0
2.42136	-0.008499796	-0.1266406	0	0	0	0
2.438046	-0.009473401	-0.1259125	-0.05834878	0.04363462	-1.754707	1.312212
2.454494	-0.009473401	-0.1259125	0	0	1.760957	-1.316886
2.471054	-0.009473401	-0.1259125	0	0	0	0
2.487621	-0.02891299	-0.08517766	-1.173376	2.458762	-35.42123	74.22373
2.504193	-0.02891299	-0.08517766	0	0	35.40722	-74.19437
2.520761	-0.02891299	-0.08517766	0	0	0	0
2.537325	-0.03283031	-0.01570677	-0.2364971	4.194116	-7.138062	126.5887
2.553895	-0.03283031	-0.01570677	0	0	7.137702	-126.5823
2.570461	-0.03283031	-0.01570677	0	0	0	0
2.587022	-0.01420957	0.01954875	1.124354	2.128793	33.94017	64.26052
2.603736	-0.01420957	0.01954875	0	0	-33.78939	-63.97506
2.620291	-0.01420957	0.01954875	0	0	0	0
2.636721	-0.01684051	0.06412118	-0.1601245	2.712767	-4.854434	82.24191
2.653674	-0.01684051	0.06412118	0	0	4.796569	-81.2616
2.66986	-0.01684051	0.06412118	0	0	0	0
2.686421	-0.027309	0.09489574	-0.6321064	1.858225	-19.30271	56.74483
2.70299	-0.027309	0.09489574	0	0	19.07934	-56.0882
2.720037	-0.027309	0.09489574	0	0	0	0
2.736121	-0.02644121	0.1125819	0.05395237	1.099585	1.628462	33.18913
2.75269	-0.02644121	0.1125819	0	0	-1.652266	-33.67427
2.769257	-0.02644121	0.1125819	0	0	0	0
2.78582	-0.02701974	0.1149229	-0.03492892	0.1413369	-1.054286	4.266077
2.802391	-0.02701974	0.1149229	0	0	1.054187	-4.265677
2.818957	-0.02701974	0.1149229	0	0	0	0
2.835523	-0.02625712	0.1157091	0.04603432	0.04745652	1.389398	1.432323
2.852091	-0.02625712	0.1157091	0	0	-1.389358	-1.432282
2.868657	-0.02625712	0.1157091	0	0	0	0
2.885299	-0.01381491	0.1243853	0.747635	0.5213416	22.51313	15.69888
2.90179	-0.01381491	0.1243853	0	0	-22.56497	-15.73503
2.918356	-0.01381491	0.1243853	0	0	0	0
2.934921	-0.01323607	0.1245678	0.03494496	0.01101729	1.054762	0.3325409
2.95149	-0.01323607	0.1245678	0	0	-1.054671	-0.3325121
2.968311	-0.01323607	0.1245678	0	0	0	0
2.984623	-0.0130782	0.1243123	0.009677646	-0.01566245	0.2920803	-0.4727074
3.001191	-0.0130782	0.1243123	0	0	-0.2943317	0.476351
3.017879	-0.0130782	0.1243123	0	0	0	0
3.034322	-0.0130782	0.1242028	0	-0.006660274	0	-0.2010292
3.051438	-0.0130782	0.1242028	0	0	0	0.1984684
3.067457	-0.0130782	0.1242028	0	0	0	0
3.084038	-0.01305189	0.1241481	0.00158673	-0.003301629	0.04867173	-0.101275
3.101161	-0.01305189	0.1241481	0	0	-0.04707799	0.09795874
3.117157	-0.01305189	0.1241481	0	0	0	0
3.133724	-0.01305189	0.1241481	0	0	0	0
3.150286	-0.01305189	0.1241481	0	0	0	0
3.167157	-0.01305189	0.1241481	0	0	0	0
3.18342	-0.01305189	0.1241481	0	0	0	0
3.200057	-0.01305189	0.1241481	0	0	0	0
3.216555	-0.01305189	0.1241481	0	0	0	0
3.233121	-0.01305189	0.1241481	0	0	0	0
3.249687	-0.01305189	0.1241481	0	0	0	0
3.267267	-0.01305189	0.1241481	0	0	0	0
3.282821	-0.01299927	0.1240751	0.003383389	-0.004694015	0.1021138	-0.1416697
3.299391	-0.01299927	0.1240751	0	0	-0.105325	0.1461248
3.315957	-0.01299927	0.1240751	0	0	0	0
3.332521	-0.01299927	0.1240751	0	0	0	0
3.34909	-0.01299927	0.1240751	0	0	0	0
3.365657	-0.01299927	0.1240751	0	0	0	0
3.382224	-0.01297296	0.1240568	0.001588168	-0.001101391	0.04793171	-0.03324052
3.39879	-0.01297296	0.1240568	0	0	-0.04793309	0.03324148
3.415916	-0.01297296	0.1240568	0	0	0	0
3.431925	-0.01289402	0.1238926	0.004930662	-0.01026076	0.1488087	-0.3096725
3.448492	-0.01289402	0.1238926	0	0	-0.1513583	0.3149782
3.46506	-0.01289402	0.1238926	0	0	0	0
3.483706	-0.01299927	0.1206792	-0.005644375	-0.1723331	-0.1602881	-4.893888
3.500273	-0.01299927	0.1206792	0	0	0.1602913	4.893988
3.517131	-0.01299927	0.1206792	0	0	0	0
3.533406	-0.009368147	0.09287538	0.2231113	-1.708385	6.733803	-51.56139
3.549977	-0.009368147	0.09287538	0	0	-6.792752	52.01276
3.566977	-0.009368147	0.09287538	0	0	0	0
3.583107	-0.007999829	0.0384767	0.08483453	-3.372672	2.560661	-101.8013
3.599673	-0.007999829	0.0384767	0	0	-2.594645	103.1524
3.616239	-0.007999829	0.0384767	0	0	0	0
3.633124	-0.006184132	-0.006207092	0.1075314	-2.646316	3.214608	-79.1106
3.649376	-0.006184132	-0.006207092	0	0	-3.245046	79.85966
3.666341	-0.006184132	-0.006207092	0	0	0	0
3.682507	0.00271052	-0.03976287	0.5502326	-2.075796	16.60797	-62.65487
3.699073	0.00271052	-0.03976287	0	0	-16.81023	63.41792
3.71564	0.00271052	-0.03976287	0	0	0	0
3.732206	0.005842039	-0.04390203	0.1890243	-0.2498475	5.705011	-7.54074
3.748773	0.005842039	-0.04390203	0	0	-5.704929	7.540631
3.765536	0.005842039	-0.04390203	0	0	0	0
3.781906	0.005736779	-0.04420745	-0.006430122	-0.01865738	-0.1940698	-0.5631051
3.798473	0.005736779	-0.04420745	0	0	0.1952274	0.5664639
3.815043	0.005736779	-0.04420745	0	0	0	0
3.831609	0.002868413	-0.04716782	-0.1731449	-0.1786987	-5.225184	-5.392789
3.848176	0.002868413	-0.04716782	0	0	5.225748	5.393371
3.864743	0.002868413	-0.04716782	0	0	0	0
3.881309	0.003157884	-0.0473398	0.01747352	-0.01038144	0.5273821	-0.3133304
3.897876	0.003157884	-0.0473398	0	0	-0.5273746	0.3133259
3.914443	0.003157884	-0.0473398	0	0	0	0
3.93101	0.003157884	-0.0473398	0	0	0	0
3.947581	0.003157884	-0.0473398	0	0	0	0
3.965091	0.003157884	-0.0473398	0	0	0	0
3.98116	0.0031842	-0.04743535	0.001637587	-0.005946221	0.04876802	-0.177081
3.997275	0.0031842	-0.04743535	0	0	-0.05088069	0.1847522
4.013843	0.0031842	-0.04743535	0	0	0	0
4.03041	0.01002598	-0.05294433	0.4129707	-0.3325223	12.4633	-10.0354
4.047225	0.01002598	-0.05294433	0	0	-12.3709	9.961002
4.063544	0.01002598	-0.05294433	0	0	0	0
4.080118	0.0309112	-0.06857187	1.260091	-0.9428734	38.30912	-28.66512
4.096676	0.0309112	-0.06857187	0	0	-38.0318	28.45761
4.113402	0.0309112	-0.06857187	0	0	0	0
4.129807	0.0198132	-0.08785173	-0.6764971	-1.175235	-20.41878	-35.47225
4.146577	0.0198132	-0.08785173	0	0	20.39207	35.42585
4.162944	0.0198132	-0.08785173	0	0	0	0
4.179508	-0.0185242	-0.1162903	-2.314583	-1.716951	-70.28615	-52.13807
4.196077	-0.0185242	-0.1162903	0	0	69.85725	51.81992
4.212831	-0.0185242	-0.1162903	0	0	0	0
4.229208	-0.03138443	-0.1254207	-0.7853088	-0.5575467	-23.70374	-16.82897
4.245777	-0.03138443	-0.1254207	0	0	23.83651	16.92324
4.262343	-0.03138443	-0.1254207	0	0	0	0
4.278907	-0.03156846	-0.1252437	-0.01111027	0.01068835	-0.3353521	0.3226169
4.295477	-0.03156846	-0.1252437	0	0	0.3353135	-0.3225797
4.312145	-0.03156846	-0.1252437	0	0	0	0
4.328608	-0.03164732	-0.1251847	-0.004790686	0.003584359	-0.1446019	0.1081902
4.345177	-0.03164732	-0.1251847	0	0	0.1450298	-0.1085103
4.361744	-0.03164732	-0.1251847	0	0	0	0
4.378309	-0.0316999	-0.1251453	-0.003174025	0.002374784	-0.09579916	0.07167628
4.394877	-0.0316999	-0.1251453	0	0	0.09579502	-0.07167319
4.411444	-0.0316999	-0.1251453	0	0	0	0
4.428008	-0.03167361	-0.1250863	0.001587104	0.003561482	0.0479044	0.1074981
4.444574	-0.03167361	-0.1250863	0	0	-0.0479044	-0.1074981
4.461338	-0.03167361	-0.1250863	0	0	0	0
4.478031	-0.03180506	-0.124988	-0.007874317	0.00589151	-0.2353611	0.1760956
4.494493	-0.03180506	-0.124988	0	0	0.2374935	-0.1776911
4.510844	-0.03180506	-0.124988	0	0	0	0
4.527411	-0.03254114	-0.1244373	-0.04442988	0.0332364	-1.349734	1.009688
4.543976	-0.03254114	-0.1244373	0	0	1.340974	-1.003134
4.560544	-0.03254114	-0.1244373	0	0	0	0
4.577109	-0.03259372	-0.124398	-0.0031738	0.002374334	-0.09579099	0.07166167
4.5941	-0.03259372	-0.124398	0	0	0.09458089	-0.0707564
4.610942	-0.03259372	-0.124398	0	0	0	0
4.626808	-0.03269887	-0.12428	-0.006627265	0.007435422	-0.202618	0.2273262
4.643378	-0.03269887	-0.12428	0	0	0.2043189	-0.2292344
4.660423	-0.03269887	-0.12428	0	0	0	0
4.676507	-0.03288288	-0.1241031	-0.01144036	0.01100124	-0.3453205	0.3320658
4.693078	-0.03288288	-0.1241031	0	0	0.3503428	-0.3368953
4.709645	-0.03288288	-0.1241031	0	0	0	0
4.726211	-0.03509085	-0.1224128	-0.133285	0.1020327	-4.022664	3.079442
4.742988	-0.03509085	-0.1224128	0	0	3.997467	-3.060153
4.759496	-0.03509085	-0.1224128	0	0	0	0
4.775908	-0.03495944	-0.1221574	0.008007018	0.01556145	0.2432204	0.4726929
4.792478	-0.03495944	-0.1221574	0	0	-0.2427703	-0.4718181
4.809555	-0.03495944	-0.1221574	0	0	0	0
4.825632	-0.03401319	-0.1214503	0.05885675	0.04398413	1.775227	1.326642
4.842177	-0.03401319	-0.1214503	0	0	-1.804212	-1.348302
4.858745	-0.03401319	-0.1214503	0	0	0	0
4.875311	-0.03317204	-0.1208219	0.05077518	0.0379323	1.53242	1.144815
4.891877	-0.03317204	-0.1208219	0	0	-1.532486	-1.144865
4.908444	-0.03317204	-0.1208219	0	0	0	0
4.925011	-0.03309318	-0.120763	0.00476004	0.00355547	0.1436604	0.1073058
4.941577	-0.03309318	-0.120763	0	0	-0.1436645	-0.1073089
4.958144	-0.03309318	-0.120763	0	0	0	0
4.974708	-0.0330406	-0.1207237	0.003174074	0.002370941	0.09580478	0.07156338
4.991278	-0.0330406	-0.1207237	0	0	-0.09579513	-0.07155617
5.007846	-0.0330406	-0.1207237	0	0	0	0
5.072021	-0.0330406	-0.1207237	0	0	0	0
5.088593	-0.0330406	-0.1207237	0	0	0	0
5.105159	-0.0330406	-0.1207237	0	0	0	0
5.121724	-0.0330406	-0.1207237	0	0	0	0
5.138571	-0.0330406	-0.1207237	0	0	0	0
5.154858	-0.0330406	-0.1207237	0	0	0	0
5.171422	-0.0330406	-0.1207237	0	0	0	0
5.18799	-0.0330406	-0.1207237	0	0	0	0
5.204556	-0.03301432	-0.1207041	0.001586788	0.001185143	0.04789072	0.03576872
5.221121	-0.03301432	-0.1207041	0	0	-0.04789417	-0.0357713
5.237767	-0.03301432	-0.1207041	0	0	0	0
5.254255	-0.03296174	-0.1207041	0.003188669	0	0.09623562	0
5.270823	-0.03296174	-0.1207041	0	0	-0.09646329	0
5.287389	-0.03296174	-0.1207041	0	0	0	0
5.303955	-0.03296174	-0.1207041	0	0	0	0
5.320522	-0.03296174	-0.1207041	0	0	0	0
5.33709	-0.03296174	-0.1207041	0	0	0	0
5.353942	-0.03293546	-0.1206845	0.001559759	0.001164956	0.0466713	0.03485796
5.370578	-0.03293546	-0.1206845	0	0	-0.04657627	-0.03478698
5.386954	-0.03293546	-0.1206845	0	0	0	0
5.403356	-0.03290917	-0.1206255	0.001602838	0.003591338	0.04890012	0.1095662
5.41993	-0.03290917	-0.1206255	0	0	-0.04860668	-0.1089087
5.436512	-0.03290917	-0.1206255	0	0	0	0
5.45306	-0.03283031	-0.1205667	0.004765663	0.00355922	0.1438466	0.1074314
5.470378	-0.03283031	-0.1205667	0	0	-0.1407215	-0.1050974
5.486194	-0.03283031	-0.1205667	0	0	0	0
5.503214	-0.03269887	-0.1204685	0.007722759	0.0057675	0.2351921	0.1756458
5.519329	-0.03269887	-0.1204685	0	0	-0.23307	-0.174061
5.535897	-0.03269887	-0.1204685	0	0	0	0
5.552456	-0.03267258	-0.1204489	0.001587427	0.001185621	0.04791969	0.03579035
5.569029	-0.03267258	-0.1204489	0	0	-0.0479121	-0.03578469
5.585597	-0.03267258	-0.1204489	0	0	0	0
5.602156	-0.03264629	-0.1204685	0.001587652	-0.001185621	0.04792716	-0.03579087
5.618724	-0.03264629	-0.1204685	0	0	-0.04792579	0.03578984
5.635291	-0.03264629	-0.1204685	0	0	0	0
5.651859	-0.03262001	-0.1204881	0.001586559	-0.001184973	0.04788245	-0.03576255
5.668424	-0.03262001	-0.1204881	0	0	-0.04788452	0.03576409
5.685089	-0.03262001	-0.1204881	0	0	0	0
5.701555	-0.03262001	-0.1204881	0	0	0	0
5.718125	-0.03262001	-0.1204881	0	0	0	0
5.735438	-0.03262001	-0.1204881	0	0	0	0
5.751639	-0.03259372	-0.1204685	0.001622699	0.001211793	0.0484185	0.03615779
5.767825	-0.03259372	-0.1204685	0	0	-0.05010448	-0.03741683
5.78475	-0.03259372	-0.1204685	0	0	0	0
5.801013	-0.03262001	-0.1204489	-0.001616514	0.001207174	-0.04870727	0.03637343
5.817525	-0.03262001	-0.1204489	0	0	0.04932166	-0.03683224
5.834297	-0.03262001	-0.1204489	0	0	0	0
5.850654	-0.03254114	-0.1203507	0.004821322	0.006001031	0.1455308	0.1811402
5.867224	-0.03254114	-0.1203507	0	0	-0.1464223	-0.1822498
5.883791	-0.03254114	-0.1203507	0	0	0	0
5.900389	-0.03154217	-0.1195656	0.06018904	0.0473046	1.814863	1.426363
5.916924	-0.03154217	-0.1195656	0	0	-1.816587	-1.427717
5.933784	-0.03154217	-0.1195656	0	0	0	0
5.950054	-0.01623541	-0.1082476	0.9407868	0.6956282	28.39709	20.99712
5.966624	-0.01623541	-0.1082476	0	0	-28.64778	-21.18249
5.983191	-0.01623541	-0.1082476	0	0	0	0
5.999786	-0.007236716	-0.1015742	0.5422729	0.4021445	16.35218	12.12662
6.016324	-0.007236716	-0.1015742	0	0	-16.36677	-12.13744
6.032892	-0.007236716	-0.1015742	0	0	0	0
6.049458	-0.006052558	-0.1006585	0.07148209	0.05528006	2.157396	1.668403
6.066243	-0.006052558	-0.1006585	0	0	-2.14333	-1.657526
6.082591	-0.006052558	-0.1006585	0	0	0	0
6.099155	-0.005973613	-0.1006	0.004765922	0.003528197	0.1448069	0.1072001
6.116005	-0.005973613	-0.1006	0	0	-0.1426309	-0.1055892
6.132324	-0.005973613	-0.1006	0	0	0	0
6.148855	-0.005894668	-0.1005416	0.004775573	0.003535321	0.1453761	0.1076208
6.165425	-0.005894668	-0.1005416	0	0	-0.1442724	-0.1068038
6.181992	-0.005894668	-0.1005416	0	0	0	0
6.198555	-0.005868354	-0.1005611	0.001588713	-0.001176283	0.04795299	-0.03550439
6.215156	-0.005868354	-0.1005611	0	0	-0.04790472	0.03546865
6.231692	-0.005868354	-0.1005611	0	0	0	0
6.248255	-0.005868354	-0.1006	0	-0.002352252	0	-0.07106782
6.264824	-0.005868354	-0.1006	0	0	0	0.07099622
6.281391	-0.005868354	-0.1006	0	0	0	0
6.297958	-0.005868354	-0.1006	0	0	0	0
6.314565	-0.005868354	-0.1006	0	0	0	0
6.331092	-0.005868354	-0.1006	0	0	0	0
6.347658	-0.005868354	-0.1006	0	0	0	0
6.364224	-0.005868354	-0.1006	0	0	0	0
6.380791	-0.005868354	-0.1006	0	0	0	0
6.397358	-0.005868354	-0.1006	0	0	0	0
6.413976	-0.005868354	-0.1006	0	0	0	0
6.430491	-0.005868354	-0.1006	0	0	0	0
6.447101	-0.005815724	-0.100639	0.003168635	-0.002345567	0.09565712	-0.07080972
6.463621	-0.005815724	-0.100639	0	0	-0.09564197	0.07079851
6.480191	-0.005815724	-0.100639	0	0	0	0
6.497052	-0.005815724	-0.100639	0	0	0	0
6.513324	-0.005815724	-0.100639	0	0	0	0
6.52989	-0.005815724	-0.100639	0	0	0	0
6.546735	-0.005815724	-0.100639	0	0	0	0
6.563153	-0.005815724	-0.100639	0	0	0	0
6.579799	-0.005815724	-0.100639	0	0	0	0
6.596158	-0.005815724	-0.100639	0	0	0	0
6.613085	-0.005815724	-0.100639	0	0	0	0
6.629291	-0.005815724	-0.100639	0	0	0	0
6.645858	-0.005815724	-0.100639	0	0	0	0
6.662425	-0.005815724	-0.100639	0	0	0	0
6.679118	-0.005815724	-0.100639	0	0	0	0
6.695875	-0.005815724	-0.100639	0	0	0	0
6.712127	-0.005815724	-0.100639	0	0	0	0
6.729227	-0.005815724	-0.100639	0	0	0	0
6.745255	-0.005789409	-0.1006585	0.001641772	-0.001215546	0.04955805	-0.03669213
6.761825	-0.005789409	-0.1006585	0	0	-0.05036343	0.03728842
6.778831	-0.005789409	-0.1006585	0	0	0	0
6.794956	-0.005789409	-0.1006585	0	0	0	0
6.811525	-0.005789409	-0.1006585	0	0	0	0
6.82829	-0.005789409	-0.1006585	0	0	0	0
6.844766	-0.005789409	-0.1006585	0	0	0	0
6.861845	-0.005789409	-0.1006585	0	0	0	0
6.878021	-0.005789409	-0.1006585	0	0	0	0
6.894741	-0.005789409	-0.1006585	0	0	0	0
6.910926	-0.005789409	-0.1006585	0	0	0	0
6.927941	-0.005789409	-0.1006585	0	0	0	0
6.944056	-0.005789409	-0.1006585	0	0	0	0
6.960625	-0.005789409	-0.1006585	0	0	0	0
6.977198	-0.005789409	-0.1006585	0	0	0	0
6.993774	-0.005789409	-0.1006585	0	0	0	0
7.010325	-0.005789409	-0.1006585	0	0	0	0
7.026891	-0.005789409	-0.1006585	0	0	0	0
7.043473	-0.005789409	-0.1006585	0	0	0	0
7.060146	-0.005789409	-0.1006585	0	0	0	0
7.07705	-0.005789409	-0.1006585	0	0	0	0
7.093254	-0.005789409	-0.1006974	0	-0.002404377	0	-0.07262275
7.109721	-0.005789409	-0.1006974	0	0	0	0.07359366
7.126291	-0.005789409	-0.1006974	0	0	0	0
7.142854	-0.005789409	-0.1006974	0	0	0	0
7.159422	-0.005789409	-0.1006974	0	0	0	0
7.175989	-0.005789409	-0.1006974	0	0	0	0
7.192554	-0.005789409	-0.1006974	0	0	0	0
7.209122	-0.005789409	-0.1006974	0	0	0	0
7.225777	-0.005789409	-0.1006974	0	0	0	0
7.242254	-0.005789409	-0.1006974	0	0	0	0
7.258821	-0.005789409	-0.1006974	0	0	0	0
7.275389	-0.005789409	-0.1006974	0	0	0	0
7.291955	-0.005789409	-0.1006974	0	0	0	0
7.308522	-0.005789409	-0.1006974	0	0	0	0
7.325089	-0.005789409	-0.1006974	0	0	0	0
7.341655	-0.005789409	-0.1006974	0	0	0	0
7.358222	-0.005789409	-0.1006974	0	0	0	0
7.374789	-0.005789409	-0.1006974	0	0	0	0
7.391355	-0.005789409	-0.1006974	0	0	0	0
7.407921	-0.005789409	-0.1006974	0	0	0	0
7.424489	-0.005789409	-0.1006974	0	0	0	0
7.441054	-0.005789409	-0.1006974	0	0	0	0
7.457622	-0.005789409	-0.1006974	0	0	0	0
7.474188	-0.005789409	-0.1006974	0	0	0	0
7.490755	-0.005789409	-0.1006974	0	0	0	0
7.507322	-0.005789409	-0.1006974	0	0	0	0
7.52389	-0.005789409	-0.1006974	0	0	0	0
7.540454	-0.005789409	-0.1006974	0	0	0	0
7.557022	-0.005789409	-0.1006974	0	0	0	0
7.574111	-0.005789409	-0.1006974	0	0	0	0
7.590154	-0.005789409	-0.1006974	0	0	0	0
7.607048	-0.005789409	-0.1006974	0	0	0	0
7.623491	-0.005789409	-0.1006974	0	0	0	0
7.640141	-0.005763094	-0.100678	0.001580415	0.001170119	0.04775544	0.0353575
7.65648	-0.005763094	-0.100678	0	0	-0.0479073	-0.03546994
7.672991	-0.005763094	-0.100678	0	0	0	0
7.689557	-0.001710525	-0.09939253	0.2446276	0.07759295	7.395648	2.345811
7.706124	-0.001710525	-0.09939253	0	0	-7.383195	-2.341861
7.72269	-0.001710525	-0.09939253	0	0	0	0
7.739258	0.04415549	-0.09546224	2.768398	0.2372257	83.55163	7.159588
7.755825	0.04415549	-0.09546224	0	0	-83.55042	-7.159485
7.772391	0.04415549	-0.09546224	0	0	0	0
7.792268	0.1423723	-0.1059822	4.94112	-0.5292402	135.5822	-14.52213
7.808839	0.1423723	-0.1059822	0	0	-135.5645	14.52023
7.825435	0.1423723	-0.1059822	0	0	0	0
7.842092	0.1872793	-0.1029777	2.696007	0.1803732	81.07745	5.424393
7.858539	0.1872793	-0.1029777	0	0	-81.43948	-5.448614
7.875106	0.1872793	-0.1029777	0	0	0	0
7.891677	0.2039405	-0.09017918	1.00544	0.7723441	30.34076	23.30671
7.90824	0.2039405	-0.09017918	0	0	-30.34512	-23.31006
7.92493	0.2039405	-0.09017918	0	0	0	0
7.94137	0.2125306	-0.09113013	0.5225301	-0.05784595	15.77226	-1.746045
7.957939	0.2125306	-0.09113013	0	0	-15.8299	1.752427
7.974553	0.2125306	-0.09113013	0	0	0	0
7.991069	0.2272678	-0.1025683	0.8922828	-0.6925416	26.93264	-20.90365
8.007639	0.2272678	-0.1025683	0	0	-26.96874	20.93167
8.024206	0.2272678	-0.1025683	0	0	0	0
8.04077	0.2278172	-0.1029972	0.03317434	-0.02589623	1.001319	-0.7816396
8.057596	0.2278172	-0.1029972	0	0	-0.9935397	0.7755672
8.073906	0.2278172	-0.1029972	0	0	0	0
8.09053	0.2278172	-0.1030362	0	-0.002345722	0	-0.07122453
8.107039	0.2278172	-0.1030362	0	0	0	0.07079607
8.123813	0.2278172	-0.1030362	0	0	0	0
8.14017	0.2277923	-0.1030167	-0.00152679	0.001192007	-0.04608392	0.035979
8.157186	0.2277923	-0.1030167	0	0	0.04574942	-0.03571785
8.173306	0.2277923	-0.1030167	0	0	0	0
8.18996	0.2278172	-0.1030362	0.001499599	-0.001170779	0.04575447	-0.03572179
8.20644	0.2278172	-0.1030362	0	0	-0.0452593	0.03533519
8.223275	0.2278172	-0.1030362	0	0	0	0
8.239571	0.2278172	-0.1030362	0	0	0	0
8.256141	0.2278172	-0.1030362	0	0	0	0
8.273073	0.2278172	-0.1030362	0	0	0	0
8.28927	0.2278422	-0.1030557	0.001541892	-0.001203798	0.0465411	-0.03633594
8.30584	0.2278422	-0.1030557	0	0	-0.0470572	0.03673887
8.322556	0.2278422	-0.1030557	0	0	0	0
8.339054	0.2278422	-0.1030557	0	0	0	0
8.355692	0.2278422	-0.1030557	0	0	0	0
8.372107	0.2278422	-0.1030557	0	0	0	0
8.388673	0.2278172	-0.1030362	-0.001507541	0.00117698	-0.0457095	0.03568668
8.405239	0.2278172	-0.1030362	0	0	0.0455003	-0.03552336
8.421806	0.2278172	-0.1030362	0	0	0	0
8.441273	0.2277923	-0.1030557	-0.001282946	-0.001001632	-0.03560414	-0.02779714
8.458074	0.2277923	-0.1030557	0	0	0.03537476	0.02761806
8.47441	0.2277923	-0.1030557	0	0	0	0
8.490974	0.2277673	-0.1030752	-0.001507715	-0.001177115	-0.04582607	-0.0357777
8.507545	0.2277673	-0.1030752	0	0	0.04550292	0.0355254
8.524193	0.2277673	-0.1030752	0	0	0	0
8.540674	0.2277173	-0.1031142	-0.00303061	-0.002366534	-0.09147715	-0.07143241
8.557243	0.2277173	-0.1031142	0	0	0.09169623	0.07160348
8.573811	0.2277173	-0.1031142	0	0	0	0
8.590375	0.2272178	-0.1029582	-0.0301579	0.009417371	-0.9102457	0.2842413
8.606944	0.2272178	-0.1029582	0	0	0.9101933	-0.284225
8.62421	0.2272178	-0.1029582	0	0	0	0
8.649553	0.2270179	-0.1029192	-0.007885997	0.001538746	-0.1850773	0.03611298
8.666123	0.2270179	-0.1029192	0	0	0.1881514	-0.03671282
8.682686	0.2258684	-0.1020225	-0.06940426	0.05414274	-2.094745	1.634125
8.699257	0.2258684	-0.1020225	0	0	2.094685	-1.634078
8.716211	0.2258684	-0.1020225	0	0	0	0
8.732483	0.20442	-0.08651437	-1.318154	0.9530796	-39.67235	28.68474
8.748953	0.20442	-0.08651437	0	0	40.25937	-29.10918
8.765519	0.20442	-0.08651437	0	0	0	0
8.782085	0.1569356	-0.05547275	-2.866324	1.873783	-86.51083	56.55415
8.798652	0.1569356	-0.05547275	0	0	86.51083	-56.55415
8.815218	0.1569356	-0.05547275	0	0	0	0
8.831784	0.1122888	-0.04781759	-2.695043	0.4620934	-81.34123	13.94681
8.848355	0.1122888	-0.04781759	0	0	81.32952	-13.9448
8.864921	0.1122888	-0.04781759	0	0	0	0
8.881571	0.04008378	-0.04948088	-4.336587	-0.09989632	-130.5591	-3.007519
8.898055	0.04008378	-0.04948088	0	0	130.8785	3.014877
8.914621	0.04008378	-0.04948088	0	0	0	0
8.931185	-0.02978067	-0.03875279	-4.217998	0.6476982	-127.3178	19.55038
8.947754	-0.02978067	-0.03875279	0	0	127.3068	-19.5487
8.964321	-0.02978067	-0.03875279	0	0	0	0
8.980887	-0.06372937	-0.0362957	-2.049266	0.1483183	-61.84874	4.476385
8.997454	-0.06372937	-0.0362957	0	0	61.85052	-4.476513
9.014027	-0.06372937	-0.0362957	0	0	0	0
9.030584	-0.06572101	-0.03743828	-0.1202847	-0.06900599	-3.630617	-2.082845
9.047153	-0.06572101	-0.03743828	0	0	3.631035	2.083085
9.063727	-0.06572101	-0.03743828	0	0	0	0
9.080287	-0.0656686	-0.03747638	0.003164773	-0.002300467	0.0955158	-0.06943023
9.096987	-0.0656686	-0.03747638	0	0	-0.09515428	0.06916744
9.113437	-0.0656686	-0.03747638	0	0	0	0
9.129989	-0.06551138	-0.03759066	0.009498246	-0.006904358	0.2878091	-0.2092109
9.147012	-0.06551138	-0.03759066	0	0	-0.2828959	0.2056395
9.163121	-0.06551138	-0.03759066	0	0	0	0
9.179688	-0.06477766	-0.03812404	0.04428732	-0.03219486	1.355318	-0.9852543
9.196255	-0.06477766	-0.03812404	0	0	-1.336633	0.9716707
9.212821	-0.06477766	-0.03812404	0	0	0	0
9.229385	-0.06163237	-0.04056355	0.1898832	-0.1472746	5.731348	-4.445267
9.245955	-0.06163237	-0.04056355	0	0	-5.730853	4.444883
9.262978	-0.06163237	-0.04056355	0	0	0	0
9.279084	-0.06092451	-0.04115466	0.04394849	-0.03670011	1.326559	-1.107771
9.295651	-0.06092451	-0.04115466	0	0	-1.345067	1.123226
9.312221	-0.06092451	-0.04115466	0	0	0	0
9.328829	-0.06100316	-0.04121188	-0.004735949	-0.003444857	-0.1427464	-0.1038315
9.345957	-0.06100316	-0.04121188	0	0	0.1403817	0.1021115
9.361995	-0.06100316	-0.04121188	0	0	0	0
9.37853	-0.06058366	-0.0418222	0.0253708	-0.03691111	0.7788965	-1.13319
9.395054	-0.06058366	-0.0418222	0	0	-0.7674372	1.116518
9.41162	-0.06058366	-0.0418222	0	0	0	0
9.428648	-0.03637868	-0.05949981	1.421493	-1.038159	42.31374	-30.90298
9.444753	-0.03637868	-0.05949981	0	0	-42.90322	31.3335
9.46132	-0.03637868	-0.05949981	0	0	0	0
9.477883	-0.02178603	-0.07013167	0.8810173	-0.6418879	26.59221	-19.37444
9.494452	-0.02178603	-0.07013167	0	0	-26.59068	19.37333
9.511019	-0.02178603	-0.07013167	0	0	0	0
9.527586	-0.02173342	-0.07020871	0.003175346	-0.004650533	0.09583489	-0.1403574
9.544152	-0.02173342	-0.07020871	0	0	-0.09583489	0.1403574
9.561094	-0.02173342	-0.07020871	0	0	0	0
9.577286	-0.02018147	-0.07134544	0.0958498	-0.07020529	2.892836	-2.118861
9.593853	-0.02018147	-0.07134544	0	0	-2.925933	2.143103
9.610474	-0.02018147	-0.07134544	0	0	0	0
9.626986	-0.01810328	-0.07286822	0.1258597	-0.09222306	3.798672	-2.783458
9.643552	-0.01810328	-0.07286822	0	0	-3.804914	2.788032
9.660118	-0.01810328	-0.07286822	0	0	0	0
9.676685	-0.01810328	-0.07286822	0	0	0	0
9.693252	-0.01810328	-0.07286822	0	0	0	0
9.709818	-0.01810328	-0.07286822	0	0	0	0
9.726384	-0.01810328	-0.07286822	0	0	0	0
9.742951	-0.01810328	-0.07286822	0	0	0	0
9.759518	-0.01810328	-0.07286822	0	0	0	0
9.780442	-0.01810328	-0.07286822	0	0	0	0
9.797012	-0.01810328	-0.07286822	0	0	0	0
9.81358	-0.01810328	-0.07286822	0	0	0	0
9.830147	-0.01810328	-0.07286822	0	0	0	0
9.846713	-0.01810328	-0.07286822	0	0	0	0
9.863289	-0.01810328	-0.07286822	0	0	0	0
9.879847	-0.01810328	-0.07286822	0	0	0	0
9.896413	-0.01810328	-0.07286822	0	0	0	0
9.912977	-0.01812959	-0.07284894	-0.001588228	0.001164071	-0.04793834	0.03513578
9.929546	-0.01812959	-0.07284894	0	0	0.0479342	-0.03513274
9.946113	-0.01812959	-0.07284894	0	0	0	0
9.962677	-0.01810328	-0.07286822	0.001588228	-0.001164071	0.04793834	-0.03513578
9.979246	-0.01810328	-0.07286822	0	0	-0.0479342	0.03513274
9.995896	-0.01810328	-0.07286822	0	0	0	0
10.01238	-0.01810328	-0.07286822	0	0	0	0
10.02895	-0.01810328	-0.07286822	0	0	0	0
10.04551	-0.01810328	-0.07286822	0	0	0	0
10.06216	-0.01810328	-0.07286822	0	0	0	0
10.07871	-0.01810328	-0.07286822	0	0	0	0
10.09532	-0.01810328	-0.07286822	0	0	0	0
10.11178	-0.01807698	-0.0728875	0.001598979	-0.001172033	0.04836167	-0.03544856
10.12835	-0.01807698	-0.0728875	0	0	-0.04842313	0.03549361
10.14539	-0.01807698	-0.0728875	0	0	0	0
10.16149	-0.01805067	-0.07290678	0.001633657	-0.001197368	0.04928827	-0.03612519
10.17805	-0.01805067	-0.07290678	0	0	-0.05002231	0.03666319
10.19461	-0.01805067	-0.07290678	0	0	0	0
10.21122	-0.01799806	-0.07298391	0.003168136	-0.004643803	0.09549909	-0.139981
10.22775	-0.01799806	-0.07298391	0	0	-0.09561729	0.1401543
10.24431	-0.01799806	-0.07298391	0	0	0	0
10.26088	-0.01794544	-0.07306103	0.003175796	-0.00465548	0.09584846	-0.1405067
10.27782	-0.01794544	-0.07306103	0	0	-0.09476829	0.1389233
10.29401	-0.01794544	-0.07306103	0	0	0	0
10.31058	-0.01789283	-0.07313817	0.003175908	-0.00465593	0.09695697	-0.1421404
10.32715	-0.01789283	-0.07313817	0	0	-0.09585185	0.1405203
10.34371	-0.01789283	-0.07313817	0	0	0	0
10.36178	-0.01784021	-0.0732153	0.002912725	-0.004269838	0.08410799	-0.1232961
10.37851	-0.01784021	-0.0732153	0	0	-0.0837046	0.1227047
10.39515	-0.01784021	-0.0732153	0	0	0	0
10.41676	-0.01528828	-0.07524079	0.1180836	-0.09372415	3.086848	-2.450062
10.43334	-0.01528828	-0.07524079	0	0	-3.09263	2.454652
10.4499	0	-0.08647561	0.922962	-0.6782522	27.85425	-20.4691
10.46647	0	-0.08647561	0	0	-27.85585	20.47028
10.48304	0	-0.08647561	0	0	0	0
10.4996	0.02691455	-0.1063726	1.624659	-1.201055	49.03513	-36.25001
10.51617	0.02691455	-0.1063726	0	0	-49.03795	36.25209
10.53273	0.02691455	-0.1063726	0	0	0	0
10.54933	0.03721965	-0.1140373	0.6210515	-0.4619258	18.72774	-13.92932
10.56587	0.03721965	-0.1140373	0	0	-18.74391	13.94135
10.58243	0.03721965	-0.1140373	0	0	0	0
10.599	0.0372722	-0.1140765	0.003172858	-0.002364126	0.09576807	-0.07135767
10.61557	0.0372722	-0.1140765	0	0	-0.0957598	0.07135151
10.63247	0.0372722	-0.1140765	0	0	0	0
10.6487	0.03721965	-0.1139982	-0.003236968	0.004824247	-0.09769469	0.1456003
10.66527	0.03721965	-0.1139982	0	0	0.09868027	-0.1470691
10.68183	0.03721965	-0.1139982	0	0	0	0
10.6984	0.03721965	-0.1139982	0	0	0	0
10.715	0.03721965	-0.1139982	0	0	0	0
10.73153	0.03721965	-0.1139982	0	0	0	0
10.7481	0.03714081	-0.1139394	-0.004758964	0.00354578	-0.1437914	0.1071352
10.76467	0.03714081	-0.1139394	0	0	0.14363	-0.1070149
10.78123	0.03714081	-0.1139394	0	0	0	0
10.7978	0.03706197	-0.1138807	-0.004759737	0.003546638	-0.1436657	0.1070501
10.81442	0.03706197	-0.1138807	0	0	0.1434262	-0.1068717
10.83093	0.03706197	-0.1138807	0	0	0	0
10.8475	0.03700941	-0.1138415	-0.003173041	0.002364262	-0.09592822	0.071477
10.86407	0.03700941	-0.1138415	0	0	0.09576808	-0.07135767
10.88097	0.03700941	-0.1138415	0	0	0	0
10.8972	0.03627356	-0.1132933	-0.04534809	0.03378361	-1.368805	1.019738
10.91377	0.03627356	-0.1132933	0	0	1.382736	-1.030117
10.93033	0.03627356	-0.1132933	0	0	0	0
10.94693	0.03616843	-0.113215	-0.006334217	0.004718116	-0.1909966	0.1422661
10.96347	0.03616843	-0.113215	0	0	0.1911725	-0.1423971
10.98003	0.03616843	-0.113215	0	0	0	0
10.9966	0.03614215	-0.1131954	-0.001586654	0.001182063	-0.04789083	0.03567884
11.01347	0.03614215	-0.1131954	0	0	0.04745507	-0.0353542
11.02973	0.03614215	-0.1131954	0	0	0	0
11.04666	0.03614215	-0.1131954	0	0	0	0
11.06287	0.03614215	-0.1131954	0	0	0	0
11.08682	0.03614215	-0.1131954	0	0	0	0
11.10339	0.03603702	-0.1131172	-0.006345295	0.004726086	-0.1565904	0.1166312
11.11996	0.03603702	-0.1131172	0	0	0.1915014	-0.1426336
11.13652	0.03603702	-0.1131172	0	0	0	0
11.15309	0.0357742	-0.1129214	-0.01586471	0.01181567	-0.4788256	0.3566182
11.16965	0.0357742	-0.1129214	0	0	0.4788256	-0.3566182
11.18622	0.0357742	-0.1129214	0	0	0	0
11.20279	0.03561651	-0.112804	-0.009519053	0.007089312	-0.2873021	0.2139682
11.21942	0.03561651	-0.112804	0	0	0.2867409	-0.2135502
11.23592	0.03561651	-0.112804	0	0	0	0
11.25249	0.03553766	-0.1127452	-0.004759414	0.003544431	-0.1439252	0.107184
11.26905	0.03553766	-0.1127452	0	0	0.1436435	-0.1069742
11.28562	0.03553766	-0.1127452	0	0	0	0
11.30219	0.03540625	-0.1126474	-0.007932582	0.005906935	-0.2394127	0.1782768
11.31875	0.03540625	-0.1126474	0	0	0.2394196	-0.1782819
11.33532	0.03540625	-0.1126474	0	0	0	0
11.35189	0.0353274	-0.1125887	-0.004759639	0.003544431	-0.1436503	0.1069742
11.36845	0.0353274	-0.1125887	0	0	0.1436503	-0.1069742
11.38502	0.0353274	-0.1125887	0	0	0	0
11.40168	0.03527484	-0.1125495	-0.003156408	0.002350193	-0.09501445	0.07074569
11.41815	0.03527484	-0.1125495	0	0	0.09526605	-0.07093304
11.43482	0.03527484	-0.1125495	0	0	0	0
11.4513	0.0351697	-0.1124713	-0.006381233	0.004751443	-0.1925472	0.14337
11.46848	0.0351697	-0.1124713	0	0	0.1895634	-0.1411482
11.48482	0.0351697	-0.1124713	0	0	0	0
11.50132	0.03514342	-0.1124517	-0.00159197	0.001185572	-0.04847407	0.03609961
11.51756	0.03514342	-0.1124517	0	0	0.04862374	-0.03621107
11.53413	0.03514342	-0.1124517	0	0	0	0
11.55069	0.03511713	-0.1124713	-0.001587244	-0.001181885	-0.04790865	-0.03567347
11.56747	0.03511713	-0.1124713	0	0	0.04759627	0.03544087
11.58383	0.03511713	-0.1124713	0	0	0	0
11.60039	0.03509085	-0.1124517	-0.001586563	0.001181545	-0.04819606	0.03589257
11.61696	0.03509085	-0.1124517	0	0	0.04788394	-0.03566013
11.63353	0.03509085	-0.1124517	0	0	0	0
11.65039	0.03509085	-0.1124517	0	0	0	0
11.66666	0.03509085	-0.1124517	0	0	0	0
11.68322	0.03509085	-0.1124517	0	0	0	0
11.69979	0.03509085	-0.1124517	0	0	0	0
11.71636	0.03509085	-0.1124517	0	0	0	0
11.7333	0.03509085	-0.1124517	0	0	0	0
11.75581	0.03506457	-0.1124713	-0.001167589	-0.0008695266	-0.02959046	-0.02203661
11.77239	0.03506457	-0.1124713	0	0	0.02987641	0.02224956
11.78895	0.03498572	-0.11253	-0.00476096	-0.003544798	-0.1436902	-0.1069853
11.80552	0.03498572	-0.11253	0	0	0.1437067	0.1069976
11.82217	0.03498572	-0.11253	0	0	0	0
11.83923	0.03490687	-0.1125887	-0.004622593	-0.003441938	-0.1371069	-0.1020885
11.85522	0.03490687	-0.1125887	0	0	0.1399007	0.1041687
11.87178	0.03490687	-0.1125887	0	0	0	0
11.88835	0.03477545	-0.11253	-0.007933488	0.003544185	-0.2394469	0.1069699
11.90491	0.03477545	-0.11253	0	0	0.2394469	-0.1069699
11.92148	0.03477545	-0.11253	0	0	0	0
11.93805	0.03067459	-0.1094788	-0.2475427	0.1841813	-7.471284	5.558924
11.95487	0.03067459	-0.1094788	0	0	7.414727	-5.516843
11.97118	0.03067459	-0.1094788	0	0	0	0
11.98775	0.01699836	-0.09976251	-0.8254985	0.5864745	-25.1058	17.83639
12.00431	0.01699836	-0.09976251	0	0	24.91431	-17.70034
12.02123	0.01699836	-0.09976251	0	0	0	0
12.03745	0.003131569	-0.1048892	-0.8552666	-0.3162034	-25.81274	-9.543311
12.05402	0.003131569	-0.1048892	0	0	26.08756	9.644916
12.07072	0.003131569	-0.1048892	0	0	0	0
12.08808	-0.02283813	-0.1240638	-1.49622	-1.104722	-43.92588	-32.43231
12.10465	-0.02283813	-0.1240638	0	0	44.10121	32.56176
12.12125	-0.02283813	-0.1240638	0	0	0	0
12.13782	-0.03606331	-0.133657	-0.7979974	-0.5788488	-24.05937	-17.45211
12.15435	-0.03606331	-0.133657	0	0	24.10373	17.48429
12.17092	-0.03606331	-0.133657	0	0	0	0
12.18748	-0.03690429	-0.1342887	-0.05076483	-0.03813018	-1.532174	-1.150837
12.20405	-0.03690429	-0.1342887	0	0	1.53213	1.150804
12.22158	-0.03690429	-0.1342887	0	0	0	0
12.23718	-0.03679917	-0.1342887	0.006734683	0	0.2032648	0
12.25375	-0.03679917	-0.1342887	0	0	-0.2093075	0
12.27032	-0.03679917	-0.1342887	0	0	0	0
12.28704	-0.03677289	-0.1343084	0.001571813	-0.001180809	0.04721995	-0.03547353
12.30386	-0.03677289	-0.1343084	0	0	-0.04686281	0.03520523
12.32002	-0.03677289	-0.1343084	0	0	0	0
12.33727	-0.03674661	-0.1342887	0.001523284	0.001144515	0.04559096	0.03425462
12.35384	-0.03674661	-0.1342887	0	0	-0.04503438	-0.03383643
12.37062	-0.03674661	-0.1342887	0	0	0	0
12.38819	-0.03674661	-0.1342887	0	0	0	0
12.40476	-0.03674661	-0.1342887	0	0	0	0
12.43207	-0.03674661	-0.1342887	0	0	0	0
12.44863	-0.03674661	-0.1342887	0	0	0	0
12.4652	-0.03674661	-0.1342887	0	0	0	0
12.48183	-0.03674661	-0.1342887	0	0	0	0
12.49839	-0.03674661	-0.1342887	0	0	0	0
12.5149	-0.03674661	-0.1342887	0	0	0	0
12.53147	-0.03674661	-0.1342887	0	0	0	0
12.54803	-0.03677289	-0.1342689	-0.001586246	0.001191821	-0.04787714	0.03597234
12.5646	-0.03677289	-0.1342689	0	0	0.04787577	-0.03597131
12.58117	-0.03677289	-0.1342689	0	0	0	0
12.59773	-0.03682545	-0.1342294	-0.003172718	0.002383642	-0.09575833	0.07194261
12.61448	-0.03682545	-0.1342294	0	0	0.09523475	-0.07154926
12.63087	-0.03682545	-0.1342294	0	0	0	0
12.64743	-0.04410296	-0.1289247	-0.439297	0.3202158	-13.33168	9.717834
12.664	-0.04410296	-0.1289247	0	0	13.25877	-9.664688
12.68096	-0.04410296	-0.1289247	0	0	0	0
12.69713	-0.08913163	-0.0967263	-2.784289	1.990944	-84.03002	60.0868
12.71385	-0.08913163	-0.0967263	0	0	84.66113	-60.53808
12.73027	-0.08913163	-0.0967263	0	0	0	0
12.74683	-0.1602201	-0.0902568	-4.290906	0.3905	-130.0839	11.83847
12.7634	-0.1602201	-0.0902568	0	0	129.5035	-11.78565
12.78031	-0.1602201	-0.0902568	0	0	0	0
12.79682	-0.2284914	-0.09795204	-4.135388	-0.4661225	-123.7414	-13.94758
12.8131	-0.2284914	-0.09795204	0	0	126.113	14.21489
12.82967	-0.2284914	-0.09795204	0	0	0	0
12.84625	-0.2361172	-0.1003273	-0.45987	-0.1432404	-13.87132	-4.320641
12.86298	-0.2361172	-0.1003273	0	0	13.80539	4.300107
12.87936	-0.2361172	-0.1003273	0	0	0	0
12.89593	-0.2361172	-0.1003273	0	0	0	0
12.9125	-0.2361172	-0.1003273	0	0	0	0
12.92943	-0.2361172	-0.1003273	0	0	0	0
12.94563	-0.2361421	-0.1003078	-0.001535452	0.001202418	-0.04634138	0.03629011
12.9622	-0.2361421	-0.1003078	0	0	0.0468593	-0.03669569
12.97877	-0.2361421	-0.1003078	0	0	0	0
12.99533	-0.2361172	-0.1003273	0.001501245	-0.00117563	0.04531027	-0.03548264
13.0119	-0.2361172	-0.1003273	0	0	-0.04531027	0.03548264
13.02847	-0.2361172	-0.1003273	0	0	0	0
13.04521	-0.2360674	-0.1003663	0.00297174	-0.002326929	0.08921739	-0.06985889
13.06161	-0.2360674	-0.1003663	0	0	-0.0896615	0.07020664
13.07817	-0.2360674	-0.1003663	0	0	0	0
13.09896	-0.2360426	-0.1003858	0.001196189	-0.0009367403	0.0320292	-0.02508218
13.11553	-0.2360426	-0.1003858	0	0	-0.03201694	0.02507258
13.13226	-0.2360177	-0.1004052	0.001487417	-0.001164549	0.04466663	-0.03497103
13.14866	-0.2360177	-0.1004052	0	0	-0.04489291	0.03514819
13.16523	-0.2360177	-0.1004052	0	0	0	0
13.18179	-0.2360177	-0.1004052	0	0	0	0
13.2476	-0.2360177	-0.1004052	0	0	0	0
13.26866	-0.2360177	-0.1004052	0	0	0	0
13.28596	-0.2360177	-0.1004052	0	0	0	0
13.30266	-0.2360177	-0.1004052	0	0	0	0
13.31924	-0.2360177	-0.1004052	0	0	0	0
13.33571	-0.2359679	-0.1004442	0.003020429	-0.002364601	0.09139612	-0.0715512
13.35223	-0.2359679	-0.1004442	0	0	-0.09155729	0.07167737
13.36879	-0.2359679	-0.1004442	0	0	0	0
13.38536	-0.2359182	-0.1004831	0.003003216	-0.002351575	0.09063986	-0.07097272
13.40193	-0.2359182	-0.1004831	0	0	-0.09063986	0.07097272
13.41849	-0.2359182	-0.1004831	0	0	0	0
13.43506	-0.2357938	-0.1005806	0.007509788	-0.005880178	0.2266719	-0.1774846
13.45163	-0.2357938	-0.1005806	0	0	-0.2266524	0.1774692
13.4683	-0.2357938	-0.1005806	0	0	0	0
13.48476	-0.2354952	-0.1008143	0.01813999	-0.01420319	0.5475133	-0.42869
13.50133	-0.2354952	-0.1008143	0	0	-0.5491414	0.4299648
13.5179	-0.2354952	-0.1008143	0	0	0	0
13.53446	-0.2352215	-0.1010286	0.01652835	-0.01294016	0.4989413	-0.3906246
13.55103	-0.2352215	-0.1010286	0	0	-0.4988552	0.3905572
13.5679	-0.2352215	-0.1010286	0	0	0	0
13.58416	-0.2351966	-0.1010481	0.001530874	-0.001198574	0.04621118	-0.03618031
13.60073	-0.2351966	-0.1010481	0	0	-0.04663001	0.03650822
13.6173	-0.2351966	-0.1010481	0	0	0	0
13.63386	-0.2351717	-0.1010286	0.00150249	0.001176351	0.045357	0.03551154
13.65043	-0.2351717	-0.1010286	0	0	-0.04534394	-0.03550132
13.66755	-0.2351717	-0.1010286	0	0	0	0
13.6836	-0.2349975	-0.101165	0.01085008	-0.008494632	0.3270888	-0.2560811
13.7009	-0.2349975	-0.101165	0	0	-0.325349	0.254719
13.7167	-0.2349975	-0.101165	0	0	0	0
13.73326	-0.2345743	-0.1012235	0.02555395	-0.003529663	0.7896751	-0.1090746
13.75049	-0.2345743	-0.1012235	0	0	-0.7560952	0.1044363
13.76646	-0.2345743	-0.1012235	0	0	0	0
13.78296	-0.228791	-0.09674574	0.350577	0.2714327	10.79957	8.36152
13.81778	-0.228791	-0.09674574	0	0	-6.831314	-5.289114
13.83435	-0.228791	-0.09674574	0	0	0	0
13.85113	-0.1740882	-0.06518567	3.260391	1.88104	97.77127	56.40784
13.86749	-0.1740882	-0.06518567	0	0	-98.3903	-56.76499
13.88405	-0.1740882	-0.06518567	0	0	0	0
13.90066	-0.1341112	-0.06853337	2.407057	-0.2015683	72.55323	-6.07565
13.91719	-0.1341112	-0.06853337	0	0	-72.6472	6.083519
13.93375	-0.1341112	-0.06853337	0	0	0	0
13.95032	-0.128628	-0.07122982	0.3310625	-0.1628052	9.993212	-4.914319
13.96699	-0.128628	-0.07122982	0	0	-9.959381	4.897682
13.98345	-0.128628	-0.07122982	0	0	0	0
14.00002	-0.1262719	-0.07298391	0.1422353	-0.1058949	4.307049	-3.206621
14.01659	-0.1262719	-0.07298391	0	0	-4.292792	3.196007
14.03315	-0.1262719	-0.07298391	0	0	0	0
14.04971	-0.1263496	-0.07292607	-0.004691819	0.003492769	-0.141632	0.1054363
14.06638	-0.1263496	-0.07292607	0	0	0.1412052	-0.1051185
14.08286	-0.1263496	-0.07292607	0	0	0	0
14.10554	-0.1263755	-0.07290678	-0.001141883	0.0008501703	-0.02916384	0.02171347
14.12226	-0.1263755	-0.07290678	0	0	0.02897681	-0.02157422
14.13867	-0.1264014	-0.0728875	-0.001577576	0.001175235	-0.04761272	0.0354697
14.15524	-0.1264014	-0.0728875	0	0	0.04783992	-0.03563895
14.1718	-0.1264014	-0.0728875	0	0	0	0
14.18837	-0.1264532	-0.07281038	-0.003126979	0.004655834	-0.09438328	0.1405295
14.20494	-0.1264532	-0.07281038	0	0	0.09437513	-0.1405174
14.2215	-0.1264532	-0.07281038	0	0	0	0
14.23815	-0.1262719	-0.07271398	0.01088961	0.005791231	0.3278752	0.1743682
14.25464	-0.1262719	-0.07271398	0	0	-0.3286585	-0.1747847
14.2712	-0.1262719	-0.07271398	0	0	0	0
14.28777	-0.1258316	-0.07246335	0.02658265	0.01513155	0.8023584	0.4567235
14.30434	-0.1258316	-0.07246335	0	0	-0.8023123	-0.4566973
14.32097	-0.1258316	-0.07246335	0	0	0	0
14.33747	-0.1250286	-0.07298391	0.04867795	-0.03155531	1.46923	-0.9524234
14.35404	-0.1250286	-0.07298391	0	0	-1.472154	0.9543188
14.37062	-0.1250286	-0.07298391	0	0	0	0
14.38747	-0.1109634	-0.08345448	0.8345207	-0.6212412	24.96173	-18.58223
14.40422	-0.1109634	-0.08345448	0	0	-24.83281	18.48625
14.4203	-0.1109634	-0.08345448	0	0	0	0
14.43687	-0.09513301	-0.09505398	0.9555224	-0.700147	29.26562	-21.44402
14.45344	-0.09513301	-0.09505398	0	0	-28.83855	21.13109
14.47	-0.09513301	-0.09505398	0	0	0	0
14.48949	-0.09458534	-0.09507342	0.02811207	-0.0009977879	0.7798526	-0.02767948
14.50606	-0.09458534	-0.09507342	0	0	-0.7797494	0.02767581
14.52262	-0.09458534	-0.09507342	0	0	0	0
14.53919	-0.09382894	-0.09555946	0.04565408	-0.02933566	1.377883	-0.8853775
14.55632	-0.09382894	-0.09555946	0	0	-1.354721	0.8704947
14.57242	-0.09382894	-0.09555946	0	0	0	0
14.58889	-0.09364634	-0.09565667	0.01108999	-0.005904286	0.3405483	-0.1813071
14.60546	-0.09364634	-0.09565667	0	0	-0.3357016	0.1787267
14.62211	-0.09364634	-0.09565667	0	0	0	0
14.63859	-0.09356809	-0.09559834	0.004750185	0.003540816	0.1433774	0.1068744
14.65516	-0.09356809	-0.09559834	0	0	-0.1437581	-0.1071581
14.67172	-0.09356809	-0.09559834	0	0	0	0
14.68829	-0.09111543	-0.09377129	0.1480426	0.1102807	4.468065	3.328375
14.70486	-0.09111543	-0.09377129	0	0	-4.468065	-3.328375
14.72172	-0.09111543	-0.09377129	0	0	0	0
14.73799	-0.07854858	-0.08482906	0.7724543	0.5496576	23.3154	16.59061
14.75456	-0.07854858	-0.08482906	0	0	-23.52328	-16.73853
14.77131	-0.07854858	-0.08482906	0	0	0	0
14.78769	-0.07818242	-0.08506146	0.02235099	-0.01418602	0.6745737	-0.4281473
14.80426	-0.07818242	-0.08506146	0	0	-0.6783615	0.4305515
14.82082	-0.07818242	-0.08506146	0	0	0	0
14.83739	-0.07779007	-0.08511956	0.02368624	-0.003507506	0.7149343	-0.1058689
14.85396	-0.07779007	-0.08511956	0	0	-0.7148727	0.1058598
14.87052	-0.07779007	-0.08511956	0	0	0	0
14.88709	-0.0725828	-0.08893763	0.3143662	-0.2304987	9.488683	-6.957264
14.90366	-0.0725828	-0.08893763	0	0	-9.487864	6.956664
14.9205	-0.0725828	-0.08893763	0	0	0	0
14.93679	-0.05502335	-0.0951123	1.077821	-0.3790094	32.52964	-11.43885
14.95336	-0.05502335	-0.0951123	0	0	-32.80249	11.5348
14.96992	-0.05502335	-0.0951123	0	0	0	0
14.98649	-0.03456518	-0.08063006	1.234858	0.87415	37.26915	26.38266
15.00306	-0.03456518	-0.08063006	0	0	-37.26808	-26.3819
15.01962	-0.03456518	-0.08063006	0	0	0	0
15.03619	-0.0242847	-0.07338885	0.6206024	0.4371303	18.73143	13.19376
15.05276	-0.0242847	-0.07338885	0	0	-18.72604	-13.18996
15.06951	-0.0242847	-0.07338885	0	0	0	0
15.08589	-0.0241006	-0.07348528	0.01123988	-0.005887009	0.3393179	-0.1777214
15.10246	-0.0241006	-0.07348528	0	0	-0.3411644	0.1786886
15.11906	-0.0241006	-0.07348528	0	0	0	0
15.13559	-0.0241006	-0.07348528	0	0	0	0
15.15224	-0.0241006	-0.07348528	0	0	0	0
15.16912	-0.0241006	-0.07348528	0	0	0	0
15.18529	-0.0241269	-0.073466	-0.00162722	0.001192987	-0.04924567	0.03610419
15.20187	-0.0241269	-0.073466	0	0	0.04969604	-0.03643438
15.21854	-0.0241269	-0.073466	0	0	0	0
15.23499	-0.0240743	-0.07342742	0.003199318	0.002346016	0.09659733	0.07083347
15.25156	-0.0240743	-0.07342742	0	0	-0.09691826	-0.07106881
15.26812	-0.0240743	-0.07342742	0	0	0	0
15.28469	-0.0240743	-0.07342742	0	0	0	0
15.30126	-0.0240743	-0.07342742	0	0	0	0
15.31834	-0.0240743	-0.07342742	0	0	0	0
15.33439	-0.02404799	-0.07344671	0.001638629	-0.001201816	0.04945676	-0.03627297
15.35096	-0.02404799	-0.07344671	0	0	-0.05023761	0.03684566
15.36752	-0.02404799	-0.07344671	0	0	0	0
15.38409	-0.02383759	-0.07360099	0.01270088	-0.009312846	0.3833022	-0.2810541
15.40065	-0.02383759	-0.07360099	0	0	-0.3833795	0.2811108
15.41725	-0.02383759	-0.07360099	0	0	0	0
15.43379	-0.01978689	-0.07657264	0.2449801	-0.1797208	7.393727	-5.424142
15.45035	-0.01978689	-0.07657264	0	0	-7.400756	5.429299
15.46692	-0.01978689	-0.07657264	0	0	0	0
15.48348	-0.01081537	-0.08312546	0.5416157	-0.395597	16.34788	-11.94052
15.50005	-0.01081537	-0.08312546	0	0	-16.34694	11.93983
15.51662	-0.01081537	-0.08312546	0	0	0	0
15.53318	-0.007078829	-0.08583625	0.2256418	-0.163699	6.810472	-4.940871
15.54996	-0.007078829	-0.08583625	0	0	-6.768197	4.910201
15.56675	-0.007078829	-0.08583625	0	0	0	0
15.58294	-0.007052515	-0.08585562	0.001625303	-0.001196472	0.04929151	-0.03628609
15.59945	-0.007052515	-0.08585562	0	0	-0.04969685	0.03658448
15.61602	-0.007052515	-0.08585562	0	0	0	0
15.63258	-0.006894628	-0.08597185	0.009531182	-0.007016857	0.2876682	-0.2117814
15.64918	-0.006894628	-0.08597185	0	0	-0.2873952	0.2115804
15.66593	-0.006894628	-0.08597185	0	0	0	0
15.68228	-0.006841999	-0.08601061	0.00321913	-0.002370228	0.0972487	-0.07160368
15.69885	-0.006841999	-0.08601061	0	0	-0.09780096	0.07201031
15.71542	-0.006841999	-0.08601061	0	0	0	0
15.73198	-0.00678937	-0.08604935	0.003176878	-0.002338668	0.09588388	-0.0705852
15.74855	-0.00678937	-0.08604935	0	0	-0.09588388	0.0705852
15.76546	-0.00678937	-0.08604935	0	0	0	0
15.78672	-0.006657796	-0.08614622	0.006188685	-0.004556503	0.1621273	-0.1193684
15.80329	-0.006657796	-0.08614622	0	0	-0.1635863	0.1204427
15.81986	-0.006631482	-0.0861656	0.001588439	-0.001169784	0.04793505	-0.03530109
15.83642	-0.006631482	-0.0861656	0	0	-0.04794056	0.03530516
15.85299	-0.006631482	-0.0861656	0	0	0	0
15.86967	-0.006526223	-0.08628185	0.006311303	-0.006970405	0.1898526	-0.2096792
15.88632	-0.006526223	-0.08628185	0	0	-0.1893311	0.2091034
15.90269	-0.006526223	-0.08628185	0	0	0	0
15.91926	-0.006499908	-0.08633997	0.001588622	-0.003508856	0.04824184	-0.1065538
15.93583	-0.006499908	-0.08633997	0	0	-0.0479447	0.1058975
15.95239	-0.006499908	-0.08633997	0	0	0	0
15.96898	-0.006499908	-0.08633997	0	0	0	0
15.98588	-0.006499908	-0.08633997	0	0	0	0
16.00209	-0.006499908	-0.08633997	0	0	0	0
16.01866	-0.006526223	-0.0863206	-0.001588347	0.001169267	-0.04845946	0.03567357
16.03523	-0.006526223	-0.0863206	0	0	0.04793642	-0.03528854
16.05179	-0.006526223	-0.0863206	0	0	0	0
16.06836	-0.006552538	-0.08630122	-0.001588376	0.001169716	-0.04793727	0.03530211
16.08507	-0.006552538	-0.08630122	0	0	0.04773667	-0.03515438
16.10155	-0.006552538	-0.08630122	0	0	0	0
16.11806	-0.006552538	-0.08630122	0	0	0	0
16.13466	-0.006552538	-0.08630122	0	0	0	0
16.15134	-0.006552538	-0.08630122	0	0	0	0
16.16776	-0.006578852	-0.08628185	-0.001602926	0.001179999	-0.0484238	0.03564732
16.18433	-0.006578852	-0.08628185	0	0	0.0485946	-0.03577306
16.20132	-0.006578852	-0.08628185	0	0	0	0
16.21786	-0.006578852	-0.08628185	0	0	0	0
16.23439	-0.006578852	-0.08628185	0	0	0	0
16.25126	-0.006578852	-0.08628185	0	0	0	0
16.26716	-0.006578852	-0.08628185	0	0	0	0
16.28373	-0.006578852	-0.08628185	0	0	0	0
16.3003	-0.006578852	-0.08628185	0	0	0	0
16.317	-0.006578852	-0.08628185	0	0	0	0
16.33343	-0.006578852	-0.08628185	0	0	0	0
16.35	-0.006578852	-0.08628185	0	0	0	0
16.36656	-0.006552538	-0.08630122	0.00158853	-0.001169401	0.04794746	-0.03529666
16.38328	-0.006552538	-0.08630122	0	0	-0.04773312	0.03513887
16.39973	-0.006552538	-0.08630122	0	0	0	0
16.41626	-0.006552538	-0.08630122	0	0	0	0
16.43283	-0.006552538	-0.08630122	0	0	0	0
16.44939	-0.006552538	-0.08630122	0	0	0	0
16.46596	-0.006552538	-0.08630122	0	0	0	0
16.48277	-0.006552538	-0.08630122	0	0	0	0
16.4991	-0.006552538	-0.08630122	0	0	0	0
16.51805	-0.006552538	-0.08630122	0	0	0	0
16.53462	-0.006552538	-0.08630122	0	0	0	0
16.55134	-0.006552538	-0.08630122	0	0	0	0
16.56775	-0.006578852	-0.0863206	-0.001603672	-0.001181002	-0.04840448	-0.0356468
16.58438	-0.006578852	-0.0863206	0	0	0.048533	0.03574145
16.60115	-0.006578852	-0.0863206	0	0	0	0
16.61745	-0.006578852	-0.0863206	0	0	0	0
16.63402	-0.006578852	-0.0863206	0	0	0	0
16.65062	-0.006578852	-0.0863206	0	0	0	0
16.66716	-0.006578852	-0.0863206	0	0	0	0
16.68372	-0.006578852	-0.0863206	0	0	0	0
16.70049	-0.006578852	-0.0863206	0	0	0	0
16.71685	-0.006578852	-0.0863206	0	0	0	0
16.73342	-0.006578852	-0.0863206	0	0	0	0
16.75052	-0.006578852	-0.0863206	0	0	0	0
16.76655	-0.006605167	-0.08633997	-0.00164145	-0.001208358	-0.04954762	-0.03647462
16.78312	-0.006605167	-0.08633997	0	0	0.05035355	0.03706791
16.80007	-0.006605167	-0.08633997	0	0	0	0
16.81625	-0.006578852	-0.08635935	0.001626165	-0.001197567	0.04907777	-0.03614264
16.83282	-0.006578852	-0.08635935	0	0	-0.04964937	0.03656358
16.84985	-0.006578852	-0.08635935	0	0	0	0
16.86595	-0.006605167	-0.08637873	-0.001634062	-0.001203382	-0.04932745	-0.03632651
16.88261	-0.006605167	-0.08637873	0	0	0.04987014	0.03672617
16.89923	-0.006605167	-0.08637873	0	0	0	0
16.91565	-0.006631482	-0.0863981	-0.001602768	-0.001179862	-0.04851407	-0.03571314
16.93253	-0.006631482	-0.0863981	0	0	0.04813061	0.03543086
16.94879	-0.006631482	-0.0863981	0	0	0	0
16.96535	-0.006631482	-0.0863981	0	0	0	0
16.98208	-0.006631482	-0.0863981	0	0	0	0
16.9985	-0.006631482	-0.0863981	0	0	0	0
17.01505	-0.006631482	-0.0863981	0	0	0	0
17.03162	-0.006631482	-0.0863981	0	0	0	0
17.04864	-0.006631482	-0.0863981	0	0	0	0
17.06524	-0.006631482	-0.0863981	0	0	0	0
17.08132	-0.006631482	-0.0863981	0	0	0	0
17.09833	-0.006631482	-0.0863981	0	0	0	0
17.1184	-0.006631482	-0.0863981	0	0	0	0
17.13497	-0.006631482	-0.0863981	0	0	0	0
17.15154	-0.006631482	-0.0863981	0	0	0	0
17.16811	-0.006631482	-0.0863981	0	0	0	0
17.18513	-0.006631482	-0.0863981	0	0	0	0
17.20124	-0.006631482	-0.0863981	0	0	0	0
17.21781	-0.006631482	-0.0863981	0	0	0	0
17.23438	-0.006631482	-0.0863981	0	0	0	0
17.25094	-0.006631482	-0.0863981	0	0	0	0
17.26751	-0.006631482	-0.0863981	0	0	0	0
17.31861	-0.006631482	-0.0863981	0	0	0	0
17.33518	-0.006657796	-0.08637873	-0.001587799	0.001168863	-0.02346225	0.0172718
17.35175	-0.006657796	-0.08637873	0	0	0.04791712	-0.03527432
17.36831	-0.006657796	-0.08637873	0	0	0	0
17.38488	-0.006657796	-0.08637873	0	0	0	0
17.40145	-0.006657796	-0.08637873	0	0	0	0
17.41802	-0.006657796	-0.08637873	0	0	0	0
17.43477	-0.006657796	-0.08637873	0	0	0	0
17.45128	-0.006657796	-0.08637873	0	0	0	0
17.46779	-0.006657796	-0.08637873	0	0	0	0
17.48428	-0.006657796	-0.08637873	0	0	0	0
17.50085	-0.006657796	-0.08637873	0	0	0	0
17.51742	-0.006657796	-0.08637873	0	0	0	0
17.53433	-0.006631482	-0.0863981	0.0015561	-0.001145528	0.04648159	-0.03421755
17.55136	-0.006631482	-0.0863981	0	0	-0.04584943	0.03375219
17.56711	-0.006631482	-0.0863981	0	0	0	0
17.58389	-0.006657796	-0.08637873	-0.001568662	0.001154775	-0.04821662	0.03549481
17.60024	-0.006657796	-0.08637873	0	0	0.04734778	-0.03485521
17.61712	-0.006657796	-0.08637873	0	0	0	0
17.63346	-0.006657796	-0.08637873	0	0	0	0
17.64995	-0.006657796	-0.08637873	0	0	0	0
17.66653	-0.006657796	-0.08637873	0	0	0	0
17.68308	-0.006657796	-0.08637873	0	0	0	0
17.69999	-0.006657796	-0.08637873	0	0	0	0
17.71665	-0.006657796	-0.08637873	0	0	0	0
17.73278	-0.006684111	-0.08635935	-0.001631357	0.00120139	-0.04975862	0.03664404
17.74935	-0.006684111	-0.08635935	0	0	0.04988341	-0.03673594
17.76591	-0.006684111	-0.08635935	0	0	0	0
17.78248	-0.006684111	-0.08635935	0	0	0	0
17.79949	-0.006684111	-0.08635935	0	0	0	0
17.81561	-0.006684111	-0.08635935	0	0	0	0
17.83217	-0.006684111	-0.08635935	0	0	0	0
17.84897	-0.006684111	-0.08635935	0	0	0	0
17.86531	-0.006684111	-0.08635935	0	0	0	0
17.88188	-0.006684111	-0.08635935	0	0	0	0
17.89845	-0.006684111	-0.08635935	0	0	0	0
17.91558	-0.006684111	-0.08635935	0	0	0	0
17.93158	-0.00678937	-0.08628185	-0.006581489	0.004845893	-0.1986755	0.146283
17.94839	-0.00678937	-0.08628185	0	0	0.2006044	-0.1477032
17.96497	-0.00678937	-0.08628185	0	0	0	0
17.98128	-0.007894573	-0.08542945	-0.06777132	0.05226928	-2.060884	1.589476
17.99816	-0.007894573	-0.08542945	0	0	2.042051	-1.574952
18.01441	-0.007894573	-0.08542945	0	0	0	0
18.03349	-0.01752452	-0.07834944	-0.5047352	0.3710852	-14.2833	10.50119
18.05006	-0.01752452	-0.07834944	0	0	14.15949	-10.41016
18.06663	-0.01752452	-0.07834944	0	0	0	0
18.08319	-0.0471755	-0.05664194	-1.789943	1.310418	-54.02368	39.55079
18.09976	-0.0471755	-0.05664194	0	0	54.02368	-39.55079
18.11712	-0.0471755	-0.05664194	0	0	0	0
18.13289	-0.0731325	-0.037724	-1.645978	1.199619	-49.68143	36.20873
18.14946	-0.0731325	-0.037724	0	0	50.90046	-37.09719
18.16603	-0.0731325	-0.037724	0	0	0	0
18.18259	-0.1151203	-0.007131287	-2.534681	1.846792	-76.49683	55.73631
18.19916	-0.1151203	-0.007131287	0	0	76.49683	-55.73631
18.21592	-0.1151203	-0.007131287	0	0	0	0
18.2323	-0.1638084	0.0283157	-2.971663	2.163496	-89.67463	65.28693
18.24887	-0.1638084	0.0283157	0	0	90.18332	-65.65727
18.26543	-0.1638084	0.0283157	0	0	0	0
18.28199	-0.17794	0.03873735	-0.8533775	0.6293417	-25.76092	18.99794
18.29931	-0.17794	0.03873735	0	0	25.1909	-18.57757
18.31513	-0.17794	0.03873735	0	0	0	0
18.3317	-0.1780674	0.03886767	-0.007695533	0.007868734	-0.2376274	0.2429756
18.34881	-0.1780674	0.03886767	0	0	0.2285288	-0.2336722
18.36488	-0.1780674	0.03886767	0	0	0	0
18.38182	-0.18283	0.04234732	-0.2812509	0.20549	-8.52054	6.225351
18.39797	-0.18283	0.04234732	0	0	8.501382	-6.211353
18.41469	-0.18283	0.04234732	0	0	0	0
18.4311	-0.1835678	0.04303543	-0.04498092	0.04194949	-1.357762	1.266257
18.44766	-0.1835678	0.04303543	0	0	1.364202	-1.272263
18.46478	-0.1835678	0.04303543	0	0	0	0
18.48707	-0.1834406	0.0431284	0.005705819	0.004170253	0.1447963	0.1058284
18.50364	-0.1834406	0.0431284	0	0	-0.1468073	-0.1072981
18.5202	-0.1833643	0.04318419	0.004607072	0.003368038	0.1390417	0.1016476
18.53677	-0.1833643	0.04318419	0	0	-0.1390497	-0.1016535
18.55334	-0.1833643	0.04318419	0	0	0	0
18.5699	-0.183288	0.04320278	0.004607972	0.001122755	0.1390849	0.0338887
18.58666	-0.183288	0.04320278	0	0	-0.1383046	-0.03369858
18.60304	-0.183288	0.04320278	0	0	0	0
18.6196	-0.1832625	0.04318419	0.001536413	-0.001122625	0.04663481	-0.03407509
18.63618	-0.1832625	0.04318419	0	0	-0.04636638	0.03387894
18.65307	-0.1832625	0.04318419	0	0	0	0
18.66968	-0.1832625	0.04318419	0	0	0	0
18.68587	-0.1832625	0.04318419	0	0	0	0
18.70244	-0.1832625	0.04318419	0	0	0	0
18.71901	-0.1832625	0.04318419	0	0	0	0
18.73557	-0.1832625	0.04318419	0	0	0	0
18.75256	-0.1832625	0.04318419	0	0	0	0
18.76925	-0.1832371	0.04316559	0.001523585	-0.001113681	0.04524225	-0.03307031
18.78528	-0.1832371	0.04316559	0	0	-0.04656352	0.03403611
18.80184	-0.1832371	0.04316559	0	0	0	0
18.81841	-0.1832116	0.043147	0.001536236	-0.001122496	0.04636371	-0.033877
18.83498	-0.1832116	0.043147	0	0	-0.04636371	0.033877
18.85159	-0.1832116	0.043147	0	0	0	0
18.86811	-0.1831608	0.04310981	0.003080605	-0.002252027	0.09298354	-0.06797413
18.88468	-0.1831608	0.04310981	0	0	-0.09311756	0.0680721
18.90153	-0.1831608	0.04310981	0	0	0	0
18.91781	-0.1831099	0.04307261	0.003125915	-0.00228471	0.09434574	-0.06895666
18.93438	-0.1831099	0.04307261	0	0	-0.09516752	0.06955729
18.95094	-0.1831099	0.04307261	0	0	0	0
18.96798	-0.1829318	0.04294245	0.01045486	-0.007640629	0.3111226	-0.2273748
18.98408	-0.1829318	0.04294245	0	0	-0.3155465	0.2306079
19.0011	-0.1829318	0.04294245	0	0	0	0
19.01721	-0.1809209	0.04143585	0.1248566	-0.0935446	3.768396	-2.823344
19.03378	-0.1809209	0.04143585	0	0	-3.821414	2.863065
19.0506	-0.1809209	0.04143585	0	0	0	0
19.06691	-0.1575261	0.02403773	1.434407	-1.066732	43.29548	-32.19774
19.08348	-0.1575261	0.02403773	0	0	-43.62702	32.44429
19.10013	-0.1575261	0.02403773	0	0	0	0
19.11661	-0.1053454	-0.01442088	3.166033	-2.333456	95.55106	-70.42383
19.13317	-0.1053454	-0.01442088	0	0	-95.81028	70.61488
19.14999	-0.1053454	-0.01442088	0	0	0	0
19.16633	-0.055653	-0.05405503	3.040748	-2.42527	91.70662	-73.14426
19.18288	-0.055653	-0.05405503	0	0	-92.44044	73.72955
19.19949	-0.055653	-0.05405503	0	0	0	0
19.21603	-0.01749821	-0.08572001	2.307011	-1.914608	69.60971	-57.76969
19.23258	-0.01749821	-0.08572001	0	0	-69.71403	57.85626
19.24926	-0.01749821	-0.08572001	0	0	0	0
19.26579	-0.004789437	-0.1167607	0.7689624	-1.878163	23.15801	-56.5626
19.28256	-0.004789437	-0.1167607	0	0	-23.08904	56.39415
19.29902	-0.004789437	-0.1167607	0	0	0	0
19.31541	-0.0121573	-0.1317432	-0.4494857	-0.9140266	-13.68286	-27.82403
19.33198	-0.0121573	-0.1317432	0	0	13.63615	27.72903
19.34869	-0.0121573	-0.1317432	0	0	0	0
19.36602	-0.01189418	-0.1317038	0.01517776	0.002275243	0.4458743	0.0668394
19.38176	-0.01189418	-0.1317038	0	0	-0.4588846	-0.06878974
19.39853	-0.01189418	-0.1317038	0	0	0	0
19.41781	-0.01186786	-0.1316446	0.001364348	0.003067513	0.03784715	0.08509313
19.43441	-0.01186786	-0.1316446	0	0	-0.03802016	-0.0854821
19.45095	-0.01186786	-0.1316446	0	0	0	0
19.46753	-0.01184155	-0.131546	0.001586591	0.005945407	0.04790272	0.1795051
19.48408	-0.01184155	-0.131546	0	0	-0.04788341	-0.1794327
19.50134	-0.01184155	-0.131546	0	0	0	0
19.51729	-0.01184155	-0.131546	0	0	0	0
19.53408	-0.01184155	-0.131546	0	0	0	0
19.55063	-0.01184155	-0.131546	0	0	0	0
19.56757	-0.01181524	-0.1315657	0.001553132	-0.001163695	0.04637443	-0.03474635
19.58434	-0.01181524	-0.1315657	0	0	-0.0460753	0.03452222
19.60089	-0.01181524	-0.1315657	0	0	0	0
19.61736	-0.01181524	-0.1315263	0	0.002393759	0	0.07248162
19.63384	-0.01181524	-0.1315263	0	0	0	-0.07263684
19.65053	-0.01181524	-0.1315263	0	0	0	0
19.66704	-0.01178893	-0.131546	0.001593131	-0.001194566	0.04798412	-0.0359796
19.68354	-0.01178893	-0.131546	0	0	-0.04825579	0.03618331
19.70054	-0.01178893	-0.131546	0	0	0	0
19.71699	-0.01176262	-0.1315657	0.001599097	-0.001198092	0.04780405	-0.03581624
19.73324	-0.01176262	-0.1315657	0	0	-0.04889697	0.03663508
19.74983	-0.01176262	-0.1315657	0	0	0	0
19.76654	-0.01178893	-0.131546	-0.001574998	0.001180036	-0.04729668	0.0354361
19.78304	-0.01178893	-0.131546	0	0	0.04743252	-0.03553787
19.79952	-0.01178893	-0.131546	0	0	0	0
19.81607	-0.01176262	-0.1315263	0.001589699	0.001191951	0.04812126	0.03608115
19.83264	-0.01176262	-0.1315263	0	0	-0.04799656	-0.03598765
19.84924	-0.01176262	-0.1315263	0	0	0	0
19.86578	-0.01178893	-0.1315066	-0.001591166	0.00119215	-0.04802425	0.03598122
19.88235	-0.01178893	-0.1315066	0	0	0.04806299	-0.03601024
19.89928	-0.01178893	-0.1315066	0	0	0	0
19.91586	-0.01170999	-0.131408	0.004763552	0.005950197	0.1421523	0.1775637
19.93204	-0.01170999	-0.131408	0	0	-0.1454048	-0.1816265
19.94924	-0.01170999	-0.131408	0	0	0	0
19.96517	-0.01155212	-0.1312502	0.009907948	0.009899823	0.2990741	0.2988289
19.98174	-0.01155212	-0.1312502	0	0	-0.3048127	-0.3045627
19.99831	-0.01155212	-0.1312502	0	0	0	0
20.01488	-0.01152581	-0.1312305	0.001588235	0.001189954	0.04793579	0.03591494
20.03151	-0.01152581	-0.1312305	0	0	-0.04784215	-0.03584478
20.04824	-0.01152581	-0.1312305	0	0	0	0
20.06458	-0.01149949	-0.1312502	0.001610992	-0.001207046	0.04871517	-0.03650017
20.08114	-0.01149949	-0.1312502	0	0	-0.04896653	0.0366885
20.09771	-0.01149949	-0.1312502	0	0	0	0
20.11428	-0.01149949	-0.1312502	0	0	0	0
20.13101	-0.01149949	-0.1312502	0	0	0	0
20.14741	-0.01149949	-0.1312502	0	0	0	0
20.16397	-0.01149949	-0.1312502	0	0	0	0
20.18094	-0.01149949	-0.1312502	0	0	0	0
20.19712	-0.01149949	-0.1312502	0	0	0	0
20.21367	-0.01149949	-0.1312502	0	0	0	0
20.23024	-0.01149949	-0.1312502	0	0	0	0
20.24681	-0.01149949	-0.1312502	0	0	0	0
20.26337	-0.01149949	-0.1312502	0	0	0	0
20.28002	-0.01149949	-0.1312502	0	0	0	0
20.29651	-0.01149949	-0.1312502	0	0	0	0
20.31307	-0.01149949	-0.1312502	0	0	0	0
20.32964	-0.01149949	-0.1312502	0	0	0	0
20.34641	-0.01149949	-0.1312502	0	0	0	0
20.36292	-0.01149949	-0.1312502	0	0	0	0
20.38004	-0.01149949	-0.1312502	0	0	0	0
20.39664	-0.01149949	-0.1312502	0	0	0	0
20.41247	-0.01147318	-0.13127	0.001661697	-0.001244994	0.05124149	-0.03839167
20.42904	-0.01147318	-0.13127	0	0	-0.05128372	0.03842331
20.44616	-0.01147318	-0.13127	0	0	0	0
20.47021	-0.01136793	-0.1313488	0.004374596	-0.003278228	0.1062418	-0.07961531
20.48679	-0.01136793	-0.1313488	0	0	-0.1076682	0.08068422
20.50335	-0.01126268	-0.1314671	0.006354347	-0.007143165	0.1917746	-0.2155812
20.51992	-0.01126268	-0.1314671	0	0	-0.1917967	0.215606
20.53649	-0.01126268	-0.1314671	0	0	0	0
20.55305	-0.01115743	-0.131546	0.006354347	-0.00476271	0.1917856	-0.1437472
20.56962	-0.01115743	-0.131546	0	0	-0.1917856	0.1437472
20.58619	-0.01115743	-0.131546	0	0	0	0
20.60275	-0.01115743	-0.131546	0	0	0	0
20.61988	-0.01115743	-0.131546	0	0	0	0
20.63589	-0.01115743	-0.131546	0	0	0	0
20.65245	-0.01118374	-0.1315263	-0.001588418	0.00119099	-0.04877524	0.03657151
20.66902	-0.01118374	-0.1315263	0	0	0.04794407	-0.0359483
20.68558	-0.01118374	-0.1315263	0	0	0	0
20.70215	-0.01118374	-0.1315263	0	0	0	0
20.71872	-0.01118374	-0.1315263	0	0	0	0
20.73528	-0.01118374	-0.1315263	0	0	0	0
20.75293	-0.01115743	-0.131546	0.001491073	-0.001118002	0.04358077	-0.03267671
20.7695	-0.01115743	-0.131546	0	0	-0.04358077	0.03267671
20.78607	-0.01115743	-0.131546	0	0	0	0
20.80263	-0.01113112	-0.1315657	0.001588418	-0.001190091	0.04794131	-0.03591907
20.8192	-0.01113112	-0.1315657	0	0	-0.04793855	0.03591701
20.83577	-0.01113112	-0.1315657	0	0	0	0
20.85233	-0.01113112	-0.1315657	0	0	0	0
20.8689	-0.01113112	-0.1315657	0	0	0	0
20.88547	-0.01113112	-0.1315657	0	0	0	0
20.90226	-0.01113112	-0.1315263	0	0.00234863	0	0.07039955
20.9186	-0.01113112	-0.1315263	0	0	0	-0.07088587
20.93517	-0.01113112	-0.1315263	0	0	0	0
20.95174	-0.01115743	-0.131546	-0.001588235	-0.001190853	-0.04793303	-0.03594002
20.9683	-0.01115743	-0.131546	0	0	0.04793303	0.03594002
20.98487	-0.01115743	-0.131546	0	0	0	0
21.00144	-0.01113112	-0.1315263	0.001588235	0.001190853	0.04793303	0.03594002
21.01801	-0.01113112	-0.1315263	0	0	-0.04793303	-0.03594002
21.03457	-0.01113112	-0.1315263	0	0	0	0
21.05114	-0.01115743	-0.131546	-0.001588235	-0.001190853	-0.04793303	-0.03594002
21.0682	-0.01115743	-0.131546	0	0	0.04723693	0.03541808
21.08427	-0.01115743	-0.131546	0	0	0	0
21.10423	-0.01113112	-0.1315263	0.001318495	0.0009886026	0.03659067	0.02743555
21.1208	-0.01113112	-0.1315263	0	0	-0.03609581	-0.02706451
21.13803	-0.01113112	-0.1315263	0	0	0	0
21.15393	-0.01113112	-0.1315263	0	0	0	0
21.17082	-0.01113112	-0.1315263	0	0	0	0
21.18707	-0.01113112	-0.1315263	0	0	0	0
21.20363	-0.01113112	-0.1315263	0	0	0	0
21.2202	-0.01113112	-0.1315263	0	0	0	0
21.23713	-0.01113112	-0.1315263	0	0	0	0
21.25333	-0.01113112	-0.1315263	0	0	0	0
21.2699	-0.01113112	-0.1315263	0	0	0	0
21.28647	-0.01113112	-0.1315263	0	0	0	0
21.30303	-0.01113112	-0.1315263	0	0	0	0
21.3196	-0.01113112	-0.1315263	0	0	0	0
21.33617	-0.01113112	-0.1315263	0	0	0	0
21.35273	-0.01113112	-0.1315263	0	0	0	0
21.42716	-0.01113112	-0.1315263	0	0	0	0
21.44374	-0.01113112	-0.1315263	0	0	0	0
21.46038	-0.01113112	-0.1315263	0	0	0	0
21.47696	-0.01113112	-0.1315263	0	0	0	0
21.49352	-0.01113112	-0.1315263	0	0	0	0
21.51009	-0.01113112	-0.1315263	0	0	0	0
21.52691	-0.01113112	-0.1315263	0	0	0	0
21.54322	-0.01113112	-0.1315263	0	0	0	0
21.55979	-0.01113112	-0.1315263	0	0	0	0
21.57635	-0.01113112	-0.1315263	0	0	0	0
21.59313	-0.01113112	-0.1315263	0	0	0	0
21.60949	-0.01113112	-0.1315263	0	0	0	0
21.62605	-0.01113112	-0.1315263	0	0	0	0
21.64262	-0.01113112	-0.1315263	0	0	0	0
21.65919	-0.01113112	-0.1315263	0	0	0	0
21.67601	-0.01113112	-0.1315263	0	0	0	0
21.69232	-0.01113112	-0.1315263	0	0	0	0
21.70889	-0.01113112	-0.1315263	0	0	0	0
21.72547	-0.01113112	-0.1315263	0	0	0	0
21.74203	-0.01113112	-0.1315263	0	0	0	0
21.75859	-0.01113112	-0.1315263	0	0	0	0
21.77516	-0.01113112	-0.1315263	0	0	0	0
21.79172	-0.01113112	-0.1315263	0	0	0	0
21.80829	-0.01113112	-0.1315263	0	0	0	0
21.82485	-0.01113112	-0.1315263	0	0	0	0
21.84143	-0.01113112	-0.1315263	0	0	0	0
21.85809	-0.01113112	-0.1315263	0	0	0	0
21.87456	-0.01113112	-0.1315263	0	0	0	0
21.89112	-0.01113112	-0.1315263	0	0	0	0
21.90807	-0.01113112	-0.1315263	0	0	0	0
21.92426	-0.01113112	-0.1315263	0	0	0	0
21.94083	-0.01113112	-0.1315263	0	0	0	0
21.95761	-0.01113112	-0.1315263	0	0	0	0
21.9743	-0.01113112	-0.1315263	0	0	0	0
21.99056	-0.01113112	-0.1315263	0	0	0	0
22.00709	-0.01113112	-0.1315263	0	0	0	0
22.02366	-0.01113112	-0.1315263	0	0	0	0
22.04023	-0.01113112	-0.1315263	0	0	0	0
22.05679	-0.01113112	-0.1315263	0	0	0	0
22.07384	-0.01113112	-0.1315263	0	0	0	0
22.08993	-0.01113112	-0.1315263	0	0	0	0
22.10649	-0.01113112	-0.1315263	0	0	0	0
22.12341	-0.01113112	-0.1315263	0	0	0	0
22.13986	-0.01113112	-0.1315263	0	0	0	0
22.15619	-0.01113112	-0.1315263	0	0	0	0
22.17276	-0.01113112	-0.1315263	0	0	0	0
22.18933	-0.01113112	-0.1315263	0	0	0	0
22.20589	-0.01113112	-0.1315263	0	0	0	0
22.22294	-0.01113112	-0.1315263	0	0	0	0
22.23903	-0.01113112	-0.1315263	0	0	0	0
22.25562	-0.01113112	-0.1315263	0	0	0	0
22.2727	-0.01113112	-0.1315263	0	0	0	0
22.28873	-0.01113112	-0.1315263	0	0	0	0
22.30535	-0.01113112	-0.1315263	0	0	0	0
22.32243	-0.01113112	-0.1315263	0	0	0	0
22.33843	-0.01113112	-0.1315263	0	0	0	0
22.35499	-0.01113112	-0.1315263	0	0	0	0
22.37156	-0.01113112	-0.1315263	0	0	0	0
22.38864	-0.01113112	-0.1315263	0	0	0	0
22.40469	-0.01113112	-0.1315263	0	0	0	0
22.42129	-0.01113112	-0.1315263	0	0	0	0
22.43783	-0.01113112	-0.1315263	0	0	0	0
22.45439	-0.01110481	-0.131546	0.001588601	-0.001191127	0.04798551	-0.03597936
22.47096	-0.01110481	-0.131546	0	0	-0.04794959	0.03595243
22.48789	-0.01110481	-0.131546	0	0	0	0
22.50409	-0.01113112	-0.1315263	-0.001623945	0.001217628	-0.04901357	0.0367502
22.52066	-0.01113112	-0.1315263	0	0	0.04955271	-0.03715445
22.53723	-0.01113112	-0.1315263	0	0	0	0
22.55379	-0.01113112	-0.1315263	0	0	0	0
22.57036	-0.01113112	-0.1315263	0	0	0	0
22.58693	-0.01113112	-0.1315263	0	0	0	0
22.60349	-0.01113112	-0.1315263	0	0	0	0
22.62006	-0.01113112	-0.1315263	0	0	0	0
22.63672	-0.01113112	-0.1315263	0	0	0	0
22.65319	-0.01113112	-0.1315263	0	0	0	0
22.66976	-0.01113112	-0.1315263	0	0	0	0
22.68633	-0.01113112	-0.1315263	0	0	0	0
22.70289	-0.01113112	-0.1315263	0	0	0	0
22.71946	-0.01113112	-0.1315263	0	0	0	0
22.73602	-0.01113112	-0.1315263	0	0	0	0
22.75259	-0.01115743	-0.1315066	-0.001588418	0.001190091	-0.04794407	0.03592114
22.7692	-0.01115743	-0.1315066	0	0	0.04788067	-0.03587364
22.78572	-0.01115743	-0.1315066	0	0	0	0
22.80229	-0.01118374	-0.1314869	-0.001588418	0.001190091	-0.04800211	0.03596462
22.81886	-0.01118374	-0.1314869	0	0	0.04794131	-0.03591907
22.83542	-0.01118374	-0.1314869	0	0	0	0
22.85199	-0.01118374	-0.1314869	0	0	0	0
22.86856	-0.01118374	-0.1314869	0	0	0	0
22.88512	-0.01118374	-0.1314869	0	0	0	0
22.90169	-0.01118374	-0.1314869	0	0	0	0
22.91826	-0.01118374	-0.1314869	0	0	0	0
22.93483	-0.01118374	-0.1314869	0	0	0	0
22.9514	-0.01118374	-0.1314869	0	0	0	0
22.96796	-0.01118374	-0.1314869	0	0	0	0
22.98453	-0.01118374	-0.1314869	0	0	0	0
23.0013	-0.01115743	-0.1315066	0.001568908	-0.001175473	0.04705989	-0.03525869
23.01793	-0.01115743	-0.1315066	0	0	-0.04697925	0.03519827
23.03444	-0.01115743	-0.1315066	0	0	0	0
23.05115	-0.01115743	-0.1315066	0	0	0	0
23.06736	-0.01115743	-0.1315066	0	0	0	0
23.08395	-0.01115743	-0.1315066	0	0	0	0
23.1005	-0.01102587	-0.1316052	0.007951189	-0.005959114	0.2399674	-0.1798464
23.11709	-0.01102587	-0.1316052	0	0	-0.2399535	0.1798361
23.13387	-0.01102587	-0.1316052	0	0	0	0
23.15431	-0.002447363	-0.1400207	0.4195921	-0.4116187	11.27099	-11.05681
23.17089	-0.002447363	-0.1400207	0	0	-11.33545	11.12005
23.18745	0.01797175	-0.1865093	1.232642	-2.806384	37.19907	-84.69196
23.20402	0.01797175	-0.1865093	0	0	-37.20549	84.70659
23.22063	0.01797175	-0.1865093	0	0	0	0
23.23715	0.03409205	-0.2917857	0.975832	-6.372833	29.45236	-192.3436
23.25372	0.03409205	-0.2917857	0	0	-29.49311	192.6097
23.27039	0.03409205	-0.2917857	0	0	0	0
23.28685	0.03480173	-0.3094291	0.0431145	-1.071871	1.301273	-32.35101
23.30342	0.03480173	-0.3094291	0	0	-1.305406	32.45376
23.3207	0.03480173	-0.3094291	0	0	0	0
23.33677	0.04649279	-0.3252962	0.7277075	-0.9876454	21.81907	-29.61287
23.35312	0.04649279	-0.3252962	0	0	-22.45077	30.47021
23.36968	0.04649279	-0.3252962	0	0	0	0
23.38625	0.06899557	-0.3677191	1.358271	-2.560647	40.99269	-77.28049
23.40282	0.06899557	-0.3677191	0	0	-40.99269	77.28049
23.41938	0.06899557	-0.3677191	0	0	0	0
23.43595	0.07205923	-0.3851835	0.184944	-1.05428	5.581941	-31.82007
23.45252	0.07205923	-0.3851835	0	0	-5.581941	31.82007
23.46908	0.07205923	-0.3851835	0	0	0	0
23.48565	0.07143089	-0.3857682	-0.03792651	-0.03529207	-1.144624	-1.065117
23.50222	0.07143089	-0.3857682	0	0	1.144624	1.065117
23.51879	0.07143089	-0.3857682	0	0	0	0
23.53546	0.07140471	-0.3857458	-0.001570006	0.001347507	-0.04722792	0.04053483
23.55192	0.07140471	-0.3857458	0	0	0.04738288	-0.04066783
23.56855	0.07140471	-0.3857458	0	0	0	0
23.58505	0.07140471	-0.3857458	0	0	0	0
23.60162	0.07140471	-0.3857458	0	0	0	0
23.61819	0.07140471	-0.3857458	0	0	0	0
23.63475	0.07143089	-0.3857682	0.001580673	-0.001356662	0.04771029	-0.04094885
23.65144	0.07143089	-0.3857682	0	0	-0.04753242	0.04079618
23.66789	0.07143089	-0.3857682	0	0	0	0
23.68445	0.07145707	-0.3857907	0.001580309	-0.001358148	0.04787017	-0.04114056
23.70106	0.07145707	-0.3857907	0	0	-0.04763897	0.04094186
23.71759	0.07145707	-0.3857907	0	0	0	0
23.73415	0.07145707	-0.3857907	0	0	0	0
23.75072	0.07145707	-0.3857907	0	0	0	0
23.76729	0.07145707	-0.3857907	0	0	0	0
23.78385	0.07150944	-0.3858357	0.003160618	-0.002714498	0.09539312	-0.08192841
23.80101	0.07150944	-0.3858357	0	0	-0.0937259	0.08049652
23.81701	0.07150944	-0.3858357	0	0	0	0
23.83355	0.07150944	-0.3858357	0	0	0	0
23.85012	0.07150944	-0.3858357	0	0	0	0
23.86669	0.07150944	-0.3858357	0	0	0	0
23.88478	0.07150944	-0.3858357	0	0	0	0
23.90135	0.07150944	-0.3858357	0	0	0	0
23.91803	0.07150944	-0.3858357	0	0	0	0
23.93448	0.07150944	-0.3858357	0	0	0	0
23.95106	0.07150944	-0.3858357	0	0	0	0
23.96762	0.07150944	-0.3858357	0	0	0	0
23.98418	0.07150944	-0.3858357	0	0	0	0
24.00075	0.07150944	-0.3858357	0	0	0	0
24.01731	0.07150944	-0.3858357	0	0	0	0
24.03411	0.07148325	-0.3858132	-0.001558774	0.001337866	-0.04672115	0.04009989
24.05057	0.07148325	-0.3858132	0	0	0.04686852	-0.04022637
24.06701	0.07148325	-0.3858132	0	0	0	0
24.08358	0.07135235	-0.3857008	-0.007901544	0.006788942	-0.2393785	0.2056721
24.10015	0.07135235	-0.3857008	0	0	0.2384828	-0.2049025
24.11671	0.07135235	-0.3857008	0	0	0	0
24.13328	0.07111671	-0.3854983	-0.01422323	0.01221794	-0.4292579	0.3687381
24.14985	0.07111671	-0.3854983	0	0	0.4292579	-0.3687381
24.16642	0.07111671	-0.3854983	0	0	0	0
24.18314	0.07085487	-0.3852735	-0.01565306	0.01344249	-0.470137	0.4037428
24.19955	0.07085487	-0.3852735	0	0	0.4724375	-0.4057184
24.21612	0.07085487	-0.3852735	0	0	0	0
24.23268	0.07051447	-0.3849812	-0.02054671	0.01764333	-0.620101	0.5324769
24.24925	0.07051447	-0.3849812	0	0	0.620101	-0.5324769
24.26582	0.07051447	-0.3849812	0	0	0	0
24.28238	0.05811869	-0.3743381	-0.748211	0.6424185	-22.58105	19.38823
24.29895	0.05811869	-0.3743381	0	0	22.58105	-19.38823
24.31556	0.05811869	-0.3743381	0	0	0	0
24.33208	0.0185242	-0.3404124	-2.395997	2.052958	-72.31549	61.96196
24.34865	0.0185242	-0.3404124	0	0	72.40302	-62.03696
24.36522	0.0185242	-0.3404124	0	0	0	0
24.38178	-0.007999829	-0.297968	-1.601178	2.562243	-48.32642	77.33309
24.39835	-0.007999829	-0.297968	0	0	48.32642	-77.33309
24.41523	-0.007999829	-0.297968	0	0	0	0
24.43149	0.0106838	-0.2438765	1.149045	3.326633	34.67823	100.398
24.44805	0.0106838	-0.2438765	0	0	-35.00263	-101.3372
24.46484	0.0106838	-0.2438765	0	0	0	0
24.48137	0.02194384	-0.2076731	0.6814619	2.191044	20.45587	65.76996
24.49775	0.02194384	-0.2076731	0	0	-20.70721	-66.57808
24.51432	0.02194384	-0.2076731	0	0	0	0
24.53089	0.005763094	-0.1714963	-0.9765596	2.183381	-29.46923	65.88699
24.54745	0.005763094	-0.1714963	0	0	29.47432	-65.89837
24.56402	0.005763094	-0.1714963	0	0	0	0
24.581	-0.01320976	-0.1436448	-1.117291	1.640146	-33.30389	48.88901
24.59716	-0.01320976	-0.1436448	0	0	33.71601	-49.494
24.61379	-0.01320976	-0.1436448	0	0	0	0
24.6335	-0.02212797	-0.1369356	-0.4525027	0.3404218	-12.45167	9.367503
24.65072	-0.02212797	-0.1369356	0	0	12.25232	-9.21753
24.66689	-0.02212797	-0.1369356	0	0	0	0
24.68326	-0.02212797	-0.1369356	0	0	0	0
24.69977	-0.02212797	-0.1369356	0	0	0	0
24.71634	-0.02212797	-0.1369356	0	0	0	0
24.7329	-0.02220687	-0.1368763	-0.004763947	0.00357878	-0.1437928	0.1080202
24.74947	-0.02220687	-0.1368763	0	0	0.1437928	-0.1080202
24.76604	-0.02220687	-0.1368763	0	0	0	0
24.7826	-0.02344307	-0.135829	-0.07461709	0.06321146	-2.251948	1.907726
24.79917	-0.02344307	-0.135829	0	0	2.251948	-1.907726
24.81577	-0.02344307	-0.135829	0	0	0	0
24.83268	-0.02131256	-0.134032	0.125987	0.1062662	3.759233	3.170799
24.84887	-0.02131256	-0.134032	0	0	-3.806679	-3.210817
24.86544	-0.02131256	-0.134032	0	0	0	0
24.88204	-0.009210266	-0.1247716	0.7289016	0.557738	21.97426	16.81418
24.89857	-0.009210266	-0.1247716	0	0	-21.99956	-16.83354
24.91531	-0.009210266	-0.1247716	0	0	0	0
24.9317	-0.002499995	-0.1198011	0.409464	0.3033059	12.35907	9.154843
24.94827	-0.002499995	-0.1198011	0	0	-12.42488	-9.203589
24.96483	-0.002499995	-0.1198011	0	0	0	0
24.9814	-0.002499995	-0.1198011	0	0	0	0
24.99797	-0.002499995	-0.1198011	0	0	0	0
25.01454	-0.002499995	-0.1198011	0	0	0	0
25.0311	-0.002473679	-0.1198207	0.001588601	-0.001184693	0.04794683	-0.03575618
25.04767	-0.002473679	-0.1198207	0	0	-0.04794683	0.03575618
25.06424	-0.002473679	-0.1198207	0	0	0	0
25.0808	-0.002447363	-0.1198403	0.001588418	-0.001185007	0.04793854	-0.03576358
25.09737	-0.002447363	-0.1198403	0	0	-0.04793854	0.03576358
25.11394	-0.002447363	-0.1198403	0	0	0	0
25.13238	-0.002394732	-0.1198796	0.002853554	-0.002128038	0.08150383	-0.06078147
25.14895	-0.002394732	-0.1198796	0	0	-0.08150383	0.06078147
25.16552	-0.002394732	-0.1198796	0	0	0	0
25.18236	-0.002368417	-0.1199385	0.001562514	-0.003496602	0.04676908	-0.1046601
25.19865	-0.002368417	-0.1199385	0	0	-0.04715948	0.1055337
25.21522	-0.002368417	-0.1199385	0	0	0	0
25.23198	-0.002368417	-0.1199385	0	0	0	0
25.24835	-0.002368417	-0.1199385	0	0	0	0
25.26492	-0.002368417	-0.1199385	0	0	0	0
25.28172	-0.002368417	-0.1199385	0	0	0	0
25.29805	-0.002368417	-0.1199385	0	0	0	0
25.31462	-0.002368417	-0.1199385	0	0	0	0
25.33118	-0.002315785	-0.120017	0.003176836	-0.004738678	0.09587709	-0.1430136
25.34775	-0.002315785	-0.120017	0	0	-0.09587709	0.1430136
25.36463	-0.002315785	-0.120017	0	0	0	0
25.38088	-0.002236838	-0.1201151	0.004856373	-0.006037432	0.1465825	-0.182231
25.39754	-0.002236838	-0.1201151	0	0	-0.1475423	0.1834243
25.41402	-0.002236838	-0.1201151	0	0	0	0
25.43058	-0.002236838	-0.1201544	0	-0.002370832	0	-0.07175426
25.44761	-0.002236838	-0.1201544	0	0	0	0.07058484
25.46371	-0.002236838	-0.1201544	0	0	0	0
25.48028	-0.002210523	-0.120174	0.001588418	-0.001184557	0.04861578	-0.03625505
25.49685	-0.002210523	-0.120174	0	0	-0.04793027	0.03574383
25.51342	-0.002210523	-0.120174	0	0	0	0
25.52998	-0.002210523	-0.1204096	0	-0.01422737	0	-0.4294818
25.54655	-0.002210523	-0.1204096	0	0	0	0.4294818
25.56312	-0.002210523	-0.1204096	0	0	0	0
25.57968	-0.002210523	-0.1204489	0	-0.002370832	0	-0.07155599
25.59632	-0.002210523	-0.1204489	0	0	0	0.0714039
25.61282	-0.002210523	-0.1204489	0	0	0	0
25.62939	-0.002210523	-0.1204489	0	0	0	0
25.64596	-0.002210523	-0.1204489	0	0	0	0
25.66253	-0.002210523	-0.1204489	0	0	0	0
25.67908	-0.002236838	-0.1204685	-0.001589516	-0.001185826	-0.04798273	-0.03579654
25.69568	-0.002236838	-0.1204685	0	0	0.0479496	0.03577182
25.71241	-0.002236838	-0.1204685	0	0	0	0
25.72878	-0.002263154	-0.1204489	-0.001607292	0.001199088	-0.0485501	0.03621981
25.74536	-0.002263154	-0.1204489	0	0	0.04878338	-0.03639385
25.76192	-0.002263154	-0.1204489	0	0	0	0
25.77848	-0.002263154	-0.1204489	0	0	0	0
25.79507	-0.002263154	-0.1204489	0	0	0	0
25.81162	-0.002263154	-0.1204489	0	0	0	0
25.82864	-0.002263154	-0.1204489	0	0	0	0
25.84475	-0.002263154	-0.1204489	0	0	0	0
25.86169	-0.002263154	-0.1204489	0	0	0	0
25.87789	-0.002263154	-0.1204489	0	0	0	0
25.89445	-0.002263154	-0.1204489	0	0	0	0
25.91102	-0.002263154	-0.1204489	0	0	0	0
25.92758	-0.002263154	-0.1204489	0	0	0	0
25.94415	-0.002263154	-0.1204489	0	0	0	0
25.96088	-0.002263154	-0.1204489	0	0	0	0
25.97756	-0.002263154	-0.1204489	0	0	0	0
25.99407	-0.002263154	-0.1204489	0	0	0	0
26.01042	-0.002263154	-0.1204489	0	0	0	0
26.02807	-0.002263154	-0.1204489	0	0	0	0
26.04464	-0.002263154	-0.1204489	0	0	0	0
26.06121	-0.002263154	-0.1204489	0	0	0	0
26.07777	-0.002236838	-0.1204685	0.001588784	-0.00118528	0.0479551	-0.03577593
26.09434	-0.002236838	-0.1204685	0	0	-0.0479551	0.03577593
26.11106	-0.002236838	-0.1204685	0	0	0	0
26.12757	-0.002236838	-0.1204685	0	0	0	0
26.14404	-0.002236838	-0.1204685	0	0	0	0
26.16112	-0.002236838	-0.1204685	0	0	0	0
26.17717	-0.002263154	-0.1204881	-0.001638988	-0.001222733	-0.04946474	-0.03690216
26.19374	-0.002263154	-0.1204881	0	0	0.0502398	0.03748038
26.21031	-0.002263154	-0.1204881	0	0	0	0
26.22687	-0.002236838	-0.120547	0.001588418	-0.00355502	0.04793854	-0.1072907
26.24344	-0.002236838	-0.120547	0	0	-0.04793854	0.1072907
26.26001	-0.002236838	-0.120547	0	0	0	0
26.27658	-0.002210523	-0.1206059	0.001588418	-0.00355502	0.04793854	-0.1072907
26.29314	-0.002210523	-0.1206059	0	0	-0.04793854	0.1072907
26.30999	-0.002210523	-0.1206059	0	0	0	0
26.32628	-0.002210523	-0.1206059	0	0	0	0
26.34284	-0.002210523	-0.1206059	0	0	0	0
26.35974	-0.002210523	-0.1206059	0	0	0	0
26.37598	-0.002236838	-0.1206255	-0.001620507	-0.001208946	-0.048907	-0.03648607
26.39255	-0.002236838	-0.1206255	0	0	0.04939607	0.03685093
26.40911	-0.002236838	-0.1206255	0	0	0	0
26.42721	-0.002263154	-0.1206059	-0.001454459	0.001085069	-0.0419632	0.03130579
26.44377	-0.002263154	-0.1206059	0	0	0.0419632	-0.03130579
26.46034	-0.002263154	-0.1206059	0	0	0	0
26.47691	-0.002263154	-0.1206059	0	0	0	0
26.49347	-0.002263154	-0.1206059	0	0	0	0
26.51004	-0.002263154	-0.1206059	0	0	0	0
26.52661	-0.002263154	-0.1206059	0	0	0	0
26.54318	-0.002263154	-0.1206059	0	0	0	0
26.55974	-0.002263154	-0.1206059	0	0	0	0
26.57631	-0.002263154	-0.1206059	0	0	0	0
26.59288	-0.002263154	-0.1206059	0	0	0	0
26.61003	-0.002263154	-0.1206059	0	0	0	0
26.62601	-0.002263154	-0.1206059	0	0	0	0
26.64258	-0.002263154	-0.1206059	0	0	0	0
26.65917	-0.002263154	-0.1206059	0	0	0	0
26.67588	-0.002263154	-0.1206059	0	0	0	0
26.69228	-0.002263154	-0.1206059	0	0	0	0
26.70885	-0.002263154	-0.1206059	0	0	0	0
26.72542	-0.00228947	-0.1205863	-0.001588404	0.001185007	-0.0479326	0.03575946
26.74198	-0.00228947	-0.1205863	0	0	0.04793812	-0.03576358
26.75872	-0.00228947	-0.1205863	0	0	0	0
26.77587	-0.00228947	-0.1205863	0	0	0	0
26.79168	-0.00228947	-0.1205863	0	0	0	0
26.80829	-0.00228947	-0.1205863	0	0	0	0
26.82482	-0.00228947	-0.1205863	0	0	0	0
26.84155	-0.00228947	-0.1205863	0	0	0	0
26.85795	-0.00228947	-0.1205863	0	0	0	0
26.87503	-0.00228947	-0.1205863	0	0	0	0
26.89109	-0.00228947	-0.1205863	0	0	0	0
26.9081	-0.00228947	-0.1205863	0	0	0	0
26.92422	-0.00228947	-0.1205863	0	0	0	0
26.94079	-0.00228947	-0.1205863	0	0	0	0
26.95752	-0.00228947	-0.1205863	0	0	0	0
26.97392	-0.002263154	-0.1206059	0.001604474	-0.001196996	0.0484315	-0.03613165
26.99049	-0.002263154	-0.1206059	0	0	-0.04866123	0.03630304
27.00727	-0.002263154	-0.1206059	0	0	0	0
27.02362	-0.002263154	-0.1206059	0	0	0	0
27.04019	-0.002263154	-0.1206059	0	0	0	0
27.05681	-0.002263154	-0.1206059	0	0	0	0
27.07332	-0.002263154	-0.1206059	0	0	0	0
27.08989	-0.002263154	-0.1206059	0	0	0	0
27.10646	-0.002263154	-0.1206059	0	0	0	0
27.12302	-0.002263154	-0.1206059	0	0	0	0
27.13959	-0.002263154	-0.1206059	0	0	0	0
27.15615	-0.002263154	-0.1206059	0	0	0	0
27.17272	-0.002263154	-0.1206059	0	0	0	0
27.18929	-0.002263154	-0.1206059	0	0	0	0
27.20585	-0.002263154	-0.1206059	0	0	0	0
27.22242	-0.002263154	-0.1206059	0	0	0	0
27.23899	-0.002263154	-0.1206059	0	0	0	0
27.2559	-0.002263154	-0.1206059	0	0	0	0
27.27212	-0.002263154	-0.1206059	0	0	0	0
27.28869	-0.002263154	-0.1206059	0	0	0	0
27.30525	-0.002263154	-0.1206059	0	0	0	0
27.32182	-0.002263154	-0.1206059	0	0	0	0
27.33838	-0.002263154	-0.1206059	0	0	0	0
27.355	-0.002263154	-0.1206059	0	0	0	0
27.37152	-0.002263154	-0.1206059	0	0	0	0
27.38808	-0.002263154	-0.1206059	0	0	0	0
27.40505	-0.002263154	-0.1206059	0	0	0	0
27.42938	-0.00228947	-0.1205863	-0.001081514	0.0008068487	-0.02618569	0.01953547
27.44596	-0.00228947	-0.1205863	0	0	0.02643966	-0.01972494
27.46337	-0.00228947	-0.1205863	0	0	0	0
27.47936	-0.00228947	-0.1205863	0	0	0	0
27.49598	-0.00228947	-0.1205863	0	0	0	0
27.51245	-0.00228947	-0.1205863	0	0	0	0
27.52896	-0.00228947	-0.1205863	0	0	0	0
27.54536	-0.00228947	-0.1205863	0	0	0	0
27.56192	-0.00228947	-0.1205863	0	0	0	0
27.57854	-0.00228947	-0.1205863	0	0	0	0
27.59506	-0.00228947	-0.1205863	0	0	0	0
27.61163	-0.00228947	-0.1205863	0	0	0	0
27.62872	-0.00228947	-0.1205863	0	0	0	0
27.64476	-0.00228947	-0.1205863	0	0	0	0
27.66133	-0.00228947	-0.1205863	0	0	0	0
27.67838	-0.00228947	-0.1205863	0	0	0	0
27.69446	-0.00228947	-0.1205863	0	0	0	0
27.71102	-0.00228947	-0.1205863	0	0	0	0
27.72769	-0.00228947	-0.1205863	0	0	0	0
27.74416	-0.00228947	-0.1205863	0	0	0	0
27.76507	-0.002263154	-0.1206059	0.001258035	-0.00093854	0.03365339	-0.02510665
27.78164	-0.002263154	-0.1206059	0	0	-0.03356092	0.02503767
27.79821	-0.002263154	-0.1206059	0	0	0	0
27.81478	-0.002263154	-0.1206059	0	0	0	0
27.83134	-0.002263154	-0.1206059	0	0	0	0
27.84791	-0.00228947	-0.1205863	-0.001588587	0.001185143	-0.0479464	0.03576975
27.86469	-0.00228947	-0.1205863	0	0	0.04764469	-0.03554467
27.88104	-0.00228947	-0.1205863	0	0	0	0
27.89845	-0.00228947	-0.1205863	0	0	0	0
27.91418	-0.00228947	-0.1205863	0	0	0	0
27.93096	-0.00228947	-0.1205863	0	0	0	0
27.94731	-0.00228947	-0.1205863	0	0	0	0
27.96388	-0.00228947	-0.1205863	0	0	0	0
27.98067	-0.00228947	-0.1205863	0	0	0	0
27.99701	-0.00228947	-0.1205863	0	0	0	0
28.01375	-0.00228947	-0.1205863	0	0	0	0
28.03052	-0.00228947	-0.1205863	0	0	0	0
28.04681	-0.00228947	-0.1205863	0	0	0	0
28.06328	-0.00228947	-0.1205863	0	0	0	0
28.07985	-0.00228947	-0.1205863	0	0	0	0
28.09641	-0.00228947	-0.1205863	0	0	0	0
28.11298	-0.00228947	-0.1205863	0	0	0	0
28.12955	-0.00228947	-0.1205863	0	0	0	0
28.14611	-0.00228947	-0.1205863	0	0	0	0
28.16268	-0.00228947	-0.1205863	0	0	0	0
28.17925	-0.00228947	-0.1205863	0	0	0	0
28.19594	-0.00228947	-0.1205863	0	0	0	0
28.21265	-0.00228947	-0.1205863	0	0	0	0
28.22895	-0.00228947	-0.1205863	0	0	0	0
28.24551	-0.00228947	-0.1205863	0	0	0	0
28.26214	-0.00228947	-0.1205863	0	0	0	0
28.27865	-0.00228947	-0.1205863	0	0	0	0
28.29521	-0.002315785	-0.1205667	-0.001588967	0.001185416	-0.04805746	0.03585229
28.31178	-0.002315785	-0.1205667	0	0	0.04795511	-0.03577593
28.32917	-0.002315785	-0.1205667	0	0	0	0
28.34524	-0.00228947	-0.1205863	0.001638209	-0.001222152	0.0489649	-0.03652927
28.36161	-0.00228947	-0.1205863	0	0	-0.05050234	0.03767624
28.37816	-0.00228947	-0.1205863	0	0	0	0
28.39462	-0.005499945	-0.1229434	-0.1951099	-0.1432467	-5.911911	-4.340433
28.41118	-0.005499945	-0.1229434	0	0	5.909179	4.338428
28.42822	-0.005499945	-0.1229434	0	0	0	0
28.44431	-0.02907076	-0.1404165	-1.4649	-1.085936	-44.2184	-32.77928
28.46088	-0.02907076	-0.1404165	0	0	44.85366	33.25021
28.47749	-0.02907076	-0.1404165	0	0	0	0
28.49401	-0.07496452	-0.1738041	-2.777828	-2.020864	-83.83986	-60.99332
28.51058	-0.07496452	-0.1738041	0	0	83.94617	61.07066
28.52715	-0.07496452	-0.1738041	0	0	0	0
28.54373	-0.1286798	-0.1840069	-3.239274	-0.6152717	-97.71649	-18.56039
28.56042	-0.1286798	-0.1840069	0	0	97.3524	18.49123
28.57685	-0.1286798	-0.1840069	0	0	0	0
28.59341	-0.1648585	-0.1872566	-2.183752	-0.1961544	-66.18771	-5.945276
28.60998	-0.1648585	-0.1872566	0	0	65.90577	5.91995
28.62712	-0.1648585	-0.1872566	0	0	0	0
28.64311	-0.1734244	-0.1956555	-0.535728	-0.5252855	-16.16923	-15.85406
28.65968	-0.1734244	-0.1956555	0	0	16.45531	16.13457
28.67625	-0.1734244	-0.1956555	0	0	0	0
28.69281	-0.1783478	-0.1995727	-0.2972474	-0.2364919	-8.971978	-7.13816
28.70938	-0.1783478	-0.1995727	0	0	8.971462	7.137749
28.7261	-0.1783478	-0.1995727	0	0	0	0
28.74251	-0.1783223	-0.199593	0.001553416	-0.00123819	0.04689027	-0.03737511
28.75908	-0.1783223	-0.199593	0	0	-0.0471127	0.03755241
28.77564	-0.1783223	-0.199593	0	0	0	0
28.79221	-0.1781949	-0.1996945	0.007694647	-0.006131967	0.2322516	-0.1850844
28.80878	-0.1781949	-0.1996945	0	0	-0.2322383	0.1850738
28.82562	-0.1781949	-0.1996945	0	0	0	0
28.84191	-0.1781184	-0.1997555	0.004693719	-0.003741622	0.1416567	-0.1129224
28.85848	-0.1781184	-0.1997555	0	0	-0.1428408	0.1138662
28.87505	-0.1781184	-0.1997555	0	0	0	0
28.89191	-0.177889	-0.1999383	0.0136034	-0.01084225	0.4068975	-0.3243075
28.90818	-0.177889	-0.1999383	0	0	-0.4105514	0.3272198
28.92475	-0.177889	-0.1999383	0	0	0	0
28.94132	-0.1778125	-0.1999993	0.004614842	-0.003677846	0.1392602	-0.1109848
28.95797	-0.1778125	-0.1999993	0	0	-0.1389084	0.1107045
28.97445	-0.1778125	-0.1999993	0	0	0	0
28.9913	-0.177838	-0.2000196	-0.001512468	-0.001205731	-0.04537212	-0.03617041
29.00758	-0.177838	-0.2000196	0	0	0.04564899	0.03639113
29.02415	-0.177838	-0.2000196	0	0	0	0
29.04071	-0.177838	-0.2000196	0	0	0	0
29.05728	-0.177838	-0.2000196	0	0	0	0
29.07385	-0.177838	-0.2000196	0	0	0	0
29.09041	-0.1778125	-0.2000399	0.001538935	-0.001225931	0.04644514	-0.03699867
29.10698	-0.1778125	-0.2000399	0	0	-0.04645049	0.03700294
29.12355	-0.1778125	-0.2000399	0	0	0	0
29.14011	-0.1770222	-0.2007512	0.04770698	-0.04293277	1.439717	-1.295639
29.15668	-0.1770222	-0.2007512	0	0	-1.439799	1.295714
29.17341	-0.1770222	-0.2007512	0	0	0	0
29.19044	-0.1741903	-0.2031713	0.1662441	-0.1420701	4.924005	-4.207991
29.20649	-0.1741903	-0.2031713	0	0	-5.025068	4.294359
29.22295	-0.1741903	-0.2031713	0	0	0	0
29.23951	-0.1742158	-0.2033951	-0.001541088	-0.01351444	-0.04667403	-0.4093038
29.25608	-0.1742158	-0.2033951	0	0	0.04651282	0.40789
29.27265	-0.1742158	-0.2033951	0	0	0	0
29.28921	-0.1740626	-0.2038022	0.009245302	-0.02456989	0.2790238	-0.7415208
29.30578	-0.1740626	-0.2038022	0	0	-0.2790238	0.7415208
29.32235	-0.1740626	-0.2038022	0	0	0	0
29.33898	-0.1742158	-0.2044129	-0.009206085	-0.03670702	-0.2772656	-1.105529
29.35565	-0.1742158	-0.2044129	0	0	0.2764082	1.10211
29.37281	-0.1742158	-0.2044129	0	0	0	0
29.38861	-0.1787556	-0.2275469	-0.2872513	-1.46378	-8.715416	-44.41217
29.40518	-0.1787556	-0.2275469	0	0	8.873056	45.21548
29.42175	-0.1787556	-0.2275469	0	0	0	0
29.43831	-0.165729	-0.2438765	0.7862877	-0.985654	23.73021	-29.7471
29.45521	-0.165729	-0.2438765	0	0	-23.4989	29.45714
29.47145	-0.165729	-0.2438765	0	0	0	0
29.48803	-0.1592197	-0.2491552	0.3925842	-0.3183677	11.96113	-9.699928
29.50458	-0.1592197	-0.2491552	0	0	-11.8489	9.608909
29.52153	-0.1592197	-0.2491552	0	0	0	0
29.53771	-0.1591941	-0.249176	0.001585705	-0.001285508	0.04786219	-0.03880118
29.59757	-0.1591941	-0.249176	0	0	-0.02085454	0.01690647
29.61571	-0.1591941	-0.249176	0	0	0	0
29.63704	-0.1592967	-0.2490928	-0.004810863	0.003902059	-0.1218845	0.0988597
29.65384	-0.1592967	-0.2490928	0	0	0.1261643	-0.1023311
29.67017	-0.1593993	-0.2490095	-0.006281746	0.005095823	-0.1895835	0.1537922
29.68674	-0.1593993	-0.2490095	0	0	0.1909132	-0.1548709
29.70331	-0.1593993	-0.2490095	0	0	0	0
29.7199	-0.1595275	-0.2489055	-0.007728099	0.006269035	-0.2330333	0.1890366
29.73665	-0.1595275	-0.2489055	0	0	0.2317802	-0.1880201
29.75301	-0.1595275	-0.2489055	0	0	0	0
29.76958	-0.1595019	-0.2489263	0.001547929	-0.001256512	0.04701429	-0.03816326
29.78614	-0.1595019	-0.2489263	0	0	-0.04671659	0.0379216
29.80271	-0.1595019	-0.2489263	0	0	0	0
29.82773	-0.1595019	-0.2489263	0	0	0	0
29.84431	-0.1595019	-0.2489263	0	0	0	0
29.86109	-0.1595019	-0.2489263	0	0	0	0
29.87744	-0.1595019	-0.2489263	0	0	0	0
29.89401	-0.1595019	-0.2489263	0	0	0	0
29.91065	-0.1595019	-0.2489263	0	0	0	0
29.92714	-0.1595019	-0.2489263	0	0	0	0
29.9437	-0.1595019	-0.2489263	0	0	0	0
29.96027	-0.1595019	-0.2489263	0	0	0	0
29.97702	-0.1595019	-0.2489263	0	0	0	0
29.9934	-0.1595019	-0.2489263	0	0	0	0
30.00997	-0.1595019	-0.2489263	0	0	0	0
30.02654	-0.1595019	-0.2489263	0	0	0	0
30.04312	-0.1595019	-0.2489263	0	0	0	0
30.05967	-0.1595019	-0.2489263	0	0	0	0
30.07624	-0.1595019	-0.2489263	0	0	0	0
30.09292	-0.1595019	-0.2489263	0	0	0	0
30.10953	-0.1595019	-0.2489263	0	0	0	0
30.12594	-0.1595019	-0.2489263	0	0	0	0
30.1425	-0.1595019	-0.2489263	0	0	0	0
30.15907	-0.1594506	-0.2489679	0.003096758	-0.002511225	0.09346033	-0.07578892
30.17564	-0.1594506	-0.2489679	0	0	-0.09346033	0.07578892
30.19267	-0.1594506	-0.2489679	0	0	0	0
30.20877	-0.1592197	-0.2490304	0.01434205	-0.003878481	0.4328438	-0.1170528
30.22555	-0.1592197	-0.2490304	0	0	-0.4362592	0.1179764
30.24191	-0.1592197	-0.2490304	0	0	0	0
30.25847	-0.158604	-0.248739	0.03717595	0.01758712	1.129318	0.5342556
30.27504	-0.158604	-0.248739	0	0	-1.122037	-0.530811
30.29166	-0.158604	-0.248739	0	0	0	0
30.30817	-0.1575517	-0.2478446	0.06372462	0.05416949	1.923434	1.635027
30.32474	-0.1575517	-0.2478446	0	0	-1.926318	-1.637478
30.34141	-0.1575517	-0.2478446	0	0	0	0
30.35787	-0.1525168	-0.2437727	0.3059506	0.2474321	9.23414	7.467944
30.37444	-0.1525168	-0.2437727	0	0	-9.264541	-7.492529
30.39124	-0.1525168	-0.2437727	0	0	0	0
30.40757	-0.1172492	-0.2156408	2.159587	1.722636	65.17648	51.98927
30.42429	-0.1172492	-0.2156408	0	0	-65.34197	-52.12128
30.4407	-0.1172492	-0.2156408	0	0	0	0
30.45727	-0.07776392	-0.1847734	2.383886	1.863588	72.29121	56.51321
30.47383	-0.07776392	-0.1847734	0	0	-71.9541	-56.24967
30.49041	-0.07776392	-0.1847734	0	0	0	0
30.50706	-0.05400008	-0.1661873	1.427159	1.116208	42.95798	33.59827
30.52354	-0.05400008	-0.1661873	0	0	-43.07669	-33.69112
30.5401	-0.05400008	-0.1661873	0	0	0	0
30.55667	-0.04368272	-0.1571801	0.6227573	0.5436775	18.79485	16.40822
30.57324	-0.04368272	-0.1571801	0	0	-18.79485	-16.40822
30.58981	-0.04368272	-0.1571801	0	0	0	0
30.60637	-0.0417389	-0.1557055	0.1173562	0.08902597	3.542021	2.686964
30.62294	-0.0417389	-0.1557055	0	0	-3.541816	-2.686809
30.63951	-0.0417389	-0.1557055	0	0	0	0
30.65607	-0.04171263	-0.1556856	0.001585846	0.001202823	0.04786643	0.03630544
30.67264	-0.04171263	-0.1556856	0	0	-0.04786367	-0.03630335
30.68927	-0.04171263	-0.1556856	0	0	0	0
30.70577	-0.0414762	-0.1554665	0.01432389	0.01327421	0.4323209	0.4006395
30.72234	-0.0414762	-0.1554665	0	0	-0.4330938	-0.4013557
30.73891	-0.0414762	-0.1554665	0	0	0	0
30.75548	-0.03540625	-0.1507903	0.366383	0.282252	11.05746	8.518382
30.77204	-0.03540625	-0.1507903	0	0	-11.05746	-8.518382
30.78861	-0.03540625	-0.1507903	0	0	0	0
30.80518	-0.01097324	-0.1323941	1.474949	1.110523	44.51661	33.51757
30.82174	-0.01097324	-0.1323941	0	0	-44.51661	-33.51757
30.83831	-0.01097324	-0.1323941	0	0	0	0
30.85488	0.001526315	-0.1230809	0.7545617	0.5622117	22.77403	16.96856
30.87145	0.001526315	-0.1230809	0	0	-22.77141	-16.96661
30.88801	0.001526315	-0.1230809	0	0	0	0
30.90458	0.001578946	-0.1230809	0.003177567	0	0.09591021	0
30.92115	0.001578946	-0.1230809	0	0	-0.09590469	0
30.93771	0.001578946	-0.1230809	0	0	0	0
30.95428	0.001684209	-0.1231595	0.006353685	-0.004744974	0.1917546	-0.1432036
30.97085	0.001684209	-0.1231595	0	0	-0.1917546	0.1432036
30.98743	0.001684209	-0.1231595	0	0	0	0
31.00398	0.001631577	-0.1231202	-0.003180138	0.002374723	-0.09598228	0.07167339
31.02055	0.001631577	-0.1231202	0	0	0.0960265	-0.07170642
31.03711	0.001631577	-0.1231202	0	0	0	0
31.05368	0.001631577	-0.1231202	0	0	0	0
31.07025	0.001631577	-0.1231202	0	0	0	0
31.08681	0.001631577	-0.1231202	0	0	0	0
31.10338	0.001631577	-0.1231202	0	0	0	0
31.12039	0.001631577	-0.1231202	0	0	0	0
31.13651	0.001631577	-0.1231202	0	0	0	0
31.15308	0.001631577	-0.1231202	0	0	0	0
31.16965	0.001631577	-0.1231202	0	0	0	0
31.18648	0.001631577	-0.1231202	0	0	0	0
31.20278	0.001631577	-0.1231202	0	0	0	0
31.21935	0.001631577	-0.1231202	0	0	0	0
31.23593	0.001631577	-0.1231202	0	0	0	0
31.25248	0.001605262	-0.1231399	-0.001589882	-0.001186999	-0.0479855	-0.03582578
31.26905	0.001605262	-0.1231399	0	0	0.04800208	0.03583816
31.28593	0.001605262	-0.1231399	0	0	0	0
31.30218	0.001578946	-0.1231595	-0.001619563	-0.001209612	-0.04888695	-0.03651248
31.31875	0.001578946	-0.1231595	0	0	0.04935008	0.03685838
31.33539	0.001578946	-0.1231595	0	0	0	0
31.35188	0.00155263	-0.1231792	-0.001596136	-0.00119212	-0.04817979	-0.03598448
31.36844	0.00155263	-0.1231792	0	0	0.04828543	0.03606337
31.38501	0.00155263	-0.1231792	0	0	0	0
31.40158	0.00155263	-0.1231792	0	0	0	0
31.41846	0.00155263	-0.1231792	0	0	0	0
31.43504	0.00155263	-0.1231792	0	0	0	0
31.45127	0.001526315	-0.1231989	-0.001621078	-0.001210749	-0.04939625	-0.03689303
31.46784	0.001526315	-0.1231989	0	0	0.04941923	0.03691019
31.48441	0.001526315	-0.1231989	0	0	0	0
31.50109	0.001473683	-0.1232382	-0.003156492	-0.002357512	-0.09495702	-0.07092125
31.51761	0.001473683	-0.1232382	0	0	0.09508251	0.07101497
31.53411	0.001473683	-0.1232382	0	0	0	0
31.55068	0.001447367	-0.1232578	-0.001588791	-0.001186629	-0.0480466	-0.03588484
31.56725	0.001447367	-0.1232578	0	0	0.04795256	0.0358146
31.58381	0.001447367	-0.1232578	0	0	0	0
31.60037	0.001447367	-0.1232578	0	0	0	0
31.61703	0.001447367	-0.1232578	0	0	0	0
31.63356	0.001447367	-0.1232578	0	0	0	0
31.65008	0.001421052	-0.1232382	-0.001593555	0.001190193	-0.04822405	0.03601753
31.66707	0.001421052	-0.1232382	0	0	0.04756243	-0.03552338
31.68321	0.001421052	-0.1232382	0	0	0	0
31.69978	0.001447367	-0.1232578	0.001588601	-0.001186493	0.04856751	-0.03627406
31.71634	0.001447367	-0.1232578	0	0	-0.04794407	0.03580841
31.73291	0.001447367	-0.1232578	0	0	0	0
31.74948	0.001447367	-0.1232578	0	0	0	0
31.76636	0.001447367	-0.1232578	0	0	0	0
31.78261	0.001447367	-0.1232578	0	0	0	0
31.80195	0.001447367	-0.1232971	0	-0.002032097	0	-0.0570895
31.81852	0.001447367	-0.1232971	0	0	0	0.05659217
31.83509	0.001447367	-0.1232971	0	0	0	0
31.85243	0.00136842	-0.1233954	-0.004551468	-0.005666081	-0.1342039	-0.1670693
31.86822	0.00136842	-0.1233954	0	0	0.1373794	0.1710224
31.88497	0.00136842	-0.1233954	0	0	0	0
31.90146	0.00118421	-0.123533	-0.01116652	-0.00834047	-0.3358655	-0.2508639
31.91797	0.00118421	-0.123533	0	0	0.3383501	0.2527196
31.93455	0.00118421	-0.123533	0	0	0	0
31.95106	0.001157894	-0.1235526	-0.001594107	-0.001190605	-0.04817681	-0.03598224
31.9677	0.001157894	-0.1235526	0	0	0.04808257	0.03591186
31.9842	0.001157894	-0.1235526	0	0	0	0
32.00084	0.001157894	-0.1235526	0	0	0	0
32.01737	0.001157894	-0.1235526	0	0	0	0
32.03389	0.001157894	-0.1235526	0	0	0	0
32.05051	0.001157894	-0.1235526	0	0	0	0
32.06702	0.001157894	-0.1235526	0	0	0	0
32.08359	0.001157894	-0.1235526	0	0	0	0
32.10027	0.001157894	-0.1235526	0	0	0	0
32.11673	0.001157894	-0.1235526	0	0	0	0
32.13329	0.001157894	-0.1235526	0	0	0	0
32.14986	0.001157894	-0.1235526	0	0	0	0
32.16642	0.001157894	-0.1235526	0	0	0	0
32.18299	0.001157894	-0.1235526	0	0	0	0
32.19956	0.001157894	-0.1235526	0	0	0	0
32.21625	0.001157894	-0.1235526	0	0	0	0
32.23301	0.001157894	-0.1235526	0	0	0	0
32.24926	0.001157894	-0.1235526	0	0	0	0
32.26587	0.001157894	-0.1235526	0	0	0	0
32.28243	0.001157894	-0.1235526	0	0	0	0
32.29896	0.001157894	-0.1235526	0	0	0	0
32.31553	0.001157894	-0.1235526	0	0	0	0
32.33209	0.001157894	-0.1235526	0	0	0	0
32.34866	0.001157894	-0.1235526	0	0	0	0
32.3653	0.001157894	-0.1235526	0	0	0	0
32.3821	0.001157894	-0.1235526	0	0	0	0
32.39844	0.001157894	-0.1235526	0	0	0	0
32.41493	0.001157894	-0.1235526	0	0	0	0
32.43207	0.001157894	-0.1235526	0	0	0	0
32.44807	0.001131578	-0.1235723	-0.001644857	-0.001228504	-0.04964188	-0.03707631
32.46463	0.001131578	-0.1235723	0	0	0.0505083	0.03772342
32.48143	0.001131578	-0.1235723	0	0	0	0
32.49776	0.001131578	-0.1235723	0	0	0	0
32.51433	0.001131578	-0.1235723	0	0	0	0
32.5309	0.001131578	-0.1235723	0	0	0	0
32.548	0.001131578	-0.1235723	0	0	0	0
32.56403	0.001131578	-0.1235723	0	0	0	0
32.5806	0.001131578	-0.1235723	0	0	0	0
32.59716	0.001131578	-0.1235723	0	0	0	0
32.61374	0.001131578	-0.1235723	0	0	0	0
32.63067	0.001131578	-0.1235723	0	0	0	0
32.64687	0.001131578	-0.1235723	0	0	0	0
32.66344	0.001131578	-0.1235723	0	0	0	0
32.68	0.001131578	-0.1235723	0	0	0	0
32.69657	0.001131578	-0.1235723	0	0	0	0
32.71322	0.001131578	-0.1235723	0	0	0	0
32.72972	0.001131578	-0.1235723	0	0	0	0
32.74627	0.001131578	-0.1235723	0	0	0	0
32.76283	0.001131578	-0.1235723	0	0	0	0
32.78014	0.001131578	-0.1235723	0	0	0	0
32.79596	0.001131578	-0.1235723	0	0	0	0
32.81253	0.001131578	-0.1235723	0	0	0	0
32.82914	0.001131578	-0.1235723	0	0	0	0
32.84621	0.001131578	-0.1235723	0	0	0	0
32.86223	0.001131578	-0.1235723	0	0	0	0
32.8788	0.001131578	-0.1235723	0	0	0	0
32.89574	0.001131578	-0.1235723	0	0	0	0
32.91193	0.001131578	-0.1235723	0	0	0	0
32.9285	0.001131578	-0.1235723	0	0	0	0
32.94506	0.001131578	-0.1235723	0	0	0	0
32.96176	0.001131578	-0.1235723	0	0	0	0
32.97907	0.001131578	-0.1235723	0	0	0	0
32.99476	0.001131578	-0.1235723	0	0	0	0
33.01137	0.001131578	-0.1235723	0	0	0	0
33.02791	0.001131578	-0.1235723	0	0	0	0
33.04447	0.001131578	-0.1235723	0	0	0	0
33.06144	0.001131578	-0.1235723	0	0	0	0
33.0776	0.001131578	-0.1235723	0	0	0	0
33.09768	0.001131578	-0.1235723	0	0	0	0
33.11433	0.001131578	-0.1235723	0	0	0	0
33.13081	0.001131578	-0.1235723	0	0	0	0
33.14738	0.001131578	-0.1235723	0	0	0	0
33.16399	0.001131578	-0.1235723	0	0	0	0
33.18054	0.001131578	-0.1235723	0	0	0	0
33.19708	0.001131578	-0.1235723	0	0	0	0
33.21365	0.001131578	-0.1235723	0	0	0	0
33.23022	0.001131578	-0.1235723	0	0	0	0
33.24678	0.001131578	-0.1235723	0	0	0	0
33.26335	0.001131578	-0.1235723	0	0	0	0
33.27992	0.001131578	-0.1235723	0	0	0	0
33.29655	0.001131578	-0.1235723	0	0	0	0
33.31305	0.001131578	-0.1235723	0	0	0	0
33.32995	0.001131578	-0.1235723	0	0	0	0
33.34652	0.001131578	-0.1235723	0	0	0	0
33.36332	0.001131578	-0.1235723	0	0	0	0
33.37966	0.001131578	-0.1235723	0	0	0	0
33.39622	0.001131578	-0.1235723	0	0	0	0
33.41279	0.001131578	-0.1235723	0	0	0	0
33.42936	0.001105263	-0.123592	-0.001588425	-0.001186356	-0.04793876	-0.03580429
33.44593	0.001105263	-0.123592	0	0	0.04793876	0.03580429
33.46249	0.001105263	-0.123592	0	0	0	0
33.47906	0.001105263	-0.1236313	0	-0.002373708	0	-0.07164691
33.49562	0.001105263	-0.1236313	0	0	0	0.07164691
33.51219	0.001105263	-0.1236313	0	0	0	0
33.52876	0.001052631	-0.1236706	-0.003177574	-0.002373708	-0.09591043	-0.07164691
33.54532	0.001052631	-0.1236706	0	0	0.09591043	0.07164691
33.56189	0.001052631	-0.1236706	0	0	0	0
33.57845	0.001052631	-0.1236706	0	0	0	0
33.59502	0.001052631	-0.1236706	0	0	0	0
33.61159	0.001052631	-0.1236706	0	0	0	0
33.62825	0.001026315	-0.1236902	-0.001579695	-0.001179836	-0.04754393	-0.03550941
33.69295	0.001026315	-0.1236902	0	0	0.01941524	0.01450077
33.71064	0.001026315	-0.1236902	0	0	0	0
33.73576	0.001026315	-0.1236902	0	0	0	0
33.75256	0.001026315	-0.1236902	0	0	0	0
33.76889	0.001026315	-0.1236902	0	0	0	0
33.78547	0.001026315	-0.1236902	0	0	0	0
33.80212	0.001026315	-0.1236902	0	0	0	0
33.82251	0.001026315	-0.1236902	0	0	0	0
33.83908	0.001026315	-0.1236902	0	0	0	0
33.85565	0.001026315	-0.1236902	0	0	0	0
33.87222	0.001026315	-0.1236902	0	0	0	0
33.88878	0.001026315	-0.1236902	0	0	0	0
33.90535	0.0009999997	-0.1236706	-0.001588418	0.001186356	-0.04793854	0.03580429
33.92227	0.0009999997	-0.1236706	0	0	0.04743611	-0.03542904
33.93848	0.0009999997	-0.1236706	0	0	0	0
33.95505	0.0009999997	-0.1236706	0	0	0	0
33.97161	0.0009999997	-0.1236706	0	0	0	0
33.98818	0.0009999997	-0.1236706	0	0	0	0
34.00475	0.0009999997	-0.1236706	0	0	0	0
34.02155	0.0009999997	-0.1236706	0	0	0	0
34.03788	0.0009999997	-0.1236706	0	0	0	0
34.05445	0.0009999997	-0.1236706	0	0	0	0
34.07102	0.0009999997	-0.1236706	0	0	0	0
34.08764	0.0009999997	-0.1236706	0	0	0	0
34.10415	0.0009999997	-0.1236706	0	0	0	0
34.12101	0.0009999997	-0.1236706	0	0	0	0
34.13771	0.0009999997	-0.1236706	0	0	0	0
34.15428	0.001026315	-0.1236902	0.001588418	-0.001186356	0.04774068	-0.03565651
34.17049	0.001026315	-0.1236902	0	0	-0.04846301	0.03619601
34.18716	0.001026315	-0.1236902	0	0	0	0
34.20355	0.001026315	-0.1236902	0	0	0	0
34.22012	0.001026315	-0.1236902	0	0	0	0
34.23668	0.001026315	-0.1236902	0	0	0	0
34.25325	0.0009999997	-0.1236706	-0.001588784	0.001186629	-0.0479551	0.03581666
34.26982	0.0009999997	-0.1236706	0	0	0.04794958	-0.03581254
34.28638	0.0009999997	-0.1236706	0	0	0	0
34.30295	0.0009999997	-0.1236706	0	0	0	0
34.31958	0.0009999997	-0.1236706	0	0	0	0
34.33633	0.0009999997	-0.1236706	0	0	0	0
34.35265	0.0009999997	-0.1236706	0	0	0	0
34.36922	0.0009999997	-0.1236706	0	0	0	0
34.38579	0.0009999997	-0.1236706	0	0	0	0
34.40242	0.0009999997	-0.1236706	0	0	0	0
34.41892	0.0009999997	-0.1236706	0	0	0	0
34.43549	0.0009999997	-0.1236706	0	0	0	0
34.45205	0.0009999997	-0.1236706	0	0	0	0
34.46862	0.0009999997	-0.1236706	0	0	0	0
34.48543	0.0009999997	-0.1236706	0	0	0	0
34.50208	0.0009999997	-0.1236706	0	0	0	0
34.51831	0.0009999997	-0.1236706	0	0	0	0
34.5349	0.0009999997	-0.1236706	0	0	0	0
34.55146	0.0009999997	-0.1236706	0	0	0	0
34.56801	0.0009999997	-0.1236706	0	0	0	0
34.58458	0.0009999997	-0.1236706	0	0	0	0
34.60115	0.001026315	-0.1236902	0.001588418	-0.001186356	0.04793854	-0.03580429
34.61771	0.001026315	-0.1236902	0	0	-0.04793854	0.03580429
34.63475	0.001026315	-0.1236902	0	0	0	0
34.65084	0.0009999997	-0.1236706	-0.00163549	0.001221513	-0.04936488	0.0368696
34.66741	0.0009999997	-0.1236706	0	0	0.0500799	-0.03740362
34.68475	0.0009999997	-0.1236706	0	0	0	0
34.70054	0.0009999997	-0.1236706	0	0	0	0
34.71714	0.0009999997	-0.1236706	0	0	0	0
34.73393	0.0009999997	-0.1236706	0	0	0	0
34.75024	0.0009999997	-0.1236706	0	0	0	0
34.76682	0.0009999997	-0.1236706	0	0	0	0
34.78338	0.0009999997	-0.1236706	0	0	0	0
34.80004	0.001026315	-0.1236509	0.001579688	0.001180283	0.04754372	0.03552287
34.81661	0.001026315	-0.1236509	0	0	-0.04754372	-0.03552287
34.83318	0.001026315	-0.1236509	0	0	0	0
34.84974	0.00155263	-0.1234937	0.03177575	0.009493933	0.9591045	0.2865604
34.86631	0.00155263	-0.1234937	0	0	-0.9591045	-0.2865604
34.88287	0.00155263	-0.1234937	0	0	0	0
34.89944	0.0104733	-0.119389	0.5385768	0.2478184	16.25615	7.480034
34.91621	0.0104733	-0.119389	0	0	-16.15755	-7.434664
34.93257	0.0104733	-0.119389	0	0	0	0
34.95071	0.07499069	-0.1084039	3.556107	0.6054811	103.0524	17.54623
34.96729	0.07499069	-0.1084039	0	0	-102.4409	-17.44211
34.98385	0.07499069	-0.1084039	0	0	0	0
35.00041	0.1210889	-0.09719317	2.783775	0.676992	84.03385	20.43637
35.01698	0.1210889	-0.09719317	0	0	-84.02417	-20.43401
35.03355	0.1210889	-0.09719317	0	0	0	0
35.0505	0.1485039	-0.08963592	1.617163	0.4457894	48.24509	13.29931
35.06668	0.1485039	-0.08963592	0	0	-48.80608	-13.45395
35.08325	0.1485039	-0.08963592	0	0	0	0
35.10072	0.1804879	-0.08217733	1.831062	0.4269986	53.80585	12.54737
35.11733	0.1804879	-0.08217733	0	0	-53.72154	-12.52771
35.13393	0.1804879	-0.08217733	0	0	0	0
35.15425	0.1920001	-0.07620583	0.5666255	0.2939149	15.34795	7.961152
35.17082	0.1920001	-0.07620583	0	0	-15.36224	-7.968562
35.18739	0.1928875	-0.07688157	0.05356141	-0.04078717	1.616487	-1.230959
35.20395	0.1928875	-0.07688157	0	0	-1.616487	1.230959
35.22052	0.1928875	-0.07688157	0	0	0	0
35.23764	0.1930396	-0.07699742	0.008883063	-0.006767178	0.2636895	-0.2008804
35.25365	0.1930396	-0.07699742	0	0	-0.2680914	0.2042338
35.27023	0.1930396	-0.07699742	0	0	0	0
35.28679	0.193293	-0.07719053	0.01530293	-0.01165847	0.4618433	-0.3518534
35.30336	0.193293	-0.07719053	0	0	-0.4618965	0.351894
35.31992	0.193293	-0.07719053	0	0	0	0
35.33649	0.1934958	-0.07734502	0.01223772	-0.009325352	0.3693353	-0.2814397
35.35306	0.1934958	-0.07734502	0	0	-0.3693353	0.2814397
35.36977	0.1934958	-0.07734502	0	0	0	0
35.38619	0.1935211	-0.07736433	0.001543445	-0.001175958	0.04658127	-0.03549049
35.40276	0.1935211	-0.07736433	0	0	-0.04678595	0.03564644
35.41933	0.1935211	-0.07736433	0	0	0	0
35.43589	0.1936478	-0.07742227	0.007649665	-0.003497812	0.2308939	-0.1055763
35.45246	0.1936478	-0.07742227	0	0	-0.2308939	0.1055763
35.46926	0.1936478	-0.07742227	0	0	0	0
35.48559	0.1936985	-0.07742227	0.003104009	0	0.09367916	0
35.50232	0.1936985	-0.07742227	0	0	-0.09391703	0
35.51873	0.1936985	-0.07742227	0	0	0	0
35.53563	0.1936732	-0.07744158	-0.001498336	-0.001142261	-0.04497135	-0.03428404
35.55186	0.1936732	-0.07744158	0	0	0.04521987	0.0344735
35.56843	0.1936732	-0.07744158	0	0	0	0
35.58502	0.1936478	-0.07742227	-0.00152783	0.001164061	-0.04607816	0.03510717
35.60156	0.1936478	-0.07742227	0	0	0.04610999	-0.03513142
35.61813	0.1936478	-0.07742227	0	0	0	0
35.63472	0.1936478	-0.07742227	0	0	0	0
35.65126	0.1936478	-0.07742227	0	0	0	0
35.66783	0.1936478	-0.07742227	0	0	0	0
35.68439	0.1936478	-0.07742227	0	0	0	0
35.70097	0.1936478	-0.07742227	0	0	0	0
35.71753	0.1936478	-0.07742227	0	0	0	0
35.7341	0.1936225	-0.07740296	-0.00152994	0.001165669	-0.04617369	0.03517996
35.75088	0.1936225	-0.07740296	0	0	0.04588316	-0.0349586
35.76776	0.1936225	-0.07740296	0	0	0	0
35.7838	0.1935972	-0.07738364	-0.001579597	0.00120421	-0.04798167	0.03657897
35.80037	0.1935972	-0.07738364	0	0	0.04844762	-0.03693419
35.8175	0.1935972	-0.07738364	0	0	0	0
35.83365	0.1935972	-0.07738364	0	0	0	0
35.85007	0.1935972	-0.07738364	0	0	0	0
35.86663	0.1935972	-0.07738364	0	0	0	0
35.8832	0.1934451	-0.07734502	-0.009180857	0.002331875	-0.2771107	0.07038423
35.89977	0.1934451	-0.07734502	0	0	0.2770788	-0.07037612
35.91634	0.1934451	-0.07734502	0	0	0	0
35.9329	0.1909349	-0.07906435	-0.1515163	-0.1037787	-4.57277	-3.132048
35.94947	0.1909349	-0.07906435	0	0	4.57277	3.132048
35.96622	0.1909349	-0.07906435	0	0	0	0
35.9826	0.1907573	-0.07912232	-0.01084089	-0.003539186	-0.3272164	-0.1068252
35.99917	0.1907573	-0.07912232	0	0	0.3289968	0.1074064
36.01574	0.1907573	-0.07912232	0	0	0	0
36.03462	0.1765631	-0.08876307	-0.7518525	-0.5106619	-21.21111	-14.40669
36.05119	0.1765631	-0.08876307	0	0	21.20883	14.40514
36.06776	0.1765631	-0.08876307	0	0	0	0
36.08432	0.1254949	-0.1260306	-3.083194	-2.249989	-93.06168	-67.91263
36.10089	0.1254949	-0.1260306	0	0	93.06168	67.91263
36.11762	0.1254949	-0.1260306	0	0	0	0
36.13402	0.08314994	-0.152401	-2.581507	-1.607642	-77.91003	-48.51872
36.15059	0.08314994	-0.152401	0	0	78.28859	48.75447
36.16724	0.08314994	-0.152401	0	0	0	0
36.18373	0.04780566	-0.168029	-2.143255	-0.9476709	-64.68357	-28.60076
36.20029	0.04780566	-0.168029	0	0	64.83286	28.66677
36.21686	0.04780566	-0.168029	0	0	0	0
36.23346	0.009131325	-0.1755114	-2.330631	-0.4509097	-70.28194	-13.59752
36.25	0.009131325	-0.1755114	0	0	70.33858	13.60848
36.26656	0.009131325	-0.1755114	0	0	0	0
36.28313	-0.0272827	-0.173784	-2.197955	0.1042635	-66.33442	3.146679
36.2997	-0.0272827	-0.173784	0	0	66.33442	-3.146679
36.31627	-0.0272827	-0.173784	0	0	0	0
36.33283	-0.0296755	-0.1717571	-0.1444626	0.1223748	-4.360393	3.693705
36.3494	-0.0296755	-0.1717571	0	0	4.359891	-3.69328
36.36617	-0.0296755	-0.1717571	0	0	0	0
36.38253	-0.02951774	-0.1718774	0.009642103	-0.007356209	0.2910327	-0.2220364
36.3991	-0.02951774	-0.1718774	0	0	-0.2928197	0.2233997
36.41634	-0.02951774	-0.1718774	0	0	0	0
36.43223	-0.0293074	-0.1720379	0.01323905	-0.01010185	0.3996012	-0.3049096
36.4488	-0.0293074	-0.1720379	0	0	-0.4078665	0.3112164
36.46536	-0.0293074	-0.1720379	0	0	0	0
36.48193	-0.02909705	-0.1721583	0.01269363	-0.007263971	0.3830944	-0.2192271
36.4985	-0.02909705	-0.1721583	0	0	-0.3830503	0.2192018
36.51506	-0.02909705	-0.1721583	0	0	0	0
36.53163	-0.02896558	-0.1722586	0.007937213	-0.006057296	0.2396007	-0.1828517
36.5482	-0.02896558	-0.1722586	0	0	-0.2395456	0.1828096
36.56482	-0.02896558	-0.1722586	0	0	0	0
36.58133	-0.02886041	-0.1722586	0.006371918	0	0.192327	0
36.59814	-0.02886041	-0.1722586	0	0	-0.1912699	0
36.61446	-0.02886041	-0.1722586	0	0	0	0
36.63103	-0.02886041	-0.1722586	0	0	0	0
36.64762	-0.02886041	-0.1722586	0	0	0	0
36.66417	-0.02886041	-0.1722586	0	0	0	0
36.68073	-0.02886041	-0.1722185	0	0.002422181	0	0.07316052
36.6973	-0.02886041	-0.1722185	0	0	0	-0.07310156
36.71387	-0.02886041	-0.1722185	0	0	0	0
36.73043	-0.02880782	-0.1721784	0.003174953	0.002422739	0.0958313	0.07312682
36.74713	-0.02880782	-0.1721784	0	0	-0.0954576	-0.07284165
36.7642	-0.02880782	-0.1721784	0	0	0	0
36.78013	-0.02878152	-0.1721583	0.001650522	0.00125999	0.05001437	0.03818043
36.7967	-0.02878152	-0.1721583	0	0	-0.05078933	-0.03877202
36.81367	-0.02878152	-0.1721583	0	0	0	0
36.82983	-0.02880782	-0.1721383	-0.001627527	0.001241514	-0.04912453	0.03747328
36.84639	-0.02880782	-0.1721383	0	0	0.04973729	-0.03794072
36.86296	-0.02880782	-0.1721383	0	0	0	0
36.87952	-0.02875523	-0.1721383	0.003174953	0	0.0958313	0
36.89609	-0.02875523	-0.1721383	0	0	-0.0958313	0
36.913	-0.02875523	-0.1721383	0	0	0	0
36.92923	-0.02875523	-0.1720981	0	0.002473438	0	0.07464851
36.94579	-0.02875523	-0.1720981	0	0	0	-0.07543007
36.96264	-0.02875523	-0.1720981	0	0	0	0
36.97892	-0.02872894	-0.1720781	0.001614943	0.001231915	0.0487447	0.03718355
36.99549	-0.02872894	-0.1720781	0	0	-0.04916359	-0.03750309
37.0126	-0.02872894	-0.1720781	0	0	0	0
37.02872	-0.02867635	-0.1720379	0.003262874	0.00248983	0.09820241	0.07493616
37.04519	-0.02867635	-0.1720379	0	0	-0.1001104	-0.07639208
37.0625	-0.02867635	-0.1720379	0	0	0	0
37.07832	-0.02865005	-0.1720179	0.001662181	0.001267859	0.05017051	0.03826847
37.0949	-0.02865005	-0.1720179	0	0	-0.05130471	-0.0391336
37.11146	-0.02865005	-0.1720179	0	0	0	0
37.13063	-0.02859746	-0.1719376	0.002742866	0.004186045	0.0767616	0.1171503
37.14721	-0.02859746	-0.1719376	0	0	-0.07673702	-0.1171128
37.16377	-0.02859746	-0.1719376	0	0	0	0
37.18034	-0.02857117	-0.1718774	0.001587533	0.003633658	0.04791734	0.1096766
37.19691	-0.02857117	-0.1718774	0	0	-0.04791183	-0.109664
37.21383	-0.02857117	-0.1718774	0	0	0	0
37.23004	-0.02849229	-0.1718173	0.004865579	0.003711397	0.1468604	0.1120231
37.24661	-0.02849229	-0.1718173	0	0	-0.1484154	-0.1132093
37.26318	-0.02849229	-0.1718173	0	0	0	0
37.28009	-0.02846599	-0.1717972	0.001554133	0.001186408	0.04641223	0.03543059
37.29631	-0.02846599	-0.1717972	0	0	-0.04690382	-0.03580586
37.31294	-0.02846599	-0.1717972	0	0	0	0
37.32944	-0.0284397	-0.1717771	0.001593404	0.001215398	0.04809457	0.03668501
37.34601	-0.0284397	-0.1717771	0	0	-0.04817778	-0.03674848
37.36326	-0.0284397	-0.1717771	0	0	0	0
37.37915	-0.02838711	-0.171737	0.003309996	0.00252476	0.09989587	0.0761974
37.39572	-0.02838711	-0.171737	0	0	-0.1019739	-0.07778242
37.41248	-0.02838711	-0.171737	0	0	0	0
37.42885	-0.02830823	-0.1716768	0.004819089	0.003676845	0.1454404	0.1109674
37.44542	-0.02830823	-0.1716768	0	0	-0.1463163	-0.1116357
37.46237	-0.02830823	-0.1716768	0	0	0	0
37.47855	-0.02815046	-0.1715164	0.009747443	0.009913387	0.2941784	0.2991866
37.49512	-0.02815046	-0.1715164	0	0	-0.2976047	-0.3026712
37.51169	-0.02815046	-0.1715164	0	0	0	0
37.52842	-0.02767714	-0.1711153	0.0282957	0.02398001	0.8498567	0.7202355
37.54495	-0.02767714	-0.1711153	0	0	-0.8507339	-0.720979
37.56139	-0.02767714	-0.1711153	0	0	0	0
37.57796	-0.02759825	-0.1710551	0.004761613	0.003631023	0.1442538	0.1100024
37.59452	-0.02759825	-0.1710551	0	0	-0.1437223	-0.1095971
37.6117	-0.02759825	-0.1710551	0	0	0	0
37.62766	-0.02746678	-0.1709548	0.008239615	0.006283805	0.2486721	0.1896456
37.64429	-0.02746678	-0.1709548	0	0	-0.252805	-0.1927975
37.66079	-0.02746678	-0.1709548	0	0	0	0
37.67735	-0.0273353	-0.1708546	0.007938	0.006053698	0.2401222	0.1831226
37.69392	-0.0273353	-0.1708546	0	0	-0.2395969	-0.182722
37.71048	-0.0273353	-0.1708546	0	0	0	0
37.78619	-0.02675677	-0.1703734	0.007641293	0.006355652	0.08280773	0.0688754
37.80276	-0.02675677	-0.1703734	0	0	-0.08280773	-0.0688754
37.8289	-0.02402169	-0.1682894	0.1046234	0.0797176	2.449659	1.866514
37.84547	-0.02402169	-0.1682894	0	0	-2.449441	-1.866347
37.86226	-0.02402169	-0.1682894	0	0	0	0
37.8786	-0.02402169	-0.1682894	0	0	0	0
37.89579	-0.02402169	-0.1682894	0	0	0	0
37.91174	-0.02402169	-0.1682493	0	0.002511695	0	0.07579437
37.92831	-0.02402169	-0.1682493	0	0	0	-0.07723468
37.94489	-0.02402169	-0.1682493	0	0	0	0
37.96144	-0.02396909	-0.1682093	0.003178668	0.00242047	0.09594344	0.07305835
37.978	-0.02396909	-0.1682093	0	0	-0.09598765	-0.07309201
37.99457	-0.02396909	-0.1682093	0	0	0	0
38.01117	-0.02394279	-0.1681892	0.001584221	0.001206342	0.04776241	0.03636979
38.02771	-0.02394279	-0.1681892	0	0	-0.0478119	-0.03640747
38.04448	-0.02394279	-0.1681892	0	0	0	0
38.06084	-0.02383759	-0.1680691	0.00643158	0.007346082	0.1941055	0.2217052
38.07741	-0.02383759	-0.1680691	0	0	-0.1953424	-0.223118
38.09398	-0.02383759	-0.1680691	0	0	0	0
38.11054	-0.02381129	-0.1680491	0.00158787	0.00120912	0.04792753	0.03649553
38.12711	-0.02381129	-0.1680491	0	0	-0.04792753	-0.03649553
38.14371	-0.02381129	-0.1680491	0	0	0	0
38.16024	-0.02375869	-0.168009	0.003182336	0.002423263	0.09604309	0.07313424
38.17708	-0.02375869	-0.168009	0	0	-0.09536241	-0.07261591
38.19363	-0.02375869	-0.168009	0	0	0	0
38.20994	-0.02373238	-0.167989	0.001612493	0.001227783	0.04907759	0.03736862
38.22679	-0.02373238	-0.167989	0	0	-0.04862594	-0.03702473
38.24307	-0.02373238	-0.167989	0	0	0	0
38.25963	-0.02370608	-0.1679689	0.001588236	0.001209399	0.04835615	0.03682191
38.2762	-0.02370608	-0.1679689	0	0	-0.04794409	-0.03650813
38.29277	-0.02370608	-0.1679689	0	0	0	0
38.30933	-0.02299595	-0.1673882	0.04288383	0.03506716	1.294386	1.058451
38.3259	-0.02299595	-0.1673882	0	0	-1.294386	-1.058451
38.34247	-0.02299595	-0.1673882	0	0	0	0
38.35903	-0.01228886	-0.1592939	0.646579	0.4888005	19.51829	14.75542
38.3756	-0.01228886	-0.1592939	0	0	-19.51604	-14.75373
38.39217	-0.01228886	-0.1592939	0	0	0	0
38.40873	-0.009657594	-0.1572199	0.1588964	0.1252439	4.796607	3.780738
38.42538	-0.009657594	-0.1572199	0	0	-4.783388	-3.770318
38.44226	-0.009657594	-0.1572199	0	0	0	0
38.45843	-0.009789161	-0.1571203	-0.008136235	0.00616301	-0.2462324	0.1865154
38.475	-0.009789161	-0.1571203	0	0	0.2484699	-0.1882102
38.49156	-0.009789161	-0.1571203	0	0	0	0
38.50813	-0.009894414	-0.1569608	-0.006354516	0.00962708	-0.1918459	0.2906462
38.52476	-0.009894414	-0.1569608	0	0	0.1914271	-0.2900116
38.54137	-0.009894414	-0.1569608	0	0	0	0
38.55794	-0.01292033	-0.15463	-0.1826029	0.1406529	-5.502729	4.238569
38.5744	-0.01292033	-0.15463	0	0	5.528788	-4.25864
38.59097	-0.01292033	-0.15463	0	0	0	0
38.60752	-0.02675677	-0.1441403	-0.8355538	0.6334514	-25.22287	19.122
38.62413	-0.02675677	-0.1441403	0	0	25.19676	-19.10221
38.64066	-0.02675677	-0.1441403	0	0	0	0
38.65722	-0.02962291	-0.1419806	-0.1730404	0.1303925	-5.228991	3.940242
38.67416	-0.02962291	-0.1419806	0	0	5.164105	-3.891348
38.69036	-0.02962291	-0.1419806	0	0	0	0
38.70692	-0.02970179	-0.1419212	-0.00476226	0.003586877	-0.1453823	0.1095002
38.72386	-0.02970179	-0.1419212	0	0	0.142138	-0.1070566
38.74006	-0.02970179	-0.1419212	0	0	0	0
38.75662	-0.02970179	-0.1419212	0	0	0	0
38.77322	-0.02970179	-0.1419212	0	0	0	0
38.7898	-0.02970179	-0.1419212	0	0	0	0
38.80681	-0.02970179	-0.1419212	0	0	0	0
38.82289	-0.02970179	-0.1419212	0	0	0	0
38.83997	-0.02970179	-0.1419212	0	0	0	0
38.85673	-0.0296755	-0.141941	0.001569348	-0.001182014	0.04638053	-0.03493325
38.87329	-0.0296755	-0.141941	0	0	-0.04709734	0.03547315
38.89043	-0.0296755	-0.141941	0	0	0	0
38.90643	-0.02970179	-0.1419608	-0.001642654	-0.001237227	-0.0495697	-0.0373353
38.923	-0.02970179	-0.1419608	0	0	0.05042886	0.0379824
38.9398	-0.02970179	-0.1419608	0	0	0	0
38.95631	-0.02970179	-0.1419608	0	0	0	0
38.97315	-0.02970179	-0.1419608	0	0	0	0
38.98927	-0.02970179	-0.1419608	0	0	0	0
39.00587	-0.02970179	-0.1419608	0	0	0	0
39.0224	-0.02970179	-0.1419608	0	0	0	0
39.03898	-0.02970179	-0.1419608	0	0	0	0
39.05567	-0.02970179	-0.1419608	0	0	0	0
39.07218	-0.02970179	-0.1419608	0	0	0	0
39.08915	-0.02970179	-0.1419608	0	0	0	0
39.10523	-0.02970179	-0.1419608	0	0	0	0
39.12287	-0.02970179	-0.1419608	0	0	0	0
39.13951	-0.02970179	-0.1419608	0	0	0	0
39.1696	-0.02970179	-0.1419608	0	0	0	0
39.18617	-0.02970179	-0.1419608	0	0	0	0
39.20274	-0.02970179	-0.1419608	0	0	0	0
39.21931	-0.02970179	-0.1419608	0	0	0	0
39.23587	-0.02970179	-0.1419608	0	0	0	0
39.25244	-0.02970179	-0.1419608	0	0	0	0
39.26931	-0.02970179	-0.1419608	0	0	0	0
39.28558	-0.02970179	-0.1419608	0	0	0	0
39.30214	-0.02970179	-0.1419608	0	0	0	0
39.31914	-0.02970179	-0.1419608	0	0	0	0
39.33527	-0.02970179	-0.1419608	0	0	0	0
39.35184	-0.02970179	-0.1419608	0	0	0	0
39.36841	-0.02970179	-0.1419608	0	0	0	0
39.38551	-0.02970179	-0.1419608	0	0	0	0
39.40154	-0.02970179	-0.1419608	0	0	0	0
39.41811	-0.02970179	-0.1419608	0	0	0	0
39.43476	-0.02970179	-0.1419608	0	0	0	0
39.45124	-0.02970179	-0.1419608	0	0	0	0
39.46781	-0.02970179	-0.1419608	0	0	0	0
39.48438	-0.02970179	-0.1419608	0	0	0	0
39.50095	-0.02970179	-0.1419608	0	0	0	0
39.51751	-0.02970179	-0.1419608	0	0	0	0
39.53408	-0.02970179	-0.1419608	0	0	0	0
39.55064	-0.02970179	-0.1419608	0	0	0	0
39.56721	-0.02970179	-0.1419608	0	0	0	0
39.58416	-0.02970179	-0.1419608	0	0	0	0
39.60034	-0.02970179	-0.1419608	0	0	0	0
39.61691	-0.02970179	-0.1419608	0	0	0	0
39.63395	-0.02970179	-0.1419608	0	0	0	0
39.65004	-0.0296755	-0.1419806	0.001634087	-0.001230774	0.04932252	-0.03714912
