Time	Pos X	Pos Y	Vel X	Vel Y	Acc X	Acc Y
0.01626751	-0.09419411	-0.1441998	0.001522512	0.002330782	-2.461593E-05	-3.768401E-05
0.03283306	-0.09419411	-0.1441998	0	0	2.461581E-05	3.768383E-05
0.04968994	-0.09846997	-0.1409509	-0.2536561	0.1927317	-7.589396	5.766537
0.06597008	-0.09846997	-0.1409509	0	0	7.654765	-5.816205
0.0825372	-0.09846997	-0.1409509	0	0	0	0
0.09910354	-0.09836572	-0.1410301	0.006292343	-0.00477986	0.189909	-0.1442608
0.1156691	-0.09836572	-0.1410301	0	0	-0.1899181	0.1442677
0.1322374	-0.09836572	-0.1410301	0	0	0	0
0.1489767	-0.09833966	-0.1410499	0.001556947	-0.001183066	0.04674456	-0.03551945
0.165526	-0.09833966	-0.1410499	0	0	-0.04677117	0.03553967
0.181938	-0.09833966	-0.1410499	0	0	0	0
0.1985043	-0.09820934	-0.1411489	0.007866441	-0.005975275	0.2385337	-0.1811879
0.2232117	-0.09820934	-0.1411489	0	0	-0.190592	0.1447719
0.2397844	-0.09820934	-0.1411489	0	0	0	0
0.2563495	-0.09818328	-0.1411687	0.001573312	-0.001194601	0.04747785	-0.03604951
0.2729159	-0.09818328	-0.1411687	0	0	-0.04748691	0.03605638
0.2894826	-0.09818328	-0.1411687	0	0	0	0
0.3060493	-0.09818328	-0.1411687	0	0	0	0
0.3226153	-0.09818328	-0.1411687	0	0	0	0
0.3392365	-0.09818328	-0.1411687	0	0	0	0
0.3557464	-0.09818328	-0.1411687	0	0	0	0
0.3723135	-0.09818328	-0.1411687	0	0	0	0
0.3888822	-0.09818328	-0.1411687	0	0	0	0
0.4054494	-0.09820934	-0.1411489	-0.001573122	0.001194457	-0.04747491	0.03604727
0.4220153	-0.09820934	-0.1411489	0	0	0.04747888	-0.03605028
0.4385825	-0.09820934	-0.1411489	0	0	0	0
0.4551496	-0.09794872	-0.1409509	0.01573167	0.01194997	0.4747852	0.3606527
0.4717155	-0.09794872	-0.1409509	0	0	-0.4748023	-0.3606657
0.4882827	-0.09794872	-0.1409509	0	0	0	0
0.5048475	-0.09416803	-0.1380821	0.2282363	0.1731876	6.888711	5.227213
0.5214158	-0.09416803	-0.1380821	0	0	-6.88847	-5.22703
0.5379829	-0.09416803	-0.1380821	0	0	0	0
0.5546052	-0.07718844	-0.1253027	1.021491	0.7688112	30.77755	23.16431
0.5711159	-0.07718844	-0.1253027	0	0	-30.82998	-23.20377
0.5877608	-0.07718844	-0.1253027	0	0	0	0
0.6042466	-0.05990193	-0.1124713	1.048569	0.7783312	31.64945	23.49274
0.6679208	-0.05990193	-0.1124713	0	0	-13.08095	-9.709724
0.6845479	-0.05990193	-0.1124713	0	0	0	0
0.7039632	-0.05229438	-0.1068803	0.3918323	0.2879665	10.87141	7.989647
0.7205327	-0.05229438	-0.1068803	0	0	-10.88882	-8.002444
0.7370971	-0.05229438	-0.1068803	0	0	0	0
0.7547573	-0.05213692	-0.1070365	0.008916337	-0.008846093	0.2605245	-0.258472
0.7713264	-0.05213692	-0.1070365	0	0	-0.2604886	0.2584364
0.7878919	-0.05213692	-0.1070365	0	0	0	0
0.8045937	-0.05213692	-0.1070365	0	0	0	0
0.8211138	-0.05213692	-0.1070365	0	0	0	0
0.8376135	-0.05213692	-0.1070365	0	0	0	0
0.8541589	-0.05213692	-0.1070365	0	0	0	0
0.8707248	-0.05213692	-0.1070365	0	0	0	0
0.8873926	-0.05213692	-0.1070365	0	0	0	0
0.903861	-0.05211068	-0.107017	0.001593632	0.00118578	0.04809331	0.03578497
0.9204274	-0.05211068	-0.107017	0	0	-0.048241	-0.03589486
0.9387757	-0.05211068	-0.107017	0	0	0	0
0.9553463	-0.05211068	-0.107017	0	0	0	0
0.9719127	-0.05211068	-0.107017	0	0	0	0
0.9884775	-0.05211068	-0.107017	0	0	0	0
1.005043	-0.05174325	-0.1067827	0.02217982	0.01414565	0.6694642	0.4269649
1.02161	-0.05174325	-0.1067827	0	0	-0.6694172	-0.4269349
1.038288	-0.05174325	-0.1067827	0	0	0	0
1.054746	-0.04352513	-0.1011066	0.4993199	0.3448697	15.06885	10.40774
1.071313	-0.04352513	-0.1011066	0	0	-15.11944	-10.44268
1.08788	-0.04352513	-0.1011066	0	0	0	0
1.104444	-0.02962291	-0.09552056	0.8392843	0.3372302	25.3322	10.17865
1.121078	-0.02962291	-0.09552056	0	0	-25.28099	-10.15808
1.137936	-0.02962291	-0.09552056	0	0	0	0
1.154147	-0.02815046	-0.0962984	0.0908344	-0.04798383	2.746833	-1.451031
1.170713	-0.02815046	-0.0962984	0	0	-2.771279	1.463945
1.18728	-0.02815046	-0.0962984	0	0	0	0
1.203847	-0.02815046	-0.0962984	0	0	0	0
1.220414	-0.02815046	-0.0962984	0	0	0	0
1.236979	-0.02815046	-0.0962984	0	0	0	0
1.253547	-0.02815046	-0.0962984	0	0	0	0
1.270113	-0.02815046	-0.0962984	0	0	0	0
1.28668	-0.02815046	-0.0962984	0	0	0	0
1.303244	-0.02817675	-0.09627894	-0.001587521	0.001174476	-0.04791648	0.03544944
1.319813	-0.02817675	-0.09627894	0	0	0.04791355	-0.03544727
1.33638	-0.02817675	-0.09627894	0	0	0	0
1.352947	-0.02820305	-0.0962984	-0.001587178	-0.001174222	-0.04790252	-0.03543911
1.370072	-0.02820305	-0.0962984	0	0	0.04710846	0.03485165
1.386084	-0.02820305	-0.0962984	0	0	0	0
1.402644	-0.02820305	-0.0962984	0	0	0	0
1.419361	-0.02820305	-0.0962984	0	0	0	0
1.435781	-0.02820305	-0.0962984	0	0	0	0
1.452345	-0.02820305	-0.0962984	0	0	0	0
1.468914	-0.02820305	-0.0962984	0	0	0	0
1.485481	-0.02820305	-0.0962984	0	0	0	0
1.502093	-0.02820305	-0.0962984	0	0	0	0
1.518857	-0.02820305	-0.0962984	0	0	0	0
1.535457	-0.02820305	-0.0962984	0	0	0	0
1.551747	-0.02820305	-0.0962984	0	0	0	0
1.568535	-0.02820305	-0.0962984	0	0	0	0
1.584881	-0.02820305	-0.0962984	0	0	0	0
1.60958	-0.02820305	-0.0962984	0	0	0	0
1.626388	-0.02820305	-0.0962984	0	0	0	0
1.642715	-0.02820305	-0.0962984	0	0	0	0
1.659284	-0.02820305	-0.0962984	0	0	0	0
1.675854	-0.02820305	-0.0962984	0	0	0	0
1.692418	-0.02820305	-0.0962984	0	0	0	0
1.709009	-0.02820305	-0.0962984	0	0	0	0
1.725804	-0.02820305	-0.0962984	0	0	0	0
1.742115	-0.02820305	-0.0962984	0	0	0	0
1.75886	-0.02820305	-0.0962984	0	0	0	0
1.775251	-0.02820305	-0.0962984	0	0	0	0
1.791815	-0.02820305	-0.0962984	0	0	0	0
1.808383	-0.02820305	-0.0962984	0	0	0	0
1.824948	-0.02820305	-0.0962984	0	0	0	0
1.841514	-0.02820305	-0.0962984	0	0	0	0
1.858316	-0.02820305	-0.0962984	0	0	0	0
1.874841	-0.02820305	-0.0962984	0	0	0	0
1.891215	-0.02820305	-0.0962984	0	0	0	0
1.907782	-0.02820305	-0.0962984	0	0	0	0
1.924378	-0.02820305	-0.0962984	0	0	0	0
1.940914	-0.02822934	-0.09631784	-0.001590165	-0.001175981	-0.0479949	-0.03549385
1.95748	-0.02822934	-0.09631784	0	0	0.04803845	0.03552606
1.974049	-0.02822934	-0.09631784	0	0	0	0
1.990614	-0.02822934	-0.09631784	0	0	0	0
2.00718	-0.02822934	-0.09631784	0	0	0	0
2.023748	-0.02822934	-0.09631784	0	0	0	0
2.040314	-0.02822934	-0.09631784	0	0	0	0
2.056967	-0.02822934	-0.09631784	0	0	0	0
2.07348	-0.02822934	-0.09631784	0	0	0	0
2.090013	-0.02822934	-0.09631784	0	0	0	0
2.10658	-0.02822934	-0.09631784	0	0	0	0
2.123813	-0.02822934	-0.09631784	0	0	0	0
2.139716	-0.02822934	-0.09631784	0	0	0	0
2.156343	-0.02822934	-0.09631784	0	0	0	0
2.17285	-0.02822934	-0.09631784	0	0	0	0
2.189414	-0.02822934	-0.09631784	0	0	0	0
2.205982	-0.02822934	-0.09631784	0	0	0	0
2.222549	-0.02822934	-0.09631784	0	0	0	0
2.239114	-0.02825564	-0.0962984	-0.001587373	0.001173916	-0.04791079	0.03543165
2.255683	-0.02825564	-0.0962984	0	0	0.04790803	-0.03542962
2.272247	-0.02825564	-0.0962984	0	0	0	0
2.288814	-0.02822934	-0.09631784	0.001587144	-0.001173747	0.04790459	-0.03542706
2.305382	-0.02822934	-0.09631784	0	0	-0.04789873	0.03542273
2.321948	-0.02822934	-0.09631784	0	0	0	0
2.338513	-0.02822934	-0.09631784	0	0	0	0
2.355081	-0.02822934	-0.09631784	0	0	0	0
2.37165	-0.02822934	-0.09631784	0	0	0	0
2.38861	-0.02822934	-0.09631784	0	0	0	0
2.404785	-0.02822934	-0.09631784	0	0	0	0
2.421352	-0.02822934	-0.09631784	0	0	0	0
2.437914	-0.02822934	-0.09631784	0	0	0	0
2.454484	-0.02822934	-0.09631784	0	0	0	0
2.471051	-0.02822934	-0.09631784	0	0	0	0
2.487617	-0.02822934	-0.09631784	0	0	0	0
2.504182	-0.02822934	-0.09631784	0	0	0	0
2.52075	-0.02822934	-0.09631784	0	0	0	0
2.537436	-0.02820305	-0.09633729	0.001575941	-0.001165462	0.04739149	-0.03504761
2.553884	-0.02820305	-0.09633729	0	0	-0.04756336	0.03517471
2.570451	-0.02820305	-0.09633729	0	0	0	0
2.587017	-0.02822934	-0.09631784	-0.001587258	0.001173831	-0.04790562	0.03542783
2.603585	-0.02822934	-0.09631784	0	0	0.0479039	-0.03542656
2.620151	-0.02822934	-0.09631784	0	0	0	0
2.637252	-0.02822934	-0.09631784	0	0	0	0
2.653284	-0.02822934	-0.09631784	0	0	0	0
2.670109	-0.02822934	-0.09631784	0	0	0	0
2.686414	-0.02822934	-0.09631784	0	0	0	0
2.702984	-0.02822934	-0.09631784	0	0	0	0
2.71955	-0.02822934	-0.09631784	0	0	0	0
2.736499	-0.02820305	-0.09633729	0.001551422	-0.001147329	0.04629042	-0.03423334
2.752796	-0.02820305	-0.09633729	0	0	-0.04666488	0.03451026
2.769314	-0.02820305	-0.09633729	0	0	0	0
2.785816	-0.02820305	-0.09633729	0	0	0	0
2.802384	-0.02820305	-0.09633729	0	0	0	0
2.818951	-0.02820305	-0.09633729	0	0	0	0
2.835517	-0.02820305	-0.09633729	0	0	0	0
2.852167	-0.02820305	-0.09633729	0	0	0	0
2.868685	-0.02820305	-0.09633729	0	0	0	0
2.885218	-0.02820305	-0.09633729	0	0	0	0
2.901923	-0.02820305	-0.09633729	0	0	0	0
2.918528	-0.02820305	-0.09633729	0	0	0	0
2.938861	-0.02820305	-0.09633729	0	0	0	0
2.955601	-0.02820305	-0.09633729	0	0	0	0
2.971999	-0.02820305	-0.09633729	0	0	0	0
2.988565	-0.02820305	-0.09633729	0	0	0	0
3.005132	-0.02820305	-0.09633729	0	0	0	0
3.021696	-0.02817675	-0.09635674	0.00158751	-0.001174467	0.047917	-0.03544982
3.038265	-0.02817675	-0.09635674	0	0	-0.04791355	0.03544727
3.054832	-0.02817675	-0.09635674	0	0	0	0
3.071396	-0.02817675	-0.09635674	0	0	0	0
3.088279	-0.02817675	-0.09635674	0	0	0	0
3.104532	-0.02817675	-0.09635674	0	0	0	0
3.121096	-0.02817675	-0.09635674	0	0	0	0
3.137665	-0.02817675	-0.09635674	0	0	0	0
3.154234	-0.02817675	-0.09635674	0	0	0	0
3.170797	-0.02815046	-0.09637619	0.00158751	-0.001174017	0.04791424	-0.03543421
3.187367	-0.02815046	-0.09637619	0	0	-0.04791252	0.03543293
3.20438	-0.02815046	-0.09637619	0	0	0	0
3.220718	-0.02799269	-0.09649289	0.009656549	-0.007142714	0.2895435	-0.2141683
3.237305	-0.02799269	-0.09649289	0	0	-0.293286	0.2169365
3.253631	-0.02799269	-0.09649289	0	0	0	0
3.270199	-0.01941861	-0.1028412	0.5174875	-0.3831545	15.73202	-11.64819
3.286765	-0.01941861	-0.1028412	0	0	-15.61769	11.56354
3.303333	-0.01941861	-0.1028412	0	0	0	0
3.319899	-0.008315598	-0.1110821	0.6701986	-0.4974361	20.22692	-15.01287
3.336465	-0.008315598	-0.1110821	0	0	-20.22765	15.01341
3.353168	-0.008315598	-0.1110821	0	0	0	0
3.369599	-0.007947201	-0.111356	0.02242038	-0.01666655	0.6766632	-0.5030082
3.386166	-0.007947201	-0.111356	0	0	-0.6794352	0.5050689
3.402733	-0.007947201	-0.111356	0	0	0	0
3.419299	-0.007947201	-0.111356	0	0	0	0
3.435865	-0.007947201	-0.111356	0	0	0	0
3.452432	-0.007947201	-0.111356	0	0	0	0
3.468999	-0.007973515	-0.1113364	-0.001588347	0.001180959	-0.04793711	0.03564193
3.485566	-0.007973515	-0.1113364	0	0	0.0479378	-0.03564245
3.502266	-0.007973515	-0.1113364	0	0	0	0
3.518746	-0.007973515	-0.1113364	0	0	0	0
3.535265	-0.007973515	-0.1113364	0	0	0	0
3.551833	-0.007973515	-0.1113364	0	0	0	0
3.568399	-0.007973515	-0.1113364	0	0	0	0
3.584966	-0.007973515	-0.1113364	0	0	0	0
3.601604	-0.007973515	-0.1113364	0	0	0	0
3.618099	-0.007999829	-0.1113169	-0.001595293	0.001185714	-0.04814813	0.03578646
3.634667	-0.007999829	-0.1113169	0	0	0.04825021	-0.03586233
3.651963	-0.007999829	-0.1113169	0	0	0	0
3.667797	-0.007999829	-0.1113169	0	0	0	0
3.684367	-0.007999829	-0.1113169	0	0	0	0
3.701144	-0.007999829	-0.1113169	0	0	0	0
3.717499	-0.007999829	-0.1113169	0	0	0	0
3.734153	-0.007999829	-0.1113169	0	0	0	0
3.750632	-0.007999829	-0.1113169	0	0	0	0
3.767197	-0.007999829	-0.1113169	0	0	0	0
3.784043	-0.007999829	-0.1113169	0	0	0	0
3.800333	-0.007999829	-0.1113169	0	0	0	0
3.816899	-0.007999829	-0.1113169	0	0	0	0
3.833466	-0.007999829	-0.1113169	0	0	0	0
3.850032	-0.007999829	-0.1113169	0	0	0	0
3.866599	-0.007999829	-0.1113169	0	0	0	0
3.883166	-0.007999829	-0.1113169	0	0	0	0
3.899732	-0.007999829	-0.1113169	0	0	0	0
3.916299	-0.007999829	-0.1113169	0	0	0	0
3.932866	-0.007999829	-0.1113169	0	0	0	0
3.949433	-0.007999829	-0.1113169	0	0	0	0
3.965999	-0.007999829	-0.1113169	0	0	0	0
3.982566	-0.007999829	-0.1113169	0	0	0	0
3.999132	-0.007999829	-0.1113169	0	0	0	0
4.015699	-0.007999829	-0.1113169	0	0	0	0
4.032265	-0.007999829	-0.1113169	0	0	0	0
4.048832	-0.007999829	-0.1113169	0	0	0	0
4.065399	-0.007999829	-0.1113169	0	0	0	0
4.081966	-0.007999829	-0.1113169	0	0	0	0
4.098537	-0.007999829	-0.1113169	0	0	0	0
4.115101	-0.007973515	-0.1113364	0.001588657	-0.001180782	0.04794577	-0.03563606
4.13167	-0.007973515	-0.1113364	0	0	-0.04794853	0.03563811
4.148233	-0.007973515	-0.1113364	0	0	0	0
4.164802	-0.007973515	-0.1113364	0	0	0	0
4.181508	-0.007973515	-0.1113364	0	0	0	0
4.197936	-0.007973515	-0.1113364	0	0	0	0
4.214499	-0.007999829	-0.1113169	-0.001588703	0.001180816	-0.04815644	0.03579264
4.231397	-0.007999829	-0.1113169	0	0	0.04747843	-0.03528871
4.248023	-0.007999829	-0.1113169	0	0	0	0
4.266655	-0.008026144	-0.1113364	-0.001412298	-0.001049664	-0.04005631	-0.0297711
4.283287	-0.008026144	-0.1113364	0	0	0.04004873	0.02976547
4.299793	-0.008026144	-0.1113364	0	0	0	0
4.316375	-0.007631431	-0.1117864	0.02380435	-0.02713593	0.7194313	-0.8201208
4.332926	-0.007631431	-0.1117864	0	0	-0.7184581	0.8190113
4.349596	-0.007631431	-0.1117864	0	0	0	0
4.366059	0.008157713	-0.1252043	0.9590521	-0.8150221	28.94508	-24.59812
4.382626	0.008157713	-0.1252043	0	0	-29.03618	24.67554
4.399193	0.008157713	-0.1252043	0	0	0	0
4.415757	0.05748921	-0.1629278	2.97817	-2.277389	89.8891	-68.73767
4.432326	0.05748921	-0.1629278	0	0	-89.88393	68.73372
4.449105	0.05748921	-0.1629278	0	0	0	0
4.466799	0.07588034	-0.1769988	1.039399	-0.7952383	30.15117	-23.06848
4.483369	0.07588034	-0.1769988	0	0	-30.33495	23.20909
4.500134	0.07588034	-0.1769988	0	0	0	0
4.516501	0.0870949	-0.1856008	0.6851748	-0.5255599	20.68011	-15.86257
4.533177	0.0870949	-0.1856008	0	0	-20.73561	15.90515
4.549637	0.0870949	-0.1856008	0	0	0	0
4.566202	0.1169377	-0.2088561	1.801525	-1.403853	54.55068	-42.50906
4.582769	0.1169377	-0.2088561	0	0	-54.37404	42.37141
4.599337	0.1169377	-0.2088561	0	0	0	0
4.615901	0.1223853	-0.2130633	0.3288712	-0.2539915	9.926067	-7.66603
4.632692	0.1223853	-0.2130633	0	0	-9.859658	7.614741
4.649135	0.1223853	-0.2130633	0	0	0	0
4.665601	0.1224371	-0.2131042	0.0031488	-0.002483204	0.09568229	-0.07545687
4.682169	0.1224371	-0.2131042	0	0	-0.09531905	0.07517042
4.698736	0.1224371	-0.2131042	0	0	0	0
4.755567	0.1224371	-0.2131042	0	0	0	0
4.772449	0.1224371	-0.2131042	0	0	0	0
4.788701	0.1224631	-0.2131247	0.001595323	-0.001257922	0.04814764	-0.03796469
4.805542	0.1224631	-0.2131247	0	0	-0.04820731	0.03801174
4.821892	0.1224631	-0.2131247	0	0	0	0
4.8384	0.1225927	-0.2132678	0.007851087	-0.008668872	0.2389337	-0.2638215
4.854971	0.1225927	-0.2132678	0	0	-0.2373425	0.2620645
4.871537	0.1225927	-0.2132678	0	0	0	0
4.888101	0.1358683	-0.2237829	0.8015005	-0.6348421	24.19281	-19.16233
4.90467	0.1358683	-0.2237829	0	0	-24.19038	19.1604
4.921237	0.1358683	-0.2237829	0	0	0	0
4.937804	0.1589888	-0.2423205	1.39564	-1.118995	42.1217	-33.77231
4.954422	0.1589888	-0.2423205	0	0	-42.05694	33.72039
4.975	0.1589888	-0.2423205	0	0	0	0
4.991569	0.171841	-0.2527587	0.7757134	-0.6300114	20.88251	-16.96015
5.008239	0.171841	-0.2527587	0	0	-23.33786	18.95432
5.024705	0.171841	-0.2527587	0	0	0	0
5.041268	0.1719687	-0.2528629	0.007710841	-0.006293903	0.2334527	-0.1905537
5.057838	0.1719687	-0.2528629	0	0	-0.2327203	0.1899558
5.074405	0.1719687	-0.2528629	0	0	0	0
5.090968	0.1720709	-0.2529046	0.006169752	-0.002517201	0.1862303	-0.07598022
5.107538	0.1720709	-0.2529046	0	0	-0.1862088	0.07597147
5.124927	0.1720709	-0.2529046	0	0	0	0
5.140672	0.1720453	-0.2528837	-0.001623119	0.001324995	-0.04898722	0.03998957
5.157239	0.1720453	-0.2528837	0	0	0.05023208	-0.04100578
5.174139	0.1720453	-0.2528837	0	0	0	0
5.190369	0.1720453	-0.2528837	0	0	0	0
5.20733	0.1720453	-0.2528837	0	0	0	0
5.223852	0.1720453	-0.2528837	0	0	0	0
5.245351	0.1720198	-0.2528629	-0.001188007	0.0009689815	-0.03124641	0.02548569
5.261918	0.1720198	-0.2528629	0	0	0.03120961	-0.02545568
5.278487	0.1720198	-0.2528629	0	0	0	0
5.295105	0.1720198	-0.2528629	0	0	0	0
5.31162	0.1720198	-0.2528629	0	0	0	0
5.328187	0.1720198	-0.2528629	0	0	0	0
5.344754	0.1720198	-0.2528629	0	0	0	0
5.361333	0.1720198	-0.2528629	0	0	0	0
5.377888	0.1720198	-0.2528629	0	0	0	0
5.394454	0.1720198	-0.2528629	0	0	0	0
5.41102	0.1720198	-0.2528629	0	0	0	0
5.427587	0.1720198	-0.2528629	0	0	0	0
5.444154	0.1720198	-0.2528629	0	0	0	0
5.46072	0.1720198	-0.2528629	0	0	0	0
5.477287	0.1720198	-0.2528629	0	0	0	0
5.493854	0.1720198	-0.2528629	0	0	0	0
5.51042	0.1720198	-0.2528629	0	0	0	0
5.526987	0.1720198	-0.2528629	0	0	0	0
5.543553	0.1720198	-0.2528629	0	0	0	0
5.560121	0.1720198	-0.2528629	0	0	0	0
5.576687	0.1719687	-0.2528629	-0.003084254	0	-0.09308299	0
5.593503	0.1719687	-0.2528629	0	0	0.09239027	0
5.610196	0.1719687	-0.2528629	0	0	0	0
5.62952	0.1718154	-0.2527378	-0.007931832	0.006474399	-0.220228	0.1797622
5.646093	0.1718154	-0.2527378	0	0	0.2209622	-0.1803616
5.662719	0.1718154	-0.2527378	0	0	0	0
5.679414	0.1709723	-0.25205	-0.05050322	0.04120016	-1.51564	1.236448
5.695793	0.1709723	-0.25205	0	0	1.527003	-1.245718
5.712361	0.1709723	-0.25205	0	0	0	0
5.730462	0.1629886	-0.2455583	-0.4410571	0.3586287	-12.7218	10.34424
5.747033	0.1629886	-0.2455583	0	0	12.72092	-10.34353
5.763871	0.1629886	-0.2455583	0	0	0	0
5.780522	0.1506653	-0.2356952	-0.7400642	0.5923235	-22.09826	17.68674
5.796735	0.1506653	-0.2356952	0	0	22.51893	-18.02343
5.813867	0.1506653	-0.2356952	0	0	0	0
5.829869	0.1271524	-0.2169513	-1.469358	1.171336	-44.34595	35.35151
5.846438	0.1271524	-0.2169513	0	0	45.11203	-35.9622
5.863003	0.1271524	-0.2169513	0	0	0	0
5.88271	0.08312381	-0.1825753	-2.234244	1.744421	-61.59766	48.09334
5.899586	0.08312381	-0.1825753	0	0	61.07417	-47.68462
5.915845	0.08312381	-0.1825753	0	0	0	0
5.932412	0.04181771	-0.1510289	-2.493385	1.904252	-75.95773	58.01058
5.94898	0.04181771	-0.1510289	0	0	75.24941	-57.46962
5.965596	0.04181771	-0.1510289	0	0	0	0
5.982113	0.02028669	-0.1348415	-1.303517	0.980005	-39.34192	29.57789
5.99868	0.02028669	-0.1348415	0	0	39.39976	-29.62137
6.015322	0.02028669	-0.1348415	0	0	0	0
6.03181	0.008683993	-0.1261486	-0.7037024	0.527222	-21.24053	15.91365
6.048378	0.008683993	-0.1261486	0	0	21.28864	-15.94969
6.065142	0.008683993	-0.1261486	0	0	0	0
6.084258	-0.002921044	-0.1174862	-0.6070874	0.453155	-16.9199	12.62971
6.100831	-0.002921044	-0.1174862	0	0	17.01032	-12.6972
6.117398	-0.002921044	-0.1174862	0	0	0	0
6.137901	-0.01392015	-0.1093028	-0.5364748	0.3991361	-14.47202	10.76715
6.154471	-0.01392015	-0.1093028	0	0	14.4709	-10.76632
6.171035	-0.0135518	-0.1095765	0.0222382	-0.01652147	0.6711598	-0.4986261
6.187605	-0.0135518	-0.1095765	0	0	-0.6711598	0.4986261
6.204483	-0.0135518	-0.1095765	0	0	0	0
6.221115	-0.01349918	-0.1096156	0.003163917	-0.002350469	0.09441651	-0.07014189
6.237305	-0.01349918	-0.1096156	0	0	-0.09639724	0.07161337
6.254103	-0.01349918	-0.1096156	0	0	0	0
6.270435	-0.01326238	-0.1097915	0.01449943	-0.01077327	0.4376503	-0.32518
6.287006	-0.01326238	-0.1097915	0	0	-0.4406757	0.3274279
6.307133	-0.01326238	-0.1097915	0	0	0	0
6.323705	-0.01320976	-0.1098306	0.003175423	-0.002359059	0.08652657	-0.06428161
6.340271	-0.01320976	-0.1098306	0	0	-0.09582618	0.07119039
6.356837	-0.01320976	-0.1098306	0	0	0	0
6.373401	-0.01320976	-0.1098306	0	0	0	0
6.389971	-0.01320976	-0.1098306	0	0	0	0
6.406537	-0.01320976	-0.1098306	0	0	0	0
6.4231	-0.01323607	-0.1098111	-0.001588443	0.001180298	-0.0479462	0.03562658
6.439684	-0.01323607	-0.1098111	0	0	0.04792068	-0.03560762
6.456563	-0.01323607	-0.1098111	0	0	0	0
6.472804	-0.01323607	-0.1098111	0	0	0	0
6.489371	-0.01323607	-0.1098111	0	0	0	0
6.505937	-0.01323607	-0.1098111	0	0	0	0
6.522504	-0.01326238	-0.1097915	-0.001588168	0.001179644	-0.04793309	0.03560327
6.53907	-0.01326238	-0.1097915	0	0	0.04793309	-0.03560327
6.555637	-0.01326238	-0.1097915	0	0	0	0
6.572201	-0.01326238	-0.1097915	0	0	0	0
6.588771	-0.01326238	-0.1097915	0	0	0	0
6.605337	-0.01326238	-0.1097915	0	0	0	0
6.621903	-0.01323607	-0.1098111	0.001588214	-0.001179678	0.04793584	-0.03560532
6.638843	-0.01323607	-0.1098111	0	0	-0.04740168	0.03520855
6.655036	-0.01323607	-0.1098111	0	0	0	0
6.671603	-0.01323607	-0.1098111	0	0	0	0
6.688169	-0.01323607	-0.1098111	0	0	0	0
6.704736	-0.01323607	-0.1098111	0	0	0	0
6.721303	-0.01323607	-0.1098502	0	-0.002360256	0	-0.07123573
6.737869	-0.01323607	-0.1098502	0	0	0	0.07123573
6.755014	-0.01323607	-0.1098502	0	0	0	0
6.771367	-0.01323607	-0.1098502	0	0	0	0
6.787866	-0.01323607	-0.1098502	0	0	0	0
6.804909	-0.01323607	-0.1098502	0	0	0	0
6.8207	-0.01323607	-0.1098502	0	0	0	0
6.837271	-0.01323607	-0.1098502	0	0	0	0
6.854591	-0.01323607	-0.1098502	0	0	0	0
6.870403	-0.01323607	-0.1098502	0	0	0	0
6.88697	-0.01323607	-0.1098502	0	0	0	0
6.903536	-0.01323607	-0.1098502	0	0	0	0
6.920302	-0.01323607	-0.1098502	0	0	0	0
6.93667	-0.01323607	-0.1098502	0	0	0	0
6.953461	-0.01323607	-0.1098502	0	0	0	0
6.975832	-0.01323607	-0.1098502	0	0	0	0
6.992403	-0.01323607	-0.1098502	0	0	0	0
7.009476	-0.01323607	-0.1098502	0	0	0	0
7.025598	-0.01323607	-0.1098502	0	0	0	0
7.042103	-0.01323607	-0.1098502	0	0	0	0
7.058998	-0.01320976	-0.1098697	0.001557285	-0.001157146	0.04662456	-0.03464454
7.075236	-0.01320976	-0.1098697	0	0	-0.04700032	0.03492374
7.092272	-0.01320976	-0.1098697	0	0	0	0
7.108369	-0.01315714	-0.1099088	0.003269075	-0.002429054	0.09866513	-0.07331216
7.124937	-0.01315714	-0.1099088	0	0	-0.100081	0.07436419
7.141503	-0.01315714	-0.1099088	0	0	0	0
7.15807	-0.01302558	-0.1100066	0.00794101	-0.005900919	0.2396671	-0.1780952
7.174635	-0.01302558	-0.1100066	0	0	-0.2396774	0.1781029
7.191202	-0.01302558	-0.1100066	0	0	0	0
7.207769	-0.01289402	-0.1101044	0.007940782	-0.005900749	0.2396567	-0.1780875
7.224357	-0.01289402	-0.1101044	0	0	-0.2395051	0.1779748
7.241211	-0.01289402	-0.1101044	0	0	0	0
7.258119	-0.01286771	-0.110163	0.001556242	-0.003469431	0.04609518	-0.1027629
7.274035	-0.01286771	-0.110163	0	0	-0.04741167	0.1056979
7.290602	-0.01286771	-0.110163	0	0	0	0
7.307169	-0.01286771	-0.110163	0	0	0	0
7.323736	-0.01286771	-0.110163	0	0	0	0
7.340527	-0.01286771	-0.110163	0	0	0	0
7.356867	-0.01286771	-0.110163	0	0	0	0
7.373436	-0.01286771	-0.110163	0	0	0	0
7.390763	-0.01286771	-0.110163	0	0	0	0
7.406567	-0.01286771	-0.110163	0	0	0	0
7.423255	-0.01286771	-0.110163	0	0	0	0
7.439703	-0.01286771	-0.110163	0	0	0	0
7.45627	-0.01286771	-0.110163	0	0	0	0
7.472836	-0.01286771	-0.110163	0	0	0	0
7.489403	-0.01286771	-0.110163	0	0	0	0
7.505967	-0.01286771	-0.110163	0	0	0	0
7.522537	-0.01286771	-0.110163	0	0	0	0
7.539123	-0.01286771	-0.110163	0	0	0	0
7.55567	-0.01286771	-0.110163	0	0	0	0
7.57268	-0.01286771	-0.110163	0	0	0	0
7.588803	-0.01286771	-0.110163	0	0	0	0
7.605373	-0.0128414	-0.1101826	0.001587803	-0.001179822	0.04856578	-0.03608696
7.62194	-0.0128414	-0.1101826	0	0	-0.04791654	0.03560454
7.655434	-0.0128414	-0.1101826	0	0	0	0
7.672006	-0.01281509	-0.1102021	0.001587768	-0.001179754	0.03171349	-0.02356398
7.688571	-0.01281509	-0.1102021	0	0	-0.04791478	0.03560198
7.705139	-0.01281509	-0.1102021	0	0	0	0
7.721705	-0.01281509	-0.1102021	0	0	0	0
7.738485	-0.01281509	-0.1102021	0	0	0	0
7.754838	-0.01281509	-0.1102021	0	0	0	0
7.771402	-0.01281509	-0.1102021	0	0	0	0
7.787971	-0.01281509	-0.1102021	0	0	0	0
7.804537	-0.01281509	-0.1102021	0	0	0	0
7.821103	-0.01281509	-0.1102021	0	0	0	0
7.837671	-0.01281509	-0.1102021	0	0	0	0
7.854237	-0.01281509	-0.1102021	0	0	0	0
7.8708	-0.01278878	-0.1102217	0.001588499	-0.001180298	0.04794858	-0.03562709
7.887507	-0.01278878	-0.1102217	0	0	-0.04774517	0.03547595
7.903934	-0.01278878	-0.1102217	0	0	0	0
7.920649	-0.01278878	-0.1102217	0	0	0	0
7.937068	-0.01278878	-0.1102217	0	0	0	0
7.953634	-0.01278878	-0.1102217	0	0	0	0
7.970243	-0.01278878	-0.1102217	0	0	0	0
7.987144	-0.01278878	-0.1102217	0	0	0	0
8.003369	-0.01278878	-0.1102217	0	0	0	0
8.019901	-0.01278878	-0.1102217	0	0	0	0
8.036471	-0.01278878	-0.1102217	0	0	0	0
8.053038	-0.01278878	-0.1102217	0	0	0	0
8.069604	-0.01278878	-0.1102217	0	0	0	0
8.086278	-0.01278878	-0.1102217	0	0	0	0
8.102737	-0.01278878	-0.1102217	0	0	0	0
8.119304	-0.01278878	-0.1102217	0	0	0	0
8.13587	-0.01278878	-0.1102217	0	0	0	0
8.152436	-0.01278878	-0.1102217	0	0	0	0
8.169003	-0.01281509	-0.1102021	-0.00158827	0.001180128	-0.04793685	0.03561838
8.185569	-0.01281509	-0.1102021	0	0	0.04793685	-0.03561838
8.202147	-0.01281509	-0.1102021	0	0	0	0
8.218699	-0.01281509	-0.1102021	0	0	0	0
8.235269	-0.01281509	-0.1102021	0	0	0	0
8.251905	-0.01281509	-0.1102021	0	0	0	0
8.274932	-0.01278878	-0.1102217	0.001142673	-0.0008490371	0.02880932	-0.0214061
8.291502	-0.01278878	-0.1102217	0	0	-0.02885789	0.02144219
8.308095	-0.01278878	-0.1102217	0	0	0	0
8.324636	-0.01278878	-0.1102217	0	0	0	0
8.341234	-0.01278878	-0.1102217	0	0	0	0
8.357994	-0.01278878	-0.1102217	0	0	0	0
8.374335	-0.01278878	-0.1102217	0	0	0	0
8.390903	-0.01278878	-0.1102217	0	0	0	0
8.407466	-0.01278878	-0.1102217	0	0	0	0
8.424447	-0.01278878	-0.1102217	0	0	0	0
8.440701	-0.01278878	-0.1102217	0	0	0	0
8.457169	-0.01278878	-0.1102217	0	0	0	0
8.473989	-0.01278878	-0.1102217	0	0	0	0
8.490301	-0.01278878	-0.1102217	0	0	0	0
8.506868	-0.01278878	-0.1102217	0	0	0	0
8.523436	-0.01278878	-0.1102217	0	0	0	0
8.540002	-0.01278878	-0.1102217	0	0	0	0
8.556658	-0.01278878	-0.1102217	0	0	0	0
8.573135	-0.01278878	-0.1102217	0	0	0	0
8.590213	-0.01278878	-0.1102217	0	0	0	0
8.606266	-0.01278878	-0.1102217	0	0	0	0
8.622836	-0.01278878	-0.1102217	0	0	0	0
8.639402	-0.01278878	-0.1102217	0	0	0	0
8.656033	-0.01276246	-0.1102412	0.001582168	-0.001176042	0.04766076	-0.03542673
8.672535	-0.01276246	-0.1102412	0	0	-0.04775267	0.03549505
8.689101	-0.01276246	-0.1102412	0	0	0	0
8.705666	-0.01276246	-0.1102412	0	0	0	0
8.722235	-0.01276246	-0.1102412	0	0	0	0
8.7388	-0.01276246	-0.1102412	0	0	0	0
8.755368	-0.01276246	-0.1102412	0	0	0	0
8.771935	-0.01276246	-0.1102412	0	0	0	0
8.789244	-0.01276246	-0.1102412	0	0	0	0
8.855376	-0.01276246	-0.1102412	0	0	0	0
8.87195	-0.01276246	-0.1102412	0	0	0	0
8.891919	-0.01278878	-0.1102217	-0.001317629	0.0009794075	-0.03605707	0.02680159
8.908492	-0.01278878	-0.1102217	0	0	0.036058	-0.02680228
8.92506	-0.01278878	-0.1102217	0	0	0	0
8.944886	-0.01276246	-0.1102412	0.001327137	-0.0009864742	0.03646569	-0.02710532
8.961458	-0.01276246	-0.1102412	0	0	-0.03646187	0.02710248
8.978024	-0.01276246	-0.1102412	0	0	0	0
9.008429	-0.01278878	-0.1102217	-0.0008654008	0.0006432612	-0.0184244	0.01369504
9.024997	-0.01278878	-0.1102217	0	0	0.01842365	-0.01369449
9.041568	-0.01278878	-0.1102217	0	0	0	0
9.058134	-0.01278878	-0.1102217	0	0	0	0
9.07496	-0.01278878	-0.1102217	0	0	0	0
9.091268	-0.01278878	-0.1102217	0	0	0	0
9.107833	-0.01278878	-0.1102217	0	0	0	0
9.125066	-0.01278878	-0.1102217	0	0	0	0
9.141026	-0.01278878	-0.1102217	0	0	0	0
9.157596	-0.01278878	-0.1102217	0	0	0	0
9.174099	-0.01278878	-0.1102217	0	0	0	0
9.190677	-0.01278878	-0.1102217	0	0	0	0
9.207232	-0.01278878	-0.1102217	0	0	0	0
9.223798	-0.01278878	-0.1102217	0	0	0	0
9.240365	-0.01278878	-0.1102217	0	0	0	0
9.257248	-0.01278878	-0.1102217	0	0	0	0
9.273722	-0.01278878	-0.1102217	0	0	0	0
9.290722	-0.01278878	-0.1102217	0	0	0	0
9.30663	-0.01278878	-0.1102217	0	0	0	0
9.323387	-0.01278878	-0.1102217	0	0	0	0
9.339761	-0.01278878	-0.1102217	0	0	0	0
9.35659	-0.01278878	-0.1102217	0	0	0	0
9.372897	-0.01278878	-0.1102217	0	0	0	0
9.389462	-0.01278878	-0.1102217	0	0	0	0
9.406099	-0.01278878	-0.1102217	0	0	0	0
9.422597	-0.01278878	-0.1102217	0	0	0	0
9.439912	-0.01278878	-0.1102217	0	0	0	0
9.456482	-0.01278878	-0.1102217	0	0	0	0
9.473298	-0.01278878	-0.1102217	0	0	0	0
9.489789	-0.01278878	-0.1102217	0	0	0	0
9.506179	-0.01278878	-0.1102217	0	0	0	0
9.522749	-0.01278878	-0.1102217	0	0	0	0
9.539713	-0.01278878	-0.1102217	0	0	0	0
9.555882	-0.01278878	-0.1102217	0	0	0	0
9.572528	-0.01278878	-0.1102217	0	0	0	0
9.589042	-0.01278878	-0.1102217	0	0	0	0
9.605582	-0.01278878	-0.1102217	0	0	0	0
9.622149	-0.01278878	-0.1102217	0	0	0	0
9.638715	-0.01278878	-0.1102217	0	0	0	0
9.655281	-0.01278878	-0.1102217	0	0	0	0
9.671847	-0.01278878	-0.1102217	0	0	0	0
9.697603	-0.01276246	-0.1102412	0.001021581	-0.0007593518	0.02413821	-0.01794218
9.714612	-0.01276246	-0.1102412	0	0	-0.02388844	0.01775652
9.730739	-0.01276246	-0.1102412	0	0	0	0
9.747425	-0.01276246	-0.1102412	0	0	0	0
9.763874	-0.01276246	-0.1102412	0	0	0	0
9.78044	-0.01276246	-0.1102412	0	0	0	0
9.797007	-0.01276246	-0.1102412	0	0	0	0
9.813577	-0.01276246	-0.1102412	0	0	0	0
9.830139	-0.01276246	-0.1102412	0	0	0	0
9.846706	-0.01276246	-0.1102412	0	0	0	0
9.863277	-0.01276246	-0.1102412	0	0	0	0
9.879844	-0.01276246	-0.1102412	0	0	0	0
9.89641	-0.01276246	-0.1102412	0	0	0	0
9.912976	-0.01276246	-0.1102412	0	0	0	0
9.929537	-0.01276246	-0.1102412	0	0	0	0
9.946108	-0.01276246	-0.1102412	0	0	0	0
9.962676	-0.01276246	-0.1102412	0	0	0	0
9.979242	-0.01278878	-0.1102217	-0.00158827	0.001180578	-0.04793409	0.0356299
9.995929	-0.01278878	-0.1102217	0	0	0.04776363	-0.03550319
10.01241	-0.01278878	-0.1102217	0	0	0	0
10.02894	-0.01278878	-0.1102217	0	0	0	0
10.04561	-0.01278878	-0.1102217	0	0	0	0
10.06207	-0.01278878	-0.1102217	0	0	0	0
10.07864	-0.01278878	-0.1102217	0	0	0	0
10.09521	-0.01278878	-0.1102217	0	0	0	0
10.11186	-0.01278878	-0.1102217	0	0	0	0
10.1284	-0.01278878	-0.1102217	0	0	0	0
10.14494	-0.01278878	-0.1102217	0	0	0	0
10.16148	-0.01278878	-0.1102217	0	0	0	0
10.17804	-0.01278878	-0.1102217	0	0	0	0
10.19461	-0.01278878	-0.1102217	0	0	0	0
10.21117	-0.01278878	-0.1102217	0	0	0	0
10.22774	-0.01278878	-0.1102217	0	0	0	0
10.24431	-0.01278878	-0.1102217	0	0	0	0
10.26087	-0.01278878	-0.1102217	0	0	0	0
10.27744	-0.01276246	-0.1102412	0.00158827	-0.001180578	0.04793685	-0.03563195
10.29401	-0.01276246	-0.1102412	0	0	-0.04793685	0.03563195
10.31111	-0.01276246	-0.1102412	0	0	0	0
10.32714	-0.01278878	-0.1102217	-0.001641666	0.001220267	-0.04954701	0.0368288
10.34371	-0.01278878	-0.1102217	0	0	0.05036755	-0.03743872
10.36109	-0.01278878	-0.1102217	0	0	0	0
10.37819	-0.01278878	-0.1102217	0	0	0	0
10.39422	-0.01278878	-0.1102217	0	0	0	0
10.41122	-0.01278878	-0.1102217	0	0	0	0
10.42735	-0.01278878	-0.1102217	0	0	0	0
10.44392	-0.01278878	-0.1102217	0	0	0	0
10.46049	-0.01278878	-0.1102217	0	0	0	0
10.4781	-0.01278878	-0.1102217	0	0	0	0
10.49467	-0.01278878	-0.1102217	0	0	0	0
10.51124	-0.01278878	-0.1102217	0	0	0	0
10.52905	-0.01278878	-0.1102217	0	0	0	0
10.54562	-0.01278878	-0.1102217	0	0	0	0
10.56219	-0.01278878	-0.1102217	0	0	0	0
10.57875	-0.01278878	-0.1102217	0	0	0	0
10.59561	-0.01278878	-0.1102217	0	0	0	0
10.61189	-0.01278878	-0.1102217	0	0	0	0
10.62877	-0.01276246	-0.1102412	0.001559277	-0.001159026	0.0470347	-0.03496137
10.64502	-0.01276246	-0.1102412	0	0	-0.04706991	0.03498754
10.66159	-0.01276246	-0.1102412	0	0	0	0
10.67815	-0.01278878	-0.1102217	-0.001588911	0.001181053	-0.04795618	0.03564632
10.69476	-0.01278878	-0.1102217	0	0	0.04790929	-0.03561147
10.71129	-0.01278878	-0.1102217	0	0	0	0
10.73374	-0.01278878	-0.1102217	0	0	0	0
10.75031	-0.01278878	-0.1102217	0	0	0	0
10.76698	-0.01278878	-0.1102217	0	0	0	0
10.78344	-0.01278878	-0.1102217	0	0	0	0
10.80023	-0.01278878	-0.1102217	0	0	0	0
10.81657	-0.01278878	-0.1102217	0	0	0	0
10.83314	-0.01278878	-0.1102217	0	0	0	0
10.84971	-0.01278878	-0.1102217	0	0	0	0
10.86647	-0.01278878	-0.1102217	0	0	0	0
10.88284	-0.01278878	-0.1102217	0	0	0	0
10.89978	-0.01278878	-0.1102217	0	0	0	0
10.91599	-0.01276246	-0.1102412	0.001623792	-0.001206981	0.0489878	-0.03641313
10.93254	-0.01276246	-0.1102412	0	0	-0.04957112	0.03684672
10.94911	-0.01276246	-0.1102412	0	0	0	0
10.96567	-0.01276246	-0.1102412	0	0	0	0
10.98224	-0.01276246	-0.1102412	0	0	0	0
10.99881	-0.01276246	-0.1102412	0	0	0	0
11.01557	-0.01276246	-0.1102412	0	0	0	0
11.03259	-0.01276246	-0.1102412	0	0	0	0
11.04855	-0.01276246	-0.1102412	0	0	0	0
11.06539	-0.01276246	-0.1102412	0	0	0	0
11.08164	-0.01276246	-0.1102412	0	0	0	0
11.09832	-0.01276246	-0.1102412	0	0	0	0
11.11477	-0.01276246	-0.1102412	0	0	0	0
11.13134	-0.01276246	-0.1102412	0	0	0	0
11.1482	-0.01276246	-0.1102412	0	0	0	0
11.16447	-0.01276246	-0.1102412	0	0	0	0
11.18104	-0.01276246	-0.1102412	0	0	0	0
11.19799	-0.01276246	-0.1102412	0	0	0	0
11.21417	-0.01276246	-0.1102412	0	0	0	0
11.23079	-0.01276246	-0.1102412	0	0	0	0
11.24731	-0.01276246	-0.1102412	0	0	0	0
11.26387	-0.01276246	-0.1102412	0	0	0	0
11.28044	-0.01276246	-0.1102412	0	0	0	0
11.29701	-0.01276246	-0.1102412	0	0	0	0
11.31357	-0.01276246	-0.1102412	0	0	0	0
11.33014	-0.01276246	-0.1102412	0	0	0	0
11.34671	-0.01276246	-0.1102412	0	0	0	0
11.36327	-0.01276246	-0.1102412	0	0	0	0
11.37984	-0.01276246	-0.1102412	0	0	0	0
11.39641	-0.01276246	-0.1102412	0	0	0	0
11.41297	-0.01276246	-0.1102412	0	0	0	0
11.42954	-0.01276246	-0.1102412	0	0	0	0
11.44611	-0.01276246	-0.1102412	0	0	0	0
11.46267	-0.01278878	-0.1102217	-0.001588362	0.001180646	-0.04793547	0.03563093
11.47924	-0.01278878	-0.1102217	0	0	0.04793824	-0.03563298
11.49587	-0.01278878	-0.1102217	0	0	0	0
11.51237	-0.01278878	-0.1102217	0	0	0	0
11.52894	-0.01278878	-0.1102217	0	0	0	0
11.54551	-0.01278878	-0.1102217	0	0	0	0
11.56208	-0.01278878	-0.1102217	0	0	0	0
11.57864	-0.01278878	-0.1102217	0	0	0	0
11.59544	-0.01278878	-0.1102217	0	0	0	0
11.61181	-0.01278878	-0.1102217	0	0	0	0
11.62834	-0.01278878	-0.1102217	0	0	0	0
11.64555	-0.01278878	-0.1102217	0	0	0	0
11.66168	-0.01276246	-0.1102412	0.001631859	-0.001212978	0.04895512	-0.03638884
11.67834	-0.01276246	-0.1102412	0	0	-0.04977104	0.03699532
11.69486	-0.01276246	-0.1102412	0	0	0	0
11.71118	-0.01276246	-0.1102412	0	0	0	0
11.72774	-0.01276246	-0.1102412	0	0	0	0
11.74472	-0.01276246	-0.1102412	0	0	0	0
11.76088	-0.01278878	-0.1102217	-0.001628488	0.001210472	-0.04914786	0.03653211
11.77744	-0.01278878	-0.1102217	0	0	0.04976375	-0.0369899
11.79401	-0.01278878	-0.1102217	0	0	0	0
11.81057	-0.01278878	-0.1102217	0	0	0	0
11.82718	-0.01278878	-0.1102217	0	0	0	0
11.84371	-0.01278878	-0.1102217	0	0	0	0
11.86059	-0.01278878	-0.1102217	0	0	0	0
11.87684	-0.01278878	-0.1102217	0	0	0	0
11.89367	-0.01278878	-0.1102217	0	0	0	0
11.90997	-0.01276246	-0.1102412	0.001614574	-0.00120013	0.04873496	-0.03622519
11.92654	-0.01276246	-0.1102412	0	0	-0.04912526	0.03651531
11.98069	-0.01276246	-0.1102412	0	0	0	0
11.99813	-0.01276246	-0.1102412	0	0	0	0
12.01485	-0.01276246	-0.1102412	0	0	0	0
12.03127	-0.01276246	-0.1102412	0	0	0	0
12.04784	-0.01273615	-0.1102608	0.001588214	-0.001180128	0.04814301	-0.03577283
12.06441	-0.01273615	-0.1102608	0	0	-0.04793378	0.03561736
12.08117	-0.01273615	-0.1102608	0	0	0	0
12.09762	-0.01252566	-0.1104954	0.0127982	-0.0142669	0.3853742	-0.4295989
12.1141	-0.01252566	-0.1104954	0	0	-0.3885767	0.433169
12.13069	-0.01252566	-0.1104954	0	0	0	0
12.14724	-0.01199942	-0.1129214	0.03180036	-0.1466014	0.9597642	-4.424568
12.1642	-0.01199942	-0.1129214	0	0	-0.9488671	4.374331
12.18037	-0.01199942	-0.1129214	0	0	0	0
12.19694	-0.03372405	-0.164747	-1.311301	-3.128196	-40.05823	-95.56158
12.2135	-0.03372405	-0.164747	0	0	39.57628	94.41187
12.23007	-0.03372405	-0.164747	0	0	0	0
12.24685	-0.06008548	-0.2461193	-1.571012	-4.849391	-47.11222	-145.4257
12.26321	-0.06008548	-0.2461193	0	0	47.41325	146.3549
12.27984	-0.06008548	-0.2461193	0	0	0	0
12.29634	-0.05302918	-0.3136895	0.4278401	-4.096941	12.91373	-123.6602
12.31291	-0.05302918	-0.3136895	0	0	-12.94055	123.917
12.32947	-0.05302918	-0.3136895	0	0	0	0
12.34604	-0.01268353	-0.3701228	2.435829	-3.40711	73.52194	-102.8386
12.36261	-0.01268353	-0.3701228	0	0	-73.50713	102.8179
12.37951	-0.01268353	-0.3701228	0	0	0	0
12.39992	0.03403948	-0.4102287	2.289482	-1.965233	61.36905	-52.67764
12.41665	0.03403948	-0.4102287	0	0	-61.63532	52.9062
12.43305	0.04194906	-0.4171223	0.4823938	-0.4204327	14.55867	-12.68869
12.44962	0.04194906	-0.4171223	0	0	-14.6328	12.75329
12.4665	0.04194906	-0.4171223	0	0	0	0
12.48312	0.05633507	-0.4297546	0.8657495	-0.7602104	25.84422	-22.69369
12.4999	0.05633507	-0.4297546	0	0	-25.92171	22.76172
12.51589	0.05633507	-0.4297546	0	0	0	0
12.53245	0.06053123	-0.4334632	0.2532807	-0.2238534	7.780631	-6.876642
12.54902	0.06053123	-0.4334632	0	0	-7.644687	6.756492
12.56559	0.06053123	-0.4334632	0	0	0	0
12.5824	0.06016415	-0.4331848	-0.0218364	0.0165655	-0.6542035	0.4962909
12.59872	0.06016415	-0.4331848	0	0	0.6590427	-0.4999621
12.61529	0.06016415	-0.4331848	0	0	0	0
12.6323	0.05979705	-0.43286	-0.02157799	0.01909265	-0.642606	0.5685911
12.64864	0.05979705	-0.43286	0	0	0.6470162	-0.5724933
12.66499	0.05979705	-0.43286	0	0	0	0
12.68164	0.05961349	-0.4326976	-0.011023	0.009750301	-0.3340112	0.2954467
12.69812	0.05961349	-0.4326976	0	0	0.332694	-0.2942816
12.71528	0.05961349	-0.4326976	0	0	0	0
12.73125	0.05953483	-0.4326744	-0.004924379	0.001453271	-0.1486223	0.04386108
12.74803	0.05953483	-0.4326744	0	0	0.1503315	-0.04436548
12.76461	0.05953483	-0.4326744	0	0	0	0
12.78095	0.05945616	-0.4326048	-0.004812338	0.004256972	-0.1461876	0.1293168
12.79791	0.05945616	-0.4326048	0	0	0.1445088	-0.1278318
12.81426	0.05945616	-0.4326048	0	0	0	0
12.83303	0.05942993	-0.4325816	-0.00139679	0.001234889	-0.03976435	0.0351553
12.84985	0.05942993	-0.4325816	0	0	0.03924966	-0.03470027
12.86617	0.05942993	-0.4325816	0	0	0	0
12.88318	0.05942993	-0.4325816	0	0	0	0
12.94353	0.05942993	-0.4325816	0	0	0	0
12.96015	0.05942993	-0.4325816	0	0	0	0
12.98038	0.05908903	-0.4322801	-0.01685122	0.01490242	-0.4572925	0.4044078
12.99728	0.05908903	-0.4322801	0	0	0.4539326	-0.4014365
13.01574	0.05880056	-0.432025	-0.01562076	0.01381268	-0.4417714	0.3906369
13.0324	0.05880056	-0.432025	0	0	0.4446979	-0.3932247
13.04906	0.05880056	-0.432025	0	0	0	0
13.06828	0.0558891	-0.4294537	-0.1514778	0.1337824	-4.222003	3.728795
13.08485	0.0558891	-0.4294537	0	0	4.23224	-3.737836
13.10142	0.0558891	-0.4294537	0	0	0	0
13.12765	0.0546298	-0.4283431	-0.04801384	0.04234238	-1.12197	0.9894413
13.14439	0.0546298	-0.4283431	0	0	1.117363	-0.9853788
13.16079	0.05460356	-0.42832	-0.001600077	0.001410376	-0.04828207	0.04255787
13.17735	0.05460356	-0.42832	0	0	0.04854049	-0.04278565
13.19393	0.05460356	-0.42832	0	0	0	0
13.21049	0.05069337	-0.4249242	-0.2360873	0.2050315	-7.12472	6.187505
13.22713	0.05069337	-0.4249242	0	0	7.109578	-6.174356
13.24376	0.05069337	-0.4249242	0	0	0	0
13.26019	0.0321731	-0.4087442	-1.126968	0.9845636	-34.0934	29.78534
13.27675	0.0321731	-0.4087442	0	0	34.1545	-29.83872
13.29394	0.0321731	-0.4087442	0	0	0	0
13.31078	0.0245477	-0.4021383	-0.4528155	0.3922744	-13.306	11.527
13.32735	0.0245477	-0.4021383	0	0	13.55249	-11.74053
13.34392	0.0245477	-0.4021383	0	0	0	0
13.36048	0.01776129	-0.396285	-0.4098172	0.3534666	-12.37009	10.66918
13.37715	0.01776129	-0.396285	0	0	12.33352	-10.63764
13.39362	0.01776129	-0.396285	0	0	0	0
13.41019	0.003052622	-0.3836778	-0.8880214	0.7611484	-26.88256	23.0418
13.42675	0.003052622	-0.3836778	0	0	26.8044	-22.97481
13.44335	0.003052622	-0.3836778	0	0	0	0
13.45989	-0.01031542	-0.3723072	-0.8082461	0.6874802	-24.39292	20.74819
13.47679	-0.01031542	-0.3723072	0	0	24.16754	-20.5565
13.49302	-0.01031542	-0.3723072	0	0	0	0
13.50958	-0.0102628	-0.3723964	0.003177258	-0.005387062	0.09688816	-0.1642745
13.52615	-0.0102628	-0.3723964	0	0	-0.09589536	0.1625912
13.54294	-0.0102628	-0.3723964	0	0	0	0
13.55929	-0.01034174	-0.3723741	-0.004828128	0.001363451	-0.1457174	0.04115021
13.57585	-0.01034174	-0.3723741	0	0	0.14668	-0.04142204
13.59242	-0.01034174	-0.3723741	0	0	0	0
13.60898	-0.01034174	-0.3723741	0	0	0	0
13.62571	-0.01034174	-0.3723741	0	0	0	0
13.64212	-0.01034174	-0.3723741	0	0	0	0
13.65869	-0.01031542	-0.3723964	0.001588418	-0.001345711	0.04817009	-0.04080979
13.67525	-0.01031542	-0.3723964	0	0	-0.04794131	0.04061598
13.69182	-0.01031542	-0.3723964	0	0	0	0
13.70839	-0.01031542	-0.3723964	0	0	0	0
13.72495	-0.01031542	-0.3723964	0	0	0	0
13.74152	-0.01031542	-0.3723964	0	0	0	0
13.75808	-0.01031542	-0.3723964	0	0	0	0
13.77465	-0.01031542	-0.3723964	0	0	0	0
13.79448	-0.01031542	-0.3723964	0	0	0	0
13.81104	-0.01031542	-0.3723964	0	0	0	0
13.82766	-0.01031542	-0.3723964	0	0	0	0
13.84431	-0.01031542	-0.3723964	0	0	0	0
13.86074	-0.01031542	-0.3723964	0	0	0	0
13.87732	-0.01031542	-0.3723964	0	0	0	0
13.89388	-0.01031542	-0.3723964	0	0	0	0
13.91045	-0.01031542	-0.3723964	0	0	0	0
13.92702	-0.01031542	-0.3723964	0	0	0	0
13.94358	-0.01031542	-0.3723964	0	0	0	0
13.96015	-0.01028911	-0.3724187	0.0015882	-0.001345479	0.04793473	-0.04060896
13.97672	-0.01028911	-0.3724187	0	0	-0.04792921	0.04060429
13.99328	-0.01028911	-0.3724187	0	0	0	0
14.00984	-0.01031542	-0.3723964	-0.001589206	0.001346331	-0.04797477	0.04064288
14.02641	-0.01031542	-0.3723964	0	0	0.04797338	-0.04064171
14.04298	-0.01031542	-0.3723964	0	0	0	0
14.05954	-0.01028911	-0.3724187	0.001588383	-0.001345634	0.04793886	-0.04061247
14.07611	-0.01028911	-0.3724187	0	0	-0.04794025	0.04061364
14.09268	-0.01028911	-0.3724187	0	0	0	0
14.10924	-0.01031542	-0.3723964	-0.001588383	0.001345634	-0.04794025	0.04061364
14.12581	-0.01031542	-0.3723964	0	0	0.04793886	-0.04061247
14.14274	-0.01031542	-0.3723964	0	0	0	0
14.15894	-0.01049961	-0.3722402	-0.01136438	0.009633348	-0.3429975	0.2907518
14.17551	-0.01049961	-0.3722402	0	0	0.3467503	-0.2939329
14.19208	-0.01049961	-0.3722402	0	0	0	0
14.20864	-0.02628342	-0.3588248	-0.9527673	0.8098069	-28.75623	24.44143
14.22521	-0.02628342	-0.3588248	0	0	28.7554	-24.44073
14.24178	-0.02628342	-0.3588248	0	0	0	0
14.25834	-0.06178967	-0.329052	-2.143655	1.797503	-64.70495	54.25656
14.27535	-0.06178967	-0.329052	0	0	63.85572	-53.54446
14.29147	-0.06178967	-0.329052	0	0	0	0
14.30805	-0.08422136	-0.3102245	-1.353278	1.135842	-41.37915	34.73059
14.32461	-0.08422136	-0.3102245	0	0	40.8432	-34.28075
14.34133	-0.08422136	-0.3102245	0	0	0	0
14.35785	-0.1024818	-0.2948103	-1.105513	0.9331968	-33.25915	28.07505
14.37431	-0.1024818	-0.2948103	0	0	33.52074	-28.29587
14.39088	-0.1024818	-0.2948103	0	0	0	0
14.40744	-0.1364624	-0.2667565	-2.051542	1.693718	-61.92456	51.12388
14.42401	-0.1364624	-0.2667565	0	0	61.91565	-51.11652
14.44913	-0.1364624	-0.2667565	0	0	0	0
14.46595	-0.1681088	-0.2409937	-1.881376	1.531595	-44.85393	36.51481
14.48227	-0.1681088	-0.2409937	0	0	56.7784	-46.22231
14.4991	-0.1681088	-0.2409937	0	0	0	0
14.5154	-0.1757469	-0.234476	-0.4684502	0.3997348	-14.13908	12.06506
14.532	-0.1757469	-0.234476	0	0	14.23826	-12.14969
14.54854	-0.1757469	-0.234476	0	0	0	0
14.5651	-0.1752111	-0.2340423	0.03235129	0.02619072	0.9772639	0.7911663
14.58167	-0.1752111	-0.2340423	0	0	-0.9763919	-0.7904603
14.59824	-0.1752111	-0.2340423	0	0	0	0
14.6148	-0.1747007	-0.2336292	0.03080568	0.02492967	0.9297975	0.7524437
14.63158	-0.1747007	-0.2336292	0	0	-0.9238673	-0.7476447
14.6483	-0.1747007	-0.2336292	0	0	0	0
14.6645	-0.1739605	-0.2330305	0.04569388	0.03696059	1.387912	1.122646
14.68107	-0.1739605	-0.2330305	0	0	-1.394578	-1.128037
14.69783	-0.1739605	-0.2330305	0	0	0	0
14.7143	-0.1733223	-0.232432	0.03875083	0.03633982	1.166079	1.093528
14.73077	-0.1733223	-0.232432	0	0	-1.17641	-1.103215
14.74744	-0.1733223	-0.232432	0	0	0	0
14.76391	-0.1688249	-0.2195131	0.2729997	0.7842106	8.238199	23.6648
14.78047	-0.1688249	-0.2195131	0	0	-8.263884	-23.73858
14.79704	-0.1688249	-0.2195131	0	0	0	0
14.8136	-0.1552151	-0.2008325	0.8216336	1.127755	24.79909	34.03867
14.83017	-0.1552151	-0.2008325	0	0	-24.79766	-34.03671
14.84674	-0.1552151	-0.2008325	0	0	0	0
14.8633	-0.1420113	-0.1904302	0.7971215	0.6279911	24.05994	18.95499
14.87987	-0.1420113	-0.1904302	0	0	-24.05787	-18.95336
14.89646	-0.1420113	-0.1904302	0	0	0	0
14.913	-0.141676	-0.1900459	0.02025947	0.02322275	0.6114495	0.7008842
14.92957	-0.141676	-0.1900459	0	0	-0.611784	-0.7012677
14.94629	-0.141676	-0.1900459	0	0	0	0
14.96286	-0.1370822	-0.1864891	0.2772817	0.2146872	8.330495	6.449943
14.97927	-0.1370822	-0.1864891	0	0	-8.406851	-6.509061
14.99661	-0.1370822	-0.1864891	0	0	0	0
15.01245	-0.1291456	-0.1802987	0.5008802	0.3906805	15.09574	11.77449
15.02897	-0.1291456	-0.1802987	0	0	-15.47606	-12.07114
15.04576	-0.1291456	-0.1802987	0	0	0	0
15.06211	-0.1282138	-0.1795739	0.05699302	0.04433205	1.720053	1.337944
15.07893	-0.1282138	-0.1795739	0	0	-1.718223	-1.336521
15.0954	-0.1282138	-0.1795739	0	0	0	0
15.12019	-0.1250286	-0.1770993	0.1284838	0.09981908	3.113519	2.418892
15.13676	-0.1250286	-0.1770993	0	0	-3.10634	-2.413315
15.15411	-0.1181835	-0.1718373	0.3946348	0.3033645	11.63549	8.944459
15.1699	-0.1181835	-0.1718373	0	0	-11.9101	-9.15556
15.18646	-0.1181835	-0.1718373	0	0	0	0
15.20335	-0.1062302	-0.1626681	0.7080151	0.5431089	21.1675	16.2373
15.2196	-0.1062302	-0.1626681	0	0	-21.36856	-16.39153
15.23617	-0.1062302	-0.1626681	0	0	0	0
15.25273	-0.1062042	-0.1626481	0.001570777	0.001206421	0.04741159	0.03641406
15.2693	-0.1062042	-0.1626481	0	0	-0.04740886	-0.03641196
15.28586	-0.1062042	-0.1626481	0	0	0	0
15.30243	-0.1019349	-0.1593338	0.2576902	0.2000516	7.777329	6.037744
15.319	-0.1019349	-0.1593338	0	0	-7.777553	-6.037918
15.33583	-0.1019349	-0.1593338	0	0	0	0
15.35213	-0.09163737	-0.1515458	0.6317822	0.4778109	19.06942	14.42202
15.3687	-0.09163737	-0.1515458	0	0	-19.22158	-14.5371
15.38557	-0.09163737	-0.1515458	0	0	0	0
15.40183	-0.09161127	-0.1515259	0.001605126	0.001223783	0.0484442	0.0369349
15.4184	-0.09161127	-0.1515259	0	0	-0.04890449	-0.03728583
15.43496	-0.09161127	-0.1515259	0	0	0	0
15.45153	-0.09158517	-0.1515061	0.001575453	0.001199916	0.04754862	0.03621459
15.46816	-0.09158517	-0.1515061	0	0	-0.04745438	-0.03614281
15.48483	-0.09158517	-0.1515061	0	0	0	0
15.50191	-0.09158517	-0.1515061	0	0	0	0
15.51873	-0.09158517	-0.1515061	0	0	0	0
15.5354	-0.09158517	-0.1515061	0	0	0	0
15.55161	-0.09166346	-0.1514464	-0.004829328	0.003679444	-0.1468611	0.1118928
15.56818	-0.09166346	-0.1514464	0	0	0.1473182	-0.1122411
15.58475	-0.09166346	-0.1514464	0	0	0	0
15.60131	-0.08607626	-0.1444575	0.3373415	0.4219722	10.18245	12.73698
15.61788	-0.08607626	-0.1444575	0	0	-10.18128	-12.73551
15.63549	-0.08607626	-0.1444575	0	0	0	0
15.65113	-0.07082869	-0.1309545	0.9752491	0.8636658	29.33598	25.9795
15.66758	-0.07082869	-0.1309545	0	0	-30.39179	-26.91451
15.68417	-0.07082869	-0.1309545	0	0	0	0
15.70072	-0.04882957	-0.1145074	1.329247	0.9937811	40.1179	29.99324
15.71728	-0.04882957	-0.1145074	0	0	-40.13869	-30.00879
15.73385	-0.04882957	-0.1145074	0	0	0	0
15.75041	-0.03737732	-0.1060212	0.6913788	0.5123131	20.86826	15.46342
15.76698	-0.03737732	-0.1060212	0	0	-20.86646	-15.46209
15.78367	-0.03737732	-0.1060212	0	0	0	0
15.80011	-0.03735104	-0.1060407	0.001598485	-0.001187873	0.04824793	-0.03585422
15.81668	-0.03735104	-0.1060407	0	0	-0.04842636	0.03598681
15.83325	-0.03735104	-0.1060407	0	0	0	0
15.84982	-0.03735104	-0.1060407	0	0	0	0
15.86638	-0.03735104	-0.1060407	0	0	0	0
15.88295	-0.03735104	-0.1060407	0	0	0	0
15.89952	-0.03735104	-0.1060407	0	0	0	0
15.91608	-0.03735104	-0.1060407	0	0	0	0
15.93265	-0.03735104	-0.1060407	0	0	0	0
15.94922	-0.03737732	-0.1060212	-0.001586246	0.001178779	-0.04787577	0.03557765
15.96578	-0.03737732	-0.1060212	0	0	0.04787577	-0.03557765
15.98258	-0.03737732	-0.1060212	0	0	0	0
15.99917	-0.03737732	-0.1059822	0	0.002353677	0	0.07049239
16.01548	-0.03737732	-0.1059822	0	0	0	-0.07154479
16.03205	-0.03737732	-0.1059822	0	0	0	0
16.04869	-0.03285659	-0.1025488	0.2716832	0.2063363	8.181519	6.213651
16.06518	-0.03285659	-0.1025488	0	0	-8.199887	-6.227602
16.08175	-0.03285659	-0.1025488	0	0	0	0
16.09831	-0.01002598	-0.08564253	1.378376	1.020699	41.60665	30.81009
16.11488	-0.01002598	-0.08564253	0	0	-41.59946	-30.80477
16.13145	-0.01002598	-0.08564253	0	0	0	0
16.14801	0.006210446	-0.07375529	0.9802583	0.7176808	29.58766	21.66214
16.16458	0.006210446	-0.07375529	0	0	-29.58596	-21.66089
16.18115	0.006210446	-0.07375529	0	0	0	0
16.19771	0.006315705	-0.07379386	0.006354178	-0.002328458	0.1917805	-0.07027704
16.21428	0.006315705	-0.07379386	0	0	-0.1917805	0.07027704
16.23087	0.006315705	-0.07379386	0	0	0	0
16.24742	0.00639465	-0.07385173	0.004770041	-0.003496582	0.1439601	-0.1055271
16.26398	0.00639465	-0.07385173	0	0	-0.1440348	0.1055818
16.28071	0.00639465	-0.07385173	0	0	0	0
16.29712	0.006420964	-0.07390959	0.001604231	-0.003527435	0.04841857	-0.1064643
16.31368	0.006420964	-0.07390959	0	0	-0.04865666	0.1069878
16.33025	0.006420964	-0.07390959	0	0	0	0
16.34682	0.006447279	-0.07400603	0.00158853	-0.005821819	0.0479447	-0.175713
16.36414	0.006447279	-0.07400603	0	0	-0.04686817	0.1717676
16.37995	0.006447279	-0.07400603	0	0	0	0
16.39652	0.006447279	-0.07404461	0	-0.002328639	0	-0.07193058
16.42079	0.006447279	-0.07404461	0	0	0	0.05701572
16.43759	0.006447279	-0.07404461	0	0	0	0
16.45393	0.00639465	-0.07412177	-0.003220821	-0.004721971	-0.09720457	-0.1425094
16.4705	0.00639465	-0.07412177	0	0	0.09786935	0.143484
16.48706	0.00639465	-0.07412177	0	0	0	0
16.50363	0.006105187	-0.07433396	-0.01747199	-0.01280797	-0.5273057	-0.3865452
16.5202	0.006105187	-0.07433396	0	0	0.5273361	0.3865675
16.53676	0.006105187	-0.07433396	0	0	0	0
16.55333	0.005394685	-0.07497064	-0.04288603	-0.0384302	-1.294303	-1.159826
16.5699	0.005394685	-0.07497064	0	0	1.294303	1.159826
16.58646	0.005394685	-0.07497064	0	0	0	0
16.60303	0.003868402	-0.07632166	-0.09214783	-0.08156659	-2.781347	-2.461968
16.61962	0.003868402	-0.07632166	0	0	2.779587	2.46041
16.63616	0.003868402	-0.07632166	0	0	0	0
16.65273	0.002052629	-0.07780855	-0.1096003	-0.08974886	-3.309648	-2.710186
16.66939	0.002052629	-0.07780855	0	0	3.29844	2.701007
16.68587	0.002052629	-0.07780855	0	0	0	0
16.70243	0.002394732	-0.07825284	0.02065417	-0.02682376	0.6251796	-0.8119262
16.719	0.002394732	-0.07825284	0	0	-0.6234159	0.8096358
16.73556	0.002394732	-0.07825284	0	0	0	0
16.75213	0.004631546	-0.08016605	0.1350143	-0.1154813	4.074741	-3.485232
16.7687	0.004631546	-0.08016605	0	0	-4.074741	3.485232
16.78554	0.004631546	-0.08016605	0	0	0	0
16.80183	0.006131502	-0.08177108	0.09209616	-0.09854784	2.779788	-2.974522
16.81856	0.006131502	-0.08177108	0	0	-2.78894	2.984315
16.83496	0.006131502	-0.08177108	0	0	0	0
16.85153	0.002421048	-0.0852745	-0.224015	-0.2115155	-6.795602	-6.416423
16.8681	0.002421048	-0.0852745	0	0	6.761177	6.383918
16.88466	0.002421048	-0.0852745	0	0	0	0
16.90123	-0.01636696	-0.09910047	-1.134177	-0.8346332	-34.23149	-25.19073
16.9178	-0.01636696	-0.09910047	0	0	34.23149	25.19073
16.93436	-0.01636696	-0.09910047	0	0	0	0
16.95093	-0.02202275	-0.1033287	-0.3414631	-0.255276	-10.30716	-7.705575
16.96749	-0.02202275	-0.1033287	0	0	10.30597	7.704688
17.02943	-0.02202275	-0.1033287	0	0	0	0
17.04609	-0.02202275	-0.1033287	0	0	0	0
17.06266	-0.02202275	-0.1033287	0	0	0	0
17.07923	-0.02202275	-0.1033287	0	0	0	0
17.09579	-0.02199645	-0.1033092	0.0015878	0.001177047	0.04792264	0.0355254
17.11236	-0.02199645	-0.1033092	0	0	-0.04792816	-0.03552949
17.12893	-0.02199645	-0.1033092	0	0	0	0
17.14581	-0.02199645	-0.1033092	0	0	0	0
17.16206	-0.02199645	-0.1033092	0	0	0	0
17.17895	-0.02199645	-0.1033092	0	0	0	0
17.19527	-0.02197015	-0.1033287	0.001611362	-0.001194515	0.04851094	-0.03596151
17.21176	-0.02197015	-0.1033287	0	0	-0.04911161	0.0364068
17.22868	-0.02197015	-0.1033287	0	0	0	0
17.24673	-0.02057604	-0.1043625	0.07725538	-0.05728616	2.209232	-1.638183
17.2633	-0.02057604	-0.1043625	0	0	-2.231875	1.654973
17.27987	-0.02057604	-0.1043625	0	0	0	0
17.29643	-0.01549876	-0.1081304	0.3065007	-0.2274566	9.250743	-6.86505
17.313	-0.01549876	-0.1081304	0	0	-9.250743	6.86505
17.32957	-0.01549876	-0.1081304	0	0	0	0
17.34613	-0.01552507	-0.1081108	-0.001588376	0.001179432	-0.0479428	0.03559943
17.3627	-0.01552507	-0.1081108	0	0	0.04794004	-0.03559738
17.37926	-0.01552507	-0.1081108	0	0	0	0
17.39583	-0.01552507	-0.1081108	0	0	0	0
17.4124	-0.01552507	-0.1081108	0	0	0	0
17.42899	-0.01552507	-0.1081108	0	0	0	0
17.44575	-0.01552507	-0.1081108	0	0	0	0
17.4621	-0.01552507	-0.1081108	0	0	0	0
17.47866	-0.01552507	-0.1081108	0	0	0	0
17.49614	-0.01552507	-0.1081108	0	0	0	0
17.5118	-0.01552507	-0.1081108	0	0	0	0
17.52836	-0.01552507	-0.1081108	0	0	0	0
17.54493	-0.01555138	-0.1080913	-0.001588066	0.00117916	-0.04792794	0.03558713
17.56157	-0.01555138	-0.1080913	0	0	0.04782608	-0.0355115
17.57806	-0.01555138	-0.1080913	0	0	0	0
17.59463	-0.01555138	-0.1080913	0	0	0	0
17.6112	-0.01555138	-0.1080913	0	0	0	0
17.62776	-0.01555138	-0.1080913	0	0	0	0
17.64439	-0.01552507	-0.1081108	0.001582419	-0.001174967	0.04767243	-0.03539741
17.6609	-0.01552507	-0.1081108	0	0	-0.04776025	0.03546262
17.67786	-0.01552507	-0.1081108	0	0	0	0
17.69403	-0.01552507	-0.1081108	0	0	0	0
17.7106	-0.01552507	-0.1081108	0	0	0	0
17.72717	-0.01552507	-0.1081108	0	0	0	0
17.74373	-0.01552507	-0.1081108	0	0	0	0
17.76056	-0.01552507	-0.1081108	0	0	0	0
17.77691	-0.01552507	-0.1081108	0	0	0	0
17.79552	-0.01549876	-0.1081304	0.001413988	-0.001049942	0.04045496	-0.03003941
17.81209	-0.01549876	-0.1081304	0	0	-0.04019177	0.02984398
17.82865	-0.01549876	-0.1081304	0	0	0	0
17.84522	-0.01549876	-0.1081304	0	0	0	0
17.86232	-0.01549876	-0.1081304	0	0	0	0
17.87836	-0.01549876	-0.1081304	0	0	0	0
17.89492	-0.01549876	-0.1081304	0	0	0	0
17.91149	-0.01549876	-0.1081304	0	0	0	0
17.92806	-0.01549876	-0.1081304	0	0	0	0
17.94462	-0.01547245	-0.1081499	0.001588432	-0.001179432	0.0479445	-0.03559943
17.96121	-0.01547245	-0.1081499	0	0	-0.04791692	0.03557894
17.97778	-0.01547245	-0.1081499	0	0	0	0
17.99432	-0.01549876	-0.1081694	-0.001590997	-0.001181787	-0.04804681	-0.035689
18.01095	-0.01549876	-0.1081694	0	0	0.04797221	0.03563358
18.02745	-0.01549876	-0.1081694	0	0	0	0
18.04402	-0.01552507	-0.1081499	-0.00158801	0.00117961	-0.04801469	0.0356664
18.06059	-0.01552507	-0.1081499	0	0	0.04792624	-0.0356007
18.07716	-0.01552507	-0.1081499	0	0	0	0
18.09381	-0.01552507	-0.1081499	0	0	0	0
18.11029	-0.01552507	-0.1081499	0	0	0	0
18.12686	-0.01552507	-0.1081499	0	0	0	0
18.14343	-0.01549876	-0.1081694	0.00158801	-0.00117961	0.04792624	-0.0356007
18.15999	-0.01549876	-0.1081694	0	0	-0.04793176	0.0356048
18.17656	-0.01549876	-0.1081694	0	0	0	0
18.19312	-0.01549876	-0.1081694	0	0	0	0
18.2097	-0.01549876	-0.1081694	0	0	0	0
18.22626	-0.01549876	-0.1081694	0	0	0	0
18.24282	-0.01549876	-0.1081694	0	0	0	0
18.25939	-0.01549876	-0.1081694	0	0	0	0
18.27596	-0.01549876	-0.1081694	0	0	0	0
18.29331	-0.01549876	-0.1081694	0	0	0	0
18.30909	-0.01549876	-0.1081694	0	0	0	0
18.32566	-0.01549876	-0.1081694	0	0	0	0
18.34229	-0.01549876	-0.1081694	0	0	0	0
18.35896	-0.01549876	-0.1081694	0	0	0	0
18.37536	-0.01549876	-0.1081694	0	0	0	0
18.39193	-0.01552507	-0.1081499	-0.00158801	0.00117961	-0.04816468	0.03577782
18.40849	-0.01552507	-0.1081499	0	0	0.047929	-0.03560276
18.42506	-0.01552507	-0.1081499	0	0	0	0
18.44171	-0.01552507	-0.1081499	0	0	0	0
18.46554	-0.01552507	-0.1081499	0	0	0	0
18.4829	-0.01552507	-0.1081499	0	0	0	0
18.49867	-0.01549876	-0.1081694	0.001667891	-0.001238947	0.05033415	-0.03738935
18.51524	-0.01549876	-0.1081694	0	0	-0.05156898	0.03830661
18.53181	-0.01549876	-0.1081694	0	0	0	0
18.54872	-0.01549876	-0.1081694	0	0	0	0
18.56494	-0.01549876	-0.1081694	0	0	0	0
18.58151	-0.01549876	-0.1081694	0	0	0	0
18.5988	-0.01549876	-0.1081694	0	0	0	0
18.61464	-0.01549876	-0.1081694	0	0	0	0
18.63121	-0.01549876	-0.1081694	0	0	0	0
18.64777	-0.01549876	-0.1081694	0	0	0	0
18.66434	-0.01549876	-0.1081694	0	0	0	0
18.68091	-0.01549876	-0.1081694	0	0	0	0
18.69771	-0.01549876	-0.1081694	0	0	0	0
18.71443	-0.01549876	-0.1081694	0	0	0	0
18.73061	-0.01549876	-0.1081694	0	0	0	0
18.74717	-0.01547245	-0.108189	0.001588432	-0.001179432	0.04850579	-0.0360162
18.76394	-0.01547245	-0.108189	0	0	-0.04765642	0.03538553
18.78066	-0.01547245	-0.108189	0	0	0	0
18.79716	-0.01547245	-0.108189	0	0	0	0
18.81344	-0.01547245	-0.108189	0	0	0	0
18.83001	-0.01547245	-0.108189	0	0	0	0
18.84657	-0.01547245	-0.108189	0	0	0	0
18.86314	-0.01547245	-0.108189	0	0	0	0
18.87988	-0.01547245	-0.108189	0	0	0	0
18.89627	-0.01547245	-0.108189	0	0	0	0
18.91284	-0.01547245	-0.108189	0	0	0	0
18.92941	-0.01547245	-0.108189	0	0	0	0
18.94613	-0.01547245	-0.108189	0	0	0	0
18.96254	-0.01547245	-0.108189	0	0	0	0
18.97911	-0.01547245	-0.108189	0	0	0	0
18.99568	-0.01547245	-0.108189	0	0	0	0
19.01224	-0.01547245	-0.108189	0	0	0	0
19.02883	-0.01547245	-0.108189	0	0	0	0
19.04537	-0.01547245	-0.108189	0	0	0	0
19.06194	-0.01547245	-0.108189	0	0	0	0
19.07851	-0.01547245	-0.108189	0	0	0	0
19.09508	-0.01547245	-0.108189	0	0	0	0
19.11164	-0.01547245	-0.108189	0	0	0	0
19.12822	-0.01547245	-0.108189	0	0	0	0
19.14478	-0.01547245	-0.108189	0	0	0	0
19.16134	-0.01547245	-0.108189	0	0	0	0
19.17791	-0.01547245	-0.108189	0	0	0	0
19.19485	-0.01547245	-0.108228	0	-0.002307319	0	-0.0688738
19.21104	-0.01547245	-0.108228	0	0	0	0.06963902
19.22761	-0.01547245	-0.108228	0	0	0	0
19.24417	-0.01544614	-0.1082476	0.001588432	-0.001179882	0.04794726	-0.03561506
19.26118	-0.01544614	-0.1082476	0	0	-0.04731795	0.03514761
19.27755	-0.01544614	-0.1082476	0	0	0	0
19.29387	-0.01541983	-0.1082671	0.00161195	-0.001196937	0.04930436	-0.03661044
19.31064	-0.01541983	-0.1082671	0	0	-0.04872167	0.03617777
19.32702	-0.01541983	-0.1082671	0	0	0	0
19.34357	-0.01536721	-0.1083062	0.003178329	-0.002360401	0.09649426	-0.07166193
19.36014	-0.01536721	-0.1083062	0	0	-0.09595528	0.07126165
19.37733	-0.01536721	-0.1083062	0	0	0	0
19.39327	-0.0153409	-0.1083648	0.001650132	-0.003676333	0.04980396	-0.1109583
19.40985	-0.0153409	-0.1083648	0	0	-0.05075055	0.1130672
19.42641	-0.0153409	-0.1083648	0	0	0	0
19.44321	-0.01515673	-0.1085407	0.01096244	-0.01046767	0.3285209	-0.3136938
19.45954	-0.01515673	-0.1085407	0	0	-0.3309041	0.3159694
19.47671	-0.01515673	-0.1085407	0	0	0	0
19.49268	-0.01236779	-0.1106128	0.1747174	-0.1298094	5.273283	-3.917881
19.50925	-0.01236779	-0.1106128	0	0	-5.370044	3.989771
19.52581	-0.01236779	-0.1106128	0	0	0	0
19.54237	0.002421048	-0.1216271	0.8930673	-0.6651302	26.96058	-20.07945
19.55952	0.002421048	-0.1216271	0	0	-26.49527	19.7329
19.57594	0.002421048	-0.1216271	0	0	0	0
19.59207	0.01168368	-0.1285504	0.5740291	-0.4290572	17.63383	-13.18038
19.60865	0.01168368	-0.1285504	0	0	-17.54951	13.11736
19.62521	0.01168368	-0.1285504	0	0	0	0
19.64178	0.01263091	-0.1292596	0.05717478	-0.04280505	1.725637	-1.291933
19.65834	0.01263091	-0.1292596	0	0	-1.725637	1.291933
19.67505	0.01263091	-0.1292596	0	0	0	0
19.69182	0.01257828	-0.1292202	-0.003138721	0.002349972	-0.09376602	0.07020295
19.70845	0.01257828	-0.1292202	0	0	0.09399095	-0.07037137
19.72461	0.01257828	-0.1292202	0	0	0	0
19.74117	0.01244673	-0.1291217	-0.007942723	0.00594664	-0.2426875	0.1816978
19.75774	0.01244673	-0.1291217	0	0	0.2397257	-0.1794803
19.77431	0.01244673	-0.1291217	0	0	0	0
19.79976	0.01244673	-0.1290822	0	0.001548914	0	0.03686902
19.81633	0.01244673	-0.1290822	0	0	0	-0.036864
19.83289	0.01242041	-0.1290625	-0.001588545	0.001189328	-0.04794237	0.03589399
19.84946	0.01242041	-0.1290625	0	0	0.04794789	-0.03589812
19.86609	0.01242041	-0.1290625	0	0	0	0
19.8827	0.01236779	-0.1290231	-0.003167605	0.002371556	-0.09528041	0.07133552
19.89918	0.01236779	-0.1290231	0	0	0.09572526	-0.07166858
19.91651	0.01236779	-0.1290231	0	0	0	0
19.93229	0.01226254	-0.1289444	-0.006669046	0.00499305	-0.2014113	0.1507947
19.94924	0.01226254	-0.1289444	0	0	0.2037825	-0.15257
19.96542	0.01226254	-0.1289444	0	0	0	0
19.98199	0.01213098	-0.1288459	-0.007940951	0.005945271	-0.2424355	0.1815079
19.9986	0.01213098	-0.1288459	0	0	0.239369	-0.179212
20.01513	0.01213098	-0.1288459	0	0	0	0
20.03173	0.01213098	-0.1288459	0	0	0	0
20.04826	0.01213098	-0.1288459	0	0	0	0
20.06483	0.01213098	-0.1288459	0	0	0	0
20.08139	0.01207836	-0.1288065	-0.003177145	0.002378656	-0.09589748	0.07179625
20.09806	0.01207836	-0.1288065	0	0	0.09559479	-0.07156963
20.11452	0.01207836	-0.1288065	0	0	0	0
20.13131	0.01205205	-0.1287868	-0.001567427	0.00117263	-0.0471395	0.03526619
20.14766	0.01205205	-0.1287868	0	0	0.04730775	-0.03539207
20.16422	0.01205205	-0.1287868	0	0	0	0
20.18079	0.01202574	-0.1287671	-0.001588179	0.001189054	-0.04793134	0.03588573
20.1979	0.01202574	-0.1287671	0	0	0.04716837	-0.0353145
20.214	0.01202574	-0.1287671	0	0	0	0
20.23049	0.01202574	-0.1287671	0	0	0	0
20.24721	0.01202574	-0.1287671	0	0	0	0
20.26362	0.01202574	-0.1287671	0	0	0	0
20.28019	0.01202574	-0.1287671	0	0	0	0
20.29676	0.01202574	-0.1287671	0	0	0	0
20.31332	0.01202574	-0.1287671	0	0	0	0
20.3299	0.01202574	-0.1287671	0	0	0	0
20.34646	0.01202574	-0.1287671	0	0	0	0
20.36303	0.01202574	-0.1287671	0	0	0	0
20.37959	0.01202574	-0.1287671	0	0	0	0
20.39616	0.01202574	-0.1287671	0	0	0	0
20.41323	0.01202574	-0.1287671	0	0	0	0
20.42929	0.01202574	-0.1287671	0	0	0	0
20.44586	0.01202574	-0.1287671	0	0	0	0
20.46242	0.01202574	-0.1287671	0	0	0	0
20.47899	0.01202574	-0.1287671	0	0	0	0
20.49556	0.01202574	-0.1287671	0	0	0	0
20.51247	0.01202574	-0.1287671	0	0	0	0
20.52879	0.01202574	-0.1287671	0	0	0	0
20.54526	0.01202574	-0.1287671	0	0	0	0
20.56235	0.01202574	-0.1287671	0	0	0	0
20.5784	0.01202574	-0.1287671	0	0	0	0
20.59496	0.01202574	-0.1287671	0	0	0	0
20.61153	0.01202574	-0.1287671	0	0	0	0
20.62809	0.01205205	-0.1287868	0.001588362	-0.001189191	0.04794237	-0.03589399
20.64468	0.01205205	-0.1287868	0	0	-0.04790652	0.03586715
20.66153	0.01205205	-0.1287868	0	0	0	0
20.6778	0.01205205	-0.128708	0	0.004843768	0	0.1462778
20.69437	0.01205205	-0.128708	0	0	0	-0.1474756
20.711	0.01205205	-0.128708	0	0	0	0
20.72749	0.00678937	-0.1235526	-0.3191624	0.3126523	-9.636779	9.440211
20.74407	0.00678937	-0.1235526	0	0	9.652344	-9.455459
20.76063	0.00678937	-0.1235526	0	0	0	0
20.77719	-0.02015517	-0.08942254	-1.626375	2.060097	-49.09824	62.19176
20.79376	-0.02015517	-0.08942254	0	0	49.0841	-62.17386
20.81033	-0.02015517	-0.08942254	0	0	0	0
20.8269	-0.02807157	-0.03660035	-0.4777802	3.187987	-14.4186	96.20809
20.84346	-0.02807157	-0.03660035	0	0	14.42027	-96.21916
20.86016	-0.02807157	-0.03660035	0	0	0	0
20.87668	-0.01397278	-0.004698761	0.8531659	1.930473	25.68207	58.11127
20.89316	-0.01397278	-0.004698761	0	0	-25.84829	-58.48737
20.90996	-0.01397278	-0.004698761	0	0	0	0
20.92672	-0.0031842	0.01893107	0.6440078	1.410547	19.19422	42.04042
20.94286	-0.0031842	0.01893107	0	0	-19.57479	-42.87396
20.95971	-0.0031842	0.01893107	0	0	0	0
20.976	0.0003947368	0.03264456	0.2197697	0.8420964	6.63228	25.41306
20.99349	0.0003947368	0.03264456	0	0	-6.506444	-24.93089
21.00913	0.0003947368	0.03264456	0	0	0	0
21.0257	0.007236716	0.04165909	0.4128876	0.5439925	12.81961	16.89025
21.04227	0.007236716	0.04165909	0	0	-12.45954	-16.41584
21.05883	0.007236716	0.04165909	0	0	0	0
21.1205	0.01263091	0.04554502	0.08747091	0.06301341	1.118099	0.8054705
21.13707	0.01263091	0.04554502	0	0	-1.118017	-0.8054115
21.15552	0.01263091	0.04554502	0	0	0	0
21.17765	0.01263091	0.04554502	0	0	0	0
21.19422	0.01263091	0.04554502	0	0	0	0
21.21078	0.01265722	0.04552644	0.001588362	-0.001121951	0.04793685	-0.03386053
21.22735	0.01265722	0.04552644	0	0	-0.04793961	0.03386248
21.24392	0.01265722	0.04552644	0	0	0	0
21.26048	0.01265722	0.04552644	0	0	0	0
21.27705	0.01265722	0.04552644	0	0	0	0
21.29362	0.01265722	0.04552644	0	0	0	0
21.31018	0.01268353	0.04550786	0.001588545	-0.001121855	0.04794789	-0.03386154
21.32675	0.01268353	0.04550786	0	0	-0.04794513	0.0338596
21.34351	0.01268353	0.04550786	0	0	0	0
21.35989	0.01265722	0.04552644	-0.001606676	0.00113466	-0.04849237	0.03424607
21.37645	0.01265722	0.04552644	0	0	0.04877032	-0.03444236
21.39302	0.01265722	0.04552644	0	0	0	0
21.40959	0.01263091	0.04554502	-0.001588362	0.001121951	-0.04793961	0.03386248
21.42615	0.01263091	0.04554502	0	0	0.04793961	-0.03386248
21.44272	0.01263091	0.04554502	0	0	0	0
21.45928	0.01357811	0.04885145	0.05718665	0.1996222	1.726095	6.025305
21.47586	0.01357811	0.04885145	0	0	-1.725797	-6.024264
21.49242	0.01357811	0.04885145	0	0	0	0
21.50899	0.01905033	0.07228811	0.3303415	1.414803	9.970873	42.70374
21.52556	0.01905033	0.07228811	0	0	-9.969725	-42.69883
21.54212	0.01905033	0.07228811	0	0	0	0
21.55877	0.02281183	0.0749269	0.2260301	0.1585656	6.806321	4.774798
21.57553	0.02281183	0.0749269	0	0	-6.767066	-4.74726
21.59237	0.02281183	0.0749269	0	0	0	0
21.60839	0.02281183	0.0749269	0	0	0	0
21.62496	0.02281183	0.0749269	0	0	0	0
21.64153	0.02281183	0.0749269	0	0	0	0
21.65823	0.02299595	0.07476087	0.01102173	-0.009939127	0.3312636	-0.2987253
21.67466	0.02299595	0.07476087	0	0	-0.3326557	0.2999807
21.69123	0.02299595	0.07476087	0	0	0	0
21.70778	0.02304855	0.07472397	0.003176696	-0.002228029	0.09589497	-0.06725755
21.72436	0.02304855	0.07472397	0	0	-0.09587841	0.06724593
21.74092	0.02304855	0.07472397	0	0	0	0
21.75749	0.02304855	0.07472397	0	0	0	0
21.77414	0.02304855	0.07472397	0	0	0	0
21.79077	0.02304855	0.07472397	0	0	0	0
21.80719	0.02304855	0.07472397	0	0	0	0
21.82375	0.02304855	0.07472397	0	0	0	0
21.84032	0.02304855	0.07472397	0	0	0	0
21.85688	0.02307485	0.07466863	0.00158787	-0.003341274	0.04792201	-0.1008399
21.87345	0.02307485	0.07466863	0	0	-0.04792477	0.1008457
21.89002	0.02307485	0.07466863	0	0	0	0
21.90658	0.02323266	0.07455794	0.009527669	-0.006682998	0.2875787	-0.2017165
21.92315	0.02323266	0.07455794	0	0	-0.2875622	0.2017049
21.93972	0.02323266	0.07455794	0	0	0	0
21.95629	0.02357458	0.07428119	0.02063823	-0.01670432	0.6228631	-0.5041375
21.97285	0.02357458	0.07428119	0	0	-0.6228631	0.5041375
21.98954	0.02357458	0.07428119	0	0	0	0
22.00599	0.02391649	0.07396753	0.02078626	-0.01906879	0.627403	-0.5755634
22.02255	0.02391649	0.07396753	0	0	-0.6295413	0.5775251
22.03954	0.02391649	0.07396753	0	0	0	0
22.05601	0.02386389	0.07381992	-0.003195354	-0.008966588	-0.0955232	-0.2680508
22.07225	0.02386389	0.07381992	0	0	0.09768431	0.2741151
22.08882	0.02386389	0.07381992	0	0	0	0
22.10539	0.02349568	0.07334013	-0.0222254	-0.02896004	-0.6707639	-0.8740156
22.12196	0.02349568	0.07334013	0	0	0.6707639	0.8740156
22.13937	0.02349568	0.07334013	0	0	0	0
22.15537	0.02278553	0.06763384	-0.04438208	-0.3566263	-1.328215	-10.67269
22.17184	0.02278553	0.06763384	0	0	1.366995	10.98431
22.18822	0.02278553	0.06763384	0	0	0	0
22.20479	-0.006947257	0.01670277	-1.794675	-3.074205	-54.46121	-93.28986
22.22136	-0.006947257	0.01670277	0	0	54.16338	92.7797
22.23792	-0.006947257	0.01670277	0	0	0	0
22.25449	-0.03929555	-0.03418306	-1.952547	-3.071475	-58.93137	-92.70264
22.2711	-0.03929555	-0.03418306	0	0	58.85345	92.58006
22.28819	-0.03929555	-0.03418306	0	0	0	0
22.30419	-0.04578377	-0.04014412	-0.405495	-0.3725484	-12.25479	-11.25909
22.32076	-0.04578377	-0.04014412	0	0	12.45	11.43843
22.33732	-0.04578377	-0.04014412	0	0	0	0
22.35389	-0.03947948	-0.0485822	0.3805282	-0.509324	11.48436	-15.37143
22.37049	-0.03947948	-0.0485822	0	0	-11.47445	15.35817
22.38702	-0.03947948	-0.0485822	0	0	0	0
22.40359	-0.0241269	-0.05980686	0.9266835	-0.6775219	27.99314	-20.4665
22.42017	-0.0241269	-0.05980686	0	0	-27.95932	20.44177
22.43684	-0.0241269	-0.05980686	0	0	0	0
22.45334	-0.01555138	-0.06610878	0.5196534	-0.3818791	15.66514	-11.51188
22.46986	-0.01555138	-0.06610878	0	0	-15.73571	11.56374
22.50308	-0.01555138	-0.06610878	0	0	0	0
22.51965	-0.001473683	-0.07653403	0.8495358	-0.6291243	17.06192	-12.63522
22.53622	-0.001473683	-0.07653403	0	0	-25.63904	18.98701
22.55278	-0.001473683	-0.07653403	0	0	0	0
22.56935	0.01226254	-0.08697946	0.8292158	-0.6305605	25.02722	-19.03145
22.58627	0.01226254	-0.08697946	0	0	-24.7649	18.83197
22.60249	0.01226254	-0.08697946	0	0	0	0
22.61905	0.007868258	-0.100678	-0.2653007	-0.8270328	-8.092976	-25.22857
22.63562	0.007868258	-0.100678	0	0	8.007252	24.96134
22.65277	0.007868258	-0.100678	0	0	0	0
22.66875	-0.0241269	-0.1247126	-2.002707	-1.504429	-60.45226	-45.4116
22.68532	-0.0241269	-0.1247126	0	0	61.53278	46.22328
22.70189	-0.0241269	-0.1247126	0	0	0	0
22.71845	-0.05037839	-0.1444773	-1.585091	-1.193412	-47.8464	-36.02346
22.73502	-0.05037839	-0.1444773	0	0	47.84364	36.02139
22.75158	-0.05037839	-0.1444773	0	0	0	0
22.76852	-0.05187447	-0.1455283	-0.08834068	-0.06206006	-2.636982	-1.852502
22.78472	-0.05187447	-0.1455283	0	0	2.666127	1.872976
22.80165	-0.05187447	-0.1455283	0	0	0	0
22.81785	-0.05187447	-0.1455283	0	0	0	0
22.83488	-0.05187447	-0.1455283	0	0	0	0
22.85098	-0.05187447	-0.1455283	0	0	0	0
22.86755	-0.05187447	-0.1455283	0	0	0	0
22.88412	-0.05187447	-0.1455283	0	0	0	0
22.90068	-0.05187447	-0.1455283	0	0	0	0
22.91725	-0.05184823	-0.1455482	0.001584131	-0.001197149	0.04780918	-0.03613003
22.93382	-0.05184823	-0.1455482	0	0	-0.04780918	0.03613003
22.95039	-0.05184823	-0.1455482	0	0	0	0
22.96695	-0.05187447	-0.1455283	-0.001584496	0.001197425	-0.0478257	0.03614251
22.98352	-0.05187447	-0.1455283	0	0	0.04782294	-0.03614043
23.00009	-0.05187447	-0.1455283	0	0	0	0
23.01665	-0.05187447	-0.1455283	0	0	0	0
23.03322	-0.05187447	-0.1455283	0	0	0	0
23.0501	-0.05187447	-0.1455283	0	0	0	0
23.06637	-0.05187447	-0.1455283	0	0	0	0
23.08292	-0.05187447	-0.1455283	0	0	0	0
23.09949	-0.05187447	-0.1455283	0	0	0	0
23.11605	-0.05187447	-0.1455283	0	0	0	0
23.13262	-0.05187447	-0.1455283	0	0	0	0
23.14919	-0.05187447	-0.1455283	0	0	0	0
23.17496	-0.05192696	-0.145449	-0.00203727	0.003078966	-0.04812419	0.07273102
23.19153	-0.05192696	-0.145449	0	0	0.04811768	-0.07272118
23.2084	-0.05192696	-0.1454093	0	0.002351258	0	0.07030547
23.22466	-0.05192696	-0.1454093	0	0	0	-0.0709611
23.24123	-0.05192696	-0.1454093	0	0	0	0
23.25779	-0.05192696	-0.1454093	0	0	0	0
23.27447	-0.05192696	-0.1454093	0	0	0	0
23.29093	-0.05192696	-0.1454093	0	0	0	0
23.30768	-0.05190072	-0.1453895	0.001566458	0.001183793	0.04715906	0.03563873
23.32406	-0.05190072	-0.1453895	0	0	-0.04727579	-0.03572694
23.34063	-0.05190072	-0.1453895	0	0	0	0
23.3572	-0.05190072	-0.1453895	0	0	0	0
23.37376	-0.05190072	-0.1453895	0	0	0	0
23.39033	-0.05190072	-0.1453895	0	0	0	0
23.40689	-0.05190072	-0.1453895	0	0	0	0
23.42346	-0.05190072	-0.1453895	0	0	0	0
23.44003	-0.05190072	-0.1453895	0	0	0	0
23.45659	-0.05184823	-0.1453895	0.003168488	0	0.09562515	0
23.47316	-0.05184823	-0.1453895	0	0	-0.09563065	0
23.4902	-0.05184823	-0.1453895	0	0	0	0
23.50629	-0.05182198	-0.14533	0.001631657	0.003699195	0.04924918	0.1116548
23.52286	-0.05182198	-0.14533	0	0	-0.04996836	-0.1132853
23.53942	-0.05182198	-0.14533	0	0	0	0
23.55599	-0.051717	-0.1452507	0.006337985	0.004789699	0.1913028	0.1445701
23.57256	-0.051717	-0.1452507	0	0	-0.1912918	-0.1445617
23.58933	-0.051717	-0.1452507	0	0	0	0
23.60569	-0.05161202	-0.1451713	0.006417281	0.004849452	0.1936851	0.1463652
23.62226	-0.05161202	-0.1451713	0	0	-0.1948968	-0.1472809
23.63882	-0.05161202	-0.1451713	0	0	0	0
23.65539	-0.0509821	-0.1446558	0.03802208	0.03111958	1.147509	0.9391908
23.67196	-0.0509821	-0.1446558	0	0	-1.147575	-0.9392449
23.6889	-0.0509821	-0.1446558	0	0	0	0
23.70509	-0.05074587	-0.1444773	0.01459481	0.01102459	0.440523	0.3327611
23.72166	-0.05074587	-0.1444773	0	0	-0.4455764	-0.3365784
23.73822	-0.05074587	-0.1444773	0	0	0	0
23.75479	-0.05066713	-0.1444179	0.004753069	0.003589649	0.1434562	0.108342
23.77136	-0.05066713	-0.1444179	0	0	-0.1434479	-0.1083358
23.78792	-0.05066713	-0.1444179	0	0	0	0
23.80449	-0.05061463	-0.1443782	0.003169077	0.002393674	0.09565396	0.07224955
23.82105	-0.05061463	-0.1443782	0	0	-0.09564845	-0.0722454
23.83762	-0.05061463	-0.1443782	0	0	0	0
23.85422	-0.05056213	-0.1443386	0.003162523	0.002388724	0.09536279	0.07202963
23.87075	-0.05056213	-0.1443386	0	0	-0.09543964	-0.07208768
23.88752	-0.05056213	-0.1443386	0	0	0	0
23.90388	-0.05053588	-0.1443584	0.001603743	-0.001211798	0.04840663	-0.03657634
23.92118	-0.05053588	-0.1443584	0	0	-0.04764951	0.03600425
23.93702	-0.05053588	-0.1443584	0	0	0	0
23.95362	-0.0500109	-0.1438826	0.03162635	0.0286602	0.9747409	0.8833224
23.97015	-0.0500109	-0.1438826	0	0	-0.9545401	-0.8650162
23.98672	-0.0500109	-0.1438826	0	0	0	0
24.00329	-0.04675537	-0.1413865	0.1965038	0.1506672	5.930497	4.547145
24.01985	-0.04675537	-0.1413865	0	0	-5.93118	-4.547669
24.03677	-0.04675537	-0.1413865	0	0	0	0
24.05298	-0.0351697	-0.1327493	0.7146151	0.5327537	21.56837	16.07946
24.06955	-0.0351697	-0.1327493	0	0	-21.79927	-16.25161
24.08612	-0.0351697	-0.1327493	0	0	0	0
24.10268	-0.03285659	-0.1310136	0.1396518	0.1047859	4.215185	3.162809
24.11926	-0.03285659	-0.1310136	0	0	-4.2147	-3.162445
24.13582	-0.03285659	-0.1310136	0	0	0	0
24.15239	-0.03283031	-0.1310334	0.001586788	-0.001190091	0.0478921	-0.03591907
24.17279	-0.03283031	-0.1310334	0	0	-0.042923	0.03219225
24.18944	-0.03283031	-0.1310334	0	0	0	0
24.20592	-0.03285659	-0.1310531	-0.001594498	-0.001195874	-0.04812206	-0.03609154
24.22249	-0.03285659	-0.1310531	0	0	0.04824147	0.0361811
24.23971	-0.03285659	-0.1310531	0	0	0	0
24.25562	-0.03288288	-0.1310728	-0.00165187	-0.001238727	-0.04985641	-0.037387
24.27219	-0.03288288	-0.1310728	0	0	0.05085769	0.03813786
24.28876	-0.03288288	-0.1310728	0	0	0	0
24.30532	-0.03288288	-0.1310728	0	0	0	0
24.32189	-0.03288288	-0.1310728	0	0	0	0
24.33846	-0.03288288	-0.1310728	0	0	0	0
24.35503	-0.03288288	-0.1310728	0	0	0	0
24.37178	-0.03288288	-0.1310728	0	0	0	0
24.3882	-0.03288288	-0.1310728	0	0	0	0
24.40473	-0.03288288	-0.1310334	0	0.002386226	0	0.0724334
24.42228	-0.03288288	-0.1310334	0	0	0	-0.07001732
24.43786	-0.03288288	-0.1310334	0	0	0	0
24.45709	-0.03288288	-0.1310334	0	0	0	0
24.47367	-0.03288288	-0.1310334	0	0	0	0
24.49023	-0.03288288	-0.1310334	0	0	0	0
24.5068	-0.03288288	-0.1310334	0	0	0	0
24.52336	-0.03288288	-0.1310334	0	0	0	0
24.53993	-0.03288288	-0.1310334	0	0	0	0
24.5565	-0.03285659	-0.1310136	0.00158683	0.001189954	0.04788235	0.03590667
24.57306	-0.03285659	-0.1310136	0	0	-0.04789613	-0.03591701
24.58964	-0.03285659	-0.1310136	0	0	0	0
24.60627	-0.03285659	-0.1310136	0	0	0	0
24.62276	-0.03285659	-0.1310136	0	0	0	0
24.63933	-0.03285659	-0.1310136	0	0	0	0
24.6559	-0.03283031	-0.1310334	0.001586605	-0.001189954	0.04788383	-0.03591287
24.67247	-0.03283031	-0.1310334	0	0	-0.04788383	0.03591287
24.68925	-0.03283031	-0.1310334	0	0	0	0
24.7056	-0.03285659	-0.1310531	-0.001607143	-0.001205357	-0.04850367	-0.03637775
24.72237	-0.03285659	-0.1310531	0	0	0.04851484	0.03638613
24.73874	-0.03285659	-0.1310531	0	0	0	0
24.7553	-0.03285659	-0.1310531	0	0	0	0
24.77187	-0.03285659	-0.1310531	0	0	0	0
24.7886	-0.03285659	-0.1310531	0	0	0	0
24.805	-0.03285659	-0.1310531	0	0	0	0
24.8216	-0.03285659	-0.1310531	0	0	0	0
24.83841	-0.03285659	-0.1310531	0	0	0	0
24.85503	-0.03285659	-0.1310531	0	0	0	0
24.8716	-0.03285659	-0.1310531	0	0	0	0
24.88816	-0.03285659	-0.1310531	0	0	0	0
24.90473	-0.03285659	-0.1310925	0	-0.002380807	0	-0.07186116
24.9213	-0.03285659	-0.1310925	0	0	0	0.07185289
24.93786	-0.03285659	-0.1310925	0	0	0	0
24.95443	-0.03288288	-0.1310728	-0.00158683	0.001190853	-0.04789062	0.03594002
24.97099	-0.03288288	-0.1310728	0	0	0.04789613	-0.03594416
24.98756	-0.03288288	-0.1310728	0	0	0	0
25.00463	-0.03285659	-0.1310925	0.001540195	-0.001155855	0.04578735	-0.0343616
25.02076	-0.03285659	-0.1310925	0	0	-0.04639237	0.03481564
25.03727	-0.03285659	-0.1310925	0	0	0	0
25.05383	-0.03285659	-0.1310531	0	0.002380807	0	0.07199379
25.0704	-0.03285659	-0.1310531	0	0	0	-0.07185289
25.08697	-0.03285659	-0.1310531	0	0	0	0
25.10353	-0.03285659	-0.1310531	0	0	0	0
25.12009	-0.03285659	-0.1310531	0	0	0	0
25.13667	-0.03285659	-0.1310531	0	0	0	0
25.21637	-0.03290917	-0.1310136	-0.0006596418	0.0004946963	-0.006851754	0.005138452
25.23299	-0.03290917	-0.1310136	0	0	0.006847955	-0.005135603
25.2495	-0.03288288	-0.1310334	0.001592104	-0.001194078	0.04804979	-0.03603734
25.26607	-0.03288288	-0.1310334	0	0	-0.04813013	0.0360976
25.28264	-0.03288288	-0.1310334	0	0	0	0
25.2992	-0.03288288	-0.1310334	0	0	0	0
25.31577	-0.03288288	-0.1310334	0	0	0	0
25.33234	-0.03288288	-0.1310334	0	0	0	0
25.34891	-0.03288288	-0.1310334	0	0	0	0
25.36547	-0.03288288	-0.1310334	0	0	0	0
25.38236	-0.03288288	-0.1310334	0	0	0	0
25.3986	-0.03288288	-0.1310334	0	0	0	0
25.41517	-0.03288288	-0.1310334	0	0	0	0
25.43174	-0.03288288	-0.1310334	0	0	0	0
25.44831	-0.03288288	-0.1310334	0	0	0	0
25.46487	-0.03288288	-0.1310334	0	0	0	0
25.48198	-0.03288288	-0.1310334	0	0	0	0
25.498	-0.03290917	-0.1310136	-0.001640039	0.00123003	-0.04950503	0.03712878
25.51495	-0.03290917	-0.1310136	0	0	0.04973698	-0.03730274
25.53114	-0.03290917	-0.1310136	0	0	0	0
25.54771	-0.03288288	-0.1309939	0.001586422	0.001189817	0.04842749	0.03632062
25.56434	-0.03288288	-0.1309939	0	0	-0.0477793	-0.03583448
25.58084	-0.03288288	-0.1309939	0	0	0	0
25.5974	-0.03288288	-0.1309939	0	0	0	0
25.61398	-0.03288288	-0.1309939	0	0	0	0
25.63088	-0.03288288	-0.1309939	0	0	0	0
25.64711	-0.03288288	-0.1309939	0	0	0	0
25.6637	-0.03288288	-0.1309939	0	0	0	0
25.68049	-0.03288288	-0.1309939	0	0	0	0
25.69681	-0.03285659	-0.1310136	0.001611505	-0.001208458	0.04867174	-0.03649863
25.71337	-0.03285659	-0.1310136	0	0	-0.04901339	0.03675483
25.73057	-0.03285659	-0.1310136	0	0	0	0
25.7465	-0.03288288	-0.1310334	-0.001649893	-0.001237244	-0.04979959	-0.0373444
25.76307	-0.03288288	-0.1310334	0	0	0.05076402	0.03806762
25.77976	-0.03288288	-0.1310334	0	0	0	0
25.79621	-0.03285659	-0.1310531	0.001598794	-0.001198926	0.04824892	-0.03618156
25.81278	-0.03285659	-0.1310531	0	0	-0.04843012	0.03631744
25.82948	-0.03285659	-0.1310531	0	0	0	0
25.84591	-0.03285659	-0.1310531	0	0	0	0
25.86247	-0.03285659	-0.1310531	0	0	0	0
25.87904	-0.03285659	-0.1310531	0	0	0	0
25.89561	-0.03285659	-0.1310531	0	0	0	0
25.91218	-0.03285659	-0.1310531	0	0	0	0
25.92874	-0.03285659	-0.1310531	0	0	0	0
25.94531	-0.03285659	-0.1310531	0	0	0	0
25.96188	-0.03285659	-0.1310531	0	0	0	0
25.97845	-0.03285659	-0.1310531	0	0	0	0
25.99501	-0.03285659	-0.1310531	0	0	0	0
26.01158	-0.03285659	-0.1310531	0	0	0	0
26.02814	-0.03285659	-0.1310531	0	0	0	0
26.04471	-0.03285659	-0.1310531	0	0	0	0
26.06128	-0.03285659	-0.1310531	0	0	0	0
26.07784	-0.03285659	-0.1310531	0	0	0	0
26.09474	-0.03285659	-0.1310531	0	0	0	0
26.11098	-0.03285659	-0.1310531	0	0	0	0
26.12754	-0.03285659	-0.1310531	0	0	0	0
26.14411	-0.03285659	-0.1310531	0	0	0	0
26.16068	-0.03285659	-0.1310531	0	0	0	0
26.17724	-0.03285659	-0.1310531	0	0	0	0
26.19382	-0.03285659	-0.1310531	0	0	0	0
26.21037	-0.03285659	-0.1310531	0	0	0	0
26.22694	-0.03285659	-0.1310531	0	0	0	0
26.24351	-0.03288288	-0.1310334	-0.001587012	0.001190091	-0.04789889	0.03591907
26.26008	-0.03288288	-0.1310334	0	0	0.04789338	-0.03591494
26.27665	-0.03288288	-0.1310334	0	0	0	0
26.29321	-0.03288288	-0.1310334	0	0	0	0
26.30996	-0.03288288	-0.1310334	0	0	0	0
26.32635	-0.03288288	-0.1310334	0	0	0	0
26.34293	-0.03288288	-0.1310334	0	0	0	0
26.35948	-0.03288288	-0.1310334	0	0	0	0
26.37605	-0.03288288	-0.1310334	0	0	0	0
26.39261	-0.03288288	-0.1310334	0	0	0	0
26.40918	-0.03288288	-0.1310334	0	0	0	0
26.42575	-0.03288288	-0.1310334	0	0	0	0
26.44232	-0.03288288	-0.1310334	0	0	0	0
26.45888	-0.03288288	-0.1310334	0	0	0	0
26.47545	-0.03288288	-0.1310334	0	0	0	0
26.49202	-0.03288288	-0.1310334	0	0	0	0
26.50858	-0.03288288	-0.1310334	0	0	0	0
26.52533	-0.03288288	-0.1310334	0	0	0	0
26.54175	-0.03288288	-0.1310334	0	0	0	0
26.55829	-0.03288288	-0.1310334	0	0	0	0
26.57485	-0.03288288	-0.1310334	0	0	0	0
26.59142	-0.03285659	-0.1310531	0.001587195	-0.001190228	0.04790992	-0.03592735
26.60798	-0.03285659	-0.1310531	0	0	-0.04790441	0.03592321
26.62455	-0.03285659	-0.1310531	0	0	0	0
26.64112	-0.03288288	-0.1310334	-0.001587012	0.001190091	-0.04789889	0.03591907
26.65772	-0.03288288	-0.1310334	0	0	0.0478493	-0.0358819
26.67426	-0.03288288	-0.1310334	0	0	0	0
26.69082	-0.03288288	-0.1310334	0	0	0	0
26.70741	-0.03288288	-0.1310334	0	0	0	0
26.72396	-0.03288288	-0.1310334	0	0	0	0
26.74052	-0.03288288	-0.1310334	0	0	0	0
26.75709	-0.03288288	-0.1310334	0	0	0	0
26.77365	-0.03288288	-0.1310334	0	0	0	0
26.79022	-0.03288288	-0.1310334	0	0	0	0
26.80679	-0.03288288	-0.1310334	0	0	0	0
26.82336	-0.03288288	-0.1310334	0	0	0	0
26.84012	-0.03288288	-0.1310334	0	0	0	0
26.85649	-0.03288288	-0.1310334	0	0	0	0
26.87306	-0.03288288	-0.1310334	0	0	0	0
26.8898	-0.03288288	-0.1310334	0	0	0	0
26.90619	-0.03288288	-0.1310334	0	0	0	0
26.92276	-0.03288288	-0.1310334	0	0	0	0
26.93932	-0.03288288	-0.1310334	0	0	0	0
26.95589	-0.03288288	-0.1310334	0	0	0	0
26.97246	-0.03288288	-0.1310334	0	0	0	0
26.98902	-0.03288288	-0.1310334	0	0	0	0
27.00559	-0.03288288	-0.1310334	0	0	0	0
27.02252	-0.03288288	-0.1310334	0	0	0	0
27.03872	-0.03285659	-0.1310531	0.001623081	-0.001217138	0.04899314	-0.03673965
27.05529	-0.03285659	-0.1310531	0	0	-0.04953501	0.03714599
27.0723	-0.03285659	-0.1310531	0	0	0	0
27.08842	-0.03285659	-0.1310531	0	0	0	0
27.10499	-0.03285659	-0.1310531	0	0	0	0
27.12156	-0.03285659	-0.1310531	0	0	0	0
27.13812	-0.03285659	-0.1310531	0	0	0	0
27.15469	-0.03285659	-0.1310531	0	0	0	0
27.17126	-0.03285659	-0.1310531	0	0	0	0
27.19411	-0.03285659	-0.1310531	0	0	0	0
27.21068	-0.03285659	-0.1310531	0	0	0	0
27.22724	-0.03285659	-0.1310531	0	0	0	0
27.24394	-0.03285659	-0.1310531	0	0	0	0
27.26038	-0.03285659	-0.1310531	0	0	0	0
27.27694	-0.03285659	-0.1310531	0	0	0	0
27.29351	-0.03285659	-0.1310531	0	0	0	0
27.31008	-0.03285659	-0.1310531	0	0	0	0
27.32664	-0.03285659	-0.1310531	0	0	0	0
27.34321	-0.03285659	-0.1310531	0	0	0	0
27.35978	-0.03285659	-0.1310531	0	0	0	0
27.37651	-0.03285659	-0.1310531	0	0	0	0
27.39291	-0.03285659	-0.1310531	0	0	0	0
27.40948	-0.03285659	-0.1310531	0	0	0	0
27.42604	-0.03285659	-0.1310531	0	0	0	0
27.44261	-0.03285659	-0.1310531	0	0	0	0
27.45918	-0.03285659	-0.1310531	0	0	0	0
27.47606	-0.03285659	-0.1310531	0	0	0	0
27.49231	-0.03285659	-0.1310531	0	0	0	0
27.50949	-0.03285659	-0.1310531	0	0	0	0
27.52544	-0.03288288	-0.1310334	-0.001648117	0.001235913	-0.04974313	0.03730207
27.54201	-0.03288288	-0.1310334	0	0	0.05068262	-0.03800658
27.55876	-0.03288288	-0.1310334	0	0	0	0
27.57518	-0.03288288	-0.1310334	0	0	0	0
27.59171	-0.03288288	-0.1310334	0	0	0	0
27.60828	-0.03288288	-0.1310334	0	0	0	0
27.62484	-0.03288288	-0.1310334	0	0	0	0
27.64141	-0.03288288	-0.1310334	0	0	0	0
27.65798	-0.03288288	-0.1310334	0	0	0	0
27.67454	-0.03288288	-0.1310334	0	0	0	0
27.69111	-0.03288288	-0.1310334	0	0	0	0
27.70778	-0.03288288	-0.1310334	0	0	0	0
27.72424	-0.03288288	-0.1310334	0	0	0	0
27.74081	-0.03288288	-0.1310334	0	0	0	0
27.75738	-0.03288288	-0.1310334	0	0	0	0
27.77555	-0.03288288	-0.1310334	0	0	0	0
27.79212	-0.03288288	-0.1310334	0	0	0	0
27.80881	-0.03288288	-0.1310334	0	0	0	0
27.82526	-0.03288288	-0.1310334	0	0	0	0
27.84182	-0.03288288	-0.1310334	0	0	0	0
27.86164	-0.03288288	-0.1310334	0	0	0	0
27.87821	-0.03288288	-0.1310334	0	0	0	0
27.89478	-0.03288288	-0.1310334	0	0	0	0
27.91135	-0.03288288	-0.1310334	0	0	0	0
27.92791	-0.03288288	-0.1310334	0	0	0	0
27.94448	-0.03288288	-0.1310334	0	0	0	0
27.96105	-0.03288288	-0.1310334	0	0	0	0
27.97829	-0.03288288	-0.1310334	0	0	0	0
27.99466	-0.03288288	-0.1310334	0	0	0	0
28.0108	-0.03288288	-0.1310334	0	0	0	0
28.02732	-0.03288288	-0.1310334	0	0	0	0
28.04388	-0.03288288	-0.1310334	0	0	0	0
28.06045	-0.03288288	-0.1310334	0	0	0	0
28.07702	-0.03288288	-0.1310334	0	0	0	0
28.09396	-0.03288288	-0.1310334	0	0	0	0
28.11019	-0.03288288	-0.1310334	0	0	0	0
28.12672	-0.03288288	-0.1310334	0	0	0	0
28.14329	-0.03288288	-0.1310334	0	0	0	0
28.15985	-0.03288288	-0.1310334	0	0	0	0
28.17642	-0.03288288	-0.1310334	0	0	0	0
28.19299	-0.03288288	-0.1310334	0	0	0	0
28.20979	-0.03288288	-0.1310334	0	0	0	0
28.22612	-0.03288288	-0.1310334	0	0	0	0
28.24302	-0.03288288	-0.1310334	0	0	0	0
28.2595	-0.03288288	-0.1310334	0	0	0	0
28.27582	-0.03288288	-0.1310334	0	0	0	0
28.29239	-0.03288288	-0.1310334	0	0	0	0
28.30896	-0.03288288	-0.1310334	0	0	0	0
28.32552	-0.03285659	-0.1310531	0.001587195	-0.001190228	0.04790716	-0.03592528
28.34209	-0.03285659	-0.1310531	0	0	-0.04790716	0.03592528
28.35866	-0.03285659	-0.1310531	0	0	0	0
28.37522	-0.03293546	-0.1311911	-0.004761361	-0.008332494	-0.1437064	-0.2514896
28.39194	-0.03293546	-0.1311911	0	0	0.143064	0.2503654
28.40835	-0.03293546	-0.1311911	0	0	0	0
28.42492	-0.03432861	-0.1329071	-0.08411055	-0.103602	-2.550353	-3.141361
28.44148	-0.03432861	-0.1329071	0	0	2.538754	3.127074
28.45805	-0.03432861	-0.1329071	0	0	0	0
28.47512	-0.03871748	-0.1628679	-0.2571272	-1.75529	-7.644383	-52.1847
28.49118	-0.03871748	-0.1628679	0	0	7.760561	52.97779
28.50775	-0.03871748	-0.1628679	0	0	0	0
28.52839	-0.02128626	-0.2453091	0.844794	-3.995464	22.70895	-107.4023
28.54495	-0.02128626	-0.2453091	0	0	-22.70895	107.4023
28.56152	-0.01234148	-0.2526753	0.539908	-0.4446235	16.29445	-13.41877
28.57819	-0.01234148	-0.2526753	0	0	-16.24396	13.37718
28.59466	-0.01234148	-0.2526753	0	0	0	0
28.61122	-0.01773498	-0.2475743	-0.3256275	0.3079676	-9.858669	9.324
28.6281	-0.01773498	-0.2475743	0	0	9.736659	-9.208608
28.64436	-0.01773498	-0.2475743	0	0	0	0
28.66092	-0.01747191	-0.2314623	0.01587932	0.9725223	0.483778	29.62878
28.67749	-0.01747191	-0.2314623	0	0	-0.4792387	-29.35078
28.69406	-0.01747191	-0.2314623	0	0	0	0
28.71062	-0.01486733	-0.2157022	0.1572128	0.9512776	4.744691	28.70961
28.72719	-0.01486733	-0.2157022	0	0	-4.744965	-28.71127
28.74376	-0.01486733	-0.2157022	0	0	0	0
28.76032	-0.01473578	-0.2161731	0.007942217	-0.02842692	0.2397242	-0.858025
28.77689	-0.01473578	-0.2161731	0	0	-0.2397242	0.858025
28.79346	-0.01473578	-0.2161731	0	0	0	0
28.81005	-0.01449898	-0.2175863	0.01427305	-0.08518302	0.4304641	-2.569054
28.82659	-0.01449898	-0.2175863	0	0	-0.430811	2.571125
28.84321	-0.01449898	-0.2175863	0	0	0	0
28.85972	-0.01457791	-0.2183855	-0.004780824	-0.04840663	-0.1442939	-1.460999
28.87629	-0.01457791	-0.2183855	0	0	0.1445268	1.463358
28.89296	-0.01457791	-0.2183855	0	0	0	0
28.90942	-0.01360442	-0.2317717	0.05914818	-0.8133311	1.785301	-24.54921
28.92599	-0.01360442	-0.2317717	0	0	-1.790765	24.62434
28.94288	-0.01360442	-0.2317717	0	0	0	0
28.95912	-0.01912924	-0.2741839	-0.3402557	-2.61203	-10.26953	-78.83576
28.97569	-0.01912924	-0.2741839	0	0	10.37283	79.62879
28.99225	-0.01912924	-0.2741839	0	0	0	0
29.00882	-0.01497257	-0.2997413	0.2509554	-1.543005	7.574722	-46.57334
29.02538	-0.01497257	-0.2997413	0	0	-7.574722	46.57334
29.04195	-0.01497257	-0.2997413	0	0	0	0
29.05852	-0.002473679	-0.3099235	0.7544343	-0.6145954	22.76887	-18.54852
29.07509	-0.002473679	-0.3099235	0	0	-22.76887	18.54852
29.09165	-0.002473679	-0.3099235	0	0	0	0
29.10822	0.005763094	-0.3167512	0.4971726	-0.4121233	15.00556	-12.43862
29.12478	0.005763094	-0.3167512	0	0	-15.00556	12.43862
29.14135	0.005763094	-0.3167512	0	0	0	0
29.15814	0.007315659	-0.3180681	0.09246748	-0.07843207	2.772005	-2.351249
29.17448	0.007315659	-0.3180681	0	0	-2.790835	2.367221
29.19111	0.007315659	-0.3180681	0	0	0	0
29.20768	0.007315659	-0.3181113	0	-0.002605965	0	-0.07850809
29.22424	0.007315659	-0.3181113	0	0	0	0.07864366
29.24082	0.007315659	-0.3181113	0	0	0	0
29.30054	-0.01407802	-0.3396906	-0.3581927	-0.3613006	-4.694552	-4.735283
29.31711	-0.01407802	-0.3396906	0	0	4.694669	4.735402
29.33368	-0.009157639	-0.3515191	0.297063	-0.7141348	8.96538	-21.55263
29.3503	-0.009157639	-0.3515191	0	0	-8.950438	21.51671
29.36681	-0.009157639	-0.3515191	0	0	0	0
29.38338	0.0003947368	-0.3596213	0.5765826	-0.4890485	17.4314	-14.78504
29.40094	0.0003947368	-0.3596213	0	0	-16.89367	14.32895
29.41651	0.0003947368	-0.3596213	0	0	0	0
29.43308	-0.003526301	-0.3630995	-0.2367288	-0.2099947	-7.367133	-6.535151
29.44965	-0.003526301	-0.3630995	0	0	7.144902	6.338017
29.46621	-0.003526301	-0.3630995	0	0	0	0
29.48278	-0.01152581	-0.3698111	-0.482851	-0.4051095	-14.57247	-12.22623
29.50021	-0.01152581	-0.3698111	0	0	14.20452	11.91752
29.51622	-0.01152581	-0.3698111	0	0	0	0
29.53248	-0.01155212	-0.3697888	-0.00161861	0.001371289	-0.05015174	0.04248866
29.54905	-0.01155212	-0.3697888	0	0	0.04931243	-0.0417776
29.56561	-0.01155212	-0.3697888	0	0	0	0
29.58218	-0.01155212	-0.3697888	0	0	0	0
29.59917	-0.01155212	-0.3697888	0	0	0	0
29.61531	-0.01155212	-0.3697888	0	0	0	0
29.63188	-0.01155212	-0.3697888	0	0	0	0
29.64845	-0.01155212	-0.3697888	0	0	0	0
29.66521	-0.01155212	-0.3697888	0	0	0	0
29.68172	-0.01155212	-0.3697888	0	0	0	0
29.69814	-0.01155212	-0.3697888	0	0	0	0
29.71471	-0.01155212	-0.3697888	0	0	0	0
29.73128	-0.01155212	-0.3697888	0	0	0	0
29.74785	-0.01155212	-0.3697888	0	0	0	0
29.76441	-0.01155212	-0.3697888	0	0	0	0
29.78098	-0.01155212	-0.3697888	0	0	0	0
29.79762	-0.01155212	-0.3697888	0	0	0	0
29.81411	-0.01155212	-0.3697888	0	0	0	0
29.83068	-0.01155212	-0.3697888	0	0	0	0
29.84725	-0.01155212	-0.3697888	0	0	0	0
29.86382	-0.01155212	-0.3697888	0	0	0	0
29.8862	-0.01155212	-0.3697888	0	0	0	0
29.90277	-0.01155212	-0.3697888	0	0	0	0
29.91972	-0.01155212	-0.3697888	0	0	0	0
29.93674	-0.01155212	-0.3697888	0	0	0	0
29.95247	-0.01155212	-0.3697888	0	0	0	0
29.96934	-0.01155212	-0.3697888	0	0	0	0
29.98564	-0.01155212	-0.3697888	0	0	0	0
30.00217	-0.01155212	-0.3697888	0	0	0	0
30.01906	-0.01155212	-0.3697888	0	0	0	0
30.03531	-0.01155212	-0.3697888	0	0	0	0
30.05192	-0.01155212	-0.3697888	0	0	0	0
30.06844	-0.01157843	-0.3697665	-0.001592579	0.00134748	-0.04807521	0.0406764
30.08501	-0.01157843	-0.3697665	0	0	0.04813063	-0.0407233
30.10177	-0.01157843	-0.3697665	0	0	0	0
30.11814	-0.01160474	-0.3697442	-0.001607482	0.001360041	-0.0485139	0.04104613
30.13471	-0.01160474	-0.3697442	0	0	0.04880609	-0.04129334
30.15128	-0.01160474	-0.3697442	0	0	0	0
30.16784	-0.01165737	-0.3696552	-0.003176414	0.005376827	-0.09586436	0.162273
30.18513	-0.01165737	-0.3696552	0	0	0.09382814	-0.1588262
30.20098	-0.01165737	-0.3696552	0	0	0	0
30.21754	-0.01186786	-0.3694325	-0.01270566	0.01343937	-0.3919637	0.4145985
30.23411	-0.01186786	-0.3694325	0	0	0.3834575	-0.405601
30.25068	-0.01186786	-0.3694325	0	0	0	0
30.26725	-0.01218361	-0.3686757	-0.01905832	0.04568055	-0.5751811	1.378642
30.28381	-0.01218361	-0.3686757	0	0	0.5751811	-1.378642
30.30038	-0.01218361	-0.3686757	0	0	0	0
30.31694	-0.01915555	-0.3615478	-0.4209242	0.4303406	-12.70498	12.9892
30.33351	-0.01915555	-0.3615478	0	0	12.70425	-12.98845
30.35008	-0.01915555	-0.3615478	0	0	0	0
30.36665	-0.04231683	-0.3392096	-1.398017	1.348339	-42.19225	40.69295
30.38321	-0.04231683	-0.3392096	0	0	42.19468	-40.69529
30.40028	-0.04231683	-0.3392096	0	0	0	0
30.41635	-0.07661291	-0.3095581	-2.134753	1.845651	-64.42697	55.70187
30.43291	-0.07661291	-0.3095581	0	0	65.42117	-56.56142
30.44948	-0.07661291	-0.3095581	0	0	0	0
30.46604	-0.08354194	-0.2835889	-0.4183336	1.567862	-12.62679	47.32362
30.48261	-0.08354194	-0.2835889	0	0	12.62606	-47.32089
30.49918	-0.08354194	-0.2835889	0	0	0	0
30.51575	-0.05706954	-0.2510082	1.597878	1.966577	48.22404	59.35141
30.53231	-0.05706954	-0.2510082	0	0	-48.22681	-59.35483
30.54888	-0.05706954	-0.2510082	0	0	0	0
30.56544	-0.04166009	-0.223598	0.9302232	1.654673	28.07904	49.94676
30.58201	-0.04166009	-0.223598	0	0	-28.07257	-49.93526
30.5987	-0.04166009	-0.223598	0	0	0	0
30.61514	-0.05197945	-0.1963857	-0.6275741	1.654924	-18.9424	49.95146
30.63198	-0.05197945	-0.1963857	0	0	18.85772	-49.72816
30.64828	-0.05197945	-0.1963857	0	0	0	0
30.66484	-0.0641487	-0.160651	-0.7346219	2.157198	-22.35236	65.63712
30.68143	-0.0641487	-0.160651	0	0	22.16073	-65.0744
30.69798	-0.0641487	-0.160651	0	0	0	0
30.71454	-0.06624503	-0.1288459	-0.1265495	1.919981	-3.82169	57.98187
30.73111	-0.06624503	-0.1288459	0	0	3.81927	-57.94516
30.74768	-0.06624503	-0.1288459	0	0	0	0
30.76424	-0.05672854	-0.1112778	0.5745489	1.060657	17.34192	32.01438
30.7816	-0.05672854	-0.1112778	0	0	-16.94011	-31.27262
30.79737	-0.05672854	-0.1112778	0	0	0	0
30.81411	-0.03976849	-0.09742665	1.013328	0.8275748	31.16351	25.45094
30.83062	-0.03976849	-0.09742665	0	0	-30.47702	-24.89029
30.84714	-0.03976849	-0.09742665	0	0	0	0
30.86364	-0.01994472	-0.08279648	1.201128	0.8864465	36.37786	26.84728
30.88021	-0.01994472	-0.08279648	0	0	-36.31912	-26.80393
30.89678	-0.01994472	-0.08279648	0	0	0	0
30.91334	-0.007236716	-0.073466	0.7671452	0.5632538	23.15382	17.00001
30.92991	-0.007236716	-0.073466	0	0	-23.15249	-16.99903
30.94648	-0.007236716	-0.073466	0	0	0	0
30.96304	-0.0004473684	-0.06857187	0.4099002	0.2954779	12.37224	8.918567
30.97961	-0.0004473684	-0.06857187	0	0	-12.37081	-8.91754
30.99618	-0.0004473684	-0.06857187	0	0	0	0
31.01275	-0.0003947368	-0.06861038	0.003176848	-0.002324142	0.09587746	-0.07014275
31.02931	-0.0003947368	-0.06861038	0	0	-0.09587746	0.07014275
31.04595	-0.0003947368	-0.06861038	0	0	0	0
31.06293	-0.0003157895	-0.06866813	0.004648603	-0.003400859	0.1382734	-0.1011591
31.07901	-0.0003157895	-0.06866813	0	0	-0.1405946	0.1028572
31.09563	-0.0003157895	-0.06866813	0	0	0	0
31.11214	-0.0002894737	-0.06872589	0.001593928	-0.003498296	0.04811316	-0.105597
31.12871	-0.0002894737	-0.06872589	0	0	-0.04818529	0.1057553
31.14528	-0.0002894737	-0.06872589	0	0	0	0
31.16199	-0.0002631579	-0.06878365	0.001574467	-0.00345558	0.04730783	-0.1038294
31.17841	-0.0002631579	-0.06878365	0	0	-0.04752026	0.1042956
31.19497	-0.0002631579	-0.06878365	0	0	0	0
31.21154	-0.0002894737	-0.0688029	-0.001588425	-0.001162071	-0.04794427	-0.03507541
31.22811	-0.0002894737	-0.0688029	0	0	0.047936	0.03506936
31.24468	-0.0002894737	-0.0688029	0	0	0	0
31.26124	-0.0003157895	-0.06882215	-0.001588423	-0.001162071	-0.04794146	-0.0350734
31.27832	-0.0003157895	-0.06882215	0	0	0.04720771	0.03453659
31.29492	-0.0003157895	-0.06882215	0	0	0	0
31.31094	-0.0006052631	-0.06911097	-0.01806757	-0.01802641	-0.5539213	-0.5526596
31.32751	-0.0006052631	-0.06911097	0	0	0.5543427	0.5530801
31.34411	-0.0006052631	-0.06911097	0	0	0	0
31.36064	-0.0008684208	-0.06934203	-0.01592089	-0.01397929	-0.4805764	-0.4219687
31.37721	-0.0008684208	-0.06934203	0	0	0.4809918	0.4223334
31.39378	-0.0008684208	-0.06934203	0	0	0	0
31.41076	-0.0008684208	-0.06965016	0	-0.01813911	0	-0.5406239
31.42691	-0.0008684208	-0.06965016	0	0	0	0.5474708
31.44432	-0.0008684208	-0.06965016	0	0	0	0
31.46007	-0.00173684	-0.07082519	-0.05516805	-0.07464615	-1.663921	-2.2514
31.47661	-0.00173684	-0.07082519	0	0	1.708645	2.311914
31.49318	-0.00173684	-0.07082519	0	0	0	0
31.50975	-0.003578932	-0.0722513	-0.1111889	-0.08608006	-3.355687	-2.597901
31.52631	-0.003578932	-0.0722513	0	0	3.355687	2.597901
31.54288	-0.003578932	-0.0722513	0	0	0	0
31.55945	-0.003578932	-0.0722513	0	0	0	0
31.57602	-0.003578932	-0.0722513	0	0	0	0
31.59258	-0.003578932	-0.0722513	0	0	0	0
31.60915	-0.003605247	-0.07234769	-0.00158877	-0.005819341	-0.04795468	-0.1756483
31.62625	-0.003605247	-0.07234769	0	0	0.04718591	0.1728324
31.64228	-0.003605247	-0.07234769	0	0	0	0
31.65884	-0.00192105	-0.07450759	0.1016818	-0.1304019	3.119946	-4.00118
31.67541	-0.00192105	-0.07450759	0	0	-3.068938	3.935764
31.69198	-0.00192105	-0.07450759	0	0	0	0
31.70854	0.01452529	-0.08686318	0.992932	-0.745957	29.9702	-22.51562
31.72521	0.01452529	-0.08686318	0	0	-29.88417	22.45099
31.74168	0.01452529	-0.08686318	0	0	0	0
31.75824	0.02115474	-0.09175134	0.4002002	-0.295084	12.11363	-8.931875
31.77481	0.02115474	-0.09175134	0	0	-12.07876	8.906166
31.7918	0.02115474	-0.09175134	0	0	0	0
31.80795	0.02107583	-0.09165427	-0.004886388	0.006010929	-0.1474715	0.1814102
31.82492	0.02107583	-0.09165427	0	0	0.1475054	-0.181452
31.84108	0.02107583	-0.09165427	0	0	0	0
31.85824	0.02107583	-0.09165427	0	0	0	0
31.87447	0.02107583	-0.09165427	0	0	0	0
31.89078	0.02107583	-0.09165427	0	0	0	0
31.90735	0.02107583	-0.09165427	0	0	0	0
31.92391	0.02107583	-0.09165427	0	0	0	0
31.94074	0.02107583	-0.09165427	0	0	0	0
31.95705	0.02107583	-0.09165427	0	0	0	0
31.97361	0.02107583	-0.09165427	0	0	0	0
31.99018	0.02107583	-0.09165427	0	0	0	0
32.00675	0.02110213	-0.09167369	0.001587729	-0.001171965	0.04791776	-0.03536997
32.02332	0.02110213	-0.09167369	0	0	-0.04791776	0.03536997
32.03988	0.02110213	-0.09167369	0	0	0	0
32.05645	0.02110213	-0.09167369	0	0	0	0
32.07302	0.02110213	-0.09167369	0	0	0	0
32.08958	0.02110213	-0.09167369	0	0	0	0
32.10615	0.02110213	-0.09171251	0	-0.00234348	0	-0.07072637
32.12274	0.02110213	-0.09171251	0	0	0	0.07067755
32.13928	0.02110213	-0.09171251	0	0	0	0
32.15585	0.02112843	-0.09173193	0.001587729	-0.001171965	0.04795641	-0.0353985
32.17295	0.02112843	-0.09173193	0	0	-0.04715768	0.03480893
32.18901	0.02112843	-0.09173193	0	0	0	0
32.20555	0.02112843	-0.09180959	0	-0.004696511	0	-0.144063
32.22217	0.02112843	-0.09180959	0	0	0	0.1416431
32.2394	0.02112843	-0.09180959	0	0	0	0
32.25525	0.02097061	-0.09200376	-0.009959809	-0.01225287	-0.3011076	-0.3704322
32.27182	0.02097061	-0.09200376	0	0	0.3072737	0.3780178
32.28852	0.02097061	-0.09200376	0	0	0	0
32.30502	0.02083909	-0.09210084	-0.007971685	-0.005884664	-0.2400884	-0.1772322
32.32151	0.02083909	-0.09210084	0	0	0.2416152	0.1783593
32.33819	0.02083909	-0.09210084	0	0	0	0
32.35466	0.02031299	-0.09248923	-0.03194628	-0.02358409	-0.9639188	-0.7116053
32.37133	0.02031299	-0.09248923	0	0	0.9639188	0.7116053
32.38778	0.02031299	-0.09248923	0	0	0	0
32.40434	0.0001052632	-0.1073685	-1.220022	-0.8983232	-36.95649	-27.2117
32.42091	0.0001052632	-0.1073685	0	0	36.82457	27.11457
32.4381	0.0001052632	-0.1073685	0	0	0	0
32.45408	-0.027309	-0.1277627	-1.714742	-1.27564	-51.69151	-38.45462
32.47062	-0.027309	-0.1277627	0	0	52.72837	39.22596
32.48727	-0.027309	-0.1277627	0	0	0	0
32.50374	-0.03703569	-0.1349797	-0.5906401	-0.4382456	-17.83171	-13.23085
32.52031	-0.03703569	-0.1349797	0	0	17.87494	13.26292
32.5374	-0.03703569	-0.1349797	0	0	0	0
32.55345	-0.03695685	-0.134881	0.004911358	0.006150858	0.1482251	0.1856333
32.57001	-0.03695685	-0.134881	0	0	-0.1506004	-0.1886081
32.58694	-0.03695685	-0.134881	0	0	0	0
32.60389	-0.03677289	-0.1346243	0.01085651	0.01514925	0.3204198	0.4471161
32.61971	-0.03677289	-0.1346243	0	0	-0.3313504	-0.4623687
32.63684	-0.03677289	-0.1346243	0	0	0	0
32.65289	-0.03672033	-0.1345453	0.003275873	0.004922284	0.09872963	0.1483499
32.66941	-0.03672033	-0.1345453	0	0	-0.1005916	-0.1511476
32.68598	-0.03672033	-0.1345453	0	0	0	0
32.7027	-0.03669405	-0.1345651	0.00157168	-0.001180876	0.04721595	-0.03547555
32.71979	-0.03669405	-0.1345651	0	0	-0.04648611	0.03492719
32.73593	-0.03669405	-0.1345651	0	0	0	0
32.75224	-0.03672033	-0.1345453	-0.001611008	0.001210426	-0.04963754	0.03729501
32.76884	-0.03672033	-0.1345453	0	0	0.04894717	-0.0367763
32.78576	-0.03672033	-0.1345453	0	0	0	0
32.80194	-0.03672033	-0.1345453	0	0	0	0
32.81886	-0.03672033	-0.1345453	0	0	0	0
32.83529	-0.03672033	-0.1345453	0	0	0	0
32.85165	-0.03672033	-0.1345453	0	0	0	0
32.86821	-0.03672033	-0.1345453	0	0	0	0
32.88574	-0.03672033	-0.1345453	0	0	0	0
32.90134	-0.03674661	-0.1345256	-0.001684099	0.001265163	-0.05083206	0.03818709
32.91792	-0.03674661	-0.1345256	0	0	0.05233864	-0.03931889
32.93471	-0.03674661	-0.1345256	0	0	0	0
32.95105	-0.03672033	-0.1345058	0.001608979	0.00120873	0.04856468	0.03648374
32.96761	-0.03672033	-0.1345058	0	0	-0.04890252	-0.03673754
32.9844	-0.03672033	-0.1345058	0	0	0	0
33.00092	-0.03672033	-0.1345058	0	0	0	0
33.01731	-0.03672033	-0.1345058	0	0	0	0
33.03388	-0.03672033	-0.1345058	0	0	0	0
33.05045	-0.03669405	-0.1345256	0.001586155	-0.001191752	0.04787026	-0.03596716
33.06702	-0.03669405	-0.1345256	0	0	-0.04787026	0.03596716
33.08389	-0.03669405	-0.1345256	0	0	0	0
33.10015	-0.03666777	-0.1345453	0.00161615	-0.001214117	0.04877551	-0.03664213
33.11672	-0.03666777	-0.1345453	0	0	-0.04922892	0.03698275
33.13329	-0.03666777	-0.1345453	0	0	0	0
33.15658	-0.03666777	-0.1345453	0	0	0	0
33.17315	-0.03666777	-0.1345453	0	0	0	0
33.1906	-0.03666777	-0.1345453	0	0	0	0
33.20629	-0.03666777	-0.1345453	0	0	0	0
33.22285	-0.03666777	-0.1345453	0	0	0	0
33.23942	-0.03666777	-0.1345453	0	0	0	0
33.25599	-0.03666777	-0.1345453	0	0	0	0
33.27266	-0.03666777	-0.1345453	0	0	0	0
33.28912	-0.03666777	-0.1345453	0	0	0	0
33.30569	-0.03666777	-0.1345453	0	0	0	0
33.32256	-0.03666777	-0.1345453	0	0	0	0
33.3469	-0.03666777	-0.1345453	0	0	0	0
33.36346	-0.03666777	-0.1345453	0	0	0	0
33.38003	-0.03669405	-0.1345256	-0.00158638	0.001191752	-0.04787704	0.03596716
33.3966	-0.03669405	-0.1345256	0	0	0.04787153	-0.03596302
33.41339	-0.03669405	-0.1345256	0	0	0	0
33.42974	-0.03669405	-0.1345256	0	0	0	0
33.4463	-0.03669405	-0.1345256	0	0	0	0
33.4632	-0.03669405	-0.1345256	0	0	0	0
33.47943	-0.03669405	-0.1344861	0	0.002431657	0	0.073396
33.496	-0.03669405	-0.1344861	0	0	0	-0.07413004
33.51257	-0.03669405	-0.1344861	0	0	0	0
33.53088	-0.03669405	-0.1344861	0	0	0	0
33.54778	-0.03669405	-0.1344861	0	0	0	0
33.5641	-0.03669405	-0.1344861	0	0	0	0
33.58058	-0.03666777	-0.1344664	0.001594826	0.001198097	0.04861327	0.03652024
33.59721	-0.03666777	-0.1344664	0	0	-0.04817076	-0.03618782
33.61372	-0.03666777	-0.1344664	0	0	0	0
33.63028	-0.03664149	-0.1344466	0.00158638	0.001191752	0.0479654	0.03603354
33.64744	-0.03664149	-0.1344466	0	0	-0.04703767	-0.03533659
33.66368	-0.03664149	-0.1344466	0	0	0	0
33.67998	-0.03664149	-0.1344466	0	0	0	0
33.69655	-0.03664149	-0.1344466	0	0	0	0
33.71312	-0.03664149	-0.1344466	0	0	0	0
33.72968	-0.03661521	-0.1344664	0.00158652	-0.001192027	0.0478868	-0.03597959
33.74625	-0.03661521	-0.1344664	0	0	-0.04788128	0.03597545
33.76282	-0.03661521	-0.1344664	0	0	0	0
33.77938	-0.03661521	-0.1344664	0	0	0	0
33.79631	-0.03661521	-0.1344664	0	0	0	0
33.81252	-0.03661521	-0.1344664	0	0	0	0
33.85324	-0.03661521	-0.1345058	0	-0.0009697923	0	-0.01703466
33.86981	-0.03661521	-0.1345058	0	0	0	0.01692691
33.88763	-0.03661521	-0.1345058	0	0	0	0
33.90421	-0.03661521	-0.1345058	0	0	0	0
33.92077	-0.03661521	-0.1345058	0	0	0	0
33.93733	-0.03661521	-0.1345058	0	0	0	0
33.95416	-0.03661521	-0.1345058	0	0	0	0
33.97047	-0.03661521	-0.1345058	0	0	0	0
33.98704	-0.03661521	-0.1345058	0	0	0	0
34.00361	-0.03661521	-0.1345058	0	0	0	0
34.02017	-0.03661521	-0.1345058	0	0	0	0
34.03674	-0.03661521	-0.1345058	0	0	0	0
34.05412	-0.03661521	-0.1345058	0	0	0	0
34.07003	-0.03661521	-0.1345058	0	0	0	0
34.08643	-0.03661521	-0.1345058	0	0	0	0
34.103	-0.03661521	-0.1345058	0	0	0	0
34.11957	-0.03661521	-0.1345058	0	0	0	0
34.13614	-0.03661521	-0.1345058	0	0	0	0
34.1527	-0.03661521	-0.1345058	0	0	0	0
34.16927	-0.03661521	-0.1345058	0	0	0	0
34.18585	-0.03661521	-0.1345058	0	0	0	0
34.2024	-0.03661521	-0.1345058	0	0	0	0
34.21922	-0.03661521	-0.1345058	0	0	0	0
34.23553	-0.03658893	-0.1344861	0.00161086	0.001210143	0.04862145	0.03652639
34.2521	-0.03658893	-0.1344861	0	0	-0.04898809	-0.03680182
34.26867	-0.03658893	-0.1344861	0	0	0	0
34.28523	-0.03658893	-0.1344861	0	0	0	0
34.3018	-0.03658893	-0.1344861	0	0	0	0
34.31837	-0.03658893	-0.1344861	0	0	0	0
34.33494	-0.03658893	-0.1344861	0	0	0	0
34.35151	-0.03658893	-0.1344861	0	0	0	0
34.36879	-0.03658893	-0.1344861	0	0	0	0
34.38464	-0.03658893	-0.1344861	0	0	0	0
34.40121	-0.03658893	-0.1344861	0	0	0	0
34.41777	-0.03658893	-0.1344861	0	0	0	0
34.43434	-0.03658893	-0.1344861	0	0	0	0
34.45091	-0.03658893	-0.1344861	0	0	0	0
34.46748	-0.03658893	-0.1344861	0	0	0	0
34.48404	-0.03658893	-0.1344861	0	0	0	0
34.50061	-0.03658893	-0.1344861	0	0	0	0
34.51718	-0.03658893	-0.1344861	0	0	0	0
34.54336	-0.03658893	-0.1344861	0	0	0	0
34.55993	-0.03658893	-0.1344861	0	0	0	0
34.5765	-0.03658893	-0.1344861	0	0	0	0
34.59307	-0.03658893	-0.1344861	0	0	0	0
34.60963	-0.03658893	-0.1344861	0	0	0	0
34.62699	-0.03658893	-0.1344861	0	0	0	0
34.64277	-0.03658893	-0.1344861	0	0	0	0
34.65934	-0.03658893	-0.1344861	0	0	0	0
34.6759	-0.03658893	-0.1344861	0	0	0	0
34.69248	-0.03658893	-0.1344861	0	0	0	0
34.70914	-0.03658893	-0.1344861	0	0	0	0
34.7256	-0.03658893	-0.1344861	0	0	0	0
34.74217	-0.03658893	-0.1344861	0	0	0	0
34.75874	-0.03658893	-0.1344861	0	0	0	0
34.7753	-0.03658893	-0.1344861	0	0	0	0
34.79187	-0.03658893	-0.1344861	0	0	0	0
34.80844	-0.03658893	-0.1344861	0	0	0	0
34.825	-0.03661521	-0.1344664	-0.001586745	0.001192027	-0.04789358	0.03597959
34.84157	-0.03661521	-0.1344664	0	0	0.04789358	-0.03597959
34.85814	-0.03661521	-0.1344664	0	0	0	0
34.8747	-0.03661521	-0.1344664	0	0	0	0
34.89127	-0.03661521	-0.1344664	0	0	0	0
34.90784	-0.03661521	-0.1344664	0	0	0	0
34.9244	-0.03661521	-0.1344664	0	0	0	0
34.94097	-0.03661521	-0.1344664	0	0	0	0
34.95779	-0.03661521	-0.1344664	0	0	0	0
34.97411	-0.03661521	-0.1344664	0	0	0	0
34.99075	-0.03661521	-0.1344664	0	0	0	0
35.00724	-0.03661521	-0.1344664	0	0	0	0
35.02388	-0.03661521	-0.1344664	0	0	0	0
35.04038	-0.03661521	-0.1344664	0	0	0	0
35.05694	-0.03661521	-0.1344664	0	0	0	0
35.07351	-0.03661521	-0.1344664	0	0	0	0
35.09019	-0.03661521	-0.1344664	0	0	0	0
35.10715	-0.03661521	-0.1344664	0	0	0	0
35.12321	-0.03661521	-0.1344664	0	0	0	0
35.13977	-0.03661521	-0.1344664	0	0	0	0
35.15634	-0.03661521	-0.1344664	0	0	0	0
35.1729	-0.03661521	-0.1344664	0	0	0	0
35.18948	-0.03661521	-0.1344664	0	0	0	0
35.20614	-0.03661521	-0.1344664	0	0	0	0
35.22261	-0.03661521	-0.1344664	0	0	0	0
35.23917	-0.03661521	-0.1344664	0	0	0	0
35.25574	-0.03661521	-0.1344664	0	0	0	0
35.2723	-0.03658893	-0.1344861	0.001586745	-0.001192027	0.04789358	-0.03597959
35.28892	-0.03658893	-0.1344861	0	0	-0.0478275	0.03592994
35.30544	-0.03658893	-0.1344861	0	0	0	0
35.322	-0.03658893	-0.1344861	0	0	0	0
35.33857	-0.03658893	-0.1344861	0	0	0	0
35.35514	-0.03658893	-0.1344861	0	0	0	0
35.3717	-0.03658893	-0.1344861	0	0	0	0
35.38852	-0.03658893	-0.1344861	0	0	0	0
35.40544	-0.03658893	-0.1344861	0	0	0	0
35.42267	-0.03658893	-0.1344861	0	0	0	0
35.43924	-0.03658893	-0.1344861	0	0	0	0
35.45581	-0.03658893	-0.1344861	0	0	0	0
35.47238	-0.03658893	-0.1344861	0	0	0	0
35.48895	-0.03658893	-0.1344861	0	0	0	0
35.50551	-0.03658893	-0.1344861	0	0	0	0
35.52208	-0.03658893	-0.1344861	0	0	0	0
35.53904	-0.03658893	-0.1344861	0	0	0	0
35.55524	-0.03658893	-0.1344861	0	0	0	0
35.57178	-0.03658893	-0.1344861	0	0	0	0
35.58834	-0.03658893	-0.1344861	0	0	0	0
35.60491	-0.03658893	-0.1344861	0	0	0	0
35.62148	-0.03658893	-0.1344861	0	0	0	0
35.63836	-0.03658893	-0.1344861	0	0	0	0
35.65461	-0.03658893	-0.1344861	0	0	0	0
35.67117	-0.03658893	-0.1344861	0	0	0	0
35.68774	-0.03658893	-0.1344861	0	0	0	0
35.70431	-0.03658893	-0.1344861	0	0	0	0
35.72087	-0.03658893	-0.1344861	0	0	0	0
35.73831	-0.03658893	-0.1344861	0	0	0	0
35.75401	-0.03658893	-0.1344861	0	0	0	0
35.77057	-0.03658893	-0.1344861	0	0	0	0
35.78714	-0.03658893	-0.1344861	0	0	0	0
35.80395	-0.03658893	-0.1344861	0	0	0	0
35.82027	-0.03658893	-0.1344861	0	0	0	0
35.83684	-0.03658893	-0.1344861	0	0	0	0
35.8534	-0.03658893	-0.1344861	0	0	0	0
35.86997	-0.03661521	-0.1344664	-0.001586745	0.001192027	-0.04789358	0.03597959
35.88654	-0.03661521	-0.1344664	0	0	0.04789358	-0.03597959
35.90311	-0.03661521	-0.1344664	0	0	0	0
35.91967	-0.03664149	-0.1344466	-0.001586155	0.001191752	-0.04786475	0.03596302
35.93624	-0.03664149	-0.1344466	0	0	0.04787026	-0.03596716
35.95281	-0.03664149	-0.1344466	0	0	0	0
35.96967	-0.03842844	-0.1254207	-0.1060058	0.5354347	-3.17151	16.01929
35.98597	-0.03842844	-0.1254207	0	0	3.196316	-16.14458
36.00295	-0.03842844	-0.1254207	0	0	0	0
36.0196	-0.04134485	-0.01192622	-0.1751073	6.814452	-5.206821	202.6279
36.03586	-0.04134485	-0.01192622	0	0	5.320275	-207.0431
36.0522	-0.04134485	-0.01192622	0	0	0	0
36.06877	-0.02304855	0.06622914	1.104367	4.717467	33.55779	143.3471
36.08533	-0.02304855	0.06622914	0	0	-33.33369	-142.3898
36.10232	-0.02304855	0.06622914	0	0	0	0
36.11847	-0.02262772	0.0655266	0.02606162	-0.04350721	0.7865413	-1.31305
36.13504	-0.02262772	0.0655266	0	0	-0.7966299	1.329892
36.15185	-0.02262772	0.0655266	0	0	0	0
36.16817	-0.02265402	0.06558207	-0.001611739	0.003399022	-0.04864238	0.1025827
36.18474	-0.02265402	0.06558207	0	0	0.04900913	-0.1033561
36.20135	-0.02265402	0.06558207	0	0	0	0
36.21787	-0.02262772	0.06560057	0.001591648	0.001119034	0.04803604	0.03377252
36.23479	-0.02262772	0.06560057	0	0	-0.04758679	-0.03345667
36.25106	-0.02262772	0.06560057	0	0	0	0
36.2678	-0.02262772	0.06556359	0	-0.002209061	0	-0.06692385
36.28414	-0.02262772	0.06556359	0	0	0	0.06678492
36.30071	-0.02262772	0.06556359	0	0	0	0
36.31727	-0.02262772	0.06556359	0	0	0	0
36.33384	-0.02262772	0.06556359	0	0	0	0
36.35083	-0.02262772	0.06556359	0	0	0	0
36.36697	-0.02260141	0.0655451	0.001629643	-0.001145747	0.04918839	-0.0345827
36.38354	-0.02260141	0.0655451	0	0	-0.04982518	0.03503041
36.40024	-0.02260141	0.0655451	0	0	0	0
36.41667	-0.02257511	0.0655266	0.001601259	-0.001125791	0.04833164	-0.03398035
36.43324	-0.02257511	0.0655266	0	0	-0.04852721	0.03411784
36.44981	-0.02257511	0.0655266	0	0	0	0
36.46637	-0.02252251	0.06545265	0.003175965	-0.004464929	0.09586184	-0.1347673
36.48344	-0.02252251	0.06545265	0	0	-0.0944374	0.1327648
36.49954	-0.02252251	0.06545265	0	0	0	0
36.51608	-0.0224436	0.0653602	0.004772741	-0.005591688	0.1462302	-0.1713216
36.53264	-0.0224436	0.0653602	0	0	-0.1442076	0.168952
36.54921	-0.0224436	0.0653602	0	0	0	0
36.56578	-0.0224436	0.0653602	0	0	0	0
36.58234	-0.0224436	0.0653602	0	0	0	0
36.59891	-0.0224436	0.0653602	0	0	0	0
36.61548	-0.0224436	0.0653602	0	0	0	0
36.63205	-0.0224436	0.0653602	0	0	0	0
36.64878	-0.0224436	0.0653602	0	0	0	0
36.66518	-0.0224699	0.06534171	-0.001604239	-0.001127886	-0.04842161	-0.0340436
36.68175	-0.0224699	0.06534171	0	0	0.04866254	0.03421299
36.69831	-0.0224699	0.06534171	0	0	0	0
36.71488	-0.0224699	0.06534171	0	0	0	0
36.73145	-0.0224699	0.06534171	0	0	0	0
36.74802	-0.0224699	0.06534171	0	0	0	0
36.76458	-0.0224699	0.06534171	0	0	0	0
36.78115	-0.0224699	0.06534171	0	0	0	0
36.79802	-0.0224699	0.06534171	0	0	0	0
36.81428	-0.0224699	0.06534171	0	0	0	0
36.83085	-0.0224699	0.06534171	0	0	0	0
36.84742	-0.0224699	0.06534171	0	0	0	0
36.86398	-0.0224699	0.06534171	0	0	0	0
36.88055	-0.0224699	0.06534171	0	0	0	0
36.89767	-0.0224699	0.06534171	0	0	0	0
36.91368	-0.0224699	0.06534171	0	0	0	0
36.93025	-0.0224699	0.06534171	0	0	0	0
36.94682	-0.0224699	0.06534171	0	0	0	0
36.96339	-0.0224962	0.06532322	-0.001587617	-0.0011162	-0.04791437	-0.03368698
36.97995	-0.0224962	0.06532322	0	0	0.04791437	0.03368698
36.99653	-0.0224962	0.06532322	0	0	0	0
37.01339	-0.02252251	0.06530473	-0.001560312	-0.001096561	-0.04667121	-0.03279974
37.02966	-0.02252251	0.06530473	0	0	0.04710116	0.0331019
37.04667	-0.02252251	0.06530473	0	0	0	0
37.06279	-0.02252251	0.06530473	0	0	0	0
37.07936	-0.02252251	0.06530473	0	0	0	0
37.09635	-0.02252251	0.06530473	0	0	0	0
37.1126	-0.02265402	0.06510133	-0.008092746	-0.01251651	-0.2434268	-0.3764919
37.12906	-0.02265402	0.06510133	0	0	0.2474589	0.382728
37.14562	-0.02265402	0.06510133	0	0	0	0
37.17214	-0.0130782	0.05766099	0.3610822	-0.2805585	8.380303	-6.51144
37.18872	-0.0130782	0.05766099	0	0	-8.378078	6.509711
37.20528	0.008631364	0.03981698	1.310996	-1.077562	39.56137	-32.51715
37.22185	0.008631364	0.03981698	0	0	-39.57504	32.52839
37.23841	0.008631364	0.03981698	0	0	0	0
37.25497	0.01665635	-0.02178393	0.4845009	-3.719095	14.62563	-112.2684
37.27154	0.01665635	-0.02178393	0	0	-14.62395	112.2554
37.28811	0.01665635	-0.02178393	0	0	0	0
37.30468	0.001684209	-0.07340814	-0.9037204	-3.116043	-27.27434	-94.04237
37.32124	0.001684209	-0.07340814	0	0	27.27434	94.04237
37.33824	0.001684209	-0.07340814	0	0	0	0
37.35437	-0.01078906	-0.1015158	-0.7730004	-1.741902	-23.33188	-52.57676
37.37094	-0.01078906	-0.1015158	0	0	23.6367	53.26364
37.38782	-0.01078906	-0.1015158	0	0	0	0
37.40407	-0.009789161	-0.1022174	0.06152963	-0.04317598	1.857182	-1.303204
37.42065	-0.009789161	-0.1022174	0	0	-1.87423	1.315167
37.47702	-0.009789161	-0.1022174	0	0	0	0
37.49423	-0.008710306	-0.1030947	0.06269462	-0.05098215	0.8520851	-0.6929005
37.5108	-0.008710306	-0.1030947	0	0	-1.856225	1.509449
37.52737	-0.008710306	-0.1030947	0	0	0	0
37.54393	-0.008683993	-0.1031142	0.001588657	-0.001177633	0.04794577	-0.03554102
37.5605	-0.008683993	-0.1031142	0	0	-0.04794577	0.03554102
37.57768	-0.008683993	-0.1031142	0	0	0	0
37.59363	-0.008657678	-0.1031337	0.001649496	-0.001222221	0.04978763	-0.03689095
37.61029	-0.008657678	-0.1031337	0	0	-0.05057375	0.03747344
37.62683	-0.008657678	-0.1031337	0	0	0	0
37.64333	-0.01044699	-0.10446	-0.1084775	-0.08040696	-3.283688	-2.433972
37.6599	-0.01044699	-0.10446	0	0	3.281036	2.432007
37.67646	-0.01044699	-0.10446	0	0	0	0
37.69303	-0.01549876	-0.1082085	-0.3049255	-0.2262598	-9.20267	-6.828536
37.70964	-0.01549876	-0.1082085	0	0	9.191031	6.819899
37.72667	-0.01549876	-0.1082085	0	0	0	0
37.74273	-0.01547245	-0.108228	0.001638236	-0.001216412	0.04951045	-0.03676217
37.7593	-0.01547245	-0.108228	0	0	-0.05020501	0.03727789
37.77587	-0.01547245	-0.108228	0	0	0	0
37.79243	-0.01539352	-0.1083257	0.00476524	-0.00589806	0.1438318	-0.1780243
37.8092	-0.01539352	-0.1083257	0	0	-0.1429758	0.1769647
37.82557	-0.01539352	-0.1083257	0	0	0	0
37.84214	-0.0153409	-0.1083257	0.003176077	0	0.09642033	0
37.8587	-0.0153409	-0.1083257	0	0	-0.09585419	0
37.87703	-0.0153409	-0.1083257	0	0	0	0
37.8936	-0.01536721	-0.1083062	-0.00158801	0.00117916	-0.04550583	0.03378988
37.91045	-0.01536721	-0.1083062	0	0	0.04752681	-0.03529054
37.92673	-0.01536721	-0.1083062	0	0	0	0
37.94368	-0.01536721	-0.1083062	0	0	0	0
37.95987	-0.01536721	-0.1083062	0	0	0	0
37.97735	-0.01536721	-0.1083062	0	0	0	0
37.99316	-0.01536721	-0.1083062	0	0	0	0
38.00957	-0.01536721	-0.1083062	0	0	0	0
38.02613	-0.01536721	-0.1083062	0	0	0	0
38.0433	-0.01536721	-0.1083062	0	0	0	0
38.05927	-0.01536721	-0.1083062	0	0	0	0
38.07624	-0.01536721	-0.1083062	0	0	0	0
38.0924	-0.01536721	-0.1083062	0	0	0	0
38.10898	-0.01536721	-0.1083062	0	0	0	0
38.12554	-0.01536721	-0.1083062	0	0	0	0
38.14244	-0.01536721	-0.1083062	0	0	0	0
38.15867	-0.01536721	-0.1083062	0	0	0	0
38.17524	-0.01536721	-0.1083062	0	0	0	0
38.19245	-0.01536721	-0.1083062	0	0	0	0
38.20837	-0.01536721	-0.1083062	0	0	0	0
38.22498	-0.01536721	-0.1083062	0	0	0	0
38.24404	-0.01536721	-0.1083062	0	0	0	0
38.26061	-0.01536721	-0.1083062	0	0	0	0
38.27718	-0.01536721	-0.1083062	0	0	0	0
38.29375	-0.01536721	-0.1083062	0	0	0	0
38.31031	-0.01536721	-0.1083062	0	0	0	0
38.32688	-0.01536721	-0.1083062	0	0	0	0
38.34344	-0.01536721	-0.1083062	0	0	0	0
38.36002	-0.01536721	-0.1083062	0	0	0	0
38.37658	-0.01536721	-0.1083062	0	0	0	0
38.39317	-0.01536721	-0.1083062	0	0	0	0
38.40972	-0.01536721	-0.1083062	0	0	0	0
38.42628	-0.01536721	-0.1083062	0	0	0	0
38.44285	-0.01536721	-0.1083062	0	0	0	0
38.4595	-0.01536721	-0.1083062	0	0	0	0
38.47598	-0.01536721	-0.1083062	0	0	0	0
38.49295	-0.01536721	-0.1083062	0	0	0	0
38.50912	-0.01536721	-0.1083062	0	0	0	0
38.52569	-0.01536721	-0.1083062	0	0	0	0
38.54885	-0.01536721	-0.1083062	0	0	0	0
38.56543	-0.01536721	-0.1083062	0	0	0	0
38.5821	-0.01536721	-0.1083062	0	0	0	0
38.59856	-0.01536721	-0.1083062	0	0	0	0
38.61513	-0.01536721	-0.1083062	0	0	0	0
38.63169	-0.01536721	-0.1083062	0	0	0	0
38.64833	-0.01536721	-0.1083062	0	0	0	0
38.66516	-0.01536721	-0.1083062	0	0	0	0
38.6815	-0.01536721	-0.1083062	0	0	0	0
38.69796	-0.01536721	-0.1083062	0	0	0	0
38.71453	-0.01536721	-0.1083062	0	0	0	0
38.73109	-0.01539352	-0.1082867	-0.001588432	0.001179882	-0.0479445	0.035613
38.74766	-0.01539352	-0.1082867	0	0	0.04793898	-0.03560891
38.76447	-0.01539352	-0.1082867	0	0	0	0
38.78121	-0.01539352	-0.1082867	0	0	0	0
38.79778	-0.01539352	-0.1082867	0	0	0	0
38.81442	-0.01539352	-0.1082867	0	0	0	0
38.83096	-0.01539352	-0.1082867	0	0	0	0
38.84775	-0.01539352	-0.1082867	0	0	0	0
38.86405	-0.01539352	-0.1082867	0	0	0	0
38.88061	-0.01536721	-0.1082671	0.001588432	0.001179432	0.04833968	0.03589285
38.89789	-0.01536721	-0.1082671	0	0	-0.04693924	-0.03485301
38.91375	-0.01536721	-0.1082671	0	0	0	0
38.93032	-0.01536721	-0.1082671	0	0	0	0
38.94697	-0.01536721	-0.1082671	0	0	0	0
38.96345	-0.01536721	-0.1082671	0	0	0	0
38.98002	-0.0153409	-0.1082867	0.00158801	-0.00117916	0.04805349	-0.03568162
38.99659	-0.0153409	-0.1082867	0	0	-0.04792624	0.03558713
39.01315	-0.0153409	-0.1082867	0	0	0	0
39.03905	-0.0153409	-0.1082867	0	0	0	0
39.05562	-0.0153409	-0.1082867	0	0	0	0
39.07268	-0.01536721	-0.1083062	-0.001542202	-0.001145583	-0.04585743	-0.03406394
39.08925	-0.01536721	-0.1083062	0	0	0.04585743	0.03406394
39.10582	-0.01536721	-0.1083062	0	0	0	0
39.12239	-0.01536721	-0.1083062	0	0	0	0
39.139	-0.01536721	-0.1083062	0	0	0	0
39.15552	-0.01536721	-0.1083062	0	0	0	0
39.17208	-0.01536721	-0.1082671	0	0.002359857	0	0.07132739
39.18865	-0.01536721	-0.1082671	0	0	0	-0.07122883
39.2056	-0.01536721	-0.1082671	0	0	0	0
39.22184	-0.01536721	-0.1082671	0	0	0	0
39.23835	-0.01536721	-0.1082671	0	0	0	0
39.25492	-0.01536721	-0.1082671	0	0	0	0
39.27148	-0.01536721	-0.1082671	0	0	0	0
39.28805	-0.01536721	-0.1082671	0	0	0	0
39.30462	-0.01536721	-0.1082671	0	0	0	0
39.32119	-0.01531459	-0.108228	0.003176077	0.00235877	0.09585419	0.07118783
39.33775	-0.01531459	-0.108228	0	0	-0.09585419	-0.07118783
39.35432	-0.01531459	-0.108228	0	0	0	0
39.37088	-0.01526197	-0.1081499	0.003176808	0.004718178	0.0958873	0.1424113
39.38745	-0.01526197	-0.1081499	0	0	-0.0958873	-0.1424113
39.40402	-0.01526197	-0.1081499	0	0	0	0
39.42059	-0.01520935	-0.1080717	0.003176133	0.004717092	0.09585588	0.1423621
39.43728	-0.01520935	-0.1080717	0	0	-0.09548213	-0.141807
39.45372	-0.01520935	-0.1080717	0	0	0	0
39.47029	-0.01515673	-0.1080327	0.003176133	0.002358321	0.09623257	0.07145396
39.48685	-0.01515673	-0.1080327	0	0	-0.09585588	-0.07117426
39.50343	-0.01515673	-0.1080327	0	0	0	0
39.51999	-0.01515673	-0.1079545	0	0.004717728	0	0.1423813
39.53656	-0.01515673	-0.1079545	0	0	0	-0.1423813
39.55312	-0.01515673	-0.1079545	0	0	0	0
39.56969	-0.01510411	-0.1078764	0.003176133	0.004716642	0.09586692	0.1423649
39.58626	-0.01510411	-0.1078764	0	0	-0.09585588	-0.1423485
39.60289	-0.01510411	-0.1078764	0	0	0	0
39.61951	-0.0150778	-0.1078569	0.001583327	0.001175641	0.04761497	0.03535474
39.63607	-0.0150778	-0.1078569	0	0	-0.04772447	-0.03543605
39.6526	-0.0150778	-0.1078569	0	0	0	0
39.66942	-0.0150515	-0.1078373	0.001564239	0.001161509	0.04690104	0.03482588
39.68565	-0.0150515	-0.1078373	0	0	-0.04732869	-0.03514342
39.70252	-0.0150515	-0.1078373	0	0	0	0
39.71879	-0.01497257	-0.1077396	0.004852467	0.006004577	0.1464477	0.1812185
39.73556	-0.01497257	-0.1077396	0	0	-0.1468705	-0.1817416
39.75192	-0.01497257	-0.1077396	0	0	0	0
39.76849	-0.01494626	-0.107681	0.001588066	0.003537481	0.04822777	0.1074293
39.78505	-0.01494626	-0.107681	0	0	-0.04793346	-0.1067737
39.80167	-0.01494626	-0.107681	0	0	0	0
39.81819	-0.01489364	-0.107642	0.00318499	0.002364404	0.09611211	0.07134965
39.83501	-0.01489364	-0.107642	0	0	-0.09554021	-0.07092509
39.85132	-0.01489364	-0.107642	0	0	0	0
39.86789	-0.01481471	-0.1075443	0.004762006	0.005892639	0.1448012	0.1791811
39.88446	-0.01481471	-0.1075443	0	0	-0.1437011	-0.1778197
39.90129	-0.01481471	-0.1075443	0	0	0	0
39.91759	-0.0147884	-0.1075248	0.001614082	0.00119802	0.0487187	0.03616049
39.93415	-0.0147884	-0.1075248	0	0	-0.04910886	-0.03645007
39.95072	-0.0147884	-0.1075248	0	0	0	0
39.96735	-0.0147884	-0.1075248	0	0	0	0
39.98385	-0.0147884	-0.1075248	0	0	0	0
40.00042	-0.0147884	-0.1075248	0	0	0	0
40.01699	-0.0147884	-0.1075248	0	0	0	0
40.03393	-0.0147884	-0.1075248	0	0	0	0
40.05029	-0.0147884	-0.1075248	0	0	0	0
40.06669	-0.0147884	-0.1075248	0	0	0	0
40.08326	-0.0147884	-0.1075248	0	0	0	0
40.09982	-0.0147884	-0.1075248	0	0	0	0
40.11639	-0.0147884	-0.1075248	0	0	0	0
40.13296	-0.0147884	-0.1075248	0	0	0	0
40.19788	-0.0147884	-0.1075248	0	0	0	0
40.21559	-0.0147884	-0.1075638	0	-0.002205046	0	-0.0266845
40.23217	-0.0147884	-0.1075638	0	0	0	0.06430522
40.24873	-0.0147884	-0.1075638	0	0	0	0
40.2653	-0.01476209	-0.1075834	0.001588066	-0.00117916	0.04793346	-0.03559123
40.28186	-0.01476209	-0.1075834	0	0	-0.04792794	0.03558713
40.29843	-0.01476209	-0.1075834	0	0	0	0
40.315	-0.01473578	-0.1076029	0.001588123	-0.001178711	0.04792964	-0.03557356
40.33157	-0.01473578	-0.1076029	0	0	-0.04792964	0.03557356
40.34813	-0.01473578	-0.1076029	0	0	0	0
40.3647	-0.01473578	-0.1076029	0	0	0	0
40.38127	-0.01473578	-0.1076029	0	0	0	0
40.39783	-0.01473578	-0.1076029	0	0	0	0
40.4144	-0.01473578	-0.1076029	0	0	0	0
40.43098	-0.01473578	-0.1076029	0	0	0	0
40.44753	-0.01473578	-0.1076029	0	0	0	0
40.4641	-0.01473578	-0.1076029	0	0	0	0
40.48076	-0.01473578	-0.1076029	0	0	0	0
40.49754	-0.01473578	-0.1076029	0	0	0	0
40.5138	-0.01473578	-0.1076029	0	0	0	0
40.53044	-0.01473578	-0.1076029	0	0	0	0
40.54693	-0.01473578	-0.1076029	0	0	0	0
40.5687	-0.01473578	-0.1076029	0	0	0	0
40.58528	-0.01473578	-0.1076029	0	0	0	0
40.60184	-0.01473578	-0.1076029	0	0	0	0
40.61841	-0.01473578	-0.1076029	0	0	0	0
40.63498	-0.01473578	-0.1076029	0	0	0	0
40.65154	-0.01476209	-0.1076224	-0.001588854	-0.001179704	-0.04795724	-0.03560763
40.66811	-0.01476209	-0.1076224	0	0	0.04795724	0.03560763
40.68468	-0.01476209	-0.1076224	0	0	0	0
40.70125	-0.01476209	-0.1076224	0	0	0	0
40.71781	-0.01476209	-0.1076224	0	0	0	0
40.73438	-0.01476209	-0.1076224	0	0	0	0
40.75126	-0.01476209	-0.1076224	0	0	0	0
40.76751	-0.01476209	-0.1076224	0	0	0	0
40.78428	-0.01476209	-0.1076224	0	0	0	0
40.80064	-0.01473578	-0.107642	0.001607743	-0.001193728	0.04852178	-0.03602679
40.81726	-0.01473578	-0.107642	0	0	-0.04874062	0.03618928
40.83377	-0.01473578	-0.107642	0	0	0	0
40.85034	-0.01473578	-0.107642	0	0	0	0
40.86691	-0.01473578	-0.107642	0	0	0	0
40.88348	-0.01473578	-0.107642	0	0	0	0
40.90009	-0.01473578	-0.107642	0	0	0	0
40.91661	-0.01473578	-0.107642	0	0	0	0
40.93317	-0.01473578	-0.107642	0	0	0	0
40.94974	-0.01476209	-0.1076224	-0.001588488	0.001179432	-0.0479462	0.03559943
40.9663	-0.01476209	-0.1076224	0	0	0.0479462	-0.03559943
40.98287	-0.01476209	-0.1076224	0	0	0	0
40.99977	-0.01476209	-0.1076224	0	0	0	0
41.01601	-0.01476209	-0.1076224	0	0	0	0
41.03265	-0.01476209	-0.1076224	0	0	0	0
41.04914	-0.01476209	-0.1076224	0	0	0	0
41.0657	-0.01476209	-0.1076224	0	0	0	0
41.08227	-0.01476209	-0.1076224	0	0	0	0
41.09884	-0.01473578	-0.107642	0.001588123	-0.00117916	0.04792964	-0.03558713
41.11541	-0.01473578	-0.107642	0	0	-0.04792964	0.03558713
41.13197	-0.01473578	-0.107642	0	0	0	0
41.14854	-0.01473578	-0.107642	0	0	0	0
41.16512	-0.01473578	-0.107642	0	0	0	0
41.18241	-0.01473578	-0.107642	0	0	0	0
41.19824	-0.01473578	-0.107642	0	0	0	0
41.21481	-0.01473578	-0.107642	0	0	0	0
