Time	Pos X	Pos Y	Vel X	Vel Y	Acc X	Acc Y
0.0166824	-0.08699043	-0.1572	0.001388495	0.002509142	-2.216815E-05	-4.005996E-05
0.0354199	-0.08699043	-0.1572	0	0	2.216905E-05	4.006157E-05
0.05198663	-0.08699043	-0.1571601	0	0.002406063	0	0.06815225
0.06855692	-0.08699043	-0.1571601	0	0	0	-0.07260951
0.08548643	-0.08699043	-0.1571601	0	0	0	0
0.1016876	-0.08646806	-0.1567615	0.03224255	0.02460442	0.9731923	0.7426472
0.1182575	-0.08646806	-0.1567615	0	0	-0.983872	-0.7507969
0.1348235	-0.08646806	-0.1567615	0	0	0	0
0.1513902	-0.06886462	-0.1434664	1.062577	0.8025149	32.07037	24.22125
0.1679565	-0.06886462	-0.1434664	0	0	-32.06999	-24.22096
0.1845237	-0.06886462	-0.1434664	0	0	0	0
0.20109	-0.05486593	-0.1332228	0.845008	0.6183398	25.50316	18.66209
0.2176571	-0.05486593	-0.1332228	0	0	-25.50316	-18.66209
0.2342231	-0.05486593	-0.1332228	0	0	0	0
0.25294	-0.05323911	-0.1330255	0.08691686	0.01054317	2.463427	0.298818
0.2695833	-0.05323911	-0.1330255	0	0	-2.458037	-0.2981642
0.2860778	-0.05323911	-0.1330255	0	0	0	0
0.3026446	-0.04704421	-0.1376867	0.3739366	-0.2813611	11.31044	-8.51031
0.3195295	-0.04704421	-0.1376867	0	0	-11.17842	8.41098
0.3357796	-0.04704421	-0.1376867	0	0	0	0
0.3525927	-0.03674661	-0.145449	0.6124759	-0.4616824	18.5244	-13.96363
0.3689091	-0.03674661	-0.145449	0	0	-18.48732	13.93568
0.3854794	-0.03674661	-0.145449	0	0	0	0
0.402043	-0.03296174	-0.1483068	0.2285057	-0.1725347	6.89644	-5.207201
0.4187735	-0.03296174	-0.1483068	0	0	-6.863247	5.182138
0.4352029	-0.03296174	-0.1483068	0	0	0	0
0.4517523	-0.03293546	-0.1483267	0.001588316	-0.001200241	0.04816182	-0.03639439
0.4685669	-0.03293546	-0.1483267	0	0	-0.04760565	0.03597411
0.4848763	-0.03293546	-0.1483267	0	0	0	0
1.215961	-0.03143701	-0.1481479	0.00204962	0.0002444649	0.002742356	0.0003270897
1.237102	-0.03143701	-0.1481479	0	0	-0.00272474	-0.0003249886
1.259641	-0.03143701	-0.1481479	0	0	0	0
1.276213	-0.03143701	-0.1481479	0	0	0	0
1.29278	-0.03143701	-0.1481479	0	0	0	0
1.309852	-0.03143701	-0.1481479	0	0	0	0
1.32591	-0.03143701	-0.1481479	0	0	0	0
1.342475	-0.0314633	-0.1481281	-0.001587104	0.001198255	-0.04865101	0.03673127
1.359042	-0.0314633	-0.1481281	0	0	0.0479032	-0.03616668
1.385271	-0.0314633	-0.1481281	0	0	0	0
1.412097	-0.0314633	-0.1481281	0	0	0	0
1.431806	-0.0314633	-0.1481281	0	0	0	0
1.457167	-0.03148959	-0.1481082	-0.001036604	0.0007832183	-0.02299965	0.01737766
1.473759	-0.03148959	-0.1481082	0	0	0.02470843	-0.01866875
1.490302	-0.03148959	-0.1481082	0	0	0	0
1.506868	-0.03148959	-0.1481082	0	0	0	0
1.523438	-0.03148959	-0.1481082	0	0	0	0
1.540006	-0.03148959	-0.1481082	0	0	0	0
1.556571	-0.03148959	-0.1481082	0	0	0	0
1.573138	-0.03148959	-0.1481082	0	0	0	0
1.589875	-0.0314633	-0.1481281	0.001570747	-0.001186796	0.04716393	-0.03563527
1.955164	-0.0314633	-0.1481281	0	0	-0.004111617	0.003106582
1.974951	-0.0314633	-0.1481281	0	0	0	0
2.006656	-0.0314633	-0.1480884	0	0.001252543	0	0.02432523
2.023226	-0.0314633	-0.1480884	0	0	0	-0.0259458
2.03979	-0.0314633	-0.1480884	0	0	0	0
2.056357	-0.0314633	-0.1480884	0	0	0	0
2.072923	-0.0314633	-0.1480884	0	0	0	0
2.08949	-0.0314633	-0.1480884	0	0	0	0
2.106057	-0.0314633	-0.1480884	0	0	0	0
2.122627	-0.0314633	-0.1480884	0	0	0	0
2.139193	-0.0314633	-0.1480884	0	0	0	0
2.15576	-0.0314633	-0.1480884	0	0	0	0
2.172326	-0.0314633	-0.1480884	0	0	0	0
2.188991	-0.0314633	-0.1480884	0	0	0	0
2.556938	-0.0314633	-0.1480884	0	0	0	0
2.57681	-0.0314633	-0.1480884	0	0	0	0
2.593378	-0.0314633	-0.1481281	0	-0.002396893	0	-0.06577576
2.609953	-0.0314633	-0.1481281	0	0	0	0.07231913
2.626517	-0.0314633	-0.1481281	0	0	0	0
2.643194	-0.0314633	-0.1481281	0	0	0	0
2.659648	-0.0314633	-0.1481281	0	0	0	0
2.676622	-0.0314633	-0.1481281	0	0	0	0
2.692778	-0.03143701	-0.1481479	0.001627249	-0.001228565	0.04911718	-0.03708322
2.709347	-0.03143701	-0.1481479	0	0	-0.04972443	0.0375417
2.725914	-0.03143701	-0.1481479	0	0	0	0
2.742478	-0.03141072	-0.1481678	0.001587374	-0.00119919	0.04791257	-0.03619578
2.759047	-0.03141072	-0.1481678	0	0	-0.04790981	0.03619369
2.776436	-0.03141072	-0.1481678	0	0	0	0
2.792177	-0.03143701	-0.1481479	-0.001670321	0.001261852	-0.05041618	0.03808714
2.808746	-0.03143701	-0.1481479	0	0	0.05169593	-0.03905394
2.825314	-0.03143701	-0.1481479	0	0	0	0
2.84188	-0.03143701	-0.1481479	0	0	0	0
2.858445	-0.03143701	-0.1481479	0	0	0	0
2.9573	-0.03143701	-0.1481479	0	0	0	0
2.973866	-0.03127927	-0.1482671	0.009522162	-0.007192614	0.08249952	-0.06231644
2.990438	-0.03127927	-0.1482671	0	0	-0.2873505	0.2170517
3.007	-0.03127927	-0.1482671	0	0	0	0
3.023566	-0.03130556	-0.1482472	-0.001586875	0.001198982	-0.04790027	0.03619161
3.040134	-0.03130556	-0.1482472	0	0	0.04789269	-0.03618588
3.056709	-0.03130556	-0.1482472	0	0	0	0
3.090159	-0.03127927	-0.1482671	0.0007859275	-0.0005938168	0.01571062	-0.01187035
3.10673	-0.03127927	-0.1482671	0	0	-0.0157119	0.01187131
3.123297	-0.0312004	-0.1483267	0.004760851	-0.003596048	0.1436683	-0.108518
3.139863	-0.0312004	-0.1483267	0	0	-0.143689	0.1085336
3.156816	-0.0312004	-0.1483267	0	0	0	0
3.172997	-0.03093749	-0.148565	0.01624789	-0.01472733	0.4903693	-0.4444782
3.189758	-0.03093749	-0.148565	0	0	-0.4932298	0.4470711
3.20613	-0.03093749	-0.148565	0	0	0	0
3.222697	-0.03059571	-0.1488232	0.02063062	-0.01558497	0.6263288	-0.4731472
3.239884	-0.03059571	-0.1488232	0	0	-0.6112117	0.4617273
3.255952	-0.03059571	-0.1488232	0	0	0	0
3.272397	-0.03028022	-0.1490615	0.01918533	-0.01449459	0.5900836	-0.4458105
3.289361	-0.03028022	-0.1490615	0	0	-0.5742584	0.4338545
3.305706	-0.03028022	-0.1490615	0	0	0	0
3.322094	-0.01605125	-0.1598326	0.8682329	-0.6572402	26.52473	-20.07885
3.338759	-0.01605125	-0.1598326	0	0	-26.2672	19.88391
3.35534	-0.01605125	-0.1598326	0	0	0	0
3.374771	-0.000368421	-0.1717571	0.8071187	-0.613693	22.41298	-17.04172
3.39134	-0.000368421	-0.1717571	0	0	-22.41981	17.04691
3.407907	-0.000368421	-0.1717571	0	0	0	0
3.424474	0.002026313	-0.1735833	0.1445506	-0.1102317	4.362671	-3.326896
3.441041	0.002026313	-0.1735833	0	0	-4.362671	3.326896
3.457843	0.002026313	-0.1735833	0	0	0	0
3.474171	0.002026313	-0.1735833	0	0	0	0
3.49091	0.002026313	-0.1735833	0	0	0	0
3.507638	0.002026313	-0.1735833	0	0	0	0
3.523874	0.00192105	-0.1734628	-0.006483361	0.007418537	-0.1966772	0.2250465
3.540441	0.00192105	-0.1734628	0	0	0.1976479	-0.2261571
3.933972	0.00192105	-0.1734628	0	0	0	0
3.958397	0.00173684	-0.1733223	-0.007541703	0.005753529	-0.01804424	0.01376586
3.974968	0.00173684	-0.1733223	0	0	0.1839594	-0.1403418
3.991533	0.00173684	-0.1733223	0	0	0	0
4.008098	0.00173684	-0.1733223	0	0	0	0
4.024958	0.00173684	-0.1733223	0	0	0	0
4.041231	0.001684209	-0.1732821	-0.003234271	0.002466888	-0.09761471	0.07445405
4.058588	0.001684209	-0.1732821	0	0	0.0961725	-0.07335404
4.074367	0.001684209	-0.1732821	0	0	0	0
4.090935	0.001657893	-0.1732621	-0.001588379	0.001211505	-0.04910479	0.03745372
4.107502	0.001657893	-0.1732621	0	0	0.04793669	-0.03656277
4.130413	0.001657893	-0.1732621	0	0	0	0
4.147025	0.001657893	-0.1732621	0	0	0	0
4.16355	0.001657893	-0.1732621	0	0	0	0
4.180117	0.001657893	-0.1732621	0	0	0	0
4.196683	0.001657893	-0.1732621	0	0	0	0
4.213249	0.001657893	-0.1732621	0	0	0	0
4.230177	0.001657893	-0.1732621	0	0	0	0
4.246383	0.001657893	-0.1732621	0	0	0	0
4.262949	0.001657893	-0.1732621	0	0	0	0
4.279517	0.001657893	-0.1732621	0	0	0	0
4.296083	0.001657893	-0.1732621	0	0	0	0
4.31265	0.001657893	-0.1732621	0	0	0	0
4.329366	0.001657893	-0.1732621	0	0	0	0
4.345781	0.001657893	-0.1732621	0	0	0	0
4.36235	0.001657893	-0.1732621	0	0	0	0
4.378917	0.001657893	-0.1732621	0	0	0	0
4.395484	0.001657893	-0.1732621	0	0	0	0
4.41205	0.001657893	-0.1732621	0	0	0	0
4.428617	0.001657893	-0.1732621	0	0	0	0
4.445184	0.001657893	-0.1732621	0	0	0	0
4.461751	0.001657893	-0.1732621	0	0	0	0
4.478318	0.001657893	-0.1732621	0	0	0	0
4.494925	0.001657893	-0.1732621	0	0	0	0
4.512084	0.001657893	-0.1732621	0	0	0	0
4.528017	0.001657893	-0.1732621	0	0	0	0
4.54458	0.001657893	-0.1732621	0	0	0	0
4.56115	0.001657893	-0.1732621	0	0	0	0
4.578078	0.001657893	-0.1732621	0	0	0	0
4.594307	0.001657893	-0.1732621	0	0	0	0
4.61085	0.001657893	-0.1732621	0	0	0	0
4.627416	0.001657893	-0.1732621	0	0	0	0
4.644075	0.001657893	-0.1732621	0	0	0	0
4.660552	0.001657893	-0.1732621	0	0	0	0
4.67712	0.001657893	-0.1732621	0	0	0	0
4.693683	0.001657893	-0.1732621	0	0	0	0
4.710253	0.001657893	-0.1732621	0	0	0	0
5.032805	0.001657893	-0.1732621	0	0	0	0
5.0606	0.001657893	-0.1732621	0	0	0	0
5.084021	0.001657893	-0.1732621	0	0	0	0
5.109288	0.001657893	-0.1732621	0	0	0	0
5.125857	0.001657893	-0.1732621	0	0	0	0
5.390183	0.001657893	-0.1732621	0	0	0	0
5.406748	0.001657893	-0.1732621	0	0	0	0
5.423371	0.001657893	-0.1732621	0	0	0	0
5.439942	0.001657893	-0.1732621	0	0	0	0
5.456525	0.001657893	-0.1732621	0	0	0	0
5.473015	0.001657893	-0.1732621	0	0	0	0
5.489582	0.001657893	-0.1732621	0	0	0	0
5.506152	0.001657893	-0.1732621	0	0	0	0
5.522718	0.001657893	-0.1732621	0	0	0	0
5.539345	0.001657893	-0.1732621	0	0	0	0
5.555851	0.001657893	-0.1732621	0	0	0	0
5.572419	0.001657893	-0.1732621	0	0	0	0
5.588984	0.001657893	-0.1732621	0	0	0	0
5.605552	0.001657893	-0.1732621	0	0	0	0
5.623507	0.001657893	-0.1732621	0	0	0	0
5.640078	0.001657893	-0.1732621	0	0	0	0
5.656689	0.001657893	-0.1732621	0	0	0	0
5.673211	0.001657893	-0.1732621	0	0	0	0
5.689778	0.001657893	-0.1732621	0	0	0	0
5.706345	0.001657893	-0.1732621	0	0	0	0
5.983385	0.001657893	-0.1732621	0	0	0	0
6.001272	0.001657893	-0.1732621	0	0	0	0
6.018184	0.001657893	-0.1732621	0	0	0	0
6.034751	0.001657893	-0.1732621	0	0	0	0
6.051319	0.001657893	-0.1732621	0	0	0	0
6.067886	0.001657893	-0.1732621	0	0	0	0
6.084456	0.001657893	-0.1732621	0	0	0	0
6.308106	0.001657893	-0.1732621	0	0	0	0
6.331708	0.0005263158	-0.1723188	-0.04794315	0.03996374	-0.193904	0.1616316
6.348279	0.0005263158	-0.1723188	0	0	1.19343	-0.9948015
6.36832	-0.007315659	-0.1647869	-0.3912782	0.3758059	-10.68715	10.26455
6.384888	-0.007315659	-0.1647869	0	0	10.68784	-10.26522
6.401455	-0.04357766	-0.135592	-2.188779	1.762211	-66.05652	53.18286
6.418344	-0.04357766	-0.135592	0	0	65.42197	-52.67197
6.436907	-0.04357766	-0.135592	0	0	0	0
6.453475	-0.07663907	-0.1107692	-1.995534	1.498263	-56.80345	42.6485
6.470045	-0.07663907	-0.1107692	0	0	60.21926	-45.21312
6.486612	-0.07663907	-0.1107692	0	0	0	0
6.503208	-0.09680177	-0.08364804	-1.214925	1.634215	-36.63486	49.27816
6.70941	-0.09680177	-0.08364804	0	0	5.453035	-7.334967
6.736928	-0.09680177	-0.08364804	0	0	0	0
6.755785	-0.1497906	0.01559746	-2.810178	5.263325	-60.59771	113.4965
6.772357	-0.1497906	0.01559746	0	0	79.32071	-148.5638
6.789261	-0.1497906	0.01559746	0	0	0	0
6.805486	-0.1497391	0.01555999	0.003172206	-0.0023097	0.09575116	-0.06971691
6.822093	-0.1497391	0.01555999	0	0	-0.09661892	0.07034873
7.218651	-0.1497391	0.01555999	0	0	0	0
7.250371	-0.149662	0.015129	0.002433405	-0.01358708	0.005681837	-0.03172491
7.266939	-0.149662	0.015129	0	0	-0.05039422	0.2813795
7.283508	-0.1504338	0.01422939	-0.04658272	-0.05429477	-1.405788	-1.638525
7.505033	-0.1504338	0.01422939	0	0	0.1956478	0.2280385
7.703185	-0.1504338	0.01422939	0	0	0	0
7.726573	-0.1906305	-0.06376314	-1.718659	-3.334669	-7.757782	-15.05222
7.743154	-0.1906305	-0.06376314	0	0	43.00035	83.43245
7.759769	-0.1850683	-0.06809063	0.3347497	-0.2604433	10.08405	-7.845629
7.782406	-0.1850683	-0.06809063	0	0	-8.528159	6.635112
7.798977	-0.1850683	-0.06809063	0	0	0	0
7.820087	-0.1785772	-0.07315745	0.3074883	-0.2400192	8.160277	-6.36975
7.836654	-0.1785772	-0.07315745	0	0	-8.161104	6.370395
7.853469	-0.1785517	-0.07317673	0.001515356	-0.001146708	0.04539383	-0.03435065
7.869791	-0.1785517	-0.07317673	0	0	-0.04573089	0.03460572
7.886357	-0.1785517	-0.07317673	0	0	0	0
7.907381	-0.1777106	-0.07427609	0.04000978	-0.05229113	1.064372	-1.39109
7.931531	-0.1777106	-0.07427609	0	0	-0.8856699	1.157534
7.951112	-0.1888031	-0.08324158	-0.5664991	-0.4578706	-12.95397	-10.47
7.96768	-0.1888031	-0.08324158	0	0	15.67142	12.66636
7.984247	-0.1888031	-0.08324158	0	0	0	0
8.000813	-0.2064628	-0.09686246	-1.066068	-0.8222523	-32.17583	-24.81705
8.017383	-0.2064628	-0.09686246	0	0	32.17306	24.81491
8.033949	-0.2064628	-0.09686246	0	0	0	0
8.075659	-0.2061603	-0.1341702	0.007253393	-0.8944582	0.1244658	-15.34861
8.092233	-0.2061603	-0.1341702	0	0	-0.1244495	15.3466
8.110945	-0.2117762	-0.151347	-0.3001201	-0.917953	-8.505371	-26.01469
8.127515	-0.2117762	-0.151347	0	0	8.50629	26.0175
8.144082	-0.2117762	-0.151347	0	0	0	0
8.160648	-0.2132095	-0.1522817	-0.08651812	-0.05642216	-2.611197	-1.702873
8.177215	-0.2132095	-0.1522817	0	0	2.611272	1.702922
8.193781	-0.2132095	-0.1522817	0	0	0	0
8.210345	-0.2132346	-0.1523016	-0.001516711	-0.001200055	-0.04577969	-0.03622189
8.226914	-0.2132346	-0.1523016	0	0	0.04577574	0.03621876
8.243484	-0.2132346	-0.1523016	0	0	0	0
8.26014	-0.2132597	-0.1522817	-0.001509269	0.001193458	-0.0454243	0.03591939
8.276612	-0.2132597	-0.1522817	0	0	0.04555899	-0.0360259
8.66837	-0.2132597	-0.1522817	0	0	0	0
8.695199	-0.2149684	-0.1507704	-0.06368859	0.05632987	-0.1521515	0.1345716
8.711766	-0.2149684	-0.1507704	0	0	1.467614	-1.298043
8.728333	-0.2149684	-0.1507307	0	0.002399833	0	0.07242919
8.744902	-0.2149684	-0.1507307	0	0	0	-0.07242502
8.761468	-0.2149684	-0.1507307	0	0	0	0
8.778033	-0.214893	-0.1507506	0.004548971	-0.001199986	0.1373001	-0.03621877
8.794601	-0.214893	-0.1507506	0	0	-0.1372922	0.03621668
8.811168	-0.214893	-0.1507506	0	0	0	0
8.827734	-0.2147423	-0.1507506	0.009098317	0	0.2746036	0
8.844557	-0.2147423	-0.1507506	0	0	-0.2724937	0
8.861077	-0.2147423	-0.1507506	0	0	0	0
8.877434	-0.2096372	-0.1468775	0.3121183	0.236792	9.493525	7.202366
8.893998	-0.2096372	-0.1468775	0	0	-9.480873	-7.192768
8.910913	-0.2096372	-0.1468775	0	0	0	0
8.927134	-0.1884222	-0.1307968	1.307941	0.9914066	39.47261	29.91985
8.944081	-0.1884222	-0.1307968	0	0	-39.43402	-29.8906
8.961008	-0.1884222	-0.1307968	0	0	0	0
8.97683	-0.1661642	-0.1142332	1.406828	1.046907	42.95892	31.96836
8.993537	-0.1661642	-0.1142332	0	0	-43.2486	-32.18393
9.009964	-0.1661642	-0.1142332	0	0	0	0
9.026658	-0.1502023	-0.1023928	0.956142	0.709254	28.86806	21.41396
9.043097	-0.1502023	-0.1023928	0	0	-28.85725	-21.40594
9.059731	-0.1502023	-0.1023928	0	0	0	0
9.076231	-0.1473711	-0.1003273	0.1715779	0.1251797	5.17838	3.77804
9.092797	-0.1473711	-0.1003273	0	0	-5.188834	-3.785667
9.109366	-0.1473711	-0.1003273	0	0	0	0
9.125934	-0.1471136	-0.1000936	0.01554315	0.0141081	0.4690662	0.4257588
9.142581	-0.1471136	-0.1000936	0	0	-0.4679619	-0.4247564
9.159418	-0.1471136	-0.1000936	0	0	0	0
9.175633	-0.1357649	-0.09157661	0.6998756	0.5252423	21.1747	15.89118
9.192204	-0.1357649	-0.09157661	0	0	-21.34716	-16.02061
9.209422	-0.1357649	-0.09157661	0	0	0	0
9.225602	-0.1265568	-0.08525513	0.5691033	0.3906964	17.03972	11.69798
9.2419	-0.1265568	-0.08525513	0	0	-17.52255	-12.02945
9.25862	-0.1265568	-0.08525513	0	0	0	0
9.275031	-0.1199996	-0.09015977	0.3995652	-0.2988663	12.06029	-9.020841
9.292028	-0.1199996	-0.09015977	0	0	-11.96011	8.945905
9.308169	-0.1199996	-0.09015977	0	0	0	0
9.324741	-0.103263	-0.1026463	1.009935	-0.7534699	30.87266	-23.03278
9.341505	-0.103263	-0.1026463	0	0	-30.29593	22.6025
9.358003	-0.103263	-0.1026463	0	0	0	0
9.374434	-0.09424628	-0.1092051	0.5487659	-0.3991784	16.66539	-12.12259
9.391	-0.09424628	-0.1092051	0	0	-16.63071	12.09737
9.40757	-0.09424628	-0.1092051	0	0	0	0
9.424168	-0.09416803	-0.1089901	0.004714254	0.01295275	0.1421333	0.3905214
9.440957	-0.09416803	-0.1089901	0	0	-0.1411995	-0.3879558
9.457557	-0.09416803	-0.1089901	0	0	0	0
9.473831	-0.09411586	-0.1089901	0.003205574	0	0.09751061	0
9.490515	-0.09411586	-0.1089901	0	0	-0.09726232	0
9.506969	-0.09411586	-0.1089901	0	0	0	0
9.523531	-0.09398545	-0.1090879	0.007874583	-0.005900539	0.2385066	-0.1787164
9.540101	-0.09398545	-0.1090879	0	0	-0.2376759	0.178094
9.556786	-0.09398545	-0.1090879	0	0	0	0
9.573231	-0.08840058	-0.1132738	0.3396055	-0.2545369	10.25079	-7.683044
9.589797	-0.08840058	-0.1132738	0	0	-10.28751	7.710567
9.606495	-0.08840058	-0.1132738	0	0	0	0
9.622931	-0.0815294	-0.1184276	0.4180662	-0.3135757	12.61763	-9.464006
9.639497	-0.0815294	-0.1184276	0	0	-12.66794	9.501747
9.656068	-0.0815294	-0.1184276	0	0	0	0
9.672632	-0.0815294	-0.1184276	0	0	0	0
9.68937	-0.0815294	-0.1184276	0	0	0	0
9.705767	-0.0815294	-0.1184276	0	0	0	0
9.722331	-0.0815294	-0.1184276	0	0	0	0
9.738898	-0.0815294	-0.1184276	0	0	0	0
9.755786	-0.0815294	-0.1184276	0	0	0	0
9.772031	-0.0815294	-0.1184276	0	0	0	0
9.7886	-0.0815294	-0.1184276	0	0	0	0
9.805676	-0.0815294	-0.1184276	0	0	0	0
9.821731	-0.08134641	-0.1185649	0.01139853	-0.008553653	0.3440479	-0.2581795
9.838301	-0.08134641	-0.1185649	0	0	-0.3493882	0.262187
9.85538	-0.08134641	-0.1185649	0	0	0	0
9.871433	-0.08048366	-0.1192123	0.05374302	-0.04033186	1.622061	-1.217288
9.888	-0.08048366	-0.1192123	0	0	-1.647526	1.236399
9.904567	-0.08048366	-0.1192123	0	0	0	0
10.33395	-0.03898025	-0.1504723	0.09665906	-0.0728026	0.2167507	-0.1632544
10.35157	-0.03898025	-0.1504723	0	0	-0.2162393	0.1628692
10.36813	-0.03056942	-0.1568412	0.5076784	-0.3844297	14.84949	-11.24449
10.55958	-0.03056942	-0.1568412	0	0	-2.440625	1.848116
10.57821	-0.03056942	-0.1568412	0	0	0	0
10.59478	-0.02922852	-0.1578579	0.08094186	-0.06136844	2.299539	-1.743463
10.61135	-0.02922852	-0.1578579	0	0	-2.442689	1.851997
10.77137	-0.02922852	-0.1578579	0	0	0	0
10.7926	-0.02920222	-0.1578778	0.001238781	-0.0009393534	0.006834669	-0.00518265
10.80922	-0.02920222	-0.1578778	0	0	-0.03273084	0.02481942
10.82573	-0.02920222	-0.1578778	0	0	0	0
10.8423	-0.02920222	-0.1578778	0	0	0	0
10.85912	-0.02920222	-0.1578778	0	0	0	0
10.87543	-0.02917593	-0.1578977	0.001611922	-0.001222302	0.0486507	-0.03689127
10.892	-0.02917593	-0.1578977	0	0	-0.04902606	0.0371759
10.90857	-0.02917593	-0.1578977	0	0	0	0
10.92513	-0.02917593	-0.1578977	0	0	0	0
10.94171	-0.02917593	-0.1578977	0	0	0	0
10.95827	-0.02917593	-0.1578977	0	0	0	0
10.97483	-0.02917593	-0.1578977	0	0	0	0
10.9914	-0.02917593	-0.1578977	0	0	0	0
11.00797	-0.02917593	-0.1578977	0	0	0	0
11.02453	-0.02917593	-0.1578977	0	0	0	0
11.0411	-0.02917593	-0.1578977	0	0	0	0
11.05767	-0.02917593	-0.1578977	0	0	0	0
11.07423	-0.02917593	-0.1578977	0	0	0	0
11.09117	-0.02917593	-0.1578977	0	0	0	0
11.10737	-0.02917593	-0.1578977	0	0	0	0
11.12393	-0.02917593	-0.1579376	0	-0.002407928	0	-0.07349428
11.14073	-0.02917593	-0.1579376	0	0	0	0.07216875
11.15707	-0.02917593	-0.1579376	0	0	0	0
11.17367	-0.02917593	-0.1579376	0	0	0	0
11.1902	-0.02917593	-0.1579376	0	0	0	0
11.20677	-0.02917593	-0.1579376	0	0	0	0
11.52702	-0.02917593	-0.1579376	0	0	0	0
11.54736	-0.02917593	-0.1579376	0	0	0	0
11.56393	-0.02917593	-0.1579376	0	0	0	0
11.5805	-0.02917593	-0.1579376	0	0	0	0
11.59706	-0.02917593	-0.1579376	0	0	0	0
11.61448	-0.02917593	-0.1579376	0	0	0	0
11.63105	-0.02917593	-0.1579376	0	0	0	0
11.64762	-0.02917593	-0.1579376	0	0	0	0
11.66418	-0.02917593	-0.1579376	0	0	0	0
11.68075	-0.02917593	-0.1579376	0	0	0	0
11.69781	-0.02917593	-0.1579376	0	0	0	0
11.71388	-0.02920222	-0.1579177	-0.001635444	0.001241065	-0.04936348	0.03745973
11.73136	-0.02920222	-0.1579177	0	0	0.04874331	-0.03698912
11.74702	-0.02920222	-0.1579177	0	0	0	0
11.76369	-0.02920222	-0.1579177	0	0	0	0
11.78026	-0.02920222	-0.1579177	0	0	0	0
11.79682	-0.02920222	-0.1579177	0	0	0	0
11.81339	-0.02920222	-0.1579177	0	0	0	0
11.82996	-0.02920222	-0.1579177	0	0	0	0
11.84653	-0.02920222	-0.1579177	0	0	0	0
11.86326	-0.02917593	-0.1579376	0.001571406	-0.001192469	0.04719014	-0.03581049
11.87966	-0.02917593	-0.1579376	0	0	-0.04742785	0.03599087
11.89622	-0.02917593	-0.1579376	0	0	0	0
11.91366	-0.02917593	-0.1579376	0	0	0	0
11.92936	-0.02917593	-0.1579376	0	0	0	0
11.94592	-0.02917593	-0.1579376	0	0	0	0
11.96249	-0.02917593	-0.1579376	0	0	0	0
11.97906	-0.02917593	-0.1579376	0	0	0	0
11.99631	-0.02917593	-0.1579376	0	0	0	0
12.01219	-0.02920222	-0.1579177	-0.001656073	0.00125672	-0.04998471	0.03793116
12.02876	-0.02920222	-0.1579177	0	0	0.05103806	-0.0387305
12.04999	-0.02920222	-0.1579177	0	0	0	0
12.06656	-0.02920222	-0.1579177	0	0	0	0
12.08313	-0.02920222	-0.1579177	0	0	0	0
12.09969	-0.02920222	-0.1579177	0	0	0	0
12.11626	-0.02920222	-0.1579177	0	0	0	0
12.13283	-0.02920222	-0.1579177	0	0	0	0
12.14939	-0.02920222	-0.1579177	0	0	0	0
12.16596	-0.02920222	-0.1579177	0	0	0	0
12.18285	-0.02920222	-0.1579177	0	0	0	0
12.19909	-0.02920222	-0.1579177	0	0	0	0
12.21572	-0.02920222	-0.1579177	0	0	0	0
12.23223	-0.02920222	-0.1579177	0	0	0	0
12.24891	-0.02920222	-0.1579177	0	0	0	0
12.26536	-0.02917593	-0.1579376	0.001598372	-0.001212933	0.04824034	-0.03660743
12.28193	-0.02917593	-0.1579376	0	0	-0.04841173	0.03673749
12.2985	-0.02917593	-0.1579376	0	0	0	0
12.31506	-0.02917593	-0.1579376	0	0	0	0
12.33175	-0.02917593	-0.1579376	0	0	0	0
12.3482	-0.02917593	-0.1579376	0	0	0	0
12.36476	-0.02917593	-0.1579376	0	0	0	0
12.38133	-0.02917593	-0.1579376	0	0	0	0
12.39839	-0.02917593	-0.1579376	0	0	0	0
12.41446	-0.02917593	-0.1579376	0	0	0	0
12.43103	-0.02917593	-0.1579376	0	0	0	0
12.4476	-0.02917593	-0.1579376	0	0	0	0
12.46595	-0.02917593	-0.1579376	0	0	0	0
12.48252	-0.02917593	-0.1579376	0	0	0	0
12.49978	-0.02917593	-0.1579376	0	0	0	0
12.51566	-0.02917593	-0.1579376	0	0	0	0
12.53222	-0.02917593	-0.1579376	0	0	0	0
12.54928	-0.02917593	-0.1579376	0	0	0	0
12.56536	-0.02917593	-0.1579376	0	0	0	0
12.58192	-0.02917593	-0.1579376	0	0	0	0
12.59871	-0.02917593	-0.1579376	0	0	0	0
12.61506	-0.02917593	-0.1579376	0	0	0	0
12.63162	-0.02917593	-0.1579376	0	0	0	0
12.64863	-0.02917593	-0.1579376	0	0	0	0
12.79384	-0.02917593	-0.1579376	0	0	0	0
12.81041	-0.02917593	-0.1579376	0	0	0	0
12.82698	-0.02917593	-0.1579376	0	0	0	0
12.84398	-0.02917593	-0.1579376	0	0	0	0
12.86011	-0.02917593	-0.1579376	0	0	0	0
12.87668	-0.02917593	-0.1579376	0	0	0	0
12.89324	-0.02917593	-0.1579376	0	0	0	0
12.9333	-0.02917593	-0.1579376	0	0	0	0
12.94987	-0.02914964	-0.1579576	0.001587146	-0.001203515	0.02802983	-0.0212547
12.96644	-0.02914964	-0.1579576	0	0	-0.04789878	0.0363211
12.98301	-0.02914964	-0.1579576	0	0	0	0
12.99957	-0.02914964	-0.1579576	0	0	0	0
13.01614	-0.02914964	-0.1579576	0	0	0	0
13.0327	-0.02914964	-0.1579576	0	0	0	0
13.04937	-0.02914964	-0.1579576	0	0	0	0
13.0659	-0.02914964	-0.1579576	0	0	0	0
13.08242	-0.02914964	-0.1579576	0	0	0	0
13.09897	-0.02914964	-0.1579576	0	0	0	0
13.11554	-0.02914964	-0.1579576	0	0	0	0
13.13218	-0.02914964	-0.1579576	0	0	0	0
13.14867	-0.02912334	-0.1579775	0.001594326	-0.001208873	0.04811823	-0.03648491
13.16524	-0.02912334	-0.1579775	0	0	-0.04822649	0.03656701
13.1818	-0.02912334	-0.1579775	0	0	0	0
13.19837	-0.02912334	-0.1579775	0	0	0	0
13.21522	-0.02912334	-0.1579775	0	0	0	0
13.2315	-0.02912334	-0.1579775	0	0	0	0
13.24807	-0.02912334	-0.1579775	0	0	0	0
13.26464	-0.02912334	-0.1579775	0	0	0	0
13.28122	-0.02912334	-0.1579775	0	0	0	0
13.35406	-0.02914964	-0.1579974	-0.0003610069	-0.000273728	-0.004036976	-0.003060976
13.37063	-0.02914964	-0.1579974	0	0	0.004037708	0.003061531
13.39282	-0.02914964	-0.1579974	0	0	0	0
13.40939	-0.02914964	-0.1579974	0	0	0	0
13.42596	-0.02914964	-0.1579974	0	0	0	0
13.44252	-0.02914964	-0.1579974	0	0	0	0
13.45909	-0.02914964	-0.1579974	0	0	0	0
13.47565	-0.02914964	-0.1579974	0	0	0	0
13.49222	-0.02914964	-0.1579974	0	0	0	0
13.50879	-0.02914964	-0.1579974	0	0	0	0
13.52535	-0.02914964	-0.1579974	0	0	0	0
13.54192	-0.02914964	-0.1579974	0	0	0	0
13.55849	-0.02914964	-0.1579974	0	0	0	0
13.57506	-0.02914964	-0.1579974	0	0	0	0
13.59279	-0.02914964	-0.1579974	0	0	0	0
13.61042	-0.02914964	-0.1579974	0	0	0	0
13.626	-0.02914964	-0.1579974	0	0	0	0
13.6425	-0.02914964	-0.1579974	0	0	0	0
13.65906	-0.02914964	-0.1579974	0	0	0	0
13.67563	-0.02914964	-0.1579974	0	0	0	0
13.6922	-0.02914964	-0.1579974	0	0	0	0
13.70876	-0.02914964	-0.1579974	0	0	0	0
13.72533	-0.02914964	-0.1579974	0	0	0	0
13.7419	-0.02914964	-0.1579974	0	0	0	0
13.75846	-0.02914964	-0.1579974	0	0	0	0
13.77503	-0.02914964	-0.1579974	0	0	0	0
13.7916	-0.02914964	-0.1579974	0	0	0	0
13.80832	-0.02914964	-0.1579974	0	0	0	0
13.82473	-0.02914964	-0.1579974	0	0	0	0
13.8413	-0.02914964	-0.1579974	0	0	0	0
13.85786	-0.02914964	-0.1579974	0	0	0	0
13.87443	-0.02914964	-0.1579974	0	0	0	0
13.89124	-0.02914964	-0.1579974	0	0	0	0
13.90756	-0.02914964	-0.1579974	0	0	0	0
13.92413	-0.02914964	-0.1579974	0	0	0	0
13.94092	-0.02914964	-0.1579974	0	0	0	0
13.95727	-0.02914964	-0.1579974	0	0	0	0
13.97386	-0.02914964	-0.1579974	0	0	0	0
13.9904	-0.02914964	-0.1579974	0	0	0	0
14.00707	-0.02914964	-0.1579974	0	0	0	0
14.02353	-0.02914964	-0.1579974	0	0	0	0
14.04025	-0.02914964	-0.1579974	0	0	0	0
14.05666	-0.02914964	-0.1579974	0	0	0	0
14.07323	-0.02914964	-0.1579974	0	0	0	0
14.0898	-0.02914964	-0.1579974	0	0	0	0
14.10669	-0.02914964	-0.1579974	0	0	0	0
14.12314	-0.02914964	-0.1579974	0	0	0	0
14.1395	-0.02914964	-0.1579974	0	0	0	0
14.15625	-0.02914964	-0.1579974	0	0	0	0
14.17263	-0.02914964	-0.1579974	0	0	0	0
14.1892	-0.02914964	-0.1579974	0	0	0	0
14.20606	-0.02914964	-0.1579974	0	0	0	0
14.22257	-0.02914964	-0.1579974	0	0	0	0
14.40771	-0.02914964	-0.1579974	0	0	0	0
14.44891	-0.02914964	-0.1579974	0	0	0	0
14.46697	-0.02914964	-0.1579974	0	0	0	0
14.48354	-0.02914964	-0.1579974	0	0	0	0
14.50011	-0.02914964	-0.1579974	0	0	0	0
14.51667	-0.02914964	-0.1579974	0	0	0	0
14.53324	-0.02914964	-0.1579974	0	0	0	0
14.54981	-0.02914964	-0.1579974	0	0	0	0
14.56637	-0.02914964	-0.1579974	0	0	0	0
14.58294	-0.02914964	-0.1579974	0	0	0	0
14.59958	-0.02914964	-0.1579974	0	0	0	0
14.61607	-0.02914964	-0.1579974	0	0	0	0
14.63264	-0.02914964	-0.1579974	0	0	0	0
14.64971	-0.02914964	-0.1579974	0	0	0	0
14.66577	-0.02914964	-0.1579974	0	0	0	0
14.68234	-0.02914964	-0.1579974	0	0	0	0
14.6989	-0.02914964	-0.1579974	0	0	0	0
14.71547	-0.02914964	-0.1579974	0	0	0	0
14.73214	-0.02914964	-0.1579974	0	0	0	0
14.7487	-0.02914964	-0.1579974	0	0	0	0
14.76517	-0.02914964	-0.1579974	0	0	0	0
14.78174	-0.02914964	-0.1579974	0	0	0	0
14.79856	-0.02914964	-0.1579974	0	0	0	0
14.81487	-0.02914964	-0.1579974	0	0	0	0
14.83144	-0.02914964	-0.1579974	0	0	0	0
14.84887	-0.02914964	-0.1579974	0	0	0	0
14.86457	-0.02914964	-0.1579974	0	0	0	0
14.88114	-0.02914964	-0.1579974	0	0	0	0
14.89771	-0.02914964	-0.1579974	0	0	0	0
14.91447	-0.02914964	-0.1579974	0	0	0	0
14.93087	-0.02914964	-0.1579974	0	0	0	0
14.94786	-0.02914964	-0.1579974	0	0	0	0
14.96397	-0.02914964	-0.1579974	0	0	0	0
14.98054	-0.02914964	-0.1579974	0	0	0	0
14.99713	-0.02914964	-0.1579974	0	0	0	0
15.01747	-0.02914964	-0.1579974	0	0	0	0
15.0342	-0.02914964	-0.1579974	0	0	0	0
15.0508	-0.02914964	-0.1579974	0	0	0	0
15.06748	-0.02914964	-0.1579974	0	0	0	0
15.08374	-0.02914964	-0.1579974	0	0	0	0
15.10667	-0.02914964	-0.1579974	0	0	0	0
15.12324	-0.02914964	-0.1579974	0	0	0	0
15.13981	-0.02544188	-0.07365885	0.2238137	5.090981	6.754516	153.6417
15.16174	-0.02528408	-0.07377458	0.00719512	-0.005276733	-5.626899	-132.3807
17.56557	-0.02528408	-0.07377458	0	0	-0.002966129	0.00217529
17.60928	0.06632363	-0.1423767	2.095956	-1.569596	0.8563528	-0.641296
17.62585	0.06632363	-0.1423767	0	0	-34.77152	26.03931
17.64241	0.06627123	-0.1424163	-0.003163595	-0.002391251	-0.09547748	-0.0721681
17.65898	0.06627123	-0.1424163	0	0	0.09548298	0.07217225
17.67555	0.06627123	-0.1424163	0	0	0	0
17.69212	0.06624503	-0.1424362	-0.001581208	-0.00119625	-0.04772096	-0.03610289
17.70868	0.06624503	-0.1424362	0	0	0.04772371	0.03610497
17.72525	0.06624503	-0.1424362	0	0	0	0
17.74181	0.06624503	-0.1424758	0	-0.002391251	0	-0.07217641
17.75838	0.06624503	-0.1424758	0	0	0	0.07217225
17.77495	0.06624503	-0.1424758	0	0	0	0
17.79913	0.06621883	-0.1424956	-0.001083546	-0.0008195146	-0.02658976	-0.02011054
17.8158	0.06621883	-0.1424956	0	0	0.02652272	0.02005984
17.83227	0.06619263	-0.1425154	-0.001591553	-0.001202828	-0.04803315	-0.03630143
17.84883	0.06619263	-0.1425154	0	0	0.04818014	0.03641251
17.86608	0.06619263	-0.1425154	0	0	0	0
17.88196	0.06558999	-0.1429711	-0.03794777	-0.02869306	-1.145464	-0.8661079
17.89853	0.06558999	-0.1429711	0	0	1.169433	0.8842314
17.91529	0.06558999	-0.1429711	0	0	0	0
17.93167	0.03359262	-0.1673282	-1.954087	-1.487495	-58.97447	-44.8927
17.94823	0.03359262	-0.1673282	0	0	59.31935	45.15523
17.96491	0.03359262	-0.1673282	0	0	0	0
17.98137	-0.01634065	-0.205696	-3.034239	-2.331455	-91.5788	-70.36749
17.99848	-0.01634065	-0.205696	0	0	90.39236	69.45586
18.0145	-0.01634065	-0.205696	0	0	0	0
18.03107	-0.05415751	-0.2352198	-2.282368	-1.781856	-70.035	-54.67668
18.04781	-0.05415751	-0.2352198	0	0	68.50735	53.48404
18.06423	-0.05415751	-0.2352198	0	0	0	0
18.0808	-0.05717446	-0.2377219	-0.1821453	-0.1510582	-5.52227	-4.579771
18.09734	-0.05717446	-0.2377219	0	0	5.502542	4.56341
18.11432	-0.05717446	-0.2377219	0	0	0	0
18.13047	-0.057122	-0.2375563	0.003248596	0.01024935	0.09804281	0.309326
18.14703	-0.057122	-0.2375563	0	0	-0.09930614	-0.3133118
18.1636	-0.057122	-0.2375563	0	0	0	0
18.18057	-0.05460356	-0.2354058	0.1484414	0.1267557	4.426463	3.779804
18.19673	-0.05460356	-0.2354058	0	0	-4.480488	-3.825936
18.21333	-0.05460356	-0.2354058	0	0	0	0
18.22987	-0.0546298	-0.2353438	-0.001586238	0.003747694	-0.04787552	0.1131121
18.24643	-0.0546298	-0.2353438	0	0	0.04791138	-0.1131968
18.263	-0.0546298	-0.2353438	0	0	0	0
18.27956	-0.05468227	-0.2353025	-0.003168093	0.00249561	-0.09562424	0.07532632
18.29613	-0.05468227	-0.2353025	0	0	0.09561873	-0.07532199
18.3127	-0.05468227	-0.2353025	0	0	0	0
18.32927	-0.05476099	-0.2352405	-0.004751045	0.003742553	-0.1433868	0.1129505
18.34583	-0.05476099	-0.2352405	0	0	0.1433868	-0.1129505
18.3624	-0.05476099	-0.2352405	0	0	0	0
18.37907	-0.05481346	-0.2347033	-0.003147434	0.03222332	-0.09469538	0.9694881
18.39553	-0.05481346	-0.2347033	0	0	0.09500068	-0.9726138
18.41217	-0.05481346	-0.2347033	0	0	0	0
18.42867	-0.0522419	-0.2314829	0.1558659	0.1951906	4.703772	5.890524
18.44523	-0.0522419	-0.2314829	0	0	-4.713811	-5.903096
18.46185	-0.0522419	-0.2314829	0	0	0	0
18.4826	-0.03995241	-0.2162345	0.5922629	0.7348605	15.84995	19.6661
18.49917	-0.03995241	-0.2162345	0	0	-15.86939	-19.69022
18.51577	-0.02399539	-0.2038429	0.9613966	0.746583	28.98497	22.5086
18.5323	-0.02399539	-0.2038429	0	0	-29.01668	-22.53322
18.54893	-0.02399539	-0.2038429	0	0	0	0
18.56544	0.008499796	-0.1787689	1.968211	1.518718	59.3939	45.82972
18.58201	0.008499796	-0.1787689	0	0	-59.50693	-45.91694
18.59858	0.008499796	-0.1787689	0	0	0	0
18.61514	0.02757196	-0.134032	1.151198	2.70032	34.74323	81.49583
18.63171	0.02757196	-0.134032	0	0	-34.74323	-81.49583
18.64828	0.02757196	-0.134032	0	0	0	0
18.66484	0.03556395	-0.05798421	0.4825085	4.591313	14.56297	138.5741
18.68141	0.03556395	-0.05798421	0	0	-14.56297	-138.5741
18.69798	0.03556395	-0.05798421	0	0	0	0
18.71454	0.05302918	-0.03294661	1.05469	1.511969	31.83609	45.63919
18.73111	0.05302918	-0.03294661	0	0	-31.83243	-45.63393
18.74768	0.05302918	-0.03294661	0	0	0	0
18.76437	0.05397384	-0.03230005	0.05660915	0.0387455	1.702294	1.165116
18.78094	0.05397384	-0.03230005	0	0	-1.702294	-1.165116
18.7975	0.05397384	-0.03230005	0	0	0	0
18.81407	0.05413128	-0.03218596	0.009503859	0.006886874	0.286827	0.2078463
18.83064	0.05413128	-0.03218596	0	0	-0.286827	-0.2078463
18.84721	0.05413128	-0.03218596	0	0	0	0
18.86424	0.0557317	-0.03083628	0.09395164	0.07923212	2.796033	2.357975
18.88034	0.0557317	-0.03083628	0	0	-2.835629	-2.391368
18.89691	0.0557317	-0.03083628	0	0	0	0
18.9161	0.062812	-0.02563318	0.3688144	0.2710306	10.31225	7.57816
18.93267	0.062812	-0.02563318	0	0	-10.31115	-7.577352
18.94946	0.062812	-0.02563318	0	0	0	0
18.96921	0.07996073	-0.01028306	0.8680961	0.7770478	23.7605	21.26843
18.98578	0.07996073	-0.01028306	0	0	-23.89523	-21.38903
19.00249	0.07996073	-0.01028306	0	0	0	0
19.01891	0.08981039	-0.0007238455	0.5999139	0.5822238	18.11065	17.57661
19.03561	0.08981039	-0.0007238455	0	0	-18.11378	-17.57965
19.05205	0.08981039	-0.0007238455	0	0	0	0
19.0689	0.09528948	0.003227522	0.3249944	0.2343765	9.76115	7.03946
19.08518	0.09528948	0.003227522	0	0	-9.808914	-7.073905
19.10187	0.09528948	0.003227522	0	0	0	0
19.11831	0.09544595	0.004280434	0.009514179	0.06402566	0.287155	1.93241
19.13512	0.09544595	0.004280434	0	0	-0.2860681	-1.925095
19.15228	0.09544595	0.004280434	0	0	0	0
19.16885	0.09064565	0.03318531	-0.2897132	1.744501	-8.591241	51.73195
19.18541	0.09064565	0.03318531	0	0	8.743561	-52.64914
19.20198	0.09064565	0.03318531	0	0	0	0
19.21855	0.07658675	0.05801295	-0.8486947	1.498772	-25.61366	45.23304
19.23512	0.07658675	0.05801295	0	0	25.61366	-45.23304
19.25168	0.07658675	0.05801295	0	0	0	0
19.26825	0.06742396	0.06667278	-0.5530667	0.5227081	-16.69159	15.77536
19.28482	0.06742396	0.06667278	0	0	16.69159	-15.77536
19.30138	0.06742396	0.06667278	0	0	0	0
19.31795	0.07496452	0.0717343	0.4551492	0.3055141	13.73643	9.220433
19.33452	0.07496452	0.0717343	0	0	-13.73643	-9.220433
19.35109	0.07496452	0.0717343	0	0	0	0
19.36775	0.07820857	0.07417049	0.1946682	0.1461904	5.857902	4.39912
19.38422	0.07820857	0.07417049	0	0	-5.875437	-4.412289
19.40079	0.07820857	0.07417049	0	0	0	0
19.41735	0.07674371	0.07623645	-0.08846997	0.1247732	-2.67049	3.766313
19.43392	0.07674371	0.07623645	0	0	2.67049	-3.766313
19.45071	0.07674371	0.07623645	0	0	0	0
19.46705	0.0559678	0.09076221	-1.271307	0.8888519	-38.37255	26.82869
19.48362	0.0559678	0.09076221	0	0	38.62829	-27.0075
19.50019	0.0559678	0.09076221	0	0	0	0
19.51678	0.05069337	0.09441829	-0.3178895	0.2203513	-9.586197	6.64486
19.53332	0.05069337	0.09441829	0	0	9.59558	-6.651364
19.54988	0.05069337	0.09441829	0	0	0	0
19.56645	0.05071962	0.09428973	0.001584721	-0.00776167	0.04782973	-0.2342612
19.58302	0.05071962	0.09428973	0	0	-0.04783249	0.2342746
19.59958	0.05071962	0.09428973	0	0	0	0
19.61615	0.05066713	0.09421626	-0.003168348	-0.004433708	-0.09561542	-0.1338019
19.63315	0.05066713	0.09421626	0	0	0.09439829	0.1320987
19.64973	0.05066713	0.09421626	0	0	0	0
19.66592	0.05058838	0.09394077	-0.004864517	-0.01701868	-0.1484176	-0.5192439
19.68242	0.05058838	0.09394077	0	0	0.1488246	0.520668
19.69907	0.05058838	0.09394077	0	0	0	0
19.71555	0.05058838	0.09379384	0	-0.008917138	0	-0.2691507
19.73212	0.05058838	0.09379384	0	0	0	0.2698187
19.74906	0.05058838	0.09379384	0	0	0	0
19.76525	0.05074587	0.09361016	0.009722161	-0.01133884	0.2934323	-0.3422266
19.78182	0.05074587	0.09361016	0	0	-0.2967118	0.3460515
19.80485	0.05074587	0.09361016	0	0	0	0
19.82142	0.05048339	0.09320605	-0.01583992	-0.02438664	-0.4000519	-0.6159074
19.83798	0.05048339	0.09320605	0	0	0.4780221	0.7359478
19.85455	0.05048339	0.09320605	0	0	0	0
19.87111	0.04793693	0.09135032	-0.1537221	-0.1120246	-4.639875	-3.381298
19.88798	0.04793693	0.09135032	0	0	4.598051	3.350819
19.90425	0.04793693	0.09135032	0	0	0	0
19.92081	0.04796319	0.09133194	0.001585171	-0.00110971	0.04827686	-0.03379654
19.93739	0.04796319	0.09133194	0	0	-0.04783505	0.03348725
19.95396	0.04796319	0.09133194	0	0	0	0
19.97052	0.04804195	0.09127681	0.004756384	-0.003329446	0.143581	-0.100506
19.98714	0.04804195	0.09127681	0	0	-0.1433334	0.1003327
20.00366	0.04804195	0.09127681	0	0	0	0
20.02022	0.04809446	0.09124006	0.003170707	-0.002219225	0.09585766	-0.06709221
20.03679	0.04809446	0.09124006	0	0	-0.09570315	0.06698406
20.05336	0.04809446	0.09124006	0	0	0	0
20.06992	0.04809446	0.09124006	0	0	0	0
20.08661	0.04809446	0.09124006	0	0	0	0
20.10305	0.04809446	0.09124006	0	0	0	0
20.11962	0.04812072	0.09122168	0.001584988	-0.001109132	0.0480258	-0.03360716
20.13619	0.04812072	0.09122168	0	0	-0.04783504	0.03347367
20.15275	0.04812072	0.09122168	0	0	0	0
20.16931	0.04814697	0.0912033	0.001585129	-0.001109837	0.04785029	-0.03350268
20.18589	0.04814697	0.0912033	0	0	-0.04783652	0.03349303
20.20245	0.04814697	0.0912033	0	0	0	0
20.21901	0.04825199	0.09109303	0.006341189	-0.006658125	0.1914326	-0.2010005
20.23592	0.04825199	0.09109303	0	0	-0.1894688	0.1989386
20.25233	0.04825199	0.09109303	0	0	0	0
20.26871	0.05077212	0.08921804	0.1538153	-0.1144395	4.690485	-3.489748
20.28528	0.05077212	0.08921804	0	0	-4.667951	3.472982
20.30185	0.05077212	0.08921804	0	0	0	0
20.31842	0.05192696	0.08506081	0.06970651	-0.2509314	2.103626	-7.572687
20.33498	0.05192696	0.08506081	0	0	-2.103747	7.573123
20.35155	0.05192696	0.08506081	0	0	0	0
20.36811	0.03808684	0.03214104	-0.8355842	-3.194979	-25.22088	-96.43577
20.38468	0.03808684	0.03214104	0	0	25.21943	96.43021
20.40125	0.03808684	0.03214104	0	0	0	0
20.41782	0.01226254	-0.05572188	-1.558757	-5.303417	-47.04339	-160.0574
20.43439	0.01226254	-0.05572188	0	0	47.04339	160.0574
20.45095	0.01226254	-0.05572188	0	0	0	0
20.47465	-0.02604674	-0.1146053	-1.616897	-2.485258	-40.16107	-61.72971
20.49122	-0.02604674	-0.1146053	0	0	40.15726	61.72386
20.50837	-0.04370899	-0.1278414	-1.029816	-0.7717472	-30.53847	-22.88562
20.52435	-0.04370899	-0.1278414	0	0	31.0817	23.29272
20.54092	-0.04370899	-0.1278414	0	0	0	0
20.55748	-0.06849793	-0.146679	-1.496264	-1.137039	-45.15733	-34.3159
20.57405	-0.06849793	-0.146679	0	0	45.15993	34.31788
20.59062	-0.06849793	-0.146679	0	0	0	0
20.60718	-0.07710996	-0.1532964	-0.5198231	-0.3994233	-15.68829	-12.05462
20.62375	-0.07710996	-0.1532964	0	0	15.68829	12.05462
20.64032	-0.07710996	-0.1532964	0	0	0	0
20.65689	-0.07656059	-0.1537143	0.0331604	-0.02522648	1.000783	-0.7613366
20.67351	-0.07656059	-0.1537143	0	0	-0.9989429	0.7599367
20.6903	-0.07656059	-0.1537143	0	0	0	0
20.70658	-0.06642843	-0.1614296	0.6220337	-0.4736607	18.80874	-14.32232
20.72315	-0.06642843	-0.1614296	0	0	-18.93213	14.41627
20.73972	-0.06642843	-0.1614296	0	0	0	0
20.75629	-0.06372937	-0.1634874	0.1629157	-0.1242076	4.916806	-3.748593
20.77285	-0.06372937	-0.1634874	0	0	-4.917089	3.748808
20.83267	-0.06372937	-0.1634874	0	0	0	0
20.85019	-0.06372937	-0.1634874	0	0	0	0
20.86676	-0.06372937	-0.1634874	0	0	0	0
20.88332	-0.06372937	-0.1634874	0	0	0	0
20.89989	-0.06372937	-0.1634874	0	0	0	0
20.91646	-0.06372937	-0.1634874	0	0	0	0
20.93324	-0.06372937	-0.1634874	0	0	0	0
20.94959	-0.06372937	-0.1634874	0	0	0	0
20.96667	-0.06372937	-0.1634874	0	0	0	0
20.98278	-0.06372937	-0.1634874	0	0	0	0
20.99935	-0.06365074	-0.1633475	0.004745327	0.008443831	0.1452205	0.2584053
21.01586	-0.06365074	-0.1633475	0	0	-0.1434455	-0.2552467
21.03243	-0.06365074	-0.1633475	0	0	0	0
21.04899	-0.06359833	-0.1633075	0.00316413	0.002413464	0.09549913	0.07284269
21.06556	-0.06359833	-0.1633075	0	0	-0.09549913	-0.07284269
21.08213	-0.06359833	-0.1633075	0	0	0	0
21.0987	-0.06359833	-0.1632676	0	0.002412287	0	0.07280297
21.11526	-0.06359833	-0.1632676	0	0	0	-0.07280716
21.13183	-0.06359833	-0.1632676	0	0	0	0
21.1484	-0.06341486	-0.1631277	0.0110743	0.008443904	0.3342232	0.2548375
21.16502	-0.06341486	-0.1631277	0	0	-0.3336662	-0.2544128
21.18153	-0.06341486	-0.1631277	0	0	0	0
21.19934	-0.06328381	-0.1630677	0.007360942	0.003368063	0.2144983	0.09814556
21.21641	-0.06328381	-0.1630677	0	0	-0.2110727	-0.09657815
21.23247	-0.06328381	-0.1630677	0	0	0	0
21.24904	-0.06307412	-0.1629079	0.01265686	0.009649148	0.3878567	0.2956884
21.26561	-0.06307412	-0.1629079	0	0	-0.3819849	-0.2912119
21.28234	-0.06307412	-0.1629079	0	0	0	0
21.29874	-0.06226153	-0.161889	0.04953852	0.06211392	1.495162	1.87471
21.3153	-0.06226153	-0.161889	0	0	-1.502688	-1.884146
21.33187	-0.06226153	-0.161889	0	0	0	0
21.34843	-0.05898413	-0.159274	0.1978469	0.157862	5.971376	4.764558
21.365	-0.05898413	-0.159274	0	0	-5.971376	-4.764558
21.38157	-0.05898413	-0.159274	0	0	0	0
21.39832	-0.05895791	-0.1592939	0.00156548	-0.001191179	0.04698663	-0.03575229
21.41483	-0.05895791	-0.1592939	0	0	-0.04706746	0.0358138
21.43127	-0.05895791	-0.1592939	0	0	0	0
21.44784	-0.05890546	-0.1593737	0.003166154	-0.004817034	0.09592468	-0.1459412
21.4644	-0.05890546	-0.1593737	0	0	-0.09556022	0.1453867
21.48097	-0.05890546	-0.1593737	0	0	0	0
21.49754	-0.05885301	-0.1594136	0.003166743	-0.002409244	0.09557801	-0.07271531
21.51452	-0.05885301	-0.1594136	0	0	-0.0943934	0.07181407
21.53067	-0.05885301	-0.1594136	0	0	0	0
21.54724	-0.05885301	-0.1594136	0	0	0	0
21.56381	-0.05885301	-0.1594136	0	0	0	0
21.58037	-0.05885301	-0.1594136	0	0	0	0
21.59702	-0.05885301	-0.1594136	0	0	0	0
21.61351	-0.05885301	-0.1594136	0	0	0	0
21.6303	-0.05885301	-0.1594136	0	0	0	0
21.64664	-0.05885301	-0.1594136	0	0	0	0
21.66321	-0.05885301	-0.1594136	0	0	0	0
21.67978	-0.05885301	-0.1594136	0	0	0	0
21.69634	-0.05885301	-0.1594136	0	0	0	0
21.7131	-0.05885301	-0.1594136	0	0	0	0
21.72947	-0.05885301	-0.1594136	0	0	0	0
21.74604	-0.05882679	-0.1594336	0.001582782	-0.001204345	0.04805616	-0.0365661
21.76261	-0.05882679	-0.1594336	0	0	-0.04776846	0.0363472
21.77917	-0.05882679	-0.1594336	0	0	0	0
21.79574	-0.05880056	-0.1594535	0.001583007	-0.001204345	0.04777525	-0.0363472
21.81231	-0.05880056	-0.1594535	0	0	-0.04777525	0.0363472
21.8294	-0.05880056	-0.1594535	0	0	0	0
21.84896	-0.05877433	-0.1594735	0.001341071	-0.001020281	0.0365954	-0.02784161
21.86553	-0.05877433	-0.1594735	0	0	-0.03712092	0.02824143
21.88209	-0.05877433	-0.1594735	0	0	0	0
21.89915	-0.05880056	-0.1594535	-0.001537343	0.001169604	-0.04571814	0.03478215
21.91545	-0.05880056	-0.1594535	0	0	0.046092	-0.03506658
21.9318	-0.05880056	-0.1594535	0	0	0	0
21.94836	-0.05877433	-0.1594735	0.001583372	-0.001204622	0.04811027	-0.03660208
21.96576	-0.05877433	-0.1594735	0	0	-0.0466189	0.03546745
21.98149	-0.05877433	-0.1594735	0	0	0	0
21.99829	-0.05874811	-0.1594535	0.001561391	0.001188068	0.04799874	0.03652241
22.01463	-0.05874811	-0.1594535	0	0	-0.04712287	-0.03585596
22.0312	-0.05874811	-0.1594535	0	0	0	0
22.04776	-0.05874811	-0.1594535	0	0	0	0
22.06478	-0.05874811	-0.1594535	0	0	0	0
22.0809	-0.05874811	-0.1594535	0	0	0	0
22.09746	-0.05872189	-0.1594336	0.001583372	0.001204622	0.04845003	0.03686056
22.11403	-0.05872189	-0.1594336	0	0	-0.047789	-0.03635766
22.13077	-0.05872189	-0.1594336	0	0	0	0
22.14716	-0.05866943	-0.1593937	0.003199162	0.002433908	0.09655091	0.0734555
22.16384	-0.05866943	-0.1593937	0	0	-0.09673467	-0.0735953
22.1803	-0.05866943	-0.1593937	0	0	0	0
22.19711	-0.05866943	-0.1593937	0	0	0	0
22.21343	-0.05866943	-0.1593937	0	0	0	0
22.23	-0.05866943	-0.1593937	0	0	0	0
22.24657	-0.05536442	-0.1568811	0.1994683	0.1516418	6.019619	4.576296
22.26313	-0.05536442	-0.1568811	0	0	-6.019966	-4.576559
22.2797	-0.05536442	-0.1568811	0	0	0	0
22.29627	-0.03614215	-0.1425748	1.160258	0.8635277	35.01667	26.06132
22.31284	-0.03614215	-0.1425748	0	0	-35.01667	-26.06132
22.3294	-0.03614215	-0.1425748	0	0	0	0
22.34597	-0.03070088	-0.1387941	0.3284736	0.228232	9.913922	6.888453
22.36254	-0.03070088	-0.1387941	0	0	-9.913352	-6.888057
22.3791	-0.03070088	-0.1387941	0	0	0	0
22.39567	-0.03038538	-0.1391106	0.01904111	-0.01910092	0.5746289	-0.5764337
22.4123	-0.03038538	-0.1391106	0	0	-0.5736054	0.575407
22.4288	-0.03038538	-0.1391106	0	0	0	0
22.44537	-0.03035909	-0.1392886	0.001586942	-0.01074646	0.04798516	-0.324946
22.46194	-0.03035909	-0.1392886	0	0	-0.04789401	0.3243288
22.4785	-0.03035909	-0.1392886	0	0	0	0
22.49507	-0.03038538	-0.1392688	-0.001587125	0.001194588	-0.04790504	0.0360569
22.51164	-0.03038538	-0.1392688	0	0	0.04790228	-0.03605482
22.52871	-0.03038538	-0.1392688	0	0	0	0
22.54477	-0.0303328	-0.1392688	0.003273879	0	0.09881156	0
22.56134	-0.0303328	-0.1392688	0	0	-0.1003364	0
22.5779	-0.0303328	-0.1392688	0	0	0	0
22.59475	-0.02907076	-0.1402186	0.07490082	-0.0563678	2.241416	-1.686813
22.61127	-0.02907076	-0.1402186	0	0	-2.245003	1.689513
22.62761	-0.02907076	-0.1402186	0	0	0	0
22.64428	-0.00678937	-0.1569608	1.336292	-1.004089	40.47849	-30.4155
22.66074	-0.00678937	-0.1569608	0	0	-40.33401	30.30694
22.6773	-0.00678937	-0.1569608	0	0	0	0
22.69387	0.003157884	-0.164387	0.6004174	-0.4482474	18.12063	-13.52813
22.7105	0.003157884	-0.164387	0	0	-18.08628	13.50248
22.72701	0.003157884	-0.164387	0	0	0	0
22.74357	0.003789456	-0.164547	0.03812611	-0.009656556	1.152838	-0.2919901
22.7602	0.003789456	-0.164547	0	0	-1.148533	0.2908996
22.77671	0.003789456	-0.164547	0	0	0	0
22.79327	0.005631519	-0.1658671	0.1112	-0.07969379	3.362604	-2.40988
22.81027	0.005631519	-0.1658671	0	0	-3.312923	2.374275
22.82641	0.005631519	-0.1658671	0	0	0	0
22.84297	0.005605204	-0.1658871	-0.001588741	-0.001208221	-0.04858882	-0.03695127
22.85965	0.005605204	-0.1658871	0	0	0.04778602	0.03634075
22.87611	0.005605204	-0.1658871	0	0	0	0
22.89268	0.005605204	-0.1658871	0	0	0	0
22.90924	0.005605204	-0.1658871	0	0	0	0
22.92581	0.005605204	-0.1658871	0	0	0	0
22.94237	0.00557889	-0.1658671	-0.001588559	0.001208081	-0.04794555	0.03646207
22.95894	0.00557889	-0.1658671	0	0	0.04794555	-0.03646207
22.97557	0.00557889	-0.1658671	0	0	0	0
22.99207	0.00557889	-0.1658671	0	0	0	0
23.0089	0.00557889	-0.1658671	0	0	0	0
23.02521	0.00557889	-0.1658671	0	0	0	0
23.04206	0.00557889	-0.1658671	0	0	0	0
23.05878	0.00557889	-0.1658671	0	0	0	0
23.0752	0.00557889	-0.1658671	0	0	0	0
23.09176	0.005552575	-0.1658471	-0.001588741	0.001208221	-0.04816736	0.03663075
23.10833	0.005552575	-0.1658471	0	0	0.04795383	-0.03646837
23.1249	0.005552575	-0.1658471	0	0	0	0
23.14147	0.00552626	-0.1658271	-0.001588376	0.001207043	-0.04793451	0.03642653
23.15803	0.00552626	-0.1658271	0	0	0.04794279	-0.03643282
23.17474	0.00552626	-0.1658271	0	0	0	0
23.19117	0.005342055	-0.1656871	-0.01121677	0.008528419	-0.3385229	0.2573882
23.20774	0.005342055	-0.1656871	0	0	0.3399711	-0.2584893
23.2243	0.005342055	-0.1656871	0	0	0	0
23.24087	0.005315739	-0.1656671	-0.001588952	0.00120836	-0.04796296	0.03647467
23.25743	0.005315739	-0.1656671	0	0	0.0479602	-0.03647257
23.274	0.005315739	-0.1656671	0	0	0	0
23.29057	0.005289424	-0.1656471	-0.001588376	0.001207043	-0.04793727	0.03642863
23.30714	0.005289424	-0.1656471	0	0	0.04793727	-0.03642863
23.3237	0.005289424	-0.1656471	0	0	0	0
23.34027	0.005289424	-0.1656471	0	0	0	0
23.35684	0.005289424	-0.1656471	0	0	0	0
23.37341	0.005289424	-0.1656471	0	0	0	0
23.38997	0.005315739	-0.1656671	0.001588193	-0.001206904	0.04792624	-0.03642024
23.40654	0.005315739	-0.1656671	0	0	-0.04793451	0.03642653
23.42315	0.005315739	-0.1656671	0	0	0	0
23.43988	0.005315739	-0.1656671	0	0	0	0
23.45624	0.005315739	-0.1656671	0	0	0	0
23.47281	0.005315739	-0.1656671	0	0	0	0
23.4894	0.005263109	-0.165627	-0.003172004	0.002411376	-0.09565968	0.07272106
23.50594	0.005263109	-0.165627	0	0	0.09573678	-0.07277967
23.52251	0.005263109	-0.165627	0	0	0	0
23.53907	0.005263109	-0.165627	0	0	0	0
23.61325	0.005263109	-0.165627	0	0	0	0
23.63029	0.005263109	-0.165627	0	0	0	0
23.65461	0.005289424	-0.1656471	0.001082004	-0.0008228521	0.02616492	-0.01989814
23.67131	0.005289424	-0.1656471	0	0	-0.02637783	0.02006005
23.68774	0.005289424	-0.1656471	0	0	0	0
23.70482	0.005289424	-0.1656471	0	0	0	0
23.72088	0.005289424	-0.1656471	0	0	0	0
23.73744	0.005289424	-0.1656471	0	0	0	0
23.75401	0.005289424	-0.1656471	0	0	0	0
23.77087	0.005289424	-0.1656471	0	0	0	0
23.78738	0.005289424	-0.1656471	0	0	0	0
23.80389	0.005289424	-0.1656471	0	0	0	0
23.82027	0.005289424	-0.1656471	0	0	0	0
23.83684	0.005289424	-0.1656471	0	0	0	0
23.85341	0.005289424	-0.1656471	0	0	0	0
23.86998	0.005289424	-0.1656471	0	0	0	0
23.88962	0.005289424	-0.1656471	0	0	0	0
23.90619	0.005289424	-0.1656471	0	0	0	0
23.92281	0.005289424	-0.1656471	0	0	0	0
23.93932	0.005289424	-0.1656471	0	0	0	0
23.95589	0.005289424	-0.1656471	0	0	0	0
23.97245	0.005289424	-0.1656471	0	0	0	0
23.98902	0.005289424	-0.1656471	0	0	0	0
24.00561	0.005289424	-0.1656471	0	0	0	0
24.02234	0.005289424	-0.1656471	0	0	0	0
24.03872	0.005289424	-0.1656471	0	0	0	0
24.05616	0.005289424	-0.1656471	0	0	0	0
24.07234	0.005289424	-0.1656471	0	0	0	0
24.08845	0.005289424	-0.1656471	0	0	0	0
24.10499	0.005289424	-0.1656471	0	0	0	0
24.12155	0.005289424	-0.1656471	0	0	0	0
24.1384	0.005289424	-0.1656471	0	0	0	0
24.15476	0.005289424	-0.1656471	0	0	0	0
24.17126	0.005289424	-0.1656471	0	0	0	0
24.18786	0.005289424	-0.1656471	0	0	0	0
24.20439	0.005289424	-0.1656471	0	0	0	0
24.22114	0.005289424	-0.1656471	0	0	0	0
24.23752	0.005263109	-0.165627	-0.001606501	0.001221727	-0.04848709	0.0368739
24.25436	0.005263109	-0.165627	0	0	0.04836181	-0.03677863
24.27065	0.005263109	-0.165627	0	0	0	0
24.28722	0.005263109	-0.165627	0	0	0	0
24.30379	0.005263109	-0.165627	0	0	0	0
24.32046	0.005263109	-0.165627	0	0	0	0
24.33717	0.005289424	-0.1656471	0.001574958	-0.001197738	0.04718466	-0.03588342
24.3535	0.005289424	-0.1656471	0	0	-0.04766677	0.03625006
24.37092	0.005289424	-0.1656471	0	0	0	0
24.3869	0.005289424	-0.1656471	0	0	0	0
24.40333	0.005289424	-0.1656471	0	0	0	0
24.41983	0.005289424	-0.1656471	0	0	0	0
24.43632	0.005289424	-0.1656471	0	0	0	0
24.45289	0.005289424	-0.1656471	0	0	0	0
24.46946	0.005289424	-0.1656471	0	0	0	0
24.48602	0.005289424	-0.1656471	0	0	0	0
24.50259	0.005289424	-0.1656471	0	0	0	0
24.51916	0.005289424	-0.1656471	0	0	0	0
24.53606	0.005289424	-0.1656471	0	0	0	0
24.55245	0.005289424	-0.1656471	0	0	0	0
24.56886	0.005289424	-0.1656471	0	0	0	0
24.5855	0.005289424	-0.1656471	0	0	0	0
24.602	0.005289424	-0.1656471	0	0	0	0
24.61877	0.005289424	-0.1656471	0	0	0	0
24.63513	0.005289424	-0.1656471	0	0	0	0
24.6517	0.005289424	-0.1656471	0	0	0	0
24.66826	0.005289424	-0.1656471	0	0	0	0
24.68482	0.005289424	-0.1656471	0	0	0	0
24.70139	0.005289424	-0.1656471	0	0	0	0
24.71796	0.005289424	-0.1656471	0	0	0	0
24.73452	0.005289424	-0.1656471	0	0	0	0
24.7513	0.005289424	-0.1656471	0	0	0	0
24.76828	0.005289424	-0.1656471	0	0	0	0
24.78422	0.005315739	-0.1656671	0.001650512	-0.001254262	0.05013869	-0.03810154
24.80079	0.005315739	-0.1656671	0	0	-0.05076521	0.03857764
24.81735	0.005315739	-0.1656671	0	0	0	0
24.83397	0.005289424	-0.1656471	-0.001583999	0.001203717	-0.04774472	0.0362823
24.85049	0.005289424	-0.1656471	0	0	0.04780518	-0.03632825
24.86705	0.005289424	-0.1656471	0	0	0	0
24.884	0.005289424	-0.1656471	0	0	0	0
24.90018	0.005289424	-0.1656471	0	0	0	0
24.91675	0.005289424	-0.1656471	0	0	0	0
24.93332	0.005289424	-0.1656471	0	0	0	0
24.94989	0.005289424	-0.1656471	0	0	0	0
24.96656	0.005289424	-0.1656471	0	0	0	0
24.98302	0.005289424	-0.1656471	0	0	0	0
24.99959	0.005289424	-0.1656471	0	0	0	0
25.01615	0.005289424	-0.1656471	0	0	0	0
25.03272	0.005289424	-0.1656471	0	0	0	0
25.04929	0.005289424	-0.1656471	0	0	0	0
25.06621	0.005289424	-0.1656471	0	0	0	0
25.08243	0.005315739	-0.1656671	0.001623133	-0.001233456	0.04898343	-0.03722363
25.09913	0.005315739	-0.1656671	0	0	-0.0493127	0.03747384
25.11636	0.005315739	-0.1656671	0	0	0	0
25.13212	0.005315739	-0.1656671	0	0	0	0
25.14869	0.005315739	-0.1656671	0	0	0	0
25.16574	0.005315739	-0.1656671	0	0	0	0
25.18182	0.005315739	-0.1656671	0	0	0	0
25.19839	0.005315739	-0.1656671	0	0	0	0
25.21496	0.005315739	-0.1656671	0	0	0	0
25.23152	0.005315739	-0.1656671	0	0	0	0
25.24812	0.005315739	-0.1656671	0	0	0	0
25.26468	0.005315739	-0.1656671	0	0	0	0
25.28123	0.005315739	-0.1656671	0	0	0	0
25.29836	0.005315739	-0.1656671	0	0	0	0
25.31436	0.005315739	-0.1656671	0	0	0	0
25.33092	0.005315739	-0.1656671	0	0	0	0
25.34749	0.005315739	-0.1656671	0	0	0	0
25.36406	0.005315739	-0.1656671	0	0	0	0
25.38062	0.005289424	-0.1656471	-0.001588376	0.001207043	-0.04793727	0.03642863
25.39737	0.005289424	-0.1656471	0	0	0.04768201	-0.03623465
25.4143	0.005289424	-0.1656471	0	0	0	0
25.43032	0.005289424	-0.1656471	0	0	0	0
25.44689	0.005289424	-0.1656471	0	0	0	0
25.46396	0.005289424	-0.1656471	0	0	0	0
25.48002	0.005289424	-0.1656471	0	0	0	0
25.49659	0.005289424	-0.1656471	0	0	0	0
25.51316	0.005289424	-0.1656471	0	0	0	0
25.52972	0.005315739	-0.1656671	0.001588741	-0.001207321	0.04795383	-0.03644121
25.54629	0.005315739	-0.1656671	0	0	-0.04795107	0.03643912
25.56292	0.005315739	-0.1656671	0	0	0	0
25.57942	0.005315739	-0.1656671	0	0	0	0
25.59599	0.005315739	-0.1656671	0	0	0	0
25.61256	0.005315739	-0.1656671	0	0	0	0
25.62912	0.005315739	-0.1656671	0	0	0	0
25.64569	0.005315739	-0.1656671	0	0	0	0
25.66249	0.005315739	-0.1656671	0	0	0	0
25.67882	0.005315739	-0.1656671	0	0	0	0
25.69539	0.005315739	-0.1656671	0	0	0	0
25.71222	0.005315739	-0.1656671	0	0	0	0
25.72853	0.005315739	-0.1656671	0	0	0	0
25.74509	0.005315739	-0.1656671	0	0	0	0
25.76166	0.005315739	-0.1656671	0	0	0	0
25.77822	0.005315739	-0.1656671	0	0	0	0
25.79479	0.005315739	-0.1656671	0	0	0	0
25.81136	0.005315739	-0.1656671	0	0	0	0
25.82839	0.005315739	-0.1656671	0	0	0	0
25.84449	0.005315739	-0.1656671	0	0	0	0
25.86106	0.005315739	-0.1656671	0	0	0	0
25.87762	0.005315739	-0.1656671	0	0	0	0
25.89419	0.005315739	-0.1656671	0	0	0	0
25.91159	0.005315739	-0.1656671	0	0	0	0
25.92732	0.005342055	-0.1656871	0.001672551	-0.001271934	0.0504777	-0.03838706
25.94389	0.005342055	-0.1656871	0	0	-0.0517772	0.03937529
25.96046	0.005342055	-0.1656871	0	0	0	0
25.97702	0.00536837	-0.1657071	0.001588376	-0.001207942	0.04793727	-0.03645577
25.99363	0.00536837	-0.1657071	0	0	-0.04788215	0.03641385
26.01016	0.00536837	-0.1657071	0	0	0	0
26.02672	0.00536837	-0.1657071	0	0	0	0
26.04329	0.00536837	-0.1657071	0	0	0	0
26.06017	0.00536837	-0.1657071	0	0	0	0
26.07642	0.005342055	-0.1656871	-0.001619323	0.001231477	-0.04887126	0.03716606
26.09299	0.005342055	-0.1656871	0	0	0.04934276	-0.03752463
26.10971	0.005342055	-0.1656871	0	0	0	0
26.12612	0.005342055	-0.1656871	0	0	0	0
26.14273	0.005342055	-0.1656871	0	0	0	0
26.15926	0.005342055	-0.1656871	0	0	0	0
26.17582	0.005342055	-0.1656871	0	0	0	0
26.19239	0.005342055	-0.1656871	0	0	0	0
26.20896	0.005342055	-0.1656871	0	0	0	0
26.22553	0.005342055	-0.1656871	0	0	0	0
26.24209	0.005342055	-0.1656871	0	0	0	0
26.25894	0.005342055	-0.1656871	0	0	0	0
26.27523	0.00536837	-0.1657071	0.001615909	-0.001228881	0.04876823	-0.03708771
26.2918	0.00536837	-0.1657071	0	0	-0.04918728	0.03740639
26.30837	0.00536837	-0.1657071	0	0	0	0
26.32493	0.00536837	-0.1657071	0	0	0	0
26.3415	0.00536837	-0.1657071	0	0	0	0
26.35809	0.00536837	-0.1657071	0	0	0	0
26.37485	0.00536837	-0.1657071	0	0	0	0
26.3912	0.00536837	-0.1657071	0	0	0	0
26.408	0.00536837	-0.1657071	0	0	0	0
26.42439	0.00536837	-0.1657071	0	0	0	0
26.4409	0.00536837	-0.1657071	0	0	0	0
26.45746	0.00536837	-0.1657071	0	0	0	0
26.47403	0.005342055	-0.1656871	-0.001588741	0.001208221	-0.04795383	0.03646837
26.4906	0.005342055	-0.1656871	0	0	0.04795107	-0.03646627
26.50803	0.005342055	-0.1656871	0	0	0	0
26.52373	0.005342055	-0.1656871	0	0	0	0
26.5403	0.005342055	-0.1656871	0	0	0	0
26.55686	0.005342055	-0.1656871	0	0	0	0
26.57343	0.005342055	-0.1656871	0	0	0	0
26.5901	0.005342055	-0.1656871	0	0	0	0
26.6066	0.005342055	-0.1656871	0	0	0	0
26.62313	0.00536837	-0.1657071	0.00159149	-0.001210311	0.04818661	-0.03664539
26.6397	0.00536837	-0.1657071	0	0	-0.04807832	0.03656304
26.65655	0.00536837	-0.1657071	0	0	0	0
26.67284	0.00536837	-0.1657071	0	0	0	0
26.6894	0.00536837	-0.1657071	0	0	0	0
26.70597	0.00536837	-0.1657071	0	0	0	0
26.72331	0.00536837	-0.1657071	0	0	0	0
26.74003	0.00536837	-0.1657071	0	0	0	0
26.75663	0.00536837	-0.1657071	0	0	0	0
26.77311	0.00536837	-0.1657071	0	0	0	0
26.78992	0.00536837	-0.1657071	0	0	0	0
26.80625	0.00536837	-0.1657071	0	0	0	0
26.82281	0.00536837	-0.1657071	0	0	0	0
26.83938	0.00536837	-0.1657071	0	0	0	0
26.85595	0.00536837	-0.1657071	0	0	0	0
26.87251	0.00536837	-0.1657071	0	0	0	0
26.88908	0.00536837	-0.1657071	0	0	0	0
26.90565	0.00536837	-0.1657071	0	0	0	0
26.92221	0.00536837	-0.1657071	0	0	0	0
26.9389	0.00536837	-0.1657071	0	0	0	0
26.95597	0.00536837	-0.1657071	0	0	0	0
26.97191	0.00536837	-0.1657071	0	0	0	0
26.98848	0.00536837	-0.1657071	0	0	0	0
27.00505	0.00536837	-0.1657071	0	0	0	0
27.02162	0.00536837	-0.1657071	0	0	0	0
27.03838	0.00536837	-0.1657071	0	0	0	0
27.05475	0.00536837	-0.1657071	0	0	0	0
27.07132	0.00536837	-0.1657071	0	0	0	0
27.08836	0.00536837	-0.1657071	0	0	0	0
27.10445	0.00536837	-0.1657071	0	0	0	0
27.12114	0.00536837	-0.1657071	0	0	0	0
27.13862	0.00536837	-0.1657071	0	0	0	0
27.15471	0.00536837	-0.1657071	0	0	0	0
27.17088	0.00536837	-0.1657071	0	0	0	0
27.18747	0.00536837	-0.1657071	0	0	0	0
27.20397	0.00536837	-0.1657071	0	0	0	0
27.22714	0.00536837	-0.1657071	0	0	0	0
27.24371	0.00536837	-0.1657071	0	0	0	0
27.26028	0.00536837	-0.1657071	0	0	0	0
27.27686	0.00536837	-0.1657071	0	0	0	0
27.29341	0.00536837	-0.1657071	0	0	0	0
27.30998	0.00536837	-0.1657071	0	0	0	0
27.32684	0.00536837	-0.1657071	0	0	0	0
27.34311	0.00536837	-0.1657071	0	0	0	0
27.35968	0.00536837	-0.1657071	0	0	0	0
27.37637	0.00536837	-0.1657071	0	0	0	0
27.39281	0.00536837	-0.1657071	0	0	0	0
27.40938	0.00536837	-0.1657071	0	0	0	0
27.42595	0.00536837	-0.1657071	0	0	0	0
27.44294	0.00536837	-0.1657071	0	0	0	0
27.45932	0.005342055	-0.1656871	-0.001606501	0.001221727	-0.04813517	0.03660627
27.47565	0.005342055	-0.1656871	0	0	0.04911764	-0.03735343
27.49221	0.005342055	-0.1656871	0	0	0	0
27.50881	0.005315739	-0.1656671	-0.00158603	0.001206137	-0.04783344	0.03637617
27.52535	0.005315739	-0.1656671	0	0	0.04786924	-0.03640339
27.54191	0.005315739	-0.1656671	0	0	0	0
27.55848	0.005315739	-0.1656671	0	0	0	0
27.57505	0.005315739	-0.1656671	0	0	0	0
27.59161	0.005315739	-0.1656671	0	0	0	0
27.60867	0.005315739	-0.1656671	0	0	0	0
27.62513	0.005315739	-0.1656671	0	0	0	0
27.64131	0.005315739	-0.1656671	0	0	0	0
27.65788	0.005315739	-0.1656671	0	0	0	0
27.67445	0.005315739	-0.1656671	0	0	0	0
27.69102	0.005315739	-0.1656671	0	0	0	0
27.70758	0.005315739	-0.1656671	0	0	0	0
27.72415	0.005315739	-0.1656671	0	0	0	0
27.74072	0.005315739	-0.1656671	0	0	0	0
27.75728	0.005315739	-0.1656671	0	0	0	0
27.77385	0.005315739	-0.1656671	0	0	0	0
27.79042	0.005315739	-0.1656671	0	0	0	0
27.80698	0.005315739	-0.1656671	0	0	0	0
27.82355	0.005315739	-0.1656671	0	0	0	0
27.8403	0.005315739	-0.1656671	0	0	0	0
27.85668	0.005315739	-0.1656671	0	0	0	0
27.87325	0.005315739	-0.1656671	0	0	0	0
27.89016	0.005315739	-0.1656671	0	0	0	0
27.90673	0.005315739	-0.1656671	0	0	0	0
27.9233	0.005315739	-0.1656671	0	0	0	0
27.93987	0.005315739	-0.1656671	0	0	0	0
27.95643	0.005315739	-0.1656671	0	0	0	0
27.973	0.005315739	-0.1656671	0	0	0	0
27.99012	0.005315739	-0.1656671	0	0	0	0
28.00613	0.005289424	-0.1656471	-0.001642847	0.001248437	-0.04958408	0.03768007
28.02275	0.005289424	-0.1656471	0	0	0.05033457	-0.03825039
28.03957	0.005289424	-0.1656471	0	0	0	0
28.05601	0.005289424	-0.1656471	0	0	0	0
28.0724	0.005289424	-0.1656471	0	0	0	0
28.08911	0.005289424	-0.1656471	0	0	0	0
28.10561	0.005289424	-0.1656471	0	0	0	0
28.1221	0.005289424	-0.1656471	0	0	0	0
28.13869	0.005289424	-0.1656471	0	0	0	0
28.15523	0.005289424	-0.1657671	0	-0.007256716	0	-0.2190207
28.1718	0.005289424	-0.1657671	0	0	0	0.2191595
28.18837	0.005289424	-0.1657671	0	0	0	0
28.20494	0.002894729	-0.16867	-0.1445441	-0.1752173	-4.362601	-5.288373
28.2215	0.002894729	-0.16867	0	0	4.36235	5.288069
28.23872	0.002894729	-0.16867	0	0	0	0
28.25463	-0.003605247	-0.1954122	-0.4083714	-1.680125	-12.32538	-50.70919
28.2712	-0.003605247	-0.1954122	0	0	12.57144	51.72152
28.28777	-0.003605247	-0.1954122	0	0	0	0
28.30434	-0.01144687	-0.2504667	-0.4733212	-3.323094	-14.28486	-100.2912
28.3209	-0.01144687	-0.2504667	0	0	14.28486	100.2912
28.3376	-0.01144687	-0.2504667	0	0	0	0
28.35403	-0.02299595	-0.3046001	-0.7026857	-3.293665	-21.20954	-99.41447
28.37093	-0.02299595	-0.3046001	0	0	21.0821	98.81712
28.38717	-0.02299595	-0.3046001	0	0	0	0
28.40374	-0.03248857	-0.3496482	-0.5729758	-2.719108	-17.46435	-82.87865
28.42053	-0.03248857	-0.3496482	0	0	17.17774	81.51851
28.43687	-0.03248857	-0.3496482	0	0	0	0
28.45344	-0.02680936	-0.3553776	0.3428367	-0.3458675	10.41699	-10.50908
28.47001	-0.02680936	-0.3553776	0	0	-10.34683	10.4383
28.48657	-0.02680936	-0.3553776	0	0	0	0
28.50326	-0.02691455	-0.3555542	-0.006305561	-0.0105852	-0.1896472	-0.3183623
28.51971	-0.02691455	-0.3555542	0	0	0.1903022	0.3194619
28.53651	-0.02691455	-0.3555542	0	0	0	0
28.55966	-0.02701974	-0.3563491	-0.004543453	-0.03433689	-0.1137193	-0.8594272
28.57623	-0.02701974	-0.3563491	0	0	0.11438	0.8644205
28.59304	-0.0246529	-0.3584709	0.14082	-0.1262377	4.218872	-3.781994
28.60937	-0.0246529	-0.3584709	0	0	-4.249957	3.80986
28.62593	-0.0246529	-0.3584709	0	0	0	0
28.6425	-0.007578802	-0.3739585	1.030832	-0.9350494	31.11415	-28.22309
28.65907	-0.007578802	-0.3739585	0	0	-31.11415	28.22309
28.67563	-0.007578802	-0.3739585	0	0	0	0
28.6922	0.009078698	-0.3884246	1.00568	-0.8733789	30.35324	-26.36014
28.70929	0.009078698	-0.3884246	0	0	-29.88529	25.95375
28.72533	0.009078698	-0.3884246	0	0	0	0
28.7419	0.01218361	-0.3913112	0.1874559	-0.1742752	5.748091	-5.343925
28.75847	0.01218361	-0.3913112	0	0	-5.657755	5.25994
28.77503	0.01218361	-0.3913112	0	0	0	0
28.7916	0.01210467	-0.3913338	-0.004764537	-0.001361746	-0.143794	-0.04109757
28.80817	0.01210467	-0.3913338	0	0	0.143794	0.04109757
28.82474	0.01210467	-0.3913338	0	0	0	0
28.8413	0.01205205	-0.3912886	-0.003176414	0.002725291	-0.09586436	0.08224943
28.85787	0.01205205	-0.3912886	0	0	0.09586436	-0.08224943
28.87444	0.01205205	-0.3912886	0	0	0	0
28.89131	0.01205205	-0.3912886	0	0	0	0
28.90757	0.01205205	-0.3912886	0	0	0	0
28.92414	0.01205205	-0.3912886	0	0	0	0
28.94071	0.01202574	-0.3912661	-0.001588179	0.001361746	-0.04793134	0.04109757
28.95727	0.01202574	-0.3912661	0	0	0.04793409	-0.04109994
28.97384	0.01202574	-0.3912661	0	0	0	0
28.99055	0.01197311	-0.3912209	-0.003148144	0.002701035	-0.09458648	0.08115304
29.0628	0.01197311	-0.3912209	0	0	0.03538881	-0.03036279
29.07937	0.01197311	-0.3912209	0	0	0	0
29.09889	0.01155212	-0.3908598	-0.02156543	0.01849658	-0.5974686	0.5124463
29.11547	0.01155212	-0.3908598	0	0	0.5973424	-0.5123381
29.13203	0.01155212	-0.3908598	0	0	0	0
29.1486	0.0102628	-0.3897545	-0.07784145	0.06673372	-2.349936	2.014607
29.16516	0.0102628	-0.3897545	0	0	2.34953	-2.01426
29.18173	0.0102628	-0.3897545	0	0	0	0
29.1983	0.009710222	-0.389281	-0.03336124	0.02858526	-1.00696	0.8628041
29.21486	0.009710222	-0.389281	0	0	1.006902	-0.8627544
29.23143	0.009710222	-0.389281	0	0	0	0
29.248	-0.002394732	-0.3789451	-0.7307406	0.6239493	-22.05507	18.83191
29.26457	-0.002394732	-0.3789451	0	0	22.05253	-18.82974
29.29742	-0.002394732	-0.3789451	0	0	0	0
29.31399	-0.02175972	-0.3625452	-1.168873	0.9899029	-23.65211	20.03065
29.33076	-0.02175972	-0.3625452	0	0	35.06071	-29.69244
29.34755	-0.02175972	-0.3625452	0	0	0	0
29.36388	-0.0264675	-0.3585815	-0.2882439	0.2426866	-8.701722	7.326404
29.38026	-0.0264675	-0.3585815	0	0	8.81234	-7.419538
29.39683	-0.0264675	-0.3585815	0	0	0	0
29.41344	-0.0265201	-0.3585372	-0.003164834	0.002661253	-0.09537213	0.08019676
29.42996	-0.0265201	-0.3585372	0	0	0.09552037	-0.08032141
29.44653	-0.0265201	-0.3585372	0	0	0	0
29.46309	-0.0265201	-0.3585372	0	0	0	0
29.47991	-0.0265201	-0.3585372	0	0	0	0
29.49623	-0.0265201	-0.3585372	0	0	0	0
29.51279	-0.02654639	-0.3585151	-0.001587279	0.001334763	-0.04826538	0.04058694
29.52936	-0.02654639	-0.3585151	0	0	0.04790419	-0.04028322
29.54593	-0.02654639	-0.3585151	0	0	0	0
29.56252	-0.02828193	-0.3570561	-0.1046127	0.08794586	-3.155037	2.652379
29.57906	-0.02828193	-0.3570561	0	0	3.157398	-2.654364
29.5958	-0.02828193	-0.3570561	0	0	0	0
29.61219	-0.05499712	-0.3347337	-1.629984	1.361966	-49.19868	41.10895
29.62876	-0.05499712	-0.3347337	0	0	49.45492	-41.32306
29.6457	-0.05499712	-0.3347337	0	0	0	0
29.66189	-0.08461329	-0.310246	-1.829767	1.512916	-55.22884	45.66516
29.67846	-0.08461329	-0.310246	0	0	55.86239	-46.18901
29.69559	-0.08461329	-0.310246	0	0	0	0
29.71159	-0.09565455	-0.301174	-0.6901293	0.5670359	-20.82934	17.11416
29.72816	-0.09565455	-0.301174	0	0	21.19167	-17.41186
29.74517	-0.09565455	-0.301174	0	0	0	0
29.76129	-0.0981051	-0.2991643	-0.1520281	0.1246838	-4.58848	3.763182
29.77841	-0.0981051	-0.2991643	0	0	4.57426	-3.75152
29.7947	-0.0981051	-0.2991643	0	0	0	0
29.81104	-0.09807903	-0.2991856	0.00159422	-0.001307097	0.04884756	-0.04004997
29.82756	-0.09807903	-0.2991856	0	0	-0.04851301	0.03977567
29.84413	-0.09807903	-0.2991856	0	0	0	0
29.86069	-0.09807903	-0.2991856	0	0	0	0
29.87726	-0.09807903	-0.2991856	0	0	0	0
29.89392	-0.09807903	-0.2991856	0	0	0	0
29.91039	-0.09807903	-0.2991856	0	0	0	0
29.92696	-0.09807903	-0.2991856	0	0	0	0
29.94395	-0.09807903	-0.2991856	0	0	0	0
29.96009	-0.0980269	-0.2992284	0.003229591	-0.0026494	0.09748048	-0.07996827
29.97669	-0.0980269	-0.2992284	0	0	-0.09865043	0.08092804
29.99326	-0.0980269	-0.2992284	0	0	0	0
30.00982	-0.09800084	-0.2992498	0.001573295	-0.00128994	0.04747939	-0.03892821
30.02639	-0.09800084	-0.2992498	0	0	-0.04748486	0.03893269
30.04334	-0.09800084	-0.2992498	0	0	0	0
30.05952	-0.09797478	-0.2992711	0.001609999	-0.001320034	0.04859267	-0.03984099
30.07609	-0.09797478	-0.2992711	0	0	-0.04915579	0.04030269
30.09266	-0.09797478	-0.2992711	0	0	0	0
30.10922	-0.09797478	-0.2992711	0	0	0	0
30.12579	-0.09797478	-0.2992711	0	0	0	0
30.14236	-0.09797478	-0.2992711	0	0	0	0
30.15914	-0.09800084	-0.2992925	-0.001552911	-0.001273227	-0.04656406	-0.03817773
30.17549	-0.09800084	-0.2992925	0	0	0.04686694	0.03842607
30.19227	-0.09800084	-0.2992925	0	0	0	0
30.20862	-0.09805297	-0.299378	-0.003188896	-0.005228386	-0.09625217	-0.1578112
30.22519	-0.09805297	-0.299378	0	0	0.09687682	0.1588353
30.24176	-0.09805297	-0.299378	0	0	0	0
30.25833	-0.09815722	-0.2996345	-0.006290281	-0.01547575	-0.1898083	-0.4669783
30.27489	-0.09815722	-0.2996345	0	0	0.189852	0.4670858
30.29171	-0.09815722	-0.2996345	0	0	0	0
30.30803	-0.09857421	-0.3001475	-0.02555224	-0.0314381	-0.7711683	-0.9488037
30.32459	-0.09857421	-0.3001475	0	0	0.7769827	0.9559574
30.34116	-0.09857421	-0.3001475	0	0	0	0
30.3579	-0.09886087	-0.3005966	-0.0171235	-0.02682437	-0.5140953	-0.8053424
30.37429	-0.09886087	-0.3005966	0	0	0.516818	0.8096077
30.39086	-0.09886087	-0.3005966	0	0	0	0
30.40742	-0.09883481	-0.3007035	0.001573476	-0.006455838	0.04749306	-0.19486
30.42399	-0.09883481	-0.3007035	0	0	-0.04749032	0.1948488
30.44056	-0.09883481	-0.3007035	0	0	0	0
30.45712	-0.0981051	-0.3015164	0.04405597	-0.04907732	1.329765	-1.481327
30.47369	-0.0981051	-0.3015164	0	0	-1.329688	1.481242
30.49026	-0.0981051	-0.3015164	0	0	0	0
30.50682	-0.09484614	-0.3044501	0.196756	-0.1771199	5.938791	-5.346106
30.52339	-0.09484614	-0.3044501	0	0	-5.938449	5.345798
30.53996	-0.09484614	-0.3044501	0	0	0	0
30.55652	-0.08445651	-0.3131295	0.627264	-0.5240079	18.93304	-15.81641
30.57309	-0.08445651	-0.3131295	0	0	-18.93195	15.8155
30.58966	-0.08445651	-0.3131295	0	0	0	0
30.60623	-0.07577568	-0.3204669	0.5239758	-0.4428912	15.81362	-13.36648
30.62282	-0.07577568	-0.3204669	0	0	-15.80089	13.35572
30.64058	-0.07577568	-0.3204669	0	0	0	0
30.65716	-0.0751477	-0.3213322	0.03789665	-0.05221462	1.103697	-1.520692
30.67373	-0.0751477	-0.3213322	0	0	-1.143197	1.575115
30.69029	-0.0751477	-0.3213322	0	0	0	0
30.70686	-0.07480751	-0.3219165	0.02053367	-0.03526868	0.6199216	-1.064779
30.72342	-0.07480751	-0.3219165	0	0	-0.6197075	1.064411
30.74004	-0.07480751	-0.3219165	0	0	0	0
30.75656	-0.07480751	-0.3220464	0	-0.007862112	0	-0.2373063
30.77312	-0.07480751	-0.3220464	0	0	0	0.2376073
30.78984	-0.07480751	-0.3220464	0	0	0	0
30.80625	-0.07085487	-0.3258384	0.2408835	-0.2310985	7.271133	-6.975772
30.82338	-0.07085487	-0.3258384	0	0	-7.183045	6.891263
30.83943	-0.07085487	-0.3258384	0	0	0	0
30.85596	-0.04483835	-0.3475377	1.573803	-1.312642	48.30949	-40.2929
30.87252	-0.04483835	-0.3475377	0	0	-47.54948	39.659
30.88909	-0.04483835	-0.3475377	0	0	0	0
30.90566	-0.03396062	-0.3569677	0.6565807	-0.5691954	19.81565	-17.17835
30.92223	-0.03396062	-0.3569677	0	0	-19.81108	17.1744
30.93879	-0.03396062	-0.3569677	0	0	0	0
30.95535	-0.0243636	-0.3650967	0.5794108	-0.4907823	17.4937	-14.81781
30.97192	-0.0243636	-0.3650967	0	0	-17.48766	14.81269
30.98852	-0.0243636	-0.3650967	0	0	0	0
31.00506	-0.02502109	-0.3645417	-0.0397642	0.03356789	-1.200086	1.013081
31.02163	-0.02502109	-0.3645417	0	0	1.201261	-1.014073
31.03819	-0.02502109	-0.3645417	0	0	0	0
31.05476	-0.02544188	-0.3641866	-0.02539861	0.02143356	-0.7665315	0.646866
31.0715	-0.02544188	-0.3641866	0	0	0.7624498	-0.6434215
31.08789	-0.02544188	-0.3641866	0	0	0	0
31.10446	-0.02546818	-0.3641644	-0.001587392	0.001340159	-0.04816543	0.04066378
31.12103	-0.02546818	-0.3641644	0	0	0.04790758	-0.04044609
31.1376	-0.02546818	-0.3641644	0	0	0	0
31.15416	-0.02549447	-0.3641422	-0.001587575	0.001340314	-0.04791586	0.04045308
31.17093	-0.02549447	-0.3641422	0	0	0.04763342	-0.04021463
31.18793	-0.02549447	-0.3641422	0	0	0	0
31.20388	-0.02552077	-0.36412	-0.001648307	0.001389719	-0.05001085	0.04216511
31.22071	-0.02552077	-0.36412	0	0	0.05029024	-0.04240067
31.23716	-0.02552077	-0.36412	0	0	0	0
31.25356	-0.02552077	-0.36412	0	0	0	0
31.2702	-0.02552077	-0.36412	0	0	0	0
31.28678	-0.02552077	-0.36412	0	0	0	0
31.31073	-0.02559967	-0.3640535	-0.003293333	0.00277916	-0.0812467	0.06856203
31.32763	-0.02559967	-0.3640535	0	0	0.0806057	-0.06802111
31.34389	-0.02557337	-0.3640756	0.00161775	-0.001363956	0.0487901	-0.04113587
31.36044	-0.02557337	-0.3640756	0	0	-0.04931777	0.04158076
31.377	-0.02557337	-0.3640756	0	0	0	0
31.39357	-0.02557337	-0.3640756	0	0	0	0
31.41035	-0.02557337	-0.3640756	0	0	0	0
31.4267	-0.02557337	-0.3640756	0	0	0	0
31.44334	-0.02562597	-0.3640313	-0.00316168	0.002667465	-0.09583897	0.08085798
31.45984	-0.02562597	-0.3640313	0	0	0.0954142	-0.0804996
31.47676	-0.02562597	-0.3640313	0	0	0	0
31.49489	-0.02604674	-0.3636762	-0.0232143	0.01958592	-0.6623301	0.5588084
31.51183	-0.02604674	-0.3636762	0	0	0.6620778	-0.5585956
31.52802	-0.02604674	-0.3636762	0	0	0	0
31.54459	-0.02615193	-0.3635875	-0.006349343	0.00535704	-0.1937764	0.1634922
31.56116	-0.02615193	-0.3635875	0	0	0.1916236	-0.1616758
31.57773	-0.02615193	-0.3635875	0	0	0	0
31.59429	-0.02615193	-0.3635875	0	0	0	0
31.61086	-0.02615193	-0.3635875	0	0	0	0
31.62743	-0.02615193	-0.3635875	0	0	0	0
31.64414	-0.02615193	-0.3635875	0	0	0	0
31.66081	-0.02615193	-0.3635875	0	0	0	0
31.67713	-0.02615193	-0.3635875	0	0	0	0
31.6937	-0.02615193	-0.3635875	0	0	0	0
31.71026	-0.02615193	-0.3635875	0	0	0	0
31.72683	-0.02615193	-0.3635875	0	0	0	0
31.74339	-0.02615193	-0.3635875	0	0	0	0
31.75996	-0.02615193	-0.3635875	0	0	0	0
31.77671	-0.02615193	-0.3635875	0	0	0	0
31.7931	-0.02615193	-0.3635875	0	0	0	0
31.80966	-0.02615193	-0.3635875	0	0	0	0
31.82654	-0.02615193	-0.3635875	0	0	0	0
31.8428	-0.02612563	-0.3636097	0.001618015	-0.00136611	0.04883461	-0.04123166
31.85936	-0.02612563	-0.3636097	0	0	-0.04930006	0.04162464
31.87605	-0.02612563	-0.3636097	0	0	0	0
31.89279	-0.02609934	-0.3635875	0.001571292	0.001326567	0.04701304	0.03969087
31.90906	-0.02609934	-0.3635875	0	0	-0.04759428	-0.04018159
31.92591	-0.02609934	-0.3635875	0	0	0	0
31.9422	-0.02607304	-0.3636097	0.001614341	-0.001362911	0.04872371	-0.04113511
31.95876	-0.02607304	-0.3636097	0	0	-0.04913099	0.04147896
31.97554	-0.02607304	-0.3636097	0	0	0	0
31.9919	-0.02596785	-0.3636541	0.006430782	-0.002712876	0.1940814	-0.08187477
32.00846	-0.02596785	-0.3636541	0	0	-0.1953182	0.0823965
32.02503	-0.02596785	-0.3636541	0	0	0	0
32.05268	-0.02594155	-0.3636319	0.0009510337	0.0008029125	0.02150688	0.01815724
32.06937	-0.02594155	-0.3636319	0	0	-0.02145137	-0.01811037
32.08588	-0.02583635	-0.3635432	0.006369989	0.00537256	0.1918932	0.1618461
32.10239	-0.02583635	-0.3635432	0	0	-0.1928907	-0.1626873
32.11896	-0.02583635	-0.3635432	0	0	0	0
32.13552	-0.02570486	-0.3633879	0.007936847	0.009373921	0.2395345	0.2829055
32.15209	-0.02570486	-0.3633879	0	0	-0.2395345	-0.2829055
32.1688	-0.02570486	-0.3633879	0	0	0	0
32.18523	-0.02567857	-0.3634101	0.00160129	-0.001351989	0.04832704	-0.04080311
32.20179	-0.02567857	-0.3634101	0	0	-0.04853939	0.0409824
32.21836	-0.02567857	-0.3634101	0	0	0	0
32.235	-0.02549447	-0.3632991	0.01106334	0.006666237	0.3331636	0.2007483
32.2515	-0.02549447	-0.3632991	0	0	-0.3338923	-0.2011874
32.26806	-0.02549447	-0.3632991	0	0	0	0
32.28463	-0.02531038	-0.3631439	0.01111174	0.009370323	0.3353531	0.2827969
32.3012	-0.02531038	-0.3631439	0	0	-0.3353531	-0.2827969
32.31776	-0.02531038	-0.3631439	0	0	0	0
32.33443	-0.02504739	-0.3630108	0.0157834	0.007985991	0.4749769	0.240326
32.3509	-0.02504739	-0.3630108	0	0	-0.476344	-0.2410177
32.36747	-0.02504739	-0.3630108	0	0	0	0
32.38403	-0.0244162	-0.3627004	0.03810764	0.01874316	1.150223	0.5657349
32.4006	-0.0244162	-0.3627004	0	0	-1.150223	-0.5657349
32.41716	-0.0244162	-0.3627004	0	0	0	0
32.43373	-0.0241269	-0.3626339	0.01746232	0.004015082	0.527014	0.1211754
32.4503	-0.0241269	-0.3626339	0	0	-0.527014	-0.1211754
32.46687	-0.0241269	-0.3626339	0	0	0	0
32.48352	-0.02362718	-0.3629221	0.0300109	-0.017311	0.9033387	-0.5210672
32.5	-0.02362718	-0.3629221	0	0	-0.9058349	0.5225071
32.51657	-0.02362718	-0.3629221	0	0	0	0
32.53313	-0.02346937	-0.3629664	0.009529639	-0.002677955	0.2876382	-0.08083013
32.54992	-0.02346937	-0.3629664	0	0	-0.2857627	0.0803031
32.56657	-0.02346937	-0.3629664	0	0	0	0
32.58534	-0.02336417	-0.3629221	0.00560427	0.002362325	0.1582087	0.06668848
32.60214	-0.02336417	-0.3629221	0	0	-0.1575639	-0.06641669
32.61848	-0.02336417	-0.3629221	0	0	0	0
32.65142	-0.02325896	-0.3628334	0.003193134	0.002691907	0.06478801	0.05461821
32.668	-0.02325896	-0.3628334	0	0	-0.06448355	-0.05436155
32.68456	-0.02310115	-0.3627004	0.009525476	0.008030163	0.2874463	0.2423229
32.70113	-0.02310115	-0.3627004	0	0	-0.2874794	-0.2423508
32.7177	-0.02310115	-0.3627004	0	0	0	0
32.73426	-0.02299595	-0.3625673	0.006351817	0.008032013	0.1917203	0.2424345
32.75083	-0.02299595	-0.3625673	0	0	-0.1917203	-0.2424345
32.76751	-0.02299595	-0.3625673	0	0	0	0
32.78405	-0.02270662	-0.3621905	0.01748369	0.02277295	0.5262048	0.6853952
32.80053	-0.02270662	-0.3621905	0	0	-0.5293652	-0.6895117
32.8171	-0.02270662	-0.3621905	0	0	0	0
32.83497	-0.02260141	-0.3620575	0.005886785	0.007442303	0.1709333	0.2161005
32.85154	-0.02260141	-0.3620575	0	0	-0.1709143	-0.2160765
32.86811	-0.02260141	-0.3620575	0	0	0	0
32.88468	-0.02254881	-0.3620132	0.003175233	0.002674922	0.09582873	0.08072931
32.90125	-0.02254881	-0.3620132	0	0	-0.09582873	-0.08072931
32.91781	-0.02254881	-0.3620132	0	0	0	0
32.93438	-0.0224962	-0.3620132	0.003175965	0	0.09586184	0
32.95095	-0.0224962	-0.3620132	0	0	-0.09585081	0
32.96799	-0.0224962	-0.3620132	0	0	0	0
32.98408	-0.0224699	-0.361991	0.001635441	0.001378677	0.04936339	0.04161333
33.00064	-0.0224699	-0.361991	0	0	-0.05009009	-0.04222593
33.01792	-0.0224699	-0.361991	0	0	0	0
33.03378	-0.0224436	-0.3619688	0.001658653	0.001396365	0.050064	0.04214722
33.05034	-0.0224436	-0.3619688	0	0	-0.05115363	-0.04306454
33.06704	-0.0224436	-0.3619688	0	0	0	0
33.08361	-0.0224436	-0.3619688	0	0	0	0
33.10004	-0.0224436	-0.3619688	0	0	0	0
33.11661	-0.0224436	-0.3619688	0	0	0	0
33.13317	-0.0224173	-0.3617694	0.001587982	0.01204262	0.04792541	0.363447
33.14974	-0.0224173	-0.3617694	0	0	-0.04793092	-0.3634889
33.16631	-0.0224173	-0.3617694	0	0	0	0
33.18288	-0.0224699	-0.3614592	-0.003175965	0.01872877	-0.09585081	0.5652354
33.19944	-0.0224699	-0.3614592	0	0	0.09586184	-0.5653005
33.21614	-0.0224699	-0.3614592	0	0	0	0
33.23258	-0.0242058	-0.3597762	-0.1056302	0.1024094	-3.187924	3.090722
33.24915	-0.0242058	-0.3597762	0	0	3.200822	-3.103226
33.26571	-0.0242058	-0.3597762	0	0	0	0
33.28227	-0.03890142	-0.3462639	-0.8874381	0.8159788	-26.7891	24.63196
33.29889	-0.03890142	-0.3462639	0	0	26.75213	-24.59797
33.31591	-0.03890142	-0.3462639	0	0	0	0
33.33197	-0.07224248	-0.3181977	-2.075555	1.747184	-62.73425	52.80915
33.34855	-0.07224248	-0.3181977	0	0	63.59212	-53.53129
33.36511	-0.07224248	-0.3181977	0	0	0	0
33.38168	-0.09014972	-0.2999551	-1.080883	1.101125	-32.62112	33.23203
33.39825	-0.09014972	-0.2999551	0	0	32.62112	-33.23203
33.41502	-0.09014972	-0.2999551	0	0	0	0
33.43152	-0.09411586	-0.2953433	-0.2404485	0.2795932	-7.226797	8.403311
33.44803	-0.09411586	-0.2953433	0	0	7.285266	-8.471299
33.46451	-0.09411586	-0.2953433	0	0	0	0
33.48107	-0.09382894	-0.2956205	0.01732662	-0.01674261	0.5243672	-0.5066931
33.49764	-0.09382894	-0.2956205	0	0	-0.5230388	0.5054094
33.51421	-0.09382894	-0.2956205	0	0	0	0
33.53077	-0.09356809	-0.2958338	0.01574508	-0.01287273	0.4751873	-0.3884996
33.54734	-0.09356809	-0.2958338	0	0	-0.4751873	0.3884996
33.56391	-0.09356809	-0.2958338	0	0	0	0
33.58047	-0.09359417	-0.2958125	-0.001574463	0.001286193	-0.04751737	0.03881739
33.59704	-0.09359417	-0.2958125	0	0	0.04751737	-0.03881739
33.61361	-0.09359417	-0.2958125	0	0	0	0
33.63018	-0.09359417	-0.2958125	0	0	0	0
33.64674	-0.09359417	-0.2958125	0	0	0	0
33.66331	-0.09359417	-0.2958125	0	0	0	0
33.67988	-0.09359417	-0.2958125	0	0	0	0
33.69644	-0.09359417	-0.2958125	0	0	0	0
33.71301	-0.09359417	-0.2958125	0	0	0	0
33.72958	-0.09364634	-0.2957698	-0.003148925	0.002575984	-0.09503475	0.07774337
33.74668	-0.09364634	-0.2957698	0	0	0.09351669	-0.07650151
33.76273	-0.09364634	-0.2957698	0	0	0	0
33.77928	-0.09369851	-0.2956845	-0.003153281	0.005155494	-0.09673654	0.1581605
33.79585	-0.09369851	-0.2956845	0	0	0.095232	-0.1557007
33.81241	-0.09369851	-0.2956845	0	0	0	0
33.82898	-0.09369851	-0.2955992	0	0.00515017	0	0.1554324
33.84555	-0.09369851	-0.2955992	0	0	0	-0.1554324
33.86211	-0.09369851	-0.2955992	0	0	0	0
33.87868	-0.09330722	-0.295194	0.02361829	0.02445566	0.7128013	0.7380733
33.89534	-0.09330722	-0.295194	0	0	-0.7109188	-0.7361241
33.91212	-0.09330722	-0.295194	0	0	0	0
33.92838	-0.08356807	-0.2872581	0.5991689	0.4882327	18.13306	14.77572
33.94527	-0.08356807	-0.2872581	0	0	-18.07463	-14.72811
33.96177	-0.08356807	-0.2872581	0	0	0	0
33.9825	-0.04888208	-0.2593997	1.672687	1.343434	44.93132	36.08701
33.99907	-0.04888208	-0.2593997	0	0	-44.83485	-36.00952
34.016	-0.03453889	-0.2480942	0.8476063	0.6680973	25.30694	19.94735
34.03221	-0.03453889	-0.2480942	0	0	-25.58081	-20.16322
34.04908	-0.03453889	-0.2480942	0	0	0	0
34.06534	-0.02641491	-0.2417606	0.4996842	0.3895582	15.08223	11.75824
34.08191	-0.02641491	-0.2417606	0	0	-15.22245	-11.86756
34.09855	-0.02641491	-0.2417606	0	0	0	0
34.11504	-0.02609934	-0.2414704	0.01913604	0.01759936	0.5775268	0.5311497
34.13232	-0.02609934	-0.2414704	0	0	-0.5665686	-0.5210714
34.14836	-0.02609934	-0.2414704	0	0	0	0
34.16473	-0.02607304	-0.2414911	0.001606254	-0.001265982	0.04956096	-0.03906186
34.1813	-0.02607304	-0.2414911	0	0	-0.04875751	0.03842862
34.19787	-0.02607304	-0.2414911	0	0	0	0
34.21505	-0.02525778	-0.2407243	0.04747076	0.0446529	1.406916	1.323402
34.23125	-0.02525778	-0.2407243	0	0	-1.422354	-1.337923
34.24757	-0.02525778	-0.2407243	0	0	0	0
34.26413	-0.009447088	-0.2283088	0.9547753	0.7497444	29.0358	22.80058
34.2807	-0.009447088	-0.2283088	0	0	-28.82181	-22.63254
34.29759	-0.009447088	-0.2283088	0	0	0	0
34.31383	0.005447315	-0.2165621	0.9171901	0.7233546	27.68085	21.83088
34.3304	0.005447315	-0.2165621	0	0	-27.95766	-22.04919
34.34697	0.005447315	-0.2165621	0	0	0	0
34.36353	0.01826113	-0.2065722	0.7734432	0.6029935	23.34256	18.19838
34.3801	0.01826113	-0.2065722	0	0	-23.33988	-18.19629
34.39667	0.01826113	-0.2065722	0	0	0	0
34.4134	0.01865573	-0.2063073	0.02359016	0.01583791	0.7085266	0.4756888
34.42998	0.01865573	-0.2063073	0	0	-0.7082831	-0.4755254
34.44654	0.01865573	-0.2063073	0	0	0	0
34.4631	0.01868204	-0.2062869	0.001587842	0.001230428	0.04793219	0.03714295
34.52787	0.01868204	-0.2062869	0	0	-0.01952269	-0.01512825
34.54445	0.01868204	-0.2062869	0	0	0	0
34.56439	0.02499479	-0.2013611	0.3165362	0.2469926	8.667929	6.763567
34.58096	0.02499479	-0.2013611	0	0	-8.66974	-6.764981
34.59753	0.02499479	-0.2013611	0	0	0	0
34.61409	0.0248633	-0.2012594	-0.007940841	0.006138778	-0.2396826	0.18529
34.63066	0.0248633	-0.2012594	0	0	0.239655	-0.1852687
34.64722	0.0248633	-0.2012594	0	0	0	0
34.66394	0.0248107	-0.2009341	-0.003147358	0.01946259	-0.09458455	0.5848908
34.68097	0.0248107	-0.2009341	0	0	0.09327993	-0.5768234
34.6975	0.0248107	-0.2009341	0	0	0	0
34.71349	0.02594155	-0.1993695	0.07073379	0.09786689	2.174811	3.009057
34.73006	0.02594155	-0.1993695	0	0	-2.172772	-3.006236
34.74662	0.02594155	-0.1993695	0	0	0	0
34.76319	0.03559023	-0.180339	0.5823955	1.148686	17.57673	34.6674
34.77976	0.03559023	-0.180339	0	0	-17.57673	-34.6674
34.79656	0.03559023	-0.180339	0	0	0	0
34.81289	0.03259372	-0.1736636	-0.1835321	0.4088584	-5.539649	12.34079
34.82946	0.03259372	-0.1736636	0	0	5.578833	-12.42808
34.84621	0.03259372	-0.1736636	0	0	0	0
34.86259	0.03256743	-0.1736435	-0.001605311	0.001225651	-0.04845397	0.03699447
34.8792	0.03256743	-0.1736435	0	0	0.04867253	-0.03716135
34.89583	0.03256743	-0.1736435	0	0	0	0
34.91229	0.03259372	-0.1736636	0.001596757	-0.001219119	0.04824575	-0.0368355
34.92886	0.03259372	-0.1736636	0	0	-0.04834047	0.03690782
34.94577	0.03259372	-0.1736636	0	0	0	0
34.96199	0.03256743	-0.1736435	-0.00162041	0.001237178	-0.04890406	0.03733811
34.97856	0.03256743	-0.1736435	0	0	0.04941608	-0.03772904
34.99544	0.03256743	-0.1736435	0	0	0	0
35.01169	0.0321731	-0.1733424	-0.02426506	0.01853085	-0.7324052	0.5593264
35.02844	0.0321731	-0.1733424	0	0	0.7352837	-0.5615247
35.04488	0.0321731	-0.1733424	0	0	0	0
35.06139	0.03159475	-0.1729409	-0.03503079	0.02431478	-1.063106	0.7378993
35.07796	0.03159475	-0.1729409	0	0	1.05906	-0.735091
35.09453	0.03159475	-0.1729409	0	0	0	0
35.1111	0.03143701	-0.1728607	-0.009520979	0.004845261	-0.2873437	0.1462303
35.1278	0.03143701	-0.1728607	0	0	0.2861249	-0.14561
35.14423	0.03143701	-0.1728607	0	0	0	0
35.1608	0.03130556	-0.1727603	-0.007934374	0.006056801	-0.2404843	0.1835766
35.17736	0.03130556	-0.1727603	0	0	0.2394599	-0.1827946
35.19393	0.03130556	-0.1727603	0	0	0	0
35.2105	0.03117411	-0.1728607	-0.007934374	-0.006056801	-0.2394599	-0.1827946
35.22707	0.03117411	-0.1728607	0	0	0.2394599	0.1827946
35.24368	0.03117411	-0.1728607	0	0	0	0
35.2602	0.03104266	-0.172961	-0.007960146	-0.006076389	-0.2402654	-0.1834069
35.27676	0.03104266	-0.172961	0	0	0.2406255	0.1836818
35.29426	0.03104266	-0.172961	0	0	0	0
35.30989	0.03096378	-0.1729409	-0.005044104	0.001283659	-0.1522489	0.03874537
35.32646	0.03096378	-0.1729409	0	0	0.1566313	-0.03986064
35.34303	0.03096378	-0.1729409	0	0	0	0
35.3596	0.01965536	-0.164327	-0.6825776	0.5199351	-20.60023	15.69167
35.37616	0.01965536	-0.164327	0	0	20.60023	-15.69167
35.39273	0.01965536	-0.164327	0	0	0	0
35.40956	-0.01949753	-0.1347625	-2.326313	1.756609	-69.65495	52.59676
35.42587	-0.01949753	-0.1347625	0	0	70.20828	-53.01458
35.44243	-0.01949753	-0.1347625	0	0	0	0
35.45956	-0.0330406	-0.1247323	-0.7905222	0.5854735	-23.4583	17.3736
35.47557	-0.0330406	-0.1247323	0	0	23.85801	-17.66962
35.4926	-0.0330406	-0.1247323	0	0	0	0
35.50871	-0.03354005	-0.1243587	-0.03101795	0.02320383	-0.9360158	0.7002123
35.52585	-0.03354005	-0.1243587	0	0	0.9330085	-0.6979626
35.54184	-0.03354005	-0.1243587	0	0	0	0
35.5584	-0.03354005	-0.1243587	0	0	0	0
35.57497	-0.03354005	-0.1243587	0	0	0	0
35.59161	-0.03354005	-0.1243587	0	0	0	0
35.6081	-0.03361891	-0.124339	-0.004780956	0.001192021	-0.1443061	0.03597939
35.62467	-0.03361891	-0.124339	0	0	0.1445892	-0.03604996
35.64124	-0.03361891	-0.124339	0	0	0	0
35.65781	-0.03372405	-0.1242604	-0.006346419	0.004747223	-0.1915353	0.1432715
35.67437	-0.03372405	-0.1242604	0	0	0.1915353	-0.1432715
35.69094	-0.03372405	-0.1242604	0	0	0	0
35.70751	-0.03375034	-0.1242407	-0.001586605	0.001186806	-0.04788383	0.03581787
35.72408	-0.03375034	-0.1242407	0	0	0.04788383	-0.03581787
35.74071	-0.03375034	-0.1242407	0	0	0	0
35.75726	-0.03377662	-0.1242997	-0.001588434	-0.003564521	-0.04786738	-0.1074167
35.77378	-0.03377662	-0.1242997	0	0	0.04803857	0.1078008
35.79034	-0.03377662	-0.1242997	0	0	0	0
35.80722	-0.03380291	-0.1243587	-0.001557908	-0.003496019	-0.04658865	-0.1045472
35.82347	-0.03380291	-0.1243587	0	0	0.04702316	0.1055222
35.84004	-0.03380291	-0.1243587	0	0	0	0
35.857	-0.03377662	-0.1243783	0.001549848	-0.001159311	0.04622635	-0.03457804
35.87318	-0.03377662	-0.1243783	0	0	-0.04677451	0.03498808
35.88974	-0.03377662	-0.1243783	0	0	0	0
35.90631	-0.03377662	-0.1244177	0	-0.002374061	0	-0.0716493
35.92288	-0.03377662	-0.1244177	0	0	0	0.0716493
35.93945	-0.03377662	-0.1244177	0	0	0	0
35.95601	-0.03377662	-0.1244177	0	0	0	0
35.97258	-0.03377662	-0.1244177	0	0	0	0
35.98914	-0.03377662	-0.1244177	0	0	0	0
36.00571	-0.03377662	-0.1244177	0	0	0	0
36.02228	-0.03377662	-0.1244177	0	0	0	0
36.03897	-0.03377662	-0.1244177	0	0	0	0
36.05542	-0.03380291	-0.1244373	-0.001598011	-0.001195338	-0.04822808	-0.03607537
36.07198	-0.03380291	-0.1244373	0	0	0.04840082	0.03620458
36.08855	-0.03380291	-0.1244373	0	0	0	0
36.10511	-0.03380291	-0.1244373	0	0	0	0
36.12168	-0.03380291	-0.1244373	0	0	0	0
36.13826	-0.03380291	-0.1244373	0	0	0	0
36.15481	-0.03382919	-0.124457	-0.001588068	-0.0011879	-0.04793349	-0.03585501
36.17138	-0.03382919	-0.124457	0	0	0.04794453	0.03586327
36.18795	-0.03382919	-0.124457	0	0	0	0
36.20452	-0.03380291	-0.1244767	0.001586605	-0.001186806	0.04788383	-0.03581787
36.22108	-0.03380291	-0.1244767	0	0	-0.04788383	0.03581787
36.23765	-0.03380291	-0.1244767	0	0	0	0
36.25458	-0.03380291	-0.1244767	0	0	0	0
36.27079	-0.03380291	-0.1244767	0	0	0	0
36.28736	-0.03380291	-0.1244767	0	0	0	0
36.30616	-0.03382919	-0.124457	-0.001397976	0.001045708	-0.03952449	0.02956495
36.32275	-0.03382919	-0.124457	0	0	0.03950319	-0.02954901
36.33939	-0.03382919	-0.124457	0	0	0	0
36.35586	-0.03382919	-0.124457	0	0	0	0
36.37255	-0.03382919	-0.124457	0	0	0	0
36.389	-0.03382919	-0.124457	0	0	0	0
36.40557	-0.03382919	-0.124457	0	0	0	0
36.42218	-0.03382919	-0.124457	0	0	0	0
36.43879	-0.03382919	-0.124457	0	0	0	0
36.45526	-0.03382919	-0.124457	0	0	0	0
36.47183	-0.03382919	-0.124457	0	0	0	0
36.48868	-0.03382919	-0.124457	0	0	0	0
36.50496	-0.03382919	-0.124457	0	0	0	0
36.52153	-0.03382919	-0.124457	0	0	0	0
36.5381	-0.03382919	-0.124457	0	0	0	0
36.55466	-0.03382919	-0.124457	0	0	0	0
36.57123	-0.03382919	-0.124457	0	0	0	0
36.5878	-0.03382919	-0.124457	0	0	0	0
36.60437	-0.03380291	-0.1244767	0.001586605	-0.001186806	0.04788383	-0.03581787
36.62093	-0.03380291	-0.1244767	0	0	-0.04788383	0.03581787
36.6375	-0.03380291	-0.1244767	0	0	0	0
36.65622	-0.03382919	-0.1244963	-0.001404244	-0.001050397	-0.03979612	-0.02976813
36.67279	-0.03382919	-0.1244963	0	0	0.03979182	0.02976491
36.68936	-0.03382919	-0.1244963	0	0	0	0
36.70628	-0.03380291	-0.124516	0.001553342	-0.001162365	0.04638333	-0.03470862
36.72249	-0.03380291	-0.124516	0	0	-0.04687995	0.03508024
36.73936	-0.03380291	-0.124516	0	0	0	0
36.75578	-0.03377662	-0.1245357	0.001601354	-0.001197838	0.04810741	-0.03598511
36.77222	-0.03377662	-0.1245357	0	0	-0.04873857	0.03645722
36.78876	-0.03377662	-0.1245357	0	0	0	0
36.80532	-0.03377662	-0.1245357	0	0	0	0
36.8219	-0.03377662	-0.1245357	0	0	0	0
36.83846	-0.03377662	-0.1245357	0	0	0	0
36.85503	-0.03377662	-0.1245357	0	0	0	0
36.8716	-0.03377662	-0.1245357	0	0	0	0
36.88869	-0.03377662	-0.1245357	0	0	0	0
36.90507	-0.03377662	-0.1245357	0	0	0	0
36.92131	-0.03377662	-0.1245357	0	0	0	0
36.93786	-0.03377662	-0.1245357	0	0	0	0
36.95451	-0.03377662	-0.1245357	0	0	0	0
36.971	-0.03377662	-0.1245357	0	0	0	0
36.98756	-0.03377662	-0.1245357	0	0	0	0
37.00413	-0.03377662	-0.1245357	0	0	0	0
37.0207	-0.03377662	-0.1245357	0	0	0	0
37.03727	-0.03377662	-0.1245357	0	0	0	0
37.05383	-0.03377662	-0.1245357	0	0	0	0
37.0704	-0.03377662	-0.1245357	0	0	0	0
37.08697	-0.03377662	-0.1245357	0	0	0	0
37.10353	-0.03377662	-0.1245357	0	0	0	0
37.1201	-0.03377662	-0.1245357	0	0	0	0
37.13667	-0.03377662	-0.1245357	0	0	0	0
37.15324	-0.03380291	-0.124516	-0.001586605	0.001186806	-0.04788383	0.03581787
37.1698	-0.03380291	-0.124516	0	0	0.04788383	-0.03581787
37.18669	-0.03380291	-0.124516	0	0	0	0
37.20293	-0.03380291	-0.124516	0	0	0	0
37.21966	-0.03380291	-0.124516	0	0	0	0
37.23609	-0.03380291	-0.124516	0	0	0	0
37.25264	-0.03380291	-0.124516	0	0	0	0
37.2692	-0.03380291	-0.124516	0	0	0	0
37.28578	-0.03380291	-0.124516	0	0	0	0
37.30233	-0.03380291	-0.124516	0	0	0	0
37.31907	-0.03380291	-0.124516	0	0	0	0
37.33672	-0.03380291	-0.124516	0	0	0	0
37.35329	-0.03380291	-0.124516	0	0	0	0
37.3699	-0.03380291	-0.124516	0	0	0	0
37.38642	-0.03380291	-0.124516	0	0	0	0
37.40299	-0.03380291	-0.124516	0	0	0	0
37.41956	-0.03380291	-0.124516	0	0	0	0
37.43612	-0.03380291	-0.124516	0	0	0	0
37.45269	-0.03380291	-0.124516	0	0	0	0
37.46925	-0.03380291	-0.124516	0	0	0	0
37.48582	-0.03380291	-0.124516	0	0	0	0
37.50286	-0.03380291	-0.124516	0	0	0	0
37.51896	-0.03380291	-0.124516	0	0	0	0
37.53552	-0.03380291	-0.124516	0	0	0	0
37.55209	-0.03380291	-0.124516	0	0	0	0
37.56871	-0.03380291	-0.124516	0	0	0	0
37.58542	-0.03380291	-0.124516	0	0	0	0
37.60201	-0.03380291	-0.124516	0	0	0	0
37.6184	-0.03380291	-0.124516	0	0	0	0
37.63492	-0.03380291	-0.124516	0	0	0	0
37.65148	-0.03380291	-0.124516	0	0	0	0
37.6684	-0.03380291	-0.124516	0	0	0	0
37.68489	-0.03380291	-0.124516	0	0	0	0
37.70118	-0.03380291	-0.124516	0	0	0	0
37.71775	-0.03380291	-0.124516	0	0	0	0
37.73432	-0.03380291	-0.124516	0	0	0	0
37.75089	-0.03380291	-0.124516	0	0	0	0
37.76794	-0.03380291	-0.124516	0	0	0	0
37.78402	-0.03380291	-0.124516	0	0	0	0
37.80059	-0.03380291	-0.124516	0	0	0	0
37.81716	-0.03380291	-0.124516	0	0	0	0
37.83453	-0.03380291	-0.124516	0	0	0	0
37.85029	-0.03380291	-0.124516	0	0	0	0
37.86686	-0.03380291	-0.124516	0	0	0	0
37.88343	-0.03380291	-0.124516	0	0	0	0
37.9008	-0.03380291	-0.124516	0	0	0	0
37.91656	-0.03380291	-0.124516	0	0	0	0
37.93313	-0.03380291	-0.124516	0	0	0	0
37.9497	-0.03380291	-0.124516	0	0	0	0
37.96636	-0.03380291	-0.124516	0	0	0	0
37.98283	-0.03380291	-0.124516	0	0	0	0
38.00528	-0.03380291	-0.124516	0	0	0	0
38.02185	-0.03380291	-0.124516	0	0	0	0
38.03841	-0.03380291	-0.124516	0	0	0	0
38.05498	-0.03380291	-0.124516	0	0	0	0
38.07155	-0.03380291	-0.124516	0	0	0	0
38.08891	-0.03380291	-0.124516	0	0	0	0
38.10468	-0.03380291	-0.124516	0	0	0	0
38.12125	-0.03380291	-0.124516	0	0	0	0
38.13781	-0.03380291	-0.124516	0	0	0	0
38.15438	-0.03380291	-0.124516	0	0	0	0
38.17095	-0.03380291	-0.124516	0	0	0	0
38.18752	-0.03380291	-0.124516	0	0	0	0
38.20413	-0.03380291	-0.124516	0	0	0	0
38.22071	-0.03380291	-0.124516	0	0	0	0
38.23721	-0.03380291	-0.124516	0	0	0	0
38.25378	-0.03380291	-0.124516	0	0	0	0
38.27106	-0.03380291	-0.124516	0	0	0	0
38.28709	-0.03380291	-0.124516	0	0	0	0
38.30348	-0.03380291	-0.124516	0	0	0	0
38.32018	-0.03380291	-0.124516	0	0	0	0
38.33661	-0.03375034	-0.1245553	0.003198248	-0.00239234	0.09653442	-0.07220928
38.35318	-0.03375034	-0.1245553	0	0	-0.09690262	0.0724847
38.37045	-0.03375034	-0.1245553	0	0	0	0
38.38631	-0.03367148	-0.1246143	0.004971591	-0.003719299	0.1500429	-0.1122487
38.40305	-0.03367148	-0.1246143	0	0	-0.1525187	0.1141009
38.41973	-0.03367148	-0.1246143	0	0	0	0
38.43602	-0.03361891	-0.1246536	0.003227459	-0.002414648	0.09790084	-0.07324525
38.4527	-0.03361891	-0.1246536	0	0	-0.09788951	0.07323678
38.46915	-0.03361891	-0.1246536	0	0	0	0
38.48571	-0.03361891	-0.1246536	0	0	0	0
38.50281	-0.03361891	-0.1246536	0	0	0	0
38.51885	-0.03361891	-0.1246536	0	0	0	0
38.53542	-0.03361891	-0.1246536	0	0	0	0
38.55198	-0.03361891	-0.1246536	0	0	0	0
38.56855	-0.03361891	-0.1246536	0	0	0	0
38.58542	-0.03361891	-0.1246536	0	0	0	0
38.60168	-0.03361891	-0.1246536	0	0	0	0
38.61862	-0.03361891	-0.1246536	0	0	0	0
38.63482	-0.03361891	-0.1246536	0	0	0	0
38.65138	-0.03361891	-0.1246536	0	0	0	0
38.66809	-0.03361891	-0.1246536	0	0	0	0
38.68451	-0.03364519	-0.124634	-0.00160061	0.001197282	-0.04831206	0.03613819
38.70108	-0.03364519	-0.124634	0	0	0.04851315	-0.03628861
38.71765	-0.03364519	-0.124634	0	0	0	0
38.73441	-0.03361891	-0.1246536	0.001568904	-0.001173565	0.04708399	-0.03521957
38.75099	-0.03361891	-0.1246536	0	0	-0.04706244	0.03520345
38.76735	-0.03361891	-0.1246536	0	0	0	0
38.78392	-0.03361891	-0.1246536	0	0	0	0
38.80048	-0.03361891	-0.1246536	0	0	0	0
38.81772	-0.03361891	-0.1246536	0	0	0	0
38.83362	-0.03361891	-0.1246536	0	0	0	0
38.85019	-0.03361891	-0.1246536	0	0	0	0
38.86755	-0.03361891	-0.1246536	0	0	0	0
38.88332	-0.03361891	-0.1246536	0	0	0	0
38.90037	-0.03361891	-0.1246536	0	0	0	0
38.91645	-0.03361891	-0.1246536	0	0	0	0
38.93301	-0.03364519	-0.124634	-0.00158697	0.001187079	-0.04861689	0.03636621
38.94999	-0.03364519	-0.124634	0	0	0.04731204	-0.03539016
38.96615	-0.03364519	-0.124634	0	0	0	0
38.98275	-0.03364519	-0.124634	0	0	0	0
38.99928	-0.03364519	-0.124634	0	0	0	0
39.01588	-0.03364519	-0.124634	0	0	0	0
39.03247	-0.03364519	-0.124634	0	0	0	0
39.04898	-0.03364519	-0.124634	0	0	0	0
39.06602	-0.03364519	-0.124634	0	0	0	0
39.08211	-0.03364519	-0.124634	0	0	0	0
39.09868	-0.03364519	-0.124634	0	0	0	0
39.11525	-0.03364519	-0.124634	0	0	0	0
39.1319	-0.03364519	-0.124634	0	0	0	0
39.14883	-0.03364519	-0.124634	0	0	0	0
39.16495	-0.03364519	-0.124634	0	0	0	0
39.18186	-0.03364519	-0.124634	0	0	0	0
39.19808	-0.03364519	-0.124634	0	0	0	0
39.21468	-0.03364519	-0.124634	0	0	0	0
39.23122	-0.03364519	-0.124634	0	0	0	0
39.24778	-0.03364519	-0.124634	0	0	0	0
39.26435	-0.03364519	-0.124634	0	0	0	0
39.28091	-0.03364519	-0.124634	0	0	0	0
39.29779	-0.03364519	-0.124634	0	0	0	0
39.31451	-0.03364519	-0.124634	0	0	0	0
39.35136	-0.03364519	-0.124634	0	0	0	0
39.36793	-0.03364519	-0.124634	0	0	0	0
39.38449	-0.03364519	-0.124634	0	0	0	0
39.40106	-0.03364519	-0.124634	0	0	0	0
39.41763	-0.03364519	-0.124634	0	0	0	0
39.4342	-0.03364519	-0.124634	0	0	0	0
39.45076	-0.03364519	-0.124634	0	0	0	0
39.46733	-0.03364519	-0.124634	0	0	0	0
39.48399	-0.03364519	-0.124634	0	0	0	0
39.50046	-0.03364519	-0.124634	0	0	0	0
39.51703	-0.03364519	-0.124634	0	0	0	0
39.53359	-0.03364519	-0.124634	0	0	0	0
39.55016	-0.03364519	-0.124634	0	0	0	0
39.56673	-0.03364519	-0.124634	0	0	0	0
39.58329	-0.03364519	-0.124634	0	0	0	0
39.59986	-0.03364519	-0.124634	0	0	0	0
39.61653	-0.03364519	-0.124634	0	0	0	0
39.63322	-0.03364519	-0.124634	0	0	0	0
39.64958	-0.03364519	-0.124634	0	0	0	0
39.66613	-0.03364519	-0.124634	0	0	0	0
39.68269	-0.03364519	-0.124634	0	0	0	0
39.69926	-0.03364519	-0.124634	0	0	0	0
39.71583	-0.03364519	-0.124634	0	0	0	0
39.73239	-0.03364519	-0.124634	0	0	0	0
39.74896	-0.03364519	-0.124634	0	0	0	0
39.76553	-0.03364519	-0.124634	0	0	0	0
39.78209	-0.03367148	-0.1246143	-0.001586605	0.001187255	-0.04788383	0.03583144
39.79866	-0.03367148	-0.1246143	0	0	0.04788383	-0.03583144
39.81545	-0.03367148	-0.1246143	0	0	0	0
39.83179	-0.03367148	-0.1246143	0	0	0	0
39.84836	-0.03367148	-0.1246143	0	0	0	0
39.86493	-0.03367148	-0.1246143	0	0	0	0
39.88149	-0.03367148	-0.1246143	0	0	0	0
39.89806	-0.03367148	-0.1246143	0	0	0	0
39.91463	-0.03367148	-0.1246143	0	0	0	0
39.93119	-0.03367148	-0.1246143	0	0	0	0
39.9478	-0.03367148	-0.1246143	0	0	0	0
39.96434	-0.03367148	-0.1246143	0	0	0	0
39.98089	-0.03367148	-0.1246143	0	0	0	0
39.99759	-0.03367148	-0.1246143	0	0	0	0
40.01412	-0.03367148	-0.1246143	0	0	0	0
40.03069	-0.03367148	-0.1246143	0	0	0	0
40.04726	-0.03367148	-0.1246143	0	0	0	0
40.06382	-0.03367148	-0.1246143	0	0	0	0
40.08039	-0.03361891	-0.1246143	0.00317321	0	0.09576766	0
40.09696	-0.03361891	-0.1246143	0	0	-0.09575664	0
40.11353	-0.03361891	-0.1246143	0	0	0	0
40.13009	-0.03356634	-0.1246536	0.003173941	-0.002374608	0.09580074	-0.07167406
40.14696	-0.03356634	-0.1246536	0	0	-0.09493718	0.07102798
40.16341	-0.03356634	-0.1246536	0	0	0	0
40.18084	-0.03285659	-0.124988	0.04072131	-0.019182	1.202122	-0.5662666
40.19807	-0.03285659	-0.124988	0	0	-1.174868	0.5534281
40.21402	-0.03285659	-0.124988	0	0	0	0
40.23055	-0.02565227	-0.12428	0.4358574	0.04282992	13.41679	1.318413
40.24711	-0.02565227	-0.12428	0	0	-13.1724	-1.294398
40.26368	-0.02565227	-0.12428	0	0	0	0
40.28024	0.05680723	-0.126247	4.979558	-0.1187829	150.318	-3.585702
40.29681	0.05680723	-0.126247	0	0	-150.2834	3.584876
40.31338	0.05680723	-0.126247	0	0	0	0
40.32994	0.1553949	-0.1367775	5.953505	-0.6359107	179.7185	-19.19624
40.34652	0.1553949	-0.1367775	0	0	-179.6771	19.19182
40.36308	0.1553949	-0.1367775	0	0	0	0
40.37965	0.168518	-0.1388336	0.7921143	-0.1241105	23.90606	-3.745661
40.39622	0.168518	-0.1388336	0	0	-23.90606	3.745661
40.41278	0.168518	-0.1388336	0	0	0	0
40.42934	0.195725	-0.1496377	1.64297	-0.6524329	49.59635	-19.695
40.44592	0.195725	-0.1496377	0	0	-49.58493	19.69046
40.46307	0.195725	-0.1496377	0	0	0	0
40.47905	0.224093	-0.1467187	1.774823	0.1826214	53.56426	5.511525
40.49562	0.224093	-0.1467187	0	0	-54.52469	-5.610348
40.51271	0.224093	-0.1467187	0	0	0	0
40.52875	0.2243932	-0.147195	0.01871377	-0.029694	0.5648478	-0.8962699
40.54565	0.2243932	-0.147195	0	0	-0.5681843	0.9015641
40.56218	0.2243932	-0.147195	0	0	0	0
40.5789	0.2246183	-0.1475325	0.01346288	-0.02018274	0.4048657	-0.60695
40.59541	0.2246183	-0.1475325	0	0	-0.405191	0.6074378
40.6121	0.2246183	-0.1475325	0	0	0	0
40.62815	0.2245182	-0.1475722	-0.006235512	-0.002474144	-0.1904465	-0.07556589
40.64475	0.2245182	-0.1475722	0	0	0.1909805	0.07577778
40.66128	0.2245182	-0.1475722	0	0	0	0
40.68916	0.2244932	-0.1475523	-0.0008967968	0.0007118792	-0.02019499	0.01603083
40.70573	0.2244932	-0.1475523	0	0	0.02017419	-0.01601432
40.7228	0.2244932	-0.1475523	0	0	0	0
40.739	0.2244932	-0.1475523	0	0	0	0
40.75543	0.2244932	-0.1475523	0	0	0	0
40.772	0.2244932	-0.1475523	0	0	0	0
40.78856	0.2244932	-0.1475523	0	0	0	0
40.80513	0.2244932	-0.1475523	0	0	0	0
40.8217	0.2244682	-0.1475722	-0.001510153	-0.001198049	-0.0455765	-0.03615718
40.83826	0.2244682	-0.1475722	0	0	0.0455765	0.03615718
40.85483	0.2244682	-0.1475722	0	0	0	0
40.8714	0.2244182	-0.1476516	-0.003020102	-0.004794198	-0.09115735	-0.1447058
40.88797	0.2244182	-0.1476516	0	0	0.09114685	0.1446892
40.90453	0.2244182	-0.1476516	0	0	0	0
40.9211	0.2242181	-0.1478104	-0.01207852	-0.009587087	-0.3645726	-0.2893722
40.93766	0.2242181	-0.1478104	0	0	0.3645306	0.2893389
40.95454	0.2242181	-0.1478104	0	0	0	0
40.97079	0.2238929	-0.1480685	-0.02000326	-0.01587521	-0.6037692	-0.4791701
40.98736	0.2238929	-0.1480685	0	0	0.6093824	0.4836248
41.00393	0.2238929	-0.1480685	0	0	0	0
41.02049	0.2236927	-0.1482274	-0.01208401	-0.009591094	-0.364738	-0.2894931
41.03733	0.2236927	-0.1482274	0	0	0.3618218	0.2871785
41.05379	0.2236927	-0.1482274	0	0	0	0
41.0702	0.2231422	-0.1486643	-0.03355415	-0.02662807	-1.020775	-0.8100719
41.08677	0.2231422	-0.1486643	0	0	1.017587	0.8075416
41.10336	0.2231422	-0.1486643	0	0	0	0
41.12046	0.2203374	-0.1508897	-0.1640486	-0.130163	-4.869151	-3.863389
41.13646	0.2203374	-0.1508897	0	0	4.955559	3.931949
41.15303	0.2203374	-0.1508897	0	0	0	0
41.16959	0.2203374	-0.1508897	0	0	0	0
41.18616	0.2203374	-0.1508897	0	0	0	0
41.20292	0.2203374	-0.1508897	0	0	0	0
41.2193	0.2203374	-0.1508897	0	0	0	0
41.23586	0.2203374	-0.1508897	0	0	0	0
41.25243	0.2203374	-0.1508897	0	0	0	0
41.26899	0.2203374	-0.1508897	0	0	0	0
41.28556	0.2203374	-0.1508897	0	0	0	0
41.30213	0.2203374	-0.1508897	0	0	0	0
41.31869	0.2203123	-0.1508698	-0.0015123	0.001200124	-0.04564656	0.03622398
41.33526	0.2203123	-0.1508698	0	0	0.04564656	-0.03622398
41.352	0.2203123	-0.1508698	0	0	0	0
41.36839	0.2202622	-0.1508301	-0.003057381	0.00242482	-0.09227195	0.0731812
41.38496	0.2202622	-0.1508301	0	0	0.09275248	-0.07356231
41.40153	0.2202622	-0.1508301	0	0	0	0
41.41839	0.2202371	-0.1508102	-0.001485612	0.001178945	-0.0444419	0.03526799
41.43485	0.2202371	-0.1508102	0	0	0.04458436	-0.03538104
41.45123	0.2202371	-0.1508102	0	0	0	0
41.4678	0.2202371	-0.1508102	0	0	0	0
41.48446	0.2202371	-0.1508102	0	0	0	0
41.50093	0.2202371	-0.1508102	0	0	0	0
41.5175	0.2202371	-0.1508102	0	0	0	0
41.53407	0.2202371	-0.1508102	0	0	0	0
41.55063	0.2202371	-0.1508102	0	0	0	0
41.5672	0.2202371	-0.1508102	0	0	0	0
41.58377	0.2202371	-0.1508102	0	0	0	0
41.60033	0.2202371	-0.1508102	0	0	0	0
41.6169	0.2202371	-0.1508102	0	0	0	0
41.63391	0.2202371	-0.1508102	0	0	0	0
41.65004	0.2202371	-0.1508102	0	0	0	0
41.6666	0.2201118	-0.1507108	-0.007565098	0.006001519	-0.2314595	0.1836207
41.68317	0.2201118	-0.1507108	0	0	0.2283414	-0.181147
41.69973	0.2201118	-0.1507108	0	0	0	0
41.7163	0.2162491	-0.1476119	-0.2331563	0.1870512	-7.03667	5.645216
41.73287	0.2162491	-0.1476119	0	0	7.03667	-5.645216
41.74944	0.2162491	-0.1476119	0	0	0	0
41.766	0.1904782	-0.1274673	-1.55589	1.216207	-46.96227	36.70942
41.78257	0.1904782	-0.1274673	0	0	46.96227	-36.70942
41.79913	0.1904782	-0.1274673	0	0	0	0
41.8157	0.1728626	-0.1139199	-1.063524	0.8179163	-32.10091	24.6876
41.83234	0.1728626	-0.1139199	0	0	32.02348	-24.62806
41.84906	0.1728626	-0.1139199	0	0	0	0
41.8654	0.1607073	-0.1051429	-0.7438023	0.5370734	-22.5024	16.24819
41.88197	0.1607073	-0.1051429	0	0	22.60152	-16.31976
41.89856	0.1607073	-0.1051429	0	0	0	0
41.9151	0.1205443	-0.1036407	-2.428157	0.09081806	-73.29037	2.74121
41.93166	0.1205443	-0.1036407	0	0	73.34104	-2.743105
41.94823	0.1205443	-0.1036407	0	0	0	0
41.96479	0.0524256	-0.1138611	-4.112599	-0.6170449	-124.1328	-18.6246
41.98136	0.0524256	-0.1138611	0	0	124.1328	18.6246
41.99792	0.0524256	-0.1138611	0	0	0	0
42.0145	-0.004210501	-0.1186041	-3.417775	-0.2862227	-103.1487	-8.638219
42.03106	-0.004210501	-0.1186041	0	0	103.1368	8.637224
42.04763	-0.004210501	-0.1186041	0	0	0	0
42.0648	-0.04144993	-0.1235133	-2.169354	-0.2859818	-64.30885	-8.477712
42.08076	-0.04144993	-0.1235133	0	0	65.47123	8.630947
42.0974	-0.04144993	-0.1235133	0	0	0	0
42.11392	-0.06137021	-0.133657	-1.205443	-0.6138277	-36.35524	-18.51257
42.13047	-0.06137021	-0.133657	0	0	36.45169	18.56169
42.14703	-0.06137021	-0.133657	0	0	0	0
42.1641	-0.06676903	-0.1378844	-0.3162611	-0.2476405	-9.4019	-7.361928
42.18054	-0.06676903	-0.1378844	0	0	9.438293	7.390424
42.19674	-0.06676903	-0.1378844	0	0	0	0
42.2133	-0.06661183	-0.1380031	0.009490784	-0.007162958	0.2897347	-0.2186708
42.22987	-0.06661183	-0.1380031	0	0	-0.2864654	0.2162034
42.24688	-0.06661183	-0.1380031	0	0	0	0
42.26299	-0.06595682	-0.138537	0.04064988	-0.03313469	1.227098	-1.000237
42.27957	-0.06595682	-0.138537	0	0	-1.243567	1.013661
42.29628	-0.06595682	-0.138537	0	0	0	0
42.3127	-0.06579961	-0.1386556	0.009577711	-0.007229695	0.2890892	-0.2182177
42.32927	-0.06579961	-0.1386556	0	0	-0.2903932	0.2192021
42.34649	-0.06579961	-0.1386556	0	0	0	0
42.36247	-0.0656948	-0.1387347	0.006557186	-0.004949471	0.197487	-0.1490664
42.3795	-0.0656948	-0.1387347	0	0	-0.198628	0.1499277
42.39553	-0.0656948	-0.1387347	0	0	0	0
42.4121	-0.06553759	-0.1388534	0.009491684	-0.007164757	0.2911524	-0.2197751
42.42895	-0.06553759	-0.1388534	0	0	-0.2840722	0.2144307
42.44557	-0.06553759	-0.1388534	0	0	0	0
42.4618	-0.06551138	-0.1388732	0.001614369	-0.001218236	0.0491404	-0.03708236
42.47844	-0.06551138	-0.1388732	0	0	-0.04911189	0.03706084
42.49512	-0.06551138	-0.1388732	0	0	0	0
42.51181	-0.06548518	-0.138893	0.001569372	-0.001185172	0.04702268	-0.03551101
42.52806	-0.06548518	-0.138893	0	0	-0.04763244	0.0359715
42.54494	-0.06548518	-0.138893	0	0	0	0
42.5612	-0.06551138	-0.1388732	-0.001612096	0.001217437	-0.04865875	0.03674656
42.57789	-0.06551138	-0.1388732	0	0	0.04892351	-0.0369465
42.59433	-0.06551138	-0.1388732	0	0	0	0
42.61093	-0.06558999	-0.1388139	-0.004735161	0.003574147	-0.1433365	0.1081918
42.62746	-0.06558999	-0.1388139	0	0	0.1429074	-0.107868
42.70193	-0.06558999	-0.1388139	0	0	0	0
42.74261	-0.06553759	-0.1388139	0.001288044	0	0.01118538	0
42.75924	-0.06553759	-0.1388139	0	0	-0.02247574	0
42.77575	-0.06551138	-0.1388336	0.001586407	-0.001197135	0.04787233	-0.03612544
42.79239	-0.06551138	-0.1388336	0	0	-0.0478448	0.03610466
42.80896	-0.06551138	-0.1388336	0	0	0	0
42.82559	-0.06522314	-0.1390117	0.01733438	-0.01070612	0.5221306	-0.3224801
42.84202	-0.06522314	-0.1390117	0	0	-0.5244204	0.3238944
42.85859	-0.06522314	-0.1390117	0	0	0	0
42.8754	-0.06068854	-0.1423569	0.2696119	-0.198898	8.075541	-5.957487
42.89172	-0.06068854	-0.1423569	0	0	-8.137839	6.003446
42.90828	-0.06068854	-0.1423569	0	0	0	0
42.92485	-0.05536442	-0.1463417	0.3213648	-0.2405217	9.698811	-7.258961
42.94142	-0.05536442	-0.1463417	0	0	-9.698811	7.258961
42.95798	-0.05536442	-0.1463417	0	0	0	0
42.97455	-0.05539065	-0.1463219	-0.001583457	0.001197149	-0.04778882	0.03613003
42.9914	-0.05539065	-0.1463219	0	0	0.04738513	-0.03582482
43.00768	-0.05539065	-0.1463219	0	0	0	0
43.02425	-0.05523324	-0.1462028	0.009503604	0.007187248	0.2893511	0.2188262
43.04081	-0.05523324	-0.1462028	0	0	-0.2868524	-0.2169366
43.05738	-0.05523324	-0.1462028	0	0	0	0
43.07395	-0.05518077	-0.1462028	0.003167139	0	0.09558444	0
43.09052	-0.05518077	-0.1462028	0	0	-0.09558444	0
43.10708	-0.05518077	-0.1462028	0	0	0	0
43.12366	-0.05515453	-0.1462227	0.001582	-0.001196048	0.04772287	-0.03608017
43.14022	-0.05515453	-0.1462227	0	0	-0.04774485	0.03609679
43.15678	-0.05515453	-0.1462227	0	0	0	0
43.17335	-0.05515453	-0.1462227	0	0	0	0
43.18992	-0.05515453	-0.1462227	0	0	0	0
43.20655	-0.05515453	-0.1462227	0	0	0	0
43.23323	-0.05515453	-0.1462227	0	0	0	0
43.24979	-0.05515453	-0.1462227	0	0	0	0
43.26677	-0.05510206	-0.146183	0.00309051	0.00233708	0.09212629	0.069667
43.28334	-0.05510206	-0.146183	0	0	-0.09211582	-0.06965908
43.29998	-0.05510206	-0.146183	0	0	0	0
43.31683	-0.05499712	-0.1461036	0.006226746	0.00470819	0.1859328	0.1405882
43.33304	-0.05499712	-0.1461036	0	0	-0.1883356	-0.1424049
43.34981	-0.05499712	-0.1461036	0	0	0	0
43.36617	-0.05476099	-0.1459647	0.01443236	0.008488284	0.4356196	0.2562064
43.38274	-0.05476099	-0.1459647	0	0	-0.4382943	-0.2577795
43.39942	-0.05476099	-0.1459647	0	0	0	0
43.42284	-0.0540788	-0.1455283	0.02913507	0.01863774	0.7266276	0.4648246
43.43941	-0.0540788	-0.1455283	0	0	-0.728638	-0.4661106
43.45601	-0.05405256	-0.1455085	0.001580407	0.001194673	0.04764192	0.03601386
43.47254	-0.05405256	-0.1455085	0	0	-0.04769677	-0.03605532
43.48911	-0.05405256	-0.1455085	0	0	0	0
43.50568	-0.05402632	-0.1455283	0.001583907	-0.001197149	0.0478024	-0.03613003
43.52224	-0.05402632	-0.1455283	0	0	-0.0478024	0.03613003
43.53881	-0.05402632	-0.1455283	0	0	0	0
43.55541	-0.05402632	-0.1455283	0	0	0	0
43.57194	-0.05402632	-0.1455283	0	0	0	0
43.58851	-0.05402632	-0.1455283	0	0	0	0
43.60508	-0.05402632	-0.1455283	0	0	0	0
43.62164	-0.05402632	-0.1455283	0	0	0	0
43.63821	-0.05402632	-0.1455283	0	0	0	0
43.65486	-0.05402632	-0.1455283	0	0	0	0
43.67134	-0.05402632	-0.1455283	0	0	0	0
43.68791	-0.05402632	-0.1455283	0	0	0	0
43.70448	-0.05405256	-0.1455085	-0.001583907	0.001197149	-0.0478024	0.03613003
43.72105	-0.05405256	-0.1455085	0	0	0.0478024	-0.03613003
43.73761	-0.05405256	-0.1455085	0	0	0	0
43.75418	-0.05405256	-0.1455085	0	0	0	0
43.77075	-0.05405256	-0.1455085	0	0	0	0
43.78775	-0.05405256	-0.1455085	0	0	0	0
43.80388	-0.0540788	-0.1454887	-0.001626373	0.00122942	-0.04908402	0.03710398
43.82047	-0.0540788	-0.1454887	0	0	0.04970201	-0.03757113
43.83702	-0.0540788	-0.1454887	0	0	0	0
43.85358	-0.05232063	-0.1441602	0.1061235	0.08019011	3.205029	2.421815
43.87015	-0.05232063	-0.1441602	0	0	-3.202815	-2.420142
43.88672	-0.05232063	-0.1441602	0	0	0	0
43.90329	-0.04037279	-0.1351575	0.7211729	0.5434023	21.76504	16.39991
43.91985	-0.04037279	-0.1351575	0	0	-21.76504	-16.39991
43.93642	-0.04037279	-0.1351575	0	0	0	0
43.95299	-0.03658893	-0.1323547	0.2283944	0.1691767	6.892957	5.105763
43.96955	-0.03658893	-0.1323547	0	0	-6.892957	-5.105763
43.98612	-0.03658893	-0.1323547	0	0	0	0
44.00269	-0.03658893	-0.1323547	0	0	0	0
44.01945	-0.03658893	-0.1323547	0	0	0	0
44.03582	-0.03658893	-0.1323547	0	0	0	0
44.05253	-0.03661521	-0.1323744	-0.001573338	-0.001181063	-0.0475601	-0.0357021
44.06931	-0.03661521	-0.1323744	0	0	0.04699114	0.03527499
44.08588	-0.03661521	-0.1323744	0	0	0	0
44.10244	-0.03661521	-0.1323744	0	0	0	0
44.11901	-0.03661521	-0.1323744	0	0	0	0
44.1357	-0.03661521	-0.1323744	0	0	0	0
44.15215	-0.03661521	-0.1323744	0	0	0	0
44.16871	-0.03661521	-0.1323744	0	0	0	0
44.18594	-0.03661521	-0.1323744	0	0	0	0
44.20189	-0.03661521	-0.1323744	0	0	0	0
44.21841	-0.03661521	-0.1323744	0	0	0	0
44.23498	-0.03661521	-0.1323744	0	0	0	0
44.25155	-0.03658893	-0.1323941	0.00158638	-0.001190853	0.04787704	-0.03594002
44.26867	-0.03658893	-0.1323941	0	0	-0.04709093	0.0353499
44.28469	-0.03658893	-0.1323941	0	0	0	0
44.3018	-0.03656265	-0.1324139	0.001535251	-0.001151765	0.04633397	-0.03476033
44.31838	-0.03656265	-0.1324139	0	0	-0.04556803	0.03418572
44.33494	-0.03656265	-0.1324139	0	0	0	0
44.35151	-0.03656265	-0.1324139	0	0	0	0
44.36807	-0.03656265	-0.1324139	0	0	0	0
44.38506	-0.03656265	-0.1324139	0	0	0	0
44.40222	-0.03651008	-0.1324533	0.003064109	-0.002300145	0.08973721	-0.06736332
44.41887	-0.03651008	-0.1324533	0	0	-0.0906282	0.06803217
44.43536	-0.03651008	-0.1324533	0	0	0	0
44.45192	-0.03598446	-0.1328479	0.03173401	-0.02382255	0.960277	-0.7208747
44.46849	-0.03598446	-0.1328479	0	0	-0.9577343	0.7189659
44.48552	-0.03598446	-0.1328479	0	0	0	0
44.50162	-0.02523149	-0.1409311	0.6678104	-0.5020072	20.15688	-15.15235
44.51819	-0.02523149	-0.1409311	0	0	-20.44167	15.36644
44.53488	-0.02523149	-0.1409311	0	0	0	0
44.55132	-0.003052622	-0.1576784	1.348969	-1.018608	40.71665	-30.74518
44.56796	-0.003052622	-0.1576784	0	0	-40.77769	30.79127
44.58464	-0.003052622	-0.1576784	0	0	0	0
44.60102	0.0001578947	-0.160112	0.1960442	-0.148604	5.929596	-4.49471
44.61774	0.0001578947	-0.160112	0	0	-5.924128	4.490565
44.63416	0.0001578947	-0.160112	0	0	0	0
44.65072	0.0001842105	-0.160132	0.001588424	-0.001204345	0.04815495	-0.03651113
44.66729	0.0001842105	-0.160132	0	0	-0.04793873	0.0363472
44.68386	0.0001842105	-0.160132	0	0	0	0
44.70089	0.0001052632	-0.1600721	-0.004636107	0.003515975	-0.1379956	0.1046545
44.71781	0.0001052632	-0.1600721	0	0	0.1365383	-0.1035492
44.73438	0.0001052632	-0.1600721	0	0	0	0
44.75095	-2.631579E-05	-0.1599723	-0.00794395	0.00602401	-0.2397489	0.181805
44.76754	-2.631579E-05	-0.1599723	0	0	0.2395834	-0.1816795
44.78408	-2.631579E-05	-0.1599723	0	0	0	0
44.80065	0	-0.1599923	0.001588424	-0.001204345	0.04797187	-0.03637232
44.81722	0	-0.1599923	0	0	-0.04793874	0.0363472
44.83393	0	-0.1599923	0	0	0	0
44.85085	-2.631579E-05	-0.1599723	-0.001555123	0.001179096	-0.04624163	0.03506044
44.86742	-2.631579E-05	-0.1599723	0	0	0.04643123	-0.0352042
44.88403	-2.631579E-05	-0.1599723	0	0	0	0
44.90063	-5.263158E-05	-0.1599524	-0.001585139	0.001202752	-0.0477297	0.03621573
44.91727	-5.263158E-05	-0.1599524	0	0	0.04768041	-0.03617833
44.93369	-5.263158E-05	-0.1599524	0	0	0	0
44.95025	-5.263158E-05	-0.1599524	0	0	0	0
44.96682	-5.263158E-05	-0.1599524	0	0	0	0
44.98339	-5.263158E-05	-0.1599524	0	0	0	0
45.00021	-7.894737E-05	-0.1599324	-0.001563937	0.001185778	-0.04683308	0.03550887
45.01678	-7.894737E-05	-0.1599324	0	0	0.04682773	-0.03550482
45.03335	-7.894737E-05	-0.1599324	0	0	0	0
45.04993	-0.0001052632	-0.1599125	-0.001587327	0.001203513	-0.0478891	0.03630956
45.06648	-0.0001052632	-0.1599125	0	0	0.04791115	-0.03632629
45.08305	-0.0001052632	-0.1599125	0	0	0	0
45.09962	-0.0002631579	-0.1597927	-0.009530544	0.007227867	-0.2876324	0.2181375
45.11618	-0.0002631579	-0.1597927	0	0	0.2876324	-0.2181375
45.13275	-0.0002631579	-0.1597927	0	0	0	0
45.14932	-0.000368421	-0.1597129	-0.006353696	0.004817379	-0.1917549	0.1453888
45.16589	-0.000368421	-0.1597129	0	0	0.1917549	-0.1453888
45.18245	-0.000368421	-0.1597129	0	0	0	0
45.19902	-0.0006315788	-0.1595134	-0.01588424	0.01204435	-0.4793872	0.3634991
45.21559	-0.0006315788	-0.1595134	0	0	0.4793872	-0.3634991
45.23215	-0.0006315788	-0.1595134	0	0	0	0
45.24872	-0.0009473682	-0.159274	-0.01906108	0.01445124	-0.5752646	0.4361392
45.26529	-0.0009473682	-0.159274	0	0	0.5752646	-0.4361392
45.28236	-0.0009473682	-0.159274	0	0	0	0
45.29842	-0.0009473682	-0.159274	0	0	0	0
45.31499	-0.0009473682	-0.159274	0	0	0	0
45.33156	-0.0009473682	-0.159274	0	0	0	0
45.34813	-0.0009736839	-0.159254	-0.001588421	0.001204345	-0.04793865	0.0363472
45.36469	-0.0009736839	-0.159254	0	0	0.04793865	-0.0363472
45.38244	-0.0009736839	-0.159254	0	0	0	0
45.39901	-0.0009736839	-0.159254	0	0	0	0
45.41558	-0.0009736839	-0.159254	0	0	0	0
45.43214	-0.0009736839	-0.159254	0	0	0	0
45.44904	-0.0009736839	-0.159254	0	0	0	0
45.46576	-0.0009736839	-0.159254	0	0	0	0
45.4819	-0.0009736839	-0.159254	0	0	0	0
45.49846	-0.0009736839	-0.159254	0	0	0	0
45.51497	-0.0009736839	-0.159254	0	0	0	0
45.53154	-0.0009736839	-0.159254	0	0	0	0
45.54811	-0.0009736839	-0.159254	0	0	0	0
45.56467	-0.0009736839	-0.159254	0	0	0	0
45.58149	-0.0009736839	-0.159254	0	0	0	0
45.59781	-0.0009736839	-0.159254	0	0	0	0
45.61438	-0.0009736839	-0.159254	0	0	0	0
45.63109	-0.0009736839	-0.159254	0	0	0	0
45.64751	-0.0009736839	-0.159254	0	0	0	0
45.66407	-0.0009736839	-0.159254	0	0	0	0
45.68064	-0.0009736839	-0.159254	0	0	0	0
45.69721	-0.0009736839	-0.159254	0	0	0	0
45.71378	-0.0009736839	-0.159254	0	0	0	0
45.73034	-0.0009736839	-0.159254	0	0	0	0
45.74709	-0.0009736839	-0.159254	0	0	0	0
45.7636	-0.0009736839	-0.159254	0	0	0	0
45.78004	-0.0009736839	-0.159254	0	0	0	0
45.79661	-0.0009736839	-0.159254	0	0	0	0
45.81317	-0.0009736839	-0.159254	0	0	0	0
45.83031	-0.0009736839	-0.159254	0	0	0	0
45.84692	-0.0009736839	-0.159254	0	0	0	0
45.86287	-0.0009736839	-0.159254	0	0	0	0
45.87956	-0.0009736839	-0.159254	0	0	0	0
45.896	-0.0009736839	-0.159254	0	0	0	0
45.91266	-0.0009736839	-0.159254	0	0	0	0
45.92914	-0.0009736839	-0.159254	0	0	0	0
45.94571	-0.0009736839	-0.159254	0	0	0	0
45.96227	-0.0009736839	-0.159254	0	0	0	0
45.97884	-0.0009736839	-0.159254	0	0	0	0
45.9954	-0.0009736839	-0.159254	0	0	0	0
46.01198	-0.0009736839	-0.159254	0	0	0	0
46.02874	-0.0009736839	-0.159254	0	0	0	0
46.04511	-0.0009736839	-0.159254	0	0	0	0
46.06167	-0.0009736839	-0.159254	0	0	0	0
46.07824	-0.0009736839	-0.159254	0	0	0	0
46.09481	-0.0009736839	-0.159254	0	0	0	0
46.11138	-0.0009736839	-0.159254	0	0	0	0
46.12835	-0.0009736839	-0.159254	0	0	0	0
46.1445	-0.0009736839	-0.159254	0	0	0	0
46.16109	-0.0009736839	-0.159254	0	0	0	0
46.17764	-0.0009736839	-0.159254	0	0	0	0
46.1942	-0.0009999997	-0.159234	-0.001589157	0.0012049	-0.04798847	0.03638488
46.21098	-0.0009999997	-0.159234	0	0	0.04766452	-0.03613926
46.22734	-0.0009999997	-0.159234	0	0	0	0
46.2439	-0.0009999997	-0.159234	0	0	0	0
46.26058	-0.0009999997	-0.159234	0	0	0	0
46.27716	-0.0009999997	-0.159234	0	0	0	0
46.29361	-0.0009999997	-0.159234	0	0	0	0
46.31052	-0.0009999997	-0.159234	0	0	0	0
46.32708	-0.0009999997	-0.159234	0	0	0	0
46.34331	-0.0009999997	-0.159234	0	0	0	0
46.35987	-0.0009999997	-0.159234	0	0	0	0
46.37644	-0.0009999997	-0.159234	0	0	0	0
46.39301	-0.0009999997	-0.159234	0	0	0	0
46.40958	-0.0009999997	-0.159234	0	0	0	0
46.42614	-0.0009999997	-0.159234	0	0	0	0
46.44271	-0.001026315	-0.1592141	-0.001588784	0.001204622	-0.0479551	0.03635975
46.45952	-0.001026315	-0.1592141	0	0	0.04760431	-0.03609378
46.47584	-0.001026315	-0.1592141	0	0	0	0
46.49241	-0.001026315	-0.1592141	0	0	0	0
46.50898	-0.001026315	-0.1592141	0	0	0	0
46.52554	-0.001026315	-0.1592141	0	0	0	0
46.54211	-0.001052631	-0.1591941	-0.001588425	0.001204345	-0.04793876	0.0363472
46.55868	-0.001052631	-0.1591941	0	0	0.04793876	-0.0363472
46.57524	-0.001052631	-0.1591941	0	0	0	0
46.59209	-0.001052631	-0.1591941	0	0	0	0
46.60844	-0.001052631	-0.1591941	0	0	0	0
46.6252	-0.001052631	-0.1591941	0	0	0	0
46.64161	-0.001052631	-0.1591941	0	0	0	0
46.65807	-0.001052631	-0.1591941	0	0	0	0
46.67464	-0.001052631	-0.1591941	0	0	0	0
46.69121	-0.001052631	-0.1591941	0	0	0	0
46.70778	-0.001052631	-0.1591941	0	0	0	0
46.72435	-0.001052631	-0.1591941	0	0	0	0
46.74091	-0.001052631	-0.1591941	0	0	0	0
46.75801	-0.001052631	-0.1591941	0	0	0	0
46.77428	-0.001052631	-0.1591941	0	0	0	0
46.79061	-0.001052631	-0.1591941	0	0	0	0
46.80761	-0.001052631	-0.1591941	0	0	0	0
46.8238	-0.001052631	-0.1591941	0	0	0	0
46.84032	-0.001052631	-0.1591941	0	0	0	0
46.85688	-0.001052631	-0.1591941	0	0	0	0
46.87345	-0.001052631	-0.1591941	0	0	0	0
46.89001	-0.001052631	-0.1591941	0	0	0	0
46.90709	-0.001052631	-0.1591941	0	0	0	0
46.92315	-0.001052631	-0.1591941	0	0	0	0
46.93989	-0.001052631	-0.1591941	0	0	0	0
46.95628	-0.001052631	-0.1591941	0	0	0	0
46.97285	-0.001052631	-0.1591941	0	0	0	0
46.98941	-0.001052631	-0.1591941	0	0	0	0
47.00599	-0.001052631	-0.1591941	0	0	0	0
47.02275	-0.001052631	-0.1591941	0	0	0	0
47.03912	-0.001052631	-0.1591941	0	0	0	0
47.05568	-0.001052631	-0.1591941	0	0	0	0
47.07272	-0.001052631	-0.1591941	0	0	0	0
47.08882	-0.001052631	-0.1591941	0	0	0	0
47.10538	-0.001052631	-0.1591941	0	0	0	0
47.12195	-0.001052631	-0.1591941	0	0	0	0
47.13852	-0.001078947	-0.1591742	-0.001588425	0.001204345	-0.04793876	0.0363472
47.15509	-0.001078947	-0.1591742	0	0	0.04793876	-0.0363472
47.17165	-0.001078947	-0.1591742	0	0	0	0
47.18822	-0.001078947	-0.1591742	0	0	0	0
47.20479	-0.001078947	-0.1591742	0	0	0	0
47.22136	-0.001078947	-0.1591742	0	0	0	0
47.23794	-0.001078947	-0.1591742	0	0	0	0
47.25449	-0.001078947	-0.1591742	0	0	0	0
47.27106	-0.001078947	-0.1591742	0	0	0	0
47.28762	-0.001078947	-0.1591742	0	0	0	0
47.30419	-0.001078947	-0.1591742	0	0	0	0
47.32076	-0.001078947	-0.1591742	0	0	0	0
47.33732	-0.001078947	-0.1591742	0	0	0	0
47.35418	-0.001078947	-0.1591742	0	0	0	0
47.37046	-0.001078947	-0.1591742	0	0	0	0
47.39373	-0.001078947	-0.1591742	0	0	0	0
47.41116	-0.001078947	-0.1591742	0	0	0	0
47.42694	-0.001078947	-0.1591742	0	0	0	0
47.44344	-0.001078947	-0.1591742	0	0	0	0
47.46001	-0.001078947	-0.1591742	0	0	0	0
47.47657	-0.001078947	-0.1591742	0	0	0	0
47.49314	-0.001078947	-0.1591742	0	0	0	0
47.5097	-0.001078947	-0.1591742	0	0	0	0
47.52627	-0.001078947	-0.1591742	0	0	0	0
47.54284	-0.001078947	-0.1591742	0	0	0	0
47.55973	-0.001078947	-0.1591742	0	0	0	0
47.57597	-0.001078947	-0.1591742	0	0	0	0
47.59254	-0.001078947	-0.1591742	0	0	0	0
47.6091	-0.001078947	-0.1591742	0	0	0	0
47.62567	-0.001078947	-0.1591742	0	0	0	0
47.64224	-0.001078947	-0.1591742	0	0	0	0
47.65899	-0.001078947	-0.1591742	0	0	0	0
47.67537	-0.001078947	-0.1591742	0	0	0	0
47.69194	-0.001078947	-0.1591742	0	0	0	0
47.709	-0.001078947	-0.1591742	0	0	0	0
47.72513	-0.001078947	-0.1591742	0	0	0	0
47.74164	-0.001078947	-0.1591742	0	0	0	0
47.75821	-0.001078947	-0.1591742	0	0	0	0
47.77477	-0.001078947	-0.1591742	0	0	0	0
47.79134	-0.001078947	-0.1591742	0	0	0	0
47.80834	-0.001078947	-0.1591742	0	0	0	0
47.82448	-0.001078947	-0.1591742	0	0	0	0
47.84112	-0.001078947	-0.1591742	0	0	0	0
47.85788	-0.001078947	-0.1591742	0	0	0	0
47.87417	-0.001078947	-0.1591742	0	0	0	0
47.89074	-0.001078947	-0.1591742	0	0	0	0
47.9073	-0.001078947	-0.1591742	0	0	0	0
47.92387	-0.001078947	-0.1591742	0	0	0	0
47.94043	-0.001078947	-0.1591742	0	0	0	0
47.957	-0.001078947	-0.1591742	0	0	0	0
47.97356	-0.001078947	-0.1591742	0	0	0	0
47.99017	-0.001078947	-0.1591742	0	0	0	0
48.00671	-0.001078947	-0.1591742	0	0	0	0
48.02329	-0.001105263	-0.1591543	-0.001586591	0.001202061	-0.04790548	0.036295
48.03983	-0.001105263	-0.1591543	0	0	0.04789445	-0.03628664
48.0564	-0.001105263	-0.1591543	0	0	0	0
48.07297	-0.002868413	-0.1577781	-0.1063995	0.08304468	-3.211143	2.506293
48.08953	-0.002868413	-0.1577781	0	0	3.210773	-2.506005
48.1431	-0.002868413	-0.1577781	0	0	0	0
48.16072	-0.01399909	-0.1008923	-0.6315669	3.227768	-8.872058	45.34269
48.1773	-0.01399909	-0.1008923	0	0	18.46754	-94.38259
48.19386	-0.01399909	-0.1008923	0	0	0	0
48.21043	0.01660374	-0.03298464	1.846765	4.097968	55.73548	123.6769
48.227	0.01660374	-0.03298464	0	0	-55.72906	-123.6627
48.24356	0.01660374	-0.03298464	0	0	0	0
48.26013	0.03219939	0.01092879	0.9413556	2.65062	28.41017	79.99587
48.2767	0.03219939	0.01092879	0	0	-28.41017	-79.99587
48.29327	0.03219939	0.01092879	0	0	0	0
48.30983	0.02609934	0.0513758	-0.3682003	2.441386	-11.11231	73.68118
48.3264	0.02609934	0.0513758	0	0	11.11231	-73.68118
48.34303	0.02609934	0.0513758	0	0	0	0
48.35971	0.0242321	0.08498719	-0.1119334	2.01487	-3.359977	60.48163
48.37629	0.0242321	0.08498719	0	0	3.365758	-60.58569
48.39286	0.0242321	0.08498719	0	0	0	0
48.40961	0.03254114	0.1141183	0.4959393	1.738742	14.88352	52.18098
48.42599	0.03254114	0.1141183	0	0	-14.9692	-52.48139
48.44255	0.03254114	0.1141183	0	0	0	0
48.45953	0.02620453	0.1323908	-0.3731983	1.076167	-11.12482	32.07992
48.47569	0.02620453	0.1323908	0	0	11.26315	-32.4788
48.49226	0.02620453	0.1323908	0	0	0	0
48.50882	0.009026071	0.1454763	-1.037132	0.7900233	-31.30432	23.8457
48.52539	0.009026071	0.1454763	0	0	31.30072	-23.84295
48.54196	0.009026071	0.1454763	0	0	0	0
48.55853	0.003289462	0.1549572	-0.3462624	0.5722706	-10.45022	17.27116
48.57509	0.003289462	0.1549572	0	0	10.45022	-17.27116
48.59225	0.003289462	0.1549572	0	0	0	0
48.60823	0.01102587	0.1634806	0.484369	0.5336402	14.61828	16.10529
48.62479	0.01102587	0.1634806	0	0	-14.88563	-16.39983
48.64153	0.01102587	0.1634806	0	0	0	0
48.65792	0.007473545	0.1659628	-0.2166637	0.1513958	-6.539676	4.569661
48.67449	0.007473545	0.1659628	0	0	6.572976	-4.592929
48.69106	0.007473545	0.1659628	0	0	0	0
48.70762	0.007157772	0.1661802	-0.01906887	0.01312702	-0.5755658	0.3962197
48.72419	0.007157772	0.1661802	0	0	0.5756321	-0.3962654
48.74076	0.007157772	0.1661802	0	0	0	0
48.76532	0.007184087	0.1661621	0.001071148	-0.0007375776	0.02604053	-0.01793115
48.78189	0.007184087	0.1661621	0	0	-0.02603812	0.01792948
48.79846	0.00726303	0.1660715	0.004765043	-0.005466771	0.1437927	-0.1649685
48.81503	0.00726303	0.1660715	0	0	-0.1438093	0.1649875
48.83173	0.00726303	0.1660715	0	0	0	0
48.84816	0.007473545	0.1657455	0.01280993	-0.01984136	0.3866045	-0.5988133
48.86473	0.007473545	0.1657455	0	0	-0.3881686	0.601236
48.8813	0.007473545	0.1657455	0	0	0	0
48.89787	0.007552488	0.1656549	0.004764986	-0.005467671	0.1438076	-0.1650146
48.91465	0.007552488	0.1656549	0	0	-0.14287	0.1639388
48.931	0.007552488	0.1656549	0	0	0	0
48.94756	0.007605116	0.1655462	0.003176667	-0.006560485	0.09651648	-0.1993268
