Time	Pos X	Pos Y	Vel X	Vel Y	Acc X	Acc Y
0.1120042	0.03540625	-0.1339136	-0.0005740503	0.002171174	9.30972E-06	-3.521124E-05
0.2158906	0.03540625	-0.1339136	0	0	-9.322922E-06	3.526118E-05
0.2396624	0.03545881	-0.1339531	0.002211183	-0.001660503	0.01732111	-0.01300741
0.2562315	0.03545881	-0.1339531	0	0	-0.05481241	0.04116175
0.2727971	0.03545881	-0.1339926	0	-0.002383745	0	-0.07194115
0.2893662	0.03545881	-0.1339926	0	0	0	0.07194112
0.3059325	0.03545881	-0.1339926	0	0	0	0
0.3225068	0.03545881	-0.1339926	0	0	0	0
0.3390656	0.03545881	-0.1339926	0	0	0	0
0.3556327	0.03545881	-0.1339926	0	0	0	0
0.3721967	0.03543253	-0.1339728	-0.001586691	0.001191986	-0.04789126	0.03597784
0.3887658	0.03543253	-0.1339728	0	0	0.04788841	-0.03597571
0.4053325	0.03543253	-0.1339728	0	0	0	0
0.4220414	0.03543253	-0.1339728	0	0	0	0
0.4384636	0.03543253	-0.1339728	0	0	0	0
0.4550308	0.03543253	-0.1339728	0	0	0	0
0.4715983	0.03545881	-0.1339926	0.001586352	-0.001191731	0.04787588	-0.03596629
0.4881654	0.03545881	-0.1339926	0	0	-0.04787588	0.03596629
0.5049876	0.03545881	-0.1339926	0	0	0	0
0.5215685	0.03543253	-0.1339728	-0.001585068	0.001190767	-0.04745274	0.03564841
0.5381838	0.03543253	-0.1339728	0	0	0.04774847	-0.03587057
0.5544327	0.03543253	-0.1339728	0	0	0	0
0.5709999	0.03543253	-0.1339728	0	0	0	0
0.5875662	0.03543253	-0.1339728	0	0	0	0
0.604133	0.03543253	-0.1339728	0	0	0	0
0.6209377	0.03543253	-0.1339728	0	0	0	0
0.6372664	0.03543253	-0.1339728	0	0	0	0
0.653905	0.03543253	-0.1339728	0	0	0	0
0.6703967	0.03540625	-0.1339926	-0.001593644	-0.00119721	-0.04810234	-0.03613641
0.686967	0.03540625	-0.1339926	0	0	0.04820172	0.03621107
0.7035329	0.03540625	-0.1339926	0	0	0	0
0.7200972	0.03540625	-0.1339926	0	0	0	0
0.7366636	0.03540625	-0.1339926	0	0	0	0
0.7532331	0.03540625	-0.1339926	0	0	0	0
0.7697974	0.03537997	-0.1339728	-0.001586654	0.001191958	-0.04788617	0.03597402
0.7863662	0.03537997	-0.1339728	0	0	0.0478873	-0.03597486
1.024059	0.03537997	-0.1339728	0	0	0	0
1.05039	0.035012	-0.1341307	-0.01397458	-0.005997573	-0.05292918	-0.02271601
1.074145	0.035012	-0.1341307	0	0	0.2790122	0.1197457
1.090712	0.03488058	-0.134032	-0.007932632	0.005957906	-0.1967324	0.1477584
1.107282	0.03488058	-0.134032	0	0	0.2393918	-0.1797983
1.123848	0.03488058	-0.134032	0	0	0	0
1.140412	0.02546818	-0.1270539	-0.5682443	0.4212796	-17.15156	12.71566
1.156982	0.02546818	-0.1270539	0	0	17.15014	-12.71461
1.173546	0.02546818	-0.1270539	0	0	0	0
1.190112	-0.009262893	-0.1042844	-2.096537	1.37448	-63.28159	41.4871
1.206682	-0.009262893	-0.1042844	0	0	63.2718	-41.48068
1.223251	-0.009262893	-0.1042844	0	0	0	0
1.239907	-0.02360088	-0.093713	-0.8608342	0.6346948	-25.90891	19.10269
1.256404	-0.02360088	-0.093713	0	0	25.96564	-19.14452
1.272949	-0.02360088	-0.093713	0	0	0	0
1.289512	-0.02391649	-0.09351871	-0.01905546	0.01173042	-0.5755505	0.3543051
1.306082	-0.02391649	-0.09351871	0	0	0.575126	-0.3540438
1.322649	-0.02391649	-0.09351871	0	0	0	0
1.339213	-0.02391649	-0.09355757	0	-0.002346185	0	-0.07081589
1.35587	-0.02391649	-0.09355757	0	0	0	0.07062251
1.372478	-0.02391649	-0.09355757	0	0	0	0
1.388913	-0.02391649	-0.09355757	0	0	0	0
1.405482	-0.02391649	-0.09355757	0	0	0	0
1.422461	-0.02391649	-0.09355757	0	0	0	0
1.438612	-0.02389019	-0.093577	0.001628325	-0.001202562	0.04914843	-0.03629743
1.455182	-0.02389019	-0.093577	0	0	-0.04976276	0.03675114
1.638265	-0.02389019	-0.093577	0	0	0	0
1.663268	-0.02365348	-0.09375186	0.009467047	-0.006993644	0.04549589	-0.03360943
1.679834	-0.02365348	-0.09375186	0	0	-0.227741	0.1682404
1.696402	-0.02365348	-0.09375186	0	0	0	0
1.712969	-0.02365348	-0.09375186	0	0	0	0
1.729538	-0.02365348	-0.09375186	0	0	0	0
1.746102	-0.02360088	-0.09379072	0.00317567	-0.002346134	0.09584466	-0.0708085
1.762672	-0.02360088	-0.09379072	0	0	-0.09584362	0.07080773
1.77957	-0.02360088	-0.09379072	0	0	0	0
1.795805	-0.02349568	-0.09386844	0.006480175	-0.004787076	0.1955805	-0.1444805
1.812372	-0.02349568	-0.09386844	0	0	-0.1975551	0.1459391
1.829002	-0.02349568	-0.09386844	0	0	0	0
1.845502	-0.02162821	-0.09528726	0.1131849	-0.08599293	3.416394	-2.595627
1.862073	-0.02162821	-0.09528726	0	0	-3.422502	2.600267
1.87864	-0.02162821	-0.09528726	0	0	0	0
1.895202	-0.02104952	-0.09579278	0.0349413	-0.03052323	1.054724	-0.9213621
1.911769	-0.02104952	-0.09579278	0	0	-1.054713	0.9213521
1.928359	-0.02104952	-0.09579278	0	0	0	0
1.944904	-0.02107583	-0.09581222	-0.001589823	-0.001175311	-0.04797956	-0.03546995
1.961469	-0.02107583	-0.09581222	0	0	0.0480167	0.0354974
1.978037	-0.02107583	-0.09581222	0	0	0	0
1.994601	-0.02107583	-0.09581222	0	0	0	0
2.01117	-0.02107583	-0.09581222	0	0	0	0
2.027736	-0.02107583	-0.09581222	0	0	0	0
2.044301	-0.02110213	-0.09579278	-0.001587958	0.001173933	-0.0479288	0.03543242
2.061195	-0.02110213	-0.09579278	0	0	0.04746056	-0.03508627
2.077565	-0.02110213	-0.09579278	0	0	0	0
2.095456	-0.02110213	-0.09579278	0	0	0	0
2.112041	-0.02110213	-0.09579278	0	0	0	0
2.128591	-0.02110213	-0.09579278	0	0	0	0
2.145156	-0.02110213	-0.09579278	0	0	0	0
2.161971	-0.02110213	-0.09579278	0	0	0	0
2.178292	-0.02110213	-0.09579278	0	0	0	0
2.194856	-0.02107583	-0.09581222	0.001588003	-0.001173967	0.04828984	-0.03569933
2.211426	-0.02107583	-0.09581222	0	0	-0.04792673	0.03543089
2.228059	-0.02107583	-0.09581222	0	0	0	0
2.244557	-0.02107583	-0.09581222	0	0	0	0
2.261623	-0.02107583	-0.09581222	0	0	0	0
2.277694	-0.02107583	-0.09581222	0	0	0	0
2.297357	-0.02107583	-0.09581222	0	0	0	0
2.313926	-0.02107583	-0.09581222	0	0	0	0
2.330496	-0.02107583	-0.09581222	0	0	0	0
2.349879	-0.02107583	-0.09581222	0	0	0	0
2.366446	-0.02107583	-0.09581222	0	0	0	0
2.383013	-0.02107583	-0.09581222	0	0	0	0
2.399579	-0.02107583	-0.09581222	0	0	0	0
2.416147	-0.02107583	-0.09581222	0	0	0	0
2.432715	-0.02107583	-0.09581222	0	0	0	0
2.44928	-0.02102322	-0.09585112	0.003176007	-0.002347933	0.09585828	-0.07086535
2.465848	-0.02102322	-0.09585112	0	0	-0.09585621	0.07086382
2.482413	-0.02102322	-0.09585112	0	0	0	0
2.498979	-0.02102322	-0.09589001	0	-0.002347697	0	-0.07086076
2.515547	-0.02102322	-0.09589001	0	0	0	0.07085617
2.532114	-0.02102322	-0.09589001	0	0	0	0
2.548843	-0.02104952	-0.09587056	-0.001572342	0.001162389	-0.04722233	0.03491015
2.565246	-0.02104952	-0.09587056	0	0	0.04745646	-0.03508324
2.581813	-0.02104952	-0.09587056	0	0	0	0
2.59838	-0.02104952	-0.09587056	0	0	0	0
2.614975	-0.02104952	-0.09587056	0	0	0	0
2.631514	-0.02104952	-0.09587056	0	0	0	0
2.64808	-0.02104952	-0.09587056	0	0	0	0
2.664646	-0.02104952	-0.09587056	0	0	0	0
2.681411	-0.02104952	-0.09587056	0	0	0	0
2.697781	-0.0208917	-0.09598724	0.009641117	-0.007127408	0.2909653	-0.2151025
2.714348	-0.0208917	-0.09598724	0	0	-0.2927113	0.2163933
2.730918	-0.0208917	-0.09598724	0	0	0	0
2.748562	-0.0208917	-0.09594835	0	0.002204302	0	0.06442823
2.765132	-0.0208917	-0.09594835	0	0	0	-0.06442643
2.781701	-0.0208917	-0.09594835	0	0	0	0
2.798262	-0.0208917	-0.09594835	0	0	0	0
2.81483	-0.0208917	-0.09594835	0	0	0	0
2.831715	-0.0208917	-0.09594835	0	0	0	0
2.847962	-0.0208917	-0.09594835	0	0	0	0
2.864685	-0.0208917	-0.09594835	0	0	0	0
2.881658	-0.0208917	-0.09594835	0	0	0	0
2.897665	-0.02083909	-0.09590945	0.003286607	0.002429697	0.09965467	0.07367191
2.914232	-0.02083909	-0.09590945	0	0	-0.1008976	-0.07459076
2.930799	-0.02083909	-0.09590945	0	0	0	0
2.94737	-0.02083909	-0.09590945	0	0	0	0
2.96393	-0.02083909	-0.09590945	0	0	0	0
2.980498	-0.02083909	-0.09590945	0	0	0	0
2.997066	-0.02081278	-0.0959289	0.001587661	-0.001173713	0.04791294	-0.03542069
3.013632	-0.02081278	-0.0959289	0	0	-0.04791638	0.03542324
3.030197	-0.02081278	-0.0959289	0	0	0	0
3.046765	-0.02081278	-0.0959289	0	0	0	0
3.063411	-0.02081278	-0.0959289	0	0	0	0
3.080106	-0.02081278	-0.0959289	0	0	0	0
3.09667	-0.02081278	-0.0959289	0	0	0	0
3.113031	-0.02081278	-0.0959289	0	0	0	0
3.129599	-0.02081278	-0.0959289	0	0	0	0
3.146166	-0.02078648	-0.09594835	0.001587729	-0.001173764	0.04791673	-0.03542349
3.162733	-0.02078648	-0.09594835	0	0	-0.04791845	0.03542477
3.179299	-0.02078648	-0.09594835	0	0	0	0
3.195863	-0.02078648	-0.09594835	0	0	0	0
3.212503	-0.02078648	-0.09594835	0	0	0	0
3.229109	-0.02078648	-0.09594835	0	0	0	0
3.24921	-0.02062865	-0.09606502	0.007851603	-0.005804403	0.213897	-0.1581262
3.266201	-0.02062865	-0.09606502	0	0	-0.2116807	0.1564878
3.282345	-0.0198395	-0.09664849	0.04888114	-0.03614097	1.475225	-1.090729
3.298975	-0.0198395	-0.09664849	0	0	-1.491451	1.102726
3.315481	-0.0198395	-0.09664849	0	0	0	0
3.332045	-0.005710464	-0.1071146	0.8530023	-0.631865	25.7934	-19.10657
3.348614	-0.005710464	-0.1071146	0	0	-25.74533	19.07096
3.365394	-0.005710464	-0.1071146	0	0	0	0
3.381745	-0.002421048	-0.109557	0.2011784	-0.1493707	6.072187	-4.508471
3.39851	-0.002421048	-0.109557	0	0	-6.074897	4.510484
3.414881	-0.002421048	-0.109557	0	0	0	0
3.43172	-0.002421048	-0.109557	0	0	0	0
3.448291	-0.002421048	-0.109557	0	0	0	0
3.464858	-0.002421048	-0.109557	0	0	0	0
3.48142	-0.002394732	-0.1095765	0.001588967	-0.001180468	0.04796408	-0.03563325
3.49799	-0.002394732	-0.1095765	0	0	-0.0479589	0.0356294
3.514859	-0.002394732	-0.1095765	0	0	0	0
3.531122	-0.002421048	-0.109557	-0.001618084	0.001202099	-0.04883668	0.03628151
3.547689	-0.002421048	-0.109557	0	0	0.04928711	-0.03661614
3.56449	-0.002421048	-0.109557	0	0	0	0
3.5811	-0.002421048	-0.1095179	0	0.002353506	0	0.07043998
3.597669	-0.002421048	-0.1095179	0	0	0	-0.07093299
3.614393	-0.002421048	-0.1095179	0	0	0	0
3.630801	-0.002342101	-0.1094592	0.004811577	0.00357414	0.1452231	0.1078748
3.647371	-0.002342101	-0.1094592	0	0	-0.1459055	-0.1083817
3.664127	-0.002342101	-0.1094592	0	0	0	0
3.680504	-0.002315785	-0.1094788	0.001606871	-0.001193314	0.04849721	-0.03601559
3.69707	-0.002315785	-0.1094788	0	0	-0.04877695	0.03622333
3.713637	-0.002315785	-0.1094788	0	0	0	0
3.730204	-0.002131576	-0.1096156	0.01111923	-0.008259757	0.3355887	-0.2492871
3.746771	-0.002131576	-0.1096156	0	0	-0.3355839	0.2492836
3.763408	-0.002131576	-0.1096156	0	0	0	0
3.780136	-0.0001578947	-0.1110821	0.1179855	-0.08766907	3.53623	-2.627594
3.796471	-0.0001578947	-0.1110821	0	0	-3.568487	2.651562
3.813037	-0.0001578947	-0.1110821	0	0	0	0
3.829601	0.001342105	-0.1121973	0.09055838	-0.06732374	2.733411	-2.032098
3.846171	0.001342105	-0.1121973	0	0	-2.733116	2.031878
3.862738	0.001342105	-0.1121973	0	0	0	0
3.879304	0.00136842	-0.1122169	0.001588532	-0.001181044	0.04794441	-0.03564578
3.89587	0.00136842	-0.1122169	0	0	-0.0479451	0.03564629
3.912434	0.00136842	-0.1122169	0	0	0	0
3.929004	0.0126046	-0.1205863	0.6781193	-0.5051072	20.46597	-15.24438
3.945571	0.0126046	-0.1205863	0	0	-20.46406	15.24296
3.962135	0.0126046	-0.1205863	0	0	0	0
3.97932	0.0300173	-0.1335386	1.01328	-0.7537196	30.02454	-22.3335
3.995268	0.0300173	-0.1335386	0	0	-30.58282	22.74878
4.011967	0.0300173	-0.1335386	0	0	0	0
4.028401	0.02993842	-0.1334004	-0.004799732	0.008406417	-0.1448614	0.2537153
4.044968	0.02993842	-0.1334004	0	0	0.1454423	-0.2547326
4.061535	0.02993842	-0.1334004	0	0	0	0
4.078385	0.02991213	-0.1333807	-0.001560311	0.001170869	-0.04669183	0.03503789
4.094673	0.02991213	-0.1333807	0	0	0.04708622	-0.03533385
4.111237	0.02991213	-0.1333807	0	0	0	0
4.127804	0.02991213	-0.1333807	0	0	0	0
4.144826	0.02991213	-0.1333807	0	0	0	0
4.160937	0.02991213	-0.1333807	0	0	0	0
4.177501	0.02991213	-0.1333807	0	0	0	0
4.194074	0.02991213	-0.1333807	0	0	0	0
4.21064	0.02991213	-0.1333807	0	0	0	0
4.227203	0.02988584	-0.133361	-0.00158742	0.001192027	-0.04791533	0.03598062
4.243775	0.02988584	-0.133361	0	0	0.04790774	-0.03597493
4.260404	0.02988584	-0.133361	0	0	0	0
4.277402	0.02980696	-0.1333017	-0.004640316	0.003482839	-0.1379917	0.1035711
4.293473	0.02980696	-0.1333017	0	0	0.1403217	-0.1053199
4.310041	0.02980696	-0.1333017	0	0	0	0
4.326601	0.0296755	-0.1332031	-0.007938475	0.005957737	-0.2396319	0.1798411
4.343174	0.0296755	-0.1332031	0	0	0.2395975	-0.1798152
4.360077	0.0296755	-0.1332031	0	0	0	0
4.376302	0.0296755	-0.1332031	0	0	0	0
4.392874	0.0296755	-0.1332031	0	0	0	0
4.409439	0.0296755	-0.1332031	0	0	0	0
4.426001	0.0296755	-0.1332031	0	0	0	0
4.442568	0.0296755	-0.1332031	0	0	0	0
4.459137	0.0296755	-0.1332031	0	0	0	0
4.475701	0.02970179	-0.1332228	0.001587374	-0.001191093	0.04790912	-0.03594881
4.492268	0.02970179	-0.1332228	0	0	-0.04791257	0.0359514
4.509217	0.02970179	-0.1332228	0	0	0	0
4.525403	0.02972808	-0.1332425	0.001624248	-0.001218848	0.04901849	-0.03678383
4.541974	0.02972808	-0.1332425	0	0	-0.04958505	0.03720899
4.558534	0.02972808	-0.1332425	0	0	0	0
4.575101	0.02978067	-0.133282	0.003174109	-0.002382606	0.09581411	-0.07192167
4.591668	0.02978067	-0.133282	0	0	-0.09579756	0.07190925
4.608462	0.02978067	-0.133282	0	0	0	0
4.624801	0.02978067	-0.1333215	0	-0.002415983	0	-0.07291767
4.64147	0.02978067	-0.1333215	0	0	0	0.0731947
4.65834	0.02978067	-0.1333215	0	0	0	0
4.6745	0.02978067	-0.1333215	0	0	0	0
4.691067	0.02978067	-0.1333215	0	0	0	0
4.707885	0.02978067	-0.1333215	0	0	0	0
4.7242	0.02978067	-0.1333215	0	0	0	0
4.740767	0.02978067	-0.1333215	0	0	0	0
4.757333	0.02978067	-0.1333215	0	0	0	0
4.773933	0.02978067	-0.1333215	0	0	0	0
4.790899	0.02978067	-0.1333215	0	0	0	0
4.807037	0.02978067	-0.1333215	0	0	0	0
4.823608	0.02980696	-0.1333412	0.001586531	-0.001190545	0.04850354	-0.03639741
4.84017	0.02980696	-0.1333412	0	0	-0.04788367	0.03593226
4.856737	0.02980696	-0.1333412	0	0	0	0
4.8733	0.02983325	-0.133361	0.00158742	-0.001191127	0.04791464	-0.03595295
4.88987	0.02983325	-0.133361	0	0	-0.04790981	0.03594933
4.906501	0.02983325	-0.133361	0	0	0	0
4.923001	0.02983325	-0.1334004	0	-0.002392383	0	-0.07221059
4.93957	0.02983325	-0.1334004	0	0	0	0.07234595
4.95631	0.02983325	-0.1334004	0	0	0	0
4.972701	0.02978067	-0.1334399	-0.003208068	-0.002408182	-0.09682944	-0.07268639
4.98934	0.02978067	-0.1334399	0	0	0.09712579	0.07290885
5.005837	0.02978067	-0.1334399	0	0	0	0
5.022401	0.0296755	-0.1334399	-0.006349385	0	-0.1920505	0
5.03897	0.0296755	-0.1334399	0	0	0.1916303	0
5.055537	0.0296755	-0.1334399	0	0	0	0
5.0721	0.02959662	-0.1333807	-0.00476226	0.003574282	-0.143746	0.1078876
5.08867	0.02959662	-0.1333807	0	0	0.1437294	-0.1078751
5.1053	0.02959662	-0.1333807	0	0	0	0
5.1218	0.02957033	-0.133361	-0.001593409	0.001196609	-0.0480954	0.0361184
5.13837	0.02957033	-0.133361	0	0	0.04818417	-0.03618506
5.155342	0.02957033	-0.133361	0	0	0	0
5.1715	0.02949145	-0.1333017	-0.004881717	0.003663939	-0.1473475	0.1105906
5.18807	0.02949145	-0.1333017	0	0	0.1491594	-0.1119505
5.205383	0.02949145	-0.1333017	0	0	0	0
5.221201	0.02946515	-0.133282	-0.001662214	0.001247249	-0.05017149	0.03764639
5.23777	0.02946515	-0.133282	0	0	0.05132309	-0.0385105
5.254334	0.02946515	-0.133282	0	0	0	0
5.270901	0.02938627	-0.1332228	-0.004761438	0.003573664	-0.143717	0.1078658
5.287471	0.02938627	-0.1332228	0	0	0.1436922	-0.1078472
5.304038	0.02938627	-0.1332228	0	0	0	0
5.320601	0.02912334	-0.1330255	-0.01587431	0.01191397	-0.4791498	0.359611
5.33717	0.02912334	-0.1330255	0	0	0.4791153	-0.3595851
5.353734	0.02912334	-0.1330255	0	0	0	0
5.370302	0.02896558	-0.1329071	-0.00952244	0.007146018	-0.2874126	0.2156859
5.386871	0.02896558	-0.1329071	0	0	0.2873713	-0.2156548
5.403438	0.02896558	-0.1329071	0	0	0	0
5.420004	0.02880782	-0.1327887	-0.009523213	0.00714553	-0.2874236	0.2156618
5.43657	0.02880782	-0.1327887	0	0	0.2874277	-0.2156649
5.453369	0.02880782	-0.1327887	0	0	0	0
5.469704	0.02315376	-0.1286292	-0.3461214	0.2546312	-10.44611	7.684896
5.486271	0.02315376	-0.1286292	0	0	10.51969	-7.739024
5.502837	0.02315376	-0.1286292	0	0	0	0
5.519402	-0.004947328	-0.1080327	-1.696478	1.243423	-51.20569	37.5309
5.535971	-0.004947328	-0.1080327	0	0	51.20127	-37.52766
5.552846	-0.004947328	-0.1080327	0	0	0	0
5.569148	-0.05376393	-0.07470052	-2.994584	2.044713	-90.26111	61.63062
5.585669	-0.05376393	-0.07470052	0	0	91.23539	-62.29586
5.602399	-0.05376393	-0.07470052	0	0	0	0
5.619014	-0.1447695	-0.06140024	-5.477188	0.8004796	-164.2547	24.00548
5.635371	-0.1447695	-0.06140024	0	0	166.1171	-24.27766
5.652533	-0.1447695	-0.06140024	0	0	0	0
5.668501	-0.2108705	-0.05189146	-4.13938	0.5954595	-124.9411	17.97307
5.685071	-0.2108705	-0.05189146	0	0	127.2133	-18.29993
5.701639	-0.2108705	-0.05189146	0	0	0	0
5.7184	-0.2204376	-0.05217857	-0.570819	-0.0171302	-17.12728	-0.5139874
5.734871	-0.2204376	-0.05217857	0	0	17.17693	0.5154771
5.751984	-0.2204376	-0.05217857	0	0	0	0
5.767905	-0.2226165	-0.05215943	-0.1368583	0.001202211	-4.142912	0.03639278
5.784503	-0.2226165	-0.05215943	0	0	4.208644	-0.03697019
5.801864	-0.2226165	-0.05215943	0	0	0	0
5.817602	-0.222992	-0.05187233	-0.02385646	0.01824219	-0.7207465	0.5511292
5.834172	-0.222992	-0.05187233	0	0	0.7383939	-0.5646236
5.850738	-0.222992	-0.05187233	0	0	0	0
5.867302	-0.2229169	-0.05192975	0.004533171	-0.00346645	0.1368311	-0.1046327
5.940766	-0.2229169	-0.05192975	0	0	-0.05035301	0.03850421
5.958257	-0.2229169	-0.05192975	0	0	0	0
5.98985	-0.2227918	-0.05202544	0.003961434	-0.003029089	0.08070692	-0.06171212
6.134296	-0.2227918	-0.05202544	0	0	-0.02250307	0.01720685
6.15161	-0.2228168	-0.05204459	-0.001445923	-0.001105528	-0.008938698	-0.006834379
6.16868	-0.2228168	-0.05204459	0	0	0.04205305	0.03215306
6.184744	-0.2228168	-0.05204459	0	0	0	0
6.20131	-0.2228168	-0.05204459	0	0	0	0
6.21788	-0.2228168	-0.05204459	0	0	0	0
6.234447	-0.2228168	-0.05204459	0	0	0	0
6.251013	-0.2228168	-0.05204459	0	0	0	0
6.26758	-0.2228168	-0.05204459	0	0	0	0
6.284147	-0.2228168	-0.05204459	0	0	0	0
6.30116	-0.2228168	-0.05204459	0	0	0	0
6.31728	-0.2228168	-0.05204459	0	0	0	0
6.333845	-0.2228168	-0.05204459	0	0	0	0
6.35041	-0.2227667	-0.05208287	0.003021553	-0.002310917	0.09120377	-0.06975365
6.36698	-0.2227667	-0.05208287	0	0	-0.09118802	0.0697416
6.384046	-0.2227667	-0.05208287	0	0	0	0
6.400997	-0.2226916	-0.05214029	0.004430629	-0.003387585	0.130249	-0.0995862
6.417564	-0.2226916	-0.05214029	0	0	-0.1321872	0.1010681
6.434134	-0.2226916	-0.05214029	0	0	0	0
6.450698	-0.2226666	-0.05219771	0.001511313	-0.0034668	0.04561218	-0.1046297
6.467265	-0.2226666	-0.05219771	0	0	-0.04561612	0.1046388
6.48383	-0.2226666	-0.05219771	0	0	0	0
6.500397	-0.2226416	-0.05221685	0.001511096	-0.001155359	0.04560759	-0.0348708
6.516966	-0.2226416	-0.05221685	0	0	-0.04560299	0.03486729
6.533533	-0.2226416	-0.05221685	0	0	0	0
6.550097	-0.2226165	-0.052236	0.001511313	-0.00115575	0.04561678	-0.03488461
6.566724	-0.2226165	-0.052236	0	0	-0.04553355	0.03482097
6.583381	-0.2226165	-0.052236	0	0	0	0
6.599797	-0.2225414	-0.05229342	0.004574898	-0.003498117	0.1383255	-0.1057682
6.61641	-0.2225414	-0.05229342	0	0	-0.1385112	0.1059102
6.632934	-0.2225414	-0.05229342	0	0	0	0
6.649498	-0.2224663	-0.05238913	0.004534201	-0.005778407	0.1370377	-0.1746415
6.666067	-0.2224663	-0.05238913	0	0	-0.1368484	0.1744002
6.682818	-0.2224663	-0.05238913	0	0	0	0
6.699197	-0.2222911	-0.05259971	0.0106996	-0.0128564	0.3229564	-0.3880571
6.715769	-0.2222911	-0.05259971	0	0	-0.3247136	0.3901685
6.732651	-0.2222911	-0.05259971	0	0	0	0
6.749172	-0.2213896	-0.05332728	0.05456799	-0.0440403	1.633629	-1.318457
6.765464	-0.2213896	-0.05332728	0	0	-1.66302	1.342177
6.782032	-0.2213896	-0.05332728	0	0	0	0
6.798597	-0.2100903	-0.06191876	0.6821055	-0.5186423	20.58658	-15.65311
6.815165	-0.2100903	-0.06191876	0	0	-20.58687	15.65333
6.831732	-0.2100903	-0.06191876	0	0	0	0
6.848298	-0.1735776	-0.08948073	2.204101	-1.663787	66.52374	-50.21609
6.864865	-0.1735776	-0.08948073	0	0	-66.52278	50.21537
6.881432	-0.1735776	-0.08948073	0	0	0	0
6.897997	-0.1556774	-0.1026463	1.08055	-0.7947427	32.61293	-23.98676
6.914565	-0.1556774	-0.1026463	0	0	-32.61246	23.98642
6.931134	-0.1556774	-0.1026463	0	0	0	0
6.947698	-0.1541361	-0.1025683	0.09305549	0.004708146	2.808501	0.1420962
6.964268	-0.1541361	-0.1025683	0	0	-2.808501	-0.1420962
6.980969	-0.1541361	-0.1025683	0	0	0	0
6.997398	-0.1518998	-0.1030557	0.1361229	-0.0296695	4.108731	-0.8955432
7.013968	-0.1518998	-0.1030557	0	0	-4.125177	0.8991278
7.031229	-0.1518998	-0.1030557	0	0	0	0
7.047098	-0.1201293	-0.1205078	2.002028	-1.099747	60.42915	-33.19473
7.063667	-0.1201293	-0.1205078	0	0	-61.71716	33.90226
7.080234	-0.1201293	-0.1205078	0	0	0	0
7.096798	-0.05221565	-0.1451119	4.099985	-1.485363	123.7503	-44.83287
7.113368	-0.05221565	-0.1451119	0	0	-123.7413	44.82964
7.129972	-0.05221565	-0.1451119	0	0	0	0
7.146501	-0.01460422	-0.1608107	2.275535	-0.949797	68.67875	-28.66617
7.163068	-0.01460422	-0.1608107	0	0	-68.75594	28.69838
7.180132	-0.01460422	-0.1608107	0	0	0	0
7.196203	-0.01305189	-0.161869	0.09659606	-0.06585663	2.915233	-1.987528
7.212768	-0.01305189	-0.161869	0	0	-2.959872	2.017962
7.229333	-0.01305189	-0.161869	0	0	0	0
7.247492	-0.01326238	-0.1617092	-0.01159181	0.0087995	-0.3338248	0.2534109
7.264059	-0.01326238	-0.1617092	0	0	0.333811	-0.2534005
7.280629	-0.01326238	-0.1617092	0	0	0	0
7.297193	-0.01342025	-0.1615894	-0.009531043	0.007234929	-0.2876557	0.2183569
7.313763	-0.01342025	-0.1615894	0	0	0.2876557	-0.2183569
7.330456	-0.01342025	-0.1615894	0	0	0	0
7.346893	-0.01363073	-0.1614296	-0.01280571	0.009719221	-0.3865273	0.2933647
7.363462	-0.01363073	-0.1614296	0	0	0.3879735	-0.2944624
7.38003	-0.01363073	-0.1614296	0	0	0	0
7.396594	-0.01360442	-0.1614496	0.001588443	-0.001205487	0.04794412	-0.03638534
7.413164	-0.01360442	-0.1614496	0	0	-0.04793999	0.03638219
7.431602	-0.01360442	-0.1614496	0	0	0	0
7.44817	-0.01363073	-0.1614296	-0.001588077	0.001205209	-0.04536579	0.03442861
7.46474	-0.01363073	-0.1614296	0	0	0.04792343	-0.03636963
7.481306	-0.01363073	-0.1614296	0	0	0	0
7.49787	-0.01365705	-0.1613697	-0.001588397	0.003616357	-0.04794412	0.109156
7.514604	-0.01365705	-0.1613697	0	0	0.04770245	-0.1086058
7.531004	-0.01365705	-0.1613697	0	0	0	0
7.547569	-0.01405171	-0.1608306	-0.02382453	0.03254444	-0.7227074	0.9872224
7.564139	-0.01405171	-0.1608306	0	0	0.7190153	-0.9821789
7.581113	-0.01405171	-0.1608306	0	0	0	0
7.59727	-0.0140254	-0.1604913	0.001628478	0.02100427	0.04915323	0.633983
7.613842	-0.0140254	-0.1604913	0	0	-0.04975694	-0.6417695
7.630408	-0.0140254	-0.1604913	0	0	0	0
7.646969	-0.01397278	-0.1598526	0.00317747	0.03856626	0.09591693	1.164183
7.663537	-0.01397278	-0.1598526	0	0	-0.09591417	-1.16415
7.680104	-0.01397278	-0.1598526	0	0	0	0
7.69667	-0.01405171	-0.1597927	-0.00476486	0.00361435	-0.14381	0.109086
7.713237	-0.01405171	-0.1597927	0	0	0.1438121	-0.1090876
7.730074	-0.01405171	-0.1597927	0	0	0	0
7.74637	-0.01452529	-0.1594336	-0.02906176	0.02204005	-0.8771234	0.6651987
7.762939	-0.01452529	-0.1594336	0	0	0.8842627	-0.6706131
7.779681	-0.01452529	-0.1594336	0	0	0	0
7.796237	-0.02878152	-0.1486444	-0.8610777	0.6516662	-25.8601	19.571
7.81264	-0.02878152	-0.1486444	0	0	26.12574	-19.77203
7.829468	-0.02878152	-0.1486444	0	0	0	0
7.846029	-0.03611587	-0.1431098	-0.4428677	0.3341971	-13.26365	10.00903
7.862524	-0.03611587	-0.1431098	0	0	13.39778	-10.11024
7.879122	-0.03611587	-0.1431098	0	0	0	0
7.89547	-0.03606331	-0.1431494	0.003215236	-0.002423618	0.09758936	-0.07356204
7.912039	-0.03606331	-0.1431494	0	0	-0.09767559	0.07362705
7.928823	-0.03606331	-0.1431494	0	0	0	0
7.94517	-0.03598446	-0.1432088	0.004823276	-0.003637113	0.1455814	-0.1097793
7.96174	-0.03598446	-0.1432088	0	0	-0.1465326	0.1104966
7.978559	-0.03598446	-0.1432088	0	0	0	0
7.994871	-0.03598446	-0.1432088	0	0	0	0
8.011439	-0.03598446	-0.1432088	0	0	0	0
8.028006	-0.03598446	-0.1432088	0	0	0	0
8.04457	-0.03601074	-0.143189	-0.001586654	0.001196456	-0.04789083	0.03611328
8.061138	-0.03601074	-0.143189	0	0	0.04788807	-0.0361112
8.077705	-0.03601074	-0.143189	0	0	0	0
8.097618	-0.03569536	-0.1429116	0.01583827	0.01393079	0.4341638	0.3818754
8.115105	-0.03569536	-0.1429116	0	0	-0.4234912	-0.3724882
8.130755	-0.03569536	-0.1429116	0	0	0	0
8.147322	-0.03212053	-0.1402186	0.2157896	0.1625608	6.697998	5.045804
8.163889	-0.03212053	-0.1402186	0	0	-6.512729	-4.906236
8.180455	-0.03212053	-0.1402186	0	0	0	0
8.197019	-0.008841875	-0.1227665	1.405426	1.053652	42.42194	31.80386
8.213614	-0.008841875	-0.1227665	0	0	-42.38412	-31.7755
8.230155	-0.008841875	-0.1227665	0	0	0	0
8.246719	-5.263158E-05	-0.1162119	0.5306114	0.395705	16.02818	11.95306
8.263288	-5.263158E-05	-0.1162119	0	0	-16.01435	-11.94274
8.279959	-5.263158E-05	-0.1162119	0	0	0	0
8.296422	-2.631579E-05	-0.1162315	0.001598454	-0.001190679	0.04824281	-0.03593579
8.312988	-2.631579E-05	-0.1162315	0	0	-0.04839464	0.03604889
8.329848	-2.631579E-05	-0.1162315	0	0	0	0
8.346122	2.631579E-05	-0.1162707	0.003234189	-0.002408671	0.09761084	-0.07269593
8.362688	2.631579E-05	-0.1162707	0	0	-0.09848391	0.07334615
8.379254	2.631579E-05	-0.1162707	0	0	0	0
8.39582	7.894737E-05	-0.1163099	0.003177214	-0.002366239	0.0958968	-0.07141939
8.412451	7.894737E-05	-0.1163099	0	0	-0.09570947	0.07127987
8.428957	7.894737E-05	-0.1163099	0	0	0	0
8.445521	7.894737E-05	-0.1163099	0	0	0	0
8.462089	7.894737E-05	-0.1163099	0	0	0	0
8.478653	7.894737E-05	-0.1163099	0	0	0	0
8.495221	5.263158E-05	-0.1163295	-0.001588333	-0.00118314	-0.04793874	-0.03570928
8.511857	5.263158E-05	-0.1163295	0	0	0.04783548	0.03563236
8.528355	5.263158E-05	-0.1163295	0	0	0	0
8.544934	0.0001315789	-0.1163883	0.004761709	-0.00354652	0.1439573	-0.1072193
8.561489	0.0001315789	-0.1163883	0	0	-0.1437087	0.1070342
8.578473	0.0001315789	-0.1163883	0	0	0	0
8.59462	0.0006315788	-0.1168	0.03096615	-0.0254941	0.9346679	-0.769502
8.611189	0.0006315788	-0.1168	0	0	-0.9465199	0.7792596
8.627755	0.0006315788	-0.1168	0	0	0	0
8.644321	0.0006578946	-0.1168588	0.001588516	-0.003549828	0.04794428	-0.1071402
8.660889	0.0006578946	-0.1168588	0	0	-0.0479429	0.1071371
8.677455	0.0006578946	-0.1168588	0	0	0	0
8.694091	0.0007105262	-0.116898	0.003163734	-0.002357096	0.09528695	-0.07099223
8.710585	0.0007105262	-0.116898	0	0	-0.09549542	0.07114755
8.727154	0.0007105262	-0.116898	0	0	0	0
8.743718	0.000736842	-0.1169176	0.001588699	-0.001183412	0.04794842	-0.03571648
8.760284	0.000736842	-0.1169176	0	0	-0.04795256	0.03571957
8.776854	0.000736842	-0.1169176	0	0	0	0
8.793418	0.0007105262	-0.1169372	-0.001588699	-0.001183412	-0.04794842	-0.03571648
8.809984	0.0007105262	-0.1169372	0	0	0.04795256	0.03571957
8.82655	0.0007105262	-0.1169372	0	0	0	0
8.843117	0.0006842104	-0.1169176	-0.001588513	0.001183276	-0.04794417	0.03571339
8.859686	0.0006842104	-0.1169176	0	0	0.04794003	-0.03571031
8.876255	0.0006842104	-0.1169176	0	0	0	0
8.893704	0.0006842104	-0.1169176	0	0	0	0
8.910275	0.0006842104	-0.1169176	0	0	0	0
8.927067	0.0006842104	-0.1169176	0	0	0	0
8.943405	0.0006578946	-0.1169372	-0.001610677	-0.001199783	-0.04861592	-0.0362137
8.959974	0.0006578946	-0.1169372	0	0	0.04894561	0.03645928
8.976823	0.0006578946	-0.1169372	0	0	0	0
8.993108	0.0006315788	-0.1169176	-0.001615959	0.001203718	-0.04877114	0.03632933
9.009679	0.0006315788	-0.1169176	0	0	0.04918309	-0.03663618
9.026245	0.0006315788	-0.1169176	0	0	0	0
9.042807	0.0006315788	-0.1169176	0	0	0	0
9.059379	0.0006315788	-0.1169176	0	0	0	0
9.076666	0.0006315788	-0.1169176	0	0	0	0
9.092511	0.0006315788	-0.1169176	0	0	0	0
9.109078	0.0006315788	-0.1169176	0	0	0	0
9.125656	0.0006315788	-0.1169176	0	0	0	0
9.142205	0.0006315788	-0.1169176	0	0	0	0
9.159322	0.0006315788	-0.1169176	0	0	0	0
9.17534	0.0006315788	-0.1169176	0	0	0	0
9.191905	0.0006315788	-0.1169176	0	0	0	0
9.208477	0.0006315788	-0.1169176	0	0	0	0
9.225044	0.0006315788	-0.1169176	0	0	0	0
9.241611	0.0006052631	-0.116898	-0.001588421	0.001183208	-0.04793865	0.03570928
9.258301	0.0006052631	-0.116898	0	0	0.04776269	-0.03557821
9.274743	0.0006052631	-0.116898	0	0	0	0
9.291309	0.0006052631	-0.116898	0	0	0	0
9.307878	0.0006052631	-0.116898	0	0	0	0
9.324693	0.0006052631	-0.116898	0	0	0	0
9.341004	0.0006052631	-0.1169372	0	-0.002403495	0	-0.07255433
9.357571	0.0006052631	-0.1169372	0	0	0	0.07310361
9.374789	0.0006052631	-0.1169372	0	0	0	0
9.390785	0.0006052631	-0.1169372	0	0	0	0
9.413227	0.0006052631	-0.1169372	0	0	0	0
9.429794	0.0006052631	-0.1169372	0	0	0	0
9.446361	0.0005789473	-0.1169568	-0.001588516	-0.001183276	-0.0479429	-0.03571237
9.462932	0.0005789473	-0.1169568	0	0	0.04793738	0.03570826
9.479498	0.0005789473	-0.1169568	0	0	0	0
9.496062	0.0005789473	-0.1169568	0	0	0	0
9.512631	0.0005789473	-0.1169568	0	0	0	0
9.529198	0.0005789473	-0.1169568	0	0	0	0
9.545838	0.0005789473	-0.1169568	0	0	0	0
9.562331	0.0005789473	-0.1169568	0	0	0	0
9.579468	0.0005789473	-0.1169568	0	0	0	0
9.595462	0.0005789473	-0.1169568	0	0	0	0
9.612215	0.0005789473	-0.1169568	0	0	0	0
9.628825	0.0005789473	-0.1169568	0	0	0	0
9.645164	0.0005789473	-0.1169568	0	0	0	0
9.661731	0.0005789473	-0.1169568	0	0	0	0
9.678306	0.0005789473	-0.1169568	0	0	0	0
9.694863	0.0005789473	-0.1169568	0	0	0	0
9.711807	0.0005789473	-0.1169568	0	0	0	0
9.727998	0.0005789473	-0.1169568	0	0	0	0
9.744564	0.0005789473	-0.1169568	0	0	0	0
9.76113	0.0005789473	-0.1169568	0	0	0	0
9.778259	0.0005789473	-0.1169568	0	0	0	0
9.794261	0.0005526315	-0.1169764	-0.001644563	-0.00122549	-0.04963871	-0.03698963
9.81083	0.0005526315	-0.1169764	0	0	0.05049187	0.03762538
9.827394	0.0005526315	-0.1169764	0	0	0	0
9.844317	0.0005526315	-0.1169764	0	0	0	0
9.861496	0.0005526315	-0.1169764	0	0	0	0
9.877095	0.0005526315	-0.1169764	0	0	0	0
9.893661	0.0005526315	-0.1169764	0	0	0	0
9.910229	0.0005526315	-0.1169764	0	0	0	0
9.926795	0.0005526315	-0.1169764	0	0	0	0
9.943359	0.0005526315	-0.1169764	0	0	0	0
9.959928	0.0005526315	-0.1169764	0	0	0	0
9.976495	0.0005526315	-0.1169764	0	0	0	0
9.993061	0.0005526315	-0.1169764	0	0	0	0
10.00963	0.0005526315	-0.1169764	0	0	0	0
10.0262	0.0005526315	-0.1169764	0	0	0	0
10.04316	0.0005526315	-0.1169764	0	0	0	0
10.05933	0.0005526315	-0.1169764	0	0	0	0
10.07649	0.0005526315	-0.1169764	0	0	0	0
10.09246	0.0005526315	-0.1169764	0	0	0	0
10.10946	0.0005526315	-0.1169764	0	0	0	0
10.12579	0.0005526315	-0.1169764	0	0	0	0
10.14225	0.0005526315	-0.1169764	0	0	0	0
10.15873	0.0005526315	-0.1169764	0	0	0	0
10.17529	0.0005526315	-0.1169764	0	0	0	0
10.19186	0.0005263158	-0.116996	-0.001588513	-0.001183276	-0.04794279	-0.03571237
10.20844	0.0005263158	-0.116996	0	0	0.047929	0.03570209
10.225	0.0005263158	-0.116996	0	0	0	0
10.24176	0.0005526315	-0.1169764	0.001569985	0.001169475	0.04711644	0.03509682
10.25813	0.0005526315	-0.1169764	0	0	-0.04738633	-0.03529786
10.27469	0.0005526315	-0.1169764	0	0	0	0
10.29126	0.0005263158	-0.1169568	-0.001588513	0.001183726	-0.04794417	0.03572697
10.30788	0.0005263158	-0.1169568	0	0	0.04786839	-0.0356705
10.32445	0.0005263158	-0.1169568	0	0	0	0
10.34096	0.0005263158	-0.1169568	0	0	0	0
10.35753	0.0005263158	-0.1169568	0	0	0	0
10.3741	0.0005263158	-0.1169568	0	0	0	0
10.39066	0.0005263158	-0.1169568	0	0	0	0
10.40723	0.0005263158	-0.1169568	0	0	0	0
10.42379	0.0005263158	-0.1169568	0	0	0	0
10.44036	0.0005263158	-0.1169568	0	0	0	0
10.45693	0.0005263158	-0.1169568	0	0	0	0
10.4735	0.0005263158	-0.1169568	0	0	0	0
10.49006	0.0005263158	-0.1169568	0	0	0	0
10.50663	0.0005263158	-0.1169568	0	0	0	0
10.5232	0.0005263158	-0.1169568	0	0	0	0
10.53976	0.0005263158	-0.1169568	0	0	0	0
10.55633	0.0005263158	-0.1169568	0	0	0	0
10.57347	0.0005263158	-0.1169568	0	0	0	0
10.58946	0.0005263158	-0.1169568	0	0	0	0
10.60603	0.0005263158	-0.1169568	0	0	0	0
10.62259	0.0005263158	-0.1169568	0	0	0	0
10.63916	0.0005263158	-0.1169568	0	0	0	0
10.65573	0.0005263158	-0.1169568	0	0	0	0
10.67267	0.0005263158	-0.1169568	0	0	0	0
10.68886	0.0005	-0.1169372	-0.00162567	0.001210951	-0.04906846	0.03655079
10.70543	0.0005	-0.1169372	0	0	0.04962701	-0.03696686
10.72955	0.0005	-0.1169372	0	0	0	0
10.74611	0.0004736842	-0.1169176	-0.001588425	0.001183208	-0.03904048	0.02908101
10.76268	0.0004736842	-0.1169176	0	0	0.04794014	-0.03571031
10.77925	0.0004736842	-0.1169176	0	0	0	0
10.79585	0.0004736842	-0.1168392	0	0.00472295	0	0.1423832
10.81238	0.0004736842	-0.1168392	0	0	0	-0.1425471
10.82895	0.0004736842	-0.1168392	0	0	0	0
10.84551	0.0005263158	-0.1168392	0.00317685	0	0.09588027	0
10.86208	0.0005263158	-0.1168392	0	0	-0.09587199	0
10.87865	0.0005263158	-0.1168392	0	0	0	0
10.89522	0.0005263158	-0.1168392	0	0	0	0
10.91225	0.0005263158	-0.1168392	0	0	0	0
10.92835	0.0005263158	-0.1168392	0	0	0	0
10.94507	0.0005526315	-0.1168196	0.001573656	0.001172209	0.04794009	0.03571035
10.96148	0.0005526315	-0.1168196	0	0	-0.0474944	-0.03537836
10.97805	0.0005526315	-0.1168196	0	0	0	0
10.99462	0.0005789473	-0.1168	0.001588608	0.001183344	0.04794842	0.03571648
11.01118	0.0005789473	-0.1168	0	0	-0.04794566	-0.03571443
11.02787	0.0005789473	-0.1168	0	0	0	0
11.04445	0.0005789473	-0.1168	0	0	0	0
11.06088	0.0005789473	-0.1168	0	0	0	0
11.07745	0.0005789473	-0.1168	0	0	0	0
11.09402	0.0006052631	-0.1168196	0.001588516	-0.001183276	0.0479429	-0.03571237
11.11058	0.0006052631	-0.1168196	0	0	-0.04794566	0.03571442
11.12744	0.0006052631	-0.1168196	0	0	0	0
11.14374	0.0007631577	-0.1169372	0.009687801	-0.007216848	0.2921598	-0.2176421
11.16028	0.0007631577	-0.1169372	0	0	-0.295002	0.2197594
11.17685	0.0007631577	-0.1169372	0	0	0	0
11.19341	0.0008421051	-0.116996	0.004766643	-0.003551095	0.1438741	-0.1071846
11.20998	0.0008421051	-0.116996	0	0	-0.1438617	0.1071754
11.22655	0.0008421051	-0.116996	0	0	0	0
11.24398	0.0008421051	-0.116996	0	0	0	0
11.26088	0.0008421051	-0.116996	0	0	0	0
11.56412	0.0008421051	-0.116996	0	0	0	0
11.58704	0.0008157893	-0.1169764	-0.001148081	0.0008551981	-0.003519977	0.002622009
11.60361	0.0008157893	-0.1169764	0	0	0.02907077	-0.02165464
11.62018	0.0008157893	-0.1169764	0	0	0	0
11.63675	0.0008157893	-0.1169764	0	0	0	0
11.65331	0.0008157893	-0.1169764	0	0	0	0
11.67025	0.0008421051	-0.116996	0.00155346	-0.001157163	0.0463631	-0.03453559
11.68644	0.0008421051	-0.116996	0	0	-0.04688893	0.03492727
11.70301	0.0008421051	-0.116996	0	0	0	0
11.71958	0.0008421051	-0.116996	0	0	0	0
11.73614	0.0008421051	-0.116996	0	0	0	0
11.75278	0.0008421051	-0.116996	0	0	0	0
11.76928	0.0008421051	-0.116996	0	0	0	0
11.78584	0.0008421051	-0.116996	0	0	0	0
11.80241	0.0008421051	-0.116996	0	0	0	0
11.81898	0.0008421051	-0.116996	0	0	0	0
11.83554	0.0008421051	-0.116996	0	0	0	0
11.85211	0.0008421051	-0.116996	0	0	0	0
11.86868	0.0008421051	-0.116996	0	0	0	0
11.88524	0.0008421051	-0.116996	0	0	0	0
11.90181	0.0008421051	-0.116996	0	0	0	0
11.91838	0.0008421051	-0.116996	0	0	0	0
11.93494	0.0008421051	-0.116996	0	0	0	0
11.95151	0.0008421051	-0.116996	0	0	0	0
11.96808	0.0008421051	-0.116996	0	0	0	0
11.98464	0.0008421051	-0.116996	0	0	0	0
12.00121	0.0008421051	-0.116996	0	0	0	0
12.01778	0.0008421051	-0.116996	0	0	0	0
12.03434	0.0008421051	-0.116996	0	0	0	0
12.05091	0.0008421051	-0.116996	0	0	0	0
12.06748	0.0008421051	-0.116996	0	0	0	0
12.08404	0.0008421051	-0.116996	0	0	0	0
12.10061	0.0008421051	-0.116996	0	0	0	0
12.11718	0.0008157893	-0.1169764	-0.001588516	0.001183276	-0.04794428	0.03571339
12.13374	0.0008157893	-0.1169764	0	0	0.04794428	-0.03571339
12.15031	0.0008157893	-0.1169764	0	0	0	0
12.16688	0.0008157893	-0.1169764	0	0	0	0
12.18344	0.0008157893	-0.1169764	0	0	0	0
12.20001	0.0008157893	-0.1169764	0	0	0	0
12.21666	0.0008421051	-0.116996	0.001580691	-0.001177447	0.04758618	-0.03544665
12.23314	0.0008421051	-0.116996	0	0	-0.04770946	0.03553848
12.24971	0.0008421051	-0.116996	0	0	0	0
12.26642	0.0008421051	-0.116996	0	0	0	0
12.28285	0.0008421051	-0.116996	0	0	0	0
12.29941	0.0008421051	-0.116996	0	0	0	0
12.31598	0.0008421051	-0.116996	0	0	0	0
12.33255	0.0008421051	-0.116996	0	0	0	0
12.34938	0.0008421051	-0.116996	0	0	0	0
12.36568	0.0008421051	-0.116996	0	0	0	0
12.38225	0.0008421051	-0.116996	0	0	0	0
12.39881	0.0008421051	-0.116996	0	0	0	0
12.41538	0.0008421051	-0.116996	0	0	0	0
12.43195	0.0008421051	-0.116996	0	0	0	0
12.44851	0.0008421051	-0.116996	0	0	0	0
12.46508	0.0008421051	-0.116996	0	0	0	0
12.48165	0.0008421051	-0.116996	0	0	0	0
12.49821	0.0008421051	-0.116996	0	0	0	0
12.51478	0.0008421051	-0.116996	0	0	0	0
12.53135	0.0008421051	-0.116996	0	0	0	0
12.54791	0.0008421051	-0.116996	0	0	0	0
12.56448	0.0008421051	-0.116996	0	0	0	0
12.58104	0.0008421051	-0.116996	0	0	0	0
12.59761	0.0008421051	-0.116996	0	0	0	0
12.61418	0.0008421051	-0.116996	0	0	0	0
12.63075	0.0008421051	-0.116996	0	0	0	0
12.64731	0.0008421051	-0.116996	0	0	0	0
12.66388	0.0008421051	-0.116996	0	0	0	0
12.68045	0.0008421051	-0.116996	0	0	0	0
12.69746	0.0008421051	-0.116996	0	0	0	0
12.71358	0.0008421051	-0.116996	0	0	0	0
12.73015	0.0008421051	-0.116996	0	0	0	0
12.74672	0.0008421051	-0.116996	0	0	0	0
12.76334	0.0008421051	-0.116996	0	0	0	0
12.77991	0.0008421051	-0.116996	0	0	0	0
12.79648	0.0008421051	-0.116996	0	0	0	0
12.81304	0.0008421051	-0.116996	0	0	0	0
12.82961	0.0008421051	-0.116996	0	0	0	0
12.84618	0.0008421051	-0.116996	0	0	0	0
12.86274	0.0008421051	-0.116996	0	0	0	0
12.87931	0.0008421051	-0.116996	0	0	0	0
12.89591	0.0008421051	-0.116996	0	0	0	0
12.91244	0.0008157893	-0.1169764	-0.001591723	0.001185665	-0.04804384	0.03578756
12.92901	0.0008157893	-0.1169764	0	0	0.04808398	-0.03581746
12.94558	0.0008157893	-0.1169764	0	0	0	0
12.96214	0.0008157893	-0.1169764	0	0	0	0
12.97871	0.0008157893	-0.1169764	0	0	0	0
12.99528	0.0008157893	-0.1169764	0	0	0	0
13.01596	0.0008157893	-0.1169764	0	0	0	0
13.03253	0.0008157893	-0.1169764	0	0	0	0
13.0491	0.0008157893	-0.1169764	0	0	0	0
13.06567	0.0008157893	-0.1169764	0	0	0	0
13.0823	0.0008157893	-0.1169764	0	0	0	0
13.0991	0.0008157893	-0.1169764	0	0	0	0
13.11537	0.0008157893	-0.1169764	0	0	0	0
13.13193	0.0008157893	-0.1169764	0	0	0	0
13.1485	0.0008157893	-0.1169764	0	0	0	0
13.16507	0.0008157893	-0.1169764	0	0	0	0
13.18197	0.0008157893	-0.1169764	0	0	0	0
13.1982	0.0008157893	-0.1169764	0	0	0	0
13.21477	0.0008157893	-0.1169764	0	0	0	0
13.23133	0.0008157893	-0.1169764	0	0	0	0
13.2479	0.0008157893	-0.1169764	0	0	0	0
13.26447	0.0008157893	-0.1169764	0	0	0	0
13.28103	0.0008157893	-0.1169764	0	0	0	0
13.2976	0.0008157893	-0.1169764	0	0	0	0
13.31423	0.0008157893	-0.1169764	0	0	0	0
13.33073	0.0008157893	-0.1169764	0	0	0	0
13.3473	0.0007894735	-0.1169568	-0.001588513	0.001183726	-0.04803266	0.03579291
13.36386	0.0007894735	-0.1169568	0	0	0.04794555	-0.035728
13.38043	0.0007894735	-0.1169568	0	0	0	0
13.397	0.0007894735	-0.1169568	0	0	0	0
13.41362	0.0007894735	-0.1169568	0	0	0	0
13.43013	0.0007894735	-0.1169568	0	0	0	0
13.4467	0.0007894735	-0.1169568	0	0	0	0
13.46326	0.0007894735	-0.1169568	0	0	0	0
13.47983	0.0007894735	-0.1169568	0	0	0	0
13.4964	0.0007894735	-0.1169568	0	0	0	0
13.51297	0.0007894735	-0.1169568	0	0	0	0
13.52953	0.0007894735	-0.1169568	0	0	0	0
13.5461	0.0007894735	-0.1169568	0	0	0	0
13.56266	0.0007894735	-0.1169568	0	0	0	0
13.57923	0.0007894735	-0.1169568	0	0	0	0
13.5958	0.0007894735	-0.1169568	0	0	0	0
13.61236	0.0007894735	-0.1169568	0	0	0	0
13.62893	0.0007894735	-0.1169568	0	0	0	0
13.64564	0.0007631577	-0.1169372	-0.001574557	0.001172878	-0.0473146	0.03524436
13.66206	0.0007631577	-0.1169372	0	0	0.04752023	-0.03539753
13.67863	0.0007631577	-0.1169372	0	0	0	0
13.6952	0.0006842104	-0.1168784	-0.004764445	0.00354946	-0.1437954	0.107126
13.71182	0.0006842104	-0.1168784	0	0	0.1435268	-0.106926
13.72881	0.0006842104	-0.1168784	0	0	0	0
13.74489	0.000736842	-0.1155456	0.003271767	0.08284733	0.09893291	2.505168
13.76146	0.000736842	-0.1155456	0	0	-0.1001927	-2.537067
13.77834	0.000736842	-0.1155456	0	0	0	0
13.79459	-0.002315785	-0.09050906	-0.1878249	1.540474	-5.668892	46.49426
13.81116	-0.002315785	-0.09050906	0	0	5.723089	-46.93876
13.82773	-0.002315785	-0.09050906	0	0	0	0
13.84429	-0.01381491	-0.04334854	-0.6941286	2.846779	-20.94945	85.91842
13.86086	-0.01381491	-0.04334854	0	0	20.95005	-85.9209
13.87743	-0.01381491	-0.04334854	0	0	0	0
13.89402	-0.02123365	0.01158541	-0.4472553	3.311816	-13.48888	99.88181
13.91056	-0.02123365	0.01158541	0	0	13.49936	-99.95943
13.92713	-0.02123365	0.01158541	0	0	0	0
13.9437	-0.01726144	0.04182651	0.2398043	1.825672	7.237723	55.10205
13.96026	-0.01726144	0.04182651	0	0	-7.237515	-55.10046
13.9769	-0.01726144	0.04182651	0	0	0	0
13.99342	-0.01281509	0.05369452	0.2691883	0.7185053	8.119679	21.67268
14.01004	-0.01281509	0.05369452	0	0	-8.12225	-21.67954
14.02685	-0.01281509	0.05369452	0	0	0	0
14.0431	-0.008710306	0.05662342	0.2526666	0.1802862	7.643533	5.453921
14.05966	-0.008710306	0.05662342	0	0	-7.700406	-5.494501
14.07637	-0.008710306	0.05662342	0	0	0	0
14.09288	-0.008526109	0.05712371	0.01115733	0.03030384	0.3359264	0.9123922
14.10942	-0.008526109	0.05712371	0	0	-0.3375449	-0.9167883
14.12625	-0.008526109	0.05712371	0	0	0	0
14.14249	-0.01705098	0.06345528	-0.5247109	0.3897119	-15.86594	11.78391
14.15906	-0.01705098	0.06345528	0	0	15.98905	-11.87535
14.17563	-0.01705098	0.06345528	0	0	0	0
14.19259	-0.03354005	0.08730546	-0.9724432	1.406566	-29.00858	41.95872
14.20876	-0.03354005	0.08730546	0	0	29.35177	-42.45512
14.22533	-0.03354005	0.08730546	0	0	0	0
14.2419	-0.01323607	0.1145938	1.225621	1.647222	36.98719	49.71041
14.25846	-0.01323607	0.1145938	0	0	-36.99145	-49.71613
14.27513	-0.01323607	0.1145938	0	0	0	0
14.29159	0.003105253	0.1363981	0.9925347	1.324343	29.95907	39.97449
14.30843	0.003105253	0.1363981	0	0	-29.80293	-39.76616
14.3254	0.003105253	0.1363981	0	0	0	0
14.3463	-0.007552488	0.1585132	-0.5098057	1.057859	-13.46117	27.93225
14.36287	-0.007552488	0.1585132	0	0	13.60472	-28.23011
14.38067	-0.007157772	0.1582411	0.02218056	-0.01528838	0.6454818	-0.444911
14.39724	-0.007157772	0.1582411	0	0	-0.645428	0.444874
14.4138	-0.007157772	0.1582411	0	0	0	0
14.43041	-0.007131458	0.158223	0.001584671	-0.001092099	0.04777458	-0.03292455
14.44703	-0.007131458	0.158223	0	0	-0.04769231	0.03286785
14.4635	-0.007131458	0.158223	0	0	0	0
14.48007	-0.007131458	0.158223	0	0	0	0
14.49664	-0.007131458	0.158223	0	0	0	0
14.51354	-0.007131458	0.158223	0	0	0	0
14.52977	-0.007052515	0.1581323	0.00486302	-0.00558652	0.1467704	-0.1686064
14.54634	-0.007052515	0.1581323	0	0	-0.1482641	0.1703222
14.56294	-0.007052515	0.1581323	0	0	0	0
14.57996	-0.006894628	0.1579509	0.009274363	-0.01065504	0.2758203	-0.3168818
14.59603	-0.006894628	0.1579509	0	0	-0.2802315	0.3219497
14.6126	-0.006894628	0.1579509	0	0	0	0
14.62917	-0.006894628	0.1579146	0	-0.002188975	0	-0.06605769
14.64574	-0.006894628	0.1579146	0	0	0	0.0660615
14.6623	-0.006894628	0.1579146	0	0	0	0
14.67887	-0.006920942	0.1577514	-0.001588713	-0.009856489	-0.04795299	-0.2975037
14.69544	-0.006920942	0.1577514	0	0	0.04795023	0.2974865
14.712	-0.006920942	0.1577514	0	0	0	0
14.73834	-0.007368288	0.1572979	-0.01698872	-0.01722196	-0.3960156	-0.4014525
14.75491	-0.007368288	0.1572979	0	0	0.3959804	0.4014168
14.77147	-0.007394602	0.1572797	-0.001588439	-0.001095576	-0.04793505	-0.03306169
14.78804	-0.007394602	0.1572797	0	0	0.04794056	0.0330655
14.80462	-0.007394602	0.1572797	0	0	0	0
14.82117	-0.007341973	0.1571709	0.003180145	-0.006576673	0.09599078	-0.1985129
14.83774	-0.007341973	0.1571709	0	0	-0.09602395	0.1985815
14.85431	-0.007341973	0.1571709	0	0	0	0
14.87087	-0.007341973	0.1571709	0	0	0	0
14.88744	-0.007341973	0.1571709	0	0	0	0
14.90407	-0.007341973	0.1571709	0	0	0	0
14.92057	-0.007341973	0.1571709	0	0	0	0
14.93714	-0.007341973	0.1571709	0	0	0	0
14.95419	-0.007341973	0.1571709	0	0	0	0
14.97027	-0.007341973	0.1571709	0	0	0	0
14.98687	-0.007341973	0.1571709	0	0	0	0
15.0034	-0.007341973	0.1571709	0	0	0	0
15.01997	-0.007341973	0.1571709	0	0	0	0
15.03654	-0.007341973	0.1571709	0	0	0	0
15.05312	-0.007341973	0.1571709	0	0	0	0
15.06967	-0.007341973	0.1571709	0	0	0	0
15.08624	-0.007341973	0.1571709	0	0	0	0
15.10281	-0.007341973	0.1571709	0	0	0	0
15.11937	-0.007341973	0.1571709	0	0	0	0
15.13594	-0.007341973	0.1571709	0	0	0	0
15.15254	-0.007341973	0.1571709	0	0	0	0
15.16917	-0.007763002	0.1560097	-0.02531135	-0.06980547	-0.76164	-2.100506
15.18563	-0.007763002	0.1560097	0	0	0.7647343	2.10904
15.20221	-0.007763002	0.1560097	0	0	0	0
15.21878	-0.004131556	0.1258086	0.2191567	-1.822628	6.612259	-54.99118
15.23534	-0.004131556	0.1258086	0	0	-6.615304	55.01651
15.25235	-0.004131556	0.1258086	0	0	0	0
15.26886	-0.0009999997	0.06375125	0.1896324	-3.757905	5.656046	-112.0847
15.28504	-0.0009999997	0.06375125	0	0	-5.801598	114.969
15.30237	-0.0009999997	0.06375125	0	0	0	0
15.31848	-0.01255197	0.000913716	-0.7170497	-3.900428	-21.44127	-116.6309
15.33474	-0.01255197	0.000913716	0	0	22.15324	120.5037
15.3513	-0.01255197	0.000913716	0	0	0	0
15.36787	-0.01860312	-0.0751636	-0.3653108	-4.592829	-11.02637	-138.6278
15.38465	-0.01860312	-0.0751636	0	0	10.95291	137.7042
15.40112	-0.01860312	-0.0751636	0	0	0	0
15.41757	-0.0153409	-0.1000546	0.1983348	-1.513315	6.026342	-45.98162
15.43414	-0.0153409	-0.1000546	0	0	-6.007021	45.83419
15.45098	-0.0153409	-0.1000546	0	0	0	0
15.46727	-0.01531459	-0.1000741	0.001615216	-0.00119566	0.04874872	-0.03608613
15.48383	-0.01531459	-0.1000741	0	0	-0.04916333	0.03639305
15.5004	-0.01531459	-0.1000741	0	0	0	0
15.51697	-0.01484102	-0.1004247	0.02859172	-0.02116725	0.8629745	-0.6388841
15.53354	-0.01484102	-0.1004247	0	0	-0.8629248	0.6388473
15.55012	-0.01484102	-0.1004247	0	0	0	0
15.56672	-0.01486733	-0.1003663	-0.001585147	0.003520653	-0.04776832	0.1060947
15.58324	-0.01486733	-0.1003663	0	0	0.04787013	-0.1063208
15.59982	-0.01486733	-0.1003663	0	0	0	0
15.61637	-0.01484102	-0.1003858	0.001589805	-0.00117685	0.04798732	-0.03552251
15.63293	-0.01484102	-0.1003858	0	0	-0.0480039	0.03553478
15.64962	-0.01484102	-0.1003858	0	0	0	0
15.6703	-0.01444636	-0.1007169	0.0190807	-0.01601116	0.5106577	-0.4285073
15.68687	-0.01444636	-0.1007169	0	0	-0.512174	0.4297797
15.70343	-0.01381491	-0.1012235	0.03812338	-0.03058291	1.150566	-0.9229942
15.72045	-0.01381491	-0.1012235	0	0	-1.135435	0.9108561
15.73657	-0.01381491	-0.1012235	0	0	0	0
15.75313	-0.01381491	-0.1012625	0	-0.00235261	0	-0.07197346
15.7697	-0.01381491	-0.1012625	0	0	0	0.071006
15.78627	-0.01381491	-0.1012625	0	0	0	0
15.80283	-0.01381491	-0.1012625	0	0	0	0
15.8194	-0.01381491	-0.1012625	0	0	0	0
15.83597	-0.01381491	-0.1012625	0	0	0	0
15.85253	-0.01381491	-0.1012625	0	0	0	0
15.8691	-0.01381491	-0.1012625	0	0	0	0
15.88567	-0.01381491	-0.1012625	0	0	0	0
15.90224	-0.0137886	-0.1012819	0.001588214	-0.00117608	0.04793515	-0.03549621
15.9188	-0.0137886	-0.1012819	0	0	-0.04793515	0.03549621
15.93542	-0.0137886	-0.1012819	0	0	0	0
15.95193	-0.01373598	-0.1013209	0.003187254	-0.002360628	0.09619427	-0.07124594
15.96905	-0.01373598	-0.1013209	0	0	-0.09477845	0.07019731
15.98507	-0.01373598	-0.1013209	0	0	0	0
16.00163	-0.01373598	-0.1013209	0	0	0	0
16.0182	-0.01373598	-0.1013209	0	0	0	0
16.03516	-0.01373598	-0.1013209	0	0	0	0
16.05133	-0.01376229	-0.1013014	-0.001627662	0.001205752	-0.04913141	0.03639596
16.0679	-0.01376229	-0.1013014	0	0	0.04972401	-0.03683495
16.08508	-0.01376229	-0.1013014	0	0	0	0
16.1011	-0.01376229	-0.1013014	0	0	0	0
16.11807	-0.01376229	-0.1013014	0	0	0	0
16.13481	-0.01376229	-0.1013014	0	0	0	0
16.15636	-0.01373598	-0.1013209	0.001221287	-0.0009047145	0.03189728	-0.02362912
16.17292	-0.01373598	-0.1013209	0	0	-0.03204574	0.0237391
16.18949	-0.01373598	-0.1013209	0	0	0	0
16.20606	-0.01373598	-0.1013209	0	0	0	0
16.22263	-0.01373598	-0.1013209	0	0	0	0
16.2392	-0.01376229	-0.1013014	-0.001588306	0.001176598	-0.04792964	0.0355057
16.25577	-0.01376229	-0.1013014	0	0	0.04793516	-0.03550978
16.27247	-0.01376229	-0.1013014	0	0	0	0
16.28889	-0.01373598	-0.1012819	0.001601769	0.001186118	0.04835261	0.03580534
16.30546	-0.01373598	-0.1012819	0	0	-0.04854828	-0.03595024
16.32203	-0.01373598	-0.1012819	0	0	0	0
16.34211	-0.01376229	-0.1012625	-0.001310013	0.0009700707	-0.03574229	0.02646734
16.35868	-0.01376229	-0.1012625	0	0	0.03574229	-0.02646734
16.37525	-0.0137886	-0.101243	-0.001588123	0.001176012	-0.04792964	0.03549213
16.39182	-0.0137886	-0.101243	0	0	0.04792688	-0.03549008
16.40841	-0.0137886	-0.101243	0	0	0	0
16.42495	-0.0137886	-0.101243	0	0	0	0
16.44194	-0.0137886	-0.101243	0	0	0	0
16.45808	-0.0137886	-0.101243	0	0	0	0
16.47465	-0.0137886	-0.101243	0	0	0	0
16.49129	-0.0137886	-0.101243	0	0	0	0
16.50778	-0.0137886	-0.101243	0	0	0	0
16.52435	-0.0137886	-0.101243	0	0	0	0
16.54092	-0.0137886	-0.101243	0	0	0	0
16.55767	-0.0137886	-0.101243	0	0	0	0
16.57405	-0.0137886	-0.101243	0	0	0	0
16.59062	-0.0137886	-0.101243	0	0	0	0
16.60798	-0.0137886	-0.101243	0	0	0	0
16.62406	-0.0137886	-0.101243	0	0	0	0
16.64034	-0.0137886	-0.101243	0	0	0	0
16.65689	-0.0137886	-0.101243	0	0	0	0
16.67345	-0.0137886	-0.101243	0	0	0	0
16.69006	-0.0137886	-0.101243	0	0	0	0
16.70662	-0.0137886	-0.101243	0	0	0	0
16.72346	-0.0137886	-0.101243	0	0	0	0
16.73975	-0.0137886	-0.101243	0	0	0	0
16.75629	-0.0137886	-0.101243	0	0	0	0
16.77285	-0.0137886	-0.101243	0	0	0	0
16.78951	-0.0137886	-0.101243	0	0	0	0
16.80671	-0.0137886	-0.101243	0	0	0	0
16.82256	-0.0137886	-0.101243	0	0	0	0
16.83912	-0.0137886	-0.101243	0	0	0	0
16.85568	-0.0137886	-0.101243	0	0	0	0
16.87226	-0.0137886	-0.101243	0	0	0	0
16.88892	-0.0137886	-0.101243	0	0	0	0
16.90568	-0.0137886	-0.101243	0	0	0	0
16.92195	-0.0137886	-0.101243	0	0	0	0
16.93886	-0.0137886	-0.101243	0	0	0	0
16.95508	-0.0137886	-0.101243	0	0	0	0
16.97165	-0.0137886	-0.101243	0	0	0	0
16.98822	-0.0137886	-0.101243	0	0	0	0
17.00511	-0.0137886	-0.101243	0	0	0	0
17.02135	-0.0137886	-0.101243	0	0	0	0
17.03833	-0.0137886	-0.101243	0	0	0	0
17.0588	-0.0137886	-0.101243	0	0	0	0
17.078	-0.0137886	-0.101243	0	0	0	0
17.09474	-0.0137886	-0.101243	0	0	0	0
17.11336	-0.0137886	-0.101243	0	0	0	0
17.13116	-0.0137886	-0.101243	0	0	0	0
17.14773	-0.0137886	-0.101243	0	0	0	0
17.1643	-0.0137886	-0.101243	0	0	0	0
17.18086	-0.0137886	-0.101243	0	0	0	0
17.19743	-0.0137886	-0.101243	0	0	0	0
17.21437	-0.0137886	-0.101243	0	0	0	0
17.23056	-0.0137886	-0.101243	0	0	0	0
17.24713	-0.0137886	-0.101243	0	0	0	0
17.26369	-0.0137886	-0.101243	0	0	0	0
17.28026	-0.0137886	-0.101243	0	0	0	0
17.29683	-0.0137886	-0.101243	0	0	0	0
17.3134	-0.0137886	-0.101243	0	0	0	0
17.32998	-0.0137886	-0.101243	0	0	0	0
17.34653	-0.0137886	-0.101243	0	0	0	0
17.3631	-0.0137886	-0.101243	0	0	0	0
17.37967	-0.0137886	-0.101243	0	0	0	0
17.39623	-0.0137886	-0.101243	0	0	0	0
17.41293	-0.0137886	-0.101243	0	0	0	0
17.42939	-0.0137886	-0.101243	0	0	0	0
17.44593	-0.0137886	-0.101243	0	0	0	0
17.4625	-0.0137886	-0.101243	0	0	0	0
17.47906	-0.0137886	-0.101243	0	0	0	0
17.49563	-0.0137886	-0.101243	0	0	0	0
17.51234	-0.0137886	-0.101243	0	0	0	0
17.52899	-0.0137886	-0.101243	0	0	0	0
17.54534	-0.0137886	-0.101243	0	0	0	0
17.5619	-0.0137886	-0.101243	0	0	0	0
17.57847	-0.0137886	-0.101243	0	0	0	0
17.59504	-0.0137886	-0.101243	0	0	0	0
17.6116	-0.0137886	-0.101243	0	0	0	0
17.62817	-0.0137886	-0.101243	0	0	0	0
17.64474	-0.0137886	-0.101243	0	0	0	0
17.6613	-0.0137886	-0.101243	0	0	0	0
17.70601	-0.0137886	-0.101243	0	0	0	0
17.72259	-0.0137886	-0.101243	0	0	0	0
17.73915	-0.0137886	-0.101243	0	0	0	0
17.75597	-0.0137886	-0.101243	0	0	0	0
17.77228	-0.0137886	-0.101243	0	0	0	0
17.78939	-0.0137886	-0.101243	0	0	0	0
17.80542	-0.0137886	-0.101243	0	0	0	0
17.82198	-0.0137886	-0.101243	0	0	0	0
17.83855	-0.0137886	-0.101243	0	0	0	0
17.85532	-0.0137886	-0.101243	0	0	0	0
17.87168	-0.0137886	-0.101243	0	0	0	0
17.88847	-0.0137886	-0.101243	0	0	0	0
17.90482	-0.0137886	-0.101243	0	0	0	0
17.92138	-0.0137886	-0.101243	0	0	0	0
17.93795	-0.0137886	-0.101243	0	0	0	0
17.95489	-0.0137886	-0.101243	0	0	0	0
17.97108	-0.0137886	-0.101243	0	0	0	0
17.98764	-0.0137886	-0.101243	0	0	0	0
18.00421	-0.0137886	-0.101243	0	0	0	0
18.02078	-0.0137886	-0.101243	0	0	0	0
18.03735	-0.0137886	-0.101243	0	0	0	0
18.05392	-0.0137886	-0.101243	0	0	0	0
18.07048	-0.0137886	-0.101243	0	0	0	0
18.08704	-0.0137886	-0.101243	0	0	0	0
18.10361	-0.0137886	-0.101243	0	0	0	0
18.12018	-0.0137886	-0.101243	0	0	0	0
18.13674	-0.01376229	-0.1012625	0.001588488	-0.001176283	0.0479462	-0.03550439
18.15331	-0.01376229	-0.1012625	0	0	-0.04794344	0.03550234
18.16987	-0.01376229	-0.1012625	0	0	0	0
18.18644	-0.01376229	-0.1012625	0	0	0	0
18.20301	-0.01376229	-0.1012625	0	0	0	0
18.21989	-0.01376229	-0.1012625	0	0	0	0
18.23614	-0.01376229	-0.1012625	0	0	0	0
18.25271	-0.01376229	-0.1012625	0	0	0	0
18.26928	-0.01376229	-0.1012625	0	0	0	0
18.28585	-0.01376229	-0.1012625	0	0	0	0
18.30274	-0.01376229	-0.1012625	0	0	0	0
18.31898	-0.01376229	-0.1012625	0	0	0	0
18.33898	-0.01376229	-0.1012625	0	0	0	0
18.35622	-0.01376229	-0.1012625	0	0	0	0
18.37282	-0.01376229	-0.1012625	0	0	0	0
18.38869	-0.01376229	-0.1012625	0	0	0	0
18.40525	-0.01376229	-0.1012625	0	0	0	0
18.42182	-0.01376229	-0.1012625	0	0	0	0
18.43839	-0.01376229	-0.1012625	0	0	0	0
18.45514	-0.01376229	-0.1012625	0	0	0	0
18.47168	-0.01376229	-0.1012625	0	0	0	0
18.48808	-0.01376229	-0.1012625	0	0	0	0
18.50508	-0.01376229	-0.1012625	0	0	0	0
18.52122	-0.01376229	-0.1012625	0	0	0	0
18.538	-0.01376229	-0.1012625	0	0	0	0
18.55436	-0.01376229	-0.1012625	0	0	0	0
18.57092	-0.01376229	-0.1012625	0	0	0	0
18.58749	-0.01376229	-0.1012625	0	0	0	0
18.60471	-0.01376229	-0.1012625	0	0	0	0
18.62062	-0.01373598	-0.1012819	0.001653612	-0.001224508	0.04991186	-0.03695998
18.63719	-0.01373598	-0.1012819	0	0	-0.05091133	0.03770009
18.65375	-0.01373598	-0.1012819	0	0	0	0
18.67032	-0.01373598	-0.1012819	0	0	0	0
18.68689	-0.01373598	-0.1012819	0	0	0	0
18.70345	-0.01373598	-0.1012819	0	0	0	0
18.72002	-0.01373598	-0.1012819	0	0	0	0
18.73659	-0.01373598	-0.1012819	0	0	0	0
18.75315	-0.01373598	-0.1012819	0	0	0	0
18.76972	-0.01373598	-0.1012819	0	0	0	0
18.78629	-0.01373598	-0.1012819	0	0	0	0
18.80289	-0.01373598	-0.1012819	0	0	0	0
18.81942	-0.01373598	-0.1012819	0	0	0	0
18.83599	-0.01373598	-0.1012819	0	0	0	0
18.8526	-0.01373598	-0.1012819	0	0	0	0
18.86912	-0.01376229	-0.1012625	-0.001592523	0.001179271	-0.04806244	0.03559046
18.88569	-0.01376229	-0.1012625	0	0	0.04812893	-0.0356397
18.90226	-0.01376229	-0.1012625	0	0	0	0
18.91886	-0.01376229	-0.1012625	0	0	0	0
18.93539	-0.01376229	-0.1012625	0	0	0	0
18.95196	-0.01376229	-0.1012625	0	0	0	0
18.96852	-0.01376229	-0.1012625	0	0	0	0
18.98547	-0.01376229	-0.1012625	0	0	0	0
19.00166	-0.01376229	-0.1012625	0	0	0	0
19.02172	-0.01370967	-0.1012625	0.002623015	0	0.07236451	0
19.03829	-0.01370967	-0.1012625	0	0	-0.07159968	0
19.05486	-0.01370967	-0.1012625	0	0	0	0
19.07152	-0.01370967	-0.1012625	0	0	0	0
19.08818	-0.01370967	-0.1012625	0	0	0	0
19.10455	-0.01368336	-0.101243	0.001607368	0.001190264	0.04865892	0.03603216
19.12112	-0.01368336	-0.101243	0	0	-0.04879415	-0.0361323
19.13784	-0.01368336	-0.101243	0	0	0	0
19.15425	-0.01365705	-0.1012235	0.001603258	0.001187674	0.04839478	0.03585028
19.17082	-0.01365705	-0.1012235	0	0	-0.04861591	-0.03601408
19.18797	-0.01365705	-0.1012235	0	0	0	0
19.20433	-0.01360442	-0.1012235	0.00321661	0	0.09599444	0
19.22104	-0.01360442	-0.1012235	0	0	-0.09726225	0
19.23709	-0.01360442	-0.1012235	0	0	0	0
19.25365	-0.01357811	-0.101243	0.001588123	-0.001176462	0.04869772	-0.03607469
19.27022	-0.01357811	-0.101243	0	0	-0.04792964	0.0355057
19.28695	-0.01357811	-0.101243	0	0	0	0
19.30335	-0.01344656	-0.1013404	0.008022875	-0.00594139	0.2421587	-0.1793321
19.31992	-0.01344656	-0.1013404	0	0	-0.2433636	0.1802244
19.33649	-0.01344656	-0.1013404	0	0	0	0
19.35305	-0.01328869	-0.1014573	0.009528848	-0.007057424	0.2875812	-0.2129935
19.36962	-0.01328869	-0.1014573	0	0	-0.2875812	0.2129935
19.38626	-0.01328869	-0.1014573	0	0	0	0
19.40275	-0.01315714	-0.1015547	0.007975618	-0.005906803	0.2407324	-0.1782882
19.41976	-0.01315714	-0.1015547	0	0	-0.2380463	0.1762989
19.43634	-0.01315714	-0.1015547	0	0	0	0
19.45245	-0.01313082	-0.1015742	0.001633695	-0.001210179	0.04997822	-0.03702195
19.46902	-0.01313082	-0.1015742	0	0	-0.04999864	0.03703708
19.48583	-0.01313082	-0.1015742	0	0	0	0
19.50249	-0.01315714	-0.1015547	-0.00157927	0.001169863	-0.04718173	0.03495042
19.51872	-0.01315714	-0.1015547	0	0	0.04801903	-0.03557066
19.53529	-0.01315714	-0.1015547	0	0	0	0
19.55185	-0.01315714	-0.1015547	0	0	0	0
19.56871	-0.01315714	-0.1015547	0	0	0	0
19.58498	-0.01315714	-0.1015547	0	0	0	0
19.60155	-0.01315714	-0.1015547	0	0	0	0
19.61845	-0.01315714	-0.1015547	0	0	0	0
19.63499	-0.01315714	-0.1015547	0	0	0	0
19.65125	-0.01315714	-0.1015547	0	0	0	0
19.66782	-0.01315714	-0.1015547	0	0	0	0
19.68438	-0.01315714	-0.1015547	0	0	0	0
19.70095	-0.01313082	-0.1015742	0.001588362	-0.001176598	0.04793961	-0.03551183
19.71752	-0.01313082	-0.1015742	0	0	-0.04793961	0.03551183
19.73408	-0.01313082	-0.1015742	0	0	0	0
19.7507	-0.01313082	-0.1015742	0	0	0	0
19.76722	-0.01313082	-0.1015742	0	0	0	0
19.78397	-0.01313082	-0.1015742	0	0	0	0
19.80034	-0.01313082	-0.1015742	0	0	0	0
19.81691	-0.01313082	-0.1015742	0	0	0	0
19.83354	-0.01313082	-0.1015742	0	0	0	0
19.85005	-0.01313082	-0.1015742	0	0	0	0
19.86699	-0.01313082	-0.1015742	0	0	0	0
19.88325	-0.01313082	-0.1015742	0	0	0	0
19.90009	-0.01313082	-0.1015742	0	0	0	0
19.91631	-0.01313082	-0.1015742	0	0	0	0
19.93288	-0.01313082	-0.1015742	0	0	0	0
19.94944	-0.01313082	-0.1015742	0	0	0	0
19.96601	-0.01313082	-0.1015742	0	0	0	0
19.98258	-0.01313082	-0.1015742	0	0	0	0
19.99915	-0.01313082	-0.1015742	0	0	0	0
20.01571	-0.01313082	-0.1015742	0	0	0	0
20.03275	-0.01313082	-0.1015742	0	0	0	0
20.04941	-0.01313082	-0.1015742	0	0	0	0
20.06542	-0.01313082	-0.1015742	0	0	0	0
20.08198	-0.01313082	-0.1015742	0	0	0	0
20.09855	-0.01313082	-0.1015742	0	0	0	0
20.11511	-0.01313082	-0.1015742	0	0	0	0
20.13213	-0.01313082	-0.1015742	0	0	0	0
20.14824	-0.01313082	-0.1015742	0	0	0	0
20.16481	-0.01313082	-0.1015742	0	0	0	0
20.18138	-0.01313082	-0.1015742	0	0	0	0
20.19796	-0.01313082	-0.1015742	0	0	0	0
20.21451	-0.01313082	-0.1015742	0	0	0	0
20.23141	-0.01313082	-0.1015742	0	0	0	0
20.24792	-0.01313082	-0.1015742	0	0	0	0
20.26421	-0.01313082	-0.1015742	0	0	0	0
20.28099	-0.01313082	-0.1015742	0	0	0	0
20.29735	-0.01313082	-0.1015742	0	0	0	0
20.31396	-0.01313082	-0.1015742	0	0	0	0
20.33048	-0.01313082	-0.1015742	0	0	0	0
20.35291	-0.01313082	-0.1015742	0	0	0	0
20.36948	-0.01313082	-0.1015742	0	0	0	0
20.38605	-0.01313082	-0.1015742	0	0	0	0
20.40261	-0.01313082	-0.1015742	0	0	0	0
20.41946	-0.01313082	-0.1015742	0	0	0	0
20.43577	-0.01313082	-0.1015742	0	0	0	0
20.45231	-0.01313082	-0.1015742	0	0	0	0
20.46896	-0.01313082	-0.1015742	0	0	0	0
20.48546	-0.01313082	-0.1015742	0	0	0	0
20.50202	-0.01313082	-0.1015742	0	0	0	0
20.51858	-0.01313082	-0.1015742	0	0	0	0
20.53514	-0.01315714	-0.1015547	-0.001588545	0.001176733	-0.04795894	0.03552615
20.55171	-0.01315714	-0.1015547	0	0	0.04794513	-0.03551592
20.56828	-0.01315714	-0.1015547	0	0	0	0
20.58484	-0.01328869	-0.1013794	-0.007942555	0.01058835	-0.2397344	0.3195938
20.60141	-0.01328869	-0.1013794	0	0	0.2397206	-0.3195754
20.61798	-0.01328869	-0.1013794	0	0	0	0
20.63455	-0.01294664	-0.09941199	0.02064599	0.1187507	0.6230972	3.583904
20.65112	-0.01294664	-0.09941199	0	0	-0.6230972	-3.583904
20.66768	-0.01294664	-0.09941199	0	0	0	0
20.68425	-0.006184132	-0.06814837	0.4082801	1.88751	12.32334	56.97174
20.70082	-0.006184132	-0.06814837	0	0	-12.32263	-56.96846
20.71738	-0.006184132	-0.06814837	0	0	0	0
20.73395	0.003842086	0.01134153	0.6051837	4.79802	18.26448	144.8045
20.75052	0.003842086	0.01134153	0	0	-18.26448	-144.8045
20.76715	0.003842086	0.01134153	0	0	0	0
20.7837	0.001815788	0.0780249	-0.122491	4.031049	-3.691684	121.4895
20.80022	0.001815788	0.0780249	0	0	3.704889	-121.924
20.81678	0.001815788	0.0780249	0	0	0	0
20.83335	-0.001763156	0.1100568	-0.2160752	1.933894	-6.521914	58.37175
20.84991	-0.001763156	0.1100568	0	0	6.521914	-58.37175
20.86648	-0.001763156	0.1100568	0	0	0	0
20.88327	0.006052558	0.1176466	0.4654345	0.4519812	13.95207	13.54879
20.89977	0.006052558	0.1176466	0	0	-13.98005	-13.57596
20.91619	0.006052558	0.1176466	0	0	0	0
20.93275	0.006052558	0.1176466	0	0	0	0
20.94932	0.006052558	0.1176466	0	0	0	0
20.96588	0.006052558	0.1176466	0	0	0	0
20.98245	0.006052558	0.1176466	0	0	0	0
20.99902	0.006052558	0.1176466	0	0	0	0
21.01588	0.006052558	0.1176466	0	0	0	0
21.03215	0.006052558	0.1176466	0	0	0	0
21.04872	0.006052558	0.1176466	0	0	0	0
21.06528	0.006052558	0.1176466	0	0	0	0
21.08185	0.006078872	0.1176283	0.00158853	-0.001103285	0.0479447	-0.03329913
21.09842	0.006078872	0.1176283	0	0	-0.0479447	0.03329913
21.11498	0.006078872	0.1176283	0	0	0	0
21.13155	0.006078872	0.1176283	0	0	0	0
21.14812	0.006078872	0.1176283	0	0	0	0
21.16468	0.006078872	0.1176283	0	0	0	0
21.18139	0.006078872	0.1176283	0	0	0	0
21.19782	0.006078872	0.1176283	0	0	0	0
21.21439	0.006078872	0.1176283	0	0	0	0
21.23095	0.006078872	0.1176283	0	0	0	0
21.24792	0.006078872	0.1176283	0	0	0	0
21.26431	0.006078872	0.1176283	0	0	0	0
21.28197	0.006078872	0.1175918	0	-0.002068238	0	-0.06072761
21.29854	0.006078872	0.1175918	0	0	0	0.06040623
21.31511	0.006078872	0.1175918	0	0	0	0
21.33167	0.006105187	0.1175735	0.001588741	-0.001103412	0.04795383	-0.03330488
21.34865	0.006105187	0.1175735	0	0	-0.04736484	0.03289581
21.365	0.006105187	0.1175735	0	0	0	0
21.38137	0.006184132	0.1175187	0.004820036	-0.003347629	0.1473091	-0.1023096
21.39794	0.006184132	0.1175187	0	0	-0.1462943	0.1016048
21.41469	0.006184132	0.1175187	0	0	0	0
21.43108	0.006289391	0.117409	0.006422956	-0.006690908	0.1938563	-0.2019436
21.448	0.006289391	0.117409	0	0	-0.1927909	0.2008337
21.46505	0.006289391	0.117409	0	0	0	0
21.48077	0.006368335	0.1173176	0.005019331	-0.005809635	0.1531677	-0.1772843
21.49734	0.006368335	0.1173176	0	0	-0.155411	0.1798808
21.51391	0.006368335	0.1173176	0	0	0	0
21.53047	0.00639465	0.1172994	0.001588559	-0.001103285	0.04794831	-0.03330104
21.54716	0.00639465	0.1172994	0	0	-0.04778052	0.03318451
21.56417	0.00639465	0.1172994	0	0	0	0
21.58024	0.00639465	0.1172994	0	0	0	0
21.59674	0.00639465	0.1172994	0	0	0	0
21.61331	0.00639465	0.1172994	0	0	0	0
21.62988	0.00639465	0.1172994	0	0	0	0
21.64644	0.00639465	0.1172994	0	0	0	0
21.66301	0.00639465	0.1172994	0	0	0	0
21.67989	0.00639465	0.1172994	0	0	0	0
21.69614	0.00639465	0.1172994	0	0	0	0
21.71271	0.00639465	0.1172994	0	0	0	0
21.72927	0.00639465	0.1171897	0	-0.006620473	0	-0.1998293
21.74584	0.00639465	0.1171897	0	0	0	0.1998178
21.76241	0.00639465	0.1171897	0	0	0	0
21.77897	0.006631482	0.116221	0.0142985	-0.05848624	0.4315794	-1.765321
21.79554	0.006631482	0.116221	0	0	-0.4315546	1.76522
21.81217	0.006631482	0.116221	0	0	0	0
21.82868	0.007578802	0.09867691	0.05739181	-1.062878	1.732088	-32.07771
21.84525	0.007578802	0.09867691	0	0	-1.735285	32.13691
21.86181	0.007578802	0.09867691	0	0	0	0
21.87887	0.01565661	0.03979837	0.4735659	-3.451784	14.08389	-102.6564
21.89522	0.01565661	0.03979837	0	0	-14.17475	103.3186
21.91177	0.01565661	0.03979837	0	0	0	0
21.92808	0.02599414	-0.02627835	0.6338256	-4.051366	19.29102	-123.3068
21.94465	0.02599414	-0.02627835	0	0	-19.27759	123.2209
21.96121	0.02599414	-0.02627835	0	0	0	0
21.97778	0.03006988	-0.09464578	0.2460686	-4.127617	7.427647	-124.5932
21.99434	0.03006988	-0.09464578	0	0	-7.426792	124.5789
22.01091	0.03006988	-0.09464578	0	0	0	0
22.02748	0.02641491	-0.1253617	-0.2206655	-1.854443	-6.660463	-55.97365
22.04404	0.02641491	-0.1253617	0	0	6.66008	55.97043
22.06061	0.02641491	-0.1253617	0	0	0	0
22.07718	0.02523149	-0.124516	-0.0714314	0.05104658	-2.155804	1.540589
22.09375	0.02523149	-0.124516	0	0	2.155804	-1.540589
22.11031	0.02523149	-0.124516	0	0	0	0
22.12688	0.02509999	-0.1250076	-0.007937072	-0.02967599	-0.2395413	-0.895623
22.14345	0.02509999	-0.1250076	0	0	0.2395413	0.895623
22.16002	0.02509999	-0.1250076	0	0	0	0
22.17658	0.02120735	-0.128708	-0.2350146	-0.2234039	-7.093573	-6.743118
22.19315	0.02120735	-0.128708	0	0	7.093164	6.74273
22.21033	0.02120735	-0.128708	0	0	0	0
22.22628	0.02115474	-0.1286292	-0.00329838	0.004939571	-0.09954531	0.1490765
22.24285	0.02115474	-0.1286292	0	0	0.1014372	-0.1519098
22.25941	0.02115474	-0.1286292	0	0	0	0
22.27598	0.02110213	-0.1285898	-0.003175458	0.002378108	-0.09584104	0.07177559
22.29255	0.02110213	-0.1285898	0	0	0.09583552	-0.07177146
22.30936	0.02110213	-0.1285898	0	0	0	0
22.32934	0.02115474	-0.1286292	0.002633129	-0.001971957	0.07157765	-0.05360468
22.34591	0.02115474	-0.1286292	0	0	-0.07204082	0.05395154
22.36247	0.02115474	-0.1286292	0	0	0	0
22.37904	0.02081278	-0.1289641	-0.02064523	-0.02021678	-0.6231461	-0.6102138
22.39561	0.02081278	-0.1289641	0	0	0.6231461	0.6102138
22.41243	0.02081278	-0.1289641	0	0	0	0
22.42874	0.005342055	-0.1404165	-0.9488906	-0.7024313	-28.63923	-21.20064
22.44531	0.005342055	-0.1404165	0	0	28.86521	21.36793
22.46199	0.005342055	-0.1404165	0	0	0	0
22.47844	-0.0003157895	-0.1444773	-0.3439634	-0.2468746	-10.38203	-7.451549
22.82321	-0.0003157895	-0.1444773	0	0	0.9522183	0.6834406
22.84977	-0.0003157895	-0.1444773	0	0	0	0
22.87011	-0.00294736	-0.1415449	-0.1294036	0.1441971	-2.759262	3.074704
22.88668	-0.00294736	-0.1415449	0	0	3.506007	-3.906817
22.90459	-0.002973675	-0.1414855	-0.001469329	0.003317192	-0.04261029	0.09619803
22.92117	-0.002973675	-0.1414855	0	0	0.04261029	-0.09619803
22.93773	-0.002973675	-0.1414855	0	0	0	0
22.95951	-0.002973675	-0.1414855	0	0	0	0
22.97608	-0.002973675	-0.1414855	0	0	0	0
22.99264	-0.00294736	-0.1414657	0.001588418	0.00119535	0.0479413	0.03607782
23.00938	-0.00294736	-0.1414657	0	0	-0.04769693	-0.03589392
23.02578	-0.00294736	-0.1414657	0	0	0	0
23.04234	-0.002973675	-0.1413667	-0.001588601	0.00597654	-0.04819096	0.1813012
23.05891	-0.002973675	-0.1413667	0	0	0.04794683	-0.1803827
23.07548	-0.002973675	-0.1413667	0	0	0	0
23.09204	-0.002973675	-0.1413667	0	0	0	0
23.10861	-0.002973675	-0.1413667	0	0	0	0
23.12518	-0.002973675	-0.1413667	0	0	0	0
23.14175	-0.002973675	-0.1413667	0	0	0	0
23.15845	-0.002973675	-0.1413667	0	0	0	0
23.17488	-0.002973675	-0.1413667	0	0	0	0
23.19145	-0.002973675	-0.1413667	0	0	0	0
23.20802	-0.002973675	-0.1413667	0	0	0	0
23.22458	-0.002973675	-0.1413667	0	0	0	0
23.24115	-0.00294736	-0.1413865	0.001588418	-0.00119535	0.0479413	-0.03607782
23.25772	-0.00294736	-0.1413865	0	0	-0.04793854	0.03607574
23.27428	-0.00294736	-0.1413865	0	0	0	0
23.29095	-0.00294736	-0.1413865	0	0	0	0
23.30742	-0.00294736	-0.1413865	0	0	0	0
23.32398	-0.00294736	-0.1413865	0	0	0	0
23.34055	-0.00294736	-0.1413865	0	0	0	0
23.35712	-0.00294736	-0.1413865	0	0	0	0
23.37368	-0.00294736	-0.1413865	0	0	0	0
23.39025	-0.00294736	-0.1413865	0	0	0	0
23.40682	-0.00294736	-0.1413865	0	0	0	0
23.42351	-0.00294736	-0.1413865	0	0	0	0
23.44003	-0.00294736	-0.1413865	0	0	0	0
23.45652	-0.00294736	-0.1413865	0	0	0	0
23.47309	-0.00294736	-0.1413865	0	0	0	0
23.48965	-0.00294736	-0.1413865	0	0	0	0
23.50622	-0.00294736	-0.1413865	0	0	0	0
23.52316	-0.00294736	-0.1413865	0	0	0	0
23.53936	-0.00294736	-0.1413865	0	0	0	0
23.55592	-0.00294736	-0.1413865	0	0	0	0
23.57248	-0.00294736	-0.1413865	0	0	0	0
23.58905	-0.002921044	-0.1414063	0.00158877	-0.001195626	0.04795468	-0.03608821
23.60562	-0.002921044	-0.1414063	0	0	-0.04795192	0.03608613
23.62254	-0.002921044	-0.1414063	0	0	0	0
23.63875	-0.00294736	-0.1413865	-0.001623926	0.001222082	-0.04901583	0.03688677
23.65532	-0.00294736	-0.1413865	0	0	0.04954926	-0.0372882
23.67188	-0.00294736	-0.1413865	0	0	0	0
23.68845	-0.00294736	-0.1413865	0	0	0	0
23.70502	-0.00294736	-0.1413865	0	0	0	0
23.72158	-0.00294736	-0.1413865	0	0	0	0
23.73815	-0.002921044	-0.1414063	0.001588404	-0.00119535	0.04793812	-0.03607574
23.75472	-0.002921044	-0.1414063	0	0	-0.0479326	0.03607159
23.7714	-0.002921044	-0.1414063	0	0	0	0
23.78785	-0.002921044	-0.1414063	0	0	0	0
23.80442	-0.002921044	-0.1414063	0	0	0	0
23.82143	-0.002921044	-0.1414063	0	0	0	0
23.83755	-0.002894729	-0.1414261	0.001632008	-0.001228154	0.04926261	-0.03707216
23.85412	-0.002894729	-0.1414261	0	0	-0.04991205	0.03756089
23.87077	-0.002894729	-0.1414261	0	0	0	0
23.88725	-0.002894729	-0.1414261	0	0	0	0
23.90382	-0.002894729	-0.1414261	0	0	0	0
23.92039	-0.002894729	-0.1414261	0	0	0	0
23.93695	-0.002894729	-0.1414261	0	0	0	0
23.95352	-0.002894729	-0.1414261	0	0	0	0
23.97035	-0.002894729	-0.1414261	0	0	0	0
23.99031	-0.002894729	-0.1414261	0	0	0	0
24.00688	-0.002894729	-0.1414261	0	0	0	0
24.02391	-0.002894729	-0.1414261	0	0	0	0
24.04001	-0.002894729	-0.1414261	0	0	0	0
24.05658	-0.002894729	-0.1414261	0	0	0	0
24.07315	-0.002894729	-0.1414261	0	0	0	0
24.08972	-0.002894729	-0.1414261	0	0	0	0
24.10628	-0.002894729	-0.1414261	0	0	0	0
24.12286	-0.002894729	-0.1414261	0	0	0	0
24.13941	-0.002894729	-0.1414261	0	0	0	0
24.15598	-0.002894729	-0.1414261	0	0	0	0
24.17255	-0.002894729	-0.1414261	0	0	0	0
24.18914	-0.00294736	-0.1413469	-0.003171709	0.004772809	-0.0956453	0.1439277
24.20568	-0.00294736	-0.1413469	0	0	0.09572238	-0.1440437
24.22225	-0.00294736	-0.1413469	0	0	0	0
24.23886	-0.002999991	-0.1412281	-0.003167341	0.007149801	-0.09545866	0.2154837
24.25538	-0.002999991	-0.1412281	0	0	0.09559053	-0.2157814
24.27195	-0.002999991	-0.1412281	0	0	0	0
24.28852	-0.002999991	-0.1411093	0	0.007169403	0	0.216373
24.30508	-0.002999991	-0.1411093	0	0	0	-0.216373
24.322	-0.002999991	-0.1411093	0	0	0	0
24.33821	-0.003131569	-0.1405748	-0.008113928	0.03296008	-0.244907	0.9948516
24.35478	-0.003131569	-0.1405748	0	0	0.2475003	-1.005386
24.37155	-0.003131569	-0.1405748	0	0	0	0
24.39201	-0.02189124	-0.1261093	-0.9166329	0.7068143	-24.61986	18.98434
24.40858	-0.02189124	-0.1261093	0	0	24.75046	-19.08504
24.42515	-0.03198908	-0.1185649	-0.6095772	0.4554332	-18.39708	13.745
24.44172	-0.03198908	-0.1185649	0	0	18.39813	-13.74579
24.45828	-0.03198908	-0.1185649	0	0	0	0
24.47486	-0.03177877	-0.1187218	0.01268419	-0.009465231	0.3826334	-0.2855297
24.49142	-0.03177877	-0.1187218	0	0	-0.3828317	0.2856777
24.50837	-0.03177877	-0.1187218	0	0	0	0
24.52455	-0.03162104	-0.1188395	0.009748817	-0.00727558	0.2942199	-0.2195774
24.54112	-0.03162104	-0.1188395	0	0	-0.2976986	0.2221737
24.55769	-0.03162104	-0.1188395	0	0	0	0
24.57434	-0.03162104	-0.1188395	0	0	0	0
24.59082	-0.03162104	-0.1188395	0	0	0	0
24.60739	-0.03162104	-0.1188395	0	0	0	0
24.62638	-0.03154217	-0.1188984	0.004151151	-0.00309802	0.1167157	-0.08710542
24.64296	-0.03154217	-0.1188984	0	0	-0.1167032	0.08709607
24.65952	-0.03154217	-0.1188984	0	0	0	0
24.67609	-0.03133185	-0.1190946	0.01269779	-0.0118456	0.3832641	-0.3575421
24.69266	-0.03133185	-0.1190946	0	0	-0.38322	0.3575009
24.70922	-0.03133185	-0.1190946	0	0	0	0
24.72579	-0.03125298	-0.1191535	0.004760489	-0.003553221	0.1436719	-0.1072364
24.74236	-0.03125298	-0.1191535	0	0	-0.1436884	0.1072488
24.75892	-0.03125298	-0.1191535	0	0	0	0
24.77549	-0.0312004	-0.1191927	0.003173884	-0.002368664	0.0957825	-0.07148232
24.79206	-0.0312004	-0.1191927	0	0	-0.09578802	0.07148644
24.80863	-0.0312004	-0.1191927	0	0	0	0
24.82519	-0.03101637	-0.1193693	0.01110815	-0.01066011	0.3352445	-0.3217229
24.84186	-0.03101637	-0.1193693	0	0	-0.3342632	0.3207811
24.85898	-0.03101637	-0.1193693	0	0	0	0
24.87489	-0.03099008	-0.119389	0.001652383	-0.001233405	0.05002163	-0.03733814
24.89146	-0.03099008	-0.119389	0	0	-0.05087349	0.037974
24.90803	-0.03099008	-0.119389	0	0	0	0
24.92459	-0.0309112	-0.1194478	0.00476181	-0.00355404	0.1437283	-0.1072735
24.94116	-0.0309112	-0.1194478	0	0	-0.14372	0.1072673
24.95798	-0.0309112	-0.1194478	0	0	0	0
24.97429	-0.03088491	-0.1194674	0.001611619	-0.001202977	0.04864157	-0.03630801
24.99086	-0.03088491	-0.1194674	0	0	-0.04901402	0.03658602
25.00777	-0.03088491	-0.1194674	0	0	0	0
25.02399	-0.03085862	-0.1194478	0.001621172	0.001210193	0.0489327	0.03652791
25.04056	-0.03085862	-0.1194478	0	0	-0.04944796	-0.03691255
25.05722	-0.03085862	-0.1194478	0	0	0	0
25.07379	-0.03085862	-0.1194478	0	0	0	0
25.09026	-0.03085862	-0.1194478	0	0	0	0
25.10683	-0.03085862	-0.1194478	0	0	0	0
25.12339	-0.03085862	-0.1194478	0	0	0	0
25.13996	-0.03085862	-0.1194478	0	0	0	0
25.15653	-0.03085862	-0.1194478	0	0	0	0
25.17309	-0.03070088	-0.1195656	0.009522637	-0.007108161	0.2874103	-0.2145371
25.18966	-0.03070088	-0.1195656	0	0	-0.2873938	0.2145247
25.20623	-0.03070088	-0.1195656	0	0	0	0
25.2228	-0.030622	-0.1196244	0.004760826	-0.003553671	0.1436903	-0.1072562
25.23936	-0.030622	-0.1196244	0	0	-0.143682	0.10725
25.25593	-0.030622	-0.1196244	0	0	0	0
25.2729	-0.030622	-0.1196244	0	0	0	0
25.28906	-0.030622	-0.1196244	0	0	0	0
25.30563	-0.030622	-0.1196244	0	0	0	0
25.3222	-0.030622	-0.1196244	0	0	0	0
25.33876	-0.030622	-0.1196244	0	0	0	0
25.35533	-0.030622	-0.1196244	0	0	0	0
25.37196	-0.030622	-0.1195852	0	0.002359877	0	0.0710821
25.38846	-0.030622	-0.1195852	0	0	0	-0.07122532
25.40503	-0.030622	-0.1195852	0	0	0	0
25.42188	-0.03059571	-0.1195263	0.001560885	0.003495322	0.04671767	0.1046158
25.43816	-0.03059571	-0.1195263	0	0	-0.04711033	-0.1054951
25.45488	-0.03059571	-0.1195263	0	0	0	0
25.4713	-0.03056942	-0.1195067	0.001601322	0.001195291	0.04833078	0.03607602
25.48787	-0.03056942	-0.1195067	0	0	-0.04854316	-0.03623455
25.50443	-0.03056942	-0.1195067	0	0	0	0
25.521	-0.03043796	-0.1194478	0.007936538	0.003554489	0.2395528	0.1072871
25.53756	-0.03043796	-0.1194478	0	0	-0.2395528	-0.1072871
25.55413	-0.03043796	-0.1194478	0	0	0	0
25.5707	-0.03038538	-0.1194478	0.003174615	0	0.0958156	0
25.58727	-0.03038538	-0.1194478	0	0	-0.09580456	0
25.60384	-0.03038538	-0.1194478	0	0	0	0
25.6204	-0.03041167	-0.1194674	-0.001587673	-0.001185103	-0.04792711	-0.03577471
25.63697	-0.03041167	-0.1194674	0	0	0.04791883	0.03576853
25.65353	-0.03041167	-0.1194674	0	0	0	0
25.6701	-0.03041167	-0.1194674	0	0	0	0
25.68667	-0.03041167	-0.1194674	0	0	0	0
25.70327	-0.03041167	-0.1194674	0	0	0	0
25.71985	-0.03038538	-0.1194478	0.001586394	0.001184148	0.04781692	0.03569246
25.73637	-0.03038538	-0.1194478	0	0	-0.04793542	-0.03578091
25.75294	-0.03038538	-0.1194478	0	0	0	0
25.7695	-0.03038538	-0.1194478	0	0	0	0
25.78607	-0.03038538	-0.1194478	0	0	0	0
25.80264	-0.03038538	-0.1194478	0	0	0	0
25.81924	-0.03035909	-0.1194282	0.001582933	0.001181564	0.04770984	0.03561253
25.83598	-0.03035909	-0.1194282	0	0	-0.04747513	-0.03543733
25.85234	-0.03035909	-0.1194282	0	0	0	0
25.8689	-0.0303328	-0.1194086	0.001587786	0.001185103	0.04823321	0.03600065
25.88546	-0.0303328	-0.1194086	0	0	-0.04793051	-0.03577471
25.90274	-0.0303328	-0.1194086	0	0	0	0
25.9186	-0.03022763	-0.1193301	0.006630994	0.004949169	0.2001353	0.1493748
25.93537	-0.03022763	-0.1193301	0	0	-0.2031764	-0.1516446
25.95185	-0.03022763	-0.1193301	0	0	0	0
25.96841	-0.03014876	-0.1192712	0.004761487	0.003553631	0.1441251	0.1075646
25.98499	-0.03014876	-0.1192712	0	0	-0.1436358	-0.1071994
26.00143	-0.03014876	-0.1192712	0	0	0	0
26.018	-0.03004359	-0.119232	0.006347993	0.002369114	0.1923468	0.07178513
26.03456	-0.03004359	-0.119232	0	0	-0.1915828	-0.07150001
26.05113	-0.03004359	-0.119232	0	0	0	0
26.06817	-0.03004359	-0.119232	0	0	0	0
26.08426	-0.03004359	-0.119232	0	0	0	0
26.10101	-0.03004359	-0.119232	0	0	0	0
26.11758	-0.03004359	-0.119232	0	0	0	0
26.13396	-0.03004359	-0.119232	0	0	0	0
26.15053	-0.03004359	-0.119232	0	0	0	0
26.1671	-0.03004359	-0.119232	0	0	0	0
26.18366	-0.03004359	-0.119232	0	0	0	0
26.20023	-0.03004359	-0.119232	0	0	0	0
26.2168	-0.03004359	-0.119232	0	0	0	0
26.23337	-0.03004359	-0.119232	0	0	0	0
26.24993	-0.03004359	-0.119232	0	0	0	0
26.2669	-0.03004359	-0.119232	0	0	0	0
26.28355	-0.03004359	-0.119232	0	0	0	0
26.29993	-0.03004359	-0.119232	0	0	0	0
26.31625	-0.03004359	-0.119232	0	0	0	0
26.33277	-0.03004359	-0.119232	0	0	0	0
26.34939	-0.03004359	-0.119232	0	0	0	0
26.36595	-0.0300173	-0.1192516	0.001587673	-0.001185103	0.04784447	-0.03571302
26.38247	-0.0300173	-0.1192516	0	0	-0.04799896	0.03582835
26.3993	-0.0300173	-0.1192516	0	0	0	0
26.4156	-0.0300173	-0.1192516	0	0	0	0
26.43217	-0.0300173	-0.1192516	0	0	0	0
26.44917	-0.0300173	-0.1192516	0	0	0	0
26.4653	-0.0300173	-0.1192516	0	0	0	0
26.48187	-0.0300173	-0.1192516	0	0	0	0
26.49844	-0.0300173	-0.1192516	0	0	0	0
26.515	-0.0300173	-0.1192516	0	0	0	0
26.53157	-0.0300173	-0.1192516	0	0	0	0
26.54814	-0.0300173	-0.1192516	0	0	0	0
26.5647	-0.0300173	-0.1192516	0	0	0	0
26.58152	-0.0300173	-0.1192516	0	0	0	0
26.59784	-0.0300173	-0.1192516	0	0	0	0
26.61872	-0.0300173	-0.1192516	0	0	0	0
26.63529	-0.0300173	-0.1192516	0	0	0	0
26.65186	-0.0300173	-0.1192516	0	0	0	0
26.66857	-0.0300173	-0.1192516	0	0	0	0
26.68499	-0.0300173	-0.1192516	0	0	0	0
26.70242	-0.029991	-0.1192712	0.001508883	-0.001126211	0.04457343	-0.03326904
26.71812	-0.029991	-0.1192712	0	0	-0.04554605	0.03399498
26.73469	-0.029991	-0.1192712	0	0	0	0
26.75126	-0.0300173	-0.1192516	-0.001587055	0.001184557	-0.04789465	0.03574795
26.76782	-0.0300173	-0.1192516	0	0	0.04790292	-0.03575412
26.78439	-0.0300173	-0.1192516	0	0	0	0
26.80096	-0.0300173	-0.1192516	0	0	0	0
26.8176	-0.0300173	-0.1192516	0	0	0	0
26.8346	-0.0300173	-0.1192516	0	0	0	0
26.85065	-0.0300173	-0.1192516	0	0	0	0
26.86725	-0.0300173	-0.1192516	0	0	0	0
26.88379	-0.0300173	-0.1192516	0	0	0	0
26.90035	-0.0300173	-0.1192908	0	-0.00236966	0	-0.07157828
26.91692	-0.0300173	-0.1192908	0	0	0	0.07152059
26.93349	-0.0300173	-0.1192908	0	0	0	0
26.95043	-0.0300173	-0.1192908	0	0	0	0
26.967	-0.0300173	-0.1192908	0	0	0	0
26.98356	-0.0300173	-0.1192908	0	0	0	0
27.00013	-0.0300173	-0.1192908	0	0	0	0
27.0167	-0.0300173	-0.1192908	0	0	0	0
27.03327	-0.0300173	-0.1192908	0	0	0	0
27.04983	-0.0300173	-0.1192908	0	0	0	0
27.0664	-0.0300173	-0.1192908	0	0	0	0
27.08302	-0.0300173	-0.1192908	0	0	0	0
27.09953	-0.029991	-0.1193105	0.001592187	-0.001187937	0.04804954	-0.03584994
27.1161	-0.029991	-0.1193105	0	0	-0.04812988	0.03590988
27.13267	-0.029991	-0.1193105	0	0	0	0
27.14946	-0.029991	-0.1193105	0	0	0	0
27.1658	-0.029991	-0.1193105	0	0	0	0
27.18288	-0.029991	-0.1193105	0	0	0	0
27.19893	-0.0300173	-0.1193301	-0.001638359	-0.00122285	-0.04945148	-0.03690995
27.2155	-0.0300173	-0.1193301	0	0	0.05022935	0.03749054
27.23231	-0.0300173	-0.1193301	0	0	0	0
27.24863	-0.029991	-0.1193105	0.001611357	0.001202696	0.04863924	0.0363037
27.2652	-0.029991	-0.1193105	0	0	-0.04900035	-0.03657322
27.28189	-0.029991	-0.1193105	0	0	0	0
27.29833	-0.0300173	-0.1193301	-0.001599392	-0.001193765	-0.04826973	-0.0360279
27.3149	-0.0300173	-0.1193301	0	0	0.04845382	0.0361653
27.33147	-0.0300173	-0.1193301	0	0	0	0
27.34857	-0.03009617	-0.119389	-0.004612259	-0.003442693	-0.1369903	-0.1022526
27.3646	-0.03009617	-0.119389	0	0	0.1392063	0.1039067
27.38117	-0.03009617	-0.119389	0	0	0	0
27.39773	-0.0303328	-0.1197226	-0.01428599	-0.02014211	-0.4312018	-0.60796
27.41468	-0.0303328	-0.1197226	0	0	0.4262691	0.6010054
27.43142	-0.0303328	-0.1197226	0	0	0	0
27.44743	-0.02941257	-0.1210772	0.05745693	-0.0845768	1.754454	-2.582563
27.46433	-0.02941257	-0.1210772	0	0	-1.745407	2.569245
27.48057	-0.02941257	-0.1210772	0	0	0	0
27.49713	-0.03017505	-0.1244767	-0.04603406	-0.2052419	-1.403612	-6.257973
27.5137	-0.03017505	-0.1244767	0	0	1.389391	6.194568
27.53077	-0.03017505	-0.1244767	0	0	0	0
27.54683	-0.06587821	-0.1510488	-2.223128	-1.654565	-67.10574	-49.94349
27.5634	-0.06587821	-0.1510488	0	0	68.13348	50.70839
27.58026	-0.06587821	-0.1510488	0	0	0	0
27.59653	-0.1012057	-0.1774009	-2.171368	-1.619711	-65.53955	-48.8886
27.61351	-0.1012057	-0.1774009	0	0	65.29521	48.70633
27.62967	-0.1012057	-0.1774009	0	0	0	0
27.64623	-0.1085974	-0.1821117	-0.4461643	-0.2843414	-13.63639	-8.690495
27.6628	-0.1085974	-0.1821117	0	0	13.46526	8.581439
27.6796	-0.1085974	-0.1821117	0	0	0	0
27.69593	-0.1090395	-0.1817691	-0.02707725	0.0209824	-0.8172871	0.6333231
27.71305	-0.1090395	-0.1817691	0	0	0.8096428	-0.6273994
27.72907	-0.1090395	-0.1817691	0	0	0	0
27.74563	-0.1116132	-0.1797752	-0.1553836	0.1203803	-4.768822	3.694548
27.7622	-0.1116132	-0.1797752	0	0	4.689758	-3.633295
27.77877	-0.1116132	-0.1797752	0	0	0	0
27.79533	-0.1116651	-0.1798155	-0.003137955	-0.002430836	-0.09471457	-0.07337121
27.8119	-0.1116651	-0.1798155	0	0	0.09470911	0.07336698
27.82847	-0.1116651	-0.1798155	0	0	0	0
27.84542	-0.1161849	-0.1832809	-0.2666434	-0.2044401	-7.95527	-6.099442
27.8616	-0.1161849	-0.1832809	0	0	8.047778	6.17037
27.87877	-0.1161849	-0.1832809	0	0	0	0
27.89473	-0.1420886	-0.2025813	-1.623164	-1.209391	-48.99282	-36.5037
27.91189	-0.1420886	-0.2025813	0	0	49.00693	36.51421
27.92786	-0.1420886	-0.2025813	0	0	0	0
27.94778	-0.1754152	-0.1970754	-1.673634	0.2764989	-46.63899	7.705169
27.96435	-0.1754152	-0.1970754	0	0	45.87338	-7.578683
27.98138	-0.1754152	-0.1970754	0	0	0	0
27.99748	-0.1944333	-0.1819505	-1.181392	0.9395531	-35.65652	28.3574
28.01405	-0.1944333	-0.1819505	0	0	36.16661	-28.76307
28.03071	-0.1944333	-0.1819505	0	0	0	0
28.04747	-0.203991	-0.1743463	-0.5700796	0.4535596	-17.05483	13.56895
28.06375	-0.203991	-0.1743463	0	0	17.2547	-13.72797
28.08035	-0.203991	-0.1743463	0	0	0	0
28.09688	-0.2042938	-0.1741053	-0.0183175	0.01457756	-0.5528552	0.4399771
28.11355	-0.2042938	-0.1741053	0	0	0.5517435	-0.4390924
28.13001	-0.2042938	-0.1741053	0	0	0	0
28.14658	-0.2043443	-0.1741053	-0.003046542	0	-0.09224217	0
28.16315	-0.2043443	-0.1741053	0	0	0.09195541	0
28.21335	-0.2043443	-0.1741053	0	0	0	0
28.23114	-0.2119019	-0.1802181	-0.4246927	-0.3435038	-6.245758	-5.051752
28.24854	-0.2119019	-0.1802181	0	0	12.06836	9.761243
28.26428	-0.2119019	-0.1802181	0	0	0	0
28.28084	-0.2173283	-0.184612	-0.3276122	-0.2652768	-10.1413	-8.211695
28.29741	-0.2173283	-0.184612	0	0	9.887356	8.006071
28.31398	-0.2173283	-0.184612	0	0	0	0
28.33313	-0.2173032	-0.1846322	0.001309862	-0.001053179	0.03666941	-0.0294836
28.3497	-0.2173032	-0.1846322	0	0	-0.03666158	0.02947731
28.36627	-0.2173032	-0.1846322	0	0	0	0
28.38315	-0.2173032	-0.1846322	0	0	0	0
28.3994	-0.2173032	-0.1846322	0	0	0	0
28.41604	-0.2173032	-0.1846322	0	0	0	0
28.43256	-0.2173032	-0.1846322	0	0	0	0
28.4491	-0.2173032	-0.1846322	0	0	0	0
28.46567	-0.2173032	-0.1846322	0	0	0	0
28.48223	-0.2173032	-0.1846322	0	0	0	0
28.4988	-0.2173032	-0.1846322	0	0	0	0
28.51537	-0.2173032	-0.1846322	0	0	0	0
28.53218	-0.217253	-0.1846725	0.002985646	-0.002399686	0.08945303	-0.07189707
28.5485	-0.217253	-0.1846725	0	0	-0.09011736	0.07243102
28.56507	-0.217253	-0.1846725	0	0	0	0
28.58164	-0.2171275	-0.1847734	0.007572378	-0.006089379	0.2285348	-0.1837778
28.59829	-0.2171275	-0.1847734	0	0	-0.2279182	0.183282
28.61477	-0.2171275	-0.1847734	0	0	0	0
28.63705	-0.2171025	-0.184834	0.001126198	-0.002716519	0.02905483	-0.07008357
28.65362	-0.2171025	-0.184834	0	0	-0.02898637	0.06991842
28.67024	-0.2171025	-0.1848743	0	-0.002428961	0	-0.07319663
28.68675	-0.2171025	-0.1848743	0	0	0	0.07331463
28.70332	-0.2171025	-0.1848743	0	0	0	0
28.71989	-0.2171275	-0.1848945	-0.001514301	-0.001217556	-0.04569644	-0.03674168
28.73645	-0.2171275	-0.1848945	0	0	0.04570433	0.03674802
28.75313	-0.2171275	-0.1848945	0	0	0	0
28.76959	-0.2171526	-0.1850761	-0.001525009	-0.0110373	-0.04602486	-0.3331062
28.78618	-0.2171526	-0.1850761	0	0	0.04615238	0.3340292
28.80317	-0.2171526	-0.1850761	0	0	0	0
28.81929	-0.2183819	-0.1863478	-0.07626317	-0.07889321	-2.303085	-2.382511
28.83586	-0.2183819	-0.1863478	0	0	2.333189	2.413653
28.95309	-0.2183819	-0.1863478	0	0	0	0
28.97579	-0.2255435	-0.1931021	-0.3154947	-0.2975538	-2.254557	-2.126349
28.99236	-0.2255435	-0.1931021	0	0	8.033907	7.57705
29.00893	-0.2253435	-0.1932641	0.01207501	-0.009782718	0.3644245	-0.295243
29.0255	-0.2253435	-0.1932641	0	0	-0.3644455	0.29526
29.04214	-0.2253435	-0.1932641	0	0	0	0
29.05863	-0.2220407	-0.1958989	0.2002991	-0.1597889	6.045736	-4.822994
29.0752	-0.2220407	-0.1958989	0	0	-6.05934	4.833847
29.09176	-0.2220407	-0.1958989	0	0	0	0
29.10833	-0.2219656	-0.1957569	0.004536	0.00857	0.1369046	0.258658
29.1249	-0.2219656	-0.1957569	0	0	-0.1368968	-0.2586431
29.14146	-0.2219656	-0.1957569	0	0	0	0
29.15803	-0.2209637	-0.1947027	0.06047783	0.06364062	1.825435	1.920899
29.1746	-0.2209637	-0.1947027	0	0	-1.825225	-1.920678
29.19117	-0.2209637	-0.1947027	0	0	0	0
29.20802	-0.2061099	-0.1826357	0.8814604	0.7160804	26.3763	21.42756
29.2243	-0.2061099	-0.1826357	0	0	-26.60253	-21.61135
29.24087	-0.2061099	-0.1826357	0	0	0	0
29.2577	-0.1741137	-0.1575189	1.901306	1.492512	56.93253	44.69164
29.274	-0.1741137	-0.1575189	0	0	-57.38482	-45.04668
29.29057	-0.1741137	-0.1575189	0	0	0	0
29.30739	-0.1264532	-0.1210575	2.832764	2.167133	84.83374	64.89986
29.32382	-0.1264532	-0.1210575	0	0	-85.19384	-65.17535
29.34027	-0.1264532	-0.1210575	0	0	0	0
29.35692	-0.08722548	-0.09180959	2.355587	1.75631	71.1614	53.05745
29.3734	-0.08722548	-0.09180959	0	0	-71.09995	-53.01163
29.38997	-0.08722548	-0.09180959	0	0	0	0
29.4095	-0.07376067	-0.08190649	0.6894655	0.5070884	19.09957	14.04736
29.42606	-0.07376067	-0.08190649	0	0	-19.10058	-14.0481
29.44263	-0.07376067	-0.08190649	0	0	0	0
29.4592	-0.07373451	-0.08184846	0.001579773	0.00350366	0.04768039	0.1057467
29.47576	-0.07373451	-0.08184846	0	0	-0.04768314	-0.1057528
29.49233	-0.07373451	-0.08184846	0	0	0	0
29.50893	-0.07195451	-0.08049472	0.1072309	0.08155234	3.232885	2.458707
29.52556	-0.07195451	-0.08049472	0	0	-3.227503	-2.454614
29.54203	-0.07195451	-0.08049472	0	0	0	0
29.5586	-0.04612515	-0.06147705	1.559422	1.148173	47.19658	34.74995
29.57517	-0.04612515	-0.06147705	0	0	-47.06616	-34.65392
29.59173	-0.04612515	-0.06147705	0	0	0	0
29.6083	-0.02630972	-0.04703406	1.196338	0.8719813	36.1097	26.31948
29.62487	-0.02630972	-0.04703406	0	0	-36.10555	-26.31645
29.64144	-0.02630972	-0.04703406	0	0	0	0
29.658	-0.02262772	-0.04439835	0.222246	0.159092	6.707397	4.801406
29.67457	-0.02262772	-0.04439835	0	0	-6.707397	-4.801406
29.69114	-0.02262772	-0.04439835	0	0	0	0
29.7077	-0.0224699	-0.0445129	0.009527895	-0.006915781	0.2875855	-0.2087427
29.72427	-0.0224699	-0.0445129	0	0	-0.2875524	0.2087187
29.74085	-0.0224699	-0.0445129	0	0	0	0
29.7574	-0.01139424	-0.05256142	0.6691444	-0.4862579	20.19714	-14.67698
29.77397	-0.01139424	-0.05256142	0	0	-20.20296	14.68121
29.79054	-0.01139424	-0.05256142	0	0	0	0
29.8071	0.007368288	-0.06624343	1.132509	-0.8258471	34.18114	-24.92555
29.82371	0.007368288	-0.06624343	0	0	-34.13595	24.89259
29.84047	0.007368288	-0.06624343	0	0	0	0
29.8568	0.007236716	-0.06618572	-0.008055757	0.003533097	-0.2434596	0.1067766
29.87337	0.007236716	-0.06618572	0	0	0.2448427	-0.1073832
29.88994	0.007236716	-0.06618572	0	0	0	0
29.90651	0.007289344	-0.06622419	0.003176667	-0.002321894	0.095872	-0.07007489
29.92307	0.007289344	-0.06622419	0	0	-0.095872	0.07007489
29.93964	0.007289344	-0.06622419	0	0	0	0
29.9562	0.007289344	-0.06622419	0	0	0	0
29.97277	0.007289344	-0.06622419	0	0	0	0
29.98934	0.007289344	-0.06622419	0	0	0	0
30.00591	0.00726303	-0.06620496	-0.001588502	0.001160856	-0.04794386	0.03503671
30.02247	0.00726303	-0.06620496	0	0	0.04794386	-0.03503671
30.03904	0.00726303	-0.06620496	0	0	0	0
30.05587	0.007236716	-0.06618572	-0.001563684	0.001143142	-0.04682283	0.03423013
30.07217	0.007236716	-0.06618572	0	0	0.04719752	-0.03450405
30.08874	0.007236716	-0.06618572	0	0	0	0
30.1053	0.007184087	-0.06622419	-0.003177427	-0.002322428	-0.09590045	-0.07009506
30.12187	0.007184087	-0.06622419	0	0	0.09590045	0.07009506
30.13844	0.007184087	-0.06622419	0	0	0	0
30.15528	0.006947257	-0.06643578	-0.01406516	-0.01256655	-0.4210457	-0.3761843
30.17158	0.006947257	-0.06643578	0	0	0.4243897	0.3791719
30.18828	0.006947257	-0.06643578	0	0	0	0
30.20471	0.00673674	-0.06662816	-0.01281748	-0.01171285	-0.3869438	-0.3535964
30.22127	0.00673674	-0.06662816	0	0	0.3885097	0.3550273
30.23784	0.00673674	-0.06662816	0	0	0	0
30.25441	0.006473594	-0.06682055	-0.01588353	-0.01161262	-0.4793659	-0.3504695
30.27098	0.006473594	-0.06682055	0	0	0.4793659	0.3504695
30.28754	0.006473594	-0.06682055	0	0	0	0
30.3041	0.006184132	-0.06699371	-0.01747599	-0.0104543	-0.5275174	-0.3155659
30.32067	0.006184132	-0.06699371	0	0	0.5274567	0.3155296
30.33739	0.006184132	-0.06699371	0	0	0	0
30.3538	0.005078904	-0.06776343	-0.06733184	-0.0468927	-2.032313	-1.415388
30.37037	0.005078904	-0.06776343	0	0	2.041362	1.42169
30.38694	0.005078904	-0.06776343	0	0	0	0
30.40351	0.004289447	-0.06834087	-0.04765169	-0.03485404	-1.438214	-1.051958
30.42007	0.004289447	-0.06834087	0	0	1.438214	1.051958
30.43664	0.004289447	-0.06834087	0	0	0	0
30.45321	0.00210526	-0.06993905	-0.1318378	-0.09646674	-3.978873	-2.911372
30.46977	0.00210526	-0.06993905	0	0	3.978873	2.911372
30.48634	0.00210526	-0.06993905	0	0	0	0
30.50291	0.00210526	-0.06993905	0	0	0	0
30.51953	0.00210526	-0.06993905	0	0	0	0
30.53613	0.00210526	-0.06993905	0	0	0	0
30.5526	0.00210526	-0.06993905	0	0	0	0
30.56917	0.00210526	-0.06993905	0	0	0	0
30.58574	0.00210526	-0.06993905	0	0	0	0
30.60231	0.00210526	-0.06993905	0	0	0	0
30.61888	0.00210526	-0.06993905	0	0	0	0
30.63553	0.00210526	-0.06993905	0	0	0	0
30.65203	0.002131576	-0.06995831	0.001594476	-0.001166954	0.04809645	-0.03520052
30.66858	0.002131576	-0.06995831	0	0	-0.04824356	0.03530818
30.68516	0.002131576	-0.06995831	0	0	0	0
30.71019	0.002026313	-0.07007388	-0.004205761	-0.004617425	-0.1010647	-0.110957
30.72676	0.002026313	-0.07007388	0	0	0.1011018	0.1109977
30.75037	0.001105263	-0.07078665	-0.03901557	-0.03019304	-0.9710606	-0.7514762
30.76732	0.001105263	-0.07078665	0	0	0.9620182	0.7444785
30.7835	-0.00931552	-0.07842672	-0.6438241	-0.4720238	-19.43065	-14.24571
30.80007	-0.00931552	-0.07842672	0	0	19.65696	14.41162
30.81664	-0.00931552	-0.07842672	0	0	0	0
30.8332	-0.02578376	-0.09054787	-0.9942538	-0.7318029	-30.00837	-22.08713
30.84977	-0.02578376	-0.09054787	0	0	30.00837	22.08713
30.86634	-0.02578376	-0.09054787	0	0	0	0
30.88291	-0.03411834	-0.09694027	-0.5030761	-0.3858458	-15.18287	-11.64485
30.89951	-0.03411834	-0.09694027	0	0	15.16802	11.63347
30.91604	-0.03411834	-0.09694027	0	0	0	0
30.9326	-0.03406576	-0.09682356	0.003173941	0.007046454	0.09590013	0.2129075
30.94954	-0.03406576	-0.09682356	0	0	-0.09474799	-0.2103497
30.96574	-0.03406576	-0.09682356	0	0	0	0
30.9823	-0.03375034	-0.09655124	0.01904364	0.01644098	0.5812291	0.5017934
30.99887	-0.03375034	-0.09655124	0	0	-0.5747713	-0.4962182
31.01544	-0.03375034	-0.09655124	0	0	0	0
31.03201	-0.03367148	-0.09645399	0.004759815	0.005870168	0.1436515	0.177162
31.04857	-0.03367148	-0.09645399	0	0	-0.1436598	-0.1771722
31.06514	-0.03367148	-0.09645399	0	0	0	0
31.08171	-0.03367148	-0.09637619	0	0.004695955	0	0.1417242
31.0985	-0.03367148	-0.09637619	0	0	0	-0.1407841
31.11484	-0.03367148	-0.09637619	0	0	0	0
31.13141	-0.03361891	-0.09633729	0.00317321	0.002347977	0.09641702	0.07134259
31.14797	-0.03361891	-0.09633729	0	0	-0.09576766	-0.0708621
31.16454	-0.03361891	-0.09633729	0	0	0	0
31.1811	-0.03364519	-0.09631784	-0.001587153	0.001174169	-0.04790865	0.03544262
31.20362	-0.03364519	-0.09631784	0	0	0.04060931	-0.0300426
31.2202	-0.03364519	-0.09631784	0	0	0	0
31.2368	-0.03361891	-0.0962984	0.001583324	0.001171337	0.04772986	0.03531035
31.2534	-0.03361891	-0.0962984	0	0	-0.04769147	-0.03528195
31.26989	-0.03361891	-0.0962984	0	0	0	0
31.28646	-0.03356634	-0.0962595	0.00317321	0.002347977	0.09596653	0.07100925
31.30303	-0.03356634	-0.0962595	0	0	-0.09576766	-0.0708621
31.3196	-0.03356634	-0.0962595	0	0	0	0
31.33616	-0.03356634	-0.0962595	0	0	0	0
31.35273	-0.03356634	-0.0962595	0	0	0	0
31.36937	-0.03356634	-0.0962595	0	0	0	0
31.38957	-0.03354005	-0.09631784	0.001301284	-0.002888014	0.03532583	-0.07840061
31.40614	-0.03354005	-0.09631784	0	0	-0.03538629	0.0785348
31.4227	-0.03354005	-0.09631784	0	0	0	0
31.43927	-0.03354005	-0.09631784	0	0	0	0
31.45584	-0.03354005	-0.09631784	0	0	0	0
31.4724	-0.03354005	-0.09631784	0	0	0	0
31.48897	-0.03354005	-0.09631784	0	0	0	0
31.50554	-0.03354005	-0.09631784	0	0	0	0
31.52232	-0.03354005	-0.09631784	0	0	0	0
31.53867	-0.03354005	-0.09631784	0	0	0	0
31.55524	-0.03354005	-0.09631784	0	0	0	0
31.57265	-0.03354005	-0.09631784	0	0	0	0
31.58922	-0.03354005	-0.09631784	0	0	0	0
31.60579	-0.03354005	-0.09631784	0	0	0	0
31.62235	-0.03348748	-0.09635674	0.003173941	-0.002348518	0.09579523	-0.07088249
31.63892	-0.03348748	-0.09635674	0	0	-0.09580074	0.07088657
31.65549	-0.03348748	-0.09635674	0	0	0	0
31.67205	-0.03348748	-0.09635674	0	0	0	0
31.68862	-0.03348748	-0.09635674	0	0	0	0
31.70534	-0.03348748	-0.09635674	0	0	0	0
31.72175	-0.03348748	-0.09635674	0	0	0	0
31.73832	-0.03348748	-0.09635674	0	0	0	0
31.75489	-0.03348748	-0.09635674	0	0	0	0
31.77146	-0.03348748	-0.09635674	0	0	0	0
31.78802	-0.03348748	-0.09635674	0	0	0	0
31.80488	-0.03348748	-0.09635674	0	0	0	0
31.82115	-0.03340862	-0.09641509	0.004847661	-0.003586569	0.1463111	-0.1082491
31.83772	-0.03340862	-0.09641509	0	0	-0.147637	0.10923
31.85429	-0.03340862	-0.09641509	0	0	0	0
31.87085	-0.03340862	-0.09641509	0	0	0	0
31.88742	-0.03340862	-0.09641509	0	0	0	0
31.90399	-0.03340862	-0.09641509	0	0	0	0
31.92056	-0.03340862	-0.09641509	0	0	0	0
31.93712	-0.03340862	-0.09641509	0	0	0	0
31.95369	-0.03340862	-0.09641509	0	0	0	0
31.97025	-0.03340862	-0.09641509	0	0	0	0
31.98682	-0.03340862	-0.09641509	0	0	0	0
32.00339	-0.03340862	-0.09641509	0	0	0	0
32.01999	-0.03338233	-0.09643453	0.001584052	-0.001171875	0.04776828	-0.03533878
32.03656	-0.03338233	-0.09643453	0	0	-0.04776279	0.03533471
32.07123	-0.03338233	-0.09643453	0	0	0	0
32.0878	-0.02757196	-0.1007364	0.350634	-0.2596015	6.842088	-5.065727
32.10437	-0.02757196	-0.1007364	0	0	-10.58094	7.833887
32.12094	-0.02757196	-0.1007364	0	0	0	0
32.1375	-0.01999733	-0.1063531	0.4572052	-0.3390248	13.79848	-10.23179
32.15407	-0.01999733	-0.1063531	0	0	-13.79848	10.23179
32.17064	-0.01999733	-0.1063531	0	0	0	0
32.1872	-0.02004994	-0.1063141	-0.003176302	0.002357515	-0.09587203	0.07115813
32.20377	-0.02004994	-0.1063141	0	0	0.09587203	-0.07115813
32.22034	-0.02004994	-0.1063141	0	0	0	0
32.2369	-0.02004994	-0.1063141	0	0	0	0
32.25347	-0.02004994	-0.1063141	0	0	0	0
32.27004	-0.02004994	-0.1063141	0	0	0	0
32.2866	-0.02010255	-0.106236	-0.003176302	0.004715029	-0.09587203	0.1423163
32.30317	-0.02010255	-0.106236	0	0	0.09587203	-0.1423163
32.32025	-0.02010255	-0.106236	0	0	0	0
32.33635	-0.02012886	-0.1062164	-0.001633619	0.001212316	-0.04922905	0.03653311
32.35287	-0.02012886	-0.1062164	0	0	0.0500811	-0.03716542
32.36944	-0.02012886	-0.1062164	0	0	0	0
32.386	-0.02012886	-0.1062164	0	0	0	0
32.40257	-0.02012886	-0.1062164	0	0	0	0
32.41923	-0.02012886	-0.1062164	0	0	0	0
32.43571	-0.02015517	-0.106236	-0.001596295	-0.001184534	-0.04817075	-0.0357452
32.45227	-0.02015517	-0.106236	0	0	0.0483042	0.03584423
32.46883	-0.02015517	-0.106236	0	0	0	0
32.4854	-0.02012886	-0.1062164	0.001588207	0.001178532	0.04794875	0.03558047
32.50231	-0.02012886	-0.1062164	0	0	-0.04744604	-0.03520743
32.51854	-0.02012886	-0.1062164	0	0	0	0
32.53513	-0.02020778	-0.1061579	-0.004755747	0.003529544	-0.1448966	0.107537
32.55167	-0.02020778	-0.1061579	0	0	0.1435122	-0.1065096
32.56824	-0.02020778	-0.1061579	0	0	0	0
32.5848	-0.02020778	-0.1061579	0	0	0	0
32.60138	-0.02020778	-0.1061579	0	0	0	0
32.61833	-0.02020778	-0.1061579	0	0	0	0
32.63451	-0.02020778	-0.1061579	0	0	0	0
32.65108	-0.02020778	-0.1061579	0	0	0	0
32.66777	-0.02020778	-0.1061579	0	0	0	0
32.68451	-0.02020778	-0.1061579	0	0	0	0
32.70082	-0.02020778	-0.1061579	0	0	0	0
32.71734	-0.02020778	-0.1061579	0	0	0	0
32.74174	-0.02020778	-0.1061579	0	0	0	0
32.75904	-0.02020778	-0.1061579	0	0	0	0
32.77502	-0.02020778	-0.1061579	0	0	0	0
32.79144	-0.02020778	-0.1061579	0	0	0	0
32.80801	-0.02020778	-0.1061579	0	0	0	0
32.82457	-0.02026039	-0.1061188	-0.003175571	0.002356522	-0.09583892	0.07111998
32.84114	-0.02026039	-0.1061188	0	0	0.09583892	-0.07111998
32.85771	-0.02026039	-0.1061188	0	0	0	0
32.87428	-0.02028669	-0.1060993	-0.001587729	0.001178261	-0.04791776	0.03555999
32.89085	-0.02028669	-0.1060993	0	0	0.04791225	-0.0355559
32.90741	-0.02028669	-0.1060993	0	0	0	0
32.92418	-0.02028669	-0.1060993	0	0	0	0
32.94086	-0.02028669	-0.1060993	0	0	0	0
32.95712	-0.02028669	-0.1060993	0	0	0	0
32.97368	-0.02026039	-0.1061188	0.001587729	-0.001178261	0.04837444	-0.03589889
32.99025	-0.02026039	-0.1061188	0	0	-0.04791776	0.03555999
33.00682	-0.02026039	-0.1061188	0	0	0	0
33.02338	-0.02023408	-0.1061383	0.001588207	-0.001178532	0.04793771	-0.03557227
33.03995	-0.02023408	-0.1061383	0	0	-0.04793219	0.03556818
33.05652	-0.02023408	-0.1061383	0	0	0	0
33.07325	-0.02026039	-0.1061579	-0.001572274	-0.001166709	-0.04721759	-0.0350379
33.08965	-0.02026039	-0.1061579	0	0	0.04745134	0.03521136
33.10622	-0.02026039	-0.1061579	0	0	0	0
33.12295	-0.02023408	-0.1061774	0.001572274	-0.001167155	0.04721759	-0.03505128
33.13935	-0.02023408	-0.1061774	0	0	-0.04745134	0.0352248
33.15592	-0.02023408	-0.1061774	0	0	0	0
33.17249	-0.02026039	-0.1061579	-0.001588207	0.001178982	-0.04793771	0.03558585
33.18906	-0.02026039	-0.1061579	0	0	0.04793219	-0.03558175
33.20586	-0.02026039	-0.1061579	0	0	0	0
33.22219	-0.02026039	-0.1061579	0	0	0	0
33.23875	-0.02026039	-0.1061579	0	0	0	0
33.25532	-0.02026039	-0.1061579	0	0	0	0
33.27188	-0.02028669	-0.1061383	-0.001588095	0.001178532	-0.04793432	0.03557227
33.28846	-0.02028669	-0.1061383	0	0	0.0479288	-0.03556818
33.30502	-0.02028669	-0.1061383	0	0	0	0
33.32159	-0.02028669	-0.1061383	0	0	0	0
33.33815	-0.02028669	-0.1061383	0	0	0	0
33.35472	-0.02028669	-0.1061383	0	0	0	0
33.37136	-0.02028669	-0.1061383	0	0	0	0
33.38786	-0.02028669	-0.1061383	0	0	0	0
33.41505	-0.02028669	-0.1061383	0	0	0	0
33.43162	-0.02031299	-0.1061188	-0.001587364	0.00117799	-0.03626931	0.02691562
33.44819	-0.02031299	-0.1061188	0	0	0.04790122	-0.03554771
33.46525	-0.02031299	-0.1061188	0	0	0	0
33.48132	-0.02031299	-0.1061188	0	0	0	0
33.49803	-0.02031299	-0.1061188	0	0	0	0
33.51445	-0.02031299	-0.1061188	0	0	0	0
33.53104	-0.02031299	-0.1060798	0	0.002354354	0	0.07132552
33.54758	-0.02031299	-0.1060798	0	0	0	-0.07106271
33.56421	-0.02031299	-0.1060798	0	0	0	0
33.58072	-0.02031299	-0.1060798	0	0	0	0
33.59729	-0.02031299	-0.1060798	0	0	0	0
33.61385	-0.02031299	-0.1060798	0	0	0	0
33.63042	-0.0203393	-0.1060993	-0.001587842	-0.001178261	-0.04792115	-0.03555999
33.64711	-0.0203393	-0.1060993	0	0	0.04775074	0.03543353
33.66356	-0.0203393	-0.1060993	0	0	0	0
33.68012	-0.0203393	-0.1060993	0	0	0	0
34.13661	-0.0203393	-0.1060993	0	0	0	0
34.16253	-0.0203393	-0.1060993	0	0	0	0
34.18124	-0.01347287	-0.09485959	0.3670461	0.6008205	8.224543	13.46282
34.19782	-0.01347287	-0.09485959	0	0	-10.40205	-17.02719
34.21438	-0.01347287	-0.09485959	0	0	0	0
34.23094	0.009157639	-0.07819489	1.366295	1.006115	41.24911	30.37511
34.24751	0.009157639	-0.07819489	0	0	-41.23961	-30.36812
34.26408	0.009157639	-0.07819489	0	0	0	0
34.28064	0.02325896	-0.06789816	0.8511577	0.6215115	25.68799	18.75726
34.2973	0.02325896	-0.06789816	0	0	-25.61721	-18.70557
34.31378	0.02325896	-0.06789816	0	0	0	0
34.33034	0.02346937	-0.06782117	0.0127033	0.004648006	0.3844929	0.140682
34.34691	0.02346937	-0.06782117	0	0	-0.3834304	-0.1402932
34.36348	0.02346937	-0.06782117	0	0	0	0
34.38004	0.02344307	-0.06787891	-0.00158787	-0.003485667	-0.04792753	-0.1052097
34.39661	0.02344307	-0.06787891	0	0	0.04792753	0.1052097
34.41339	0.02344307	-0.06787891	0	0	0	0
34.4299	0.02346937	-0.06793665	0.001592638	-0.003496585	0.04782914	-0.1050073
34.44642	0.02346937	-0.06793665	0	0	-0.04822136	0.1058684
34.46328	0.02346937	-0.06793665	0	0	0	0
34.47944	0.02349568	-0.0679559	0.001626951	-0.001190402	0.04926597	-0.03604674
34.49601	0.02349568	-0.0679559	0	0	-0.04970231	0.036366
34.51316	0.02349568	-0.0679559	0	0	0	0
34.52925	0.02346937	-0.06793665	-0.001635053	0.00119633	-0.04918744	0.03598928
34.54571	0.02346937	-0.06793665	0	0	0.05023668	-0.03675699
34.56315	0.02346937	-0.06793665	0	0	0	0
34.57919	0.02346937	-0.06793665	0	0	0	0
34.59541	0.02346937	-0.06793665	0	0	0	0
34.61197	0.02346937	-0.06793665	0	0	0	0
34.62854	0.02349568	-0.0679559	0.001587982	-0.001161889	0.04793644	-0.03507395
34.64511	0.02349568	-0.0679559	0	0	-0.04792541	0.03506588
34.66195	0.02349568	-0.0679559	0	0	0	0
34.67843	0.02349568	-0.06807139	0	-0.007009815	0	-0.2103699
34.69481	0.02349568	-0.06807139	0	0	0	0.2133497
34.71138	0.02349568	-0.06807139	0	0	0	0
34.72794	0.02344307	-0.06810988	-0.003175852	-0.002323778	-0.09585845	-0.07013983
34.74451	0.02344307	-0.06810988	0	0	0.09585845	0.07013983
34.76107	0.02344307	-0.06810988	0	0	0	0
34.77764	0.02344307	-0.06814837	0	-0.002324228	0	-0.07015341
34.79421	0.02344307	-0.06814837	0	0	0	0.07014533
34.81078	0.02344307	-0.06814837	0	0	0	0
34.82734	0.02341677	-0.06812913	-0.001587617	0.001161621	-0.04791437	0.03505781
34.84391	0.02341677	-0.06812913	0	0	0.04791437	-0.03505781
34.86058	0.02341677	-0.06812913	0	0	0	0
34.87711	0.02341677	-0.06812913	0	0	0	0
34.89373	0.02341677	-0.06812913	0	0	0	0
34.91058	0.02341677	-0.06812913	0	0	0	0
34.92674	0.02341677	-0.06812913	0	0	0	0
34.94331	0.02341677	-0.06812913	0	0	0	0
34.95988	0.02341677	-0.06812913	0	0	0	0
34.97645	0.02339047	-0.06814837	-0.001587504	-0.001161621	-0.04791097	-0.03505781
34.99302	0.02339047	-0.06814837	0	0	0.04791097	0.03505781
35.00958	0.02339047	-0.06814837	0	0	0	0
35.02615	0.02336417	-0.06820612	-0.00158787	-0.003486566	-0.04792753	-0.1052369
35.04272	0.02336417	-0.06820612	0	0	0.04792201	0.1052248
35.05928	0.02336417	-0.06820612	0	0	0	0
35.07585	0.02333787	-0.06822537	-0.001587617	-0.001161621	-0.04791437	-0.03505781
35.09242	0.02333787	-0.06822537	0	0	0.04791437	0.03505781
35.10947	0.02333787	-0.06822537	0	0	0	0
35.12564	0.02333787	-0.06822537	0	0	0	0
35.14212	0.02333787	-0.06822537	0	0	0	0
35.15868	0.02333787	-0.06822537	0	0	0	0
35.17525	0.02333787	-0.06822537	0	0	0	0
35.19182	0.02333787	-0.06822537	0	0	0	0
35.20839	0.02333787	-0.06822537	0	0	0	0
35.22495	0.02328526	-0.06822537	-0.003175852	0	-0.09585845	0
35.24152	0.02328526	-0.06822537	0	0	0.09585845	0
35.25808	0.02328526	-0.06822537	0	0	0	0
35.27465	0.02331157	-0.06824462	0.001587617	-0.001162071	0.04791437	-0.03507138
35.29122	0.02331157	-0.06824462	0	0	-0.04791437	0.03507138
35.30779	0.02331157	-0.06824462	0	0	0	0
35.32435	0.02328526	-0.06822537	-0.001587617	0.001162071	-0.04791437	0.03507138
35.34092	0.02328526	-0.06822537	0	0	0.04791437	-0.03507138
35.35749	0.02328526	-0.06822537	0	0	0	0
35.37423	0.02325896	-0.06820612	-0.001570508	0.001149185	-0.04714294	0.03449581
35.39062	0.02325896	-0.06820612	0	0	0.04740349	-0.03468646
35.40761	0.02325896	-0.06820612	0	0	0	0
35.42375	0.02299595	-0.06801364	-0.01629608	0.01192602	-0.4918168	0.359928
35.44032	0.02299595	-0.06801364	0	0	0.4982412	-0.3646296
35.45689	0.02299595	-0.06801364	0	0	0	0
35.47405	0.002684204	-0.05369113	-1.183508	0.8345318	-35.08418	24.73906
35.49064	0.002684204	-0.05369113	0	0	35.06436	-24.72508
35.50719	0.002684204	-0.05369113	0	0	0	0
35.52375	-0.04953839	-0.02491227	-3.152162	1.737096	-95.1982	52.46189
35.54032	-0.04953839	-0.02491227	0	0	95.13243	-52.42565
35.55698	-0.04953839	-0.02491227	0	0	0	0
35.57346	-0.1045386	-0.02227668	-3.33672	0.1598948	-100.6908	4.825078
35.59002	-0.1045386	-0.02227668	0	0	100.9698	-4.838446
35.60659	-0.1045386	-0.02227668	0	0	0	0
35.62315	-0.1471909	-0.02703754	-2.575093	-0.2874322	-77.7254	-8.67572
35.63972	-0.1471909	-0.02703754	0	0	77.71645	8.674722
35.65629	-0.1471909	-0.02703754	0	0	0	0
35.67286	-0.1833389	-0.01778798	-2.182397	0.5584332	-65.87246	16.85549
35.68942	-0.1833389	-0.01778798	0	0	65.87246	-16.85549
35.70599	-0.1833389	-0.01778798	0	0	0	0
35.72256	-0.1968641	-0.007678383	-0.8163874	0.6102163	-24.63862	18.41636
35.73967	-0.1968641	-0.007678383	0	0	24.23956	-18.11808
35.75569	-0.1968641	-0.007678383	0	0	0	0
35.77226	-0.1971425	-0.007508584	-0.01680326	0.01024904	-0.5156121	0.3144944
35.78883	-0.1971425	-0.007508584	0	0	0.5071234	-0.3093168
35.80539	-0.1971425	-0.007508584	0	0	0	0
35.82196	-0.1971678	-0.007489718	-0.001527242	0.001138742	-0.04609226	0.0343673
35.83854	-0.1971678	-0.007489718	0	0	0.04607635	-0.03435544
35.85509	-0.1971678	-0.007489718	0	0	0	0
35.87166	-0.1971931	-0.007433122	-0.001527242	0.003416198	-0.04610818	0.1031367
35.88823	-0.1971931	-0.007433122	0	0	0.04609226	-0.1031011
35.90528	-0.1971931	-0.007433122	0	0	0	0
35.92136	-0.1971931	-0.007433122	0	0	0	0
35.93793	-0.1971931	-0.007433122	0	0	0	0
35.95482	-0.1971931	-0.007433122	0	0	0	0
35.97147	-0.1972184	-0.007451987	-0.001521136	-0.001133494	-0.0453545	-0.03379648
35.98806	-0.1972184	-0.007451987	0	0	0.04577098	0.03410683
36.0042	-0.1972184	-0.007451987	0	0	0	0
36.02076	-0.1976233	-0.007980268	-0.0244424	-0.03189443	-0.7473091	-0.9751496
36.03733	-0.1976233	-0.007980268	0	0	0.737758	0.9626865
36.05392	-0.1976233	-0.007980268	0	0	0	0
36.07046	-0.2114491	-0.01837474	-0.835878	-0.6284246	-25.22975	-18.96808
36.08703	-0.2114491	-0.01837474	0	0	25.24429	18.979
36.1036	-0.2114491	-0.01837474	0	0	0	0
36.12017	-0.2176294	-0.02299698	-0.3730401	-0.2789987	-11.25837	-8.420197
36.13689	-0.2176294	-0.02299698	0	0	11.2042	8.379679
36.1533	-0.2176294	-0.02299698	0	0	0	0
36.16986	-0.2176043	-0.02301594	0.001514999	-0.001144571	0.04595555	-0.03471909
36.18643	-0.2176043	-0.02301594	0	0	-0.04572276	0.03454322
36.203	-0.2176043	-0.02301594	0	0	0	0
36.21957	-0.2176043	-0.02301594	0	0	0	0
36.23613	-0.2176043	-0.02301594	0	0	0	0
36.25296	-0.2176043	-0.02301594	0	0	0	0
36.2694	-0.2175792	-0.02303489	0.001525341	-0.001153069	0.04585012	-0.03466003
36.2861	-0.2175792	-0.02303489	0	0	-0.04602428	0.03479167
36.3024	-0.2175792	-0.02303489	0	0	0	0
36.31897	-0.217529	-0.02311073	0.0030293	-0.004577229	0.09217793	-0.1392795
36.33553	-0.217529	-0.02311073	0	0	-0.09142446	0.1381411
36.3521	-0.217529	-0.02311073	0	0	0	0
36.36867	-0.2174538	-0.0231676	0.004543051	-0.003432922	0.1371095	-0.1036058
36.38523	-0.2174538	-0.0231676	0	0	-0.1371095	0.1036058
36.4018	-0.2174538	-0.0231676	0	0	0	0
36.41837	-0.2174036	-0.02320552	0.003029998	-0.002289254	0.09145604	-0.06909779
36.43493	-0.2174036	-0.02320552	0	0	-0.09145604	0.06909779
36.4515	-0.2174036	-0.02320552	0	0	0	0
36.46808	-0.2174036	-0.02320552	0	0	0	0
36.48464	-0.2174036	-0.02320552	0	0	0	0
36.5012	-0.2174036	-0.02320552	0	0	0	0
36.51777	-0.2174036	-0.02320552	0	0	0	0
36.53433	-0.2174036	-0.02320552	0	0	0	0
36.5509	-0.2174036	-0.02320552	0	0	0	0
36.56746	-0.2173785	-0.02322448	0.00151465	-0.00114442	0.04571223	-0.03453866
36.58403	-0.2173785	-0.02322448	0	0	-0.04571223	0.03453866
36.6006	-0.2173785	-0.02322448	0	0	0	0
36.61716	-0.2173785	-0.02322448	0	0	0	0
36.63374	-0.2173785	-0.02322448	0	0	0	0
36.6503	-0.2173785	-0.02322448	0	0	0	0
36.66687	-0.2173032	-0.02328135	0.00454395	-0.003433034	0.1371525	-0.1036211
36.68343	-0.2173032	-0.02328135	0	0	-0.1371367	0.1036092
36.7	-0.2173032	-0.02328135	0	0	0	0
36.71656	-0.2158725	-0.02447601	0.08637833	-0.0721264	2.607503	-2.17728
36.73332	-0.2158725	-0.02447601	0	0	-2.591983	2.16432
36.74969	-0.2158725	-0.02447601	0	0	0	0
36.76626	-0.1977751	-0.03865752	1.092361	-0.8559971	33.16224	-25.98663
36.78283	-0.1977751	-0.03865752	0	0	-32.96373	25.83107
36.7994	-0.1977751	-0.03865752	0	0	0	0
36.81635	-0.1480405	-0.07609002	2.933756	-2.208079	87.5332	-65.88148
36.83253	-0.1480405	-0.07609002	0	0	-88.54094	66.63997
36.8491	-0.1480405	-0.07609002	0	0	0	0
36.86566	-0.1218668	-0.09559834	1.580215	-1.177796	47.69647	-35.55005
36.88226	-0.1218668	-0.09559834	0	0	-47.65258	35.51733
36.8988	-0.1218668	-0.09559834	0	0	0	0
36.91536	-0.1213741	-0.09491791	0.0297495	0.04108986	0.898773	1.241381
36.93193	-0.1213741	-0.09491791	0	0	-0.897945	-1.240237
36.9485	-0.1213741	-0.09491791	0	0	0	0
36.96506	-0.1190398	-0.09313018	0.1409349	0.1079324	4.253914	3.257782
36.98163	-0.1190398	-0.09313018	0	0	-4.253914	-3.257782
36.99835	-0.1190398	-0.09313018	0	0	0	0
37.01476	-0.1028464	-0.08117151	0.9867513	0.7287063	29.78364	21.99493
37.03133	-0.1028464	-0.08117151	0	0	-29.92145	-22.0967
37.04844	-0.1028464	-0.08117151	0	0	0	0
37.06446	-0.08602402	-0.0692265	1.050471	0.7459058	31.70694	22.51407
37.08103	-0.08602402	-0.0692265	0	0	-32.23774	-22.89098
37.0976	-0.08602402	-0.0692265	0	0	0	0
37.11416	-0.083751	-0.06797515	0.1372311	0.07554887	4.142119	2.280332
37.13073	-0.083751	-0.06797515	0	0	-4.142119	-2.280332
37.14783	-0.083751	-0.06797515	0	0	0	0
37.16769	-0.08372487	-0.06799439	0.001315967	-0.0009692453	0.03560092	-0.02622104
37.18426	-0.08372487	-0.06799439	0	0	-0.03613038	0.026611
37.20082	-0.08372487	-0.06799439	0	0	0	0
37.21748	-0.083751	-0.06797515	-0.001569212	0.001155767	-0.04723926	0.03479299
37.23396	-0.083751	-0.06797515	0	0	0.0473589	-0.03488111
37.25079	-0.083751	-0.06797515	0	0	0	0
37.26709	-0.08377713	-0.0679559	-0.001602623	0.001180832	-0.04836725	0.03563758
37.28366	-0.08377713	-0.0679559	0	0	0.04875455	-0.03592294
37.30024	-0.08377713	-0.0679559	0	0	0	0
37.31679	-0.083751	-0.06793665	0.001578615	0.001162692	0.04764817	0.03509416
37.33336	-0.083751	-0.06793665	0	0	-0.04766463	-0.03510629
37.34993	-0.083751	-0.06793665	0	0	0	0
37.36649	-0.08372487	-0.06791741	0.001577887	0.001162157	0.04762622	0.03507799
37.38306	-0.08372487	-0.06791741	0	0	-0.04763171	-0.03508203
37.39995	-0.08372487	-0.06791741	0	0	0	0
37.41619	-0.08372487	-0.06791741	0	0	0	0
37.43295	-0.08372487	-0.06791741	0	0	0	0
37.44933	-0.08372487	-0.06791741	0	0	0	0
37.46589	-0.08369873	-0.06789816	0.001578337	0.001162157	0.04791566	0.03528111
37.48246	-0.08369873	-0.06789816	0	0	-0.04763432	-0.03507395
37.49903	-0.08369873	-0.06789816	0	0	0	0
37.51672	-0.08359421	-0.06782117	0.00590653	0.004350429	0.1724041	0.1269835
37.5333	-0.08359421	-0.06782117	0	0	-0.1723465	-0.1269411
37.54986	-0.08359421	-0.06782117	0	0	0	0
37.56657	-0.08354194	-0.06785966	0.003128836	-0.002304143	0.09404948	-0.0692601
37.583	-0.08354194	-0.06785966	0	0	-0.09442845	0.06953918
37.59956	-0.08354194	-0.06785966	0	0	0	0
37.61613	-0.08273178	-0.06745552	0.04890143	0.0243945	1.476018	0.7363122
37.63269	-0.08273178	-0.06745552	0	0	-1.475848	-0.7362275
37.64927	-0.08273178	-0.06745552	0	0	0	0
37.66601	-0.06488249	-0.06157307	1.066094	0.3513438	32.00161	10.54651
37.68254	-0.06488249	-0.06157307	0	0	-32.0383	-10.5586
37.69897	-0.06488249	-0.06157307	0	0	0	0
37.7156	-0.02386389	-0.06211083	2.466799	-0.03233992	74.62859	-0.9783862
37.7321	-0.02386389	-0.06211083	0	0	-74.44816	0.9760208
37.74937	-0.02386389	-0.06211083	0	0	0	0
37.76523	-0.01010492	-0.06432053	0.8676525	-0.1393461	26.19184	-4.206442
37.7818	-0.01010492	-0.06432053	0	0	-26.75252	4.296488
37.79837	-0.01010492	-0.06432053	0	0	0	0
37.81508	-0.008999757	-0.06532028	0.06611397	-0.05980743	1.986632	-1.79713
37.83158	-0.008999757	-0.06532028	0	0	-1.990283	1.800432
37.84808	-0.008999757	-0.06532028	0	0	0	0
37.86463	-0.009026071	-0.06530105	-0.001589389	0.001161524	-0.04809522	0.03514794
37.8812	-0.009026071	-0.06530105	0	0	0.04798443	-0.03506698
37.89777	-0.009026071	-0.06530105	0	0	0	0
37.91456	-0.009052385	-0.06528182	-0.001567003	0.001145165	-0.04697319	0.03432797
37.9309	-0.009052385	-0.06528182	0	0	0.0472977	-0.03456512
37.94746	-0.009052385	-0.06528182	0	0	0	0
37.96403	-0.009052385	-0.06528182	0	0	0	0
37.9806	-0.009052385	-0.06528182	0	0	0	0
37.99717	-0.009052385	-0.06528182	0	0	0	0
38.01381	-0.009078698	-0.06526259	-0.001581373	0.001155666	-0.04762176	0.03480195
38.0303	-0.009078698	-0.06526259	0	0	0.04772593	-0.03487807
38.04687	-0.009078698	-0.06526259	0	0	0	0
38.06343	-0.009078698	-0.06526259	0	0	0	0
38.08	-0.009078698	-0.06526259	0	0	0	0
38.09657	-0.009078698	-0.06526259	0	0	0	0
38.11329	-0.009078698	-0.06526259	0	0	0	0
38.1297	-0.009078698	-0.06526259	0	0	0	0
38.14646	-0.009078698	-0.06526259	0	0	0	0
38.16283	-0.009157639	-0.06532028	-0.004821493	-0.003523543	-0.1455129	-0.1063407
38.1794	-0.009157639	-0.06532028	0	0	0.1463724	0.1069688
38.19608	-0.009157639	-0.06532028	0	0	0	0
38.21254	-0.009157639	-0.06532028	0	0	0	0
38.22954	-0.009157639	-0.06532028	0	0	0	0
38.24567	-0.009157639	-0.06532028	0	0	0	0
38.26369	-0.009131325	-0.06533951	0.001460502	-0.001067333	0.04276352	-0.03125154
38.28026	-0.009131325	-0.06533951	0	0	-0.04222585	0.03085861
38.29709	-0.009131325	-0.06533951	0	0	0	0
38.3134	-0.009157639	-0.06535874	-0.001613555	-0.001179185	-0.0486972	-0.03558787
38.33002	-0.009157639	-0.06535874	0	0	0.04899616	0.03580636
38.34693	-0.009157639	-0.06535874	0	0	0	0
38.36309	-0.009262893	-0.06543566	-0.006513644	-0.004760166	-0.1969677	-0.1439438
38.37966	-0.009262893	-0.06543566	0	0	0.199034	0.1454539
38.39622	-0.009262893	-0.06543566	0	0	0	0
38.41279	-0.009420774	-0.0655895	-0.009529692	-0.009285776	-0.2876067	-0.2802453
38.42939	-0.009420774	-0.0655895	0	0	0.287309	0.2799552
38.44592	-0.009420774	-0.0655895	0	0	0	0
38.46249	-0.009420774	-0.06566642	0	-0.004643338	0	-0.1402977
38.47906	-0.009420774	-0.06566642	0	0	0	0.1401362
38.49646	-0.009420774	-0.06566642	0	0	0	0
38.5122	-0.00931552	-0.06597415	0.006687299	-0.01955113	0.2017999	-0.5899864
38.52882	-0.00931552	-0.06597415	0	0	-0.2066284	0.6041033
38.54533	-0.00931552	-0.06597415	0	0	0	0
38.56189	-0.00931552	-0.06643578	0	-0.02787094	0	-0.8426989
38.5785	-0.00931552	-0.06643578	0	0	0	0.840276
38.59503	-0.00931552	-0.06643578	0	0	0	0
38.6116	-0.009368147	-0.06643578	-0.003177314	0	-0.09600206	0
38.62829	-0.009368147	-0.06643578	0	0	0.0955286	0
38.64473	-0.009368147	-0.06643578	0	0	0	0
38.6613	-0.009368147	-0.06643578	0	0	0	0
38.67786	-0.009368147	-0.06643578	0	0	0	0
38.69506	-0.009368147	-0.06643578	0	0	0	0
38.71296	-0.009368147	-0.06643578	0	0	0	0
38.72973	-0.009368147	-0.06643578	0	0	0	0
38.74686	-0.009368147	-0.06643578	0	0	0	0
38.76266	-0.009368147	-0.06643578	0	0	0	0
38.77922	-0.009368147	-0.06643578	0	0	0	0
38.7961	-0.009368147	-0.06643578	0	0	0	0
38.81236	-0.00939446	-0.06645502	-0.001618477	-0.00118324	-0.04885136	-0.03571437
38.82893	-0.00939446	-0.06645502	0	0	0.0492998	0.03604221
38.84602	-0.00939446	-0.06645502	0	0	0	0
38.86269	-0.00939446	-0.0664935	0	-0.002308523	0	-0.06837256
38.87926	-0.00939446	-0.0664935	0	0	0	0.06945547
38.89583	-0.00939446	-0.0664935	0	0	0	0
38.91239	-0.009420774	-0.06651273	-0.001588657	-0.001161439	-0.04795129	-0.03505634
38.92901	-0.009420774	-0.06651273	0	0	0.04787412	0.03499992
38.94629	-0.009420774	-0.06651273	0	0	0	0
38.9701	-0.009447088	-0.06653197	-0.001105441	-0.0008081681	-0.02690665	-0.01967098
38.98732	-0.009447088	-0.06653197	0	0	0.02694668	0.01970024
39.00323	-0.009447088	-0.06653197	0	0	0	0
39.0198	-0.009447088	-0.06653197	0	0	0	0
39.03658	-0.009447088	-0.06653197	0	0	0	0
39.05294	-0.009447088	-0.06653197	0	0	0	0
39.0695	-0.009447088	-0.06653197	0	0	0	0
39.08607	-0.009447088	-0.06653197	0	0	0	0
39.10264	-0.009473401	-0.06655121	-0.001588291	-0.001161172	-0.04793473	-0.03504423
39.1192	-0.009473401	-0.06655121	0	0	0.04794025	0.03504827
39.13577	-0.009473401	-0.06655121	0	0	0	0
39.15237	-0.01010492	-0.06705143	-0.0380484	-0.0301381	-1.147114	-0.9086281
39.16891	-0.01010492	-0.06705143	0	0	1.148039	0.9093602
39.18579	-0.01010492	-0.06705143	0	0	0	0
39.20204	-0.01218361	-0.06868739	-0.1279445	-0.1006939	-3.862708	-3.039999
39.21861	-0.01218361	-0.06868739	0	0	3.899081	3.068625
39.23517	-0.01218361	-0.06868739	0	0	0	0
39.25174	-0.01213098	-0.06872589	0.003177089	-0.002324678	0.09589579	-0.07016698
39.26841	-0.01213098	-0.06872589	0	0	-0.09557665	0.06993347
39.28487	-0.01213098	-0.06872589	0	0	0	0
39.30194	-0.01213098	-0.06872589	0	0	0	0
39.31839	-0.01213098	-0.06872589	0	0	0	0
39.33457	-0.01213098	-0.06872589	0	0	0	0
39.35114	-0.01213098	-0.06872589	0	0	0	0
39.3677	-0.01213098	-0.06872589	0	0	0	0
39.38439	-0.01213098	-0.06872589	0	0	0	0
39.40084	-0.01213098	-0.06872589	0	0	0	0
39.4174	-0.01213098	-0.06872589	0	0	0	0
39.43439	-0.01213098	-0.06872589	0	0	0	0
39.45053	-0.01213098	-0.06872589	0	0	0	0
39.4671	-0.01213098	-0.06872589	0	0	0	0
39.48367	-0.01213098	-0.06872589	0	0	0	0
39.50024	-0.01213098	-0.06872589	0	0	0	0
39.5168	-0.01213098	-0.06872589	0	0	0	0
39.53359	-0.01213098	-0.06872589	0	0	0	0
39.55013	-0.01213098	-0.06872589	0	0	0	0
39.56651	-0.01213098	-0.06872589	0	0	0	0
39.58307	-0.01213098	-0.06872589	0	0	0	0
39.59964	-0.01213098	-0.06872589	0	0	0	0
39.6162	-0.01213098	-0.06872589	0	0	0	0
39.63332	-0.01213098	-0.06872589	0	0	0	0
39.64933	-0.01213098	-0.06872589	0	0	0	0
39.66591	-0.01213098	-0.06872589	0	0	0	0
39.68248	-0.01213098	-0.06872589	0	0	0	0
39.69904	-0.01213098	-0.06872589	0	0	0	0
39.71561	-0.01213098	-0.06872589	0	0	0	0
39.73218	-0.01213098	-0.06872589	0	0	0	0
39.74941	-0.01213098	-0.06872589	0	0	0	0
39.76531	-0.01213098	-0.06872589	0	0	0	0
39.78188	-0.01213098	-0.06872589	0	0	0	0
39.80167	-0.01213098	-0.06872589	0	0	0	0
39.81843	-0.01213098	-0.06872589	0	0	0	0
39.8348	-0.01213098	-0.06872589	0	0	0	0
39.85152	-0.01213098	-0.06872589	0	0	0	0
39.86809	-0.01213098	-0.06872589	0	0	0	0
39.88465	-0.01213098	-0.06872589	0	0	0	0
39.90122	-0.01213098	-0.06872589	0	0	0	0
39.91779	-0.01213098	-0.06872589	0	0	0	0
39.93436	-0.01213098	-0.06872589	0	0	0	0
39.95092	-0.01213098	-0.06872589	0	0	0	0
39.96749	-0.01213098	-0.06872589	0	0	0	0
39.98406	-0.01213098	-0.06872589	0	0	0	0
40.00062	-0.01213098	-0.06872589	0	0	0	0
40.01719	-0.01213098	-0.06872589	0	0	0	0
40.03376	-0.01213098	-0.06872589	0	0	0	0
40.05032	-0.01213098	-0.06872589	0	0	0	0
40.06689	-0.01213098	-0.06872589	0	0	0	0
40.08345	-0.01213098	-0.06872589	0	0	0	0
40.10002	-0.01213098	-0.06872589	0	0	0	0
40.11659	-0.01213098	-0.06872589	0	0	0	0
40.13316	-0.01213098	-0.06872589	0	0	0	0
40.14972	-0.0121573	-0.06870664	-0.001588179	0.001162071	-0.04793134	0.03507138
40.16629	-0.0121573	-0.06870664	0	0	0.04793134	-0.03507138
40.18286	-0.0121573	-0.06870664	0	0	0	0
40.19946	-0.0121573	-0.06870664	0	0	0	0
40.21599	-0.0121573	-0.06870664	0	0	0	0
40.23256	-0.0121573	-0.06870664	0	0	0	0
40.24912	-0.01213098	-0.06868739	0.001588179	0.001162071	0.04793134	0.03507138
40.26569	-0.01213098	-0.06868739	0	0	-0.04793134	-0.03507138
40.28226	-0.01213098	-0.06868739	0	0	0	0
40.29882	-0.01210467	-0.06870664	0.001588911	-0.001162607	0.04795342	-0.03508753
40.31539	-0.01210467	-0.06870664	0	0	-0.04796446	0.03509562
40.33253	-0.01210467	-0.06870664	0	0	0	0
40.34853	-0.0119468	-0.06874514	0.009867729	-0.002406712	0.2978086	-0.07263471
40.36541	-0.0119468	-0.06874514	0	0	-0.3000889	0.07319085
40.38166	-0.0119468	-0.06874514	0	0	0	0
40.39874	-0.003394724	-0.07493205	0.5009778	-0.3624271	15.033	-10.87547
40.56147	-0.003394724	-0.07493205	0	0	-2.786276	2.015702
40.57868	-0.003394724	-0.07493205	0	0	0	0
40.60072	0.02854488	-0.09818558	1.449078	-1.054997	36.91615	-26.87669
40.62519	0.02854488	-0.09818558	0	0	-31.15198	22.6801
40.64177	0.02854488	-0.09818558	0	0	0	0
40.65833	0.02854488	-0.09818558	0	0	0	0
40.6749	0.02854488	-0.09818558	0	0	0	0
40.69146	0.02851858	-0.09816612	-0.001587533	0.001174934	-0.04791734	0.03546365
40.70803	0.02851858	-0.09816612	0	0	0.04791734	-0.03546365
40.72459	0.02851858	-0.09816612	0	0	0	0
40.74116	0.02851858	-0.09816612	0	0	0	0
40.75773	0.02851858	-0.09816612	0	0	0	0
40.7743	0.02851858	-0.09816612	0	0	0	0
40.79086	0.02851858	-0.09816612	0	0	0	0
40.80744	0.02851858	-0.09816612	0	0	0	0
40.824	0.02851858	-0.09816612	0	0	0	0
40.84056	0.02849229	-0.09814665	-0.001587167	0.001175113	-0.04791183	0.03547315
40.85713	0.02849229	-0.09814665	0	0	0.0479008	-0.03546498
40.8737	0.02849229	-0.09814665	0	0	0	0
40.89027	0.02849229	-0.09818558	0	-0.002349776	0	-0.07091638
40.90683	0.02849229	-0.09818558	0	0	0	0.07091638
40.9234	0.02849229	-0.09818558	0	0	0	0
40.93998	0.02849229	-0.09818558	0	0	0	0
40.95654	0.02849229	-0.09818558	0	0	0	0
40.97344	0.02849229	-0.09818558	0	0	0	0
40.98967	0.0284397	-0.09814665	-0.003240631	0.002398937	-0.0978137	0.0724084
41.00624	0.0284397	-0.09814665	0	0	0.09880344	-0.07314108
41.02322	0.0284397	-0.09814665	0	0	0	0
41.03954	0.0284397	-0.09814665	0	0	0	0
41.05593	0.0284397	-0.09814665	0	0	0	0
41.0725	0.0284397	-0.09814665	0	0	0	0
41.08907	0.0284397	-0.09814665	0	0	0	0
41.10563	0.0284397	-0.09814665	0	0	0	0
41.12249	0.0284397	-0.09814665	0	0	0	0
41.13877	0.0284397	-0.09814665	0	0	0	0
41.15533	0.0284397	-0.09814665	0	0	0	0
41.1719	0.0284397	-0.09814665	0	0	0	0
41.18847	0.0284397	-0.09814665	0	0	0	0
41.20504	0.0284397	-0.09814665	0	0	0	0
41.2216	0.0284397	-0.09814665	0	0	0	0
41.23817	0.0284397	-0.09814665	0	0	0	0
41.25474	0.0284397	-0.09814665	0	0	0	0
41.2713	0.0284397	-0.09814665	0	0	0	0
41.29178	0.0284397	-0.09814665	0	0	0	0
41.30835	0.0284397	-0.09814665	0	0	0	0
41.32492	0.0284397	-0.09814665	0	0	0	0
41.34149	0.0284397	-0.09814665	0	0	0	0
41.35806	0.0284397	-0.09814665	0	0	0	0
41.37462	0.0284397	-0.09814665	0	0	0	0
41.39119	0.0284397	-0.09814665	0	0	0	0
41.40776	0.0284397	-0.09814665	0	0	0	0
41.42473	0.0284397	-0.09814665	0	0	0	0
41.44089	0.0284397	-0.09814665	0	0	0	0
41.45746	0.0284397	-0.09814665	0	0	0	0
41.47403	0.0284397	-0.09814665	0	0	0	0
41.49059	0.0284397	-0.09814665	0	0	0	0
41.50716	0.0284397	-0.09814665	0	0	0	0
41.52386	0.0284397	-0.09814665	0	0	0	0
41.54029	0.0284397	-0.09814665	0	0	0	0
41.55687	0.0284397	-0.09814665	0	0	0	0
41.57343	0.0284397	-0.09814665	0	0	0	0
41.58999	0.0284397	-0.09814665	0	0	0	0
41.60656	0.0284397	-0.09814665	0	0	0	0
41.62313	0.0284397	-0.09814665	0	0	0	0
41.63969	0.0284397	-0.09814665	0	0	0	0
41.65662	0.0284397	-0.09814665	0	0	0	0
41.67287	0.0284397	-0.09814665	0	0	0	0
41.68944	0.0284397	-0.09814665	0	0	0	0
41.70611	0.0284397	-0.09814665	0	0	0	0
41.72257	0.0284397	-0.09814665	0	0	0	0
41.73914	0.0284397	-0.09814665	0	0	0	0
41.7557	0.0284397	-0.09814665	0	0	0	0
41.77227	0.0284134	-0.09812719	-0.001587167	0.001174663	-0.0479008	0.0354514
41.78884	0.0284134	-0.09812719	0	0	0.0479008	-0.0354514
41.80561	0.0284134	-0.09812719	0	0	0	0
41.82233	0.0284134	-0.09812719	0	0	0	0
41.83899	0.0284134	-0.09812719	0	0	0	0
41.8551	0.0284134	-0.09812719	0	0	0	0
41.87167	0.0284134	-0.09812719	0	0	0	0
41.88824	0.0284134	-0.09812719	0	0	0	0
41.90527	0.0284134	-0.09812719	0	0	0	0
41.92159	0.0284134	-0.09812719	0	0	0	0
41.93794	0.0284134	-0.09812719	0	0	0	0
41.9545	0.0284134	-0.09812719	0	0	0	0
41.97107	0.0284134	-0.09812719	0	0	0	0
