Time	Pos X	Pos Y	Vel X	Vel Y	Acc X	Acc Y
0.01656634	-0.04071433	-0.127999	0.0006449939	0.002027752	-1.022064E-05	-3.213195E-05
0.0354949	-0.04068806	-0.1280187	0.001388086	-0.001039933	-1.177555E-05	4.861265E-05
0.05262772	-0.04068806	-0.1280187	0	0	-0.03849232	0.02883786
0.06863232	-0.04068806	-0.1280187	0	0	0	0
0.08519629	-0.04068806	-0.1280187	0	0	0	0
0.1017654	-0.04068806	-0.1280187	0	0	0	0
0.1187375	-0.04068806	-0.1280187	0	0	0	0
0.1348957	-0.04071433	-0.127999	-0.00162608	0.001218235	-0.04908135	0.036771
0.1514652	-0.04071433	-0.127999	0	0	0.0496852	-0.0372234
0.1680323	-0.04071433	-0.127999	0	0	0	0
0.1849077	-0.04071433	-0.127999	0	0	0	0
0.2012289	-0.04071433	-0.127999	0	0	0	0
0.2178466	-0.04071433	-0.127999	0	0	0	0
0.2342961	-0.04071433	-0.127999	0	0	0	0
0.2508656	-0.04071433	-0.127999	0	0	0	0
0.2674319	-0.04071433	-0.127999	0	0	0	0
0.2839959	-0.04071433	-0.127999	0	0	0	0
0.3005658	-0.04071433	-0.127999	0	0	0	0
0.3171325	-0.04071433	-0.127999	0	0	0	0
0.3336993	-0.04066179	-0.1279596	0.003171733	0.002377282	0.09572601	0.0717487
0.3503331	-0.04066179	-0.1279596	0	0	-0.0955325	-0.07160366
0.3673356	-0.04066179	-0.1279596	0	0	0	0
0.3833987	-0.04063552	-0.1279399	0.001635478	0.001226377	0.04946165	0.03708922
0.3999654	-0.04063552	-0.1279399	0	0	-0.0501223	-0.03758462
0.4165325	-0.04063552	-0.1279399	0	0	0	0
0.4330961	-0.04058297	-0.1279399	0.003172338	0	0.09575219	0
0.4496656	-0.04058297	-0.1279399	0	0	-0.09574539	0
0.4665529	-0.04058297	-0.1279399	0	0	0	0
0.4827967	-0.04058297	-0.1279399	0	0	0	0
0.4993658	-0.04058297	-0.1279399	0	0	0	0
0.5162472	-0.04058297	-0.1279399	0	0	0	0
0.5324985	-0.04050415	-0.1279596	0.004850047	-0.001212168	0.1463826	-0.03658528
0.5494414	-0.04050415	-0.1279596	0	0	-0.1461111	0.03651741
0.5657353	-0.04050415	-0.1279596	0	0	0	0
0.582199	-0.0404516	-0.1279596	0.003191581	0	0.09743012	0
0.5992363	-0.0404516	-0.1279596	0	0	-0.09526831	0
0.6153297	-0.0404516	-0.1279596	0	0	0	0
0.6318961	-0.04042533	-0.1279399	0.001585791	0.001189118	0.04855487	0.03640927
0.6484648	-0.04042533	-0.1279399	0	0	-0.04785841	-0.03588702
0.6650319	-0.04042533	-0.1279399	0	0	0	0
0.681599	-0.04042533	-0.1279399	0	0	0	0
0.6981658	-0.04042533	-0.1279399	0	0	0	0
0.7147325	-0.04042533	-0.1279399	0	0	0	0
0.7312961	-0.04042533	-0.1279399	0	0	0	0
0.7478652	-0.04042533	-0.1279399	0	0	0	0
0.7646337	-0.04042533	-0.1279399	0	0	0	0
0.7811696	-0.04042533	-0.1279399	0	0	0	0
0.7975634	-0.04042533	-0.1279399	0	0	0	0
0.8141302	-0.04042533	-0.1279399	0	0	0	0
0.8307013	-0.04042533	-0.1279399	0	0	0	0
0.8472633	-0.04042533	-0.1279399	0	0	0	0
0.863832	-0.04042533	-0.1279399	0	0	0	0
0.8803995	-0.04042533	-0.1279399	0	0	0	0
0.8969659	-0.04042533	-0.1279399	0	0	0	0
0.9136195	-0.04042533	-0.1279399	0	0	0	0
0.930112	-0.04042533	-0.1279399	0	0	0	0
0.9467107	-0.04042533	-0.1279399	0	0	0	0
0.9634334	-0.04042533	-0.1279399	0	0	0	0
0.9797964	-0.04042533	-0.1279399	0	0	0	0
0.9963659	-0.04042533	-0.1279399	0	0	0	0
1.012967	-0.04042533	-0.1279399	0	0	0	0
1.029499	-0.0404516	-0.1279202	-0.001589124	0.001190717	-0.04796194	0.03593745
1.046547	-0.0404516	-0.1279202	0	0	0.04732361	-0.03545916
1.062632	-0.0404516	-0.1279202	0	0	0	0
1.079196	-0.0404516	-0.1279202	0	0	0	0
1.095996	-0.0404516	-0.1279202	0	0	0	0
1.112691	-0.0404516	-0.1279202	0	0	0	0
1.128899	-0.04042533	-0.1279399	0.001620857	-0.001214494	0.049263	-0.03691232
1.145465	-0.04042533	-0.1279399	0	0	-0.04945455	0.03705585
1.162032	-0.04042533	-0.1279399	0	0	0	0
1.178596	-0.04042533	-0.1279399	0	0	0	0
1.195166	-0.04042533	-0.1279399	0	0	0	0
1.211732	-0.04042533	-0.1279399	0	0	0	0
1.228299	-0.0404516	-0.1279202	-0.001585751	0.001188189	-0.04785996	0.03586103
1.244866	-0.0404516	-0.1279202	0	0	0.04785944	-0.03586065
1.261433	-0.0404516	-0.1279202	0	0	0	0
1.277999	-0.04042533	-0.1279399	0.001585751	-0.001188189	0.04785944	-0.03586065
1.294566	-0.04042533	-0.1279399	0	0	-0.04785944	0.03586065
1.311133	-0.04042533	-0.1279399	0	0	0	0
1.327697	-0.0404516	-0.1279202	-0.001586014	0.001188386	-0.04787184	0.03586994
1.344266	-0.0404516	-0.1279202	0	0	0.04786685	-0.03586619
1.360833	-0.0404516	-0.1279202	0	0	0	0
1.377494	-0.0404516	-0.1279202	0	0	0	0
1.393966	-0.0404516	-0.1279202	0	0	0	0
1.410533	-0.0404516	-0.1279202	0	0	0	0
1.427097	-0.0404516	-0.1279202	0	0	0	0
1.443666	-0.0404516	-0.1279202	0	0	0	0
1.460233	-0.0404516	-0.1279202	0	0	0	0
1.476797	-0.0404516	-0.1279202	0	0	0	0
1.493364	-0.0404516	-0.1279202	0	0	0	0
1.50993	-0.0404516	-0.1279202	0	0	0	0
1.52654	-0.0404516	-0.1279202	0	0	0	0
1.543064	-0.0404516	-0.1279202	0	0	0	0
1.559631	-0.0404516	-0.1279202	0	0	0	0
1.576196	-0.0404516	-0.1279202	0	0	0	0
1.592764	-0.0404516	-0.1279202	0	0	0	0
1.60933	-0.0404516	-0.1279202	0	0	0	0
1.6259	-0.0404516	-0.1279202	0	0	0	0
1.642466	-0.0404516	-0.1279202	0	0	0	0
1.659166	-0.0404516	-0.1279202	0	0	0	0
1.6756	-0.0404516	-0.1279202	0	0	0	0
1.692165	-0.0404516	-0.1279202	0	0	0	0
1.708732	-0.0404516	-0.1279202	0	0	0	0
1.725296	-0.0404516	-0.1279202	0	0	0	0
1.741866	-0.0404516	-0.1279202	0	0	0	0
1.75843	-0.0404516	-0.1279202	0	0	0	0
1.775037	-0.0404516	-0.1279202	0	0	0	0
1.791563	-0.0404516	-0.1279202	0	0	0	0
1.80813	-0.0404516	-0.1279202	0	0	0	0
1.824697	-0.04042533	-0.1279005	0.001585785	0.001189114	0.04786099	0.03588896
1.841264	-0.04042533	-0.1279005	0	0	-0.04786047	-0.03588857
1.857941	-0.04042533	-0.1279005	0	0	0	0
1.874397	-0.0404516	-0.1279202	-0.001596446	-0.001197108	-0.0481824	-0.03612996
1.890963	-0.0404516	-0.1279202	0	0	0.04834468	0.03625165
1.907543	-0.0404516	-0.1279202	0	0	0	0
1.924098	-0.0404516	-0.1279202	0	0	0	0
1.941186	-0.0404516	-0.1279202	0	0	0	0
1.957233	-0.0404516	-0.1279202	0	0	0	0
1.9738	-0.0404516	-0.1279202	0	0	0	0
1.990366	-0.0404516	-0.1279202	0	0	0	0
2.006932	-0.0404516	-0.1279202	0	0	0	0
2.023498	-0.0404516	-0.1279202	0	0	0	0
2.040126	-0.0404516	-0.1279202	0	0	0	0
2.056633	-0.0404516	-0.1279202	0	0	0	0
2.07395	-0.0404516	-0.1278808	0	0.002274276	0	0.06723908
2.089763	-0.0404516	-0.1278808	0	0	0	-0.06864768
2.106333	-0.0404516	-0.1278808	0	0	0	0
2.122899	-0.0404516	-0.1278808	0	0	0	0
2.139475	-0.0404516	-0.1278808	0	0	0	0
2.156061	-0.0404516	-0.1278808	0	0	0	0
2.172928	-0.0404516	-0.1278808	0	0	0	0
2.189166	-0.0404516	-0.1278808	0	0	0	0
2.206197	-0.0404516	-0.1278808	0	0	0	0
2.223658	-0.0404516	-0.1278808	0	0	0	0
2.24023	-0.0404516	-0.1278808	0	0	0	0
2.256797	-0.0404516	-0.1278808	0	0	0	0
2.333293	-0.0404516	-0.1278808	0	0	0	0
2.349865	-0.0404516	-0.1278808	0	0	0	0
2.366426	-0.0404516	-0.1278808	0	0	0	0
2.382997	-0.0404516	-0.1278808	0	0	0	0
2.400467	-0.0404516	-0.1278808	0	0	0	0
2.416305	-0.0404516	-0.1278808	0	0	0	0
2.432696	-0.0404516	-0.1278808	0	0	0	0
2.449263	-0.0404516	-0.1278808	0	0	0	0
2.46583	-0.0404516	-0.1278808	0	0	0	0
2.482397	-0.0404516	-0.1278808	0	0	0	0
2.499171	-0.0404516	-0.1278808	0	0	0	0
2.51555	-0.0404516	-0.1278808	0	0	0	0
2.532096	-0.0404516	-0.1278808	0	0	0	0
2.548664	-0.0404516	-0.1278808	0	0	0	0
2.56523	-0.0404516	-0.1278808	0	0	0	0
2.582253	-0.0404516	-0.1278808	0	0	0	0
2.598364	-0.0404516	-0.1278808	0	0	0	0
2.61493	-0.04060924	-0.1277627	-0.009515181	0.007130933	-0.2911831	0.2182205
2.631496	-0.04060924	-0.1277627	0	0	0.2871832	-0.2152228
2.648064	-0.04060924	-0.1277627	0	0	0	0
2.66463	-0.0417389	-0.1147424	-0.06819038	0.7859512	-2.058049	23.72074
2.681197	-0.0417389	-0.1147424	0	0	2.058079	-23.72108
2.697949	-0.0417389	-0.1147424	0	0	0	0
2.766114	-0.03840216	-0.02430532	0.04895104	1.326741	0.5764537	15.62388
2.783239	-0.03840216	-0.02430532	0	0	-0.5739383	-15.5557
2.802059	-0.03892769	0.002738558	-0.02792468	1.437008	-0.776884	39.97857
2.818625	-0.03892769	0.002738558	0	0	0.7891375	-40.60914
2.835192	-0.03892769	0.002738558	0	0	0	0
2.851759	-0.0348543	0.03603689	0.2458775	2.009949	7.420813	60.66214
2.868326	-0.0348543	0.03603689	0	0	-7.420813	-60.66214
2.884892	-0.0348543	0.03603689	0	0	0	0
2.901459	-0.02531038	0.06519379	0.5761051	1.760015	17.38764	53.11965
2.918026	-0.02531038	0.06519379	0	0	-17.38739	-53.11889
2.934596	-0.02531038	0.06519379	0	0	0	0
2.951162	-0.03340862	0.09724557	-0.4888243	1.934705	-14.7519	58.38616
2.967794	-0.03340862	0.09724557	0	0	14.72425	-58.27673
2.984296	-0.03340862	0.09724557	0	0	0	0
3.000862	-0.03301432	0.1142281	0.02380134	1.025124	0.7197657	31.00033
3.01743	-0.03301432	0.1142281	0	0	-0.7183467	-30.93921
3.034827	-0.03301432	0.1142281	0	0	0	0
3.050559	-0.02962291	0.1249145	0.2155763	0.6792907	6.507089	20.50413
3.067129	-0.02962291	0.1249145	0	0	-6.673894	-21.02974
3.083832	-0.02962291	0.1249145	0	0	0	0
3.100525	-0.02102322	0.1370353	0.5151641	0.7260947	15.42592	21.74196
3.117563	-0.02102322	0.1370353	0	0	-15.27229	-21.52544
3.133396	-0.02102322	0.1370353	0	0	0	0
3.149963	-0.03354005	0.1464215	-0.7555174	0.5665492	-23.31886	17.4864
3.166529	-0.03354005	0.1464215	0	0	22.80222	-17.09898
3.183622	-0.03354005	0.1464215	0	0	0	0
3.199662	-0.03656265	0.1485112	-0.1884404	0.1302813	-5.687387	3.932069
3.216229	-0.03656265	0.1485112	0	0	5.779167	-3.995522
3.232903	-0.03656265	0.1485112	0	0	0	0
3.249362	-0.03656265	0.1485112	0	0	0	0
3.265929	-0.03656265	0.1485112	0	0	0	0
3.282496	-0.03656265	0.1485112	0	0	0	0
3.299062	-0.03653637	0.148493	0.001586494	-0.001096491	0.0478829	-0.03309384
3.315707	-0.03653637	0.148493	0	0	-0.04777084	0.03301639
3.332196	-0.03653637	0.148493	0	0	0	0
3.34876	-0.03651008	0.1484385	0.0015867	-0.003290799	0.04800448	-0.09956081
3.36533	-0.03651008	0.1484385	0	0	-0.04788807	0.09931938
3.381897	-0.03651008	0.1484385	0	0	0	0
3.39846	-0.03653637	0.148384	-0.001586768	-0.003290941	-0.04789462	-0.09933296
3.415029	-0.03653637	0.148384	0	0	0.04789186	0.09932724
3.431595	-0.03653637	0.148384	0	0	0	0
3.44816	-0.03656265	0.1482568	-0.001586654	-0.007678011	-0.04789083	-0.2317495
3.46473	-0.03656265	0.1482568	0	0	0.04788566	0.2317245
3.481296	-0.03656265	0.1482568	0	0	0	0
3.497859	-0.03661521	0.1481842	-0.003173311	-0.004387622	-0.09578382	-0.1324368
3.514429	-0.03661521	0.1481842	0	0	0.09577487	0.1324244
3.530993	-0.03661521	0.1481842	0	0	0	0
3.547563	-0.03669405	0.1480206	-0.00475823	-0.009868989	-0.1436088	-0.2978574
3.56413	-0.03669405	0.1480206	0	0	0.1435933	0.2978252
3.580696	-0.03669405	0.1480206	0	0	0	0
3.597346	-0.03672033	0.1480025	-0.001578274	-0.001090964	-0.04751547	-0.03284455
3.613829	-0.03672033	0.1480025	0	0	0.04763377	0.03292632
3.630396	-0.03672033	0.1480025	0	0	0	0
3.64703	-0.03672033	0.1479298	0	-0.004369778	0	-0.1316159
3.663631	-0.03672033	0.1479298	0	0	0	0.13148
3.680096	-0.03672033	0.1479298	0	0	0	0
3.69666	-0.03679917	0.1478389	-0.004759874	-0.005484966	-0.1441147	-0.1660683
3.713229	-0.03679917	0.1478389	0	0	0.1436595	0.1655437
3.729797	-0.03679917	0.1478389	0	0	0	0
3.746388	-0.03695685	0.1472211	-0.009503655	-0.03723685	-0.2866043	-1.122962
3.762933	-0.03695685	0.1472211	0	0	0.2868085	1.123762
3.779667	-0.03695685	0.1472211	0	0	0	0
3.796064	-0.03629984	0.1460034	0.04007094	-0.07426549	1.209474	-2.241579
3.81279	-0.03629984	0.1460034	0	0	-1.209779	2.242144
3.829866	-0.03629984	0.1460034	0	0	0	0
3.845828	-0.02857117	0.1315161	0.4841806	-0.9075938	14.6551	-27.47089
3.862327	-0.02857117	0.1315161	0	0	-14.91569	27.95937
3.878894	-0.02857117	0.1315161	0	0	0	0
3.89546	-0.01491995	0.08325688	0.824037	-2.9131	24.87056	-87.92133
3.912028	-0.01491995	0.08325688	0	0	-24.87002	87.91943
3.928597	-0.01491995	0.08325688	0	0	0	0
3.945165	-0.01178893	0.05208083	0.1889722	-1.881627	5.70262	-56.78191
3.96173	-0.01178893	0.05208083	0	0	-5.703317	56.78885
3.978409	-0.01178893	0.05208083	0	0	0	0
3.994888	-0.02149669	0.04102655	-0.5890984	-0.6708098	-17.7665	-20.23081
4.01143	-0.02149669	0.04102655	0	0	17.84039	20.31495
4.027996	-0.02149669	0.04102655	0	0	0	0
4.044563	-0.04244817	0.01655292	-1.264634	-1.477231	-38.16782	-44.5842
4.06113	-0.04244817	0.01655292	0	0	38.16782	44.5842
4.077696	-0.04244817	0.01655292	0	0	0	0
4.094592	-0.05132331	0.009690246	-0.5252876	-0.4061773	-15.69801	-12.13845
4.11083	-0.05132331	0.009690246	0	0	15.85321	12.25845
4.127837	-0.05132331	0.009690246	0	0	0	0
4.14396	-0.04433934	0.0046188	0.4331602	-0.3145415	13.07468	-9.494247
4.160529	-0.04433934	0.0046188	0	0	-13.24956	9.621232
4.177097	-0.04433934	0.0046188	0	0	0	0
4.197556	-0.03230455	-0.003963701	0.5882345	-0.419494	15.88669	-11.32944
4.214127	-0.03230455	-0.003963701	0	0	-15.88525	11.32842
4.230694	-0.03225197	-0.004001393	0.003173751	-0.002275132	0.09577435	-0.06865671
4.247284	-0.03225197	-0.004001393	0	0	-0.09571925	0.06861722
4.263827	-0.03225197	-0.004001393	0	0	0	0
4.280393	-0.02696715	-0.008131221	0.3190201	-0.2492985	9.635534	-7.529694
4.296959	-0.02696715	-0.008131221	0	0	-9.628601	7.524276
4.313526	-0.02696715	-0.008131221	0	0	0	0
4.330734	-0.01965536	-0.03957226	0.4249035	-1.827107	12.58047	-54.09667
4.346983	-0.01965536	-0.03957226	0	0	-12.69988	54.61015
4.363227	-0.01965536	-0.03957226	0	0	0	0
4.379829	-0.02854488	-0.05784995	-0.5354317	-1.100899	-16.30129	-33.51701
4.396359	-0.02854488	-0.05784995	0	0	16.16052	33.22759
4.412926	-0.02854488	-0.05784995	0	0	0	0
4.42949	-0.02846599	-0.05783077	0.004762348	0.001158032	0.1437424	0.034953
4.446062	-0.02846599	-0.05783077	0	0	-0.1437238	-0.03494847
4.462628	-0.02846599	-0.05783077	0	0	0	0
4.48135	-0.0284397	-0.05784995	0.001404455	-0.001024515	0.03979889	-0.02903229
4.497921	-0.0284397	-0.05784995	0	0	-0.03979458	0.02902916
4.514782	-0.0284397	-0.05784995	0	0	0	0
4.531111	-0.0284397	-0.05784995	0	0	0	0
4.547758	-0.0284397	-0.05784995	0	0	0	0
4.565	-0.0284397	-0.05784995	0	0	0	0
4.580751	-0.02846599	-0.05779242	-0.001669377	0.003652834	-0.05059743	0.1107144
4.597321	-0.02846599	-0.05779242	0	0	0.05164995	-0.1130174
4.613889	-0.02846599	-0.05779242	0	0	0	0
4.630808	-0.0284397	-0.0578116	0.001554155	-0.001133497	0.04641092	-0.03384903
4.647022	-0.0284397	-0.0578116	0	0	-0.04690652	0.03421049
4.663589	-0.0284397	-0.0578116	0	0	0	0
4.680801	-0.0284134	-0.05786913	0.001527634	-0.00334268	0.04522354	-0.09895552
4.696722	-0.0284134	-0.05786913	0	0	-0.04610607	0.1008866
4.713289	-0.0284134	-0.05786913	0	0	0	0
4.729855	-0.02838711	-0.05788831	0.001587258	-0.001157641	0.04790493	-0.03493867
4.746422	-0.02838711	-0.05788831	0	0	-0.04790562	0.03493917
4.763009	-0.02838711	-0.05788831	0	0	0	0
4.77957	-0.02838711	-0.05788831	0	0	0	0
4.796122	-0.02838711	-0.05788831	0	0	0	0
4.812689	-0.02838711	-0.05788831	0	0	0	0
4.829298	-0.02838711	-0.05788831	0	0	0	0
4.845929	-0.02838711	-0.05788831	0	0	0	0
4.862804	-0.02838711	-0.05788831	0	0	0	0
4.878954	-0.02830823	-0.05794585	0.004884254	-0.003562564	0.1478945	-0.1078739
4.895521	-0.02830823	-0.05794585	0	0	-0.1492891	0.1088911
4.912088	-0.02830823	-0.05794585	0	0	0	0
4.928652	-0.02812416	-0.05811847	0.01111273	-0.01042191	0.3354166	-0.3145657
4.945653	-0.02812416	-0.05811847	0	0	-0.3310804	0.3104991
4.961964	-0.02812416	-0.05811847	0	0	0	0
4.978418	-0.02751937	-0.05855966	0.03675613	-0.02681317	1.121814	-0.8183503
4.994932	-0.02751937	-0.05855966	0	0	-1.114918	0.8133197
5.011488	-0.02751937	-0.05855966	0	0	0	0
5.028055	-0.0081314	-0.07277182	1.17026	-0.8578475	35.33021	-25.89846
5.044621	-0.0081314	-0.07277182	0	0	-35.31953	25.89063
5.061189	-0.0081314	-0.07277182	0	0	0	0
5.077754	0.02204906	-0.09497622	1.821906	-1.340415	54.9876	-40.45555
5.094321	0.02204906	-0.09497622	0	0	-54.98919	40.45671
5.110888	0.02204906	-0.09497622	0	0	0	0
5.127452	0.03601074	-0.1053186	0.8428987	-0.6243905	25.44166	-18.84631
5.144517	0.03601074	-0.1053186	0	0	-25.06468	18.56706
5.160588	0.03601074	-0.1053186	0	0	0	0
5.177152	0.03587933	-0.105221	-0.007933727	0.005891312	-0.2431068	0.1805228
5.193722	0.03587933	-0.105221	0	0	0.2394472	-0.1778053
5.210289	0.03587933	-0.105221	0	0	0	0
5.226852	0.03587933	-0.105221	0	0	0	0
5.243423	0.03587933	-0.105221	0	0	0	0
5.260019	0.03587933	-0.105221	0	0	0	0
5.276555	0.0357742	-0.1051429	-0.006357597	0.004720662	-0.1918837	0.1424781
5.293121	0.0357742	-0.1051429	0	0	0.1920606	-0.1426094
5.310451	0.0357742	-0.1051429	0	0	0	0
5.326517	0.0356428	-0.1050063	-0.008179323	0.008502322	-0.2449209	0.2545928
5.342876	0.0356428	-0.1050063	0	0	0.2522505	-0.2622118
5.359388	0.0356428	-0.1050063	0	0	0	0
5.37618	0.03443375	-0.1040308	-0.07199986	0.05809105	-2.161915	1.74428
5.392751	0.03443375	-0.1040308	0	0	2.158084	-1.741189
5.409316	0.03443375	-0.1040308	0	0	0	0
5.42592	0.03283031	-0.1028412	-0.09656745	0.07164337	-2.911311	2.159901
5.442986	0.03283031	-0.1028412	0	0	2.868101	-2.127844
5.459018	0.03283031	-0.1028412	0	0	0	0
5.475622	0.03283031	-0.1028412	0	0	0	0
5.492148	0.03283031	-0.1028412	0	0	0	0
5.508718	0.03283031	-0.1028412	0	0	0	0
5.525544	0.03285659	-0.1028217	0.001562234	0.001158834	0.04678008	0.03470053
5.541852	0.03285659	-0.1028217	0	0	-0.04714968	-0.03497469
5.558638	0.03285659	-0.1028217	0	0	0	0
5.574985	0.03285659	-0.1028217	0	0	0	0
5.591551	0.03285659	-0.1028217	0	0	0	0
5.608119	0.03285659	-0.1028217	0	0	0	0
5.624725	0.03285659	-0.1028217	0	0	0	0
5.641252	0.03285659	-0.1028217	0	0	0	0
5.657819	0.03285659	-0.1028217	0	0	0	0
5.674385	0.03285659	-0.1028217	0	0	0	0
5.690969	0.03285659	-0.1028217	0	0	0	0
5.707519	0.03285659	-0.1028217	0	0	0	0
5.724082	0.03283031	-0.1028412	-0.001586925	-0.001177149	-0.04792383	-0.03554894
5.740652	0.03283031	-0.1028412	0	0	0.04789486	0.03552745
5.757218	0.03283031	-0.1028412	0	0	0	0
5.773782	0.03285659	-0.1028607	0.001586925	-0.001176699	0.04789969	-0.03551745
5.790352	0.03285659	-0.1028607	0	0	-0.04789486	0.03551387
5.806919	0.03285659	-0.1028607	0	0	0	0
5.823484	0.03283031	-0.1029192	-0.001586788	-0.003531142	-0.04789279	-0.1065777
5.840052	0.03283031	-0.1029192	0	0	0.04789072	0.1065731
5.856619	0.03283031	-0.1029192	0	0	0	0
5.873186	0.03277773	-0.1029582	-0.003173435	-0.002353824	-0.09577583	-0.07103956
5.889752	0.03277773	-0.1029582	0	0	0.09577721	0.07104059
5.906689	0.03277773	-0.1029582	0	0	0	0
5.922883	0.03275144	-0.1029387	-0.001623368	0.001204011	-0.04899897	0.03634131
5.93975	0.03275144	-0.1029387	0	0	0.04910145	-0.03641731
5.956853	0.03275144	-0.1029387	0	0	0	0
5.972643	0.03275144	-0.1029387	0	0	0	0
5.98921	0.03275144	-0.1029387	0	0	0	0
6.005719	0.03275144	-0.1029387	0	0	0	0
6.022478	0.03275144	-0.1029387	0	0	0	0
6.038852	0.03275144	-0.1029387	0	0	0	0
6.055418	0.03275144	-0.1029387	0	0	0	0
6.071983	0.03275144	-0.1029387	0	0	0	0
6.088552	0.03275144	-0.1029387	0	0	0	0
6.105235	0.03275144	-0.1029387	0	0	0	0
6.121686	0.03272516	-0.1029192	-0.001597826	0.001185235	-0.04822318	0.03577099
6.138251	0.03272516	-0.1029192	0	0	0.04839451	-0.03589808
6.155053	0.03272516	-0.1029192	0	0	0	0
6.171382	0.03272516	-0.1029192	0	0	0	0
6.187952	0.03272516	-0.1029192	0	0	0	0
6.204535	0.03272516	-0.1029192	0	0	0	0
6.221085	0.03272516	-0.1029192	0	0	0	0
6.237652	0.03272516	-0.1029192	0	0	0	0
6.254223	0.03272516	-0.1029192	0	0	0	0
6.271084	0.03272516	-0.1029192	0	0	0	0
6.287583	0.03272516	-0.1029192	0	0	0	0
6.303923	0.03272516	-0.1029192	0	0	0	0
6.320483	0.03275144	-0.1029387	0.00158729	-0.00117742	0.04824542	-0.03578748
6.337057	0.03275144	-0.1029387	0	0	-0.04790589	0.03553563
6.354123	0.03275144	-0.1029387	0	0	0	0
6.370183	0.03272516	-0.1029192	-0.001636631	0.00121402	-0.04940499	0.03664764
6.386754	0.03272516	-0.1029192	0	0	0.0501551	-0.03720405
6.403317	0.03272516	-0.1029192	0	0	0	0
6.419885	0.03275144	-0.1029387	0.001586559	-0.001176878	0.04788797	-0.03552234
6.43645	0.03275144	-0.1029387	0	0	-0.04788452	0.03551978
6.453017	0.03275144	-0.1029387	0	0	0	0
6.469583	0.03254114	-0.1030947	-0.01269483	-0.009416108	-0.3831529	-0.2841951
6.48615	0.03254114	-0.1030947	0	0	0.3831419	0.2841869
6.502717	0.03254114	-0.1030947	0	0	0	0
6.519673	0.02886041	-0.105826	-0.2170837	-0.161088	-6.475741	-4.805356
6.535851	0.02886041	-0.105826	0	0	6.551882	4.861857
6.552417	0.02886041	-0.105826	0	0	0	0
6.568983	-0.002394732	-0.1290035	-1.886727	-1.399113	-56.94481	-42.22775
6.585559	-0.002394732	-0.1290035	0	0	56.92924	42.21621
6.60217	-0.002394732	-0.1290035	0	0	0	0
6.618684	-0.0248107	-0.145806	-1.357328	-1.017428	-40.97543	-30.71443
6.635251	-0.0248107	-0.145806	0	0	41.02977	30.75516
6.651991	-0.0248107	-0.145806	0	0	0	0
6.669261	-0.03035909	-0.1496774	-0.321263	-0.2241581	-9.446019	-6.590867
6.68604	-0.03035909	-0.1496774	0	0	9.435304	6.58339
6.702403	-0.03035909	-0.1496774	0	0	0	0
6.719192	-0.03448632	-0.1464409	-0.2458232	0.1927684	-7.415009	5.814666
6.735575	-0.03448632	-0.1464409	0	0	7.410426	-5.811071
6.752104	-0.03448632	-0.1464409	0	0	0	0
6.768661	-0.0454949	-0.1381019	-0.6648619	0.5036331	-20.09478	15.2218
6.78523	-0.0454949	-0.1381019	0	0	20.07048	-15.2034
6.801797	-0.0454949	-0.1381019	0	0	0	0
6.835882	-0.04927587	-0.1352562	-0.1109297	0.08348926	-2.190056	1.648306
6.852457	-0.04927587	-0.1352562	0	0	2.189726	-1.648058
6.869017	-0.04930212	-0.1352365	-0.001585266	0.001193167	-0.04784272	0.03600933
6.885583	-0.04930212	-0.1352365	0	0	0.04785443	-0.03601815
6.902308	-0.04930212	-0.1352365	0	0	0	0
6.918847	-0.0498009	-0.1347823	-0.03015648	0.02746155	-0.9065889	0.8255715
6.935426	-0.0498009	-0.1347823	0	0	0.91057	-0.8291969
6.952084	-0.0498009	-0.1347823	0	0	0	0
6.968416	-0.05003715	-0.1345651	-0.01446536	0.01329888	-0.4384775	0.4031188
6.984982	-0.05003715	-0.1345651	0	0	0.4396913	-0.4042348
7.001926	-0.05003715	-0.1345651	0	0	0	0
7.018116	-0.05176949	-0.1332623	-0.1070038	0.08047022	-3.22952	2.428701
7.034682	-0.05176949	-0.1332623	0	0	3.26666	-2.456631
7.051299	-0.05176949	-0.1332623	0	0	0	0
7.067816	-0.05176949	-0.1332623	0	0	0	0
7.084383	-0.05176949	-0.1332623	0	0	0	0
7.10109	-0.05176949	-0.1332623	0	0	0	0
7.117516	-0.05179574	-0.1332425	-0.00159779	0.001202028	-0.04822347	0.03627884
7.134082	-0.05179574	-0.1332425	0	0	0.04842908	-0.03643351
7.150877	-0.05179574	-0.1332425	0	0	0	0
7.168072	-0.05179574	-0.1332425	0	0	0	0
7.183782	-0.05179574	-0.1332425	0	0	0	0
7.200349	-0.05179574	-0.1332425	0	0	0	0
7.216916	-0.05176949	-0.1332228	0.001584223	0.001190922	0.04781331	0.03594312
7.233482	-0.05176949	-0.1332228	0	0	-0.047814	-0.03594364
7.250154	-0.05176949	-0.1332228	0	0	0	0
7.266616	-0.05174325	-0.1332425	0.001594226	-0.001198442	0.04811522	-0.03617008
7.283183	-0.05174325	-0.1332425	0	0	-0.04826735	0.03628444
7.29975	-0.05174325	-0.1332425	0	0	0	0
7.316317	-0.05174325	-0.133282	0	-0.002382674	0	-0.07191028
7.332883	-0.05174325	-0.133282	0	0	0	0.07191236
7.349646	-0.05174325	-0.133282	0	0	0	0
7.366016	-0.05174325	-0.133282	0	0	0	0
7.382583	-0.05174325	-0.133282	0	0	0	0
7.399406	-0.05174325	-0.133282	0	0	0	0
7.415716	-0.05174325	-0.133282	0	0	0	0
7.432318	-0.05174325	-0.133282	0	0	0	0
7.448849	-0.05174325	-0.133282	0	0	0	0
7.465416	-0.05174325	-0.133282	0	0	0	0
7.481983	-0.05174325	-0.133282	0	0	0	0
7.498549	-0.05174325	-0.133282	0	0	0	0
7.515115	-0.05174325	-0.133282	0	0	0	0
7.531889	-0.05174325	-0.133282	0	0	0	0
7.548249	-0.05174325	-0.133282	0	0	0	0
7.564816	-0.05174325	-0.133282	0	0	0	0
7.581383	-0.05174325	-0.133282	0	0	0	0
7.59795	-0.05174325	-0.133282	0	0	0	0
7.614515	-0.05176949	-0.1333017	-0.001584268	-0.001190956	-0.04781606	-0.03594519
7.631083	-0.05176949	-0.1333017	0	0	0.04781537	0.03594467
7.647651	-0.05176949	-0.1333017	0	0	0	0
7.664216	-0.05226814	-0.1329663	-0.03010196	0.02025043	-0.9085052	0.6111768
7.680783	-0.05226814	-0.1329663	0	0	0.9085444	-0.6112033
7.697449	-0.05226814	-0.1329663	0	0	0	0
7.713915	-0.06855032	-0.1210575	-0.9888278	0.7232277	-29.8446	21.82831
7.730483	-0.06855032	-0.1210575	0	0	29.93378	-21.89354
7.747049	-0.06855032	-0.1210575	0	0	0	0
7.763618	-0.1128085	-0.09417935	-2.671199	1.62223	-80.61578	48.95828
7.780252	-0.1128085	-0.09417935	0	0	80.45253	-48.85914
7.796947	-0.1128085	-0.09417935	0	0	0	0
7.813316	-0.1874063	-0.09268343	-4.557167	0.09138547	-137.8271	2.763866
7.829884	-0.1874063	-0.09268343	0	0	138.3579	-2.774509
7.84645	-0.1874063	-0.09268343	0	0	0	0
7.867105	-0.241657	-0.09688191	-2.626558	-0.20327	-70.56754	-5.461241
7.883876	-0.241657	-0.09688191	0	0	70.17914	5.431183
7.906892	-0.2534065	-0.09045085	-0.5105021	0.2794232	-12.83078	7.022927
7.923459	-0.2534065	-0.09045085	0	0	12.89725	-7.059306
7.940025	-0.2535545	-0.09033441	-0.008931655	0.007028394	-0.2695656	0.2121235
7.956592	-0.2535545	-0.09033441	0	0	0.2695656	-0.2121235
7.973159	-0.2535545	-0.09033441	0	0	0	0
7.989726	-0.2535298	-0.09039263	0.001489552	-0.003514298	0.04495605	-0.1060648
8.006366	-0.2535298	-0.09039263	0	0	-0.04485728	0.1058318
8.02288	-0.2535298	-0.09039263	0	0	0	0
8.039425	-0.2533078	-0.09056728	0.01341396	-0.01055581	0.4057566	-0.3193011
8.055991	-0.2533078	-0.09056728	0	0	-0.4051139	0.3187953
8.072557	-0.2533078	-0.09056728	0	0	0	0
8.089124	-0.2532339	-0.0906255	0.004466856	-0.003514748	0.1348177	-0.1060814
8.105691	-0.2532339	-0.0906255	0	0	-0.1348139	0.1060784
8.122257	-0.2532339	-0.0906255	0	0	0	0
8.140302	-0.2528885	-0.09089721	0.01913714	-0.01505767	0.5529247	-0.4350577
8.156868	-0.2528885	-0.09089721	0	0	-0.5529247	0.4350577
8.242121	-0.2528885	-0.09089721	0	0	0	0
8.26652	-0.2527652	-0.09099426	0.00505565	-0.003977706	0.0461065	-0.03627587
8.283087	-0.2527652	-0.09099426	0	0	-0.1234108	0.09709765
8.300619	-0.2527652	-0.09099426	0	0	0	0
8.317188	-0.2527652	-0.09099426	0	0	0	0
8.333753	-0.2527652	-0.09099426	0	0	0	0
8.350376	-0.2527899	-0.09097485	-0.001484424	0.00116755	-0.04472793	0.03518002
8.366992	-0.2527899	-0.09097485	0	0	0.04465863	-0.03512552
8.383453	-0.2527899	-0.09097485	0	0	0	0
8.400019	-0.2527899	-0.09097485	0	0	0	0
8.416586	-0.2527899	-0.09097485	0	0	0	0
8.433152	-0.2527899	-0.09097485	0	0	0	0
8.449718	-0.2527652	-0.09095544	0.001489552	0.001172032	0.04495734	0.03537405
8.466286	-0.2527652	-0.09095544	0	0	-0.04495605	-0.03537303
8.482856	-0.2527652	-0.09095544	0	0	0	0
8.499422	-0.2527652	-0.09095544	0	0	0	0
8.515988	-0.2527652	-0.09095544	0	0	0	0
8.532556	-0.2527652	-0.09095544	0	0	0	0
8.549119	-0.2527158	-0.09103308	0.002979618	-0.00468759	0.0899354	-0.141488
8.565688	-0.2527158	-0.09103308	0	0	-0.08993022	0.1414799
8.582256	-0.2527158	-0.09103308	0	0	0	0
8.598886	-0.2526172	-0.09111072	0.005933522	-0.004668773	0.1787294	-0.1406327
8.615388	-0.2526172	-0.09111072	0	0	-0.1790895	0.140916
8.632125	-0.2526172	-0.09111072	0	0	0	0
8.648519	-0.2525925	-0.09113013	0.001505236	-0.001183919	0.04543333	-0.03573485
8.665088	-0.2525925	-0.09113013	0	0	-0.04566468	0.03591681
8.681765	-0.2525925	-0.09113013	0	0	0	0
8.698223	-0.2525678	-0.09114954	0.001499305	-0.001179254	0.0452478	-0.03558893
8.714785	-0.2525678	-0.09114954	0	0	-0.04540593	0.0357133
8.731355	-0.2525678	-0.09114954	0	0	0	0
8.747997	-0.2522224	-0.09142131	0.02075633	-0.01632965	0.6249524	-0.4916695
8.764488	-0.2522224	-0.09142131	0	0	-0.6264454	0.492844
8.781054	-0.2522224	-0.09142131	0	0	0	0
8.797622	-0.2506918	-0.09258633	0.09238466	-0.07032105	2.788255	-2.122355
8.814188	-0.2506918	-0.09258633	0	0	-2.788255	2.122355
8.831467	-0.2506918	-0.09258633	0	0	0	0
8.847499	-0.2478497	-0.09462635	0.177277	-0.1272451	5.321892	-3.819924
8.864171	-0.2478497	-0.09462635	0	0	-5.420592	3.890769
8.880454	-0.2478497	-0.09462635	0	0	0	0
8.899236	-0.2468106	-0.09377129	0.05532062	0.04552624	1.577673	1.29835
8.915807	-0.2468106	-0.09377129	0	0	-1.56482	-1.287772
8.932373	-0.2468106	-0.09377129	0	0	0	0
8.94894	-0.2431946	-0.09093603	0.2182652	0.171137	6.587447	5.165074
8.965507	-0.2431946	-0.09093603	0	0	-6.587447	-5.165074
8.982827	-0.2431946	-0.09093603	0	0	0	0
8.998637	-0.2107195	-0.06589721	2.054084	1.583732	61.99952	47.80262
9.015683	-0.2107195	-0.06589721	0	0	-62.51781	-48.20222
9.031774	-0.2107195	-0.06589721	0	0	0	0
9.048337	-0.1807681	-0.0432722	1.808287	1.365963	55.37752	41.83165
9.064906	-0.1807681	-0.0432722	0	0	-54.57735	-41.22721
9.081503	-0.1807681	-0.0432722	0	0	0	0
9.098039	-0.1735521	-0.03787639	0.4363898	0.3263117	13.17103	9.848673
9.114605	-0.1735521	-0.03787639	0	0	-13.18317	-9.857753
9.131171	-0.1735521	-0.03787639	0	0	0	0
9.147736	-0.1686971	-0.03441139	0.2930985	0.2091842	8.846749	6.313919
9.164305	-0.1686971	-0.03441139	0	0	-8.845985	-6.313374
9.180871	-0.1686971	-0.03441139	0	0	0	0
9.197437	-0.1641414	-0.03129245	0.2749959	0.1882704	8.29987	5.682339
9.214005	-0.1641414	-0.03129245	0	0	-8.29963	-5.682176
9.230571	-0.1641414	-0.03129245	0	0	0	0
9.247135	-0.1539562	-0.03328896	0.6148868	-0.1205306	18.55946	-3.63804
9.263704	-0.1539562	-0.03328896	0	0	-18.55786	3.637726
9.280272	-0.1539562	-0.03328896	0	0	0	0
9.296834	-0.128395	-0.05212115	1.543407	-1.137106	46.58683	-34.32286
9.313404	-0.128395	-0.05212115	0	0	-46.58415	34.32088
9.330358	-0.128395	-0.05212115	0	0	0	0
9.346535	-0.1092735	-0.06587797	1.182006	-0.8503848	35.67714	-25.66762
9.363104	-0.1092735	-0.06587797	0	0	-36.09586	25.96887
9.379815	-0.1092735	-0.06587797	0	0	0	0
9.396237	-0.1046167	-0.06678207	0.2835692	-0.05505317	8.558383	-1.661556
9.412804	-0.1046167	-0.06678207	0	0	-8.59599	1.668857
9.429582	-0.1046167	-0.06678207	0	0	0	0
9.445937	-0.08406457	-0.05189146	1.256584	0.9104335	37.92488	27.47773
9.462504	-0.08406457	-0.05189146	0	0	-38.16767	-27.65363
9.479071	-0.08406457	-0.05189146	0	0	0	0
9.495638	-0.0724519	-0.0435203	0.700942	0.5052846	21.15508	15.24996
9.512204	-0.0724519	-0.0435203	0	0	-21.15508	-15.24996
9.52877	-0.0724519	-0.0435203	0	0	0	0
9.545338	-0.07205923	-0.04380659	0.02370193	-0.01728064	0.7153464	-0.5215456
9.562109	-0.07205923	-0.04380659	0	0	-0.7109469	0.518338
9.579007	-0.07205923	-0.04380659	0	0	0	0
9.595292	-0.06875985	-0.04617433	0.202603	-0.1453946	6.105608	-4.381586
9.611604	-0.06875985	-0.04617433	0	0	-6.215466	4.460423
9.62817	-0.06875985	-0.04617433	0	0	0	0
9.644734	-0.05811869	-0.05394011	0.642413	-0.4688242	19.39029	-14.15077
9.661304	-0.05811869	-0.05394011	0	0	-19.38862	14.14955
9.67787	-0.05811869	-0.05394011	0	0	0	0
9.694436	-0.05528571	-0.05600937	0.1710086	-0.124908	5.161346	-3.769949
9.711003	-0.05528571	-0.05600937	0	0	-5.161198	3.76984
9.728281	-0.05528571	-0.05600937	0	0	0	0
9.744134	-0.05525947	-0.05602854	0.001655039	-0.001209027	0.04995494	-0.03649271
9.760703	-0.05525947	-0.05602854	0	0	-0.0510467	0.03729025
9.777269	-0.05525947	-0.05602854	0	0	0	0
9.793836	-0.05523324	-0.05608604	0.001583773	-0.003470898	0.04780111	-0.1047579
9.810402	-0.05523324	-0.05608604	0	0	-0.04780111	0.1047579
9.826968	-0.05523324	-0.05608604	0	0	0	0
9.843533	-0.05515453	-0.05614354	0.004751416	-0.003471298	0.1434145	-0.104776
9.860102	-0.05515453	-0.05614354	0	0	-0.1434021	0.104767
9.876845	-0.05515453	-0.05614354	0	0	0	0
9.893231	-0.05486593	-0.05635439	0.01761245	-0.01286775	0.5316214	-0.3884055
9.909799	-0.05486593	-0.05635439	0	0	-0.5344677	0.390485
9.926368	-0.05486593	-0.05635439	0	0	0	0
9.942932	-0.04898709	-0.06065143	0.3549088	-0.2594149	10.71148	-7.829383
9.959501	-0.04898709	-0.06065143	0	0	-10.71148	7.829383
9.976353	-0.04898709	-0.06065143	0	0	0	0
9.992634	-0.03834961	-0.06839862	0.6533629	-0.4758383	19.71967	-14.36166
10.0092	-0.03834961	-0.06839862	0	0	-19.89085	14.48633
10.02577	-0.03834961	-0.06839862	0	0	0	0
10.04233	-0.03624728	-0.06993905	0.1268971	-0.09298098	3.829874	-2.806252
10.0589	-0.03624728	-0.06993905	0	0	-3.829874	2.806252
10.07547	-0.03624728	-0.06993905	0	0	0	0
10.09203	-0.03246228	-0.07271398	0.228463	-0.1674947	6.895226	-5.055147
10.10861	-0.03246228	-0.07271398	0	0	-6.893639	5.053983
10.12517	-0.03246228	-0.07271398	0	0	0	0
10.14173	-0.0171299	-0.08401585	0.9254639	-0.6821821	27.93779	-20.59363
10.1583	-0.0171299	-0.08401585	0	0	-27.93136	20.58889
10.17487	-0.0171299	-0.08401585	0	0	0	0
10.19143	-0.003921032	-0.09375186	0.797335	-0.587701	24.065	-17.73787
10.208	-0.003921032	-0.09375186	0	0	-24.065	17.73787
10.22456	-0.003921032	-0.09375186	0	0	0	0
10.24113	-0.004210501	-0.09353814	-0.01747339	0.0129009	-0.5274087	0.3893948
10.2577	-0.004210501	-0.09353814	0	0	0.5273328	-0.3893388
10.27457	-0.004210501	-0.09353814	0	0	0	0
10.29083	-0.004210501	-0.093577	0	-0.002389291	0	-0.07211725
10.3074	-0.004210501	-0.093577	0	0	0	0.07277291
10.32397	-0.004210501	-0.093577	0	0	0	0
10.34053	-0.004210501	-0.093577	0	0	0	0
10.3571	-0.004210501	-0.093577	0	0	0	0
10.37366	-0.004210501	-0.093577	0	0	0	0
10.39059	-0.004210501	-0.093577	0	0	0	0
10.40706	-0.004210501	-0.093577	0	0	0	0
10.42336	-0.004210501	-0.093577	0	0	0	0
10.43993	-0.004210501	-0.093577	0	0	0	0
10.4565	-0.004210501	-0.093577	0	0	0	0
10.47306	-0.004210501	-0.093577	0	0	0	0
10.48963	-0.004289447	-0.09367415	-0.004765457	-0.00586421	-0.1438301	-0.1769924
10.5062	-0.004289447	-0.09367415	0	0	0.1438135	0.176972
10.52293	-0.004289447	-0.09367415	0	0	0	0
10.53933	-0.004394709	-0.09379072	-0.006417123	-0.007107104	-0.1936914	-0.2145175
10.5559	-0.004394709	-0.09379072	0	0	0.1946214	0.2155475
10.57246	-0.004394709	-0.09379072	0	0	0	0
10.58909	-0.004447339	-0.09379072	-0.003165845	0	-0.09538342	0
10.6056	-0.004447339	-0.09379072	0	0	0.09554815	0
10.62216	-0.004447339	-0.09379072	0	0	0	0
10.63873	-0.004447339	-0.09379072	0	0	0	0
10.65552	-0.004447339	-0.09379072	0	0	0	0
10.67186	-0.004447339	-0.09379072	0	0	0	0
10.68843	-0.004447339	-0.09379072	0	0	0	0
10.70577	-0.004447339	-0.09379072	0	0	0	0
10.72156	-0.004447339	-0.09379072	0	0	0	0
10.73813	-0.004473655	-0.09377129	-0.001588587	0.001172999	-0.0490895	0.03624728
10.75469	-0.004473655	-0.09377129	0	0	0.04794778	-0.03540425
10.77126	-0.004473655	-0.09377129	0	0	0	0
10.78783	-0.004473655	-0.09377129	0	0	0	0
10.8044	-0.004473655	-0.09377129	0	0	0	0
10.82096	-0.004473655	-0.09377129	0	0	0	0
10.83753	-0.004473655	-0.09377129	0	0	0	0
10.85409	-0.004473655	-0.09377129	0	0	0	0
10.87087	-0.004473655	-0.09377129	0	0	0	0
10.88737	-0.00449997	-0.09375186	-0.001595078	0.001177814	-0.04794087	0.03539977
10.9038	-0.00449997	-0.09375186	0	0	0.04844211	-0.0357699
10.92036	-0.00449997	-0.09375186	0	0	0	0
10.93693	-0.00449997	-0.09375186	0	0	0	0
10.95349	-0.00449997	-0.09375186	0	0	0	0
10.97006	-0.00449997	-0.09375186	0	0	0	0
10.98663	-0.00449997	-0.09375186	0	0	0	0
11.00319	-0.00449997	-0.09375186	0	0	0	0
11.01976	-0.00449997	-0.09375186	0	0	0	0
11.03633	-0.004526285	-0.09373243	-0.001588495	0.001172932	-0.04794226	0.03540017
11.05289	-0.004526285	-0.09373243	0	0	0.04794364	-0.03540119
11.06946	-0.004526285	-0.09373243	0	0	0	0
11.08607	-0.004526285	-0.09373243	0	0	0	0
11.10259	-0.004526285	-0.09373243	0	0	0	0
11.11916	-0.004526285	-0.09373243	0	0	0	0
11.1364	-0.0045526	-0.09367415	-0.001526176	0.003380375	-0.04514023	0.09998253
11.15299	-0.0045526	-0.09367415	0	0	0.04511987	-0.09993742
11.16954	-0.0045526	-0.09367415	0	0	0	0
11.1861	-0.0045526	-0.09367415	0	0	0	0
11.20281	-0.0045526	-0.09367415	0	0	0	0
11.21924	-0.0045526	-0.09367415	0	0	0	0
11.23583	-0.0045526	-0.09367415	0	0	0	0
11.25238	-0.0045526	-0.09367415	0	0	0	0
11.26894	-0.0045526	-0.09367415	0	0	0	0
11.28966	-0.0045526	-0.09367415	0	0	0	0
11.30623	-0.0045526	-0.09367415	0	0	0	0
11.32323	-0.0045526	-0.09367415	0	0	0	0
11.3398	-0.0045526	-0.09367415	0	0	0	0
11.35665	-0.0045526	-0.09367415	0	0	0	0
11.37293	-0.004526285	-0.09369358	0.001616666	-0.001193754	0.04879671	-0.03603173
11.3895	-0.004526285	-0.09369358	0	0	-0.0492189	0.03634348
11.40606	-0.004526285	-0.09369358	0	0	0	0
11.42263	-0.004526285	-0.09369358	0	0	0	0
11.4392	-0.004526285	-0.09369358	0	0	0	0
11.45576	-0.004526285	-0.09369358	0	0	0	0
11.47233	-0.004526285	-0.09369358	0	0	0	0
11.4889	-0.004526285	-0.09369358	0	0	0	0
11.50546	-0.004526285	-0.09369358	0	0	0	0
11.52594	-0.004526285	-0.09369358	0	0	0	0
11.543	-0.004526285	-0.09369358	0	0	0	0
11.55908	-0.004526285	-0.09369358	0	0	0	0
11.57565	-0.004526285	-0.09369358	0	0	0	0
11.59221	-0.004526285	-0.09369358	0	0	0	0
11.60884	-0.004526285	-0.09369358	0	0	0	0
11.62565	-0.004526285	-0.09369358	0	0	0	0
11.64191	-0.004526285	-0.09369358	0	0	0	0
11.65848	-0.004526285	-0.09369358	0	0	0	0
11.67505	-0.004526285	-0.09369358	0	0	0	0
11.69161	-0.004526285	-0.09369358	0	0	0	0
11.70821	-0.004526285	-0.09369358	0	0	0	0
11.72474	-0.004526285	-0.09369358	0	0	0	0
11.74131	-0.004526285	-0.09369358	0	0	0	0
11.75788	-0.004526285	-0.09369358	0	0	0	0
11.77444	-0.004526285	-0.09369358	0	0	0	0
11.79101	-0.004526285	-0.09369358	0	0	0	0
11.80758	-0.004526285	-0.09369358	0	0	0	0
11.82414	-0.004526285	-0.09369358	0	0	0	0
11.8411	-0.004526285	-0.09369358	0	0	0	0
11.85728	-0.004526285	-0.09369358	0	0	0	0
11.87384	-0.004526285	-0.09369358	0	0	0	0
11.89041	-0.004526285	-0.09369358	0	0	0	0
11.9072	-0.004526285	-0.09369358	0	0	0	0
11.92354	-0.004526285	-0.09369358	0	0	0	0
11.94021	-0.004526285	-0.09369358	0	0	0	0
11.95667	-0.004526285	-0.09369358	0	0	0	0
11.97324	-0.004526285	-0.09369358	0	0	0	0
11.98981	-0.004526285	-0.09369358	0	0	0	0
12.00637	-0.004526285	-0.09369358	0	0	0	0
12.02294	-0.004526285	-0.09369358	0	0	0	0
12.03996	-0.004526285	-0.09369358	0	0	0	0
12.05611	-0.0045526	-0.09367415	-0.001629555	0.001203272	-0.04913482	0.0362814
12.07264	-0.0045526	-0.09367415	0	0	0.0498574	-0.03681495
12.08921	-0.0045526	-0.09367415	0	0	0	0
12.10578	-0.0045526	-0.09367415	0	0	0	0
12.12234	-0.0045526	-0.09367415	0	0	0	0
12.13891	-0.0045526	-0.09367415	0	0	0	0
12.15548	-0.004578915	-0.09365471	-0.001588404	0.001172864	-0.0479395	0.03539813
12.17204	-0.004578915	-0.09365471	0	0	0.0479395	-0.03539813
12.18867	-0.004578915	-0.09365471	0	0	0	0
12.20518	-0.004578915	-0.09365471	0	0	0	0
12.22174	-0.004578915	-0.09365471	0	0	0	0
12.23856	-0.004578915	-0.09365471	0	0	0	0
12.25488	-0.004578915	-0.09365471	0	0	0	0
12.27144	-0.004578915	-0.09365471	0	0	0	0
12.28842	-0.004578915	-0.09365471	0	0	0	0
12.3046	-0.004578915	-0.09365471	0	0	0	0
12.32114	-0.004578915	-0.09365471	0	0	0	0
12.33789	-0.004578915	-0.09365471	0	0	0	0
12.35427	-0.0045526	-0.09367415	0.001606249	-0.001186041	0.04848088	-0.03579788
12.37084	-0.0045526	-0.09367415	0	0	-0.04874466	0.03599265
12.38759	-0.0045526	-0.09367415	0	0	0	0
12.40413	-0.0045526	-0.09367415	0	0	0	0
12.42054	-0.0045526	-0.09367415	0	0	0	0
12.43751	-0.0045526	-0.09367415	0	0	0	0
12.45372	-0.004473655	-0.09365471	0.004869142	0.001198459	0.1467693	0.03612486
12.4704	-0.004473655	-0.09365471	0	0	-0.1480246	-0.03643382
12.48681	-0.004473655	-0.09365471	0	0	0	0
12.50338	0.01613018	-0.07867789	1.243721	0.9040552	37.71469	27.41463
12.51994	0.01613018	-0.07867789	0	0	-37.53775	-27.28601
12.53651	0.01613018	-0.07867789	0	0	0	0
12.55307	0.09296807	-0.02887934	4.638745	3.006365	140.0097	90.74011
12.56964	0.09296807	-0.02887934	0	0	-140.0016	-90.73489
12.58621	0.09296807	-0.02887934	0	0	0	0
12.60278	0.1477573	-0.0205903	3.307277	0.5003567	99.81957	15.10166
12.61934	0.1477573	-0.0205903	0	0	-99.81957	-15.10166
12.63628	0.1477573	-0.0205903	0	0	0	0
12.65247	0.1596558	-0.02637324	0.7345562	-0.357012	22.1715	-10.77589
12.66904	0.1596558	-0.02637324	0	0	-22.41736	10.89538
12.68561	0.1596558	-0.02637324	0	0	0	0
12.70217	0.1673669	-0.03209089	0.465525	-0.3451782	14.05119	-10.4187
12.71874	0.1673669	-0.03209089	0	0	-14.04998	10.4178
12.73574	0.1673669	-0.03209089	0	0	0	0
12.75187	0.1673413	-0.03207188	-0.001587167	0.001178827	-0.04790492	0.03558014
12.76845	0.1673413	-0.03207188	0	0	0.04853499	-0.03604811
12.78501	0.1673413	-0.03207188	0	0	0	0
12.80183	0.1673413	-0.03207188	0	0	0	0
12.81815	0.1673413	-0.03207188	0	0	0	0
12.83523	0.1673413	-0.03207188	0	0	0	0
12.85583	0.1673413	-0.03207188	0	0	0	0
12.8724	0.1673413	-0.03207188	0	0	0	0
12.88896	0.1673413	-0.03207188	0	0	0	0
12.90553	0.1673413	-0.03207188	0	0	0	0
12.9221	0.1673413	-0.03207188	0	0	0	0
12.93866	0.1673157	-0.03205287	-0.001544598	0.001147654	-0.04662143	0.03464024
12.95523	0.1673157	-0.03205287	0	0	0.04661741	-0.03463725
12.97211	0.1673157	-0.03205287	0	0	0	0
12.98861	0.1672902	-0.03207188	-0.001549863	-0.001151565	-0.0464262	-0.03449518
13.00521	0.1672902	-0.03207188	0	0	0.04681807	0.03478635
13.0215	0.1672902	-0.03207188	0	0	0	0
13.03806	0.1672902	-0.03207188	0	0	0	0
13.05463	0.1672902	-0.03207188	0	0	0	0
13.0712	0.1672902	-0.03207188	0	0	0	0
13.08776	0.1673157	-0.03209089	0.001544331	-0.00114768	0.04660936	-0.03463805
13.10459	0.1673157	-0.03209089	0	0	-0.04624729	0.03436898
13.1209	0.1673157	-0.03209089	0	0	0	0
13.13746	0.1672902	-0.03210991	-0.001544687	-0.001147944	-0.04699204	-0.03492245
13.15403	0.1672902	-0.03210991	0	0	0.04662009	0.03464603
13.1706	0.1672902	-0.03210991	0	0	0	0
13.18716	0.1672902	-0.03210991	0	0	0	0
13.20373	0.1672902	-0.03210991	0	0	0	0
13.22079	0.1672902	-0.03210991	0	0	0	0
13.23686	0.1672646	-0.03212892	-0.001591512	-0.001182743	-0.04803609	-0.03569834
13.25343	0.1672646	-0.03212892	0	0	0.04875177	0.0362302
13.27	0.1672646	-0.03212892	0	0	0	0
13.28656	0.167239	-0.03214794	-0.001544598	-0.001147878	-0.04662143	-0.03464703
13.30313	0.167239	-0.03214794	0	0	0.04661741	0.03464403
13.3197	0.167239	-0.03214794	0	0	0	0
13.33666	0.167239	-0.03214794	0	0	0	0
13.35307	0.167239	-0.03214794	0	0	0	0
13.37008	0.167239	-0.03214794	0	0	0	0
13.38626	0.1672134	-0.03216695	-0.00158166	-0.001175422	-0.04766464	-0.0354223
13.40294	0.1672134	-0.03216695	0	0	0.04813499	0.03577184
13.4191	0.1672134	-0.03216695	0	0	0	0
13.43567	0.1671111	-0.03220498	-0.006177681	-0.002295492	-0.1887737	-0.0701442
13.45223	0.1671111	-0.03220498	0	0	0.1864589	0.06928408
13.46883	0.1671111	-0.03220498	0	0	0	0
13.48536	0.1668808	-0.03210991	-0.01392483	0.005748328	-0.4202643	0.1734899
13.50193	0.1668808	-0.03210991	0	0	0.4206517	-0.1736498
13.5185	0.1668808	-0.03210991	0	0	0	0
13.53506	0.1665737	-0.03191978	-0.01853968	0.01147811	-0.5595446	0.34642
13.55163	0.1665737	-0.03191978	0	0	0.5595446	-0.34642
13.5682	0.1665737	-0.03191978	0	0	0	0
13.58476	0.165601	-0.03252823	-0.05873434	-0.03674079	-1.772657	-1.108871
13.60134	0.165601	-0.03252823	0	0	1.772759	1.108935
13.66238	0.165601	-0.03252823	0	0	0	0
13.68112	0.08045752	-0.09470409	-4.542556	-3.317193	-56.93336	-41.57548
13.69769	0.08045752	-0.09470409	0	0	128.6278	93.9302
13.71426	0.08045752	-0.09470409	0	0	0	0
13.73083	0.04226429	-0.1168196	-2.30548	-1.334969	-69.58555	-40.29292
13.74739	0.04226429	-0.1168196	0	0	69.58354	40.29176
13.7643	0.04226429	-0.1168196	0	0	0	0
13.78053	0.006947257	-0.1190358	-2.176467	-0.1365766	-65.6897	-4.122128
13.79709	0.006947257	-0.1190358	0	0	66.36979	4.164805
13.81411	0.006947257	-0.1190358	0	0	0	0
13.83022	-0.01281509	-0.1129018	-1.226318	0.3806294	-37.01461	11.48874
13.84679	-0.01281509	-0.1129018	0	0	37.52006	-11.64562
13.86413	-0.01281509	-0.1129018	0	0	0	0
13.87992	-0.01881357	-0.108443	-0.3797309	0.2822664	-11.46162	8.519798
13.89649	-0.01881357	-0.108443	0	0	11.73248	-8.721132
13.91306	-0.01881357	-0.108443	0	0	0	0
13.92962	-0.01873465	-0.1084625	0.004763525	-0.00117961	0.1437676	-0.03560173
13.94619	-0.01873465	-0.1084625	0	0	-0.1437676	0.03560173
13.96291	-0.01873465	-0.1084625	0	0	0	0
13.97932	-0.0185505	-0.1085993	0.01121779	-0.008332184	0.3385925	-0.2514948
13.99589	-0.0185505	-0.1085993	0	0	-0.3400805	0.2526
14.01246	-0.0185505	-0.1085993	0	0	0	0
14.02902	-0.01810328	-0.1089315	0.02699576	-0.02005363	0.8147806	-0.6052545
14.04566	-0.01810328	-0.1089315	0	0	-0.8129554	0.6038987
14.06225	-0.01810328	-0.1089315	0	0	0	0
14.07872	-0.01776129	-0.1091856	0.02075635	-0.01542016	0.6278373	-0.4664284
14.09529	-0.01776129	-0.1091856	0	0	-0.6281635	0.4666707
14.11186	-0.01776129	-0.1091856	0	0	0	0
14.12842	-0.01702467	-0.109772	0.04447006	-0.03540251	1.342225	-1.068542
14.14499	-0.01702467	-0.109772	0	0	-1.342148	1.068481
14.16156	-0.01702467	-0.109772	0	0	0	0
14.17812	-0.0145516	-0.1116103	0.149309	-0.1109863	4.506804	-3.350054
14.19469	-0.0145516	-0.1116103	0	0	-4.506415	3.349765
14.21126	-0.0145516	-0.1116103	0	0	0	0
14.22783	-0.01460422	-0.1115712	-0.003175641	0.002361061	-0.09584103	0.07125697
14.24439	-0.01460422	-0.1115712	0	0	0.09583551	-0.07125286
14.26096	-0.01460422	-0.1115712	0	0	0	0
14.27776	-0.01465685	-0.1115321	-0.00313184	0.002328939	-0.0938546	0.06979336
14.29409	-0.01465685	-0.1115321	0	0	0.09452456	-0.07029156
14.31066	-0.01465685	-0.1115321	0	0	0	0
14.32755	-0.01465685	-0.1115321	0	0	0	0
14.34379	-0.01465685	-0.1115321	0	0	0	0
14.36036	-0.01465685	-0.1115321	0	0	0	0
14.37692	-0.01465685	-0.1115321	0	0	0	0
14.39349	-0.01465685	-0.1115321	0	0	0	0
14.41039	-0.01465685	-0.1115321	0	0	0	0
14.42663	-0.01463053	-0.1115516	0.001620872	-0.001205313	0.04891943	-0.03637745
14.44319	-0.01463053	-0.1115516	0	0	-0.0494187	0.03674871
14.45976	-0.01463053	-0.1115516	0	0	0	0
14.47632	-0.01460422	-0.1115712	0.001588158	-0.001181027	0.04793346	-0.03564553
14.49302	-0.01460422	-0.1115712	0	0	-0.04774792	0.03550755
14.50946	-0.01460422	-0.1115712	0	0	0	0
14.52602	-0.01460422	-0.1115712	0	0	0	0
14.54259	-0.01460422	-0.1115712	0	0	0	0
14.55916	-0.01460422	-0.1115712	0	0	0	0
14.57572	-0.01460422	-0.1115712	0	0	0	0
14.59229	-0.01460422	-0.1115712	0	0	0	0
14.60886	-0.01460422	-0.1115712	0	0	0	0
14.62542	-0.01460422	-0.1115712	0	0	0	0
14.64199	-0.01460422	-0.1115712	0	0	0	0
14.65856	-0.01460422	-0.1115712	0	0	0	0
14.67512	-0.01460422	-0.1115712	0	0	0	0
14.69169	-0.01460422	-0.1115712	0	0	0	0
14.70826	-0.01460422	-0.1115712	0	0	0	0
14.72482	-0.01460422	-0.1115712	0	0	0	0
14.74184	-0.01460422	-0.1115712	0	0	0	0
14.75796	-0.01460422	-0.1115712	0	0	0	0
14.77452	-0.01460422	-0.1115712	0	0	0	0
14.79109	-0.01460422	-0.1115712	0	0	0	0
14.80801	-0.01460422	-0.1115712	0	0	0	0
14.82422	-0.01460422	-0.1115712	0	0	0	0
14.84079	-0.01460422	-0.1115712	0	0	0	0
14.85743	-0.01460422	-0.1115712	0	0	0	0
14.87764	-0.01457791	-0.1116299	0.001301807	-0.002903882	0.03532721	-0.07880281
14.89461	-0.01457791	-0.1116299	0	0	-0.03501099	0.07809743
14.91078	-0.0145516	-0.1116494	0.001627662	-0.001210361	0.04911869	-0.03652563
14.92734	-0.0145516	-0.1116494	0	0	-0.04972691	0.03697791
14.94391	-0.0145516	-0.1116494	0	0	0	0
14.96065	-0.0145516	-0.1116886	0	-0.002336719	0	-0.07015281
14.97705	-0.0145516	-0.1116886	0	0	0	0.07052232
14.99361	-0.0145516	-0.1116886	0	0	0	0
15.01047	-0.0145516	-0.1116886	0	0	0	0
15.02674	-0.0145516	-0.1116886	0	0	0	0
15.04331	-0.0145516	-0.1116886	0	0	0	0
15.05988	-0.0145516	-0.1116886	0	0	0	0
15.07644	-0.0145516	-0.1116886	0	0	0	0
15.09305	-0.0145516	-0.1116886	0	0	0	0
15.10957	-0.0145516	-0.1116886	0	0	0	0
15.12666	-0.0145516	-0.1116886	0	0	0	0
15.14271	-0.0145516	-0.1116886	0	0	0	0
15.15928	-0.0145516	-0.1116886	0	0	0	0
15.17584	-0.0145516	-0.1116886	0	0	0	0
15.19247	-0.0145516	-0.1116886	0	0	0	0
15.20898	-0.01452529	-0.1117473	0.001593662	-0.003555362	0.04809683	-0.107301
15.22554	-0.01452529	-0.1117473	0	0	-0.04818281	0.1074929
15.24211	-0.01452529	-0.1117473	0	0	0	0
15.25867	-0.01444636	-0.1118842	0.004765353	-0.008268619	0.1438393	-0.2495833
15.27524	-0.01444636	-0.1118842	0	0	-0.1438269	0.2495618
15.29181	-0.01444636	-0.1118842	0	0	0	0
15.30838	-0.01447267	-0.1119429	-0.001588066	-0.003542878	-0.04792932	-0.1069274
15.32494	-0.01447267	-0.1119429	0	0	0.04792932	0.1069274
15.34151	-0.01447267	-0.1119429	0	0	0	0
15.35808	-0.01452529	-0.111982	-0.003176189	-0.002362368	-0.09586034	-0.07129847
15.37464	-0.01452529	-0.111982	0	0	0.0958631	0.07130052
15.39121	-0.01452529	-0.111982	0	0	0	0
15.40777	-0.01620911	-0.1132346	-0.101641	-0.07560869	-3.067707	-2.282006
15.42465	-0.01620911	-0.1132346	0	0	3.039623	2.261114
15.44091	-0.01620911	-0.1132346	0	0	0	0
15.45748	-0.03330347	-0.1259519	-1.031818	-0.7676168	-31.43072	-23.38276
15.47404	-0.03330347	-0.1259519	0	0	31.14123	23.16739
15.49157	-0.03330347	-0.1259519	0	0	0	0
15.51205	-0.04856704	-0.1373704	-0.745147	-0.5574369	-19.60465	-14.66604
15.52862	-0.04856704	-0.1373704	0	0	20.10972	15.04388
15.5457	-0.04982714	-0.1383194	-0.07376689	-0.05555633	-2.192031	-1.650892
15.56227	-0.04982714	-0.1383194	0	0	2.192155	1.650986
15.57884	-0.04982714	-0.1383194	0	0	0	0
15.59571	-0.04977464	-0.1381612	0.003111796	0.00937712	0.09305181	0.2804033
15.61197	-0.04977464	-0.1381612	0	0	-0.0939196	-0.2830184
15.62854	-0.04977464	-0.1381612	0	0	0	0
15.64511	-0.04964339	-0.1379833	0.007922456	0.01074106	0.2391071	0.3241753
15.66167	-0.04964339	-0.1379833	0	0	-0.2391071	-0.3241753
15.67851	-0.04964339	-0.1379833	0	0	0	0
15.69492	-0.04953839	-0.1378646	0.006398505	0.007228651	0.1924481	0.2174165
15.71137	-0.04953839	-0.1378646	0	0	-0.1947044	-0.2199655
15.72794	-0.04953839	-0.1378646	0	0	0	0
15.74451	-0.04948588	-0.1377856	0.003169162	0.004774205	0.09564826	0.14409
15.76107	-0.04948588	-0.1377856	0	0	-0.09564826	-0.14409
15.77764	-0.04948588	-0.1377856	0	0	0	0
15.79421	-0.04945963	-0.1377658	0.001584672	0.001192721	0.04782826	0.03599845
15.81077	-0.04945963	-0.1377658	0	0	-0.04783101	-0.03600052
15.82734	-0.04945963	-0.1377658	0	0	0	0
15.8439	-0.04945963	-0.1377658	0	0	0	0
15.86047	-0.04945963	-0.1377658	0	0	0	0
15.87764	-0.04945963	-0.1377658	0	0	0	0
15.89361	-0.04951213	-0.1377262	-0.003288614	0.002477077	-0.09925628	0.07476264
15.91017	-0.04951213	-0.1377262	0	0	0.1010864	-0.07614117
15.92674	-0.04951213	-0.1377262	0	0	0	0
15.9433	-0.04943338	-0.1375879	0.004754613	0.008354985	0.1435152	0.2521902
15.95987	-0.04943338	-0.1375879	0	0	-0.1434986	-0.2521612
15.97658	-0.04943338	-0.1375879	0	0	0	0
15.993	-0.04940713	-0.1375286	0.001598475	0.003611143	0.04824764	0.1089971
16.00957	-0.04940713	-0.1375286	0	0	-0.04844846	-0.1094508
16.02614	-0.04940713	-0.1375286	0	0	0	0
16.04271	-0.04940713	-0.137489	0	0.002386203	0	0.07201575
16.05983	-0.04940713	-0.137489	0	0	0	-0.0708333
16.07596	-0.04940713	-0.137489	0	0	0	0
16.0924	-0.04938088	-0.1374692	0.001596528	0.00120255	0.04900994	0.03691567
16.10897	-0.04938088	-0.1374692	0	0	-0.04836149	-0.03642725
16.12554	-0.04938088	-0.1374692	0	0	0	0
16.14218	-0.04932837	-0.1374297	0.00315572	0.002376082	0.09503739	0.07155789
16.15867	-0.04932837	-0.1374297	0	0	-0.09524529	-0.07171442
16.17524	-0.04932837	-0.1374297	0	0	0	0
16.19181	-0.04924962	-0.1373704	0.004753196	0.003579343	0.1434518	0.1080248
16.20837	-0.04924962	-0.1373704	0	0	-0.1434435	-0.1080186
16.22496	-0.04924962	-0.1373704	0	0	0	0
16.24151	-0.04917086	-0.1373506	0.004759223	0.001194027	0.1436419	0.03603787
16.25807	-0.04917086	-0.1373506	0	0	-0.1437164	-0.03605655
16.27464	-0.04917086	-0.1373506	0	0	0	0
16.29121	-0.04896084	-0.137153	0.01267687	0.01193102	0.3825888	0.3600788
16.30777	-0.04896084	-0.137153	0	0	-0.3826109	-0.3600995
16.32434	-0.04896084	-0.137153	0	0	0	0
16.3409	-0.04202787	-0.1317827	0.4185713	0.3242269	12.63396	9.786313
16.35747	-0.04202787	-0.1317827	0	0	-12.63323	-9.785749
16.37405	-0.04202787	-0.1317827	0	0	0	0
16.3906	-0.02275923	-0.1173685	1.163861	0.8706424	35.12945	26.27906
16.40718	-0.02275923	-0.1173685	0	0	-35.1335	-26.28209
16.42416	-0.02275923	-0.1173685	0	0	0	0
16.4403	-0.003684194	-0.1032702	1.18171	0.8733984	35.67023	26.36377
16.45706	-0.003684194	-0.1032702	0	0	-35.91631	-26.54564
16.47346	-0.003684194	-0.1032702	0	0	0	0
16.49004	-0.001157894	-0.1013988	0.1524176	0.1129037	4.622589	3.424194
16.50657	-0.001157894	-0.1013988	0	0	-4.603151	-3.409795
16.52334	-0.001157894	-0.1013988	0	0	0	0
16.5399	-0.001157894	-0.1014378	0	-0.002353016	0	-0.07059965
16.55627	-0.001157894	-0.1014378	0	0	0	0.07144601
16.57288	-0.001157894	-0.1014378	0	0	0	0
16.58941	-0.001131578	-0.1014573	0.001592458	-0.001179449	0.04806048	-0.03559586
16.60597	-0.001131578	-0.1014573	0	0	-0.04812143	0.03564099
16.62287	-0.001131578	-0.1014573	0	0	0	0
16.6391	-0.00118421	-0.1015353	-0.003242164	-0.004801691	-0.09785996	-0.144932
16.65567	-0.00118421	-0.1015353	0	0	0.09883867	0.1463815
16.67224	-0.00118421	-0.1015353	0	0	0	0
16.68881	-0.001263157	-0.1015937	-0.004765816	-0.003528893	-0.1438326	-0.1065022
16.70603	-0.001263157	-0.1015937	0	0	0.1410636	0.1044519
16.72194	-0.001263157	-0.1015937	0	0	0	0
16.73851	-0.001289473	-0.1016132	-0.001588601	-0.001176598	-0.04891263	-0.03622716
16.75508	-0.001289473	-0.1016132	0	0	0.0479413	0.03550774
16.77164	-0.001289473	-0.1016132	0	0	0	0
16.78821	-0.001421052	-0.1017496	-0.007943939	-0.008236232	-0.2397762	-0.2485986
16.80478	-0.001421052	-0.1017496	0	0	0.2397486	0.24857
16.82169	-0.001421052	-0.1017496	0	0	0	0
16.84225	-0.001605262	-0.1018861	-0.008962432	-0.006637652	-0.2392148	-0.1771645
16.85882	-0.001605262	-0.1018861	0	0	0.2414147	0.1787937
16.87538	-0.001605262	-0.1018861	0	0	0	0
16.89195	-0.001605262	-0.1018861	0	0	0	0
16.90852	-0.001605262	-0.1018861	0	0	0	0
16.92508	-0.001605262	-0.1018861	0	0	0	0
16.94221	-0.001605262	-0.1018861	0	0	0	0
16.95822	-0.001605262	-0.1018861	0	0	0	0
16.97478	-0.001631577	-0.1019055	-0.001588601	-0.001176598	-0.04876657	-0.03611898
16.99135	-0.001631577	-0.1019055	0	0	0.04794407	0.03550978
17.00792	-0.001631577	-0.1019055	0	0	0	0
17.0248	-0.001631577	-0.1019055	0	0	0	0
17.04105	-0.001631577	-0.1019055	0	0	0	0
17.05762	-0.001631577	-0.1019055	0	0	0	0
17.07418	-0.001657893	-0.1018861	-0.001588784	0.001176733	-0.0479551	0.03551796
17.09075	-0.001657893	-0.1018861	0	0	0.04795234	-0.03551592
17.10732	-0.001657893	-0.1018861	0	0	0	0
17.12392	-0.001684209	-0.1018666	-0.001585504	0.001174299	-0.04780658	0.0354078
17.14047	-0.001684209	-0.1018666	0	0	0.04783134	-0.03542614
17.15702	-0.001684209	-0.1018666	0	0	0	0
17.17358	-0.001684209	-0.1018666	0	0	0	0
17.19015	-0.001684209	-0.1018666	0	0	0	0
17.20699	-0.001684209	-0.1018666	0	0	0	0
17.22329	-0.001684209	-0.1018666	0	0	0	0
17.23985	-0.001684209	-0.1018666	0	0	0	0
17.25686	-0.001684209	-0.1018666	0	0	0	0
17.27299	-0.001684209	-0.1018666	0	0	0	0
17.28962	-0.001684209	-0.1018666	0	0	0	0
17.30612	-0.001684209	-0.1018666	0	0	0	0
17.32269	-0.001710525	-0.1018471	-0.001588418	0.001176462	-0.04803255	0.03557533
17.33925	-0.001710525	-0.1018471	0	0	0.0479413	-0.03550774
17.35618	-0.001710525	-0.1018471	0	0	0	0
17.37239	-0.001842103	-0.1017106	-0.008121621	0.008420926	-0.2451392	0.2541733
17.38895	-0.001842103	-0.1017106	0	0	0.2478359	-0.2569693
17.40552	-0.001842103	-0.1017106	0	0	0	0
17.42208	-0.006973571	-0.09779636	-0.3098074	0.2363214	-9.351081	7.133015
17.43869	-0.006973571	-0.09779636	0	0	9.339252	-7.123991
17.45522	-0.006973571	-0.09779636	0	0	0	0
17.47179	-0.0248896	-0.08426753	-1.081413	0.8166015	-32.67662	24.67491
17.48836	-0.0248896	-0.08426753	0	0	32.63712	-24.64508
17.50508	-0.0248896	-0.08426753	0	0	0	0
17.52149	-0.04276339	-0.06086262	-1.089653	1.426851	-32.88957	43.06741
17.53821	-0.04276339	-0.06086262	0	0	32.89336	-43.07236
17.55462	-0.04276339	-0.06086262	0	0	0	0
17.57119	-0.04391911	-0.01449651	-0.06975957	2.798664	-2.115211	84.85951
17.58776	-0.04391911	-0.01449651	0	0	2.105348	-84.46384
17.60432	-0.04391911	-0.01449651	0	0	0	0
17.62089	-0.04412923	0.02276643	-0.01268272	2.249195	-0.3827653	67.88085
17.63774	-0.04412923	0.02276643	0	0	0.3795319	-67.30743
17.65402	-0.04412923	0.02276643	0	0	0	0
17.67089	-0.04806821	0.04483879	-0.233589	1.308932	-7.047296	39.49002
17.68716	-0.04806821	0.04483879	0	0	7.049729	-39.50366
17.70373	-0.04806821	0.04483879	0	0	0	0
17.72029	-0.06551138	0.05914275	-1.052993	0.8634886	-31.78123	26.06164
17.73686	-0.06551138	0.05914275	0	0	31.78123	-26.06164
17.75342	-0.06551138	0.05914275	0	0	0	0
17.77001	-0.07807779	0.07426275	-0.7574636	0.9113854	-22.84715	27.48984
17.78656	-0.07807779	0.07426275	0	0	22.85898	-27.50408
17.80313	-0.07807779	0.07426275	0	0	0	0
17.81969	-0.06621883	0.08412212	0.7159733	0.5952501	21.6106	17.96675
17.83657	-0.06621883	0.08412212	0	0	-21.40481	-17.79566
17.85286	-0.06621883	0.08412212	0	0	0	0
17.86939	-0.06152751	0.09105627	0.283888	0.419609	8.651422	12.78749
17.88596	-0.06152751	0.09105627	0	0	-8.578126	-12.67915
17.90252	-0.06152751	0.09105627	0	0	0	0
17.91909	-0.05801377	0.09315094	0.2120892	0.1264341	6.400866	3.81579
17.93566	-0.05801377	0.09315094	0	0	-6.400866	-3.81579
17.95223	-0.05801377	0.09315094	0	0	0	0
17.96879	-0.05796132	0.09307746	0.003166743	-0.00443614	0.09558351	-0.1338984
17.98536	-0.05796132	0.09307746	0	0	-0.09557801	0.1338907
18.00199	-0.05796132	0.09307746	0	0	0	0
18.01849	-0.05796132	0.0931142	0	0.002226531	0	0.06720457
18.03506	-0.05796132	0.0931142	0	0	0	-0.06732861
18.05178	-0.05796132	0.0931142	0	0	0	0
18.06819	-0.05796132	0.09307746	0	-0.002238954	0	-0.06757565
18.08476	-0.05796132	0.09307746	0	0	0	0.06789615
18.10133	-0.05796132	0.09307746	0	0	0	0
18.11789	-0.05798755	0.09305909	-0.001583007	-0.001109004	-0.04777525	-0.03346982
18.13486	-0.05798755	0.09305909	0	0	0.04721268	0.0330757
18.15103	-0.05798755	0.09305909	0	0	0	0
18.17343	-0.05796132	0.09304072	0.001170811	-0.0008199001	0.03035366	-0.02125618
18.19	-0.05796132	0.09304072	0	0	-0.03004317	0.02103875
18.20722	-0.05796132	0.09304072	0	0	0	0
18.22313	-0.05796132	0.09304072	0	0	0	0
18.23985	-0.05796132	0.09304072	0	0	0	0
18.25626	-0.05796132	0.09304072	0	0	0	0
18.27283	-0.05796132	0.09304072	0	0	0	0
18.28993	-0.05796132	0.09304072	0	0	0	0
18.31009	-0.05788264	0.09294886	0.003904032	-0.0045576	0.1047833	-0.1223249
18.32666	-0.05788264	0.09294886	0	0	-0.1063126	0.1241103
18.34323	-0.05777773	0.09287538	0.006331749	-0.004434608	0.1910816	-0.133829
18.35979	-0.05777773	0.09287538	0	0	-0.1910816	0.133829
18.37636	-0.05777773	0.09287538	0	0	0	0
18.39292	-0.05767281	0.09272841	0.006332478	-0.008871586	0.1911366	-0.2677758
18.4098	-0.05767281	0.09272841	0	0	-0.1893704	0.2653015
18.42606	-0.05767281	0.09272841	0	0	0	0
18.44262	-0.0573843	0.09245282	0.01741889	-0.016638	0.5306208	-0.506833
18.45919	-0.0573843	0.09245282	0	0	-0.5257334	0.5021647
18.47597	-0.0573843	0.09245282	0	0	0	0
18.49232	-0.05510206	0.09059679	0.139572	-0.1135072	4.212534	-3.425853
18.50889	-0.05510206	0.09059679	0	0	-4.240117	3.448284
18.52546	-0.05510206	0.09059679	0	0	0	0
18.54202	-0.05539065	0.08862965	-0.01741938	-0.1187368	-0.5257178	-3.583483
18.55859	-0.05539065	0.08862965	0	0	0.5257178	3.583483
18.57516	-0.05539065	0.08862965	0	0	0	0
18.59173	-0.04032024	0.07367229	0.9096516	-0.9028276	27.45334	-27.24739
18.60829	-0.04032024	0.07367229	0	0	-27.45334	27.24739
18.62486	-0.04032024	0.07367229	0	0	0	0
18.64142	-0.01152581	0.03124571	1.738436	-2.561464	52.47214	-77.31403
18.65799	-0.01152581	0.03124571	0	0	-52.47214	77.31403
18.67456	-0.01152581	0.03124571	0	0	0	0
18.69112	-0.01265722	-0.01160508	-0.06830798	-2.587074	-2.061658	-78.08255
18.70769	-0.01265722	-0.01160508	0	0	2.061658	78.08255
18.72426	-0.01265722	-0.01160508	0	0	0	0
18.74083	-0.019366	-0.03627666	-0.4049428	-1.48918	-12.2219	-44.94613
18.75739	-0.019366	-0.03627666	0	0	12.2212	44.94354
18.77411	-0.019366	-0.03627666	0	0	0	0
18.79053	-0.02302225	-0.03911485	-0.2227689	-0.1729259	-6.723567	-5.219214
18.80709	-0.02302225	-0.03911485	0	0	6.754675	5.243362
18.82366	-0.02302225	-0.03911485	0	0	0	0
18.84022	-0.02173342	-0.04054448	0.07779378	-0.08629277	2.348091	-2.604621
18.85679	-0.02173342	-0.04054448	0	0	-2.347551	2.604021
18.87367	-0.02173342	-0.04054448	0	0	0	0
18.88992	-0.01160474	-0.04842927	0.623353	-0.4852561	18.81608	-14.64759
18.90653	-0.01160474	-0.04842927	0	0	-18.97338	14.77004
18.92306	-0.01160474	-0.04842927	0	0	0	0
18.94216	-0.006473594	-0.05215943	0.2687244	-0.1953533	7.542639	-5.483236
18.95876	-0.006473594	-0.05215943	0	0	-7.527326	5.472104
18.97587	-0.006473594	-0.05215943	0	0	0	0
18.99663	-0.00639465	-0.05221685	0.003803824	-0.002766792	0.1004583	-0.07307053
19.01319	-0.00639465	-0.05221685	0	0	-0.1019216	0.07413482
19.02976	-0.006236761	-0.05271458	0.00953017	-0.03004273	0.2876211	-0.9066914
19.04633	-0.006236761	-0.05271458	0	0	-0.2876045	0.9066393
19.06289	-0.006236761	-0.05271458	0	0	0	0
19.12782	-0.01615649	-0.09373243	-0.1527983	-0.6318174	-1.875153	-7.753716
19.14439	-0.01615649	-0.09373243	0	0	1.875021	7.753172
19.16193	-0.02062865	-0.1046356	-0.254942	-0.6215503	-7.47347	-18.22037
19.1785	-0.02062865	-0.1046356	0	0	7.47347	18.22037
19.19506	-0.02062865	-0.1046356	0	0	0	0
19.21163	-0.02065496	-0.1046941	-0.001587842	-0.003532984	-0.04792668	-0.1066379
19.2282	-0.02065496	-0.1046941	0	0	0.04792115	0.1066257
19.24476	-0.02065496	-0.1046941	0	0	0	0
19.26133	-0.02065496	-0.1046941	0	0	0	0
19.27789	-0.02065496	-0.1046941	0	0	0	0
19.29446	-0.02065496	-0.1046941	0	0	0	0
19.31103	-0.02068126	-0.1046746	-0.001587729	0.001177811	-0.04791776	0.03554641
19.3276	-0.02068126	-0.1046746	0	0	0.04791776	-0.03554641
19.34416	-0.02068126	-0.1046746	0	0	0	0
19.36073	-0.02065496	-0.1046941	0.001587912	-0.001177947	0.04792604	-0.03555255
19.3773	-0.02065496	-0.1046941	0	0	-0.04792604	0.03555255
19.39386	-0.02065496	-0.1046941	0	0	0	0
19.41043	-0.02065496	-0.1046941	0	0	0	0
19.427	-0.02065496	-0.1046941	0	0	0	0
19.44357	-0.02065496	-0.1046941	0	0	0	0
19.46013	-0.02065496	-0.1046941	0	0	0	0
19.4767	-0.02065496	-0.1046941	0	0	0	0
19.49327	-0.02065496	-0.1046941	0	0	0	0
19.50984	-0.02057604	-0.1047527	0.0047633	-0.003532984	0.1437401	-0.1066134
19.5264	-0.02057604	-0.1047527	0	0	-0.1437732	0.1066379
19.54338	-0.02057604	-0.1047527	0	0	0	0
19.55995	-0.02054974	-0.1048112	0.001587729	-0.003533434	0.04732659	-0.1053236
19.57652	-0.02054974	-0.1048112	0	0	-0.04791776	0.1066392
19.59308	-0.02054974	-0.1048112	0	0	0	0
19.60965	-0.02052343	-0.1048307	0.001587729	-0.001177811	0.04791776	-0.03554641
19.62622	-0.02052343	-0.1048307	0	0	-0.04791776	0.03554641
19.64279	-0.02052343	-0.1048307	0	0	0	0
19.65935	-0.02023408	-0.1050453	0.01746748	-0.01295697	0.5272	-0.3910645
19.67592	-0.02023408	-0.1050453	0	0	-0.5272	0.3910645
19.69249	-0.02023408	-0.1050453	0	0	0	0
19.70905	-0.02007625	-0.1051624	0.009527809	-0.007068131	0.2875664	-0.2133289
19.72562	-0.02007625	-0.1051624	0	0	-0.2875664	0.2133289
19.74243	-0.02007625	-0.1051624	0	0	0	0
19.75875	-0.02010255	-0.1051429	-0.001612156	0.001195847	-0.04865776	0.0360928
19.77532	-0.02010255	-0.1051429	0	0	0.04902465	-0.03636495
19.79189	-0.02010255	-0.1051429	0	0	0	0
19.80845	-0.02007625	-0.1051624	0.001587659	-0.001177676	0.04791288	-0.03554028
19.82502	-0.02007625	-0.1051624	0	0	-0.04791564	0.03554232
19.84169	-0.02007625	-0.1051624	0	0	0	0
19.85815	-0.02004994	-0.105182	0.001598217	-0.001186044	0.04823707	-0.03579694
19.87472	-0.02004994	-0.105182	0	0	-0.04839307	0.03591272
19.89133	-0.02004994	-0.105182	0	0	0	0
19.90785	-0.02007625	-0.1051624	-0.001591945	0.001181389	-0.04804775	0.03565645
19.92442	-0.02007625	-0.1051624	0	0	0.04810868	-0.03570167
19.94099	-0.02007625	-0.1051624	0	0	0	0
19.95755	-0.02007625	-0.1051624	0	0	0	0
19.97412	-0.02007625	-0.1051624	0	0	0	0
19.99069	-0.02007625	-0.1051624	0	0	0	0
20.00725	-0.02007625	-0.1051624	0	0	0	0
20.02382	-0.02007625	-0.1051624	0	0	0	0
20.04044	-0.02007625	-0.1051624	0	0	0	0
20.05701	-0.02007625	-0.1051624	0	0	0	0
20.07368	-0.02007625	-0.1051624	0	0	0	0
20.09009	-0.02007625	-0.1051624	0	0	0	0
20.10665	-0.02007625	-0.1051624	0	0	0	0
20.12322	-0.02007625	-0.1051624	0	0	0	0
20.13979	-0.02007625	-0.1051624	0	0	0	0
20.15635	-0.02007625	-0.1051624	0	0	0	0
20.17321	-0.02007625	-0.1051624	0	0	0	0
20.18979	-0.02007625	-0.1051624	0	0	0	0
20.20638	-0.02007625	-0.1051624	0	0	0	0
20.22292	-0.02007625	-0.1051624	0	0	0	0
20.23949	-0.02007625	-0.1051624	0	0	0	0
20.25605	-0.02007625	-0.1051234	0	0.002355623	0	0.07109283
20.27262	-0.02007625	-0.1051234	0	0	0	-0.07109693
20.28945	-0.02007625	-0.1051234	0	0	0	0
20.30575	-0.02007625	-0.1051234	0	0	0	0
20.32232	-0.02007625	-0.1051234	0	0	0	0
20.33958	-0.02007625	-0.1051234	0	0	0	0
20.35545	-0.02007625	-0.1051234	0	0	0	0
20.37202	-0.02007625	-0.1051234	0	0	0	0
20.38877	-0.02007625	-0.1051234	0	0	0	0
20.40536	-0.02007625	-0.1051234	0	0	0	0
20.42172	-0.02007625	-0.1051234	0	0	0	0
20.43829	-0.02007625	-0.1051234	0	0	0	0
20.45485	-0.02010255	-0.1051039	-0.001588207	0.001178083	-0.04793771	0.0355587
20.47142	-0.02010255	-0.1051039	0	0	0.04793495	-0.03555665
20.48799	-0.02010255	-0.1051039	0	0	0	0
20.50455	-0.02010255	-0.1051039	0	0	0	0
20.52112	-0.02010255	-0.1051039	0	0	0	0
20.53769	-0.02010255	-0.1051039	0	0	0	0
20.55425	-0.02010255	-0.1051039	0	0	0	0
20.57132	-0.02010255	-0.1051039	0	0	0	0
20.58739	-0.02010255	-0.1051039	0	0	0	0
20.60395	-0.02007625	-0.1051234	0.001588207	-0.001178083	0.04866901	-0.03610115
20.62052	-0.02007625	-0.1051234	0	0	-0.04793495	0.03555665
20.63708	-0.02007625	-0.1051234	0	0	0	0
20.65372	-0.02007625	-0.1051234	0	0	0	0
20.67022	-0.02007625	-0.1051234	0	0	0	0
20.68695	-0.02007625	-0.1051234	0	0	0	0
20.70335	-0.02007625	-0.1051234	0	0	0	0
20.71992	-0.02007625	-0.1051234	0	0	0	0
20.73669	-0.02007625	-0.1051234	0	0	0	0
20.75305	-0.02007625	-0.1051234	0	0	0	0
20.76962	-0.02007625	-0.1051234	0	0	0	0
20.78706	-0.02007625	-0.1051234	0	0	0	0
20.80275	-0.02007625	-0.1051234	0	0	0	0
20.81932	-0.02007625	-0.1051234	0	0	0	0
20.83588	-0.02007625	-0.1051234	0	0	0	0
20.85245	-0.02010255	-0.1051039	-0.001587659	0.001177676	-0.04791839	0.03554437
20.86902	-0.02010255	-0.1051039	0	0	0.04791288	-0.03554028
20.88569	-0.02010255	-0.1051039	0	0	0	0
20.90279	-0.02010255	-0.1051039	0	0	0	0
20.91887	-0.02010255	-0.1051039	0	0	0	0
20.93543	-0.02010255	-0.1051039	0	0	0	0
20.95185	-0.02010255	-0.1051039	0	0	0	0
20.96842	-0.02010255	-0.1051039	0	0	0	0
20.985	-0.02010255	-0.1051039	0	0	0	0
21.0025	-0.02010255	-0.1051039	0	0	0	0
21.01811	-0.02010255	-0.1051039	0	0	0	0
21.03468	-0.02010255	-0.1051039	0	0	0	0
21.05125	-0.02007625	-0.1051234	0.001588207	-0.001178083	0.04793495	-0.03555665
21.06782	-0.02007625	-0.1051234	0	0	-0.04793495	0.03555665
21.08477	-0.02007625	-0.1051234	0	0	0	0
21.10095	-0.02007625	-0.1051234	0	0	0	0
21.11752	-0.02007625	-0.1051234	0	0	0	0
21.13408	-0.02007625	-0.1051234	0	0	0	0
21.15065	-0.02010255	-0.1051039	-0.001588024	0.001177947	-0.04792943	0.03555255
21.16722	-0.02010255	-0.1051039	0	0	0.04792667	-0.03555051
21.18378	-0.02010255	-0.1051039	0	0	0	0
21.20035	-0.02010255	-0.1051039	0	0	0	0
21.21692	-0.02010255	-0.1051039	0	0	0	0
21.23348	-0.02010255	-0.1051039	0	0	0	0
21.25005	-0.02010255	-0.1051039	0	0	0	0
21.26662	-0.02010255	-0.1051039	0	0	0	0
21.28319	-0.02010255	-0.1051039	0	0	0	0
21.29976	-0.02012886	-0.1050844	-0.001587546	0.001177676	-0.04790949	0.03554028
21.31632	-0.02012886	-0.1050844	0	0	0.04791225	-0.03554232
21.33319	-0.02012886	-0.1050844	0	0	0	0
21.35137	-0.02012886	-0.1050844	0	0	0	0
21.36794	-0.02012886	-0.1050844	0	0	0	0
21.38451	-0.02012886	-0.1050844	0	0	0	0
21.40108	-0.02010255	-0.1051039	0.001587729	-0.001177811	0.04791776	-0.03554641
21.41764	-0.02010255	-0.1051039	0	0	-0.04791776	0.03554641
21.43421	-0.02010255	-0.1051039	0	0	0	0
21.45078	-0.02012886	-0.1050844	-0.001588095	0.001178083	-0.04793432	0.0355587
21.46734	-0.02012886	-0.1050844	0	0	0.04793156	-0.03555665
21.48391	-0.02012886	-0.1050844	0	0	0	0
21.50395	-0.02012886	-0.1050844	0	0	0	0
21.52052	-0.02012886	-0.1050844	0	0	0	0
21.53709	-0.02012886	-0.1050844	0	0	0	0
21.55365	-0.02012886	-0.1050844	0	0	0	0
21.57022	-0.02012886	-0.1050844	0	0	0	0
21.58678	-0.02012886	-0.1050844	0	0	0	0
21.60335	-0.02012886	-0.1050844	0	0	0	0
21.61992	-0.02012886	-0.1050844	0	0	0	0
21.63648	-0.02012886	-0.1050844	0	0	0	0
21.65305	-0.02012886	-0.1050844	0	0	0	0
21.66962	-0.02012886	-0.1050844	0	0	0	0
21.68619	-0.02012886	-0.1050844	0	0	0	0
21.70276	-0.02012886	-0.1050844	0	0	0	0
21.71932	-0.02012886	-0.1050844	0	0	0	0
21.73589	-0.02012886	-0.1050844	0	0	0	0
21.75246	-0.02012886	-0.1050844	0	0	0	0
21.76902	-0.02012886	-0.1050844	0	0	0	0
21.78559	-0.02012886	-0.1050844	0	0	0	0
21.80217	-0.02012886	-0.1050844	0	0	0	0
21.81886	-0.02012886	-0.1050844	0	0	0	0
21.83529	-0.02012886	-0.1050844	0	0	0	0
21.8528	-0.02012886	-0.1050844	0	0	0	0
21.86842	-0.02012886	-0.1050844	0	0	0	0
21.88499	-0.02012886	-0.1050844	0	0	0	0
21.90156	-0.02012886	-0.1050844	0	0	0	0
21.91813	-0.02012886	-0.1050844	0	0	0	0
21.9348	-0.02012886	-0.1050844	0	0	0	0
21.9513	-0.02012886	-0.1050844	0	0	0	0
21.96782	-0.02012886	-0.1050844	0	0	0	0
21.98445	-0.02012886	-0.1050844	0	0	0	0
22.00099	-0.02012886	-0.1050844	0	0	0	0
22.01781	-0.02012886	-0.1050844	0	0	0	0
22.03411	-0.02012886	-0.1050844	0	0	0	0
22.05066	-0.02012886	-0.1050844	0	0	0	0
22.06722	-0.02012886	-0.1050844	0	0	0	0
22.08417	-0.02012886	-0.1050844	0	0	0	0
22.10056	-0.02012886	-0.1050844	0	0	0	0
22.11692	-0.02012886	-0.1050844	0	0	0	0
22.13349	-0.02012886	-0.1050844	0	0	0	0
22.15014	-0.02012886	-0.1050844	0	0	0	0
22.16662	-0.02012886	-0.1050844	0	0	0	0
22.18319	-0.02015517	-0.1050649	-0.001587842	0.001177811	-0.04804007	0.03563462
22.19976	-0.02015517	-0.1050649	0	0	0.04792115	-0.03554641
22.21632	-0.02015517	-0.1050649	0	0	0	0
22.23289	-0.02015517	-0.1050649	0	0	0	0
22.24975	-0.02015517	-0.1050649	0	0	0	0
22.26602	-0.02015517	-0.1050649	0	0	0	0
22.28259	-0.02018147	-0.1050453	-0.001587546	0.001178125	-0.04833236	0.03586766
22.29916	-0.02018147	-0.1050453	0	0	0.04791225	-0.0355559
22.31572	-0.02018147	-0.1050453	0	0	0	0
22.33229	-0.02018147	-0.1050453	0	0	0	0
22.34886	-0.02018147	-0.1050453	0	0	0	0
22.36546	-0.02018147	-0.1050453	0	0	0	0
22.38199	-0.02018147	-0.1050453	0	0	0	0
22.39856	-0.02018147	-0.1050453	0	0	0	0
22.41513	-0.02018147	-0.1050453	0	0	0	0
22.43169	-0.02018147	-0.1050453	0	0	0	0
22.44826	-0.02018147	-0.1050453	0	0	0	0
22.46483	-0.02018147	-0.1050453	0	0	0	0
22.48139	-0.02020778	-0.1050258	-0.001587842	0.001177811	-0.04792115	0.03554641
22.49799	-0.02020778	-0.1050258	0	0	0.04788532	-0.03551983
22.51485	-0.02020778	-0.1050258	0	0	0	0
22.53109	-0.02073387	-0.1045966	-0.03239666	0.02643348	-0.9785218	0.7984076
22.54803	-0.02073387	-0.1045966	0	0	0.9765527	-0.796801
22.56453	-0.02073387	-0.1045966	0	0	0	0
22.5808	-0.02546818	-0.1010481	-0.2910235	0.218128	-8.881783	6.657076
22.59736	-0.02546818	-0.1010481	0	0	8.863209	-6.643155
22.61394	-0.02546818	-0.1010481	0	0	0	0
22.63056	-0.03892769	-0.09109131	-0.809436	0.5987881	-24.37971	18.03512
22.64738	-0.03892769	-0.09109131	0	0	24.20589	-17.90654
22.6638	-0.03892769	-0.09109131	0	0	0	0
22.6802	-0.05830227	-0.07676572	-1.181284	0.8734432	-35.9889	26.61025
22.69689	-0.05830227	-0.07676572	0	0	35.69231	-26.39095
22.71334	-0.05830227	-0.07676572	0	0	0	0
22.7299	-0.09101104	-0.05273373	-1.974305	1.450574	-59.80843	43.94282
22.74647	-0.09101104	-0.05273373	0	0	59.59151	-43.78344
22.76303	-0.09101104	-0.05273373	0	0	0	0
22.77981	-0.1370822	-0.01896162	-2.746397	2.013225	-82.36959	60.38038
22.79621	-0.1370822	-0.01896162	0	0	82.79586	-60.69286
22.8132	-0.1370822	-0.01896162	0	0	0	0
22.83258	-0.177889	0.01100384	-2.106174	1.546616	-57.90769	42.52307
22.84919	-0.177889	0.01100384	0	0	58.52458	-42.97607
22.86597	-0.177889	0.01100384	0	0	0	0
22.88228	-0.1940786	0.02293472	-0.9927495	0.7316043	-29.99923	22.10786
22.89909	-0.1940786	0.02293472	0	0	29.97504	-22.09003
22.91541	-0.1940786	0.02293472	0	0	0	0
22.93204	-0.1976992	0.02545806	-0.2177873	0.151785	-6.610889	4.607402
22.94855	-0.1976992	0.02545806	0	0	6.572834	-4.580881
22.96513	-0.1976992	0.02545806	0	0	0	0
22.98168	-0.1977498	0.02542069	-0.003055696	-0.002257119	-0.09222108	-0.06812
22.99825	-0.1977498	0.02542069	0	0	0.09224232	0.06813569
23.01482	-0.1977498	0.02542069	0	0	0	0
23.03139	-0.1977751	0.02543937	-0.001527418	0.00112791	-0.04610022	0.03404235
23.04795	-0.1977751	0.02543937	0	0	0.04609757	-0.03404039
23.06452	-0.1977751	0.02543937	0	0	0	0
23.08108	-0.1977498	0.02542069	0.00152777	-0.00112817	0.0461188	-0.03405607
23.09766	-0.1977498	0.02542069	0	0	-0.04610553	0.03404627
23.11422	-0.1977498	0.02542069	0	0	0	0
23.13078	-0.197598	0.02530858	0.009166774	-0.006770249	0.2767175	-0.2043736
23.14735	-0.197598	0.02530858	0	0	-0.2766857	0.20435
23.16455	-0.197598	0.02530858	0	0	0	0
23.18048	-0.197345	0.02512172	0.01587937	-0.01172717	0.4792955	-0.3539673
23.19716	-0.197345	0.02512172	0	0	-0.4870057	0.3596615
23.21362	-0.197345	0.02512172	0	0	0	0
23.23018	-0.1969654	0.02480403	0.02292015	-0.01918226	0.6940085	-0.5808276
23.24676	-0.1969654	0.02480403	0	0	-0.6917314	0.5789218
23.26332	-0.1969654	0.02480403	0	0	0	0
23.27988	-0.19694	0.02471059	0.001528669	-0.005642086	0.04614596	-0.1703177
23.29675	-0.19694	0.02471059	0	0	-0.04572995	0.1687823
23.31302	-0.19694	0.02471059	0	0	0	0
23.32958	-0.1969907	0.02471059	-0.003056791	0	-0.09310631	0
23.34631	-0.1969907	0.02471059	0	0	0.09182073	0
23.36272	-0.1969907	0.02471059	0	0	0	0
23.37928	-0.1969907	0.02471059	0	0	0	0
23.39585	-0.1969907	0.02471059	0	0	0	0
23.41292	-0.1969907	0.02471059	0	0	0	0
23.42898	-0.1969907	0.02471059	0	0	0	0
23.44571	-0.1969907	0.02471059	0	0	0	0
23.46212	-0.1969907	0.02471059	0	0	0	0
23.48284	-0.1968388	0.02456107	0.00732651	-0.00721346	0.1973085	-0.1942639
23.49941	-0.1968388	0.02456107	0	0	-0.1964307	0.1933997
23.51606	-0.1964085	0.02413119	0.02585602	-0.02583184	0.7784988	-0.7777709
23.53255	-0.1964085	0.02413119	0	0	-0.7803362	0.7796065
23.54913	-0.1964085	0.02413119	0	0	0	0
23.56568	-0.1959275	0.02194358	0.02906056	-0.1321661	0.8770998	-3.989011
23.58225	-0.1959275	0.02194358	0	0	-0.8774534	3.990619
23.59882	-0.1959275	0.02194358	0	0	0	0
23.61538	-0.2055299	-0.01597157	-0.5798012	-2.289354	-17.49843	-69.09284
23.63195	-0.2055299	-0.01597157	0	0	17.50146	69.10477
23.64854	-0.2055299	-0.01597157	0	0	0	0
23.66508	-0.2253435	-0.07400603	-1.198017	-3.509027	-36.15831	-105.9087
23.68165	-0.2253435	-0.07400603	0	0	36.18748	105.9942
23.69822	-0.2253435	-0.07400603	0	0	0	0
23.71535	-0.2341013	-0.08275778	-0.5112038	-0.5108481	-15.16969	-15.15913
23.7314	-0.2341013	-0.08275778	0	0	15.40511	15.39439
23.74795	-0.2341013	-0.08275778	0	0	0	0
23.76452	-0.2290656	-0.08670814	0.3039231	-0.238417	9.176114	-7.198341
23.78114	-0.2290656	-0.08670814	0	0	-9.158182	7.184275
23.79777	-0.2290656	-0.08670814	0	0	0	0
23.81426	-0.2037891	-0.1062555	1.532038	-1.18479	46.25032	-35.76734
23.83076	-0.2037891	-0.1062555	0	0	-46.44018	35.91417
23.84732	-0.2037891	-0.1062555	0	0	0	0
23.86388	-0.1899961	-0.1169176	0.832932	-0.6438613	25.14373	-19.43625
23.88047	-0.1899961	-0.1169176	0	0	-25.1307	19.42618
23.89702	-0.1899961	-0.1169176	0	0	0	0
23.91358	-0.1755938	-0.1279202	0.8694237	-0.664197	26.25286	-20.05589
23.93015	-0.1755938	-0.1279202	0	0	-26.24228	20.04781
23.94709	-0.1755938	-0.1279202	0	0	0	0
23.96328	-0.1471394	-0.1495184	1.757783	-1.334239	53.05305	-40.26973
23.97994	-0.1471394	-0.1495184	0	0	-53.52137	40.62521
23.99656	-0.1471394	-0.1495184	0	0	0	0
24.01298	-0.1203109	-0.1698322	1.634047	-1.237249	49.44658	-37.4394
24.02994	-0.1203109	-0.1698322	0	0	-48.96613	37.07562
24.04612	-0.1203109	-0.1698322	0	0	0	0
24.06269	-0.1055016	-0.1809633	0.8940976	-0.6720306	27.30138	-20.52053
24.07925	-0.1055016	-0.1809633	0	0	-26.98858	20.28543
24.09602	-0.1055016	-0.1809633	0	0	0	0
24.11274	-0.1053975	-0.1808827	0.006226115	0.004817976	0.1858928	0.14385
24.12895	-0.1053975	-0.1808827	0	0	-0.189091	-0.1463249
24.14617	-0.1053975	-0.1808827	0	0	0	0
24.16214	-0.1053714	-0.1808626	0.001629198	0.001261194	0.04908734	0.03799948
24.17865	-0.1053714	-0.1808626	0	0	-0.05015671	-0.0388273
24.19525	-0.1053714	-0.1808626	0	0	0	0
24.21178	-0.1039399	-0.1796746	0.08658914	0.07185823	2.613566	2.168936
24.22835	-0.1039399	-0.1796746	0	0	-2.615674	-2.170685
24.24492	-0.1039399	-0.1796746	0	0	0	0
24.26148	-0.1018568	-0.1779842	0.125762	0.1020519	3.795942	3.080287
24.27805	-0.1018568	-0.1779842	0	0	-3.795723	-3.08011
24.29462	-0.1018568	-0.1779842	0	0	0	0
24.31118	-0.1019089	-0.177944	-0.003144702	0.002429036	-0.09491823	0.0733169
24.32775	-0.1019089	-0.177944	0	0	0.0949073	-0.07330846
24.34432	-0.1019089	-0.177944	0	0	0	0
24.36088	-0.1006587	-0.1768178	0.07547361	0.0679827	2.27806	2.051958
24.37745	-0.1006587	-0.1768178	0	0	-2.277798	-2.051722
24.3943	-0.1006587	-0.1768178	0	0	0	0
24.41058	-0.08516194	-0.1650269	0.9514863	0.7239513	28.71757	21.85015
24.42749	-0.08516194	-0.1650269	0	0	-28.66806	-21.81248
24.44372	-0.08516194	-0.1650269	0	0	0	0
24.46028	-0.08016991	-0.1612499	0.3013889	0.2280343	9.190637	6.95374
24.47753	-0.08016991	-0.1612499	0	0	-8.914285	-6.744649
24.49342	-0.08016991	-0.1612499	0	0	0	0
24.51028	-0.08016991	-0.1612499	0	0	0	0
24.5783	-0.08016991	-0.1612499	0	0	0	0
24.59488	-0.08016991	-0.1612499	0	0	0	0
24.61145	-0.08011761	-0.1612899	0.003155844	-0.002409933	0.09521614	-0.072711
24.62801	-0.08011761	-0.1612899	0	0	-0.09523258	0.07272355
24.64483	-0.08011761	-0.1612899	0	0	0	0
24.6624	-0.08014376	-0.1612699	-0.00148747	0.001136055	-0.0432536	0.03303495
24.67897	-0.08014376	-0.1612699	0	0	0.0435653	-0.03327301
24.69554	-0.08014376	-0.1612699	0	0	0	0
24.71256	-0.08014376	-0.1612699	0	0	0	0
24.72867	-0.08014376	-0.1612699	0	0	0	0
24.74524	-0.08014376	-0.1612699	0	0	0	0
24.7618	-0.08014376	-0.1612699	0	0	0	0
24.77846	-0.08014376	-0.1612699	0	0	0	0
24.79494	-0.08014376	-0.1612699	0	0	0	0
24.8115	-0.08011761	-0.1612499	0.001578424	0.001205522	0.0477634	0.03647931
24.82807	-0.08011761	-0.1612499	0	0	-0.04763966	-0.03638481
24.84464	-0.08011761	-0.1612499	0	0	0	0
24.86579	-0.07090724	-0.1542318	0.4354271	0.3317847	11.54375	8.796053
24.88236	-0.07090724	-0.1542318	0	0	-11.54317	-8.795608
24.89893	-0.05352776	-0.1410697	1.049027	0.7944672	31.65788	23.97569
24.91571	-0.05352776	-0.1410697	0	0	-31.4551	-23.82211
24.93206	-0.05352776	-0.1410697	0	0	0	0
24.94863	-0.03306689	-0.1256961	1.235021	0.9279525	37.51704	28.18902
24.9652	-0.03306689	-0.1256961	0	0	-37.273	-28.00566
24.98177	-0.03306689	-0.1256961	0	0	0	0
24.99833	-0.03064829	-0.1238868	0.1459868	0.1092095	4.40589	3.295949
25.0149	-0.03064829	-0.1238868	0	0	-4.40589	-3.295949
25.03147	-0.03064829	-0.1238868	0	0	0	0
25.04803	-0.03064829	-0.1238868	0	0	0	0
25.0646	-0.03064829	-0.1238868	0	0	0	0
25.08117	-0.03064829	-0.1238868	0	0	0	0
25.09773	-0.03064829	-0.1238868	0	0	0	0
25.11431	-0.03064829	-0.1238868	0	0	0	0
25.13087	-0.03064829	-0.1238868	0	0	0	0
25.14747	-0.03067459	-0.1238672	-0.001584206	0.00118476	-0.04777294	0.03572733
25.16401	-0.03067459	-0.1238672	0	0	0.04781144	-0.03575612
25.18057	-0.03067459	-0.1238672	0	0	0	0
25.19719	-0.03067459	-0.1238672	0	0	0	0
25.21389	-0.03067459	-0.1238672	0	0	0	0
25.23027	-0.03067459	-0.1238672	0	0	0	0
25.24683	-0.03077975	-0.1237885	-0.006350581	0.00474851	-0.1927817	0.1441484
25.2634	-0.03077975	-0.1237885	0	0	0.191694	-0.1433351
25.27997	-0.03077975	-0.1237885	0	0	0	0
25.29654	-0.03077975	-0.1237885	0	0	0	0
25.3131	-0.03077975	-0.1237885	0	0	0	0
25.3297	-0.03077975	-0.1237885	0	0	0	0
25.34624	-0.03080604	-0.1236116	-0.001590421	0.01070196	-0.04800453	0.3230231
25.36281	-0.03080604	-0.1236116	0	0	0.04804602	-0.3233022
25.37944	-0.03080604	-0.1236116	0	0	0	0
25.39594	-0.03043796	-0.1231399	0.02231728	0.02860186	0.6736532	0.863355
25.41277	-0.03043796	-0.1231399	0	0	-0.6696436	-0.8582163
25.42907	-0.03043796	-0.1231399	0	0	0	0
25.44712	-0.03041167	-0.1231595	0.001456947	-0.001089175	0.04241546	-0.03170868
25.46378	-0.03041167	-0.1231595	0	0	-0.04197725	0.03138108
25.48035	-0.03041167	-0.1231595	0	0	0	0
25.50692	-0.03038538	-0.1231792	0.0009894609	-0.0007396947	0.02293684	-0.01714697
25.52349	-0.03038538	-0.1231792	0	0	-0.0229338	0.0171447
25.54457	-0.03038538	-0.1231792	0	0	0	0
25.56113	-0.03038538	-0.1231792	0	0	0	0
25.5777	-0.03038538	-0.1231792	0	0	0	0
25.59427	-0.03038538	-0.1231792	0	0	0	0
25.61129	-0.03038538	-0.1231792	0	0	0	0
25.62761	-0.03038538	-0.1231792	0	0	0	0
25.64404	-0.03038538	-0.1231792	0	0	0	0
25.66054	-0.03038538	-0.1231792	0	0	0	0
25.6771	-0.0303328	-0.1232185	0.003174728	-0.002373258	0.09602906	-0.07178624
25.69367	-0.0303328	-0.1232185	0	0	-0.09581899	0.0716292
25.71033	-0.0303328	-0.1232185	0	0	0	0
25.7268	-0.03030651	-0.1232382	0.001596315	-0.001193363	0.04817965	-0.03601783
25.74337	-0.03030651	-0.1232382	0	0	-0.04832152	0.03612389
25.75994	-0.03030651	-0.1232382	0	0	0	0
25.77654	-0.03030651	-0.1232382	0	0	0	0
25.79307	-0.03030651	-0.1232382	0	0	0	0
25.80964	-0.03030651	-0.1232382	0	0	0	0
25.8262	-0.03030651	-0.1232382	0	0	0	0
25.84277	-0.03030651	-0.1232382	0	0	0	0
25.85987	-0.03030651	-0.1232382	0	0	0	0
25.87591	-0.03030651	-0.1232382	0	0	0	0
25.89247	-0.03030651	-0.1232382	0	0	0	0
25.90904	-0.03030651	-0.1232382	0	0	0	0
25.92561	-0.03028022	-0.1232578	0.001586942	-0.001186356	0.04789677	-0.03580635
25.94289	-0.03028022	-0.1232578	0	0	-0.04687935	0.03504576
25.95882	-0.03028022	-0.1232578	0	0	0	0
25.97531	-0.03030651	-0.1232382	-0.001594837	0.001192258	-0.04919711	0.03677846
25.99187	-0.03030651	-0.1232382	0	0	0.04825172	-0.03607171
26.00844	-0.03030651	-0.1232382	0	0	0	0
26.02501	-0.03030651	-0.1232382	0	0	0	0
26.04158	-0.03030651	-0.1232382	0	0	0	0
26.05824	-0.03030651	-0.1232382	0	0	0	0
26.07471	-0.03030651	-0.1232382	0	0	0	0
26.09128	-0.03030651	-0.1232382	0	0	0	0
26.10784	-0.03030651	-0.1232382	0	0	0	0
26.1244	-0.03030651	-0.1232382	0	0	0	0
26.14129	-0.03030651	-0.1232382	0	0	0	0
26.15798	-0.03030651	-0.1232382	0	0	0	0
26.17831	-0.03030651	-0.1232382	0	0	0	0
26.19488	-0.03030651	-0.1232382	0	0	0	0
26.21144	-0.03030651	-0.1232382	0	0	0	0
26.22801	-0.03030651	-0.1232382	0	0	0	0
26.24481	-0.03030651	-0.1232382	0	0	0	0
26.26114	-0.03030651	-0.1232382	0	0	0	0
26.27771	-0.03030651	-0.1232382	0	0	0	0
26.29471	-0.03030651	-0.1232382	0	0	0	0
26.31084	-0.03030651	-0.1232382	0	0	0	0
26.32741	-0.03030651	-0.1232382	0	0	0	0
26.34398	-0.03030651	-0.1232382	0	0	0	0
26.36054	-0.0303328	-0.1232185	-0.001587125	0.001186493	-0.04790228	0.03581048
26.37711	-0.0303328	-0.1232185	0	0	0.04790228	-0.03581048
26.39372	-0.0303328	-0.1232185	0	0	0	0
26.41024	-0.03035909	-0.1231989	-0.001591268	0.001189506	-0.0480301	0.03590349
26.42681	-0.03035909	-0.1231989	0	0	0.04808547	-0.03594488
26.44338	-0.03035909	-0.1231989	0	0	0	0
26.45994	-0.0303328	-0.1232185	0.001587055	-0.001186356	0.0478974	-0.03580429
26.47673	-0.0303328	-0.1232185	0	0	-0.04757969	0.0355668
26.49308	-0.0303328	-0.1232185	0	0	0	0
26.50964	-0.03030651	-0.1232382	0.001587308	-0.001186629	0.04823546	-0.03605955
26.52658	-0.03030651	-0.1232382	0	0	-0.04737058	0.03541299
26.54278	-0.03030651	-0.1232382	0	0	0	0
26.55934	-0.03030651	-0.1232382	0	0	0	0
26.57591	-0.03030651	-0.1232382	0	0	0	0
26.59248	-0.03030651	-0.1232382	0	0	0	0
26.60904	-0.03030651	-0.1232382	0	0	0	0
26.62574	-0.03030651	-0.1232382	0	0	0	0
26.64218	-0.03030651	-0.1232382	0	0	0	0
26.65875	-0.03030651	-0.1232382	0	0	0	0
26.67557	-0.03030651	-0.1232382	0	0	0	0
26.6921	-0.03030651	-0.1232382	0	0	0	0
26.70844	-0.03030651	-0.1232382	0	0	0	0
26.72501	-0.03030651	-0.1232382	0	0	0	0
26.74164	-0.03030651	-0.1232382	0	0	0	0
26.75814	-0.03030651	-0.1232382	0	0	0	0
26.7751	-0.03030651	-0.1232382	0	0	0	0
26.79128	-0.03030651	-0.1232382	0	0	0	0
26.80803	-0.03030651	-0.1232382	0	0	0	0
26.82459	-0.03030651	-0.1232382	0	0	0	0
26.84097	-0.03030651	-0.1232382	0	0	0	0
26.85754	-0.03030651	-0.1232382	0	0	0	0
26.87411	-0.03030651	-0.1232382	0	0	0	0
26.89071	-0.03030651	-0.1232382	0	0	0	0
26.9076	-0.03030651	-0.1232382	0	0	0	0
26.92408	-0.03030651	-0.1232382	0	0	0	0
26.94038	-0.03030651	-0.1232382	0	0	0	0
26.95694	-0.03030651	-0.1232382	0	0	0	0
26.97351	-0.03030651	-0.1232382	0	0	0	0
26.99095	-0.03030651	-0.1232382	0	0	0	0
27.00921	-0.03030651	-0.1232382	0	0	0	0
27.02656	-0.03030651	-0.1232382	0	0	0	0
27.04303	-0.03030651	-0.1232382	0	0	0	0
27.05891	-0.03030651	-0.1232382	0	0	0	0
27.07559	-0.03030651	-0.1232382	0	0	0	0
27.09213	-0.03030651	-0.1232382	0	0	0	0
27.10861	-0.03030651	-0.1232382	0	0	0	0
27.12518	-0.03030651	-0.1232382	0	0	0	0
27.14174	-0.03030651	-0.1232382	0	0	0	0
27.15831	-0.03030651	-0.1232382	0	0	0	0
27.17488	-0.03030651	-0.1232382	0	0	0	0
27.19212	-0.03030651	-0.1232382	0	0	0	0
27.20801	-0.03030651	-0.1232382	0	0	0	0
27.22458	-0.03030651	-0.1232382	0	0	0	0
27.24122	-0.03030651	-0.1232382	0	0	0	0
27.25771	-0.03030651	-0.1232382	0	0	0	0
27.27428	-0.03030651	-0.1232382	0	0	0	0
27.29085	-0.03030651	-0.1232382	0	0	0	0
27.31082	-0.03030651	-0.1232382	0	0	0	0
27.32765	-0.03030651	-0.1232382	0	0	0	0
27.34395	-0.03030651	-0.1232382	0	0	0	0
27.36057	-0.03030651	-0.1232382	0	0	0	0
27.37709	-0.03030651	-0.1232382	0	0	0	0
27.39421	-0.03030651	-0.1232382	0	0	0	0
27.41468	-0.03030651	-0.1232382	0	0	0	0
27.43183	-0.03030651	-0.1232382	0	0	0	0
27.44781	-0.03030651	-0.1232382	0	0	0	0
27.46438	-0.03030651	-0.1232382	0	0	0	0
27.48095	-0.03030651	-0.1232382	0	0	0	0
27.49751	-0.03030651	-0.1232382	0	0	0	0
27.51408	-0.03030651	-0.1232382	0	0	0	0
27.53071	-0.03030651	-0.1232382	0	0	0	0
27.54742	-0.03030651	-0.1232382	0	0	0	0
27.56383	-0.03030651	-0.1232382	0	0	0	0
27.58035	-0.03030651	-0.1232382	0	0	0	0
27.59729	-0.0303328	-0.1231792	-0.001551748	0.003480138	-0.04637801	0.1040129
27.61349	-0.0303328	-0.1231792	0	0	0.04682377	-0.1050126
27.63005	-0.0303328	-0.1231792	0	0	0	0
27.64661	-0.01234148	-0.109772	1.086333	0.8095399	32.79316	24.43759
27.66325	-0.01234148	-0.109772	0	0	-32.72345	-24.38564
27.67975	-0.01234148	-0.109772	0	0	0	0
27.69632	0.06275958	-0.0544956	4.533109	3.33649	137.0857	100.8988
27.71288	0.06275958	-0.0544956	0	0	-136.8095	-100.6955
27.73026	0.06275958	-0.0544956	0	0	0	0
27.7467	0.1062562	-0.0227695	2.645256	1.92943	78.21758	57.05131
27.76258	0.1062562	-0.0227695	0	0	-81.83124	-59.68709
27.77915	0.1062562	-0.0227695	0	0	0	0
27.79615	0.10597	-0.02286428	-0.01684014	-0.005576631	-0.501738	-0.1661511
27.81269	0.10597	-0.02286428	0	0	0.5021661	0.1662928
27.82885	0.10597	-0.02286428	0	0	0	0
27.84541	0.1037576	-0.0204577	-0.1335985	0.1453284	-4.082538	4.440982
27.86198	0.1037576	-0.0204577	0	0	4.032243	-4.386272
27.87855	0.1037576	-0.0204577	0	0	0	0
27.89525	0.1087794	-0.003624498	0.3006586	1.007816	9.03696	30.29215
27.91195	0.1087794	-0.003624498	0	0	-9.001352	-30.17279
27.92825	0.1087794	-0.003624498	0	0	0	0
27.94482	0.1139256	0.01077869	0.3105165	0.8690777	9.446448	26.43884
27.96138	0.1139256	0.01077869	0	0	-9.372487	-26.23184
27.97795	0.1139256	0.01077869	0	0	0	0
27.99452	0.1050591	0.01717102	-0.5349351	0.3856646	-16.14252	11.63804
28.0114	0.1050591	0.01717102	0	0	15.98792	-11.52658
28.02765	0.1050591	0.01717102	0	0	0	0
28.04421	0.1037056	0.01814478	-0.08171997	0.05878942	-2.491122	1.792115
28.06079	0.1037056	0.01814478	0	0	2.465746	-1.77386
28.07734	0.1037056	0.01814478	0	0	0	0
28.09391	0.1036795	0.0181635	-0.001571676	0.001130402	-0.04745241	0.03412934
28.11048	0.1036795	0.0181635	0	0	0.04743602	-0.03411755
28.12712	0.1036795	0.0181635	0	0	0	0
28.14382	0.1036275	0.01820095	-0.003117951	0.002242212	-0.09351321	0.06724816
28.16047	0.1036275	0.01820095	0	0	0.09350251	-0.06724047
28.17679	0.1036275	0.01820095	0	0	0	0
28.19331	0.1012317	0.01999791	-0.1450242	0.1087779	-4.41573	3.312093
28.20988	0.1012317	0.01999791	0	0	4.383147	-3.287653
28.22644	0.1012317	0.01999791	0	0	0	0
28.24309	0.1009452	0.02113925	-0.01721552	0.06857581	-0.5183719	2.064868
28.25981	0.1009452	0.02113925	0	0	0.5159717	-2.055306
28.27614	0.1009452	0.02113925	0	0	0	0
28.29271	0.0899409	0.03044346	-0.6642208	0.5616031	-20.188	17.06909
28.30927	0.0899409	0.03044346	0	0	20.04738	-16.95019
28.32584	0.0899409	0.03044346	0	0	0	0
28.34241	0.07095961	0.0439651	-1.145713	0.8161678	-34.57769	24.63199
28.35897	0.07095961	0.0439651	0	0	34.57968	-24.63341
28.37639	0.07095961	0.0439651	0	0	0	0
28.39211	0.06881224	0.04548927	-0.1366642	0.09700236	-4.12501	2.927874
28.40954	0.06881224	0.04548927	0	0	4.123348	-2.926695
28.42524	0.06881224	0.04548927	0	0	0	0
28.4418	0.06878604	0.04550786	-0.001581572	0.00112208	-0.04901285	0.0347732
28.45837	0.06878604	0.04550786	0	0	0.0477347	-0.03386638
28.47494	0.06878604	0.04550786	0	0	0	0
28.49158	0.06873366	0.04554502	-0.003147025	0.002233134	-0.0947592	0.0672413
28.50807	0.06873366	0.04554502	0	0	0.09498286	-0.0674
28.52464	0.06873366	0.04554502	0	0	0	0
28.54211	0.06776451	0.04623255	-0.05548342	0.03936023	-1.6302	1.156472
28.55777	0.06776451	0.04623255	0	0	1.674589	-1.187962
28.57439	0.06776451	0.04623255	0	0	0	0
28.59091	0.06606162	0.04744007	-0.1031067	0.07311328	-3.111766	2.206563
28.60747	0.06606162	0.04744007	0	0	3.11679	-2.210125
28.62404	0.06606162	0.04744007	0	0	0	0
28.64061	0.06600922	0.04788582	-0.003162866	0.02690595	-0.09545549	0.8120232
28.65735	0.06600922	0.04788582	0	0	0.09494177	-0.807653
28.67374	0.06600922	0.04788582	0	0	0	0
28.69031	0.06611403	0.04796011	0.006326911	0.004484429	0.1920076	0.1360924
28.70687	0.06611403	0.04796011	0	0	-0.1909465	-0.1353403
28.72344	0.06611403	0.04796011	0	0	0	0
28.74001	0.06611403	0.04796011	0	0	0	0
28.75658	0.06611403	0.04796011	0	0	0	0
28.77314	0.06611403	0.04796011	0	0	0	0
28.7899	0.06611403	0.04792297	0	-0.002217307	0	-0.06654689
28.80628	0.06611403	0.04792297	0	0	0	0.06692231
28.82284	0.06611403	0.04792297	0	0	0	0
28.84628	0.06614023	0.04790439	0.001117979	-0.0007925379	0.02795018	-0.01981394
28.86284	0.06614023	0.04790439	0	0	-0.02794884	0.01981299
28.87942	0.06614023	0.04786725	0	-0.002241553	0	-0.06763851
28.89598	0.06614023	0.04786725	0	0	0	0.06764241
28.91257	0.06614023	0.04786725	0	0	0	0
28.92912	0.06572101	0.04738434	-0.02533929	-0.02918857	-0.7646972	-0.880862
28.94568	0.06572101	0.04738434	0	0	0.7653139	0.8815724
28.9624	0.06572101	0.04738434	0	0	0	0
28.97881	0.06446319	0.04634403	-0.07665431	-0.06339949	-2.314098	-1.913951
28.99564	0.06446319	0.04634403	0	0	2.305998	1.907252
29.01195	0.06446319	0.04634403	0	0	0	0
29.02851	0.06399146	0.04604675	-0.02848701	-0.01795224	-0.8667246	-0.5462014
29.04508	0.06399146	0.04604675	0	0	0.8597891	0.5418308
29.06197	0.06399146	0.04604675	0	0	0	0
29.08186	0.0607672	0.04368622	-0.1621215	-0.1186913	-4.40863	-3.227614
29.09842	0.0607672	0.04368622	0	0	4.44715	3.255816
29.11499	0.0607672	0.04368622	0	0	0	0
29.13156	0.05908903	0.0425333	-0.1013178	-0.06960628	-3.057777	-2.100722
29.14813	0.05908903	0.0425333	0	0	3.057249	2.100359
29.16469	0.05908903	0.0425333	0	0	0	0
29.18126	0.04039906	0.02926775	-1.128259	-0.8008028	-34.06268	-24.17663
29.19782	0.04039906	0.02926775	0	0	34.05287	24.16967
29.21439	0.04039906	0.02926775	0	0	0	0
29.23096	0.01834005	0.01357327	-1.331791	-0.9475388	-40.19585	-28.59842
29.24753	0.01834005	0.01357327	0	0	40.19585	28.59842
29.26409	0.01834005	0.01357327	0	0	0	0
29.28066	-0.0117363	-0.008112351	-1.81583	-1.309248	-54.80818	-39.51773
29.29723	-0.0117363	-0.008112351	0	0	54.80502	39.51546
29.31426	-0.0117363	-0.008112351	0	0	0	0
29.33044	-0.05586287	-0.0413263	-2.727544	-2.053015	-82.12362	-61.81423
29.34693	-0.05586287	-0.0413263	0	0	83.49986	62.85012
29.36349	-0.05586287	-0.0413263	0	0	0	0
29.38006	-0.08450877	-0.06226449	-1.72907	-1.263831	-52.18043	-38.14032
29.39676	-0.08450877	-0.06226449	0	0	51.97699	37.99161
29.41344	-0.08450877	-0.06226449	0	0	0	0
29.42976	-0.08652031	-0.06809063	-0.1232615	-0.3570101	-3.735304	-10.8188
29.44634	-0.08652031	-0.06809063	0	0	3.746565	10.85142
29.46297	-0.08652031	-0.06809063	0	0	0	0
29.47966	-0.06648083	-0.08287388	1.200464	-0.8855895	36.02889	-26.57874
29.49603	-0.06648083	-0.08287388	0	0	-36.31158	26.78728
29.5126	-0.06648083	-0.08287388	0	0	0	0
29.52916	-0.05318663	-0.09270286	0.8026242	-0.5934149	24.22464	-17.91033
29.54573	-0.05318663	-0.09270286	0	0	-24.22185	17.90827
29.5623	-0.05318663	-0.09270286	0	0	0	0
29.57886	-0.04940713	-0.09554001	0.2282365	-0.1713297	6.889776	-5.171931
29.59543	-0.04940713	-0.09554001	0	0	-6.888983	5.171336
29.61237	-0.04940713	-0.09554001	0	0	0	0
29.62904	-0.04940713	-0.09554001	0	0	0	0
29.64518	-0.04940713	-0.09554001	0	0	0	0
29.6617	-0.04940713	-0.09554001	0	0	0	0
29.67826	-0.04938088	-0.09555946	0.001584581	-0.001173764	0.04789167	-0.03547531
29.69483	-0.04938088	-0.09555946	0	0	-0.04781725	0.03542018
29.71158	-0.04938088	-0.09555946	0	0	0	0
29.72806	-0.04935462	-0.09557889	0.001593571	-0.001179971	0.0479643	-0.03551549
29.74453	-0.04935462	-0.09557889	0	0	-0.04836692	0.03581361
29.76129	-0.04935462	-0.09557889	0	0	0	0
29.77766	-0.04935462	-0.09557889	0	0	0	0
29.79423	-0.04935462	-0.09557889	0	0	0	0
29.8108	-0.04935462	-0.09557889	0	0	0	0
29.82736	-0.04940713	-0.09546224	-0.003170257	0.007043667	-0.09568956	0.2126028
29.84393	-0.04940713	-0.09546224	0	0	0.09569508	-0.212615
29.86049	-0.04940713	-0.09546224	0	0	0	0
29.87706	-0.04932837	-0.09532615	0.004754291	0.008215494	0.1435013	0.2479726
29.89363	-0.04932837	-0.09532615	0	0	-0.1434848	-0.2479441
29.9102	-0.04932837	-0.09532615	0	0	0	0
29.92676	-0.0490921	-0.0951123	0.01426123	0.0129078	0.4304048	0.3895583
29.94333	-0.0490921	-0.0951123	0	0	-0.4304048	-0.3895583
29.96024	-0.0490921	-0.0951123	0	0	0	0
30.03128	-0.04854079	-0.0950151	0.00776095	0.001368299	0.08824683	0.01555841
30.04883	-0.04854079	-0.0950151	0	0	-0.08760276	-0.01544486
30.06879	-0.04835701	-0.09515118	0.009208789	-0.006818671	0.2454903	-0.1817739
30.08536	-0.04835701	-0.09515118	0	0	-0.2521179	0.1866813
30.10192	-0.04835701	-0.09515118	0	0	0	0
30.11849	-0.04835701	-0.09515118	0	0	0	0
30.13506	-0.04835701	-0.09515118	0	0	0	0
30.15163	-0.04835701	-0.09515118	0	0	0	0
30.16819	-0.04835701	-0.09515118	0	0	0	0
30.18476	-0.04835701	-0.09515118	0	0	0	0
30.20133	-0.04835701	-0.09515118	0	0	0	0
30.22157	-0.04833075	-0.09513174	0.001297175	0.0009603662	0.03524166	0.02609123
30.23814	-0.04833075	-0.09513174	0	0	-0.03523801	-0.02608852
30.25484	-0.04833075	-0.09513174	0	0	0	0
30.27127	-0.04833075	-0.09513174	0	0	0	0
30.2879	-0.04833075	-0.09513174	0	0	0	0
30.3044	-0.04833075	-0.09513174	0	0	0	0
30.32097	-0.04833075	-0.09513174	0	0	0	0
30.338	-0.04833075	-0.09513174	0	0	0	0
30.3541	-0.0483045	-0.0951123	0.001630767	0.001207513	0.04922231	0.036447
30.37067	-0.0483045	-0.0951123	0	0	-0.04992068	-0.03696411
30.38724	-0.0483045	-0.0951123	0	0	0	0
30.4038	-0.04822574	-0.09509286	0.004754193	0.001173314	0.1434818	0.03541069
30.42052	-0.04822574	-0.09509286	0	0	-0.142865	-0.03525847
30.43694	-0.04822574	-0.09509286	0	0	0	0
30.4535	-0.04363019	-0.09845807	0.2773878	-0.2031241	8.408366	-6.157235
30.47007	-0.04363019	-0.09845807	0	0	-8.371581	6.130298
30.48664	-0.04363019	-0.09845807	0	0	0	0
30.50321	-0.01918186	-0.1165451	1.475704	-1.091736	44.53685	-32.94867
30.51977	-0.01918186	-0.1165451	0	0	-44.53685	32.94867
30.5367	-0.01918186	-0.1165451	0	0	0	0
30.5529	-0.007368288	-0.1253224	0.7290152	-0.5416437	22.00552	-16.34966
30.56947	-0.007368288	-0.1253224	0	0	-22.24372	16.52664
30.58604	-0.007368288	-0.1253224	0	0	0	0
30.6026	-0.00557889	-0.1266603	0.1080207	-0.08076785	3.260447	-2.437859
30.61917	-0.00557889	-0.1266603	0	0	-3.260072	2.437578
30.63574	-0.00557889	-0.1266603	0	0	0	0
30.65265	-0.005605204	-0.1266406	-0.001556304	0.001164164	-0.0464903	0.0347762
30.66887	-0.005605204	-0.1266406	0	0	0.04697474	-0.03513858
30.68544	-0.005605204	-0.1266406	0	0	0	0
30.702	-0.005552575	-0.1265619	0.003177483	0.004752814	0.09590214	0.1434485
30.71857	-0.005552575	-0.1265619	0	0	-0.09590214	-0.1434485
30.73514	-0.005552575	-0.1265619	0	0	0	0
30.75171	-0.00557889	-0.1265029	-0.001588376	0.003563565	-0.04793727	0.1075486
30.76827	-0.00557889	-0.1265029	0	0	0.04793727	-0.1075486
30.78502	-0.00557889	-0.1265029	0	0	0	0
30.8014	-0.00552626	-0.1264241	0.003213002	0.004805943	0.09697976	0.1450603
30.81798	-0.00552626	-0.1264241	0	0	-0.09750179	-0.1458412
30.83957	-0.00552626	-0.1264241	0	0	0	0
30.85643	-0.005499945	-0.1264045	0.001560705	0.001166572	0.04058824	0.03033829
30.87899	-0.005499945	-0.1264045	0	0	-0.03958487	-0.02958831
30.89557	-0.005499945	-0.1264045	0	0	0	0
30.91213	-0.005315739	-0.1262273	0.01112122	0.01069316	0.3356197	0.3227015
30.9287	-0.005315739	-0.1262273	0	0	-0.3356197	-0.3227015
30.94527	-0.005315739	-0.1262273	0	0	0	0
30.96183	-0.005315739	-0.1262273	0	0	0	0
30.9786	-0.005315739	-0.1262273	0	0	0	0
30.99497	-0.005315739	-0.1262273	0	0	0	0
31.01153	-0.005315739	-0.1262273	0	0	0	0
31.02837	-0.005315739	-0.1262273	0	0	0	0
31.04473	-0.005315739	-0.1262273	0	0	0	0
31.06139	-0.005289424	-0.1262077	0.001579285	0.00118046	0.04783086	0.0357519
31.0778	-0.005289424	-0.1262077	0	0	-0.04775086	-0.03569211
31.09437	-0.005289424	-0.1262077	0	0	0	0
31.11093	-0.005289424	-0.1262077	0	0	0	0
31.1275	-0.005289424	-0.1262077	0	0	0	0
31.14407	-0.005289424	-0.1262077	0	0	0	0
31.16063	-0.005315739	-0.1262273	-0.001588376	-0.001187255	-0.04794003	-0.0358335
31.1775	-0.005315739	-0.1262273	0	0	0.04750521	0.03550848
31.19424	-0.005315739	-0.1262273	0	0	0	0
31.21033	-0.005289424	-0.126247	0.001635253	-0.001223221	0.04980791	-0.03725788
31.22697	-0.005289424	-0.126247	0	0	-0.04996175	0.03737295
31.2439	-0.005289424	-0.126247	0	0	0	0
31.26003	-0.005289424	-0.126247	0	0	0	0
31.27674	-0.005289424	-0.126247	0	0	0	0
31.29317	-0.005289424	-0.126247	0	0	0	0
31.30973	-0.005289424	-0.126247	0	0	0	0
31.3263	-0.005289424	-0.126247	0	0	0	0
31.34286	-0.005289424	-0.126247	0	0	0	0
31.35943	-0.005289424	-0.126247	0	0	0	0
31.37619	-0.005289424	-0.126247	0	0	0	0
31.39256	-0.005289424	-0.126247	0	0	0	0
31.40913	-0.005289424	-0.126247	0	0	0	0
31.42572	-0.005289424	-0.126247	0	0	0	0
31.44226	-0.005289424	-0.126247	0	0	0	0
31.45883	-0.005289424	-0.126247	0	0	0	0
31.4755	-0.005289424	-0.126247	0	0	0	0
31.49197	-0.005289424	-0.126247	0	0	0	0
31.50853	-0.005315739	-0.1262273	-0.001588741	0.001188428	-0.0481006	0.03598075
31.5251	-0.005315739	-0.1262273	0	0	0.04795383	-0.03587097
31.54166	-0.005315739	-0.1262273	0	0	0	0
31.55823	-0.005315739	-0.1262273	0	0	0	0
31.5748	-0.005315739	-0.1262273	0	0	0	0
31.59223	-0.005315739	-0.1262273	0	0	0	0
31.60793	-0.005315739	-0.1262273	0	0	0	0
31.6245	-0.005315739	-0.1262273	0	0	0	0
31.64106	-0.005315739	-0.1262273	0	0	0	0
31.65763	-0.005315739	-0.1262273	0	0	0	0
31.67419	-0.005315739	-0.1262273	0	0	0	0
31.69076	-0.005315739	-0.1262273	0	0	0	0
31.70779	-0.005315739	-0.1262273	0	0	0	0
31.72415	-0.005315739	-0.1262273	0	0	0	0
31.74046	-0.005315739	-0.1262273	0	0	0	0
31.75703	-0.005289424	-0.1262077	0.001588559	0.001187392	0.04831268	0.03611204
31.7736	-0.005289424	-0.1262077	0	0	-0.04794279	-0.03583556
31.79024	-0.005289424	-0.1262077	0	0	0	0
31.80673	-0.005315739	-0.126188	-0.001595724	0.001193652	-0.04816737	0.0360307
31.8233	-0.005315739	-0.126188	0	0	0.04826741	-0.03610554
31.83986	-0.005315739	-0.126188	0	0	0	0
31.85669	-0.005315739	-0.126188	0	0	0	0
31.87323	-0.005315739	-0.126188	0	0	0	0
31.88979	-0.005315739	-0.126188	0	0	0	0
31.90652	-0.005315739	-0.126188	0	0	0	0
31.92324	-0.005315739	-0.126188	0	0	0	0
31.93926	-0.005315739	-0.126188	0	0	0	0
31.95583	-0.005315739	-0.1261486	0	0.00237541	0	0.07288577
31.97239	-0.005315739	-0.1261486	0	0	0	-0.07169415
31.98896	-0.005315739	-0.1261486	0	0	0	0
32.00553	-0.005315739	-0.1261486	0	0	0	0
32.02209	-0.005315739	-0.1261486	0	0	0	0
32.03868	-0.005315739	-0.1261486	0	0	0	0
32.05528	-0.005315739	-0.1261486	0	0	0	0
32.07193	-0.005315739	-0.1261486	0	0	0	0
32.08836	-0.005315739	-0.1261486	0	0	0	0
32.10493	-0.005289424	-0.1261683	0.001588376	-0.001188155	0.04813122	-0.03600366
32.1215	-0.005289424	-0.1261683	0	0	-0.04793727	0.03585858
32.13832	-0.005289424	-0.1261683	0	0	0	0
32.15463	-0.005289424	-0.1261683	0	0	0	0
32.1712	-0.005289424	-0.1261683	0	0	0	0
32.18777	-0.005289424	-0.1261683	0	0	0	0
32.20813	-0.005289424	-0.1261683	0	0	0	0
32.2247	-0.005289424	-0.1261683	0	0	0	0
32.24126	-0.005315739	-0.1261486	-0.001588741	0.001188428	-0.04794831	0.03586684
32.25785	-0.005315739	-0.1261486	0	0	0.04792624	-0.03585033
32.27474	-0.005315739	-0.1261486	0	0	0	0
32.29096	-0.005289424	-0.126129	0.001621988	0.00121238	0.04898554	0.03661498
32.30753	-0.005289424	-0.126129	0	0	-0.04945847	-0.03696848
32.3241	-0.005289424	-0.126129	0	0	0	0
32.34077	-0.005263109	-0.1261093	0.001578201	0.001180544	0.04747714	0.0355144
32.35723	-0.005263109	-0.1261093	0	0	-0.04763019	-0.03562888
32.37427	-0.005263109	-0.1261093	0	0	0	0
32.39037	-0.005263109	-0.1260699	0	0.002444067	0	0.07376208
32.40694	-0.005263109	-0.1260699	0	0	0	-0.07481287
32.42354	-0.005263109	-0.1260699	0	0	0	0
32.44036	-0.005236794	-0.1260896	0.001564599	-0.001170369	0.04681545	-0.03501942
32.45666	-0.005236794	-0.1260896	0	0	-0.047236	0.03533401
32.4732	-0.005236794	-0.1260896	0	0	0	0
32.48977	-0.005236794	-0.1260896	0	0	0	0
32.50634	-0.005236794	-0.1260896	0	0	0	0
32.52332	-0.005236794	-0.1260896	0	0	0	0
32.53947	-0.005236794	-0.1260896	0	0	0	0
32.55604	-0.005236794	-0.1260896	0	0	0	0
32.57261	-0.005236794	-0.1260896	0	0	0	0
32.58917	-0.005210479	-0.1260699	0.001588376	0.001188155	0.04793727	0.03585858
32.60574	-0.005210479	-0.1260699	0	0	-0.04793727	-0.03585858
32.62268	-0.005210479	-0.1260699	0	0	0	0
32.63887	-0.005131534	-0.1259322	0.004876312	0.008507415	0.1471674	0.2567543
32.65544	-0.005131534	-0.1259322	0	0	-0.1488641	-0.2597144
32.672	-0.005131534	-0.1259322	0	0	0	0
32.68857	-0.004973643	-0.1257748	0.009530311	0.009499841	0.2876585	0.2867388
32.70514	-0.004973643	-0.1257748	0	0	-0.2875922	-0.2866728
32.72237	-0.004973643	-0.1257748	0	0	0	0
32.73827	-0.004947328	-0.1257551	0.001655066	0.001238041	0.0499615	0.03737277
32.75484	-0.004947328	-0.1257551	0	0	-0.05097106	-0.03812795
32.77141	-0.004947328	-0.1257551	0	0	0	0
32.78798	-0.004947328	-0.1257551	0	0	0	0
32.80464	-0.004947328	-0.1257551	0	0	0	0
32.82122	-0.004947328	-0.1257551	0	0	0	0
32.83768	-0.004947328	-0.1257551	0	0	0	0
32.85438	-0.004947328	-0.1257551	0	0	0	0
32.87081	-0.004947328	-0.1257551	0	0	0	0
32.88738	-0.004947328	-0.1257551	0	0	0	0
32.90395	-0.004947328	-0.1257551	0	0	0	0
32.92051	-0.004947328	-0.1257551	0	0	0	0
32.93708	-0.004947328	-0.1257551	0	0	0	0
32.95365	-0.004947328	-0.1257551	0	0	0	0
32.97021	-0.004947328	-0.1257551	0	0	0	0
32.98678	-0.004947328	-0.1257551	0	0	0	0
33.00335	-0.004947328	-0.1257551	0	0	0	0
33.01992	-0.004947328	-0.1257551	0	0	0	0
33.03648	-0.004947328	-0.1257551	0	0	0	0
33.05305	-0.004947328	-0.1257551	0	0	0	0
33.06982	-0.004947328	-0.1257551	0	0	0	0
33.08645	-0.004947328	-0.1257551	0	0	0	0
33.10275	-0.004947328	-0.1257551	0	0	0	0
33.11932	-0.004947328	-0.1257551	0	0	0	0
33.13588	-0.004947328	-0.1257551	0	0	0	0
33.15245	-0.004947328	-0.1257551	0	0	0	0
33.16921	-0.004947328	-0.1257551	0	0	0	0
33.18568	-0.004947328	-0.1257551	0	0	0	0
33.20215	-0.004947328	-0.1257551	0	0	0	0
33.21872	-0.004947328	-0.1257551	0	0	0	0
33.23528	-0.004947328	-0.1257551	0	0	0	0
33.25185	-0.004947328	-0.1257551	0	0	0	0
33.26842	-0.004947328	-0.1257551	0	0	0	0
33.28498	-0.004947328	-0.1257551	0	0	0	0
33.30155	-0.004947328	-0.1257551	0	0	0	0
33.31829	-0.004947328	-0.1257551	0	0	0	0
33.33468	-0.004947328	-0.1257551	0	0	0	0
33.35143	-0.004947328	-0.1257551	0	0	0	0
33.36822	-0.004947328	-0.1257551	0	0	0	0
33.38438	-0.004947328	-0.1257551	0	0	0	0
33.40095	-0.004947328	-0.1257551	0	0	0	0
33.41787	-0.004947328	-0.1257551	0	0	0	0
33.43408	-0.004947328	-0.1257551	0	0	0	0
33.45065	-0.004947328	-0.1257551	0	0	0	0
33.46727	-0.004947328	-0.1257551	0	0	0	0
33.48378	-0.004947328	-0.1257551	0	0	0	0
33.50053	-0.004947328	-0.1257551	0	0	0	0
33.5173	-0.004947328	-0.1257551	0	0	0	0
33.53812	-0.0001052632	-0.1221771	0.2325184	0.1718203	6.185642	4.5709
33.55469	-0.0001052632	-0.1221771	0	0	-6.217823	-4.59468
33.57126	0.01991842	-0.107349	1.208632	0.8950246	36.47238	27.00879
33.58783	0.01991842	-0.107349	0	0	-36.47658	-27.0119
33.60439	0.01991842	-0.107349	0	0	0	0
33.62099	0.06089829	-0.07717121	2.468435	1.817767	74.42039	54.80354
33.63753	0.06089829	-0.07717121	0	0	-74.49751	-54.86033
33.65409	0.06089829	-0.07717121	0	0	0	0
33.67066	0.07922854	-0.06387845	1.106671	0.8025374	33.40324	24.22342
33.68723	0.07922854	-0.06387845	0	0	-33.40324	-24.22342
33.7038	0.07922854	-0.06387845	0	0	0	0
33.72079	0.09844391	-0.05034158	1.130429	0.796367	33.67447	23.72305
33.73714	0.09844391	-0.05034158	0	0	-33.90564	-23.88591
33.7535	0.09844391	-0.05034158	0	0	0	0
33.77007	0.1227223	-0.03268036	1.465445	1.066033	44.50389	32.37421
33.78663	0.1227223	-0.03268036	0	0	-44.23231	-32.17664
33.8032	0.1227223	-0.03268036	0	0	0	0
33.81976	0.1288609	-0.02825263	0.3706147	0.2673202	11.18646	8.068667
33.83633	0.1288609	-0.02825263	0	0	-11.18646	-8.068667
33.85289	0.1288609	-0.02825263	0	0	0	0
33.86946	0.1290421	-0.02838556	0.01093786	-0.008025491	0.3301433	-0.2422377
33.88602	0.1290421	-0.02838556	0	0	-0.3301433	0.2422377
33.90276	0.1290421	-0.02838556	0	0	0	0
33.91926	0.1290162	-0.02836657	-0.001569185	0.001151255	-0.04721677	0.03464126
33.93573	0.1290162	-0.02836657	0	0	0.04760473	-0.03492589
33.9523	0.1290162	-0.02836657	0	0	0	0
33.96886	0.1289903	-0.02834758	-0.00156214	0.001146859	-0.04715091	0.03461626
33.98582	0.1289903	-0.02834758	0	0	0.04659297	-0.03420665
34.00216	0.1289903	-0.02834758	0	0	0	0
34.01855	0.1289645	-0.02832859	-0.001579045	0.001158489	-0.04824442	0.03539522
34.0352	0.1289645	-0.02832859	0	0	0.04779323	-0.03506419
34.05169	0.1289645	-0.02832859	0	0	0	0
34.06825	0.1289903	-0.02834758	0.00156268	-0.001146483	0.04728153	-0.03468877
34.08482	0.1289903	-0.02834758	0	0	-0.0471672	0.0346049
34.10139	0.1289903	-0.02834758	0	0	0	0
34.11795	0.1290162	-0.02836657	0.001561421	-0.001146331	0.04712377	-0.03459634
34.13452	0.1290162	-0.02836657	0	0	-0.04712377	0.03459634
34.15109	0.1290162	-0.02836657	0	0	0	0
34.16766	0.1292232	-0.02851849	0.01249676	-0.009170199	0.377153	-0.2767572
34.18422	0.1292232	-0.02851849	0	0	-0.377153	0.2767572
34.20079	0.1292232	-0.02851849	0	0	0	0
34.21735	0.140412	-0.03675269	0.6753549	-0.4970169	20.3846	-15.00173
34.23405	0.140412	-0.03675269	0	0	-20.30045	14.9398
34.25049	0.140412	-0.03675269	0	0	0	0
34.26714	0.1529024	-0.04596421	0.7501244	-0.5532067	22.67273	-16.72084
34.28362	0.1529024	-0.04596421	0	0	-22.6388	16.69581
34.30025	0.1529024	-0.04596421	0	0	0	0
34.31683	0.161861	-0.052638	0.5403649	-0.4025525	16.27452	-12.12393
34.33332	0.161861	-0.052638	0	0	-16.33646	12.17007
34.34989	0.161861	-0.052638	0	0	0	0
34.36646	0.1720709	-0.0602867	0.616271	-0.4616766	18.59909	-13.93343
34.38339	0.1720709	-0.0602867	0	0	-18.39787	13.78268
34.39959	0.1720709	-0.0602867	0	0	0	0
34.41615	0.1841783	-0.06941906	0.7309725	-0.5513573	22.30994	-16.82792
34.43272	0.1841783	-0.06941906	0	0	-22.06334	16.64191
34.4493	0.1841783	-0.06941906	0	0	0	0
34.46585	0.1867458	-0.07136471	0.1551541	-0.1175747	4.6831	-3.54882
34.48244	0.1867458	-0.07136471	0	0	-4.682022	3.548003
34.49966	0.1867458	-0.07136471	0	0	0	0
34.51555	0.1934958	-0.07649542	0.4247405	-0.3228479	12.82755	-9.750304
34.53212	0.1934958	-0.07649542	0	0	-13.08534	9.94625
34.54869	0.1934958	-0.07649542	0	0	0	0
34.56578	0.1937492	-0.07668848	0.01482144	-0.01129213	0.4402664	-0.3354294
34.58182	0.1937492	-0.07668848	0	0	-0.4473119	0.3407972
34.59839	0.1937492	-0.07668848	0	0	0	0
34.61526	0.196206	-0.07856196	0.1455784	-0.1110129	4.352973	-3.319421
34.63152	0.196206	-0.07856196	0	0	-4.394072	3.350762
34.64809	0.196206	-0.07856196	0	0	0	0
34.66465	0.198888	-0.08061072	0.1619249	-0.1236919	4.887467	-3.733459
34.68122	0.198888	-0.08061072	0	0	-4.886905	3.733029
34.6979	0.198888	-0.08061072	0	0	0	0
34.71441	0.1989386	-0.08064939	0.003063973	-0.002342667	0.09233271	-0.07059617
34.73092	0.1989386	-0.08064939	0	0	-0.09278066	0.07093867
34.74749	0.1989386	-0.08064939	0	0	0	0
34.76408	0.1989386	-0.08064939	0	0	0	0
34.78086	0.1989386	-0.08064939	0	0	0	0
34.79722	0.1989386	-0.08064939	0	0	0	0
34.81375	0.1989386	-0.08064939	0	0	0	0
34.83032	0.1989386	-0.08064939	0	0	0	0
34.84689	0.1989386	-0.08064939	0	0	0	0
34.86345	0.1989386	-0.08064939	0	0	0	0
34.88002	0.1989386	-0.08064939	0	0	0	0
34.89659	0.1989386	-0.08064939	0	0	0	0
34.91315	0.1989133	-0.08066873	-0.001526694	-0.001167737	-0.04608103	-0.03524642
34.92972	0.1989133	-0.08066873	0	0	0.04608103	0.03524642
34.94629	0.1989133	-0.08066873	0	0	0	0
34.96289	0.1989133	-0.08066873	0	0	0	0
34.97942	0.1989133	-0.08066873	0	0	0	0
34.99601	0.1989133	-0.08066873	0	0	0	0
35.01255	0.198888	-0.08064939	-0.001528454	0.001169083	-0.04612884	0.03528299
35.02912	0.198888	-0.08064939	0	0	0.04616073	-0.03530738
35.04569	0.198888	-0.08064939	0	0	0	0
35.06226	0.1988627	-0.08063006	-0.001526343	0.001167018	-0.04606511	0.03522068
35.07882	0.1988627	-0.08063006	0	0	0.04606511	-0.03522068
35.09539	0.1988627	-0.08063006	0	0	0	0
35.11195	0.1977498	-0.07993408	-0.06719434	0.04201918	-2.028162	1.268287
35.12852	0.1977498	-0.07993408	0	0	2.028162	-1.268287
35.14509	0.1977498	-0.07993408	0	0	0	0
35.16165	0.1923044	-0.07968279	-0.3287601	0.01517113	-9.923143	0.4579183
35.17822	0.1923044	-0.07968279	0	0	9.923143	-0.4579183
35.19479	0.1923044	-0.07968279	0	0	0	0
35.2115	0.1628861	-0.1022759	-1.759888	-1.351585	-52.8761	-40.60858
35.22792	0.1628861	-0.1022759	0	0	53.11963	40.79561
35.24448	0.1628861	-0.1022759	0	0	0	0
35.26105	0.1071668	-0.144636	-3.363998	-2.557448	-101.5374	-77.19283
35.27762	0.1071668	-0.144636	0	0	101.5257	77.18394
35.29418	0.1071668	-0.144636	0	0	0	0
35.31075	0.076953	-0.1675885	-1.824128	-1.385735	-55.06498	-41.83121
35.32732	0.076953	-0.1675885	0	0	55.0523	41.82158
35.34426	0.076953	-0.1675885	0	0	0	0
35.36045	0.07616815	-0.1681091	-0.04847883	-0.03216029	-1.463094	-0.9705996
35.37702	0.07616815	-0.1681091	0	0	1.479962	0.9817896
35.39359	0.07616815	-0.1681091	0	0	0	0
35.41015	0.07195451	-0.164887	-0.2543357	0.1944913	-7.675868	5.86976
35.47134	0.07195451	-0.164887	0	0	3.27115	-2.501459
35.48818	0.07195451	-0.164887	0	0	0	0
35.50472	0.03992614	-0.1405946	-1.936804	1.468993	-58.0187	44.005
35.52104	0.03992614	-0.1405946	0	0	58.94829	-44.71006
35.5376	0.03992614	-0.1405946	0	0	0	0
35.55537	0.04000496	-0.140654	0.00443509	-0.003341147	0.129167	-0.09730716
35.5723	0.04000496	-0.140654	0	0	-0.1278039	0.09628028
35.58851	0.04000496	-0.140654	0	0	0	0
35.60508	0.04005751	-0.140654	0.003171636	0	0.09677864	0
35.62164	0.04005751	-0.140654	0	0	-0.09572016	0
35.63821	0.04005751	-0.140654	0	0	0	0
35.65477	0.04011006	-0.1406936	0.003172591	-0.002390352	0.09576001	-0.07214926
35.67134	0.04011006	-0.1406936	0	0	-0.09576001	0.07214926
35.68803	0.04011006	-0.1406936	0	0	0	0
35.70448	0.04013633	-0.1407134	0.001597332	-0.001203038	0.04820757	-0.03630776
35.72105	0.04013633	-0.1407134	0	0	-0.04837465	0.0364336
35.73761	0.04013633	-0.1407134	0	0	0	0
35.75418	0.04013633	-0.1407134	0	0	0	0
35.77075	0.04013633	-0.1407134	0	0	0	0
35.7875	0.04013633	-0.1407134	0	0	0	0
35.80388	0.04013633	-0.140555	0	0.009667377	0	0.291762
35.82045	0.04013633	-0.140555	0	0	0	-0.2934172
35.83721	0.04013633	-0.140555	0	0	0	0
35.85358	0.04026769	-0.1401394	0.008025291	0.02539108	0.2422317	0.7663925
35.87015	0.04026769	-0.1401394	0	0	-0.2436343	-0.7708302
35.88672	0.04026769	-0.1401394	0	0	0	0
35.90329	0.04029397	-0.1396051	0.00158593	0.03224837	0.04786347	0.9732578
35.92019	0.04029397	-0.1396051	0	0	-0.04738342	-0.9634964
35.93686	0.04029397	-0.1396051	0	0	0	0
35.95299	0.03046426	-0.1321377	-0.6093167	0.4628865	-18.57743	14.11292
35.96955	0.03046426	-0.1321377	0	0	18.63378	-14.15573
35.98612	0.03046426	-0.1321377	0	0	0	0
36.00269	0.01578816	-0.1211557	-0.8860548	0.663027	-26.74427	20.0125
36.01925	0.01578816	-0.1211557	0	0	26.74427	-20.0125
36.03583	0.01578816	-0.1211557	0	0	0	0
36.05238	0.01344656	-0.1194086	-0.1415024	0.1055791	-4.271534	3.187116
36.06895	0.01344656	-0.1194086	0	0	4.272518	-3.18785
36.08577	0.01344656	-0.1194086	0	0	0	0
36.10208	0.01344656	-0.1194086	0	0	0	0
36.11865	0.01344656	-0.1194086	0	0	0	0
36.13581	0.01344656	-0.1194086	0	0	0	0
36.15178	0.01344656	-0.1194086	0	0	0	0
36.16835	0.01344656	-0.1194086	0	0	0	0
36.18492	0.01344656	-0.1194086	0	0	0	0
36.20148	0.01344656	-0.1194086	0	0	0	0
36.21804	0.01344656	-0.1194086	0	0	0	0
36.23461	0.01344656	-0.1194086	0	0	0	0
36.2514	0.01344656	-0.1194086	0	0	0	0
36.26775	0.01344656	-0.1194086	0	0	0	0
36.28432	0.01344656	-0.1194086	0	0	0	0
36.30088	0.01344656	-0.1194086	0	0	0	0
36.31745	0.01344656	-0.1194086	0	0	0	0
36.33402	0.01344656	-0.1194086	0	0	0	0
36.35058	0.01344656	-0.1194086	0	0	0	0
36.36715	0.01344656	-0.1194086	0	0	0	0
36.38372	0.01344656	-0.1194086	0	0	0	0
36.40029	0.01347287	-0.1194282	0.001588123	-0.001184557	0.04792964	-0.03575001
36.41685	0.01347287	-0.1194282	0	0	-0.04792964	0.03575001
36.43342	0.01347287	-0.1194282	0	0	0	0
36.44999	0.01347287	-0.1194282	0	0	0	0
36.46656	0.01347287	-0.1194282	0	0	0	0
36.48318	0.01347287	-0.1194282	0	0	0	0
36.49969	0.01347287	-0.1194282	0	0	0	0
36.51625	0.01347287	-0.1194282	0	0	0	0
36.53282	0.01347287	-0.1194282	0	0	0	0
36.54939	0.01344656	-0.1194086	-0.001588123	0.001184557	-0.04792964	0.03575001
36.56596	0.01344656	-0.1194086	0	0	0.04792964	-0.03575001
36.58252	0.01344656	-0.1194086	0	0	0	0
36.59973	0.01344656	-0.1194086	0	0	0	0
36.61566	0.01344656	-0.1194086	0	0	0	0
36.63223	0.01344656	-0.1194086	0	0	0	0
36.64883	0.01344656	-0.1194086	0	0	0	0
36.66536	0.01344656	-0.1194086	0	0	0	0
36.68204	0.01344656	-0.1194086	0	0	0	0
36.69849	0.01344656	-0.1194086	0	0	0	0
36.71506	0.01344656	-0.1194086	0	0	0	0
36.73162	0.01344656	-0.1194086	0	0	0	0
36.74819	0.01344656	-0.1194086	0	0	0	0
36.76476	0.01344656	-0.1194086	0	0	0	0
36.78133	0.01344656	-0.1194086	0	0	0	0
36.79854	0.01344656	-0.1194086	0	0	0	0
36.81511	0.01344656	-0.1194086	0	0	0	0
36.83168	0.01344656	-0.1194086	0	0	0	0
36.8544	0.01344656	-0.1194086	0	0	0	0
36.87098	0.01344656	-0.1194086	0	0	0	0
36.88767	0.01344656	-0.1194086	0	0	0	0
36.90411	0.01344656	-0.1194086	0	0	0	0
36.92067	0.01344656	-0.1194086	0	0	0	0
36.93724	0.01344656	-0.1194086	0	0	0	0
36.95381	0.01344656	-0.1194086	0	0	0	0
36.97056	0.01344656	-0.1194086	0	0	0	0
36.98743	0.01344656	-0.1194086	0	0	0	0
37.00357	0.01344656	-0.1194086	0	0	0	0
37.02016	0.01344656	-0.1194086	0	0	0	0
37.03664	0.01342025	-0.1194282	-0.001597004	-0.001191139	-0.04830334	-0.03602747
37.0532	0.01342025	-0.1194282	0	0	0.04833122	0.03604826
37.06977	0.01342025	-0.1194282	0	0	0	0
37.08667	0.01342025	-0.1194282	0	0	0	0
37.10302	0.01342025	-0.1194282	0	0	0	0
37.11961	0.01342025	-0.1194282	0	0	0	0
37.13604	0.01342025	-0.1194282	0	0	0	0
37.15272	0.01342025	-0.1194282	0	0	0	0
37.16944	0.01342025	-0.1194282	0	0	0	0
37.18579	0.01342025	-0.1194282	0	0	0	0
37.20231	0.01342025	-0.1194282	0	0	0	0
37.21888	0.01342025	-0.1194282	0	0	0	0
37.23544	0.01342025	-0.1194282	0	0	0	0
37.25201	0.01342025	-0.1194282	0	0	0	0
37.26939	0.01342025	-0.1194282	0	0	0	0
37.28514	0.01342025	-0.1194282	0	0	0	0
37.30171	0.01342025	-0.1194282	0	0	0	0
37.31829	0.01342025	-0.1194282	0	0	0	0
37.33484	0.01342025	-0.1194282	0	0	0	0
37.35141	0.01342025	-0.1194282	0	0	0	0
37.36824	0.01342025	-0.1194282	0	0	0	0
37.38454	0.01344656	-0.1194478	0.001614196	-0.001203962	0.04871654	-0.03633565
37.40111	0.01344656	-0.1194478	0	0	-0.04911233	0.03663086
37.41768	0.01344656	-0.1194478	0	0	0	0
37.43425	0.01344656	-0.1194478	0	0	0	0
37.45105	0.01344656	-0.1194478	0	0	0	0
37.46786	0.01344656	-0.1194478	0	0	0	0
37.48394	0.01344656	-0.1194478	0	0	0	0
37.50051	0.01344656	-0.1194478	0	0	0	0
37.51708	0.01344656	-0.1194478	0	0	0	0
37.53371	0.01344656	-0.1194478	0	0	0	0
37.55022	0.01344656	-0.1194478	0	0	0	0
37.56678	0.01344656	-0.1194478	0	0	0	0
37.58335	0.01344656	-0.1194478	0	0	0	0
37.59992	0.01344656	-0.1194478	0	0	0	0
37.61657	0.01344656	-0.1194478	0	0	0	0
37.63305	0.01347287	-0.1194674	0.001595839	-0.001190313	0.04816252	-0.03592371
37.64984	0.01347287	-0.1194674	0	0	-0.04796373	0.03577543
37.66632	0.01347287	-0.1194674	0	0	0	0
37.68275	0.01347287	-0.1194674	0	0	0	0
37.69932	0.01347287	-0.1194674	0	0	0	0
37.71589	0.01347287	-0.1194674	0	0	0	0
37.73245	0.01344656	-0.1194871	-0.001588488	-0.00118483	-0.0479462	-0.03576235
37.74902	0.01344656	-0.1194871	0	0	0.0479462	0.03576235
37.76558	0.01344656	-0.1194871	0	0	0	0
37.78215	0.01344656	-0.1194871	0	0	0	0
37.79872	0.01344656	-0.1194871	0	0	0	0
37.81536	0.01344656	-0.1194871	0	0	0	0
37.83185	0.01347287	-0.1195067	0.00159547	-0.001190037	0.04815692	-0.03591953
37.84842	0.01347287	-0.1195067	0	0	-0.04825694	0.03599413
37.86499	0.01347287	-0.1195067	0	0	0	0
37.88164	0.01344656	-0.1194871	-0.001580118	0.001178587	-0.04756759	0.03547996
37.89846	0.01344656	-0.1194871	0	0	0.04719901	-0.03520504
37.91478	0.01344656	-0.1194871	0	0	0	0
37.93125	0.01344656	-0.1194871	0	0	0	0
37.94782	0.01344656	-0.1194871	0	0	0	0
37.96439	0.01344656	-0.1194871	0	0	0	0
37.98095	0.01344656	-0.1194871	0	0	0	0
37.99759	0.01344656	-0.1194871	0	0	0	0
38.01412	0.01344656	-0.1194871	0	0	0	0
38.03104	0.01347287	-0.1194674	0.001554828	0.001159723	0.04647005	0.03466132
38.04762	0.01347287	-0.1194674	0	0	-0.04642241	-0.03462579
38.06418	0.01347287	-0.1194674	0	0	0	0
38.08075	0.01347287	-0.1194674	0	0	0	0
38.09732	0.01347287	-0.1194674	0	0	0	0
38.11412	0.01347287	-0.1194674	0	0	0	0
38.13044	0.01347287	-0.1194674	0	0	0	0
38.14701	0.01347287	-0.1194674	0	0	0	0
38.16358	0.01347287	-0.1194674	0	0	0	0
38.18415	0.01347287	-0.1194674	0	0	0	0
38.20072	0.01347287	-0.1194674	0	0	0	0
38.21728	0.01347287	-0.1194674	0	0	0	0
38.23385	0.01347287	-0.1194674	0	0	0	0
38.25091	0.01347287	-0.1194674	0	0	0	0
38.26698	0.01347287	-0.1194674	0	0	0	0
38.28355	0.01347287	-0.1194674	0	0	0	0
38.30019	0.01347287	-0.1194674	0	0	0	0
38.31675	0.01347287	-0.1194674	0	0	0	0
38.33325	0.01347287	-0.1194674	0	0	0	0
38.34982	0.01347287	-0.1194674	0	0	0	0
38.36638	0.01347287	-0.1194674	0	0	0	0
38.38295	0.01347287	-0.1194674	0	0	0	0
38.39952	0.01347287	-0.1194674	0	0	0	0
38.41625	0.01347287	-0.1194674	0	0	0	0
38.43266	0.01347287	-0.1194674	0	0	0	0
38.44922	0.01347287	-0.1194674	0	0	0	0
38.46578	0.01347287	-0.1194674	0	0	0	0
38.48235	0.01347287	-0.1194674	0	0	0	0
38.49895	0.01347287	-0.1194674	0	0	0	0
38.51576	0.01347287	-0.1194674	0	0	0	0
38.53205	0.01347287	-0.1194674	0	0	0	0
38.54865	0.01347287	-0.1194674	0	0	0	0
38.56518	0.01347287	-0.1194674	0	0	0	0
38.58175	0.01347287	-0.1194674	0	0	0	0
38.59832	0.01347287	-0.1194674	0	0	0	0
38.61488	0.01347287	-0.1194674	0	0	0	0
38.63145	0.01347287	-0.1194674	0	0	0	0
38.64802	0.01347287	-0.1194674	0	0	0	0
38.66459	0.01347287	-0.1194674	0	0	0	0
38.6814	0.01347287	-0.1194674	0	0	0	0
38.69821	0.01347287	-0.1194674	0	0	0	0
38.71513	0.01344656	-0.1194478	-0.001554828	0.001159723	-0.0460969	0.034383
38.7317	0.01344656	-0.1194478	0	0	0.0464277	-0.03462973
38.74827	0.01344656	-0.1194478	0	0	0	0
38.76483	0.01344656	-0.1194478	0	0	0	0
38.7814	0.01344656	-0.1194478	0	0	0	0
38.79801	0.01344656	-0.1194478	0	0	0	0
38.81454	0.01344656	-0.1194478	0	0	0	0
38.8311	0.01344656	-0.1194478	0	0	0	0
38.84767	0.01344656	-0.1194478	0	0	0	0
38.86424	0.01344656	-0.1194478	0	0	0	0
38.88081	0.01344656	-0.1194478	0	0	0	0
38.89737	0.01344656	-0.1194478	0	0	0	0
38.91394	0.01344656	-0.1194478	0	0	0	0
38.9305	0.01344656	-0.1194478	0	0	0	0
38.94707	0.01344656	-0.1194478	0	0	0	0
38.96364	0.01347287	-0.1194674	0.001588123	-0.001184557	0.04792964	-0.03575001
38.98021	0.01347287	-0.1194674	0	0	-0.04792964	0.03575001
38.99678	0.01347287	-0.1194674	0	0	0	0
39.01334	0.01344656	-0.1194478	-0.001588123	0.001184557	-0.04792412	0.03574589
39.02991	0.01344656	-0.1194478	0	0	0.04792964	-0.03575001
39.04664	0.01344656	-0.1194478	0	0	0	0
39.06305	0.01344656	-0.1194478	0	0	0	0
39.07961	0.01344656	-0.1194478	0	0	0	0
39.09638	0.01344656	-0.1194478	0	0	0	0
39.11275	0.01344656	-0.1194478	0	0	0	0
39.12931	0.01344656	-0.1194478	0	0	0	0
39.14688	0.01344656	-0.1194478	0	0	0	0
39.16245	0.01344656	-0.1194478	0	0	0	0
39.17901	0.01344656	-0.1194478	0	0	0	0
39.19558	0.01344656	-0.1194478	0	0	0	0
39.21214	0.01344656	-0.1194478	0	0	0	0
39.22871	0.01344656	-0.1194478	0	0	0	0
39.24528	0.01344656	-0.1194478	0	0	0	0
39.26233	0.01344656	-0.1194478	0	0	0	0
39.2789	0.01344656	-0.1194478	0	0	0	0
39.29547	0.01344656	-0.1194478	0	0	0	0
39.31203	0.01339394	-0.1194086	-0.003177033	0.00236966	-0.09589409	0.07152471
39.3286	0.01339394	-0.1194086	0	0	0.09589409	-0.07152471
39.34517	0.01339394	-0.1194086	0	0	0	0
39.36173	0.01276246	-0.1189376	-0.03812445	0.02843187	-1.150731	0.8581743
39.3783	0.01276246	-0.1189376	0	0	1.150731	-0.8581743
39.39486	0.01276246	-0.1189376	0	0	0	0
39.41143	0.004315763	-0.1126082	-0.5099614	0.382131	-15.39244	11.53406
39.42802	0.004315763	-0.1126082	0	0	15.37827	-11.52345
39.44456	0.004315763	-0.1126082	0	0	0	0
39.46113	-0.04945963	-0.0728875	-3.245889	2.397549	-98.05144	72.42487
39.47771	-0.04945963	-0.0728875	0	0	97.90477	-72.31654
39.49445	-0.04945963	-0.0728875	0	0	0	0
39.6046	-0.1237849	-0.01896162	-0.6747447	0.4895535	-5.317788	3.858262
39.62294	-0.1237849	-0.01896162	0	0	5.25101	-3.809812
39.63951	-0.1445634	-0.004793012	-1.254192	0.8552189	-35.92427	24.49634
39.65651	-0.1445634	-0.004793012	0	0	37.36974	-25.48199
39.67301	-0.1445634	-0.004793012	0	0	0	0
39.68921	-0.1855005	-0.004359482	-2.526226	0.02675308	-77.23756	0.8179566
39.70578	-0.1855005	-0.004359482	0	0	77.07575	-0.8162431
39.72277	-0.1855005	-0.004359482	0	0	0	0
39.73891	-0.2109208	-0.01661476	-1.574618	-0.7591326	-47.52755	-22.9133
39.75548	-0.2109208	-0.01661476	0	0	48.13723	23.20724
39.77238	-0.2109208	-0.01661476	0	0	0	0
39.78861	-0.2112227	-0.01680396	-0.01860128	-0.01165621	-0.5614523	-0.3518256
39.8055	-0.2112227	-0.01680396	0	0	0.5615816	0.3519066
39.82175	-0.2112227	-0.01680396	0	0	0	0
39.83831	-0.2112227	-0.01680396	0	0	0	0
39.8552	-0.2112227	-0.01680396	0	0	0	0
39.87145	-0.2112227	-0.01680396	0	0	0	0
39.88802	-0.2112227	-0.01680396	0	0	0	0
39.90458	-0.2112227	-0.01680396	0	0	0	0
39.92133	-0.2112227	-0.01680396	0	0	0	0
39.93771	-0.2110718	-0.01691749	0.009213111	-0.006928933	0.2780843	-0.2091397
39.95428	-0.2110718	-0.01691749	0	0	-0.279565	0.2102533
39.97085	-0.2110718	-0.01691749	0	0	0	0
39.9875	-0.2108453	-0.01712563	0.01360385	-0.01250275	0.4095747	-0.3764237
40.00439	-0.2108453	-0.01712563	0	0	-0.4055688	0.3727421
40.02074	-0.2108453	-0.01712563	0	0	0	0
40.03711	-0.2108453	-0.01712563	0	0	0	0
40.05368	-0.2108453	-0.01712563	0	0	0	0
40.07025	-0.2108453	-0.01712563	0	0	0	0
40.08681	-0.2108202	-0.01718239	0.001518248	-0.003426513	0.04582081	-0.1034124
40.10338	-0.2108202	-0.01718239	0	0	-0.04582081	0.1034124
40.11995	-0.2108202	-0.01718239	0	0	0	0
40.13651	-0.210795	-0.01720132	0.001519497	-0.001142434	0.04586379	-0.0344827
40.15308	-0.210795	-0.01720132	0	0	-0.04586379	0.0344827
