Time	Pos X	Pos Y	Vel X	Vel Y	Acc X	Acc Y
0.01667055	-0.04588882	-0.1881253	0.0006995455	0.00286785	-1.066681E-05	-4.372957E-05
0.03679365	-0.04586256	-0.1881456	0.001304947	-0.001004859	-9.231789E-06	5.905507E-05
0.05336354	-0.04586256	-0.1881456	0	0	-0.03556393	0.02738559
0.06992869	-0.04583629	-0.1881253	0.001585455	0.001220688	0.04784828	0.03683978
0.08663477	-0.04583629	-0.1881253	0	0	-0.04765242	-0.03668898
0.1030633	-0.04583629	-0.1881253	0	0	0	0
0.1207342	-0.04578377	-0.1881253	0.002972075	0	0.08715905	0
0.1373025	-0.04578377	-0.1881253	0	0	-0.08680332	0
0.1541799	-0.04578377	-0.1881253	0	0	0	0
0.1704352	-0.04578377	-0.1881253	0	0	0	0
0.1870039	-0.04578377	-0.1881253	0	0	0	0
0.2035691	-0.04578377	-0.1881253	0	0	0	0
0.2201346	-0.04578377	-0.1881253	0	0	0	0
0.2367353	-0.04578377	-0.1881253	0	0	0	0
0.2532851	-0.04578377	-0.1881253	0	0	0	0
0.2698352	-0.04573125	-0.1881658	0.003173558	-0.002442687	0.09587815	-0.07379741
0.2864031	-0.04573125	-0.1881658	0	0	-0.09582557	0.07375693
0.3029691	-0.04573125	-0.1881658	0	0	0	0
0.3195346	-0.04559994	-0.1882264	0.007926403	-0.003659274	0.2392406	-0.1104469
0.3361018	-0.04559994	-0.1882264	0	0	-0.239232	0.110443
0.3526732	-0.04559994	-0.1882264	0	0	0	0
0.3694287	-0.0454949	-0.188186	0.006269132	0.002411871	0.1881103	0.07237013
0.3858138	-0.0454949	-0.188186	0	0	-0.1891679	-0.072777
0.4023707	-0.0454949	-0.188186	0	0	0	0
0.418935	-0.0454949	-0.188186	0	0	0	0
0.4355033	-0.0454949	-0.188186	0	0	0	0
0.4520701	-0.0454949	-0.188186	0	0	0	0
0.4686364	-0.04546864	-0.1881658	0.001585341	0.001219701	0.04784772	0.0368122
0.4852035	-0.04546864	-0.1881658	0	0	-0.04784711	-0.03681174
0.5017719	-0.04546864	-0.1881658	0	0	0	0
0.5183362	-0.0454949	-0.1881456	-0.00158553	0.001219846	-0.04785392	0.03681697
0.5353952	-0.0454949	-0.1881456	0	0	0.04715563	-0.03627973
0.5514712	-0.0454949	-0.1881456	0	0	0	0
0.5680352	-0.04546864	-0.1881658	0.001585569	-0.001219876	0.04857752	-0.03737369
0.5846027	-0.04546864	-0.1881658	0	0	-0.04785689	0.03681926
0.601169	-0.04546864	-0.1881658	0	0	0	0
0.6177354	-0.04544238	-0.1881051	0.001585116	0.003660002	0.04784149	0.110465
0.6343045	-0.04544238	-0.1881051	0	0	-0.04783753	-0.1104559
0.6508716	-0.04544238	-0.1881051	0	0	0	0
0.6674355	-0.04468077	-0.1874788	0.04597994	0.03781347	1.38782	1.14133
0.684005	-0.04468077	-0.1874788	0	0	-1.38772	-1.141248
0.7005718	-0.04468077	-0.1874788	0	0	0	0
0.7171381	-0.04449692	-0.1873778	0.01109761	0.006096705	0.3349405	0.1840065
0.7337049	-0.04449692	-0.1873778	0	0	-0.3349405	-0.1840065
0.7502716	-0.04449692	-0.1873778	0	0	0	0
0.766838	-0.04449692	-0.1873778	0	0	0	0
0.7834023	-0.04449692	-0.1873778	0	0	0	0
0.7999932	-0.04449692	-0.1873778	0	0	0	0
0.8165378	-0.04449692	-0.1873778	0	0	0	0
0.8331046	-0.04449692	-0.1873778	0	0	0	0
0.8499318	-0.04449692	-0.1873778	0	0	0	0
0.8662381	-0.04449692	-0.1873778	0	0	0	0
0.8828048	-0.04449692	-0.1873778	0	0	0	0
0.8993711	-0.04449692	-0.1873778	0	0	0	0
0.9159379	-0.0444444	-0.1874182	0.003170603	-0.002438441	0.09569294	-0.07359534
0.9325054	-0.0444444	-0.1874182	0	0	-0.0956895	0.07359269
0.9490718	-0.0444444	-0.1874182	0	0	0	0
0.9663866	-0.04436561	-0.1874788	0.004550438	-0.003500072	0.134306	-0.1033045
0.9822052	-0.04436561	-0.1874788	0	0	-0.1373367	0.1056356
0.9987708	-0.04436561	-0.1874788	0	0	0	0
1.015337	-0.04433934	-0.187499	0.001585532	-0.001219675	0.04785464	-0.0368123
1.031903	-0.04433934	-0.187499	0	0	-0.04785412	0.03681191
1.048923	-0.04433934	-0.187499	0	0	0	0
1.06543	-0.04433934	-0.187499	0	0	0	0
1.082441	-0.04433934	-0.187499	0	0	0	0
1.09817	-0.04433934	-0.187499	0	0	0	0
1.11514	-0.04433934	-0.187499	0	0	0	0
1.131305	-0.04433934	-0.187499	0	0	0	0
1.147872	-0.04433934	-0.187499	0	0	0	0
1.164436	-0.04433934	-0.187499	0	0	0	0
1.181003	-0.04433934	-0.187499	0	0	0	0
1.197911	-0.04433934	-0.187499	0	0	0	0
1.214136	-0.04433934	-0.187499	0	0	0	0
1.230705	-0.04433934	-0.187499	0	0	0	0
1.247272	-0.04433934	-0.187499	0	0	0	0
1.263836	-0.04433934	-0.187499	0	0	0	0
1.280405	-0.04433934	-0.187499	0	0	0	0
1.296971	-0.04433934	-0.187499	0	0	0	0
1.313537	-0.04433934	-0.187499	0	0	0	0
1.330105	-0.04433934	-0.187499	0	0	0	0
1.346672	-0.04433934	-0.187499	0	0	0	0
1.363236	-0.04436561	-0.1874788	-0.001585789	0.001219872	-0.0478635	0.03681912
1.379952	-0.04436561	-0.1874788	0	0	0.04764936	-0.0366544
1.396371	-0.04436561	-0.1874788	0	0	0	0
1.413667	-0.04436561	-0.1874788	0	0	0	0
1.430237	-0.04436561	-0.1874788	0	0	0	0
1.4468	-0.04436561	-0.1874788	0	0	0	0
1.463405	-0.04436561	-0.1874788	0	0	0	0
1.479934	-0.04436561	-0.1874788	0	0	0	0
1.496501	-0.04436561	-0.1874788	0	0	0	0
1.513068	-0.04436561	-0.1874788	0	0	0	0
1.529635	-0.04436561	-0.1874788	0	0	0	0
1.546201	-0.04436561	-0.1874788	0	0	0	0
1.562769	-0.04436561	-0.1874788	0	0	0	0
1.579628	-0.04436561	-0.1874788	0	0	0	0
1.595908	-0.04436561	-0.1874788	0	0	0	0
1.612499	-0.04439187	-0.1874586	-0.001583	0.001217002	-0.04815795	0.03702356
1.629037	-0.04439187	-0.1874586	0	0	0.04778278	-0.03673513
1.645607	-0.04439187	-0.1874586	0	0	0	0
1.662169	-0.04439187	-0.1874586	0	0	0	0
1.678742	-0.04439187	-0.1874586	0	0	0	0
1.69538	-0.04439187	-0.1874586	0	0	0	0
1.7142	-0.04439187	-0.1874586	0	0	0	0
1.730775	-0.04439187	-0.1874586	0	0	0	0
1.747335	-0.04439187	-0.1874586	0	0	0	0
1.764514	-0.04436561	-0.1874788	0.001528801	-0.001175334	0.0453131	-0.03483646
1.780633	-0.04436561	-0.1874788	0	0	-0.04591203	0.03529691
1.797305	-0.04436561	-0.1874788	0	0	0	0
1.813601	-0.04436561	-0.1874788	0	0	0	0
1.83017	-0.04436561	-0.1874788	0	0	0	0
1.846756	-0.04436561	-0.1874788	0	0	0	0
1.8633	-0.04433934	-0.1874586	0.00158772	0.001220457	0.04792455	0.03683889
1.87987	-0.04433934	-0.1874586	0	0	-0.04794629	-0.0368556
1.896437	-0.04433934	-0.1874586	0	0	0	0
1.913002	-0.04433934	-0.1874586	0	0	0	0
1.929569	-0.04433934	-0.1874586	0	0	0	0
1.946136	-0.04433934	-0.1874586	0	0	0	0
1.96286	-0.04436561	-0.1874384	-0.001570709	0.001208272	-0.04718239	0.03629518
1.97965	-0.04436561	-0.1874384	0	0	0.04686721	-0.03605273
1.995836	-0.04436561	-0.1874384	0	0	0	0
2.0124	-0.04433934	-0.1874182	0.0015858	0.001219881	0.04842189	0.03724866
2.028976	-0.04433934	-0.1874182	0	0	-0.04785128	-0.03680972
2.045538	-0.04433934	-0.1874182	0	0	0	0
2.062103	-0.04420802	-0.1873172	0.007927644	0.006097254	0.2393119	0.1840579
2.078673	-0.04420802	-0.1873172	0	0	-0.2392568	-0.1840155
2.095393	-0.04420802	-0.1873172	0	0	0	0
2.111805	-0.04415549	-0.1872768	0.003200722	0.002461431	0.09660564	0.074292
2.128372	-0.04415549	-0.1872768	0	0	-0.09705191	-0.0746352
2.144939	-0.04415549	-0.1872768	0	0	0	0
2.161501	-0.04412923	-0.1872566	0.001585803	0.001220056	0.04786791	0.03682774
2.178073	-0.04412923	-0.1872566	0	0	-0.04786068	-0.03682217
2.194641	-0.04412923	-0.1872566	0	0	0	0
2.211202	-0.04412923	-0.1872566	0	0	0	0
2.227774	-0.04412923	-0.1872566	0	0	0	0
2.244339	-0.04412923	-0.1872566	0	0	0	0
2.261068	-0.04412923	-0.1872566	0	0	0	0
2.277474	-0.04412923	-0.1872566	0	0	0	0
2.294042	-0.04412923	-0.1872566	0	0	0	0
2.310715	-0.04412923	-0.1872566	0	0	0	0
2.327281	-0.04412923	-0.1872566	0	0	0	0
2.343981	-0.04412923	-0.1872566	0	0	0	0
2.360675	-0.04412923	-0.1872566	0	0	0	0
2.376875	-0.04412923	-0.1872566	0	0	0	0
2.393438	-0.04412923	-0.1872566	0	0	0	0
2.410001	-0.04412923	-0.1872566	0	0	0	0
2.42657	-0.04412923	-0.1872566	0	0	0	0
2.443137	-0.04412923	-0.1872566	0	0	0	0
2.508564	-0.04412923	-0.1872566	0	0	0	0
2.525215	-0.04412923	-0.1872566	0	0	0	0
2.541701	-0.04410296	-0.1872768	0.00159305	-0.001225632	0.04807524	-0.03698725
2.558401	-0.04410296	-0.1872768	0	0	-0.04800375	0.03693225
2.574834	-0.04410296	-0.1872768	0	0	0	0
2.591401	-0.04410296	-0.1872768	0	0	0	0
2.607967	-0.04410296	-0.1872768	0	0	0	0
2.624534	-0.04410296	-0.1872768	0	0	0	0
2.641098	-0.04410296	-0.1872768	0	0	0	0
2.657668	-0.04410296	-0.1872768	0	0	0	0
2.674234	-0.04410296	-0.1872768	0	0	0	0
2.690801	-0.04412923	-0.1872566	-0.001585256	0.001219635	-0.04784449	0.03680972
2.707366	-0.04412923	-0.1872566	0	0	0.04784724	-0.03681184
2.724066	-0.04412923	-0.1872566	0	0	0	0
2.740497	-0.04412923	-0.1872566	0	0	0	0
2.757068	-0.04412923	-0.1872566	0	0	0	0
2.773634	-0.04412923	-0.1872566	0	0	0	0
2.790201	-0.04318366	-0.1843498	0.05707356	0.175454	1.72252	5.295328
2.806767	-0.04318366	-0.1843498	0	0	-1.722558	-5.295442
2.823343	-0.04318366	-0.1843498	0	0	0	0
2.8399	-0.04502219	-0.14928	-0.1110406	2.118093	-3.35131	63.92603
2.856468	-0.04502219	-0.14928	0	0	3.352202	-63.94305
2.873034	-0.04502219	-0.14928	0	0	0	0
2.889601	-0.03212053	-0.1009897	0.7787679	2.914896	23.50445	87.97615
2.906168	-0.03212053	-0.1009897	0	0	-23.50394	-87.97425
2.922734	-0.03212053	-0.1009897	0	0	0	0
2.939298	-0.01857681	-0.044742	0.8176653	3.3958	24.68003	102.4973
2.955867	-0.01857681	-0.044742	0	0	-24.67825	-102.4899
2.972435	-0.01857681	-0.044742	0	0	0	0
2.989001	-0.009105012	0.034192	0.5717353	4.764603	17.25525	143.7981
3.005568	-0.009105012	0.034192	0	0	-17.25575	-143.8022
3.022426	-0.009105012	0.034192	0	0	0	0
3.038698	0.0007631577	0.08564968	0.6064751	3.162471	18.30582	95.45592
3.055268	0.0007631577	0.08564968	0	0	-18.46689	-96.29581
3.071914	0.0007631577	0.08564968	0	0	0	0
3.088469	0.0009999997	0.100658	0.0143061	0.9065574	0.4308847	27.30455
3.104967	0.0009999997	0.100658	0	0	-0.4328242	-27.42745
3.121534	0.0009999997	0.100658	0	0	0	0
3.138098	-0.004210501	0.1043245	-0.3145744	0.2213567	-9.494899	6.681279
3.154668	-0.004210501	0.1043245	0	0	9.494147	-6.68075
3.171301	-0.004210501	0.1043245	0	0	0	0
3.187801	-0.001210526	0.1064497	0.1818246	0.1288081	5.487715	3.887604
3.204367	-0.001210526	0.1064497	0	0	-5.498834	-3.895481
3.220934	-0.001210526	0.1064497	0	0	0	0
3.237497	0.009026071	0.1135697	0.6180334	0.4298664	18.65483	12.97517
3.254066	0.009026071	0.1135697	0	0	-18.6539	-12.97451
3.270634	0.009026071	0.1135697	0	0	0	0
3.287247	0.009052385	0.1135514	0.00158396	-0.001100598	0.0477367	-0.03316935
3.303858	0.009052385	0.1135514	0	0	-0.04767537	0.03312674
3.320336	0.009052385	0.1135514	0	0	0	0
3.337085	0.009026071	0.1135697	-0.001571108	0.001091668	-0.04728514	0.03285559
3.353655	0.009026071	0.1135697	0	0	0.04715386	-0.03276437
3.370406	0.009026071	0.1135697	0	0	0	0
3.386788	0.009026071	0.1135697	0	0	0	0
3.403354	0.009026071	0.1135697	0	0	0	0
3.419922	0.009026071	0.1135697	0	0	0	0
3.436497	0.009052385	0.1135514	0.001587537	-0.001103084	0.0479006	-0.03328324
3.453054	0.009052385	0.1135514	0	0	-0.04791439	0.03329282
3.470087	0.009052385	0.1135514	0	0	0	0
3.486185	0.009052385	0.1135514	0	0	0	0
3.502755	0.009052385	0.1135514	0	0	0	0
3.519322	0.009052385	0.1135514	0	0	0	0
3.535922	0.009052385	0.1135148	0	-0.00220377	0	-0.06644442
3.552455	0.009052385	0.1135148	0	0	0	0.06651327
3.569054	0.009052385	0.1135148	0	0	0	0
3.585586	0.009052385	0.1134782	0	-0.002212828	0	-0.06679097
3.602155	0.009052385	0.1134782	0	0	0	0.06684966
3.618722	0.009052385	0.1134782	0	0	0	0
3.635314	0.009026071	0.1134234	-0.001585963	-0.003306869	-0.04782936	-0.0997283
3.651855	0.009026071	0.1134234	0	0	0.04786653	0.0998058
3.668608	0.009026071	0.1134234	0	0	0	0
3.684989	0.009078698	0.1133868	0.003212738	-0.002233248	0.09696342	-0.06740148
3.701559	0.009078698	0.1133868	0	0	-0.09750225	0.06777603
3.718277	0.009078698	0.1133868	0	0	0	0
3.736663	0.009052385	0.1133319	-0.001431165	-0.002984507	-0.04076843	-0.08501719
3.753234	0.009052385	0.1133319	0	0	0.04094138	0.08537786
3.770368	0.009052385	0.1133319	0	0	0	0
3.786972	0.009052385	0.1133319	0	0	0	0
3.803017	0.009052385	0.1133319	0	0	0	0
3.819773	0.009052385	0.1133319	0	0	0	0
3.836064	0.009026071	0.1132405	-0.001615232	-0.005613923	-0.04887616	-0.1698747
3.852634	0.009026071	0.1132405	0	0	0.04915383	0.1708397
3.869201	0.009026071	0.1132405	0	0	0	0
3.885765	0.008973443	0.1131673	-0.003177325	-0.004417184	-0.09590358	-0.1333272
3.902338	0.008973443	0.1131673	0	0	0.09588426	0.1333003
3.918897	0.008973443	0.1131673	0	0	0	0
3.935685	0.008868189	0.1130575	-0.006269527	-0.006537137	-0.1880067	-0.1960316
3.952292	0.008868189	0.1130575	0	0	0.1877369	0.1957503
3.968601	0.008868189	0.1130575	0	0	0	0
3.985165	0.008578737	0.1127832	-0.01747383	-0.01656415	-0.5315571	-0.5038843
4.00175	0.008578737	0.1127832	0	0	0.5271147	0.4996732
4.018301	0.008578737	0.1127832	0	0	0	0
4.034864	0.008210341	0.1124173	-0.02224154	-0.02208894	-0.6716762	-0.6670678
4.051434	0.008210341	0.1124173	0	0	0.6712703	0.6666646
4.068001	0.008210341	0.1124173	0	0	0	0
4.085728	0.006999886	0.1112463	-0.06828357	-0.0660553	-1.991143	-1.926167
4.102298	0.006999886	0.1112463	0	0	1.990949	1.925979
4.119462	0.006999886	0.1112463	0	0	0	0
4.135428	0.006236761	0.1100934	-0.04779417	-0.07220864	-1.442597	-2.179512
4.151999	0.006236761	0.1100934	0	0	1.468918	2.219279
4.168564	0.006236761	0.1100934	0	0	0	0
4.185129	0.006578852	0.1098555	0.02065223	-0.01436467	0.6233661	-0.4335828
4.202226	0.006578852	0.1098555	0	0	-0.613529	0.4267406
4.218566	0.006578852	0.1098555	0	0	0	0
4.234828	0.008894502	0.1081346	0.1424001	-0.1058242	4.367791	-3.24591
4.251588	0.008894502	0.1081346	0	0	-4.312288	3.204664
4.267965	0.008894502	0.1081346	0	0	0	0
4.284531	0.008841875	0.1080613	-0.003176766	-0.004420982	-0.09643286	-0.1342019
4.301098	0.008841875	0.1080613	0	0	0.09587912	0.1334313
4.317664	0.008841875	0.1080613	0	0	0	0
4.334229	0.008710306	0.1078965	-0.007942884	-0.009949029	-0.2397443	-0.3002969
4.350878	0.008710306	0.1078965	0	0	0.2391454	0.2995467
4.367365	0.008710306	0.1078965	0	0	0	0
4.383931	0.00873662	0.1078416	0.001588383	-0.003315961	0.04805505	-0.1003213
4.400498	0.00873662	0.1078416	0	0	-0.04793956	0.1000802
4.417064	0.00873662	0.1078416	0	0	0	0
4.433668	0.008894502	0.1074754	0.009509004	-0.02205853	0.286677	-0.6650196
4.450198	0.008894502	0.1074754	0	0	-0.2869864	0.6657375
4.466764	0.008894502	0.1074754	0	0	0	0
4.483634	0.01389384	0.09941075	0.2963614	-0.478071	8.863715	-14.29837
4.499897	0.01389384	0.09941075	0	0	-8.944591	14.42883
4.516465	0.01389384	0.09941075	0	0	0	0
4.533031	0.000736842	0.07631022	-0.7942267	-1.394471	-23.9705	-42.08644
4.549598	0.000736842	0.07631022	0	0	23.97119	42.08765
4.566185	0.000736842	0.07631022	0	0	0	0
4.582731	-0.005394685	0.05599333	-0.3705583	-1.227849	-11.18379	-37.05762
4.599298	-0.005394685	0.05599333	0	0	11.19072	37.08057
4.615865	-0.005394685	0.05599333	0	0	0	0
4.632863	-0.01139424	0.03245808	-0.3529606	-1.384605	-10.51572	-41.25139
4.649221	-0.01139424	0.03245808	0	0	10.58141	41.50909
4.665999	-0.01139424	0.03245808	0	0	0	0
4.682432	-0.01170999	0.01953004	-0.01921449	-0.7867237	-0.5785624	-23.68882
4.699002	-0.01170999	0.01953004	0	0	0.5822155	23.83839
4.715576	-0.01170999	0.01953004	0	0	0	0
4.732133	-0.001973682	0.01256073	0.5880402	-0.4209227	17.74887	-12.70475
4.748703	-0.001973682	0.01256073	0	0	-17.75117	12.7064
4.765265	-0.001973682	0.01256073	0	0	0	0
4.782506	-0.002157891	0.007174252	-0.01068499	-0.3124398	-0.3160961	-9.242964
4.7991	-0.002157891	0.007174252	0	0	0.3158021	9.234366
4.815229	-0.002157891	0.007174252	0	0	0	0
4.831533	-0.02851858	-0.01192622	-1.616822	-1.171519	-49.85109	-36.12117
4.84838	-0.02851858	-0.01192622	0	0	48.77122	35.33872
4.864666	-0.02851858	-0.01192622	0	0	0	0
4.881233	-0.04507471	-0.02388811	-0.9993588	-0.722042	-30.41899	-21.97788
4.897799	-0.04507471	-0.02388811	0	0	30.16201	21.79221
4.914466	-0.04507471	-0.02388811	0	0	0	0
4.930932	-0.04047788	-0.03131145	0.2791769	-0.4508378	8.426062	-13.60709
4.947525	-0.04047788	-0.03131145	0	0	-8.4449	13.63752
4.964066	-0.04047788	-0.03131145	0	0	0	0
4.980632	-0.02004994	-0.04611703	1.233104	-0.8937176	37.24623	-26.99498
4.997201	-0.02004994	-0.04611703	0	0	-37.21354	26.97129
5.013768	-0.02004994	-0.04611703	0	0	0	0
5.030335	-0.01915555	-0.04676656	0.05398727	-0.03920731	1.629386	-1.183313
5.046903	-0.01915555	-0.04676656	0	0	-1.629339	1.183279
5.063593	-0.01915555	-0.04676656	0	0	0	0
5.080033	-0.01826113	-0.04745447	0.05440561	-0.04184334	1.642154	-1.26298
5.096601	-0.01826113	-0.04745447	0	0	-1.64825	1.267669
5.113168	-0.01826113	-0.04745447	0	0	0	0
5.129733	-0.002921044	-0.05861721	0.9260625	-0.6738817	27.95103	-20.33955
5.146302	-0.002921044	-0.05861721	0	0	-27.94942	20.33838
5.162869	-0.002921044	-0.05861721	0	0	0	0
5.247949	0.0002368421	-0.06134263	0.03711681	-0.03203372	0.3651544	-0.3151471
5.265146	0.0002368421	-0.06134263	0	0	-0.3629055	0.3132061
5.281712	0.0002894737	-0.06138104	0.003177123	-0.002318496	0.09410092	-0.06866987
5.298282	0.0002894737	-0.06138104	0	0	-0.09588163	0.06996933
5.314848	0.0002894737	-0.06138104	0	0	0	0
5.331412	0.0003157895	-0.06140024	0.001588697	-0.001159123	0.0479525	-0.03498644
5.34799	0.0003157895	-0.06140024	0	0	-0.04793595	0.03497436
5.364546	0.0003157895	-0.06140024	0	0	0	0
5.381112	0.0003421053	-0.06141944	0.001588562	-0.001159248	0.04796153	-0.03499978
5.397679	0.0003421053	-0.06141944	0	0	-0.04794428	0.03498718
5.414384	0.0003421053	-0.06141944	0	0	0	0
5.430812	0.0009736839	-0.06253342	0.03844527	-0.06780992	1.160331	-2.046596
5.447379	0.0009736839	-0.06253342	0	0	-1.165194	2.055173
5.464927	0.0009736839	-0.06253342	0	0	0	0
5.480515	-0.0216019	-0.07921894	-1.448285	-1.070421	-43.70807	-32.30444
5.497082	-0.0216019	-0.07921894	0	0	45.04069	33.28937
5.513648	-0.0216019	-0.07921894	0	0	0	0
5.530216	-0.05607274	-0.1047722	-2.080604	-1.542352	-62.79365	-46.54894
5.546782	-0.05607274	-0.1047722	0	0	62.79365	46.54894
5.563348	-0.05607274	-0.1047722	0	0	0	0
5.579938	-0.07404857	-0.1182314	-1.083495	-0.8112574	-32.67832	-24.4676
5.596482	-0.07404857	-0.1182314	0	0	32.70042	24.48415
5.613049	-0.07404857	-0.1182314	0	0	0	0
5.629613	-0.07475517	-0.1187611	-0.04265649	-0.0319746	-1.287487	-0.9650787
5.646182	-0.07475517	-0.1187611	0	0	1.287431	0.965037
5.662751	-0.07475517	-0.1187611	0	0	0	0
5.679315	-0.07475517	-0.1187218	0	0.00236921	0	0.07150599
5.695879	-0.07475517	-0.1187218	0	0	0	-0.0715173
5.712617	-0.07475517	-0.1187218	0	0	0	0
5.729012	-0.07470284	-0.1186434	0.003192077	0.004786298	0.09634124	0.144457
5.745582	-0.07470284	-0.1186434	0	0	-0.09683318	-0.1451946
5.762148	-0.07470284	-0.1186434	0	0	0	0
5.778715	-0.0746505	-0.1185649	0.003159359	0.004736566	0.09535515	0.1429581
5.795281	-0.0746505	-0.1185649	0	0	-0.0953524	-0.1429539
5.811848	-0.0746505	-0.1185649	0	0	0	0
5.828414	-0.07462433	-0.1185845	0.001579455	-0.001184141	0.0476701	-0.035739
5.844981	-0.07462433	-0.1185845	0	0	-0.04766941	0.03573849
5.861548	-0.07462433	-0.1185845	0	0	0	0
5.878921	-0.07462433	-0.1185845	0	0	0	0
5.895576	-0.07462433	-0.1185845	0	0	0	0
5.912059	-0.07462433	-0.1185845	0	0	0	0
5.928655	-0.07462433	-0.1186237	0	-0.0023642	0	-0.07147101
5.945226	-0.07462433	-0.1186237	0	0	0	0.07128296
5.961792	-0.07462433	-0.1186237	0	0	0	0
5.979014	-0.07462433	-0.1186237	0	0	0	0
5.994924	-0.07462433	-0.1186237	0	0	0	0
6.011493	-0.07462433	-0.1186237	0	0	0	0
6.028057	-0.07457199	-0.118663	0.003159905	-0.002368692	0.09536887	-0.07148932
6.044626	-0.07457199	-0.118663	0	0	-0.09537161	0.07149138
6.061192	-0.07457199	-0.118663	0	0	0	0
6.077757	-0.07449348	-0.1187218	0.00473981	-0.003552833	0.1430622	-0.1072355
6.094462	-0.07449348	-0.1187218	0	0	-0.1424655	0.1067883
6.110891	-0.07449348	-0.1187218	0	0	0	0
6.127457	-0.07449348	-0.1187218	0	0	0	0
6.14403	-0.07449348	-0.1187218	0	0	0	0
6.160596	-0.07449348	-0.1187218	0	0	0	0
6.177157	-0.07446731	-0.1187022	0.001579955	0.001184516	0.04769344	0.03575649
6.193731	-0.07446731	-0.1187022	0	0	-0.04768177	-0.03574775
6.210299	-0.07446731	-0.1187022	0	0	0	0
6.226857	-0.07444113	-0.1187218	0.001580678	-0.001184721	0.04771732	-0.03576422
6.24343	-0.07444113	-0.1187218	0	0	-0.04770908	0.03575804
6.259991	-0.07444113	-0.1187218	0	0	0	0
6.276556	-0.07415326	-0.1189376	0.0173782	-0.01302803	0.5246035	-0.3932829
6.293127	-0.07415326	-0.1189376	0	0	-0.5244525	0.3931697
6.309696	-0.07415326	-0.1189376	0	0	0	0
6.326262	-0.07394388	-0.1190946	0.0126387	-0.009475203	0.3814313	-0.2859581
6.34283	-0.07394388	-0.1190946	0	0	-0.3814368	0.2859622
6.359396	-0.07394388	-0.1190946	0	0	0	0
6.376015	-0.06682142	-0.124398	0.4285929	-0.3191309	12.91544	-9.616858
6.392529	-0.06682142	-0.124398	0	0	-12.93552	9.631805
6.409388	-0.06682142	-0.124398	0	0	0	0
6.425657	-0.04215921	-0.1424362	1.515882	-1.10873	45.7593	-33.46875
6.44223	-0.04215921	-0.1424362	0	0	-46.1566	33.75934
6.459171	-0.04215921	-0.1424362	0	0	0	0
6.475357	-0.03227826	-0.148426	0.6104721	-0.3700654	18.42833	-11.17117
6.491925	-0.03227826	-0.148426	0	0	-18.63786	11.29818
6.509048	-0.03227826	-0.148426	0	0	0	0
6.525059	-0.03156846	-0.1478501	0.04433016	0.03596277	1.337906	1.085374
6.541625	-0.03156846	-0.1478501	0	0	-1.36074	-1.103898
6.558194	-0.03156846	-0.1478501	0	0	0	0
6.576977	-0.03148959	-0.1477906	0.004198889	0.003171727	0.1187762	0.0897203
6.593549	-0.03148959	-0.1477906	0	0	-0.1187618	-0.08970941
6.610119	-0.03148959	-0.1477906	0	0	0	0
6.626679	-0.03151588	-0.1478501	-0.001587469	-0.003597394	-0.04791613	-0.1085836
6.643251	-0.03151588	-0.1478501	0	0	0.04791337	0.1085774
6.660433	-0.03151588	-0.1478501	0	0	0	0
6.676379	-0.03154217	-0.14787	-0.001648659	-0.00124473	-0.04976594	-0.03757304
6.69295	-0.03154217	-0.14787	0	0	0.05070227	0.03827996
6.709773	-0.03154217	-0.14787	0	0	0	0
6.726079	-0.03151588	-0.1478898	0.001612165	-0.001217176	0.04866223	-0.03673974
6.742652	-0.03151588	-0.1478898	0	0	-0.04903274	0.03701948
6.75922	-0.03151588	-0.1478898	0	0	0	0
6.779941	-0.03127927	-0.1480685	0.01141878	-0.008623864	0.3062266	-0.2312731
6.796609	-0.03127927	-0.1480685	0	0	-0.3054025	0.2306507
6.813417	-0.03130556	-0.1480487	-0.001564096	0.001180885	-0.04672241	0.03527518
6.829887	-0.03130556	-0.1480487	0	0	0.04700091	-0.03548545
6.846211	-0.03130556	-0.1480487	0	0	0	0
6.862777	-0.03130556	-0.1480487	0	0	0	0
6.879347	-0.03130556	-0.1480487	0	0	0	0
6.895909	-0.03130556	-0.1480487	0	0	0	0
6.912478	-0.03130556	-0.1480487	0	0	0	0
6.929042	-0.03130556	-0.1480487	0	0	0	0
6.94561	-0.03130556	-0.1480487	0	0	0	0
6.962175	-0.03125298	-0.1480884	0.003174025	-0.002397273	0.0957964	-0.07235295
6.978743	-0.03125298	-0.1480884	0	0	-0.0957964	0.07235295
6.995874	-0.03125298	-0.1480884	0	0	0	0
7.011876	-0.03122669	-0.1481082	0.001643077	-0.001240427	0.049591	-0.03743831
7.028445	-0.03122669	-0.1481082	0	0	-0.05044698	0.03808453
7.045143	-0.03122669	-0.1481082	0	0	0	0
7.061924	-0.03122669	-0.1481082	0	0	0	0
7.078145	-0.03122669	-0.1481082	0	0	0	0
7.094712	-0.03122669	-0.1481082	0	0	0	0
7.111277	-0.0312004	-0.1481281	0.001587216	-0.001199155	0.04790642	-0.0361937
7.127843	-0.0312004	-0.1481281	0	0	-0.0479078	0.03619474
7.144413	-0.0312004	-0.1481281	0	0	0	0
7.160978	-0.0312004	-0.1481281	0	0	0	0
7.177557	-0.0312004	-0.1481281	0	0	0	0
7.194112	-0.0312004	-0.1481281	0	0	0	0
7.210676	-0.0312004	-0.1481281	0	0	0	0
7.22729	-0.0312004	-0.1481281	0	0	0	0
7.243816	-0.0312004	-0.1481281	0	0	0	0
7.260376	-0.0312004	-0.1481281	0	0	0	0
7.277726	-0.0312004	-0.1481281	0	0	0	0
7.293517	-0.0312004	-0.1481281	0	0	0	0
7.310081	-0.0312004	-0.1481281	0	0	0	0
7.326649	-0.0312004	-0.1481281	0	0	0	0
7.343216	-0.0312004	-0.1481281	0	0	0	0
7.359777	-0.0312004	-0.1481281	0	0	0	0
7.376349	-0.0312004	-0.1481281	0	0	0	0
7.392917	-0.0312004	-0.1481281	0	0	0	0
7.409477	-0.0312004	-0.1481281	0	0	0	0
7.426049	-0.0312004	-0.1481281	0	0	0	0
7.442615	-0.0312004	-0.1481281	0	0	0	0
7.459178	-0.0312004	-0.1481281	0	0	0	0
7.476096	-0.0312004	-0.1481281	0	0	0	0
7.492317	-0.0312004	-0.1481281	0	0	0	0
7.50961	-0.0312004	-0.1481281	0	0	0	0
7.525452	-0.0312004	-0.1481281	0	0	0	0
7.542171	-0.0312004	-0.1481281	0	0	0	0
7.558876	-0.0312004	-0.1481281	0	0	0	0
7.57515	-0.0312004	-0.1481281	0	0	0	0
7.591717	-0.0312004	-0.1481281	0	0	0	0
7.608277	-0.0312004	-0.1481281	0	0	0	0
7.624846	-0.0312004	-0.1481281	0	0	0	0
7.64182	-0.0312004	-0.1481281	0	0	0	0
7.657977	-0.0312004	-0.1481281	0	0	0	0
7.674547	-0.0312004	-0.1481281	0	0	0	0
7.691234	-0.0312004	-0.1481281	0	0	0	0
7.70768	-0.0312004	-0.1481281	0	0	0	0
7.724247	-0.0312004	-0.1481281	0	0	0	0
7.740814	-0.0312004	-0.1481281	0	0	0	0
7.75738	-0.0312004	-0.1481281	0	0	0	0
7.773947	-0.0312004	-0.1481281	0	0	0	0
7.790514	-0.0312004	-0.1481281	0	0	0	0
7.8071	-0.0312004	-0.1481281	0	0	0	0
7.823647	-0.0312004	-0.1481281	0	0	0	0
7.840214	-0.0312004	-0.1481281	0	0	0	0
7.856781	-0.0312004	-0.1481281	0	0	0	0
7.873736	-0.0312004	-0.1481281	0	0	0	0
7.890797	-0.0312004	-0.1481281	0	0	0	0
7.965765	-0.03112153	-0.1481877	0.001052044	-0.0007946667	0.01143164	-0.008634951
7.982332	-0.03112153	-0.1481877	0	0	-0.01149328	0.008681507
7.998901	-0.03104266	-0.1482472	0.004760166	-0.003594631	0.1436538	-0.1084799
8.015466	-0.03104266	-0.1482472	0	0	-0.1436662	0.1084893
8.032077	-0.03104266	-0.1482472	0	0	0	0
8.0486	-0.03099008	-0.1482869	0.003182198	-0.002403361	0.09603893	-0.07253356
8.065167	-0.03099008	-0.1482869	0	0	-0.09616625	0.07262973
8.081734	-0.03099008	-0.1482869	0	0	0	0
8.098297	-0.03093749	-0.1483267	0.003174503	-0.002398448	0.09582048	-0.07239573
8.115281	-0.03093749	-0.1483267	0	0	-0.09462739	0.07149431
8.131449	-0.03093749	-0.1483267	0	0	0	0
8.147998	-0.03085862	-0.1483862	0.004765927	-0.003599882	0.1456724	-0.1100318
8.164886	-0.03085862	-0.1483862	0	0	-0.1425355	0.1076623
8.18197	-0.03085862	-0.1483862	0	0	0	0
8.197698	-0.03075346	-0.1484657	0.006686362	-0.005050744	0.2037772	-0.1539292
8.214267	-0.03075346	-0.1484657	0	0	-0.2070265	0.1563837
8.230834	-0.03075346	-0.1484657	0	0	0	0
8.2474	-0.03043796	-0.148704	0.0190444	-0.01438551	0.5747778	-0.4341679
8.263967	-0.03043796	-0.148704	0	0	-0.5747943	0.4341804
8.280941	-0.03043796	-0.148704	0	0	0	0
8.2971	-0.0300173	-0.1490218	0.02603291	-0.01966681	0.7856973	-0.5935625
8.313666	-0.0300173	-0.1490218	0	0	-0.795497	0.6009659
8.33036	-0.0300173	-0.1490218	0	0	0	0
8.346818	-0.02935998	-0.1495184	0.03994009	-0.03017707	1.20477	-0.9102741
8.363389	-0.02935998	-0.1495184	0	0	-1.209258	0.9136646
8.380315	-0.02935998	-0.1495184	0	0	0	0
8.396519	-0.02922852	-0.1496178	0.008113211	-0.006131003	0.2448924	-0.1850607
8.413764	-0.02922852	-0.1496178	0	0	-0.2425534	0.1832931
8.429653	-0.02922852	-0.1496178	0	0	0	0
8.446221	-0.02922852	-0.1496178	0	0	0	0
8.463103	-0.02922852	-0.1496178	0	0	0	0
8.479355	-0.02922852	-0.1496178	0	0	0	0
8.495919	-0.02922852	-0.1496178	0	0	0	0
8.512488	-0.02922852	-0.1496178	0	0	0	0
8.529056	-0.02922852	-0.1496178	0	0	0	0
8.545643	-0.02920222	-0.1496377	0.001585138	-0.001198399	0.04781067	-0.0361459
8.562189	-0.02920222	-0.1496377	0	0	-0.04784095	0.03616879
8.578755	-0.02920222	-0.1496377	0	0	0	0
8.595388	-0.02920222	-0.1496377	0	0	0	0
8.611889	-0.02920222	-0.1496377	0	0	0	0
8.628541	-0.02920222	-0.1496377	0	0	0	0
8.645022	-0.02920222	-0.1496377	0	0	0	0
8.661589	-0.02920222	-0.1496377	0	0	0	0
8.678857	-0.02920222	-0.1496377	0	0	0	0
8.69472	-0.02920222	-0.1496377	0	0	0	0
8.711289	-0.02920222	-0.1496377	0	0	0	0
8.727857	-0.02920222	-0.1496377	0	0	0	0
8.744421	-0.02922852	-0.1496178	-0.001587329	0.001200055	-0.04790981	0.03622085
8.76099	-0.02922852	-0.1496178	0	0	0.04790705	-0.03621876
8.778149	-0.02922852	-0.1496178	0	0	0	0
8.794295	-0.02922852	-0.1496178	0	0	0	0
8.810688	-0.02922852	-0.1496178	0	0	0	0
8.827253	-0.02922852	-0.1496178	0	0	0	0
8.843821	-0.02922852	-0.1496178	0	0	0	0
8.86039	-0.02922852	-0.1496178	0	0	0	0
8.876956	-0.02922852	-0.1496178	0	0	0	0
8.89352	-0.02922852	-0.1496178	0	0	0	0
8.910349	-0.02922852	-0.1496178	0	0	0	0
8.926662	-0.02922852	-0.1496178	0	0	0	0
8.943223	-0.02922852	-0.1496178	0	0	0	0
8.959793	-0.02922852	-0.1496178	0	0	0	0
8.976462	-0.02922852	-0.1496178	0	0	0	0
8.997979	-0.02922852	-0.1496178	0	0	0	0
9.015244	-0.02922852	-0.1496178	0	0	0	0
9.031163	-0.02922852	-0.1496178	0	0	0	0
9.04768	-0.02922852	-0.1496178	0	0	0	0
9.064246	-0.02922852	-0.1496178	0	0	0	0
9.080812	-0.02922852	-0.1496178	0	0	0	0
9.097379	-0.02922852	-0.1496178	0	0	0	0
9.114042	-0.02922852	-0.1496178	0	0	0	0
9.130512	-0.02922852	-0.1496178	0	0	0	0
9.147081	-0.02922852	-0.1496178	0	0	0	0
9.163664	-0.02922852	-0.1496178	0	0	0	0
9.180212	-0.02922852	-0.1496178	0	0	0	0
9.196781	-0.02922852	-0.1496178	0	0	0	0
9.214155	-0.02922852	-0.1496178	0	0	0	0
9.229915	-0.02922852	-0.1496178	0	0	0	0
9.246481	-0.02922852	-0.1496178	0	0	0	0
9.263048	-0.02922852	-0.1496178	0	0	0	0
9.279612	-0.02920222	-0.1496377	0.00158742	-0.001200124	0.04791395	-0.03622398
9.296182	-0.02920222	-0.1496377	0	0	-0.04790981	0.03622085
9.312748	-0.02920222	-0.1496377	0	0	0	0
9.329725	-0.02922852	-0.1496178	-0.00154872	0.001170866	-0.04617037	0.0349058
9.34588	-0.02922852	-0.1496178	0	0	0.0467445	-0.03533985
9.362451	-0.02922852	-0.1496178	0	0	0	0
9.379012	-0.02922852	-0.1496178	0	0	0	0
9.395581	-0.02922852	-0.1496178	0	0	0	0
9.412256	-0.02922852	-0.1496178	0	0	0	0
9.428713	-0.02922852	-0.1496178	0	0	0	0
9.445282	-0.02922852	-0.1496178	0	0	0	0
9.461848	-0.02922852	-0.1496178	0	0	0	0
9.478413	-0.0293074	-0.1495582	-0.004761986	0.003598365	-0.1437336	0.1086114
9.495255	-0.0293074	-0.1495582	0	0	0.1425477	-0.1077153
9.511545	-0.0293074	-0.1495582	0	0	0	0
9.528111	-0.03148959	-0.1477111	-0.131725	0.1114933	-4.009047	3.393295
9.544958	-0.03148959	-0.1477111	0	0	3.942336	-3.336831
9.561246	-0.03148959	-0.1477111	0	0	0	0
9.577812	-0.04814697	-0.108443	-1.005499	2.370368	-30.60501	72.14836
9.59438	-0.04814697	-0.108443	0	0	30.34604	-71.53785
9.610948	-0.04814697	-0.108443	0	0	0	0
9.627514	-0.05720069	-0.03543905	-0.5465152	4.406779	-16.49434	133.0007
9.64408	-0.05720069	-0.03543905	0	0	16.49481	-133.0045
9.661009	-0.05720069	-0.03543905	0	0	0	0
9.677211	-0.0498534	-0.01007537	0.4534816	1.565469	13.68768	47.25138
9.693782	-0.0498534	-0.01007537	0	0	-13.83704	-47.76701
9.710346	-0.0498534	-0.01007537	0	0	0	0
9.726911	-0.04982714	-0.01005649	0.001584855	0.001139838	0.04783927	0.03440633
9.743479	-0.04982714	-0.01005649	0	0	-0.04783377	-0.03440237
9.760047	-0.04982714	-0.01005649	0	0	0	0
9.77661	-0.04987964	-0.009980964	-0.003169667	0.00455956	-0.09566901	0.1376197
9.793721	-0.04987964	-0.009980964	0	0	0.09412736	-0.135402
9.809747	-0.04987964	-0.009980964	0	0	0	0
9.826311	-0.04961714	-0.008961587	0.01584765	0.06154031	0.4862747	1.888324
9.842885	-0.04961714	-0.008961587	0	0	-0.4782279	-1.857076
9.859451	-0.04961714	-0.008961587	0	0	0	0
9.876019	-0.0601117	0.00087608	-0.6334531	0.5938028	-19.1182	17.92152
9.892584	-0.0601117	0.00087608	0	0	19.11875	-17.92204
9.909235	-0.0601117	0.00087608	0	0	0	0
9.925858	-0.07637745	0.01527892	-0.9785356	0.8664641	-29.40868	26.04051
9.942285	-0.07637745	0.01527892	0	0	29.60811	-26.2171
9.95885	-0.07637745	0.01527892	0	0	0	0
9.975411	-0.05245185	0.03696831	1.444651	1.309626	43.60971	39.53371
9.991985	-0.05245185	0.03696831	0	0	-43.59841	-39.52347
10.00904	-0.05245185	0.03696831	0	0	0	0
10.02791	-0.03382919	0.05130157	0.9871728	0.7597957	27.47951	21.15011
10.04448	-0.03382919	0.05130157	0	0	-27.86116	-21.44386
10.06105	-0.03382919	0.05130157	0	0	0	0
10.07761	-0.03527484	0.05276719	-0.08727429	0.08848042	-2.633943	2.670344
10.09418	-0.03527484	0.05276719	0	0	2.634171	-2.670575
10.11084	-0.03527484	0.05276719	0	0	0	0
10.12735	-0.03537997	0.05287848	-0.006367003	0.00673994	-0.1919466	0.2031896
10.14388	-0.03537997	0.05287848	0	0	0.1927056	-0.203993
10.16044	-0.03537997	0.05287848	0	0	0	0
10.17701	-0.03887514	0.05616013	-0.2109811	0.1980919	-6.36779	5.97877
10.19358	-0.03887514	0.05616013	0	0	6.36779	-5.97877
10.21014	-0.03887514	0.05616013	0	0	0	0
10.22695	-0.05680723	0.0689457	-1.066967	0.7607468	-31.97109	22.79536
10.24328	-0.05680723	0.0689457	0	0	32.20206	-22.96004
10.25991	-0.05680723	0.0689457	0	0	0	0
10.27641	-0.0568597	0.06905654	-0.003179501	0.006717522	-0.09596304	0.2027469
10.29298	-0.0568597	0.06905654	0	0	0.09615124	-0.2031445
10.30954	-0.0568597	0.06905654	0	0	0	0
10.32611	-0.0568597	0.06905654	0	0	0	0
10.34267	-0.0568597	0.06905654	0	0	0	0
10.35924	-0.0568597	0.06905654	0	0	0	0
10.37581	-0.0568597	0.06905654	0	0	0	0
10.39237	-0.0568597	0.06905654	0	0	0	0
10.40908	-0.0568597	0.06905654	0	0	0	0
10.42551	-0.0568597	0.06905654	0	0	0	0
10.44207	-0.0568597	0.06905654	0	0	0	0
10.45864	-0.0568597	0.06905654	0	0	0	0
10.47521	-0.0568597	0.06905654	0	0	0	0
10.49178	-0.0568597	0.06905654	0	0	0	0
10.50835	-0.0568597	0.06905654	0	0	0	0
10.52491	-0.0568597	0.06905654	0	0	0	0
10.54148	-0.0568597	0.06905654	0	0	0	0
10.55821	-0.0568597	0.06905654	0	0	0	0
10.57461	-0.05688593	0.06903806	-0.001599436	-0.001126716	-0.04827525	-0.03400728
10.59122	-0.05688593	0.06903806	0	0	0.04846498	0.03414093
10.60855	-0.05688593	0.06903806	0	0	0	0
10.62434	-0.05688593	0.06903806	0	0	0	0
10.68247	-0.05688593	0.06903806	0	0	0	0
10.69904	-0.05688593	0.06903806	0	0	0	0
10.71561	-0.05772527	0.06840992	-0.05065692	-0.03791045	-1.528785	-1.144107
10.73218	-0.05772527	0.06840992	0	0	1.528741	1.144074
10.74895	-0.05772527	0.06840992	0	0	0	0
10.76531	-0.06108182	0.06604428	-0.2051763	-0.144605	-6.193123	-4.364817
10.78187	-0.06108182	0.06604428	0	0	6.231511	4.391871
10.79844	-0.06108182	0.06604428	0	0	0	0
10.81506	-0.06110803	0.06602579	-0.001577472	-0.001112613	-0.0475316	-0.0335247
10.83157	-0.06110803	0.06602579	0	0	0.04760821	0.03357874
10.84817	-0.06110803	0.06602579	0	0	0	0
10.86838	-0.06108182	0.0660073	0.001297291	-0.0009146287	0.03524205	-0.0248467
10.88495	-0.06108182	0.0660073	0	0	-0.03527129	0.02486731
10.90152	-0.06108182	0.0660073	0	0	0	0
10.91811	-0.06108182	0.0660073	0	0	0	0
10.93465	-0.06108182	0.0660073	0	0	0	0
10.95122	-0.06110803	0.06598882	-0.001582648	-0.001115814	-0.04779194	-0.03369474
10.96779	-0.06110803	0.06598882	0	0	0.04776718	0.03367728
10.98435	-0.06110803	0.06598882	0	0	0	0
11.00092	-0.07001694	0.05966124	-0.5377424	-0.3819331	-16.22956	-11.52709
11.01749	-0.07001694	0.05966124	0	0	16.22956	11.52709
11.03405	-0.07001694	0.05966124	0	0	0	0
11.05062	-0.09257672	0.04361185	-1.361711	-0.9687433	-41.09771	-29.23757
11.06719	-0.09257672	0.04361185	0	0	41.09889	29.23841
11.08389	-0.09257672	0.04361185	0	0	0	0
11.10035	-0.09745347	0.04013337	-0.2962712	-0.2113241	-8.932484	-6.371354
11.11689	-0.09745347	0.04013337	0	0	8.979733	6.405056
11.13345	-0.09745347	0.04013337	0	0	0	0
11.15002	-0.1160551	0.02459845	-1.122861	-0.9377433	-33.88897	-28.30196
11.16659	-0.1160551	0.02459845	0	0	33.88995	28.30278
11.18315	-0.1160551	0.02459845	0	0	0	0
11.19972	-0.1643975	-0.01060407	-2.917955	-2.124829	-88.0666	-64.1293
11.21629	-0.1643975	-0.01060407	0	0	88.0666	64.1293
11.23285	-0.1643975	-0.01060407	0	0	0	0
11.25011	-0.1676483	-0.01300322	-0.1884111	-0.1390498	-5.570973	-4.111449
11.26598	-0.1676483	-0.01300322	0	0	5.686914	4.197015
11.28255	-0.1676483	-0.01300322	0	0	0	0
11.29914	-0.167239	-0.01239854	0.02467238	0.03644389	0.744057	1.099056
11.31568	-0.167239	-0.01239854	0	0	-0.7446352	-1.09991
11.33267	-0.167239	-0.01239854	0	0	0	0
11.34882	-0.166676	-0.01190733	0.03485456	0.03041327	1.051943	0.9179007
11.36538	-0.166676	-0.01190733	0	0	-1.065312	-0.9295661
11.38195	-0.166676	-0.01190733	0	0	0	0
11.39852	-0.166676	-0.01190733	0	0	0	0
11.41508	-0.166676	-0.01190733	0	0	0	0
11.43165	-0.166676	-0.01190733	0	0	0	0
11.44862	-0.1665481	-0.01177509	0.007541166	0.007792578	0.2248617	0.2323582
11.46478	-0.1665481	-0.01177509	0	0	-0.2276059	-0.235194
11.48203	-0.1665481	-0.01177509	0	0	0	0
11.50419	-0.1663689	-0.01149174	0.008086257	0.01279007	0.2052145	0.3245887
11.52076	-0.1663689	-0.01149174	0	0	-0.208818	-0.3302884
11.54676	-0.1664457	-0.01143507	-0.002952828	0.002179552	-0.06936543	0.05120026
11.56332	-0.1664457	-0.01143507	0	0	0.06936853	-0.05120255
11.5815	-0.1664969	-0.0113973	-0.002815352	0.002077859	-0.08101959	0.05979617
11.59808	-0.1664969	-0.0113973	0	0	0.08101292	-0.05979125
11.61464	-0.1664969	-0.0113973	0	0	0	0
11.63121	-0.1665481	-0.01135952	-0.003090452	0.002280895	-0.09328344	0.06884746
11.64787	-0.1665481	-0.01135952	0	0	0.09302103	-0.06865378
11.66438	-0.1665481	-0.01135952	0	0	0	0
11.68091	-0.1665737	-0.01134063	-0.001548618	0.001142591	-0.04686689	0.03457899
11.69748	-0.1665737	-0.01134063	0	0	0.04678991	-0.0345222
11.71404	-0.1665737	-0.01134063	0	0	0	0
11.73061	-0.1665737	-0.01134063	0	0	0	0
11.74718	-0.1665737	-0.01134063	0	0	0	0
11.76374	-0.1665737	-0.01134063	0	0	0	0
11.78031	-0.1665992	-0.01120842	-0.001544687	0.007982364	-0.04662546	0.2409429
11.79688	-0.1665992	-0.01120842	0	0	0.04662143	-0.2409221
11.81351	-0.1665992	-0.01120842	0	0	0	0
11.83007	-0.1667272	-0.01054742	-0.007728359	0.03991831	-0.2328336	1.202625
11.84658	-0.1667272	-0.01054742	0	0	0.23372	-1.207204
11.86319	-0.1667272	-0.01054742	0	0	0	0
11.87971	-0.1670855	-0.01016977	-0.02169577	0.02287138	-0.6548551	0.6903391
11.89628	-0.1670855	-0.01016977	0	0	0.6558179	-0.6913541
11.9129	-0.1670855	-0.01016977	0	0	0	0
11.92955	-0.1671111	-0.01011313	-0.001537971	0.003402918	-0.0462258	0.1022793
11.946	-0.1671111	-0.01011313	0	0	0.04646019	-0.1027979
11.96254	-0.1671111	-0.01011313	0	0	0	0
11.97911	-0.1671622	-0.009999843	-0.003089374	0.00683948	-0.09333152	0.2066241
11.99567	-0.1671622	-0.009999843	0	0	0.09324823	-0.2064397
12.01224	-0.1671622	-0.009999843	0	0	0	0
12.02904	-0.1672902	-0.009905444	-0.007617731	0.005621293	-0.2283329	0.1684919
12.04538	-0.1672902	-0.009905444	0	0	0.2299036	-0.169651
12.06195	-0.1672902	-0.009905444	0	0	0	0
12.07855	-0.1672902	-0.009905444	0	0	0	0
12.09508	-0.1672902	-0.009905444	0	0	0	0
12.11164	-0.1672902	-0.009905444	0	0	0	0
12.12821	-0.1672646	-0.009924323	0.001544598	-0.001139782	0.04662143	-0.03440265
12.14478	-0.1672646	-0.009924323	0	0	-0.04661741	0.03439968
12.16134	-0.1672646	-0.009924323	0	0	0	0
12.18089	-0.1669063	-0.01022642	0.01832317	-0.01545208	0.5073203	-0.4278273
12.19765	-0.1669063	-0.01022642	0	0	-0.5046155	0.4255463
12.21403	-0.1669063	-0.01022642	0	0	0	0
12.2306	-0.1620404	-0.01430745	0.2937597	-0.246374	8.917789	-7.47928
12.24716	-0.1620404	-0.01430745	0	0	-8.865941	7.435795
12.2642	-0.1620404	-0.01430745	0	0	0	0
12.28046	-0.1495848	-0.02356576	0.7657523	-0.5691863	22.99661	-17.09346
12.29686	-0.1495848	-0.02356576	0	0	-23.44104	17.42381
12.3137	-0.1495848	-0.02356576	0	0	0	0
12.33	-0.1487613	-0.02413464	0.05052458	-0.03490221	1.524967	-1.053442
12.34676	-0.1487613	-0.02413464	0	0	-1.527957	1.055508
12.36313	-0.1487613	-0.02413464	0	0	0	0
12.3797	-0.1483494	-0.02443808	0.02486343	-0.01832022	0.7549867	-0.5562997
12.39628	-0.1483494	-0.02443808	0	0	-0.750013	0.5526349
12.41283	-0.1483494	-0.02443808	0	0	0	0
12.42939	-0.1477831	-0.02485537	0.0341888	-0.02519025	1.032533	-0.7607688
12.44596	-0.1477831	-0.02485537	0	0	-1.031879	0.7602871
12.46253	-0.1477831	-0.02485537	0	0	0	0
12.47909	-0.1341112	-0.0350013	0.8253794	-0.6125156	24.91143	-18.48682
12.49566	-0.1341112	-0.0350013	0	0	-24.91215	18.48735
12.51223	-0.1341112	-0.0350013	0	0	0	0
12.52879	-0.08286246	-0.07329243	3.093736	-2.311523	93.37452	-69.76593
12.54536	-0.08286246	-0.07329243	0	0	-93.37452	69.76593
12.56193	-0.08286246	-0.07329243	0	0	0	0
12.57849	-0.01962906	-0.1208415	3.817215	-2.870399	115.2104	-86.6338
12.59506	-0.01962906	-0.1208415	0	0	-115.2005	86.62633
12.61163	-0.01962906	-0.1208415	0	0	0	0
12.6282	0.04213295	-0.1681492	3.728391	-2.855825	112.5328	-86.19641
12.64476	0.04213295	-0.1681492	0	0	-112.5231	86.18896
12.66133	0.04213295	-0.1681492	0	0	0	0
12.6779	0.05793509	-0.1923528	0.9538743	-1.461018	28.79047	-44.09742
12.69446	0.05793509	-0.1923528	0	0	-28.78964	44.09615
12.71103	0.05793509	-0.1923528	0	0	0	0
12.72759	0.05035214	-0.1956961	-0.4577869	-0.201835	-13.81763	-6.092093
12.74424	0.05035214	-0.1956961	0	0	13.78509	6.077748
12.76073	0.05035214	-0.1956961	0	0	0	0
12.77729	0.05035214	-0.1956961	0	0	0	0
12.79386	0.05035214	-0.1956961	0	0	0	0
12.81043	0.05035214	-0.1956961	0	0	0	0
12.82705	0.05032589	-0.1956353	-0.001579084	0.00365928	-0.0475829	0.1102659
12.84356	0.05032589	-0.1956353	0	0	0.04766234	-0.11045
12.86013	0.05032589	-0.1956353	0	0	0	0
12.8767	0.05019464	-0.1954528	-0.007919951	0.01101222	-0.2389765	0.3322826
12.89326	0.05019464	-0.1954528	0	0	0.2390246	-0.3323495
12.90983	0.05019464	-0.1954528	0	0	0	0
12.92639	0.05011589	-0.195392	-0.004754115	0.003671232	-0.143496	0.1108107
12.94296	0.05011589	-0.195392	0	0	0.1434836	-0.1108012
12.95953	0.05011589	-0.195392	0	0	0	0
12.97609	0.05011589	-0.195392	0	0	0	0
12.9929	0.05011589	-0.195392	0	0	0	0
13.00969	0.05011589	-0.195392	0	0	0	0
13.02579	0.05008965	-0.1953717	-0.001629956	0.001259364	-0.04955732	0.03828982
13.04236	0.05008965	-0.1953717	0	0	0.04988712	-0.03854464
13.05893	0.05008965	-0.1953717	0	0	0	0
13.07549	0.04972214	-0.1950473	-0.02218384	0.01958005	-0.6695482	0.590961
13.09206	0.04972214	-0.1950473	0	0	0.6695482	-0.590961
13.10863	0.04972214	-0.1950473	0	0	0	0
13.12519	0.04911835	-0.1944595	-0.03645099	0.03548618	-1.100188	1.071067
13.14176	0.04911835	-0.1944595	0	0	1.100188	-1.071067
13.15833	0.04911835	-0.1944595	0	0	0	0
13.17489	0.03028022	-0.1799363	-1.137596	0.8770283	-34.3347	26.47029
13.19147	0.03028022	-0.1799363	0	0	34.33371	-26.46953
13.20803	0.03028022	-0.1799363	0	0	0	0
13.2246	-0.003236831	-0.1543911	-2.02286	1.541731	-61.05004	46.52953
13.24117	-0.003236831	-0.1543911	0	0	61.04828	-46.52819
13.25773	-0.003236831	-0.1543911	0	0	0	0
13.27429	-0.02197015	-0.140179	-1.131006	0.8580427	-34.14168	25.90174
13.29087	-0.02197015	-0.140179	0	0	34.13087	-25.89354
13.30759	-0.02197015	-0.140179	0	0	0	0
13.324	-0.03022763	-0.1339333	-0.5031437	0.3805594	-15.18709	11.48696
13.34057	-0.03022763	-0.1339333	0	0	15.25604	-11.53911
13.4195	-0.03022763	-0.1339333	0	0	0	0
13.44414	-0.03030651	-0.1339136	-0.003201776	0.0008014837	-0.03091385	0.0077385
13.4607	-0.03030651	-0.1339136	0	0	0.07771181	-0.01945319
13.4773	-0.03035909	-0.1338741	-0.003169071	0.002378908	-0.09557124	0.07174191
13.49384	-0.03035909	-0.1338741	0	0	0.09563726	-0.07179146
13.51041	-0.03035909	-0.1338741	0	0	0	0
13.52697	-0.03070088	-0.1336175	-0.02063025	0.01548829	-0.62264	0.4674508
13.54354	-0.03070088	-0.1336175	0	0	0.62264	-0.4674508
13.56012	-0.03070088	-0.1336175	0	0	0	0
13.57918	-0.03067459	-0.1336373	0.001379246	-0.001035778	0.03869859	-0.02906164
13.59575	-0.03067459	-0.1336373	0	0	-0.03870999	0.0290702
13.61232	-0.03067459	-0.1336373	0	0	0	0
13.62888	-0.030622	-0.1336767	0.00317425	-0.00238288	0.09580456	-0.07191961
13.64545	-0.030622	-0.1336767	0	0	-0.09580732	0.07192168
13.66201	-0.030622	-0.1336767	0	0	0	0
13.67858	-0.030622	-0.1337162	0	-0.00238288	0	-0.07191753
13.69523	-0.030622	-0.1337162	0	0	0	0.07174201
13.71174	-0.030622	-0.1337162	0	0	0	0
13.72828	-0.03054313	-0.1337754	0.004769613	-0.003580954	0.1443127	-0.1083478
13.74485	-0.03054313	-0.1337754	0	0	-0.1440841	0.1081762
13.76142	-0.03054313	-0.1337754	0	0	0	0
13.77805	-0.03049055	-0.1338149	0.003161328	-0.00237318	0.09520356	-0.07146843
13.79455	-0.03049055	-0.1338149	0	0	-0.09542005	0.07163095
13.81135	-0.03049055	-0.1338149	0	0	0	0
13.82768	-0.03049055	-0.1338149	0	0	0	0
13.84425	-0.03049055	-0.1338149	0	0	0	0
13.86082	-0.03049055	-0.1338149	0	0	0	0
13.87738	-0.03049055	-0.1338149	0	0	0	0
13.89395	-0.03049055	-0.1338149	0	0	0	0
13.91128	-0.03049055	-0.1338149	0	0	0	0
13.92708	-0.03049055	-0.1338149	0	0	0	0
13.94365	-0.03049055	-0.1338149	0	0	0	0
13.96022	-0.03049055	-0.1338149	0	0	0	0
13.97855	-0.03043796	-0.1338938	0.002867522	-0.004305245	0.08215566	-0.123347
13.99512	-0.03043796	-0.1338938	0	0	-0.08214892	0.1233369
14.01169	-0.03043796	-0.1338938	0	0	0	0
14.02825	-0.03041167	-0.1339136	0.001587216	-0.001191958	0.04790642	-0.03597648
14.04484	-0.03041167	-0.1339136	0	0	-0.04787885	0.03595578
14.06139	-0.03041167	-0.1339136	0	0	0	0
14.07796	-0.03028022	-0.1340123	0.007936651	-0.005959236	0.2396735	-0.1799589
14.09452	-0.03028022	-0.1340123	0	0	-0.2395424	0.1798604
14.11166	-0.03028022	-0.1340123	0	0	0	0
14.12766	-0.03004359	-0.13419	0.01479553	-0.01110894	0.4465815	-0.335307
14.14422	-0.03004359	-0.13419	0	0	-0.4543768	0.3411599
14.16079	-0.03004359	-0.13419	0	0	0	0
14.17736	-0.029991	-0.1342294	0.003174179	-0.002382743	0.09579968	-0.07191338
14.19392	-0.029991	-0.1342294	0	0	-0.09581071	0.07192167
14.21049	-0.029991	-0.1342294	0	0	0	0
14.22715	-0.029991	-0.1342294	0	0	0	0
14.24362	-0.029991	-0.1342294	0	0	0	0
14.26019	-0.029991	-0.1342294	0	0	0	0
14.27676	-0.02970179	-0.1344861	0.01745804	-0.01549278	0.5269	-0.4675863
14.29332	-0.02970179	-0.1344861	0	0	-0.5269151	0.4675998
14.30989	-0.02970179	-0.1344861	0	0	0	0
14.32646	-0.02954403	-0.134644	0.009522763	-0.009534569	0.2874141	-0.2877705
14.34303	-0.02954403	-0.134644	0	0	-0.287381	0.2877373
14.35959	-0.02954403	-0.134644	0	0	0	0
14.37644	-0.02670418	-0.1368565	0.1685423	-0.1313073	5.043934	-3.92961
14.39275	-0.02670418	-0.1368565	0	0	-5.083105	3.960127
14.40929	-0.02670418	-0.1368565	0	0	0	0
14.42586	-0.01812959	-0.1433872	0.5176225	-0.3942367	15.63493	-11.90802
14.44242	-0.01812959	-0.1433872	0	0	-15.62233	11.89843
14.45899	-0.01812959	-0.1433872	0	0	0	0
14.47555	-0.01791913	-0.1435457	0.01270549	-0.009571651	0.3834966	-0.2889062
14.49212	-0.01791913	-0.1435457	0	0	-0.3834635	0.2888813
14.50869	-0.01791913	-0.1435457	0	0	0	0
14.52526	-0.01802436	-0.1434664	-0.006352069	0.004785274	-0.1917169	0.1444282
14.54182	-0.01802436	-0.1434664	0	0	0.1917224	-0.1444323
14.55871	-0.01802436	-0.1434664	0	0	0	0
14.57496	-0.01810328	-0.143407	-0.004857875	0.003659745	-0.146611	0.1104513
14.59152	-0.01810328	-0.143407	0	0	0.1480513	-0.1115364
14.60809	-0.01810328	-0.143407	0	0	0	0
14.62466	-0.01812959	-0.1433872	-0.001587954	0.00119625	-0.04792455	0.03610289
14.64123	-0.01812959	-0.1433872	0	0	0.04792179	-0.03610081
14.65779	-0.01812959	-0.1433872	0	0	0	0
14.6814	-0.01818221	-0.1433475	-0.002228998	0.001679225	-0.05548555	0.04180028
14.69797	-0.01818221	-0.1433475	0	0	0.05548687	-0.04180128
14.71453	-0.01818221	-0.1433475	0	0	0	0
14.73134	-0.01818221	-0.1433475	0	0	0	0
14.74777	-0.01818221	-0.1433475	0	0	0	0
14.76426	-0.01818221	-0.1433475	0	0	0	0
14.7808	-0.01818221	-0.1433475	0	0	0	0
14.79737	-0.01818221	-0.1433475	0	0	0	0
14.81393	-0.0181559	-0.1433674	0.001588046	-0.001196319	0.04792869	-0.03610601
14.8305	-0.0181559	-0.1433674	0	0	-0.04792869	0.03610601
14.84706	-0.0181559	-0.1433674	0	0	0	0
14.86579	-0.0181559	-0.1433674	0	0	0	0
14.88236	-0.0181559	-0.1433674	0	0	0	0
14.89935	-0.0181559	-0.1433674	0	0	0	0
14.91549	-0.01818221	-0.1433475	-0.001629893	0.001227843	-0.04919168	0.03705746
14.93206	-0.01818221	-0.1433475	0	0	0.04983282	-0.03754045
14.94863	-0.01818221	-0.1433475	0	0	0	0
14.96529	-0.0181559	-0.1433674	0.001579046	-0.001189539	0.04751894	-0.03579733
14.98176	-0.0181559	-0.1433674	0	0	-0.0476612	0.0359045
14.99833	-0.0181559	-0.1433674	0	0	0	0
15.01489	-0.0181559	-0.1433674	0	0	0	0
15.03228	-0.0181559	-0.1433674	0	0	0	0
15.04803	-0.0181559	-0.1433674	0	0	0	0
15.06459	-0.01818221	-0.1433475	-0.001588503	0.001196663	-0.04916514	0.03703746
15.08144	-0.01818221	-0.1433475	0	0	0.0475402	-0.03581334
15.09773	-0.01818221	-0.1433475	0	0	0	0
15.11461	-0.01818221	-0.1433475	0	0	0	0
15.13086	-0.01818221	-0.1433475	0	0	0	0
15.14743	-0.01818221	-0.1433475	0	0	0	0
15.16399	-0.01818221	-0.1433475	0	0	0	0
15.18093	-0.01818221	-0.1433475	0	0	0	0
15.19749	-0.01818221	-0.1433475	0	0	0	0
15.21568	-0.01818221	-0.1433475	0	0	0	0
15.23225	-0.01818221	-0.1433475	0	0	0	0
15.249	-0.01818221	-0.1433475	0	0	0	0
15.26538	-0.01820851	-0.1433277	-0.001605587	0.001208709	-0.04845811	0.03647996
15.28195	-0.01820851	-0.1433277	0	0	0.04872739	-0.03668268
15.29851	-0.01820851	-0.1433277	0	0	0	0
15.31508	-0.01820851	-0.1433277	0	0	0	0
15.33165	-0.01820851	-0.1433277	0	0	0	0
15.34821	-0.01820851	-0.1433277	0	0	0	0
15.36478	-0.01818221	-0.1433475	0.001588116	-0.001195557	0.04793357	-0.03608509
15.38135	-0.01818221	-0.1433475	0	0	-0.04793081	0.03608301
15.39791	-0.01818221	-0.1433475	0	0	0	0
15.41448	-0.01818221	-0.1433475	0	0	0	0
15.43105	-0.01818221	-0.1433475	0	0	0	0
15.44761	-0.01818221	-0.1433475	0	0	0	0
15.46422	-0.01818221	-0.1433475	0	0	0	0
15.48075	-0.01818221	-0.1433475	0	0	0	0
15.49731	-0.01818221	-0.1433475	0	0	0	0
15.51554	-0.01820851	-0.1433277	-0.001443281	0.001086523	-0.04148205	0.03122829
15.53606	-0.01820851	-0.1433277	0	0	0.03725358	-0.02804504
15.55263	-0.01820851	-0.1433277	0	0	0	0
15.56919	-0.01820851	-0.1433277	0	0	0	0
15.58623	-0.01820851	-0.1433277	0	0	0	0
15.60233	-0.01820851	-0.1433277	0	0	0	0
15.61889	-0.01820851	-0.1433277	0	0	0	0
15.63546	-0.01820851	-0.1433277	0	0	0	0
15.65203	-0.01820851	-0.1433277	0	0	0	0
15.66859	-0.01820851	-0.1433277	0	0	0	0
15.68521	-0.01820851	-0.1433277	0	0	0	0
15.70173	-0.01820851	-0.1433277	0	0	0	0
15.71829	-0.01820851	-0.1433277	0	0	0	0
15.73486	-0.01820851	-0.1433277	0	0	0	0
15.7515	-0.01820851	-0.1433277	0	0	0	0
15.76799	-0.01820851	-0.1433277	0	0	0	0
15.78456	-0.01820851	-0.1433277	0	0	0	0
15.80113	-0.01820851	-0.1433277	0	0	0	0
15.81769	-0.01820851	-0.1433277	0	0	0	0
15.83426	-0.01820851	-0.1433277	0	0	0	0
15.85083	-0.01820851	-0.1433277	0	0	0	0
15.86739	-0.01823482	-0.1433079	-0.001588046	0.001196319	-0.04793007	0.03610704
15.88396	-0.01823482	-0.1433079	0	0	0.04792869	-0.03610601
15.90053	-0.01823482	-0.1433079	0	0	0	0
15.91709	-0.01823482	-0.1433079	0	0	0	0
15.93366	-0.01823482	-0.1433079	0	0	0	0
15.95022	-0.01823482	-0.1433079	0	0	0	0
15.96679	-0.01823482	-0.1433079	0	0	0	0
15.98336	-0.01823482	-0.1433079	0	0	0	0
15.99993	-0.01823482	-0.1433079	0	0	0	0
16.01649	-0.01823482	-0.1433079	0	0	0	0
16.03306	-0.01823482	-0.1433079	0	0	0	0
16.04963	-0.01823482	-0.1433079	0	0	0	0
16.06619	-0.01823482	-0.1433079	0	0	0	0
16.14131	-0.01823482	-0.1433079	0	0	0	0
16.15812	-0.01823482	-0.1433079	0	0	0	0
16.17492	-0.01823482	-0.1433079	0	0	0	0
16.19125	-0.01823482	-0.1433079	0	0	0	0
16.20782	-0.01823482	-0.1433079	0	0	0	0
16.22439	-0.01823482	-0.1433079	0	0	0	0
16.24149	-0.01823482	-0.1433079	0	0	0	0
16.25761	-0.01823482	-0.1433079	0	0	0	0
16.27409	-0.01826113	-0.1432881	-0.001596295	0.001202619	-0.04897697	0.03689832
16.29066	-0.01826113	-0.1432881	0	0	0.04829862	-0.03638726
16.30723	-0.01826113	-0.1432881	0	0	0	0
16.32379	-0.01826113	-0.1432881	0	0	0	0
16.34036	-0.01826113	-0.1432881	0	0	0	0
16.357	-0.01826113	-0.1432881	0	0	0	0
16.37349	-0.01828744	-0.1432683	-0.001595854	0.001202201	-0.0481713	0.03628877
16.39006	-0.01828744	-0.1432683	0	0	0.04827413	-0.03636624
16.40662	-0.01828744	-0.1432683	0	0	0	0
16.42318	-0.01839266	-0.143189	-0.006353786	0.004785752	-0.1918128	0.1444759
16.43976	-0.01839266	-0.143189	0	0	0.1917576	-0.1444343
16.45636	-0.01839266	-0.143189	0	0	0	0
16.47288	-0.01849789	-0.1431098	-0.006367607	0.004796247	-0.192219	0.1447844
16.48946	-0.01849789	-0.1431098	0	0	0.192363	-0.1448928
16.50602	-0.01849789	-0.1431098	0	0	0	0
16.52258	-0.01849789	-0.1431098	0	0	0	0
16.53916	-0.01849789	-0.1431098	0	0	0	0
16.55584	-0.01849789	-0.1431098	0	0	0	0
16.57252	-0.01849789	-0.1431098	0	0	0	0
16.58886	-0.01849789	-0.1431098	0	0	0	0
16.60566	-0.01849789	-0.1431098	0	0	0	0
16.62198	-0.01849789	-0.1431098	0	0	0	0
16.6386	-0.01849789	-0.1431098	0	0	0	0
16.65513	-0.01849789	-0.1431098	0	0	0	0
16.67169	-0.01849789	-0.1431098	0	0	0	0
16.68825	-0.01849789	-0.1431098	0	0	0	0
16.70482	-0.01849789	-0.1431098	0	0	0	0
16.72139	-0.01847158	-0.1431296	0.001587842	-0.00119625	0.04792392	-0.03610497
16.73795	-0.01847158	-0.1431296	0	0	-0.04792115	0.03610289
16.75452	-0.01847158	-0.1431296	0	0	0	0
16.77109	-0.01849789	-0.1431098	-0.001588024	0.001196387	-0.04792667	0.03610704
16.78765	-0.01849789	-0.1431098	0	0	0.04793219	-0.0361112
16.80422	-0.01849789	-0.1431098	0	0	0	0
16.82078	-0.01847158	-0.1430899	0.001588207	0.001196525	0.04793771	0.03611536
16.83735	-0.01847158	-0.1430899	0	0	-0.04793495	-0.03611328
16.85403	-0.01847158	-0.1430899	0	0	0	0
16.87049	-0.01847158	-0.1430899	0	0	0	0
16.88717	-0.01847158	-0.1430899	0	0	0	0
16.90362	-0.01847158	-0.1430899	0	0	0	0
16.94238	-0.0185242	-0.1430503	-0.001357413	0.001022264	-0.02458885	0.01851781
16.95899	-0.0185242	-0.1430503	0	0	0.02451348	-0.01846104
16.97551	-0.01860312	-0.1429513	-0.004777388	0.005996709	-0.1441818	0.180981
16.99216	-0.01860312	-0.1429513	0	0	0.1440575	-0.1808249
17.00916	-0.01860312	-0.1429513	0	0	0	0
17.02521	-0.01860312	-0.1425154	0	0.0271493	0	0.8213058
17.04194	-0.01860312	-0.1425154	0	0	0	-0.8280906
17.05882	-0.01860312	-0.1425154	0	0	0	0
17.07534	-0.0167879	-0.1411489	0.1098705	0.0827086	3.289953	2.476619
17.09148	-0.0167879	-0.1411489	0	0	-3.363724	-2.532153
17.10805	-0.0167879	-0.1411489	0	0	0	0
17.12462	-0.004578915	-0.1319799	0.7369355	0.5534427	22.24076	16.70293
17.14118	-0.004578915	-0.1319799	0	0	-22.24076	-16.70293
17.15775	-0.004578915	-0.1319799	0	0	0	0
17.17432	0.03288288	-0.1040894	2.261199	1.683477	68.2431	50.80745
17.19099	0.03288288	-0.1040894	0	0	-68.03554	-50.65291
17.20745	0.03288288	-0.1040894	0	0	0	0
17.2243	0.07841781	-0.07055546	2.703059	1.99065	81.14408	59.75801
17.24087	0.07841781	-0.07055546	0	0	-80.88011	-59.56362
17.25743	0.07841781	-0.07055546	0	0	0	0
17.274	0.1094035	-0.0478367	1.870301	1.371307	56.45554	41.39329
17.29057	0.1094035	-0.0478367	0	0	-56.44579	-41.38614
17.30714	0.1094035	-0.0478367	0	0	0	0
17.3238	0.1239145	-0.03717164	0.8711702	0.6402795	26.21802	19.26932
17.34027	0.1239145	-0.03717164	0	0	-26.29348	-19.32479
17.35689	0.1239145	-0.03717164	0	0	0	0
17.3734	0.1273854	-0.03458264	0.2102079	0.1567962	6.345547	4.733209
17.38997	0.1273854	-0.03458264	0	0	-6.354694	-4.740032
17.40674	0.1273854	-0.03458264	0	0	0	0
17.4231	0.1274631	-0.03437333	0.004747989	0.01279597	0.1432946	0.3861833
17.43967	0.1274631	-0.03437333	0	0	-0.1442077	-0.3886442
17.45628	0.1274631	-0.03437333	0	0	0	0
17.4728	0.1277996	-0.03408793	0.02037095	0.01727417	0.6147963	0.5213356
17.48937	0.1277996	-0.03408793	0	0	-0.6156114	-0.5220268
17.50595	0.1277996	-0.03408793	0	0	0	0
17.5225	0.127955	-0.03370744	0.009386526	0.02299289	0.2833512	0.6940867
17.53907	0.127955	-0.03370744	0	0	-0.2834165	-0.6942466
17.55564	0.127955	-0.03370744	0	0	0	0
17.5722	0.1285762	-0.03309876	0.03751134	0.03675285	1.13229	1.109395
17.58881	0.1285762	-0.03309876	0	0	-1.130728	-1.107864
17.60533	0.1285762	-0.03309876	0	0	0	0
17.62224	0.1342146	-0.02853748	0.3334602	0.26976	9.974851	8.069376
17.63866	0.1342146	-0.02853748	0	0	-10.00682	-8.095241
17.65504	0.1342146	-0.02853748	0	0	0	0
17.67199	0.1461092	-0.01979479	0.7018027	0.5158326	21.0544	15.47521
17.68818	0.1461092	-0.01979479	0	0	-21.17435	-15.56338
17.70473	0.1461092	-0.01979479	0	0	0	0
17.7213	0.1471394	-0.01899949	0.0621816	0.04800469	1.877617	1.449535
17.73787	0.1471394	-0.01899949	0	0	-1.876644	-1.448784
17.75521	0.1471394	-0.01899949	0	0	0	0
17.77143	0.1471651	-0.01901842	0.001587488	-0.001167305	0.04730058	-0.03478085
17.78757	0.1471651	-0.01901842	0	0	-0.0490541	0.03607024
17.80427	0.1471651	-0.01901842	0	0	0	0
17.82425	0.1471394	-0.01903735	-0.001288291	-0.0009473001	-0.03512222	-0.02582591
17.84083	0.1471394	-0.01903735	0	0	0.03523766	0.02591079
17.85747	0.1471394	-0.01903735	0	0	0	0
17.87395	0.1471394	-0.01903735	0	0	0	0
17.89052	0.1471394	-0.01903735	0	0	0	0
17.90709	0.1471394	-0.01903735	0	0	0	0
17.92406	0.1471136	-0.01905629	-0.001518585	-0.001115993	-0.04528615	-0.03328035
17.94022	0.1471136	-0.01905629	0	0	0.04583362	0.03368267
17.95726	0.1471136	-0.01905629	0	0	0	0
17.97335	0.1470879	-0.01907522	-0.001600095	-0.001176574	-0.04829652	-0.03551317
17.98993	0.1470879	-0.01907522	0	0	0.04898747	0.03602124
18.00649	0.1470879	-0.01907522	0	0	0	0
18.02305	0.1470879	-0.01907522	0	0	0	0
18.03963	0.1470879	-0.01907522	0	0	0	0
18.05658	0.1470879	-0.01907522	0	0	0	0
18.07292	0.1470879	-0.01907522	0	0	0	0
18.08933	0.1470879	-0.01907522	0	0	0	0
18.10589	0.1470879	-0.01907522	0	0	0	0
18.12245	0.1470364	-0.01911309	-0.003109883	-0.002286745	-0.09387806	-0.06902998
18.13903	0.1470364	-0.01911309	0	0	0.09386185	0.06901806
18.15602	0.1470364	-0.01911309	0	0	0	0
18.17216	0.1469849	-0.01915096	-0.003192244	-0.002347306	-0.09635876	-0.07085408
18.1891	0.1469849	-0.01915096	0	0	0.09651434	0.07096848
18.20533	0.1469849	-0.01915096	0	0	0	0
18.22238	0.1468304	-0.01926457	-0.009060263	-0.006661836	-0.272217	-0.2001559
18.23842	0.1468304	-0.01926457	0	0	0.2737702	0.201298
18.25541	0.1468304	-0.01926457	0	0	0	0
18.27155	0.1466244	-0.01941605	-0.01275725	-0.009380167	-0.3850367	-0.2831103
18.2886	0.1466244	-0.01941605	0	0	0.3843287	0.2825897
18.3047	0.1466244	-0.01941605	0	0	0	0
18.32182	0.1460577	-0.01983267	-0.0331015	-0.02433735	-0.9965385	-0.7326891
18.33782	0.1460577	-0.01983267	0	0	0.9992352	0.7346719
18.35442	0.1460577	-0.01983267	0	0	0	0
18.37142	0.1358166	-0.02739822	-0.6024795	-0.445077	-17.93407	-13.24865
18.38752	0.1358166	-0.02739822	0	0	18.19963	13.44483
18.40418	0.1358166	-0.02739822	0	0	0	0
18.42065	0.08913163	-0.06163068	-2.834553	-2.07848	-85.55682	-62.73586
18.43722	0.08913163	-0.06163068	0	0	85.79391	62.9097
18.45379	0.08913163	-0.06163068	0	0	0	0
18.47036	0.04720176	-0.09243096	-2.530892	-1.859109	-76.38248	-56.10801
18.48696	0.04720176	-0.09243096	0	0	76.29903	56.04671
18.50349	0.04720176	-0.09243096	0	0	0	0
18.52017	0.008868189	-0.1202329	-2.297945	-1.666616	-69.1928	-50.18303
18.53662	0.008868189	-0.1202329	0	0	69.35213	50.29858
18.55371	0.008868189	-0.1202329	0	0	0	0
18.56976	-0.02907076	-0.1387941	-2.36459	-1.156847	-71.3717	-34.91774
18.58632	-0.02907076	-0.1387941	0	0	72.50286	35.47114
18.60289	-0.02907076	-0.1387941	0	0	0	0
18.61946	-0.03911162	-0.1399415	-0.6060679	-0.06926016	-18.29117	-2.090276
18.63603	-0.03911162	-0.1399415	0	0	18.29117	2.090276
18.65322	-0.03911162	-0.1399415	0	0	0	0
18.66916	-0.03905907	-0.1400207	0.003296337	-0.004965303	0.09948936	-0.1498618
18.68579	-0.03905907	-0.1400207	0	0	-0.1012022	0.1524418
18.70254	-0.03905907	-0.1400207	0	0	0	0
18.71886	-0.0390328	-0.1400405	0.001609839	-0.001212458	0.04868031	-0.0366638
18.73543	-0.0390328	-0.1400405	0	0	-0.04894567	0.03686366
18.752	-0.0390328	-0.1400405	0	0	0	0
18.76856	-0.0390328	-0.1400405	0	0	0	0
18.78536	-0.0390328	-0.1400405	0	0	0	0
18.8017	-0.0390328	-0.1400405	0	0	0	0
18.86973	-0.03895397	-0.1400603	0.001158711	-0.0002908688	0.01373406	-0.00344763
18.88634	-0.03895397	-0.1400603	0	0	-0.01369011	0.003436598
18.90305	-0.03892769	-0.14008	0.001571995	-0.001183955	0.04717946	-0.03553343
18.91962	-0.03892769	-0.14008	0	0	-0.04722813	0.03557008
18.93618	-0.03892769	-0.14008	0	0	0	0
18.95999	-0.03890142	-0.1400998	0.001103532	-0.0008311303	0.02733352	-0.02058637
18.97657	-0.03890142	-0.1400998	0	0	-0.0273219	0.02057762
18.99313	-0.03890142	-0.1401394	0	-0.002390553	0	-0.07214288
19.0097	-0.03890142	-0.1401394	0	0	0	0.07217611
19.02626	-0.03890142	-0.1401394	0	0	0	0
19.04283	-0.03882259	-0.1401988	0.004758241	-0.003584252	0.143604	-0.1081729
19.0594	-0.03882259	-0.1401988	0	0	-0.143604	0.1081729
19.07596	-0.03882259	-0.1401988	0	0	0	0
19.09253	-0.03882259	-0.1402384	0	-0.002388902	0	-0.0720972
19.10918	-0.03882259	-0.1402384	0	0	0	0.07192331
19.12567	-0.03882259	-0.1402384	0	0	0	0
19.14223	-0.03882259	-0.140278	0	-0.002389452	0	-0.07229692
19.15898	-0.03882259	-0.140278	0	0	0	0.07173391
19.1755	-0.03882259	-0.140278	0	0	0	0
19.19212	-0.03882259	-0.140278	0	0	0	0
19.2085	-0.03882259	-0.140278	0	0	0	0
19.22507	-0.03882259	-0.140278	0	0	0	0
19.24163	-0.03882259	-0.140278	0	0	0	0
19.2582	-0.03882259	-0.140278	0	0	0	0
19.27497	-0.03882259	-0.140278	0	0	0	0
19.29177	-0.03879631	-0.1402977	0.001564141	-0.00117804	0.04659434	-0.03509274
19.30861	-0.03879631	-0.1402977	0	0	-0.04649396	0.03501714
19.32446	-0.03879631	-0.1402977	0	0	0	0
19.34103	-0.03879631	-0.1402977	0	0	0	0
19.3576	-0.03879631	-0.1402977	0	0	0	0
19.37417	-0.03879631	-0.1402977	0	0	0	0
19.39073	-0.03877003	-0.1403175	0.001586338	-0.001194588	0.04787853	-0.03605482
19.4073	-0.03877003	-0.1403175	0	0	-0.04787577	0.03605275
19.42387	-0.03877003	-0.1403175	0	0	0	0
19.44043	-0.03874376	-0.1403373	0.001586296	-0.001195626	0.04788001	-0.03608821
19.457	-0.03874376	-0.1403373	0	0	-0.04787725	0.03608613
19.47357	-0.03874376	-0.1403373	0	0	0	0
19.49013	-0.03877003	-0.1403175	-0.001586296	0.001195626	-0.04788001	0.03608821
19.5067	-0.03877003	-0.1403175	0	0	0.04787725	-0.03608613
19.52327	-0.03877003	-0.1403175	0	0	0	0
19.53983	-0.03877003	-0.1403175	0	0	0	0
19.5564	-0.03877003	-0.1403175	0	0	0	0
19.57297	-0.03877003	-0.1403175	0	0	0	0
19.58953	-0.03874376	-0.1403373	0.001586296	-0.001195626	0.0478745	-0.03608405
19.60611	-0.03874376	-0.1403373	0	0	-0.04787174	0.03608197
19.62267	-0.03874376	-0.1403373	0	0	0	0
19.63924	-0.03874376	-0.1403373	0	0	0	0
19.6558	-0.03874376	-0.1403373	0	0	0	0
19.67237	-0.03874376	-0.1403373	0	0	0	0
19.68894	-0.03874376	-0.1403373	0	0	0	0
19.70561	-0.03874376	-0.1403373	0	0	0	0
19.72207	-0.03874376	-0.1403373	0	0	0	0
19.73863	-0.03874376	-0.1403373	0	0	0	0
19.75521	-0.03874376	-0.1403373	0	0	0	0
19.77177	-0.03874376	-0.1403373	0	0	0	0
19.78848	-0.03874376	-0.1403373	0	0	0	0
19.80524	-0.03874376	-0.1403373	0	0	0	0
19.82148	-0.03874376	-0.1403373	0	0	0	0
19.83805	-0.03874376	-0.1403373	0	0	0	0
19.85471	-0.03874376	-0.1403373	0	0	0	0
19.87118	-0.03874376	-0.1403373	0	0	0	0
19.88774	-0.03874376	-0.1403373	0	0	0	0
19.90431	-0.03874376	-0.1403373	0	0	0	0
19.92087	-0.03874376	-0.1403373	0	0	0	0
19.93744	-0.03874376	-0.1403373	0	0	0	0
19.954	-0.03874376	-0.1403373	0	0	0	0
19.97125	-0.03874376	-0.1403373	0	0	0	0
19.98713	-0.03874376	-0.1403373	0	0	0	0
20.0037	-0.03874376	-0.1403373	0	0	0	0
20.02027	-0.03874376	-0.1403373	0	0	0	0
20.03683	-0.03874376	-0.1403373	0	0	0	0
20.05354	-0.03874376	-0.1403373	0	0	0	0
20.07047	-0.03874376	-0.1403373	0	0	0	0
20.08653	-0.03871748	-0.1403571	0.00163607	-0.001232039	0.04959939	-0.03735071
20.1031	-0.03871748	-0.1403571	0	0	-0.05013864	0.03775679
20.11967	-0.03871748	-0.1403571	0	0	0	0
20.13623	-0.03871748	-0.1403571	0	0	0	0
20.1528	-0.03871748	-0.1403571	0	0	0	0
20.16937	-0.03871748	-0.1403571	0	0	0	0
20.18593	-0.03866493	-0.1403967	0.003172816	-0.002389452	0.09576681	-0.0721221
20.2029	-0.03866493	-0.1403967	0	0	-0.09461745	0.07125653
20.21925	-0.03866493	-0.1403967	0	0	0	0
20.23563	-0.03866493	-0.1403967	0	0	0	0
20.25222	-0.03866493	-0.1403967	0	0	0	0
20.26877	-0.03866493	-0.1403967	0	0	0	0
20.30109	-0.03863866	-0.1404165	0.0008129952	-0.0006127722	0.01663844	-0.01254076
20.31766	-0.03863866	-0.1404165	0	0	-0.01662871	0.01253342
20.33422	-0.03863866	-0.1404165	0	0	0	0
20.35079	-0.03863866	-0.1404165	0	0	0	0
20.36891	-0.03863866	-0.1404165	0	0	0	0
20.38568	-0.03845472	-0.140555	0.01096481	-0.008258421	0.3142236	-0.2366653
20.40226	-0.03845472	-0.140555	0	0	-0.3287801	0.2476289
20.41904	-0.03845472	-0.140555	0	0	0	0
20.43538	-0.03837589	-0.1406144	0.004824335	-0.003634039	0.1456323	-0.1097008
20.45195	-0.03837589	-0.1406144	0	0	-0.1465945	0.1104256
20.46852	-0.03837589	-0.1406144	0	0	0	0
20.48509	-0.03832333	-0.140654	0.003171945	-0.002389526	0.0957295	-0.07211604
20.50166	-0.03832333	-0.140654	0	0	-0.09572399	0.07211189
20.51822	-0.03832333	-0.140654	0	0	0	0
20.53479	-0.03829706	-0.1406342	0.001586113	0.001194588	0.04787174	0.03605482
20.55136	-0.03829706	-0.1406342	0	0	-0.04787174	-0.03605482
20.56792	-0.03829706	-0.1406342	0	0	0	0
20.58449	-0.03827078	-0.140654	0.001586155	-0.001194451	0.04787026	-0.0360486
20.60106	-0.03827078	-0.140654	0	0	-0.04787026	0.0360486
20.61784	-0.03827078	-0.140654	0	0	0	0
20.63419	-0.0382445	-0.1406738	0.001607437	-0.001211389	0.04851255	-0.03655978
20.65076	-0.0382445	-0.1406738	0	0	-0.04883584	0.03680342
20.66736	-0.0382445	-0.1406738	0	0	0	0
20.68389	-0.03819195	-0.1406738	0.00318014	0	0.09598787	0
20.70046	-0.03819195	-0.1406738	0	0	-0.09609298	0
20.71703	-0.03819195	-0.1406738	0	0	0	0
20.73408	-0.03806056	-0.1407728	0.007703726	-0.005803022	0.2291225	-0.1725922
20.75016	-0.03806056	-0.1407728	0	0	-0.2324989	0.1751356
20.76724	-0.03806056	-0.1407728	0	0	0	0
20.78329	-0.03798173	-0.1408322	0.004912645	-0.00370056	0.148281	-0.111696
20.79986	-0.03798173	-0.1408322	0	0	-0.1506223	0.1134596
20.81713	-0.03798173	-0.1408322	0	0	0	0
20.83299	-0.038008	-0.140852	-0.001657325	-0.001248045	-0.05002393	-0.03767042
20.84956	-0.038008	-0.140852	0	0	0.05111269	0.0384903
20.86637	-0.038008	-0.140852	0	0	0	0
20.88269	-0.03798173	-0.1408322	0.001610067	0.001212458	0.04860031	0.03659837
20.89926	-0.03798173	-0.1408322	0	0	-0.04895261	-0.03686366
20.91582	-0.03798173	-0.1408322	0	0	0	0
20.93243	-0.03798173	-0.1408322	0	0	0	0
20.94896	-0.03798173	-0.1408322	0	0	0	0
20.96553	-0.03798173	-0.1408322	0	0	0	0
20.98209	-0.03798173	-0.1408322	0	0	0	0
20.99866	-0.03798173	-0.1408322	0	0	0	0
21.01523	-0.03798173	-0.1408322	0	0	0	0
21.03214	-0.03798173	-0.1408322	0	0	0	0
21.04836	-0.03798173	-0.1408322	0	0	0	0
21.06493	-0.03798173	-0.1408322	0	0	0	0
21.0818	-0.03798173	-0.1408322	0	0	0	0
21.09806	-0.03798173	-0.1408322	0	0	0	0
21.11472	-0.03798173	-0.1408322	0	0	0	0
21.13119	-0.03798173	-0.1408322	0	0	0	0
21.14776	-0.03798173	-0.1408322	0	0	0	0
21.16486	-0.03798173	-0.1408322	0	0	0	0
21.18089	-0.03798173	-0.1408322	0	0	0	0
21.19746	-0.03798173	-0.1408322	0	0	0	0
21.21414	-0.03798173	-0.1408322	0	0	0	0
21.23059	-0.03798173	-0.1407926	0	0.002406703	0	0.0726428
21.24716	-0.03798173	-0.1407926	0	0	0	-0.07288617
21.26373	-0.03798173	-0.1407926	0	0	0	0
21.28029	-0.03795545	-0.1407728	0.001586155	0.001194451	0.04787026	0.0360486
21.29693	-0.03795545	-0.1407728	0	0	-0.04776852	-0.03597198
21.31343	-0.03795545	-0.1407728	0	0	0	0
21.32999	-0.03792917	-0.140753	0.00158652	0.001195626	0.04798902	0.03616524
21.34656	-0.03792917	-0.140753	0	0	-0.04788404	-0.03608613
21.36313	-0.03792917	-0.140753	0	0	0	0
21.37969	-0.03790289	-0.1407332	0.00158652	0.001194726	0.0478868	0.03606105
21.39658	-0.03790289	-0.1407332	0	0	-0.04742808	-0.03571562
21.41283	-0.03790289	-0.1407332	0	0	0	0
21.42939	-0.03787661	-0.1407134	0.001586155	0.00119535	0.04833491	0.03642591
21.44609	-0.03787661	-0.1407134	0	0	-0.04768908	-0.0359392
21.46253	-0.03787661	-0.1407134	0	0	0	0
21.47915	-0.03787661	-0.1407134	0	0	0	0
21.49566	-0.03787661	-0.1407134	0	0	0	0
21.51223	-0.03787661	-0.1407134	0	0	0	0
21.5288	-0.03787661	-0.1407134	0	0	0	0
21.59723	-0.03787661	-0.1407134	0	0	0	0
21.6138	-0.03787661	-0.1407134	0	0	0	0
21.64539	-0.03785034	-0.1406936	0.0008319149	0.0006264718	0.01727584	0.01300953
21.66207	-0.03785034	-0.1406936	0	0	-0.01723352	-0.01297766
21.67852	-0.03782406	-0.1406738	0.001597558	0.001203038	0.04821441	0.03630776
21.69509	-0.03782406	-0.1406738	0	0	-0.04838151	-0.0364336
21.71166	-0.03782406	-0.1406738	0	0	0	0
21.72822	-0.03782406	-0.1406738	0	0	0	0
21.74479	-0.03782406	-0.1406738	0	0	0	0
21.76136	-0.03782406	-0.1406738	0	0	0	0
21.77793	-0.03782406	-0.1406738	0	0	0	0
21.79449	-0.03782406	-0.1406738	0	0	0	0
21.81178	-0.03782406	-0.1406738	0	0	0	0
21.82763	-0.03782406	-0.1406738	0	0	0	0
21.84421	-0.03782406	-0.1406738	0	0	0	0
21.86076	-0.03782406	-0.1406738	0	0	0	0
21.87735	-0.03782406	-0.1406738	0	0	0	0
21.8939	-0.03782406	-0.1406738	0	0	0	0
21.91047	-0.03782406	-0.1406738	0	0	0	0
21.92703	-0.03779778	-0.140654	0.00158652	0.001195626	0.0478868	0.03608821
21.94384	-0.03779778	-0.140654	0	0	-0.04753922	-0.03582626
21.96073	-0.03779778	-0.140654	0	0	0	0
21.9772	-0.03779778	-0.140654	0	0	0	0
21.9933	-0.03779778	-0.140654	0	0	0	0
22.01017	-0.03779778	-0.140654	0	0	0	0
22.02674	-0.03774522	-0.1406144	0.00317158	0.002389251	0.09482871	0.07143745
22.04331	-0.03774522	-0.1406144	0	0	-0.09571297	-0.07210359
22.05988	-0.03774522	-0.1406144	0	0	0	0
22.07698	-0.03771894	-0.140555	0.00153645	0.003471932	0.04563202	0.1031152
22.09301	-0.03771894	-0.140555	0	0	-0.04637014	-0.1047831
22.10958	-0.03771894	-0.140555	0	0	0	0
22.12614	-0.03672033	-0.139803	0.06029048	0.04540318	1.81978	1.370429
22.14271	-0.03672033	-0.139803	0	0	-1.819675	-1.37035
22.15928	-0.03672033	-0.139803	0	0	0	0
22.17584	-0.03645752	-0.1396051	0.01586655	0.01194546	0.4789087	0.3605562
22.19241	-0.03645752	-0.1396051	0	0	-0.4788811	-0.3605354
22.2091	-0.03645752	-0.1396051	0	0	0	0
22.22554	-0.03645752	-0.1396051	0	0	0	0
22.24211	-0.03645752	-0.1396051	0	0	0	0
22.25868	-0.03645752	-0.1396051	0	0	0	0
22.27524	-0.03645752	-0.1396051	0	0	0	0
22.29193	-0.03645752	-0.1396051	0	0	0	0
22.30846	-0.03645752	-0.1396051	0	0	0	0
22.32494	-0.03645752	-0.1396051	0	0	0	0
22.34161	-0.03645752	-0.1396051	0	0	0	0
22.35808	-0.03645752	-0.1396051	0	0	0	0
22.37464	-0.03643124	-0.1395854	0.001586928	0.001194864	0.04804015	0.03617141
22.39121	-0.03643124	-0.1395854	0	0	-0.0478991	-0.03606521
22.40778	-0.03643124	-0.1395854	0	0	0	0
22.42434	-0.03643124	-0.1395854	0	0	0	0
22.44091	-0.03643124	-0.1395854	0	0	0	0
22.45748	-0.03643124	-0.1395854	0	0	0	0
22.47411	-0.03643124	-0.1395854	0	0	0	0
22.49061	-0.03643124	-0.1395854	0	0	0	0
22.50718	-0.03643124	-0.1395854	0	0	0	0
22.52374	-0.03643124	-0.1395854	0	0	0	0
22.54031	-0.03643124	-0.1395854	0	0	0	0
22.55688	-0.03643124	-0.1395854	0	0	0	0
22.57345	-0.03643124	-0.1395854	0	0	0	0
22.59002	-0.03643124	-0.1395854	0	0	0	0
22.60658	-0.03643124	-0.1395854	0	0	0	0
22.62315	-0.03643124	-0.1395854	0	0	0	0
22.63972	-0.03643124	-0.1395854	0	0	0	0
22.65628	-0.03643124	-0.1395854	0	0	0	0
22.67286	-0.03643124	-0.1395854	0	0	0	0
22.68941	-0.03643124	-0.1395854	0	0	0	0
22.70598	-0.03643124	-0.1395854	0	0	0	0
22.72255	-0.03643124	-0.1395854	0	0	0	0
22.73919	-0.03643124	-0.1395854	0	0	0	0
22.75568	-0.03643124	-0.1395854	0	0	0	0
22.77225	-0.03643124	-0.1395854	0	0	0	0
22.78882	-0.03643124	-0.1395854	0	0	0	0
22.80554	-0.03643124	-0.1395854	0	0	0	0
22.82205	-0.03643124	-0.1395854	0	0	0	0
22.83852	-0.03643124	-0.1395854	0	0	0	0
22.85537	-0.03643124	-0.1395854	0	0	0	0
22.87165	-0.03643124	-0.1395854	0	0	0	0
22.88822	-0.03643124	-0.1395854	0	0	0	0
22.90498	-0.03643124	-0.1395854	0	0	0	0
22.92135	-0.03643124	-0.1395854	0	0	0	0
22.93792	-0.03643124	-0.1395854	0	0	0	0
22.95452	-0.03643124	-0.1395854	0	0	0	0
22.98341	-0.03643124	-0.1395854	0	0	0	0
22.99998	-0.03643124	-0.1395854	0	0	0	0
23.01663	-0.03648381	-0.1395458	-0.003157492	0.002376511	-0.09505256	0.07154204
23.03312	-0.03648381	-0.1395458	0	0	0.09527686	-0.07171086
23.04968	-0.03648381	-0.1395458	0	0	0	0
23.06624	-0.03666777	-0.1388534	-0.01110654	0.04180191	-0.3352926	1.261948
23.08281	-0.03666777	-0.1388534	0	0	0.3352154	-1.261657
23.09938	-0.03666777	-0.1388534	0	0	0	0
23.11594	-0.05061463	-0.1127061	-0.8421251	1.5788	-25.41831	47.65377
23.13251	-0.05061463	-0.1127061	0	0	25.41831	-47.65377
23.14944	-0.05061463	-0.1127061	0	0	0	0
23.16564	-0.05872189	-0.02886035	-0.5004753	5.175947	-15.10612	156.2284
23.18227	-0.05872189	-0.02886035	0	0	15.24567	-157.6717
23.19878	-0.05872189	-0.02886035	0	0	0	0
23.21534	-0.02851858	0.05352762	1.823495	4.974093	55.13792	150.4041
23.23195	-0.02851858	0.05352762	0	0	-54.98254	-149.9803
23.24857	-0.02851858	0.05352762	0	0	0	0
23.26505	-0.008368226	0.09401424	1.22332	2.457927	36.95816	74.25731
23.28161	-0.008368226	0.09401424	0	0	-37.02643	-74.39449
23.29818	-0.008368226	0.09401424	0	0	0	0
23.31474	-0.02104952	0.1050208	-0.7656208	0.6645101	-23.10914	20.05726
23.33131	-0.02104952	0.1050208	0	0	23.10914	-20.05726
23.34788	-0.02104952	0.1050208	0	0	0	0
23.36459	-0.02707233	0.1096907	-0.3604665	0.2794957	-10.83214	8.398937
23.38101	-0.02707233	0.1096907	0	0	10.87953	-8.435684
23.39758	-0.02707233	0.1096907	0	0	0	0
23.41415	-0.01536721	0.1183775	0.7065225	0.524336	21.32289	15.82449
23.43071	-0.01536721	0.1183775	0	0	-21.32289	-15.82449
23.44728	-0.01536721	0.1183775	0	0	0	0
23.46384	-0.006499908	0.1380184	0.5353547	1.185796	16.1589	35.79153
23.48041	-0.006499908	0.1380184	0	0	-16.15797	-35.78947
23.49741	-0.006499908	0.1380184	0	0	0	0
23.51354	-0.005973613	0.1429308	0.032612	0.3044031	0.9843456	9.187962
23.53011	-0.005973613	0.1429308	0	0	-0.997089	-9.30691
23.54668	-0.005973613	0.1429308	0	0	0	0
23.56333	-0.005973613	0.1429308	0	0	0	0
23.57981	-0.005973613	0.1429308	0	0	0	0
23.59638	-0.005973613	0.1429308	0	0	0	0
23.61295	-0.005999928	0.142949	-0.001588347	0.001097312	-0.04793642	0.03311693
23.62951	-0.005999928	0.142949	0	0	0.04793642	-0.03311693
23.64647	-0.005999928	0.142949	0	0	0	0
23.66289	-0.005973613	0.1430763	0.001603485	0.007757111	0.0480503	0.2324509
23.67922	-0.005973613	0.1430763	0	0	-0.04897402	-0.2369195
23.69578	-0.005973613	0.1430763	0	0	0	0
23.71235	-0.005499945	0.1433673	0.02859071	0.01756239	0.8628692	0.5300338
23.72892	-0.005499945	0.1433673	0	0	-0.8628692	-0.5300338
23.74549	-0.005499945	0.1433673	0	0	0	0
23.76205	-0.005499945	0.1433673	0	0	0	0
23.77903	-0.005499945	0.1433673	0	0	0	0
23.79519	-0.005499945	0.1433673	0	0	0	0
23.81175	-0.005499945	0.1433673	0	0	0	0
23.82832	-0.005499945	0.1433673	0	0	0	0
23.84489	-0.005499945	0.1433673	0	0	0	0
23.86147	-0.005421	0.1432763	0.004759647	-0.005482046	0.1435638	-0.1653533
23.87807	-0.005421	0.1432763	0	0	-0.14344	0.1652107
23.89459	-0.005421	0.1432763	0	0	0	0
23.91115	-0.005342055	0.1432218	0.004765675	-0.003293214	0.1440523	-0.09954411
23.92772	-0.005342055	0.1432218	0	0	-0.1438366	0.09939511
23.94429	-0.005342055	0.1432218	0	0	0	0
23.96085	-0.005184164	0.1430763	0.009530282	-0.008781193	0.2876245	-0.2650169
23.97742	-0.005184164	0.1430763	0	0	-0.2876245	0.2650169
23.99399	-0.005184164	0.1430763	0	0	0	0
24.01149	-0.004973643	0.1428581	0.01202722	-0.01246748	0.3530246	-0.3659473
24.02719	-0.004973643	0.1428581	0	0	-0.3622731	0.3755343
24.04369	-0.004973643	0.1428581	0	0	0	0
24.06025	-0.004921013	0.142749	0.003177483	-0.006588086	0.09609576	-0.1992417
24.07682	-0.004921013	0.142749	0	0	-0.09589662	0.1988288
24.09349	-0.004921013	0.142749	0	0	0	0
24.10995	-0.004894698	0.1427308	0.001598155	-0.001104953	0.04823798	-0.0333514
24.12652	-0.004894698	0.1427308	0	0	-0.04837723	0.03344768
24.14316	-0.004894698	0.1427308	0	0	0	0
24.15965	-0.004868383	0.1427126	0.001595171	-0.001102006	0.04814789	-0.03326244
24.17622	-0.004868383	0.1427126	0	0	-0.04823953	0.03332575
24.19279	-0.004868383	0.1427126	0	0	0	0
24.20936	-0.004894698	0.1427308	-0.001588376	0.001097312	-0.04793727	0.03311693
24.22593	-0.004894698	0.1427308	0	0	0.04793727	-0.03311693
24.24249	-0.004894698	0.1427308	0	0	0	0
24.25907	-0.004921013	0.1427126	-0.001587855	-0.001096933	-0.04791329	-0.03309979
24.32706	-0.004921013	0.1427126	0	0	0.01877522	0.01297043
24.34372	-0.004921013	0.1427126	0	0	0	0
24.36027	-0.004815752	0.1425307	0.006359416	-0.01098773	0.1915306	-0.3309247
24.37677	-0.004815752	0.1425307	0	0	-0.1924038	0.3324333
24.39353	-0.004815752	0.1425307	0	0	0	0
24.4099	0.0009210524	0.1315343	0.3504705	-0.6717876	10.57783	-20.27576
24.42647	0.0009210524	0.1315343	0	0	-10.64092	20.3967
24.44304	0.0009210524	0.1315343	0	0	0	0
24.45981	0.004184186	0.07592294	0.1945442	-3.315486	5.83508	-99.44334
24.47617	0.004184186	0.07592294	0	0	-5.871694	100.0673
24.49273	0.004184186	0.07592294	0	0	0	0
24.5093	-0.01694575	0.03888628	-1.275699	-2.236052	-38.5051	-67.49195
24.52587	-0.01694575	0.03888628	0	0	38.50289	67.48806
24.54243	-0.01694575	0.03888628	0	0	0	0
24.559	-0.02578376	0.01115393	-0.5335864	-1.674314	-16.10552	-50.53671
24.57557	-0.02578376	0.01115393	0	0	16.1046	50.53379
24.59213	-0.02578376	0.01115393	0	0	0	0
24.6087	2.631579E-05	-0.01236076	1.558258	-1.419676	47.03373	-42.85084
24.62566	2.631579E-05	-0.01236076	0	0	-46.48247	42.34861
24.64193	2.631579E-05	-0.01236076	0	0	0	0
24.6584	-0.00173684	-0.04978688	-0.1070653	-2.272651	-3.270203	-69.41588
24.67497	-0.00173684	-0.04978688	0	0	3.240751	68.79069
24.69153	-0.00173684	-0.04978688	0	0	0	0
24.7081	-0.01931339	-0.0677057	-1.061045	-1.081707	-32.02423	-32.64785
24.72525	-0.01931339	-0.0677057	0	0	31.46632	32.07907
24.74125	-0.01931339	-0.0677057	0	0	0	0
24.7578	-0.03522227	-0.08049472	-0.9615905	-0.7730146	-29.54987	-23.7549
24.77436	-0.03522227	-0.08049472	0	0	29.03925	23.34441
24.79093	-0.03522227	-0.08049472	0	0	0	0
24.8075	-0.05289797	-0.093577	-1.066908	-0.7896481	-32.19934	-23.83162
24.82406	-0.05289797	-0.093577	0	0	32.20119	23.833
24.84063	-0.05289797	-0.093577	0	0	0	0
24.85719	-0.0549184	-0.09519006	-0.1219815	-0.09738725	-3.681832	-2.939492
24.87376	-0.0549184	-0.09519006	0	0	3.68162	2.939322
24.89033	-0.0549184	-0.09519006	0	0	0	0
24.9069	-0.06155372	-0.1005806	-0.4005085	-0.3253705	-12.08737	-9.819701
24.92347	-0.06155372	-0.1005806	0	0	12.08737	9.819701
24.94003	-0.06155372	-0.1005806	0	0	0	0
24.9566	-0.06338865	-0.1097915	-0.1107563	-0.5559769	-3.342632	-16.77942
24.97317	-0.06338865	-0.1097915	0	0	3.342632	16.77942
24.99003	-0.06338865	-0.1097915	0	0	0	0
25.00671	-0.04743807	-0.1217056	0.956502	-0.7144465	28.51601	-21.29966
25.02287	-0.04743807	-0.1217056	0	0	-29.13225	21.75995
25.03943	-0.04743807	-0.1217056	0	0	0	0
25.056	-0.03958457	-0.1275855	0.4740924	-0.3549502	14.30896	-10.71303
25.07279	-0.03958457	-0.1275855	0	0	-14.21485	10.64258
25.08937	-0.03958457	-0.1275855	0	0	0	0
25.10622	-0.03961085	-0.1275658	-0.001559184	0.001169001	-0.04663214	0.03496253
25.12251	-0.03961085	-0.1275658	0	0	0.04704273	-0.03527037
25.13883	-0.03961085	-0.1275658	0	0	0	0
25.1554	-0.03958457	-0.1275461	0.001586113	0.001188292	0.04823549	0.0361373
25.17196	-0.03958457	-0.1275461	0	0	-0.04787174	-0.03586477
25.18853	-0.03958457	-0.1275461	0	0	0	0
25.2051	-0.03919045	-0.1270146	0.02379488	0.03209027	0.7182137	0.9685977
25.22209	-0.03919045	-0.1270146	0	0	-0.7090294	-0.9562115
25.23824	-0.03919045	-0.1270146	0	0	0	0
25.2548	-0.03919045	-0.1269359	0	0.004755552	0	0.1454146
25.27136	-0.03919045	-0.1269359	0	0	0	-0.1435807
25.28823	-0.03919045	-0.1269359	0	0	0	0
25.30449	-0.03921673	-0.1269162	-0.001615163	0.001209884	-0.04874853	0.03651648
25.32106	-0.03921673	-0.1269162	0	0	0.04918457	-0.03684311
25.33763	-0.03921673	-0.1269162	0	0	0	0
25.3542	-0.03961085	-0.1265029	-0.02378097	0.02493904	-0.7176284	0.752575
25.37077	-0.03961085	-0.1265029	0	0	0.7175871	-0.7525318
25.38741	-0.03961085	-0.1265029	0	0	0	0
25.40393	-0.03968967	-0.1262864	-0.004773178	0.01310836	-0.1439471	0.3953153
25.42047	-0.03968967	-0.1262864	0	0	0.1444039	-0.3965699
25.43707	-0.03968967	-0.1262864	0	0	0	0
25.4536	-0.03947948	-0.1258535	0.01271672	0.02618891	0.3838799	0.790565
25.47017	-0.03947948	-0.1258535	0	0	-0.3841674	-0.7911572
25.48674	-0.03947948	-0.1258535	0	0	0	0
25.5033	-0.03947948	-0.1258142	0	0.00237541	0	0.07169002
25.51987	-0.03947948	-0.1258142	0	0	0	-0.07169002
25.53663	-0.03947948	-0.1258142	0	0	0	0
25.553	-0.0394532	-0.1257158	0.001604962	0.006008425	0.04844622	0.181366
25.56957	-0.0394532	-0.1257158	0	0	-0.0487183	-0.1823845
25.58614	-0.0394532	-0.1257158	0	0	0	0
25.60276	-0.03929555	-0.1254404	0.009487408	0.01657466	0.2859026	0.4994767
25.61945	-0.03929555	-0.1254404	0	0	-0.2848222	-0.4975891
25.63584	-0.03929555	-0.1254404	0	0	0	0
25.65631	-0.03926928	-0.1254207	0.00128394	0.00096118	0.03483694	0.02607955
25.67294	-0.03926928	-0.1254207	0	0	-0.03461303	-0.02591193
25.68944	-0.03921673	-0.1253814	0.003183589	0.002383291	0.09607539	0.07192373
25.70601	-0.03921673	-0.1253814	0	0	-0.09625823	-0.07206061
25.72264	-0.03921673	-0.1253814	0	0	0	0
25.7394	-0.03919045	-0.1253617	0.001568102	0.001173742	0.04696852	0.03515648
25.75571	-0.03919045	-0.1253617	0	0	-0.04741548	-0.03549103
25.77228	-0.03919045	-0.1253617	0	0	0	0
25.78884	-0.03916417	-0.1253814	0.00158593	-0.001187255	0.04786347	-0.03583144
25.80541	-0.03916417	-0.1253814	0	0	-0.04786347	0.03583144
25.82198	-0.03916417	-0.1253814	0	0	0	0
25.83854	-0.03916417	-0.1253814	0	0	0	0
25.85511	-0.03916417	-0.1253814	0	0	0	0
25.87168	-0.03916417	-0.1253814	0	0	0	0
25.88849	-0.03916417	-0.1253814	0	0	0	0
25.90485	-0.03916417	-0.1253814	0	0	0	0
25.92138	-0.03916417	-0.1253814	0	0	0	0
25.93794	-0.03916417	-0.1253814	0	0	0	0
25.95451	-0.03916417	-0.1253814	0	0	0	0
25.97108	-0.03916417	-0.1253814	0	0	0	0
25.98764	-0.0391379	-0.125401	0.001586296	-0.001187529	0.04788001	-0.03584382
26.00421	-0.0391379	-0.125401	0	0	-0.0478745	0.03583969
26.02105	-0.0391379	-0.125401	0	0	0	0
26.03734	-0.0391379	-0.125401	0	0	0	0
26.05392	-0.0391379	-0.125401	0	0	0	0
26.07048	-0.0391379	-0.125401	0	0	0	0
26.08704	-0.03911162	-0.1254207	0.001586703	-0.001187666	0.04789783	-0.03585207
26.10361	-0.03911162	-0.1254207	0	0	-0.0478868	0.03584382
26.12018	-0.03911162	-0.1254207	0	0	0	0
26.13694	-0.03911162	-0.1254207	0	0	0	0
26.15332	-0.03911162	-0.1254207	0	0	0	0
26.16988	-0.03911162	-0.1254207	0	0	0	0
26.18645	-0.03911162	-0.1254207	0	0	0	0
26.20301	-0.03911162	-0.1254207	0	0	0	0
26.21958	-0.03911162	-0.1254207	0	0	0	0
26.23615	-0.03908535	-0.1254404	0.00158593	-0.001187255	0.04786347	-0.03583144
26.25272	-0.03908535	-0.1254404	0	0	-0.04786347	0.03583144
26.27179	-0.03908535	-0.1254404	0	0	0	0
26.28836	-0.03911162	-0.1254207	-0.001585748	0.001187119	-0.04449259	0.03330794
26.30493	-0.03911162	-0.1254207	0	0	0.04785245	-0.03582319
26.32149	-0.03911162	-0.1254207	0	0	0	0
26.33805	-0.03911162	-0.1254207	0	0	0	0
26.35463	-0.03911162	-0.1254207	0	0	0	0
26.37123	-0.03911162	-0.1254207	0	0	0	0
26.38903	-0.03911162	-0.1254207	0	0	0	0
26.4056	-0.03911162	-0.1254207	0	0	0	0
26.42271	-0.03911162	-0.1254207	0	0	0	0
26.43873	-0.03911162	-0.1254207	0	0	0	0
26.4553	-0.03911162	-0.1254207	0	0	0	0
26.47186	-0.03911162	-0.1254207	0	0	0	0
26.49261	-0.03911162	-0.1254207	0	0	0	0
26.50929	-0.03911162	-0.1254207	0	0	0	0
26.52652	-0.03911162	-0.1254207	0	0	0	0
26.54309	-0.03911162	-0.1254207	0	0	0	0
26.55966	-0.03911162	-0.1254207	0	0	0	0
26.57622	-0.03905907	-0.12546	0.003172591	-0.002375058	0.09576001	-0.07168764
26.59279	-0.03905907	-0.12546	0	0	-0.09576001	0.07168764
26.60936	-0.03905907	-0.12546	0	0	0	0
26.62592	-0.0390328	-0.1254797	0.001586113	-0.001187392	0.04787174	-0.03583762
26.64249	-0.0390328	-0.1254797	0	0	-0.04787174	0.03583762
26.65906	-0.0390328	-0.1254797	0	0	0	0
26.67637	-0.0390328	-0.1254797	0	0	0	0
26.69303	-0.0390328	-0.1254797	0	0	0	0
26.70953	-0.0390328	-0.1254797	0	0	0	0
26.72607	-0.0390328	-0.1254797	0	0	0	0
26.74264	-0.0390328	-0.1254797	0	0	0	0
26.7592	-0.0390328	-0.1254797	0	0	0	0
26.77577	-0.03900652	-0.1254994	0.00158652	-0.001187529	0.0478868	-0.03584382
26.79234	-0.03900652	-0.1254994	0	0	-0.04788404	0.03584176
26.8089	-0.03900652	-0.1254994	0	0	0	0
26.82578	-0.03900652	-0.1254994	0	0	0	0
26.84205	-0.03900652	-0.1254994	0	0	0	0
26.85903	-0.03900652	-0.1254994	0	0	0	0
26.87521	-0.03900652	-0.1254994	0	0	0	0
26.89182	-0.03900652	-0.1254994	0	0	0	0
26.9083	-0.03900652	-0.1254994	0	0	0	0
26.92486	-0.03900652	-0.1254994	0	0	0	0
26.94149	-0.03900652	-0.1254994	0	0	0	0
26.958	-0.03900652	-0.1254994	0	0	0	0
26.97457	-0.03898025	-0.1255191	0.001586113	-0.001188292	0.04796009	-0.03593097
27.04397	-0.03898025	-0.1255191	0	0	-0.01844963	0.01382218
27.06054	-0.03898025	-0.1255191	0	0	0	0
27.08108	-0.03898025	-0.1255191	0	0	0	0
27.09764	-0.03898025	-0.1255191	0	0	0	0
27.11421	-0.03900652	-0.1254994	-0.00158593	0.001188155	-0.04786347	0.03585858
27.13078	-0.03900652	-0.1254994	0	0	0.04786072	-0.03585652
27.14735	-0.03900652	-0.1254994	0	0	0	0
27.16418	-0.03900652	-0.1254994	0	0	0	0
27.18071	-0.03900652	-0.1254994	0	0	0	0
27.19705	-0.03900652	-0.1254994	0	0	0	0
27.21362	-0.03898025	-0.1254797	0.00158593	0.001187255	0.04819919	0.03608276
27.23018	-0.03898025	-0.1254797	0	0	-0.04786347	-0.03583144
27.24675	-0.03898025	-0.1254797	0	0	0	0
27.26331	-0.03898025	-0.1254797	0	0	0	0
27.27988	-0.03898025	-0.1254797	0	0	0	0
27.29648	-0.03898025	-0.1254797	0	0	0	0
27.31302	-0.03898025	-0.1254797	0	0	0	0
27.32958	-0.03898025	-0.1254797	0	0	0	0
27.34615	-0.03898025	-0.1254797	0	0	0	0
27.36272	-0.03898025	-0.1254797	0	0	0	0
27.37928	-0.03898025	-0.1254797	0	0	0	0
27.39636	-0.03898025	-0.1254797	0	0	0	0
27.41242	-0.03898025	-0.1254797	0	0	0	0
27.42899	-0.03898025	-0.1254797	0	0	0	0
27.44555	-0.03898025	-0.1254797	0	0	0	0
27.46212	-0.03895397	-0.1254994	0.00158652	-0.001187529	0.04788955	-0.03584588
27.47869	-0.03895397	-0.1254994	0	0	-0.04788404	0.03584176
27.49542	-0.03895397	-0.1254994	0	0	0	0
27.51222	-0.03898025	-0.1254797	-0.001564363	0.001170944	-0.04665131	0.03491904
27.52839	-0.03898025	-0.1254797	0	0	0.04745295	-0.03551907
27.54495	-0.03898025	-0.1254797	0	0	0	0
27.56152	-0.03898025	-0.1254797	0	0	0	0
27.57809	-0.03898025	-0.1254797	0	0	0	0
27.59492	-0.03898025	-0.1254797	0	0	0	0
27.61152	-0.03898025	-0.1254797	0	0	0	0
27.62779	-0.03898025	-0.1254797	0	0	0	0
27.64435	-0.03898025	-0.1254797	0	0	0	0
27.66502	-0.03898025	-0.1254797	0	0	0	0
27.68159	-0.03898025	-0.1254797	0	0	0	0
27.69816	-0.03898025	-0.1254797	0	0	0	0
27.71472	-0.03898025	-0.1254797	0	0	0	0
27.73129	-0.03898025	-0.1254797	0	0	0	0
27.74786	-0.03898025	-0.1254797	0	0	0	0
27.76442	-0.03898025	-0.1254797	0	0	0	0
27.78106	-0.03898025	-0.1254797	0	0	0	0
27.79756	-0.03895397	-0.1254994	0.001593309	-0.00119261	0.04808616	-0.03599304
27.81412	-0.03895397	-0.1254994	0	0	-0.04819436	0.03607403
27.8307	-0.03895397	-0.1254994	0	0	0	0
27.84725	-0.03898025	-0.1254797	-0.001587434	0.001188213	-0.04791438	0.03586446
27.86382	-0.03898025	-0.1254797	0	0	0.04792542	-0.03587273
27.88083	-0.03898025	-0.1254797	0	0	0	0
27.89696	-0.03895397	-0.1254994	0.001629491	-0.001219693	0.04918095	-0.03681251
27.91358	-0.03895397	-0.1254994	0	0	-0.04975959	0.03724563
27.93023	-0.03895397	-0.1254994	0	0	0	0
27.94666	-0.03898025	-0.1254797	-0.001599599	0.001197318	-0.04835671	0.03619555
27.96322	-0.03898025	-0.1254797	0	0	0.0484797	-0.03628761
27.9798	-0.03898025	-0.1254797	0	0	0	0
27.99637	-0.03898025	-0.1254797	0	0	0	0
28.01292	-0.03898025	-0.1254797	0	0	0	0
28.02949	-0.03898025	-0.1254797	0	0	0	0
28.04606	-0.03898025	-0.1254797	0	0	0	0
28.06276	-0.03898025	-0.1254797	0	0	0	0
28.07919	-0.03898025	-0.1254797	0	0	0	0
28.09576	-0.03898025	-0.1254797	0	0	0	0
28.11232	-0.03898025	-0.1254797	0	0	0	0
28.12889	-0.03898025	-0.1254797	0	0	0	0
28.14546	-0.03898025	-0.1254797	0	0	0	0
28.16203	-0.03898025	-0.1254797	0	0	0	0
28.17876	-0.03898025	-0.1254797	0	0	0	0
28.19516	-0.03895397	-0.12546	0.001602389	0.001199407	0.04836578	0.03620234
28.21173	-0.03895397	-0.12546	0	0	-0.04860362	-0.03638037
28.22829	-0.03895397	-0.12546	0	0	0	0
28.24486	-0.03895397	-0.12546	0	0	0	0
28.26143	-0.03895397	-0.12546	0	0	0	0
28.27837	-0.03895397	-0.12546	0	0	0	0
28.29456	-0.03895397	-0.12546	0	0	0	0
28.31113	-0.03895397	-0.12546	0	0	0	0
28.32771	-0.03895397	-0.12546	0	0	0	0
28.34426	-0.03895397	-0.12546	0	0	0	0
28.36083	-0.03895397	-0.12546	0	0	0	0
28.37739	-0.03895397	-0.12546	0	0	0	0
28.39396	-0.03895397	-0.12546	0	0	0	0
28.41053	-0.03895397	-0.12546	0	0	0	0
28.42709	-0.03895397	-0.12546	0	0	0	0
28.44366	-0.03892769	-0.1254404	0.001586296	0.001187529	0.04788001	0.03584382
28.46036	-0.03892769	-0.1254404	0	0	-0.04767963	-0.03569381
28.47679	-0.03892769	-0.1254404	0	0	0	0
28.49338	-0.03895397	-0.1254207	-0.001584471	0.001186163	-0.04799625	0.03593084
28.51009	-0.03895397	-0.1254207	0	0	0.04759204	-0.03562824
28.52649	-0.03895397	-0.1254207	0	0	0	0
28.54306	-0.03898025	-0.1254404	-0.00158652	-0.001187529	-0.0481195	-0.036018
28.55998	-0.03898025	-0.1254404	0	0	0.04738215	0.03546609
28.57619	-0.03898025	-0.1254404	0	0	0	0
28.59276	-0.03895397	-0.12546	0.00158652	-0.001187529	0.04839949	-0.03622758
28.60935	-0.03895397	-0.12546	0	0	-0.04784823	0.03581495
28.62589	-0.03895397	-0.12546	0	0	0	0
28.64246	-0.03895397	-0.1254207	0	0.002374511	0	0.07172067
28.65903	-0.03895397	-0.1254207	0	0	0	-0.07166287
28.6759	-0.03895397	-0.1254207	0	0	0	0
28.69216	-0.03892769	-0.1253224	0.001615882	0.006048387	0.04877302	0.1825617
28.70872	-0.03892769	-0.1253224	0	0	-0.04922074	-0.1842376
28.72551	-0.03892769	-0.1253224	0	0	0	0
28.74186	-0.03311946	-0.1181922	0.3552894	0.4361523	10.72327	13.16386
28.75842	-0.03311946	-0.1181922	0	0	-10.79411	-13.25082
28.77518	-0.03311946	-0.1181922	0	0	0	0
28.79156	-0.02891299	-0.06295608	0.2568004	3.372104	7.751143	101.782
28.80812	-0.02891299	-0.06295608	0	0	-7.793768	-102.3417
28.82469	-0.02891299	-0.06295608	0	0	0	0
28.84126	-0.02194384	0.04231012	0.420707	6.354612	12.69769	191.7936
28.85782	-0.02194384	0.04231012	0	0	-12.69769	-191.7936
28.87439	-0.02194384	0.04231012	0	0	0	0
28.89095	0.006078872	0.1174456	1.691844	4.536229	51.06583	136.9194
28.90763	0.006078872	0.1174456	0	0	-50.89881	-136.4716
28.92409	0.006078872	0.1174456	0	0	0	0
28.94066	0.01181524	0.141694	0.3462877	1.463808	10.48539	44.32326
28.95722	0.01181524	0.141694	0	0	-10.45158	-44.18037
28.97405	0.01181524	0.141694	0	0	0	0
28.99366	0.002921044	0.1494014	-0.4535668	0.3930422	-12.44764	10.78661
29.01023	0.002921044	0.1494014	0	0	12.53622	-10.86337
29.0268	0.002921044	0.1494014	0	0	0	0
29.04344	0.002921044	0.1494014	0	0	0	0
29.0603	0.002921044	0.1494014	0	0	0	0
29.0765	0.002921044	0.1494014	0	0	0	0
29.09401	0.002999991	0.1493469	0.004509287	-0.003112574	0.1337954	-0.09235343
29.10963	0.002999991	0.1493469	0	0	-0.1360905	0.09393766
29.1262	0.002999991	0.1493469	0	0	0	0
29.14277	0.003078938	0.1492924	0.004766323	-0.003289995	0.1438645	-0.09930366
29.15933	0.003078938	0.1492924	0	0	-0.1438562	0.09929795
29.17632	0.003078938	0.1492924	0	0	0	0
29.19246	0.003078938	0.149256	0	-0.002251795	0	-0.06796712
29.20903	0.003078938	0.149256	0	0	0	0.06884704
29.2257	0.003078938	0.149256	0	0	0	0
29.24216	0.0031842	0.1491834	0.006394131	-0.004413596	0.1929864	-0.1332103
29.25873	0.0031842	0.1491834	0	0	-0.193577	0.133618
29.2753	0.0031842	0.1491834	0	0	0	0
29.29186	0.003210515	0.1491289	0.00158877	-0.003289995	0.04795744	-0.09930938
29.30843	0.003210515	0.1491289	0	0	-0.04795192	0.09929795
29.325	0.003210515	0.1491289	0	0	0	0
29.34157	0.003368408	0.1489836	0.00953045	-0.008772198	0.2876295	-0.2647455
29.35813	0.003368408	0.1489836	0	0	-0.2876295	0.2647455
29.37526	0.003368408	0.1489836	0	0	0	0
29.39133	0.003421039	0.1488746	0.003275223	-0.006783197	0.098659	-0.2043291
29.40783	0.003421039	0.1488746	0	0	-0.100554	0.2082537
29.4244	0.003421039	0.1488746	0	0	0	0
29.44099	0.003421039	0.1488382	0	-0.002190051	0	-0.06605405
29.45753	0.003421039	0.1488382	0	0	0	0.06609968
29.47431	0.003421039	0.1488382	0	0	0	0
29.49067	0.003447355	0.148711	0.00160934	-0.007777871	0.04857279	-0.2347501
29.50723	0.003447355	0.148711	0	0	-0.04888516	0.2362598
29.5238	0.003447355	0.148711	0	0	0	0
29.54037	0.003447355	0.148602	0	-0.006579373	0	-0.1985659
29.55694	0.003447355	0.148602	0	0	0	0.1985659
29.57385	0.003447355	0.148602	0	0	0	0
29.59007	0.00347367	0.1482932	0.001622589	-0.01904383	0.0489783	-0.5748432
29.60663	0.00347367	0.1482932	0	0	-0.04949119	0.5808628
29.6232	0.00347367	0.1482932	0	0	0	0
29.63977	0.006157817	0.1462579	0.1620154	-0.1228494	4.889635	-3.707604
29.65633	0.006157817	0.1462579	0	0	-4.889635	3.707604
29.6729	0.006157817	0.1462579	0	0	0	0
29.68947	0.006315705	0.145858	0.009531267	-0.02413914	0.2876708	-0.7285627
29.70642	0.006315705	0.145858	0	0	-0.2843964	0.7202699
29.72802	0.006315705	0.145858	0	0	0	0
29.74459	0.005973613	0.1456217	-0.02064871	-0.01426325	-0.540942	-0.3736598
29.76116	0.005973613	0.1456217	0	0	0.6231077	0.4304163
29.77773	0.005973613	0.1456217	0	0	0	0
29.79429	0.005394685	0.1451855	-0.03495226	-0.02633975	-1.054983	-0.7950267
29.81113	0.005394685	0.1451855	0	0	1.046189	0.7884
29.82743	0.005394685	0.1451855	0	0	0	0
29.84399	0.003342093	0.1392924	-0.1238947	-0.3557062	-3.770622	-10.82559
29.86056	0.003342093	0.1392924	0	0	3.739149	10.73524
29.87739	0.003342093	0.1392924	0	0	0	0
29.89369	-0.0002894737	0.08189423	-0.2226885	-3.519668	-6.720752	-106.2238
29.91026	-0.0002894737	0.08189423	0	0	6.773782	107.062
29.92683	-0.0002894737	0.08189423	0	0	0	0
29.9437	-0.01265722	-0.004397179	-0.7328504	-5.113195	-21.91437	-152.8995
29.95996	-0.01265722	-0.004397179	0	0	22.11874	154.3254
29.97653	-0.01265722	-0.004397179	0	0	0	0
29.99309	-0.01563031	-0.04791315	-0.1794973	-2.627234	-5.417862	-79.29922
30.0097	-0.01563031	-0.04791315	0	0	5.410076	79.18525
30.02623	-0.01563031	-0.04791315	0	0	0	0
30.04279	-0.01334131	-0.04869691	0.1381957	-0.04731875	4.177007	-1.430223
30.05936	-0.01334131	-0.04869691	0	0	-4.170996	1.428165
30.07594	-0.01334131	-0.04869691	0	0	0	0
30.09249	-0.004789437	-0.05545359	0.5168468	-0.408351	15.59936	-12.32477
30.10906	-0.004789437	-0.05545359	0	0	-15.60835	12.33187
30.12563	-0.004789437	-0.05545359	0	0	0	0
30.14219	0.01202574	-0.06784042	1.014966	-0.7476705	30.63173	-22.56474
30.15876	0.01202574	-0.06784042	0	0	-30.63173	22.56474
30.17559	0.01202574	-0.06784042	0	0	0	0
30.19189	0.02394279	-0.07692018	0.7310132	-0.5569686	22.06329	-16.81031
30.20846	0.02394279	-0.07692018	0	0	-22.23868	16.94394
30.22503	0.02394279	-0.07692018	0	0	0	0
30.2416	0.04095078	-0.08959713	1.026604	-0.765182	30.98297	-23.09324
30.25816	0.04095078	-0.08959713	0	0	-30.98297	23.09324
30.27473	0.04095078	-0.08959713	0	0	0	0
30.29734	0.04707047	-0.09921729	0.2706437	-0.4254521	6.907902	-10.85923
30.31414	0.04707047	-0.09921729	0	0	-6.867448	10.79564
30.33048	0.03219939	-0.11253	-0.9100883	-0.8147165	-27.46336	-24.58536
30.34705	0.03219939	-0.11253	0	0	27.65757	24.75922
30.36361	0.03219939	-0.11253	0	0	0	0
30.38018	-0.001973682	-0.1382403	-2.062928	-1.552059	-62.26289	-46.84393
30.39675	-0.001973682	-0.1382403	0	0	62.26289	46.84393
30.41331	-0.001973682	-0.1382403	0	0	0	0
30.42988	-0.0224436	-0.1536347	-1.235851	-0.9294194	-37.30236	-28.05316
30.44645	-0.0224436	-0.1536347	0	0	37.30021	28.05155
30.46306	-0.0224436	-0.1536347	0	0	0	0
30.47958	-0.02725641	-0.1572399	-0.2914074	-0.2182872	-8.795707	-6.588678
30.4962	-0.02725641	-0.1572399	0	0	8.793176	6.586782
30.51271	-0.02725641	-0.1572399	0	0	0	0
30.52928	-0.02704603	-0.1569608	0.01269812	0.01684374	0.3838931	0.5092244
30.54599	-0.02704603	-0.1569608	0	0	-0.3815608	-0.5061307
30.56241	-0.02704603	-0.1569608	0	0	0	0
30.57898	-0.02694085	-0.1569209	0.006349005	0.002405991	0.1924553	0.07293201
30.59554	-0.02694085	-0.1569209	0	0	-0.1916244	-0.07261713
30.61211	-0.02694085	-0.1569209	0	0	0	0
30.62868	-0.02691455	-0.156901	0.001587645	0.001203722	0.04792074	0.0363326
30.64524	-0.02691455	-0.156901	0	0	-0.04791798	-0.0363305
30.66228	-0.02691455	-0.156901	0	0	0	0
30.67838	-0.02683566	-0.1566021	0.004901793	0.0185739	0.1479534	0.5606259
30.69502	-0.02683566	-0.1566021	0	0	-0.149703	-0.5672553
30.71151	-0.02683566	-0.1566021	0	0	0	0
30.72808	-0.02717752	-0.1561836	-0.02063441	0.02525796	-0.6242929	0.7641782
30.74464	-0.02717752	-0.1561836	0	0	0.6227477	-0.7622867
30.76121	-0.02717752	-0.1561836	0	0	0	0
30.77777	-0.02751937	-0.1557254	-0.02063656	0.02766084	-0.6228843	0.8349019
30.79434	-0.02751937	-0.1557254	0	0	0.6228485	-0.8348538
30.81091	-0.02751937	-0.1557254	0	0	0	0
30.82748	-0.02749307	-0.1556656	0.001587279	0.003607637	0.04790143	0.1088724
30.84405	-0.02749307	-0.1556656	0	0	-0.04790419	-0.1088787
30.86135	-0.02749307	-0.1556656	0	0	0	0
30.87718	-0.02749307	-0.1556258	0	0.002516911	0	0.07596927
30.89375	-0.02749307	-0.1556258	0	0	0	-0.07769585
30.91031	-0.02749307	-0.1556258	0	0	0	0
30.92688	-0.02751937	-0.1555661	-0.001587645	0.003607569	-0.04792074	0.1088892
30.94345	-0.02751937	-0.1555661	0	0	0.04791798	-0.1088829
30.96005	-0.02751937	-0.1555661	0	0	0	0
30.97658	-0.02751937	-0.1555661	0	0	0	0
30.99314	-0.02751937	-0.1555661	0	0	0	0
31.00971	-0.02751937	-0.1555661	0	0	0	0
31.02635	-0.02751937	-0.1555661	0	0	0	0
31.04285	-0.02751937	-0.1555661	0	0	0	0
31.05982	-0.02751937	-0.1555661	0	0	0	0
31.07598	-0.02749307	-0.155586	0.001627758	-0.00123229	0.04913149	-0.03719488
31.09255	-0.02749307	-0.155586	0	0	-0.04974144	0.03765665
31.10912	-0.02749307	-0.155586	0	0	0	0
31.12568	-0.02749307	-0.155586	0	0	0	0
31.14225	-0.02749307	-0.155586	0	0	0	0
31.15881	-0.02749307	-0.155586	0	0	0	0
31.17538	-0.02749307	-0.155586	0	0	0	0
31.19195	-0.02749307	-0.155586	0	0	0	0
31.20851	-0.02749307	-0.155586	0	0	0	0
31.22508	-0.02746678	-0.1556059	0.001587533	-0.001202823	0.04791734	-0.03630544
31.24208	-0.02746678	-0.1556059	0	0	-0.04728847	0.03582896
31.25835	-0.02746678	-0.1556059	0	0	0	0
31.27478	-0.02746678	-0.1556059	0	0	0	0
31.29135	-0.02746678	-0.1556059	0	0	0	0
31.30828	-0.02746678	-0.1556059	0	0	0	0
31.32447	-0.02746678	-0.1556059	0	0	0	0
31.34105	-0.02746678	-0.1556059	0	0	0	0
31.35761	-0.02746678	-0.1556059	0	0	0	0
31.37418	-0.02746678	-0.1556059	0	0	0	0
31.39075	-0.02746678	-0.1556059	0	0	0	0
31.40731	-0.02746678	-0.1556059	0	0	0	0
31.42389	-0.02746678	-0.1556059	0	0	0	0
31.44044	-0.02746678	-0.1556059	0	0	0	0
31.45701	-0.02746678	-0.1556059	0	0	0	0
31.4736	-0.02749307	-0.155586	-0.001585524	0.001201301	-0.04782644	0.03623656
31.49021	-0.02749307	-0.155586	0	0	0.04775774	-0.03618452
31.50671	-0.02749307	-0.155586	0	0	0	0
31.52328	-0.02746678	-0.1556059	0.001587167	-0.001202546	0.0479975	-0.03636617
31.53985	-0.02746678	-0.1556059	0	0	-0.0479008	0.0362929
31.55641	-0.02746678	-0.1556059	0	0	0	0
31.57304	-0.02746678	-0.1556059	0	0	0	0
31.58955	-0.02746678	-0.1556059	0	0	0	0
31.60611	-0.02746678	-0.1556059	0	0	0	0
31.6253	-0.02746678	-0.1556059	0	0	0	0
31.64194	-0.02746678	-0.1556059	0	0	0	0
31.65844	-0.02746678	-0.1556059	0	0	0	0
31.67527	-0.02746678	-0.1556059	0	0	0	0
31.69157	-0.02746678	-0.1556059	0	0	0	0
31.70833	-0.02746678	-0.1556059	0	0	0	0
31.72615	-0.02746678	-0.1556059	0	0	0	0
31.74272	-0.02746678	-0.1556059	0	0	0	0
31.75929	-0.02746678	-0.1556059	0	0	0	0
31.77585	-0.02744048	-0.1556258	0.001587645	-0.001202823	0.04792074	-0.03630544
31.79242	-0.02744048	-0.1556258	0	0	-0.04791798	0.03630335
31.80905	-0.02744048	-0.1556258	0	0	0	0
31.82555	-0.02744048	-0.1556258	0	0	0	0
31.84233	-0.02744048	-0.1556258	0	0	0	0
31.85869	-0.02744048	-0.1556258	0	0	0	0
31.87525	-0.02744048	-0.1556258	0	0	0	0
31.89182	-0.02744048	-0.1556258	0	0	0	0
31.90839	-0.02744048	-0.1556258	0	0	0	0
31.9251	-0.02744048	-0.1556258	0	0	0	0
31.94167	-0.02744048	-0.1556258	0	0	0	0
31.95824	-0.02744048	-0.1556258	0	0	0	0
31.9748	-0.02744048	-0.1556258	0	0	0	0
31.99137	-0.02744048	-0.1556258	0	0	0	0
32.00793	-0.02744048	-0.1556258	0	0	0	0
32.0245	-0.02746678	-0.1556059	-0.001587279	0.001202546	-0.04790419	0.0362929
32.04107	-0.02746678	-0.1556059	0	0	0.04790419	-0.0362929
32.05764	-0.02746678	-0.1556059	0	0	0	0
32.0742	-0.02746678	-0.1556059	0	0	0	0
32.09077	-0.02746678	-0.1556059	0	0	0	0
32.10734	-0.02746678	-0.1556059	0	0	0	0
32.1239	-0.02746678	-0.1556059	0	0	0	0
32.14047	-0.02746678	-0.1556059	0	0	0	0
32.15704	-0.02746678	-0.1556059	0	0	0	0
32.1736	-0.02746678	-0.1556059	0	0	0	0
32.19017	-0.02746678	-0.1556059	0	0	0	0
32.20674	-0.02746678	-0.1556059	0	0	0	0
32.2233	-0.02746678	-0.1556059	0	0	0	0
32.23988	-0.02746678	-0.1556059	0	0	0	0
32.25687	-0.02746678	-0.1556059	0	0	0	0
32.27301	-0.02746678	-0.1556059	0	0	0	0
32.28957	-0.02746678	-0.1556059	0	0	0	0
32.30614	-0.02746678	-0.1556059	0	0	0	0
32.32271	-0.02746678	-0.1556059	0	0	0	0
32.33928	-0.02746678	-0.1556059	0	0	0	0
32.35584	-0.02746678	-0.1556059	0	0	0	0
32.37241	-0.02746678	-0.1556059	0	0	0	0
32.38898	-0.02746678	-0.1556059	0	0	0	0
32.40554	-0.02746678	-0.1556059	0	0	0	0
32.42211	-0.02746678	-0.1556059	0	0	0	0
32.43867	-0.02746678	-0.1556059	0	0	0	0
32.48919	-0.02746678	-0.1556059	0	0	0	0
32.51012	-0.02746678	-0.1556059	0	0	0	0
32.52672	-0.02746678	-0.1556059	0	0	0	0
32.54325	-0.02746678	-0.1556059	0	0	0	0
32.55982	-0.02746678	-0.1556059	0	0	0	0
32.57639	-0.02746678	-0.1556059	0	0	0	0
32.59296	-0.02746678	-0.1556059	0	0	0	0
32.60952	-0.02746678	-0.1556059	0	0	0	0
32.62609	-0.02746678	-0.1556059	0	0	0	0
32.64266	-0.02746678	-0.1556059	0	0	0	0
32.65954	-0.02746678	-0.1556059	0	0	0	0
32.67579	-0.02746678	-0.1556059	0	0	0	0
32.69235	-0.02746678	-0.1556059	0	0	0	0
32.70892	-0.02746678	-0.1556059	0	0	0	0
32.72584	-0.02746678	-0.1556059	0	0	0	0
32.74205	-0.02746678	-0.1556059	0	0	0	0
32.75871	-0.02746678	-0.1556059	0	0	0	0
32.77518	-0.02746678	-0.1556059	0	0	0	0
32.79205	-0.02746678	-0.1556059	0	0	0	0
32.80832	-0.02746678	-0.1556059	0	0	0	0
32.82489	-0.02746678	-0.1556059	0	0	0	0
32.84145	-0.02746678	-0.1556059	0	0	0	0
32.85805	-0.02746678	-0.1556059	0	0	0	0
32.87458	-0.02746678	-0.1556059	0	0	0	0
32.89157	-0.02746678	-0.1556059	0	0	0	0
32.90818	-0.02746678	-0.1556059	0	0	0	0
32.92437	-0.02746678	-0.1556059	0	0	0	0
32.94445	-0.02746678	-0.1556059	0	0	0	0
32.96102	-0.02746678	-0.1556059	0	0	0	0
32.97758	-0.02746678	-0.1556059	0	0	0	0
32.99415	-0.02746678	-0.1556059	0	0	0	0
33.01072	-0.02746678	-0.1556059	0	0	0	0
33.02728	-0.02744048	-0.1556258	0.001587645	-0.001202823	0.04792074	-0.03630544
33.04385	-0.02744048	-0.1556258	0	0	-0.04791522	0.03630126
33.06042	-0.02744048	-0.1556258	0	0	0	0
33.07699	-0.02744048	-0.1556258	0	0	0	0
33.09356	-0.02744048	-0.1556258	0	0	0	0
33.11012	-0.02744048	-0.1556258	0	0	0	0
33.12669	-0.02744048	-0.1556258	0	0	0	0
33.14325	-0.02744048	-0.1556258	0	0	0	0
33.15982	-0.02744048	-0.1556258	0	0	0	0
33.17669	-0.02744048	-0.1556258	0	0	0	0
33.19296	-0.02744048	-0.1556258	0	0	0	0
33.20952	-0.02744048	-0.1556258	0	0	0	0
33.22609	-0.02746678	-0.1556059	-0.001587279	0.001202546	-0.04790419	0.0362929
33.24266	-0.02746678	-0.1556059	0	0	0.04790419	-0.0362929
33.25922	-0.02746678	-0.1556059	0	0	0	0
33.27579	-0.02746678	-0.1556059	0	0	0	0
33.2924	-0.02746678	-0.1556059	0	0	0	0
33.30893	-0.02746678	-0.1556059	0	0	0	0
33.32549	-0.02746678	-0.1556059	0	0	0	0
33.34206	-0.02746678	-0.1556059	0	0	0	0
33.35863	-0.02746678	-0.1556059	0	0	0	0
33.37519	-0.02746678	-0.1556059	0	0	0	0
33.39176	-0.02746678	-0.1556059	0	0	0	0
33.4085	-0.02746678	-0.1556059	0	0	0	0
33.42489	-0.02746678	-0.1556059	0	0	0	0
33.4422	-0.02746678	-0.1556059	0	0	0	0
33.45813	-0.02746678	-0.1556059	0	0	0	0
33.47459	-0.02746678	-0.1556059	0	0	0	0
33.49116	-0.02746678	-0.1556059	0	0	0	0
33.50773	-0.02746678	-0.1556059	0	0	0	0
33.52429	-0.02746678	-0.1556059	0	0	0	0
33.54086	-0.02746678	-0.1556059	0	0	0	0
33.55754	-0.02746678	-0.1556059	0	0	0	0
33.57399	-0.02746678	-0.1556059	0	0	0	0
33.59056	-0.02746678	-0.1556059	0	0	0	0
33.61324	-0.02746678	-0.1556059	0	0	0	0
33.62981	-0.02746678	-0.1556059	0	0	0	0
33.64689	-0.02746678	-0.1556059	0	0	0	0
33.66314	-0.02746678	-0.1556059	0	0	0	0
33.6797	-0.02746678	-0.1556059	0	0	0	0
33.69608	-0.02746678	-0.1556059	0	0	0	0
33.71264	-0.02746678	-0.1556059	0	0	0	0
33.72922	-0.02746678	-0.1556059	0	0	0	0
33.74607	-0.02746678	-0.1556059	0	0	0	0
33.76285	-0.02746678	-0.1556059	0	0	0	0
33.77891	-0.02746678	-0.1556059	0	0	0	0
33.79556	-0.02746678	-0.1556059	0	0	0	0
33.81227	-0.02746678	-0.1556059	0	0	0	0
33.82862	-0.02746678	-0.1556059	0	0	0	0
33.84522	-0.02746678	-0.1556059	0	0	0	0
33.86175	-0.02746678	-0.1556059	0	0	0	0
33.87831	-0.02744048	-0.1556258	0.001587279	-0.001202546	0.04796493	-0.03633892
33.89488	-0.02744048	-0.1556258	0	0	-0.04790419	0.0362929
33.91157	-0.02744048	-0.1556258	0	0	0	0
33.92802	-0.02744048	-0.1556258	0	0	0	0
33.94458	-0.02744048	-0.1556258	0	0	0	0
33.96115	-0.02744048	-0.1556258	0	0	0	0
33.97772	-0.02744048	-0.1556258	0	0	0	0
33.99429	-0.02744048	-0.1556258	0	0	0	0
34.01085	-0.02744048	-0.1556258	0	0	0	0
34.02776	-0.02744048	-0.1556258	0	0	0	0
34.04398	-0.02744048	-0.1556258	0	0	0	0
34.06055	-0.02744048	-0.1556258	0	0	0	0
34.07713	-0.02744048	-0.1556258	0	0	0	0
34.09369	-0.02744048	-0.1556258	0	0	0	0
34.11025	-0.02744048	-0.1556258	0	0	0	0
34.12682	-0.02744048	-0.1556258	0	0	0	0
34.14339	-0.02744048	-0.1556258	0	0	0	0
34.15995	-0.02744048	-0.1556258	0	0	0	0
34.17652	-0.02744048	-0.1556258	0	0	0	0
34.19309	-0.02744048	-0.1556258	0	0	0	0
34.20966	-0.02744048	-0.1556258	0	0	0	0
34.22623	-0.02744048	-0.1556258	0	0	0	0
34.24279	-0.02744048	-0.1556258	0	0	0	0
34.25951	-0.02744048	-0.1556258	0	0	0	0
34.27964	-0.02744048	-0.1556258	0	0	0	0
34.29624	-0.02744048	-0.1556258	0	0	0	0
34.31278	-0.02744048	-0.1556258	0	0	0	0
34.32939	-0.02744048	-0.1556258	0	0	0	0
34.34591	-0.02744048	-0.1556258	0	0	0	0
34.36312	-0.02744048	-0.1556258	0	0	0	0
34.37905	-0.02744048	-0.1556258	0	0	0	0
34.39561	-0.02744048	-0.1556258	0	0	0	0
34.41218	-0.02744048	-0.1556258	0	0	0	0
34.42875	-0.02744048	-0.1556258	0	0	0	0
34.4454	-0.02744048	-0.1556258	0	0	0	0
34.46206	-0.02744048	-0.1556258	0	0	0	0
34.47845	-0.02744048	-0.1556258	0	0	0	0
34.49501	-0.02744048	-0.1556258	0	0	0	0
34.51159	-0.02744048	-0.1556258	0	0	0	0
34.52815	-0.02744048	-0.1556258	0	0	0	0
34.54472	-0.02744048	-0.1556258	0	0	0	0
34.56158	-0.02744048	-0.1556258	0	0	0	0
34.57785	-0.02744048	-0.1556258	0	0	0	0
34.59441	-0.02744048	-0.1556258	0	0	0	0
34.61121	-0.02746678	-0.1556059	-0.001565294	0.001185889	-0.04691122	0.03554061
34.62755	-0.02746678	-0.1556059	0	0	0.04724067	-0.03579021
34.64412	-0.02746678	-0.1556059	0	0	0	0
34.66068	-0.02744048	-0.1556258	0.001587645	-0.001202823	0.04792074	-0.03630544
34.67733	-0.02744048	-0.1556258	0	0	-0.04779966	0.03621371
34.69381	-0.02744048	-0.1556258	0	0	0	0
34.71038	-0.02736159	-0.1556856	0.004762823	-0.003607569	0.1441239	-0.1091657
34.72694	-0.02736159	-0.1556856	0	0	-0.1437588	0.1088892
34.74352	-0.02736159	-0.1556856	0	0	0	0
34.76008	-0.02673047	-0.1562035	0.03809426	-0.03126529	1.149555	-0.9434797
34.777	-0.02673047	-0.1562035	0	0	-1.137637	0.9336988
34.79322	-0.02673047	-0.1562035	0	0	0	0
34.8104	-0.01557769	-0.164667	0.64912	-0.4925925	19.43608	-14.74931
34.82635	-0.01557769	-0.164667	0	0	-19.59274	14.86818
34.84291	-0.01557769	-0.164667	0	0	0	0
34.85948	0.01615649	-0.1889136	1.915479	-1.463529	57.80926	-44.16938
34.87605	0.01615649	-0.1889136	0	0	-57.80926	44.16938
34.89262	0.01615649	-0.1889136	0	0	0	0
34.90924	0.05835472	-0.2216674	2.538323	-1.970221	76.47469	-59.35888
34.92575	0.05835472	-0.2216674	0	0	-76.61557	59.46823
34.94241	0.05835472	-0.2216674	0	0	0	0
34.95888	0.09940809	-0.2541143	2.493488	-1.970747	75.26228	-59.48412
34.97555	0.09940809	-0.2541143	0	0	-75.25361	59.47728
34.99201	0.09940809	-0.2541143	0	0	0	0
35.00858	0.1146009	-0.2663366	0.9172517	-0.7379088	27.77224	-22.34215
35.02521	0.1146009	-0.2663366	0	0	-27.62864	22.22663
35.042	0.1146009	-0.2663366	0	0	0	0
35.05828	0.1147308	-0.2664416	0.00797961	-0.006451814	0.2413252	-0.1951205
35.07485	0.1147308	-0.2664416	0	0	-0.2429509	0.1964349
35.09146	0.1147308	-0.2664416	0	0	0	0
35.10798	0.1147048	-0.2664625	-0.001571247	-0.001269621	-0.04742032	-0.03831725
35.12455	0.1147048	-0.2664625	0	0	0.04748045	0.03836584
35.14112	0.1147048	-0.2664625	0	0	0	0
35.15768	0.1146788	-0.2664835	-0.001567717	-0.001268205	-0.04731378	-0.03827449
35.23108	0.1146788	-0.2664835	0	0	0.01742569	0.01409652
35.24765	0.1146788	-0.2664835	0	0	0	0
35.26466	0.1145749	-0.2666095	-0.006105924	-0.007404358	-0.1818279	-0.2204939
35.28152	0.1145749	-0.2666095	0	0	0.1802513	0.218582
35.29816	0.1145749	-0.2666095	0	0	0	0
35.31437	0.1144711	-0.2667775	-0.006412615	-0.01036945	-0.1952641	-0.3157497
35.33131	0.1144711	-0.2667775	0	0	0.193444	0.3128066
35.3475	0.1144711	-0.2667775	0	0	0	0
35.36407	0.1150424	-0.2678698	0.03448707	-0.06593224	1.052822	-2.01278
35.38064	0.1150424	-0.2678698	0	0	-1.040822	1.989839
35.39721	0.1150424	-0.2678698	0	0	0	0
35.41377	0.1317327	-0.2817041	1.007658	-0.8352322	30.41469	-25.21026
35.43034	0.1317327	-0.2817041	0	0	-30.41119	25.20736
35.44691	0.1317327	-0.2817041	0	0	0	0
35.46347	0.1448726	-0.2927223	0.7933115	-0.6652141	23.94495	-20.07851
35.48004	0.1448726	-0.2927223	0	0	-23.94219	20.0762
35.49661	0.1448726	-0.2927223	0	0	0	0
35.51317	0.1589375	-0.3127849	0.8491533	-1.211258	25.63045	-36.56004
35.53003	0.1589375	-0.3127849	0	0	-25.40811	36.24289
35.54715	0.1589375	-0.3127849	0	0	0	0
35.56287	0.1456971	-0.3661185	-0.8418381	-3.390998	-25.63099	-103.2439
35.57947	0.1456971	-0.3661185	0	0	26.04541	104.9132
35.59601	0.1456971	-0.3661185	0	0	0	0
35.61258	0.1341887	-0.4064858	-0.6946451	-2.436575	-20.98134	-73.5953
35.62914	0.1341887	-0.4064858	0	0	20.96443	73.536
35.64571	0.1341887	-0.4064858	0	0	0	0
35.66698	0.1297925	-0.4110515	-0.2067516	-0.2147246	-5.46468	-5.675416
35.6842	0.1297925	-0.4110515	0	0	5.371526	5.578669
35.70011	0.1297925	-0.4110515	0	0	0	0
35.71668	0.1297925	-0.4110515	0	0	0	0
35.73333	0.1297925	-0.4110515	0	0	0	0
35.74981	0.1296632	-0.4108915	-0.0078532	0.00971362	-0.2370646	0.2932251
35.76638	0.1296632	-0.4108915	0	0	0.2376393	-0.293936
35.78295	0.1296632	-0.4108915	0	0	0	0
35.79951	0.1293785	-0.4106401	-0.01718102	0.01517708	-0.5185243	0.4580452
35.81608	0.1293785	-0.4106401	0	0	0.5185243	-0.4580452
35.83265	0.1293785	-0.4106401	0	0	0	0
35.84921	0.1293268	-0.4105943	-0.003123741	0.002759469	-0.09428554	0.08329053
35.86578	0.1293268	-0.4105943	0	0	0.09427468	-0.08328094
35.88235	0.1293268	-0.4105943	0	0	0	0
35.89891	0.1293268	-0.4105943	0	0	0	0
35.91548	0.1293268	-0.4105943	0	0	0	0
35.93207	0.1293268	-0.4105943	0	0	0	0
35.9486	0.1293009	-0.4105715	-0.001565203	0.001380479	-0.04724881	0.04167252
35.96517	0.1293009	-0.4105715	0	0	0.04728148	-0.04170134
35.98174	0.1293009	-0.4105715	0	0	0	0
35.9983	0.1290939	-0.4103887	-0.01249874	0.01103862	-0.3772562	0.3331846
36.01487	0.1290939	-0.4103887	0	0	0.3772127	-0.3331462
36.0322	0.1290939	-0.4103887	0	0	0	0
36.048	0.1290421	-0.410343	-0.003274689	0.002891982	-0.0988417	0.08729025
36.06905	0.1290421	-0.410343	0	0	0.08886544	-0.0784799
36.08561	0.1290421	-0.410343	0	0	0	0
36.10218	0.129068	-0.4103658	0.00156196	-0.001379417	0.04713463	-0.0416261
36.11884	0.129068	-0.4103658	0	0	-0.04701557	0.04152094
36.13531	0.129068	-0.4103658	0	0	0	0
36.15188	0.129068	-0.4103658	0	0	0	0
36.16845	0.129068	-0.4103658	0	0	0	0
36.18502	0.129068	-0.4103658	0	0	0	0
36.20158	0.1290421	-0.410343	-0.00156232	0.001379735	-0.04715092	0.04164047
36.21817	0.1290421	-0.410343	0	0	0.04712921	-0.04162131
36.23472	0.1290421	-0.410343	0	0	0	0
36.25129	0.1290421	-0.410343	0	0	0	0
36.26788	0.1290421	-0.410343	0	0	0	0
36.28478	0.1290421	-0.410343	0	0	0	0
36.30344	0.1290421	-0.410343	0	0	0	0
36.32028	0.1290421	-0.410343	0	0	0	0
36.33685	0.1290421	-0.410343	0	0	0	0
36.35315	0.1289903	-0.4102972	-0.003174171	0.002804019	-0.09657496	0.08531298
36.36972	0.1289903	-0.4102972	0	0	0.09656375	-0.08530308
36.38628	0.1289903	-0.4102972	0	0	0	0
36.40285	0.1288868	-0.4102059	-0.006249281	0.005515341	-0.1886037	0.1664533
36.41942	0.1288868	-0.4102059	0	0	0.1886037	-0.1664533
36.43599	0.1288868	-0.4102059	0	0	0	0
36.45255	0.1287574	-0.4100916	-0.0078125	0.006898463	-0.2358089	0.20822
36.46912	0.1287574	-0.4100916	0	0	0.2358089	-0.20822
36.48568	0.1287574	-0.4100916	0	0	0	0
36.50225	0.122826	-0.4045495	-0.3581052	0.334597	-10.80888	10.09932
36.51882	0.122826	-0.4045495	0	0	10.80764	-10.09816
36.53539	0.122826	-0.4045495	0	0	0	0
36.55207	0.09479399	-0.3795724	-1.679637	1.496598	-50.50548	45.00163
36.56852	0.09479399	-0.3795724	0	0	50.69738	-45.17263
36.58508	0.09479399	-0.3795724	0	0	0	0
36.60165	0.05208443	-0.3427112	-2.578548	2.22546	-77.82968	67.17223
36.61821	0.05208443	-0.3427112	0	0	77.82968	-67.17223
36.63478	0.05208443	-0.3427112	0	0	0	0
36.65135	0.019366	-0.3148316	-1.974888	1.682812	-59.60225	50.78737
36.66792	0.019366	-0.3148316	0	0	59.60225	-50.78737
36.68448	0.019366	-0.3148316	0	0	0	0
36.70105	0.001842103	-0.2964311	-1.057988	1.110912	-31.93382	33.53124
36.71762	0.001842103	-0.2964311	0	0	31.92279	-33.51966
36.73418	0.001842103	-0.2964311	0	0	0	0
36.75075	-0.03351376	-0.2628964	-2.134084	2.024157	-64.42904	61.11029
36.76731	-0.03351376	-0.2628964	0	0	64.40679	-61.08918
36.78389	-0.03351376	-0.2628964	0	0	0	0
36.80045	-0.07308014	-0.188954	-2.388782	4.464202	-72.09357	134.7299
36.81715	-0.07308014	-0.188954	0	0	71.82071	-134.22
36.83359	-0.07308014	-0.188954	0	0	0	0
36.85015	-0.08495294	-0.1388139	-0.7168081	3.027163	-21.71832	91.71898
36.86672	-0.08495294	-0.1388139	0	0	21.6358	-91.37048
36.88354	-0.08495294	-0.1388139	0	0	0	0
36.89985	-0.07865319	-0.1212932	0.386392	1.074624	11.66402	32.43967
36.91642	-0.07865319	-0.1212932	0	0	-11.75335	-32.68811
36.93308	-0.07865319	-0.1212932	0	0	0	0
36.94995	-0.08124184	-0.119389	-0.1533901	0.1128345	-4.573508	3.364295
36.96611	-0.08124184	-0.119389	0	0	4.643756	-3.415969
36.98268	-0.08124184	-0.119389	0	0	0	0
36.99949	-0.08124184	-0.119389	0	0	0	0
37.0161	-0.08124184	-0.119389	0	0	0	0
37.0326	-0.08124184	-0.119389	0	0	0	0
37.04895	-0.08126798	-0.1193693	-0.001599047	0.001200311	-0.04868532	0.03654521
37.06552	-0.08126798	-0.1193693	0	0	0.04857249	-0.03646052
37.08208	-0.08126798	-0.1193693	0	0	0	0
37.09892	-0.08147712	-0.1191731	-0.01242053	0.01165415	-0.3718131	0.3488711
37.11522	-0.08147712	-0.1191731	0	0	0.3748523	-0.3517229
37.13215	-0.08147712	-0.1191731	0	0	0	0
37.14835	-0.08155555	-0.119075	-0.004839594	0.00605386	-0.1460592	0.1827058
37.16492	-0.08155555	-0.119075	0	0	0.1476915	-0.1847477
37.18155	-0.08155555	-0.119075	0	0	0	0
37.19806	-0.07867935	-0.1165647	0.1742497	0.152081	5.258261	4.589287
37.21462	-0.07867935	-0.1165647	0	0	-5.269179	-4.598815
37.23119	-0.07867935	-0.1165647	0	0	0	0
37.2484	-0.06545898	-0.1064117	0.7679239	0.5897537	22.7311	17.45714
37.26432	-0.06545898	-0.1064117	0	0	-23.17599	-17.7988
37.28089	-0.06545898	-0.1064117	0	0	0	0
37.29745	-0.05557429	-0.09906153	0.5966406	0.4436553	18.00665	13.38954
37.31402	-0.05557429	-0.09906153	0	0	-18.00665	-13.38954
37.33068	-0.05557429	-0.09906153	0	0	0	0
37.34715	-0.0540788	-0.09795204	0.09081195	0.06737264	2.741025	2.033544
37.36372	-0.0540788	-0.09795204	0	0	-2.748621	-2.039179
37.38035	-0.0540788	-0.09795204	0	0	0	0
37.39685	-0.05389512	-0.0979715	0.01113024	-0.001179279	0.33595	-0.03559482
37.41342	-0.05389512	-0.0979715	0	0	-0.33657	0.03566052
37.42999	-0.05389512	-0.0979715	0	0	0	0
37.44666	-0.05371145	-0.09810773	0.01101817	-0.00817184	0.3314987	-0.2458624
37.46312	-0.05371145	-0.09810773	0	0	-0.3325291	0.2466266
37.48051	-0.05371145	-0.09810773	0	0	0	0
37.49625	-0.05371145	-0.09810773	0	0	0	0
37.51283	-0.05371145	-0.09810773	0	0	0	0
37.52939	-0.05371145	-0.09810773	0	0	0	0
37.54596	-0.0532916	-0.09841914	0.02534205	-0.01879686	0.7648247	-0.5672904
37.56253	-0.0532916	-0.09841914	0	0	-0.7648247	0.5672904
37.57909	-0.0532916	-0.09841914	0	0	0	0
37.59566	-0.04838326	-0.1021005	0.2963361	-0.2222559	8.944471	-6.708469
37.61223	-0.04838326	-0.1021005	0	0	-8.943441	6.707697
37.62972	-0.04838326	-0.1021005	0	0	0	0
37.64676	-0.02886041	-0.1166627	1.145434	-0.8543895	33.16787	-24.74021
37.66285	-0.02886041	-0.1166627	0	0	-34.56927	25.78553
37.67942	-0.02886041	-0.1166627	0	0	0	0
37.69598	-0.02765085	-0.1175646	0.07302593	-0.05444999	2.204181	-1.643493
37.71257	-0.02765085	-0.1175646	0	0	-2.203166	1.642737
37.72912	-0.02765085	-0.1175646	0	0	0	0
37.74569	-0.02759825	-0.1176038	0.003174447	-0.002367315	0.09584913	-0.07147863
37.76225	-0.02759825	-0.1176038	0	0	-0.09581602	0.07145394
37.77882	-0.02759825	-0.1176038	0	0	0	0
37.79553	-0.02657269	-0.1183687	0.06135217	-0.04575848	1.843336	-1.374821
37.81195	-0.02657269	-0.1183687	0	0	-1.851825	1.381153
37.82851	-0.02657269	-0.1183687	0	0	0	0
37.84525	-0.003736825	-0.1354932	1.364862	-1.023505	40.9887	-30.73727
37.86164	-0.003736825	-0.1354932	0	0	-41.19636	30.89299
37.87821	-0.003736825	-0.1354932	0	0	0	0
37.95439	0.01657743	-0.151347	0.266663	-0.2081104	2.875174	-2.243857
37.97096	0.01657743	-0.151347	0	0	-2.875056	2.243765
37.98753	0.01657743	-0.151347	0	0	0	0
38.00409	0.01657743	-0.151347	0	0	0	0
38.02082	0.01657743	-0.151347	0	0	0	0
38.03723	0.01657743	-0.151347	0	0	0	0
38.05379	0.01657743	-0.151347	0	0	0	0
38.07036	0.01657743	-0.151347	0	0	0	0
38.08693	0.01655112	-0.1513271	-0.001587954	0.001200747	-0.04792455	0.03623861
38.1035	0.01655112	-0.1513271	0	0	0.04792455	-0.03623861
38.12006	0.01655112	-0.1513271	0	0	0	0
38.13663	0.01644589	-0.1512476	-0.006351929	0.004800289	-0.1917016	0.144873
38.15323	0.01644589	-0.1512476	0	0	0.1915032	-0.1447231
38.16977	0.01644589	-0.1512476	0	0	0	0
38.18633	0.01626172	-0.1511084	-0.01111602	0.008400731	-0.33583	0.2537975
38.2029	0.01626172	-0.1511084	0	0	0.335482	-0.2535346
38.21947	0.01626172	-0.1511084	0	0	0	0
38.23604	0.01615649	-0.1510289	-0.006352041	0.00479939	-0.1916829	0.1448292
38.25261	0.01615649	-0.1510289	0	0	0.191705	-0.1448459
38.26917	0.01615649	-0.1510289	0	0	0	0
38.28574	0.01615649	-0.1510289	0	0	0	0
38.30248	0.01615649	-0.1510289	0	0	0	0
38.31906	0.01615649	-0.1510289	0	0	0	0
38.33543	0.01610387	-0.1509891	-0.00321376	0.00242912	-0.09751914	0.07370982
38.35252	0.01610387	-0.1509891	0	0	0.09605151	-0.07260051
38.36893	0.01610387	-0.1509891	0	0	0	0
38.38827	0.01607756	-0.1509692	-0.00136035	0.001027798	-0.03805031	0.02874852
38.40484	0.01607756	-0.1509692	0	0	0.03788055	-0.02862026
38.42152	0.01607756	-0.1509692	0	0	0	0
38.43797	0.01605125	-0.1509494	-0.001598999	0.001208193	-0.04826345	0.03646754
38.45454	0.01605125	-0.1509494	0	0	0.04841955	-0.03658549
38.47111	0.01605125	-0.1509494	0	0	0	0
38.48849	0.01573554	-0.1507108	-0.01816145	0.01372288	-0.5349943	0.4042443
38.50511	0.01573554	-0.1507108	0	0	0.534154	-0.4036093
38.52163	0.01573554	-0.1507108	0	0	0	0
38.53819	0.01565661	-0.1506512	-0.004765184	0.003599472	-0.1440291	0.1087951
38.55476	0.01565661	-0.1506512	0	0	0.1438135	-0.1086323
38.57154	0.01565661	-0.1506512	0	0	0	0
38.58789	0.01563031	-0.1506313	-0.001609072	0.001215804	-0.04856749	0.03669727
38.60446	0.01563031	-0.1506313	0	0	0.04888269	-0.03693543
38.62103	0.01563031	-0.1506313	0	0	0	0
38.6376	0.01552507	-0.1505518	-0.006352209	0.00479939	-0.1917101	0.1448459
38.65438	0.01552507	-0.1505518	0	0	0.1904602	-0.1439015
38.67073	0.01552507	-0.1505518	0	0	0	0
38.68729	0.01544614	-0.1504922	-0.00476524	0.003600371	-0.144782	0.1093899
38.70387	0.01544614	-0.1504922	0	0	0.1438152	-0.1086594
38.72063	0.01544614	-0.1504922	0	0	0	0
38.737	0.01541983	-0.1504723	-0.001607629	0.001214671	-0.04851834	0.03665883
38.75357	0.01541983	-0.1504723	0	0	0.0488162	-0.03688389
38.77013	0.01541983	-0.1504723	0	0	0	0
38.7867	0.01539352	-0.1504524	-0.001588066	0.001198948	-0.04792794	0.03618432
38.80327	0.01539352	-0.1504524	0	0	0.04792794	-0.03618432
38.81984	0.01539352	-0.1504524	0	0	0	0
38.84255	0.01520935	-0.1503133	-0.008107191	0.006124712	-0.2063752	0.1559095
38.85912	0.01520935	-0.1503133	0	0	0.2063551	-0.1558944
38.87569	0.0150778	-0.1502139	-0.007942161	0.005999719	-0.2396949	0.1810719
38.89226	0.0150778	-0.1502139	0	0	0.2396949	-0.1810719
38.90882	0.0150778	-0.1502139	0	0	0	0
38.92539	0.01502519	-0.1501742	-0.003176808	0.002399348	-0.0958873	0.07242081
38.94196	0.01502519	-0.1501742	0	0	0.09587626	-0.07241247
38.95853	0.01502519	-0.1501742	0	0	0	0
38.97931	0.01491995	-0.1500947	-0.005064831	0.003825931	-0.1356195	0.1024458
38.99589	0.01491995	-0.1500947	0	0	0.1355641	-0.102404
39.01244	0.01444636	-0.149737	-0.02860518	0.02160408	-0.8632067	0.6519375
39.02927	0.01444636	-0.149737	0	0	0.8568937	-0.6471696
39.04565	0.01444636	-0.149737	0	0	0	0
39.06217	0.01123637	-0.1473141	-0.1943374	0.1466846	-5.907279	4.458778
39.07879	0.01123637	-0.1473141	0	0	5.863763	-4.425932
39.09528	0.01123637	-0.1473141	0	0	0	0
39.11226	0.01076274	-0.1469569	-0.02788824	0.02103602	-0.8332272	0.6285007
39.12848	0.01076274	-0.1469569	0	0	0.8401212	-0.6337009
39.14589	0.01076274	-0.1469569	0	0	0	0
39.16154	0.01076274	-0.1469569	0	0	0	0
39.17812	0.01076274	-0.1469569	0	0	0	0
39.19493	0.01076274	-0.1469569	0	0	0	0
39.21125	0.01092062	-0.1470759	0.009678725	-0.00730001	0.2921381	-0.2203401
39.22782	0.01092062	-0.1470759	0	0	-0.294341	0.2220016
39.24512	0.01092062	-0.1470759	0	0	0	0
39.26151	0.01094693	-0.1470958	0.001605985	-0.001211438	0.04766749	-0.03595688
39.27752	0.01094693	-0.1470958	0	0	-0.04958183	0.03740091
39.29408	0.01094693	-0.1470958	0	0	0	0
39.31065	0.01097324	-0.1471156	0.001588601	-0.001198324	0.04794959	-0.03616967
39.32721	0.01097324	-0.1471156	0	0	-0.04794959	0.03616967
39.34388	0.01097324	-0.1471156	0	0	0	0
39.36035	0.01094693	-0.1470958	-0.001597431	0.001204985	-0.048205	0.03636233
39.37692	0.01094693	-0.1470958	0	0	0.04834971	-0.03647149
39.39349	0.01094693	-0.1470958	0	0	0	0
39.41035	0.01094693	-0.1470958	0	0	0	0
39.42662	0.01094693	-0.1470958	0	0	0	0
39.44318	0.01094693	-0.1470958	0	0	0	0
39.45987	0.01092062	-0.1470759	-0.001576979	0.001189558	-0.04742406	0.03577325
39.4766	0.01092062	-0.1470759	0	0	0.04718588	-0.03559358
39.49302	0.01092062	-0.1470759	0	0	0	0
39.50945	0.01092062	-0.1470759	0	0	0	0
39.52602	0.01092062	-0.1470759	0	0	0	0
39.54258	0.01092062	-0.1470759	0	0	0	0
39.55957	0.01089431	-0.1470958	-0.00154935	-0.001168716	-0.04617996	-0.03483479
39.57571	0.01089431	-0.1470958	0	0	0.04676485	0.03527599
39.59228	0.01089431	-0.1470958	0	0	0	0
39.60884	0.01092062	-0.1471156	0.001588601	-0.001198324	0.04794959	-0.03616967
39.62547	0.01092062	-0.1471156	0	0	-0.04786692	0.03610731
39.64224	0.01092062	-0.1471156	0	0	0	0
39.65855	0.01092062	-0.1471156	0	0	0	0
39.67512	0.01092062	-0.1471156	0	0	0	0
39.69196	0.01092062	-0.1471156	0	0	0	0
39.70892	0.01092062	-0.1471156	0	0	0	0
39.72482	0.01092062	-0.1471156	0	0	0	0
39.74138	0.01092062	-0.1471156	0	0	0	0
39.75795	0.01092062	-0.1471156	0	0	0	0
39.77451	0.01092062	-0.1471156	0	0	0	0
39.79108	0.01092062	-0.1471156	0	0	0	0
39.80765	0.01094693	-0.1471355	0.001588235	-0.001198049	0.04792751	-0.03615301
39.82422	0.01094693	-0.1471355	0	0	-0.04793303	0.03615718
39.84079	0.01094693	-0.1471355	0	0	0	0
39.85735	0.01092062	-0.1471553	-0.001588235	-0.001198049	-0.04793303	-0.03615718
39.87392	0.01092062	-0.1471553	0	0	0.04793303	0.03615718
39.8905	0.01092062	-0.1471553	0	0	0	0
39.90705	0.01092062	-0.1471553	0	0	0	0
39.92362	0.01092062	-0.1471553	0	0	0	0
39.94067	0.01092062	-0.1471553	0	0	0	0
39.95675	0.01092062	-0.1471553	0	0	0	0
39.97332	0.01092062	-0.1471553	0	0	0	0
39.98989	0.01092062	-0.1471553	0	0	0	0
40.00645	0.01099956	-0.1472149	0.004765803	-0.003594974	0.1438488	-0.108509
