Time	Pos X	Pos Y	Vel X	Vel Y	Acc X	Acc Y
0.01612342	-0.008578737	-0.1577582	0.0001348435	0.002479697	-2.120084E-06	-3.898716E-05
0.03930667	-0.008578737	-0.1577582	0	0	2.12029E-06	3.899094E-05
0.05668541	-0.008578737	-0.1577582	0	0	0	0
0.0724425	-0.008578737	-0.1577582	0	0	0	0
0.09088749	-0.008578737	-0.1577582	0	0	0	0
0.1074574	-0.008578737	-0.1577582	0	0	0	0
0.1240237	-0.008578737	-0.1577582	0	0	0	0
0.1405908	-0.008578737	-0.1577582	0	0	0	0
0.1571556	-0.008578737	-0.1577582	0	0	0	0
0.2256395	-0.008578737	-0.1577582	0	0	0	0
0.2423464	-0.008578737	-0.1577582	0	0	0	0
0.2658288	-0.008578737	-0.1577582	0	0	0	0
0.2823948	-0.008578737	-0.1577582	0	0	0	0
0.2989627	-0.008578737	-0.1577582	0	0	0	0
0.3155432	-0.008578737	-0.1577582	0	0	0	0
0.3320985	-0.008578737	-0.1577582	0	0	0	0
0.3486621	-0.008578737	-0.1577582	0	0	0	0
0.3652316	-0.008578737	-0.1577582	0	0	0	0
0.3817983	-0.008578737	-0.1577582	0	0	0	0
0.3983623	-0.008578737	-0.1577582	0	0	0	0
0.4149318	-0.008578737	-0.1577582	0	0	0	0
0.4314989	-0.008578737	-0.1577582	0	0	0	0
0.4480625	-0.008552423	-0.1577781	0.001588699	-0.001203711	0.04795247	-0.0363322
0.4646316	-0.008552423	-0.1577781	0	0	-0.04794962	0.03633004
0.4811983	-0.008552423	-0.1577781	0	0	0	0
0.497765	-0.008578737	-0.1577582	-0.001588396	0.001203482	-0.04793936	0.03632227
0.5144079	-0.008578737	-0.1577582	0	0	0.0478294	-0.03623896
0.5308989	-0.008578737	-0.1577582	0	0	0	0
0.5475189	-0.008552423	-0.1577781	0.001583301	-0.001199621	0.047818	-0.03623032
0.564032	-0.008552423	-0.1577781	0	0	-0.04778609	0.03620614
0.5805983	-0.008552423	-0.1577781	0	0	0	0
0.5971619	-0.008552423	-0.1577781	0	0	0	0
0.6137314	-0.008552423	-0.1577781	0	0	0	0
0.6302993	-0.008552423	-0.1577781	0	0	0	0
0.6468621	-0.008552423	-0.1577781	0	0	0	0
0.6634316	-0.008552423	-0.1577781	0	0	0	0
0.6799979	-0.008552423	-0.1577781	0	0	0	0
0.6965647	-0.008526109	-0.1577981	0.001588337	-0.00120348	0.04793809	-0.0363226
0.7131314	-0.008526109	-0.1577981	0	0	-0.04793749	0.03632214
0.729699	-0.008526109	-0.1577981	0	0	0	0
0.7462649	-0.008552423	-0.157818	-0.001588417	-0.00120354	-0.04793999	-0.03632404
0.7628312	-0.008552423	-0.157818	0	0	0.04794171	0.03632534
0.7793983	-0.008552423	-0.157818	0	0	0	0
0.7959647	-0.008552423	-0.157818	0	0	0	0
0.8125314	-0.008552423	-0.157818	0	0	0	0
0.8297606	-0.008552423	-0.157818	0	0	0	0
0.8456617	-0.008526109	-0.1578379	0.001654823	-0.001253856	0.04994895	-0.03784622
0.8622517	-0.008526109	-0.1578379	0	0	-0.05093151	0.0385907
0.8787975	-0.008526109	-0.1578379	0	0	0	0
0.8953623	-0.008499796	-0.1578579	0.001588526	-0.001203623	0.04797632	-0.03635157
0.911931	-0.008499796	-0.1578579	0	0	-0.04794318	0.03632645
0.9284986	-0.008499796	-0.1578579	0	0	0	0
0.9450622	-0.008499796	-0.1578579	0	0	0	0
0.9616321	-0.008499796	-0.1578579	0	0	0	0
0.9782667	-0.008499796	-0.1578579	0	0	0	0
0.9947656	-0.008499796	-0.1578579	0	0	0	0
1.011332	-0.008499796	-0.1578579	0	0	0	0
1.027898	-0.008499796	-0.1578579	0	0	0	0
1.044462	-0.008499796	-0.1578977	0	-0.002407427	0	-0.07266624
1.061032	-0.008499796	-0.1578977	0	0	0	0.07265866
1.077598	-0.008499796	-0.1578977	0	0	0	0
1.094162	-0.008499796	-0.1578977	0	0	0	0
1.110814	-0.008499796	-0.1578977	0	0	0	0
1.127567	-0.008499796	-0.1578977	0	0	0	0
1.143865	-0.008499796	-0.1578977	0	0	0	0
1.160432	-0.008499796	-0.1578977	0	0	0	0
1.177281	-0.008499796	-0.1578977	0	0	0	0
1.194414	-0.008499796	-0.1578977	0	0	0	0
1.210132	-0.008499796	-0.1578977	0	0	0	0
1.226699	-0.008499796	-0.1578977	0	0	0	0
1.243262	-0.008499796	-0.1578977	0	0	0	0
1.259832	-0.008499796	-0.1578977	0	0	0	0
1.276398	-0.008499796	-0.1578977	0	0	0	0
1.292965	-0.008499796	-0.1578977	0	0	0	0
1.309532	-0.008499796	-0.1578977	0	0	0	0
1.326099	-0.008499796	-0.1578977	0	0	0	0
1.343271	-0.008499796	-0.1578977	0	0	0	0
1.35984	-0.008499796	-0.1578977	0	0	0	0
1.376468	-0.008499796	-0.1578977	0	0	0	0
1.392972	-0.008499796	-0.1578977	0	0	0	0
1.409599	-0.008499796	-0.1578977	0	0	0	0
1.426426	-0.008499796	-0.1578977	0	0	0	0
1.442672	-0.008499796	-0.1578977	0	0	0	0
1.459242	-0.008499796	-0.1578977	0	0	0	0
1.475808	-0.008499796	-0.1578977	0	0	0	0
1.492375	-0.008526109	-0.1578778	-0.001588337	0.00120348	-0.04793749	0.03632214
1.508942	-0.008526109	-0.1578778	0	0	0.04793749	-0.03632214
1.525508	-0.008526109	-0.1578778	0	0	0	0
1.542072	-0.008526109	-0.1578778	0	0	0	0
1.558677	-0.008526109	-0.1578778	0	0	0	0
1.575209	-0.008526109	-0.1578778	0	0	0	0
1.591772	-0.008526109	-0.1578778	0	0	0	0
1.608681	-0.008526109	-0.1578778	0	0	0	0
1.624908	-0.008526109	-0.1578778	0	0	0	0
1.641475	-0.008526109	-0.1578778	0	0	0	0
1.658042	-0.008526109	-0.1578778	0	0	0	0
1.674609	-0.008526109	-0.1578778	0	0	0	0
1.691175	-0.008526109	-0.1578778	0	0	0	0
1.707742	-0.008526109	-0.1578778	0	0	0	0
1.724308	-0.008526109	-0.1578778	0	0	0	0
1.740895	-0.008526109	-0.1578778	0	0	0	0
1.757442	-0.008526109	-0.1578778	0	0	0	0
1.774009	-0.008526109	-0.1578778	0	0	0	0
1.790574	-0.008526109	-0.1578778	0	0	0	0
1.80714	-0.008526109	-0.1578778	0	0	0	0
1.823709	-0.008526109	-0.1578778	0	0	0	0
1.845758	-0.008526109	-0.1578778	0	0	0	0
1.862768	-0.008526109	-0.1578778	0	0	0	0
1.879198	-0.008499796	-0.1578579	0.001601544	0.001213487	0.04789272	0.03628822
1.895461	-0.008499796	-0.1578579	0	0	-0.04898696	-0.03711732
1.912029	-0.008499796	-0.1578579	0	0	0	0
1.928593	-0.008499796	-0.1578579	0	0	0	0
1.945709	-0.008499796	-0.1578579	0	0	0	0
1.961735	-0.008499796	-0.1578579	0	0	0	0
1.978295	-0.008499796	-0.1578579	0	0	0	0
1.994862	-0.008499796	-0.1578579	0	0	0	0
2.011429	-0.008499796	-0.1578579	0	0	0	0
2.027994	-0.008499796	-0.1578579	0	0	0	0
2.044773	-0.008499796	-0.1578579	0	0	0	0
2.061128	-0.008499796	-0.1578579	0	0	0	0
2.077696	-0.008499796	-0.1578579	0	0	0	0
2.094262	-0.008499796	-0.1578579	0	0	0	0
2.110829	-0.008499796	-0.1578579	0	0	0	0
2.127395	-0.008499796	-0.1578579	0	0	0	0
2.143961	-0.008499796	-0.1578579	0	0	0	0
2.160624	-0.008499796	-0.1578579	0	0	0	0
2.177149	-0.008526109	-0.1578379	-0.001592324	0.001206501	-0.04797946	0.03635394
2.193662	-0.008526109	-0.1578379	0	0	0.0481969	-0.0365187
2.21023	-0.008526109	-0.1578379	0	0	0	0
2.226795	-0.008526109	-0.1578379	0	0	0	0
2.243361	-0.008526109	-0.1578379	0	0	0	0
2.259929	-0.008526109	-0.1578379	0	0	0	0
2.276496	-0.008526109	-0.1578379	0	0	0	0
2.293062	-0.008526109	-0.1578379	0	0	0	0
2.309629	-0.008526109	-0.1578379	0	0	0	0
2.326195	-0.008526109	-0.1578379	0	0	0	0
2.342762	-0.008526109	-0.1578379	0	0	0	0
2.359329	-0.008526109	-0.1578379	0	0	0	0
2.375893	-0.008526109	-0.1578379	0	0	0	0
2.392462	-0.008526109	-0.1578379	0	0	0	0
2.409029	-0.008526109	-0.1578379	0	0	0	0
2.425652	-0.008526109	-0.1578379	0	0	0	0
2.442162	-0.008526109	-0.1578379	0	0	0	0
2.458729	-0.008526109	-0.1578379	0	0	0	0
2.475296	-0.008526109	-0.1578379	0	0	0	0
2.491859	-0.008526109	-0.1578379	0	0	0	0
2.508429	-0.008526109	-0.1578379	0	0	0	0
2.525006	-0.008526109	-0.1578379	0	0	0	0
2.54159	-0.008526109	-0.1578379	0	0	0	0
2.558331	-0.008526109	-0.1578379	0	0	0	0
2.574801	-0.008526109	-0.1578379	0	0	0	0
2.591262	-0.008526109	-0.1578379	0	0	0	0
2.607829	-0.008526109	-0.1578379	0	0	0	0
2.624393	-0.008526109	-0.1578379	0	0	0	0
2.640962	-0.008526109	-0.1578379	0	0	0	0
2.657529	-0.008526109	-0.1578379	0	0	0	0
2.674101	-0.008552423	-0.157818	-0.001587812	0.001203082	-0.04791301	0.03630359
2.690663	-0.008552423	-0.157818	0	0	0.04792059	-0.03630934
2.707229	-0.008552423	-0.157818	0	0	0	0
2.723795	-0.008552423	-0.157818	0	0	0	0
2.740447	-0.008552423	-0.157818	0	0	0	0
2.757228	-0.008552423	-0.157818	0	0	0	0
2.773493	-0.008552423	-0.1577781	0	0.002451663	0	0.07418832
2.790112	-0.008552423	-0.1577781	0	0	0	-0.07455678
2.806703	-0.008552423	-0.1577781	0	0	0	0
2.823193	-0.008552423	-0.1577781	0	0	0	0
2.839763	-0.008552423	-0.1577781	0	0	0	0
2.856329	-0.008552423	-0.1577781	0	0	0	0
2.872895	-0.008552423	-0.1577781	0	0	0	0
2.889462	-0.008552423	-0.1577781	0	0	0	0
2.906218	-0.008552423	-0.1577781	0	0	0	0
2.922673	-0.008552423	-0.1577781	0	0	0	0
2.939197	-0.008552423	-0.1577781	0	0	0	0
2.955728	-0.008552423	-0.1577781	0	0	0	0
2.972754	-0.008552423	-0.1577781	0	0	0	0
2.98888	-0.008552423	-0.1577781	0	0	0	0
3.005869	-0.008552423	-0.1577781	0	0	0	0
3.021992	-0.008552423	-0.1577781	0	0	0	0
3.03856	-0.008552423	-0.1577781	0	0	0	0
3.055128	-0.008552423	-0.1577781	0	0	0	0
3.071693	-0.008552423	-0.1577781	0	0	0	0
3.088262	-0.008552423	-0.1577781	0	0	0	0
3.104829	-0.008552423	-0.1577781	0	0	0	0
3.121395	-0.008815561	-0.157499	-0.01588422	0.01684855	-0.479411	0.5085157
3.137961	-0.008815561	-0.157499	0	0	0.4794179	-0.508523
3.154525	-0.008815561	-0.157499	0	0	0	0
3.171092	-0.01497257	-0.1522021	-0.3716375	0.3197198	-11.21717	9.650134
3.187662	-0.01497257	-0.1522021	0	0	11.21524	-9.648467
3.204234	-0.01497257	-0.1522021	0	0	0	0
3.220794	-0.04058297	-0.1155652	-1.546515	2.212363	-46.6776	66.77454
3.237364	-0.04058297	-0.1155652	0	0	46.67928	-66.77694
3.254157	-0.04058297	-0.1155652	0	0	0	0
3.270493	-0.05657115	-0.05806093	-0.9786963	3.520053	-29.54222	106.2538
3.287063	-0.05657115	-0.05806093	0	0	29.7417	-106.9713
3.303633	-0.05657115	-0.05806093	0	0	0	0
3.320224	-0.05119208	-0.01168064	0.3242105	2.795457	9.776883	84.29973
3.336761	-0.05119208	-0.01168064	0	0	-9.786593	-84.38345
3.353766	-0.05119208	-0.01168064	0	0	0	0
3.369899	-0.03582677	0.02504697	0.9524387	2.276609	28.74197	68.70176
3.386467	-0.03582677	0.02504697	0	0	-29.12566	-69.6189
3.403032	-0.03582677	0.02504697	0	0	0	0
3.419593	-0.04131858	0.04165909	-0.3316055	1.00307	-10.01032	30.28013
3.436164	-0.04131858	0.04165909	0	0	10.00867	-30.27512
3.452736	-0.04131858	0.04165909	0	0	0	0
3.469293	-0.0584334	0.05451038	-1.033648	0.7761524	-31.20027	23.42787
3.485864	-0.0584334	0.05451038	0	0	31.20139	-23.42871
3.502614	-0.0584334	0.05451038	0	0	0	0
3.518996	-0.0514283	0.07010938	0.4275981	0.9521772	12.90586	28.73883
3.535598	-0.0514283	0.07010938	0	0	-12.96352	-28.86721
3.552639	-0.0514283	0.07010938	0	0	0	0
3.569156	-0.0393481	0.07911235	0.7313827	0.5450754	21.79481	16.24295
3.585262	-0.0393481	0.07911235	0	0	-22.41903	-16.70817
3.601829	-0.0393481	0.07911235	0	0	0	0
3.618395	-0.0490396	0.08634887	-0.5850135	0.4368222	-17.65651	13.18389
3.634962	-0.0490396	0.08634887	0	0	17.65651	-13.18389
3.651529	-0.0490396	0.08634887	0	0	0	0
3.668093	-0.06087207	0.09474884	-0.7143533	0.5071254	-21.56171	15.30684
3.684662	-0.06087207	0.09474884	0	0	21.56016	-15.30574
3.701419	-0.06087207	0.09474884	0	0	0	0
3.717793	-0.06066232	0.09493247	0.01281015	0.0112148	0.3866557	0.3385023
3.734374	-0.06066232	0.09493247	0	0	-0.3887117	-0.3403022
3.750929	-0.06066232	0.09493247	0	0	0	0
3.767492	-0.05400008	0.09966756	0.4022319	0.285881	12.14541	8.632191
3.784176	-0.05400008	0.09966756	0	0	-12.09821	-8.59864
3.800629	-0.05400008	0.09966756	0	0	0	0
3.824066	-0.0382445	0.1111	0.6722519	0.4877918	16.85292	12.22863
3.840634	-0.0382445	0.1111	0	0	-16.80421	-12.19328
3.857312	-0.0382445	0.1111	0	0	0	0
3.873971	-0.0382445	0.1111	0	0	0	0
3.890817	-0.0382445	0.1111	0	0	0	0
3.906903	-0.03827078	0.1110085	-0.001633621	-0.00568826	-0.04960581	-0.1727272
3.923469	-0.03827078	0.1110085	0	0	0.05003141	0.1742092
3.940036	-0.03827078	0.1110085	0	0	0	0
3.959912	-0.03837589	0.1108621	-0.00528824	-0.007365488	-0.1451109	-0.2021112
3.976484	-0.03837589	0.1108621	0	0	0.1450919	0.2020847
3.993052	-0.03837589	0.1108621	0	0	0	0
4.009615	-0.03837589	0.1108621	0	0	0	0
4.026182	-0.03837589	0.1108621	0	0	0	0
4.043181	-0.03837589	0.1108621	0	0	0	0
4.059312	-0.03845472	0.1108072	-0.004886796	-0.003403506	-0.1475029	-0.1027313
4.07596	-0.03845472	0.1108072	0	0	0.1490822	0.1038312
4.092486	-0.03845472	0.1108072	0	0	0	0
4.109063	-0.03905907	0.1103496	-0.03645789	-0.02760039	-1.101363	-0.8337854
4.12561	-0.03905907	0.1103496	0	0	1.10065	0.8332453
4.14215	-0.03905907	0.1103496	0	0	0	0
4.158713	-0.03921673	0.1102398	-0.009518223	-0.006629469	-0.2875295	-0.2002651
4.175282	-0.03921673	0.1102398	0	0	0.2872771	0.2000893
4.192043	-0.03921673	0.1102398	0	0	0	0
4.208417	-0.03926928	0.1101666	-0.00320927	-0.004471046	-0.09685596	-0.1349364
4.22512	-0.03926928	0.1101666	0	0	0.09702352	0.1351699
4.24155	-0.03926928	0.1101666	0	0	0	0
4.262978	-0.03932182	0.11013	-0.002452392	-0.001708642	-0.06477868	-0.04513291
4.279545	-0.03932182	0.11013	0	0	0.06454535	0.04497035
4.296577	-0.03958457	0.1099104	-0.01542705	-0.01289572	-0.4591535	-0.3838138
4.312682	-0.03958457	0.1099104	0	0	0.4655626	0.3891712
4.329246	-0.03958457	0.1099104	0	0	0	0
4.345812	-0.04089823	0.1088486	-0.07929954	-0.06409124	-2.393575	-1.934528
4.362379	-0.04089823	0.1088486	0	0	2.393403	1.934389
4.379285	-0.04089823	0.1088486	0	0	0	0
4.395855	-0.05092961	0.1012999	-0.6053903	-0.455567	-18.08412	-13.60862
4.412078	-0.05092961	0.1012999	0	0	18.46067	13.89198
4.428646	-0.05092961	0.1012999	0	0	0	0
4.445212	-0.05064088	0.1015016	0.0174292	0.01217582	0.5260294	0.3674774
4.461779	-0.05064088	0.1015016	0	0	-0.526037	-0.3674827
4.478446	-0.05064088	0.1015016	0	0	0	0
4.510715	-0.05064088	0.1015016	0	0	0	0
4.527283	-0.05064088	0.1015016	0	0	0	0
4.543849	-0.05064088	0.1015016	0	0	0	0
4.560417	-0.05064088	0.1015016	0	0	0	0
4.576982	-0.05064088	0.1015016	0	0	0	0
4.593549	-0.05066713	0.1015199	-0.001584447	0.001107269	-0.04782285	0.03342034
4.610116	-0.05066713	0.1015199	0	0	0.04782009	-0.03341842
4.626682	-0.05066713	0.1015199	0	0	0	0
4.643249	-0.05064088	0.1015382	0.001584447	0.00110682	0.04782147	0.0334058
4.659816	-0.05064088	0.1015382	0	0	-0.04782009	-0.03340484
4.677083	-0.05064088	0.1015382	0	0	0	0
4.693599	-0.05066713	0.1015199	-0.001589297	-0.001110207	-0.04704433	-0.03286292
4.709516	-0.05066713	0.1015199	0	0	0.04900312	0.03423125
4.726132	-0.05066713	0.1015199	0	0	0	0
4.742651	-0.05071962	0.1014832	-0.003177859	-0.002220352	-0.09590384	-0.06700746
4.759218	-0.05071962	0.1014832	0	0	0.09604758	0.06710789
4.775785	-0.05071962	0.1014832	0	0	0	0
4.792633	-0.05069337	0.1015016	0.001557989	0.001088337	0.04662633	0.03257094
4.808918	-0.05069337	0.1015016	0	0	-0.04702156	-0.03284702
4.825483	-0.05069337	0.1015016	0	0	0	0
4.842051	-0.05069337	0.1015016	0	0	0	0
4.85862	-0.05069337	0.1015016	0	0	0	0
4.875497	-0.05069337	0.1015016	0	0	0	0
4.892991	-0.05069337	0.1015016	0	0	0	0
4.909561	-0.05069337	0.1015016	0	0	0	0
4.926128	-0.05069337	0.1015016	0	0	0	0
4.942691	-0.05069337	0.1015016	0	0	0	0
4.95926	-0.05069337	0.1015016	0	0	0	0
4.975984	-0.05069337	0.1015016	0	0	0	0
4.992392	-0.05069337	0.1015016	0	0	0	0
5.00973	-0.05069337	0.1015016	0	0	0	0
5.025528	-0.05069337	0.1015016	0	0	0	0
5.04224	-0.05069337	0.1015382	0	0.002194758	0	0.06750965
5.058661	-0.05069337	0.1015382	0	0	0	-0.06624078
5.075228	-0.05069337	0.1015382	0	0	0	0
5.092084	-0.05069337	0.1015016	0	-0.002176008	0	-0.0651052
5.10836	-0.05069337	0.1015016	0	0	0	0.06567582
5.124928	-0.05069337	0.1015016	0	0	0	0
5.141491	-0.05069337	0.1015016	0	0	0	0
5.158066	-0.05069337	0.1015016	0	0	0	0
5.174627	-0.05069337	0.1015016	0	0	0	0
5.19119	-0.05069337	0.1015016	0	0	0	0
5.207763	-0.05069337	0.1015016	0	0	0	0
5.224326	-0.05069337	0.1015016	0	0	0	0
5.240891	-0.05069337	0.1015016	0	0	0	0
5.25746	-0.05069337	0.1015016	0	0	0	0
5.274027	-0.05069337	0.1015016	0	0	0	0
5.29059	-0.05071962	0.1014832	-0.001584812	-0.001107074	-0.04783593	-0.0334159
5.307159	-0.05071962	0.1014832	0	0	0.04783317	0.03341398
5.323727	-0.05071962	0.1014832	0	0	0	0
5.34029	-0.05071962	0.1014832	0	0	0	0
5.35686	-0.05071962	0.1014832	0	0	0	0
5.373426	-0.05071962	0.1014832	0	0	0	0
5.38999	-0.05077212	0.1014465	-0.003169351	-0.002213958	-0.09566221	-0.06682507
5.406559	-0.05077212	0.1014465	0	0	0.09565534	0.06682026
5.423127	-0.05077212	0.1014465	0	0	0	0
5.439694	-0.05079836	0.1014282	-0.001584131	-0.001106756	-0.04780918	-0.03340195
5.456257	-0.05079836	0.1014282	0	0	0.04781469	0.0334058
5.472828	-0.05079836	0.1014282	0	0	0	0
5.489389	-0.05079836	0.1014282	0	0	0	0
5.50596	-0.05079836	0.1014282	0	0	0	0
5.522527	-0.05079836	0.1014282	0	0	0	0
5.539091	-0.05079836	0.1014282	0	0	0	0
5.55566	-0.05079836	0.1014282	0	0	0	0
5.572226	-0.05079836	0.1014282	0	0	0	0
5.58879	-0.05061463	0.1012999	0.01109219	-0.007749079	0.3348062	-0.233898
5.60536	-0.05061463	0.1012999	0	0	-0.3347676	0.233871
5.621927	-0.05061463	0.1012999	0	0	0	0
5.638492	-0.05035214	0.1011165	0.01584652	-0.01107037	0.4782903	-0.3341333
5.65506	-0.05035214	0.1011165	0	0	-0.4782766	0.3341236
5.67195	-0.05035214	0.1011165	0	0	0	0
5.688193	-0.04872456	0.09994271	0.100202	-0.07226333	3.02419	-2.180974
5.70476	-0.04872456	0.09994271	0	0	-3.054033	2.202497
5.721327	-0.04872456	0.09994271	0	0	0	0
5.737891	-0.04675537	0.09834664	0.118881	-0.09635567	3.588197	-2.908313
5.75446	-0.04675537	0.09834664	0	0	-3.587938	2.908103
5.771026	-0.04675537	0.09834664	0	0	0	0
5.787593	-0.05754167	0.07385682	-0.651081	-1.478251	-19.65079	-44.61626
5.804159	-0.05754167	0.07385682	0	0	19.65051	44.61562
5.821427	-0.05754167	0.07385682	0	0	0	0
5.837291	-0.06899557	0.01201683	-0.7220106	-3.898159	-21.79189	-117.6551
5.85386	-0.06899557	0.01201683	0	0	22.26191	120.1928
5.870426	-0.06899557	0.01201683	0	0	0	0
5.886992	-0.0856583	-0.02170813	-1.005822	-2.03576	-30.35753	-61.4429
5.90356	-0.0856583	-0.02170813	0	0	30.35622	61.44025
5.920135	-0.0856583	-0.02170813	0	0	0	0
5.936691	-0.1033671	-0.05579855	-1.069614	-2.059064	-32.28473	-62.14984
5.953263	-0.1033671	-0.05579855	0	0	32.28705	62.15432
5.969975	-0.1033671	-0.05579855	0	0	0	0
5.986398	-0.1107294	-0.06138104	-0.4482997	-0.3399244	-13.52952	-10.25879
6.002964	-0.1107294	-0.06138104	0	0	13.58956	10.30431
6.0196	-0.1107294	-0.06138104	0	0	0	0
6.036091	-0.1044345	-0.06610878	0.3817122	-0.2866789	11.52242	-8.653729
6.052659	-0.1044345	-0.06610878	0	0	-11.54635	8.671703
6.069232	-0.1044345	-0.06610878	0	0	0	0
6.085797	-0.08787835	-0.07834944	0.9994437	-0.738933	30.16023	-22.2988
6.102361	-0.08787835	-0.07834944	0	0	-30.16761	22.30425
6.11942	-0.08787835	-0.07834944	0	0	0	0
6.136123	-0.08043137	-0.08389969	0.4458303	-0.3322786	13.2051	-9.841799
6.152064	-0.08043137	-0.08389969	0	0	-13.65703	10.17862
6.168633	-0.08043137	-0.08389969	0	0	0	0
6.185193	-0.05817114	-0.1007948	1.344249	-1.020263	40.57712	-30.79737
6.201824	-0.05817114	-0.1007948	0	0	-40.50017	30.73897
6.21846	-0.05817114	-0.1007948	0	0	0	0
6.235118	-0.05182198	-0.1055137	0.3811406	-0.2832747	11.44766	-8.50823
6.251464	-0.05182198	-0.1055137	0	0	-11.54838	8.583093
6.268028	-0.05182198	-0.1055137	0	0	0	0
6.284592	-0.05176949	-0.1055528	0.00316881	-0.002356479	0.09565277	-0.07113199
6.30116	-0.05176949	-0.1055528	0	0	-0.09564038	0.07112278
6.31848	-0.05176949	-0.1055528	0	0	0	0
6.334293	-0.05113958	-0.1060603	0.03983522	-0.03209481	1.202281	-0.9686651
6.35086	-0.05113958	-0.1060603	0	0	-1.230256	0.9912038
6.367426	-0.05113958	-0.1060603	0	0	0	0
6.38399	-0.04100332	-0.1136457	0.6119493	-0.4579519	18.47106	-13.82281
6.40056	-0.04100332	-0.1136457	0	0	-18.4692	13.82141
6.417127	-0.04100332	-0.1136457	0	0	0	0
6.433693	-0.0309112	-0.1211753	0.6091964	-0.4545147	18.38611	-13.71768
6.45026	-0.0309112	-0.1211753	0	0	-18.38664	13.71807
6.467144	-0.0309112	-0.1211753	0	0	0	0
6.48339	-0.03070088	-0.1213717	0.0129457	-0.01208745	0.390747	-0.3648421
6.49996	-0.03070088	-0.1213717	0	0	-0.3944829	0.3683303
6.516526	-0.03070088	-0.1213717	0	0	0	0
6.533093	-0.03043796	-0.1216467	0.01586942	-0.01659684	0.4789608	-0.5009153
6.549702	-0.03043796	-0.1216467	0	0	-0.4783412	0.5002673
6.566226	-0.03043796	-0.1216467	0	0	0	0
6.58279	-0.03254114	-0.1233757	-0.1269699	-0.1043836	-3.837315	-3.154708
6.59936	-0.03254114	-0.1233757	0	0	3.832014	3.150349
6.61607	-0.03254114	-0.1233757	0	0	0	0
6.632518	-0.05347528	-0.1391303	-1.272708	-0.9578136	-38.3828	-28.88609
6.649174	-0.05347528	-0.1391303	0	0	38.44527	28.9331
6.666154	-0.05347528	-0.1391303	0	0	0	0
6.682194	-0.07459816	-0.1552075	-1.3169	-1.002328	-39.88243	-30.3556
6.69876	-0.07459816	-0.1552075	0	0	40.38811	30.74048
6.715484	-0.07459816	-0.1552075	0	0	0	0
6.731894	-0.07922854	-0.1587353	-0.2821708	-0.2149806	-8.516053	-6.488222
6.748461	-0.07922854	-0.1587353	0	0	8.55669	6.519182
6.765253	-0.07922854	-0.1587353	0	0	0	0
6.781773	-0.07922854	-0.1586954	0	0.00241474	0	0.07248893
6.79816	-0.07922854	-0.1586954	0	0	0	-0.07338072
6.814727	-0.07922854	-0.1586954	0	0	0	0
6.831734	-0.07920239	-0.1586755	0.001537704	0.001173211	0.04580095	0.03494443
6.84786	-0.07920239	-0.1586755	0	0	-0.04641	-0.03540911
6.864427	-0.07920239	-0.1586755	0	0	0	0
6.880993	-0.07920239	-0.1586356	0	0.002407928	0	0.07267457
6.897575	-0.07920239	-0.1586356	0	0	0	-0.07264006
6.914656	-0.07920239	-0.1586356	0	0	0	0
6.930693	-0.07915009	-0.1586356	0.003261306	0	0.09847601	0
6.947259	-0.07915009	-0.1586356	0	0	-0.1000286	0
6.964055	-0.07915009	-0.1586356	0	0	0	0
6.98039	-0.07912394	-0.1586157	0.00160095	0.001220553	0.04832233	0.03684062
6.997013	-0.07912394	-0.1586157	0	0	-0.04857542	-0.03703357
7.013527	-0.07912394	-0.1586157	0	0	0	0
7.030289	-0.07907163	-0.1585758	0.003120288	0.002379776	0.09376971	0.0715161
7.04666	-0.07907163	-0.1585758	0	0	-0.09417456	-0.07182487
7.063359	-0.07907163	-0.1585758	0	0	0	0
7.079792	-0.07904548	-0.1585558	0.001591427	0.0012142	0.04803281	0.03664726
7.09636	-0.07904548	-0.1585558	0	0	-0.04822437	-0.03679341
7.112927	-0.07904548	-0.1585558	0	0	0	0
7.131	-0.07904548	-0.1585558	0	0	0	0
7.14757	-0.07904548	-0.1585558	0	0	0	0
7.164137	-0.07904548	-0.1585558	0	0	0	0
7.180701	-0.07904548	-0.1585558	0	0	0	0
7.197733	-0.07904548	-0.1585558	0	0	0	0
7.213838	-0.07904548	-0.1585558	0	0	0	0
7.230403	-0.07904548	-0.1585558	0	0	0	0
7.246971	-0.07904548	-0.1585558	0	0	0	0
7.264184	-0.07904548	-0.1585558	0	0	0	0
7.280101	-0.07904548	-0.1585558	0	0	0	0
7.296671	-0.07904548	-0.1585558	0	0	0	0
7.313462	-0.07904548	-0.1585558	0	0	0	0
7.330174	-0.07899318	-0.1584761	0.003129547	0.004772782	0.09340947	0.1424561
7.346371	-0.07899318	-0.1584761	0	0	-0.09509724	-0.1450301
7.362938	-0.07899318	-0.1584761	0	0	0	0
7.379502	-0.07891472	-0.1584561	0.00473662	0.001204622	0.1429659	0.03635922
7.396071	-0.07891472	-0.1584561	0	0	-0.1429597	-0.03635766
7.412637	-0.07891472	-0.1584561	0	0	0	0
7.429204	-0.07886242	-0.1584561	0.003157111	0	0.09528591	0
7.445771	-0.07886242	-0.1584561	0	0	-0.09528454	0
7.462337	-0.07886242	-0.1584561	0	0	0	0
7.478901	-0.07679604	-0.1600721	0.1247557	-0.09756538	3.765624	-2.944911
7.495471	-0.07679604	-0.1600721	0	0	-3.765244	2.944614
7.512037	-0.07679604	-0.1600721	0	0	0	0
7.528603	-0.05468227	-0.176456	1.334943	-0.9890454	40.29215	-29.85203
7.54517	-0.05468227	-0.176456	0	0	-40.29041	29.85074
7.561737	-0.05468227	-0.176456	0	0	0	0
7.578346	-0.04418176	-0.1765364	0.6322293	-0.004841234	19.05713	-0.1459281
7.59487	-0.04418176	-0.1765364	0	0	-19.08154	0.146115
7.611437	-0.04418176	-0.1765364	0	0	0	0
7.628261	-0.02704603	-0.1637073	1.018514	0.7625361	30.50264	22.83658
7.644875	-0.02704603	-0.1637073	0	0	-30.46001	-22.80466
7.661145	-0.02704603	-0.1637073	0	0	0	0
7.680008	-0.006631482	-0.1662673	1.08227	-0.13572	30.80461	-3.862995
7.696578	-0.006631482	-0.1662673	0	0	-30.54427	3.830348
7.713145	-0.006631482	-0.1662673	0	0	0	0
7.729712	-0.003631563	-0.1676686	0.1810807	-0.08458088	5.465105	-2.552693
7.746275	-0.003631563	-0.1676686	0	0	-5.465734	2.552987
7.762856	-0.003631563	-0.1676686	0	0	0	0
7.77944	-0.003605247	-0.1676886	0.00158676	-0.001207591	0.04784443	-0.03641162
7.795979	-0.003605247	-0.1676886	0	0	-0.04790574	0.03645827
7.812544	-0.003605247	-0.1676886	0	0	0	0
7.829109	-0.003578932	-0.1677086	0.001588678	-0.001209051	0.04795261	-0.03649395
7.845679	-0.003578932	-0.1677086	0	0	-0.0479464	0.03648922
7.862339	-0.003578932	-0.1677086	0	0	0	0
7.878811	-0.003605247	-0.1676886	-0.001597646	0.001215876	-0.04822053	0.03669785
7.895379	-0.003605247	-0.1676886	0	0	0.04835624	-0.03680113
7.911945	-0.003605247	-0.1676886	0	0	0	0
7.928512	-0.003657878	-0.1676485	-0.003176899	0.002417753	-0.09588314	0.07297109
7.94529	-0.003657878	-0.1676485	0	0	0.09527435	-0.07250777
7.961645	-0.003657878	-0.1676485	0	0	0	0
7.978208	-0.003657878	-0.1676485	0	0	0	0
7.994779	-0.003657878	-0.1676485	0	0	0	0
8.011345	-0.003657878	-0.1676485	0	0	0	0
8.027909	-0.003684194	-0.1676285	-0.001588678	0.001209051	-0.04795261	0.03649395
8.044478	-0.003684194	-0.1676285	0	0	0.04794778	-0.03649027
8.061046	-0.003684194	-0.1676285	0	0	0	0
8.077633	-0.003684194	-0.1676285	0	0	0	0
8.094179	-0.003684194	-0.1676285	0	0	0	0
8.110746	-0.003684194	-0.1676285	0	0	0	0
8.127627	-0.003657878	-0.1676485	0.001558881	-0.001186374	0.0466058	-0.03546896
8.143879	-0.003657878	-0.1676485	0	0	-0.04704983	0.03580689
8.160445	-0.003657878	-0.1676485	0	0	0	0
8.177009	-0.003631563	-0.1676686	0.00158877	-0.00120912	0.04795606	-0.03649658
8.193578	-0.003631563	-0.1676686	0	0	-0.04795192	0.03649342
8.210145	-0.003631563	-0.1676686	0	0	0	0
8.226708	-0.003631563	-0.1676686	0	0	0	0
8.243591	-0.003631563	-0.1676686	0	0	0	0
8.26008	-0.003631563	-0.1676686	0	0	0	0
8.27641	-0.003605247	-0.1677286	0.001611502	-0.003678349	0.04910303	-0.1120806
8.292979	-0.003605247	-0.1677286	0	0	-0.04898346	0.1118077
8.309543	-0.003605247	-0.1677286	0	0	0	0
8.326108	-0.003631563	-0.1677487	-0.001588587	-0.001208981	-0.04795192	-0.03649342
8.342678	-0.003631563	-0.1677487	0	0	0.04794226	0.03648607
8.359244	-0.003631563	-0.1677487	0	0	0	0
8.375811	-0.003631563	-0.1677487	0	0	0	0
8.392377	-0.003631563	-0.1677487	0	0	0	0
8.408939	-0.003631563	-0.1677487	0	0	0	0
8.425655	-0.003631563	-0.1677487	0	0	0	0
8.442983	-0.003631563	-0.1677487	0	0	0	0
8.459469	-0.003631563	-0.1677487	0	0	0	0
8.475207	-0.003631563	-0.1678288	0	-0.005089984	0	-0.1579531
8.491776	-0.003631563	-0.1678288	0	0	0	0.1575474
8.508343	-0.003631563	-0.1678288	0	0	0	0
8.524906	-0.003526301	-0.1679089	0.006355078	-0.004835581	0.1918243	-0.1459591
8.541476	-0.003526301	-0.1679089	0	0	-0.1918022	0.1459423
8.558042	-0.003526301	-0.1679089	0	0	0	0
8.574668	-0.0002631579	-0.1703934	0.1962633	-0.149435	5.913026	-4.502183
8.591175	-0.0002631579	-0.1703934	0	0	-5.923408	4.510087
8.607818	-0.0002631579	-0.1703934	0	0	0	0
8.624354	0.00347367	-0.173242	0.2259716	-0.172258	6.810625	-5.191732
8.641237	0.00347367	-0.173242	0	0	-6.761648	5.154398
8.657441	0.00347367	-0.173242	0	0	0	0
8.674006	0.00347367	-0.173242	0	0	0	0
8.690575	0.00347367	-0.173242	0	0	0	0
8.707142	0.00347367	-0.173242	0	0	0	0
8.724386	0.00347367	-0.173242	0	0	0	0
8.740276	0.00347367	-0.173242	0	0	0	0
8.756843	0.00347367	-0.173242	0	0	0	0
8.773462	0.00347367	-0.173242	0	0	0	0
8.789976	0.00347367	-0.173242	0	0	0	0
8.806544	0.00347367	-0.173242	0	0	0	0
8.823336	0.00347367	-0.173242	0	0	0	0
8.886305	0.00347367	-0.173242	0	0	0	0
8.902872	0.00347367	-0.173242	0	0	0	0
8.919438	0.00347367	-0.173242	0	0	0	0
8.936007	0.00347367	-0.173242	0	0	0	0
8.952574	0.00347367	-0.173242	0	0	0	0
8.969138	0.00347367	-0.173242	0	0	0	0
8.985706	0.00347367	-0.173242	0	0	0	0
9.002275	0.00347367	-0.173242	0	0	0	0
9.018843	0.003447355	-0.1732219	-0.001588404	0.00121154	-0.04793536	0.03656225
9.035411	0.003447355	-0.1732219	0	0	0.04793674	-0.0365633
9.0523	0.003447355	-0.1732219	0	0	0	0
9.068552	0.003447355	-0.1732219	0	0	0	0
9.08511	0.003447355	-0.1732219	0	0	0	0
9.101676	0.003447355	-0.1732219	0	0	0	0
9.121972	0.00347367	-0.173242	0.001296577	-0.0009889519	0.03517345	-0.02682822
9.138569	0.00347367	-0.173242	0	0	-0.03514436	0.02680603
9.155107	0.00347367	-0.173242	0	0	0	0
9.171676	0.00347367	-0.173242	0	0	0	0
9.188243	0.00347367	-0.173242	0	0	0	0
9.204809	0.00347367	-0.173242	0	0	0	0
9.221374	0.00347367	-0.173242	0	0	0	0
9.237942	0.00347367	-0.173242	0	0	0	0
9.254506	0.00347367	-0.173242	0	0	0	0
9.271075	0.00347367	-0.173242	0	0	0	0
9.287642	0.00347367	-0.173242	0	0	0	0
9.304209	0.00347367	-0.173242	0	0	0	0
9.320775	0.00347367	-0.173242	0	0	0	0
9.337341	0.00347367	-0.173242	0	0	0	0
9.353906	0.00347367	-0.173242	0	0	0	0
9.370475	0.00347367	-0.173242	0	0	0	0
9.387041	0.00347367	-0.173242	0	0	0	0
9.403608	0.00347367	-0.173242	0	0	0	0
9.420175	0.00347367	-0.173242	0	0	0	0
9.436824	0.00347367	-0.173242	0	0	0	0
9.453425	0.00347367	-0.173242	0	0	0	0
9.469874	0.00347367	-0.173242	0	0	0	0
9.48644	0.00347367	-0.173242	0	0	0	0
9.503006	0.00347367	-0.173242	0	0	0	0
9.519821	0.00347367	-0.173242	0	0	0	0
9.536139	0.00347367	-0.173242	0	0	0	0
9.552726	0.00347367	-0.173242	0	0	0	0
9.569275	0.00347367	-0.173242	0	0	0	0
9.58584	0.00347367	-0.173242	0	0	0	0
9.602407	0.00347367	-0.173242	0	0	0	0
9.618974	0.00347367	-0.173242	0	0	0	0
9.635539	0.00347367	-0.173242	0	0	0	0
9.652103	0.00347367	-0.173242	0	0	0	0
9.66868	0.00347367	-0.173242	0	0	0	0
9.685245	0.00347367	-0.173242	0	0	0	0
9.701804	0.003447355	-0.1732621	-0.001589136	-0.001212098	-0.0479754	-0.03659279
9.718632	0.003447355	-0.1732621	0	0	0.04759717	0.0363043
9.735681	0.003447355	-0.1732621	0	0	0	0
9.751504	0.003447355	-0.1732621	0	0	0	0
9.768077	0.003447355	-0.1732621	0	0	0	0
9.785379	0.003447355	-0.1732621	0	0	0	0
9.801204	0.003447355	-0.1732621	0	0	0	0
9.81777	0.003447355	-0.1732621	0	0	0	0
9.834338	0.003447355	-0.1732621	0	0	0	0
9.850904	0.00347367	-0.1732821	0.001588495	-0.00121161	0.04794088	-0.03656646
9.867472	0.00347367	-0.1732821	0	0	-0.04794226	0.03656751
9.884039	0.00347367	-0.1732821	0	0	0	0
9.900603	0.00347367	-0.1732821	0	0	0	0
9.917171	0.00347367	-0.1732821	0	0	0	0
9.933805	0.00347367	-0.1732821	0	0	0	0
9.950479	0.003447355	-0.1732621	-0.001578229	0.001203779	-0.04738283	0.03614081
9.966928	0.003447355	-0.1732621	0	0	0.04764612	-0.03634163
9.983643	0.003447355	-0.1732621	0	0	0	0
10	0.00347367	-0.1732821	0.001608402	-0.001226794	0.04862846	-0.0370909
10.01701	0.00347367	-0.1732821	0	0	-0.04820867	0.03677071
10.03314	0.00347367	-0.1732821	0	0	0	0
10.04971	0.003447355	-0.1732621	-0.001588495	0.00121161	-0.04857562	0.0370506
10.06627	0.003447355	-0.1732621	0	0	0.04794364	-0.03656856
10.08298	0.003447355	-0.1732621	0	0	0	0
10.0994	0.003447355	-0.1732621	0	0	0	0
10.11597	0.003447355	-0.1732621	0	0	0	0
10.13263	0.003447355	-0.1732621	0	0	0	0
10.1491	0.003447355	-0.1732621	0	0	0	0
10.16567	0.003447355	-0.1732621	0	0	0	0
10.18281	0.003447355	-0.1732621	0	0	0	0
10.1988	0.003368408	-0.1732019	-0.004934799	0.003763972	-0.1489497	0.11361
10.21537	0.003368408	-0.1732019	0	0	0.1515275	-0.1155762
10.23194	0.003368408	-0.1732019	0	0	0	0
10.24851	0.003368408	-0.1731617	0	0.00242322	0	0.07313503
10.26507	0.003368408	-0.1731617	0	0	0	-0.07313713
10.28194	0.003368408	-0.1731617	0	0	0	0
10.2982	0.003315777	-0.1731216	-0.003235679	0.002467973	-0.09766424	0.07449216
10.31477	0.003315777	-0.1731216	0	0	0.09854358	-0.07516287
10.33162	0.003315777	-0.1731216	0	0	0	0
10.3479	0.003368408	-0.1730413	0.003232268	0.004930743	0.09756127	0.1488272
10.36448	0.003368408	-0.1730413	0	0	-0.09837397	-0.150067
10.3817	0.003368408	-0.1730413	0	0	0	0
10.39817	0.003526301	-0.1728807	0.009582272	0.009745051	0.2843646	0.2891953
10.41475	0.003526301	-0.1728807	0	0	-0.2899446	-0.29487
10.43163	0.003526301	-0.1728807	0	0	0	0
10.45794	0.01273615	-0.164547	0.3500392	0.3167402	8.104097	7.333161
10.47451	0.01273615	-0.164547	0	0	-8.163397	-7.38682
10.49179	0.03848099	-0.1447747	1.489731	1.144125	44.01016	33.80013
10.5081	0.03848099	-0.1447747	0	0	-44.34247	-34.05535
10.52436	0.03848099	-0.1447747	0	0	0	0
10.54077	0.08949713	-0.1057284	3.108687	2.379303	95.14857	72.82406
10.55734	0.08949713	-0.1057284	0	0	-94.25987	-72.14388
10.57391	0.08949713	-0.1057284	0	0	0	0
10.59048	0.1323533	-0.06976571	2.586952	2.170839	78.07662	65.51793
10.60704	0.1323533	-0.06976571	0	0	-78.07887	-65.51982
10.62361	0.1323533	-0.06976571	0	0	0	0
10.64017	0.1666248	-0.02846152	2.069231	2.493844	62.45849	75.27518
10.65674	0.1666248	-0.02846152	0	0	-62.4549	-75.27084
10.67331	0.1666248	-0.02846152	0	0	0	0
10.68987	0.1829572	0.01383573	0.9859943	2.553508	29.76079	77.0739
10.70676	0.1829572	0.01383573	0	0	-29.47907	-76.3443
10.72301	0.1829572	0.01383573	0	0	0	0
10.73958	0.1882699	0.02657897	0.3206723	0.7691838	9.770711	23.43661
10.75614	0.1882699	0.02657897	0	0	-9.678187	-23.21468
10.77271	0.1882699	0.02657897	0	0	0	0
10.78928	0.1882699	0.02657897	0	0	0	0
10.80584	0.1882699	0.02657897	0	0	0	0
10.82241	0.1882699	0.02657897	0	0	0	0
10.83897	0.1882953	0.0265603	0.001533803	-0.001127638	0.0462956	-0.03403609
10.85554	0.1882953	0.0265603	0	0	-0.0462916	0.03403315
10.87211	0.1882953	0.0265603	0	0	0	0
10.88867	0.1886	0.02629878	0.01839696	-0.01578976	0.5552853	-0.4765907
10.90524	0.1886	0.02629878	0	0	-0.5552533	0.4765632
10.92181	0.1886	0.02629878	0	0	0	0
10.93838	0.1891331	0.02583174	0.03218277	-0.0281923	0.9713058	-0.8508699
10.95494	0.1891331	0.02583174	0	0	-0.9713897	0.8509434
10.97151	0.1891331	0.02583174	0	0	0	0
10.98807	0.1891077	0.02573832	-0.001532004	-0.005639537	-0.0462373	-0.1702065
11.00464	0.1891077	0.02573832	0	0	0.0462373	0.1702065
11.02164	0.1891077	0.02573832	0	0	0	0
11.03777	0.1891077	0.02570095	0	-0.002316111	0	-0.0699084
11.05434	0.1891077	0.02570095	0	0	0	0.07082377
11.07091	0.1891077	0.02570095	0	0	0	0
11.08751	0.1890824	0.02571964	-0.001529118	0.001125077	-0.04609845	0.0339178
11.10404	0.1890824	0.02571964	0	0	0.04614887	-0.0339549
11.12066	0.1890824	0.02571964	0	0	0	0
11.13717	0.189057	0.02570095	-0.001537226	-0.001131707	-0.0463989	-0.03415891
11.15374	0.189057	0.02570095	0	0	0.04647382	0.03421406
11.17044	0.189057	0.02570095	0	0	0	0
11.18688	0.1889554	0.02562622	-0.006177304	-0.004546188	-0.1864368	-0.1372082
11.20365	0.1889554	0.02562622	0	0	0.1859657	0.1368615
11.22063	0.1889554	0.02562622	0	0	0	0
11.23676	0.1888539	0.02562622	-0.006293031	0	-0.1900663	0
11.25367	0.1888539	0.02562622	0	0	0.1904558	0
11.27002	0.1888539	0.02562622	0	0	0	0
11.28628	0.1888539	0.02562622	0	0	0	0
11.30296	0.1888539	0.02562622	0	0	0	0
11.31941	0.1888539	0.02562622	0	0	0	0
11.33597	0.1887777	0.0255328	-0.00459871	-0.005639875	-0.1392784	-0.1708115
11.35254	0.1887777	0.0255328	0	0	0.1388053	0.1702314
11.36911	0.1887777	0.0255328	0	0	0	0
11.38567	0.1887269	0.0255328	-0.003064907	0	-0.09250175	0
11.40224	0.1887269	0.0255328	0	0	0.09250974	0
11.41884	0.1887269	0.0255328	0	0	0	0
11.43537	0.1887269	0.0255328	0	0	0	0
11.45194	0.1887269	0.0255328	0	0	0	0
11.46851	0.1887269	0.0255328	0	0	0	0
11.48507	0.1887269	0.0255328	0	0	0	0
11.50164	0.1887269	0.0255328	0	0	0	0
11.51821	0.1887269	0.0255328	0	0	0	0
11.53477	0.1887269	0.0255328	0	0	0	0
11.55135	0.1887269	0.0255328	0	0	0	0
11.56795	0.1887269	0.0255328	0	0	0	0
11.58447	0.1887269	0.0255328	0	0	0	0
11.60105	0.1887269	0.0255328	0	0	0	0
11.61794	0.1887269	0.0255328	0	0	0	0
11.63417	0.1887015	0.02551411	-0.001563601	-0.001150564	-0.04720044	-0.03473207
11.65075	0.1887015	0.02551411	0	0	0.04765316	0.0350652
11.66731	0.1887015	0.02551411	0	0	0	0
11.6843	0.1886	0.02543937	-0.005977102	-0.004398313	-0.1781182	-0.1310702
11.70045	0.1886	0.02543937	0	0	0.1803789	0.1327337
11.71702	0.1886	0.02543937	0	0	0	0
11.73357	0.1869745	0.02413119	-0.09817237	-0.07900763	-2.963701	-2.385142
11.75064	0.1869745	0.02413119	0	0	2.919572	2.349627
11.76721	0.1869745	0.02413119	0	0	0	0
11.78378	0.1533137	-0.0005732315	-2.031768	-1.491162	-61.31712	-45.00206
11.80034	0.1533137	-0.0005732315	0	0	61.31888	45.00335
11.81691	0.1533137	-0.0005732315	0	0	0	0
11.83348	0.08124184	-0.05319324	-4.350516	-3.176333	-131.3064	-95.86744
11.85004	0.08124184	-0.05319324	0	0	131.3026	95.86468
11.86672	0.08124184	-0.05319324	0	0	0	0
11.88318	0.01599864	-0.101204	-3.96456	-2.917416	-119.6541	-88.05032
11.89975	0.01599864	-0.101204	0	0	120.0307	88.32742
11.91632	0.01599864	-0.101204	0	0	0	0
11.93288	-0.03293546	-0.1377065	-2.954858	-2.204182	-89.19577	-66.53575
11.94945	-0.03293546	-0.1377065	0	0	89.18294	66.52618
11.96654	-0.03293546	-0.1377065	0	0	0	0
11.98258	-0.06118669	-0.1590744	-1.761734	-1.332497	-53.1769	-40.22063
11.99915	-0.06118669	-0.1590744	0	0	54.0371	40.87125
12.01591	-0.06118669	-0.1590744	0	0	0	0
12.03242	-0.07033117	-0.1660872	-0.5539712	-0.4248341	-16.65083	-12.76933
12.04884	-0.07033117	-0.1660872	0	0	16.81958	12.89874
12.06541	-0.07033117	-0.1660872	0	0	0	0
12.08197	-0.07022643	-0.1660472	0.006324319	0.002416719	0.1908903	0.07294513
12.09855	-0.07022643	-0.1660472	0	0	-0.1908848	-0.07294304
12.11522	-0.07022643	-0.1660472	0	0	0	0
12.13168	-0.07014787	-0.1660672	0.004772319	-0.00121571	0.144033	-0.03669127
12.14824	-0.07014787	-0.1660672	0	0	-0.1444947	0.03680887
12.16481	-0.07014787	-0.1660672	0	0	0	0
12.18138	-0.06985982	-0.1662473	0.017387	-0.01087058	0.5247557	-0.3280843
12.19794	-0.06985982	-0.1662473	0	0	-0.5247557	0.3280843
12.21509	-0.06985982	-0.1662473	0	0	0	0
12.23108	-0.06902176	-0.1668878	0.0524198	-0.0400598	1.582033	-1.209007
12.24771	-0.06902176	-0.1668878	0	0	-1.607056	1.22813
12.26425	-0.06902176	-0.1668878	0	0	0	0
12.28078	-0.068917	-0.1669678	0.006341005	-0.004846059	0.1917748	-0.1465623
12.29734	-0.068917	-0.1669678	0	0	-0.1916256	0.1464482
12.31391	-0.068917	-0.1669678	0	0	0	0
12.33048	-0.06886462	-0.1669278	0.003162063	0.002417202	0.09543949	0.07295759
12.34704	-0.06886462	-0.1669278	0	0	-0.095434	-0.07295339
12.36361	-0.06886462	-0.1669278	0	0	0	0
12.38018	-0.06886462	-0.1668878	0	0.002415885	0	0.07291155
12.39686	-0.06886462	-0.1668878	0	0	0	-0.07265642
12.41333	-0.06886462	-0.1668878	0	0	0	0
12.42988	-0.06878604	-0.1667877	0.00474919	0.006049172	0.1438608	0.1832394
12.44645	-0.06878604	-0.1667877	0	0	-0.1434093	-0.1826642
12.46322	-0.06878604	-0.1667877	0	0	0	0
12.47958	-0.06875985	-0.1667677	0.001601408	0.001223721	0.04833614	0.03693624
12.49615	-0.06875985	-0.1667677	0	0	-0.04863997	-0.03716841
12.51306	-0.06875985	-0.1667677	0	0	0	0
12.52928	-0.06875985	-0.1667677	0	0	0	0
12.54585	-0.06875985	-0.1667677	0	0	0	0
12.56249	-0.06875985	-0.1667677	0	0	0	0
12.57898	-0.06873366	-0.1667877	0.001588715	-0.001214022	0.04794889	-0.03664032
12.59555	-0.06873366	-0.1667877	0	0	-0.04806788	0.03673124
12.61281	-0.06873366	-0.1667877	0	0	0	0
12.62868	-0.06873366	-0.1667877	0	0	0	0
12.64525	-0.06873366	-0.1667877	0	0	0	0
12.66184	-0.06873366	-0.1667877	0	0	0	0
12.67838	-0.06873366	-0.1667877	0	0	0	0
12.69494	-0.06873366	-0.1667877	0	0	0	0
12.71151	-0.06873366	-0.1667877	0	0	0	0
12.72861	-0.06873366	-0.1667877	0	0	0	0
12.74465	-0.06873366	-0.1667877	0	0	0	0
12.76121	-0.06873366	-0.1667877	0	0	0	0
12.77777	-0.06873366	-0.1667877	0	0	0	0
12.79434	-0.06873366	-0.1667877	0	0	0	0
12.81091	-0.06873366	-0.1667877	0	0	0	0
12.82747	-0.06873366	-0.1667877	0	0	0	0
12.84412	-0.06873366	-0.1667877	0	0	0	0
12.86063	-0.06873366	-0.1667877	0	0	0	0
12.87717	-0.06873366	-0.1667877	0	0	0	0
12.89374	-0.06873366	-0.1667877	0	0	0	0
12.91031	-0.06873366	-0.1667877	0	0	0	0
12.92687	-0.06873366	-0.1667877	0	0	0	0
12.94344	-0.06873366	-0.1667877	0	0	0	0
12.96001	-0.06873366	-0.1667877	0	0	0	0
12.97658	-0.06870747	-0.1668077	0.001581299	-0.001208911	0.04772645	-0.03648712
12.99314	-0.06870747	-0.1668077	0	0	-0.04772508	0.03648607
13.00971	-0.06870747	-0.1668077	0	0	0	0
13.02627	-0.06870747	-0.1668077	0	0	0	0
13.04284	-0.06870747	-0.1668077	0	0	0	0
13.05941	-0.06870747	-0.1668077	0	0	0	0
13.08208	-0.06870747	-0.1668077	0	0	0	0
13.0993	-0.06870747	-0.1668077	0	0	0	0
13.11521	-0.06870747	-0.1668077	0	0	0	0
13.13178	-0.06870747	-0.1668077	0	0	0	0
13.14835	-0.06870747	-0.1668077	0	0	0	0
13.16491	-0.06868128	-0.1668277	0.00158085	-0.001208012	0.04771288	-0.03645997
13.18148	-0.06868128	-0.1668277	0	0	-0.04771288	0.03645997
13.19805	-0.06868128	-0.1668277	0	0	0	0
13.21461	-0.06868128	-0.1668277	0	0	0	0
13.23118	-0.06868128	-0.1668277	0	0	0	0
13.24838	-0.06868128	-0.1668277	0	0	0	0
13.26438	-0.06865509	-0.1668477	0.001637113	-0.001251006	0.04930883	-0.03767952
13.28088	-0.06865509	-0.1668477	0	0	-0.05038265	0.03850009
13.29745	-0.06865509	-0.1668477	0	0	0	0
13.31401	-0.0686027	-0.1668878	0.003161967	-0.002416784	0.09542286	-0.07293449
13.33058	-0.0686027	-0.1668878	0	0	-0.0954311	0.07294079
13.34715	-0.0686027	-0.1668878	0	0	0	0
13.36411	-0.06857651	-0.1669078	0.00154449	-0.001179892	0.04606653	-0.03519189
13.38028	-0.06857651	-0.1669078	0	0	-0.04661145	0.03560818
13.39694	-0.06857651	-0.1669078	0	0	0	0
13.41341	-0.06852412	-0.1669478	0.003180458	-0.002430917	0.09600575	-0.07338002
13.43007	-0.06852412	-0.1669478	0	0	-0.09601127	0.07338424
13.44706	-0.06852412	-0.1669478	0	0	0	0
13.46311	-0.06849793	-0.1669678	0.001631569	-0.001246769	0.04937443	-0.03772965
13.47991	-0.06849793	-0.1669678	0	0	-0.04965819	0.03794649
13.49636	-0.06849793	-0.1669678	0	0	0	0
13.51303	-0.06849793	-0.1669678	0	0	0	0
13.52938	-0.06849793	-0.1669678	0	0	0	0
13.54595	-0.06849793	-0.1669678	0	0	0	0
13.56251	-0.06849793	-0.1669678	0	0	0	0
13.57908	-0.06849793	-0.1669678	0	0	0	0
13.59574	-0.06849793	-0.1669678	0	0	0	0
13.61221	-0.06849793	-0.1669678	0	0	0	0
13.62878	-0.06849793	-0.1669678	0	0	0	0
13.64535	-0.06849793	-0.1669678	0	0	0	0
13.66191	-0.06849793	-0.1669678	0	0	0	0
13.67848	-0.06849793	-0.1669678	0	0	0	0
13.69505	-0.06849793	-0.1669678	0	0	0	0
13.72158	-0.06844555	-0.1670079	0.001974113	-0.001508872	0.04579662	-0.0350037
13.73815	-0.06844555	-0.1670079	0	0	-0.04579561	0.03500293
13.75472	-0.06831458	-0.167108	0.007906508	-0.006042554	0.238612	-0.1823594
13.77129	-0.06831458	-0.167108	0	0	-0.2386463	0.1823856
13.78785	-0.06831458	-0.167108	0	0	0	0
13.80442	-0.06661183	-0.1684096	0.1027963	-0.0785784	3.102577	-2.371637
13.82098	-0.06661183	-0.1684096	0	0	-3.102666	2.371706
13.83783	-0.06661183	-0.1684096	0	0	0	0
13.85412	-0.06603543	-0.1688503	0.03537597	-0.02704767	1.067587	-0.8162532
13.87122	-0.06603543	-0.1688503	0	0	-1.059355	0.8099592
13.88725	-0.06603543	-0.1688503	0	0	0	0
13.90382	-0.06603543	-0.1688503	0	0	0	0
13.92039	-0.06603543	-0.1688503	0	0	0	0
13.93695	-0.06603543	-0.1688503	0	0	0	0
13.95376	-0.06606162	-0.1688302	-0.001558688	0.001191625	-0.04670789	0.03570842
13.97027	-0.06606162	-0.1688302	0	0	0.04678677	-0.03576872
13.98678	-0.06606162	-0.1688302	0	0	0	0
14.00322	-0.06606162	-0.1688302	0	0	0	0
14.0198	-0.06606162	-0.1688302	0	0	0	0
14.03682	-0.06606162	-0.1688302	0	0	0	0
14.05292	-0.06603543	-0.1688503	0.001627006	-0.001243855	0.04913143	-0.03756123
14.06949	-0.06603543	-0.1688503	0	0	-0.04980266	0.03807439
14.08605	-0.06603543	-0.1688503	0	0	0	0
14.10262	-0.06603543	-0.1688503	0	0	0	0
14.11919	-0.06603543	-0.1688503	0	0	0	0
14.13575	-0.06603543	-0.1688503	0	0	0	0
14.15253	-0.06600922	-0.1688703	0.001561701	-0.001194477	0.04683298	-0.0358205
14.1691	-0.06600922	-0.1688703	0	0	-0.04683298	0.0358205
14.18601	-0.06600922	-0.1688703	0	0	0	0
14.20297	-0.06598302	-0.1688903	0.001544842	-0.001180704	0.04560742	-0.03485719
14.21954	-0.06598302	-0.1688903	0	0	-0.04606787	0.0352091
14.23668	-0.06598302	-0.1688903	0	0	0	0
14.25484	-0.06598302	-0.1688903	0	0	0	0
14.27162	-0.06598302	-0.1688903	0	0	0	0
14.28798	-0.06598302	-0.1688903	0	0	0	0
14.30454	-0.06519694	-0.16869	0.04745887	0.0120948	1.441481	0.3673585
14.32111	-0.06519694	-0.16869	0	0	-1.432476	-0.3650638
14.33768	-0.06519694	-0.16869	0	0	0	0
14.35424	-0.05814491	-0.1738041	0.4257102	-0.3087237	12.8487	-9.317838
14.37081	-0.05814491	-0.1738041	0	0	-12.84907	9.318106
14.38801	-0.05814491	-0.1738041	0	0	0	0
14.40394	-0.03472288	-0.1904909	1.470558	-1.047684	44.38279	-31.62008
14.42051	-0.03472288	-0.1904909	0	0	-45.25286	32.23996
14.43709	-0.03472288	-0.1904909	0	0	0	0
14.45364	-0.02744048	-0.1960206	0.4400479	-0.3341353	13.28067	-10.08422
14.47021	-0.02744048	-0.1960206	0	0	-13.28832	10.09003
14.48678	-0.02744048	-0.1960206	0	0	0	0
14.50334	-0.02746678	-0.1960814	-0.001587279	-0.003672397	-0.04790557	-0.1108363
14.51991	-0.02746678	-0.1960814	0	0	0.04790557	0.1108363
14.53653	-0.02746678	-0.1960814	0	0	0	0
14.55304	-0.02744048	-0.1961017	0.001593149	-0.001229562	0.04808686	-0.03711251
14.56961	-0.02744048	-0.1961017	0	0	-0.04816728	0.03717458
14.58618	-0.02744048	-0.1961017	0	0	0	0
14.60274	-0.02744048	-0.1960611	0	0.002449587	0	0.07393719
14.61931	-0.02744048	-0.1960611	0	0	0	-0.07393081
14.63588	-0.02744048	-0.1960611	0	0	0	0
14.65244	-0.02744048	-0.1960611	0	0	0	0
14.66901	-0.02744048	-0.1960611	0	0	0	0
14.68558	-0.02744048	-0.1960611	0	0	0	0
14.70214	-0.02754566	-0.19598	-0.006351086	0.004898221	-0.1917038	0.1478499
14.71871	-0.02754566	-0.19598	0	0	0.1916872	-0.1478371
14.73548	-0.02754566	-0.19598	0	0	0	0
14.75184	-0.02770344	-0.1958583	-0.009644252	0.007438134	-0.2910809	0.2244962
14.76841	-0.02770344	-0.1958583	0	0	0.2929104	-0.2259073
14.78498	-0.02770344	-0.1958583	0	0	0	0
14.80154	-0.02770344	-0.1958583	0	0	0	0
14.81811	-0.02770344	-0.1958583	0	0	0	0
14.83468	-0.02770344	-0.1958583	0	0	0	0
14.85124	-0.02772973	-0.1958786	-0.001587554	-0.001224344	-0.0479166	-0.03695396
14.86781	-0.02772973	-0.1958786	0	0	0.04791384	0.03695183
14.88438	-0.02772973	-0.1958786	0	0	0	0
14.90099	-0.02772973	-0.1958786	0	0	0	0
14.91756	-0.02772973	-0.1958786	0	0	0	0
14.93408	-0.02772973	-0.1958786	0	0	0	0
14.95064	-0.02772973	-0.1958786	0	0	0	0
14.96721	-0.02772973	-0.1958786	0	0	0	0
14.98378	-0.02772973	-0.1958786	0	0	0	0
15.00034	-0.02770344	-0.1958583	0.001587554	0.001224344	0.04791798	0.03695502
15.01691	-0.02770344	-0.1958583	0	0	-0.04790833	-0.03694757
15.03347	-0.02770344	-0.1958583	0	0	0	0
15.05004	-0.02770344	-0.1958583	0	0	0	0
15.06661	-0.02770344	-0.1958583	0	0	0	0
15.08318	-0.02770344	-0.1958583	0	0	0	0
15.09974	-0.02770344	-0.1958583	0	0	0	0
15.11631	-0.02770344	-0.1958583	0	0	0	0
15.13288	-0.02770344	-0.1958583	0	0	0	0
15.14944	-0.02783491	-0.1957569	-0.007936974	0.006120466	-0.2395452	0.1847214
15.16608	-0.02783491	-0.1957569	0	0	0.2390567	-0.1843446
15.18258	-0.02783491	-0.1957569	0	0	0	0
15.19914	-0.0279138	-0.1956555	-0.004762049	0.006120466	-0.1440174	0.1850996
15.21612	-0.0279138	-0.1956555	0	0	0.1419822	-0.1824838
15.23262	-0.0279138	-0.1956555	0	0	0	0
15.24884	-0.0279401	-0.1956353	-0.001621441	0.001250478	-0.0495484	0.03821242
15.26615	-0.0279401	-0.1956353	0	0	0.04836307	-0.03729828
15.28198	-0.0279401	-0.1956353	0	0	0	0
15.2987	-0.02796639	-0.195615	-0.001573041	0.001213237	-0.04832996	0.03727539
15.31511	-0.02796639	-0.195615	0	0	0.04747721	-0.03661769
15.33207	-0.02796639	-0.195615	0	0	0	0
15.34864	-0.02801898	-0.1955744	-0.003173056	0.002446379	-0.09464613	0.07297078
15.36518	-0.02801898	-0.1955744	0	0	0.09582368	-0.07387865
15.38138	-0.02801898	-0.1955744	0	0	0	0
15.39794	-0.02801898	-0.1955744	0	0	0	0
15.41451	-0.02801898	-0.1955744	0	0	0	0
15.43108	-0.02801898	-0.1955744	0	0	0	0
15.44765	-0.02801898	-0.1955744	0	0	0	0
15.46421	-0.02801898	-0.1955744	0	0	0	0
15.48084	-0.02801898	-0.1955744	0	0	0	0
15.49735	-0.02796639	-0.1955339	0.003186256	0.002457459	0.0961531	0.07415987
15.51391	-0.02796639	-0.1955339	0	0	-0.09635553	-0.074316
15.53048	-0.02796639	-0.1955339	0	0	0	0
15.54704	-0.02783491	-0.195473	0.007937319	0.003672131	0.2395763	0.1108379
15.56361	-0.02783491	-0.195473	0	0	-0.2395556	-0.1108283
15.58035	-0.02783491	-0.195473	0	0	0	0
15.5971	-0.02770344	-0.1953311	0.007848414	0.008471621	0.2343497	0.2529584
15.61331	-0.02770344	-0.1953311	0	0	-0.238106	-0.257013
15.62988	-0.02770344	-0.1953311	0	0	0	0
15.64644	-0.02517889	-0.1933046	0.152382	0.1223197	4.59903	3.691722
15.66301	-0.02517889	-0.1933046	0	0	-4.598632	-3.691403
15.68022	-0.02517889	-0.1933046	0	0	0	0
15.69893	-0.02520519	-0.1932439	-0.001405513	0.003247643	-0.03913403	0.09042486
15.7155	-0.02520519	-0.1932439	0	0	0.03983425	-0.09204282
15.73207	-0.02520519	-0.1932439	0	0	0	0
15.74863	-0.02523149	-0.1932236	-0.00158794	0.001223655	-0.04793241	0.03693637
15.76521	-0.02523149	-0.1932236	0	0	0.04792138	-0.03692787
15.78194	-0.02523149	-0.1932236	0	0	0	0
15.79833	-0.02523149	-0.1932236	0	0	0	0
15.81491	-0.02523149	-0.1932236	0	0	0	0
15.83182	-0.02523149	-0.1932236	0	0	0	0
15.84804	-0.02525778	-0.1932033	-0.001622032	0.001249007	-0.04895585	0.03769729
15.8646	-0.02525778	-0.1932033	0	0	0.04948428	-0.03810419
15.88159	-0.02525778	-0.1932033	0	0	0	0
15.89773	-0.02523149	-0.1932236	0.001629027	-0.001254394	0.04917546	-0.03786639
15.9143	-0.02523149	-0.1932236	0	0	-0.04979765	0.03834549
15.93087	-0.02523149	-0.1932236	0	0	0	0
15.94776	-0.02523149	-0.1932236	0	0	0	0
15.964	-0.02523149	-0.1932236	0	0	0	0
15.98108	-0.02523149	-0.1932236	0	0	0	0
15.99713	-0.02520519	-0.1932033	0.001638902	0.001261998	0.04946644	0.03809046
16.0137	-0.02520519	-0.1932033	0	0	-0.05024747	-0.03869187
16.03027	-0.02520519	-0.1932033	0	0	0	0
16.04733	-0.02517889	-0.1931831	0.001541774	0.001187206	0.0458447	0.03530162
16.0639	-0.02517889	-0.1931831	0	0	-0.0458499	-0.03530562
16.08061	-0.02517889	-0.1931831	0	0	0	0
16.09703	-0.02517889	-0.1931831	0	0	0	0
16.1136	-0.02517889	-0.1931831	0	0	0	0
16.13017	-0.02517889	-0.1931831	0	0	0	0
16.14673	-0.02520519	-0.1931628	-0.001587392	0.001222333	-0.04790758	0.0368901
16.1633	-0.02520519	-0.1931628	0	0	0.04790758	-0.0368901
16.18021	-0.02520519	-0.1931628	0	0	0	0
16.19643	-0.02520519	-0.1931628	0	0	0	0
16.213	-0.02520519	-0.1931628	0	0	0	0
16.22957	-0.02520519	-0.1931628	0	0	0	0
16.24613	-0.02520519	-0.1931628	0	0	0	0
16.26271	-0.02520519	-0.1931628	0	0	0	0
16.27927	-0.02520519	-0.1931628	0	0	0	0
16.29679	-0.02517889	-0.1931831	0.001500336	-0.001155298	0.04402328	-0.03389908
16.31336	-0.02517889	-0.1931831	0	0	-0.04400358	0.03388391
16.33026	-0.02517889	-0.1931831	0	0	0	0
16.3465	-0.02517889	-0.1931831	0	0	0	0
16.36328	-0.02517889	-0.1931831	0	0	0	0
16.37979	-0.02517889	-0.1931831	0	0	0	0
16.39631	-0.02517889	-0.1931831	0	0	0	0
16.41282	-0.02517889	-0.1931831	0	0	0	0
16.42933	-0.02517889	-0.1931831	0	0	0	0
16.4459	-0.02517889	-0.1931831	0	0	0	0
16.46247	-0.02517889	-0.1931831	0	0	0	0
16.47907	-0.02517889	-0.1931831	0	0	0	0
16.4956	-0.02517889	-0.1931831	0	0	0	0
16.51265	-0.02517889	-0.1931831	0	0	0	0
16.52874	-0.02517889	-0.1931831	0	0	0	0
16.54543	-0.02517889	-0.1931831	0	0	0	0
16.56187	-0.02517889	-0.1931831	0	0	0	0
16.57849	-0.02517889	-0.1931831	0	0	0	0
16.59587	-0.02517889	-0.1931831	0	0	0	0
16.61244	-0.02517889	-0.1931831	0	0	0	0
16.62948	-0.02517889	-0.1931831	0	0	0	0
16.64563	-0.02520519	-0.1931628	-0.001627873	0.001253505	-0.04903616	0.03775913
16.66214	-0.02520519	-0.1931628	0	0	0.04983792	-0.0383765
16.67891	-0.02520519	-0.1931628	0	0	0	0
16.69527	-0.02520519	-0.1931628	0	0	0	0
16.71184	-0.02520519	-0.1931628	0	0	0	0
16.72845	-0.02520519	-0.1931628	0	0	0	0
16.74497	-0.02520519	-0.1931628	0	0	0	0
16.76154	-0.02520519	-0.1931628	0	0	0	0
16.77811	-0.02520519	-0.1931628	0	0	0	0
16.79467	-0.02520519	-0.1931628	0	0	0	0
16.81124	-0.02520519	-0.1931628	0	0	0	0
16.82781	-0.02520519	-0.1931628	0	0	0	0
16.84438	-0.02520519	-0.1931628	0	0	0	0
16.86094	-0.02520519	-0.1931628	0	0	0	0
16.87763	-0.02520519	-0.1931628	0	0	0	0
16.89408	-0.02520519	-0.1931628	0	0	0	0
16.91064	-0.02520519	-0.1931628	0	0	0	0
16.92807	-0.02520519	-0.1931628	0	0	0	0
16.94378	-0.02520519	-0.1932033	0	-0.002579178	0	-0.07784423
16.96034	-0.02520519	-0.1932033	0	0	0	0.07992388
16.97703	-0.02520519	-0.1932033	0	0	0	0
16.99348	-0.02528408	-0.1933451	-0.004797525	-0.008621658	-0.1447979	-0.2602171
17.01004	-0.02528408	-0.1933451	0	0	0.145325	0.2611643
17.02695	-0.02528408	-0.1933451	0	0	0	0
17.04317	-0.02567857	-0.1936895	-0.02431773	-0.02122924	-0.7340372	-0.6408104
17.05974	-0.02567857	-0.1936895	0	0	0.7415945	0.6474079
17.07646	-0.02567857	-0.1936895	0	0	0	0
17.09288	-0.02596785	-0.1939124	-0.01761919	-0.01357386	-0.5317483	-0.4096598
17.10944	-0.02596785	-0.1939124	0	0	0.5341466	0.4115075
17.12601	-0.02596785	-0.1939124	0	0	0	0
17.14257	-0.0279138	-0.1953717	-0.1174851	-0.08810384	-3.546114	-2.659285
17.15914	-0.0279138	-0.1953717	0	0	3.54591	2.659132
17.17571	-0.0279138	-0.1953717	0	0	0	0
17.19241	-0.03025392	-0.1972175	-0.140137	-0.1105342	-4.212611	-3.32273
17.20884	-0.03025392	-0.1972175	0	0	4.229587	3.33612
17.22549	-0.03025392	-0.1972175	0	0	0	0
17.24211	-0.03028022	-0.1972784	-0.001582751	-0.003665389	-0.047584	-0.1101967
17.25854	-0.03028022	-0.1972784	0	0	0.04789158	0.110909
17.27511	-0.03028022	-0.1972784	0	0	0	0
17.29167	-0.03453889	-0.2006089	-0.2571134	-0.2010801	-7.76059	-6.069309
17.30839	-0.03453889	-0.2006089	0	0	7.725454	6.04183
17.32481	-0.03453889	-0.2006089	0	0	0	0
17.34138	-0.0753832	-0.2324939	-2.465935	-1.925022	-74.76205	-58.36269
17.35794	-0.0753832	-0.2324939	0	0	74.42635	58.10062
17.37451	-0.0753832	-0.2324939	0	0	0	0
17.39108	-0.1261942	-0.2731722	-3.067667	-2.455917	-92.59303	-74.12824
17.40764	-0.1261942	-0.2731722	0	0	92.5877	74.12398
17.42421	-0.1261942	-0.2731722	0	0	0	0
17.44077	-0.1548554	-0.2968579	-1.730392	-1.430001	-52.22936	-43.16247
17.45734	-0.1548554	-0.2968579	0	0	52.22936	43.16247
17.47392	-0.1548554	-0.2968579	0	0	0	0
17.49047	-0.1583473	-0.2998482	-0.2108682	-0.1805765	-6.364381	-5.450125
17.50704	-0.1583473	-0.2998482	0	0	6.365481	5.451066
17.52445	-0.1583473	-0.2998482	0	0	0	0
17.54018	-0.158373	-0.2998268	-0.001631671	0.001358778	-0.04924392	0.041008
17.55674	-0.158373	-0.2998268	0	0	0.05052657	-0.04207614
17.574	-0.158373	-0.2998268	0	0	0	0
17.59001	-0.1583987	-0.2998055	-0.001602707	0.001334659	-0.04817292	0.04011612
17.60653	-0.1583987	-0.2998055	0	0	0.04927463	-0.04103357
17.62302	-0.1583987	-0.2998055	0	0	0	0
17.63958	-0.15845	-0.2998055	-0.003099441	0	-0.09378426	0
17.65615	-0.15845	-0.2998055	0	0	0.09356826	0
17.67276	-0.15845	-0.2998055	0	0	0	0
17.69314	-0.1585013	-0.2998482	-0.002519571	-0.002097571	-0.06811287	-0.05670471
17.70971	-0.1585013	-0.2998482	0	0	0.06819727	0.05677497
17.72627	-0.1585013	-0.2998482	0	0	0	0
17.74284	-0.1585013	-0.2998482	0	0	0	0
17.75941	-0.1585013	-0.2998482	0	0	0	0
17.77597	-0.1585013	-0.2998482	0	0	0	0
17.79254	-0.1585013	-0.2998482	0	0	0	0
17.80911	-0.1585013	-0.2998482	0	0	0	0
17.82567	-0.158527	-0.2998268	-0.001548829	0.001289791	-0.04674374	0.03892597
17.84262	-0.158527	-0.2998268	0	0	0.04621961	-0.0384895
17.85881	-0.158527	-0.2998268	0	0	0	0
17.87537	-0.1585013	-0.2998482	0.001548829	-0.001289791	0.04728265	-0.03937475
17.89194	-0.1585013	-0.2998482	0	0	-0.04674912	0.03893045
17.90851	-0.1585013	-0.2998482	0	0	0	0
17.92507	-0.1585013	-0.2998482	0	0	0	0
17.94164	-0.1585013	-0.2998482	0	0	0	0
17.95834	-0.1585013	-0.2998482	0	0	0	0
17.975	-0.1585013	-0.2998482	0	0	0	0
17.99134	-0.1585013	-0.2998482	0	0	0	0
18.00791	-0.1585013	-0.2998482	0	0	0	0
18.02447	-0.1585013	-0.2998482	0	0	0	0
18.04104	-0.1585013	-0.2998482	0	0	0	0
18.05761	-0.1585013	-0.2998482	0	0	0	0
18.07418	-0.1585013	-0.2998482	0	0	0	0
18.09074	-0.1585013	-0.2998482	0	0	0	0
18.10731	-0.1585013	-0.2998482	0	0	0	0
18.12465	-0.1585013	-0.2998482	0	0	0	0
18.14044	-0.1585013	-0.2998482	0	0	0	0
18.1571	-0.1585013	-0.2998482	0	0	0	0
18.17358	-0.1585013	-0.2998482	0	0	0	0
18.19014	-0.1585013	-0.2998482	0	0	0	0
18.20677	-0.1585013	-0.2998482	0	0	0	0
18.22338	-0.1585013	-0.2998482	0	0	0	0
18.23985	-0.1585013	-0.2998482	0	0	0	0
18.25641	-0.1585013	-0.2998482	0	0	0	0
18.27298	-0.1585013	-0.2998482	0	0	0	0
18.28955	-0.1585013	-0.2998482	0	0	0	0
18.30611	-0.1585013	-0.2998482	0	0	0	0
18.32705	-0.1585013	-0.2998482	0	0	0	0
18.34362	-0.1585013	-0.2998482	0	0	0	0
18.36019	-0.1585013	-0.2998482	0	0	0	0
18.37675	-0.1585013	-0.2998482	0	0	0	0
18.39332	-0.1585013	-0.2998482	0	0	0	0
18.40989	-0.1585013	-0.2998482	0	0	0	0
18.42645	-0.1585013	-0.2998482	0	0	0	0
18.44302	-0.1585013	-0.2998482	0	0	0	0
18.45959	-0.15845	-0.2998055	0.003098557	0.002579582	0.09351462	0.07785194
18.47616	-0.15845	-0.2998055	0	0	-0.09351462	-0.07785194
18.49272	-0.15845	-0.2998055	0	0	0	0
18.50929	-0.1578341	-0.2993352	0.03718495	0.02838914	1.122373	0.8568845
18.52586	-0.1578341	-0.2993352	0	0	-1.122308	-0.8568351
18.54242	-0.1578341	-0.2993352	0	0	0	0
18.55899	-0.1558315	-0.2976264	0.1208743	0.1031473	3.647993	3.112992
18.57556	-0.1558315	-0.2976264	0	0	-3.647993	-3.112992
18.59212	-0.1558315	-0.2976264	0	0	0	0
18.60869	-0.1343696	-0.2799693	1.295441	1.065785	39.0965	32.16545
18.62526	-0.1343696	-0.2799693	0	0	-39.09875	-32.1673
18.64206	-0.1343696	-0.2799693	0	0	0	0
18.65839	-0.09914752	-0.2516123	2.157053	1.73662	65.10001	52.41129
18.67496	-0.09914752	-0.2516123	0	0	-65.57182	-52.79115
18.69153	-0.09914752	-0.2516123	0	0	0	0
18.70809	-0.06813123	-0.2270735	1.872578	1.481509	56.52103	44.71717
18.72466	-0.06813123	-0.2270735	0	0	-56.51777	-44.7146
18.74123	-0.06813123	-0.2270735	0	0	0	0
18.75779	-0.03495944	-0.2011781	2.002715	1.56341	60.44901	47.18925
18.77436	-0.03495944	-0.2011781	0	0	-60.44553	-47.18653
18.79093	-0.03495944	-0.2011781	0	0	0	0
18.80749	-0.004184186	-0.1774412	1.857598	1.432763	56.06241	43.24086
18.82406	-0.004184186	-0.1774412	0	0	-56.06241	-43.24086
18.84074	-0.004184186	-0.1774412	0	0	0	0
18.85719	0.01263091	-0.164467	1.022258	0.7887518	30.85535	23.80732
18.87376	0.01263091	-0.164467	0	0	-30.96052	-23.88846
18.89033	0.01263091	-0.164467	0	0	0	0
18.90689	0.01905033	-0.1595932	0.3874769	0.2941848	11.69408	8.878514
18.92346	0.01905033	-0.1595932	0	0	-11.69408	-8.878514
18.94074	0.01905033	-0.1595932	0	0	0	0
18.95659	0.02002364	-0.1585758	0.06140006	0.06418169	1.853271	1.93723
18.97316	0.02002364	-0.1585758	0	0	-1.893718	-1.97951
18.99918	0.02002364	-0.1585758	0	0	0	0
19.01574	0.04292099	-0.1411489	1.382087	1.051887	32.45886	24.70398
19.03251	0.04292099	-0.1411489	0	0	-41.46561	-31.55889
19.04888	0.04292099	-0.1411489	0	0	0	0
19.06544	0.05284549	-0.1335978	0.5992509	0.4559448	18.19435	13.84332
19.08202	0.05284549	-0.1335978	0	0	-18.08543	-13.76044
19.09859	0.05284549	-0.1335978	0	0	0	0
19.11514	0.06116047	-0.1273099	0.5021822	0.379759	15.15938	11.46379
19.13172	0.06116047	-0.1273099	0	0	-15.15763	-11.46247
19.14828	0.06116047	-0.1273099	0	0	0	0
19.16484	0.06215667	-0.1266013	0.06015882	0.04279058	1.816015	1.29172
19.18142	0.06215667	-0.1266013	0	0	-1.815701	-1.291497
19.19798	0.06215667	-0.1266013	0	0	0	0
19.21454	0.06226153	-0.12668	0.006330563	-0.004752814	0.1910898	-0.143465
19.23112	0.06226153	-0.12668	0	0	-0.1910568	0.1434402
19.29273	0.06226153	-0.12668	0	0	0	0
19.31084	0.06213046	-0.1267784	-0.007238124	-0.005434353	-0.09078833	-0.0681635
19.32761	0.06213046	-0.1267784	0	0	0.2075396	0.1558199
19.34398	0.06213046	-0.1267784	0	0	0	0
19.36054	0.0620256	-0.1268571	-0.006331517	-0.004753361	-0.1922587	-0.1443374
19.37711	0.0620256	-0.1268571	0	0	0.1910966	0.143465
19.3943	0.0620256	-0.1268571	0	0	0	0
19.41024	0.06147507	-0.1272705	-0.03454222	-0.02593664	-1.042606	-0.7828594
19.42681	0.06147507	-0.1272705	0	0	1.062611	0.79788
19.44343	0.06147507	-0.1272705	0	0	0	0
19.45994	0.05788264	-0.1299689	-0.2175913	-0.1634424	-6.567298	-4.932987
19.47651	0.05788264	-0.1299689	0	0	6.577901	4.940951
19.49324	0.05788264	-0.1299689	0	0	0	0
19.50964	0.05691216	-0.1307376	-0.05916402	-0.0468641	-1.785779	-1.414524
19.52621	0.05691216	-0.1307376	0	0	1.794353	1.421316
19.54329	0.05691216	-0.1307376	0	0	0	0
19.55934	0.05649246	-0.1310925	-0.02613958	-0.02210201	-0.7889848	-0.6671166
19.57601	0.05649246	-0.1310925	0	0	0.7988731	0.6754775
19.59278	0.05649246	-0.1310925	0	0	0	0
19.60905	0.03679917	-0.1458457	-1.211138	-0.9073222	-36.65985	-27.46367
19.62561	0.03679917	-0.1458457	0	0	36.8963	27.6408
19.64218	0.03679917	-0.1458457	0	0	0	0
19.65874	-0.007736688	-0.1795538	-2.688809	-2.035091	-81.15775	-61.42625
19.67573	-0.007736688	-0.1795538	0	0	80.14725	60.66144
19.69188	-0.007736688	-0.1795538	0	0	0	0
19.7144	-0.02988584	-0.1964465	-0.983363	-0.7499921	-25.42612	-19.39201
19.73152	-0.02988584	-0.1964465	0	0	24.80349	18.91715
19.74754	-0.02988584	-0.1964465	0	0	0	0
19.76411	-0.02988584	-0.1964465	0	0	0	0
19.78067	-0.02988584	-0.1964465	0	0	0	0
19.79724	-0.02991213	-0.1964668	-0.001587603	-0.001224555	-0.04792498	-0.03696566
19.81381	-0.02991213	-0.1964668	0	0	0.04791395	0.03695715
19.83056	-0.02991213	-0.1964668	0	0	0	0
19.84694	-0.02985954	-0.1964668	0.003210704	0	0.09692154	0
19.86351	-0.02985954	-0.1964668	0	0	-0.09743768	0
19.88008	-0.02985954	-0.1964668	0	0	0	0
19.89664	-0.02983325	-0.1964871	0.001587673	-0.001224696	0.04792711	-0.03696992
19.9132	-0.02983325	-0.1964871	0	0	-0.04792435	0.03696779
19.9304	-0.02983325	-0.1964871	0	0	0	0
19.94634	-0.02978067	-0.1964465	0.003300136	0.002545562	0.09960403	0.07682964
19.96291	-0.02978067	-0.1964465	0	0	-0.1015329	-0.07831745
19.97947	-0.02978067	-0.1964465	0	0	0	0
19.99604	-0.02972808	-0.1964059	0.003174109	0.002449164	0.0957948	0.07391591
20.01261	-0.02972808	-0.1964059	0	0	-0.09580032	-0.07392017
20.02917	-0.02972808	-0.1964059	0	0	0	0
20.04574	-0.02970179	-0.1963857	0.001587308	0.001224414	0.04791056	0.03695714
20.06231	-0.02970179	-0.1963857	0	0	-0.0479078	-0.03695502
20.07887	-0.02970179	-0.1963857	0	0	0	0
20.09575	-0.0296755	-0.1964059	0.001557997	-0.001201719	0.04658866	-0.03593492
20.11201	-0.0296755	-0.1964059	0	0	-0.04702044	0.03626796
20.12857	-0.0296755	-0.1964059	0	0	0	0
20.14514	-0.0296492	-0.1964262	0.00158742	-0.001224414	0.04791395	-0.03695714
20.16171	-0.0296492	-0.1964262	0	0	-0.04791119	0.03695502
20.17841	-0.0296492	-0.1964262	0	0	0	0
20.19484	-0.0296755	-0.1964059	-0.001600692	0.001234651	-0.04830897	0.03726183
20.21141	-0.0296755	-0.1964059	0	0	0.04851563	-0.03742124
20.22797	-0.0296755	-0.1964059	0	0	0	0
20.24454	-0.0296755	-0.1964059	0	0	0	0
20.26113	-0.0296755	-0.1964059	0	0	0	0
20.27771	-0.0296755	-0.1964059	0	0	0	0
20.29446	-0.0296755	-0.1964059	0	0	0	0
20.31081	-0.0296755	-0.1964059	0	0	0	0
20.32749	-0.0296755	-0.1964059	0	0	0	0
20.34394	-0.0296492	-0.1963857	0.001598279	0.00123279	0.04824171	0.03720995
20.36051	-0.0296492	-0.1963857	0	0	-0.04840333	-0.03733462
20.3823	-0.0296492	-0.1963857	0	0	0	0
20.39927	-0.0296492	-0.1963857	0	0	0	0
20.41546	-0.0296492	-0.1963857	0	0	0	0
20.432	-0.0296492	-0.1963857	0	0	0	0
20.44856	-0.02962291	-0.1963654	0.001587237	0.001224273	0.0479526	0.03698696
20.46557	-0.02962291	-0.1963654	0	0	-0.04728504	-0.03647206
20.4817	-0.02962291	-0.1963654	0	0	0	0
20.49827	-0.02959662	-0.1963451	0.001587055	0.001225032	0.04853439	0.03746322
20.51483	-0.02959662	-0.1963451	0	0	-0.0478974	-0.03697153
20.53142	-0.02959662	-0.1963451	0	0	0	0
20.54876	-0.02959662	-0.1963451	0	0	0	0
20.56532	-0.02959662	-0.1963451	0	0	0	0
20.58189	-0.02959662	-0.1963451	0	0	0	0
20.59846	-0.02957033	-0.1963248	0.001587125	0.001224273	0.04789953	0.03694864
20.61503	-0.02957033	-0.1963248	0	0	-0.04789953	-0.03694864
20.6316	-0.02957033	-0.1963248	0	0	0	0
20.64816	-0.02954403	-0.1963045	0.001587055	0.001224132	0.04789189	0.03694013
20.66473	-0.02954403	-0.1963045	0	0	-0.04789465	-0.03694226
20.68164	-0.02954403	-0.1963045	0	0	0	0
20.69786	-0.02949145	-0.1963045	0.003242041	0	0.09787314	0
20.71443	-0.02949145	-0.1963045	0	0	-0.09886941	0
20.731	-0.02949145	-0.1963045	0	0	0	0
20.74756	-0.02946515	-0.1962842	0.001587055	0.001224132	0.0478974	0.03694439
20.76413	-0.02946515	-0.1962842	0	0	-0.0478974	-0.03694439
20.78087	-0.02946515	-0.1962842	0	0	0	0
20.79729	-0.02946515	-0.1962842	0	0	0	0
20.81451	-0.02946515	-0.1962842	0	0	0	0
20.8304	-0.02946515	-0.1962842	0	0	0	0
20.85157	-0.02943886	-0.196264	0.001241682	0.0009577385	0.03350312	0.02584174
20.86814	-0.02943886	-0.196264	0	0	-0.03289868	-0.02537552
20.88471	-0.02943886	-0.196264	0	0	0	0
20.90128	-0.02943886	-0.196264	0	0	0	0
20.91784	-0.02943886	-0.196264	0	0	0	0
20.93441	-0.02943886	-0.196264	0	0	0	0
20.95098	-0.02943886	-0.196264	0	0	0	0
20.96754	-0.02943886	-0.196264	0	0	0	0
20.98411	-0.02943886	-0.196264	0	0	0	0
21.00068	-0.02943886	-0.196264	0	0	0	0
21.01724	-0.02943886	-0.196264	0	0	0	0
21.03453	-0.02941257	-0.1962437	0.001520533	0.001173685	0.04491253	0.03466754
21.05038	-0.02941257	-0.1962437	0	0	-0.04588715	-0.03541983
21.06694	-0.02941257	-0.1962437	0	0	0	0
21.08351	-0.02941257	-0.1962437	0	0	0	0
21.10011	-0.02941257	-0.1962437	0	0	0	0
21.11665	-0.02941257	-0.1962437	0	0	0	0
21.13322	-0.02941257	-0.1962031	0	0.002447983	0	0.07394411
21.14978	-0.02941257	-0.1962031	0	0	0	-0.07388451
21.16635	-0.02941257	-0.1962031	0	0	0	0
21.18291	-0.02941257	-0.1962031	0	0	0	0
21.19948	-0.02941257	-0.1962031	0	0	0	0
21.21605	-0.02941257	-0.1962031	0	0	0	0
21.23262	-0.02941257	-0.1962031	0	0	0	0
21.24961	-0.02941257	-0.1962031	0	0	0	0
21.26609	-0.02941257	-0.1962031	0	0	0	0
21.28232	-0.02938627	-0.1962234	0.001620068	-0.001249596	0.04953532	-0.03820774
21.29888	-0.02938627	-0.1962234	0	0	-0.04940566	0.03810773
21.31545	-0.02938627	-0.1962234	0	0	0	0
21.33202	-0.02941257	-0.1962031	-0.001587055	0.001224132	-0.0478974	0.03694439
21.34892	-0.02941257	-0.1962031	0	0	0.04741431	-0.03657176
21.3654	-0.02941257	-0.1962031	0	0	0	0
21.38174	-0.02938627	-0.1961828	0.0016091	0.001241136	0.0490284	0.03781674
21.39828	-0.02938627	-0.1961828	0	0	-0.04893738	-0.03774654
21.41556	-0.02938627	-0.1961828	0	0	0	0
21.43142	-0.02935998	-0.1962031	0.001658464	-0.001279212	0.05005256	-0.0386067
21.44818	-0.02935998	-0.1962031	0	0	-0.05083979	0.03921392
21.46472	-0.02935998	-0.1962031	0	0	0	0
21.48112	-0.02935998	-0.1962031	0	0	0	0
21.49768	-0.02935998	-0.1962031	0	0	0	0
21.51425	-0.02935998	-0.1962031	0	0	0	0
21.53081	-0.02935998	-0.1962031	0	0	0	0
21.54738	-0.02935998	-0.1962031	0	0	0	0
21.56395	-0.02935998	-0.1962031	0	0	0	0
21.58051	-0.02935998	-0.1962031	0	0	0	0
21.59708	-0.02935998	-0.1962031	0	0	0	0
21.61365	-0.02935998	-0.1962031	0	0	0	0
21.63021	-0.02935998	-0.1962031	0	0	0	0
21.64749	-0.02935998	-0.1962031	0	0	0	0
21.66335	-0.02935998	-0.1962031	0	0	0	0
21.68324	-0.02935998	-0.1962031	0	0	0	0
21.69983	-0.02935998	-0.1962031	0	0	0	0
21.71638	-0.02935998	-0.1962031	0	0	0	0
21.73295	-0.02933369	-0.1962234	0.001587055	-0.001224132	0.04791671	-0.03695928
21.74952	-0.02933369	-0.1962234	0	0	-0.0478974	0.03694439
21.76608	-0.02933369	-0.1962234	0	0	0	0
21.78265	-0.02935998	-0.1962031	-0.001587237	0.001224273	-0.04790568	0.03695076
21.79922	-0.02935998	-0.1962031	0	0	0.04790568	-0.03695076
21.81578	-0.02935998	-0.1962031	0	0	0	0
21.83235	-0.02935998	-0.1962031	0	0	0	0
21.84892	-0.02935998	-0.1962031	0	0	0	0
21.86548	-0.02935998	-0.1962031	0	0	0	0
21.88205	-0.02933369	-0.1962234	0.001587237	-0.001224273	0.04790843	-0.03695289
21.89862	-0.02933369	-0.1962234	0	0	-0.04790292	0.03694864
21.91518	-0.02933369	-0.1962234	0	0	0	0
21.93175	-0.02933369	-0.1962234	0	0	0	0
21.94832	-0.02933369	-0.1962234	0	0	0	0
21.96488	-0.02933369	-0.1962234	0	0	0	0
21.98236	-0.02933369	-0.1962234	0	0	0	0
21.99893	-0.02933369	-0.1962234	0	0	0	0
22.01563	-0.02933369	-0.1962234	0	0	0	0
22.03299	-0.02935998	-0.1962031	-0.001515019	0.001168569	-0.04447901	0.0343077
22.04982	-0.02935998	-0.1962031	0	0	0.0443177	-0.03418327
22.06684	-0.02935998	-0.1962031	0	0	0	0
22.08425	-0.02935998	-0.1962031	0	0	0	0
22.10081	-0.02935998	-0.1962031	0	0	0	0
22.11803	-0.02935998	-0.1962031	0	0	0	0
22.13395	-0.02935998	-0.1962031	0	0	0	0
22.15051	-0.02935998	-0.1962031	0	0	0	0
22.16708	-0.02935998	-0.1962031	0	0	0	0
22.18365	-0.02933369	-0.1962234	0.001587237	-0.001224273	0.04790568	-0.03695076
22.20021	-0.02933369	-0.1962234	0	0	-0.04790568	0.03695076
22.21693	-0.02933369	-0.1962234	0	0	0	0
22.23335	-0.02933369	-0.1962234	0	0	0	0
22.24992	-0.02933369	-0.1962234	0	0	0	0
22.26648	-0.02933369	-0.1962234	0	0	0	0
22.28305	-0.02933369	-0.1962234	0	0	0	0
22.29976	-0.02933369	-0.1962234	0	0	0	0
22.31618	-0.02933369	-0.1962234	0	0	0	0
22.33306	-0.02933369	-0.1962234	0	0	0	0
22.3676	-0.02933369	-0.1962234	0	0	0	0
22.38417	-0.02933369	-0.1962234	0	0	0	0
22.40074	-0.02935998	-0.1962031	-0.001587237	0.001224273	-0.04790016	0.03694651
22.41731	-0.02935998	-0.1962031	0	0	0.04790568	-0.03695076
22.43387	-0.02935998	-0.1962031	0	0	0	0
22.45044	-0.02935998	-0.1962031	0	0	0	0
22.46701	-0.02935998	-0.1962031	0	0	0	0
22.48357	-0.02935998	-0.1962031	0	0	0	0
22.50014	-0.02935998	-0.1962031	0	0	0	0
22.51681	-0.02935998	-0.1962031	0	0	0	0
22.53328	-0.02935998	-0.1962031	0	0	0	0
22.54984	-0.02935998	-0.1962031	0	0	0	0
22.56641	-0.02935998	-0.1962031	0	0	0	0
22.58298	-0.02935998	-0.1962031	0	0	0	0
22.59954	-0.02935998	-0.1962031	0	0	0	0
22.61713	-0.02935998	-0.1962031	0	0	0	0
22.6328	-0.02935998	-0.1962031	0	0	0	0
22.64962	-0.02935998	-0.1962031	0	0	0	0
22.66581	-0.02935998	-0.1962031	0	0	0	0
22.68237	-0.02935998	-0.1962031	0	0	0	0
22.69894	-0.02935998	-0.1962031	0	0	0	0
22.71613	-0.02935998	-0.1962031	0	0	0	0
22.73277	-0.02935998	-0.1962031	0	0	0	0
22.74864	-0.02935998	-0.1962031	0	0	0	0
22.76521	-0.02935998	-0.1962031	0	0	0	0
22.7818	-0.02935998	-0.1962031	0	0	0	0
22.79846	-0.02935998	-0.1962031	0	0	0	0
22.81491	-0.02935998	-0.1962031	0	0	0	0
22.83148	-0.02935998	-0.1962031	0	0	0	0
22.84804	-0.02935998	-0.1962031	0	0	0	0
22.86461	-0.02935998	-0.1962031	0	0	0	0
22.88129	-0.02935998	-0.1962031	0	0	0	0
22.89774	-0.02935998	-0.1962031	0	0	0	0
22.91443	-0.02935998	-0.1962031	0	0	0	0
22.93088	-0.02935998	-0.1962031	0	0	0	0
22.94744	-0.02935998	-0.1962031	0	0	0	0
22.96401	-0.02935998	-0.1962031	0	0	0	0
22.98058	-0.02935998	-0.1962031	0	0	0	0
22.99714	-0.02935998	-0.1962031	0	0	0	0
23.01371	-0.02935998	-0.1962031	0	0	0	0
23.03028	-0.02935998	-0.1962031	0	0	0	0
23.04684	-0.02935998	-0.1962031	0	0	0	0
23.06379	-0.02935998	-0.1962031	0	0	0	0
23.0803	-0.02935998	-0.1962031	0	0	0	0
23.09716	-0.02935998	-0.1962031	0	0	0	0
23.11325	-0.02935998	-0.1962031	0	0	0	0
23.12968	-0.02935998	-0.1962031	0	0	0	0
23.14624	-0.02935998	-0.1962031	0	0	0	0
23.16286	-0.02935998	-0.1962031	0	0	0	0
23.17991	-0.02935998	-0.1962031	0	0	0	0
23.19619	-0.02935998	-0.1962031	0	0	0	0
23.21251	-0.02935998	-0.1962031	0	0	0	0
23.22933	-0.02935998	-0.1962031	0	0	0	0
23.24564	-0.02935998	-0.1962031	0	0	0	0
23.26221	-0.02935998	-0.1962031	0	0	0	0
23.27878	-0.02935998	-0.1962031	0	0	0	0
23.29535	-0.02935998	-0.1962031	0	0	0	0
23.31191	-0.02935998	-0.1962031	0	0	0	0
23.32913	-0.02935998	-0.1962031	0	0	0	0
23.34504	-0.02935998	-0.1962031	0	0	0	0
23.36161	-0.02935998	-0.1962031	0	0	0	0
23.37818	-0.02935998	-0.1962031	0	0	0	0
23.39532	-0.02935998	-0.1962031	0	0	0	0
23.41131	-0.02935998	-0.1962031	0	0	0	0
23.42796	-0.02935998	-0.1962031	0	0	0	0
23.44473	-0.02935998	-0.1962031	0	0	0	0
23.46102	-0.02935998	-0.1962031	0	0	0	0
23.47758	-0.02935998	-0.1962031	0	0	0	0
23.49415	-0.02935998	-0.1962031	0	0	0	0
23.51071	-0.02935998	-0.1962031	0	0	0	0
23.52728	-0.02935998	-0.1962031	0	0	0	0
23.54387	-0.02935998	-0.1962031	0	0	0	0
23.56041	-0.02935998	-0.1962031	0	0	0	0
23.57701	-0.02935998	-0.1962031	0	0	0	0
23.59354	-0.02935998	-0.1962031	0	0	0	0
23.61011	-0.02935998	-0.1962031	0	0	0	0
23.62705	-0.02935998	-0.1962031	0	0	0	0
23.64327	-0.02935998	-0.1962031	0	0	0	0
23.65981	-0.02935998	-0.1962031	0	0	0	0
23.67653	-0.02935998	-0.1962031	0	0	0	0
23.6932	-0.02935998	-0.1962031	0	0	0	0
23.70996	-0.02935998	-0.1962031	0	0	0	0
23.72608	-0.02935998	-0.1962031	0	0	0	0
23.74264	-0.02935998	-0.1962031	0	0	0	0
23.75921	-0.02935998	-0.1962031	0	0	0	0
23.77639	-0.02935998	-0.1962031	0	0	0	0
23.79235	-0.02935998	-0.1962031	0	0	0	0
23.80891	-0.02935998	-0.1962031	0	0	0	0
23.82573	-0.02935998	-0.1962031	0	0	0	0
23.84204	-0.02935998	-0.1962031	0	0	0	0
23.85861	-0.02935998	-0.1962031	0	0	0	0
23.87518	-0.02935998	-0.1962031	0	0	0	0
23.89175	-0.02933369	-0.1962234	0.001587055	-0.001224132	0.0478974	-0.03694439
23.90832	-0.02933369	-0.1962234	0	0	-0.0478974	0.03694439
23.92524	-0.02933369	-0.1962234	0	0	0	0
23.94145	-0.02901817	-0.1964668	0.01947079	-0.01502086	0.5876973	-0.4533825
23.95808	-0.02901817	-0.1964668	0	0	-0.5929199	0.4574115
23.97507	-0.02901817	-0.1964668	0	0	0	0
23.99115	-0.02549447	-0.1992273	0.2192014	-0.1717276	6.62925	-5.193512
24.00772	-0.02549447	-0.1992273	0	0	-6.714851	5.260574
24.02428	-0.02549447	-0.1992273	0	0	0	0
24.04085	0.01968167	-0.2343934	2.726837	-2.122627	82.30085	-64.0647
24.05742	0.01968167	-0.2343934	0	0	-82.29612	64.06102
24.07398	0.01968167	-0.2343934	0	0	0	0
24.09055	0.07574952	-0.2790602	3.384262	-2.696091	102.1431	-81.37289
24.10711	0.07574952	-0.2790602	0	0	-102.1372	81.3682
24.12368	0.07574952	-0.2790602	0	0	0	0
24.14033	0.1042262	-0.3023082	1.710193	-1.396184	51.4863	-42.03288
24.15681	0.1042262	-0.3023082	0	0	-51.61374	42.13692
24.17358	0.1042262	-0.3023082	0	0	0	0
24.18995	0.117353	-0.313151	0.8023127	-0.6627109	24.21663	-20.00296
24.20652	0.117353	-0.313151	0	0	-24.3625	20.12344
24.22378	0.117353	-0.313151	0	0	0	0
24.24329	0.117353	-0.313151	0	0	0	0
24.25986	0.117353	-0.313151	0	0	0	0
24.27642	0.117353	-0.313151	0	0	0	0
24.29299	0.1174049	-0.3132371	0.003133185	-0.005198739	0.09455971	-0.1568983
24.30956	0.1174049	-0.3132371	0	0	-0.09455971	0.1568983
24.32613	0.1174049	-0.3132371	0	0	0	0
24.34875	0.1212704	-0.3164491	0.1708931	-0.1420019	4.36081	-3.62357
24.3655	0.1212704	-0.3164491	0	0	-4.340319	3.606543
24.38188	0.1297149	-0.3235405	0.5155268	-0.4329242	15.55863	-13.06568
24.39845	0.1297149	-0.3235405	0	0	-15.6469	13.1398
24.41501	0.1297149	-0.3235405	0	0	0	0
24.43158	0.1456971	-0.3372649	0.9647965	-0.828501	29.11929	-25.00565
24.44829	0.1456971	-0.3372649	0	0	-28.99577	24.89958
24.46471	0.1456971	-0.3372649	0	0	0	0
24.48128	0.1609637	-0.3509026	0.9214963	-0.8231709	27.92979	-24.94963
24.49785	0.1609637	-0.3509026	0	0	-27.81242	24.84478
24.5145	0.1609637	-0.3509026	0	0	0	0
24.53098	0.1660106	-0.3555542	0.3062509	-0.2822663	9.243202	-8.519305
24.54754	0.1660106	-0.3555542	0	0	-9.267744	8.541925
24.56411	0.1660106	-0.3555542	0	0	0	0
24.58068	0.1659594	-0.3555542	-0.003090462	0	-0.09327032	0
24.59725	0.1659594	-0.3555542	0	0	0.09327032	0
24.61381	0.1659594	-0.3555542	0	0	0	0
24.63038	0.1651401	-0.356305	-0.04944919	-0.04531718	-1.492379	-1.367675
24.64695	0.1651401	-0.356305	0	0	1.492379	1.367675
24.66352	0.1651401	-0.356305	0	0	0	0
24.68008	0.1370047	-0.380693	-1.698452	-1.472233	-51.26233	-44.43464
24.70693	0.1370047	-0.380693	0	0	39.12469	33.91363
24.7235	0.1370047	-0.380693	0	0	0	0
24.74006	0.09429844	-0.4179719	-2.578053	-2.250417	-77.80133	-67.91383
24.75663	0.09429844	-0.4179719	0	0	77.81029	67.92165
24.7732	0.09429844	-0.4179719	0	0	0	0
24.78976	0.08145098	-0.4292686	-0.7756533	-0.6820266	-23.41196	-20.58597
24.80633	0.08145098	-0.4292686	0	0	23.41061	20.58479
24.8229	0.08145098	-0.4292686	0	0	0	0
24.83946	0.08132027	-0.429014	-0.007891219	0.0153677	-0.2381849	0.4638516
24.85603	0.08132027	-0.429014	0	0	0.2381712	-0.4638249
24.8726	0.08132027	-0.429014	0	0	0	0
24.88916	0.08129413	-0.4289909	-0.001578424	0.001398045	-0.04764241	0.04219795
24.90573	0.08129413	-0.4289909	0	0	0.04763966	-0.04219552
24.9223	0.08129413	-0.4289909	0	0	0	0
24.93887	0.08129413	-0.4289909	0	0	0	0
24.95545	0.08129413	-0.4289909	0	0	0	0
24.972	0.08129413	-0.4289909	0	0	0	0
24.99306	0.08132027	-0.429014	0.001241466	-0.001099595	0.03301644	-0.02924339
25.00962	0.08132027	-0.429014	0	0	-0.032993	0.02922264
25.03317	0.08132027	-0.429014	0	0	0	0
25.04974	0.08132027	-0.429014	0	0	0	0
25.06663	0.08132027	-0.429014	0	0	0	0
25.08288	0.08132027	-0.429014	0	0	0	0
25.09985	0.08132027	-0.429014	0	0	0	0
25.11601	0.08129413	-0.4289909	-0.001617731	0.00143286	-0.04882883	0.04324879
25.13258	0.08129413	-0.4289909	0	0	0.04942638	-0.04377805
25.14915	0.08129413	-0.4289909	0	0	0	0
25.16571	0.08124184	-0.4289446	-0.00315612	0.002791849	-0.0952519	0.08425817
25.18228	0.08124184	-0.4289446	0	0	0.09525739	-0.08426302
25.19884	0.08124184	-0.4289446	0	0	0	0
25.21541	0.08126798	-0.4289677	0.00157806	-0.001395924	0.04762595	-0.04212908
25.23198	0.08126798	-0.4289677	0	0	-0.04762869	0.04213151
25.24883	0.08126798	-0.4289677	0	0	0	0
25.26511	0.08132027	-0.4289215	0.003212335	0.002843406	0.09695403	0.0858191
25.28168	0.08132027	-0.4289215	0	0	-0.09779853	-0.0865666
25.29825	0.08132027	-0.4289215	0	0	0	0
25.31481	0.08137255	-0.4288289	0.003155671	0.005585497	0.09523834	0.1685706
25.33138	0.08137255	-0.4288289	0	0	-0.09524382	-0.1685803
25.34804	0.08137255	-0.4288289	0	0	0	0
25.36451	0.08137255	-0.4288289	0	0	0	0
25.38108	0.08137255	-0.4288289	0	0	0	0
25.39765	0.08137255	-0.4288289	0	0	0	0
25.41431	0.08137255	-0.4288289	0	0	0	0
25.43078	0.08137255	-0.4288289	0	0	0	0
25.44735	0.08137255	-0.4288289	0	0	0	0
25.46391	0.08137255	-0.4288289	0	0	0	0
25.48048	0.08137255	-0.4288289	0	0	0	0
25.49705	0.08137255	-0.4288289	0	0	0	0
25.51361	0.08137255	-0.4288289	0	0	0	0
25.53018	0.08137255	-0.4288289	0	0	0	0
25.54679	0.08137255	-0.4288289	0	0	0	0
25.56332	0.079307	-0.4264479	-0.1250081	0.1441006	-3.772753	4.348966
25.57989	0.079307	-0.4264479	0	0	3.777101	-4.353979
25.59645	0.079307	-0.4264479	0	0	0	0
25.61302	0.05379017	-0.4035709	-1.540554	1.381175	-46.50471	41.69355
25.62959	0.05379017	-0.4035709	0	0	46.494	-41.68395
25.64676	0.05379017	-0.4035709	0	0	0	0
25.66288	0.004736807	-0.3615035	-3.044281	2.610731	-91.44495	78.42184
25.67928	0.004736807	-0.3615035	0	0	93.61723	-80.28475
25.69597	0.004736807	-0.3615035	0	0	0	0
25.71242	-0.02581006	-0.335977	-1.857714	1.552399	-56.06916	46.8542
25.72899	-0.02581006	-0.335977	0	0	56.26999	-47.02203
25.74556	-0.02581006	-0.335977	0	0	0	0
25.76212	-0.035012	-0.3282697	-0.5555584	0.465317	-16.76775	14.0441
25.77869	-0.035012	-0.3282697	0	0	16.76775	-14.0441
25.79594	-0.035012	-0.3282697	0	0	0	0
25.81182	-0.06771211	-0.2956418	-2.059867	2.055319	-62.18124	62.04395
25.82838	-0.06771211	-0.2956418	0	0	63.48993	-63.34975
25.84562	-0.06771211	-0.2956418	0	0	0	0
25.86643	-0.1081553	-0.2386118	-1.943703	2.740873	-51.08838	72.04124
25.883	-0.1081553	-0.2386118	0	0	52.00347	-73.33163
25.89957	-0.1116391	-0.2294418	-0.2102881	0.5534984	-6.346142	16.70366
25.91613	-0.1116391	-0.2294418	0	0	6.346873	-16.70558
25.93273	-0.1116391	-0.2294418	0	0	0	0
25.94958	-0.1098715	-0.229071	0.1048821	0.02200603	3.135745	0.6579322
25.96583	-0.1098715	-0.229071	0	0	-3.167901	-0.6646791
25.9824	-0.1098715	-0.229071	0	0	0	0
25.99941	-0.1083113	-0.2302663	0.09169463	-0.07024769	2.730724	-2.092021
26.01553	-0.1083113	-0.2302663	0	0	-2.767349	2.12008
26.0321	-0.1083113	-0.2302663	0	0	0	0
26.04866	-0.1081553	-0.2301426	0.009421512	0.007467037	0.2843909	0.2253945
26.06523	-0.1081553	-0.2301426	0	0	-0.2843581	-0.2253686
26.08205	-0.1081553	-0.2301426	0	0	0	0
26.09908	-0.1077391	-0.2297304	0.02443353	0.02420213	0.7218238	0.7149876
26.11493	-0.1077391	-0.2297304	0	0	-0.7430514	-0.7360142
26.1315	-0.1077391	-0.2297304	0	0	0	0
26.14806	-0.1065164	-0.2285971	0.07381081	0.06840818	2.227743	2.064682
26.16463	-0.1065164	-0.2285971	0	0	-2.227743	-2.064682
26.1812	-0.1065164	-0.2285971	0	0	0	0
26.19776	-0.08693819	-0.2131042	1.182014	0.9353706	35.67736	28.23279
26.21433	-0.08693819	-0.2131042	0	0	-35.67531	-28.23116
26.23089	-0.08693819	-0.2131042	0	0	0	0
26.24746	-0.062812	-0.194419	1.45626	1.127844	43.95254	34.04036
26.26403	-0.062812	-0.194419	0	0	-43.95001	-34.0384
26.2806	-0.062812	-0.194419	0	0	0	0
26.29716	-0.05134956	-0.1857018	0.6919541	0.5262315	20.88442	15.88261
26.31373	-0.05134956	-0.1857018	0	0	-20.88321	-15.8817
26.3303	-0.05134956	-0.1857018	0	0	0	0
26.34686	-0.05011589	-0.1853586	0.07446407	0.02071131	2.247459	0.6251045
26.36343	-0.05011589	-0.1853586	0	0	-2.247201	-0.6250326
26.38002	-0.05011589	-0.1853586	0	0	0	0
26.39656	-0.04993214	-0.1854596	0.01110651	-0.006099406	0.3352145	-0.184091
26.41313	-0.04993214	-0.1854596	0	0	-0.3354076	0.1841971
26.4297	-0.04993214	-0.1854596	0	0	0	0
26.44627	-0.0498009	-0.1853586	0.007924968	0.006093084	0.2391898	0.1839002
26.46284	-0.0498009	-0.1853586	0	0	-0.239176	-0.1838897
26.4794	-0.0498009	-0.1853586	0	0	0	0
26.49626	-0.04932837	-0.1849954	0.02802786	0.02154602	0.8385455	0.6446201
26.51262	-0.04932837	-0.1849954	0	0	-0.8438909	-0.6487293
26.52925	-0.04932837	-0.1849954	0	0	0	0
26.54567	-0.03109524	-0.1717571	1.110785	0.806494	33.61061	24.40325
26.56224	-0.03109524	-0.1717571	0	0	-33.67475	-24.44982
26.57908	-0.03109524	-0.1717571	0	0	0	0
26.59537	-0.006420964	-0.1649469	1.514804	0.4180886	45.71951	12.61866
26.61194	-0.006420964	-0.1649469	0	0	-46.10167	-12.72414
26.62851	-0.006420964	-0.1649469	0	0	0	0
26.64617	0.01034174	-0.1776825	0.9490802	-0.7210693	27.72405	-21.06351
26.66274	0.01034174	-0.1776825	0	0	-27.72714	21.06586
26.67931	0.01034174	-0.1776825	0	0	0	0
26.69587	0.01747191	-0.1831397	0.4305761	-0.3295495	12.99556	-9.946395
26.71244	0.01747191	-0.1831397	0	0	-12.99706	9.94754
26.72901	0.01747191	-0.1831397	0	0	0	0
26.74557	0.01749821	-0.1831599	0.001588137	-0.001217077	0.04793559	-0.03673568
26.76214	0.01749821	-0.1831599	0	0	-0.04793283	0.03673357
26.77871	0.01749821	-0.1831599	0	0	0	0
26.79552	0.01752452	-0.1832204	0.001565071	-0.0035982	0.04689113	-0.1078058
26.81184	0.01752452	-0.1832204	0	0	-0.04723393	0.1085939
26.82841	0.01752452	-0.1832204	0	0	0	0
26.84497	0.01749821	-0.1832002	-0.001587954	0.001216937	-0.04792455	0.03672722
26.86155	0.01749821	-0.1832002	0	0	0.04791627	-0.03672088
26.87818	0.01749821	-0.1832002	0	0	0	0
26.89468	0.01749821	-0.1832002	0	0	0	0
26.91125	0.01749821	-0.1832002	0	0	0	0
26.92783	0.01749821	-0.1832002	0	0	0	0
26.94482	0.01747191	-0.18318	-0.001547859	0.001186209	-0.04610407	0.03533209
26.9614	0.01747191	-0.18318	0	0	0.0461093	-0.0353361
26.97796	0.01747191	-0.18318	0	0	0	0
27.00889	0.01747191	-0.18318	0	0	0	0
27.02546	0.01747191	-0.18318	0	0	0	0
27.04202	0.0174456	-0.1831599	-0.001588503	0.001217357	-0.04794386	0.03674203
27.05859	0.0174456	-0.1831599	0	0	0.04794386	-0.03674203
27.07516	0.0174456	-0.1831599	0	0	0	0
27.09189	0.0174456	-0.1831599	0	0	0	0
27.10829	0.0174456	-0.1831599	0	0	0	0
27.12486	0.0174456	-0.1831599	0	0	0	0
27.14143	0.01741929	-0.18318	-0.001587954	-0.001216937	-0.04792455	-0.03672722
27.158	0.01741929	-0.18318	0	0	0.04792455	0.03672722
27.1747	0.01741929	-0.18318	0	0	0	0
27.19113	0.01741929	-0.18318	0	0	0	0
27.2077	0.01741929	-0.18318	0	0	0	0
27.22466	0.01741929	-0.18318	0	0	0	0
27.24083	0.01739298	-0.1832002	-0.001627182	-0.001247087	-0.04911409	-0.03764151
27.25739	0.01739298	-0.1832002	0	0	0.04970645	0.03809549
27.27396	0.01739298	-0.1832002	0	0	0	0
27.29053	0.01739298	-0.1832002	0	0	0	0
27.30709	0.01739298	-0.1832002	0	0	0	0
27.32366	0.01739298	-0.1832002	0	0	0	0
27.3404	0.01734037	-0.1832002	-0.003143338	0	-0.09437719	0
27.3568	0.01734037	-0.1832002	0	0	0.09486613	0
27.3737	0.01734037	-0.1832002	0	0	0	0
27.38993	0.01734037	-0.1832002	0	0	0	0
27.4065	0.01734037	-0.1832002	0	0	0	0
27.42306	0.01734037	-0.1832002	0	0	0	0
27.43963	0.01728775	-0.1831599	-0.00317664	0.002434434	-0.09588221	0.07347982
27.4562	0.01728775	-0.1831599	0	0	0.09587117	-0.07347136
27.47276	0.01728775	-0.1831599	0	0	0	0
27.48933	0.01726144	-0.18318	-0.001587954	-0.001216937	-0.04792455	-0.03672722
27.5059	0.01726144	-0.18318	0	0	0.04792455	0.03672722
27.52246	0.01726144	-0.18318	0	0	0	0
27.53903	0.01720883	-0.1832204	-0.00317664	-0.002434434	-0.09588773	-0.07348405
27.5556	0.01720883	-0.1832204	0	0	0.09587669	0.07347559
27.57243	0.01720883	-0.1832204	0	0	0	0
27.58897	0.01720883	-0.1832204	0	0	0	0
27.6053	0.01720883	-0.1832204	0	0	0	0
27.62186	0.01720883	-0.1832204	0	0	0	0
27.6415	0.01715621	-0.1832204	-0.002679027	0	-0.07399154	0
27.65808	0.01715621	-0.1832204	0	0	0.07398375	0
27.67464	0.01715621	-0.1832204	0	0	0	0
27.69121	0.0171299	-0.1832002	-0.001587954	0.001216937	-0.04792455	0.03672722
27.70791	0.0171299	-0.1832002	0	0	0.04773495	-0.03658192
27.72434	0.0171299	-0.1832002	0	0	0	0
27.74091	0.0171299	-0.1832002	0	0	0	0
27.75748	0.0171299	-0.1832002	0	0	0	0
27.77443	0.0171299	-0.1832002	0	0	0	0
27.79086	0.0171299	-0.1832002	0	0	0	0
27.80718	0.0171299	-0.1832002	0	0	0	0
27.82374	0.0171299	-0.1832002	0	0	0	0
27.84055	0.01699836	-0.183301	-0.007827241	-0.005999248	-0.234539	-0.1797642
27.85687	0.01699836	-0.183301	0	0	0.2362538	0.1810785
27.87344	0.01699836	-0.183301	0	0	0	0
27.89001	0.01676159	-0.1834825	-0.0142917	-0.01095423	-0.4313243	-0.3305993
27.90665	0.01676159	-0.1834825	0	0	0.4303335	0.3298398
27.92323	0.01676159	-0.1834825	0	0	0	0
27.9397	0.01663005	-0.1835833	-0.007986777	-0.006121526	-0.2416395	-0.1852064
27.95627	0.01663005	-0.1835833	0	0	0.2417372	0.1852813
27.97334	0.01663005	-0.1835833	0	0	0	0
27.9894	0.01660374	-0.1835632	-0.001637148	0.001254636	-0.0494149	0.03786936
28.00597	0.01660374	-0.1835632	0	0	0.05015994	-0.03844032
28.02262	0.01660374	-0.1835632	0	0	0	0
28.03911	0.01660374	-0.1835632	0	0	0	0
28.05568	0.01660374	-0.1835632	0	0	0	0
28.07224	0.01660374	-0.1835632	0	0	0	0
28.08881	0.01660374	-0.1835632	0	0	0	0
28.10538	0.01660374	-0.1835632	0	0	0	0
28.12194	0.01660374	-0.1835632	0	0	0	0
28.13851	0.01660374	-0.1835632	0	0	0	0
28.15525	0.01660374	-0.1835632	0	0	0	0
28.17164	0.01660374	-0.1835632	0	0	0	0
28.18821	0.01657743	-0.183543	-0.001588066	0.001216937	-0.04817754	0.03691849
28.20478	0.01657743	-0.183543	0	0	0.04792794	-0.03672722
28.22174	0.01657743	-0.183543	0	0	0	0
28.23791	0.01660374	-0.1835632	0.001627412	-0.001247087	0.04911822	-0.03763934
28.25448	0.01660374	-0.1835632	0	0	-0.04971349	0.03809549
28.27105	0.01660374	-0.1835632	0	0	0	0
28.28761	0.01652481	-0.1836237	-0.004763974	-0.00365171	-0.143777	-0.1102088
28.30418	0.01652481	-0.1836237	0	0	0.1437936	0.1102215
28.32075	0.01652481	-0.1836237	0	0	0	0
28.33765	0.01481471	-0.1849752	-0.1011494	-0.07994239	-3.021561	-2.38806
28.35388	0.01481471	-0.1849752	0	0	3.052871	2.412805
28.37044	0.01481471	-0.1849752	0	0	0	0
28.38701	0.01465685	-0.1850963	-0.009528455	-0.007307916	-0.2875859	-0.220566
28.40361	0.01465685	-0.1850963	0	0	0.2872882	0.2203377
28.42015	0.01465685	-0.1850963	0	0	0	0
28.43682	0.01468316	-0.1851165	0.001578255	-0.001210312	0.04753058	-0.03644965
28.45328	0.01468316	-0.1851165	0	0	-0.04763182	0.03652728
28.46985	0.01468316	-0.1851165	0	0	0	0
28.48641	0.01468316	-0.1851165	0	0	0	0
28.50298	0.01468316	-0.1851165	0	0	0	0
28.51971	0.01468316	-0.1851165	0	0	0	0
28.5363	0.01468316	-0.1851165	0	0	0	0
28.55268	0.01468316	-0.1851165	0	0	0	0
28.56925	0.01468316	-0.1851165	0	0	0	0
28.58581	0.01465685	-0.1851366	-0.001588432	-0.001218117	-0.0479445	-0.03676707
28.60238	0.01465685	-0.1851366	0	0	0.04794174	0.03676495
28.61895	0.01465685	-0.1851366	0	0	0	0
28.63573	0.01465685	-0.1851366	0	0	0	0
28.65208	0.01465685	-0.1851366	0	0	0	0
28.66865	0.01465685	-0.1851366	0	0	0	0
28.68522	0.01465685	-0.1851366	0	0	0	0
28.70178	0.01465685	-0.1851366	0	0	0	0
28.71878	0.01465685	-0.1851366	0	0	0	0
28.73491	0.01465685	-0.1851366	0	0	0	0
28.75236	0.01465685	-0.1851366	0	0	0	0
28.76805	0.01465685	-0.1851366	0	0	0	0
28.78461	0.01465685	-0.1851366	0	0	0	0
28.80118	0.01465685	-0.1851366	0	0	0	0
28.81856	0.01465685	-0.1851366	0	0	0	0
28.83433	0.01465685	-0.1851366	0	0	0	0
28.85088	0.01465685	-0.1851366	0	0	0	0
28.86762	0.01465685	-0.1851366	0	0	0	0
28.88402	0.01463053	-0.1851568	-0.001604564	-0.001231352	-0.04842583	-0.03716229
28.90059	0.01463053	-0.1851568	0	0	0.0486752	0.03735366
28.91715	0.01463053	-0.1851568	0	0	0	0
28.93372	0.01463053	-0.1851568	0	0	0	0
28.95028	0.01463053	-0.1851568	0	0	0	0
28.96733	0.01463053	-0.1851568	0	0	0	0
28.98391	0.01463053	-0.1851568	0	0	0	0
29.00047	0.01463053	-0.1851568	0	0	0	0
29.01772	0.01463053	-0.1851568	0	0	0	0
29.03372	0.01463053	-0.1851568	0	0	0	0
29.05017	0.01463053	-0.1851568	0	0	0	0
29.06674	0.01463053	-0.1851568	0	0	0	0
29.0833	0.01465685	-0.185177	0.001588488	-0.001218117	0.04794896	-0.03676918
29.09987	0.01465685	-0.185177	0	0	-0.04794068	0.03676283
29.11644	0.01465685	-0.185177	0	0	0	0
29.13301	0.01463053	-0.1851568	-0.001588306	0.001217976	-0.04793792	0.03676072
29.14957	0.01463053	-0.1851568	0	0	0.04793792	-0.03676072
29.1662	0.01463053	-0.1851568	0	0	0	0
29.18271	0.01465685	-0.185177	0.001594364	-0.001222622	0.04812076	-0.03690093
29.19927	0.01465685	-0.185177	0	0	-0.04821235	0.03697116
29.21584	0.01465685	-0.185177	0	0	0	0
29.23241	0.01463053	-0.1851568	-0.001587757	0.001217556	-0.04791309	0.03674168
29.24897	0.01463053	-0.1851568	0	0	0.04792412	-0.03675014
29.26559	0.01463053	-0.1851568	0	0	0	0
29.28853	0.01463053	-0.1851568	0	0	0	0
29.3051	0.01463053	-0.1851568	0	0	0	0
29.32166	0.01463053	-0.1851568	0	0	0	0
29.33823	0.01463053	-0.1851568	0	0	0	0
29.3548	0.01463053	-0.1851568	0	0	0	0
29.37136	0.01463053	-0.1851568	0	0	0	0
29.38794	0.01463053	-0.1851568	0	0	0	0
29.4045	0.01463053	-0.1851568	0	0	0	0
29.42106	0.01463053	-0.1851568	0	0	0	0
29.43763	0.01463053	-0.1851568	0	0	0	0
29.4542	0.01463053	-0.1851568	0	0	0	0
29.47076	0.01463053	-0.1851568	0	0	0	0
29.48733	0.01463053	-0.1851568	0	0	0	0
29.5039	0.01463053	-0.1851568	0	0	0	0
29.52046	0.01463053	-0.1851568	0	0	0	0
29.53703	0.01463053	-0.1851568	0	0	0	0
29.5536	0.01463053	-0.1851568	0	0	0	0
29.57017	0.01463053	-0.1851568	0	0	0	0
29.58673	0.01463053	-0.1851568	0	0	0	0
29.6033	0.01463053	-0.1851568	0	0	0	0
29.62391	0.01463053	-0.1851568	0	0	0	0
29.64048	0.01463053	-0.1851568	0	0	0	0
29.65736	0.01463053	-0.1851568	0	0	0	0
29.67361	0.01463053	-0.1851568	0	0	0	0
29.69046	0.01463053	-0.1851568	0	0	0	0
29.70675	0.01460422	-0.1851366	-0.001615027	0.001239426	-0.04874442	0.0374081
29.72331	0.01460422	-0.1851366	0	0	0.04915187	-0.0377208
29.73988	0.01460422	-0.1851366	0	0	0	0
29.75645	0.01460422	-0.1851366	0	0	0	0
29.77364	0.01460422	-0.1851366	0	0	0	0
29.78958	0.01460422	-0.1851366	0	0	0	0
29.80657	0.01460422	-0.1851366	0	0	0	0
29.82272	0.01460422	-0.1851366	0	0	0	0
29.83928	0.01460422	-0.1851366	0	0	0	0
29.85585	0.01460422	-0.1851366	0	0	0	0
29.87242	0.01460422	-0.1851366	0	0	0	0
29.88899	0.01460422	-0.1851366	0	0	0	0
29.90555	0.01460422	-0.1851366	0	0	0	0
29.92212	0.01460422	-0.1851366	0	0	0	0
29.93869	0.01460422	-0.1851366	0	0	0	0
29.95525	0.01460422	-0.1851366	0	0	0	0
29.97189	0.01460422	-0.1851366	0	0	0	0
29.98839	0.01460422	-0.1851366	0	0	0	0
30.00495	0.01460422	-0.1851366	0	0	0	0
30.02152	0.01460422	-0.1851366	0	0	0	0
30.03835	0.01460422	-0.1851366	0	0	0	0
30.05469	0.01460422	-0.1851366	0	0	0	0
30.07122	0.01460422	-0.1851366	0	0	0	0
30.08779	0.01460422	-0.1851366	0	0	0	0
30.18605	0.01457791	-0.1851165	-0.0002677396	0.0002053207	-0.00233154	0.001787981
30.20262	0.01457791	-0.1851165	0	0	0.002331501	-0.001787952
30.21919	0.0145516	-0.1850963	-0.001588306	0.001217976	-0.04793516	0.0367586
30.23585	0.0145516	-0.1850963	0	0	0.04780033	-0.03665521
30.25233	0.0145516	-0.1850963	0	0	0	0
30.26889	0.01418326	-0.1847734	-0.02224101	0.01949391	-0.6732113	0.5900597
30.28577	0.01418326	-0.1847734	0	0	0.6649573	-0.5828252
30.30202	0.01418326	-0.1847734	0	0	0	0
30.31859	0.01136793	-0.1826156	-0.1699336	0.13025	-5.178085	3.968878
30.33516	0.01136793	-0.1826156	0	0	5.128605	-3.930953
30.35241	0.01136793	-0.1826156	0	0	0	0
30.37116	-0.02633601	-0.1537939	-2.010959	1.537217	-55.8581	42.69904
30.38773	-0.02633601	-0.1537939	0	0	56.93189	-43.51987
30.40431	-0.02633601	-0.1537939	0	0	0	0
30.42192	-0.06881224	-0.1218038	-2.412237	1.816726	-70.56335	53.14332
30.43848	-0.06881224	-0.1218038	0	0	70.58305	-53.15815
30.45522	-0.06881224	-0.1218038	0	0	0	0
30.47162	-0.09706245	-0.1006195	-1.722439	1.291625	-51.9833	38.98133
30.48819	-0.09706245	-0.1006195	0	0	52.24495	-39.17754
30.50494	-0.09706245	-0.1006195	0	0	0	0
30.52132	-0.1150943	-0.08719265	-1.10134	0.8200768	-33.24235	24.75282
30.53788	-0.1150943	-0.08719265	0	0	33.43483	-24.89614
30.55445	-0.1150943	-0.08719265	0	0	0	0
30.57102	-0.1327153	-0.07400603	-1.063602	0.7959464	-32.09957	24.02171
30.58759	-0.1327153	-0.07400603	0	0	32.09957	-24.02171
30.60415	-0.1327153	-0.07400603	0	0	0	0
30.62072	-0.1427848	-0.06637808	-0.6079392	0.46053	-18.3487	13.89962
30.63729	-0.1427848	-0.06637808	0	0	18.3487	-13.89962
30.65385	-0.1427848	-0.06637808	0	0	0	0
30.67042	-0.152414	-0.05915441	-0.5813511	0.4361217	-17.54723	13.1637
30.6872	-0.152414	-0.05915441	0	0	17.43182	-13.07712
30.70355	-0.152414	-0.05915441	0	0	0	0
30.72012	-0.162553	-0.05127906	-0.6121306	0.4754665	-18.59833	14.44607
30.73669	-0.162553	-0.05127906	0	0	18.4752	-14.35043
30.75325	-0.162553	-0.05127906	0	0	0	0
30.76982	-0.1623736	-0.05110685	0.0108308	0.01039717	0.3269119	0.3138235
30.78639	-0.1623736	-0.05110685	0	0	-0.3268931	-0.3138054
30.80295	-0.1623736	-0.05110685	0	0	0	0
30.81952	-0.1623479	-0.05108772	0.00154703	0.001154876	0.04668945	0.03485421
30.83609	-0.1623479	-0.05108772	0	0	-0.04669214	-0.03485622
30.85265	-0.1623479	-0.05108772	0	0	0	0
30.86922	-0.1621173	-0.05087725	0.01392557	0.01270701	0.4203231	0.3835424
30.88579	-0.1621173	-0.05087725	0	0	-0.4202989	-0.3835203
30.90235	-0.1621173	-0.05087725	0	0	0	0
30.91918	-0.1611688	-0.04741624	0.05638021	0.2057327	1.688533	6.161498
30.93549	-0.1611688	-0.04741624	0	0	-1.701656	-6.209383
30.95232	-0.1611688	-0.04741624	0	0	0	0
30.96861	-0.1660106	-0.03218596	-0.2971063	0.9345801	-8.968235	28.21056
30.98518	-0.1660106	-0.03218596	0	0	9.04006	-28.43649
31.00175	-0.1660106	-0.03218596	0	0	0	0
31.01831	-0.1660106	-0.03218596	0	0	0	0
31.03488	-0.1660106	-0.03218596	0	0	0	0
31.05145	-0.1660106	-0.03218596	0	0	0	0
31.06805	-0.1660106	-0.03218596	0	0	0	0
31.08458	-0.1660106	-0.03218596	0	0	0	0
31.10115	-0.1660106	-0.03218596	0	0	0	0
31.11771	-0.1660106	-0.03218596	0	0	0	0
31.13428	-0.1660106	-0.03218596	0	0	0	0
31.15108	-0.1660106	-0.03218596	0	0	0	0
31.16742	-0.1660106	-0.03218596	0	0	0	0
31.18398	-0.1660106	-0.03218596	0	0	0	0
31.20094	-0.1660106	-0.03218596	0	0	0	0
31.21711	-0.1660106	-0.03218596	0	0	0	0
31.23368	-0.1660106	-0.03218596	0	0	0	0
31.25025	-0.1660106	-0.03218596	0	0	0	0
31.26682	-0.1660106	-0.03218596	0	0	0	0
31.28338	-0.1660106	-0.03218596	0	0	0	0
31.30024	-0.1660106	-0.03218596	0	0	0	0
31.31668	-0.1660362	-0.03220498	-0.001557062	-0.001156467	-0.04676609	-0.0347343
31.33308	-0.1660362	-0.03220498	0	0	0.04740427	0.03520829
31.34987	-0.1660362	-0.03220498	0	0	0	0
31.36621	-0.1660362	-0.03220498	0	0	0	0
31.38279	-0.1660362	-0.03220498	0	0	0	0
31.39935	-0.1660362	-0.03220498	0	0	0	0
31.41591	-0.1660106	-0.03222399	0.001545587	-0.001147944	0.04665664	-0.03465301
31.43248	-0.1660106	-0.03222399	0	0	-0.04664858	0.03464703
31.44905	-0.1660106	-0.03222399	0	0	0	0
31.46561	-0.1660106	-0.03226202	0	-0.002295889	0	-0.06929804
31.48218	-0.1660106	-0.03226202	0	0	0	0.06929406
31.49875	-0.1660106	-0.03226202	0	0	0	0
31.51531	-0.1660106	-0.03226202	0	0	0	0
31.53188	-0.1660106	-0.03226202	0	0	0	0
31.54845	-0.1660106	-0.03226202	0	0	0	0
31.56529	-0.165985	-0.03228103	0.001519687	-0.001128708	0.04548199	-0.03378057
31.58159	-0.165985	-0.03228103	0	0	-0.04585896	0.03406056
31.59815	-0.165985	-0.03228103	0	0	0	0
31.61471	-0.1660106	-0.03245217	-0.001545765	-0.01033314	-0.04666202	-0.3119266
31.63128	-0.1660106	-0.03245217	0	0	0.04665396	0.3118728
31.64785	-0.1660106	-0.03245217	0	0	0	0
31.66441	-0.1657802	-0.03326994	0.01390938	-0.04937241	0.4198585	-1.49032
31.68098	-0.1657802	-0.03326994	0	0	-0.4198585	1.49032
31.69813	-0.1657802	-0.03326994	0	0	0	0
31.71411	-0.1558572	-0.05026506	0.6208243	-1.063286	18.73759	-32.09189
31.73068	-0.1558572	-0.05026506	0	0	-19.07135	32.66351
31.74725	-0.1558572	-0.05026506	0	0	0	0
31.76381	-0.1291974	-0.104499	1.60956	-3.274323	48.58222	-98.83063
31.78038	-0.1291974	-0.104499	0	0	-48.57943	98.82494
31.79695	-0.1291974	-0.104499	0	0	0	0
31.81351	-0.1157176	-0.1421985	0.8137373	-2.275804	24.56147	-68.69182
31.83008	-0.1157176	-0.1421985	0	0	-24.56005	68.68787
31.84665	-0.1157176	-0.1421985	0	0	0	0
31.86321	-0.1172492	-0.1405155	-0.09246186	0.1015976	-2.790504	3.066221
31.87978	-0.1172492	-0.1405155	0	0	2.790665	-3.066398
31.89635	-0.1172492	-0.1405155	0	0	0	0
31.91291	-0.1156916	-0.1417429	0.09404013	-0.07410809	2.838464	-2.236844
31.92948	-0.1156916	-0.1417429	0	0	-2.8383	2.236716
31.94609	-0.1156916	-0.1417429	0	0	0	0
31.96261	-0.1063863	-0.148843	0.5634203	-0.4298977	17.00602	-12.97583
31.97942	-0.1063863	-0.148843	0	0	-16.9077	12.90082
31.99575	-0.1063863	-0.148843	0	0	0	0
32.01233	-0.08058824	-0.1685698	1.555382	-1.189343	47.25435	-36.13363
32.02888	-0.08058824	-0.1685698	0	0	-46.93613	35.8903
32.04545	-0.08058824	-0.1685698	0	0	0	0
32.06201	-0.05801377	-0.1859036	1.362911	-1.046512	41.14222	-31.59108
32.07916	-0.05801377	-0.1859036	0	0	-40.42533	31.04062
32.09518	-0.05801377	-0.1859036	0	0	0	0
32.11176	-0.04168636	-0.1984963	0.9848442	-0.759567	30.21664	-23.30477
32.12828	-0.04168636	-0.1984963	0	0	-29.75006	22.94491
32.14486	-0.04168636	-0.1984963	0	0	0	0
32.16141	-0.03968967	-0.2000399	0.1206039	-0.09324057	3.640252	-2.81433
32.17798	-0.03968967	-0.2000399	0	0	-3.64109	2.814978
32.19455	-0.03968967	-0.2000399	0	0	0	0
32.21111	-0.03921673	-0.2004057	0.02856012	-0.02208862	0.8620455	-0.6667128
32.22768	-0.03921673	-0.2004057	0	0	-0.8619462	0.666636
32.24425	-0.03921673	-0.2004057	0	0	0	0
32.26081	-0.03629984	-0.2026626	0.1761044	-0.1362608	5.316067	-4.113307
32.27738	-0.03629984	-0.2026626	0	0	-5.314843	4.11236
32.29395	-0.03629984	-0.2026626	0	0	0	0
32.31051	-0.03608959	-0.2028254	0.01269351	-0.009826801	0.3831351	-0.2966076
32.32773	-0.03608959	-0.2028254	0	0	-0.3757372	0.2908804
32.34365	-0.03608959	-0.2028254	0	0	0	0
32.36058	-0.03514342	-0.203558	0.05586312	-0.04325028	1.700439	-1.316512
32.37679	-0.03514342	-0.203558	0	0	-1.685758	1.305146
32.39367	-0.03514342	-0.203558	0	0	0	0
32.4101	-0.02204906	-0.2136767	0.7966137	-0.6155893	23.90972	-18.47642
32.42649	-0.02204906	-0.2136767	0	0	-24.27098	18.75558
32.44305	-0.02204906	-0.2136767	0	0	0	0
32.45963	-0.006236761	-0.2260035	0.9542124	-0.7438735	28.79487	-22.44756
32.47625	-0.006236761	-0.2260035	0	0	-28.74193	22.4063
32.49288	-0.006236761	-0.2260035	0	0	0	0
32.50931	-0.002421048	-0.2289886	0.232242	-0.1816855	7.025254	-5.495934
32.52588	-0.002421048	-0.2289886	0	0	-7.037435	5.505464
32.54245	-0.002421048	-0.2289886	0	0	0	0
32.55902	-0.0007631577	-0.2302869	0.1000935	-0.078385	3.020828	-2.365664
32.5757	-0.0007631577	-0.2302869	0	0	-3.01043	2.357521
32.59214	-0.0007631577	-0.2302869	0	0	0	0
32.60871	-0.0007894735	-0.230225	-0.001588791	0.003734418	-0.04813823	0.1131479
32.62528	-0.0007894735	-0.230225	0	0	0.0479498	-0.112705
32.64185	-0.0007894735	-0.230225	0	0	0	0
32.65841	-0.0007631577	-0.230122	0.001588791	0.006221931	0.04795532	0.1877999
32.67498	-0.0007631577	-0.230122	0	0	-0.04795532	-0.1877999
32.69154	-0.0007631577	-0.230122	0	0	0	0
32.70811	-0.000736842	-0.2301426	0.001588787	-0.001244206	0.04795521	-0.03755454
32.72467	-0.000736842	-0.2301426	0	0	-0.04795521	0.03755454
32.74124	-0.000736842	-0.2301426	0	0	0	0
32.7578	-0.0007105262	-0.2300807	0.001588791	0.003733519	0.04795532	0.1126908
32.77438	-0.0007105262	-0.2300807	0	0	-0.0479498	-0.1126778
32.79098	-0.0007105262	-0.2300807	0	0	0	0
32.80751	-0.0007105262	-0.2300807	0	0	0	0
32.82407	-0.0007105262	-0.2300807	0	0	0	0
32.84072	-0.0007105262	-0.2300807	0	0	0	0
32.85721	-0.0006842104	-0.2299777	0.001596139	0.006250723	0.04817158	0.1886472
32.87378	-0.0006842104	-0.2299777	0	0	-0.04828833	-0.1891044
32.89034	-0.0006842104	-0.2299777	0	0	0	0
32.90691	-0.0006578946	-0.2299158	0.001588791	0.003733519	0.04795532	0.1126908
32.9237	-0.0006578946	-0.2299158	0	0	-0.04762629	-0.1119176
32.94004	-0.0006578946	-0.2299158	0	0	0	0
32.95679	-0.0006578946	-0.2299158	0	0	0	0
32.97327	-0.0006578946	-0.2299158	0	0	0	0
32.99961	-0.0006578946	-0.2299158	0	0	0	0
33.01618	-0.0006578946	-0.2299158	0	0	0	0
33.03275	-0.0006578946	-0.2299158	0	0	0	0
33.04977	-0.0006578946	-0.2299158	0	0	0	0
33.06588	-0.0006578946	-0.2299158	0	0	0	0
33.08245	-0.0006578946	-0.2299158	0	0	0	0
33.09901	-0.0006578946	-0.2299158	0	0	0	0
33.11558	-0.0006578946	-0.2299158	0	0	0	0
33.13214	-0.0006578946	-0.2299158	0	0	0	0
33.14871	-0.0006578946	-0.2299158	0	0	0	0
33.16528	-0.0006578946	-0.2299158	0	0	0	0
33.18185	-0.0006578946	-0.2299158	0	0	0	0
33.19844	-0.0006578946	-0.2299158	0	0	0	0
33.21498	-0.0006315788	-0.2299365	0.001590622	-0.001245641	0.04801061	-0.03759784
33.23155	-0.0006315788	-0.2299365	0	0	-0.04803826	0.0376195
33.24812	-0.0006315788	-0.2299365	0	0	0	0
33.26471	-0.0006315788	-0.2299365	0	0	0	0
33.28137	-0.0006315788	-0.2299365	0	0	0	0
33.29781	-0.0006315788	-0.2299365	0	0	0	0
33.31438	-0.0006315788	-0.2299365	0	0	0	0
33.33095	-0.0006315788	-0.2299365	0	0	0	0
33.34752	-0.0006315788	-0.2299365	0	0	0	0
33.36409	-0.0006315788	-0.2299365	0	0	0	0
33.38065	-0.0006315788	-0.2299365	0	0	0	0
33.39722	-0.0006315788	-0.2299365	0	0	0	0
33.41378	-0.0006052631	-0.2299571	0.001588787	-0.001244206	0.04795521	-0.03755454
33.43035	-0.0006052631	-0.2299571	0	0	-0.04795521	0.03755454
33.44692	-0.0006052631	-0.2299571	0	0	0	0
33.46349	-0.0006052631	-0.2299571	0	0	0	0
33.48005	-0.0006052631	-0.2299571	0	0	0	0
33.49662	-0.0006052631	-0.2299571	0	0	0	0
33.51319	-0.0005789473	-0.2299777	0.001588425	-0.001244819	0.04793876	-0.03756872
33.52975	-0.0005789473	-0.2299777	0	0	-0.04793876	0.03756872
33.54632	-0.0005789473	-0.2299777	0	0	0	0
33.56512	-0.0005526315	-0.2299983	0.00139958	-0.001096032	0.03956983	-0.03098774
33.5817	-0.0005526315	-0.2299983	0	0	-0.03956556	0.0309844
33.59826	-0.0005526315	-0.2299983	0	0	0	0
33.61547	-0.0005789473	-0.2299777	-0.001529268	0.001197593	-0.04528278	0.03546164
33.63203	-0.0005789473	-0.2299777	0	0	0.04527767	-0.03545764
33.64876	-0.0005789473	-0.2299777	0	0	0	0
33.66517	-0.0005789473	-0.2299777	0	0	0	0
33.68174	-0.0005789473	-0.2299777	0	0	0	0
33.6983	-0.0005789473	-0.2299777	0	0	0	0
33.7149	-0.0005526315	-0.2299983	0.00158514	-0.001241347	0.0477901	-0.03742516
33.73144	-0.0005526315	-0.2299983	0	0	-0.04783962	0.03746394
33.748	-0.0005526315	-0.2299983	0	0	0	0
33.76457	-0.0005	-0.2300395	0.003176846	-0.00248784	0.0958774	-0.07508315
33.78114	-0.0005	-0.2300395	0	0	-0.0958774	0.07508315
33.79771	-0.0005	-0.2300395	0	0	0	0
33.8147	-0.0005	-0.2300395	0	0	0	0
33.83084	-0.0005	-0.2300395	0	0	0	0
33.84741	-0.0005	-0.2300395	0	0	0	0
33.86398	-0.0005	-0.2300395	0	0	0	0
33.88054	-0.0005	-0.2300395	0	0	0	0
33.89711	-0.0005	-0.2300395	0	0	0	0
33.91368	-0.0005	-0.2300395	0	0	0	0
33.93091	-0.0005	-0.2300395	0	0	0	0
33.94705	-0.0005	-0.2300395	0	0	0	0
33.96338	-0.0005	-0.2300395	0	0	0	0
33.97994	-0.0005	-0.2300395	0	0	0	0
33.99662	-0.0005	-0.2300395	0	0	0	0
34.01307	-0.0005	-0.2300395	0	0	0	0
34.02964	-0.0005	-0.2300395	0	0	0	0
34.04621	-0.0005	-0.2300395	0	0	0	0
34.06304	-0.0005	-0.2300395	0	0	0	0
34.07934	-0.0005	-0.2300395	0	0	0	0
34.09591	-0.0005	-0.2300395	0	0	0	0
34.11266	-0.0005	-0.2300395	0	0	0	0
34.12904	-0.0005	-0.2300395	0	0	0	0
34.14561	-0.0005	-0.2300395	0	0	0	0
34.16224	-0.0005	-0.2300395	0	0	0	0
34.17875	-0.0005	-0.2300395	0	0	0	0
34.19531	-0.0005	-0.2300395	0	0	0	0
34.21224	-0.0005	-0.2300395	0	0	0	0
34.22844	-0.0005	-0.2300395	0	0	0	0
34.24501	-0.0005	-0.2300395	0	0	0	0
34.26158	-0.0005	-0.2300395	0	0	0	0
34.27814	-0.0005	-0.2300395	0	0	0	0
34.29471	-0.0005	-0.2300395	0	0	0	0
34.31128	-0.0005	-0.2300395	0	0	0	0
34.32784	-0.0005	-0.2300395	0	0	0	0
34.34441	-0.0005	-0.2300395	0	0	0	0
34.36098	-0.0005	-0.2300395	0	0	0	0
34.37755	-0.0005	-0.2300395	0	0	0	0
34.39411	-0.0005	-0.2300395	0	0	0	0
34.41068	-0.0005	-0.2300395	0	0	0	0
34.42725	-0.0005	-0.2300395	0	0	0	0
34.44381	-0.0005	-0.2300395	0	0	0	0
34.46038	-0.0005	-0.2300395	0	0	0	0
34.47695	-0.0005	-0.2300395	0	0	0	0
34.49352	-0.0005	-0.2300395	0	0	0	0
34.51008	-0.0005	-0.2300395	0	0	0	0
34.52665	-0.0005	-0.2300395	0	0	0	0
34.54362	-0.0005	-0.2300395	0	0	0	0
34.55978	-0.0005	-0.2300395	0	0	0	0
34.57635	-0.0005	-0.2300395	0	0	0	0
34.59296	-0.0005	-0.2300395	0	0	0	0
34.60948	-0.0005	-0.2300395	0	0	0	0
34.62605	-0.0005	-0.2300395	0	0	0	0
34.64276	-0.0005	-0.2300395	0	0	0	0
34.65932	-0.0005	-0.2300395	0	0	0	0
34.67575	-0.0005	-0.2300395	0	0	0	0
34.69232	-0.0005	-0.2300395	0	0	0	0
34.70888	-0.0005	-0.2300395	0	0	0	0
34.72545	-0.0005	-0.2300395	0	0	0	0
34.74202	-0.0005	-0.2300395	0	0	0	0
34.75879	-0.0005	-0.2300395	0	0	0	0
34.77548	-0.0005	-0.2300395	0	0	0	0
34.79228	-0.0005	-0.2300395	0	0	0	0
34.80828	-0.0005	-0.2300395	0	0	0	0
34.82484	-0.0005	-0.2300395	0	0	0	0
34.84141	-0.0005	-0.2300395	0	0	0	0
34.85798	-0.0005	-0.2300395	0	0	0	0
34.87454	-0.0005	-0.2300395	0	0	0	0
34.8913	-0.0005	-0.2300395	0	0	0	0
34.90767	-0.0005	-0.2300395	0	0	0	0
34.92424	-0.0005	-0.2300395	0	0	0	0
34.94081	-0.0005	-0.2300395	0	0	0	0
34.96146	-0.0005	-0.2300395	0	0	0	0
34.97808	-0.0005	-0.2300395	0	0	0	0
34.99459	-0.0005	-0.2300395	0	0	0	0
35.01116	-0.0005	-0.2300395	0	0	0	0
35.02773	-0.0005	-0.2300395	0	0	0	0
35.0443	-0.0005	-0.2300395	0	0	0	0
35.06086	-0.0005	-0.2300395	0	0	0	0
35.07743	-0.0005	-0.2300395	0	0	0	0
35.094	-0.0005	-0.2300395	0	0	0	0
35.11057	-0.0005	-0.2300395	0	0	0	0
35.12716	-0.0005	-0.2300395	0	0	0	0
35.1437	-0.0005	-0.2300395	0	0	0	0
35.16026	-0.0005	-0.2300395	0	0	0	0
35.17716	-0.0005	-0.2300395	0	0	0	0
35.1934	-0.0005	-0.2300395	0	0	0	0
35.21018	-0.0005	-0.2300395	0	0	0	0
35.22654	-0.0005	-0.2300395	0	0	0	0
35.24314	-0.0005	-0.2300395	0	0	0	0
35.25967	-0.0005	-0.2300395	0	0	0	0
35.27623	-0.0005	-0.2300395	0	0	0	0
35.2928	-0.0005	-0.2300395	0	0	0	0
35.30937	-0.0005	-0.2300395	0	0	0	0
35.32614	-0.0005	-0.2300395	0	0	0	0
35.34249	-0.0005	-0.2300395	0	0	0	0
35.35907	-0.0005	-0.2300395	0	0	0	0
35.37563	-0.0005	-0.2300395	0	0	0	0
35.39219	-0.0005263158	-0.2300189	-0.001589157	0.001244493	-0.04797189	0.03756752
35.40876	-0.0005263158	-0.2300189	0	0	0.04796636	-0.0375632
35.42533	-0.0005263158	-0.2300189	0	0	0	0
35.44189	-0.0005263158	-0.2300189	0	0	0	0
35.45847	-0.0005263158	-0.2300189	0	0	0	0
35.47503	-0.0005263158	-0.2300189	0	0	0	0
35.49159	-0.0005526315	-0.2299983	-0.001589153	0.001244493	-0.04797179	0.03756752
35.50816	-0.0005526315	-0.2299983	0	0	0.04797179	-0.03756752
35.5248	-0.0005526315	-0.2299983	0	0	0	0
35.54129	-0.0005526315	-0.2299983	0	0	0	0
35.55786	-0.0005526315	-0.2299983	0	0	0	0
35.57475	-0.0005526315	-0.2299983	0	0	0	0
35.591	-0.0005526315	-0.2299983	0	0	0	0
35.6718	-0.0005526315	-0.2299983	0	0	0	0
35.68837	-0.0005526315	-0.2299983	0	0	0	0
35.71306	-0.0005263158	-0.2300189	0.001065737	-0.0008345966	0.02582993	-0.02022786
35.72963	-0.0005263158	-0.2300189	0	0	-0.02582754	0.02022598
35.74619	-0.0005263158	-0.2300189	0	0	0	0
35.76276	-0.0005263158	-0.2300189	0	0	0	0
35.77933	-0.0005263158	-0.2300189	0	0	0	0
35.79589	-0.0005263158	-0.2300189	0	0	0	0
35.81246	-0.0005263158	-0.2300189	0	0	0	0
35.82903	-0.0005263158	-0.2300189	0	0	0	0
35.84573	-0.0005263158	-0.2300189	0	0	0	0
35.86216	-0.0005263158	-0.2300189	0	0	0	0
35.87873	-0.0005263158	-0.2300189	0	0	0	0
35.89573	-0.0005526315	-0.2299983	-0.00154814	0.001212375	-0.04612294	0.03611966
35.91186	-0.0005526315	-0.2299983	0	0	0.04672835	-0.03659377
35.92842	-0.0005526315	-0.2299983	0	0	0	0
35.94499	-0.00118421	-0.2295037	-0.03812215	0.02985588	-1.150529	0.9010521
35.96156	-0.00118421	-0.2295037	0	0	1.150529	-0.9010521
35.97813	-0.00118421	-0.2295037	0	0	0	0
35.99469	-0.03424976	-0.2036801	-1.995841	1.558715	-60.23459	47.04212
36.01126	-0.03424976	-0.2036801	0	0	60.23459	-47.04212
36.02783	-0.03424976	-0.2036801	0	0	0	0
36.0444	-0.09278544	-0.1587154	-3.533221	2.714073	-106.6328	81.91088
36.06096	-0.09278544	-0.1587154	0	0	106.6328	-81.91088
36.07753	-0.09278544	-0.1587154	0	0	0	0
36.09409	-0.1222557	-0.1362242	-1.778826	1.357573	-53.69126	40.97634
36.11066	-0.1222557	-0.1362242	0	0	53.68507	-40.97162
36.12723	-0.1222557	-0.1362242	0	0	0	0
36.14385	-0.1529281	-0.1128627	-1.845022	1.405249	-55.58689	42.33739
36.16036	-0.1529281	-0.1128627	0	0	55.68288	-42.41051
36.17693	-0.1529281	-0.1128627	0	0	0	0
36.1935	-0.177787	-0.09388787	-1.500486	1.145322	-45.28475	34.56588
36.21006	-0.177787	-0.09388787	0	0	45.28475	-34.56588
36.22663	-0.177787	-0.09388787	0	0	0	0
36.24345	-0.1853734	-0.08810378	-0.4510571	0.3439024	-13.51027	10.30072
36.25977	-0.1853734	-0.08810378	0	0	13.61293	-10.37899
36.27656	-0.1853734	-0.08810378	0	0	0	0
36.2929	-0.1914929	-0.08347384	-0.3745513	0.2833787	-11.30398	8.552386
36.30976	-0.1914929	-0.08347384	0	0	11.2806	-8.534699
36.32605	-0.1914929	-0.08347384	0	0	0	0
36.34644	-0.1914422	-0.08351255	0.002487722	-0.001898679	0.06783953	-0.05177647
36.3631	-0.1914422	-0.08351255	0	0	-0.06714109	0.05124341
36.37957	-0.1914422	-0.08355127	0	-0.002349719	0	-0.0709065
36.39614	-0.1914422	-0.08355127	0	0	0	0.07111115
36.41271	-0.1914422	-0.08355127	0	0	0	0
36.42951	-0.1913661	-0.08357061	0.004528909	-0.001151741	0.1357295	-0.03451719
36.44584	-0.1913661	-0.08357061	0	0	-0.1366985	0.0347636
36.46241	-0.1913661	-0.08357061	0	0	0	0
36.47897	-0.1913407	-0.08358997	0.00153084	-0.001168367	0.04620084	-0.03526139
36.49554	-0.1913407	-0.08358997	0	0	-0.04620084	0.03526139
36.51211	-0.1913407	-0.08358997	0	0	0	0
36.52919	-0.19129	-0.08362868	0.00297025	-0.002266288	0.08827041	-0.06734994
36.54524	-0.19129	-0.08362868	0	0	-0.08965266	0.06840459
36.56181	-0.19129	-0.08362868	0	0	0	0
36.57837	-0.1911632	-0.08372547	0.007655099	-0.005842286	0.2310313	-0.1763205
36.59494	-0.1911632	-0.08372547	0	0	-0.2310313	0.1763205
36.61152	-0.1911632	-0.08372547	0	0	0	0
36.62807	-0.1911378	-0.08374483	0.001532251	-0.001169444	0.04624876	-0.03529796
36.64473	-0.1911378	-0.08374483	0	0	-0.0461425	0.03521686
36.66157	-0.1911378	-0.08374483	0	0	0	0
36.67812	-0.1911378	-0.08374483	0	0	0	0
36.69434	-0.1911378	-0.08374483	0	0	0	0
36.71091	-0.1911378	-0.08374483	0	0	0	0
36.72752	-0.1911378	-0.08374483	0	0	0	0
36.74429	-0.1911378	-0.08374483	0	0	0	0
36.76061	-0.1911378	-0.08374483	0	0	0	0
36.77769	-0.1911378	-0.08374483	0	0	0	0
36.79374	-0.1911378	-0.08374483	0	0	0	0
36.81031	-0.1911378	-0.08374483	0	0	0	0
36.82687	-0.1911125	-0.08376419	0.001531192	-0.001168636	0.0462168	-0.03527357
36.84344	-0.1911125	-0.08376419	0	0	-0.0462168	0.03527357
36.86012	-0.1911125	-0.08376419	0	0	0	0
36.87657	-0.1910364	-0.08386098	0.004624297	-0.005881559	0.1395616	-0.1775058
36.89314	-0.1910364	-0.08386098	0	0	-0.1400291	0.1781004
36.90971	-0.1910364	-0.08386098	0	0	0	0
36.92627	-0.191011	-0.08388034	0.001531739	-0.001168367	0.04622798	-0.03526139
36.94336	-0.191011	-0.08388034	0	0	-0.04552049	0.03472174
36.95941	-0.191011	-0.08388034	0	0	0	0
36.97646	-0.1909349	-0.08393841	0.004462913	-0.003405953	0.1347996	-0.1028748
36.99324	-0.1909349	-0.08393841	0	0	-0.1319118	0.1006709
37.00982	-0.1909349	-0.08393841	0	0	0	0
37.02664	-0.1909095	-0.08395777	0.001507582	-0.001150616	0.04514549	-0.03445593
37.04322	-0.1909095	-0.08395777	0	0	-0.04512487	0.03444019
37.05952	-0.1909095	-0.08395777	0	0	0	0
37.07622	-0.1909095	-0.08395777	0	0	0	0
37.09265	-0.1909095	-0.08395777	0	0	0	0
37.10922	-0.1909095	-0.08395777	0	0	0	0
37.12578	-0.1909095	-0.08399649	0	-0.002338261	0	-0.07058511
37.14282	-0.1909095	-0.08399649	0	0	0	0.0695835
37.15892	-0.1909095	-0.08399649	0	0	0	0
37.17548	-0.1908334	-0.08409329	0.004596435	-0.005845428	0.1407626	-0.1790121
37.19205	-0.1908334	-0.08409329	0	0	-0.1387367	0.1764357
37.20889	-0.1908334	-0.08409329	0	0	0	0
37.22518	-0.1898438	-0.08492589	0.06075179	-0.05111516	1.833493	-1.542658
37.24175	-0.1898438	-0.08492589	0	0	-1.849033	1.555733
37.25846	-0.1898438	-0.08492589	0	0	0	0
37.27488	-0.1673669	-0.1021784	1.369003	-1.050801	41.32134	-31.71689
37.29185	-0.1673669	-0.1021784	0	0	-40.99564	31.4669
37.30825	-0.1673669	-0.1021784	0	0	0	0
37.32458	-0.1437387	-0.120174	1.446521	-1.10169	44.20059	-33.66377
37.34115	-0.1437387	-0.120174	0	0	-43.96486	33.48423
37.35796	-0.1437387	-0.120174	0	0	0	0
37.3745	-0.1397411	-0.1231792	0.2416255	-0.1816438	7.243901	-5.445657
37.39085	-0.1397411	-0.1231792	0	0	-7.347253	5.523353
37.40741	-0.1397411	-0.1231792	0	0	0	0
37.42398	-0.128628	-0.1315657	0.6709456	-0.5063299	20.25151	-15.28283
37.44054	-0.128628	-0.1315657	0	0	-20.25384	15.28459
37.45711	-0.128628	-0.1315657	0	0	0	0
37.47367	-0.09150689	-0.1592939	2.24115	-1.67406	67.64582	-50.52906
37.49024	-0.09150689	-0.1592939	0	0	-67.64582	50.52906
37.50681	-0.09150689	-0.1592939	0	0	0	0
37.52337	-0.08215676	-0.1660872	0.5643749	-0.4100465	17.03287	-12.37523
37.53994	-0.08215676	-0.1660872	0	0	-17.03287	12.37523
37.55651	-0.08215676	-0.1660872	0	0	0	0
37.57307	-0.0820522	-0.1661673	0.006311342	-0.00483087	0.1904767	-0.1457959
37.58964	-0.0820522	-0.1661673	0	0	-0.1904767	0.1457959
37.60621	-0.0820522	-0.1661673	0	0	0	0
37.62278	-0.08207835	-0.1661873	-0.00157806	-0.001207942	-0.04762595	-0.03645577
37.63934	-0.08207835	-0.1661873	0	0	0.04762595	0.03645577
37.65673	-0.08207835	-0.1661873	0	0	0	0
37.67247	-0.08207835	-0.1661873	0	0	0	0
37.68904	-0.08207835	-0.1661873	0	0	0	0
37.70561	-0.08207835	-0.1661873	0	0	0	0
37.72218	-0.08207835	-0.1661873	0	0	0	0
37.73874	-0.08207835	-0.1661873	0	0	0	0
37.75531	-0.08207835	-0.1661873	0	0	0	0
37.77187	-0.08207835	-0.1661873	0	0	0	0
37.78844	-0.08207835	-0.1661873	0	0	0	0
37.80501	-0.08207835	-0.1661873	0	0	0	0
37.8253	-0.08197378	-0.1662673	0.005152285	-0.003944431	0.1397745	-0.107007
37.84451	-0.08197378	-0.1662673	0	0	-0.1304337	0.09985601
37.86108	-0.08186923	-0.1663874	0.006310892	-0.007247654	0.1764089	-0.2025943
37.87765	-0.08186923	-0.1663874	0	0	-0.1904412	0.2187095
37.89421	-0.08186923	-0.1663874	0	0	0	0
37.91078	-0.08155555	-0.1666276	0.01893402	-0.01449621	0.5714958	-0.4375468
37.92754	-0.08155555	-0.1666276	0	0	-0.5681595	0.4349924
37.94391	-0.08155555	-0.1666276	0	0	0	0
37.96058	-0.07865319	-0.1688102	0.1741437	-0.13096	5.27023	-3.96333
37.97734	-0.07865319	-0.1688102	0	0	-5.210082	3.918097
37.99361	-0.07865319	-0.1688102	0	0	0	0
38.01018	-0.07865319	-0.1688102	0	0	0	0
38.02675	-0.07865319	-0.1688102	0	0	0	0
38.04332	-0.07865319	-0.1688102	0	0	0	0
38.05988	-0.07865319	-0.1688102	0	0	0	0
38.07645	-0.07865319	-0.1688102	0	0	0	0
38.09315	-0.07865319	-0.1688102	0	0	0	0
38.10958	-0.07862704	-0.1687902	0.001591334	0.001218663	0.04802657	0.03677932
38.12615	-0.07862704	-0.1687902	0	0	-0.04822087	-0.03692812
38.14324	-0.07862704	-0.1687902	0	0	0	0
38.15929	-0.07860089	-0.1687701	0.001629539	0.001248849	0.04917957	0.03769033
38.17586	-0.07860089	-0.1687701	0	0	-0.049956	-0.03828537
38.19242	-0.07860089	-0.1687701	0	0	0	0
38.20899	-0.07860089	-0.1687701	0	0	0	0
38.22582	-0.07860089	-0.1687701	0	0	0	0
38.2423	-0.07860089	-0.1687701	0	0	0	0
38.25869	-0.07833935	-0.1689705	0.01596333	-0.01222806	0.4856884	-0.3720419
38.27526	-0.07833935	-0.1689705	0	0	-0.4843953	0.3710514
38.29182	-0.07833935	-0.1689705	0	0	0	0
38.31193	-0.05942993	-0.1834825	0.9404267	-0.7217299	25.64252	-19.67934
38.32866	-0.05942993	-0.1834825	0	0	-25.53363	19.59577
38.3452	-0.04644027	-0.1934869	0.7853234	-0.6048436	23.60869	-18.18304
38.36163	-0.04644027	-0.1934869	0	0	-23.81351	18.34079
38.3782	-0.04644027	-0.1934869	0	0	0	0
38.39476	-0.0348543	-0.2024389	0.6994916	-0.5404651	21.11313	-16.31315
38.41133	-0.0348543	-0.2024389	0	0	-21.1107	16.31127
38.4279	-0.0348543	-0.2024389	0	0	0	0
38.44447	-0.03493315	-0.2023372	-0.004759365	0.00613865	-0.1436545	0.1852861
38.46103	-0.03493315	-0.2023372	0	0	0.1436379	-0.1852648
38.4776	-0.03493315	-0.2023372	0	0	0	0
38.49416	-0.03488058	-0.2022965	0.003173716	0.002456025	0.09579396	0.07413153
38.51085	-0.03488058	-0.2022965	0	0	-0.09545325	-0.07386786
38.5273	-0.03488058	-0.2022965	0	0	0	0
38.54387	-0.03490687	-0.2022355	-0.001586605	0.00368319	-0.04805534	0.111557
38.56043	-0.03490687	-0.2022355	0	0	0.04788383	-0.1111589
38.577	-0.03490687	-0.2022355	0	0	0	0
38.59357	-0.03511713	-0.2020321	-0.01269171	0.0122764	-0.3830367	0.3705025
38.61013	-0.03511713	-0.2020321	0	0	0.3830367	-0.3705025
38.6267	-0.03511713	-0.2020321	0	0	0	0
38.64327	-0.03519599	-0.2019304	-0.00475959	0.006137751	-0.1436447	0.1852377
38.65984	-0.03519599	-0.2019304	0	0	0.1436447	-0.1852377
38.6764	-0.03519599	-0.2019304	0	0	0	0
38.69297	-0.03519599	-0.2018897	0	0.00245456	0	0.07407878
38.70954	-0.03519599	-0.2018897	0	0	0	-0.07407878
38.7261	-0.03519599	-0.2018897	0	0	0	0
38.7427	-0.03540625	-0.2016864	-0.01266815	0.01225203	-0.3819738	0.3694268
38.75924	-0.03540625	-0.2016864	0	0	0.3823256	-0.3697671
38.77581	-0.03540625	-0.2016864	0	0	0	0
38.79237	-0.03545881	-0.201605	-0.003173491	0.004911151	-0.09578717	0.1482359
38.80894	-0.03545881	-0.201605	0	0	0.09578717	-0.1482359
38.82551	-0.03545881	-0.201605	0	0	0	0
38.84207	-0.03535368	-0.2012797	0.006348669	0.01964463	0.1916253	0.5929444
38.85864	-0.03535368	-0.2012797	0	0	-0.1916032	-0.5928761
38.87521	-0.03535368	-0.2012797	0	0	0	0
38.89187	-0.0351697	-0.2010154	0.01104408	0.01586472	0.3323925	0.477479
38.90878	-0.0351697	-0.2010154	0	0	-0.3290305	-0.4726494
38.92558	-0.0351697	-0.2010154	0	0	0	0
38.94158	-0.03477545	-0.2006292	0.0246486	0.02414459	0.7514224	0.7360577
38.95815	-0.03477545	-0.2006292	0	0	-0.7569683	-0.7414902
38.9747	-0.03477545	-0.2006292	0	0	0	0
38.99127	-0.03196279	-0.198415	0.1697721	0.1336499	5.124913	4.03449
39.00784	-0.03196279	-0.198415	0	0	-5.123143	-4.033097
39.02479	-0.03196279	-0.198415	0	0	0	0
39.04097	-0.03248857	-0.1979684	-0.03248365	0.02759416	-0.9804713	0.8328894
39.05755	-0.03248857	-0.1979684	0	0	0.9915456	-0.8422967
39.0746	-0.03248857	-0.1979684	0	0	0	0
39.09068	-0.03272516	-0.1977857	-0.01471773	0.01136465	-0.4442842	0.3430647
39.10761	-0.03272516	-0.1977857	0	0	0.4458759	-0.3442938
39.12381	-0.03272516	-0.1977857	0	0	0	0
39.14058	-0.03272516	-0.1977857	0	0	0	0
39.15731	-0.03272516	-0.1977857	0	0	0	0
39.17351	-0.03272516	-0.1977857	0	0	0	0
39.19007	-0.03269887	-0.197806	0.001587195	-0.001225314	0.04844262	-0.03739768
39.20664	-0.03269887	-0.197806	0	0	-0.04790716	0.0369843
39.22366	-0.03269887	-0.197806	0	0	0	0
39.23977	-0.03269887	-0.197806	0	0	0	0
39.25672	-0.03269887	-0.197806	0	0	0	0
39.2729	-0.03269887	-0.197806	0	0	0	0
39.28947	-0.03267258	-0.1978263	0.001586605	-0.001225931	0.04844717	-0.03743395
39.30604	-0.03267258	-0.1978263	0	0	-0.04788383	0.03699867
39.32334	-0.03267258	-0.1978263	0	0	0	0
39.33916	-0.03269887	-0.197806	-0.001661192	0.001283563	-0.05014643	0.03874693
39.35579	-0.03269887	-0.197806	0	0	0.05119581	-0.03955776
39.37285	-0.03269887	-0.197806	0	0	0	0
39.38886	-0.03269887	-0.197806	0	0	0	0
39.40543	-0.03269887	-0.197806	0	0	0	0
39.42212	-0.03269887	-0.197806	0	0	0	0
39.43856	-0.03272516	-0.1977857	-0.001599351	0.001234698	-0.04827961	0.03727183
39.45513	-0.03272516	-0.1977857	0	0	0.04845258	-0.03740536
39.47225	-0.03272516	-0.1977857	0	0	0	0
39.48826	-0.03269887	-0.1977248	0.00164203	0.00380294	0.04956228	0.1147862
39.50483	-0.03269887	-0.1977248	0	0	-0.0503979	-0.1167214
39.52152	-0.03269887	-0.1977248	0	0	0	0
39.53797	-0.03275144	-0.1976842	-0.003196249	0.002467677	-0.09646299	0.07447466
39.55453	-0.03275144	-0.1976842	0	0	0.0968085	-0.0747414
39.57118	-0.03275144	-0.1976842	0	0	0	0
39.58984	-0.03283031	-0.1976234	-0.004226048	0.003262661	-0.1197011	0.09241351
39.60641	-0.03283031	-0.1976234	0	0	0.1199473	-0.09260362
39.62298	-0.03283031	-0.1976234	0	0	0	0
39.63955	-0.03280402	-0.1976031	0.00158683	0.001225032	0.04789062	0.03697153
39.65611	-0.03280402	-0.1976031	0	0	-0.04789062	-0.03697153
39.67324	-0.03280402	-0.1976031	0	0	0	0
39.68924	-0.03277773	-0.197461	0.00164258	0.008877756	0.04957889	0.2679621
39.70581	-0.03277773	-0.197461	0	0	-0.05043249	-0.2725756
39.72238	-0.03277773	-0.197461	0	0	0	0
39.73894	-0.02991213	-0.1948851	0.1730079	0.155515	5.221989	4.693992
39.75551	-0.02991213	-0.1948851	0	0	-5.221388	-4.693451
39.77208	-0.02991213	-0.1948851	0	0	0	0
39.78865	-0.01202574	-0.1811849	1.079625	0.8269503	32.58314	24.95741
39.80521	-0.01202574	-0.1811849	0	0	-32.59064	-24.96316
39.82178	-0.01202574	-0.1811849	0	0	0	0
39.83972	-0.01097324	-0.1804195	0.05865318	0.04265153	1.699335	1.235725
39.85629	-0.01097324	-0.1804195	0	0	-1.699335	-1.235725
39.87286	-0.01097324	-0.1804195	0	0	0	0
39.88942	-0.01092062	-0.1804598	0.003177202	-0.002431735	0.09589918	-0.07339837
39.90599	-0.01092062	-0.1804598	0	0	-0.09589918	0.07339837
39.92256	-0.01092062	-0.1804598	0	0	0	0
39.93913	-0.01094693	-0.1804397	-0.001588235	0.001215138	-0.04793303	0.03667293
39.95569	-0.01094693	-0.1804397	0	0	0.04793303	-0.03667293
39.97226	-0.01094693	-0.1804397	0	0	0	0
39.98883	-0.01094693	-0.1804397	0	0	0	0
40.0054	-0.01094693	-0.1804397	0	0	0	0
40.02197	-0.01094693	-0.1804397	0	0	0	0
40.03853	-0.01092062	-0.1804598	0.001588235	-0.001215138	0.04793303	-0.03667293
40.05536	-0.01092062	-0.1804598	0	0	-0.0475607	0.03638806
40.07185	-0.01092062	-0.1804598	0	0	0	0
40.08823	-0.01092062	-0.1805001	0	-0.002458345	0	-0.0747871
40.1048	-0.01092062	-0.1805001	0	0	0	0.07460529
40.12159	-0.01092062	-0.1805001	0	0	0	0
40.14238	-0.01094693	-0.1805202	-0.001265866	-0.0009684977	-0.03368242	-0.02576998
40.15895	-0.01094693	-0.1805202	0	0	0.03388535	0.02592524
40.17552	-0.01094693	-0.1805202	0	0	0	0
40.19209	-0.01094693	-0.1805202	0	0	0	0
40.20865	-0.01094693	-0.1805202	0	0	0	0
40.22522	-0.01099956	-0.1805202	-0.003177202	0	-0.09589918	0
40.24181	-0.01099956	-0.1805202	0	0	0.09581093	0
40.25835	-0.01099956	-0.1805202	0	0	0	0
40.27492	-0.01099956	-0.1805202	0	0	0	0
40.29149	-0.01099956	-0.1805202	0	0	0	0
40.30806	-0.01099956	-0.1805202	0	0	0	0
40.32502	-0.01099956	-0.1805202	0	0	0	0
40.34127	-0.01099956	-0.1805202	0	0	0	0
40.35775	-0.01099956	-0.1805202	0	0	0	0
40.37431	-0.01097324	-0.1805403	0.001588967	-0.001216598	0.04808243	-0.03681447
40.39089	-0.01097324	-0.1805403	0	0	-0.04795511	0.03671699
40.40798	-0.01097324	-0.1805403	0	0	0	0
40.42402	-0.01097324	-0.1805403	0	0	0	0
40.44091	-0.01097324	-0.1805403	0	0	0	0
40.4573	-0.01097324	-0.1805403	0	0	0	0
40.47403	-0.01099956	-0.1806007	-0.001572306	-0.003609742	-0.04747414	-0.1089924
40.49067	-0.01099956	-0.1806007	0	0	0.04712136	0.1081825
40.50703	-0.01099956	-0.1806007	0	0	0	0
40.52348	-0.01099956	-0.1806007	0	0	0	0
40.54019	-0.01099956	-0.1806007	0	0	0	0
40.55658	-0.01099956	-0.1806007	0	0	0	0
40.57333	-0.01102587	-0.1806612	-0.001570516	-0.003606522	-0.04738189	-0.1088075
40.58969	-0.01102587	-0.1806612	0	0	0.04743102	0.1089203
