Time	Pos X	Pos Y	Vel X	Vel Y	Acc X	Acc Y
0.01656516	-0.03766639	-0.1678688	0.0006252755	0.002786682	-1.038265E-05	-4.627265E-05
0.0352762	-0.03766639	-0.1678688	0	0	1.038302E-05	4.62743E-05
0.0518457	-0.03766639	-0.1678688	0	0	0	0
0.06841007	-0.03737732	-0.1676085	0.01745117	0.01571496	0.5266868	0.4742869
0.08505773	-0.03737732	-0.1676085	0	0	-0.5254473	-0.4731707
0.1015443	-0.03737732	-0.1676085	0	0	0	0
0.1181122	-0.03706197	-0.1673682	0.01903397	0.0145019	0.5758358	0.4387269
0.134679	-0.03706197	-0.1673682	0	0	-0.5744432	-0.4376659
0.1512457	-0.03706197	-0.1673682	0	0	0	0
0.1678105	-0.03703569	-0.1673882	0.001586392	-0.001208123	0.04788169	-0.03646448
0.1843772	-0.03703569	-0.1673882	0	0	-0.04788169	0.03646448
0.2009443	-0.03703569	-0.1673882	0	0	0	0
0.281486	-0.02654639	-0.1595732	0.1302343	0.09703071	1.341117	0.9991956
0.2986536	-0.02654639	-0.1595732	0	0	-1.332876	-0.9930553
0.3160576	-0.01791913	-0.153993	0.495705	0.3206306	14.33851	9.274396
0.3326259	-0.01791913	-0.153993	0	0	-14.59144	-9.437995
0.3492779	-0.01791913	-0.153993	0	0	0	0
0.3657586	-0.01573554	-0.155088	0.132494	-0.06644575	3.998893	-2.005445
0.3823261	-0.01573554	-0.155088	0	0	-4.009112	2.01057
0.3988988	-0.01573554	-0.155088	0	0	0	0
0.4154588	-0.01555138	-0.1552274	0.01112103	-0.008417887	0.3356513	-0.254066
0.4320326	-0.01555138	-0.1552274	0	0	-0.3356392	0.2540569
0.4488043	-0.01555138	-0.1552274	0	0	0	0
0.4654373	-0.01552507	-0.1552474	0.001581781	-0.001197786	0.04735208	-0.03585684
0.482006	-0.01552507	-0.1552474	0	0	-0.04764144	0.03607596
0.4986963	-0.01552507	-0.1552474	0	0	0	0
0.515402	-0.01549876	-0.1552673	0.001574848	-0.001192579	0.04715683	-0.03571025
0.5318772	-0.01549876	-0.1552673	0	0	-0.04746259	0.03594179
0.5488402	-0.01549876	-0.1552673	0	0	0	0
0.5654678	-0.01549876	-0.1552673	0	0	0	0
0.5819804	-0.01549876	-0.1552673	0	0	0	0
0.5986905	-0.01549876	-0.1552673	0	0	0	0
0.6151096	-0.01547245	-0.1552872	0.001602393	-0.001212486	0.04836805	-0.03659877
0.6316818	-0.01547245	-0.1552872	0	0	-0.04857008	0.03675165
0.6486531	-0.01547245	-0.1552872	0	0	0	0
0.6648082	-0.01544614	-0.1553071	0.001628589	-0.001233231	0.04916294	-0.0372281
0.6813828	-0.01544614	-0.1553071	0	0	-0.04975886	0.03767935
0.6979479	-0.01544614	-0.1553071	0	0	0	0
0.7145091	-0.01544614	-0.1553071	0	0	0	0
0.731081	-0.01544614	-0.1553071	0	0	0	0
0.7479162	-0.01544614	-0.1553071	0	0	0	0
0.7642086	-0.01544614	-0.1553469	0	-0.002444749	0	-0.07379805
0.7807824	-0.01544614	-0.1553469	0	0	0	0.07438479
0.7975726	-0.01544614	-0.1553469	0	0	0	0
0.8145329	-0.01541983	-0.1553669	0.001551205	-0.001174674	0.04596097	-0.03480467
0.8308304	-0.01541983	-0.1553669	0	0	-0.04664177	0.03532021
0.8473111	-0.01541983	-0.1553669	0	0	0	0
0.8636078	-0.01539352	-0.1553868	0.001614425	-0.001221591	0.04925415	-0.03726926
0.8801769	-0.01539352	-0.1553868	0	0	-0.04912168	0.03716903
0.896744	-0.01539352	-0.1553868	0	0	0	0
0.9133076	-0.01531459	-0.1554465	0.004765189	-0.00360753	0.14383	-0.1088878
0.9298771	-0.01531459	-0.1554465	0	0	-0.1438196	0.10888
0.9464439	-0.01531459	-0.1554465	0	0	0	0
0.9630075	-0.0153409	-0.1554665	-0.001588415	-0.00120281	-0.04794441	-0.03630538
0.9796757	-0.0153409	-0.1554665	0	0	0.04779805	0.03619455
0.9961445	-0.0153409	-0.1554665	0	0	0	0
1.012877	-0.0153409	-0.1554665	0	0	0	0
1.029278	-0.0153409	-0.1554665	0	0	0	0
1.046232	-0.0153409	-0.1554665	0	0	0	0
1.062441	-0.0153409	-0.1555063	0	-0.002457434	0	-0.07410152
1.078977	-0.0153409	-0.1555063	0	0	0	0.0750476
1.095981	-0.0153409	-0.1555063	0	0	0	0
1.112108	-0.0153409	-0.1555063	0	0	0	0
1.128695	-0.0153409	-0.1555063	0	0	0	0
1.145724	-0.0153409	-0.1555063	0	0	0	0
1.161808	-0.0153409	-0.1555063	0	0	0	0
1.178662	-0.0153409	-0.1555063	0	0	0	0
1.194944	-0.0153409	-0.1555063	0	0	0	0
1.216525	-0.0153409	-0.1555461	0	-0.001846369	0	-0.04876429
1.233095	-0.0153409	-0.1555461	0	0	0	0.04839646
1.249662	-0.01528828	-0.155586	0.003176156	-0.002404209	0.09584795	-0.07255266
1.266229	-0.01528828	-0.155586	0	0	-0.0958583	0.07256049
1.282795	-0.01528828	-0.155586	0	0	0	0
1.29936	-0.01526197	-0.1556059	0.001588285	-0.001202754	0.04793987	-0.03630322
1.315928	-0.01526197	-0.1556059	0	0	-0.04793659	0.03630074
1.332631	-0.01526197	-0.1556059	0	0	0	0
1.349141	-0.01526197	-0.1556059	0	0	0	0
1.365628	-0.01526197	-0.1556059	0	0	0	0
1.382213	-0.01526197	-0.1556059	0	0	0	0
1.404015	-0.01526197	-0.1556059	0	0	0	0
1.420582	-0.01526197	-0.1556059	0	0	0	0
1.444192	-0.01523566	-0.1556258	0.001114336	-0.0008438185	0.02773559	-0.02100247
1.46076	-0.01523566	-0.1556258	0	0	-0.02773452	0.02100166
1.477325	-0.01523566	-0.1556258	0	0	0	0
1.493895	-0.01523566	-0.1556258	0	0	0	0
1.510624	-0.01523566	-0.1556258	0	0	0	0
1.527336	-0.01523566	-0.1556258	0	0	0	0
1.543592	-0.01523566	-0.1556258	0	0	0	0
1.560286	-0.01523566	-0.1556258	0	0	0	0
1.576736	-0.01520935	-0.1556457	0.001599391	-0.001211121	0.04825617	-0.03654145
1.593295	-0.01520935	-0.1556457	0	0	-0.04845345	0.03669083
1.61028	-0.01520935	-0.1556457	0	0	0	0
1.626429	-0.01520935	-0.1556457	0	0	0	0
1.642993	-0.01520935	-0.1556457	0	0	0	0
1.659562	-0.01520935	-0.1556457	0	0	0	0
1.676194	-0.01520935	-0.1556457	0	0	0	0
1.692696	-0.01520935	-0.1556457	0	0	0	0
1.709262	-0.01520935	-0.1556457	0	0	0	0
1.725888	-0.01518304	-0.1556656	0.001582453	-0.001197399	0.04767465	-0.0360741
1.742396	-0.01518304	-0.1556656	0	0	-0.04776041	0.036139
1.758963	-0.01518304	-0.1556656	0	0	0	0
1.775529	-0.01518304	-0.1556656	0	0	0	0
1.792093	-0.01518304	-0.1556656	0	0	0	0
1.809156	-0.01518304	-0.1556656	0	0	0	0
1.833304	-0.01518304	-0.1556656	0	0	0	0
1.85016	-0.01518304	-0.1556656	0	0	0	0
1.86644	-0.01518304	-0.1556656	0	0	0	0
1.883007	-0.01518304	-0.1556656	0	0	0	0
1.899571	-0.01518304	-0.1556656	0	0	0	0
1.91614	-0.01518304	-0.1556656	0	0	0	0
1.932706	-0.01518304	-0.1556656	0	0	0	0
1.949273	-0.01518304	-0.1556656	0	0	0	0
1.96584	-0.01518304	-0.1556656	0	0	0	0
1.982406	-0.01518304	-0.1556656	0	0	0	0
1.999274	-0.01518304	-0.1556656	0	0	0	0
2.015538	-0.01518304	-0.1556656	0	0	0	0
2.032107	-0.01518304	-0.1556656	0	0	0	0
2.048715	-0.01518304	-0.1556656	0	0	0	0
2.065267	-0.01518304	-0.1556656	0	0	0	0
2.08181	-0.01518304	-0.1556656	0	0	0	0
2.098378	-0.01518304	-0.1556656	0	0	0	0
2.114987	-0.01518304	-0.1556656	0	0	0	0
2.131511	-0.01518304	-0.1556656	0	0	0	0
2.148487	-0.01518304	-0.1556656	0	0	0	0
2.164638	-0.01518304	-0.1556656	0	0	0	0
2.181211	-0.01518304	-0.1556656	0	0	0	0
2.197781	-0.01518304	-0.1556656	0	0	0	0
2.214338	-0.01518304	-0.1556656	0	0	0	0
2.230912	-0.01518304	-0.1556656	0	0	0	0
2.247841	-0.01518304	-0.1556656	0	0	0	0
2.264091	-0.01518304	-0.1556656	0	0	0	0
2.280611	-0.01518304	-0.1556656	0	0	0	0
2.297178	-0.01518304	-0.1556656	0	0	0	0
2.314221	-0.01520935	-0.1556457	-0.001543724	0.001168094	-0.04593068	0.03475448
2.33031	-0.01520935	-0.1556457	0	0	0.04659304	-0.03525567
2.346879	-0.01520935	-0.1556457	0	0	0	0
2.363442	-0.01520935	-0.1556457	0	0	0	0
2.380011	-0.01520935	-0.1556457	0	0	0	0
2.3967	-0.01520935	-0.1556457	0	0	0	0
2.413137	-0.01520935	-0.1556457	0	0	0	0
2.429707	-0.01520935	-0.1556457	0	0	0	0
2.446684	-0.01520935	-0.1556457	0	0	0	0
2.46284	-0.01520935	-0.1556457	0	0	0	0
2.479501	-0.01520935	-0.1556457	0	0	0	0
2.496898	-0.01520935	-0.1556457	0	0	0	0
2.514818	-0.01523566	-0.1556258	-0.001468222	0.001111795	-0.04157273	0.03148049
2.531409	-0.01523566	-0.1556258	0	0	0.04254378	-0.0322158
2.547954	-0.01523566	-0.1556258	0	0	0	0
2.568237	-0.01526197	-0.1556059	-0.00129717	0.0009822678	-0.03522281	0.02667208
2.584932	-0.01526197	-0.1556059	0	0	0.03507951	-0.02656357
2.601457	-0.01526197	-0.1556059	0	0	0	0
2.617938	-0.01526197	-0.1556059	0	0	0	0
2.634506	-0.01526197	-0.1556059	0	0	0	0
2.651074	-0.01523566	-0.1556258	0.001587998	-0.001202494	0.0479238	-0.03628977
2.667641	-0.01523566	-0.1556258	0	0	-0.04792553	0.03629108
2.684209	-0.01523566	-0.1556258	0	0	0	0
2.700771	-0.01523566	-0.1556258	0	0	0	0
2.717341	-0.01523566	-0.1556258	0	0	0	0
2.733908	-0.01523566	-0.1556258	0	0	0	0
2.750472	-0.01523566	-0.1556258	0	0	0	0
2.767528	-0.01523566	-0.1556258	0	0	0	0
2.783607	-0.01523566	-0.1556258	0	0	0	0
2.800172	-0.01523566	-0.1556258	0	0	0	0
2.816741	-0.01523566	-0.1556258	0	0	0	0
2.833308	-0.01523566	-0.1556258	0	0	0	0
2.849873	-0.01523566	-0.1556258	0	0	0	0
2.866441	-0.01523566	-0.1556258	0	0	0	0
2.883008	-0.01523566	-0.1556258	0	0	0	0
2.899574	-0.01523566	-0.1556258	0	0	0	0
2.916142	-0.01523566	-0.1556258	0	0	0	0
2.932709	-0.01523566	-0.1556258	0	0	0	0
2.949832	-0.01523566	-0.1556258	0	0	0	0
2.966771	-0.01523566	-0.1556258	0	0	0	0
2.98297	-0.01523566	-0.1556258	0	0	0	0
2.999534	-0.01526197	-0.1556059	-0.001588341	0.001202754	-0.048479	0.03671019
3.016103	-0.01526197	-0.1556059	0	0	0.04793829	-0.03630074
3.03267	-0.01526197	-0.1556059	0	0	0	0
3.049237	-0.01526197	-0.1556059	0	0	0	0
3.065803	-0.01526197	-0.1556059	0	0	0	0
3.082369	-0.01526197	-0.1556059	0	0	0	0
3.098934	-0.01526197	-0.1556059	0	0	0	0
3.115503	-0.01526197	-0.1556059	0	0	0	0
3.13207	-0.01526197	-0.1556059	0	0	0	0
3.148634	-0.01526197	-0.1556059	0	0	0	0
3.165203	-0.01526197	-0.1556059	0	0	0	0
3.181769	-0.01526197	-0.1556059	0	0	0	0
3.198334	-0.01526197	-0.1556059	0	0	0	0
3.21524	-0.01526197	-0.1556059	0	0	0	0
3.231467	-0.01526197	-0.1556059	0	0	0	0
3.248034	-0.01528828	-0.155586	-0.001587987	0.001202528	-0.04842205	0.03666836
3.264606	-0.01528828	-0.155586	0	0	0.04791866	-0.03628716
3.281173	-0.01528828	-0.155586	0	0	0	0
3.297741	-0.01528828	-0.155586	0	0	0	0
3.314305	-0.01528828	-0.155586	0	0	0	0
3.330874	-0.01528828	-0.155586	0	0	0	0
3.347433	-0.01531459	-0.1555661	-0.001588844	0.001202235	-0.04796107	0.03629082
3.364006	-0.01531459	-0.1555661	0	0	0.0479552	-0.03628638
3.380573	-0.01531459	-0.1555661	0	0	0	0
3.397134	-0.01531459	-0.1555661	0	0	0	0
3.413708	-0.01531459	-0.1555661	0	0	0	0
3.430273	-0.01531459	-0.1555661	0	0	0	0
3.447697	-0.01531459	-0.1555661	0	0	0	0
3.463408	-0.01531459	-0.1555661	0	0	0	0
3.479972	-0.01531459	-0.1555661	0	0	0	0
3.496598	-0.01531459	-0.1555661	0	0	0	0
3.513108	-0.01531459	-0.1555661	0	0	0	0
3.529674	-0.01531459	-0.1555661	0	0	0	0
3.546233	-0.01531459	-0.1555661	0	0	0	0
3.562808	-0.01531459	-0.1555661	0	0	0	0
3.579369	-0.01531459	-0.1555661	0	0	0	0
3.595934	-0.0153409	-0.1555461	-0.001588295	0.001202719	-0.04794691	0.03630727
3.612504	-0.0153409	-0.1555461	0	0	0.04793484	-0.03629813
3.629541	-0.0153409	-0.1555461	0	0	0	0
3.645633	-0.0153409	-0.1555063	0	0.002476146	0	0.07474153
3.662204	-0.0153409	-0.1555063	0	0	0	-0.07581086
3.67877	-0.0153409	-0.1555063	0	0	0	0
3.695336	-0.0153409	-0.1555063	0	0	0	0
3.712057	-0.0153409	-0.1555063	0	0	0	0
3.728658	-0.0153409	-0.1555063	0	0	0	0
3.745036	-0.0153409	-0.1555063	0	0	0	0
3.761602	-0.0153409	-0.1555063	0	0	0	0
3.778623	-0.0153409	-0.1555063	0	0	0	0
3.795129	-0.0153409	-0.1555063	0	0	0	0
3.811303	-0.0153409	-0.1555063	0	0	0	0
3.827869	-0.0153409	-0.1555063	0	0	0	0
3.844433	-0.0153409	-0.1555063	0	0	0	0
3.861003	-0.0153409	-0.1555063	0	0	0	0
3.877723	-0.0153409	-0.1555063	0	0	0	0
3.896627	-0.0153409	-0.1555063	0	0	0	0
3.913199	-0.0153409	-0.1555063	0	0	0	0
3.92986	-0.0153409	-0.1555063	0	0	0	0
3.946328	-0.0153409	-0.1555063	0	0	0	0
3.962901	-0.0153409	-0.1555063	0	0	0	0
3.97947	-0.0153409	-0.1555063	0	0	0	0
3.996028	-0.0153409	-0.1555063	0	0	0	0
4.012597	-0.0153409	-0.1555063	0	0	0	0
4.029164	-0.0153409	-0.1555063	0	0	0	0
4.04573	-0.0153409	-0.1555063	0	0	0	0
4.062298	-0.0153409	-0.1555063	0	0	0	0
4.078864	-0.0153409	-0.1555063	0	0	0	0
4.095428	-0.0153409	-0.1555063	0	0	0	0
4.111997	-0.0153409	-0.1555063	0	0	0	0
4.128691	-0.0153409	-0.1555063	0	0	0	0
4.145131	-0.0153409	-0.1555063	0	0	0	0
4.161696	-0.0153409	-0.1555063	0	0	0	0
4.178691	-0.0153409	-0.1555063	0	0	0	0
4.194943	-0.0153409	-0.1555063	0	0	0	0
4.211522	-0.0153409	-0.1555063	0	0	0	0
4.228033	-0.0153409	-0.1555063	0	0	0	0
4.244527	-0.01528828	-0.155586	0.003190274	-0.004830695	0.09665962	-0.1463615
4.261097	-0.01528828	-0.155586	0	0	-0.09648816	0.1461018
4.277781	-0.01528828	-0.155586	0	0	0	0
4.294229	-0.01491995	-0.1558648	0.02239336	-0.01695536	0.6758816	-0.5117505
4.367682	-0.01491995	-0.1558648	0	0	-0.2490892	0.1886004
4.384607	-0.01491995	-0.1558648	0	0	0	0
4.401173	0.0405567	-0.1981917	3.348866	-2.555075	99.99261	-76.2911
4.417743	0.0405567	-0.1981917	0	0	-101.0631	77.10789
4.434308	0.0405567	-0.1981917	0	0	0	0
4.450873	0.07601117	-0.2257772	2.140282	-1.665254	64.60222	-50.26398
4.467459	0.07601117	-0.2257772	0	0	-64.56133	50.23217
4.484009	0.07601117	-0.2257772	0	0	0	0
4.500576	0.1112493	-0.2537179	2.1271	-1.686601	64.23112	-50.92958
4.517141	0.1112493	-0.2537179	0	0	-64.20061	50.9054
4.533709	0.1112493	-0.2537179	0	0	0	0
4.550276	0.1421402	-0.276821	1.864633	-1.394545	56.27474	-42.08746
4.566842	0.1421402	-0.276821	0	0	-56.27717	42.08928
4.583408	0.1421402	-0.276821	0	0	0	0
4.599976	0.167546	-0.2825086	1.533497	-0.3433075	46.28236	-10.36134
4.616539	0.167546	-0.2825086	0	0	-46.28569	10.36208
4.633109	0.167546	-0.2825086	0	0	0	0
4.649673	0.1999246	-0.28181	1.954772	0.04218125	58.99683	1.273069
4.666242	0.1999246	-0.28181	0	0	-58.99768	-1.273088
4.682808	0.1999246	-0.28181	0	0	0	0
4.699374	0.2136116	-0.288065	0.8262423	-0.3775997	24.93819	-11.39696
4.715942	0.2136116	-0.288065	0	0	-24.93676	11.39631
4.732509	0.2136116	-0.288065	0	0	0	0
4.749074	0.2166005	-0.2905942	0.1804366	-0.1526868	5.446058	-4.608495
4.765643	0.2166005	-0.2905942	0	0	-5.445666	4.608164
4.782208	0.2166005	-0.2905942	0	0	0	0
4.798776	0.2168515	-0.2905092	0.01514966	0.005135631	0.4572375	0.1550003
4.815342	0.2168515	-0.2905092	0	0	-0.4572177	-0.1549937
4.83191	0.2168515	-0.2905092	0	0	0	0
4.848473	0.2168766	-0.2904879	0.001515043	0.001284727	0.04572999	0.03877817
4.865042	0.2168766	-0.2904879	0	0	-0.04572736	-0.03877594
4.881608	0.2168766	-0.2904879	0	0	0	0
4.898173	0.2168766	-0.2904879	0	0	0	0
4.914805	0.2168766	-0.2904879	0	0	0	0
4.931307	0.2168766	-0.2904879	0	0	0	0
4.948113	0.2169519	-0.2905517	0.004479232	-0.00379653	0.134479	-0.1139824
4.964439	0.2169519	-0.2905517	0	0	-0.1351913	0.1145861
4.981006	0.2169519	-0.2905517	0	0	0	0
4.997572	0.2169519	-0.2905517	0	0	0	0
5.01414	0.2169519	-0.2905517	0	0	0	0
5.030712	0.2169519	-0.2905517	0	0	0	0
5.047273	0.2169268	-0.290573	-0.001515217	-0.001284875	-0.04573066	-0.03877873
5.06384	0.2169268	-0.290573	0	0	0.04573856	0.03878542
5.080412	0.2169268	-0.290573	0	0	0	0
5.096974	0.2168766	-0.2905304	-0.003030347	0.002567877	-0.09145736	0.07749979
5.113548	0.2168766	-0.2905304	0	0	0.09145341	-0.07749645
5.130113	0.2168766	-0.2905304	0	0	0	0
5.146675	0.2168515	-0.2905092	-0.001515173	0.001284838	-0.04573856	0.03878542
5.163247	0.2168515	-0.2905092	0	0	0.04572868	-0.03877705
5.179813	0.2168515	-0.2905092	0	0	0	0
5.196562	0.2167762	-0.2904879	-0.004495552	0.001270463	-0.13494	0.03813465
5.212946	0.2167762	-0.2904879	0	0	0.1356819	-0.03834429
5.229652	0.2167762	-0.2904879	0	0	0	0
5.251874	0.2167009	-0.2904666	-0.003388328	0.0009562153	-0.08704083	0.02456367
5.26869	0.2167009	-0.2904666	0	0	0.08679629	-0.02449466
5.28513	0.2166507	-0.2904666	-0.003053755	0	-0.09182817	0
5.301578	0.2166507	-0.2904666	0	0	0.09285334	0
5.318145	0.2166507	-0.2904666	0	0	0	0
5.334712	0.2166256	-0.2904454	-0.001515593	0.001284431	-0.04574201	0.03876533
5.351992	0.2166256	-0.2904454	0	0	0.04477733	-0.03794779
5.367845	0.2166256	-0.2904454	0	0	0	0
5.384412	0.2166005	-0.2904666	-0.00151465	-0.001284394	-0.04672008	-0.03961774
5.400978	0.2166005	-0.2904666	0	0	0.04571354	0.03876422
5.417545	0.2166005	-0.2904666	0	0	0	0
5.434112	0.2165754	-0.2904879	-0.001515549	-0.001282596	-0.04574003	-0.03870937
5.450679	0.2165754	-0.2904879	0	0	0.04574003	0.03870937
5.467245	0.2165754	-0.2904879	0	0	0	0
5.483812	0.2164499	-0.2904241	-0.007575049	0.003849586	-0.228622	0.1161841
5.500378	0.2164499	-0.2904241	0	0	0.2286253	-0.1161857
5.516945	0.2164499	-0.2904241	0	0	0	0
5.53351	0.2099644	-0.2848606	-0.3915196	0.3358599	-11.81694	10.137
5.550078	0.2099644	-0.2848606	0	0	11.81677	-10.13686
5.566645	0.2099644	-0.2848606	0	0	0	0
5.583212	0.1722497	-0.253551	-2.276468	1.889851	-68.70393	57.03583
5.599779	0.1722497	-0.253551	0	0	68.70493	-57.03665
5.616346	0.1722497	-0.253551	0	0	0	0
5.632911	0.1382441	-0.2261681	-2.052876	1.653078	-61.96126	49.8943
5.649636	0.1382441	-0.2261681	0	0	61.6666	-49.65703
5.666043	0.1382441	-0.2261681	0	0	0	0
5.68261	0.1233184	-0.2143721	-0.9009678	0.7120443	-27.32377	21.59427
5.699179	0.1233184	-0.2143721	0	0	27.19009	-21.48861
5.715819	0.1233184	-0.2143721	0	0	0	0
5.73231	0.09919964	-0.1962842	-1.462548	1.096838	-44.14424	33.10599
5.748879	0.09919964	-0.1962842	0	0	44.23975	-33.17761
5.765711	0.09919964	-0.1962842	0	0	0	0
5.782133	0.06328381	-0.1721583	-2.18702	1.469097	-65.76682	44.17788
5.798704	0.06328381	-0.1721583	0	0	66.2877	-44.52777
5.815271	0.06328381	-0.1721583	0	0	0	0
5.831837	0.03819195	-0.1556457	-1.514722	0.9968165	-45.71638	30.08528
5.84867	0.03819195	-0.1556457	0	0	45.35218	-29.84561
5.865239	0.03819195	-0.1556457	0	0	0	0
5.881534	0.02318006	-0.1443386	-0.9212599	0.6939058	-28.03323	21.11502
5.898102	0.02318006	-0.1443386	0	0	28.03282	-21.11471
5.914666	0.02318006	-0.1443386	0	0	0	0
5.931234	0.02078648	-0.1432088	-0.1444684	0.0681868	-4.360442	2.058059
5.947803	0.02078648	-0.1432088	0	0	4.359752	-2.057734
5.964502	0.02078648	-0.1432088	0	0	0	0
5.980933	0.001605262	-0.1577382	-1.16739	-0.8842758	-35.23596	-26.69057
5.997501	0.001605262	-0.1577382	0	0	35.377	26.7974
6.014235	0.001605262	-0.1577382	0	0	0	0
6.030635	-0.01731406	-0.1721182	-1.153627	-0.8768336	-34.81653	-26.46289
6.047709	-0.01731406	-0.1721182	0	0	34.46341	26.19449
6.063772	-0.01731406	-0.1721182	0	0	0	0
6.081858	-0.02104952	-0.1749689	-0.2065394	-0.1576226	-6.048237	-4.615774
6.098428	-0.02104952	-0.1749689	0	0	5.959692	4.5482
6.115203	-0.02104952	-0.1749689	0	0	0	0
6.131559	-0.02107583	-0.1749489	-0.001608235	0.001228098	-0.04854221	0.03706835
6.148126	-0.02107583	-0.1749489	0	0	0.04884875	-0.03730243
6.164693	-0.02107583	-0.1749489	0	0	0	0
6.181259	-0.02104952	-0.1749689	0.001587912	-0.001212579	0.04792535	-0.03659729
6.197825	-0.02104952	-0.1749689	0	0	-0.04792673	0.03659835
6.215079	-0.02104952	-0.1749689	0	0	0	0
6.230958	-0.02102322	-0.1749489	0.001656479	0.001264939	0.04999479	0.03817759
6.247526	-0.02102322	-0.1749489	0	0	-0.05105206	-0.03898494
6.264346	-0.02102322	-0.1749489	0	0	0	0
6.280663	-0.02102322	-0.1749489	0	0	0	0
6.297225	-0.02102322	-0.1749489	0	0	0	0
6.313792	-0.02102322	-0.1749489	0	0	0	0
6.330358	-0.02104952	-0.1749689	-0.001587866	-0.001212544	-0.04792328	-0.03659571
6.346933	-0.02104952	-0.1749689	0	0	0.04791294	0.03658781
6.363499	-0.02104952	-0.1749689	0	0	0	0
6.380059	-0.02099691	-0.1749689	0.003176739	0	0.09589762	0
6.396632	-0.02099691	-0.1749689	0	0	-0.0958783	0
6.413198	-0.02099691	-0.1749689	0	0	0	0
6.429759	-0.02097061	-0.174989	0.001588369	-0.001212928	0.04794743	-0.03661415
6.446332	-0.02097061	-0.174989	0	0	-0.04793915	0.03660783
6.462899	-0.02097061	-0.174989	0	0	0	0
6.479645	-0.0208917	-0.1750493	0.004712192	-0.003598377	0.1414489	-0.1080148
6.496031	-0.0208917	-0.1750493	0	0	-0.1422245	0.1086071
6.512599	-0.0208917	-0.1750493	0	0	0	0
6.52916	-0.02083909	-0.1750895	0.003176556	-0.002426617	0.09588382	-0.07324703
6.54592	-0.02083909	-0.1750895	0	0	-0.09532949	0.07282357
6.562298	-0.02083909	-0.1750895	0	0	0	0
6.58218	-0.02081278	-0.1751096	0.001323038	-0.001010313	0.03648836	-0.02786365
6.59875	-0.02081278	-0.1751096	0	0	-0.03629553	0.02771639
6.615316	-0.02081278	-0.1751096	0	0	0	0
6.631882	-0.02081278	-0.1751096	0	0	0	0
6.648449	-0.02081278	-0.1751096	0	0	0	0
6.665017	-0.02081278	-0.1751096	0	0	0	0
6.681581	-0.02081278	-0.1751096	0	0	0	0
6.69815	-0.02081278	-0.1751096	0	0	0	0
6.714717	-0.02081278	-0.1751096	0	0	0	0
6.731521	-0.02081278	-0.1751096	0	0	0	0
6.74785	-0.02081278	-0.1751096	0	0	0	0
6.764417	-0.02081278	-0.1751096	0	0	0	0
6.780982	-0.02078648	-0.1751297	0.001587866	-0.001212544	0.04792535	-0.03659729
6.79755	-0.02078648	-0.1751297	0	0	-0.04792397	0.03659624
6.814116	-0.02078648	-0.1751297	0	0	0	0
6.830681	-0.02073387	-0.1751698	0.003175915	-0.002426128	0.09585898	-0.07322805
6.84725	-0.02073387	-0.1751698	0	0	-0.09585208	0.07322279
6.863816	-0.02073387	-0.1751698	0	0	0	0
6.880381	-0.02073387	-0.1751698	0	0	0	0
6.896953	-0.02073387	-0.1751698	0	0	0	0
6.913519	-0.02073387	-0.1751698	0	0	0	0
6.930082	-0.02073387	-0.1751698	0	0	0	0
6.946649	-0.02073387	-0.1751698	0	0	0	0
6.963221	-0.02073387	-0.1751698	0	0	0	0
6.97978	-0.02070757	-0.1751899	0.001588506	-0.001213033	0.04794536	-0.03661257
6.996352	-0.02070757	-0.1751899	0	0	-0.04794605	0.0366131
7.013048	-0.02070757	-0.1751899	0	0	0	0
7.029481	-0.02068126	-0.17521	0.001600675	-0.001222325	0.04831681	-0.03689623
7.046052	-0.02068126	-0.17521	0	0	-0.04849901	0.03703535
7.06323	-0.02068126	-0.17521	0	0	0	0
7.079198	-0.02068126	-0.17521	0	0	0	0
7.095752	-0.02068126	-0.17521	0	0	0	0
7.112576	-0.02068126	-0.17521	0	0	0	0
7.128885	-0.02068126	-0.17521	0	0	0	0
7.145453	-0.02068126	-0.17521	0	0	0	0
7.162021	-0.02068126	-0.17521	0	0	0	0
7.178586	-0.02068126	-0.17521	0	0	0	0
7.195152	-0.02068126	-0.17521	0	0	0	0
7.21172	-0.02068126	-0.17521	0	0	0	0
7.228286	-0.02068126	-0.17521	0	0	0	0
7.244847	-0.02068126	-0.17521	0	0	0	0
7.261558	-0.02068126	-0.17521	0	0	0	0
7.27798	-0.02065496	-0.1752301	0.001601697	-0.001223106	0.04834141	-0.03691501
7.294549	-0.02065496	-0.1752301	0	0	-0.04854892	0.03707347
7.311683	-0.02065496	-0.1752301	0	0	0	0
7.327682	-0.02062865	-0.1752502	0.001644253	-0.001256445	0.04962579	-0.03792123
7.344247	-0.02062865	-0.1752502	0	0	-0.05049271	0.03858368
7.360816	-0.02062865	-0.1752502	0	0	0	0
7.377383	-0.02060235	-0.1752703	0.001587729	-0.001212439	0.04791638	-0.03659044
7.394234	-0.02060235	-0.1752703	0	0	-0.04751094	0.03628084
7.410517	-0.02060235	-0.1752703	0	0	0	0
7.427083	-0.02060235	-0.1752703	0	0	0	0
7.44365	-0.02060235	-0.1752703	0	0	0	0
7.460216	-0.02060235	-0.1752703	0	0	0	0
7.476894	-0.02060235	-0.1752703	0	0	0	0
7.493399	-0.02060235	-0.1752703	0	0	0	0
7.510052	-0.02060235	-0.1752703	0	0	0	0
7.52648	-0.02057604	-0.1752904	0.001601186	-0.001222716	0.0484026	-0.03696174
7.54312	-0.02057604	-0.1752904	0	0	-0.04842075	0.0369756
7.559616	-0.02057604	-0.1752904	0	0	0	0
7.576182	-0.02054974	-0.1753105	0.001587821	-0.001212509	0.04802488	-0.0366733
7.592994	-0.02054974	-0.1753105	0	0	-0.04757138	0.03632699
7.610185	-0.02054974	-0.1753105	0	0	0	0
7.625881	-0.02039191	-0.175431	0.01005505	-0.007681018	0.3057412	-0.2335546
7.642447	-0.02039191	-0.175431	0	0	-0.3116608	0.2380766
7.659016	-0.02039191	-0.175431	0	0	0	0
7.67558	-0.0203393	-0.1754712	0.003176098	-0.002425368	0.09586173	-0.07320301
7.692145	-0.0203393	-0.1754712	0	0	-0.09586863	0.07320828
7.708713	-0.0203393	-0.1754712	0	0	0	0
7.725279	-0.02028669	-0.1755114	0.003175662	-0.002425848	0.09584305	-0.0732133
7.742178	-0.02028669	-0.1755114	0	0	-0.09489258	0.07248725
7.758412	-0.02028669	-0.1755114	0	0	0	0
7.774979	-0.02028669	-0.1755114	0	0	0	0
7.791546	-0.02028669	-0.1755114	0	0	0	0
7.808113	-0.02028669	-0.1755114	0	0	0	0
7.824679	-0.02023408	-0.1755918	0.003175754	-0.004851836	0.09584858	-0.146435
7.841246	-0.02023408	-0.1755918	0	0	-0.0958472	0.1464329
7.857812	-0.02023408	-0.1755918	0	0	0	0
7.874379	-0.02007625	-0.1757123	0.00952726	-0.007277755	0.2875499	-0.2196557
7.890945	-0.02007625	-0.1757123	0	0	-0.2875457	0.2196525
7.907513	-0.02007625	-0.1757123	0	0	0	0
7.924083	-0.02004994	-0.1757324	0.001587455	-0.001213129	0.04790535	-0.03660916
7.940649	-0.02004994	-0.1757324	0	0	-0.04790673	0.03661021
7.957212	-0.02004994	-0.1757324	0	0	0	0
7.973779	-0.02004994	-0.1757324	0	0	0	0
7.990346	-0.02004994	-0.1757324	0	0	0	0
8.006916	-0.02004994	-0.1757324	0	0	0	0
8.023482	-0.02004994	-0.1757324	0	0	0	0
8.040049	-0.02004994	-0.1757324	0	0	0	0
8.056615	-0.02004994	-0.1757324	0	0	0	0
8.073179	-0.02004994	-0.1757324	0	0	0	0
8.089748	-0.02004994	-0.1757324	0	0	0	0
8.106317	-0.02004994	-0.1757324	0	0	0	0
8.122879	-0.02004994	-0.1757324	0	0	0	0
8.140175	-0.02004994	-0.1757324	0	0	0	0
8.156015	-0.02004994	-0.1757324	0	0	0	0
8.17258	-0.02004994	-0.1757324	0	0	0	0
8.189146	-0.02004994	-0.1757324	0	0	0	0
8.208907	-0.02004994	-0.1757324	0	0	0	0
8.225474	-0.02004994	-0.1757324	0	0	0	0
8.242041	-0.02004994	-0.1757324	0	0	0	0
8.258834	-0.02004994	-0.1757324	0	0	0	0
8.275174	-0.02004994	-0.1757324	0	0	0	0
8.29174	-0.02004994	-0.1757324	0	0	0	0
8.308307	-0.02004994	-0.1757324	0	0	0	0
8.324874	-0.02002364	-0.1757525	0.001587842	-0.001212439	0.04792254	-0.03659255
8.34144	-0.02002364	-0.1757525	0	0	-0.04792254	0.03659255
8.358006	-0.02002364	-0.1757525	0	0	0	0
8.374573	-0.02002364	-0.1757525	0	0	0	0
8.441158	-0.02002364	-0.1757525	0	0	0	0
8.458206	-0.02002364	-0.1757525	0	0	0	0
8.476357	-0.01994472	-0.1758128	0.004347609	-0.003321534	0.1235146	-0.09436399
8.492926	-0.01994472	-0.1758128	0	0	-0.1252211	0.09566776
8.509808	-0.01994472	-0.1758128	0	0	0	0
8.526224	-0.01989211	-0.175853	0.003204718	-0.002448044	0.09624214	-0.07351816
8.542628	-0.01989211	-0.175853	0	0	-0.09764319	0.0745884
8.559863	-0.01989211	-0.175853	0	0	0	0
8.599248	-0.01989211	-0.175853	0	0	0	0
8.615819	-0.01989211	-0.175853	0	0	0	0
8.632381	-0.01989211	-0.175853	0	0	0	0
8.648949	-0.01989211	-0.175853	0	0	0	0
8.665518	-0.01989211	-0.175853	0	0	0	0
8.682084	-0.01989211	-0.175853	0	0	0	0
8.698703	-0.01989211	-0.175853	0	0	0	0
8.715642	-0.01989211	-0.175853	0	0	0	0
8.731785	-0.01989211	-0.175853	0	0	0	0
8.748351	-0.01989211	-0.175853	0	0	0	0
8.764917	-0.01989211	-0.175853	0	0	0	0
8.781485	-0.01989211	-0.175853	0	0	0	0
8.798051	-0.01989211	-0.175853	0	0	0	0
8.81462	-0.01989211	-0.175853	0	0	0	0
8.831189	-0.01989211	-0.175853	0	0	0	0
8.847798	-0.01989211	-0.175853	0	0	0	0
8.864614	-0.01989211	-0.175853	0	0	0	0
8.880885	-0.01986581	-0.1758731	0.001616786	-0.001235457	0.04886502	-0.03733989
8.897451	-0.01986581	-0.1758731	0	0	-0.04923684	0.03762402
8.914019	-0.01986581	-0.1758731	0	0	0	0
8.930585	-0.01986581	-0.1758731	0	0	0	0
8.947152	-0.01986581	-0.1758731	0	0	0	0
8.963718	-0.01986581	-0.1758731	0	0	0	0
8.980283	-0.01986581	-0.1758731	0	0	0	0
8.996852	-0.01986581	-0.1758731	0	0	0	0
9.013544	-0.01986581	-0.1758731	0	0	0	0
9.029983	-0.01986581	-0.1758731	0	0	0	0
9.046552	-0.01986581	-0.1758731	0	0	0	0
9.063401	-0.01986581	-0.1758731	0	0	0	0
9.079683	-0.01986581	-0.1758731	0	0	0	0
9.096252	-0.01986581	-0.1758731	0	0	0	0
9.112823	-0.01986581	-0.1758731	0	0	0	0
9.129387	-0.01986581	-0.1758731	0	0	0	0
9.14617	-0.01986581	-0.1758731	0	0	0	0
9.162659	-0.01986581	-0.1758731	0	0	0	0
9.179203	-0.01986581	-0.1758731	0	0	0	0
9.195656	-0.01986581	-0.1758731	0	0	0	0
9.212225	-0.01986581	-0.1758731	0	0	0	0
9.229039	-0.01986581	-0.1758731	0	0	0	0
9.245358	-0.01986581	-0.1758731	0	0	0	0
9.26192	-0.01986581	-0.1758731	0	0	0	0
9.278489	-0.01986581	-0.1758731	0	0	0	0
9.295057	-0.01986581	-0.1758731	0	0	0	0
9.311622	-0.01986581	-0.1758731	0	0	0	0
9.328494	-0.01986581	-0.1758731	0	0	0	0
9.344755	-0.01986581	-0.1758731	0	0	0	0
9.361323	-0.01986581	-0.1758731	0	0	0	0
9.377994	-0.01986581	-0.1758731	0	0	0	0
9.394644	-0.01986581	-0.1758731	0	0	0	0
9.411025	-0.01986581	-0.1758731	0	0	0	0
9.427589	-0.01986581	-0.1758731	0	0	0	0
9.444156	-0.01986581	-0.1758731	0	0	0	0
9.460725	-0.01986581	-0.1758731	0	0	0	0
9.477286	-0.01986581	-0.1758731	0	0	0	0
9.493999	-0.01986581	-0.1758731	0	0	0	0
9.510419	-0.01986581	-0.1758731	0	0	0	0
9.526986	-0.01986581	-0.1758731	0	0	0	0
9.543552	-0.01986581	-0.1758731	0	0	0	0
9.560312	-0.01986581	-0.1758731	0	0	0	0
9.576687	-0.01986581	-0.1758731	0	0	0	0
9.593253	-0.01986581	-0.1758731	0	0	0	0
9.609994	-0.01986581	-0.1758731	0	0	0	0
9.626386	-0.01986581	-0.1758731	0	0	0	0
9.642952	-0.01986581	-0.1758731	0	0	0	0
9.659518	-0.01986581	-0.1758731	0	0	0	0
9.67615	-0.01986581	-0.1758731	0	0	0	0
9.692653	-0.01986581	-0.1758731	0	0	0	0
9.709219	-0.01986581	-0.1758731	0	0	0	0
9.725783	-0.01986581	-0.1758731	0	0	0	0
9.742351	-0.01986581	-0.1758731	0	0	0	0
9.75901	-0.01986581	-0.1758731	0	0	0	0
9.778063	-0.01986581	-0.1758731	0	0	0	0
9.794631	-0.01986581	-0.1758731	0	0	0	0
9.811203	-0.01986581	-0.1758731	0	0	0	0
9.827764	-0.01986581	-0.1758731	0	0	0	0
9.844331	-0.01986581	-0.1758731	0	0	0	0
9.861027	-0.01986581	-0.1758731	0	0	0	0
9.877463	-0.01986581	-0.1758731	0	0	0	0
9.894036	-0.01986581	-0.1758731	0	0	0	0
9.910979	-0.01986581	-0.1758731	0	0	0	0
9.931527	-0.01986581	-0.1758731	0	0	0	0
9.948098	-0.01986581	-0.1758731	0	0	0	0
9.964663	-0.01986581	-0.1758731	0	0	0	0
9.981232	-0.01986581	-0.1758731	0	0	0	0
9.997798	-0.01986581	-0.1758731	0	0	0	0
10.01436	-0.01986581	-0.1758731	0	0	0	0
10.03093	-0.01986581	-0.1758731	0	0	0	0
10.04772	-0.01986581	-0.1758731	0	0	0	0
10.06407	-0.01986581	-0.1758731	0	0	0	0
10.08063	-0.01986581	-0.1758731	0	0	0	0
10.0972	-0.01986581	-0.1758731	0	0	0	0
10.11413	-0.01986581	-0.1758731	0	0	0	0
10.13123	-0.01986581	-0.1758731	0	0	0	0
10.14757	-0.01986581	-0.1758731	0	0	0	0
10.16348	-0.01986581	-0.1758731	0	0	0	0
10.18003	-0.01986581	-0.1758731	0	0	0	0
10.1966	-0.01986581	-0.1758731	0	0	0	0
10.21316	-0.01986581	-0.1758731	0	0	0	0
10.22973	-0.01986581	-0.1758731	0	0	0	0
10.2463	-0.01986581	-0.1758731	0	0	0	0
10.26286	-0.01986581	-0.1758731	0	0	0	0
10.27943	-0.01986581	-0.1758731	0	0	0	0
10.296	-0.01986581	-0.1758731	0	0	0	0
10.31256	-0.01986581	-0.1758731	0	0	0	0
10.32913	-0.01986581	-0.1758731	0	0	0	0
10.3457	-0.01986581	-0.1758731	0	0	0	0
10.36227	-0.01986581	-0.1758731	0	0	0	0
10.37883	-0.01986581	-0.1758731	0	0	0	0
10.3954	-0.01986581	-0.1758731	0	0	0	0
10.41196	-0.01986581	-0.1758731	0	0	0	0
10.42862	-0.01986581	-0.1758731	0	0	0	0
10.4451	-0.01986581	-0.1758731	0	0	0	0
10.46167	-0.01986581	-0.1758731	0	0	0	0
10.47836	-0.01986581	-0.1758731	0	0	0	0
10.49504	-0.01986581	-0.1758731	0	0	0	0
10.51136	-0.01986581	-0.1758731	0	0	0	0
10.52794	-0.01986581	-0.1758731	0	0	0	0
10.54449	-0.01986581	-0.1758731	0	0	0	0
10.56106	-0.01986581	-0.1758731	0	0	0	0
10.57763	-0.01986581	-0.1758731	0	0	0	0
10.59419	-0.01986581	-0.1758731	0	0	0	0
10.61076	-0.01986581	-0.1758731	0	0	0	0
10.62733	-0.01986581	-0.1758731	0	0	0	0
10.6439	-0.01986581	-0.1758731	0	0	0	0
10.66048	-0.01986581	-0.1758731	0	0	0	0
10.67703	-0.01986581	-0.1758731	0	0	0	0
10.69373	-0.01986581	-0.1758731	0	0	0	0
10.71016	-0.01986581	-0.1758731	0	0	0	0
10.72673	-0.01986581	-0.1758731	0	0	0	0
10.74329	-0.01986581	-0.1758731	0	0	0	0
10.75986	-0.01986581	-0.1758731	0	0	0	0
10.77643	-0.01986581	-0.1758731	0	0	0	0
10.79317	-0.01986581	-0.1758731	0	0	0	0
10.80956	-0.01986581	-0.1758731	0	0	0	0
10.82613	-0.01986581	-0.1758731	0	0	0	0
10.84269	-0.01986581	-0.1758731	0	0	0	0
10.85926	-0.01986581	-0.1758731	0	0	0	0
10.87583	-0.01986581	-0.1758731	0	0	0	0
10.8924	-0.01986581	-0.1758731	0	0	0	0
10.90897	-0.01989211	-0.175853	-0.001587293	0.00121292	-0.04789634	0.03659968
10.92553	-0.01989211	-0.175853	0	0	0.04790461	-0.036606
10.94232	-0.01989211	-0.175853	0	0	0	0
10.95925	-0.01989211	-0.175853	0	0	0	0
10.97523	-0.01989211	-0.175853	0	0	0	0
10.9922	-0.01989211	-0.175853	0	0	0	0
11.00836	-0.01989211	-0.175853	0	0	0	0
11.02493	-0.01989211	-0.175853	0	0	0	0
11.0415	-0.01989211	-0.175853	0	0	0	0
11.05806	-0.01989211	-0.175853	0	0	0	0
11.07463	-0.01989211	-0.175853	0	0	0	0
11.09119	-0.01989211	-0.175853	0	0	0	0
11.10776	-0.01986581	-0.1758731	0.001587933	-0.001213409	0.04792529	-0.03662181
11.12433	-0.01986581	-0.1758731	0	0	-0.04792805	0.03662391
11.14097	-0.01986581	-0.1758731	0	0	0	0
11.15746	-0.01989211	-0.175853	-0.00159528	0.001219023	-0.0481498	0.03679336
11.17403	-0.01989211	-0.175853	0	0	0.04825397	-0.03687296
11.19059	-0.01989211	-0.175853	0	0	0	0
11.20716	-0.01989211	-0.175853	0	0	0	0
11.22372	-0.01989211	-0.175853	0	0	0	0
11.24081	-0.01989211	-0.175853	0	0	0	0
11.25686	-0.01989211	-0.175853	0	0	0	0
11.27343	-0.01989211	-0.175853	0	0	0	0
11.28999	-0.01989211	-0.175853	0	0	0	0
11.30657	-0.01991842	-0.1758329	-0.001586907	0.001211812	-0.04788193	0.03656413
11.32313	-0.01991842	-0.1758329	0	0	0.04789433	-0.0365736
11.34002	-0.01991842	-0.1758329	0	0	0	0
11.35626	-0.01991842	-0.1758329	0	0	0	0
11.37283	-0.01991842	-0.1758329	0	0	0	0
11.39008	-0.01991842	-0.1758329	0	0	0	0
11.40596	-0.01991842	-0.1758329	0	0	0	0
11.42253	-0.01991842	-0.1758329	0	0	0	0
11.43909	-0.01991842	-0.1758329	0	0	0	0
11.45566	-0.01991842	-0.1758329	0	0	0	0
11.47263	-0.01991842	-0.1758329	0	0	0	0
11.48879	-0.01991842	-0.1758329	0	0	0	0
11.50772	-0.01991842	-0.1758329	0	0	0	0
11.52429	-0.01991842	-0.1758329	0	0	0	0
11.54095	-0.01991842	-0.1758329	0	0	0	0
11.55842	-0.01989211	-0.1758128	0.001506063	0.00115093	0.04412958	0.03372372
11.57499	-0.01989211	-0.1758128	0	0	-0.04425324	-0.03381823
11.59175	-0.01989211	-0.1758128	0	0	0	0
11.60812	-0.01986581	-0.1757927	0.001607271	0.001228186	0.04851032	0.03706886
11.62469	-0.01986581	-0.1757927	0	0	-0.04880392	-0.0372932
11.64125	-0.01986581	-0.1757927	0	0	0	0
11.65782	-0.01962906	-0.1756521	0.01429106	0.008490263	0.4313299	0.2562514
11.67439	-0.01962906	-0.1756521	0	0	-0.4312926	-0.2562293
11.69097	-0.01962906	-0.1756521	0	0	0	0
11.70791	-0.007341973	-0.1802181	0.7255288	-0.2696188	21.64359	-8.043124
11.72409	-0.007341973	-0.1802181	0	0	-21.91101	8.142502
11.7408	-0.007341973	-0.1802181	0	0	0	0
11.75736	0.04785816	-0.183785	3.333806	-0.2154193	100.1906	-6.473976
11.77393	0.04785816	-0.183785	0	0	-100.6347	6.502677
11.7905	0.04785816	-0.183785	0	0	0	0
11.80706	0.111899	-0.1921909	3.865737	-0.5074082	116.6749	-15.31449
11.82363	0.111899	-0.1921909	0	0	-116.6749	15.31449
11.84075	0.111899	-0.1921909	0	0	0	0
11.85679	0.163296	-0.1974001	3.204714	-0.324808	96.64059	-9.794832
11.87333	0.163296	-0.1974001	0	0	-98.37197	9.970313
11.88994	0.163296	-0.1974001	0	0	0	0
11.91246	0.1733478	-0.1887114	0.4464034	0.3858676	11.40899	9.861837
11.92903	0.1733478	-0.1887114	0	0	-11.42068	-9.871943
11.94638	0.1733733	-0.1887317	0.00147072	-0.001164212	0.0433508	-0.03431622
11.96216	0.1733733	-0.1887317	0	0	-0.04439024	0.03513903
11.9788	0.1733733	-0.1887317	0	0	0	0
11.99529	0.1732967	-0.1888732	-0.004642878	-0.008577581	-0.1401264	-0.2588794
12.01246	0.1732967	-0.1888732	0	0	0.1379309	0.2548234
12.02843	0.1732967	-0.1888732	0	0	0	0
12.04499	0.1731946	-0.1888327	-0.006166508	0.002440872	-0.1895203	0.07501729
12.06157	0.1731946	-0.1888327	0	0	0.1861056	-0.07366566
12.07813	0.1731946	-0.1888327	0	0	0	0
12.09483	0.173118	-0.1888125	-0.004586771	0.001210708	-0.1378814	0.03639467
12.11127	0.173118	-0.1888125	0	0	0.138425	-0.03653818
12.12842	0.173118	-0.1888125	0	0	0	0
12.14439	0.1729648	-0.188853	-0.009589128	-0.002531112	-0.2894671	-0.0764067
12.16097	0.1729648	-0.188853	0	0	0.2945895	0.0777588
12.17753	0.1729648	-0.188853	0	0	0	0
12.19409	0.1729392	-0.1888327	-0.001542343	0.001221097	-0.04655874	0.03686126
12.21067	0.1729392	-0.1888327	0	0	0.04655069	-0.0368549
12.2275	0.1729392	-0.1888327	0	0	0	0
12.24379	0.1728626	-0.1889338	-0.004701951	-0.006203721	-0.1419378	-0.1872718
12.26037	0.1728626	-0.1889338	0	0	0.1430622	0.1887553
12.27741	0.1728626	-0.1889338	0	0	0	0
12.2935	0.1727605	-0.1890551	-0.006347599	-0.007537484	-0.1915874	-0.2275013
12.31006	0.1727605	-0.1890551	0	0	0.1943624	0.2307965
12.32696	0.1727605	-0.1890551	0	0	0	0
12.3432	0.172122	-0.189601	-0.03931804	-0.03361453	-1.186655	-1.014518
12.35977	0.172122	-0.189601	0	0	1.198417	1.024574
12.37633	0.172122	-0.189601	0	0	0	0
12.39289	0.1707934	-0.1906932	-0.08020756	-0.06593734	-2.421226	-1.990451
12.40946	0.1707934	-0.1906932	0	0	2.420738	1.99005
12.42653	0.1707934	-0.1906932	0	0	0	0
12.44259	0.1707934	-0.1906932	0	0	0	0
12.45916	0.1707934	-0.1906932	0	0	0	0
12.53877	0.1707934	-0.1906932	0	0	0	0
12.55598	0.1707678	-0.190673	-0.001485003	0.001175014	-0.01533885	0.01213692
12.57268	0.1707678	-0.190673	0	0	0.04379027	-0.03464921
12.58911	0.1707678	-0.190673	0	0	0	0
12.60568	0.1707678	-0.190673	0	0	0	0
12.62846	0.1707678	-0.190673	0	0	0	0
12.64503	0.1707678	-0.190673	0	0	0	0
12.66171	0.1705122	-0.1904707	-0.01532565	0.01213203	-0.4610165	0.3649479
12.67817	0.1705122	-0.1904707	0	0	0.4624493	-0.3660821
12.69474	0.1705122	-0.1904707	0	0	0	0
12.7113	0.1698477	-0.190228	-0.04013011	0.01465682	-1.211408	0.4424455
12.72787	0.1698477	-0.190228	0	0	1.211164	-0.4423563
12.74445	0.1698477	-0.190228	0	0	0	0
12.761	0.1694386	-0.1903089	-0.02471318	-0.004887539	-0.7459095	-0.147519
12.77757	0.1694386	-0.1903089	0	0	0.7461458	0.1475657
12.79414	0.1694386	-0.1903089	0	0	0	0
12.81071	0.1682111	-0.1893381	-0.07408766	0.05858858	-2.236034	1.768258
12.82727	0.1682111	-0.1893381	0	0	2.236228	-1.76841
12.84384	0.1682111	-0.1893381	0	0	0	0
12.8604	0.1663177	-0.1878829	-0.114332	0.08787612	-3.450944	2.652412
12.87697	0.1663177	-0.1878829	0	0	3.450646	-2.652183
12.89354	0.1663177	-0.1878829	0	0	0	0
12.91015	0.1658826	-0.1878223	-0.02619356	0.003649033	-0.7894099	0.1099729
12.92676	0.1658826	-0.1878223	0	0	0.7885261	-0.1098498
12.94324	0.1658826	-0.1878223	0	0	0	0
12.9598	0.158604	-0.1828575	-0.4393646	0.2996922	-13.29602	9.069265
12.97637	0.158604	-0.1828575	0	0	13.26005	-9.044728
12.99294	0.158604	-0.1828575	0	0	0	0
13.0095	0.0954981	-0.16867	-3.809077	0.8563592	-114.9648	25.84646
13.02614	0.0954981	-0.16867	0	0	114.7138	-25.79004
13.04263	0.0954981	-0.16867	0	0	0	0
13.0592	0.01213098	-0.1618091	-5.032339	0.4141466	-152.2268	12.52781
13.07577	0.01213098	-0.1618091	0	0	151.8806	-12.49933
13.09233	0.01213098	-0.1618091	0	0	0	0
13.10891	-0.02949145	-0.164487	-2.511467	-0.1615827	-75.78533	-4.875874
13.12547	-0.02949145	-0.164487	0	0	75.8006	4.876856
13.14203	-0.02949145	-0.164487	0	0	0	0
13.1586	-0.03658893	-0.164647	-0.4284293	-0.009656	-12.9304	-0.291427
13.17517	-0.03658893	-0.164647	0	0	12.93077	0.2914354
13.192	-0.03658893	-0.164647	0	0	0	0
13.2083	-0.03661521	-0.164627	-0.001612274	0.001226745	-0.04865992	0.0370243
13.22487	-0.03661521	-0.164627	0	0	0.04905384	-0.03732403
13.24143	-0.03661521	-0.164627	0	0	0	0
13.258	-0.03661521	-0.164627	0	0	0	0
13.27457	-0.03661521	-0.164627	0	0	0	0
13.29119	-0.03661521	-0.164627	0	0	0	0
13.3077	-0.03648381	-0.164727	0.007958939	-0.006056132	0.2402358	-0.1828007
13.32426	-0.03648381	-0.164727	0	0	-0.2406237	0.1830959
13.34169	-0.03648381	-0.164727	0	0	0	0
13.35742	-0.03616843	-0.164967	0.020047	-0.01525559	0.6046368	-0.4601233
13.37401	-0.03616843	-0.164967	0	0	-0.6202657	0.4720168
13.39081	-0.03616843	-0.164967	0	0	0	0
13.4071	-0.03587933	-0.165187	0.01774516	-0.01350392	0.5362292	-0.4080659
13.42385	-0.03587933	-0.165187	0	0	-0.536972	0.4086312
13.44076	-0.03587933	-0.165187	0	0	0	0
13.4568	-0.03580049	-0.165247	0.004917372	-0.003742454	0.1492701	-0.1136047
13.47364	-0.03580049	-0.165247	0	0	-0.1495646	0.1138288
13.48993	-0.03580049	-0.165247	0	0	0	0
13.5065	-0.03580049	-0.165247	0	0	0	0
13.52306	-0.03580049	-0.165247	0	0	0	0
13.53963	-0.03580049	-0.165247	0	0	0	0
13.5562	-0.03580049	-0.165247	0	0	0	0
13.57276	-0.03580049	-0.165247	0	0	0	0
13.58963	-0.03580049	-0.165247	0	0	0	0
13.60589	-0.03580049	-0.165247	0	0	0	0
13.62246	-0.03580049	-0.165247	0	0	0	0
13.63903	-0.03580049	-0.165247	0	0	0	0
13.65559	-0.03580049	-0.165247	0	0	0	0
13.67216	-0.03580049	-0.165247	0	0	0	0
13.68873	-0.03580049	-0.165247	0	0	0	0
13.7053	-0.03580049	-0.165247	0	0	0	0
13.72186	-0.03580049	-0.165247	0	0	0	0
13.73858	-0.03580049	-0.165247	0	0	0	0
13.75545	-0.03574792	-0.165287	0.003114845	-0.002370903	0.09273572	-0.07058693
13.77156	-0.03574792	-0.165287	0	0	-0.09442475	0.07187255
13.78813	-0.03574792	-0.165287	0	0	0	0
13.80469	-0.03545881	-0.165507	0.01745565	-0.01328579	0.5268885	-0.4010237
13.82126	-0.03545881	-0.165507	0	0	-0.5268582	0.4010007
13.83783	-0.03545881	-0.165507	0	0	0	0
13.85439	-0.03537997	-0.165567	0.004759962	-0.003623554	0.1436725	-0.1093717
13.87096	-0.03537997	-0.165567	0	0	-0.1436601	0.1093622
13.88753	-0.03537997	-0.165567	0	0	0	0
13.90424	-0.0351697	-0.1657271	0.01258522	-0.009578886	0.3782225	-0.2878734
13.92066	-0.0351697	-0.1657271	0	0	-0.3798445	0.289108
13.93723	-0.0351697	-0.1657271	0	0	0	0
13.9538	-0.03488058	-0.1659472	0.01744829	-0.01328237	0.5265905	-0.4008628
13.97036	-0.03488058	-0.1659472	0	0	-0.5265602	0.4008398
13.98693	-0.03488058	-0.1659472	0	0	0	0
14.00349	-0.03443375	-0.1662873	0.02697692	-0.02053795	0.8142822	-0.6199258
14.02006	-0.03443375	-0.1662873	0	0	-0.8141885	0.6198544
14.03663	-0.03443375	-0.1662873	0	0	0	0
14.05328	-0.03180506	-0.1682894	0.1578504	-0.1202209	4.751761	-3.619003
14.06976	-0.03180506	-0.1682894	0	0	-4.764071	3.628377
14.08633	-0.03180506	-0.1682894	0	0	0	0
14.1033	-0.03172619	-0.1683495	0.004648374	-0.003541116	0.1386126	-0.1055946
14.11946	-0.03172619	-0.1683495	0	0	-0.1402963	0.1068773
14.13603	-0.03172619	-0.1683495	0	0	0	0
14.1526	-0.03172619	-0.1683495	0	0	0	0
14.16916	-0.03172619	-0.1683495	0	0	0	0
14.18573	-0.03172619	-0.1683495	0	0	0	0
14.20247	-0.03172619	-0.1683495	0	0	0	0
14.21886	-0.03172619	-0.1683495	0	0	0	0
14.23555	-0.03172619	-0.1683495	0	0	0	0
14.25199	-0.0316999	-0.1683695	0.001599258	-0.001218309	0.04827264	-0.03677394
14.26856	-0.0316999	-0.1683695	0	0	-0.04845117	0.03690994
14.28513	-0.0316999	-0.1683695	0	0	0	0
14.30169	-0.03167361	-0.1683895	0.00158683	-0.001208842	0.047892	-0.03648397
14.31826	-0.03167361	-0.1683895	0	0	-0.047892	0.03648397
14.33483	-0.03167361	-0.1683895	0	0	0	0
14.35139	-0.03167361	-0.1683895	0	0	0	0
14.36796	-0.03167361	-0.1683895	0	0	0	0
14.38453	-0.03167361	-0.1683895	0	0	0	0
14.40109	-0.03167361	-0.1683895	0	0	0	0
14.41792	-0.03167361	-0.1683895	0	0	0	0
14.43435	-0.03167361	-0.1683895	0	0	0	0
14.45149	-0.03167361	-0.1683895	0	0	0	0
14.46805	-0.03167361	-0.1683895	0	0	0	0
14.48468	-0.03167361	-0.1683895	0	0	0	0
14.50119	-0.03164732	-0.1684096	0.001592697	-0.001214214	0.04806909	-0.03664612
14.51783	-0.03164732	-0.1684096	0	0	-0.04804281	0.03662609
14.53432	-0.03164732	-0.1684096	0	0	0	0
14.55089	-0.03164732	-0.1684096	0	0	0	0
14.56746	-0.03164732	-0.1684096	0	0	0	0
14.58406	-0.03164732	-0.1684096	0	0	0	0
14.62434	-0.03162104	-0.1684697	0.0006526138	-0.001491477	0.01147217	-0.02621839
14.64091	-0.03162104	-0.1684697	0	0	-0.01147872	0.02623335
14.65844	-0.03162104	-0.1684697	0	0	0	0
14.67501	-0.03162104	-0.1684697	0	0	0	0
14.69166	-0.03162104	-0.1684697	0	0	0	0
14.70815	-0.03162104	-0.1684697	0	0	0	0
14.72471	-0.03162104	-0.1684697	0	0	0	0
14.74161	-0.03162104	-0.1684697	0	0	0	0
14.75785	-0.03159475	-0.1684897	0.001619077	-0.001234325	0.04886103	-0.03724987
14.77441	-0.03159475	-0.1684897	0	0	-0.04936109	0.0376311
14.79101	-0.03159475	-0.1684897	0	0	0	0
14.80807	-0.03159475	-0.1684897	0	0	0	0
14.82411	-0.03159475	-0.1684897	0	0	0	0
14.84068	-0.03159475	-0.1684897	0	0	0	0
14.85725	-0.03159475	-0.1684496	0	0.002418722	0	0.07299508
14.87381	-0.03159475	-0.1684496	0	0	0	-0.07300138
14.89072	-0.03159475	-0.1684496	0	0	0	0
14.90694	-0.03159475	-0.1684496	0	0	0	0
14.92351	-0.03159475	-0.1684496	0	0	0	0
14.94008	-0.03159475	-0.1684496	0	0	0	0
14.95665	-0.03159475	-0.1684496	0	0	0	0
14.97321	-0.03159475	-0.1684496	0	0	0	0
14.9899	-0.03159475	-0.1684496	0	0	0	0
15.00635	-0.03156846	-0.1684697	0.001598887	-0.001218027	0.0482545	-0.03676012
15.02291	-0.03156846	-0.1684697	0	0	-0.04843852	0.03690032
15.03948	-0.03156846	-0.1684697	0	0	0	0
15.05619	-0.03156846	-0.1684697	0	0	0	0
15.07261	-0.03156846	-0.1684697	0	0	0	0
15.08918	-0.03156846	-0.1684697	0	0	0	0
15.10574	-0.03154217	-0.1684496	0.001586921	0.001208911	0.04789475	0.03648607
15.12231	-0.03154217	-0.1684496	0	0	-0.04789475	-0.03648607
15.13888	-0.03154217	-0.1684496	0	0	0	0
15.15544	-0.03154217	-0.1684496	0	0	0	0
15.17219	-0.03154217	-0.1684496	0	0	0	0
15.18858	-0.03154217	-0.1684496	0	0	0	0
15.20514	-0.03151588	-0.1684296	0.00158683	0.001208842	0.04815117	0.0366814
15.22171	-0.03151588	-0.1684296	0	0	-0.047892	-0.03648397
15.23828	-0.03151588	-0.1684296	0	0	0	0
15.25484	-0.03151588	-0.1684296	0	0	0	0
15.27176	-0.03151588	-0.1684296	0	0	0	0
15.29561	-0.03151588	-0.1684296	0	0	0	0
15.31218	-0.03151588	-0.1684296	0	0	0	0
15.32874	-0.03151588	-0.1684296	0	0	0	0
15.34531	-0.03151588	-0.1684296	0	0	0	0
15.36188	-0.03148959	-0.1683695	0.001586921	0.003627634	0.04789888	0.1094948
15.37844	-0.03148959	-0.1683695	0	0	-0.04789475	-0.1094854
15.39501	-0.03148959	-0.1683695	0	0	0	0
15.41158	-0.03138443	-0.1682894	0.006348275	0.004835924	0.1916023	0.1459569
15.4283	-0.03138443	-0.1682894	0	0	-0.1907021	-0.1452711
15.44472	-0.03138443	-0.1682894	0	0	0	0
15.46183	-0.03135814	-0.1682694	0.001536932	0.001171701	0.04583849	0.0349456
15.4784	-0.03135814	-0.1682694	0	0	-0.04564117	-0.03479517
15.49441	-0.03135814	-0.1682694	0	0	0	0
15.51098	-0.03135814	-0.1682694	0	0	0	0
15.52754	-0.03135814	-0.1682694	0	0	0	0
15.54467	-0.03135814	-0.1682694	0	0	0	0
15.56068	-0.03133185	-0.1682493	0.001642226	0.001251043	0.04956676	0.0377598
15.57725	-0.03133185	-0.1682493	0	0	-0.05040537	-0.03839865
15.59402	-0.03133185	-0.1682493	0	0	0	0
15.61038	-0.03130556	-0.1682694	0.001606809	-0.001224062	0.04849497	-0.03694332
15.62695	-0.03130556	-0.1682694	0	0	-0.04879553	0.03717228
15.64356	-0.03130556	-0.1682694	0	0	0	0
15.66008	-0.03130556	-0.1682694	0	0	0	0
15.67665	-0.03130556	-0.1682694	0	0	0	0
15.69328	-0.03130556	-0.1682694	0	0	0	0
15.71001	-0.03125298	-0.1682293	0.00314362	0.0023948	0.09422917	0.07178348
15.72635	-0.03125298	-0.1682293	0	0	-0.09507715	-0.07242947
15.74292	-0.03125298	-0.1682293	0	0	0	0
15.75948	-0.03125298	-0.1682293	0	0	0	0
15.77605	-0.03125298	-0.1682293	0	0	0	0
15.79262	-0.03125298	-0.1682293	0	0	0	0
15.80918	-0.0312004	-0.1681892	0.003175164	0.002418658	0.09584319	0.07300786
15.82578	-0.0312004	-0.1681892	0	0	-0.09573295	-0.07292389
15.84243	-0.0312004	-0.1681892	0	0	0	0
15.85908	-0.0312004	-0.1681892	0	0	0	0
15.87545	-0.0312004	-0.1681892	0	0	0	0
15.89222	-0.0312004	-0.1681892	0	0	0	0
15.90858	-0.03101637	-0.1683294	0.01124735	-0.008568842	0.3394651	-0.2586231
15.92527	-0.03101637	-0.1683294	0	0	-0.340278	0.2592424
15.94171	-0.03101637	-0.1683294	0	0	0	0
15.95853	-0.03075346	-0.1685698	0.01563153	-0.01429161	0.4700021	-0.4297139
15.97503	-0.03075346	-0.1685698	0	0	-0.4691679	0.4289513
15.99179	-0.03075346	-0.1685698	0	0	0	0
16.00798	-0.02912334	-0.169772	0.1006953	-0.0742627	3.05632	-2.254033
16.02455	-0.02912334	-0.169772	0	0	-3.073937	2.267026
16.04111	-0.02912334	-0.169772	0	0	0	0
16.05812	-0.01431481	-0.1810841	0.8707867	-0.6651867	25.937	-19.81306
16.07425	-0.01431481	-0.1810841	0	0	-26.28191	20.07653
16.09081	-0.01431481	-0.1810841	0	0	0	0
16.10738	-0.01076274	-0.1838052	0.2144033	-0.1642406	6.470705	-4.95679
16.12395	-0.01076274	-0.1838052	0	0	-6.470705	4.95679
16.14051	-0.01076274	-0.1838052	0	0	0	0
16.15708	-0.01076274	-0.1837648	0	0.002434434	0	0.07347982
16.17365	-0.01076274	-0.1837648	0	0	0	-0.07347559
16.19021	-0.01076274	-0.1837648	0	0	0	0
16.20683	-0.01073643	-0.1837043	0.001583915	0.003642544	0.0477367	0.1097805
16.22335	-0.01073643	-0.1837043	0	0	-0.0478054	-0.1099385
16.23991	-0.01073643	-0.1837043	0	0	0	0
16.25648	-0.01076274	-0.1836438	-0.001588291	0.00365171	-0.04793473	0.1102088
16.27305	-0.01076274	-0.1836438	0	0	0.04793473	-0.1102088
16.28962	-0.01076274	-0.1836438	0	0	0	0
16.30638	-0.01076274	-0.1835228	0	0.007219472	0	0.2166246
16.32275	-0.01076274	-0.1835228	0	0	0	-0.2178841
16.33944	-0.01076274	-0.1835228	0	0	0	0
16.35588	-0.01073643	-0.1833817	0.001600267	0.008583691	0.04829614	0.2590563
16.37245	-0.01073643	-0.1833817	0	0	-0.04847753	-0.2600293
16.38977	-0.01073643	-0.1833817	0	0	0	0
16.40558	-0.01073643	-0.183301	0	0.005101214	0	0.1539815
16.42242	-0.01073643	-0.183301	0	0	0	-0.1562211
16.43872	-0.01073643	-0.183301	0	0	0	0
16.45557	-0.01073643	-0.1832204	0	0.004786538	0	0.1444081
16.47185	-0.01073643	-0.1832204	0	0	0	-0.1444663
16.48855	-0.01073643	-0.1832204	0	0	0	0
16.50498	-0.01084168	-0.1829784	-0.006405354	0.01472359	-0.1933362	0.4444101
16.52155	-0.01084168	-0.1829784	0	0	0.1940961	-0.4461567
16.53812	-0.01084168	-0.1829784	0	0	0	0
16.55468	-0.01097324	-0.182797	-0.007943004	0.01095405	-0.239748	0.330632
16.62203	-0.01097324	-0.182797	0	0	0.09465886	-0.1305423
16.65963	-0.01097324	-0.182797	0	0	0	0
16.67625	-0.01118374	-0.1824745	-0.01266645	0.01940706	-0.2336113	0.3579305
16.69277	-0.01118374	-0.1824745	0	0	0.3822083	-0.5856052
16.70934	-0.01118374	-0.1824745	0	0	0	0
16.7259	-0.01121006	-0.182414	-0.001588967	0.003651592	-0.04796616	0.1102307
16.74246	-0.01121006	-0.182414	0	0	0.04796616	-0.1102307
16.75903	-0.01121006	-0.182414	0	0	0	0
16.77574	-0.01118374	-0.1823535	0.001574639	0.003617773	0.04731841	0.1087153
16.79216	-0.01118374	-0.1823535	0	0	-0.04752543	-0.1091909
16.80873	-0.01118374	-0.1823535	0	0	0	0
16.82545	-0.01115743	-0.1823737	0.0015741	-0.001205215	0.04729408	-0.03621086
16.84187	-0.01115743	-0.1823737	0	0	-0.04750096	0.03636926
16.85864	-0.01115743	-0.1823737	0	0	0	0
16.875	-0.01115743	-0.1823737	0	0	0	0
16.89157	-0.01115743	-0.1823737	0	0	0	0
16.90813	-0.01115743	-0.1823737	0	0	0	0
16.9247	-0.01115743	-0.1823737	0	0	0	0
16.94127	-0.01115743	-0.1823737	0	0	0	0
16.95783	-0.01115743	-0.1823737	0	0	0	0
16.9744	-0.01115743	-0.1823737	0	0	0	0
16.99097	-0.01115743	-0.1823737	0	0	0	0
17.00763	-0.01115743	-0.1823737	0	0	0	0
17.0241	-0.01115743	-0.1823737	0	0	0	0
17.04066	-0.01115743	-0.1823737	0	0	0	0
17.05723	-0.01115743	-0.1823737	0	0	0	0
17.07395	-0.01115743	-0.1823737	0	0	0	0
17.09047	-0.01115743	-0.1823737	0	0	0	0
17.10693	-0.01115743	-0.1823737	0	0	0	0
17.1235	-0.01115743	-0.1823737	0	0	0	0
17.14006	-0.01115743	-0.1823737	0	0	0	0
17.15663	-0.01115743	-0.1823737	0	0	0	0
17.1732	-0.01115743	-0.1823737	0	0	0	0
17.18977	-0.01115743	-0.1823737	0	0	0	0
17.2064	-0.01115743	-0.1823737	0	0	0	0
17.2229	-0.01115743	-0.1823737	0	0	0	0
17.23968	-0.01115743	-0.1823737	0	0	0	0
17.25603	-0.01115743	-0.1823737	0	0	0	0
17.2726	-0.01115743	-0.1823737	0	0	0	0
17.28917	-0.01115743	-0.1823737	0	0	0	0
17.30583	-0.01115743	-0.1823737	0	0	0	0
17.323	-0.01115743	-0.1823737	0	0	0	0
17.33887	-0.01115743	-0.1823737	0	0	0	0
17.35544	-0.01115743	-0.1823737	0	0	0	0
17.372	-0.01113112	-0.1823938	0.001588601	-0.001217217	0.04794959	-0.03673991
17.38869	-0.01113112	-0.1823938	0	0	-0.04777357	0.03660504
17.40525	-0.01113112	-0.1823938	0	0	0	0
17.42201	-0.01113112	-0.1823938	0	0	0	0
17.43858	-0.01113112	-0.1823938	0	0	0	0
17.45515	-0.01113112	-0.1823938	0	0	0	0
17.47171	-0.01113112	-0.1823938	0	0	0	0
17.48828	-0.01113112	-0.1823938	0	0	0	0
17.50526	-0.01113112	-0.1823938	0	0	0	0
17.52141	-0.01113112	-0.1823938	0	0	0	0
17.53798	-0.01113112	-0.1823938	0	0	0	0
17.55455	-0.01113112	-0.1823938	0	0	0	0
17.57111	-0.01113112	-0.1823938	0	0	0	0
17.58768	-0.01113112	-0.1823938	0	0	0	0
17.60506	-0.01113112	-0.1823938	0	0	0	0
17.62081	-0.01113112	-0.1823938	0	0	0	0
17.63738	-0.01113112	-0.1823938	0	0	0	0
17.65395	-0.01113112	-0.1823938	0	0	0	0
17.67056	-0.01115743	-0.1823737	-0.001584223	0.001213862	-0.04775146	0.0365881
17.68708	-0.01115743	-0.1823737	0	0	0.04781193	-0.03663443
17.70366	-0.01115743	-0.1823737	0	0	0	0
17.72021	-0.01113112	-0.1823938	0.001589882	-0.001218199	0.04798827	-0.03676955
17.73678	-0.01113112	-0.1823938	0	0	-0.04800485	0.03678226
17.75353	-0.01113112	-0.1823938	0	0	0	0
17.76992	-0.01115743	-0.1823737	-0.001605611	0.001230251	-0.04844907	0.03712263
17.78648	-0.01115743	-0.1823737	0	0	0.04872953	-0.03733752
17.80305	-0.01115743	-0.1823737	0	0	0	0
17.81961	-0.01115743	-0.1823737	0	0	0	0
17.83618	-0.01115743	-0.1823737	0	0	0	0
17.85275	-0.01115743	-0.1823737	0	0	0	0
17.86932	-0.01115743	-0.1823737	0	0	0	0
17.88588	-0.01115743	-0.1823737	0	0	0	0
17.90251	-0.01115743	-0.1823737	0	0	0	0
17.91902	-0.01115743	-0.1823737	0	0	0	0
17.93567	-0.01115743	-0.1823737	0	0	0	0
17.95215	-0.01115743	-0.1823737	0	0	0	0
17.98387	-0.01115743	-0.1823737	0	0	0	0
18.00044	-0.01115743	-0.1823737	0	0	0	0
18.017	-0.01118374	-0.1823938	-0.001588784	-0.001217357	-0.04795235	-0.03674203
18.03387	-0.01118374	-0.1823938	0	0	0.04752284	0.03641293
18.0507	-0.01118374	-0.1823938	0	0	0	0
18.06671	-0.01126268	-0.1824543	-0.004932159	-0.00377823	-0.1502278	-0.1150805
18.08327	-0.01126268	-0.1824543	0	0	0.1514242	0.115997
18.09984	-0.01126268	-0.1824543	0	0	0	0
18.11641	-0.01160474	-0.1827164	-0.02064683	-0.01581658	-0.6230868	-0.4773179
18.13298	-0.01160474	-0.1827164	0	0	0.6231226	0.4773453
18.14954	-0.01160474	-0.1827164	0	0	0	0
18.16611	-0.01202574	-0.1829986	-0.02541711	-0.01703924	-0.7671782	-0.5143045
18.18268	-0.01202574	-0.1829986	0	0	0.767134	0.5142749
18.19924	-0.01202574	-0.1829986	0	0	0	0
18.21581	-0.0215756	-0.1847533	-0.5765635	-0.1059375	-17.40273	-3.197567
18.23238	-0.0215756	-0.1847533	0	0	17.40172	3.197383
18.24894	-0.0215756	-0.1847533	0	0	0	0
18.26551	-0.09223753	-0.1876404	-4.265162	-0.1742684	-128.7229	-5.25943
18.28208	-0.09223753	-0.1876404	0	0	128.7303	5.259733
18.29864	-0.09223753	-0.1876404	0	0	0	0
18.31521	-0.1661897	-0.1860449	-4.463764	0.0963026	-134.7167	2.906418
18.33178	-0.1661897	-0.1860449	0	0	134.7167	-2.906418
18.34862	-0.1661897	-0.1860449	0	0	0	0
18.36491	-0.1895139	-0.1986993	-1.431582	-0.7766953	-43.21019	-23.44341
18.38148	-0.1895139	-0.1986993	0	0	43.56382	23.63527
18.39816	-0.1895139	-0.1986993	0	0	0	0
18.41471	-0.2097631	-0.2151087	-1.224215	-0.9920713	-36.84296	-29.85656
18.43118	-0.2097631	-0.2151087	0	0	37.08135	30.04975
18.44774	-0.2097631	-0.2151087	0	0	0	0
18.46431	-0.2173534	-0.2214211	-0.4582593	-0.381105	-13.83268	-11.50376
18.48088	-0.2173534	-0.2214211	0	0	13.83109	11.50243
18.49744	-0.2173534	-0.2214211	0	0	0	0
18.51401	-0.2173032	-0.2214211	0.0030293	0	0.09142446	0
18.53058	-0.2173032	-0.2214211	0	0	-0.09142446	0
18.54767	-0.2173032	-0.2214211	0	0	0	0
18.56371	-0.2172028	-0.2215443	0.006257432	-0.007677802	0.1888714	-0.2317432
18.58028	-0.2172028	-0.2215443	0	0	-0.191876	0.2354298
18.5971	-0.2172028	-0.2215443	0	0	0	0
18.61645	-0.216977	-0.2216879	0.01167024	-0.007425186	0.3226752	-0.205302
18.63302	-0.216977	-0.2216879	0	0	-0.3248681	0.2066973
18.6507	-0.216977	-0.2216879	0	0	0	0
18.66743	-0.2163997	-0.2222012	0.03449949	-0.03067473	1.002587	-0.8914357
18.68383	-0.2163997	-0.2222012	0	0	-1.041197	0.925765
18.7004	-0.2163997	-0.2222012	0	0	0	0
18.71696	-0.216224	-0.222345	0.01060949	-0.008677957	0.3202319	-0.2619314
18.73353	-0.216224	-0.222345	0	0	-0.3202135	0.2619163
18.75009	-0.216224	-0.222345	0	0	0	0
18.76666	-0.2161487	-0.2225298	0.004546272	-0.01115789	0.1372305	-0.3368039
18.78323	-0.2161487	-0.2225298	0	0	-0.1372147	0.3367651
18.79979	-0.2161487	-0.2225298	0	0	0	0
18.81636	-0.216224	-0.2225914	-0.004545749	-0.003718268	-0.137191	-0.1122175
18.83293	-0.216224	-0.2225914	0	0	0.137191	0.1122175
18.84991	-0.216224	-0.2225914	0	0	0	0
18.86606	-0.216224	-0.2225914	0	0	0	0
18.88263	-0.216224	-0.2225914	0	0	0	0
18.8992	-0.216224	-0.2225914	0	0	0	0
18.91628	-0.216224	-0.2225914	0	0	0	0
18.93233	-0.216224	-0.2225914	0	0	0	0
18.9489	-0.216224	-0.2225914	0	0	0	0
18.96546	-0.216224	-0.2225914	0	0	0	0
18.98203	-0.216224	-0.2225914	0	0	0	0
18.9986	-0.216224	-0.2225914	0	0	0	0
19.01557	-0.2161989	-0.2226119	0.001479607	-0.001210907	0.04411876	-0.03610669
19.03177	-0.2161989	-0.2226119	0	0	-0.04460584	0.03650531
19.04865	-0.2161989	-0.2226119	0	0	0	0
19.06486	-0.2161487	-0.222653	0.003096143	-0.00253279	0.09355488	-0.07653227
19.08143	-0.2161487	-0.222653	0	0	-0.09444758	0.07726255
19.098	-0.2161487	-0.222653	0	0	0	0
19.11456	-0.2161487	-0.222653	0	0	0	0
19.13113	-0.2161487	-0.222653	0	0	0	0
19.14771	-0.2161487	-0.222653	0	0	0	0
19.16431	-0.2161236	-0.2226736	0.001512763	-0.001238042	0.04558967	-0.03731047
19.18083	-0.2161236	-0.2226736	0	0	-0.04568157	0.03738569
19.1974	-0.2161236	-0.2226736	0	0	0	0
19.21403	-0.2161236	-0.2226736	0	0	0	0
19.23053	-0.2161236	-0.2226736	0	0	0	0
19.24732	-0.2161236	-0.2226736	0	0	0	0
19.26366	-0.2161236	-0.2226736	0	0	0	0
19.28023	-0.2161236	-0.2226736	0	0	0	0
19.34513	-0.2161236	-0.2226736	0	0	0	0
19.36219	-0.2160733	-0.2226325	0.002944651	0.002409022	0.03592761	0.02939241
19.37876	-0.2160733	-0.2226325	0	0	-0.08757418	-0.07164451
19.39532	-0.2160733	-0.2226325	0	0	0	0
19.41189	-0.2157218	-0.2227146	0.02121923	-0.004959161	0.6404715	-0.149685
19.42848	-0.2157218	-0.2227146	0	0	-0.6399925	0.1495731
19.44502	-0.2157218	-0.2227146	0	0	0	0
19.46159	-0.2141393	-0.2236391	0.09553019	-0.05580653	2.885266	-1.685506
19.47848	-0.2141393	-0.2236391	0	0	-2.855655	1.668208
19.49473	-0.2141393	-0.2236391	0	0	0	0
19.51129	-0.1896154	-0.2402477	1.480267	-1.0025	45.10557	-30.54742
19.52786	-0.1896154	-0.2402477	0	0	-44.67456	30.25552
19.54449	-0.1896154	-0.2402477	0	0	0	0
19.56099	-0.1442541	-0.2386946	2.748136	0.09409666	82.94368	2.840006
19.57756	-0.1442541	-0.2386946	0	0	-83.09196	-2.845084
19.59413	-0.1442541	-0.2386946	0	0	0	0
19.61069	-0.1018568	-0.2245845	2.559108	0.8516839	77.23404	25.70387
19.62726	-0.1018568	-0.2245845	0	0	-77.23404	-25.70387
19.64412	-0.1018568	-0.2245845	0	0	0	0
19.66039	-0.08521419	-0.2304724	1.022683	-0.3618089	30.86817	-10.92067
19.67696	-0.08521419	-0.2304724	0	0	-31.13887	11.01644
19.69353	-0.08521419	-0.2304724	0	0	0	0
19.71009	-0.08403844	-0.2311941	0.07097636	-0.04356829	2.142194	-1.314969
19.72666	-0.08403844	-0.2311941	0	0	-2.142194	1.314969
19.74323	-0.08403844	-0.2311941	0	0	0	0
19.76015	-0.08401231	-0.2311735	0.001543748	0.001218447	0.0460916	0.03637911
19.77636	-0.08401231	-0.2311735	0	0	-0.04659308	-0.03677492
19.7932	-0.08401231	-0.2311735	0	0	0	0
19.80949	-0.08401231	-0.2311735	0	0	0	0
19.82606	-0.08401231	-0.2311735	0	0	0	0
19.84263	-0.08401231	-0.2311735	0	0	0	0
19.85919	-0.08401231	-0.2311323	0	0.002489925	0	0.07515474
19.87576	-0.08401231	-0.2311323	0	0	0	-0.07513744
19.89233	-0.08401231	-0.2311323	0	0	0	0
19.90889	-0.08142483	-0.2290916	0.1562347	0.1232194	4.715987	3.719411
19.92547	-0.08142483	-0.2290916	0	0	-4.714901	-3.718555
19.94252	-0.08142483	-0.2290916	0	0	0	0
19.95866	-0.05704331	-0.2099582	1.510272	1.185186	45.4989	35.70527
19.97517	-0.05704331	-0.2099582	0	0	-46.25912	-36.30185
19.99173	-0.05704331	-0.2099582	0	0	0	0
20.01158	-0.02749307	-0.187196	1.488694	1.146721	40.87908	31.48862
20.02815	-0.02749307	-0.187196	0	0	-40.8748	-31.48532
20.04472	-0.02749307	-0.187196	0	0	0	0
20.06129	-0.0185505	-0.1803792	0.5398365	0.4115078	16.29324	12.42005
20.07807	-0.0185505	-0.1803792	0	0	-16.18793	-12.33977
20.09442	-0.0185505	-0.1803792	0	0	0	0
20.11099	-0.01818221	-0.1806612	0.02223558	-0.01702125	0.6755038	-0.5170956
20.12756	-0.01818221	-0.1806612	0	0	-0.6711097	0.5137318
20.14459	-0.01818221	-0.1806612	0	0	0	0
20.16071	-0.01789283	-0.1808827	0.01795701	-0.01374793	0.5416318	-0.4146746
20.17726	-0.01789283	-0.1808827	0	0	-0.5497923	0.4209223
20.19382	-0.01789283	-0.1808827	0	0	0	0
20.21039	-0.01794544	-0.1808424	-0.003175908	0.002432075	-0.0958491	0.07340015
20.22696	-0.01794544	-0.1808424	0	0	0.0958491	-0.07340015
20.24355	-0.01794544	-0.1808424	0	0	0	0
20.26009	-0.01794544	-0.1808424	0	0	0	0
20.27666	-0.01794544	-0.1808424	0	0	0	0
20.29322	-0.01794544	-0.1808424	0	0	0	0
20.30979	-0.01797175	-0.1808626	-0.001588207	-0.001216317	-0.04793771	-0.03671276
20.32636	-0.01797175	-0.1808626	0	0	0.04793495	0.03671065
20.34292	-0.01797175	-0.1808626	0	0	0	0
20.36247	-0.01797175	-0.1808626	0	0	0	0
20.37904	-0.01797175	-0.1808626	0	0	0	0
20.39589	-0.01797175	-0.1808626	0	0	0	0
20.4122	-0.01797175	-0.1808626	0	0	0	0
20.42967	-0.01797175	-0.1808626	0	0	0	0
20.44587	-0.01797175	-0.1808626	0	0	0	0
20.46188	-0.01797175	-0.1808626	0	0	0	0
20.47845	-0.01797175	-0.1808626	0	0	0	0
20.49502	-0.01797175	-0.1808626	0	0	0	0
20.51158	-0.01797175	-0.1808626	0	0	0	0
20.52814	-0.01797175	-0.1808626	0	0	0	0
20.54486	-0.01797175	-0.1808626	0	0	0	0
20.56128	-0.01797175	-0.1808626	0	0	0	0
20.57784	-0.01797175	-0.1808626	0	0	0	0
20.59441	-0.01797175	-0.1808626	0	0	0	0
20.61098	-0.01794544	-0.1808827	0.001588207	-0.001216317	0.04793771	-0.03671276
20.62754	-0.01794544	-0.1808827	0	0	-0.04793495	0.03671065
20.64411	-0.01794544	-0.1808827	0	0	0	0
20.66534	-0.01794544	-0.1808827	0	0	0	0
20.6825	-0.01794544	-0.1808827	0	0	0	0
20.69847	-0.01797175	-0.1808626	-0.001646805	0.001261194	-0.04969782	0.03806072
20.71504	-0.01797175	-0.1808626	0	0	0.05060666	-0.03875675
20.73161	-0.01797175	-0.1808626	0	0	0	0
20.74817	-0.01797175	-0.1808626	0	0	0	0
20.76474	-0.01797175	-0.1808626	0	0	0	0
20.78137	-0.01797175	-0.1808626	0	0	0	0
20.79787	-0.01797175	-0.1808626	0	0	0	0
20.81444	-0.01797175	-0.1808626	0	0	0	0
20.83101	-0.01797175	-0.1808626	0	0	0	0
20.84757	-0.01797175	-0.1808626	0	0	0	0
20.86414	-0.01797175	-0.1808626	0	0	0	0
20.88071	-0.01797175	-0.1808626	0	0	0	0
20.89729	-0.01797175	-0.1808626	0	0	0	0
20.91384	-0.01797175	-0.1808626	0	0	0	0
20.93041	-0.01797175	-0.1808626	0	0	0	0
20.94697	-0.01797175	-0.1808626	0	0	0	0
20.96354	-0.01797175	-0.1808626	0	0	0	0
20.98011	-0.01797175	-0.1808626	0	0	0	0
20.99668	-0.01797175	-0.1808626	0	0	0	0
21.01325	-0.01797175	-0.1808626	0	0	0	0
21.02981	-0.01797175	-0.1808626	0	0	0	0
21.04637	-0.01797175	-0.1808626	0	0	0	0
21.06294	-0.01797175	-0.1808626	0	0	0	0
21.07951	-0.01797175	-0.1808626	0	0	0	0
21.09607	-0.01797175	-0.1808626	0	0	0	0
21.11264	-0.01797175	-0.1808626	0	0	0	0
21.12921	-0.01797175	-0.1808626	0	0	0	0
21.14577	-0.01797175	-0.1808626	0	0	0	0
21.16234	-0.01797175	-0.1808626	0	0	0	0
21.17891	-0.01797175	-0.1808626	0	0	0	0
21.19547	-0.01797175	-0.1808626	0	0	0	0
21.21204	-0.01797175	-0.1808626	0	0	0	0
21.22861	-0.01797175	-0.1808626	0	0	0	0
21.24517	-0.01797175	-0.1808626	0	0	0	0
21.26174	-0.01797175	-0.1808626	0	0	0	0
21.27831	-0.01797175	-0.1808626	0	0	0	0
21.29488	-0.01797175	-0.1808626	0	0	0	0
21.31144	-0.01797175	-0.1808626	0	0	0	0
21.328	-0.01797175	-0.1808626	0	0	0	0
21.34457	-0.01799806	-0.1808424	-0.001587954	0.001216037	-0.04793007	0.03670431
21.36114	-0.01799806	-0.1808424	0	0	0.04792179	-0.03669797
21.37771	-0.01799806	-0.1808424	0	0	0	0
21.39465	-0.01797175	-0.1808626	0.001552913	-0.001189203	0.04634411	-0.0354898
21.41084	-0.01797175	-0.1808626	0	0	-0.04686969	0.03589228
21.42741	-0.01797175	-0.1808626	0	0	0	0
21.44397	-0.01797175	-0.1808626	0	0	0	0
21.46054	-0.01797175	-0.1808626	0	0	0	0
21.47711	-0.01797175	-0.1808626	0	0	0	0
21.49367	-0.01797175	-0.1808626	0	0	0	0
21.51024	-0.01797175	-0.1808626	0	0	0	0
21.52681	-0.01797175	-0.1808626	0	0	0	0
21.54337	-0.01799806	-0.1808424	-0.001587954	0.001216037	-0.04792455	0.03670008
21.55997	-0.01799806	-0.1808424	0	0	0.04788045	-0.03666631
21.58167	-0.01799806	-0.1808424	0	0	0	0
21.59824	-0.01799806	-0.1808424	0	0	0	0
21.61481	-0.01799806	-0.1808424	0	0	0	0
21.63138	-0.01799806	-0.1808424	0	0	0	0
21.64795	-0.01799806	-0.1808424	0	0	0	0
21.66458	-0.01799806	-0.1808424	0	0	0	0
21.68116	-0.01799806	-0.1808424	0	0	0	0
21.69764	-0.01799806	-0.1808424	0	0	0	0
21.71421	-0.01799806	-0.1808424	0	0	0	0
21.73078	-0.01799806	-0.1808424	0	0	0	0
21.74734	-0.01799806	-0.1808424	0	0	0	0
21.76391	-0.01799806	-0.1808424	0	0	0	0
21.78048	-0.01799806	-0.1808424	0	0	0	0
21.79705	-0.01799806	-0.1808424	0	0	0	0
21.81361	-0.01799806	-0.1808424	0	0	0	0
21.83018	-0.01799806	-0.1808424	0	0	0	0
21.84675	-0.01799806	-0.1808424	0	0	0	0
21.86332	-0.01799806	-0.1808424	0	0	0	0
21.87988	-0.01799806	-0.1808424	0	0	0	0
21.89645	-0.01799806	-0.1808424	0	0	0	0
21.91302	-0.01799806	-0.1808424	0	0	0	0
21.92958	-0.01799806	-0.1808424	0	0	0	0
21.94925	-0.01802436	-0.1808223	-0.001338084	0.001023932	-0.03693489	0.0282634
21.96582	-0.01802436	-0.1808223	0	0	0.036931	-0.02826043
21.98238	-0.01802436	-0.1808223	0	0	0	0
21.99895	-0.01802436	-0.1808223	0	0	0	0
22.01552	-0.01802436	-0.1808223	0	0	0	0
22.07324	-0.01802436	-0.1808223	0	0	0	0
22.08981	-0.01802436	-0.1808223	0	0	0	0
22.10637	-0.01802436	-0.1808223	0	0	0	0
22.12294	-0.01802436	-0.1808223	0	0	0	0
22.13951	-0.01802436	-0.1808223	0	0	0	0
22.15607	-0.01802436	-0.1808223	0	0	0	0
22.17279	-0.01802436	-0.1808223	0	0	0	0
22.18956	-0.01802436	-0.1808223	0	0	0	0
22.20578	-0.01802436	-0.1808223	0	0	0	0
22.22317	-0.01802436	-0.1808223	0	0	0	0
22.2389	-0.01802436	-0.1808223	0	0	0	0
22.25547	-0.01802436	-0.1808223	0	0	0	0
22.27204	-0.01802436	-0.1808223	0	0	0	0
22.28861	-0.01802436	-0.1808223	0	0	0	0
22.30518	-0.01802436	-0.1808223	0	0	0	0
22.32174	-0.01802436	-0.1808223	0	0	0	0
22.33875	-0.01802436	-0.1808223	0	0	0	0
22.35506	-0.01802436	-0.1808223	0	0	0	0
22.37144	-0.01802436	-0.1808223	0	0	0	0
22.38801	-0.01802436	-0.1808223	0	0	0	0
22.40458	-0.01802436	-0.1808223	0	0	0	0
22.42114	-0.01802436	-0.1808223	0	0	0	0
22.43771	-0.01802436	-0.1808223	0	0	0	0
22.45437	-0.01802436	-0.1808223	0	0	0	0
22.47092	-0.01802436	-0.1808223	0	0	0	0
22.48741	-0.01802436	-0.1808223	0	0	0	0
22.50398	-0.01802436	-0.1808223	0	0	0	0
22.52054	-0.01802436	-0.1808223	0	0	0	0
22.53711	-0.01802436	-0.1808223	0	0	0	0
22.55368	-0.01802436	-0.1808223	0	0	0	0
22.57024	-0.01802436	-0.1808223	0	0	0	0
22.58681	-0.01802436	-0.1808223	0	0	0	0
22.60337	-0.01802436	-0.1808223	0	0	0	0
22.61994	-0.01802436	-0.1808223	0	0	0	0
22.63651	-0.01802436	-0.1808223	0	0	0	0
22.65308	-0.01802436	-0.1808223	0	0	0	0
22.66981	-0.01802436	-0.1808223	0	0	0	0
22.68621	-0.01802436	-0.1808223	0	0	0	0
22.70283	-0.01802436	-0.1808223	0	0	0	0
22.71934	-0.01802436	-0.1808223	0	0	0	0
22.73591	-0.01802436	-0.1808223	0	0	0	0
22.75248	-0.01802436	-0.1808223	0	0	0	0
22.76904	-0.01802436	-0.1808223	0	0	0	0
22.78561	-0.01802436	-0.1808223	0	0	0	0
22.80228	-0.01802436	-0.1808223	0	0	0	0
22.81875	-0.01802436	-0.1808223	0	0	0	0
22.83531	-0.01802436	-0.1808223	0	0	0	0
22.85188	-0.01802436	-0.1808223	0	0	0	0
22.86845	-0.01802436	-0.1808223	0	0	0	0
22.88501	-0.01802436	-0.1808223	0	0	0	0
22.90158	-0.01802436	-0.1808223	0	0	0	0
22.91815	-0.01802436	-0.1808223	0	0	0	0
22.93472	-0.01802436	-0.1808223	0	0	0	0
22.95128	-0.01802436	-0.1808223	0	0	0	0
22.96785	-0.01802436	-0.1808223	0	0	0	0
22.98442	-0.01802436	-0.1808223	0	0	0	0
23.00099	-0.01802436	-0.1808223	0	0	0	0
23.01755	-0.01802436	-0.1808223	0	0	0	0
23.03458	-0.01802436	-0.1808223	0	0	0	0
23.05069	-0.01802436	-0.1808223	0	0	0	0
23.06725	-0.01802436	-0.1808223	0	0	0	0
23.08399	-0.01802436	-0.1808223	0	0	0	0
23.10039	-0.01802436	-0.1808223	0	0	0	0
23.11715	-0.01802436	-0.1808223	0	0	0	0
23.13365	-0.01802436	-0.1808223	0	0	0	0
23.15009	-0.01802436	-0.1808223	0	0	0	0
23.16665	-0.01802436	-0.1808223	0	0	0	0
23.18322	-0.01802436	-0.1808223	0	0	0	0
23.19979	-0.01802436	-0.1808223	0	0	0	0
23.21635	-0.01802436	-0.1808223	0	0	0	0
23.23292	-0.01802436	-0.1808223	0	0	0	0
23.24949	-0.01802436	-0.1808223	0	0	0	0
23.26606	-0.01802436	-0.1808223	0	0	0	0
23.28262	-0.01802436	-0.1808223	0	0	0	0
23.29919	-0.01802436	-0.1808223	0	0	0	0
23.31578	-0.01802436	-0.1808223	0	0	0	0
23.33232	-0.01802436	-0.1808223	0	0	0	0
23.34889	-0.01802436	-0.1808223	0	0	0	0
23.36546	-0.01802436	-0.1808223	0	0	0	0
23.38202	-0.01802436	-0.1808223	0	0	0	0
23.39859	-0.01802436	-0.1808223	0	0	0	0
23.41516	-0.01802436	-0.1808223	0	0	0	0
23.43172	-0.01802436	-0.1808223	0	0	0	0
23.44829	-0.01802436	-0.1808223	0	0	0	0
23.46486	-0.01802436	-0.1808223	0	0	0	0
23.48142	-0.01802436	-0.1808223	0	0	0	0
23.49799	-0.01802436	-0.1808223	0	0	0	0
23.51455	-0.01802436	-0.1808223	0	0	0	0
23.53112	-0.01802436	-0.1808223	0	0	0	0
23.54769	-0.01802436	-0.1808223	0	0	0	0
23.56425	-0.01802436	-0.1808223	0	0	0	0
23.58082	-0.01802436	-0.1808223	0	0	0	0
23.59739	-0.01802436	-0.1808223	0	0	0	0
23.61395	-0.01802436	-0.1808223	0	0	0	0
23.63052	-0.01802436	-0.1808223	0	0	0	0
23.64709	-0.01802436	-0.1808223	0	0	0	0
23.66365	-0.01802436	-0.1808223	0	0	0	0
23.68022	-0.01802436	-0.1808223	0	0	0	0
23.69679	-0.01802436	-0.1808223	0	0	0	0
23.71336	-0.01802436	-0.1808223	0	0	0	0
23.72992	-0.01802436	-0.1808223	0	0	0	0
23.74649	-0.01802436	-0.1808223	0	0	0	0
23.76305	-0.01802436	-0.1808223	0	0	0	0
23.77962	-0.01805067	-0.1808022	-0.001588024	0.001216177	-0.04793219	0.03670853
23.79618	-0.01805067	-0.1808022	0	0	0.04792943	-0.03670642
23.81275	-0.01805067	-0.1808022	0	0	0	0
23.82932	-0.01805067	-0.1808022	0	0	0	0
23.84588	-0.01805067	-0.1808022	0	0	0	0
23.86245	-0.01805067	-0.1808022	0	0	0	0
23.87902	-0.01807698	-0.180782	-0.001588137	0.001216177	-0.04793283	0.03670642
23.89558	-0.01807698	-0.180782	0	0	0.04793283	-0.03670642
23.91215	-0.01807698	-0.180782	0	0	0	0
23.92872	-0.01807698	-0.180782	0	0	0	0
23.94529	-0.01807698	-0.180782	0	0	0	0
23.96185	-0.01807698	-0.180782	0	0	0	0
23.98048	-0.01862942	-0.1803591	-0.02965199	0.02269928	-0.8424288	0.6448987
23.99705	-0.01862942	-0.1803591	0	0	0.8423832	-0.6448637
24.01362	-0.01862942	-0.1803591	0	0	0	0
24.03019	-0.01910294	-0.1803188	-0.02858796	0.002430836	-0.8628359	0.07336698
24.04675	-0.01910294	-0.1803188	0	0	0.8628359	-0.07336698
24.06332	-0.01910294	-0.1803188	0	0	0	0
24.08001	-0.02120735	-0.1816885	-0.1260788	-0.08206026	-3.790881	-2.467352
24.09658	-0.02120735	-0.1816885	0	0	3.790881	2.467352
24.1132	-0.02120735	-0.1816885	0	0	0	0
24.13023	-0.02636231	-0.183422	-0.3026526	-0.1017742	-8.993772	-3.024372
24.14663	-0.02636231	-0.183422	0	0	9.054329	3.044736
24.16285	-0.02636231	-0.183422	0	0	0	0
24.17948	-0.04357766	-0.1727402	-1.035306	0.6423859	-31.51408	19.55383
24.19598	-0.04357766	-0.1727402	0	0	31.24739	-19.38836
24.21277	-0.04357766	-0.1727402	0	0	0	0
24.22912	-0.1274631	-0.1675885	-5.132469	0.3152069	-154.8982	9.512962
24.24568	-0.1274631	-0.1675885	0	0	155.9485	-9.577467
24.26225	-0.1274631	-0.1675885	0	0	0	0
24.27881	-0.1910871	-0.1565821	-3.841236	0.6644961	-115.9421	20.05684
24.29565	-0.1910871	-0.1565821	0	0	115.0151	-19.89648
24.31195	-0.1910871	-0.1565821	0	0	0	0
24.32851	-0.2025269	-0.1476714	-0.6906667	0.5379748	-21.01493	16.36897
24.34508	-0.2025269	-0.1476714	0	0	20.84556	-16.23705
24.36209	-0.2025269	-0.1476714	0	0	0	0
24.37821	-0.2084536	-0.1506711	-0.3675978	-0.186048	-11.0954	-5.615587
24.39478	-0.2084536	-0.1506711	0	0	11.24363	5.69061
24.41135	-0.2084536	-0.1506711	0	0	0	0
24.42792	-0.210493	-0.149896	-0.1230986	0.04678595	-3.715337	1.412084
24.44455	-0.210493	-0.149896	0	0	3.708079	-1.409326
24.46122	-0.210493	-0.149896	0	0	0	0
24.47762	-0.210493	-0.149896	0	0	0	0
24.49419	-0.210493	-0.149896	0	0	0	0
24.51075	-0.210493	-0.149896	0	0	0	0
24.52732	-0.2104427	-0.1499357	0.003038644	-0.002399072	0.09171703	-0.07241246
24.54424	-0.2104427	-0.1499357	0	0	-0.09074531	0.07164527
24.5609	-0.2104427	-0.1499357	0	0	0	0
24.57702	-0.2104427	-0.1499357	0	0	0	0
24.59359	-0.2104427	-0.1499357	0	0	0	0
24.61015	-0.2104427	-0.1499357	0	0	0	0
24.62672	-0.2104175	-0.1499556	0.001519147	-0.001199847	0.04584795	-0.03621147
24.64328	-0.2104175	-0.1499556	0	0	-0.04585323	0.03621564
24.65985	-0.2104175	-0.1499556	0	0	0	0
24.67686	-0.2104175	-0.1499556	0	0	0	0
24.69299	-0.2104175	-0.1499556	0	0	0	0
24.70955	-0.2104175	-0.1499556	0	0	0	0
24.72612	-0.2104175	-0.1499556	0	0	0	0
24.74309	-0.2104175	-0.1499556	0	0	0	0
24.78129	-0.2104175	-0.1499556	0	0	0	0
24.79786	-0.2104427	-0.1499357	-0.001519147	0.001199847	-0.02773516	0.02190569
24.81443	-0.2104427	-0.1499357	0	0	0.04584267	-0.0362073
24.83118	-0.2104427	-0.1499357	0	0	0	0
24.84756	-0.210493	-0.149896	-0.003073323	0.002426451	-0.09276375	0.07323888
24.86413	-0.210493	-0.149896	0	0	0.09327929	-0.0736459
24.8807	-0.210493	-0.149896	0	0	0	0
24.89798	-0.210493	-0.149896	0	0	0	0
24.91383	-0.210493	-0.149896	0	0	0	0
24.9304	-0.210493	-0.149896	0	0	0	0
24.94696	-0.2105685	-0.1497966	-0.004557966	0.005997229	-0.1375755	0.1810176
24.96353	-0.2105685	-0.1497966	0	0	0.1375676	-0.1810072
24.98037	-0.2105685	-0.1497966	0	0	0	0
24.99666	-0.2123043	-0.148426	-0.1065397	0.08412751	-3.215561	2.539119
25.01323	-0.2123043	-0.148426	0	0	3.242251	-2.560195
25.02991	-0.2123043	-0.148426	0	0	0	0
25.04636	-0.2132597	-0.1476317	-0.05805589	0.04826129	-1.752231	1.456613
25.06343	-0.2132597	-0.1476317	0	0	1.731991	-1.439787
25.0795	-0.2132597	-0.1476317	0	0	0	0
25.09606	-0.2132597	-0.1476317	0	0	0	0
25.11263	-0.2132597	-0.1476317	0	0	0	0
25.1292	-0.2132597	-0.1476317	0	0	0	0
25.14577	-0.2132597	-0.1476317	0	0	0	0
25.16233	-0.2132597	-0.1476317	0	0	0	0
25.17928	-0.2132597	-0.1476317	0	0	0	0
25.19554	-0.2132597	-0.1476317	0	0	0	0
25.21203	-0.2132597	-0.1476317	0	0	0	0
25.2286	-0.2132597	-0.1476317	0	0	0	0
25.24516	-0.2132346	-0.1476119	0.001517698	0.001198324	0.04580949	0.03616967
25.26173	-0.2132346	-0.1476119	0	0	-0.04580685	-0.03616759
25.2783	-0.2132346	-0.1476119	0	0	0	0
25.2972	-0.2131592	-0.1476714	0.003989026	-0.003151015	0.112465	-0.08883844
25.31377	-0.2131592	-0.1476714	0	0	-0.1124468	0.08882411
25.33034	-0.2131592	-0.1476714	0	0	0	0
25.3469	-0.2118768	-0.1486841	0.07740635	-0.06112566	2.336397	-1.844989
25.36347	-0.2118768	-0.1486841	0	0	-2.336128	1.844776
25.38004	-0.2118768	-0.1486841	0	0	0	0
25.39737	-0.1936225	-0.1630078	1.05344	-0.8266055	31.07905	-24.38688
25.41317	-0.1936225	-0.1630078	0	0	-31.79654	24.94988
25.42994	-0.1936225	-0.1630078	0	0	0	0
25.4463	-0.1510511	-0.1950676	2.602268	-1.959726	78.54111	-59.14806
25.46287	-0.1510511	-0.1950676	0	0	-79.0279	59.51465
25.47944	-0.1510511	-0.1950676	0	0	0	0
25.496	-0.08657254	-0.2294831	3.892832	-2.077801	117.4994	-62.71539
25.51257	-0.08657254	-0.2294831	0	0	-117.4927	62.71178
25.52914	-0.08657254	-0.2294831	0	0	0	0
25.5457	-0.01121006	-0.2432125	4.549936	-0.8288996	137.3332	-25.01912
25.56227	-0.01121006	-0.2432125	0	0	-137.3253	25.01768
25.57884	-0.01121006	-0.2432125	0	0	0	0
25.5954	0.0498009	-0.2509457	3.682628	-0.4667784	111.1483	-14.08821
25.61197	0.0498009	-0.2509457	0	0	-111.1419	14.0874
25.62854	0.0498009	-0.2509457	0	0	0	0
25.64511	0.06189452	-0.2547194	0.729973	-0.2277803	22.03063	-6.874424
25.66167	0.06189452	-0.2547194	0	0	-22.03063	6.874424
25.67824	0.06189452	-0.2547194	0	0	0	0
25.6948	0.06181588	-0.2546985	-0.004748091	0.0012595	-0.1433142	0.03801617
25.71137	0.06181588	-0.2546985	0	0	0.1433059	-0.03801398
25.72794	0.06181588	-0.2546985	0	0	0	0
25.7445	0.06142264	-0.2543855	-0.02374158	0.0188979	-0.7166048	0.5704055
25.76126	0.06142264	-0.2543855	0	0	0.7125844	-0.5672054
25.77764	0.06142264	-0.2543855	0	0	0	0
25.7942	0.06134399	-0.2544064	-0.004748316	-0.0012595	-0.1441258	-0.03822966
25.81077	0.06134399	-0.2544064	0	0	0.1433127	0.03801398
25.82734	0.06134399	-0.2544064	0	0	0	0
25.8439	0.06029525	-0.2536971	-0.06331687	0.04282301	-1.911127	1.29255
25.86047	0.06029525	-0.2536971	0	0	1.911017	-1.292475
25.87704	0.06029525	-0.2536971	0	0	0	0
25.89361	0.05586287	-0.2501751	-0.2675388	0.2125835	-8.074337	6.415782
25.91017	0.05586287	-0.2501751	0	0	8.074801	-6.416151
25.92674	0.05586287	-0.2501751	0	0	0	0
25.94373	0.0459676	-0.2423412	-0.5822641	0.4609682	-17.34906	13.73495
25.95987	0.0459676	-0.2423412	0	0	17.57479	-13.91365
25.97644	0.0459676	-0.2423412	0	0	0	0
25.993	0.04239563	-0.2395228	-0.2156539	0.1701621	-6.508821	5.135798
26.00957	0.04239563	-0.2395228	0	0	6.508821	-5.135798
26.02614	0.04239563	-0.2395228	0	0	0	0
26.0427	0.04239563	-0.2395228	0	0	0	0
26.05927	0.04239563	-0.2395228	0	0	0	0
26.07584	0.04239563	-0.2395228	0	0	0	0
26.0924	0.04236937	-0.2395021	-0.001585663	0.00125036	-0.04786092	0.03774028
26.10897	0.04236937	-0.2395021	0	0	0.04785816	-0.03773811
26.12554	0.04236937	-0.2395021	0	0	0	0
26.14232	0.04239563	-0.2395228	0.001564586	-0.00123374	0.04690608	-0.03698735
26.15867	0.04239563	-0.2395228	0	0	-0.04722201	0.03723648
26.17524	0.04239563	-0.2395228	0	0	0	0
26.1918	0.04234309	-0.2394814	-0.003171186	0.002499532	-0.09570658	0.07543603
26.20838	0.04234309	-0.2394814	0	0	0.09567904	-0.07541432
26.22494	0.04234309	-0.2394814	0	0	0	0
26.2415	0.04234309	-0.2394814	0	0	0	0
26.25807	0.04234309	-0.2394814	0	0	0	0
26.27469	0.04234309	-0.2394814	0	0	0	0
26.2912	0.04231683	-0.2394606	-0.001590792	0.001254404	-0.04801295	0.03786017
26.30777	0.04231683	-0.2394606	0	0	0.04809047	-0.03792129
26.32442	0.04231683	-0.2394606	0	0	0	0
26.3409	0.04231683	-0.2394606	0	0	0	0
26.35747	0.04231683	-0.2394606	0	0	0	0
26.37404	0.04231683	-0.2394606	0	0	0	0
26.3906	0.04226429	-0.2394192	-0.003171551	0.00250072	-0.09571761	0.07547187
26.40717	0.04226429	-0.2394192	0	0	0.09571761	-0.07547187
26.42375	0.04226429	-0.2394192	0	0	0	0
26.4403	0.04187025	-0.2391086	-0.02380616	0.01876512	-0.718554	0.5663978
26.45688	0.04187025	-0.2391086	0	0	0.7186781	-0.5664956
26.47344	0.04187025	-0.2391086	0	0	0	0
26.49	0.02523149	-0.2261269	-1.004781	0.7839388	-30.33132	23.66477
26.50657	0.02523149	-0.2261269	0	0	30.32783	-23.66204
26.52315	0.02523149	-0.2261269	0	0	0	0
26.54132	0.001394736	-0.2080198	-1.311504	0.9962597	-37.74529	28.67251
26.55808	0.001394736	-0.2080198	0	0	37.53922	-28.51597
26.57446	0.001394736	-0.2080198	0	0	0	0
26.59102	-0.007920887	-0.2008528	-0.5624216	0.4326968	-17.07417	13.13594
26.60759	-0.007920887	-0.2008528	0	0	16.97587	-13.06032
26.62416	-0.007920887	-0.2008528	0	0	0	0
26.64105	-0.008289284	-0.2005683	-0.02180962	0.01684592	-0.6518369	0.503484
26.65729	-0.008289284	-0.2005683	0	0	0.6582536	-0.5084403
26.67386	-0.008289284	-0.2005683	0	0	0	0
26.69043	-0.008315598	-0.2005886	-0.001587378	-0.001226125	-0.04789336	-0.03699387
26.70699	-0.008315598	-0.2005886	0	0	0.04790715	0.03700452
26.72356	-0.008315598	-0.2005886	0	0	0	0
26.74012	-0.008394539	-0.2006902	-0.004766027	-0.006135565	-0.1438473	-0.1851824
26.75669	-0.008394539	-0.2006902	0	0	0.1438556	0.185193
26.77326	-0.008394539	-0.2006902	0	0	0	0
26.78983	-0.008473481	-0.2007512	-0.00476493	-0.003680492	-0.1438059	-0.1110775
26.80639	-0.008473481	-0.2007512	0	0	0.1438142	0.1110839
26.82296	-0.008473481	-0.2007512	0	0	0	0
26.83953	-0.008526109	-0.2007919	-0.003177005	-0.002453943	-0.09588219	-0.07406016
26.85609	-0.008526109	-0.2007919	0	0	0.09588771	0.07406443
26.87266	-0.008526109	-0.2007919	0	0	0	0
26.88923	-0.008657678	-0.2009341	-0.007942427	-0.008589702	-0.2397167	-0.2592526
26.90579	-0.008657678	-0.2009341	0	0	0.2397167	0.2592526
26.92236	-0.008657678	-0.2009341	0	0	0	0
26.93892	-0.008841875	-0.2011171	-0.01111943	-0.01104455	-0.3356044	-0.3333442
26.95549	-0.008841875	-0.2011171	0	0	0.3356044	0.3333442
26.97209	-0.008841875	-0.2011171	0	0	0	0
26.98868	-0.008894502	-0.2011171	-0.003171106	0	-0.09554468	0
27.0052	-0.008894502	-0.2011171	0	0	0.09576482	0
27.02189	-0.008894502	-0.2011171	0	0	0	0
27.03859	-0.008894502	-0.2011171	0	0	0	0
27.0549	-0.008894502	-0.2011171	0	0	0	0
27.07163	-0.008894502	-0.2011171	0	0	0	0
27.08803	-0.008894502	-0.2011171	0	0	0	0
27.1046	-0.008894502	-0.2011171	0	0	0	0
27.12116	-0.008894502	-0.2011171	0	0	0	0
27.13773	-0.008894502	-0.2011171	0	0	0	0
27.1543	-0.008894502	-0.2011171	0	0	0	0
27.17086	-0.008894502	-0.2011171	0	0	0	0
27.18743	-0.008920816	-0.2010968	-0.001588291	0.00122773	-0.04793473	0.03705296
27.20401	-0.008920816	-0.2010968	0	0	0.0479237	-0.03704443
27.22056	-0.008920816	-0.2010968	0	0	0	0
27.23715	-0.008920816	-0.2010968	0	0	0	0
27.25381	-0.008920816	-0.2010968	0	0	0	0
27.27075	-0.008920816	-0.2010968	0	0	0	0
27.2899	-0.008920816	-0.2010968	0	0	0	0
27.30647	-0.008920816	-0.2010968	0	0	0	0
27.32304	-0.008920816	-0.2010968	0	0	0	0
27.3396	-0.008920816	-0.2010968	0	0	0	0
27.35617	-0.008920816	-0.2010968	0	0	0	0
27.37284	-0.008920816	-0.2010968	0	0	0	0
27.3893	-0.008920816	-0.2010968	0	0	0	0
27.40586	-0.008920816	-0.2010968	0	0	0	0
27.42244	-0.008920816	-0.2010968	0	0	0	0
27.439	-0.008920816	-0.2010968	0	0	0	0
27.45556	-0.008920816	-0.2010968	0	0	0	0
27.52639	-0.008920816	-0.2010968	0	0	0	0
27.54725	-0.008920816	-0.2010968	0	0	0	0
27.56383	-0.008920816	-0.2010968	0	0	0	0
27.58044	-0.008920816	-0.2010968	0	0	0	0
27.59696	-0.008920816	-0.2010968	0	0	0	0
27.61353	-0.008920816	-0.2010968	0	0	0	0
27.63011	-0.008894502	-0.2011171	0.001586647	-0.001226459	0.04786032	-0.03699544
27.64673	-0.008894502	-0.2011171	0	0	-0.04778883	0.03694019
27.66322	-0.008894502	-0.2011171	0	0	0	0
27.67979	-0.008894502	-0.2011171	0	0	0	0
27.69636	-0.008894502	-0.2011171	0	0	0	0
27.71292	-0.008894502	-0.2011171	0	0	0	0
27.72963	-0.008894502	-0.2011171	0	0	0	0
27.74606	-0.008894502	-0.2011171	0	0	0	0
27.76262	-0.008894502	-0.2011171	0	0	0	0
27.77919	-0.008894502	-0.2011171	0	0	0	0
27.79576	-0.008894502	-0.2011171	0	0	0	0
27.81236	-0.008894502	-0.2011171	0	0	0	0
27.82889	-0.008894502	-0.2011171	0	0	0	0
27.84546	-0.008894502	-0.2011171	0	0	0	0
27.86202	-0.008894502	-0.2011171	0	0	0	0
27.87859	-0.008894502	-0.2011171	0	0	0	0
27.89516	-0.008894502	-0.2011171	0	0	0	0
27.91172	-0.008894502	-0.2011171	0	0	0	0
27.92829	-0.008920816	-0.2010968	-0.001588474	0.001227871	-0.047943	0.03705936
27.94485	-0.008920816	-0.2010968	0	0	0.04794576	-0.03706149
27.96153	-0.008920816	-0.2010968	0	0	0	0
27.97807	-0.008920816	-0.2010968	0	0	0	0
27.99455	-0.008920816	-0.2010968	0	0	0	0
28.01112	-0.008920816	-0.2010968	0	0	0	0
28.02769	-0.008920816	-0.2010968	0	0	0	0
28.04425	-0.008920816	-0.2010968	0	0	0	0
28.06082	-0.008920816	-0.2010968	0	0	0	0
28.07739	-0.008920816	-0.2010968	0	0	0	0
28.09396	-0.008920816	-0.2010968	0	0	0	0
28.11076	-0.008920816	-0.2010968	0	0	0	0
28.12709	-0.008920816	-0.2010968	0	0	0	0
28.14365	-0.008920816	-0.2010968	0	0	0	0
28.16022	-0.008920816	-0.2010968	0	0	0	0
28.17679	-0.008920816	-0.2010968	0	0	0	0
28.19336	-0.008920816	-0.2010968	0	0	0	0
28.21012	-0.008920816	-0.2010968	0	0	0	0
28.22649	-0.008920816	-0.2010968	0	0	0	0
28.24306	-0.008920816	-0.2010968	0	0	0	0
28.25962	-0.008920816	-0.2010968	0	0	0	0
28.27619	-0.008920816	-0.2010968	0	0	0	0
28.29276	-0.008920816	-0.2010968	0	0	0	0
28.30932	-0.008920816	-0.2010968	0	0	0	0
28.32589	-0.008920816	-0.2010968	0	0	0	0
28.34246	-0.008920816	-0.2010968	0	0	0	0
28.35902	-0.008920816	-0.2010968	0	0	0	0
28.37559	-0.008920816	-0.2010968	0	0	0	0
28.39216	-0.008920816	-0.2010968	0	0	0	0
28.40872	-0.008920816	-0.2010968	0	0	0	0
28.4253	-0.008920816	-0.2010968	0	0	0	0
28.44186	-0.008920816	-0.2010968	0	0	0	0
28.45859	-0.008920816	-0.2010968	0	0	0	0
28.47499	-0.008894502	-0.2011171	0.001603988	-0.001239863	0.04841124	-0.0374213
28.49156	-0.008894502	-0.2011171	0	0	-0.04864647	0.03760313
28.50813	-0.008894502	-0.2011171	0	0	0	0
28.52469	-0.008894502	-0.2011171	0	0	0	0
28.54144	-0.008894502	-0.2011171	0	0	0	0
28.55783	-0.008894502	-0.2011171	0	0	0	0
28.57439	-0.008920816	-0.2010968	-0.001588291	0.00122773	-0.0482011	0.03725886
28.59096	-0.008920816	-0.2010968	0	0	0.04793473	-0.03705296
28.60753	-0.008920816	-0.2010968	0	0	0	0
28.62725	-0.008920816	-0.2010968	0	0	0	0
28.64382	-0.008920816	-0.2010968	0	0	0	0
28.66039	-0.008920816	-0.2010968	0	0	0	0
28.67699	-0.008920816	-0.2010968	0	0	0	0
28.69352	-0.008920816	-0.2010968	0	0	0	0
28.71009	-0.008920816	-0.2010968	0	0	0	0
28.72682	-0.008920816	-0.2010968	0	0	0	0
28.74322	-0.008920816	-0.2010968	0	0	0	0
28.75988	-0.008920816	-0.2010968	0	0	0	0
28.77635	-0.008920816	-0.2010968	0	0	0	0
28.79292	-0.008920816	-0.2010968	0	0	0	0
28.80949	-0.008920816	-0.2010968	0	0	0	0
28.82605	-0.008920816	-0.2010968	0	0	0	0
28.84311	-0.008920816	-0.2010968	0	0	0	0
28.85976	-0.008920816	-0.2010968	0	0	0	0
28.87603	-0.008920816	-0.2010968	0	0	0	0
28.89249	-0.008920816	-0.2010968	0	0	0	0
28.90889	-0.008920816	-0.2010968	0	0	0	0
28.92545	-0.008920816	-0.2010968	0	0	0	0
28.94202	-0.008920816	-0.2010968	0	0	0	0
28.95886	-0.008920816	-0.2010968	0	0	0	0
28.97515	-0.008920816	-0.2010968	0	0	0	0
28.99172	-0.008920816	-0.2010968	0	0	0	0
29.00829	-0.008920816	-0.2010968	0	0	0	0
29.02486	-0.008894502	-0.2011171	0.001588291	-0.00122773	0.04793473	-0.03705296
29.04142	-0.008894502	-0.2011171	0	0	-0.04793473	0.03705296
29.05799	-0.008894502	-0.2011171	0	0	0	0
29.07455	-0.008894502	-0.2011171	0	0	0	0
29.09112	-0.008894502	-0.2011171	0	0	0	0
29.10769	-0.008894502	-0.2011171	0	0	0	0
29.12425	-0.008894502	-0.2011171	0	0	0	0
29.14082	-0.008894502	-0.2011171	0	0	0	0
29.15748	-0.008894502	-0.2011171	0	0	0	0
29.17403	-0.008894502	-0.2011171	0	0	0	0
29.19052	-0.008894502	-0.2011171	0	0	0	0
29.20709	-0.008894502	-0.2011171	0	0	0	0
29.22366	-0.008920816	-0.2010968	-0.001588291	0.00122773	-0.04793473	0.03705296
29.2405	-0.008920816	-0.2010968	0	0	0.04753794	-0.03674625
29.25679	-0.008920816	-0.2010968	0	0	0	0
29.27336	-0.008920816	-0.2010968	0	0	0	0
29.28992	-0.008920816	-0.2010968	0	0	0	0
29.30649	-0.008920816	-0.2010968	0	0	0	0
29.32312	-0.008920816	-0.2010968	0	0	0	0
29.33991	-0.008920816	-0.2010968	0	0	0	0
29.35658	-0.008920816	-0.2010968	0	0	0	0
29.37276	-0.008920816	-0.2010968	0	0	0	0
29.38933	-0.008920816	-0.2010968	0	0	0	0
29.40589	-0.008920816	-0.2010968	0	0	0	0
29.42245	-0.008920816	-0.2010968	0	0	0	0
29.43918	-0.008920816	-0.2010968	0	0	0	0
29.45576	-0.008920816	-0.2010968	0	0	0	0
29.47216	-0.008894502	-0.2010764	0.001605107	0.00123982	0.04867761	0.03759964
29.48882	-0.008894502	-0.2010764	0	0	-0.04855964	-0.03750852
29.50566	-0.008894502	-0.2010764	0	0	0	0
29.52189	-0.008894502	-0.2010764	0	0	0	0
29.53843	-0.008894502	-0.2010764	0	0	0	0
29.555	-0.008894502	-0.2010764	0	0	0	0
29.57858	-0.008920816	-0.2010561	-0.001116173	0.0008621562	-0.02780029	0.02147355
29.59518	-0.008920816	-0.2010561	0	0	0.02777786	-0.02145622
29.61171	-0.008920816	-0.2010561	0	0	0	0
29.62846	-0.008920816	-0.2010561	0	0	0	0
29.64485	-0.008920816	-0.2010561	0	0	0	0
29.66141	-0.008920816	-0.2010561	0	0	0	0
29.67798	-0.008920816	-0.2010561	0	0	0	0
29.69455	-0.008920816	-0.2010561	0	0	0	0
29.71111	-0.008920816	-0.2010561	0	0	0	0
29.72768	-0.008920816	-0.2010561	0	0	0	0
29.74426	-0.008920816	-0.2010561	0	0	0	0
29.76081	-0.008920816	-0.2010561	0	0	0	0
29.77738	-0.008920816	-0.2010561	0	0	0	0
29.7941	-0.008920816	-0.2010561	0	0	0	0
29.81061	-0.008920816	-0.2010561	0	0	0	0
29.82708	-0.008920816	-0.2010561	0	0	0	0
29.84365	-0.008920816	-0.2010561	0	0	0	0
29.86068	-0.008920816	-0.2010561	0	0	0	0
29.87678	-0.008920816	-0.2010561	0	0	0	0
29.89335	-0.008920816	-0.2010561	0	0	0	0
29.91039	-0.008920816	-0.2010561	0	0	0	0
29.92697	-0.008920816	-0.2010561	0	0	0	0
29.9442	-0.008920816	-0.2010561	0	0	0	0
29.96077	-0.008920816	-0.2010561	0	0	0	0
29.97734	-0.008920816	-0.2010561	0	0	0	0
29.9939	-0.008920816	-0.2010561	0	0	0	0
30.01047	-0.008920816	-0.2010561	0	0	0	0
30.02703	-0.008920816	-0.2010561	0	0	0	0
30.04398	-0.008920816	-0.2010561	0	0	0	0
30.06017	-0.008920816	-0.2010561	0	0	0	0
30.0768	-0.008920816	-0.2010561	0	0	0	0
30.0933	-0.008920816	-0.2010561	0	0	0	0
30.10989	-0.008920816	-0.2010561	0	0	0	0
30.12644	-0.008920816	-0.2010561	0	0	0	0
30.14304	-0.008920816	-0.2010561	0	0	0	0
30.15961	-0.008920816	-0.2010561	0	0	0	0
30.17613	-0.008920816	-0.2010561	0	0	0	0
30.1927	-0.008920816	-0.2010561	0	0	0	0
30.26628	-0.008920816	-0.2010561	0	0	0	0
30.28285	-0.008920816	-0.2010561	0	0	0	0
30.29942	-0.008920816	-0.2010561	0	0	0	0
30.31598	-0.008920816	-0.2010561	0	0	0	0
30.33255	-0.008920816	-0.2010561	0	0	0	0
30.34912	-0.008920816	-0.2010561	0	0	0	0
30.36568	-0.008920816	-0.2010561	0	0	0	0
30.38225	-0.008920816	-0.2010561	0	0	0	0
30.39882	-0.008920816	-0.2010561	0	0	0	0
30.41538	-0.008920816	-0.2010561	0	0	0	0
30.43195	-0.008920816	-0.2010561	0	0	0	0
30.44851	-0.008920816	-0.2010561	0	0	0	0
30.46508	-0.008920816	-0.2010561	0	0	0	0
30.48165	-0.008920816	-0.2010561	0	0	0	0
30.49822	-0.008920816	-0.2010561	0	0	0	0
30.51479	-0.008920816	-0.2010561	0	0	0	0
30.53135	-0.008920816	-0.2010561	0	0	0	0
30.54836	-0.008920816	-0.2010561	0	0	0	0
30.56449	-0.008920816	-0.2010561	0	0	0	0
30.58105	-0.008920816	-0.2010561	0	0	0	0
30.59762	-0.008920816	-0.2010561	0	0	0	0
30.61419	-0.008920816	-0.2010561	0	0	0	0
30.63075	-0.008920816	-0.2010561	0	0	0	0
30.64738	-0.008920816	-0.2010561	0	0	0	0
30.66389	-0.008920816	-0.2010561	0	0	0	0
30.68046	-0.008920816	-0.2010561	0	0	0	0
30.69702	-0.008894502	-0.2011171	0.00158884	-0.003682663	0.04795681	-0.1111558
30.71359	-0.008894502	-0.2011171	0	0	-0.04795681	0.1111558
30.73015	-0.008894502	-0.2011171	0	0	0	0
30.74672	-0.00873662	-0.2028254	0.009531999	-0.1031378	0.2877094	-3.113063
30.76329	-0.00873662	-0.2028254	0	0	-0.2876929	3.112884
30.77985	-0.00873662	-0.2028254	0	0	0	0
30.79642	-0.0009999997	-0.2141676	0.4670909	-0.6847723	14.09845	-20.66885
30.81299	-0.0009999997	-0.2141676	0	0	-14.09764	20.66766
30.82955	-0.0009999997	-0.2141676	0	0	0	0
30.84612	0.02178603	-0.2319574	1.375684	-1.074041	41.52301	-32.41837
30.86269	0.02178603	-0.2319574	0	0	-41.52061	32.4165
30.87925	0.02178603	-0.2319574	0	0	0	0
30.89593	0.03982104	-0.2475743	1.081499	-0.936492	32.53295	-28.17095
30.91239	0.03982104	-0.2475743	0	0	-32.64157	28.26501
30.92895	0.03982104	-0.2475743	0	0	0	0
30.94552	0.02559967	-0.2930844	-0.8586015	-2.747627	-25.91563	-82.93309
30.96209	0.02559967	-0.2930844	0	0	25.91265	82.92354
30.97865	0.02559967	-0.2930844	0	0	0	0
30.99522	-0.01197311	-0.3702342	-2.26842	-4.657848	-68.47288	-140.5984
31.01179	-0.01197311	-0.3702342	0	0	68.46499	140.5822
31.02835	-0.01197311	-0.3702342	0	0	0	0
31.04492	-0.02636231	-0.4210987	-0.8687339	-3.070895	-26.22146	-92.69048
31.06149	-0.02636231	-0.4210987	0	0	26.21995	92.68514
31.07805	-0.02636231	-0.4210987	0	0	0	0
31.09462	-0.0142885	-0.4405822	0.7289446	-1.176296	22.00212	-35.50477
31.11119	-0.0142885	-0.4405822	0	0	-22.00086	35.50272
31.12791	-0.0142885	-0.4405822	0	0	0	0
31.14432	-0.007999829	-0.4464945	0.3833808	-0.3604379	11.57112	-10.87866
31.16089	-0.007999829	-0.4464945	0	0	-11.62735	10.93152
31.17745	-0.007999829	-0.4464945	0	0	0	0
31.19402	-0.008078772	-0.446518	-0.004764986	-0.001413913	-0.1438158	-0.04267444
31.21059	-0.008078772	-0.446518	0	0	0.1438076	0.04267199
31.22725	-0.008078772	-0.446518	0	0	0	0
31.24372	-0.008526109	-0.4470098	-0.02716082	-0.02986393	-0.8197624	-0.9013469
31.26071	-0.008526109	-0.4470098	0	0	0.8118176	0.8926114
31.27703	-0.008526109	-0.4470098	0	0	0	0
31.29363	-0.03674661	-0.4723698	-1.700456	-1.528089	-51.65289	-46.41709
31.31104	-0.03674661	-0.4723698	0	0	49.99321	44.92564
31.32934	-0.03674661	-0.4723698	0	0	0	0
31.34591	-0.03598446	-0.4720598	0.04600345	0.01871186	1.319567	0.536733
31.36248	-0.03598446	-0.4720598	0	0	-1.388307	-0.5646926
31.37904	-0.03598446	-0.4720598	0	0	0	0
31.39561	-0.03598446	-0.4720598	0	0	0	0
31.41218	-0.03598446	-0.4720598	0	0	0	0
31.42874	-0.03598446	-0.4720598	0	0	0	0
31.44531	-0.03595818	-0.4720836	0.001586745	-0.001439429	0.04789634	-0.04344955
31.46188	-0.03595818	-0.4720836	0	0	-0.04789083	0.04344455
31.47854	-0.03595818	-0.4720836	0	0	0	0
31.49501	-0.03595818	-0.4720836	0	0	0	0
31.51158	-0.03595818	-0.4720836	0	0	0	0
31.52814	-0.03595818	-0.4720836	0	0	0	0
31.54491	-0.03595818	-0.4720836	0	0	0	0
31.56128	-0.03595818	-0.4720836	0	0	0	0
31.57784	-0.03595818	-0.4720836	0	0	0	0
31.59441	-0.0359319	-0.4721074	0.001586745	-0.001439429	0.04789358	-0.04344705
31.61098	-0.0359319	-0.4721074	0	0	-0.04789083	0.04344455
31.62785	-0.0359319	-0.4721074	0	0	0	0
31.64411	-0.0359319	-0.4721074	0	0	0	0
31.66068	-0.0359319	-0.4721074	0	0	0	0
31.67724	-0.0359319	-0.4721074	0	0	0	0
31.69381	-0.03590561	-0.4720836	0.001586563	0.001439263	0.04788531	0.04343955
31.71037	-0.03590561	-0.4720836	0	0	-0.04788531	-0.04343955
31.72694	-0.03590561	-0.4720836	0	0	0	0
31.74351	-0.03590561	-0.4720836	0	0	0	0
31.76007	-0.03590561	-0.4720836	0	0	0	0
31.77664	-0.03590561	-0.4720836	0	0	0	0
31.79321	-0.03587933	-0.4721074	0.001586745	-0.001439429	0.04789358	-0.04344705
31.80977	-0.03587933	-0.4721074	0	0	-0.04789083	0.04344455
31.82634	-0.03587933	-0.4721074	0	0	0	0
31.84291	-0.03585305	-0.4721313	0.001586197	-0.001438932	0.04787153	-0.04342705
31.85947	-0.03585305	-0.4721313	0	0	-0.04787153	0.04342705
31.87632	-0.03585305	-0.4721313	0	0	0	0
31.8926	-0.03582677	-0.4721074	0.001614257	0.001464386	0.04872398	0.04420035
31.90918	-0.03582677	-0.4721074	0	0	-0.04913699	-0.04457502
31.92574	-0.03582677	-0.4721074	0	0	0	0
31.9423	-0.03514342	-0.4726798	0.04125651	-0.03455709	1.245339	-1.043115
31.95887	-0.03514342	-0.4726798	0	0	-1.245196	1.042995
31.97544	-0.03514342	-0.4726798	0	0	0	0
31.99452	-0.005157849	-0.5000506	1.571636	-1.434587	44.08957	-40.24488
32.01119	-0.005157849	-0.5000506	0	0	-43.9602	40.12679
32.02766	-0.005157849	-0.5000506	0	0	0	0
32.04422	0.01965536	-0.5231064	1.498073	-1.391971	45.35816	-42.14562
32.06079	0.01965536	-0.5231064	0	0	-45.21715	42.0146
32.07735	0.01965536	-0.5231064	0	0	0	0
32.09392	0.02344307	-0.5266289	0.2286793	-0.2126684	6.902348	-6.419085
32.11049	0.02344307	-0.5266289	0	0	-6.901554	6.418345
32.12706	0.02344307	-0.5266289	0	0	0	0
32.14362	0.02344307	-0.5265792	0	0.003001209	0	0.0905871
32.16019	0.02344307	-0.5265792	0	0	0	-0.0905871
32.17675	0.02344307	-0.5265792	0	0	0	0
32.19332	0.02344307	-0.5265792	0	0	0	0
32.21026	0.02344307	-0.5265792	0	0	0	0
32.22646	0.02344307	-0.5265792	0	0	0	0
32.24302	0.02344307	-0.5265792	0	0	0	0
32.25959	0.02344307	-0.5265792	0	0	0	0
32.27615	0.02344307	-0.5265792	0	0	0	0
32.29272	0.02344307	-0.5265792	0	0	0	0
32.30929	0.02344307	-0.5265792	0	0	0	0
32.32586	0.02344307	-0.5265792	0	0	0	0
32.34242	0.02341677	-0.5265544	-0.001587982	0.001497006	-0.04793092	0.04518493
32.35899	0.02341677	-0.5265544	0	0	0.04793092	-0.04518493
32.37585	0.02341677	-0.5265544	0	0	0	0
32.39212	0.02339047	-0.5265296	-0.001616537	0.001527696	-0.04879281	0.04611128
32.40872	0.02339047	-0.5265296	0	0	0.04917785	-0.04647516
32.42525	0.02339047	-0.5265296	0	0	0	0
32.44181	0.02339047	-0.5265296	0	0	0	0
32.45838	0.02339047	-0.5265296	0	0	0	0
32.47495	0.02339047	-0.5265296	0	0	0	0
32.4917	0.02339047	-0.5265296	0	0	0	0
32.50808	0.02339047	-0.5265296	0	0	0	0
32.5251	0.02339047	-0.5265296	0	0	0	0
32.54121	0.02341677	-0.5265047	0.001633001	0.001543256	0.04928975	0.04658091
32.55778	0.02341677	-0.5265047	0	0	-0.04998032	-0.04723353
32.57434	0.02341677	-0.5265047	0	0	0	0
32.59091	0.02341677	-0.5265047	0	0	0	0
32.60748	0.02341677	-0.5265047	0	0	0	0
32.62405	0.02341677	-0.5265047	0	0	0	0
32.64401	0.02341677	-0.5265047	0	0	0	0
32.66058	0.02341677	-0.5265047	0	0	0	0
32.67715	0.02341677	-0.5265047	0	0	0	0
32.69482	0.02341677	-0.5265047	0	0	0	0
32.71143	0.02341677	-0.5265047	0	0	0	0
32.72849	0.02341677	-0.5265047	0	0	0	0
32.74452	0.02341677	-0.5265047	0	0	0	0
32.76109	0.02341677	-0.5265047	0	0	0	0
32.77802	0.02341677	-0.5265047	0	0	0	0
32.79424	0.02341677	-0.526455	0	0.00306178	0	0.09237278
32.81079	0.02341677	-0.526455	0	0	0	-0.09343739
32.82755	0.02341677	-0.526455	0	0	0	0
32.844	0.02341677	-0.5264053	0	0.00302209	0	0.09099732
32.86055	0.02341677	-0.5264053	0	0	0	-0.09157585
32.87705	0.02341677	-0.5264053	0	0	0	0
32.89367	0.02202275	-0.5246432	-0.08391116	0.106067	-2.533902	3.202953
32.91018	0.02202275	-0.5246432	0	0	2.532735	-3.201478
32.97304	0.02202275	-0.5246432	0	0	0	0
32.99804	-0.04221175	-0.463763	-2.569616	2.435434	-29.24921	27.72186
33.0146	-0.04221175	-0.463763	0	0	61.8217	-58.59346
33.03117	-0.06794787	-0.4391137	-1.553435	1.487832	-46.88277	44.90287
33.04784	-0.06794787	-0.4391137	0	0	46.73212	-44.75859
33.0643	-0.06794787	-0.4391137	0	0	0	0
33.08087	-0.08215676	-0.422273	-0.8576503	1.016508	-25.96765	30.77749
33.09763	-0.08215676	-0.422273	0	0	25.73874	-30.50619
33.114	-0.08215676	-0.422273	0	0	0	0
33.13057	-0.08254883	-0.3965341	-0.02366506	1.553601	-0.718348	47.15924
33.14714	-0.08254883	-0.3965341	0	0	0.7141306	-46.88237
33.16371	-0.08254883	-0.3965341	0	0	0	0
33.18027	-0.07574952	-0.3683419	0.4104072	1.701684	12.38611	51.35693
33.19684	-0.07574952	-0.3683419	0	0	-12.38611	-51.35693
33.21367	-0.07574952	-0.3683419	0	0	0	0
33.22998	-0.079307	-0.3376144	-0.2180945	1.883781	-6.582107	56.85262
33.24671	-0.079307	-0.3376144	0	0	6.599582	-57.00356
33.26311	-0.079307	-0.3376144	0	0	0	0
33.27968	-0.09474183	-0.3094291	-0.9316483	1.701265	-28.26036	51.60569
33.29625	-0.09474183	-0.3094291	0	0	28.1172	-51.34428
33.31281	-0.09474183	-0.3094291	0	0	0	0
33.32938	-0.11351	-0.2932335	-1.132847	0.9775717	-34.18939	29.50317
33.34605	-0.11351	-0.2932335	0	0	34.08736	-29.41512
33.36251	-0.11351	-0.2932335	0	0	0	0
33.37908	-0.11795	-0.2881925	-0.2679365	0.3042055	-8.110617	9.208505
33.39565	-0.11795	-0.2881925	0	0	8.085408	-9.179884
33.41222	-0.11795	-0.2881925	0	0	0	0
33.42878	-0.09836572	-0.2714242	1.182106	1.012135	35.67604	30.5463
33.44535	-0.09836572	-0.2714242	0	0	-35.67604	-30.5463
33.46201	-0.09836572	-0.2714242	0	0	0	0
33.47868	-0.07847012	-0.2553247	1.193208	0.9655417	35.80089	28.97001
33.49505	-0.07847012	-0.2553247	0	0	-36.11087	-29.22085
33.51176	-0.07847012	-0.2553247	0	0	0	0
33.52818	-0.05119208	-0.2330512	1.66104	1.356301	50.13605	40.93795
33.54475	-0.05119208	-0.2330512	0	0	-50.34473	-41.10835
33.56132	-0.05119208	-0.2330512	0	0	0	0
33.57788	-0.02318006	-0.2112855	1.690809	1.313779	51.02871	39.64993
33.59445	-0.02318006	-0.2112855	0	0	-51.02871	-39.64993
33.61102	-0.02318006	-0.2112855	0	0	0	0
33.62812	-0.0189188	-0.2080198	0.2492335	0.1910053	7.403407	5.673757
33.64415	-0.0189188	-0.2080198	0	0	-7.521882	-5.764553
33.66072	-0.0189188	-0.2080198	0	0	0	0
33.67728	-0.0189188	-0.2080198	0	0	0	0
33.69389	-0.0189188	-0.2080198	0	0	0	0
33.71061	-0.0189188	-0.2080198	0	0	0	0
33.72698	-0.01881357	-0.2078974	0.006426951	0.007473934	0.1942117	0.2258498
33.74355	-0.01881357	-0.2078974	0	0	-0.1950888	-0.2268697
33.76012	-0.01881357	-0.2078974	0	0	0	0
33.77668	-0.01873465	-0.207877	0.004763525	0.001231328	0.14378	0.03716582
33.79325	-0.01873465	-0.207877	0	0	-0.14378	-0.03716582
33.80989	-0.01873465	-0.207877	0	0	0	0
33.82638	-0.01862942	-0.2077954	0.006380863	0.00494629	0.192597	0.1492965
33.84295	-0.01862942	-0.2077954	0	0	-0.1930193	-0.1496238
33.85951	-0.01862942	-0.2077954	0	0	0	0
33.87608	-0.01841897	-0.2076323	0.012706	0.009849292	0.3835119	0.2972865
33.89265	-0.01841897	-0.2076323	0	0	-0.3834677	-0.2972522
33.90921	-0.01841897	-0.2076323	0	0	0	0
33.92578	-0.01834005	-0.2076119	0.004764734	0.001230712	0.1438165	0.03714723
33.94235	-0.01834005	-0.2076119	0	0	-0.1438	-0.03714295
33.95892	-0.01834005	-0.2076119	0	0	0	0
33.97558	-0.01828744	-0.2075711	0.003157619	0.002447666	0.09502364	0.07365871
33.99205	-0.01828744	-0.2075711	0	0	-0.09530811	-0.07387922
34.00861	-0.01828744	-0.2075711	0	0	0	0
34.02518	-0.01826113	-0.2075915	0.001587588	-0.001230145	0.04791351	-0.03712585
34.04175	-0.01826113	-0.2075915	0	0	-0.047908	0.03712158
34.05834	-0.01826113	-0.2075915	0	0	0	0
34.07487	-0.01826113	-0.2075915	0	0	0	0
34.09144	-0.01826113	-0.2075915	0	0	0	0
34.10801	-0.01826113	-0.2075915	0	0	0	0
34.12458	-0.01826113	-0.2075915	0	0	0	0
34.14115	-0.01826113	-0.2075915	0	0	0	0
34.15791	-0.01826113	-0.2075915	0	0	0	0
34.17427	-0.01826113	-0.2075915	0	0	0	0
34.19085	-0.01826113	-0.2075915	0	0	0	0
34.20741	-0.01826113	-0.2075915	0	0	0	0
34.22437	-0.01823482	-0.2075303	0.001551754	0.003608271	0.04629374	0.1076461
34.24055	-0.01823482	-0.2075303	0	0	-0.04683204	-0.1088978
34.25711	-0.01823482	-0.2075303	0	0	0	0
34.27368	-0.01755083	-0.2069595	0.0412953	0.03446443	1.246438	1.040258
34.29025	-0.01755083	-0.2069595	0	0	-1.246438	-1.040258
34.30681	-0.01755083	-0.2069595	0	0	0	0
34.32338	-0.01115743	-0.2020117	0.3859951	0.2987148	11.6507	9.016267
34.33995	-0.01115743	-0.2020117	0	0	-11.64936	-9.015229
34.35651	-0.01115743	-0.2020117	0	0	0	0
34.37329	0.002789466	-0.1912598	0.8314978	0.6410204	24.93961	19.2265
34.38965	0.002789466	-0.1912598	0	0	-25.09465	-19.34603
34.40622	0.002789466	-0.1912598	0	0	0	0
34.42278	0.005973613	-0.1888934	0.1922398	0.1428687	5.802475	4.312283
34.43935	0.005973613	-0.1888934	0	0	-5.802475	-4.312283
34.45591	0.005973613	-0.1888934	0	0	0	0
34.47248	0.006078872	-0.1889742	0.006354909	-0.004881463	0.1918136	-0.1473398
34.48912	0.006078872	-0.1889742	0	0	-0.1913729	0.1470013
34.50562	0.006078872	-0.1889742	0	0	0	0
34.5223	0.006078872	-0.1889742	0	0	0	0
34.53887	0.006078872	-0.1889742	0	0	0	0
34.55573	0.006078872	-0.1889742	0	0	0	0
34.572	0.006078872	-0.1889742	0	0	0	0
34.58857	0.006078872	-0.1889742	0	0	0	0
34.60555	0.006078872	-0.1889742	0	0	0	0
34.62173	0.006078872	-0.1889742	0	0	0	0
34.63826	0.006078872	-0.1889742	0	0	0	0
34.65483	0.006078872	-0.1889742	0	0	0	0
34.67277	0.006078872	-0.1889742	0	0	0	0
34.68934	0.006078872	-0.1889742	0	0	0	0
34.70591	0.006078872	-0.1889742	0	0	0	0
34.72248	0.006078872	-0.1890147	0	-0.002440169	0	-0.07364446
34.73904	0.006078872	-0.1890147	0	0	0	0.07364446
34.75561	0.006078872	-0.1890147	0	0	0	0
34.77217	0.006078872	-0.1890147	0	0	0	0
34.78874	0.006078872	-0.1890147	0	0	0	0
34.80531	0.006078872	-0.1890147	0	0	0	0
34.82187	0.006078872	-0.1890551	0	-0.002441631	0	-0.07369706
34.83844	0.006078872	-0.1890551	0	0	0	0.07369706
34.85501	0.006078872	-0.1890551	0	0	0	0
34.87157	0.006026243	-0.1890955	-0.003177455	-0.002440732	-0.09590682	-0.0736699
34.88814	0.006026243	-0.1890955	0	0	0.09590682	0.0736699
34.90471	0.006026243	-0.1890955	0	0	0	0
34.92127	0.005947298	-0.1891562	-0.004765099	-0.003660704	-0.143811	-0.1104803
34.93784	0.005947298	-0.1891562	0	0	0.143811	0.1104803
34.95442	0.005947298	-0.1891562	0	0	0	0
34.97097	0.005920983	-0.189136	-0.00158984	0.001220759	-0.04798699	0.03684683
34.98754	0.005920983	-0.189136	0	0	0.04800357	-0.03685956
35.00411	0.005920983	-0.189136	0	0	0	0
35.02068	0.005894668	-0.1891562	-0.001588376	-0.001219635	-0.04793175	-0.03680442
35.03724	0.005894668	-0.1891562	0	0	0.04793727	0.03680866
35.05407	0.005894668	-0.1891562	0	0	0	0
35.07051	0.005868354	-0.1891764	-0.001600509	-0.00122988	-0.04811512	-0.03697312
35.08702	0.005868354	-0.1891764	0	0	0.04856063	0.03731546
35.10365	0.005868354	-0.1891764	0	0	0	0
35.12007	0.005868354	-0.1891764	0	0	0	0
35.13664	0.005868354	-0.1891764	0	0	0	0
35.15321	0.005868354	-0.1891764	0	0	0	0
35.16977	0.005842039	-0.1891966	-0.001589107	-0.001221097	-0.04796488	-0.03685702
35.18634	0.005842039	-0.1891966	0	0	0.04796488	0.03685702
35.20508	0.005842039	-0.1891966	0	0	0	0
35.22169	0.005763094	-0.1892168	-0.004751997	-0.001217171	-0.134424	-0.03443122
35.23822	0.005763094	-0.1892168	0	0	0.143399	0.03673007
35.25502	0.005763094	-0.1892168	0	0	0	0
35.27135	0.005736779	-0.189237	-0.001612133	-0.001237877	-0.04865986	-0.0373635
35.28791	0.005736779	-0.189237	0	0	0.04901541	0.03763651
35.30448	0.005736779	-0.189237	0	0	0	0
35.32116	0.005736779	-0.189237	0	0	0	0
35.33762	0.005736779	-0.189237	0	0	0	0
35.35467	0.005736779	-0.189237	0	0	0	0
35.37075	0.005684149	-0.1891966	-0.003272417	0.002513675	-0.09876174	0.07586288
35.38732	0.005684149	-0.1891966	0	0	0.1002272	-0.07698854
35.40388	0.005684149	-0.1891966	0	0	0	0
35.42045	0.005657834	-0.1892573	-0.001588376	-0.003660704	-0.04793727	-0.1104803
35.43702	0.005657834	-0.1892573	0	0	0.04793727	0.1104803
35.45362	0.005657834	-0.1892573	0	0	0	0
35.47015	0.005631519	-0.189237	-0.001592409	0.001223634	-0.04806453	0.03693359
35.48672	0.005631519	-0.189237	0	0	0.04810884	-0.03696764
35.50367	0.005631519	-0.189237	0	0	0	0
35.51985	0.005605204	-0.1892573	-0.001626578	-0.001249889	-0.04910717	-0.03773477
35.53642	0.005605204	-0.1892573	0	0	0.04966774	0.03816552
35.55299	0.005605204	-0.1892573	0	0	0	0
35.56961	0.005631519	-0.1892775	0.001583272	-0.001216613	0.04770635	-0.03665836
35.58612	0.005631519	-0.1892775	0	0	-0.04778324	0.03671744
35.60288	0.005631519	-0.1892775	0	0	0	0
35.61925	0.005605204	-0.1892977	-0.001607999	-0.001235613	-0.04854068	-0.03729947
35.63582	0.005605204	-0.1892977	0	0	0.04881613	0.03751113
35.71429	0.005605204	-0.1892977	0	0	0	0
35.73692	0.00557889	-0.1893179	-0.001162703	-0.0008934403	-0.01150085	-0.008837447
35.75349	0.00557889	-0.1893179	0	0	0.02965514	0.02278751
35.77005	0.00557889	-0.1893179	0	0	0	0
35.78662	0.00557889	-0.1893179	0	0	0	0
35.80319	0.00557889	-0.1893179	0	0	0	0
35.81975	0.00557889	-0.1893179	0	0	0	0
35.83632	0.00557889	-0.1893179	0	0	0	0
35.85288	0.00557889	-0.1893179	0	0	0	0
35.86945	0.00557889	-0.1893179	0	0	0	0
35.88602	0.00557889	-0.1893179	0	0	0	0
35.90258	0.00557889	-0.1893179	0	0	0	0
35.91915	0.00557889	-0.1893179	0	0	0	0
35.93571	0.00557889	-0.1893179	0	0	0	0
35.95228	0.00557889	-0.1893179	0	0	0	0
35.96885	0.005552575	-0.1893381	-0.001588376	-0.001220534	-0.04793727	-0.0368358
35.98542	0.005552575	-0.1893381	0	0	0.04793727	0.0368358
36.00225	0.005552575	-0.1893381	0	0	0	0
36.02207	0.005552575	-0.1893381	0	0	0	0
36.03864	0.005552575	-0.1893381	0	0	0	0
36.05521	0.005552575	-0.1893381	0	0	0	0
36.07178	0.00552626	-0.1893584	-0.001588376	-0.001219635	-0.04793727	-0.03680866
36.08834	0.00552626	-0.1893584	0	0	0.04793727	0.03680866
36.10491	0.00552626	-0.1893584	0	0	0	0
36.12148	0.005499945	-0.1893786	-0.001588741	-0.001220816	-0.04795383	-0.03684853
36.13805	0.005499945	-0.1893786	0	0	0.04794831	0.03684429
36.15478	0.005499945	-0.1893786	0	0	0	0
36.17118	0.00547363	-0.1893988	-0.001604633	-0.001233027	-0.04843348	-0.0372171
36.18774	0.00547363	-0.1893988	0	0	0.04867448	0.03740228
36.20431	0.00547363	-0.1893988	0	0	0	0
36.22088	0.005447315	-0.189419	-0.001588376	-0.001220534	-0.04793727	-0.0368358
36.23745	0.005447315	-0.189419	0	0	0.04793727	0.0368358
36.25401	0.005447315	-0.189419	0	0	0	0
36.27058	0.005421	-0.1894392	-0.001588741	-0.001220816	-0.04795383	-0.03684853
36.28714	0.005421	-0.1894392	0	0	0.04795383	0.03684853
36.30371	0.005421	-0.1894392	0	0	0	0
36.32028	0.005421	-0.1894797	0	-0.002441069	0	-0.0736716
36.33694	0.005421	-0.1894797	0	0	0	0.0734686
36.35341	0.005421	-0.1894797	0	0	0	0
36.36998	0.005394685	-0.1894999	-0.001588376	-0.001220534	-0.04807564	-0.03694213
36.38655	0.005394685	-0.1894999	0	0	0.04793175	0.03683156
36.40348	0.005394685	-0.1894999	0	0	0	0
36.42016	0.00536837	-0.1895201	-0.001577479	-0.001212161	-0.04692767	-0.03606001
36.43624	0.00536837	-0.1895201	0	0	0.04814608	0.03699625
36.45281	0.00536837	-0.1895201	0	0	0	0
36.46937	0.005342055	-0.1895403	-0.001588741	-0.001220816	-0.04795935	-0.03685277
36.48594	0.005342055	-0.1895403	0	0	0.04794831	0.03684429
36.5028	0.005342055	-0.1895403	0	0	0	0
36.51918	0.005342055	-0.1895403	0	0	0	0
36.53564	0.005342055	-0.1895403	0	0	0	0
36.55221	0.005342055	-0.1895403	0	0	0	0
36.56877	0.005342055	-0.1895403	0	0	0	0
36.58537	0.005342055	-0.1895403	0	0	0	0
36.60191	0.005342055	-0.1895403	0	0	0	0
36.61859	0.005342055	-0.1895403	0	0	0	0
36.63504	0.005342055	-0.1895403	0	0	0	0
36.6519	0.005342055	-0.1895403	0	0	0	0
36.66817	0.005342055	-0.1895403	0	0	0	0
36.68473	0.005342055	-0.1895403	0	0	0	0
36.70145	0.005342055	-0.1895403	0	0	0	0
36.71787	0.005342055	-0.1895403	0	0	0	0
36.73444	0.005342055	-0.1895403	0	0	0	0
36.751	0.005342055	-0.1895403	0	0	0	0
36.76757	0.005342055	-0.1895403	0	0	0	0
36.78414	0.005342055	-0.1895403	0	0	0	0
36.80101	0.005342055	-0.1895403	0	0	0	0
36.81726	0.005342055	-0.1895403	0	0	0	0
36.83384	0.005342055	-0.1895403	0	0	0	0
36.8504	0.005342055	-0.1895403	0	0	0	0
36.86697	0.005342055	-0.1895403	0	0	0	0
36.88362	0.005342055	-0.1895403	0	0	0	0
36.9001	0.005342055	-0.1895403	0	0	0	0
36.91667	0.005342055	-0.1895403	0	0	0	0
36.93327	0.005342055	-0.1895403	0	0	0	0
36.9498	0.005342055	-0.1895403	0	0	0	0
36.96637	0.005342055	-0.1895403	0	0	0	0
36.98294	0.005342055	-0.1895403	0	0	0	0
36.9995	0.005342055	-0.1895403	0	0	0	0
37.01614	0.005342055	-0.1895403	0	0	0	0
37.03305	0.005342055	-0.1895403	0	0	0	0
37.0492	0.005342055	-0.1895403	0	0	0	0
37.06577	0.005342055	-0.1895403	0	0	0	0
37.08233	0.005342055	-0.1895403	0	0	0	0
37.0989	0.005342055	-0.1895403	0	0	0	0
37.11547	0.005342055	-0.1895403	0	0	0	0
37.13244	0.005342055	-0.1895403	0	0	0	0
37.1486	0.005342055	-0.1895403	0	0	0	0
37.16532	0.005342055	-0.1895403	0	0	0	0
37.18174	0.005342055	-0.1895403	0	0	0	0
37.19856	0.005342055	-0.1895403	0	0	0	0
37.21487	0.005315739	-0.1895201	-0.001613292	0.001239659	-0.04869486	0.03741729
37.23144	0.005315739	-0.1895201	0	0	0.04906205	-0.03769943
37.24801	0.005315739	-0.1895201	0	0	0	0
37.26468	0.005315739	-0.1895201	0	0	0	0
37.28114	0.005315739	-0.1895201	0	0	0	0
37.29776	0.005315739	-0.1895201	0	0	0	0
37.31427	0.005315739	-0.1895201	0	0	0	0
37.33084	0.005315739	-0.1895201	0	0	0	0
37.3474	0.005315739	-0.1895201	0	0	0	0
37.36398	0.005342055	-0.1895403	0.001588038	-0.001220254	0.04792709	-0.03682733
37.38091	0.005342055	-0.1895403	0	0	-0.04739238	0.03641646
37.39711	0.005342055	-0.1895403	0	0	0	0
37.41367	0.005342055	-0.1895403	0	0	0	0
37.43024	0.005342055	-0.1895403	0	0	0	0
37.4468	0.005342055	-0.1895403	0	0	0	0
37.46337	0.005342055	-0.1895403	0	0	0	0
37.47994	0.005342055	-0.1895403	0	0	0	0
37.49651	0.005342055	-0.1895403	0	0	0	0
37.51307	0.005342055	-0.1895403	0	0	0	0
37.52964	0.005342055	-0.1895403	0	0	0	0
37.54621	0.005342055	-0.1895403	0	0	0	0
37.56277	0.005342055	-0.1895403	0	0	0	0
37.57938	0.005342055	-0.1895403	0	0	0	0
37.59591	0.005342055	-0.1895403	0	0	0	0
37.61296	0.005315739	-0.1895201	-0.00154362	0.001186122	-0.04597259	0.03532548
37.62904	0.005315739	-0.1895201	0	0	0.04658654	-0.03579725
37.64561	0.005315739	-0.1895201	0	0	0	0
37.66218	0.005315739	-0.1895201	0	0	0	0
37.67875	0.005315739	-0.1895201	0	0	0	0
37.69531	0.005315739	-0.1895201	0	0	0	0
37.71188	0.005315739	-0.1895201	0	0	0	0
37.72845	0.005315739	-0.1895201	0	0	0	0
37.74501	0.005315739	-0.1895201	0	0	0	0
37.76158	0.005342055	-0.1895403	0.001588404	-0.001220534	0.04793812	-0.0368358
37.77815	0.005342055	-0.1895403	0	0	-0.04793812	0.0368358
37.79472	0.005342055	-0.1895403	0	0	0	0
37.81128	0.005342055	-0.1895403	0	0	0	0
37.82785	0.005342055	-0.1895403	0	0	0	0
37.84464	0.005342055	-0.1895403	0	0	0	0
37.86098	0.005342055	-0.1895403	0	0	0	0
37.87755	0.005342055	-0.1895403	0	0	0	0
37.89412	0.005342055	-0.1895403	0	0	0	0
37.91068	0.005342055	-0.1895403	0	0	0	0
37.92725	0.005342055	-0.1895403	0	0	0	0
37.94421	0.005342055	-0.1895403	0	0	0	0
37.96039	0.005342055	-0.1895403	0	0	0	0
37.97696	0.005342055	-0.1895403	0	0	0	0
37.99352	0.005342055	-0.1895403	0	0	0	0
38.01749	0.005315739	-0.1895201	-0.001097778	0.0008435362	-0.0270797	0.02080812
38.03407	0.005315739	-0.1895201	0	0	0.02707715	-0.02080617
38.05125	0.005289424	-0.1894595	-0.001531258	0.003529932	-0.04536219	0.1045712
38.06732	0.005289424	-0.1894595	0	0	0.04604382	-0.1061425
38.08377	0.005289424	-0.1894595	0	0	0	0
38.10033	0.00536837	-0.189237	0.004766252	0.01342807	0.1443944	0.4068055
38.1169	0.00536837	-0.189237	0	0	-0.1438623	-0.4053067
38.13346	0.00536837	-0.189237	0	0	0	0
38.15004	0.006631482	-0.1881456	0.07620651	0.06585155	2.299388	1.986946
38.16661	0.006631482	-0.1881456	0	0	-2.299123	-1.986718
38.18318	0.006631482	-0.1881456	0	0	0	0
38.19975	0.03354005	-0.1676085	1.62383	1.239334	49.00166	37.39888
38.21631	0.03354005	-0.1676085	0	0	-49.0073	-37.40318
38.23288	0.03354005	-0.1676085	0	0	0	0
38.24944	0.07190215	-0.1385963	2.316074	1.751583	69.90731	52.86898
38.26601	0.07190215	-0.1385963	0	0	-69.90731	-52.86898
38.28267	0.07190215	-0.1385963	0	0	0	0
38.29914	0.09919964	-0.1180157	1.656836	1.249153	50.0034	37.6995
38.31571	0.09919964	-0.1180157	0	0	-50.14194	-37.80396
38.33239	0.09919964	-0.1180157	0	0	0	0
38.34885	0.1181057	-0.1037968	1.149108	0.8642236	34.68014	26.08232
38.36541	0.1181057	-0.1037968	0	0	-34.80033	-26.17272
38.42951	0.1181057	-0.1037968	0	0	0	0
38.44726	0.1420113	-0.0857975	1.346811	1.014055	16.45499	12.38947
38.46383	0.1420113	-0.0857975	0	0	-39.24615	-29.54964
38.4804	0.1420113	-0.0857975	0	0	0	0
38.49696	0.1420886	-0.0856619	0.004670047	0.008187201	0.1409585	0.2471187
38.51357	0.1420886	-0.0856619	0	0	-0.140764	-0.2467777
38.53014	0.1420886	-0.0856619	0	0	0	0
38.54666	0.1421144	-0.08568127	0.001561598	-0.001172777	0.04719432	-0.03544345
38.56323	0.1421144	-0.08568127	0	0	-0.04719976	0.03544754
38.5798	0.1421144	-0.08568127	0	0	0	0
38.59684	0.1420886	-0.0856619	-0.001513705	0.001136809	-0.0450407	0.03382606
38.61295	0.1420886	-0.0856619	0	0	0.04566267	-0.03429316
38.6295	0.1420886	-0.0856619	0	0	0	0
38.64606	0.1420628	-0.08564253	-0.001556024	0.001168817	-0.04698253	0.03529122
38.66263	0.1420628	-0.08564253	0	0	0.0469609	-0.03527496
38.67923	0.1420628	-0.08564253	0	0	0	0
38.69576	0.1355841	-0.08024338	-0.3918706	0.3265702	-11.82804	9.857044
38.71233	0.1355841	-0.08024338	0	0	11.83894	-9.866133
38.7289	0.1355841	-0.08024338	0	0	0	0
38.74546	0.1093515	-0.06020992	-1.583401	1.209222	-47.78714	36.49439
38.76203	0.1093515	-0.06020992	0	0	47.78714	-36.49439
38.77859	0.1093515	-0.06020992	0	0	0	0
38.79516	0.1099235	-0.03787639	0.03452665	1.348055	1.042136	40.68905
38.81192	0.1099235	-0.03787639	0	0	-1.035934	-40.44688
38.8283	0.1099235	-0.03787639	0	0	0	0
38.84509	0.1204924	-0.02789185	0.6292465	0.5944555	18.97104	17.92213
38.86143	0.1204924	-0.02789185	0	0	-18.9907	-17.9407
38.878	0.1204924	-0.02789185	0	0	0	0
38.89461	0.1204665	-0.02787286	-0.001561513	0.001143211	-0.04706696	0.03445853
38.91113	0.1204665	-0.02787286	0	0	0.04712656	-0.03450216
38.9277	0.1204665	-0.02787286	0	0	0	0
38.94427	0.1197921	-0.02722736	-0.04070577	0.03896221	-1.228503	1.175882
38.96083	0.1197921	-0.02722736	0	0	1.228503	-1.175882
38.9774	0.1197921	-0.02722736	0	0	0	0
38.99397	0.1092735	-0.01947286	-0.6349037	0.4680628	-19.16143	14.12616
39.01054	0.1092735	-0.01947286	0	0	19.16143	-14.12616
39.0271	0.1092735	-0.01947286	0	0	0	0
39.04367	0.09865239	-0.0117562	-0.6412395	0.4658859	-19.35487	14.06208
39.06023	0.09865239	-0.0117562	0	0	19.35487	-14.06208
39.0768	0.09865239	-0.0117562	0	0	0	0
39.09336	0.09873058	-0.01181287	0.004720427	-0.003421567	0.1424792	-0.103275
39.11019	0.09873058	-0.01181287	0	0	-0.1413884	0.1024844
39.1265	0.09873058	-0.01181287	0	0	0	0
39.14307	0.09873058	-0.01181287	0	0	0	0
39.15963	0.09873058	-0.01181287	0	0	0	0
39.1762	0.09873058	-0.01181287	0	0	0	0
39.19276	0.09886087	-0.01194511	0.007866479	-0.007983826	0.2374381	-0.2409801
39.20934	0.09886087	-0.01194511	0	0	-0.2374108	0.2409523
39.22607	0.09886087	-0.01194511	0	0	0	0
39.24247	0.09891299	-0.01198289	0.003178713	-0.00230451	0.0959448	-0.06955826
39.25904	0.09891299	-0.01198289	0	0	-0.09642219	0.06990436
39.2756	0.09891299	-0.01198289	0	0	0	0
39.29217	0.09888694	-0.011964	-0.001573026	0.001140579	-0.04747948	0.0344267
39.30874	0.09888694	-0.011964	0	0	0.04747402	-0.03442273
39.32531	0.09888694	-0.011964	0	0	0	0
39.34187	0.09888694	-0.011964	0	0	0	0
39.35844	0.09888694	-0.011964	0	0	0	0
39.375	0.09888694	-0.011964	0	0	0	0
39.39157	0.09888694	-0.011964	0	0	0	0
39.40817	0.09888694	-0.011964	0	0	0	0
39.42471	0.09888694	-0.011964	0	0	0	0
39.44194	0.09891299	-0.01198289	0.001511748	-0.001096147	0.04476906	-0.03246141
39.45851	0.09891299	-0.01198289	0	0	-0.04471854	0.03242478
39.47507	0.09891299	-0.01198289	0	0	0	0
39.49168	0.09888694	-0.01200179	-0.001569051	-0.001137696	-0.04730503	-0.03430021
39.50821	0.09888694	-0.01200179	0	0	0.0473595	0.0343397
39.52477	0.09888694	-0.01200179	0	0	0	0
39.54134	0.09888694	-0.01200179	0	0	0	0
39.5579	0.09888694	-0.01200179	0	0	0	0
39.57447	0.09888694	-0.01200179	0	0	0	0
39.59104	0.09888694	-0.01203957	0	-0.002280688	0	-0.06883131
39.60766	0.09888694	-0.01203957	0	0	0	0.06872055
39.62417	0.09888694	-0.01203957	0	0	0	0
39.64074	0.09888694	-0.01203957	0	0	0	0
39.65731	0.09888694	-0.01203957	0	0	0	0
39.67387	0.09888694	-0.01203957	0	0	0	0
39.69044	0.09883481	-0.01207735	-0.003146227	-0.002280688	-0.09495331	-0.06883131
39.70701	0.09883481	-0.01207735	0	0	0.09495331	0.06883131
39.72358	0.09883481	-0.01207735	0	0	0	0
39.74014	0.09792265	-0.01277645	-0.05505852	-0.04219771	-1.661669	-1.273529
39.75671	0.09792265	-0.01277645	0	0	1.661669	1.273529
39.77337	0.09792265	-0.01277645	0	0	0	0
39.78984	0.08479618	-0.02256099	-0.7967181	-0.5938775	-24.045	-17.92326
39.80641	0.08479618	-0.02256099	0	0	24.11162	17.97292
39.82298	0.08479618	-0.02256099	0	0	0	0
39.83969	0.04686041	-0.05081985	-2.269946	-1.690913	-68.2087	-50.80959
39.85611	0.04686041	-0.05081985	0	0	68.515	51.03775
39.87268	0.04686041	-0.05081985	0	0	0	0
39.88924	-0.005947298	-0.1067827	-3.187479	-3.377921	-96.19832	-101.9459
39.90581	-0.005947298	-0.1067827	0	0	96.19832	101.9459
39.92238	-0.005947298	-0.1067827	0	0	0	0
39.93894	-0.06079341	-0.1850559	-3.31128	-4.725672	-99.94615	-142.6375
39.95551	-0.06079341	-0.1850559	0	0	99.94615	142.6375
39.97208	-0.06079341	-0.1850559	0	0	0	0
39.98864	-0.092655	-0.2100602	-1.923169	-1.509263	-58.04135	-45.54966
40.00521	-0.092655	-0.2100602	0	0	58.04135	45.54966
40.02177	-0.092655	-0.2100602	0	0	0	0
40.03868	-0.09150689	-0.2109587	0.06792343	-0.05315268	2.029604	-1.588243
40.05539	-0.09150689	-0.2109587	0	0	-2.020622	1.581214
40.07147	-0.09150689	-0.2109587	0	0	0	0
40.08804	-0.07585418	-0.2232693	0.9447994	-0.743068	28.9372	-22.7586
40.10461	-0.07585418	-0.2232693	0	0	-28.5141	22.42584
40.12117	-0.07585418	-0.2232693	0	0	0	0
40.13774	-0.06160615	-0.234476	0.8602108	-0.6765972	25.9642	-20.4221
40.1543	-0.06160615	-0.234476	0	0	-25.9642	20.4221
40.17087	-0.06160615	-0.234476	0	0	0	0
40.18744	-0.05942993	-0.2361913	0.1313872	-0.1035597	3.965731	-3.125798
40.20401	-0.05942993	-0.2361913	0	0	-3.965275	3.125438
40.22066	-0.05942993	-0.2361913	0	0	0	0
40.23714	-0.05956105	-0.2360466	-0.007959957	0.008785896	-0.2402596	0.2651894
40.2537	-0.05956105	-0.2360466	0	0	0.2409254	-0.2659242
40.27027	-0.05956105	-0.2360466	0	0	0	0
40.28684	-0.05953483	-0.2360259	0.001582782	0.001247518	0.04776846	0.03765015
40.30341	-0.05953483	-0.2360259	0	0	-0.04776846	-0.03765015
40.31997	-0.05953483	-0.2360259	0	0	0	0
40.33654	-0.05958727	-0.2359846	-0.003166294	0.002496509	-0.09556994	0.07535347
40.3531	-0.05958727	-0.2359846	0	0	0.09556994	-0.07535347
40.36973	-0.05958727	-0.2359846	0	0	0	0
40.38625	-0.05966594	-0.2358812	-0.004761503	0.006255772	-0.1436363	0.1887127
40.40281	-0.05966594	-0.2358812	0	0	0.1439676	-0.189148
40.41937	-0.05966594	-0.2358812	0	0	0	0
40.43623	-0.05885301	-0.2348272	0.04823551	0.06253891	1.443288	1.87127
40.45279	-0.05885301	-0.2348272	0	0	-1.443288	-1.87127
40.46946	-0.05885301	-0.2348272	0	0	0	0
40.48987	-0.05903658	-0.2343934	-0.008993099	0.02125406	-0.2425398	0.5732123
40.50644	-0.05903658	-0.2343934	0	0	0.2431903	-0.5747498
40.52301	-0.05914148	-0.2336499	-0.006331579	0.04487825	-0.1910874	1.354428
40.53958	-0.05914148	-0.2336499	0	0	0.1910654	-1.354272
40.55614	-0.05914148	-0.2336499	0	0	0	0
40.57271	-0.05903658	-0.2334847	0.006333037	0.009972543	0.1911535	0.3010066
40.58928	-0.05903658	-0.2334847	0	0	-0.1911314	-0.3009719
40.60585	-0.05903658	-0.2334847	0	0	0	0
40.62286	-0.05368521	-0.2284118	0.3144654	0.2981026	9.363381	8.876172
40.639	-0.05368521	-0.2284118	0	0	-9.486216	-8.992615
40.65555	-0.05368521	-0.2284118	0	0	0	0
40.67212	-0.03070088	-0.2098153	1.387337	1.122487	41.8892	33.89233
40.68928	-0.03070088	-0.2098153	0	0	-41.12654	-33.27527
40.70585	-0.03070088	-0.2098153	0	0	0	0
40.72242	7.894737E-05	-0.1861055	1.857874	1.431124	56.06429	43.18643
40.73899	7.894737E-05	-0.1861055	0	0	-56.07075	-43.1914
40.75555	7.894737E-05	-0.1861055	0	0	0	0
40.77212	0.01523566	-0.174507	0.9148612	0.7000903	27.61057	21.12877
40.78869	0.01523566	-0.174507	0	0	-27.61057	-21.12877
40.80526	0.01523566	-0.174507	0	0	0	0
40.82182	0.01526197	-0.174527	0.001588066	-0.00121154	0.04792794	-0.03656435
40.83839	0.01526197	-0.174527	0	0	-0.04792242	0.03656014
40.85495	0.01526197	-0.174527	0	0	0	0
40.87152	0.01520935	-0.174527	-0.003176133	0	-0.09587796	0
40.88858	0.01520935	-0.174527	0	0	0.09445311	0
40.90466	0.01520935	-0.174527	0	0	0	0
40.92122	0.01523566	-0.174507	0.001588066	0.00121154	0.04865047	0.03711557
40.93801	0.01523566	-0.174507	0	0	-0.04761003	-0.03632182
40.95436	0.01523566	-0.174507	0	0	0	0
40.97092	0.01526197	-0.174527	0.001588432	-0.001211819	0.04826684	-0.0368229
40.98749	0.01526197	-0.174527	0	0	-0.0479445	0.03657699
41.00446	0.01526197	-0.174527	0	0	0	0
41.02062	0.01523566	-0.174507	-0.001628565	0.001242437	-0.04915585	0.03750113
41.03725	0.01523566	-0.174507	0	0	0.04966479	-0.0378894
41.05396	0.01523566	-0.174507	0	0	0	0
41.07039	0.01523566	-0.1745471	0	-0.002443673	0	-0.0737502
41.08689	0.01523566	-0.1745471	0	0	0	0.07420297
41.15363	0.01523566	-0.1745471	0	0	0	0
41.1716	0.01523566	-0.1745873	0	-0.00223546	0	-0.02638982
41.1883	0.01523566	-0.1745873	0	0	0	0.0644749
41.20484	0.01523566	-0.1745873	0	0	0	0
41.2213	0.01523566	-0.1745873	0	0	0	0
41.23787	0.01523566	-0.1745873	0	0	0	0
41.25444	0.01523566	-0.1745873	0	0	0	0
41.271	0.01523566	-0.1745873	0	0	0	0
41.288	0.01523566	-0.1745873	0	0	0	0
41.30428	0.01523566	-0.1745873	0	0	0	0
41.3207	0.01523566	-0.1745873	0	0	0	0
41.33727	0.01523566	-0.1745873	0	0	0	0
41.35405	0.01523566	-0.1745873	0	0	0	0
41.3704	0.01520935	-0.1745672	-0.001608811	0.001228277	-0.0485596	0.03707375
41.38697	0.01520935	-0.1745672	0	0	0.04886908	-0.03731003
41.40353	0.01520935	-0.1745672	0	0	0	0
41.4201	0.01518304	-0.1745471	-0.001588066	0.001212439	-0.04793346	0.03659571
41.43666	0.01518304	-0.1745471	0	0	0.04792794	-0.0365915
41.45326	0.01518304	-0.1745471	0	0	0	0
41.4698	0.01518304	-0.1745471	0	0	0	0
41.48637	0.01518304	-0.1745471	0	0	0	0
41.50293	0.01518304	-0.1745471	0	0	0	0
41.5195	0.01502519	-0.1746275	-0.009528343	-0.004849758	-0.2875659	-0.146366
41.53607	0.01502519	-0.1746275	0	0	0.2875659	0.146366
41.55349	0.01502519	-0.1746275	0	0	0	0
41.56949	0.0147884	-0.1746074	-0.0147969	0.001255215	-0.4427484	0.03755815
41.58577	0.0147884	-0.1746074	0	0	0.4583926	-0.03888525
41.60234	0.0147884	-0.1746074	0	0	0	0
41.6189	0.01373598	-0.1738443	-0.06353869	0.04607162	-1.917602	1.390444
41.63547	0.01373598	-0.1738443	0	0	1.917822	-1.390604
41.65214	0.01373598	-0.1738443	0	0	0	0
41.66932	0.0126046	-0.1730212	-0.06586391	0.0479151	-1.945884	1.415604
41.68537	0.0126046	-0.1730212	0	0	1.981845	-1.441765
41.70182	0.0126046	-0.1730212	0	0	0	0
