Time	Pos X	Pos Y	Vel X	Vel Y	Acc X	Acc Y
0.01656673	0.005289424	-0.1210968	-8.78608E-05	0.002011497	1.459827E-06	-3.342148E-05
0.04301974	0.005289424	-0.1210968	0	0	-1.460067E-06	3.342697E-05
0.05959003	0.005289424	-0.1210968	0	0	0	0
0.07615361	0.005289424	-0.1210968	0	0	0	0
0.09272231	0.005289424	-0.1210968	0	0	0	0
0.1092902	0.005289424	-0.1210968	0	0	0	0
0.1258542	0.005289424	-0.1210968	0	0	0	0
0.1424233	0.005289424	-0.1210968	0	0	0	0
0.1589877	0.005289424	-0.1210968	0	0	0	0
0.175554	0.005289424	-0.1210968	0	0	0	0
0.1923138	0.005289424	-0.1210968	0	0	0	0
0.3742849	0.005289424	-0.1210968	0	0	0	0
0.3924903	0.005315739	-0.1211164	0.001445451	-0.001078787	0.007220884	-0.005389181
0.4090574	0.005315739	-0.1211164	0	0	-0.04156879	0.03102414
0.4256254	0.005315739	-0.1211164	0	0	0	0
0.4421909	0.005315739	-0.1211164	0	0	0	0
0.4587576	0.005315739	-0.1211164	0	0	0	0
0.4753256	0.005315739	-0.1211164	0	0	0	0
0.4918907	0.005315739	-0.1211164	0	0	0	0
0.5084574	0.005315739	-0.1211164	0	0	0	0
0.5250269	0.005315739	-0.1211164	0	0	0	0
0.5416201	0.005342055	-0.1211361	0.001585922	-0.001183155	0.04782252	-0.03567734
0.5581604	0.005342055	-0.1211361	0	0	-0.04786468	0.03570879
0.5747271	0.005342055	-0.1211361	0	0	0	0
0.5912907	0.005315739	-0.1211164	-0.001588752	0.001185267	-0.04795459	0.03577587
0.6078602	0.005315739	-0.1211164	0	0	0.04795063	-0.0357729
0.624427	0.005315739	-0.1211164	0	0	0	0
0.6409937	0.005315739	-0.1211164	0	0	0	0
0.6575601	0.005315739	-0.1211164	0	0	0	0
0.6741276	0.005315739	-0.1211164	0	0	0	0
0.6906935	0.005315739	-0.1211164	0	0	0	0
0.7072603	0.005315739	-0.1211164	0	0	0	0
0.7238266	0.005315739	-0.1211164	0	0	0	0
0.7403917	0.005315739	-0.1211164	0	0	0	0
0.7569605	0.005315739	-0.1211164	0	0	0	0
0.7735268	0.005315739	-0.1211164	0	0	0	0
0.7900931	0.005315739	-0.1211164	0	0	0	0
0.8066587	0.005315739	-0.1211164	0	0	0	0
0.8232365	0.005315739	-0.1211164	0	0	0	0
0.8397909	0.005342055	-0.1210968	0.001589628	0.00118637	0.04797825	0.0358071
0.8563589	0.005342055	-0.1210968	0	0	-0.04799249	-0.03581773
0.8729308	0.005342055	-0.1210968	0	0	0	0
0.8894908	0.005342055	-0.1210968	0	0	0	0
0.9060595	0.005342055	-0.1210968	0	0	0	0
0.9227901	0.005342055	-0.1210968	0	0	0	0
0.9391934	0.005342055	-0.1210968	0	0	0	0
0.9557617	0.005342055	-0.1210968	0	0	0	0
1.087677	0.005342055	-0.1210968	0	0	0	0
1.106255	0.00536837	-0.1211164	0.001416401	-0.001057106	0.009411701	-0.007024259
1.122825	0.00536837	-0.1211164	0	0	-0.04029749	0.03007532
1.139397	0.00536837	-0.1211164	0	0	0	0
1.155956	0.005342055	-0.1210968	-0.001589176	0.001186054	-0.0479673	0.03579956
1.172523	0.005342055	-0.1210968	0	0	0.04797248	-0.03580342
1.189098	0.005342055	-0.1210968	0	0	0	0
1.205657	0.00536837	-0.1211164	0.001589176	-0.001186054	0.04796281	-0.03579621
1.222519	0.00536837	-0.1211164	0	0	-0.04754983	0.03548799
1.238909	0.00536837	-0.1211164	0	0	0	0
1.255356	0.00536837	-0.1211164	0	0	0	0
1.271929	0.00536837	-0.1211164	0	0	0	0
1.288495	0.00536837	-0.1211164	0	0	0	0
1.305058	0.00536837	-0.1211164	0	0	0	0
1.321682	0.00536837	-0.1211164	0	0	0	0
1.338194	0.00536837	-0.1211164	0	0	0	0
1.354759	0.00536837	-0.1211164	0	0	0	0
1.371329	0.00536837	-0.1211164	0	0	0	0
1.387896	0.00536837	-0.1211164	0	0	0	0
1.404456	0.00536837	-0.1211164	0	0	0	0
1.421025	0.00536837	-0.1211164	0	0	0	0
1.437742	0.00536837	-0.1211164	0	0	0	0
1.454353	0.00536837	-0.1211164	0	0	0	0
1.470726	0.00536837	-0.1211164	0	0	0	0
1.487292	0.00536837	-0.1211164	0	0	0	0
1.503856	0.00536837	-0.1211164	0	0	0	0
1.520422	0.00536837	-0.1211164	0	0	0	0
1.536993	0.00536837	-0.1211164	0	0	0	0
1.553556	0.00536837	-0.1211164	0	0	0	0
1.570122	0.00536837	-0.1211164	0	0	0	0
1.58669	0.00536837	-0.1211164	0	0	0	0
1.603303	0.00536837	-0.1211164	0	0	0	0
1.619823	0.00536837	-0.1211164	0	0	0	0
1.636392	0.00536837	-0.1211164	0	0	0	0
1.660125	0.00536837	-0.1211164	0	0	0	0
1.676692	0.00536837	-0.1211164	0	0	0	0
1.693258	0.00536837	-0.1211164	0	0	0	0
1.709916	0.00536837	-0.1211164	0	0	0	0
1.726517	0.00536837	-0.1211164	0	0	0	0
1.742957	0.00536837	-0.1211164	0	0	0	0
1.82462	0.00536837	-0.1211164	0	0	0	0
1.842804	0.00536837	-0.1211164	0	0	0	0
1.85937	0.00536837	-0.1211164	0	0	0	0
1.876233	0.00536837	-0.1211164	0	0	0	0
1.892507	0.00536837	-0.1211164	0	0	0	0
1.90907	0.00536837	-0.1211164	0	0	0	0
1.92564	0.00536837	-0.1211164	0	0	0	0
1.942206	0.00536837	-0.1211164	0	0	0	0
1.95877	0.00536837	-0.1211164	0	0	0	0
1.975339	0.00536837	-0.1211164	0	0	0	0
1.992386	0.00536837	-0.1211164	0	0	0	0
2.008473	0.00536837	-0.1211164	0	0	0	0
2.025039	0.00536837	-0.1211164	0	0	0	0
2.04182	0.00536837	-0.1211164	0	0	0	0
2.058175	0.005394685	-0.1211361	0.001608983	-0.001200381	0.04855782	-0.03622653
2.075339	0.005394685	-0.1211361	0	0	-0.04800107	0.03581117
2.195288	0.005394685	-0.1211361	0	0	0	0
2.212433	0.00536837	-0.1211164	-0.001534814	0.001145047	-0.01119534	0.008352274
2.229005	0.00536837	-0.1211164	0	0	0.04552058	-0.0339606
2.245571	0.00536837	-0.1211164	0	0	0	0
2.262135	0.00536837	-0.1211164	0	0	0	0
2.278702	0.00536837	-0.1211164	0	0	0	0
2.29576	0.00536837	-0.1211164	0	0	0	0
2.311835	0.00536837	-0.1211164	0	0	0	0
2.328404	0.00536837	-0.1211164	0	0	0	0
2.344968	0.00536837	-0.1211164	0	0	0	0
2.361538	0.00536837	-0.1211164	0	0	0	0
2.378104	0.00536837	-0.1211164	0	0	0	0
2.39467	0.00536837	-0.1211164	0	0	0	0
2.411234	0.00536837	-0.1211164	0	0	0	0
2.427804	0.00536837	-0.1211164	0	0	0	0
2.444371	0.00536837	-0.1211164	0	0	0	0
2.460934	0.00536837	-0.1211164	0	0	0	0
2.477504	0.00536837	-0.1211164	0	0	0	0
2.494423	0.00536837	-0.1211164	0	0	0	0
2.510634	0.00536837	-0.1211164	0	0	0	0
2.527589	0.00536837	-0.1211164	0	0	0	0
2.544046	0.00536837	-0.1211164	0	0	0	0
2.560334	0.00536837	-0.1211164	0	0	0	0
2.576902	0.00536837	-0.1211164	0	0	0	0
2.593589	0.00536837	-0.1211164	0	0	0	0
2.610037	0.00536837	-0.1211164	0	0	0	0
2.626601	0.00536837	-0.1211164	0	0	0	0
2.643169	0.00536837	-0.1211164	0	0	0	0
2.659735	0.00536837	-0.1211164	0	0	0	0
2.676303	0.00536837	-0.1211164	0	0	0	0
2.693642	0.00536837	-0.1211164	0	0	0	0
2.709435	0.00536837	-0.1211164	0	0	0	0
2.726002	0.00536837	-0.1211164	0	0	0	0
2.742568	0.00536837	-0.1211164	0	0	0	0
2.759135	0.005394685	-0.1211361	0.001588467	-0.001185075	0.04794279	-0.03576769
2.775702	0.005394685	-0.1211361	0	0	-0.04794141	0.03576666
2.792269	0.005394685	-0.1211361	0	0	0	0
2.809216	0.00536837	-0.1211164	-0.0015528	0.001158466	-0.04633351	0.03456709
2.825401	0.00536837	-0.1211164	0	0	0.04686631	-0.03496458
2.841969	0.00536837	-0.1211164	0	0	0	0
2.858535	0.00536837	-0.1211164	0	0	0	0
2.875105	0.00536837	-0.1211164	0	0	0	0
2.959395	0.00536837	-0.1211164	0	0	0	0
2.984051	0.00536837	-0.1211164	0	0	0	0
3.000618	0.00536837	-0.1211164	0	0	0	0
3.017184	0.00536837	-0.1211164	0	0	0	0
3.033751	0.00536837	-0.1211164	0	0	0	0
3.050318	0.00536837	-0.1211164	0	0	0	0
3.067244	0.00536837	-0.1211164	0	0	0	0
3.083453	0.00536837	-0.1211164	0	0	0	0
3.100646	0.00536837	-0.1211164	0	0	0	0
3.116598	0.00536837	-0.1211164	0	0	0	0
3.133469	0.00536837	-0.1211164	0	0	0	0
3.14972	0.00536837	-0.1211164	0	0	0	0
3.166286	0.00536837	-0.1211164	0	0	0	0
3.183027	0.00536837	-0.1211164	0	0	0	0
3.19951	0.00536837	-0.1211164	0	0	0	0
3.215987	0.00536837	-0.1211164	0	0	0	0
3.232551	0.00536837	-0.1211164	0	0	0	0
3.249118	0.00536837	-0.1211164	0	0	0	0
3.265685	0.00536837	-0.1211164	0	0	0	0
3.282251	0.00536837	-0.1211164	0	0	0	0
3.29944	0.00536837	-0.1211164	0	0	0	0
3.315387	0.005157849	-0.1209593	-0.01320159	0.009851331	-0.3984075	0.2973009
3.331953	0.005157849	-0.1209593	0	0	0.4060445	-0.3029998
3.348521	0.005157849	-0.1209593	0	0	0	0
3.365088	0.0002105263	-0.1172705	-0.298621	0.2226603	-9.012204	6.719756
3.381654	0.0002105263	-0.1172705	0	0	9.012723	-6.720143
3.398237	0.0002105263	-0.1172705	0	0	0	0
3.414784	-0.02325896	-0.09984041	-1.418295	1.053324	-42.80976	31.7935
3.431353	-0.02325896	-0.09984041	0	0	42.82795	-31.807
3.447921	-0.02325896	-0.09984041	0	0	0	0
3.464485	-0.04953839	-0.08043671	-1.586571	1.171462	-47.88592	35.35709
3.481135	-0.04953839	-0.08043671	0	0	47.76905	-35.2708
3.497621	-0.04953839	-0.08043671	0	0	0	0
3.514276	-0.05714823	-0.07483558	-0.4569048	0.3362995	-13.78654	10.14742
3.530754	-0.05714823	-0.07483558	0	0	13.78981	-10.14983
3.547684	-0.05714823	-0.07483558	0	0	0	0
3.563887	-0.05762036	-0.0744883	-0.02913803	0.02143279	-0.8794256	0.6468708
3.580454	-0.05762036	-0.0744883	0	0	0.8891702	-0.6540385
3.597967	-0.05762036	-0.0744883	0	0	0	0
3.613584	-0.05835472	-0.07390959	-0.04702385	0.0370566	-1.419366	1.118515
3.630154	-0.05835472	-0.07390959	0	0	1.46098	-1.151308
3.646936	-0.05835472	-0.07390959	0	0	0	0
3.663285	-0.07273985	-0.06330194	-0.879887	0.6488321	-26.5581	19.58405
3.679854	-0.07273985	-0.06330194	0	0	26.7291	-19.71014
3.696992	-0.07273985	-0.06330194	0	0	0	0
3.713251	-0.08006532	-0.05792667	-0.4505627	0.3306131	-13.49132	9.899638
3.729554	-0.08006532	-0.05792667	0	0	13.83727	-10.15348
3.746121	-0.08006532	-0.05792667	0	0	0	0
3.764853	-0.08016991	-0.0578116	-0.005583539	0.006143166	-0.158177	0.1740308
3.781424	-0.08016991	-0.0578116	0	0	0.1581632	-0.1740155
3.798055	-0.08016991	-0.0578116	0	0	0	0
3.814557	-0.09148079	-0.04802784	-0.6854092	0.5928696	-20.68629	17.89335
3.831123	-0.09148079	-0.04802784	0	0	20.727	-17.92857
3.84769	-0.09148079	-0.04802784	0	0	0	0
3.864254	-0.1164705	-0.02810072	-1.508706	1.203063	-45.53774	36.31243
3.880824	-0.1164705	-0.02810072	0	0	45.53447	-36.30982
3.89739	-0.1164705	-0.02810072	0	0	0	0
3.913957	-0.1200774	-0.025083	-0.2177291	0.1821602	-6.57136	5.497843
3.930524	-0.1200774	-0.025083	0	0	6.571218	-5.497725
3.94709	-0.1200774	-0.025083	0	0	0	0
3.963654	-0.1120809	-0.01115175	0.4827734	0.8410733	14.57212	25.38711
3.980224	-0.1120809	-0.01115175	0	0	-14.57055	-25.38437
3.99726	-0.1120809	-0.01115175	0	0	0	0
4.013354	-0.1106774	0.02622406	0.08720677	2.322349	2.632228	70.09719
4.029924	-0.1106774	0.02622406	0	0	-2.669847	-71.09901
4.04649	-0.1106774	0.02622406	0	0	0	0
4.063054	-0.1114052	0.03085393	-0.04393991	0.2795244	-1.3263	8.437277
4.079877	-0.1114052	0.03085393	0	0	1.31609	-8.372326
4.096188	-0.1114052	0.03085393	0	0	0	0
4.112757	-0.1114572	0.03089125	-0.003137411	0.002251993	-0.09542054	0.06849162
4.129323	-0.1114572	0.03089125	0	0	0.09468589	-0.0679643
4.146639	-0.1114572	0.03089125	0	0	0	0
4.162454	-0.1118211	0.03115243	-0.02300621	0.01651479	-0.6943986	0.4984676
4.179023	-0.1118211	0.03115243	0	0	0.7104102	-0.5099614
4.196139	-0.1118211	0.03115243	0	0	0	0
4.212154	-0.112029	0.03130167	-0.01298199	0.009319055	-0.3918422	0.281282
4.228723	-0.112029	0.03130167	0	0	0.3984195	-0.2860035
4.245291	-0.112029	0.03130167	0	0	0	0
4.261856	-0.112029	0.03130167	0	0	0	0
4.278423	-0.112029	0.03130167	0	0	0	0
4.294991	-0.112029	0.03130167	0	0	0	0
4.311554	-0.112029	0.03130167	0	0	0	0
4.328123	-0.112029	0.03130167	0	0	0	0
4.344691	-0.112029	0.03130167	0	0	0	0
4.361255	-0.112029	0.03130167	0	0	0	0
4.377823	-0.112029	0.03130167	0	0	0	0
4.39439	-0.112029	0.03130167	0	0	0	0
4.410957	-0.112029	0.03130167	0	0	0	0
4.427521	-0.112029	0.03130167	0	0	0	0
4.444593	-0.112029	0.03130167	0	0	0	0
4.460653	-0.112029	0.03130167	0	0	0	0
4.477223	-0.112029	0.03130167	0	0	0	0
4.49379	-0.112029	0.03130167	0	0	0	0
4.510354	-0.112029	0.03130167	0	0	0	0
4.526921	-0.112029	0.03130167	0	0	0	0
4.544052	-0.112029	0.03130167	0	0	0	0
4.560532	-0.112029	0.03126436	0	-0.002263821	0	-0.06735394
4.57662	-0.112029	0.03126436	0	0	0	0.06950963
4.59319	-0.112029	0.03126436	0	0	0	0
4.60976	-0.112003	0.03124571	0.001568345	-0.001125899	0.04732458	-0.03397384
4.626378	-0.112003	0.03124571	0	0	-0.04725659	0.03392503
4.64289	-0.112003	0.03124571	0	0	0	0
4.65963	-0.112003	0.03124571	0	0	0	0
4.676025	-0.112003	0.03124571	0	0	0	0
4.693118	-0.112003	0.03124571	0	0	0	0
4.709154	-0.112003	0.03124571	0	0	0	0
4.725724	-0.112003	0.03124571	0	0	0	0
4.742557	-0.112003	0.03124571	0	0	0	0
4.759068	-0.112003	0.03124571	0	0	0	0
4.775424	-0.112003	0.03124571	0	0	0	0
4.792337	-0.112003	0.03124571	0	0	0	0
4.808582	-0.112003	0.03124571	0	0	0	0
4.825123	-0.112003	0.03124571	0	0	0	0
4.84169	-0.112003	0.03124571	0	0	0	0
4.858253	-0.112003	0.03124571	0	0	0	0
4.874824	-0.112003	0.03124571	0	0	0	0
4.89139	-0.112003	0.03124571	0	0	0	0
4.907955	-0.112003	0.03124571	0	0	0	0
4.924524	-0.112003	0.03124571	0	0	0	0
4.941305	-0.112003	0.03124571	0	0	0	0
4.957658	-0.111977	0.03118974	0.001589199	-0.003422383	0.04796351	-0.1032907
4.974223	-0.111977	0.03118974	0	0	-0.04827755	0.103967
4.99079	-0.111977	0.03118974	0	0	0	0
5.007355	-0.1114572	0.03074199	0.03137819	-0.02703025	0.9470773	-0.8158451
5.024257	-0.1114572	0.03074199	0	0	-0.9375777	0.8076617
5.04049	-0.1114572	0.03074199	0	0	0	0
5.057055	-0.09557633	0.01780774	0.9587376	-0.780848	29.23218	-23.80827
5.07362	-0.09557633	0.01780774	0	0	-28.93851	23.56909
5.09019	-0.09557633	0.01780774	0	0	0	0
5.106758	-0.04725427	-0.02398293	2.916725	-2.52249	88.01935	-76.12231
5.123323	-0.04725427	-0.02398293	0	0	-88.03201	76.13327
5.13989	-0.04725427	-0.02398293	0	0	0	0
5.156455	-0.01039436	-0.07512501	2.225189	-3.087386	67.16116	-93.18421
5.173024	-0.01039436	-0.07512501	0	0	-67.1573	93.17885
5.189591	-0.01039436	-0.07512501	0	0	0	0
5.206157	-0.006263076	-0.1269359	0.2493793	-3.127489	7.526608	-94.39188
5.222725	-0.006263076	-0.1269359	0	0	-7.526283	94.3878
5.239289	-0.006263076	-0.1269359	0	0	0	0
5.255855	-0.01457791	-0.1520629	-0.501928	-1.516803	-15.15061	-45.78445
5.272432	-0.01457791	-0.1520629	0	0	15.14408	45.76469
5.289017	-0.01457791	-0.1520629	0	0	0	0
5.305555	-0.007736688	-0.1579177	0.4136636	-0.3540162	12.4887	-10.68792
5.322123	-0.007736688	-0.1579177	0	0	-12.49518	10.69346
5.338691	-0.007736688	-0.1579177	0	0	0	0
5.355355	0.007289344	-0.1692911	0.9016789	-0.6824917	27.13268	-20.53705
5.37199	0.007289344	-0.1692911	0	0	-27.07828	20.49588
5.388397	0.007289344	-0.1692911	0	0	0	0
5.404955	0.01365705	-0.1739447	0.3845544	-0.2810376	11.6653	-8.525163
5.421523	0.01365705	-0.1739447	0	0	-11.60872	8.483808
5.438214	0.01365705	-0.1739447	0	0	0	0
5.454656	0.01484102	-0.1746476	0.07201174	-0.04275123	2.173444	-1.290309
5.471228	0.01484102	-0.1746476	0	0	-2.181292	1.294968
5.487884	0.01484102	-0.1746476	0	0	0	0
5.504355	0.01486733	-0.1746676	0.001597261	-0.001219459	0.04821514	-0.03681077
5.520928	0.01486733	-0.1746676	0	0	-0.0483369	0.03690373
5.537494	0.01486733	-0.1746676	0	0	0	0
5.554069	0.01489364	-0.1746877	0.001587335	-0.001211882	0.04789623	-0.03656729
5.570699	0.01489364	-0.1746877	0	0	-0.04780475	0.03649745
5.587195	0.01489364	-0.1746877	0	0	0	0
5.603824	0.01499888	-0.1747681	0.006328824	-0.004830922	0.1910565	-0.1458374
5.620663	0.01499888	-0.1747681	0	0	-0.1891021	0.1443455
5.636891	0.01499888	-0.1747681	0	0	0	0
5.654018	0.01510411	-0.1748484	0.006144584	-0.004691241	0.1842191	-0.1406468
5.670592	0.01510411	-0.1748484	0	0	-0.1823242	0.1392001
5.68757	0.01510411	-0.1748484	0	0	0	0
5.703724	0.0150515	-0.1748082	-0.003257265	0.002486865	-0.09831151	0.07505912
5.720287	0.0150515	-0.1748082	0	0	0.09955809	-0.07601086
5.73753	0.0150515	-0.1748082	0	0	0	0
5.75342	0.01502519	-0.1747078	-0.001655737	0.00632052	-0.0499724	0.1907619
5.770133	0.01502519	-0.1747078	0	0	0.05078514	-0.1938644
5.786628	0.01502519	-0.1747078	0	0	0	0
5.805517	0.01499888	-0.1746074	-0.001392871	0.005316279	-0.03936475	0.1502465
5.823142	0.01499888	-0.1746074	0	0	0.03814641	-0.1455964
5.839708	0.01499888	-0.1746074	0	0	0	0
5.856276	0.0150515	-0.1742459	0.003176041	0.02181969	0.0958545	0.6585289
5.872842	0.0150515	-0.1742459	0	0	-0.09585312	-0.6585194
5.889409	0.0150515	-0.1742459	0	0	0	0
5.905976	0.01497257	-0.1741053	-0.004764199	0.008485278	-0.1437859	0.2560899
6.070336	0.01497257	-0.1741053	0	0	0.02633212	-0.04689883
6.088485	0.01497257	-0.1741053	0	0	0	0
6.11137	0.01502519	-0.1738242	0.002299326	0.01228369	0.05603566	0.2993594
6.127941	0.01502519	-0.1738242	0	0	-0.05827516	-0.3113234
6.144632	0.01499888	-0.1736033	-0.001576316	0.0132319	-0.04739053	0.3978053
6.161129	0.01499888	-0.1736033	0	0	0.04749743	-0.3987027
6.17764	0.01499888	-0.1736033	0	0	0	0
6.194204	0.01484102	-0.173242	-0.00953065	0.02181544	-0.2881498	0.6595684
6.210772	0.01484102	-0.173242	0	0	0.2876646	-0.6584577
6.227339	0.01484102	-0.173242	0	0	0	0
6.244087	0.01499888	-0.1728406	0.009425636	0.02396845	0.2829191	0.7194349
6.260471	0.01499888	-0.1728406	0	0	-0.2844908	-0.7234316
6.27704	0.01499888	-0.1728406	0	0	0	0
6.293603	0.01536721	-0.1720781	0.02223788	0.04603563	0.6711889	1.389458
6.310173	0.01536721	-0.1720781	0	0	-0.6711696	-1.389418
6.326789	0.01536721	-0.1720781	0	0	0	0
6.343361	0.0185505	-0.1694514	0.1920831	0.158497	5.787586	4.775613
6.359872	0.0185505	-0.1694514	0	0	-5.806021	-4.790825
6.376548	0.0185505	-0.1694514	0	0	0	0
6.403702	0.02502109	-0.1536745	0.2382926	0.5810159	5.436815	13.25629
6.420604	0.02502109	-0.1536745	0	0	-5.408805	-13.188
6.436836	0.01486733	-0.1445368	-0.625558	0.5629581	-18.87965	16.99035
6.454267	0.01486733	-0.1445368	0	0	18.58307	-16.72345
6.470675	0.01486733	-0.1445368	0	0	0	0
6.486627	0.01399909	-0.143843	-0.0544295	0.04349573	-1.681995	1.344117
6.503109	0.01399909	-0.143843	0	0	1.678187	-1.341074
6.520482	0.01399909	-0.143843	0	0	0	0
6.536236	0.01397278	-0.1438628	-0.001670028	-0.001258891	-0.05041244	-0.0380016
6.552807	0.01397278	-0.1438628	0	0	0.05166249	0.03894391
6.569588	0.01397278	-0.1438628	0	0	0	0
6.586323	0.01397278	-0.1438628	0	0	0	0
6.602504	0.01397278	-0.1438628	0	0	0	0
6.619071	0.01397278	-0.1438628	0	0	0	0
6.636021	0.01394646	-0.143843	-0.001552291	0.001170139	-0.0463137	0.03491192
6.652202	0.01394646	-0.143843	0	0	0.04685363	-0.03531892
6.669065	0.01394646	-0.143843	0	0	0	0
6.685338	0.01397278	-0.1438628	0.00161693	-0.001218864	0.04879693	-0.03678381
6.702004	0.01397278	-0.1438628	0	0	-0.04908939	0.03700427
6.718805	0.01397278	-0.1438628	0	0	0	0
6.735035	0.01397278	-0.1438628	0	0	0	0
6.751603	0.01397278	-0.1438628	0	0	0	0
6.76865	0.01397278	-0.1438628	0	0	0	0
6.784781	0.0140254	-0.1439025	0.003262098	-0.002457211	0.09832156	-0.0740618
6.801305	0.0140254	-0.1439025	0	0	-0.09989364	0.07524598
6.81848	0.0140254	-0.1439025	0	0	0	0
6.834435	0.01399909	-0.1439223	-0.001648958	-0.001242118	-0.04977209	-0.03749204
6.851006	0.01399909	-0.1439223	0	0	0.05069733	0.038189
6.867573	0.01399909	-0.1439223	0	0	0	0
6.884136	0.01399909	-0.1439223	0	0	0	0
6.901055	0.01399909	-0.1439223	0	0	0	0
6.917479	0.01399909	-0.1439223	0	0	0	0
6.934	0.01399909	-0.1439223	0	0	0	0
6.950406	0.01399909	-0.1439223	0	0	0	0
6.967186	0.01399909	-0.1439223	0	0	0	0
6.983539	0.01399909	-0.1439223	0	0	0	0
7.000105	0.01399909	-0.1439223	0	0	0	0
7.017083	0.01399909	-0.1439223	0	0	0	0
7.033236	0.01399909	-0.1439223	0	0	0	0
7.049805	0.01399909	-0.1439223	0	0	0	0
7.066372	0.01399909	-0.1439223	0	0	0	0
7.082938	0.0140254	-0.1439421	0.001588204	-0.001196353	0.04793415	-0.03610756
7.099505	0.0140254	-0.1439421	0	0	-0.04793484	0.03610808
7.116072	0.0140254	-0.1439421	0	0	0	0
7.132636	0.01405171	-0.1439619	0.001588397	-0.001196456	0.04794275	-0.03611276
7.149206	0.01405171	-0.1439619	0	0	-0.0479386	0.03610964
7.166312	0.01405171	-0.1439619	0	0	0	0
7.182338	0.01405171	-0.1439619	0	0	0	0
7.198906	0.01405171	-0.1439619	0	0	0	0
7.21625	0.01405171	-0.1439619	0	0	0	0
7.236262	0.0140254	-0.1439421	-0.001314757	0.0009903379	-0.03519544	0.02651088
7.252831	0.0140254	-0.1439421	0	0	0.03594048	-0.02707209
7.269399	0.0140254	-0.1439421	0	0	0	0
7.28607	0.0140254	-0.1439421	0	0	0	0
7.302536	0.0140254	-0.1439421	0	0	0	0
7.319232	0.01399909	-0.1439619	-0.001575866	-0.001187059	-0.04752142	-0.03579666
7.335664	0.01399909	-0.1439619	0	0	0.0475693	0.03583273
7.352232	0.01399909	-0.1439619	0	0	0	0
7.543159	0.01399909	-0.1439619	0	0	0	0
7.56023	0.01399909	-0.1439619	0	0	0	0
7.577335	0.01399909	-0.1439619	0	0	0	0
7.593902	0.01399909	-0.1439619	0	0	0	0
7.610862	0.01399909	-0.1439619	0	0	0	0
7.627036	0.01397278	-0.1439818	-0.00162675	-0.001226267	-0.04909541	-0.03700881
7.643603	0.01397278	-0.1439818	0	0	0.0496853	0.03745348
7.66017	0.01397278	-0.1439818	0	0	0	0
7.676848	0.01397278	-0.1439818	0	0	0	0
7.693304	0.01397278	-0.1439818	0	0	0	0
7.709952	0.01397278	-0.1439818	0	0	0	0
7.726475	0.01399909	-0.1440016	0.001592431	-0.001199495	0.04800716	-0.03616128
7.743002	0.01399909	-0.1440016	0	0	-0.04818239	0.03629328
7.75957	0.01399909	-0.1440016	0	0	0	0
7.776135	0.01399909	-0.1440016	0	0	0	0
7.792703	0.01399909	-0.1440016	0	0	0	0
7.809511	0.01399909	-0.1440016	0	0	0	0
7.825837	0.01397278	-0.1440214	-0.00161164	-0.001213964	-0.04864081	-0.03663857
7.842407	0.01397278	-0.1440214	0	0	0.04899264	0.03690359
7.858973	0.01397278	-0.1440214	0	0	0	0
7.875538	0.01397278	-0.1440214	0	0	0	0
7.892106	0.01397278	-0.1440214	0	0	0	0
7.908672	0.01397278	-0.1440214	0	0	0	0
7.925237	0.01394646	-0.1440412	-0.001588397	-0.001196456	-0.04794344	-0.03611328
7.941806	0.01394646	-0.1440412	0	0	0.0479393	0.03611016
7.95873	0.01394646	-0.1440412	0	0	0	0
7.974936	0.01394646	-0.1440412	0	0	0	0
7.991504	0.01394646	-0.1440412	0	0	0	0
8.008272	0.01394646	-0.1440412	0	0	0	0
8.024638	0.01394646	-0.1440412	0	0	0	0
8.041277	0.01394646	-0.1440412	0	0	0	0
8.057774	0.01394646	-0.1440412	0	0	0	0
8.074337	0.01394646	-0.1440412	0	0	0	0
8.090905	0.01394646	-0.1440412	0	0	0	0
8.107471	0.01394646	-0.1440412	0	0	0	0
8.124037	0.01394646	-0.1440412	0	0	0	0
8.140606	0.01394646	-0.1440412	0	0	0	0
8.157172	0.01394646	-0.1440412	0	0	0	0
8.174274	0.01394646	-0.1440412	0	0	0	0
8.190305	0.01394646	-0.1440412	0	0	0	0
8.206969	0.01394646	-0.1440412	0	0	0	0
8.223437	0.01394646	-0.1440412	0	0	0	0
8.240005	0.01394646	-0.1440412	0	0	0	0
8.256573	0.01394646	-0.1440412	0	0	0	0
8.273137	0.01394646	-0.1440412	0	0	0	0
8.289721	0.01394646	-0.1440412	0	0	0	0
8.306273	0.01394646	-0.1440412	0	0	0	0
8.322837	0.01394646	-0.1440412	0	0	0	0
8.339406	0.01394646	-0.1440412	0	0	0	0
8.355972	0.01394646	-0.1440412	0	0	0	0
8.372536	0.01394646	-0.1440412	0	0	0	0
8.389105	0.01394646	-0.1440412	0	0	0	0
8.405959	0.01394646	-0.1440412	0	0	0	0
8.422235	0.01394646	-0.1440412	0	0	0	0
8.438804	0.01394646	-0.1440412	0	0	0	0
8.455372	0.01394646	-0.1440412	0	0	0	0
8.471938	0.01394646	-0.1440412	0	0	0	0
8.488506	0.01394646	-0.1440412	0	0	0	0
8.505538	0.01394646	-0.1440412	0	0	0	0
8.521637	0.01392015	-0.1440214	-0.001634315	0.001231044	-0.0493294	0.03715726
8.538203	0.01392015	-0.1440214	0	0	0.05003221	-0.03768665
8.55477	0.01392015	-0.1440214	0	0	0	0
8.571335	0.01394646	-0.1440412	0.001588306	-0.001196387	0.0479393	-0.03611016
8.587904	0.01394646	-0.1440412	0	0	-0.04793516	0.03610704
8.6045	0.01394646	-0.1440412	0	0	0	0
8.621036	0.01392015	-0.1440214	-0.001591145	0.001198526	-0.048025	0.03617473
8.637605	0.01392015	-0.1440214	0	0	0.04806374	-0.0362039
8.654171	0.01392015	-0.1440214	0	0	0	0
8.670737	0.01392015	-0.1440214	0	0	0	0
8.68731	0.01392015	-0.1440214	0	0	0	0
8.703868	0.01392015	-0.1440214	0	0	0	0
8.720435	0.01392015	-0.1440214	0	0	0	0
8.737003	0.01392015	-0.1440214	0	0	0	0
8.753573	0.01392015	-0.1440214	0	0	0	0
8.770138	0.01392015	-0.1440214	0	0	0	0
8.786708	0.01392015	-0.1440214	0	0	0	0
8.803276	0.01392015	-0.1440214	0	0	0	0
8.819835	0.01392015	-0.1440214	0	0	0	0
8.836406	0.01392015	-0.1440214	0	0	0	0
8.853481	0.01392015	-0.1440214	0	0	0	0
8.869534	0.01392015	-0.1440214	0	0	0	0
8.886106	0.01392015	-0.1440214	0	0	0	0
8.902672	0.01392015	-0.1440214	0	0	0	0
8.919234	0.01392015	-0.1440214	0	0	0	0
8.935808	0.01392015	-0.1440214	0	0	0	0
8.953359	0.01392015	-0.1440214	0	0	0	0
8.968933	0.01392015	-0.1440214	0	0	0	0
8.985561	0.01392015	-0.1440214	0	0	0	0
9.002069	0.01392015	-0.1440214	0	0	0	0
9.019389	0.01392015	-0.1440214	0	0	0	0
9.035964	0.01392015	-0.1440214	0	0	0	0
9.053056	0.01392015	-0.1440214	0	0	0	0
9.06909	0.01392015	-0.1440214	0	0	0	0
9.085663	0.01392015	-0.1440214	0	0	0	0
9.102229	0.01392015	-0.1440214	0	0	0	0
9.118792	0.01392015	-0.1440214	0	0	0	0
9.135361	0.01392015	-0.1440214	0	0	0	0
9.152205	0.01392015	-0.1440214	0	0	0	0
9.168489	0.01392015	-0.1440214	0	0	0	0
9.185325	0.01392015	-0.1440214	0	0	0	0
9.201624	0.01392015	-0.1440214	0	0	0	0
9.218469	0.01389384	-0.1440016	-0.001561958	0.001176541	-0.04712643	0.03549787
9.234757	0.01389384	-0.1440016	0	0	0.04714135	-0.03550911
9.251323	0.01389384	-0.1440016	0	0	0	0
9.267889	0.01389384	-0.1440016	0	0	0	0
9.284458	0.01389384	-0.1440016	0	0	0	0
9.301036	0.01389384	-0.1440016	0	0	0	0
9.317589	0.01386753	-0.1439818	-0.001589495	0.001197284	-0.04797658	0.03613825
9.334159	0.01386753	-0.1439818	0	0	0.04798763	-0.03614657
9.350741	0.01386753	-0.1439818	0	0	0	0
9.374056	0.01389384	-0.1440016	0.001128517	-0.0008500532	0.0282858	-0.02130621
9.390636	0.01389384	-0.1440016	0	0	-0.02828715	0.02130723
9.407189	0.01389384	-0.1440016	0	0	0	0
9.423757	0.01389384	-0.1440016	0	0	0	0
9.440324	0.01389384	-0.1440016	0	0	0	0
9.456889	0.01389384	-0.1440016	0	0	0	0
9.473457	0.01389384	-0.1440016	0	0	0	0
9.490023	0.01389384	-0.1440016	0	0	0	0
9.506589	0.01389384	-0.1440016	0	0	0	0
9.523156	0.01389384	-0.1440016	0	0	0	0
9.539722	0.01389384	-0.1440016	0	0	0	0
9.556292	0.01389384	-0.1440016	0	0	0	0
9.573107	0.01389384	-0.1440016	0	0	0	0
9.592575	0.01389384	-0.1440016	0	0	0	0
9.615838	0.01389384	-0.1440016	0	0	0	0
9.632408	0.01389384	-0.1440016	0	0	0	0
9.648971	0.01389384	-0.1440016	0	0	0	0
9.66554	0.01389384	-0.1440016	0	0	0	0
9.682568	0.01389384	-0.1440016	0	0	0	0
9.69867	0.01389384	-0.1440016	0	0	0	0
9.715273	0.01389384	-0.1440016	0	0	0	0
9.731807	0.01389384	-0.1440016	0	0	0	0
9.748432	0.01389384	-0.1440016	0	0	0	0
9.76494	0.01389384	-0.1440016	0	0	0	0
9.781507	0.01389384	-0.1440016	0	0	0	0
9.798071	0.01389384	-0.1440016	0	0	0	0
9.81464	0.01389384	-0.1440016	0	0	0	0
9.831217	0.01389384	-0.1440016	0	0	0	0
9.847774	0.01389384	-0.1440016	0	0	0	0
9.864379	0.01389384	-0.1440016	0	0	0	0
9.880907	0.01389384	-0.1440016	0	0	0	0
9.897544	0.01389384	-0.1440016	0	0	0	0
9.91404	0.01389384	-0.1440016	0	0	0	0
9.930607	0.01389384	-0.1440016	0	0	0	0
9.947487	0.01389384	-0.1440016	0	0	0	0
9.963739	0.01389384	-0.1440016	0	0	0	0
9.980306	0.01389384	-0.1440016	0	0	0	0
9.99687	0.01389384	-0.1440016	0	0	0	0
10.01344	0.01389384	-0.1440016	0	0	0	0
10.03025	0.01389384	-0.1440016	0	0	0	0
10.05028	0.01389384	-0.1440016	0	0	0	0
10.06685	0.01389384	-0.1440016	0	0	0	0
10.08341	0.01389384	-0.1440016	0	0	0	0
10.10001	0.01389384	-0.1440016	0	0	0	0
10.11666	0.01389384	-0.1440016	0	0	0	0
10.13372	0.01389384	-0.1440016	0	0	0	0
10.14972	0.01389384	-0.1440016	0	0	0	0
10.16624	0.01389384	-0.1440016	0	0	0	0
10.18332	0.01386753	-0.1439818	-0.001540503	0.00116038	-0.04585111	0.03453724
10.19938	0.01386753	-0.1439818	0	0	0.04649113	-0.03501933
10.21607	0.01386753	-0.1439818	0	0	0	0
10.23251	0.01386753	-0.1439818	0	0	0	0
10.24908	0.01386753	-0.1439818	0	0	0	0
10.26569	0.01386753	-0.1439818	0	0	0	0
10.28221	0.01386753	-0.1439818	0	0	0	0
10.29878	0.01386753	-0.1439818	0	0	0	0
10.31534	0.01386753	-0.1439818	0	0	0	0
10.33191	0.01386753	-0.1439818	0	0	0	0
10.34848	0.01386753	-0.1439818	0	0	0	0
10.36505	0.01386753	-0.1439818	0	0	0	0
10.38443	0.01389384	-0.1440016	0.001357319	-0.001022397	0.03775205	-0.02843664
10.401	0.01389384	-0.1440016	0	0	-0.03775105	0.02843589
10.41757	0.01389384	-0.1440016	0	0	0	0
10.4344	0.01386753	-0.1439818	-0.001562577	0.001177008	-0.04677766	0.03523517
10.45101	0.01386753	-0.1439818	0	0	0.04671631	-0.03518895
10.46747	0.01386753	-0.1439818	0	0	0	0
10.48404	0.01386753	-0.1439818	0	0	0	0
10.5004	0.01386753	-0.1439818	0	0	0	0
10.51696	0.01386753	-0.1439818	0	0	0	0
10.53363	0.01386753	-0.1439818	0	0	0	0
10.5501	0.01386753	-0.1439818	0	0	0	0
10.56666	0.01386753	-0.1439818	0	0	0	0
10.58323	0.01386753	-0.1439818	0	0	0	0
10.5998	0.01386753	-0.1439818	0	0	0	0
10.61636	0.01386753	-0.1439818	0	0	0	0
10.63294	0.01386753	-0.1439818	0	0	0	0
10.6495	0.01386753	-0.1439818	0	0	0	0
10.66606	0.01386753	-0.1439818	0	0	0	0
10.68263	0.01389384	-0.1440016	0.001588214	-0.001196319	0.04793515	-0.03610704
10.6992	0.01389384	-0.1440016	0	0	-0.04793102	0.03610393
10.71576	0.01389384	-0.1440016	0	0	0	0
10.73233	0.01389384	-0.1440016	0	0	0	0
10.7489	0.01389384	-0.1440016	0	0	0	0
10.76546	0.01389384	-0.1440016	0	0	0	0
10.78203	0.01389384	-0.1440016	0	0	0	0
10.7986	0.01389384	-0.1440016	0	0	0	0
10.81536	0.01389384	-0.1440016	0	0	0	0
10.83179	0.01389384	-0.1440016	0	0	0	0
10.84836	0.01389384	-0.1440016	0	0	0	0
10.86493	0.01389384	-0.1440016	0	0	0	0
10.88149	0.01249935	-0.1450127	-0.08417664	-0.06103563	-2.540602	-1.842165
10.89806	0.01249935	-0.1450127	0	0	2.540602	1.842165
10.91463	0.01249935	-0.1450127	0	0	0	0
10.93119	0.007131458	-0.1477111	-0.3240438	-0.1628967	-9.780226	-4.916515
10.94776	0.007131458	-0.1477111	0	0	9.780507	4.916656
10.96433	0.007131458	-0.1477111	0	0	0	0
10.98095	-0.007552488	-0.1375681	-0.8832741	0.6101288	-26.61131	18.38198
10.99826	-0.007552488	-0.1375681	0	0	26.02726	-17.97854
11.01427	-0.007552488	-0.1375681	0	0	0	0
11.03059	-0.07907163	-0.127743	-4.382495	0.6020547	-135.5569	18.62242
11.04716	-0.07907163	-0.127743	0	0	133.2612	-18.30704
11.06372	-0.07907163	-0.127743	0	0	0	0
11.08029	-0.1498421	-0.1299886	-4.27122	-0.1355321	-128.9094	-4.090484
11.09686	-0.1498421	-0.1299886	0	0	128.8983	4.090131
11.11343	-0.1498421	-0.1299886	0	0	0	0
11.12999	-0.1698221	-0.1423767	-1.206066	-0.74779	-36.40125	-22.56964
11.14656	-0.1698221	-0.1423767	0	0	36.4002	22.569
11.164	-0.1698221	-0.1423767	0	0	0	0
11.17969	-0.1770732	-0.1479692	-0.4622336	-0.3565063	-13.95225	-10.76093
11.19626	-0.1770732	-0.1479692	0	0	14.3301	11.05236
11.21282	-0.1770732	-0.1479692	0	0	0	0
11.22939	-0.1770477	-0.1479494	0.001538846	0.00119798	0.04644381	0.03615614
11.24626	-0.1770477	-0.1479494	0	0	-0.04602125	-0.03582719
11.26303	-0.1770477	-0.1479494	0	0	0	0
11.27942	-0.1770732	-0.1479295	-0.001555681	0.001211994	-0.04692083	0.03655492
11.29566	-0.1770732	-0.1479295	0	0	0.04767366	-0.03714143
11.31263	-0.1770732	-0.1479295	0	0	0	0
11.32879	-0.1771751	-0.1478501	-0.006312153	0.004914166	-0.1905396	0.1483397
11.34536	-0.1771751	-0.1478501	0	0	0.1928659	-0.1501508
11.36193	-0.1771751	-0.1478501	0	0	0	0
11.38283	-0.1791123	-0.1463417	-0.09265597	0.07214811	-2.472498	1.925252
11.3994	-0.1791123	-0.1463417	0	0	2.47231	-1.925105
11.41667	-0.1802842	-0.1454292	-0.06786972	0.0528497	-2.005822	1.56192
11.43253	-0.1802842	-0.1454292	0	0	2.048489	-1.595145
11.44951	-0.1802842	-0.1454292	0	0	0	0
11.46567	-0.1803351	-0.1454292	-0.003153966	0	-0.09519237	0
11.48224	-0.1803351	-0.1454292	0	0	0.09638532	0
11.4988	-0.1803351	-0.1454292	0	0	0	0
11.51537	-0.1802333	-0.1455482	0.006150505	-0.007184136	0.185644	-0.2168426
11.53194	-0.1802333	-0.1455482	0	0	-0.185628	0.2168239
11.5485	-0.1802333	-0.1455482	0	0	0	0
11.5654	-0.1801823	-0.1459052	0.003015459	-0.02113291	0.09011709	-0.6315576
11.58164	-0.1801823	-0.1459052	0	0	-0.09100674	0.6377925
11.5982	-0.1801823	-0.1459052	0	0	0	0
11.61477	-0.1801823	-0.1459052	0	0	0	0
11.63133	-0.1801823	-0.1459052	0	0	0	0
11.6479	-0.1801823	-0.1459052	0	0	0	0
11.66447	-0.1802078	-0.1458854	-0.001536782	0.001196874	-0.04637484	0.03611756
11.68104	-0.1802078	-0.1458854	0	0	0.04637884	-0.03612068
11.6976	-0.1802078	-0.1458854	0	0	0	0
11.71416	-0.1802078	-0.1458854	0	0	0	0
11.73073	-0.1802078	-0.1458854	0	0	0	0
11.7473	-0.1802078	-0.1458854	0	0	0	0
11.7834	-0.1802078	-0.1458854	0	0	0	0
11.80037	-0.1802078	-0.1458854	0	0	0	0
11.81653	-0.1802078	-0.1458854	0	0	0	0
11.83325	-0.1802078	-0.1458854	0	0	0	0
11.84967	-0.1802078	-0.1458854	0	0	0	0
11.86623	-0.1802078	-0.1458854	0	0	0	0
11.8828	-0.1802078	-0.1458854	0	0	0	0
11.89937	-0.1802078	-0.1458854	0	0	0	0
11.91594	-0.1802078	-0.1458854	0	0	0	0
11.9325	-0.1802078	-0.1458854	0	0	0	0
11.94907	-0.1802078	-0.1458854	0	0	0	0
11.96564	-0.1802078	-0.1458854	0	0	0	0
11.9822	-0.1802078	-0.1458854	0	0	0	0
11.99877	-0.1802078	-0.1458854	0	0	0	0
12.01533	-0.1801823	-0.1459052	0.001537224	-0.001197218	0.0463962	-0.03613419
12.0319	-0.1801823	-0.1459052	0	0	-0.0463962	0.03613419
12.04846	-0.1801823	-0.1459052	0	0	0	0
12.06503	-0.1801314	-0.1459449	0.003074817	-0.002394922	0.09280084	-0.07228097
12.0816	-0.1801314	-0.1459449	0	0	-0.0927955	0.07227681
12.09817	-0.1801314	-0.1459449	0	0	0	0
12.11478	-0.180055	-0.1460044	0.004598542	-0.003581626	0.1385769	-0.1079321
12.1313	-0.180055	-0.1460044	0	0	-0.1387883	0.1080968
12.14862	-0.180055	-0.1460044	0	0	0	0
12.16443	-0.1798257	-0.146183	0.01449446	-0.01128844	0.4374814	-0.3407151
12.181	-0.1798257	-0.146183	0	0	-0.4475689	0.3485713
12.19836	-0.1798257	-0.146183	0	0	0	0
12.21493	-0.1792652	-0.1466195	0.03383048	-0.02634897	0.9971002	-0.7765945
12.2315	-0.1792652	-0.1466195	0	0	-1.021035	0.7952365
12.24806	-0.1792652	-0.1466195	0	0	0	0
12.26463	-0.1776851	-0.1471752	0.09538437	-0.03354279	2.878789	-1.012353
12.2812	-0.1776851	-0.1471752	0	0	-2.878872	1.012382
12.29776	-0.1776851	-0.1471752	0	0	0	0
12.31433	-0.175109	-0.1482274	0.1554989	-0.06351462	4.693237	-1.916985
12.3309	-0.175109	-0.1482274	0	0	-4.693102	1.91693
12.34746	-0.175109	-0.1482274	0	0	0	0
12.36403	-0.1717388	-0.1457267	0.2034407	0.1509502	6.14003	4.555818
12.3806	-0.1717388	-0.1457267	0	0	-6.1395	-4.555425
12.39717	-0.1717388	-0.1457267	0	0	0	0
12.41373	-0.1506396	-0.1390512	1.273623	0.4029561	38.43913	12.16159
12.4303	-0.1506396	-0.1390512	0	0	-38.44024	-12.16194
12.44687	-0.1506396	-0.1390512	0	0	0	0
12.46343	-0.09296807	-0.1407332	3.48166	-0.1015423	105.0888	-3.064904
12.48	-0.09296807	-0.1407332	0	0	-105.0797	3.06464
12.49663	-0.09296807	-0.1407332	0	0	0	0
12.51313	-0.05184823	-0.1319405	2.492472	0.5329698	75.22729	16.08599
12.5297	-0.05184823	-0.1319405	0	0	-75.38352	-16.11939
12.54626	-0.05184823	-0.1319405	0	0	0	0
12.56283	-0.03582677	-0.1193497	0.9671127	0.7600239	29.18836	22.93823
12.5794	-0.03582677	-0.1193497	0	0	-29.1892	-22.93889
12.59596	-0.03582677	-0.1193497	0	0	0	0
12.61253	-0.02817675	-0.1136066	0.4617826	0.3466756	13.93743	10.46329
12.6291	-0.02817675	-0.1136066	0	0	-13.93743	-10.46329
12.64628	-0.02817675	-0.1136066	0	0	0	0
12.66239	-0.02817675	-0.1136066	0	0	0	0
12.67908	-0.02817675	-0.1136066	0	0	0	0
12.69552	-0.02817675	-0.1136066	0	0	0	0
12.71473	-0.02828193	-0.1134891	-0.005477752	0.006117994	-0.1536608	0.1716207
12.73141	-0.02828193	-0.1134891	0	0	0.1526399	-0.1704805
12.74786	-0.02828193	-0.1134891	0	0	0	0
12.76443	-0.02391649	-0.1098893	0.2635136	0.2172978	7.981571	6.581739
12.78118	-0.02391649	-0.1098893	0	0	-7.909601	-6.522392
12.79778	-0.02391649	-0.1098893	0	0	0	0
12.81437	-0.002605257	-0.09417935	1.2845	0.946891	38.69279	28.52304
12.8307	-0.002605257	-0.09417935	0	0	-39.02576	-28.7685
12.84726	-0.002605257	-0.09417935	0	0	0	0
12.86383	0.0006578946	-0.09184843	0.1969983	0.1407195	5.946104	4.247411
12.8804	0.0006578946	-0.09184843	0	0	-5.94559	-4.247044
12.89696	0.0006578946	-0.09184843	0	0	0	0
12.91371	0.0007105262	-0.09188726	0.003142834	-0.002318835	0.09434316	-0.06960794
12.93024	0.0007105262	-0.09188726	0	0	-0.09443778	0.06967776
12.94691	0.0007105262	-0.09188726	0	0	0	0
13.00677	0.0007105262	-0.09188726	0	0	0	0
13.02334	0.0007105262	-0.09188726	0	0	0	0
13.03991	0.0007105262	-0.09188726	0	0	0	0
13.05647	0.0007105262	-0.09188726	0	0	0	0
13.07304	0.0007105262	-0.09188726	0	0	0	0
13.0896	0.0007105262	-0.09188726	0	0	0	0
13.10617	0.0007105262	-0.09188726	0	0	0	0
13.12274	0.0007105262	-0.09188726	0	0	0	0
13.1393	0.0006842104	-0.09190667	-0.001588604	-0.0011721	-0.04794831	-0.0353771
13.15587	0.0006842104	-0.09190667	0	0	0.04794693	0.03537608
13.41232	0.0006842104	-0.09190667	0	0	0	0
13.43552	0.0002368421	-0.09235328	-0.01928943	-0.01925674	-0.0689783	-0.06886139
13.45209	0.0002368421	-0.09235328	0	0	0.4850814	0.4842592
13.46865	0	-0.09256691	-0.01429829	-0.01289654	-0.4314859	-0.3891847
13.48522	0	-0.09256691	0	0	0.4315231	0.3892183
13.50178	0	-0.09256691	0	0	0	0
13.51837	-0.001131578	-0.09355757	-0.0682119	-0.05971768	-2.057692	-1.801454
13.53492	-0.001131578	-0.09355757	0	0	2.058461	1.802128
13.55149	-0.001131578	-0.09355757	0	0	0	0
13.56839	-0.003631563	-0.09552056	-0.1478941	-0.1161266	-4.418687	-3.469557
13.58462	-0.003631563	-0.09552056	0	0	4.463326	3.504606
13.60152	-0.003631563	-0.09552056	0	0	0	0
13.61775	-0.003499986	-0.09561778	0.008107224	-0.005989981	0.2447188	-0.1808092
13.63432	-0.003499986	-0.09561778	0	0	-0.2472095	0.1826495
13.65121	-0.003499986	-0.09561778	0	0	0	0
13.66745	-0.003447355	-0.09569556	0.003241176	-0.004789727	0.09781888	-0.1445543
13.68429	-0.003447355	-0.09569556	0	0	-0.09800223	0.1448252
13.70083	-0.003447355	-0.09569556	0	0	0	0
13.71722	-0.003447355	-0.09565667	0	0.002372618	0	0.07204744
13.73372	-0.003447355	-0.09565667	0	0	0	-0.07212681
13.75029	-0.003447355	-0.09565667	0	0	0	0
13.76685	-0.003447355	-0.09565667	0	0	0	0
13.78342	-0.003447355	-0.09565667	0	0	0	0
13.79998	-0.003447355	-0.09565667	0	0	0	0
13.81655	-0.003447355	-0.09565667	0	0	0	0
13.83312	-0.003447355	-0.09565667	0	0	0	0
13.85013	-0.003447355	-0.09565667	0	0	0	0
13.86625	-0.003447355	-0.09565667	0	0	0	0
13.88282	-0.003447355	-0.09565667	0	0	0	0
13.89964	-0.003447355	-0.09565667	0	0	0	0
13.91595	-0.00347367	-0.09567612	-0.001613481	-0.001192295	-0.04870056	-0.03598767
13.93252	-0.00347367	-0.09567612	0	0	0.04907348	0.03626325
13.94908	-0.00347367	-0.09567612	0	0	0	0
13.96565	-0.003447355	-0.09569556	0.00158877	-0.001173584	0.04795606	-0.03542395
13.98222	-0.003447355	-0.09569556	0	0	-0.04795192	0.03542089
13.99878	-0.003447355	-0.09569556	0	0	0	0
14.01535	-0.003421039	-0.095715	0.00158877	-0.001174034	0.04795468	-0.0354365
14.03192	-0.003421039	-0.095715	0	0	-0.04795054	0.03543344
14.0487	-0.003421039	-0.095715	0	0	0	0
14.06505	-0.003421039	-0.095715	0	0	0	0
14.08162	-0.003421039	-0.095715	0	0	0	0
14.09818	-0.003421039	-0.095715	0	0	0	0
14.11475	-0.003421039	-0.095715	0	0	0	0
14.13132	-0.003421039	-0.095715	0	0	0	0
14.14811	-0.003421039	-0.095715	0	0	0	0
14.16445	-0.003421039	-0.09575389	0	-0.002380275	0	-0.07184098
14.18104	-0.003421039	-0.09575389	0	0	0	0.07227577
14.19758	-0.003421039	-0.09575389	0	0	0	0
14.21429	-0.003421039	-0.09583167	0	-0.004654417	0	-0.1399871
14.23071	-0.003421039	-0.09583167	0	0	0	0.1404787
14.24766	-0.003421039	-0.09583167	0	0	0	0
14.26415	-0.003394724	-0.09581222	0.001596214	0.001179535	0.04774236	0.0352796
14.28045	-0.003394724	-0.09581222	0	0	-0.04868812	-0.03597848
14.29698	-0.003394724	-0.09581222	0	0	0	0
14.31681	-0.003394724	-0.09581222	0	0	0	0
14.33339	-0.003394724	-0.09581222	0	0	0	0
14.35064	-0.003394724	-0.09581222	0	0	0	0
14.36651	-0.003394724	-0.09581222	0	0	0	0
14.38308	-0.003394724	-0.09581222	0	0	0	0
14.39965	-0.003394724	-0.09581222	0	0	0	0
14.41621	-0.003421039	-0.09583167	-0.001588678	-0.001173967	-0.04795192	-0.03543446
14.43278	-0.003421039	-0.09583167	0	0	0.04794778	0.0354314
14.44987	-0.003421039	-0.09583167	0	0	0	0
14.46592	-0.003421039	-0.09583167	0	0	0	0
14.48248	-0.003421039	-0.09583167	0	0	0	0
14.49905	-0.003421039	-0.09583167	0	0	0	0
14.51562	-0.003394724	-0.09585112	0.001588495	-0.001173831	0.0479395	-0.03542528
14.53218	-0.003394724	-0.09585112	0	0	-0.0479464	0.03543038
14.54875	-0.003394724	-0.09585112	0	0	0	0
14.56532	-0.003394724	-0.09585112	0	0	0	0
14.58188	-0.003394724	-0.09585112	0	0	0	0
14.59845	-0.003394724	-0.09585112	0	0	0	0
14.61501	-0.003394724	-0.09585112	0	0	0	0
14.63158	-0.003394724	-0.09585112	0	0	0	0
14.64815	-0.003394724	-0.09585112	0	0	0	0
14.66471	-0.003447355	-0.09589001	-0.00317699	-0.002347663	-0.0958928	-0.07086077
14.68131	-0.003447355	-0.09589001	0	0	0.09578252	0.07077926
14.69785	-0.003447355	-0.09589001	0	0	0	0
14.71441	-0.003394724	-0.09596779	0.00317699	-0.004695326	0.09598951	-0.1418644
14.73098	-0.003394724	-0.09596779	0	0	-0.09588728	0.1417134
14.74755	-0.003394724	-0.09596779	0	0	0	0
14.76411	-0.001026315	-0.09771851	0.1429656	-0.1056799	4.314836	-3.189518
14.78068	-0.001026315	-0.09771851	0	0	-4.31496	3.18961
14.79725	-0.001026315	-0.09771851	0	0	0	0
14.81381	0.01170999	-0.1071537	0.7688093	-0.5695412	23.20137	-17.1878
14.83038	0.01170999	-0.1071537	0	0	-23.20404	17.18978
14.84695	0.01170999	-0.1071537	0	0	0	0
14.86351	0.01170999	-0.1071537	0	0	0	0
14.88008	0.01170999	-0.1071537	0	0	0	0
14.89697	0.01170999	-0.1071537	0	0	0	0
14.91321	0.01170999	-0.1071537	0	0	0	0
14.92978	0.01170999	-0.1071537	0	0	0	0
14.94646	0.01170999	-0.1071537	0	0	0	0
14.96291	0.01170999	-0.1071537	0	0	0	0
14.9797	0.01170999	-0.1071537	0	0	0	0
14.99606	0.01170999	-0.1071537	0	0	0	0
15.01261	0.01170999	-0.1071146	0	0.002359595	0	0.07170597
15.02918	0.01170999	-0.1071146	0	0	0	-0.07123937
15.04574	0.01170999	-0.1071146	0	0	0	0
15.06231	0.01168368	-0.1070951	-0.001588088	0.001179093	-0.04793134	0.03558713
15.07888	0.01168368	-0.1070951	0	0	0.04792582	-0.03558303
15.09569	0.01168368	-0.1070951	0	0	0	0
15.11201	0.01168368	-0.1070951	0	0	0	0
15.12858	0.01168368	-0.1070951	0	0	0	0
15.14549	0.01168368	-0.1070951	0	0	0	0
15.16171	0.01160474	-0.1070365	-0.004866621	0.003611811	-0.1468918	0.1090172
15.17828	0.01160474	-0.1070365	0	0	0.148417	-0.1101492
15.19485	0.01160474	-0.1070365	0	0	0	0
15.21164	0.01157843	-0.107017	-0.001567304	0.001163177	-0.04698892	0.03487289
15.22798	0.01157843	-0.107017	0	0	0.04730405	-0.03510676
15.24455	0.01157843	-0.107017	0	0	0	0
15.26111	0.01155212	-0.1069975	-0.00158827	0.001178779	-0.04793547	0.03557663
15.27768	0.01155212	-0.1069975	0	0	0.04793823	-0.03557868
15.29432	0.01155212	-0.1069975	0	0	0	0
15.3111	0.01128899	-0.1068022	-0.01568357	0.0116397	-0.4692655	0.3482697
15.32738	0.01128899	-0.1068022	0	0	0.4744918	-0.3521484
15.34394	0.01128899	-0.1068022	0	0	0	0
15.36051	0.01126268	-0.1067827	-0.001588418	0.001178846	-0.04794131	0.0355797
15.37708	0.01126268	-0.1067827	0	0	0.04793717	-0.03557663
15.39405	0.01126268	-0.1067827	0	0	0	0
15.41021	0.01123637	-0.1067631	-0.001628584	0.001208237	-0.04915642	0.03646887
15.42678	0.01123637	-0.1067631	0	0	0.04976524	-0.03692055
15.44335	0.01123637	-0.1067631	0	0	0	0
15.4602	0.01121006	-0.1067436	-0.001561097	0.00115857	-0.04670933	0.03466539
15.47648	0.01121006	-0.1067436	0	0	0.0471167	-0.03496772
15.49304	0.01121006	-0.1067436	0	0	0	0
15.50967	0.01115743	-0.1067045	-0.003164811	0.002348768	-0.0953413	0.07075766
15.52618	0.01115743	-0.1067045	0	0	0.09551693	-0.07088801
15.54274	0.01115743	-0.1067045	0	0	0	0
15.55931	0.01099956	-0.1065483	-0.009528806	0.009427794	-0.2875965	0.2845478
15.57588	0.01099956	-0.1065483	0	0	0.2875799	-0.2845314
15.59266	0.01099956	-0.1065483	0	0	0	0
15.61333	0.01076274	-0.1063726	-0.01145851	0.008502507	-0.3059462	0.2270199
15.6299	0.01076274	-0.1063726	0	0	0.3077092	-0.228328
15.64658	0.01071012	-0.1063336	-0.003154735	0.002340802	-0.09487148	0.07039431
15.66303	0.01071012	-0.1063336	0	0	0.09521556	-0.07064962
15.6796	0.01071012	-0.1063336	0	0	0	0
15.69617	0.01065749	-0.1062945	-0.003176653	0.002357107	-0.0958771	0.07114173
15.71292	0.01065749	-0.1062945	0	0	0.09533105	-0.07073656
15.7293	0.01065749	-0.1062945	0	0	0	0
15.74587	0.01065749	-0.1062945	0	0	0	0
15.76243	0.01065749	-0.1062945	0	0	0	0
15.779	0.01065749	-0.1062945	0	0	0	0
15.79556	0.01065749	-0.1062945	0	0	0	0
15.81213	0.01065749	-0.1062945	0	0	0	0
15.8287	0.01065749	-0.1062945	0	0	0	0
15.84527	0.01065749	-0.1062945	0	0	0	0
15.86215	0.01065749	-0.1062945	0	0	0	0
15.8784	0.01065749	-0.1062945	0	0	0	0
15.89497	0.01065749	-0.1062945	0	0	0	0
15.91173	0.01065749	-0.1062945	0	0	0	0
15.9281	0.01065749	-0.1062945	0	0	0	0
15.94467	0.01065749	-0.1062945	0	0	0	0
15.96165	0.01065749	-0.1062945	0	0	0	0
15.9778	0.01065749	-0.1062945	0	0	0	0
15.99436	0.01065749	-0.1062945	0	0	0	0
16.01093	0.01065749	-0.1062945	0	0	0	0
16.0275	0.01065749	-0.1062945	0	0	0	0
16.04406	0.01065749	-0.1062945	0	0	0	0
16.06063	0.01065749	-0.1062945	0	0	0	0
16.07757	0.01065749	-0.1062945	0	0	0	0
16.09376	0.01065749	-0.1062945	0	0	0	0
16.11033	0.01065749	-0.1062945	0	0	0	0
16.1269	0.01065749	-0.1062945	0	0	0	0
16.1435	0.01065749	-0.1062945	0	0	0	0
16.16003	0.01065749	-0.1062945	0	0	0	0
16.1766	0.01065749	-0.1062945	0	0	0	0
16.19316	0.01065749	-0.1062945	0	0	0	0
16.20973	0.01065749	-0.1062945	0	0	0	0
16.2263	0.01065749	-0.1062945	0	0	0	0
16.24286	0.01065749	-0.1062945	0	0	0	0
16.25943	0.01065749	-0.1062945	0	0	0	0
16.27599	0.01065749	-0.1062945	0	0	0	0
16.29256	0.01065749	-0.1062945	0	0	0	0
16.30913	0.01065749	-0.1062945	0	0	0	0
16.3257	0.01065749	-0.1062945	0	0	0	0
16.34226	0.01065749	-0.1062945	0	0	0	0
16.35883	0.01065749	-0.1062945	0	0	0	0
16.3754	0.01065749	-0.1062945	0	0	0	0
16.39196	0.01065749	-0.1062945	0	0	0	0
16.40853	0.01065749	-0.1062945	0	0	0	0
16.42531	0.01065749	-0.1062945	0	0	0	0
16.44166	0.01065749	-0.1062945	0	0	0	0
16.45823	0.01065749	-0.1062945	0	0	0	0
16.47482	0.01065749	-0.1062945	0	0	0	0
16.49136	0.01065749	-0.1062945	0	0	0	0
16.50793	0.01065749	-0.1062945	0	0	0	0
16.52451	0.01065749	-0.1062945	0	0	0	0
16.54106	0.01065749	-0.1062945	0	0	0	0
16.55763	0.01065749	-0.1062945	0	0	0	0
16.57454	0.01065749	-0.1062945	0	0	0	0
16.59076	0.01065749	-0.1062555	0	0.002407239	0	0.07265897
16.60733	0.01065749	-0.1062555	0	0	0	-0.07341979
16.62416	0.01065749	-0.1062555	0	0	0	0
16.64046	0.01065749	-0.1062555	0	0	0	0
16.65703	0.01065749	-0.1062555	0	0	0	0
16.67393	0.01065749	-0.1062555	0	0	0	0
16.69016	0.01065749	-0.1062555	0	0	0	0
16.70673	0.01065749	-0.1062555	0	0	0	0
16.7233	0.01065749	-0.1062555	0	0	0	0
16.73986	0.01063118	-0.106236	-0.001588601	0.001178982	-0.04794959	0.03558585
16.75643	0.01063118	-0.106236	0	0	0.04794959	-0.03558585
16.77299	0.01063118	-0.106236	0	0	0	0
16.78961	0.01063118	-0.106236	0	0	0	0
16.80613	0.01063118	-0.106236	0	0	0	0
16.82269	0.01063118	-0.106236	0	0	0	0
16.83926	0.01063118	-0.106236	0	0	0	0
16.85583	0.01063118	-0.106236	0	0	0	0
16.87239	0.01063118	-0.106236	0	0	0	0
16.88954	0.01063118	-0.106236	0	0	0	0
16.90611	0.01063118	-0.106236	0	0	0	0
16.92309	0.01063118	-0.106236	0	0	0	0
16.94617	0.01063118	-0.106236	0	0	0	0
16.96274	0.01063118	-0.106236	0	0	0	0
16.97931	0.01063118	-0.106236	0	0	0	0
16.99588	0.01063118	-0.106236	0	0	0	0
17.01281	0.01063118	-0.106236	0	0	0	0
17.02901	0.01063118	-0.106236	0	0	0	0
17.04589	0.01063118	-0.106236	0	0	0	0
17.06215	0.01063118	-0.106236	0	0	0	0
17.07871	0.01060487	-0.1062164	-0.001588601	0.001178532	-0.04840381	0.03590925
17.09532	0.01060487	-0.1062164	0	0	0.04788894	-0.03552727
17.11194	0.01060487	-0.1062164	0	0	0	0
17.12841	0.01063118	-0.106236	0.001597061	-0.001184808	0.04825772	-0.03580087
17.14498	0.01063118	-0.106236	0	0	-0.04833293	0.03585666
17.16155	0.01063118	-0.106236	0	0	0	0
17.17811	0.01063118	-0.106236	0	0	0	0
17.1947	0.01063118	-0.106236	0	0	0	0
17.21124	0.01063118	-0.106236	0	0	0	0
17.22819	0.01063118	-0.106236	0	0	0	0
17.24444	0.01063118	-0.106236	0	0	0	0
17.26103	0.01063118	-0.106236	0	0	0	0
17.27751	0.01063118	-0.106236	0	0	0	0
17.29408	0.01063118	-0.106236	0	0	0	0
17.31109	0.01063118	-0.106236	0	0	0	0
17.32721	0.01063118	-0.106236	0	0	0	0
17.34378	0.01063118	-0.106236	0	0	0	0
17.36053	0.01063118	-0.106236	0	0	0	0
17.37724	0.01060487	-0.1062164	-0.0015741	0.001167774	-0.04704067	0.03489798
17.39348	0.01060487	-0.1062164	0	0	0.04776488	-0.03543524
17.41015	0.01060487	-0.1062164	0	0	0	0
17.42667	0.01060487	-0.1062164	0	0	0	0
17.44318	0.01060487	-0.1062164	0	0	0	0
17.45982	0.01060487	-0.1062164	0	0	0	0
17.47633	0.01060487	-0.1062164	0	0	0	0
17.49288	0.01060487	-0.1062164	0	0	0	0
17.50945	0.01060487	-0.1062164	0	0	0	0
17.52603	0.01060487	-0.1062164	0	0	0	0
17.54258	0.01060487	-0.1062164	0	0	0	0
17.55915	0.01060487	-0.1062164	0	0	0	0
17.57571	0.01060487	-0.1062164	0	0	0	0
17.59228	0.01060487	-0.1062164	0	0	0	0
17.60884	0.01060487	-0.1062164	0	0	0	0
17.62541	0.01060487	-0.1062164	0	0	0	0
17.64218	0.01060487	-0.1062164	0	0	0	0
17.65883	0.01060487	-0.1062164	0	0	0	0
17.67544	0.01060487	-0.1062164	0	0	0	0
17.69201	0.01060487	-0.1062164	0	0	0	0
17.70895	0.01060487	-0.1062164	0	0	0	0
17.72612	0.01060487	-0.1062164	0	0	0	0
17.74269	0.01060487	-0.1062164	0	0	0	0
17.75945	0.01060487	-0.1062164	0	0	0	0
17.77631	0.01060487	-0.1062164	0	0	0	0
17.79309	0.01060487	-0.1062164	0	0	0	0
17.80955	0.01060487	-0.1062164	0	0	0	0
17.82662	0.01060487	-0.1062164	0	0	0	0
17.84258	0.01060487	-0.1062164	0	0	0	0
17.85915	0.01060487	-0.1062164	0	0	0	0
17.87598	0.01060487	-0.1062164	0	0	0	0
17.89228	0.01060487	-0.1062164	0	0	0	0
17.90885	0.01060487	-0.1062164	0	0	0	0
17.92542	0.01060487	-0.1062164	0	0	0	0
17.94198	0.01060487	-0.1062164	0	0	0	0
17.95855	0.01060487	-0.1062164	0	0	0	0
17.97511	0.01060487	-0.1062164	0	0	0	0
17.99196	0.01060487	-0.1062164	0	0	0	0
18.00836	0.01060487	-0.1062164	0	0	0	0
18.02481	0.01060487	-0.1062164	0	0	0	0
18.04138	0.01060487	-0.1062164	0	0	0	0
18.05802	0.01060487	-0.1062164	0	0	0	0
18.07451	0.01060487	-0.1062164	0	0	0	0
18.09108	0.01060487	-0.1062164	0	0	0	0
18.10765	0.01060487	-0.1062164	0	0	0	0
18.12428	0.01060487	-0.1062164	0	0	0	0
18.14078	0.01060487	-0.1062164	0	0	0	0
18.15734	0.01060487	-0.1062164	0	0	0	0
18.17391	0.009894414	-0.1057284	-0.0428879	0.02945992	-1.294509	0.8892044
18.19048	0.009894414	-0.1057284	0	0	1.294359	-0.889102
18.20704	0.009894414	-0.1057284	0	0	0	0
18.22361	-0.003789456	-0.09563722	-0.8260551	0.6091762	-24.93326	18.38709
18.24018	-0.003789456	-0.09563722	0	0	24.93039	-18.38498
18.25675	-0.003789456	-0.09563722	0	0	0	0
18.27721	-0.02880782	-0.0779824	-1.22233	0.8625678	-33.00475	23.29062
18.29378	-0.02880782	-0.0779824	0	0	33.00304	-23.28942
18.31035	-0.0471755	-0.07722915	-1.108931	0.0454765	-33.46952	1.372563
18.32691	-0.0471755	-0.07722915	0	0	33.47145	-1.372642
18.34348	-0.0471755	-0.07722915	0	0	0	0
18.36046	-0.1058399	-0.1096938	-3.455845	-1.912452	-103.0226	-57.01232
18.37662	-0.1058399	-0.1096938	0	0	104.3036	57.72124
18.39318	-0.1058399	-0.1096938	0	0	0	0
18.6571	-0.2008345	-0.09614281	-0.3599452	0.05134621	-1.283312	0.1830646
18.67811	-0.2008345	-0.09614281	0	0	1.263279	-0.1802069
18.69473	-0.2009355	-0.09633729	-0.006080572	-0.01169992	-0.1615553	-0.3108564
18.71125	-0.2009355	-0.09633729	0	0	0.1835015	0.3530841
18.72782	-0.2009355	-0.09633729	0	0	0	0
18.74438	-0.2014408	-0.09742665	-0.03050689	-0.06576885	-0.9208059	-1.985137
18.76095	-0.2014408	-0.09742665	0	0	0.9207529	1.985022
18.77787	-0.2014408	-0.09742665	0	0	0	0
18.79408	-0.2171777	-0.111806	-0.9711233	-0.8873468	-29.31194	-26.78326
18.81065	-0.2171777	-0.111806	0	0	29.63266	27.07632
18.82721	-0.2171777	-0.111806	0	0	0	0
18.84378	-0.2338274	-0.1249486	-1.004975	-0.7932944	-30.3302	-23.94167
18.86035	-0.2338274	-0.1249486	0	0	30.3302	23.94167
18.87691	-0.2338274	-0.1249486	0	0	0	0
18.89348	-0.2338772	-0.1249093	-0.003005915	0.002374511	-0.09071869	0.07166287
18.91005	-0.2338772	-0.1249093	0	0	0.09071346	-0.07165875
18.92662	-0.2338772	-0.1249093	0	0	0	0
18.94338	-0.2338772	-0.1249093	0	0	0	0
18.95975	-0.2338772	-0.1249093	0	0	0	0
18.97639	-0.2338772	-0.1249093	0	0	0	0
18.99689	-0.233927	-0.12487	-0.002429683	0.001918955	-0.06542985	0.05167627
19.01387	-0.233927	-0.12487	0	0	0.06482717	-0.05120027
19.03094	-0.2339768	-0.1248306	-0.002918448	0.00230429	-0.08570588	0.06766996
19.04659	-0.2339768	-0.1248306	0	0	0.08918787	-0.07041919
19.06316	-0.2339768	-0.1248306	0	0	0	0
19.08143	-0.2339768	-0.12487	0	-0.002152515	0	-0.0617869
19.09805	-0.2339768	-0.12487	0	0	0	0.06169571
19.11457	-0.2339768	-0.12487	0	0	0	0
19.13117	-0.2339519	-0.1248896	0.001499332	-0.001183943	0.04526037	-0.03573971
19.1477	-0.2339519	-0.1248896	0	0	-0.04524994	0.03573148
19.16511	-0.2339519	-0.1248896	0	0	0	0
19.18163	-0.2339768	-0.12487	-0.001507296	0.001190231	-0.04442392	0.03507921
19.19821	-0.2339768	-0.12487	0	0	0.04553483	-0.03595644
19.21478	-0.2339768	-0.12487	0	0	0	0
19.23135	-0.2339768	-0.12487	0	0	0	0
19.24791	-0.2339768	-0.12487	0	0	0	0
19.26464	-0.2339768	-0.12487	0	0	0	0
19.28168	-0.2339519	-0.1248896	0.001461237	-0.001153861	0.04327565	-0.03417248
19.29762	-0.2339519	-0.1248896	0	0	-0.04430936	0.03498875
19.31418	-0.2339519	-0.1248896	0	0	0	0
19.33075	-0.2339768	-0.12487	-0.001503304	0.001187079	-0.04537763	0.0358323
19.34731	-0.2339768	-0.12487	0	0	0.0453724	-0.03582818
19.36388	-0.2339768	-0.12487	0	0	0	0
19.38052	-0.2340017	-0.1248503	-0.001496239	0.001181948	-0.04505544	0.03559137
19.39702	-0.2340017	-0.1248503	0	0	0.04515659	-0.03567128
19.41387	-0.2340017	-0.1248503	0	0	0	0
19.4309	-0.2340017	-0.1248503	0	0	0	0
19.44671	-0.2340017	-0.1248503	0	0	0	0
19.46328	-0.2340017	-0.1248503	0	0	0	0
19.47985	-0.2340017	-0.1248503	0	0	0	0
19.49648	-0.2340017	-0.1248503	0	0	0	0
19.51321	-0.2340017	-0.1248503	0	0	0	0
19.52955	-0.2339768	-0.12487	0.001524546	-0.001204309	0.04609846	-0.0364153
19.54612	-0.2339768	-0.12487	0	0	-0.0463363	0.03660318
19.56291	-0.2339768	-0.12487	0	0	0	0
19.57925	-0.2339768	-0.12487	0	0	0	0
19.59582	-0.2339768	-0.12487	0	0	0	0
19.61262	-0.2339768	-0.12487	0	0	0	0
19.62938	-0.2339021	-0.124929	0.004457935	-0.003520382	0.1328205	-0.1048868
19.64552	-0.2339021	-0.124929	0	0	-0.1355159	0.1070154
19.66208	-0.2339021	-0.124929	0	0	0	0
19.67865	-0.2337527	-0.1250076	0.009020721	-0.004749666	0.2722772	-0.1433617
19.69522	-0.2337527	-0.1250076	0	0	-0.2722616	0.1433534
19.71178	-0.2337527	-0.1250076	0	0	0	0
19.72835	-0.2308868	-0.1268768	0.1730057	-0.1128355	5.221623	-3.405579
19.74492	-0.2308868	-0.1268768	0	0	-5.221323	3.405383
19.76148	-0.2308868	-0.1268768	0	0	0	0
19.7781	-0.2296146	-0.1261486	0.07653471	0.04380558	2.306105	1.319928
19.79461	-0.2296146	-0.1261486	0	0	-2.310088	-1.322207
19.81165	-0.2296146	-0.1261486	0	0	0	0
19.82775	-0.2068158	-0.1331044	1.415913	-0.4319863	42.72989	-13.03662
19.84458	-0.2068158	-0.1331044	0	0	-42.99718	13.11817
19.86088	-0.2068158	-0.1331044	0	0	0	0
19.87745	-0.1366948	-0.1507704	4.233483	-1.066569	128.7973	-32.44875
19.89401	-0.1366948	-0.1507704	0	0	-127.7815	32.19283
19.911	-0.1366948	-0.1507704	0	0	0	0
19.92715	-0.0623926	-0.1584362	4.599807	-0.4745598	138.8224	-14.32224
19.94372	-0.0623926	-0.1584362	0	0	-140.5785	14.50341
19.96046	-0.0623926	-0.1584362	0	0	0	0
19.97699	-0.01762975	-0.1498363	2.707501	0.520164	81.37061	15.63289
19.99342	-0.01762975	-0.1498363	0	0	-82.13808	-15.78033
20.01053	-0.01762975	-0.1498363	0	0	0	0
20.0266	-0.007999829	-0.1421787	0.599555	0.4767647	18.07172	14.37059
20.04312	-0.007999829	-0.1421787	0	0	-18.39964	-14.63135
20.05968	-0.007999829	-0.1421787	0	0	0	0
20.07625	-0.006947257	-0.1413469	0.0635334	0.05020381	1.917552	1.515241
20.09282	-0.006947257	-0.1413469	0	0	-1.917442	-1.515154
20.10939	-0.006947257	-0.1413469	0	0	0	0
20.12595	-0.007210401	-0.1411489	-0.01588711	0.01195356	-0.479529	0.3608006
20.14252	-0.007210401	-0.1411489	0	0	0.4795014	-0.3607798
20.15909	-0.007210401	-0.1411489	0	0	0	0
20.17565	-0.008394539	-0.1402582	-0.07149117	0.05377886	-2.157856	1.623236
20.19254	-0.008394539	-0.1402582	0	0	2.137186	-1.607687
20.20905	-0.008394539	-0.1402582	0	0	0	0
20.22535	-0.01073643	-0.1384579	-0.1436556	0.1104335	-4.377872	3.365436
20.24192	-0.01073643	-0.1384579	0	0	4.370252	-3.359577
20.25883	-0.01073643	-0.1384579	0	0	0	0
20.27505	-0.009552341	-0.1367379	0.07297558	0.1059991	2.202407	3.199059
20.29162	-0.009552341	-0.1367379	0	0	-2.225466	-3.232553
20.30835	-0.009552341	-0.1367379	0	0	0	0
20.32476	0.005999928	-0.1252043	0.9477936	0.7028871	28.60282	21.21195
20.34132	0.005999928	-0.1252043	0	0	-28.74179	-21.31501
20.35814	0.005999928	-0.1252043	0	0	0	0
20.37445	0.01052593	-0.1220592	0.2775029	0.192837	8.376018	5.820502
20.39102	0.01052593	-0.1220592	0	0	-8.440157	-5.865073
20.40759	0.01052593	-0.1220592	0	0	0	0
20.42415	0.01065749	-0.1221574	0.00794306	-0.005929997	0.2397496	-0.1789883
20.44072	0.01065749	-0.1221574	0	0	-0.2397358	0.178978
20.45729	0.01065749	-0.1221574	0	0	0	0
20.47413	0.01071012	-0.122236	0.003124668	-0.004665823	0.09352741	-0.1396572
20.49042	0.01071012	-0.122236	0	0	-0.0943081	0.1408229
20.50699	0.01071012	-0.122236	0	0	0	0
20.52356	0.01071012	-0.122236	0	0	0	0
20.54054	0.01071012	-0.122236	0	0	0	0
20.55682	0.01071012	-0.122236	0	0	0	0
20.57325	0.01071012	-0.122236	0	0	0	0
20.59018	0.01071012	-0.122236	0	0	0	0
20.60639	0.01071012	-0.122236	0	0	0	0
20.62295	0.01071012	-0.122236	0	0	0	0
20.63952	0.01071012	-0.122236	0	0	0	0
20.65609	0.01071012	-0.122236	0	0	0	0
20.67265	0.01065749	-0.1222753	-0.003177202	-0.002372359	-0.09589918	-0.07160617
20.68922	0.01065749	-0.1222753	0	0	0.09589918	0.07160617
20.70579	0.01065749	-0.1222753	0	0	0	0
20.72235	0.01063118	-0.1222949	-0.001588601	-0.001186179	-0.04794683	-0.03580102
20.73892	0.01063118	-0.1222949	0	0	0.04794683	0.03580102
20.75552	0.01063118	-0.1222949	0	0	0	0
20.77205	0.0106838	-0.1223735	0.003183066	-0.004753476	0.09607066	-0.1434684
20.78862	0.0106838	-0.1223735	0	0	-0.09616478	0.143609
20.80558	0.0106838	-0.1223735	0	0	0	0
20.82269	0.0106838	-0.1224128	0	-0.002296462	0	-0.06739854
20.83961	0.0106838	-0.1224128	0	0	0	0.067493
20.85588	0.0106838	-0.1224128	0	0	0	0
20.8724	0.0106838	-0.1224128	0	0	0	0
20.88904	0.0106838	-0.1224128	0	0	0	0
20.90553	0.0106838	-0.1224128	0	0	0	0
20.92217	0.01065749	-0.1223932	-0.001581498	0.001180876	-0.0477462	0.03565122
20.93866	0.01065749	-0.1223932	0	0	0.04772971	-0.03563891
20.95523	0.01065749	-0.1223932	0	0	0	0
20.97179	0.01063118	-0.1223735	-0.001588601	0.001186179	-0.04794959	0.03580309
20.98837	0.01063118	-0.1223735	0	0	0.04794407	-0.03579896
21.00493	0.01063118	-0.1223735	0	0	0	0
21.0215	0.01060487	-0.1223932	-0.001588601	-0.001186179	-0.04794959	-0.03580309
21.03806	0.01060487	-0.1223932	0	0	0.04794683	0.03580102
21.05504	0.01060487	-0.1223932	0	0	0	0
21.0712	0.01044699	-0.1225111	-0.009770236	-0.007295171	-0.2949003	-0.220194
21.08776	0.01044699	-0.1225111	0	0	0.2985266	0.2229017
21.10433	0.01044699	-0.1225111	0	0	0	0
21.1209	0.01028911	-0.122629	-0.009531718	-0.007117526	-0.2877009	-0.2148321
21.13746	0.01028911	-0.122629	0	0	0.2876844	0.2148197
21.15454	0.01028911	-0.122629	0	0	0	0
21.17404	0.01028911	-0.122629	0	0	0	0
21.19061	0.01028911	-0.122629	0	0	0	0
21.20718	0.01028911	-0.122629	0	0	0	0
21.22374	0.0102628	-0.1226093	-0.001588967	0.001186453	-0.04795787	0.03580927
21.24031	0.0102628	-0.1226093	0	0	0.04796616	-0.03581546
21.25691	0.0102628	-0.1226093	0	0	0	0
21.27345	0.0102628	-0.1226093	0	0	0	0
21.29001	0.0102628	-0.1226093	0	0	0	0
21.30658	0.0102628	-0.1226093	0	0	0	0
21.32315	0.0102628	-0.1226093	0	0	0	0
21.33971	0.0102628	-0.1226093	0	0	0	0
21.35628	0.0102628	-0.1226093	0	0	0	0
21.37284	0.0102628	-0.1226093	0	0	0	0
21.38971	0.0102628	-0.1226093	0	0	0	0
21.40598	0.0102628	-0.1226093	0	0	0	0
21.42254	0.0102628	-0.1226093	0	0	0	0
21.43911	0.0102628	-0.1226093	0	0	0	0
21.69704	0.0102628	-0.1226093	0	0	0	0
21.72712	0.0102628	-0.1226093	0	0	0	0
21.74369	0.0102628	-0.1226093	0	0	0	0
21.76026	0.0102628	-0.1226093	0	0	0	0
21.77682	0.0102628	-0.1226093	0	0	0	0
21.79339	0.0102628	-0.1226093	0	0	0	0
21.80996	0.0102628	-0.1226093	0	0	0	0
21.82689	0.0102628	-0.1226093	0	0	0	0
21.84309	0.0102628	-0.1226093	0	0	0	0
21.85966	0.0102628	-0.1226093	0	0	0	0
21.87622	0.0102628	-0.1226093	0	0	0	0
21.89279	0.0102628	-0.1226093	0	0	0	0
21.90936	0.01023648	-0.1225897	-0.001588235	0.001185906	-0.04793303	0.03579072
21.92615	0.01023648	-0.1225897	0	0	0.04761781	-0.03555535
21.94265	0.01023648	-0.1225897	0	0	0	0
21.95906	0.0102628	-0.1226093	0.001603744	-0.001197487	0.04872929	-0.03638528
21.97563	0.0102628	-0.1226093	0	0	-0.04863346	0.03631372
21.99252	0.0102628	-0.1226093	0	0	0	0
22.00875	0.01021017	-0.1226486	-0.003242222	-0.002421324	-0.09786735	-0.07308833
22.02532	0.01021017	-0.1226486	0	0	0.09885194	0.07382363
22.04225	0.01021017	-0.1226486	0	0	0	0
22.05907	0.01015755	-0.1226879	-0.003128266	-0.002335778	-0.09269838	-0.06921496
22.07516	0.01015755	-0.1226879	0	0	0.09504592	0.0709678
22.09173	0.01015755	-0.1226879	0	0	0	0
22.10815	0.01015755	-0.1226879	0	0	0	0
22.12472	0.01015755	-0.1226879	0	0	0	0
22.14145	0.01015755	-0.1226879	0	0	0	0
22.15785	0.01015755	-0.1226879	0	0	0	0
22.17442	0.01015755	-0.1226879	0	0	0	0
22.19112	0.01015755	-0.1226879	0	0	0	0
22.20755	0.01013123	-0.1227076	-0.001601324	-0.001196133	-0.04833085	-0.03610145
22.22412	0.01013123	-0.1227076	0	0	0.0485264	0.03624752
22.24069	0.01013123	-0.1227076	0	0	0	0
22.25725	0.01005229	-0.1227665	-0.004765366	-0.003558578	-0.1438273	-0.1074043
22.27382	0.01005229	-0.1227665	0	0	0.1438273	0.1074043
22.29039	0.01005229	-0.1227665	0	0	0	0
22.30695	0.009973354	-0.1228648	-0.00476531	-0.005931113	-0.1438256	-0.1790117
22.32352	0.009973354	-0.1228648	0	0	0.1438339	0.179022
22.34009	0.009973354	-0.1228648	0	0	0	0
22.35665	0.009894414	-0.1229237	-0.004764818	-0.003558618	-0.1438025	-0.1073993
22.37322	0.009894414	-0.1229237	0	0	0.1438025	0.1073993
22.38979	0.009894414	-0.1229237	0	0	0	0
22.40635	0.0098681	-0.1229041	-0.001588291	0.001186356	-0.04793473	0.03580429
22.42292	0.0098681	-0.1229041	0	0	0.04793473	-0.03580429
22.43949	0.0098681	-0.1229041	0	0	0	0
22.45606	0.0098681	-0.1229041	0	0	0	0
22.47276	0.0098681	-0.1229041	0	0	0	0
22.48919	0.0098681	-0.1229041	0	0	0	0
22.50576	0.009841788	-0.1229237	-0.001588418	-0.001186493	-0.0481325	-0.03595329
22.52233	0.009841788	-0.1229237	0	0	0.04794131	0.03581048
22.53919	0.009841788	-0.1229237	0	0	0	0
22.55546	0.009841788	-0.1229237	0	0	0	0
22.57203	0.009841788	-0.1229237	0	0	0	0
22.5886	0.009841788	-0.1229237	0	0	0	0
22.60516	0.009841788	-0.1229237	0	0	0	0
22.62173	0.009841788	-0.1229237	0	0	0	0
22.63829	0.009841788	-0.1229237	0	0	0	0
22.65486	0.009841788	-0.1229237	0	0	0	0
22.67142	0.009841788	-0.1229237	0	0	0	0
22.68799	0.009841788	-0.1229237	0	0	0	0
22.70456	0.009841788	-0.1229237	0	0	0	0
22.72113	0.009841788	-0.1229237	0	0	0	0
22.7377	0.009841788	-0.1229237	0	0	0	0
22.75426	0.009841788	-0.1229237	0	0	0	0
22.77083	0.009841788	-0.1229237	0	0	0	0
22.7874	0.009841788	-0.1229237	0	0	0	0
22.93781	0.009841788	-0.1229237	0	0	0	0
22.95438	0.009841788	-0.1229237	0	0	0	0
22.97266	0.009841788	-0.1229237	0	0	0	0
22.98933	0.009841788	-0.1229237	0	0	0	0
23.0058	0.009841788	-0.1229237	0	0	0	0
23.02368	0.009841788	-0.1229237	0	0	0	0
23.04025	0.009841788	-0.1229237	0	0	0	0
23.057	0.009841788	-0.1229237	0	0	0	0
23.07373	0.009841788	-0.1229237	0	0	0	0
23.08995	0.009841788	-0.1229237	0	0	0	0
23.10652	0.009841788	-0.1229237	0	0	0	0
23.12308	0.009841788	-0.1229237	0	0	0	0
23.13965	0.009841788	-0.1229237	0	0	0	0
23.15622	0.009841788	-0.1229237	0	0	0	0
23.17278	0.009841788	-0.1229237	0	0	0	0
23.18935	0.009841788	-0.1229237	0	0	0	0
23.20592	0.009841788	-0.1229237	0	0	0	0
23.22248	0.009841788	-0.1229237	0	0	0	0
23.23905	0.009841788	-0.1229237	0	0	0	0
23.25562	0.009841788	-0.1229237	0	0	0	0
23.27218	0.009841788	-0.1229237	0	0	0	0
23.2892	0.009841788	-0.1229237	0	0	0	0
23.30532	0.009841788	-0.1229237	0	0	0	0
23.32188	0.009841788	-0.1229237	0	0	0	0
23.33858	0.009841788	-0.1229237	0	0	0	0
23.35518	0.009841788	-0.1229237	0	0	0	0
23.37159	0.009841788	-0.1229237	0	0	0	0
23.38815	0.009841788	-0.1229237	0	0	0	0
23.40472	0.009841788	-0.1229237	0	0	0	0
23.42128	0.009815474	-0.1229041	-0.001588657	0.001186629	-0.04795129	0.03581666
23.43785	0.009815474	-0.1229041	0	0	0.04794853	-0.0358146
23.45452	0.009815474	-0.1229041	0	0	0	0
23.47098	0.009815474	-0.1229041	0	0	0	0
23.48755	0.009815474	-0.1229041	0	0	0	0
23.50411	0.009815474	-0.1229041	0	0	0	0
23.52068	0.009815474	-0.1229041	0	0	0	0
23.53725	0.009815474	-0.1229041	0	0	0	0
23.55382	0.009815474	-0.1229041	0	0	0	0
23.57038	0.009815474	-0.1229041	0	0	0	0
23.58695	0.009815474	-0.1229041	0	0	0	0
23.60352	0.009815474	-0.1229041	0	0	0	0
23.62015	0.009815474	-0.1229041	0	0	0	0
23.63665	0.009815474	-0.1229041	0	0	0	0
23.65367	0.009815474	-0.1229041	0	0	0	0
23.66978	0.009815474	-0.1229041	0	0	0	0
23.68635	0.009815474	-0.1229041	0	0	0	0
23.70292	0.009815474	-0.1229041	0	0	0	0
23.71966	0.009815474	-0.1229041	0	0	0	0
23.7362	0.009815474	-0.1229041	0	0	0	0
23.75269	0.009815474	-0.1229041	0	0	0	0
23.76918	0.009815474	-0.1229041	0	0	0	0
23.78575	0.009815474	-0.1229041	0	0	0	0
23.80232	0.009815474	-0.1229041	0	0	0	0
23.81893	0.009815474	-0.1229041	0	0	0	0
23.83545	0.009815474	-0.1229041	0	0	0	0
23.85202	0.009815474	-0.1229041	0	0	0	0
23.86858	0.009815474	-0.1229041	0	0	0	0
23.88515	0.009815474	-0.1229041	0	0	0	0
23.90172	0.009815474	-0.1229041	0	0	0	0
23.91828	0.009815474	-0.1229041	0	0	0	0
23.93503	0.009815474	-0.1229041	0	0	0	0
23.95142	0.009815474	-0.1229041	0	0	0	0
23.96798	0.009815474	-0.1229041	0	0	0	0
23.98455	0.009815474	-0.1229041	0	0	0	0
24.0791	0.009815474	-0.1229041	0	0	0	0
24.10354	0.009815474	-0.1229041	0	0	0	0
24.12023	0.009815474	-0.1229041	0	0	0	0
24.13667	0.009815474	-0.1229041	0	0	0	0
24.15324	0.009815474	-0.1229041	0	0	0	0
24.2952	0.009815474	-0.1229041	0	0	0	0
24.3174	0.009815474	-0.1229041	0	0	0	0
24.33397	0.009815474	-0.1229041	0	0	0	0
24.35054	0.009815474	-0.1229041	0	0	0	0
24.36795	0.009815474	-0.1229041	0	0	0	0
24.38452	0.009815474	-0.1229041	0	0	0	0
24.40108	0.009815474	-0.1229041	0	0	0	0
24.41765	0.009815474	-0.1229041	0	0	0	0
24.43422	0.009815474	-0.1229041	0	0	0	0
24.45078	0.009815474	-0.1229041	0	0	0	0
24.46735	0.009815474	-0.1229041	0	0	0	0
24.48392	0.009815474	-0.1229041	0	0	0	0
24.50082	0.009815474	-0.1229041	0	0	0	0
24.51705	0.009815474	-0.1229041	0	0	0	0
24.53362	0.009815474	-0.1229041	0	0	0	0
24.55019	0.009815474	-0.1229041	0	0	0	0
24.56675	0.009815474	-0.1229041	0	0	0	0
24.58352	0.009815474	-0.1229041	0	0	0	0
24.60016	0.009815474	-0.1229041	0	0	0	0
24.61646	0.009815474	-0.1229041	0	0	0	0
24.63342	0.009815474	-0.1229041	0	0	0	0
24.64959	0.009815474	-0.1229041	0	0	0	0
24.66615	0.009815474	-0.1229041	0	0	0	0
24.68302	0.009815474	-0.1229041	0	0	0	0
24.69929	0.009815474	-0.1229041	0	0	0	0
24.71585	0.009815474	-0.1229041	0	0	0	0
24.73242	0.009815474	-0.1229041	0	0	0	0
24.74899	0.009815474	-0.1229041	0	0	0	0
24.76556	0.009815474	-0.1229041	0	0	0	0
24.78212	0.009815474	-0.1229041	0	0	0	0
24.79869	0.009815474	-0.1229041	0	0	0	0
24.81526	0.009815474	-0.1229041	0	0	0	0
24.83182	0.009815474	-0.1229041	0	0	0	0
24.84839	0.009789161	-0.1228844	-0.001588601	0.001186179	-0.04794959	0.03580309
24.86528	0.009789161	-0.1228844	0	0	0.04748215	-0.03545406
24.88218	0.009789161	-0.1228844	0	0	0	0
24.89809	0.009789161	-0.1228844	0	0	0	0
24.91466	0.009789161	-0.1228844	0	0	0	0
24.93193	0.009789161	-0.1228844	0	0	0	0
24.94779	0.009789161	-0.1228844	0	0	0	0
24.9646	0.009789161	-0.1228844	0	0	0	0
24.98169	0.009789161	-0.1228844	0	0	0	0
24.99749	0.009789161	-0.1228844	0	0	0	0
25.01458	0.009789161	-0.1228844	0	0	0	0
25.03063	0.009789161	-0.1228844	0	0	0	0
25.05074	0.009789161	-0.1228844	0	0	0	0
25.06731	0.009789161	-0.1228844	0	0	0	0
25.08387	0.009789161	-0.1228844	0	0	0	0
25.10068	0.009789161	-0.1228844	0	0	0	0
25.11701	0.009789161	-0.1228844	0	0	0	0
25.13357	0.009789161	-0.1228844	0	0	0	0
25.15014	0.009789161	-0.1228844	0	0	0	0
25.16671	0.009789161	-0.1228844	0	0	0	0
25.18328	0.009789161	-0.1228844	0	0	0	0
25.19984	0.009789161	-0.1228844	0	0	0	0
25.21641	0.009789161	-0.1228844	0	0	0	0
25.23311	0.009789161	-0.1228844	0	0	0	0
25.24954	0.009789161	-0.1228844	0	0	0	0
25.26611	0.009789161	-0.1228844	0	0	0	0
25.28268	0.009762848	-0.1229041	-0.001588291	-0.001185906	-0.04793473	-0.03579072
25.29969	0.009762848	-0.1229041	0	0	0.04730032	0.03531704
25.31581	0.009762848	-0.1229041	0	0	0	0
25.33238	0.006631482	-0.125283	-0.1890314	-0.1436097	-5.783211	-4.393583
25.34894	0.006631482	-0.125283	0	0	5.705307	4.334398
25.36551	0.006631482	-0.125283	0	0	0	0
25.38261	0.0006578946	-0.1299886	-0.3493063	-0.2751628	-10.37428	-8.172238
25.39864	0.0006578946	-0.1299886	0	0	10.5433	8.305385
25.41521	0.0006578946	-0.1299886	0	0	0	0
25.43178	-0.0509821	-0.1694514	-3.117714	-2.382525	-94.09821	-71.90887
25.44857	-0.0509821	-0.1694514	0	0	93.47401	71.43187
25.4652	-0.0509821	-0.1694514	0	0	0	0
25.48148	-0.1092475	-0.2167464	-3.579547	-2.905582	-108.7635	-88.28523
25.49821	-0.1092475	-0.2167464	0	0	108.4241	88.0098
25.51462	-0.1092475	-0.2167464	0	0	0	0
25.53118	-0.1398443	-0.2441878	-1.84768	-1.657128	-56.05348	-50.27268
25.54775	-0.1398443	-0.2441878	0	0	55.7695	50.01799
25.56441	-0.1398443	-0.2441878	0	0	0	0
25.58088	-0.1509997	-0.2531965	-0.6773928	-0.5470397	-20.44729	-16.51254
25.59745	-0.1509997	-0.2531965	0	0	20.50158	16.55639
25.61422	-0.1509997	-0.2531965	0	0	0	0
25.63058	-0.1509997	-0.2531965	0	0	0	0
25.64721	-0.1509997	-0.2531965	0	0	0	0
25.66416	-0.1509997	-0.2531965	0	0	0	0
25.68029	-0.1507168	-0.2534259	0.01754417	-0.01422605	0.5304	-0.4300858
25.69685	-0.1507168	-0.2534259	0	0	-0.5366822	0.4351799
25.89593	-0.1507168	-0.2534259	0	0	0	0
25.92077	-0.1012838	-0.2945119	1.990407	-1.654317	8.889041	-7.38808
25.93815	-0.1012838	-0.2945119	0	0	-47.14251	39.18226
25.95487	-0.1012838	-0.2945119	0	0	0	0
25.97129	-0.1012838	-0.2945119	0	0	0	0
25.98788	-0.1012838	-0.2945119	0	0	0	0
26.00442	-0.1013359	-0.2945119	-0.003149417	0	-0.09505506	0
26.02165	-0.1013359	-0.2945119	0	0	0.09325134	0
26.03756	-0.1013359	-0.2945119	0	0	0	0
26.05412	-0.101362	-0.2945332	-0.001572576	-0.00128649	-0.04843915	-0.03962699
26.07097	-0.101362	-0.2945332	0	0	0.04705952	0.03849835
26.08725	-0.101362	-0.2945332	0	0	0	0
26.1042	-0.101388	-0.2945545	-0.001536655	-0.001257103	-0.04624058	-0.03782839
26.12039	-0.101388	-0.2945545	0	0	0.04637366	0.03793726
26.13696	-0.101388	-0.2945545	0	0	0	0
26.15352	-0.101414	-0.2945758	-0.001572757	-0.001286638	-0.04747684	-0.03883975
26.17009	-0.101414	-0.2945758	0	0	0.04747137	0.03883528
26.18697	-0.101414	-0.2945758	0	0	0	0
26.20346	-0.1014401	-0.2945971	-0.001579305	-0.001293801	-0.0473203	-0.03876583
26.21979	-0.1014401	-0.2945971	0	0	0.04812336	0.03942372
26.23635	-0.1014401	-0.2945971	0	0	0	0
26.25292	-0.1015703	-0.2947037	-0.00786243	-0.006434247	-0.2373159	-0.1942083
26.26949	-0.1015703	-0.2947037	0	0	0.2373023	0.1941971
26.28644	-0.1015703	-0.2947037	0	0	0	0
26.30262	-0.1015964	-0.294725	-0.001609377	-0.001316972	-0.04857668	-0.03975088
26.31918	-0.1015964	-0.294725	0	0	0.04914538	0.04021624
26.33596	-0.1015964	-0.294725	0	0	0	0
26.35231	-0.1016224	-0.2947463	-0.00159238	-0.001302691	-0.04806365	-0.03931981
26.36892	-0.1016224	-0.2947463	0	0	0.04830839	0.03952003
26.38547	-0.1016224	-0.2947463	0	0	0	0
26.40201	-0.1016224	-0.2947463	0	0	0	0
26.41858	-0.1016224	-0.2947463	0	0	0	0
26.43546	-0.1016224	-0.2947463	0	0	0	0
26.45171	-0.1016224	-0.2947463	0	0	0	0
26.46828	-0.1016224	-0.2947463	0	0	0	0
26.48543	-0.1016224	-0.2947463	0	0	0	0
26.50153	-0.1016224	-0.2947463	0	0	0	0
26.51798	-0.1016224	-0.2947463	0	0	0	0
26.53455	-0.1016224	-0.2947463	0	0	0	0
27.10985	-0.1079992	-0.2064092	-0.01108412	0.1535476	-0.01872731	0.2594282
27.12642	-0.1079992	-0.2064092	0	0	0.01872713	-0.2594257
27.14471	-0.07368216	-0.1800168	1.875926	1.442728	53.8122	41.38562
27.16129	-0.07368216	-0.1800168	0	0	-53.80043	-41.37656
27.17785	-0.07368216	-0.1800168	0	0	0	0
27.19456	-0.04922336	-0.1614696	1.463697	1.109929	43.99215	33.35946
27.21098	-0.04922336	-0.1614696	0	0	-44.17702	-33.49965
27.22755	-0.04922336	-0.1614696	0	0	0	0
27.24412	-0.03782406	-0.1530178	0.6879843	0.5100923	20.76341	15.39462
27.26068	-0.03782406	-0.1530178	0	0	-20.76221	-15.39373
27.27725	-0.03782406	-0.1530178	0	0	0	0
27.29382	-0.0243373	-0.1427531	0.8140623	0.6195764	24.56845	18.69885
27.31038	-0.0243373	-0.1427531	0	0	-24.57128	-18.70101
27.32695	-0.0243373	-0.1427531	0	0	0	0
27.34352	-0.01092062	-0.1325125	0.810019	0.6182671	24.44783	18.66041
27.36008	-0.01092062	-0.1325125	0	0	-24.44783	-18.66041
27.37665	-0.01092062	-0.1325125	0	0	0	0
27.39322	-0.00136842	-0.1251256	0.5765055	0.4458206	17.39997	13.45567
27.40978	-0.00136842	-0.1251256	0	0	-17.39897	-13.45489
27.42635	-0.00136842	-0.1251256	0	0	0	0
27.44316	0.005499945	-0.1200366	0.4086011	0.3027479	12.24211	9.070638
27.45948	0.005499945	-0.1200366	0	0	-12.3316	-9.13695
27.47605	0.005499945	-0.1200366	0	0	0	0
27.49261	0.006868313	-0.1190161	0.08261391	0.06161115	2.493723	1.859749
27.50918	0.006868313	-0.1190161	0	0	-2.493293	-1.859428
27.52575	0.006868313	-0.1190161	0	0	0	0
27.54231	0.006894628	-0.1190358	0.001588347	-0.001184557	0.04794194	-0.03575412
27.55914	0.006894628	-0.1190358	0	0	-0.04757221	0.03547838
27.57545	0.006894628	-0.1190358	0	0	0	0
27.59201	0.006894628	-0.1190358	0	0	0	0
27.60858	0.006894628	-0.1190358	0	0	0	0
27.73843	0.006894628	-0.1190358	0	0	0	0
27.76289	0.006894628	-0.119075	0	-0.001604353	0	-0.01039667
27.77946	0.006894628	-0.119075	0	0	0	0.03910292
27.79603	0.006868313	-0.1191339	-0.001588713	-0.00355359	-0.04795023	-0.1072537
27.81262	0.006868313	-0.1191339	0	0	0.04791712	0.1071797
27.82917	0.006868313	-0.1191339	0	0	0	0
27.84576	0.006841999	-0.1191142	-0.001585609	0.001182066	-0.04784001	0.03566456
27.8623	0.006841999	-0.1191142	0	0	0.04785929	-0.03567893
27.87886	0.006841999	-0.1191142	0	0	0	0
27.89543	0.006815684	-0.1191339	-0.001588165	-0.001183971	-0.04793642	-0.03573643
28.01125	0.006815684	-0.1191339	0	0	0.01199585	0.00894286
28.0331	0.006815684	-0.1191339	0	0	0	0
28.05003	0.006684111	-0.119232	-0.007771764	-0.005795122	-0.2003955	-0.1494277
28.0669	0.006684111	-0.119232	0	0	0.2299719	0.1714817
28.08317	0.006684111	-0.119232	0	0	0	0
28.1	0.006684111	-0.119232	0	0	0	0
28.1163	0.006684111	-0.119232	0	0	0	0
28.13329	0.006684111	-0.119232	0	0	0	0
28.14943	0.006684111	-0.119232	0	0	0	0
28.166	0.006684111	-0.119232	0	0	0	0
28.18257	0.006684111	-0.119232	0	0	0	0
28.20009	0.006657796	-0.1192123	-0.001501729	0.001119534	-0.04405184	0.03284049
28.2157	0.006657796	-0.1192123	0	0	0.04532489	-0.03378954
28.23227	0.006657796	-0.1192123	0	0	0	0
28.24883	0.006657796	-0.1192123	0	0	0	0
28.2654	0.006657796	-0.1192123	0	0	0	0
28.28197	0.006657796	-0.1192123	0	0	0	0
28.29853	0.006657796	-0.1192123	0	0	0	0
28.3151	0.006657796	-0.1192123	0	0	0	0
28.33167	0.006657796	-0.1192123	0	0	0	0
28.34823	0.006657796	-0.1192123	0	0	0	0
28.3648	0.006657796	-0.1192123	0	0	0	0
28.38137	0.006657796	-0.1192123	0	0	0	0
28.39822	0.006684111	-0.119232	0.001562091	-0.001164533	0.04674842	-0.03485078
28.41451	0.006684111	-0.119232	0	0	-0.047144	0.03514568
28.43119	0.006684111	-0.119232	0	0	0	0
28.44764	0.006684111	-0.119232	0	0	0	0
28.4642	0.006684111	-0.119232	0	0	0	0
28.48077	0.006684111	-0.119232	0	0	0	0
28.49734	0.006684111	-0.119232	0	0	0	0
28.5139	0.006684111	-0.119232	0	0	0	0
28.53047	0.006684111	-0.119232	0	0	0	0
28.54704	0.006684111	-0.119232	0	0	0	0
28.56361	0.006684111	-0.119232	0	0	0	0
28.5806	0.006684111	-0.119232	0	0	0	0
28.59674	0.006631482	-0.1192712	-0.003260786	-0.002431828	-0.09841073	-0.0733927
28.61331	0.006631482	-0.1192712	0	0	0.09969042	0.07434708
28.62994	0.006631482	-0.1192712	0	0	0	0
28.64981	0.006473594	-0.119389	-0.007948037	-0.005927073	-0.2177603	-0.1623899
28.66638	0.006473594	-0.119389	0	0	0.2181479	0.162679
28.68295	0.006473594	-0.119389	0	0	0	0
28.69951	0.006210446	-0.1195852	-0.01588362	-0.01184512	-0.4793409	-0.3574659
28.71608	0.006210446	-0.1195852	0	0	0.4793684	0.3574865
28.73276	0.006210446	-0.1195852	0	0	0	0
28.74921	0.005999928	-0.1197422	-0.01279234	-0.009540613	-0.3860958	-0.2879528
28.76578	0.005999928	-0.1197422	0	0	0.3873669	0.2889008
28.78235	0.005999928	-0.1197422	0	0	0	0
28.79891	0.005973613	-0.1197618	-0.001588713	-0.00118528	-0.04795299	-0.03577593
28.81548	0.005973613	-0.1197618	0	0	0.04795023	0.03577387
28.83205	0.005973613	-0.1197618	0	0	0	0
28.84873	0.005920983	-0.1198011	-0.003154597	-0.002352592	-0.0948728	-0.07075293
28.86518	0.005920983	-0.1198011	0	0	0.09521142	0.07100546
28.88194	0.005920983	-0.1198011	0	0	0	0
28.89831	0.005894668	-0.1198207	-0.001607437	-0.001198772	-0.04851813	-0.03618318
28.91488	0.005894668	-0.1198207	0	0	0.04879907	0.0363927
28.93145	0.005894668	-0.1198207	0	0	0	0
28.94802	0.005894668	-0.1198207	0	0	0	0
28.96458	0.005894668	-0.1198207	0	0	0	0
28.98115	0.005894668	-0.1198207	0	0	0	0
28.99771	0.005894668	-0.1198207	0	0	0	0
29.16073	0.005894668	-0.1198207	0	0	0	0
29.1773	0.005894668	-0.1198207	0	0	0	0
29.19387	0.004289447	-0.1210182	-0.09689134	-0.07228361	-2.924186	-2.181524
29.21043	0.004289447	-0.1210182	0	0	2.924186	2.181524
29.227	0.004289447	-0.1210182	0	0	0	0
29.24357	0.004289447	-0.1210182	0	0	0	0
29.26013	0.004289447	-0.1210182	0	0	0	0
29.27688	0.004289447	-0.1210182	0	0	0	0
29.29626	0.004289447	-0.1210182	0	0	0	0
29.32204	0.004289447	-0.1210182	0	0	0	0
29.3475	0.004289447	-0.1210182	0	0	0	0
29.37352	0.004289447	-0.1210182	0	0	0	0
29.39946	0.004289447	-0.1210182	0	0	0	0
29.41603	0.004289447	-0.1210182	0	0	0	0
29.4326	0.004289447	-0.1210182	0	0	0	0
29.44916	0.004289447	-0.1210182	0	0	0	0
29.46574	0.004289447	-0.1210182	0	0	0	0
29.63496	0.004289447	-0.1210182	0	0	0	0
29.65845	0.004289447	-0.1210182	0	0	0	0
29.68025	0.004289447	-0.1210182	0	0	0	0
29.69682	0.004289447	-0.1210182	0	0	0	0
29.71341	0.004289447	-0.1210182	0	0	0	0
29.72996	0.004289447	-0.1210182	0	0	0	0
29.74707	0.004289447	-0.1210182	0	0	0	0
29.76308	0.004315763	-0.1210379	0.001644051	-0.001226987	0.04963184	-0.0370412
29.77965	0.004315763	-0.1210379	0	0	-0.05046286	0.03766141
29.79622	0.004315763	-0.1210379	0	0	0	0
29.85876	0.004315763	-0.1210379	0	0	0	0
29.87533	0.004315763	-0.1210379	0	0	0	0
29.89855	0.004315763	-0.1210379	0	0	0	0
29.91531	0.004315763	-0.1210379	0	0	0	0
29.93169	0.004315763	-0.1210379	0	0	0	0
29.94826	0.004315763	-0.1210379	0	0	0	0
29.96555	0.004315763	-0.1210379	0	0	0	0
29.98139	0.004315763	-0.1210379	0	0	0	0
29.99796	0.004315763	-0.1210379	0	0	0	0
30.01493	0.004315763	-0.1210379	0	0	0	0
30.03109	0.004315763	-0.1210379	0	0	0	0
30.04766	0.004315763	-0.1210379	0	0	0	0
30.06437	0.004315763	-0.1210379	0	0	0	0
30.08079	0.004315763	-0.1210379	0	0	0	0
30.09745	0.004315763	-0.1210379	0	0	0	0
30.11433	0.004315763	-0.1210379	0	0	0	0
30.13049	0.004289447	-0.1210182	-0.001628719	0.001215544	-0.04929386	0.03678896
30.14706	0.004289447	-0.1210182	0	0	0.0497679	-0.03714275
30.16406	0.004289447	-0.1210182	0	0	0	0
30.18019	0.004289447	-0.1210182	0	0	0	0
30.19676	0.004289447	-0.1210182	0	0	0	0
30.21333	0.004289447	-0.1210182	0	0	0	0
30.23004	0.004315763	-0.1210379	0.001574986	-0.001175442	0.04732612	-0.0353204
30.24659	0.004315763	-0.1210379	0	0	-0.04735326	0.03534066
30.26303	0.004315763	-0.1210379	0	0	0	0
30.28565	0.004315763	-0.1210772	0	-0.001736221	0	-0.04445811
30.30257	0.004315763	-0.1210772	0	0	0	0.04390699
30.31878	0.004315763	-0.1210772	0	0	0	0
30.33535	0.004315763	-0.1210772	0	0	0	0
30.35192	0.004315763	-0.1210772	0	0	0	0
30.36849	0.004342078	-0.1210575	0.001588193	0.00118487	0.04792348	0.03575328
30.38505	0.004342078	-0.1210575	0	0	-0.04793451	-0.03576152
30.51186	0.004342078	-0.1210575	0	0	0	0
30.53123	0.004289447	-0.1210575	-0.002715896	0	-0.01857874	0
30.54789	0.004289447	-0.1210575	0	0	0.07537515	0
30.56437	0.004289447	-0.1210575	0	0	0	0
30.58094	0.004289447	-0.1210575	0	0	0	0
30.59753	0.004289447	-0.1210575	0	0	0	0
30.61407	0.004289447	-0.1210575	0	0	0	0
30.63064	0.004315763	-0.1210379	0.001588404	0.001185457	0.04797678	0.035806
30.6472	0.004315763	-0.1210379	0	0	-0.04794088	-0.03577921
30.66377	0.004315763	-0.1210379	0	0	0	0
30.68034	0.004315763	-0.1210379	0	0	0	0
30.69723	0.004315763	-0.1210379	0	0	0	0
30.71351	0.004315763	-0.1210379	0	0	0	0
30.73004	0.004315763	-0.1210379	0	0	0	0
30.74663	0.004315763	-0.1210379	0	0	0	0
30.76317	0.004315763	-0.1210379	0	0	0	0
30.77974	0.004315763	-0.1210379	0	0	0	0
30.7963	0.004315763	-0.1210379	0	0	0	0
30.81288	0.004315763	-0.1210379	0	0	0	0
30.82963	0.004289447	-0.1210575	-0.001570683	-0.001172231	-0.04712928	-0.0351735
30.84601	0.004289447	-0.1210575	0	0	0.04740602	0.03538003
30.86311	0.004289447	-0.1210575	0	0	0	0
30.88123	0.004289447	-0.1210575	0	0	0	0
30.8978	0.004289447	-0.1210575	0	0	0	0
30.91446	0.004289447	-0.1210575	0	0	0	0
30.93207	0.004315763	-0.1210379	0.001494948	0.001115709	0.04362835	0.03256068
30.94864	0.004315763	-0.1210379	0	0	-0.04374523	-0.03264791
30.9652	0.004315763	-0.1210379	0	0	0	0
30.98177	0.004315763	-0.1210379	0	0	0	0
30.99834	0.004315763	-0.1210379	0	0	0	0
31.01497	0.004315763	-0.1210379	0	0	0	0
31.03168	0.004315763	-0.1210379	0	0	0	0
31.04804	0.004315763	-0.1210379	0	0	0	0
31.06461	0.004315763	-0.1210379	0	0	0	0
31.08117	0.004315763	-0.1210379	0	0	0	0
31.09774	0.004315763	-0.1210379	0	0	0	0
31.1143	0.004315763	-0.1210379	0	0	0	0
31.13087	0.004315763	-0.1210379	0	0	0	0
31.14744	0.004315763	-0.1210379	0	0	0	0
31.27878	0.004315763	-0.1210379	0	0	0	0
31.30305	0.004289447	-0.1210182	-0.001084404	0.0008093119	-0.00696877	0.005200928
31.31972	0.004289447	-0.1210182	0	0	0.02648808	-0.01976857
31.33645	0.004289447	-0.1210182	0	0	0	0
31.35275	0.004289447	-0.1210182	0	0	0	0
31.36949	0.004289447	-0.1210182	0	0	0	0
31.38588	0.004289447	-0.1210182	0	0	0	0
31.40261	0.004289447	-0.1210182	0	0	0	0
31.41902	0.004289447	-0.1210182	0	0	0	0
31.43559	0.004289447	-0.1210182	0	0	0	0
31.45215	0.004289447	-0.1210182	0	0	0	0
31.46872	0.004289447	-0.1210182	0	0	0	0
31.48529	0.004289447	-0.1210182	0	0	0	0
31.50186	0.004289447	-0.1210182	0	0	0	0
31.51842	0.004289447	-0.1210182	0	0	0	0
31.53511	0.004289447	-0.1210182	0	0	0	0
31.55179	0.004289447	-0.1210182	0	0	0	0
31.56812	0.004289447	-0.1210182	0	0	0	0
31.58557	0.004289447	-0.1210182	0	0	0	0
31.60132	0.004289447	-0.1210182	0	0	0	0
31.61788	0.004289447	-0.1210182	0	0	0	0
31.63439	0.004289447	-0.1210182	0	0	0	0
31.65096	0.004289447	-0.1210182	0	0	0	0
31.66753	0.004289447	-0.1210182	0	0	0	0
31.68416	0.004289447	-0.1210182	0	0	0	0
31.70066	0.004289447	-0.1210182	0	0	0	0
31.71723	0.004289447	-0.1210182	0	0	0	0
31.73379	0.004289447	-0.1210182	0	0	0	0
31.75036	0.004289447	-0.1210182	0	0	0	0
31.76693	0.004289447	-0.1210182	0	0	0	0
31.78349	0.004289447	-0.1210182	0	0	0	0
31.80014	0.004289447	-0.1210182	0	0	0	0
31.81663	0.004289447	-0.1210182	0	0	0	0
31.83447	0.004289447	-0.1210182	0	0	0	0
31.85104	0.004289447	-0.1210182	0	0	0	0
31.8676	0.004289447	-0.1210182	0	0	0	0
31.88417	0.004289447	-0.1210182	0	0	0	0
31.90074	0.004289447	-0.1210182	0	0	0	0
31.9173	0.004289447	-0.1210182	0	0	0	0
31.9341	0.004289447	-0.1210182	0	0	0	0
31.95044	0.004289447	-0.1210182	0	0	0	0
31.96701	0.004289447	-0.1210182	0	0	0	0
31.98965	0.004289447	-0.1210182	0	0	0	0
32.00621	0.004289447	-0.1210182	0	0	0	0
32.02278	0.004289447	-0.1210182	0	0	0	0
32.03935	0.004289447	-0.1210182	0	0	0	0
32.05592	0.004289447	-0.1210182	0	0	0	0
32.07248	0.004289447	-0.1210182	0	0	0	0
32.08905	0.004289447	-0.1210182	0	0	0	0
32.10562	0.004289447	-0.1210182	0	0	0	0
32.12218	0.004289447	-0.1210182	0	0	0	0
32.13876	0.004289447	-0.1210182	0	0	0	0
32.15532	0.004289447	-0.1210182	0	0	0	0
32.17189	0.004289447	-0.1210182	0	0	0	0
32.18845	0.004289447	-0.1210182	0	0	0	0
32.20502	0.004289447	-0.1210182	0	0	0	0
32.22158	0.004289447	-0.1210182	0	0	0	0
32.23816	0.004289447	-0.1210182	0	0	0	0
32.25472	0.004289447	-0.1210182	0	0	0	0
32.27147	0.004289447	-0.1210182	0	0	0	0
32.28791	0.004289447	-0.1210182	0	0	0	0
32.30442	0.004289447	-0.1210182	0	0	0	0
32.32105	0.004289447	-0.1210182	0	0	0	0
32.33762	0.004289447	-0.1210182	0	0	0	0
32.35419	0.004289447	-0.1210182	0	0	0	0
32.37075	0.004289447	-0.1210182	0	0	0	0
32.38736	0.004289447	-0.1210182	0	0	0	0
32.40389	0.004289447	-0.1210182	0	0	0	0
32.42046	0.004289447	-0.1210182	0	0	0	0
32.43702	0.004289447	-0.1210182	0	0	0	0
32.45359	0.004289447	-0.1210182	0	0	0	0
32.47016	0.004289447	-0.1210182	0	0	0	0
32.48672	0.004289447	-0.1210182	0	0	0	0
32.50358	0.004289447	-0.1210182	0	0	0	0
32.52034	0.004289447	-0.1210182	0	0	0	0
32.63127	0.004289447	-0.1210182	0	0	0	0
32.64904	0.004289447	-0.1210182	0	0	0	0
32.68473	0.004289447	-0.1210182	0	0	0	0
32.7013	0.004289447	-0.1210182	0	0	0	0
32.7179	0.004289447	-0.1210182	0	0	0	0
32.73443	0.004289447	-0.1210182	0	0	0	0
32.75117	0.004289447	-0.1210182	0	0	0	0
32.76757	0.004289447	-0.1210182	0	0	0	0
32.78413	0.004289447	-0.1210182	0	0	0	0
32.80077	0.004289447	-0.1210182	0	0	0	0
32.81726	0.004263132	-0.1209986	-0.001595383	0.001190214	-0.04815431	0.03592486
32.83384	0.004263132	-0.1209986	0	0	0.04824875	-0.03599532
32.8504	0.004263132	-0.1209986	0	0	0	0
32.86697	0.004263132	-0.1209986	0	0	0	0
32.88354	0.004263132	-0.1209986	0	0	0	0
32.90055	0.004263132	-0.1209986	0	0	0	0
32.91667	0.004289447	-0.1210182	0.001631994	-0.001217527	0.04925367	-0.03674502
32.93324	0.004289447	-0.1210182	0	0	-0.04992034	0.03724239
32.94987	0.004289447	-0.1210182	0	0	0	0
32.96639	0.004289447	-0.1210182	0	0	0	0
32.98294	0.004289447	-0.1210182	0	0	0	0
32.99969	0.004289447	-0.1210182	0	0	0	0
33.01607	0.004289447	-0.1210182	0	0	0	0
33.03264	0.004289447	-0.1210182	0	0	0	0
33.04921	0.004289447	-0.1210182	0	0	0	0
33.06577	0.004289447	-0.1210182	0	0	0	0
33.08234	0.004289447	-0.1210182	0	0	0	0
33.09904	0.004289447	-0.1210182	0	0	0	0
33.11547	0.004263132	-0.1209986	-0.001600937	0.001194357	-0.04831637	0.03604577
33.13204	0.004263132	-0.1209986	0	0	0.04850625	-0.03618742
33.14897	0.004263132	-0.1209986	0	0	0	0
33.27407	0.004078925	-0.1208612	-0.001472445	0.001098681	-0.01036695	0.007735415
33.29064	0.004078925	-0.1208612	0	0	0.01039346	-0.007755202
33.30721	0.00271052	-0.1198403	-0.08259709	0.0616172	-2.492785	1.859611
33.32413	0.00271052	-0.1198403	0	0	2.466659	-1.840121
33.34074	0.00271052	-0.1198403	0	0	0	0
33.35691	-0.01413064	-0.1073099	-1.041228	0.7747102	-31.76074	23.6311
33.37348	-0.01413064	-0.1073099	0	0	31.80144	-23.66138
33.39005	-0.01413064	-0.1073099	0	0	0	0
33.40661	-0.0359319	-0.09116895	-1.31623	0.9744956	-39.72847	29.41372
33.42318	-0.0359319	-0.09116895	0	0	39.72847	-29.41372
33.43978	-0.0359319	-0.09116895	0	0	0	0
33.45631	-0.04670286	-0.08388034	-0.651637	0.4409573	-19.66644	13.30812
33.47314	-0.04670286	-0.08388034	0	0	19.53599	-13.21984
33.48968	-0.04670286	-0.08388034	0	0	0	0
33.50601	-0.06558999	-0.07063252	-1.15654	0.8112203	-35.17987	24.67586
33.52258	-0.06558999	-0.07063252	0	0	35.15132	-24.65583
33.53915	-0.06558999	-0.07063252	0	0	0	0
33.55572	-0.1157695	-0.03382159	-3.02884	2.221913	-91.41058	67.05746
33.57228	-0.1157695	-0.03382159	0	0	91.41058	-67.05746
33.58885	-0.1157695	-0.03382159	0	0	0	0
33.6058	-0.1580907	-0.002795481	-2.496457	1.830177	-74.47721	54.59998
33.62221	-0.1580907	-0.002795481	0	0	74.84347	-54.86848
33.63874	-0.1580907	-0.002795481	0	0	0	0
33.65512	-0.1611945	-0.0004791013	-0.1894804	0.1414124	-5.757639	4.297023
33.67168	-0.1611945	-0.0004791013	0	0	5.750973	-4.292048
33.68825	-0.1611945	-0.0004791013	0	0	0	0
33.70481	-0.1745986	0.009371155	-0.809264	0.5946996	-24.42645	17.95013
33.72139	-0.1745986	0.009371155	0	0	24.42364	-17.94807
33.73795	-0.1745986	0.009371155	0	0	0	0
33.75452	-0.1746242	0.009389927	-0.001541088	0.001133325	-0.0465155	0.03420776
33.77118	-0.1746242	0.009389927	0	0	0.04638198	-0.03410958
33.78772	-0.1746242	0.009389927	0	0	0	0
33.80422	-0.1746242	0.009389927	0	0	0	0
33.82127	-0.1746242	0.009389927	0	0	0	0
33.83735	-0.1746242	0.009389927	0	0	0	0
33.85392	-0.1745731	0.009352384	0.003082177	-0.002266594	0.09440053	-0.06942098
33.87049	-0.1745731	0.009352384	0	0	-0.09302028	0.06840596
33.88715	-0.1745731	0.009352384	0	0	0	0
34.21138	-0.2047227	-0.01566894	-0.09298723	-0.07717057	-0.2727756	-0.2263778
34.22795	-0.2047227	-0.01566894	0	0	0.2728489	0.2264387
34.24527	-0.2047227	-0.01566894	0	0	0	0
34.26184	-0.2047227	-0.01566894	0	0	0	0
34.2784	-0.2047227	-0.01566894	0	0	0	0
34.29497	-0.204748	-0.01565003	-0.001523096	0.001141872	-0.0459777	0.0344697
34.31154	-0.204748	-0.01565003	0	0	0.04596712	-0.03446176
34.32834	-0.204748	-0.01565003	0	0	0	0
34.34467	-0.204748	-0.01565003	0	0	0	0
34.3614	-0.204748	-0.01565003	0	0	0	0
34.37781	-0.204748	-0.01565003	0	0	0	0
34.39437	-0.204748	-0.0156122	0	0.002283744	0	0.06925841
34.4112	-0.204748	-0.0156122	0	0	0	-0.06838813
34.4275	-0.204748	-0.0156122	0	0	0	0
34.44448	-0.2047732	-0.01563111	-0.001485797	-0.001113909	-0.04464611	-0.0334714
34.46064	-0.2047732	-0.01563111	0	0	0.04484143	0.03361783
34.4772	-0.2047732	-0.01563111	0	0	0	0
34.49377	-0.2047732	-0.01563111	0	0	0	0
34.51034	-0.2047732	-0.01563111	0	0	0	0
34.52756	-0.2047732	-0.01563111	0	0	0	0
34.54347	-0.2047732	-0.01563111	0	0	0	0
34.56026	-0.2047732	-0.01563111	0	0	0	0
34.57661	-0.2047732	-0.01563111	0	0	0	0
34.59332	-0.204748	-0.01565003	0.001509192	-0.001131449	0.0456421	-0.0342181
34.60974	-0.204748	-0.01565003	0	0	-0.04554752	0.03414719
34.62685	-0.204748	-0.01565003	0	0	0	0
34.64287	-0.204748	-0.01565003	0	0	0	0
34.65944	-0.204748	-0.01565003	0	0	0	0
34.67601	-0.204748	-0.01565003	0	0	0	0
34.69257	-0.204748	-0.01565003	0	0	0	0
34.70914	-0.204748	-0.01565003	0	0	0	0
34.72655	-0.204748	-0.01565003	0	0	0	0
34.74227	-0.204748	-0.01565003	0	0	0	0
34.75884	-0.204748	-0.01565003	0	0	0	0
34.77569	-0.204748	-0.01565003	0	0	0	0
34.79197	-0.204748	-0.01565003	0	0	0	0
34.80855	-0.204748	-0.01565003	0	0	0	0
34.82511	-0.204748	-0.01565003	0	0	0	0
34.84167	-0.204748	-0.01565003	0	0	0	0
34.85824	-0.204748	-0.01565003	0	0	0	0
34.87481	-0.204748	-0.01565003	0	0	0	0
34.89138	-0.204748	-0.01565003	0	0	0	0
34.90794	-0.204748	-0.01565003	0	0	0	0
34.92451	-0.204748	-0.01565003	0	0	0	0
34.94108	-0.2046975	-0.01568785	0.00304549	-0.00228333	0.09191307	-0.06891105
34.95765	-0.2046975	-0.01568785	0	0	-0.09191307	0.06891105
34.97421	-0.2046975	-0.01568785	0	0	0	0
34.99078	-0.2046723	-0.01570677	0.001522745	-0.001141609	0.04595653	-0.03445382
35.00781	-0.2046723	-0.01570677	0	0	-0.04532513	0.03398046
35.02391	-0.2046723	-0.01570677	0	0	0	0
35.04048	-0.2046723	-0.01570677	0	0	0	0
35.05704	-0.2046723	-0.01570677	0	0	0	0
35.07444	-0.2046723	-0.01570677	0	0	0	0
35.09027	-0.204647	-0.01572568	0.001592794	-0.001194125	0.04792716	-0.03593121
35.10675	-0.204647	-0.01572568	0	0	-0.04929651	0.03695782
35.12416	-0.204647	-0.01572568	0	0	0	0
35.13988	-0.204647	-0.01572568	0	0	0	0
35.15644	-0.204647	-0.01572568	0	0	0	0
35.17379	-0.204647	-0.01572568	0	0	0	0
35.18958	-0.2045461	-0.01580134	0.006390587	-0.004790582	0.1928683	-0.1445801
35.20615	-0.2045461	-0.01580134	0	0	-0.1974837	0.1480399
35.22271	-0.2045461	-0.01580134	0	0	0	0
35.23928	-0.2041172	-0.01604724	0.02589116	-0.01484249	0.7813968	-0.4479473
35.25618	-0.2041172	-0.01604724	0	0	-0.7735596	0.4434545
35.27311	-0.2041172	-0.01604724	0	0	0	0
35.28898	-0.1999246	-0.01899949	0.2642584	-0.1860819	8.057899	-5.674101
35.30565	-0.1999246	-0.01899949	0	0	-8.122143	5.71934
35.32211	-0.1999246	-0.01899949	0	0	0	0
35.33867	-0.1815065	-0.03258528	1.111979	-0.8202288	33.672	-24.83748
35.35524	-0.1815065	-0.03258528	0	0	-33.55958	24.75455
35.37181	-0.1815065	-0.03258528	0	0	0	0
35.38837	-0.1596045	-0.04869691	1.32231	-0.9727242	39.91198	-29.36025
35.40495	-0.1596045	-0.04869691	0	0	-39.90739	29.35687
35.42151	-0.1596045	-0.04869691	0	0	0	0
35.43808	-0.1458001	-0.05871313	0.8334266	-0.6047193	25.15576	-18.25257
35.45465	-0.1458001	-0.05871313	0	0	-25.15286	18.25047
35.47128	-0.1458001	-0.05871313	0	0	0	0
35.48778	-0.1439191	-0.05992202	0.114011	-0.07327222	3.441256	-2.211615
35.50434	-0.1439191	-0.05992202	0	0	-3.448005	2.215952
35.52091	-0.1439191	-0.05992202	0	0	0	0
35.53748	-0.143816	-0.05992202	0.006223197	0	0.1878381	0
35.55405	-0.143816	-0.05992202	0	0	-0.1877948	0
35.57061	-0.143816	-0.05992202	0	0	0	0
35.58718	-0.1432747	-0.06032509	0.03268133	-0.02433534	0.9864381	-0.7345267
35.60374	-0.1432747	-0.06032509	0	0	-0.9864381	0.7345267
35.62031	-0.1432747	-0.06032509	0	0	0	0
35.63688	-0.1315258	-0.06907246	0.7091656	-0.5279918	21.40266	-15.93482
35.65345	-0.1315258	-0.06907246	0	0	-21.4002	15.93299
35.67001	-0.1315258	-0.06907246	0	0	0	0
35.68658	-0.1009452	-0.09177076	1.845847	-1.370072	55.71419	-41.35363
35.70314	-0.1009452	-0.09177076	0	0	-55.71419	41.35363
35.71971	-0.1009452	-0.09177076	0	0	0	0
35.74008	-0.0722163	-0.1131759	1.41032	-1.050791	38.18102	-28.44764
35.75665	-0.0722163	-0.1131759	0	0	-38.18102	28.44764
35.98351	-0.063808	-0.1186434	0.03706444	-0.02410109	0.1522632	-0.0990089
36.08575	-0.063808	-0.1186434	0	0	-0.1126244	0.07323383
36.10958	-0.063808	-0.1186041	0	0.001646415	0	0.01305933
36.12645	-0.063808	-0.1186041	0	0	0	-0.04044966
36.14432	-0.06142264	-0.1168196	0.1334988	0.09987499	3.84275	2.874891
36.16089	-0.06142264	-0.1168196	0	0	-3.875947	-2.899726
36.17746	-0.06142264	-0.1168196	0	0	0	0
36.19402	-0.03679917	-0.098497	1.48696	1.106461	44.88689	33.40076
36.21098	-0.03679917	-0.098497	0	0	-44.36073	-33.00924
36.22716	-0.03679917	-0.098497	0	0	0	0
36.24372	-0.02765085	-0.09177076	0.5524483	0.4061834	16.87301	12.40575
36.26029	-0.02765085	-0.09177076	0	0	-16.67676	-12.26146
36.27686	-0.02765085	-0.09177076	0	0	0	0
36.29342	-0.02765085	-0.09177076	0	0	0	0
36.31037	-0.02765085	-0.09177076	0	0	0	0
36.32656	-0.02765085	-0.09177076	0	0	0	0
36.34312	-0.02765085	-0.09180959	0	-0.00234501	0	-0.07159681
36.3597	-0.02765085	-0.09180959	0	0	0	0.07078068
36.37631	-0.02765085	-0.09180959	0	0	0	0
36.39283	-0.02772973	-0.09175134	-0.004775909	0.003526451	-0.1441538	0.1064407
36.4094	-0.02772973	-0.09175134	0	0	0.1443366	-0.1065757
36.42596	-0.02772973	-0.09175134	0	0	0	0
36.44252	-0.02775603	-0.09173193	-0.001587898	0.001172505	-0.0479339	0.03539442
36.4591	-0.02775603	-0.09173193	0	0	0.04792838	-0.03539034
36.4759	-0.02775603	-0.09173193	0	0	0	0
36.49259	-0.02775603	-0.09173193	0	0	0	0
36.50879	-0.02775603	-0.09173193	0	0	0	0
36.52536	-0.02775603	-0.09173193	0	0	0	0
36.54193	-0.02772973	-0.09175134	0.001587167	-0.001171965	0.0479008	-0.03536997
36.55849	-0.02772973	-0.09175134	0	0	-0.0479008	0.03536997
36.57554	-0.02772973	-0.09175134	0	0	0	0
36.592	-0.02775603	-0.09180959	-0.001597096	-0.00353789	-0.0476627	-0.1055825
36.74824	-0.02775603	-0.09180959	0	0	0.009247656	0.02048542
36.76634	-0.02775603	-0.09180959	0	0	0	0
36.78291	-0.02775603	-0.09184843	0	-0.00234393	0	-0.06761826
36.79948	-0.02775603	-0.09184843	0	0	0	0.0707318
36.81604	-0.02775603	-0.09184843	0	0	0	0
36.83523	-0.02772973	-0.09186784	0.001370663	-0.001012099	0.0383388	-0.02830939
36.8518	-0.02772973	-0.09186784	0	0	-0.0383388	0.02830939
36.86836	-0.02772973	-0.09186784	0	0	0	0
36.88493	-0.02775603	-0.09192609	-0.001587167	-0.003515895	-0.0479008	-0.1061099
36.90189	-0.02775603	-0.09192609	0	0	0.04733944	0.1048664
36.91806	-0.02775603	-0.09192609	0	0	0	0
36.93463	-0.02775603	-0.09196492	0	-0.00234393	0	-0.07158885
36.95119	-0.02775603	-0.09196492	0	0	0	0.07074809
36.96776	-0.02775603	-0.09196492	0	0	0	0
36.98433	-0.02775603	-0.09196492	0	0	0	0
37.0009	-0.02775603	-0.09196492	0	0	0	0
37.01746	-0.02775603	-0.09196492	0	0	0	0
37.03491	-0.02775603	-0.09196492	0	0	0	0
37.05059	-0.02775603	-0.09196492	0	0	0	0
37.06716	-0.02775603	-0.09196492	0	0	0	0
37.08372	-0.02780862	-0.09200376	-0.003175178	-0.00234447	-0.09583808	-0.07076439
37.10073	-0.02780862	-0.09200376	0	0	0.09457491	0.06983168
37.11686	-0.02780862	-0.09200376	0	0	0	0
37.13343	-0.02772973	-0.09213968	0.004761613	-0.008204204	0.1456509	-0.2509548
37.14999	-0.02772973	-0.09213968	0	0	-0.1437058	0.2476034
37.16656	-0.02772973	-0.09213968	0	0	0	0
37.18312	-0.02767714	-0.09241154	0.003175178	-0.01641354	0.09583808	-0.4954186
37.20005	-0.02767714	-0.09241154	0	0	-0.09480111	0.4900581
37.21626	-0.02767714	-0.09241154	0	0	0	0
37.23282	-0.02709863	-0.09307191	0.03492718	-0.03986903	1.065885	-1.216697
37.24939	-0.02709863	-0.09307191	0	0	-1.054104	1.20325
37.26596	-0.02709863	-0.09307191	0	0	0	0
37.28252	-0.01131531	-0.1047527	0.9529026	-0.705214	28.76197	-21.28585
37.2991	-0.01131531	-0.1047527	0	0	-28.75866	21.2834
37.31576	-0.01131531	-0.1047527	0	0	0	0
37.33223	0.0006842104	-0.1136653	0.7286544	-0.5412088	21.99337	-16.33559
37.3488	0.0006842104	-0.1136653	0	0	-22.05431	16.38086
37.36536	0.0006842104	-0.1136653	0	0	0	0
37.38423	0.0007631577	-0.1137241	0.004184302	-0.003113311	0.1180848	-0.08786047
37.4008	0.0007631577	-0.1137241	0	0	-0.1180721	0.08785101
37.41737	0.0007631577	-0.1137241	0	0	0	0
37.43393	0.000736842	-0.1137045	-0.001588787	0.001182131	-0.04795521	0.03568089
37.4505	0.000736842	-0.1137045	0	0	0.04794969	-0.03567678
37.46707	0.000736842	-0.1137045	0	0	0	0
37.48363	0.0006315788	-0.1136262	-0.006355159	0.004728524	-0.1918212	0.1427236
37.50062	0.0006315788	-0.1136262	0	0	0.1894436	-0.1409545
37.51677	0.0006315788	-0.1136262	0	0	0	0
37.53334	0.0005	-0.1134891	-0.007943946	0.008274017	-0.2427956	0.2528837
37.5499	0.0005	-0.1134891	0	0	0.2397764	-0.2497391
37.56647	0.0005	-0.1134891	0	0	0	0
37.58303	0.0004473684	-0.11345	-0.003177579	0.002363812	-0.09591058	0.0713482
37.59977	0.0004473684	-0.11345	0	0	0.09542713	-0.07098856
37.61652	0.0004473684	-0.11345	0	0	0	0
37.63274	0.0003421053	-0.1133716	-0.00648815	0.004827016	-0.1967642	0.1463875
37.64931	0.0003421053	-0.1133716	0	0	0.1978859	-0.147222
37.66605	0.0003421053	-0.1133716	0	0	0	0
37.68244	0.0003157895	-0.1133521	-0.001605429	0.001194511	-0.04845753	0.03605456
37.69908	0.0003157895	-0.1133521	0	0	0.04860303	-0.03616282
37.71557	0.0003157895	-0.1133521	0	0	0	0
37.73214	0.0003157895	-0.1133521	0	0	0	0
37.75225	0.0003157895	-0.1133521	0	0	0	0
37.76882	0.0003157895	-0.1133521	0	0	0	0
37.78539	0.0002631579	-0.1133129	-0.003176848	0.002363268	-0.09586643	0.07131536
37.80264	0.0002631579	-0.1133129	0	0	0.09392034	-0.06986766
37.81865	0.0002631579	-0.1133129	0	0	0	0
37.83508	0.0002105263	-0.1132738	-0.003202658	0.002382468	-0.09872502	0.07344187
37.85168	0.0002105263	-0.1132738	0	0	0.0969578	-0.07212723
37.86822	0.0002105263	-0.1132738	0	0	0	0
37.88478	0.0001842105	-0.1132933	-0.00158879	-0.001182131	-0.0479995	-0.03571378
37.90135	0.0001842105	-0.1132933	0	0	0.04795529	0.03568089
37.9182	0.0001842105	-0.1132933	0	0	0	0
37.93448	0.0001578947	-0.1132346	-0.001616716	0.003608269	-0.04879819	0.1089103
37.95105	0.0001578947	-0.1132346	0	0	0.04922326	-0.109859
37.96761	0.0001578947	-0.1132346	0	0	0	0
37.98425	0.0001052632	-0.1131954	-0.003163736	0.002353513	-0.09528429	0.07088228
38.00075	0.0001052632	-0.1131954	0	0	0.09548175	-0.07102917
38.01731	0.0001052632	-0.1131954	0	0	0	0
38.03388	-2.631579E-05	-0.1130976	-0.007942121	0.005907495	-0.2396937	0.1782885
38.05045	-2.631579E-05	-0.1130976	0	0	0.2396937	-0.1782885
38.06702	-2.631579E-05	-0.1130976	0	0	0	0
38.08358	-5.263158E-05	-0.113078	-0.001588424	0.001181859	-0.04793874	0.03566857
38.10059	-5.263158E-05	-0.113078	0	0	0.04730696	-0.0351985
38.11671	-5.263158E-05	-0.113078	0	0	0	0
38.30228	-0.0002105263	-0.1129997	-0.0008508821	0.0004219424	-0.004218827	0.002092067
38.32082	-0.0002105263	-0.1129997	0	0	0.004168759	-0.002067239
38.33751	-0.0002105263	-0.1129997	0	0	0	0
38.35408	-0.0002105263	-0.1129997	0	0	0	0
38.37065	-0.0002105263	-0.1129997	0	0	0	0
38.38729	-0.0002105263	-0.1129997	0	0	0	0
38.40378	-0.0002105263	-0.1129997	0	0	0	0
38.42035	-0.0002105263	-0.1129997	0	0	0	0
38.43691	-0.0002105263	-0.1129997	0	0	0	0
38.45384	-0.0002105263	-0.1129997	0	0	0	0
38.47005	-0.0002105263	-0.1129997	0	0	0	0
38.48661	-0.0001842105	-0.1130193	0.001588424	-0.001181859	0.04846884	-0.03606299
38.50318	-0.0001842105	-0.1130193	0	0	-0.04793873	0.03566857
38.51975	-0.0001842105	-0.1130193	0	0	0	0
38.53631	-0.0001842105	-0.1130193	0	0	0	0
38.55288	-0.0001842105	-0.1130193	0	0	0	0
38.56945	-0.0001842105	-0.1130193	0	0	0	0
38.58601	-0.0001842105	-0.1130193	0	0	0	0
38.60258	-0.0001842105	-0.1130193	0	0	0	0
38.61914	-0.0001842105	-0.1130193	0	0	0	0
38.63571	-0.0001578947	-0.1130389	0.00158879	-0.001181681	0.04795529	-0.03566731
38.65228	-0.0001578947	-0.1130389	0	0	-0.04794977	0.03566321
38.66885	-0.0001578947	-0.1130389	0	0	0	0
38.68541	-0.0001842105	-0.1130584	-0.00158879	-0.001181681	-0.04795529	-0.03566731
38.70198	-0.0001842105	-0.1130584	0	0	0.04795529	0.03566731
38.71854	-0.0001842105	-0.1130584	0	0	0	0
38.73559	-0.0001842105	-0.1130584	0	0	0	0
38.75168	-0.0001842105	-0.1130584	0	0	0	0
38.76825	-0.0001842105	-0.1130584	0	0	0	0
38.78491	-0.0001842105	-0.1130584	0	0	0	0
38.80138	-0.0001842105	-0.1130584	0	0	0	0
38.81817	-0.0001842105	-0.1130584	0	0	0	0
38.83508	-0.0001842105	-0.1130584	0	0	0	0
38.85111	-0.0001842105	-0.1130584	0	0	0	0
38.86764	-0.0001842105	-0.1130584	0	0	0	0
38.88467	-0.0001842105	-0.1130584	0	0	0	0
38.90077	-0.0001842105	-0.1130584	0	0	0	0
38.91734	-0.0001842105	-0.1130584	0	0	0	0
38.93391	-0.0001842105	-0.1130584	0	0	0	0
38.95047	-0.0001842105	-0.1130584	0	0	0	0
38.96704	-0.0001842105	-0.1130584	0	0	0	0
38.98401	-0.0002105263	-0.1130389	-0.001550927	0.001153521	-0.04624275	0.03439359
39.00018	-0.0002105263	-0.1130389	0	0	0.04681247	-0.03481733
39.01674	-0.0002105263	-0.1130389	0	0	0	0
39.03333	-0.0002105263	-0.1130389	0	0	0	0
39.04987	-0.0002105263	-0.1130389	0	0	0	0
39.06644	-0.0002105263	-0.1130389	0	0	0	0
39.08301	-0.0002105263	-0.1130389	0	0	0	0
39.09963	-0.0002105263	-0.1130389	0	0	0	0
39.11614	-0.0002105263	-0.1130389	0	0	0	0
39.13271	-0.0002105263	-0.1130389	0	0	0	0
39.14928	-0.0002105263	-0.1130389	0	0	0	0
39.16584	-0.0002105263	-0.1130389	0	0	0	0
39.18241	-0.0002105263	-0.1130389	0	0	0	0
39.19897	-0.0002105263	-0.1130389	0	0	0	0
39.21554	-0.0002105263	-0.1130389	0	0	0	0
39.23213	-0.0002105263	-0.1130389	0	0	0	0
39.24868	-0.0002105263	-0.1130389	0	0	0	0
39.26524	-0.0002105263	-0.1130389	0	0	0	0
39.28181	-0.0002105263	-0.1130389	0	0	0	0
39.29838	-0.0002105263	-0.1130389	0	0	0	0
39.31495	-0.0002105263	-0.1130389	0	0	0	0
39.33809	-0.0002105263	-0.1130389	0	0	0	0
39.35505	-0.0002105263	-0.1130389	0	0	0	0
39.37787	-0.0002105263	-0.1130389	0	0	0	0
39.39444	-0.0002105263	-0.1130389	0	0	0	0
39.41101	-0.0002105263	-0.1130389	0	0	0	0
39.42757	-0.0002105263	-0.1130389	0	0	0	0
39.44414	-0.0002105263	-0.1130389	0	0	0	0
39.46071	-0.0002105263	-0.1130389	0	0	0	0
39.64693	-0.0002105263	-0.1130389	0	0	0	0
39.66936	-0.0002105263	-0.1130389	0	0	0	0
39.68696	-0.0002105263	-0.1130389	0	0	0	0
39.70353	-0.0002105263	-0.1130389	0	0	0	0
39.7201	-0.0002105263	-0.1130389	0	0	0	0
39.73666	-0.0002105263	-0.1130389	0	0	0	0
39.75323	-0.0002105263	-0.1130389	0	0	0	0
39.76979	-0.0002105263	-0.1130389	0	0	0	0
39.78657	-0.0002105263	-0.1130389	0	0	0	0
39.80311	-0.0002105263	-0.1130389	0	0	0	0
39.81949	-0.0002105263	-0.1130389	0	0	0	0
39.83606	-0.0002105263	-0.1130389	0	0	0	0
39.85263	-0.0002105263	-0.1130389	0	0	0	0
39.8692	-0.0002105263	-0.1130389	0	0	0	0
39.88598	-0.0002105263	-0.1130389	0	0	0	0
39.90237	-0.0002105263	-0.1130389	0	0	0	0
39.9189	-0.0002105263	-0.1130389	0	0	0	0
39.93546	-0.0002105263	-0.1130389	0	0	0	0
39.95203	-0.0002105263	-0.1130389	0	0	0	0
39.9691	-0.0002105263	-0.1130389	0	0	0	0
39.98516	-0.0002105263	-0.1130389	0	0	0	0
40.00173	-0.0002105263	-0.1130389	0	0	0	0
40.0183	-0.0002105263	-0.1130389	0	0	0	0
40.03486	-0.0002105263	-0.1130389	0	0	0	0
40.05143	-0.0002105263	-0.1130389	0	0	0	0
40.068	-0.0002105263	-0.1130389	0	0	0	0
40.08479	-0.0002105263	-0.1130389	0	0	0	0
40.10166	-0.0002105263	-0.1130389	0	0	0	0
40.11872	-0.0002105263	-0.1130389	0	0	0	0
40.13449	-0.0002105263	-0.1130389	0	0	0	0
40.15106	-0.0002105263	-0.1130389	0	0	0	0
40.16763	-0.0002105263	-0.1130389	0	0	0	0
40.18419	-0.0002105263	-0.1130389	0	0	0	0
40.20076	-0.0002105263	-0.1130389	0	0	0	0
40.21732	-0.0002105263	-0.1130389	0	0	0	0
40.23389	-0.0002105263	-0.1130389	0	0	0	0
40.25045	-0.0002105263	-0.1130389	0	0	0	0
40.26712	-0.0002105263	-0.1130389	0	0	0	0
40.28358	-0.0002105263	-0.1130389	0	0	0	0
40.30029	-0.0002105263	-0.1130389	0	0	0	0
40.3169	-0.0002105263	-0.1130389	0	0	0	0
40.33329	-0.0002105263	-0.1130389	0	0	0	0
40.34985	-0.0002105263	-0.1130389	0	0	0	0
40.36642	-0.0002105263	-0.1130389	0	0	0	0
40.38298	-0.0002105263	-0.1130389	0	0	0	0
40.39955	-0.0002105263	-0.1130389	0	0	0	0
40.41612	-0.0002105263	-0.1130389	0	0	0	0
40.43269	-0.0002105263	-0.1130389	0	0	0	0
40.44936	-0.0002105263	-0.1130389	0	0	0	0
40.46582	-0.0002105263	-0.1130389	0	0	0	0
40.48239	-0.0002105263	-0.1130389	0	0	0	0
40.49895	-0.0002105263	-0.1130389	0	0	0	0
40.51552	-0.0002105263	-0.1130389	0	0	0	0
40.53209	-0.0002105263	-0.1130389	0	0	0	0
40.54866	-0.0002105263	-0.1130389	0	0	0	0
40.56522	-0.0002105263	-0.1130389	0	0	0	0
40.58179	-0.0002105263	-0.1130389	0	0	0	0
40.59836	-0.0002105263	-0.1130389	0	0	0	0
40.61536	-0.0002105263	-0.1130389	0	0	0	0
40.63153	-0.0002105263	-0.1130389	0	0	0	0
40.64806	-0.0002105263	-0.1130389	0	0	0	0
40.66494	-0.0002105263	-0.1130389	0	0	0	0
40.68143	-0.0002105263	-0.1130389	0	0	0	0
40.69777	-0.0002105263	-0.1130389	0	0	0	0
40.71432	-0.0002105263	-0.1130389	0	0	0	0
40.73089	-0.0001842105	-0.1130584	0.00158879	-0.001181681	0.04797739	-0.03568375
40.74746	-0.0001842105	-0.1130584	0	0	-0.04794977	0.03566321
40.76424	-0.0001842105	-0.1130584	0	0	0	0
40.78061	-0.0002105263	-0.1130389	-0.001607673	0.001195726	-0.04850292	0.03607462
40.89042	-0.0002105263	-0.1130389	0	0	0.01274047	-0.009475871
40.90705	-0.0002105263	-0.1130389	0	0	0	0
40.92361	-0.0002105263	-0.1130389	0	0	0	0
40.94019	-0.0002105263	-0.1130389	0	0	0	0
40.95675	-0.0002105263	-0.1130389	0	0	0	0
40.97363	-0.0001842105	-0.1130584	0.001559341	-0.001159778	0.0466262	-0.03467879
40.9903	-0.0001842105	-0.1130584	0	0	-0.04648305	0.03457231
41.00687	-0.0001842105	-0.1130584	0	0	0	0
41.02343	-0.0001842105	-0.1130584	0	0	0	0
41.04021	-0.0001842105	-0.1130584	0	0	0	0
41.05657	-0.0001842105	-0.1130584	0	0	0	0
41.07314	-0.0001842105	-0.1130584	0	0	0	0
41.08978	-0.0001842105	-0.1130584	0	0	0	0
41.10627	-0.0001842105	-0.1130584	0	0	0	0
41.12283	-0.0002105263	-0.1130389	-0.001588424	0.001181409	-0.04805491	0.03574141
41.1394	-0.0002105263	-0.1130389	0	0	0.04793873	-0.035655
41.15621	-0.0002105263	-0.1130389	0	0	0	0
41.17253	-0.0002105263	-0.1130389	0	0	0	0
41.1891	-0.0002105263	-0.1130389	0	0	0	0
41.20567	-0.0002105263	-0.1130389	0	0	0	0
41.22223	-0.0001842105	-0.1130584	0.00158879	-0.001181681	0.04795529	-0.03566731
41.2388	-0.0001842105	-0.1130584	0	0	-0.04794977	0.03566321
41.25537	-0.0001842105	-0.1130584	0	0	0	0
41.27193	-0.0001842105	-0.1130584	0	0	0	0
41.28882	-0.0001842105	-0.1130584	0	0	0	0
41.30507	-0.0001842105	-0.1130584	0	0	0	0
41.32163	-0.0001842105	-0.1130584	0	0	0	0
41.33835	-0.0001842105	-0.1130584	0	0	0	0
41.35484	-0.0001842105	-0.1130584	0	0	0	0
41.37133	-0.0001842105	-0.1130584	0	0	0	0
41.3879	-0.0001842105	-0.1130584	0	0	0	0
41.40447	-0.0001842105	-0.1130584	0	0	0	0
41.42103	-0.0001842105	-0.1130584	0	0	0	0
41.50531	-0.0001842105	-0.1130584	0	0	0	0
41.52257	-0.0001842105	-0.1130584	0	0	0	0
41.54143	-0.0002105263	-0.1130389	-0.001395333	0.001037795	-0.03862901	0.02873078
41.5583	-0.0002105263	-0.1130389	0	0	0.03904966	-0.02904364
41.57457	-0.0002105263	-0.1130389	0	0	0	0
41.59113	-0.0002105263	-0.1130389	0	0	0	0
41.60775	-0.0002105263	-0.1130389	0	0	0	0
41.62458	-0.0002105263	-0.1130389	0	0	0	0
41.64143	-0.0002105263	-0.1130389	0	0	0	0
41.658	-0.0002105263	-0.1130389	0	0	0	0
41.67456	-0.0002105263	-0.1130389	0	0	0	0
41.69253	-0.0002105263	-0.1130389	0	0	0	0
41.7091	-0.0002105263	-0.1130389	0	0	0	0
41.72577	-0.0002105263	-0.1130389	0	0	0	0
41.74223	-0.0002105263	-0.1130389	0	0	0	0
41.7588	-0.0002105263	-0.1130389	0	0	0	0
41.77536	-0.0002105263	-0.1130389	0	0	0	0
41.79738	-0.0006052631	-0.1134108	-0.01793067	-0.01689516	-0.4647436	-0.4379043
41.81395	-0.0006052631	-0.1134108	0	0	0.4647436	0.4379043
41.83101	-0.005184164	-0.1167803	-0.2682904	-0.1974311	-7.976718	-5.869953
41.84708	-0.005184164	-0.1167803	0	0	8.097021	5.958482
41.86415	-0.005184164	-0.1167803	0	0	0	0
41.88033	-0.0245214	-0.1303631	-1.194988	-0.8393778	-35.93656	-25.24238
41.89678	-0.0245214	-0.1303631	0	0	36.62563	25.72639
41.91379	-0.0245214	-0.1303631	0	0	0	0
41.92991	-0.06540657	-0.1391106	-2.536758	-0.5427441	-76.56831	-16.38194
41.94648	-0.06540657	-0.1391106	0	0	77.61389	16.60564
41.96304	-0.06540657	-0.1391106	0	0	0	0
41.98016	-0.1073489	-0.1486246	-2.449851	-0.5557119	-72.72264	-16.49604
41.99673	-0.1073489	-0.1486246	0	0	72.72264	16.49604
42.0133	-0.1073489	-0.1486246	0	0	0	0
42.02987	-0.138812	-0.172058	-1.899118	-1.414446	-57.31549	-42.68805
42.04649	-0.138812	-0.172058	0	0	57.21669	42.61446
42.063	-0.138812	-0.172058	0	0	0	0
42.07967	-0.1733478	-0.196122	-2.071704	-1.44353	-62.4379	-43.50572
42.09613	-0.1733478	-0.196122	0	0	62.53136	43.57084
42.1127	-0.1733478	-0.196122	0	0	0	0
42.12926	-0.1791123	-0.1996539	-0.3479486	-0.2131879	-10.50111	-6.434023
42.14583	-0.1791123	-0.1996539	0	0	10.50111	6.434023
42.16255	-0.1791123	-0.1996539	0	0	0	0
42.17897	-0.1883207	-0.1923123	-0.5608518	0.447154	-16.92459	13.49358
42.19554	-0.1883207	-0.1923123	0	0	17.00288	-13.556
42.33695	-0.1883207	-0.1923123	0	0	0	0
42.35466	-0.1922283	-0.1893179	-0.2206745	0.1691006	-1.386822	1.062707
42.37123	-0.1922283	-0.1893179	0	0	6.437625	-4.933084
42.3878	-0.1922283	-0.1893179	0	0	0	0
42.40436	-0.1922537	-0.1893381	-0.001530293	-0.001220816	-0.04618965	-0.03684853
42.42093	-0.1922537	-0.1893381	0	0	0.04618965	0.03684853
42.4379	-0.1922537	-0.1893381	0	0	0	0
42.45406	-0.1923044	-0.189419	-0.003138095	-0.005004537	-0.09470788	-0.1510372
42.47063	-0.1923044	-0.189419	0	0	0.09588911	0.152921
42.4872	-0.1923044	-0.189419	0	0	0	0
42.50377	-0.1923297	-0.1894392	-0.00153084	-0.001220534	-0.04620084	-0.0368358
42.52045	-0.1923297	-0.1894392	0	0	0.04604182	0.03670901
42.5369	-0.1923297	-0.1894392	0	0	0	0
42.55349	-0.1923297	-0.1894392	0	0	0	0
42.57006	-0.1923297	-0.1894392	0	0	0	0
42.5866	-0.1923297	-0.1894392	0	0	0	0
42.60608	-0.1923551	-0.189419	-0.001301318	0.001038147	-0.03612929	0.02882272
42.62265	-0.1923551	-0.189419	0	0	0.03609871	-0.02879832
42.63922	-0.1923551	-0.189419	0	0	0	0
42.65597	-0.1923297	-0.1894392	0.001512871	-0.001206917	0.04540242	-0.03622051
42.67235	-0.1923297	-0.1894392	0	0	-0.04565855	0.03642484
42.68894	-0.1923297	-0.1894392	0	0	0	0
42.70602	-0.1923297	-0.1894392	0	0	0	0
42.72205	-0.1923297	-0.1894392	0	0	0	0
42.73862	-0.1923297	-0.1894392	0	0	0	0
42.75851	-0.1923297	-0.1894392	0	0	0	0
42.77508	-0.1923297	-0.1894392	0	0	0	0
42.79165	-0.1923297	-0.1894392	0	0	0	0
42.80859	-0.1923297	-0.1894392	0	0	0	0
42.82478	-0.1923297	-0.1894392	0	0	0	0
42.84135	-0.1923297	-0.1894392	0	0	0	0
42.85791	-0.1923297	-0.1894392	0	0	0	0
42.87448	-0.1923297	-0.1894392	0	0	0	0
42.89105	-0.1923297	-0.1894392	0	0	0	0
42.90799	-0.1923297	-0.1894392	0	0	0	0
42.92424	-0.1923297	-0.1894392	0	0	0	0
42.94138	-0.1923297	-0.1894392	0	0	0	0
42.95731	-0.1923297	-0.1894392	0	0	0	0
42.97388	-0.1923297	-0.1894392	0	0	0	0
42.99045	-0.1923297	-0.1894392	0	0	0	0
43.00701	-0.1923297	-0.1894392	0	0	0	0
43.02358	-0.1923297	-0.1894392	0	0	0	0
43.04015	-0.1923297	-0.1894392	0	0	0	0
43.05671	-0.1923297	-0.1894392	0	0	0	0
43.07328	-0.1923297	-0.1894392	0	0	0	0
43.08985	-0.1923297	-0.1894392	0	0	0	0
43.10642	-0.1923297	-0.1894392	0	0	0	0
43.12299	-0.1923297	-0.1894392	0	0	0	0
43.14005	-0.1923297	-0.1894392	0	0	0	0
43.15612	-0.1922537	-0.1894595	0.004735551	-0.001258794	0.1429357	-0.03799485
43.17269	-0.1922537	-0.1894595	0	0	-0.1451077	0.03857221
43.18925	-0.1922537	-0.1894595	0	0	0	0
43.20598	-0.1921269	-0.1895201	0.007579105	-0.003626532	0.2276371	-0.1089223
43.22239	-0.1921269	-0.1895201	0	0	-0.2287378	0.109449
43.23896	-0.1921269	-0.1895201	0	0	0	0
43.25552	-0.1917212	-0.189237	0.02449548	0.01709052	0.7393602	0.5158523
43.27215	-0.1917212	-0.189237	0	0	-0.7379158	-0.5148445
43.28866	-0.1917212	-0.189237	0	0	0	0
43.30522	-0.1862122	-0.1848138	0.3326016	0.2670491	10.05762	8.075364
43.32179	-0.1862122	-0.1848138	0	0	-10.03909	-8.060487
43.33849	-0.1862122	-0.1848138	0	0	0	0
43.35492	-0.1404378	-0.1491608	2.78604	2.170004	84.08284	65.49084
43.37158	-0.1404378	-0.1491608	0	0	-84.20888	-65.58901
43.38806	-0.1404378	-0.1491608	0	0	0	0
43.40462	-0.08644194	-0.1086384	3.259947	2.446505	98.65799	74.04025
43.4212	-0.08644194	-0.1086384	0	0	-98.36274	-73.81867
43.43776	-0.08644194	-0.1086384	0	0	0	0
43.45432	-0.06755494	-0.09460691	1.140021	0.8469403	34.4178	25.56954
43.47089	-0.06755494	-0.09460691	0	0	-34.40195	-25.55777
43.48746	-0.06755494	-0.09460691	0	0	0	0
43.50402	-0.06047879	-0.08936434	0.427216	0.3165151	12.89489	9.553545
43.5206	-0.06047879	-0.08936434	0	0	-12.8934	-9.552445
43.53716	-0.06047879	-0.08936434	0	0	0	0
43.55373	-0.06026903	-0.08951953	0.01266405	-0.009369332	0.3822458	-0.2827996
43.68533	-0.06026903	-0.08951953	0	0	-0.08547166	0.0632351
43.7019	-0.06026903	-0.08951953	0	0	0	0
43.71846	-0.05948238	-0.09010156	0.04748212	-0.03513151	1.433013	-1.060271
43.73503	-0.05948238	-0.09010156	0	0	-1.433013	1.060271
43.7516	-0.05948238	-0.09010156	0	0	0	0
43.76817	-0.05945616	-0.09012096	0.001582782	-0.001171065	0.04776846	-0.03534283
43.78473	-0.05945616	-0.09012096	0	0	-0.04776846	0.03534283
43.80204	-0.05945616	-0.09012096	0	0	0	0
43.81787	-0.0568597	-0.09204259	0.1640903	-0.1214422	4.952254	-3.665132
43.83443	-0.0568597	-0.09204259	0	0	-5.065985	3.749304
43.851	-0.0568597	-0.09204259	0	0	0	0
43.86757	-0.05586287	-0.09278055	0.06018252	-0.04455392	1.816521	-1.344795
43.89274	-0.05586287	-0.09278055	0	0	-1.44196	1.067502
43.90931	-0.05586287	-0.09278055	0	0	0	0
43.92587	-0.03474917	-0.108443	1.274426	-0.9453853	38.46225	-28.53179
43.94244	-0.03474917	-0.108443	0	0	-38.46225	28.53179
43.95901	-0.03474917	-0.108443	0	0	0	0
43.97557	-0.02068126	-0.118918	0.8493359	-0.6324211	25.63596	-19.08871
43.99214	-0.02068126	-0.118918	0	0	-25.63596	19.08871
44.00909	-0.02068126	-0.118918	0	0	0	0
44.02527	-0.02070757	-0.1188984	-0.001625916	0.001212586	-0.04907588	0.03660014
44.04201	-0.02070757	-0.1188984	0	0	0.04938864	-0.03683339
44.05841	-0.02070757	-0.1188984	0	0	0	0
44.07497	-0.02073387	-0.1188788	-0.001588461	0.001185103	-0.04819507	0.0359569
44.09197	-0.02073387	-0.1188788	0	0	0.04732956	-0.03531116
44.10813	-0.02073387	-0.1188788	0	0	0	0
44.12468	-0.02078648	-0.1188395	-0.003179851	0.002371491	-0.09723306	0.07251512
44.14124	-0.02078648	-0.1188395	0	0	0.09603444	-0.07162121
44.15781	-0.02078648	-0.1188395	0	0	0	0
44.17437	-0.02083909	-0.1188003	-0.00317619	0.00236921	-0.09587967	0.07151937
44.19094	-0.02083909	-0.1188003	0	0	0.09586863	-0.07151113
44.2075	-0.02083909	-0.1188003	0	0	0	0
44.22407	-0.02086539	-0.1187807	-0.001588095	0.00118438	-0.04793432	0.03574878
44.24064	-0.02086539	-0.1187807	0	0	0.0479288	-0.03574466
44.25721	-0.02086539	-0.1187807	0	0	0	0
44.27377	-0.02086539	-0.1187807	0	0	0	0
44.29034	-0.02086539	-0.1187807	0	0	0	0
44.30695	-0.02086539	-0.1187807	0	0	0	0
44.32347	-0.02083909	-0.1188003	0.001592864	-0.001187937	0.04807827	-0.03585613
44.34038	-0.02083909	-0.1188003	0	0	-0.04765575	0.03554103
44.35661	-0.02083909	-0.1188003	0	0	0	0
44.37416	-0.02083909	-0.1188003	0	0	0	0
44.39075	-0.02083909	-0.1188003	0	0	0	0
44.4073	-0.02083909	-0.1188003	0	0	0	0
44.52273	-0.02083909	-0.1188395	0	-0.0003399686	0	-0.002575818
44.5393	-0.02083909	-0.1188395	0	0	0	0.002575595
44.55609	-0.02083909	-0.1188395	0	0	0	0
44.57249	-0.02083909	-0.1188395	0	0	0	0
44.589	-0.02083909	-0.1188395	0	0	0	0
44.60557	-0.02083909	-0.1188395	0	0	0	0
44.62214	-0.02083909	-0.1188395	0	0	0	0
44.63871	-0.02083909	-0.1188395	0	0	0	0
44.65527	-0.02083909	-0.1188395	0	0	0	0
44.67184	-0.02083909	-0.1188395	0	0	0	0
44.6884	-0.02083909	-0.1188395	0	0	0	0
44.70497	-0.02081278	-0.1188592	0.001588095	-0.00118438	0.04793432	-0.03574878
44.72153	-0.02081278	-0.1188592	0	0	-0.04793432	0.03574878
44.7381	-0.02081278	-0.1188592	0	0	0	0
44.75467	-0.02081278	-0.1188592	0	0	0	0
44.77123	-0.02081278	-0.1188592	0	0	0	0
44.7878	-0.02081278	-0.1188592	0	0	0	0
44.80437	-0.02083909	-0.1188395	-0.001587729	0.001184107	-0.04791776	0.03573643
44.82093	-0.02083909	-0.1188395	0	0	0.04792328	-0.03574054
44.83749	-0.02083909	-0.1188395	0	0	0	0
44.85406	-0.02083909	-0.1188395	0	0	0	0
44.87063	-0.02083909	-0.1188395	0	0	0	0
44.8872	-0.02083909	-0.1188395	0	0	0	0
44.90377	-0.02083909	-0.1188395	0	0	0	0
44.92033	-0.02083909	-0.1188395	0	0	0	0
45.12056	-0.02083909	-0.1188395	0	0	0	0
45.19779	-0.02086539	-0.1188592	-0.000340603	-0.0002540172	-0.001227583	-0.0009155152
45.29642	-0.02086539	-0.1188592	0	0	0.001936812	0.001444449
45.31299	-0.02083909	-0.1188788	0.001587729	-0.001184107	0.01378282	-0.01027905
45.32956	-0.02083909	-0.1188788	0	0	-0.04791225	0.03573231
45.35796	-0.02083909	-0.1188788	0	0	0	0
45.38184	-0.02086539	-0.1188592	-0.001101871	0.0008217606	-0.0210777	0.01571947
45.40118	-0.02086539	-0.1188592	0	0	0.02549641	-0.01901488
45.41951	-0.02086539	-0.1188592	0	0	0	0
45.43608	-0.02086539	-0.1188592	0	0	0	0
45.45264	-0.02086539	-0.1188592	0	0	0	0
45.4693	-0.02086539	-0.1188592	0	0	0	0
45.48587	-0.02086539	-0.1188592	0	0	0	0
45.50244	-0.02086539	-0.1188592	0	0	0	0
45.52669	-0.02086539	-0.1188592	0	0	0	0
45.54326	-0.02086539	-0.1188592	0	0	0	0
45.55983	-0.02086539	-0.1188592	0	0	0	0
45.57944	-0.02086539	-0.1188592	0	0	0	0
45.59624	-0.02086539	-0.1188592	0	0	0	0
45.61258	-0.02086539	-0.1188592	0	0	0	0
45.62914	-0.02086539	-0.1188592	0	0	0	0
45.64596	-0.02086539	-0.1188592	0	0	0	0
45.66228	-0.02086539	-0.1188592	0	0	0	0
45.67884	-0.02086539	-0.1188592	0	0	0	0
45.69541	-0.02086539	-0.1188592	0	0	0	0
45.71198	-0.02086539	-0.1188592	0	0	0	0
45.72855	-0.02086539	-0.1188592	0	0	0	0
45.74527	-0.02086539	-0.1188592	0	0	0	0
45.76168	-0.02086539	-0.1188592	0	0	0	0
45.77824	-0.02086539	-0.1188592	0	0	0	0
45.79481	-0.02086539	-0.1188592	0	0	0	0
45.81138	-0.02086539	-0.1188592	0	0	0	0
45.82795	-0.02086539	-0.1188592	0	0	0	0
45.84451	-0.02086539	-0.1188592	0	0	0	0
45.86108	-0.02086539	-0.1188592	0	0	0	0
45.87764	-0.02086539	-0.1188592	0	0	0	0
45.89421	-0.02086539	-0.1188592	0	0	0	0
45.91078	-0.02086539	-0.1188592	0	0	0	0
45.92735	-0.02086539	-0.1188592	0	0	0	0
45.94391	-0.02086539	-0.1188592	0	0	0	0
45.96048	-0.02086539	-0.1188592	0	0	0	0
45.97705	-0.02086539	-0.1188592	0	0	0	0
45.99361	-0.02086539	-0.1188592	0	0	0	0
46.01018	-0.02086539	-0.1188592	0	0	0	0
46.02675	-0.02086539	-0.1188592	0	0	0	0
46.04332	-0.02086539	-0.1188592	0	0	0	0
46.06026	-0.02086539	-0.1188592	0	0	0	0
46.07645	-0.02086539	-0.1188592	0	0	0	0
46.09302	-0.02086539	-0.1188592	0	0	0	0
46.10974	-0.02086539	-0.1188592	0	0	0	0
46.12616	-0.02086539	-0.1188592	0	0	0	0
46.14272	-0.02086539	-0.1188592	0	0	0	0
46.15929	-0.02086539	-0.1188592	0	0	0	0
46.17585	-0.02086539	-0.1188592	0	0	0	0
46.19242	-0.02086539	-0.1188592	0	0	0	0
46.20899	-0.02083909	-0.1188788	0.001587729	-0.001184107	0.04791776	-0.03573643
46.22556	-0.02083909	-0.1188788	0	0	-0.04791776	0.03573643
46.2422	-0.02083909	-0.1188788	0	0	0	0
46.25869	-0.02081278	-0.1188984	0.001595813	-0.001190588	0.04816728	-0.03593616
46.27526	-0.02081278	-0.1188984	0	0	-0.04827845	0.0360191
46.29182	-0.02081278	-0.1188984	0	0	0	0
46.30839	-0.02083909	-0.1188788	-0.001588095	0.00118483	-0.04793432	0.03576235
46.32495	-0.02083909	-0.1188788	0	0	0.04793432	-0.03576235
46.34152	-0.02083909	-0.1188788	0	0	0	0
46.35809	-0.02083909	-0.1188788	0	0	0	0
46.37466	-0.02083909	-0.1188788	0	0	0	0
46.39144	-0.02083909	-0.1188788	0	0	0	0
46.40779	-0.02083909	-0.1188788	0	0	0	0
46.42436	-0.02083909	-0.1188788	0	0	0	0
46.44092	-0.02083909	-0.1188788	0	0	0	0
46.45749	-0.02083909	-0.1188788	0	0	0	0
46.47406	-0.02083909	-0.1188788	0	0	0	0
46.75823	-0.02083909	-0.1188788	0	0	0	0
46.81171	-0.02049713	-0.1191339	0.006393451	-0.004768935	0.01893491	-0.01412373
46.88331	-0.02049713	-0.1191339	0	0	-0.05111329	0.03812588
46.90691	-0.02047082	-0.1191535	0.001114876	-0.0008317755	0.01171187	-0.008737876
46.92347	-0.02047082	-0.1191535	0	0	-0.02776007	0.02071096
46.94004	-0.02047082	-0.1191535	0	0	0	0
46.95661	-0.02047082	-0.1191535	0	0	0	0
46.97327	-0.02047082	-0.1191535	0	0	0	0
46.98975	-0.02047082	-0.1191535	0	0	0	0
47.00631	-0.02047082	-0.1191535	0	0	0	0
47.02287	-0.02047082	-0.1191535	0	0	0	0
47.04536	-0.02047082	-0.1191535	0	0	0	0
47.06193	-0.02047082	-0.1191535	0	0	0	0
47.0785	-0.02047082	-0.1191535	0	0	0	0
47.09506	-0.02047082	-0.1191535	0	0	0	0
47.11163	-0.02047082	-0.1191535	0	0	0	0
47.12863	-0.02047082	-0.1191535	0	0	0	0
47.14476	-0.02047082	-0.1191535	0	0	0	0
47.16133	-0.02047082	-0.1191535	0	0	0	0
47.17816	-0.02047082	-0.1191535	0	0	0	0
47.19446	-0.02047082	-0.1191535	0	0	0	0
47.21103	-0.02047082	-0.1191535	0	0	0	0
47.22759	-0.02039191	-0.1192123	0.004764397	-0.00355404	0.1438064	-0.1072735
47.24416	-0.02039191	-0.1192123	0	0	-0.1438064	0.1072735
47.26073	-0.02039191	-0.1192123	0	0	0	0
47.27729	-0.02023408	-0.1193301	0.0095266	-0.007106443	0.2875134	-0.2144729
47.29386	-0.02023408	-0.1193301	0	0	-0.2875134	0.2144729
47.31071	-0.02023408	-0.1193301	0	0	0	0
47.327	-0.02015517	-0.119389	0.004845868	-0.003615272	0.1462486	-0.1091091
47.34356	-0.02015517	-0.119389	0	0	-0.1475053	0.1100466
47.36013	-0.02015517	-0.119389	0	0	0	0
47.3767	-0.02012886	-0.1194086	0.001587842	-0.001184107	0.04792115	-0.03573643
47.39326	-0.02012886	-0.1194086	0	0	-0.04792115	0.03573643
47.40983	-0.02012886	-0.1194086	0	0	0	0
47.4264	-0.02015517	-0.119389	-0.001587842	0.001184107	-0.04792115	0.03573643
47.44296	-0.02015517	-0.119389	0	0	0.04792668	-0.03574054
47.45953	-0.02015517	-0.119389	0	0	0	0
47.47609	-0.02015517	-0.119389	0	0	0	0
47.49287	-0.02015517	-0.119389	0	0	0	0
47.50923	-0.02015517	-0.119389	0	0	0	0
47.52597	-0.02015517	-0.119389	0	0	0	0
47.54236	-0.02015517	-0.119389	0	0	0	0
47.55893	-0.02015517	-0.119389	0	0	0	0
47.57549	-0.02015517	-0.119389	0	0	0	0
47.59208	-0.02015517	-0.119389	0	0	0	0
47.60862	-0.02015517	-0.119389	0	0	0	0
47.62519	-0.02015517	-0.119389	0	0	0	0
47.64176	-0.02015517	-0.119389	0	0	0	0
47.65833	-0.02015517	-0.119389	0	0	0	0
47.67489	-0.02015517	-0.119389	0	0	0	0
47.69146	-0.02015517	-0.119389	0	0	0	0
47.70803	-0.02015517	-0.119389	0	0	0	0
47.72459	-0.02015517	-0.119389	0	0	0	0
47.74129	-0.02015517	-0.119389	0	0	0	0
47.75772	-0.02015517	-0.119389	0	0	0	0
