Time	Pos X	Pos Y	Vel X	Vel Y	Acc X	Acc Y
0.01650713	-0.01597233	-0.1365798	-0.9676018	-8.273993	-58.61722	-501.2376
0.1015214	-0.01599864	-0.1365601	-0.0003094757	0.000232419	9.527962	81.50225
0.1183219	-0.01599864	-0.1365601	0	0	0.003039596	-0.002282764
0.1398215	-0.01599864	-0.1365601	0	0	0	0
0.1695865	-0.01599864	-0.1365601	0	0	0	0
0.192193	-0.01599864	-0.1365601	0	0	0	0
0.2088778	-0.01599864	-0.1365601	0	0	0	0
0.2280104	-0.01599864	-0.1365601	0	0	0	0
0.2445795	-0.01599864	-0.1365601	0	0	0	0
2.636647	-0.01599864	-0.1365601	0	0	0	0
2.671065	-0.01639327	-0.1362242	-0.01146617	0.009759726	-0.004725425	0.004022166
2.687634	-0.01639327	-0.1362242	0	0	0.2248842	-0.191416
2.704198	-0.01639327	-0.1362242	0	0	0	0
2.720769	-0.01639327	-0.1362242	0	0	0	0
2.737334	-0.01639327	-0.1362242	0	0	0	0
2.753898	-0.01639327	-0.1362242	0	0	0	0
2.770469	-0.01639327	-0.1362242	0	0	0	0
2.787158	-0.01639327	-0.1362242	0	0	0	0
2.803599	-0.01644589	-0.1361847	-0.003200524	0.002403707	-0.0966052	0.07255393
2.820168	-0.01644589	-0.1361847	0	0	0.09695617	-0.07281752
2.836883	-0.01644589	-0.1361847	0	0	0	0
2.853577	-0.01660374	-0.1360661	-0.009455692	0.007100751	-0.2830313	0.2125423
2.869868	-0.01660374	-0.1360661	0	0	0.2866667	-0.2152723
2.886434	-0.01660374	-0.1360661	0	0	0	0
2.902999	-0.0167879	-0.1359278	-0.01111739	0.008348865	-0.3355573	0.2519946
2.919569	-0.0167879	-0.1359278	0	0	0.3355235	-0.2519692
2.936135	-0.0167879	-0.1359278	0	0	0	0
2.952702	-0.01686682	-0.135829	-0.004764112	0.005962532	-0.1437874	0.1799573
2.969268	-0.01686682	-0.135829	0	0	0.1437874	-0.1799573
2.985835	-0.01686682	-0.135829	0	0	0	0
3.002402	-0.01689313	-0.1358093	-0.001588	0.001192686	-0.04792731	0.03599638
3.018968	-0.01689313	-0.1358093	0	0	0.047928	-0.0359969
3.035533	-0.01689313	-0.1358093	0	0	0	0
3.052099	-0.01691944	-0.1357895	-0.001588068	0.001191838	-0.04793283	0.03597337
3.06873	-0.01691944	-0.1357895	0	0	0.04783747	-0.03590181
3.085258	-0.01691944	-0.1357895	0	0	0	0
3.101801	-0.01691944	-0.1357895	0	0	0	0
3.118367	-0.01691944	-0.1357895	0	0	0	0
3.134935	-0.01691944	-0.1357895	0	0	0	0
3.151499	-0.01691944	-0.1357895	0	0	0	0
3.168066	-0.01691944	-0.1357895	0	0	0	0
3.18477	-0.01691944	-0.1357895	0	0	0	0
3.201201	-0.01689313	-0.1358093	0.001601088	-0.001201609	0.04831953	-0.03626359
3.217769	-0.01689313	-0.1358093	0	0	-0.04851992	0.03641399
3.234377	-0.01689313	-0.1358093	0	0	0	0
3.250899	-0.01689313	-0.1358093	0	0	0	0
3.267468	-0.01689313	-0.1358093	0	0	0	0
3.284035	-0.01689313	-0.1358093	0	0	0	0
3.300699	-0.01691944	-0.1357895	-0.001578707	0.001184813	-0.04750704	0.03565383
3.317168	-0.01691944	-0.1357895	0	0	0.04764685	-0.03575876
3.333735	-0.01691944	-0.1357895	0	0	0	0
3.350302	-0.01691944	-0.1357895	0	0	0	0
3.366926	-0.01691944	-0.1357895	0	0	0	0
3.383434	-0.01691944	-0.1357895	0	0	0	0
3.399999	-0.01691944	-0.1357895	0	0	0	0
3.416571	-0.01691944	-0.1357895	0	0	0	0
3.433139	-0.01691944	-0.1357895	0	0	0	0
3.449824	-0.01691944	-0.1357895	0	0	0	0
3.466267	-0.01691944	-0.1357895	0	0	0	0
3.483297	-0.01691944	-0.1357895	0	0	0	0
3.499398	-0.01691944	-0.1357895	0	0	0	0
3.516489	-0.01691944	-0.1357895	0	0	0	0
3.532534	-0.01691944	-0.1357895	0	0	0	0
3.549098	-0.01691944	-0.1357895	0	0	0	0
3.565671	-0.01691944	-0.1357895	0	0	0	0
3.582233	-0.01691944	-0.1357895	0	0	0	0
3.598799	-0.01691944	-0.1357895	0	0	0	0
3.615366	-0.01691944	-0.1357895	0	0	0	0
3.631948	-0.01691944	-0.1357895	0	0	0	0
3.648501	-0.01691944	-0.1357895	0	0	0	0
3.665071	-0.01691944	-0.1357895	0	0	0	0
3.681638	-0.01691944	-0.1357895	0	0	0	0
3.698198	-0.01691944	-0.1357895	0	0	0	0
3.714768	-0.01691944	-0.1357895	0	0	0	0
3.731335	-0.01691944	-0.1357895	0	0	0	0
3.747898	-0.01691944	-0.1357895	0	0	0	0
3.764465	-0.01691944	-0.1357895	0	0	0	0
3.781623	-0.01691944	-0.1357895	0	0	0	0
3.797599	-0.01691944	-0.1357895	0	0	0	0
3.814165	-0.01691944	-0.1357895	0	0	0	0
3.830748	-0.01691944	-0.1357895	0	0	0	0
3.847301	-0.01691944	-0.1357895	0	0	0	0
3.863868	-0.01691944	-0.1357895	0	0	0	0
3.88103	-0.01691944	-0.1357895	0	0	0	0
3.897219	-0.01689313	-0.1358093	0.001625092	-0.001219624	0.04872736	-0.03656967
3.913567	-0.01689313	-0.1358093	0	0	-0.049946	0.03748425
3.930212	-0.01689313	-0.1358093	0	0	0	0
3.946698	-0.01689313	-0.1358093	0	0	0	0
3.963265	-0.01689313	-0.1358093	0	0	0	0
3.979835	-0.01689313	-0.1358093	0	0	0	0
3.996398	-0.01689313	-0.1358093	0	0	0	0
4.012969	-0.01689313	-0.1358093	0	0	0	0
4.029876	-0.01689313	-0.1358093	0	0	0	0
4.046098	-0.01689313	-0.1358093	0	0	0	0
4.062665	-0.01689313	-0.1358093	0	0	0	0
4.079234	-0.01689313	-0.1358093	0	0	0	0
4.096779	-0.01689313	-0.1358093	0	0	0	0
4.113366	-0.01689313	-0.1358093	0	0	0	0
4.129914	-0.01689313	-0.1358093	0	0	0	0
4.147198	-0.01689313	-0.1358093	0	0	0	0
4.16377	-0.01689313	-0.1358093	0	0	0	0
4.180337	-0.01689313	-0.1358093	0	0	0	0
4.197949	-0.01689313	-0.1358093	0	0	0	0
4.21452	-0.01689313	-0.1358093	0	0	0	0
4.231086	-0.01689313	-0.1358093	0	0	0	0
4.247651	-0.01686682	-0.1358686	0.001588228	-0.003578574	0.04793765	-0.1080125
4.26422	-0.01686682	-0.1358686	0	0	-0.0479342	0.1080047
4.280785	-0.01686682	-0.1358686	0	0	0	0
4.29735	-0.01718252	-0.1364218	-0.01905775	-0.0333954	-0.5752386	-1.008006
4.313917	-0.01718252	-0.1364218	0	0	0.5752056	1.007948
4.330721	-0.01718252	-0.1364218	0	0	0	0
4.34705	-0.01949753	-0.1386754	-0.1417745	-0.138016	-4.278886	-4.16545
4.36362	-0.01949753	-0.1386754	0	0	4.309461	4.195215
4.380187	-0.01949753	-0.1386754	0	0	0	0
4.396751	-0.01949753	-0.1386754	0	0	0	0
4.41332	-0.01949753	-0.1386754	0	0	0	0
4.429887	-0.01949753	-0.1386754	0	0	0	0
4.446451	-0.01949753	-0.1386754	0	0	0	0
4.46302	-0.01949753	-0.1386754	0	0	0	0
4.479588	-0.01949753	-0.1386754	0	0	0	0
4.496154	-0.01923447	-0.1388732	0.01587922	-0.0119389	0.4792495	-0.3603271
4.51272	-0.01923447	-0.1388732	0	0	-0.4792633	0.3603375
4.529326	-0.01923447	-0.1388732	0	0	0	0
4.548709	-0.01823482	-0.1399811	0.05157357	-0.05715931	1.433045	-1.588252
4.565282	-0.01823482	-0.1399811	0	0	-1.434356	1.589706
4.581849	-0.01823482	-0.1399811	0	0	0	0
4.598483	-0.01918186	-0.1524408	-0.05693541	-0.7490737	-1.714884	-22.56196
4.615115	-0.01918186	-0.1524408	0	0	1.711541	22.51797
4.63182	-0.01918186	-0.1524408	0	0	0	0
4.64811	-0.027309	-0.202744	-0.498898	-3.087944	-15.12009	-93.58626
4.664685	-0.027309	-0.202744	0	0	15.18042	93.95967
4.681684	-0.027309	-0.202744	0	0	0	0
4.697811	-0.0351697	-0.2389223	-0.4874505	-2.243452	-14.7151	-67.72507
4.714424	-0.0351697	-0.2389223	0	0	14.8887	68.52404
4.730947	-0.0351697	-0.2389223	0	0	0	0
4.747897	-0.0396634	-0.2457037	-0.2651052	-0.4000717	-7.919969	-11.95207
4.76408	-0.0396634	-0.2457037	0	0	8.001238	12.07471
4.780646	-0.0396634	-0.2457037	0	0	0	0
4.797211	-0.03963712	-0.2457245	0.001586113	-0.001253958	0.04787312	-0.03784779
4.81378	-0.03963712	-0.2457245	0	0	-0.04786898	0.03784453
4.830347	-0.03963712	-0.2457245	0	0	0	0
4.846912	-0.03961085	-0.2457453	0.001586113	-0.001253958	0.04787243	-0.03784725
4.86348	-0.03961085	-0.2457453	0	0	-0.04787174	0.03784671
4.880046	-0.03961085	-0.2457453	0	0	0	0
4.89661	-0.03963712	-0.2457245	-0.001586296	0.001254102	-0.04788069	0.03785378
4.91318	-0.03963712	-0.2457245	0	0	0.04787587	-0.03784997
4.929747	-0.03963712	-0.2457245	0	0	0	0
4.94631	-0.03968967	-0.245683	-0.003172591	0.002508205	-0.09576139	0.07570757
4.962879	-0.03968967	-0.245683	0	0	0.0957545	-0.07570212
4.979653	-0.03968967	-0.245683	0	0	0	0
4.99601	-0.0396634	-0.2457037	0.001606319	-0.001269933	0.04848369	-0.0383305
5.01258	-0.0396634	-0.2457037	0	0	-0.0487849	0.03856864
5.029547	-0.0396634	-0.2457037	0	0	0	0
5.045713	-0.03961085	-0.2457453	0.003250446	-0.002569756	0.09810148	-0.07755762
5.06228	-0.03961085	-0.2457453	0	0	-0.09930047	0.07850552
5.078846	-0.03961085	-0.2457453	0	0	0	0
5.09541	-0.03940065	-0.2459946	0.01268963	-0.01505106	0.3830235	-0.4543007
5.111983	-0.03940065	-0.2459946	0	0	-0.3829409	0.4542027
5.128788	-0.03940065	-0.2459946	0	0	0	0
5.149483	-0.03422347	-0.2609484	0.2501573	-0.722556	6.670879	-19.26821
5.166135	-0.03422347	-0.2609484	0	0	-6.698048	19.34669
5.182683	-0.0343549	-0.3062727	-0.007941943	-2.738933	-0.2392132	-82.49733
5.199189	-0.0343549	-0.3062727	0	0	0.2402727	82.86269
5.215757	-0.0343549	-0.3062727	0	0	0	0
5.2452	-0.0374036	-0.373512	-0.1035466	-2.283729	-2.250499	-49.63496
5.262077	-0.0374036	-0.373512	0	0	2.235463	49.30334
5.278339	-0.02715122	-0.3870959	0.6304479	-0.8353089	19.02422	-25.20605
5.294906	-0.02715122	-0.3870959	0	0	-19.20382	25.44402
5.311471	-0.02715122	-0.3870959	0	0	0	0
5.328306	-0.01686682	-0.3959228	0.6109036	-0.5243255	18.29049	-15.69834
5.344604	-0.01686682	-0.3959228	0	0	-18.43843	15.82532
5.361171	-0.01686682	-0.3959228	0	0	0	0
5.377735	-0.01686682	-0.3959228	0	0	0	0
5.394304	-0.01686682	-0.3959228	0	0	0	0
5.410871	-0.01686682	-0.3959228	0	0	0	0
5.427437	-0.01420957	-0.3986645	0.1604013	-0.1655003	4.84106	-4.994954
5.444004	-0.01420957	-0.3986645	0	0	-4.84113	4.995026
5.460571	-0.01420957	-0.3986645	0	0	0	0
5.477135	-0.003052622	-0.4344151	0.6735704	-2.158347	20.33074	-65.14654
5.493704	-0.003052622	-0.4344151	0	0	-20.32898	65.14091
5.510271	-0.003052622	-0.4344151	0	0	0	0
5.526838	0.0104733	-0.4767889	0.8164264	-2.557688	24.64015	-77.19229
5.543404	0.0104733	-0.4767889	0	0	-24.64086	77.19451
5.559971	0.0104733	-0.4767889	0	0	0	0
5.576766	0.01294664	-0.4965502	0.1472652	-1.176608	4.414173	-35.26801
5.593104	0.01294664	-0.4965502	0	0	-4.444602	35.51113
5.610119	0.01294664	-0.4965502	0	0	0	0
5.629498	0.01636696	-0.5003427	0.1764946	-0.1956998	4.849537	-5.377238
5.646069	0.01636696	-0.5003427	0	0	-4.909553	5.443784
5.662635	0.01636696	-0.5003427	0	0	0	0
5.679201	0.04155501	-0.5239738	1.520485	-1.426495	45.89097	-43.05419
5.696102	0.04155501	-0.5239738	0	0	-45.43327	42.62478
5.712336	0.04155501	-0.5239738	0	0	0	0
5.728899	0.05560053	-0.5373552	0.8479844	-0.8078938	25.85528	-24.63291
5.745681	0.05560053	-0.5373552	0	0	-25.4301	24.22783
5.762252	0.05560053	-0.5373552	0	0	0	0
5.778602	0.05659739	-0.538458	0.0609689	-0.0674451	1.851985	-2.048706
5.795168	0.05659739	-0.538458	0	0	-1.852226	2.048973
5.811735	0.05659739	-0.538458	0	0	0	0
5.828301	0.05657115	-0.5384329	-0.001583502	0.001514694	-0.04779226	0.04571552
5.844869	0.05657115	-0.5384329	0	0	0.04779088	-0.0457142
5.861848	0.05657115	-0.5384329	0	0	0	0
5.877999	0.05654492	-0.5384078	-0.001624087	0.001553735	-0.04902138	0.04689788
5.894677	0.05654492	-0.5384078	0	0	0.0494721	-0.04732909
5.911132	0.05654492	-0.5384078	0	0	0	0
5.927702	0.05651869	-0.5383828	-0.001583229	0.001510835	-0.04793993	0.04574785
5.944269	0.05651869	-0.5383828	0	0	0.0477792	-0.04559446
5.961188	0.05651869	-0.5383828	0	0	0	0
5.977402	0.05646623	-0.5383326	-0.003235698	0.003091639	-0.09765778	0.09330988
5.993969	0.05646623	-0.5383326	0	0	0.09870613	-0.09431156
6.010891	0.05646623	-0.5383326	0	0	0	0
6.027099	0.05644	-0.5383075	-0.001618353	0.00154825	-0.04884831	0.04673231
6.043669	0.05644	-0.5383075	0	0	0.04937418	-0.04723541
6.060735	0.05644	-0.5383075	0	0	0	0
6.0768	0.05641376	-0.5382825	-0.001632996	0.001562036	-0.04928887	0.0471471
6.09337	0.05641376	-0.5382825	0	0	0.05003858	-0.04786422
6.109936	0.05641376	-0.5382825	0	0	0	0
6.1265	0.05630883	-0.5381822	-0.006335061	0.006052798	-0.19122	0.1827001
6.143069	0.05630883	-0.5381822	0	0	0.1912008	-0.1826817
6.160185	0.05630883	-0.5381822	0	0	0	0
6.176203	0.05602027	-0.5379065	-0.01801543	0.01721443	-0.5437223	0.5195476
6.193233	0.05602027	-0.5379065	0	0	0.5451424	-0.5209044
6.209336	0.05602027	-0.5379065	0	0	0	0
6.225899	0.05486593	-0.5368543	-0.06969398	0.06352382	-2.133488	1.944606
6.242469	0.05486593	-0.5368543	0	0	2.103459	-1.917235
6.259036	0.05486593	-0.5368543	0	0	0	0
6.275599	0.04670286	-0.5290905	-0.4928235	0.4687221	-14.87537	14.14789
6.29217	0.04670286	-0.5290905	0	0	14.87366	-14.14627
6.308736	0.04670286	-0.5290905	0	0	0	0
6.325302	0.03109524	-0.5143912	-0.9421321	0.8872978	-28.43524	26.78024
6.341869	0.03109524	-0.5143912	0	0	28.43483	-26.77986
6.358451	0.03109524	-0.5143912	0	0	0	0
6.375003	0.01847158	-0.5026332	-0.7626677	0.7103739	-23.01769	21.43944
6.391662	0.01847158	-0.5026332	0	0	22.96415	-21.38957
6.408136	0.01847158	-0.5026332	0	0	0	0
6.424703	0.007684059	-0.4926717	-0.651155	0.6012938	-19.70777	18.19868
6.44127	0.007684059	-0.4926717	0	0	19.65218	-18.14734
6.457836	0.007684059	-0.4926717	0	0	0	0
6.474403	-0.0001578947	-0.4854774	-0.4733413	0.4342459	-14.28609	13.10613
6.49097	-0.0001578947	-0.4854774	0	0	14.28567	-13.10575
6.507535	-0.0001578947	-0.4854774	0	0	0	0
6.524236	-0.01520935	-0.4717737	-0.9012448	0.8205481	-27.09163	24.66586
6.540667	-0.01520935	-0.4717737	0	0	27.20197	-24.76633
6.557343	-0.01520935	-0.4717737	0	0	0	0
6.582063	-0.02062865	-0.466919	-0.2192298	0.196389	-5.29596	4.744192
6.598732	-0.02062865	-0.466919	0	0	5.296875	-4.745011
6.615197	-0.02073387	-0.4668715	-0.00639039	0.002885172	-0.1928651	0.08707593
6.631831	-0.02073387	-0.4668715	0	0	0.1930652	-0.08716625
6.648337	-0.02073387	-0.4668715	0	0	0	0
6.664899	-0.02125995	-0.4668715	-0.03176453	0	-0.9605907	0
6.681603	-0.02125995	-0.4668715	0	0	0.9548491	0
6.698203	-0.02125995	-0.4668715	0	0	0	0
6.714896	-0.0215493	-0.4670378	-0.01733298	-0.009962008	-0.5206304	-0.2992287
6.731377	-0.0215493	-0.4670378	0	0	0.5224863	0.3002953
6.747736	-0.0215493	-0.4670378	0	0	0	0
6.764384	-0.0215756	-0.4670615	-0.001579932	-0.001426761	-0.04786566	-0.04322519
6.780928	-0.0215756	-0.4670615	0	0	0.04760023	0.0429855
6.797438	-0.0215756	-0.4670615	0	0	0	0
6.813999	-0.0215493	-0.4670853	0.001588211	-0.001434237	0.04802492	-0.04336901
6.830572	-0.0215493	-0.4670853	0	0	-0.0479323	0.04328537
6.847136	-0.0215493	-0.4670853	0	0	0	0
6.863701	-0.0216019	-0.4670853	-0.003175711	0	-0.09585971	0
6.880333	-0.0216019	-0.4670853	0	0	0.09566145	0
6.896833	-0.0216019	-0.4670853	0	0	0	0
6.9134	-0.0216019	-0.4671328	0	-0.002869283	0	-0.08677246
6.929982	-0.0216019	-0.4671328	0	0	0	0.08655652
6.946662	-0.0216019	-0.4671328	0	0	0	0
6.9631	-0.02175972	-0.4672754	-0.009601203	-0.008671893	-0.2899109	-0.2618501
6.979666	-0.02175972	-0.4672754	0	0	0.2909162	0.2627581
6.996502	-0.02175972	-0.4672754	0	0	0	0
7.013303	-0.03159475	-0.4764779	-0.5853874	-0.5477433	-17.40306	-16.28393
7.029366	-0.03159475	-0.4764779	0	0	17.81237	16.66692
7.045933	-0.03159475	-0.4764779	0	0	0	0
7.062497	-0.03159475	-0.4764779	0	0	0	0
7.079684	-0.03159475	-0.4764779	0	0	0	0
7.095634	-0.03159475	-0.4764779	0	0	0	0
7.113811	-0.03154217	-0.4765736	0.002892668	-0.005263123	0.08476247	-0.1542228
7.130383	-0.03154217	-0.4765736	0	0	-0.08324686	0.1514652
7.147079	-0.03154217	-0.4765736	0	0	0	0
7.165272	-0.03154217	-0.4765736	0	0	0	0
7.18185	-0.03154217	-0.4765736	0	0	0	0
7.198411	-0.03154217	-0.4765736	0	0	0	0
7.214978	-0.03154217	-0.4765736	0	0	0	0
7.232378	-0.03154217	-0.4765736	0	0	0	0
7.249914	-0.03154217	-0.4765736	0	0	0	0
7.266482	-0.03154217	-0.4765736	0	0	0	0
7.283049	-0.03154217	-0.4765736	0	0	0	0
7.299618	-0.03154217	-0.4765736	0	0	0	0
7.316182	-0.03154217	-0.4765736	0	0	0	0
7.33275	-0.03154217	-0.4765736	0	0	0	0
7.349518	-0.03154217	-0.4765736	0	0	0	0
7.366113	-0.03159475	-0.4766214	-0.003168461	-0.002884256	-0.0949697	-0.08645109
7.382454	-0.03159475	-0.4766214	0	0	0.09620167	0.08757255
7.399485	-0.03159475	-0.4766214	0	0	0	0
7.415583	-0.03159475	-0.4766693	0	-0.00297143	0	-0.08969342
7.432154	-0.03159475	-0.4766693	0	0	0	0.09095678
7.448721	-0.03159475	-0.4766693	0	0	0	0
7.465286	-0.03156846	-0.4769325	0.001587104	-0.01588858	0.04790233	-0.4795528
7.481856	-0.03156846	-0.4769325	0	0	-0.04789889	0.4795183
7.498636	-0.03156846	-0.4769325	0	0	0	0
7.514986	-0.03135814	-0.4773632	0.01286369	-0.02634668	0.3882829	-0.7952589
7.531554	-0.03135814	-0.4773632	0	0	-0.3907745	0.8003621
7.548364	-0.03135814	-0.4773632	0	0	0	0
7.564687	-0.03093749	-0.477842	0.02576982	-0.02933293	0.7777794	-0.8853207
7.581469	-0.03093749	-0.477842	0	0	-0.7784179	0.8860475
7.597822	-0.03093749	-0.477842	0	0	0	0
7.614381	-0.03051684	-0.4782731	0.02540401	-0.02603237	0.7718821	-0.7909742
7.630954	-0.03051684	-0.4782731	0	0	-0.7667608	0.7857262
7.647708	-0.03051684	-0.4782731	0	0	0	0
7.665436	-0.03030651	-0.4784168	0.0118648	-0.008106491	0.3440867	-0.2350934
7.682008	-0.03030651	-0.4784168	0	0	-0.345914	0.2363419
7.69875	-0.03030651	-0.4784168	0	0	0	0
7.715136	-0.03030651	-0.4784168	0	0	0	0
7.73171	-0.03030651	-0.4784168	0	0	0	0
7.748277	-0.03030651	-0.4784168	0	0	0	0
7.764836	-0.03030651	-0.4784168	0	0	0	0
7.78141	-0.03030651	-0.4784168	0	0	0	0
7.797976	-0.03030651	-0.4784168	0	0	0	0
7.814539	-0.0303328	-0.4783929	-0.001587262	0.001444785	-0.04791055	0.04360998
7.831107	-0.0303328	-0.4783929	0	0	0.0479078	-0.04360747
7.847676	-0.0303328	-0.4783929	0	0	0	0
7.864239	-0.03043796	-0.4781533	-0.006349343	0.01446086	-0.1916373	0.4364611
7.88081	-0.03043796	-0.4781533	0	0	0.1916236	-0.4364297
7.897377	-0.03043796	-0.4781533	0	0	0	0
7.913943	-0.03046426	-0.4780336	-0.001586988	0.007228075	-0.04789746	0.2181531
7.930503	-0.03046426	-0.4780336	0	0	0.04790642	-0.218194
7.947186	-0.03046426	-0.4780336	0	0	0	0
7.963638	-0.03046426	-0.4780336	0	0	0	0
7.980207	-0.03046426	-0.4780336	0	0	0	0
7.996774	-0.03046426	-0.4780336	0	0	0	0
8.013597	-0.03041167	-0.4779857	0.003125753	0.002846949	0.09361466	0.08526461
8.029905	-0.03041167	-0.4779857	0	0	-0.09434491	-0.08592974
8.0469	-0.03041167	-0.4779857	0	0	0	0
8.063039	-0.03035909	-0.4778899	0.003258094	0.00593497	0.09833229	0.1791229
8.080086	-0.03035909	-0.4778899	0	0	-0.09817687	-0.1788398
8.096828	-0.03035909	-0.4778899	0	0	0	0
8.112737	-0.03054313	-0.4773872	-0.01156876	0.0316022	-0.3543163	0.9678799
8.129306	-0.03054313	-0.4773872	0	0	0.3562098	-0.9730526
8.146167	-0.03054313	-0.4773872	0	0	0	0
8.216392	-0.03077975	-0.4770761	-0.003369456	0.004430578	-0.03869126	0.05087605
8.233004	-0.03077975	-0.4770761	0	0	0.03880216	-0.05102188
8.249524	-0.03151588	-0.476167	-0.04455849	0.05502619	-1.344855	1.660789
8.266095	-0.03151588	-0.476167	0	0	1.346522	-1.662848
8.282661	-0.03151588	-0.476167	0	0	0	0
8.299228	-0.03141072	-0.4760713	0.006347909	0.005774711	0.1915913	0.1742911
8.315794	-0.03141072	-0.4760713	0	0	-0.1915913	-0.1742911
8.33236	-0.03141072	-0.4760713	0	0	0	0
8.34902	-0.03130556	-0.4760235	0.006312074	0.002871157	0.1899739	0.08641294
8.365495	-0.03130556	-0.4760235	0	0	-0.1904988	-0.0866517
8.382066	-0.03130556	-0.4760235	0	0	0	0
8.398626	-0.03125298	-0.4760235	0.003174939	0	0.09582812	0
8.415198	-0.03125298	-0.4760235	0	0	-0.09582536	0
8.431763	-0.03125298	-0.4760235	0	0	0	0
8.448331	-0.03109524	-0.4762148	0.00952088	-0.01154809	0.2873573	-0.3485422
8.464897	-0.03109524	-0.4762148	0	0	-0.2873407	0.3485221
8.481467	-0.03109524	-0.4762148	0	0	0	0
8.498031	-0.0296755	-0.4775547	0.0857154	-0.0808959	2.58697	-2.441513
8.51479	-0.0296755	-0.4775547	0	0	-2.572311	2.427678
8.531161	-0.0296755	-0.4775547	0	0	0	0
8.547798	-0.01113112	-0.4947793	1.114657	-1.035324	33.76871	-31.36529
8.564312	-0.01113112	-0.4947793	0	0	-33.62396	31.23084
8.58086	-0.01113112	-0.4947793	0	0	0	0
8.597425	0.01873465	-0.5230321	1.802909	-1.705543	54.44638	-51.506
8.613993	0.01873465	-0.5230321	0	0	-54.41504	51.47635
8.63056	0.01873465	-0.5230321	0	0	0	0
8.650026	0.0244425	-0.5289162	0.2932154	-0.3022701	8.137271	-8.388556
8.666595	0.0244425	-0.5289162	0	0	-8.137056	8.388333
8.683161	0.0244425	-0.5289162	0	0	0	0
8.69973	0.03246228	-0.5367292	0.484019	-0.4715343	14.6073	-14.23053
8.716297	0.03246228	-0.5367292	0	0	-14.60688	14.23012
8.732863	0.03246228	-0.5367292	0	0	0	0
8.749428	0.04554743	-0.5492101	0.7899576	-0.7534796	23.84371	-22.74268
8.765997	0.04554743	-0.5492101	0	0	-23.84165	22.74071
8.782563	0.04554743	-0.5492101	0	0	0	0
8.799128	0.04559994	-0.5492606	0.003170609	-0.003051413	0.0957002	-0.09210245
8.815697	0.04559994	-0.5492606	0	0	-0.09569193	0.09209449
8.832306	0.04559994	-0.5492606	0	0	0	0
8.848867	0.04559994	-0.5492606	0	0	0	0
8.865397	0.04559994	-0.5492606	0	0	0	0
8.881964	0.04559994	-0.5492606	0	0	0	0
8.898529	0.04525855	-0.5489319	-0.02060912	0.01984384	-0.6220383	0.59894
8.915104	0.04525855	-0.5489319	0	0	0.6218772	-0.5987849
8.932244	0.04525855	-0.5489319	0	0	0	0
8.9491	0.04510098	-0.5487802	-0.009348567	0.008999802	-0.2749932	0.2647341
8.965669	0.04510098	-0.5487802	0	0	0.2796931	-0.2692586
8.982238	0.04510098	-0.5487802	0	0	0	0
8.9988	0.04475956	-0.5484516	-0.02061381	0.01984007	-0.6221797	0.5988262
9.015368	0.04475956	-0.5484516	0	0	0.6221976	-0.5988435
9.032305	0.04475956	-0.5484516	0	0	0	0
9.0485	0.04326246	-0.5470119	-0.09244025	0.08889928	-2.790093	2.683217
9.065076	0.04326246	-0.5470119	0	0	2.820785	-2.712733
9.081745	0.04326246	-0.5470119	0	0	0	0
9.098273	0.04131858	-0.5451955	-0.1176108	0.1098934	-3.542771	3.310301
9.114808	0.04131858	-0.5451955	0	0	3.557179	-3.323764
9.131361	0.04131858	-0.5451955	0	0	0	0
9.147942	0.04129231	-0.5451703	-0.001584429	0.00152062	-0.04781953	0.04589373
9.164474	0.04129231	-0.5451703	0	0	0.04784845	-0.04592148
9.181038	0.04129231	-0.5451703	0	0	0	0
9.1976	0.04123976	-0.5451199	-0.003172324	0.003044567	-0.09576574	0.09190903
9.214174	0.04123976	-0.5451199	0	0	0.09573542	-0.09187993
9.230737	0.04123976	-0.5451199	0	0	0	0
9.247301	0.0396634	-0.5436084	-0.09516618	0.09124734	-2.872783	2.754484
9.263875	0.0396634	-0.5436084	0	0	2.87179	-2.753533
9.280552	0.0396634	-0.5436084	0	0	0	0
9.297001	0.02118104	-0.5260329	-1.123617	1.06849	-33.91963	32.25544
9.313566	0.02118104	-0.5260329	0	0	34.03427	-32.36446
9.33014	0.02118104	-0.5260329	0	0	0	0
9.346743	0.01847158	-0.523478	-0.1631957	0.1538823	-4.919027	4.638304
9.363462	0.01847158	-0.523478	0	0	4.897488	-4.617993
9.379959	0.01847158	-0.523478	0	0	0	0
9.396399	0.0171299	-0.5222149	-0.08160876	0.07682798	-2.477719	2.33257
9.412971	0.0171299	-0.5222149	0	0	2.472065	-2.327247
9.429535	0.0171299	-0.5222149	0	0	0	0
9.446101	0.0009999997	-0.5071769	-0.973659	0.9077485	-29.38932	27.39985
9.462667	0.0009999997	-0.5071769	0	0	29.38678	-27.39748
9.479234	0.0009999997	-0.5071769	0	0	0	0
9.495801	-0.002342101	-0.5040727	-0.2017296	0.1873705	-6.088387	5.655015
9.512367	-0.002342101	-0.5040727	0	0	6.088387	-5.655015
9.528934	-0.002342101	-0.5040727	0	0	0	0
9.5455	-0.002342101	-0.5040727	0	0	0	0
9.562066	-0.002342101	-0.5040727	0	0	0	0
9.579003	-0.002342101	-0.5040727	0	0	0	0
9.595197	-0.002315785	-0.5040972	0.001625088	-0.001509128	0.0490509	-0.04555083
9.611767	-0.002315785	-0.5040972	0	0	-0.04960059	0.0460613
9.628333	-0.002315785	-0.5040972	0	0	0	0
9.644897	-0.002315785	-0.5040972	0	0	0	0
9.661651	-0.002315785	-0.5040972	0	0	0	0
9.678391	-0.002315785	-0.5040972	0	0	0	0
9.694598	-0.002342101	-0.5040727	-0.001623654	0.001507796	-0.04927997	0.04576355
9.711164	-0.002342101	-0.5040727	0	0	0.04954095	-0.04600591
9.727731	-0.002342101	-0.5040727	0	0	0	0
9.744319	-0.002342101	-0.5040727	0	0	0	0
9.760864	-0.002342101	-0.5040727	0	0	0	0
9.777842	-0.002342101	-0.5040727	0	0	0	0
9.793998	-0.002342101	-0.5040727	0	0	0	0
9.810567	-0.002342101	-0.5040727	0	0	0	0
9.827131	-0.002342101	-0.5040727	0	0	0	0
9.843698	-0.002368417	-0.5040972	-0.001588509	-0.00147516	-0.04794683	-0.04452554
9.860503	-0.002368417	-0.5040972	0	0	0.04760017	0.04420362
9.8769	-0.002368417	-0.5040972	0	0	0	0
9.8934	-0.002368417	-0.5040972	0	0	0	0
9.909966	-0.002368417	-0.5040972	0	0	0	0
9.926533	-0.002368417	-0.5040972	0	0	0	0
9.9431	-0.002368417	-0.5040972	0	0	0	0
9.959666	-0.002368417	-0.5040972	0	0	0	0
9.980668	-0.002368417	-0.5040972	0	0	0	0
9.997237	-0.002394732	-0.5040727	-0.001588235	0.001474905	-0.04227295	0.03925652
10.01424	-0.002394732	-0.5040727	0	0	0.04730535	-0.04392984
10.03037	-0.002394732	-0.5040727	0	0	0	0
10.04718	-0.002394732	-0.5040727	0	0	0	0
10.06371	-0.002394732	-0.5040727	0	0	0	0
10.08008	-0.002394732	-0.5040727	0	0	0	0
10.09664	-0.002473679	-0.5040483	-0.004765514	0.001471562	-0.1447274	0.04469095
10.11321	-0.002473679	-0.5040483	0	0	0.1438359	-0.04441566
10.12999	-0.002473679	-0.5040483	0	0	0	0
10.14634	-0.002473679	-0.5040483	0	0	0	0
10.16306	-0.002473679	-0.5040483	0	0	0	0
10.1798	-0.002473679	-0.5040483	0	0	0	0
10.19604	-0.002447363	-0.5040727	0.001620793	-0.001501468	0.04915756	-0.04553854
10.2126	-0.002447363	-0.5040727	0	0	-0.04941052	0.04577288
10.22956	-0.002447363	-0.5040727	0	0	0	0
10.24574	-0.002631573	-0.5042925	-0.01138699	-0.01358471	-0.3436699	-0.4099993
10.2623	-0.002631573	-0.5042925	0	0	0.3477638	0.4148833
10.27887	-0.002631573	-0.5042925	0	0	0	0
10.29544	-0.002763151	-0.5044146	-0.00794116	-0.007370928	-0.239644	-0.2224358
10.31201	-0.002763151	-0.5044146	0	0	0.2396578	0.2224486
10.32857	-0.002763151	-0.5044146	0	0	0	0
10.34515	-0.002763151	-0.5044146	0	0	0	0
10.36171	-0.002763151	-0.5044146	0	0	0	0
10.37827	-0.002763151	-0.5044146	0	0	0	0
10.39484	-0.002789466	-0.5043902	-0.001588495	0.00147516	-0.04794364	0.04452297
10.4114	-0.002789466	-0.5043902	0	0	0.04794364	-0.04452297
10.42797	-0.002789466	-0.5043902	0	0	0	0
10.44454	-0.002842098	-0.5043413	-0.003176822	0.00295015	-0.09587666	0.08903569
10.4612	-0.002842098	-0.5043413	0	0	0.09561248	-0.08879036
10.47767	-0.002842098	-0.5043413	0	0	0	0
10.49424	-0.003026307	-0.5041704	-0.01111952	0.01031532	-0.3365468	0.3122067
10.5108	-0.003026307	-0.5041704	0	0	0.3356072	-0.311335
10.56636	-0.003026307	-0.5041704	0	0	0	0
10.58889	-0.01097324	-0.4967687	-0.3526585	0.3284616	-4.516068	4.206208
10.60546	-0.01097324	-0.4967687	0	0	9.01815	-8.399389
10.6222	-0.03679917	-0.4730377	-1.543309	1.418123	-46.33843	42.57968
10.6386	-0.03679917	-0.4730377	0	0	46.58118	-42.80275
10.65516	-0.03679917	-0.4730377	0	0	0	0
10.67221	-0.06514453	-0.4471738	-1.662505	1.516962	-49.45286	45.12355
10.6883	-0.06514453	-0.4471738	0	0	50.17739	-45.78465
10.70486	-0.06514453	-0.4471738	0	0	0	0
10.72148	-0.09108934	-0.4230563	-1.561089	1.451139	-47.04065	43.7275
10.738	-0.09108934	-0.4230563	0	0	47.11512	-43.79673
10.75456	-0.09108934	-0.4230563	0	0	0	0
10.77113	-0.1497391	-0.3712592	-3.540313	3.12666	-106.853	94.36823
10.7877	-0.1497391	-0.3712592	0	0	106.8438	-94.36008
10.80426	-0.1497391	-0.3712592	0	0	0	0
10.82083	-0.1968135	-0.3304869	-2.841578	2.461162	-85.76886	74.28657
10.8374	-0.1968135	-0.3304869	0	0	85.76392	-74.28229
10.85396	-0.1968135	-0.3304869	0	0	0	0
10.87053	-0.2038648	-0.3241256	-0.4257165	0.3840612	-12.84963	11.59233
10.89012	-0.2038648	-0.3241256	0	0	11.7736	-10.62158
10.90669	-0.2038648	-0.3241256	0	0	0	0
10.92326	-0.211751	-0.3167512	-0.476066	0.4451677	-14.3677	13.43519
10.93982	-0.211751	-0.3167512	0	0	14.36853	-13.43596
10.95639	-0.211751	-0.3167512	0	0	0	0
10.97322	-0.2381312	-0.2938299	-1.567939	1.362358	-46.95559	40.79899
10.98952	-0.2381312	-0.2938299	0	0	47.32322	-41.11841
11.00609	-0.2381312	-0.2938299	0	0	0	0
11.02266	-0.2425995	-0.2815983	-0.2697285	0.7383444	-8.140656	22.28392
11.03923	-0.2425995	-0.2815983	0	0	8.140186	-22.28264
11.05579	-0.2425995	-0.2815983	0	0	0	0
11.07236	-0.2382057	-0.2718242	0.2652589	0.5900689	8.006451	17.81036
11.08893	-0.2382057	-0.2718242	0	0	-8.003686	-17.80421
11.10549	-0.2382057	-0.2718242	0	0	0	0
11.12206	-0.2383797	-0.2712979	-0.01050183	0.03177356	-0.3170644	0.959287
11.13888	-0.2383797	-0.2712979	0	0	0.3145018	-0.9515336
11.15519	-0.2383797	-0.2712979	0	0	0	0
11.17176	-0.2316099	-0.2655809	0.4086969	0.3451372	12.43254	10.49906
11.18833	-0.2316099	-0.2655809	0	0	-12.33485	-10.41656
11.2052	-0.2316099	-0.2655809	0	0	0	0
11.22184	-0.216475	-0.2418643	0.9096668	1.425464	27.14441	42.53577
11.23803	-0.216475	-0.2418643	0	0	-27.71222	-43.42554
11.25459	-0.216475	-0.2418643	0	0	0	0
11.27133	-0.2020976	-0.2114693	0.8588249	1.815624	25.78506	54.51167
11.2879	-0.2020976	-0.2114693	0	0	-25.78506	-54.51167
11.30429	-0.2020976	-0.2114693	0	0	0	0
11.32093	-0.200506	-0.1949257	0.09565208	0.9942266	2.895703	30.09851
11.33743	-0.200506	-0.1949257	0	0	-2.886786	-30.00582
11.35426	-0.200506	-0.1949257	0	0	0	0
11.37056	-0.2004807	-0.1949459	0.001550614	-0.001244331	0.04680437	-0.0375594
11.38713	-0.2004807	-0.1949459	0	0	-0.04717784	0.0378591
11.40369	-0.2004807	-0.1949459	0	0	0	0
11.42026	-0.2003796	-0.195027	0.006102124	-0.004894112	0.1841678	-0.1477088
11.43682	-0.2003796	-0.195027	0	0	-0.1841731	0.1477131
11.45339	-0.2003796	-0.195027	0	0	0	0
11.46996	-0.2003038	-0.1949662	0.00457633	0.003670598	0.1381179	0.1107821
11.48662	-0.2003038	-0.1949662	0	0	-0.1377175	-0.1104609
11.50333	-0.2003038	-0.1949662	0	0	0	0
11.51966	-0.1993685	-0.194419	0.05730019	0.03352583	1.734415	1.014791
11.53622	-0.1993685	-0.194419	0	0	-1.74221	-1.019352
11.55279	-0.1993685	-0.194419	0	0	0	0
11.56936	-0.1929128	-0.1894595	0.389685	0.2993738	11.76139	9.035639
11.58617	-0.1929128	-0.1894595	0	0	-11.6737	-8.968265
11.60274	-0.1929128	-0.1894595	0	0	0	0
11.61906	-0.1656778	-0.1681091	1.668888	1.308289	50.74837	39.78309
11.63562	-0.1656778	-0.1681091	0	0	-50.74837	-39.78309
11.65219	-0.1656778	-0.1681091	0	0	0	0
11.66881	-0.1401024	-0.1493396	1.539304	1.129678	46.38952	34.04476
11.68541	-0.1401024	-0.1493396	0	0	-46.33226	-34.00274
11.70189	-0.1401024	-0.1493396	0	0	0	0
11.71846	-0.1315775	-0.1437439	0.5145637	0.3377589	15.57214	10.22153
11.73502	-0.1315775	-0.1437439	0	0	-15.53001	-10.19388
11.75159	-0.1315775	-0.1437439	0	0	0	0
11.76816	-0.1267899	-0.1474531	0.2890306	-0.2239244	8.723964	-6.758831
11.78477	-0.1267899	-0.1474531	0	0	-8.711175	6.748923
11.80129	-0.1267899	-0.1474531	0	0	0	0
11.81786	-0.1207518	-0.1520828	0.3644823	-0.2794663	11.01563	-8.446221
11.83442	-0.1207518	-0.1520828	0	0	-11.00073	8.434795
11.85099	-0.1207518	-0.1520828	0	0	0	0
11.86756	-0.1207258	-0.1520629	0.001565739	0.001200055	0.04725816	0.03622085
11.88412	-0.1207258	-0.1520629	0	0	-0.04725545	-0.03621876
11.90069	-0.1207258	-0.1520629	0	0	0	0
11.91726	-0.1207258	-0.1520629	0	0	0	0
11.93383	-0.1207258	-0.1520629	0	0	0	0
11.95039	-0.1207258	-0.1520629	0	0	0	0
11.967	-0.1202849	-0.152401	0.0265442	-0.02035727	0.8000923	-0.6136065
11.98353	-0.1202849	-0.152401	0	0	-0.8011286	0.6144012
12.00009	-0.1202849	-0.152401	0	0	0	0
12.01984	-0.1038618	-0.164967	0.8315678	-0.6362602	22.89816	-17.52015
12.03668	-0.1038618	-0.164967	0	0	-22.72451	17.38728
12.05298	-0.1038618	-0.164967	0	0	0	0
12.06954	-0.09870452	-0.1682093	0.3113458	-0.1957403	9.476075	-5.957521
12.08622	-0.09870452	-0.1682093	0	0	-9.367049	5.888978
12.10323	-0.09870452	-0.1682093	0	0	0	0
12.11925	-0.08084969	-0.154869	1.114745	0.8328855	33.74895	25.21564
12.13581	-0.08084969	-0.154869	0	0	-34.21623	-25.56477
12.15238	-0.08084969	-0.154869	0	0	0	0
12.16894	-0.05877433	-0.1438034	1.332548	0.6679604	40.21754	20.15967
12.18551	-0.05877433	-0.1438034	0	0	-40.21754	-20.15967
12.20208	-0.05877433	-0.1438034	0	0	0	0
12.21864	-0.02381129	-0.1480288	2.110252	-0.2550339	63.6857	-7.696715
12.23521	-0.02381129	-0.1480288	0	0	-63.6857	7.696715
12.25178	-0.02381129	-0.1480288	0	0	0	0
12.26841	-0.01197311	-0.1463219	0.7117676	0.1026295	21.43984	3.091404
12.28491	-0.01197311	-0.1463219	0	0	-21.48119	-3.097366
12.30148	-0.01197311	-0.1463219	0	0	0	0
12.31885	-0.01197311	-0.1463219	0	0	0	0
12.33542	-0.01197311	-0.1463219	0	0	0	0
12.35198	-0.01197311	-0.1463219	0	0	0	0
12.36903	-0.01197311	-0.1463219	0	0	0	0
12.38612	-0.01197311	-0.1463219	0	0	0	0
12.40216	-0.01197311	-0.1463219	0	0	0	0
12.41873	-0.01197311	-0.1463219	0	0	0	0
12.4353	-0.01197311	-0.1463219	0	0	0	0
12.45186	-0.01197311	-0.1463219	0	0	0	0
12.46846	-0.01197311	-0.1463219	0	0	0	0
12.485	-0.01197311	-0.1463219	0	0	0	0
12.50156	-0.01197311	-0.1463219	0	0	0	0
12.51813	-0.01202574	-0.1462822	-0.003176597	0.002395336	-0.0958754	0.07229553
12.5347	-0.01202574	-0.1462822	0	0	0.09586713	-0.07228929
12.55181	-0.01202574	-0.1462822	0	0	0	0
12.56783	-0.01202574	-0.1462822	0	0	0	0
12.58439	-0.01202574	-0.1462822	0	0	0	0
12.60119	-0.01202574	-0.1462822	0	0	0	0
12.61753	-0.01202574	-0.1462822	0	0	0	0
12.6341	-0.01202574	-0.1462822	0	0	0	0
12.65066	-0.01202574	-0.1462822	0	0	0	0
12.66723	-0.01202574	-0.1462822	0	0	0	0
12.68379	-0.01202574	-0.1462822	0	0	0	0
12.70039	-0.01202574	-0.1462822	0	0	0	0
12.71693	-0.01199942	-0.146302	0.001591533	-0.001199635	0.04803395	-0.0362061
12.73349	-0.01199942	-0.146302	0	0	-0.04808239	0.03624261
12.75006	-0.01199942	-0.146302	0	0	0	0
12.76663	-0.01199942	-0.146302	0	0	0	0
12.78337	-0.01199942	-0.146302	0	0	0	0
12.79976	-0.01199942	-0.146302	0	0	0	0
12.81633	-0.01197311	-0.1463219	0.00158827	-0.001198118	0.04819766	-0.03635808
12.83289	-0.01197311	-0.1463219	0	0	-0.04793271	0.03615822
12.84946	-0.01197311	-0.1463219	0	0	0	0
12.86602	-0.01199942	-0.1463417	-0.001588453	-0.001197356	-0.04794513	-0.03614043
12.88259	-0.01199942	-0.1463417	0	0	0.04794099	0.03613731
12.89916	-0.01199942	-0.1463417	0	0	0	0
12.91573	-0.01199942	-0.1463417	0	0	0	0
12.93229	-0.01199942	-0.1463417	0	0	0	0
12.94886	-0.01199942	-0.1463417	0	0	0	0
12.96542	-0.01199942	-0.1463417	0	0	0	0
12.98199	-0.01199942	-0.1463417	0	0	0	0
12.99893	-0.01199942	-0.1463417	0	0	0	0
13.01513	-0.01202574	-0.1463615	-0.001624614	-0.00122549	-0.04903236	-0.03698643
13.03169	-0.01202574	-0.1463615	0	0	0.04958757	0.03740524
13.04854	-0.01202574	-0.1463615	0	0	0	0
13.06483	-0.01205205	-0.1463814	-0.001615993	-0.001218115	-0.04877216	-0.03676384
13.08139	-0.01205205	-0.1463814	0	0	0.04919554	0.03708297
13.09796	-0.01205205	-0.1463814	0	0	0	0
13.11452	-0.01207836	-0.1464012	-0.001588453	-0.001198255	-0.04794375	-0.03616655
13.13109	-0.01207836	-0.1464012	0	0	0.04794099	0.03616446
13.14766	-0.01207836	-0.1464012	0	0	0	0
13.16422	-0.01210467	-0.1464211	-0.001588509	-0.001197356	-0.04794683	-0.03614043
13.18106	-0.01210467	-0.1464211	0	0	0.04756347	0.03585147
13.19766	-0.01210467	-0.1464211	0	0	0	0
13.21519	-0.0121573	-0.1464608	-0.003002813	-0.002265183	-0.08798875	-0.06637464
13.23175	-0.0121573	-0.1464608	0	0	0.08807983	0.06644333
13.24832	-0.0121573	-0.1464608	0	0	0	0
13.26489	-0.01247304	-0.1466989	-0.0190593	-0.01437381	-0.5752274	-0.433815
13.28145	-0.01247304	-0.1466989	0	0	0.5752439	0.4338275
13.29815	-0.01247304	-0.1466989	0	0	0	0
13.31458	-0.0126046	-0.1467981	-0.008005817	-0.006037447	-0.2416369	-0.1822263
13.33115	-0.0126046	-0.1467981	0	0	0.2425936	0.1829477
13.34772	-0.0126046	-0.1467981	0	0	0	0
13.36428	-0.01268353	-0.1468576	-0.004764811	-0.003594353	-0.1438106	-0.108484
13.38101	-0.01268353	-0.1468576	0	0	0.143139	0.1079774
13.39755	-0.01268353	-0.1468576	0	0	0	0
13.41399	-0.01281509	-0.1469569	-0.008003959	-0.006036953	-0.2426986	-0.1830544
13.43055	-0.01281509	-0.1469569	0	0	0.2425022	0.1829063
13.44712	-0.01281509	-0.1469569	0	0	0	0
13.46369	-0.01292033	-0.1470363	-0.006353756	-0.004793022	-0.1917788	-0.1446703
13.48026	-0.01292033	-0.1470363	0	0	0.1917568	0.1446537
13.49691	-0.01292033	-0.1470363	0	0	0	0
13.5139	-0.01305189	-0.1471355	-0.007743756	-0.005840736	-0.2301825	-0.1736154
13.52995	-0.01305189	-0.1471355	0	0	0.2343343	0.1767469
13.54751	-0.01305189	-0.1471355	0	0	0	0
13.56309	-0.0130782	-0.1471553	-0.001689045	-0.001274183	-0.05097989	-0.03845823
13.57966	-0.0130782	-0.1471553	0	0	0.05253441	0.03963093
13.59622	-0.0130782	-0.1471553	0	0	0	0
13.61283	-0.01310451	-0.1471752	-0.001583712	-0.001194679	-0.04773881	-0.03601195
13.62936	-0.01310451	-0.1471752	0	0	0.04779514	0.03605444
13.64594	-0.01310451	-0.1471752	0	0	0	0
13.66461	-0.01310451	-0.1471752	0	0	0	0
13.68118	-0.01310451	-0.1471752	0	0	0	0
13.69775	-0.01310451	-0.1471752	0	0	0	0
13.71431	-0.01310451	-0.1471752	0	0	0	0
13.73096	-0.01310451	-0.1471752	0	0	0	0
13.74744	-0.01310451	-0.1471752	0	0	0	0
13.76401	-0.01310451	-0.1471752	0	0	0	0
13.78058	-0.01310451	-0.1471752	0	0	0	0
13.79732	-0.01310451	-0.1471752	0	0	0	0
13.81393	-0.01310451	-0.1471752	0	0	0	0
13.83028	-0.01310451	-0.1471752	0	0	0	0
13.84684	-0.01310451	-0.1471752	0	0	0	0
13.86341	-0.01310451	-0.1471752	0	0	0	0
13.87998	-0.01310451	-0.1471752	0	0	0	0
13.89655	-0.01310451	-0.1471752	0	0	0	0
13.91312	-0.01310451	-0.1471752	0	0	0	0
13.92968	-0.01310451	-0.1471752	0	0	0	0
13.94625	-0.01310451	-0.1471752	0	0	0	0
13.96288	-0.01310451	-0.1471752	0	0	0	0
13.97938	-0.01310451	-0.1471752	0	0	0	0
13.99599	-0.01310451	-0.1471752	0	0	0	0
14.01558	-0.01313082	-0.147195	-0.001343112	-0.001013217	-0.03710397	-0.0279905
14.03236	-0.01313082	-0.147195	0	0	0.03692981	0.02785912
14.04872	-0.01313082	-0.147195	0	0	0	0
14.06529	-0.01315714	-0.1471752	-0.001587996	0.001197911	-0.04822842	0.03638129
14.08185	-0.01315714	-0.1471752	0	0	0.04792719	-0.03615405
14.09842	-0.01315714	-0.1471752	0	0	0	0
14.11505	-0.01315714	-0.1471752	0	0	0	0
14.13155	-0.01315714	-0.1471752	0	0	0	0
14.14812	-0.01315714	-0.1471752	0	0	0	0
14.1648	-0.01313082	-0.147195	0.001577644	-0.001190102	0.04745496	-0.03579782
14.18125	-0.01313082	-0.147195	0	0	-0.0476134	0.03591734
14.19782	-0.01313082	-0.147195	0	0	0	0
14.21474	-0.01313082	-0.147195	0	0	0	0
14.23095	-0.01313082	-0.147195	0	0	0	0
14.24827	-0.01313082	-0.147195	0	0	0	0
14.26408	-0.01313082	-0.147195	0	0	0	0
14.28065	-0.01313082	-0.147195	0	0	0	0
14.29722	-0.01313082	-0.147195	0	0	0	0
14.31382	-0.01315714	-0.1472149	-0.001585168	-0.001195777	-0.04779231	-0.03605231
14.33041	-0.01315714	-0.1472149	0	0	0.04775661	0.03602538
14.3471	-0.01315714	-0.1472149	0	0	0	0
14.36348	-0.01315714	-0.1472149	0	0	0	0
14.38005	-0.01315714	-0.1472149	0	0	0	0
14.39663	-0.01315714	-0.1472149	0	0	0	0
14.41318	-0.01318345	-0.1472347	-0.001588946	-0.00119867	-0.04796	-0.03618008
14.42976	-0.01318345	-0.1472347	0	0	0.04795448	0.03617592
14.44633	-0.01318345	-0.1472347	0	0	0	0
14.46288	-0.01320976	-0.1472546	-0.001588911	-0.001198601	-0.04796722	-0.03618425
14.4799	-0.01320976	-0.1472546	0	0	0.04732683	0.03570116
14.49603	-0.01320976	-0.1472546	0	0	0	0
14.51259	-0.01323607	-0.1472347	-0.001588397	0.001198255	-0.04858678	0.03665292
14.52936	-0.01323607	-0.1472347	0	0	0.04765264	-0.03594821
14.54572	-0.01323607	-0.1472347	0	0	0	0
14.56228	-0.01323607	-0.1472347	0	0	0	0
14.57886	-0.01323607	-0.1472347	0	0	0	0
14.59555	-0.01323607	-0.1472347	0	0	0	0
14.61198	-0.01323607	-0.1472347	0	0	0	0
14.62935	-0.01323607	-0.1472347	0	0	0	0
14.64562	-0.01323607	-0.1472347	0	0	0	0
14.66169	-0.01323607	-0.1472347	0	0	0	0
14.67826	-0.01323607	-0.1472347	0	0	0	0
14.69489	-0.01323607	-0.1472347	0	0	0	0
14.71139	-0.01323607	-0.1472347	0	0	0	0
14.7281	-0.01323607	-0.1472347	0	0	0	0
14.74457	-0.01323607	-0.1472347	0	0	0	0
14.76112	-0.01323607	-0.1472347	0	0	0	0
14.77766	-0.01323607	-0.1472347	0	0	0	0
14.79471	-0.01323607	-0.1472347	0	0	0	0
14.81078	-0.01323607	-0.1472347	0	0	0	0
14.82735	-0.01323607	-0.1472347	0	0	0	0
14.84392	-0.01323607	-0.1472347	0	0	0	0
14.86049	-0.01323607	-0.1472347	0	0	0	0
14.87741	-0.01323607	-0.1472347	0	0	0	0
14.89362	-0.01323607	-0.1472347	0	0	0	0
14.91026	-0.01323607	-0.1472347	0	0	0	0
14.92675	-0.01323607	-0.1472347	0	0	0	0
14.94332	-0.01323607	-0.1472347	0	0	0	0
14.95989	-0.01323607	-0.1472347	0	0	0	0
15.01882	-0.01323607	-0.1472347	0	0	0	0
15.03538	-0.01323607	-0.1472347	0	0	0	0
15.05195	-0.01323607	-0.1472347	0	0	0	0
15.06852	-0.01323607	-0.1472347	0	0	0	0
15.08508	-0.01323607	-0.1472347	0	0	0	0
15.10175	-0.01323607	-0.1472347	0	0	0	0
15.11822	-0.01323607	-0.1472347	0	0	0	0
15.13478	-0.01323607	-0.1472347	0	0	0	0
15.15135	-0.01328869	-0.1472744	-0.003176484	-0.002396235	-0.09588029	-0.07232893
15.16792	-0.01328869	-0.1472744	0	0	0.09587201	0.07232268
15.18448	-0.01328869	-0.1472744	0	0	0	0
15.20105	-0.01336762	-0.147334	-0.004764424	-0.003595045	-0.1437947	-0.1085018
15.21762	-0.01336762	-0.147334	0	0	0.1437947	0.1085018
15.23418	-0.01336762	-0.147334	0	0	0	0
15.25114	-0.01394646	-0.1477707	-0.03413707	-0.02575576	-1.018301	-0.7682885
15.26732	-0.01394646	-0.1477707	0	0	1.030318	0.7773553
15.28436	-0.01394646	-0.1477707	0	0	0	0
15.30045	-0.01723514	-0.1502537	-0.2044236	-0.154341	-6.169517	-4.65802
15.31702	-0.01723514	-0.1502537	0	0	6.26033	4.726584
15.33358	-0.01723514	-0.1502537	0	0	0	0
15.35015	-0.0174456	-0.1504127	-0.01270425	-0.009597533	-0.3834371	-0.2896708
15.36672	-0.0174456	-0.1504127	0	0	0.3834261	0.2896625
15.38328	-0.0174456	-0.1504127	0	0	0	0
15.39985	-0.0174456	-0.1504127	0	0	0	0
15.41642	-0.0174456	-0.1504127	0	0	0	0
15.43298	-0.0174456	-0.1504127	0	0	0	0
15.44955	-0.01794544	-0.1507903	-0.03017589	-0.02279924	-0.910815	-0.6881617
15.46612	-0.01794544	-0.1507903	0	0	0.9107363	0.6881022
15.48268	-0.01794544	-0.1507903	0	0	0	0
15.4993	-0.03937438	-0.1669678	-1.289371	-0.9733953	-38.85179	-29.3307
15.51591	-0.03937438	-0.1669678	0	0	38.80607	29.29618
15.53238	-0.03937438	-0.1669678	0	0	0	0
15.54895	-0.07690068	-0.195473	-2.265223	-1.720677	-68.55794	-52.07701
15.56552	-0.07690068	-0.195473	0	0	68.36849	51.93311
15.58228	-0.07690068	-0.195473	0	0	0	0
15.59865	-0.1127306	-0.2235158	-2.189159	-1.713377	-66.07085	-51.7113
15.61532	-0.1127306	-0.2235158	0	0	66.25583	51.85607
15.63179	-0.1127306	-0.2235158	0	0	0	0
15.65267	-0.1726328	-0.2719716	-2.867999	-2.319965	-76.79165	-62.11787
15.6695	-0.1726328	-0.2719716	0	0	76.04406	61.51314
15.68581	-0.2061603	-0.3000406	-2.055916	-1.721199	-62.04408	-51.94289
15.70237	-0.2061603	-0.3000406	0	0	62.53905	52.35728
15.71894	-0.2061603	-0.3000406	0	0	0	0
15.73551	-0.2165754	-0.3088704	-0.628801	-0.5330924	-18.97944	-16.09061
15.75207	-0.2165754	-0.3088704	0	0	18.97834	16.08969
15.76864	-0.2165754	-0.3088704	0	0	0	0
15.7853	-0.2165754	-0.3088704	0	0	0	0
15.80189	-0.2165754	-0.3088704	0	0	0	0
15.81841	-0.2165754	-0.3088704	0	0	0	0
15.83561	-0.2165001	-0.3089778	0.004376559	-0.006243071	0.1297801	-0.1851287
15.85218	-0.2165001	-0.3089778	0	0	-0.1295859	0.1848516
15.86875	-0.2165001	-0.3089778	0	0	0	0
15.88531	-0.216475	-0.3091712	0.001515811	-0.01167489	0.04575254	-0.3523896
15.90188	-0.216475	-0.3091712	0	0	-0.04574859	0.3523592
15.91845	-0.216475	-0.3091712	0	0	0	0
15.93501	-0.2179304	-0.3108051	-0.08787084	-0.09864226	-2.652252	-2.977372
15.95158	-0.2179304	-0.3108051	0	0	2.6521	2.977201
15.96815	-0.2179304	-0.3108051	0	0	0	0
15.98471	-0.206967	-0.3213322	0.6618689	-0.635527	19.97697	-19.1819
16.00128	-0.206967	-0.3213322	0	0	-19.97582	19.1808
16.01785	-0.206967	-0.3213322	0	0	0	0
16.03555	-0.1847123	-0.3407187	1.257312	-1.095272	36.69118	-31.96248
16.05627	-0.1847123	-0.3407187	0	0	-32.72408	28.50665
16.07284	-0.1847123	-0.3407187	0	0	0	0
16.08941	-0.1842292	-0.3415723	0.02916421	-0.05152508	0.8800762	-1.554851
16.10598	-0.1842292	-0.3415723	0	0	-0.8801776	1.55503
16.1229	-0.1842292	-0.3415723	0	0	0	0
16.13916	-0.1842037	-0.3415504	0.001564333	0.001347141	0.04714381	0.04059836
16.15567	-0.1842037	-0.3415504	0	0	-0.04772817	-0.04110159
16.17224	-0.1842037	-0.3415504	0	0	0	0
16.1888	-0.1842546	-0.3415067	-0.003070482	0.002643151	-0.09267799	0.07977965
16.20537	-0.1842546	-0.3415067	0	0	0.09267265	-0.07977505
16.22227	-0.1842546	-0.3415067	0	0	0	0
16.2385	-0.1842546	-0.3415067	0	0	0	0
16.25507	-0.1842546	-0.3415067	0	0	0	0
16.27164	-0.1842546	-0.3415067	0	0	0	0
16.2886	-0.1842292	-0.3414848	0.001498384	0.001291105	0.04468628	0.03850459
16.30478	-0.1842292	-0.3414848	0	0	-0.04520831	-0.0389544
16.32159	-0.1842292	-0.3414848	0	0	0	0
16.3379	-0.1842037	-0.3415067	0.001559394	-0.001342888	0.04708429	-0.0405471
16.35448	-0.1842037	-0.3415067	0	0	-0.04740919	0.0408269
16.37104	-0.1842037	-0.3415067	0	0	0	0
16.38767	-0.1842292	-0.3414848	-0.001529702	0.001317318	-0.04609749	0.03969731
16.40417	-0.1842292	-0.3414848	0	0	0.04616914	-0.03975901
16.42103	-0.1842292	-0.3414848	0	0	0	0
16.4373	-0.1842292	-0.3414848	0	0	0	0
16.45387	-0.1842292	-0.3414848	0	0	0	0
16.47044	-0.1842292	-0.3414848	0	0	0	0
16.48818	-0.1842292	-0.3414848	0	0	0	0
16.50483	-0.1842292	-0.3414848	0	0	0	0
16.52132	-0.1842292	-0.3414848	0	0	0	0
16.53788	-0.1842292	-0.3414848	0	0	0	0
16.55445	-0.1842292	-0.3414848	0	0	0	0
16.57109	-0.1842292	-0.3414848	0	0	0	0
16.58758	-0.1842292	-0.3414848	0	0	0	0
16.60415	-0.1842292	-0.3414848	0	0	0	0
16.62116	-0.1842292	-0.3414848	0	0	0	0
16.63728	-0.1842037	-0.3415067	0.001577844	-0.001358776	0.04762491	-0.04101266
16.65385	-0.1842037	-0.3415067	0	0	-0.0482668	0.04156543
16.67042	-0.1842037	-0.3415067	0	0	0	0
16.6872	-0.1842037	-0.3415067	0	0	0	0
16.70355	-0.1842037	-0.3415067	0	0	0	0
16.72012	-0.1842037	-0.3415067	0	0	0	0
16.73694	-0.1842292	-0.3414848	-0.001512183	0.001302231	-0.0452936	0.03900503
16.75325	-0.1842292	-0.3414848	0	0	0.04563776	-0.03930141
16.76982	-0.1842292	-0.3414848	0	0	0	0
16.78639	-0.1845089	-0.3408938	-0.01688511	0.03567163	-0.5095936	1.076572
16.80295	-0.1845089	-0.3408938	0	0	0.5095936	-1.076572
16.81979	-0.1845089	-0.3408938	0	0	0	0
16.83608	-0.1845343	-0.340478	-0.001560854	0.02551132	-0.0471121	0.770022
16.85265	-0.1845343	-0.340478	0	0	0.0474949	-0.7762787
16.86922	-0.1845343	-0.340478	0	0	0	0
16.88578	-0.18428	-0.3403468	0.01535421	0.007924056	0.4634443	0.239176
16.90302	-0.18428	-0.3403468	0	0	-0.4542392	-0.2344254
16.91902	-0.18428	-0.3403468	0	0	0	0
16.93548	-0.1840765	-0.3401718	0.01235629	0.01062963	0.3806484	0.3274569
16.95256	-0.1840765	-0.3401718	0	0	-0.3683967	-0.3169172
16.96887	-0.1840765	-0.3401718	0	0	0	0
16.98518	-0.1839239	-0.3399968	0.009359648	0.01073042	0.2869008	0.3289191
17.00175	-0.1839239	-0.3399968	0	0	-0.2847036	-0.3264001
17.01832	-0.1839239	-0.3399968	0	0	0	0
17.03488	-0.1837713	-0.3399093	0.009212023	0.005281487	0.2780194	0.1593956
17.05145	-0.1837713	-0.3399093	0	0	-0.2780194	-0.1593956
17.06831	-0.1837713	-0.3399093	0	0	0	0
17.08828	-0.1806917	-0.3372649	0.1542424	0.1324423	4.18807	3.596143
17.10485	-0.1806917	-0.3372649	0	0	-4.221961	-3.625244
17.12148	-0.1806917	-0.3372649	0	0	0	0
17.13798	-0.1804115	-0.3369374	0.01697781	0.01984958	0.5124207	0.5990961
17.15455	-0.1804115	-0.3369374	0	0	-0.5134256	-0.600271
17.17112	-0.1804115	-0.3369374	0	0	0	0
17.18768	-0.1789595	-0.3353879	0.08767851	0.09355745	2.646295	2.823732
17.20425	-0.1789595	-0.3353879	0	0	-2.6466	-2.824057
17.22113	-0.1789595	-0.3353879	0	0	0	0
17.23738	-0.1617841	-0.3207481	1.057032	0.9009842	31.90311	27.19332
17.25395	-0.1617841	-0.3207481	0	0	-32.21092	-27.45569
17.27051	-0.1617841	-0.3207481	0	0	0	0
17.28987	-0.1349382	-0.2984165	1.386972	1.153743	38.60958	32.11712
17.30644	-0.1349382	-0.2984165	0	0	-38.60548	-32.11371
17.32301	-0.1349382	-0.2984165	0	0	0	0
17.34062	-0.1279291	-0.2926372	0.3980034	0.3281758	11.64574	9.602557
17.35718	-0.1279291	-0.2926372	0	0	-11.64509	-9.602021
17.37375	-0.1279291	-0.2926372	0	0	0	0
17.39032	-0.127955	-0.2926159	-0.00156232	0.001286193	-0.04715092	0.03881739
17.40689	-0.127955	-0.2926159	0	0	0.04715092	-0.03881739
17.42345	-0.127955	-0.2926159	0	0	0	0
17.44002	-0.1279809	-0.2925946	-0.00156232	0.001284394	-0.04715092	0.0387631
17.45659	-0.1279809	-0.2925946	0	0	0.04715092	-0.0387631
17.47315	-0.1279809	-0.2925946	0	0	0	0
17.48972	-0.1282656	-0.2923604	-0.01718822	0.01413553	-0.5187415	0.4266113
17.50629	-0.1282656	-0.2923604	0	0	0.5187415	-0.4266113
17.52307	-0.1282656	-0.2923604	0	0	0	0
17.53942	-0.1304911	-0.2903178	-0.1360687	0.1248888	-4.106798	3.76937
17.55599	-0.1304911	-0.2903178	0	0	4.132969	-3.793391
17.57256	-0.1304911	-0.2903178	0	0	0	0
17.58912	-0.125469	-0.2842458	0.3031333	0.3665021	9.148581	11.06106
17.60569	-0.125469	-0.2842458	0	0	-9.148581	-11.06106
17.62226	-0.125469	-0.2842458	0	0	0	0
17.63885	-0.09476791	-0.2593788	1.849928	1.498391	55.78277	45.18252
17.65539	-0.09476791	-0.2593788	0	0	-55.83094	-45.22153
17.67196	-0.09476791	-0.2593788	0	0	0	0
17.68852	-0.06650703	-0.2370599	1.706222	1.347484	51.49982	40.67181
17.70509	-0.06650703	-0.2370599	0	0	-51.49686	-40.66948
17.72166	-0.06650703	-0.2370599	0	0	0	0
17.73822	-0.04814697	-0.2226736	1.108343	0.8684586	33.45179	26.21164
17.7552	-0.04814697	-0.2226736	0	0	-33.04658	-25.89413
17.77188	-0.04814697	-0.2226736	0	0	0	0
17.78792	-0.04105587	-0.2172995	0.4420667	0.3350262	13.50879	10.23782
17.80449	-0.04105587	-0.2172995	0	0	-13.5562	-10.27374
17.82106	-0.04105587	-0.2172995	0	0	0	0
17.83762	-0.04108214	-0.217279	-0.001585888	0.001236867	-0.04786495	0.03733086
17.85424	-0.04108214	-0.217279	0	0	0.04779616	-0.03727721
17.87076	-0.04108214	-0.217279	0	0	0	0
17.88732	-0.04105587	-0.2172995	0.001586071	-0.001237009	0.04794222	-0.03739113
17.90389	-0.04105587	-0.2172995	0	0	-0.04787046	0.03733516
17.92046	-0.04105587	-0.2172995	0	0	0	0
17.93703	-0.04110841	-0.2172175	-0.003171411	0.004945998	-0.09571337	0.1492705
17.95359	-0.04110841	-0.2172175	0	0	0.09571337	-0.1492705
17.97057	-0.04110841	-0.2172175	0	0	0	0
17.98672	-0.04097705	-0.2171151	0.008132869	0.006340967	0.2454646	0.1913818
18.00329	-0.04097705	-0.2171151	0	0	-0.2485698	-0.1938028
18.01986	-0.04097705	-0.2171151	0	0	0	0
18.04046	-0.04089823	-0.2168489	0.003824719	0.01292128	0.1028916	0.347605
18.05704	-0.04089823	-0.2168489	0	0	-0.1028758	-0.3475516
18.0736	-0.03863866	-0.2148836	0.1364198	0.1186494	4.117159	3.580847
18.09017	-0.03863866	-0.2148836	0	0	-4.117396	-3.581053
18.10674	-0.03863866	-0.2148836	0	0	0	0
18.1233	-0.03049055	-0.2080198	0.4918208	0.4143026	14.84318	12.50368
18.13987	-0.03049055	-0.2080198	0	0	-14.84318	-12.50368
18.15644	-0.03049055	-0.2080198	0	0	0	0
18.173	-0.0241269	-0.203212	0.3841992	0.2902644	11.59649	8.761207
18.18957	-0.0241269	-0.203212	0	0	-11.59582	-8.760702
18.20614	-0.0241269	-0.203212	0	0	0	0
18.2227	-0.02402169	-0.2032934	0.006350017	-0.004913618	0.1916439	-0.1482933
18.23927	-0.02402169	-0.2032934	0	0	-0.1916439	0.1482933
18.25584	-0.02402169	-0.2032934	0	0	0	0
18.2724	-0.02402169	-0.2032934	0	0	0	0
18.289	-0.02402169	-0.2032934	0	0	0	0
18.30554	-0.02402169	-0.2032934	0	0	0	0
18.32211	-0.02402169	-0.2032934	0	0	0	0
18.33902	-0.02402169	-0.2032934	0	0	0	0
18.35524	-0.02402169	-0.2032934	0	0	0	0
18.3718	-0.02402169	-0.2032934	0	0	0	0
18.38837	-0.02402169	-0.2032934	0	0	0	0
18.40498	-0.02402169	-0.2032934	0	0	0	0
18.4215	-0.0241269	-0.203212	-0.006365407	0.004925527	-0.1921084	0.1486527
18.43807	-0.0241269	-0.203212	0	0	0.1923409	-0.1488326
18.45464	-0.0241269	-0.203212	0	0	0	0
18.4712	-0.0241269	-0.203212	0	0	0	0
18.48777	-0.0241269	-0.203212	0	0	0	0
18.50475	-0.0241269	-0.203212	0	0	0	0
18.5209	-0.0241269	-0.203212	0	0	0	0
18.53747	-0.0241269	-0.203212	0	0	0	0
18.55404	-0.0241269	-0.203212	0	0	0	0
18.5706	-0.0241269	-0.203212	0	0	0	0
18.58717	-0.0241269	-0.203212	0	0	0	0
18.60374	-0.0241269	-0.203212	0	0	0	0
18.6203	-0.0241006	-0.2032323	0.00158787	-0.001228912	0.04792753	-0.03709292
18.63687	-0.0241006	-0.2032323	0	0	-0.04792477	0.03709079
18.65344	-0.0241006	-0.2032323	0	0	0	0
18.67374	-0.02404799	-0.2030289	0.002590468	0.01002064	0.07025405	0.2717618
18.69035	-0.02404799	-0.2030289	0	0	-0.07018144	-0.2714809
18.70716	-0.02383759	-0.2028661	0.01251713	0.009683847	0.374598	0.2898068
18.72345	-0.02383759	-0.2028661	0	0	-0.3781814	-0.2925791
18.74001	-0.02383759	-0.2028661	0	0	0	0
18.75658	-0.02375869	-0.2028458	0.004762513	0.00122773	0.1437329	0.03705296
18.77318	-0.02375869	-0.2028458	0	0	-0.1435842	-0.03701461
18.78971	-0.02375869	-0.2028458	0	0	0	0
18.80628	-0.02378499	-0.2028254	-0.00158787	0.001228013	-0.04798001	0.03710635
18.82285	-0.02378499	-0.2028254	0	0	0.04792201	-0.0370615
18.83972	-0.02378499	-0.2028254	0	0	0	0
18.85598	-0.02373238	-0.2028254	0.003235085	0	0.09764069	0
18.87278	-0.02373238	-0.2028254	0	0	-0.09784346	0
18.88975	-0.02373238	-0.2028254	0	0	0	0
18.90568	-0.02370608	-0.2028458	0.001651385	-0.001277133	0.0502001	-0.03882331
18.92225	-0.02370608	-0.2028458	0	0	-0.05082186	0.03930416
18.93884	-0.02370608	-0.2028458	0	0	0	0
18.95538	-0.02370608	-0.2028458	0	0	0	0
18.97195	-0.02370608	-0.2028458	0	0	0	0
18.98851	-0.02370608	-0.2028458	0	0	0	0
19.00508	-0.02370608	-0.2028458	0	0	0	0
19.02165	-0.02370608	-0.2028458	0	0	0	0
19.03821	-0.02370608	-0.2028458	0	0	0	0
19.05478	-0.02367978	-0.2028661	0.00158787	-0.001228013	0.04792753	-0.03706577
19.0715	-0.02367978	-0.2028661	0	0	-0.04769687	0.03688738
19.08791	-0.02367978	-0.2028661	0	0	0	0
19.10502	-0.02365348	-0.2028864	0.001537414	-0.001189862	0.04587374	-0.03550341
19.12126	-0.02365348	-0.2028864	0	0	-0.04610728	0.03568416
19.13762	-0.02365348	-0.2028864	0	0	0	0
19.15418	-0.02362718	-0.2029068	0.001587617	-0.00122773	0.04821691	-0.03728692
19.17075	-0.02362718	-0.2029068	0	0	-0.04791713	0.0370551
19.18742	-0.02362718	-0.2029068	0	0	0	0
19.20403	-0.02362718	-0.2029068	0	0	0	0
19.22045	-0.02362718	-0.2029068	0	0	0	0
19.23702	-0.02362718	-0.2029068	0	0	0	0
19.25358	-0.02362718	-0.2029068	0	0	0	0
19.27015	-0.02362718	-0.2029068	0	0	0	0
19.28672	-0.02362718	-0.2029068	0	0	0	0
19.30329	-0.02362718	-0.2029068	0	0	0	0
19.31985	-0.02362718	-0.2029068	0	0	0	0
19.33651	-0.02362718	-0.2029068	0	0	0	0
19.35298	-0.02362718	-0.2029068	0	0	0	0
19.36955	-0.02362718	-0.2029068	0	0	0	0
19.38615	-0.02362718	-0.2029068	0	0	0	0
19.40269	-0.02362718	-0.2029068	0	0	0	0
19.41925	-0.02362718	-0.2029068	0	0	0	0
19.43601	-0.02362718	-0.2029068	0	0	0	0
19.45238	-0.02360088	-0.2029271	0.00160693	-0.001242753	0.04850561	-0.03751284
19.46904	-0.02360088	-0.2029271	0	0	-0.04865407	0.03762765
19.48619	-0.02360088	-0.2029271	0	0	0	0
19.50229	-0.02360088	-0.2029678	0	-0.002527955	0	-0.07604431
19.51875	-0.02360088	-0.2029678	0	0	0	0.07762087
19.53536	-0.02360088	-0.2029678	0	0	0	0
19.55178	-0.02357458	-0.2029882	0.001601145	-0.001239187	0.04847893	-0.03751967
19.56835	-0.02357458	-0.2029882	0	0	-0.04852938	0.03755872
19.58526	-0.02357458	-0.2029882	0	0	0	0
19.6018	-0.02354828	-0.2030085	0.001589813	-0.001229428	0.04752651	-0.03675303
19.61805	-0.02354828	-0.2030085	0	0	-0.04848019	0.03749052
19.63462	-0.02354828	-0.2030085	0	0	0	0
19.65126	-0.02352198	-0.2030289	0.001580227	-0.001222997	0.04758179	-0.03682534
19.66775	-0.02352198	-0.2030289	0	0	-0.04769409	0.03691226
19.68452	-0.02352198	-0.2030289	0	0	0	0
19.70088	-0.02352198	-0.2030289	0	0	0	0
19.71784	-0.02352198	-0.2030289	0	0	0	0
19.73402	-0.02352198	-0.2030289	0	0	0	0
19.75058	-0.02352198	-0.2030289	0	0	0	0
19.76715	-0.02352198	-0.2030289	0	0	0	0
19.78379	-0.02352198	-0.2030289	0	0	0	0
19.80028	-0.02352198	-0.2030289	0	0	0	0
19.81685	-0.02352198	-0.2030289	0	0	0	0
19.83342	-0.02352198	-0.2030289	0	0	0	0
19.84998	-0.02349568	-0.2030492	0.001587504	-0.00122773	0.04791097	-0.03705296
19.86655	-0.02349568	-0.2030492	0	0	-0.04791097	0.03705296
19.88312	-0.02349568	-0.2030492	0	0	0	0
19.89968	-0.02344307	-0.2030899	0.003175852	-0.002456925	0.09585845	-0.07415868
19.91625	-0.02344307	-0.2030899	0	0	-0.09584741	0.07415015
19.93339	-0.02344307	-0.2030899	0	0	0	0
19.94956	-0.02344307	-0.2030899	0	0	0	0
19.96595	-0.02344307	-0.2030899	0	0	0	0
19.98252	-0.02344307	-0.2030899	0	0	0	0
20.00324	-0.02341677	-0.2031103	0.001268983	-0.0009820443	0.03402612	-0.02633223
20.01988	-0.02341677	-0.2031103	0	0	-0.03396358	0.02628383
20.03638	-0.02341677	-0.2031103	0	0	0	0
20.05295	-0.02341677	-0.2031103	0	0	0	0
20.06952	-0.02341677	-0.2031103	0	0	0	0
20.08644	-0.02341677	-0.2031103	0	0	0	0
20.10265	-0.02341677	-0.2031103	0	0	0	0
20.11922	-0.02341677	-0.2031103	0	0	0	0
20.13595	-0.02341677	-0.2031103	0	0	0	0
20.15235	-0.02341677	-0.2031103	0	0	0	0
20.16892	-0.02341677	-0.2031103	0	0	0	0
20.18548	-0.02341677	-0.2031103	0	0	0	0
20.20235	-0.02341677	-0.2031103	0	0	0	0
20.21862	-0.02341677	-0.2031103	0	0	0	0
20.23527	-0.02341677	-0.2031103	0	0	0	0
20.25238	-0.02341677	-0.2031103	0	0	0	0
20.26841	-0.02341677	-0.2031103	0	0	0	0
20.28497	-0.02341677	-0.2031103	0	0	0	0
20.30183	-0.02341677	-0.2031103	0	0	0	0
20.3181	-0.02341677	-0.2031103	0	0	0	0
20.33467	-0.02341677	-0.2031103	0	0	0	0
20.3513	-0.02341677	-0.2031103	0	0	0	0
20.36807	-0.02341677	-0.2031103	0	0	0	0
20.38437	-0.02341677	-0.2031103	0	0	0	0
20.40096	-0.02341677	-0.2031103	0	0	0	0
20.41765	-0.02341677	-0.2031103	0	0	0	0
20.48162	-0.02341677	-0.2031103	0	0	0	0
20.49819	-0.02341677	-0.2031103	0	0	0	0
20.51476	-0.02341677	-0.2031103	0	0	0	0
20.53187	-0.02341677	-0.2031103	0	0	0	0
20.5479	-0.02341677	-0.2031103	0	0	0	0
20.56486	-0.02341677	-0.2031103	0	0	0	0
20.58143	-0.02341677	-0.2031103	0	0	0	0
20.598	-0.02341677	-0.2031103	0	0	0	0
20.61456	-0.02341677	-0.2031103	0	0	0	0
20.63113	-0.02341677	-0.2031103	0	0	0	0
20.64772	-0.02341677	-0.2031103	0	0	0	0
20.66426	-0.02341677	-0.2031103	0	0	0	0
20.68083	-0.02341677	-0.2031103	0	0	0	0
20.72097	-0.02341677	-0.2031103	0	0	0	0
20.745	-0.02341677	-0.2031103	0	0	0	0
20.76157	-0.02341677	-0.2031103	0	0	0	0
20.77814	-0.02341677	-0.2031103	0	0	0	0
20.79471	-0.02341677	-0.2031103	0	0	0	0
20.81127	-0.02341677	-0.2031103	0	0	0	0
20.82784	-0.02344307	-0.2030899	-0.001587617	0.001228629	-0.04791437	0.03708011
20.84441	-0.02344307	-0.2030899	0	0	0.04791437	-0.03708011
20.86098	-0.02344307	-0.2030899	0	0	0	0
20.87756	-0.02325896	-0.2029475	0.01110264	0.008588897	0.3349242	0.2590941
20.89411	-0.02325896	-0.2029475	0	0	-0.3350398	-0.2591836
20.91068	-0.02325896	-0.2029475	0	0	0	0
20.92724	-0.009631281	-0.1924743	0.822758	0.6323078	24.83375	19.08529
20.94381	-0.009631281	-0.1924743	0	0	-24.83232	-19.08419
20.96038	-0.009631281	-0.1924743	0	0	0	0
20.97694	0.01384122	-0.1744869	1.417293	1.086099	42.78382	32.78607
20.99351	0.01384122	-0.1744869	0	0	-42.77644	-32.78041
21.01036	0.01384122	-0.1744869	0	0	0	0
21.02665	0.04166009	-0.1534556	1.708457	1.291608	51.55838	38.97858
21.04321	0.04166009	-0.1534556	0	0	-52.00741	-39.31805
21.05978	0.04166009	-0.1534556	0	0	0	0
21.07635	0.06750255	-0.135039	1.559854	1.111627	47.07919	33.55091
21.09327	0.06750255	-0.135039	0	0	-46.57248	-33.1898
21.10994	0.06750255	-0.135039	0	0	0	0
21.12608	0.09247236	-0.1165255	1.547443	1.147328	47.16895	34.97269
21.14286	0.09247236	-0.1165255	0	0	-47.01315	-34.85717
21.15937	0.09247236	-0.1165255	0	0	0	0
21.17595	0.118936	-0.09666794	1.596797	1.198192	48.25809	36.21152
21.19232	0.118936	-0.09666794	0	0	-48.47043	-36.37086
21.20888	0.118936	-0.09666794	0	0	0	0
21.22574	0.1361524	-0.0838029	1.02085	0.7628347	30.54208	22.8227
21.24201	0.1361524	-0.0838029	0	0	-30.81109	-23.02372
21.2591	0.1361524	-0.0838029	0	0	0	0
21.27514	0.1497391	-0.07354314	0.8471123	0.6396801	25.56737	19.3067
21.29209	0.1497391	-0.07354314	0	0	-25.68121	-19.39266
21.30828	0.1497391	-0.07354314	0	0	0	0
21.32484	0.1593736	-0.06635884	0.5816053	0.433695	17.75732	13.24138
21.34174	0.1593736	-0.06635884	0	0	-17.38278	-12.96209
21.35798	0.1593736	-0.06635884	0	0	0	0
21.37454	0.1626555	-0.06385924	0.1981383	0.1509111	6.039975	4.600317
21.39111	0.1626555	-0.06385924	0	0	-5.980169	-4.554767
21.40767	0.1626555	-0.06385924	0	0	0	0
21.42426	0.1626555	-0.06385924	0	0	0	0
21.44081	0.1626555	-0.06385924	0	0	0	0
21.45741	0.1626555	-0.06385924	0	0	0	0
21.4741	0.1627067	-0.0638208	0.003071238	0.002303652	0.09226525	0.06920564
21.49051	0.1627067	-0.0638208	0	0	-0.09279163	-0.06960046
21.50757	0.1627067	-0.0638208	0	0	0	0
21.5291	0.1628605	-0.06374393	0.007139891	0.003569946	0.1850034	0.09250171
21.54572	0.1628605	-0.06374393	0	0	-0.1871399	-0.09356995
21.56224	0.1628861	-0.0637247	0.001551674	0.001163756	0.04682693	0.0351202
21.57893	0.1628861	-0.0637247	0	0	-0.04673009	-0.03504757
21.59537	0.1628861	-0.0637247	0	0	0	0
21.61229	0.1628861	-0.0637247	0	0	0	0
21.6285	0.1628861	-0.0637247	0	0	0	0
21.64507	0.1628861	-0.0637247	0	0	0	0
21.66186	0.1629117	-0.06374393	0.001525581	-0.001144851	0.0457341	-0.03432053
21.6782	0.1629117	-0.06374393	0	0	-0.04604477	0.03455367
21.69477	0.1629117	-0.06374393	0	0	0	0
21.77839	0.1629117	-0.06374393	0	0	0	0
21.79496	0.1629117	-0.06374393	0	0	0	0
21.81234	0.1628861	-0.06376314	-0.00147417	-0.001105842	-0.04342564	-0.03257555
21.82891	0.1628861	-0.06376314	0	0	0.04342808	0.03257738
21.84547	0.1628861	-0.06376314	0	0	0	0
21.86204	0.1628861	-0.06380158	0	-0.002320095	0	-0.0700206
21.87861	0.1628861	-0.06380158	0	0	0	0.0700206
21.89555	0.1628861	-0.06380158	0	0	0	0
21.91187	0.1628861	-0.06380158	0	0	0	0
21.92831	0.1628861	-0.06380158	0	0	0	0
21.94488	0.1628861	-0.06380158	0	0	0	0
21.96158	0.1628861	-0.06380158	0	0	0	0
21.97819	0.1628861	-0.06380158	0	0	0	0
21.99496	0.1628861	-0.06380158	0	0	0	0
22.01179	0.1628605	-0.0638208	-0.001523008	-0.001142256	-0.04533039	-0.0339978
22.02787	0.1628605	-0.0638208	0	0	0.04628151	0.03471113
22.04463	0.1628605	-0.0638208	0	0	0	0
22.06099	0.1628092	-0.06389768	-0.003132469	-0.004699159	-0.09457621	-0.1418781
22.07755	0.1628092	-0.06389768	0	0	0.09513503	0.1427164
22.09412	0.1628092	-0.06389768	0	0	0	0
22.11341	0.1627836	-0.06395534	-0.001328735	-0.002989268	-0.03705729	-0.08336813
22.12998	0.1627836	-0.06395534	0	0	0.03705335	0.08335926
22.14655	0.1627836	-0.06395534	0	0	0	0
22.16311	0.162758	-0.06397456	-0.001546486	-0.001160539	-0.04667843	-0.03502918
22.17968	0.162758	-0.06397456	0	0	0.04667574	0.03502716
22.19625	0.162758	-0.06397456	0	0	0	0
22.21282	0.1625273	-0.0641091	-0.01392147	-0.008121006	-0.4201508	-0.2450925
22.22938	0.1625273	-0.0641091	0	0	0.4201508	0.2450925
22.24595	0.1625273	-0.0641091	0	0	0	0
22.26252	0.1608355	-0.06537797	-0.1021193	-0.07658876	-3.081965	-2.311454
22.27908	0.1608355	-0.06537797	0	0	3.082143	2.311587
22.29637	0.1608355	-0.06537797	0	0	0	0
22.31239	0.15845	-0.06739779	-0.1489287	-0.1260977	-4.471511	-3.786023
22.32878	0.15845	-0.06739779	0	0	4.595193	3.890744
22.34535	0.15845	-0.06739779	0	0	0	0
22.36191	0.1255985	-0.09606502	-1.983375	-1.730756	-59.86526	-52.24034
22.37848	0.1255985	-0.09606502	0	0	59.86181	52.23733
22.39509	0.1255985	-0.09606502	0	0	0	0
22.41161	0.04630897	-0.156622	-4.799187	-3.665354	-144.8481	-110.627
22.42818	0.04630897	-0.156622	0	0	145.0401	110.7736
22.44475	0.04630897	-0.156622	0	0	0	0
22.46132	-0.02914964	-0.2145767	-4.554691	-3.498153	-137.4608	-105.5745
22.47788	-0.02914964	-0.2145767	0	0	137.4529	105.5684
22.49445	-0.02914964	-0.2145767	0	0	0	0
22.51101	-0.09482007	-0.2665465	-3.964331	-3.137265	-119.6575	-94.69376
22.52758	-0.09482007	-0.2665465	0	0	119.6506	94.6883
22.54415	-0.09482007	-0.2665465	0	0	0	0
22.56071	-0.1263496	-0.2921049	-1.903348	-1.542886	-57.44977	-46.56977
22.57728	-0.1263496	-0.2921049	0	0	57.44316	46.56441
22.59385	-0.1263496	-0.2921049	0	0	0	0
22.61041	-0.1270229	-0.2926584	-0.04064389	-0.03341429	-1.226706	-1.008503
22.62699	-0.1270229	-0.2926584	0	0	1.226564	1.008387
22.64355	-0.1270229	-0.2926584	0	0	0	0
22.66012	-0.1272818	-0.292914	-0.0156286	-0.01542353	-0.4716992	-0.4655097
22.67668	-0.1272818	-0.292914	0	0	0.4717264	0.4655365
22.69331	-0.1272818	-0.292914	0	0	0	0
22.70981	-0.1272818	-0.292914	0	0	0	0
22.72659	-0.1272818	-0.292914	0	0	0	0
22.74295	-0.1272818	-0.292914	0	0	0	0
22.75951	-0.127256	-0.2929353	0.00156286	-0.001286638	0.04746777	-0.03907825
22.77608	-0.127256	-0.2929353	0	0	-0.04718078	0.03884199
22.79265	-0.127256	-0.2929353	0	0	0	0
22.80921	-0.127256	-0.2929353	0	0	0	0
22.82578	-0.127256	-0.2929353	0	0	0	0
22.84234	-0.127256	-0.2929353	0	0	0	0
22.85891	-0.1273336	-0.2928714	-0.00468732	0.003856337	-0.1414636	0.1163845
22.87548	-0.1273336	-0.2928714	0	0	0.1414473	-0.1163711
22.89205	-0.1273336	-0.2928714	0	0	0	0
22.90883	-0.1274372	-0.2927862	-0.006173091	0.005076305	-0.1851214	0.1522305
22.92548	-0.1274372	-0.2927862	0	0	0.1846462	-0.1518397
22.94175	-0.1274372	-0.2927862	0	0	0	0
22.95978	-0.1277996	-0.2924455	-0.02009554	0.01888847	-0.5858784	0.5506867
22.97635	-0.1277996	-0.2924455	0	0	0.5807117	-0.5458302
22.9932	-0.1277996	-0.2924455	0	0	0	0
23.00948	-0.1313964	-0.2894886	-0.22097	0.1816594	-6.669655	5.483122
23.02605	-0.1313964	-0.2894886	0	0	6.727362	-5.530564
23.04262	-0.1313964	-0.2894886	0	0	0	0
23.05925	-0.1441511	-0.2789333	-0.7669565	0.6347058	-23.10158	19.11804
23.07636	-0.1441511	-0.2789333	0	0	22.73199	-18.81218
23.09232	-0.1441511	-0.2789333	0	0	0	0
23.10889	-0.1569613	-0.2684372	-0.7731398	0.6334735	-23.7671	19.47362
23.12545	-0.1569613	-0.2684372	0	0	23.33341	-19.11827
23.14231	-0.1569613	-0.2684372	0	0	0	0
23.15858	-0.156987	-0.2684162	-0.001576415	0.001290793	-0.04758452	0.03896293
23.17515	-0.156987	-0.2684162	0	0	0.04799068	-0.0392955
23.19228	-0.156987	-0.2684162	0	0	0	0
23.20829	-0.1567559	-0.2686054	0.01443525	-0.01181743	0.4356818	-0.3566713
23.225	-0.1567559	-0.2686054	0	0	-0.441219	0.3612043
23.2421	-0.1567559	-0.2686054	0	0	0	0
23.2593	-0.1564735	-0.2685003	0.01642306	0.006110664	0.4787819	0.1781444
23.27589	-0.1564735	-0.2685003	0	0	-0.486107	-0.1808699
23.29244	-0.1564735	-0.2685003	0	0	0	0
23.3105	-0.1558572	-0.2688787	0.03412811	-0.02095215	0.986001	-0.6053322
23.32737	-0.1558572	-0.2688787	0	0	-0.9771701	0.5999106
23.34363	-0.1558572	-0.2688787	0	0	0	0
23.3602	-0.1486841	-0.2630222	0.4329215	0.3534556	13.18399	10.76397
23.37677	-0.1486841	-0.2630222	0	0	-13.06334	-10.66547
23.39334	-0.1486841	-0.2630222	0	0	0	0
23.4099	-0.1163666	-0.2369978	1.951133	1.571198	58.89888	47.42976
23.42647	-0.1163666	-0.2369978	0	0	-58.88192	-47.41611
23.44303	-0.1163666	-0.2369978	0	0	0	0
23.4596	-0.08490068	-0.2122049	1.899069	1.496333	57.32393	45.16723
23.47617	-0.08490068	-0.2122049	0	0	-57.31073	-45.15683
23.49274	-0.08490068	-0.2122049	0	0	0	0
23.5093	-0.07765929	-0.2065111	0.4372422	0.3437968	13.19828	10.3776
23.52587	-0.07765929	-0.2065111	0	0	-13.196	-10.37581
23.54278	-0.07765929	-0.2065111	0	0	0	0
23.559	-0.07478134	-0.2042704	0.1774103	0.1381246	5.354871	4.16909
23.57557	-0.07478134	-0.2042704	0	0	-5.409999	-4.21201
23.59228	-0.07478134	-0.2042704	0	0	0	0
23.6087	-0.05400008	-0.188186	1.265285	0.9793143	38.19296	29.56087
23.62527	-0.05400008	-0.188186	0	0	-38.34751	-29.68048
23.64184	-0.05400008	-0.188186	0	0	0	0
23.65841	-0.03861238	-0.1764158	0.9286969	0.7103691	28.02974	21.44022
23.67502	-0.03861238	-0.1764158	0	0	-27.98302	-21.40448
23.69177	-0.03861238	-0.1764158	0	0	0	0
23.7081	-0.03737732	-0.175431	0.07561016	0.06028597	2.285867	1.822582
23.72467	-0.03737732	-0.175431	0	0	-2.297791	-1.83209
23.74124	-0.03737732	-0.175431	0	0	0	0
23.75788	-0.03721965	-0.1753105	0.00947353	0.007243976	0.2852713	0.2181339
23.77445	-0.03721965	-0.1753105	0	0	-0.2852221	-0.2180964
23.79276	-0.03721965	-0.1753105	0	0	0	0
23.80933	-0.03719337	-0.1753306	0.001586197	-0.001213199	0.04548123	-0.03478621
23.82598	-0.03719337	-0.1753306	0	0	-0.04774785	0.03651983
23.84246	-0.03719337	-0.1753306	0	0	0	0
23.85903	-0.03719337	-0.1753306	0	0	0	0
23.87571	-0.03719337	-0.1753306	0	0	0	0
23.89282	-0.03719337	-0.1753306	0	0	0	0
23.90873	-0.03719337	-0.1753306	0	0	0	0
23.9253	-0.03719337	-0.1753306	0	0	0	0
23.94227	-0.03719337	-0.1753306	0	0	0	0
23.95843	-0.03719337	-0.1753306	0	0	0	0
23.975	-0.03719337	-0.1753306	0	0	0	0
23.99156	-0.03719337	-0.1753306	0	0	0	0
24.00813	-0.03719337	-0.1753306	0	0	0	0
24.0247	-0.03719337	-0.1753306	0	0	0	0
24.04127	-0.03719337	-0.1753306	0	0	0	0
24.05783	-0.03719337	-0.1753306	0	0	0	0
24.07439	-0.03719337	-0.1753306	0	0	0	0
24.09096	-0.03719337	-0.1753306	0	0	0	0
24.10752	-0.03716709	-0.1753105	0.00158652	0.001213618	0.04788404	0.03662919
24.12409	-0.03716709	-0.1753105	0	0	-0.04788404	-0.03662919
24.14066	-0.03716709	-0.1753105	0	0	0	0
24.15722	-0.03716709	-0.1753105	0	0	0	0
24.17379	-0.03716709	-0.1753105	0	0	0	0
24.19036	-0.03716709	-0.1753105	0	0	0	0
24.20693	-0.03716709	-0.1753105	0	0	0	0
24.22388	-0.03716709	-0.1753105	0	0	0	0
24.24035	-0.03716709	-0.1753105	0	0	0	0
24.25662	-0.03714081	-0.1752904	0.001615163	0.001234613	0.04932495	0.03770345
24.27319	-0.03714081	-0.1752904	0	0	-0.04918457	-0.03759615
24.28976	-0.03714081	-0.1752904	0	0	0	0
24.30633	-0.03714081	-0.1752904	0	0	0	0
24.32289	-0.03714081	-0.1752904	0	0	0	0
24.33946	-0.03714081	-0.1752904	0	0	0	0
24.35602	-0.03714081	-0.1752904	0	0	0	0
24.37259	-0.03714081	-0.1752904	0	0	0	0
24.38972	-0.03714081	-0.1752904	0	0	0	0
24.40572	-0.03711453	-0.1753105	0.001642543	-0.001255364	0.04958062	-0.03789351
24.42229	-0.03711453	-0.1753105	0	0	-0.05043136	0.03854371
24.43967	-0.03711453	-0.1753105	0	0	0	0
24.45543	-0.03708825	-0.1753306	0.001668161	-0.00127607	0.0503452	-0.03851187
24.47199	-0.03708825	-0.1753306	0	0	-0.05161386	0.03948234
24.48856	-0.03708825	-0.1753306	0	0	0	0
24.50513	-0.03706197	-0.1753507	0.00158638	-0.001212439	0.0478798	-0.0365936
24.52204	-0.03706197	-0.1753507	0	0	-0.04738066	0.03621212
24.53828	-0.03706197	-0.1753507	0	0	0	0
24.55482	-0.03706197	-0.1753507	0	0	0	0
24.57149	-0.03706197	-0.1753507	0	0	0	0
24.58796	-0.03706197	-0.1753507	0	0	0	0
24.60452	-0.03703569	-0.1753707	0.001586155	-0.001212439	0.04800843	-0.03669712
24.62109	-0.03703569	-0.1753707	0	0	-0.0478675	0.03658939
24.63815	-0.03703569	-0.1753707	0	0	0	0
24.65425	-0.03703569	-0.1753707	0	0	0	0
24.6708	-0.03703569	-0.1753707	0	0	0	0
24.68736	-0.03703569	-0.1753707	0	0	0	0
24.7041	-0.03703569	-0.1753707	0	0	0	0
24.7205	-0.03703569	-0.1753707	0	0	0	0
24.73706	-0.03703569	-0.1753707	0	0	0	0
24.75363	-0.03703569	-0.1753707	0	0	0	0
24.7702	-0.03703569	-0.1753707	0	0	0	0
24.78676	-0.03703569	-0.1753707	0	0	0	0
24.80333	-0.03703569	-0.1753707	0	0	0	0
24.81989	-0.03703569	-0.1753707	0	0	0	0
24.83646	-0.03703569	-0.1753707	0	0	0	0
24.85303	-0.03703569	-0.1753707	0	0	0	0
24.86959	-0.03703569	-0.1753707	0	0	0	0
24.88616	-0.03703569	-0.1753707	0	0	0	0
24.90273	-0.03703569	-0.1753707	0	0	0	0
24.9193	-0.03703569	-0.1753707	0	0	0	0
24.93586	-0.03703569	-0.1753707	0	0	0	0
24.95243	-0.03700941	-0.1753908	0.001586155	-0.001213339	0.04787026	-0.03661865
24.969	-0.03700941	-0.1753908	0	0	-0.04787301	0.03662075
24.98556	-0.03700941	-0.1753908	0	0	0	0
25.00213	-0.03700941	-0.1753908	0	0	0	0
25.0187	-0.03700941	-0.1753908	0	0	0	0
25.0355	-0.03700941	-0.1753908	0	0	0	0
25.05183	-0.03700941	-0.1753908	0	0	0	0
25.0684	-0.03700941	-0.1753908	0	0	0	0
25.08499	-0.03700941	-0.1753908	0	0	0	0
25.10153	-0.03700941	-0.1753908	0	0	0	0
25.11811	-0.03700941	-0.1753908	0	0	0	0
25.13493	-0.03700941	-0.1753908	0	0	0	0
25.15123	-0.03700941	-0.1753908	0	0	0	0
25.1678	-0.03700941	-0.1753908	0	0	0	0
25.18442	-0.03700941	-0.1753908	0	0	0	0
25.20095	-0.03700941	-0.1753908	0	0	0	0
25.2175	-0.03700941	-0.1753908	0	0	0	0
25.23406	-0.03700941	-0.1753908	0	0	0	0
25.25063	-0.03700941	-0.1753908	0	0	0	0
25.2672	-0.03700941	-0.1753908	0	0	0	0
25.28442	-0.03700941	-0.1753908	0	0	0	0
25.30033	-0.03700941	-0.1753908	0	0	0	0
25.3169	-0.03700941	-0.1753908	0	0	0	0
25.33347	-0.03700941	-0.1753908	0	0	0	0
25.35003	-0.03700941	-0.1753908	0	0	0	0
25.3666	-0.03700941	-0.1753908	0	0	0	0
25.38317	-0.03700941	-0.1753908	0	0	0	0
25.40291	-0.03700941	-0.1753908	0	0	0	0
25.41948	-0.03700941	-0.1753908	0	0	0	0
25.43605	-0.03700941	-0.1753908	0	0	0	0
25.45262	-0.03700941	-0.1753908	0	0	0	0
25.46918	-0.03700941	-0.1753908	0	0	0	0
25.48613	-0.03700941	-0.1753908	0	0	0	0
25.50231	-0.03698313	-0.1754109	0.00162396	-0.001241161	0.04901966	-0.03746478
25.51888	-0.03698313	-0.1754109	0	0	-0.04958202	0.03789458
25.53545	-0.03698313	-0.1754109	0	0	0	0
25.55202	-0.03700941	-0.1753908	-0.00158565	0.001211882	-0.04784399	0.03656624
25.56858	-0.03700941	-0.1753908	0	0	0.04785776	-0.03657676
25.58536	-0.03700941	-0.1753908	0	0	0	0
25.60172	-0.03700941	-0.1753908	0	0	0	0
25.61828	-0.03700941	-0.1753908	0	0	0	0
25.63485	-0.03700941	-0.1753908	0	0	0	0
25.65142	-0.03700941	-0.1753908	0	0	0	0
25.66798	-0.03700941	-0.1753908	0	0	0	0
25.68456	-0.03700941	-0.1753908	0	0	0	0
25.70121	-0.03700941	-0.1753908	0	0	0	0
25.71768	-0.03700941	-0.1753908	0	0	0	0
25.73425	-0.03700941	-0.1753908	0	0	0	0
25.75082	-0.03700941	-0.1753908	0	0	0	0
25.76739	-0.03700941	-0.1753908	0	0	0	0
25.78395	-0.03700941	-0.1753908	0	0	0	0
25.80083	-0.03700941	-0.1753908	0	0	0	0
25.81709	-0.03700941	-0.1753908	0	0	0	0
25.83365	-0.03700941	-0.1753908	0	0	0	0
25.85022	-0.03700941	-0.1753908	0	0	0	0
25.86679	-0.03700941	-0.1753908	0	0	0	0
25.93385	-0.03700941	-0.1753908	0	0	0	0
25.95199	-0.03700941	-0.1753908	0	0	0	0
25.96855	-0.03700941	-0.1753908	0	0	0	0
25.98512	-0.03700941	-0.1753908	0	0	0	0
26.00179	-0.03700941	-0.1753908	0	0	0	0
26.01826	-0.03700941	-0.1753908	0	0	0	0
26.03482	-0.03700941	-0.1753908	0	0	0	0
26.05156	-0.03700941	-0.1753908	0	0	0	0
26.06796	-0.03700941	-0.1753908	0	0	0	0
26.08452	-0.03700941	-0.1753908	0	0	0	0
26.10109	-0.03700941	-0.1753908	0	0	0	0
26.11766	-0.03700941	-0.1753908	0	0	0	0
26.13422	-0.03700941	-0.1753908	0	0	0	0
26.15111	-0.03700941	-0.1753908	0	0	0	0
26.16736	-0.03700941	-0.1753908	0	0	0	0
26.18392	-0.03700941	-0.1753908	0	0	0	0
26.20058	-0.03700941	-0.1753908	0	0	0	0
26.21706	-0.03700941	-0.1753908	0	0	0	0
26.23362	-0.03700941	-0.1753908	0	0	0	0
26.25019	-0.03700941	-0.1753908	0	0	0	0
26.26676	-0.03700941	-0.1753908	0	0	0	0
26.28333	-0.03700941	-0.1753908	0	0	0	0
26.29989	-0.03700941	-0.1753908	0	0	0	0
26.31646	-0.03700941	-0.1753908	0	0	0	0
26.33302	-0.03700941	-0.1753908	0	0	0	0
26.34959	-0.03700941	-0.1754712	0	-0.004851775	0	-0.1464606
26.36615	-0.03700941	-0.1754712	0	0	0	0.1464437
26.38272	-0.03700941	-0.1754712	0	0	0	0
26.39929	-0.03761383	-0.1761344	-0.03647872	-0.04002389	-1.100866	-1.207854
26.41586	-0.03761383	-0.1761344	0	0	1.100866	1.207854
26.43242	-0.03761383	-0.1761344	0	0	0	0
26.44943	-0.0394532	-0.1777429	-0.1081605	-0.09458417	-3.221638	-2.817256
26.46556	-0.0394532	-0.1777429	0	0	3.264479	2.85472
26.48212	-0.0394532	-0.1777429	0	0	0	0
26.49869	-0.06045257	-0.1939326	-1.267524	-0.9772173	-38.25395	-29.49248
26.51526	-0.06045257	-0.1939326	0	0	38.25395	29.49248
26.53182	-0.06045257	-0.1939326	0	0	0	0
26.54839	-0.1129384	-0.2350545	-3.168052	-2.482121	-95.6175	-74.91487
26.56496	-0.1129384	-0.2350545	0	0	95.612	74.91056
26.58153	-0.1129384	-0.2350545	0	0	0	0
26.59825	-0.1810991	-0.2905092	-4.075712	-3.315946	-122.4273	-99.60528
26.61495	-0.1810991	-0.2905092	0	0	121.9313	99.20174
26.63139	-0.1810991	-0.2905092	0	0	0	0
26.64802	-0.2126061	-0.3173988	-1.893913	-1.61636	-57.2672	-48.87468
26.66452	-0.2126061	-0.3173988	0	0	57.1617	48.78465
26.68122	-0.2126061	-0.3173988	0	0	0	0
26.69765	-0.2125809	-0.3172476	0.001529321	0.009194057	0.04615765	0.2774931
26.71422	-0.2125809	-0.3172476	0	0	-0.04633637	-0.2785676
26.73093	-0.2125809	-0.3172476	0	0	0	0
26.74735	-0.2125558	-0.3171397	0.001531098	0.006572737	0.0462166	0.1983999
26.76392	-0.2125558	-0.3171397	0	0	-0.04641435	-0.1992488
26.78048	-0.2125558	-0.3171397	0	0	0	0
26.79705	-0.21243	-0.317075	0.007588566	0.003908498	0.2290366	0.1179655
26.81362	-0.21243	-0.317075	0	0	-0.2290102	-0.1179519
26.83018	-0.21243	-0.317075	0	0	0	0
26.84706	-0.212254	-0.3169239	0.01042814	0.008951271	0.3117786	0.2676234
26.86345	-0.212254	-0.3169239	0	0	-0.3134769	-0.2690811
26.87989	-0.212254	-0.3169239	0	0	0	0
26.89764	-0.2120528	-0.3167944	0.01133022	0.007292226	0.3313605	0.2132664
26.91422	-0.2120528	-0.3167944	0	0	-0.3300533	-0.2124251
26.93131	-0.2120528	-0.3167944	0	0	0	0
26.94834	-0.2120277	-0.3167296	0.00147622	0.003801243	0.04325755	0.1113876
26.96491	-0.2120277	-0.3167296	0	0	-0.04393779	-0.1131392
26.98148	-0.2120277	-0.3167296	0	0	0	0
26.99804	-0.2120277	-0.3167296	0	0	0	0
27.01461	-0.2120277	-0.3167296	0	0	0	0
27.03118	-0.2120277	-0.3167296	0	0	0	0
27.04851	-0.2120528	-0.3167081	-0.001450549	0.001245047	-0.04279234	0.03672988
27.06431	-0.2120528	-0.3167081	0	0	0.04378017	-0.03757777
27.08088	-0.2120528	-0.3167081	0	0	0	0
27.09745	-0.2121031	-0.3166649	-0.003037545	0.002605666	-0.09167328	0.07863916
27.11401	-0.2121031	-0.3166649	0	0	0.09168912	-0.07865275
27.13058	-0.2121031	-0.3166649	0	0	0	0
27.14715	-0.2121283	-0.3166433	-0.001518248	0.001302383	-0.04582345	0.03930826
27.16371	-0.2121283	-0.3166433	0	0	0.04582081	-0.039306
27.18028	-0.2121283	-0.3166433	0	0	0	0
27.19798	-0.2121283	-0.3166433	0	0	0	0
27.21455	-0.2121283	-0.3166433	0	0	0	0
27.23201	-0.2121283	-0.3166433	0	0	0	0
27.2483	-0.2121031	-0.3166218	0.001543661	0.001324184	0.04573481	0.03923223
27.26508	-0.2121031	-0.3166218	0	0	-0.04667915	-0.04004231
27.28144	-0.2121031	-0.3166218	0	0	0	0
27.29801	-0.212078	-0.3166002	0.001518248	0.001302383	0.04611012	0.03955418
27.31458	-0.212078	-0.3166002	0	0	-0.04581553	-0.03930148
27.33114	-0.212078	-0.3166002	0	0	0	0
27.34771	-0.2120528	-0.3165786	0.001518772	0.001304633	0.04584456	0.03938069
27.36427	-0.2120528	-0.3165786	0	0	-0.04584192	-0.03937842
27.38084	-0.2120528	-0.3165786	0	0	0	0
27.39741	-0.2120528	-0.3165786	0	0	0	0
27.41397	-0.2120528	-0.3165786	0	0	0	0
27.43077	-0.2120528	-0.3165786	0	0	0	0
27.44711	-0.212078	-0.316557	-0.001539157	0.00132032	-0.04644919	0.03984504
27.46392	-0.212078	-0.316557	0	0	0.04642781	-0.0398267
27.48024	-0.212078	-0.316557	0	0	0	0
27.49761	-0.212078	-0.316557	0	0	0	0
27.51337	-0.212078	-0.316557	0	0	0	0
27.52994	-0.212078	-0.316557	0	0	0	0
27.54687	-0.2120528	-0.3165354	0.00148625	0.001274935	0.04437743	0.03806784
27.56308	-0.2120528	-0.3165354	0	0	-0.04485513	-0.03847762
27.57965	-0.2120528	-0.3165354	0	0	0	0
27.59621	-0.2120528	-0.3165354	0	0	0	0
27.61278	-0.2120528	-0.3165354	0	0	0	0
27.62934	-0.2120528	-0.3165354	0	0	0	0
27.64591	-0.2119271	-0.3164707	0.00759034	0.00390715	0.2290769	0.117918
27.66248	-0.2119271	-0.3164707	0	0	-0.2290901	-0.1179248
27.67904	-0.2119271	-0.3164707	0	0	0	0
27.69561	-0.2117007	-0.3163628	0.01366423	0.006510117	0.4123873	0.1964757
27.71224	-0.2117007	-0.3163628	0	0	-0.4116054	-0.1961032
27.72874	-0.2117007	-0.3163628	0	0	0	0
27.74531	-0.2114995	-0.3162765	0.01214968	0.005210733	0.3674395	0.1575868
27.76188	-0.2114995	-0.3162765	0	0	-0.3666991	-0.1572693
27.77858	-0.2114995	-0.3162765	0	0	0	0
27.79502	-0.2110969	-0.3159313	0.02448817	0.02099893	0.7389269	0.6336395
27.81157	-0.2110969	-0.3159313	0	0	-0.7421732	-0.6364232
27.82817	-0.2110969	-0.3159313	0	0	0	0
27.84471	-0.199596	-0.3061654	0.6956388	0.5906964	20.99442	17.82725
27.8618	-0.199596	-0.3061654	0	0	-20.69071	-17.56936
27.87784	-0.199596	-0.3061654	0	0	0	0
27.89441	-0.179571	-0.2893611	1.208714	1.014314	37.06149	31.10079
27.91097	-0.179571	-0.2893611	0	0	-36.48116	-30.61381
27.92754	-0.179571	-0.2893611	0	0	0	0
27.94411	-0.1495076	-0.2646996	1.81463	1.488566	54.76564	44.92502
27.96068	-0.1495076	-0.2646996	0	0	-54.76564	-44.92502
27.97734	-0.1495076	-0.2646996	0	0	0	0
27.99381	-0.133646	-0.2517999	0.9629521	0.7831407	29.06363	23.63659
28.01038	-0.133646	-0.2517999	0	0	-29.14584	-23.70346
28.02694	-0.133646	-0.2517999	0	0	0	0
28.04351	-0.1333616	-0.2515707	0.01716303	0.01383332	0.5179814	0.4174905
28.06008	-0.1333616	-0.2515707	0	0	-0.5179814	-0.4174905
28.07679	-0.1333616	-0.2515707	0	0	0	0
28.09321	-0.1241218	-0.2441048	0.5627046	0.4546714	16.98246	13.72201
28.10978	-0.1241218	-0.2441048	0	0	-17.05807	-13.7831
28.12635	-0.1241218	-0.2441048	0	0	0	0
28.14291	-0.1126006	-0.2347446	0.6954182	0.5649843	20.98776	17.05126
28.15948	-0.1126006	-0.2347446	0	0	-20.98776	-17.05126
28.17605	-0.1126006	-0.2347446	0	0	0	0
28.19262	-0.09575886	-0.2210927	1.016572	0.824029	30.68021	24.86924
28.20918	-0.09575886	-0.2210927	0	0	-30.68021	-24.86924
28.22575	-0.09575886	-0.2210927	0	0	0	0
28.24232	-0.0597446	-0.1931021	2.173825	1.689517	65.60616	50.98973
28.25888	-0.0597446	-0.1931021	0	0	-65.60616	-50.98973
28.27625	-0.0597446	-0.1931021	0	0	0	0
28.29202	-0.04292099	-0.1802786	1.067201	0.8134566	32.21191	24.553
28.30858	-0.04292099	-0.1802786	0	0	-33.00618	-25.15842
28.32516	-0.04292099	-0.1802786	0	0	0	0
28.34171	-0.04134485	-0.1791915	0.09518009	0.06564678	2.872871	1.981452
28.35829	-0.04134485	-0.1791915	0	0	-2.872541	-1.981224
28.37486	-0.04134485	-0.1791915	0	0	0	0
28.39142	-0.04121349	-0.1790908	0.007929665	0.00607459	0.2393453	0.1833526
28.40799	-0.04121349	-0.1790908	0	0	-0.2393315	-0.183342
28.42463	-0.04121349	-0.1790908	0	0	0	0
28.44112	-0.03732476	-0.1759535	0.2358918	0.190313	7.119637	5.743988
28.45795	-0.03732476	-0.1759535	0	0	-7.079697	-5.711764
28.47486	-0.03732476	-0.1759535	0	0	0	0
28.49091	-0.005236794	-0.1515657	1.998496	1.518914	60.63935	46.08765
28.50742	-0.005236794	-0.1515657	0	0	-61.36383	-46.63827
28.52438	-0.005236794	-0.1515657	0	0	0	0
28.54051	0.009447088	-0.1405748	0.909998	0.6811327	27.50179	20.58507
28.55709	0.009447088	-0.1405748	0	0	-27.82092	-20.82394
28.57365	0.009447088	-0.1405748	0	0	0	0
28.59021	0.009447088	-0.140654	0	-0.004780354	0	-0.1442963
28.6068	0.009447088	-0.140654	0	0	0	0.1442299
28.62335	0.009447088	-0.140654	0	0	0	0
28.63991	0.009420774	-0.1406342	-0.00158884	0.001194864	-0.04797614	0.03607975
28.65655	0.009420774	-0.1406342	0	0	0.04786037	-0.03599268
28.67348	0.009420774	-0.1406342	0	0	0	0
28.68962	0.009289207	-0.1407332	-0.008154511	-0.006134369	-0.2466147	-0.1855201
28.70618	0.009289207	-0.1407332	0	0	0.249362	0.1875868
28.72303	0.009289207	-0.1407332	0	0	0	0
28.74214	0.009289207	-0.1407332	0	0	0	0
28.75916	0.009289207	-0.1407332	0	0	0	0
28.77541	0.009289207	-0.1407332	0	0	0	0
28.79186	0.009289207	-0.1407332	0	0	0	0
28.80841	0.009289207	-0.1407332	0	0	0	0
28.82498	0.009289207	-0.1407332	0	0	0	0
28.84154	0.009289207	-0.1407332	0	0	0	0
28.85909	0.009289207	-0.1407332	0	0	0	0
28.87507	0.009289207	-0.1407332	0	0	0	0
28.89124	0.00931552	-0.140753	0.001627009	-0.001223611	0.05059439	-0.0380501
28.90781	0.00931552	-0.140753	0	0	-0.0496896	0.03736965
28.92438	0.00931552	-0.140753	0	0	0	0
28.94094	0.00931552	-0.140753	0	0	0	0
28.95751	0.00931552	-0.140753	0	0	0	0
28.97408	0.00931552	-0.140753	0	0	0	0
28.99064	0.00923658	-0.1408124	-0.004765366	-0.003584665	-0.1438273	-0.1081916
29.00774	0.00923658	-0.1408124	0	0	0.1415779	0.1064995
29.02378	0.00923658	-0.1408124	0	0	0	0
29.04034	0.008999757	-0.1409905	-0.01429627	-0.01075579	-0.4384535	-0.3298703
29.05691	0.008999757	-0.1409905	0	0	0.4314622	0.3246105
29.07347	0.008999757	-0.1409905	0	0	0	0
29.09004	0.008894502	-0.1410697	-0.006354685	-0.004780703	-0.19184	-0.1443235
29.10661	0.008894502	-0.1410697	0	0	0.1917737	0.1442736
29.12318	0.008894502	-0.1410697	0	0	0	0
29.14009	0.008841875	-0.1411093	-0.003112442	-0.002342428	-0.09297567	-0.06997362
29.15631	0.008841875	-0.1411093	0	0	0.09393909	0.07069869
29.17317	0.008841875	-0.1411093	0	0	0	0
29.18944	0.008762933	-0.1412083	-0.004852642	-0.006084938	-0.1464867	-0.1836861
29.20627	0.008762933	-0.1412083	0	0	0.1466218	0.1838555
29.22257	0.008762933	-0.1412083	0	0	0	0
29.23914	0.008578737	-0.1413469	-0.0111181	-0.008365653	-0.3381924	-0.2544681
29.25571	0.008578737	-0.1413469	0	0	0.3355448	0.2524759
29.2729	0.008578737	-0.1413469	0	0	0	0
29.28884	0.008552423	-0.1413667	-0.001651273	-0.001241771	-0.04984126	-0.03748105
29.30541	0.008552423	-0.1413667	0	0	0.05080053	0.03820243
29.32198	0.008552423	-0.1413667	0	0	0	0
29.33854	0.008552423	-0.1413667	0	0	0	0
29.35511	0.008552423	-0.1413667	0	0	0	0
29.37196	0.008552423	-0.1413667	0	0	0	0
29.38824	0.008499796	-0.1414063	-0.003233161	-0.002433282	-0.09758823	-0.07344504
29.40481	0.008499796	-0.1414063	0	0	0.09843259	0.0740805
29.42138	0.008499796	-0.1414063	0	0	0	0
29.43794	0.008473481	-0.1414261	-0.001588713	-0.001195626	-0.04795575	-0.03609028
29.45451	0.008473481	-0.1414261	0	0	0.04795023	0.03608613
29.47108	0.008473481	-0.1414261	0	0	0	0
29.48764	0.008420854	-0.1414261	-0.003176583	0	-0.09586946	0
29.50421	0.008420854	-0.1414261	0	0	0.09586946	0
29.52143	0.008420854	-0.1414261	0	0	0	0
29.53734	0.008420854	-0.1414261	0	0	0	0
29.55391	0.008420854	-0.1414261	0	0	0	0
29.57048	0.008420854	-0.1414261	0	0	0	0
29.58704	0.008394539	-0.1414459	-0.001588713	-0.001195626	-0.04795299	-0.03608821
29.60361	0.008394539	-0.1414459	0	0	0.04795023	0.03608613
29.62033	0.008394539	-0.1414459	0	0	0	0
29.63674	0.008289284	-0.1415251	-0.00641377	-0.004826062	-0.1935903	-0.1456676
29.65331	0.008289284	-0.1415251	0	0	0.1944747	0.1463331
29.67075	0.008289284	-0.1415251	0	0	0	0
29.68803	0.008210341	-0.1416241	-0.004567782	-0.005728534	-0.1315626	-0.1649949
29.7046	0.008210341	-0.1416241	0	0	0.1349278	0.1692153
29.72134	0.008210341	-0.1416241	0	0	0	0
29.73962	0.008157713	-0.1416637	-0.002878694	-0.002166471	-0.08219501	-0.06185899
29.75619	0.008157713	-0.1416637	0	0	0.08259536	0.06216028
29.77276	0.008157713	-0.1416637	0	0	0	0
29.78932	0.007973515	-0.1418024	-0.01112333	-0.008371307	-0.3357414	-0.2526756
29.80589	0.007973515	-0.1418024	0	0	0.3357608	0.2526902
29.82308	0.007973515	-0.1418024	0	0	0	0
29.83907	0.007736688	-0.1419806	-0.01481695	-0.01115099	-0.4466621	-0.3361506
29.85559	0.007736688	-0.1419806	0	0	0.455782	0.343014
29.87262	0.007736688	-0.1419806	0	0	0	0
29.88873	0.007736688	-0.1419806	0	0	0	0
29.90529	0.007736688	-0.1419806	0	0	0	0
29.9221	0.007736688	-0.1419806	0	0	0	0
29.93843	0.007710373	-0.1420004	-0.001611699	-0.001212945	-0.04864397	-0.03660887
29.95499	0.007710373	-0.1420004	0	0	0.04899654	0.03687422
29.97156	0.007710373	-0.1420004	0	0	0	0
29.98812	0.007684059	-0.1420202	-0.001588685	-0.001196525	-0.04795213	-0.03611536
30.00469	0.007684059	-0.1420202	0	0	0.04794937	0.03611328
30.02139	0.007684059	-0.1420202	0	0	0	0
30.03782	0.007684059	-0.1420202	0	0	0	0
30.05461	0.007684059	-0.1420202	0	0	0	0
30.07096	0.007684059	-0.1420202	0	0	0	0
30.08753	0.007631431	-0.1420598	-0.003176667	-0.002390701	-0.0965053	-0.0726281
30.1041	0.007631431	-0.1420598	0	0	0.095872	0.07215149
30.12066	0.007631431	-0.1420598	0	0	0	0
30.13723	0.007605116	-0.14204	-0.001588713	0.001195626	-0.04795299	0.03608821
30.15386	0.007605116	-0.14204	0	0	0.04785381	-0.03601357
30.17093	0.007605116	-0.14204	0	0	0	0
30.18693	0.007605116	-0.14204	0	0	0	0
30.2035	0.007605116	-0.14204	0	0	0	0
30.22006	0.007605116	-0.14204	0	0	0	0
30.23663	0.007605116	-0.14204	0	0	0	0
30.2532	0.007605116	-0.14204	0	0	0	0
30.26995	0.007605116	-0.14204	0	0	0	0
30.28638	0.007605116	-0.14204	0	0	0	0
30.3029	0.007605116	-0.14204	0	0	0	0
30.31955	0.007605116	-0.14204	0	0	0	0
30.33603	0.007605116	-0.14204	0	0	0	0
30.3526	0.007605116	-0.14204	0	0	0	0
30.36945	0.007605116	-0.14204	0	0	0	0
30.38573	0.007605116	-0.1420796	0	-0.002432996	0	-0.07343221
30.4023	0.007605116	-0.1420796	0	0	0	0.07406752
30.41937	0.007605116	-0.1420796	0	0	0	0
30.43543	0.007605116	-0.1420796	0	0	0	0
30.452	0.007605116	-0.1420796	0	0	0	0
30.46857	0.007605116	-0.1420796	0	0	0	0
30.48513	0.007578802	-0.1420994	-0.001588685	-0.001195626	-0.04795213	-0.03608821
30.5017	0.007578802	-0.1420994	0	0	0.04794661	0.03608405
30.51827	0.007578802	-0.1420994	0	0	0	0
30.53483	0.007578802	-0.1420994	0	0	0	0
30.5514	0.007578802	-0.1420994	0	0	0	0
30.5686	0.007578802	-0.1420994	0	0	0	0
30.58453	0.007552488	-0.1421192	-0.001651866	-0.001243153	-0.04985916	-0.03752275
30.6011	0.007552488	-0.1421192	0	0	0.05082773	0.03825166
30.61767	0.007552488	-0.1421192	0	0	0	0
30.63428	0.007552488	-0.1421192	0	0	0	0
30.6508	0.007552488	-0.1421192	0	0	0	0
30.66737	0.007552488	-0.1421192	0	0	0	0
30.6888	0.007552488	-0.1421192	0	0	0	0
30.70545	0.007552488	-0.1421192	0	0	0	0
30.72194	0.007552488	-0.1421192	0	0	0	0
30.7385	0.007552488	-0.1421192	0	0	0	0
30.75568	0.007552488	-0.1421192	0	0	0	0
30.77164	0.007552488	-0.1421192	0	0	0	0
30.7882	0.007552488	-0.1421192	0	0	0	0
30.80484	0.007552488	-0.1421192	0	0	0	0
30.82133	0.007552488	-0.1421192	0	0	0	0
30.8379	0.007552488	-0.1421192	0	0	0	0
30.85447	0.007552488	-0.1421192	0	0	0	0
30.87104	0.007552488	-0.1421192	0	0	0	0
30.88761	0.007552488	-0.1421192	0	0	0	0
30.90417	0.007552488	-0.1421192	0	0	0	0
30.92074	0.007526174	-0.142139	-0.001588685	-0.001196525	-0.04795489	-0.03611744
30.93734	0.007526174	-0.142139	0	0	0.04790525	0.03608005
30.95387	0.007526174	-0.142139	0	0	0	0
30.97044	0.007526174	-0.142139	0	0	0	0
30.98701	0.007526174	-0.142139	0	0	0	0
31.00357	0.007526174	-0.142139	0	0	0	0
31.02014	0.007526174	-0.142139	0	0	0	0
31.03671	0.007526174	-0.142139	0	0	0	0
31.05327	0.007526174	-0.142139	0	0	0	0
31.06984	0.007526174	-0.142139	0	0	0	0
31.08654	0.007526174	-0.142139	0	0	0	0
31.1032	0.007526174	-0.142139	0	0	0	0
31.11954	0.007526174	-0.142139	0	0	0	0
31.13611	0.007526174	-0.142139	0	0	0	0
31.15314	0.007526174	-0.142139	0	0	0	0
31.16924	0.007526174	-0.142139	0	0	0	0
31.18581	0.007526174	-0.142139	0	0	0	0
31.20238	0.007526174	-0.142139	0	0	0	0
31.21899	0.007499859	-0.1421192	-0.001583971	0.001192954	-0.04773839	0.03595374
31.23551	0.007499859	-0.1421192	0	0	0.04780159	-0.03600134
31.25276	0.007499859	-0.1421192	0	0	0	0
31.26864	0.007526174	-0.1420994	0.001657025	0.001247035	0.05001198	0.03763776
31.28521	0.007526174	-0.1420994	0	0	-0.05106437	-0.03842976
31.30226	0.007526174	-0.1420994	0	0	0	0
31.31835	0.007526174	-0.1420994	0	0	0	0
31.50325	0.007526174	-0.1420994	0	0	0	0
31.53836	0.007526174	-0.1420994	0	0	0	0
31.55682	0.007499859	-0.1421192	-0.001426131	-0.00107327	-0.02662286	-0.0200357
31.57339	0.007499859	-0.1421192	0	0	0.0407157	0.03064161
31.58995	0.007499859	-0.1421192	0	0	0	0
31.60696	0.007499859	-0.1421192	0	0	0	0
31.62337	0.007499859	-0.1421192	0	0	0	0
31.63966	0.007499859	-0.1421192	0	0	0	0
31.65622	0.007499859	-0.1421192	0	0	0	0
31.67283	0.007499859	-0.1421192	0	0	0	0
31.68936	0.007499859	-0.1421192	0	0	0	0
31.70592	0.007499859	-0.1421192	0	0	0	0
31.72249	0.007499859	-0.1421192	0	0	0	0
31.73906	0.007499859	-0.1421192	0	0	0	0
31.76073	0.007499859	-0.1421192	0	0	0	0
31.7773	0.007499859	-0.1421192	0	0	0	0
31.79386	0.007499859	-0.1421192	0	0	0	0
31.81043	0.007499859	-0.1421192	0	0	0	0
31.82699	0.007499859	-0.1421192	0	0	0	0
31.84356	0.007499859	-0.1421192	0	0	0	0
31.86013	0.007499859	-0.1421192	0	0	0	0
31.8767	0.007499859	-0.1421192	0	0	0	0
31.89336	0.007447231	-0.1420796	-0.003158124	0.002376745	-0.09503338	0.07152035
31.90995	0.007447231	-0.1420796	0	0	0.09498431	-0.07148343
31.92646	0.007447231	-0.1420796	0	0	0	0
31.94297	0.007368288	-0.1420202	-0.004781529	0.003598479	-0.144807	0.1089787
31.95953	0.007368288	-0.1420202	0	0	0.1445815	-0.108809
31.9761	0.007368288	-0.1420202	0	0	0	0
31.99286	0.007289344	-0.1419608	-0.004709173	0.003544914	-0.1412773	0.106349
32.00923	0.007289344	-0.1419608	0	0	0.1421231	-0.1069857
32.02592	0.007289344	-0.1419608	0	0	0	0
32.04236	0.00552626	-0.1427729	-0.1072597	-0.04940785	-3.237478	-1.491304
32.05893	0.00552626	-0.1427729	0	0	3.24945	1.496819
32.0755	0.00552626	-0.1427729	0	0	0	0
32.09207	0.001763156	-0.1413667	-0.2271414	0.08487976	-6.85514	2.561676
32.10863	0.001763156	-0.1413667	0	0	6.85514	-2.561676
32.12522	0.001763156	-0.1413667	0	0	0	0
32.1418	-0.01715621	-0.1272508	-1.14145	0.8516452	-34.42128	25.68201
32.15834	-0.01715621	-0.1272508	0	0	34.46886	-25.71751
32.1749	-0.01715621	-0.1272508	0	0	0	0
32.19147	-0.05651869	-0.1008143	-2.376471	1.596076	-71.73029	48.17523
32.20803	-0.05651869	-0.1008143	0	0	71.73029	-48.17523
32.2246	-0.05651869	-0.1008143	0	0	0	0
32.24117	-0.1436098	-0.08959713	-5.256829	0.6770715	-158.6514	20.43406
32.25774	-0.1436098	-0.08959713	0	0	158.6514	-20.43406
32.2743	-0.1436098	-0.08959713	0	0	0	0
32.29087	-0.2027794	-0.08374483	-3.571484	0.3532453	-107.7876	10.66097
32.30744	-0.2027794	-0.08374483	0	0	107.7876	-10.66097
32.32401	-0.2027794	-0.08374483	0	0	0	0
32.34057	-0.2077482	-0.08051405	-0.2999878	0.1950552	-9.054691	5.887455
32.35714	-0.2077482	-0.08051405	0	0	9.053649	-5.886778
32.37371	-0.2077482	-0.08051405	0	0	0	0
32.44024	-0.207723	-0.08061072	0.0003787322	-0.001453001	0.004557583	-0.01748511
32.4587	-0.207723	-0.08061072	0	0	-0.004456121	0.01709585
32.48374	-0.207723	-0.08061072	0	0	0	0
32.50031	-0.207723	-0.08061072	0	0	0	0
32.51688	-0.207597	-0.08074608	0.00760473	-0.008170025	0.2294848	-0.2465435
32.53344	-0.207597	-0.08074608	0	0	-0.2295112	0.2465719
32.55009	-0.207597	-0.08074608	0	0	0	0
32.56657	-0.2072694	-0.08095878	0.01987847	-0.0129069	0.6000717	-0.3896208
32.58314	-0.2072694	-0.08095878	0	0	-0.6015263	0.3905652
32.5997	-0.2072694	-0.08095878	0	0	0	0
32.61627	-0.2072946	-0.08093944	-0.001520946	0.001167018	-0.04590224	0.03522068
32.63284	-0.2072946	-0.08093944	0	0	0.04590224	-0.03522068
32.64941	-0.2072946	-0.08093944	0	0	0	0
32.66597	-0.2072694	-0.08095878	0.001520946	-0.001167018	0.04590224	-0.03522068
32.683	-0.2072694	-0.08095878	0	0	-0.04527673	0.03474072
32.70134	-0.2072694	-0.08095878	0	0	0	0
32.72294	-0.2072946	-0.08097812	-0.001166426	-0.0008953403	-0.02920175	-0.02241506
32.73951	-0.2072946	-0.08097812	0	0	0.03055881	0.02345674
32.75608	-0.2072946	-0.08097812	0	0	0	0
32.77265	-0.2072946	-0.08097812	0	0	0	0
32.78921	-0.2072946	-0.08097812	0	0	0	0
32.80577	-0.2072946	-0.08097812	0	0	0	0
32.82262	-0.2072946	-0.08097812	0	0	0	0
32.83891	-0.2072946	-0.08097812	0	0	0	0
32.85547	-0.2072946	-0.08097812	0	0	0	0
32.87204	-0.2072946	-0.08097812	0	0	0	0
32.88879	-0.2072946	-0.08097812	0	0	0	0
32.90517	-0.2071938	-0.08105547	0.006152685	-0.004721151	0.1857312	-0.1425174
32.92176	-0.2071938	-0.08105547	0	0	-0.1865906	0.1431769
32.93848	-0.2071938	-0.08105547	0	0	0	0
32.95487	-0.2071182	-0.08115216	0.00461152	-0.005897547	0.1392722	-0.1781113
32.97175	-0.2071182	-0.08115216	0	0	-0.1386015	0.1772537
32.98801	-0.2071182	-0.08115216	0	0	0	0
33.00457	-0.2071182	-0.08115216	0	0	0	0
33.02114	-0.2071182	-0.08115216	0	0	0	0
33.03771	-0.2071182	-0.08115216	0	0	0	0
33.05428	-0.207093	-0.08117151	0.001520946	-0.001167468	0.04590224	-0.03523425
33.07084	-0.207093	-0.08117151	0	0	-0.04590224	0.03523425
33.08741	-0.207093	-0.08117151	0	0	0	0
33.10397	-0.2071182	-0.08119084	-0.001521296	-0.001167287	-0.0459181	-0.03523284
33.12054	-0.2071182	-0.08119084	0	0	0.0459181	0.03523284
33.13761	-0.2071182	-0.08119084	0	0	0	0
33.15367	-0.207093	-0.08121018	0.001568995	-0.00120435	0.04735781	-0.03635154
33.17024	-0.207093	-0.08121018	0	0	-0.04808307	0.03690824
33.18681	-0.207093	-0.08121018	0	0	0	0
33.20337	-0.2070678	-0.08122952	0.001522196	-0.001167737	0.04594526	-0.03524642
33.21994	-0.2070678	-0.08122952	0	0	-0.04594526	0.03524642
33.23661	-0.2070678	-0.08122952	0	0	0	0
33.25307	-0.2069418	-0.08132622	0.007657662	-0.005876126	0.2311353	-0.1773623
33.26964	-0.2069418	-0.08132622	0	0	-0.2318829	0.1779359
33.28628	-0.2069418	-0.08132622	0	0	0	0
33.30278	-0.2068158	-0.08142292	0.007639953	-0.005862537	0.2305477	-0.1769113
33.31934	-0.2068158	-0.08142292	0	0	-0.2311064	0.17734
33.33618	-0.2068158	-0.08142292	0	0	0	0
33.35247	-0.2067149	-0.08146161	0.006189088	-0.002374297	0.186787	-0.07165644
33.36904	-0.2067149	-0.08146161	0	0	-0.1883483	0.07225538
33.3856	-0.2067149	-0.08146161	0	0	0	0
33.40217	-0.2060342	-0.0818678	0.04108623	-0.02451772	1.240128	-0.7400315
33.41877	-0.2060342	-0.0818678	0	0	-1.238701	0.7391804
33.43559	-0.2060342	-0.0818678	0	0	0	0
33.45194	-0.2000763	-0.08628185	0.36449	-0.270039	10.99021	-8.142295
33.46844	-0.2000763	-0.08628185	0	0	-11.09614	8.220777
33.48501	-0.2000763	-0.08628185	0	0	0	0
33.50172	-0.1831862	-0.09898366	1.010645	-0.7600327	30.36848	-22.83792
33.51814	-0.1831862	-0.09898366	0	0	-30.50485	22.94047
33.5352	-0.1831862	-0.09898366	0	0	0	0
33.55127	-0.164167	-0.1127452	1.183424	-0.8562824	35.71992	-25.84563
33.56784	-0.164167	-0.1127452	0	0	-36.25424	26.23224
33.58562	-0.164167	-0.1127452	0	0	0	0
33.6022	-0.1412117	-0.1272508	1.385266	-0.8753557	40.3219	-25.4796
33.61876	-0.1412117	-0.1272508	0	0	-41.80259	26.41525
33.63546	-0.1412117	-0.1272508	0	0	0	0
33.6519	-0.1080512	-0.1472546	2.017365	-1.216957	60.88421	-36.72783
33.66851	-0.1080512	-0.1472546	0	0	-61.03881	36.82109
33.68503	-0.1080512	-0.1472546	0	0	0	0
33.7016	-0.07559253	-0.1392886	1.95921	0.4808267	59.21771	14.53313
33.71865	-0.07559253	-0.1392886	0	0	-58.27039	-14.30064
33.73475	-0.07559253	-0.1392886	0	0	0	0
33.7513	-0.06910034	-0.1346243	0.3924115	0.2819273	12.02014	8.635844
33.76786	-0.06910034	-0.1346243	0	0	-11.85119	-8.514464
33.78443	-0.06910034	-0.1346243	0	0	0	0
33.80113	-0.06946699	-0.1349007	-0.02195459	-0.01655293	-0.6599316	-0.4975636
33.81756	-0.06946699	-0.1349007	0	0	0.6626671	0.4996261
33.83413	-0.06946699	-0.1349007	0	0	0	0
33.8507	-0.0696765	-0.1350587	-0.01264271	-0.009533624	-0.3815577	-0.2877254
33.86735	-0.0696765	-0.1350587	0	0	0.38055	0.2869655
33.88383	-0.0696765	-0.1350587	0	0	0	0
33.90039	-0.06970268	-0.135039	-0.001581123	0.001192027	-0.04784507	0.03607096
33.91735	-0.06970268	-0.135039	0	0	0.04717526	-0.03556598
33.93353	-0.06970268	-0.135039	0	0	0	0
33.9501	-0.06970268	-0.135039	0	0	0	0
33.96666	-0.06970268	-0.135039	0	0	0	0
33.98323	-0.06970268	-0.135039	0	0	0	0
33.9998	-0.06970268	-0.135039	0	0	0	0
34.01637	-0.06970268	-0.135039	0	0	0	0
34.03297	-0.06970268	-0.135039	0	0	0	0
34.0495	-0.0696765	-0.1350587	0.001585138	-0.001195055	0.04784508	-0.03607097
34.06606	-0.0696765	-0.1350587	0	0	-0.04790575	0.03611671
34.08263	-0.0696765	-0.1350587	0	0	0	0
34.09919	-0.06959794	-0.135118	0.004742918	-0.003576981	0.143158	-0.1079659
34.11576	-0.06959794	-0.135118	0	0	-0.1431416	0.1079535
34.13233	-0.06959794	-0.135118	0	0	0	0
34.1489	-0.06896938	-0.135592	0.03793956	-0.02861195	1.145018	-0.8635105
34.16547	-0.06896938	-0.135592	0	0	-1.145018	0.8635105
34.18203	-0.06896938	-0.135592	0	0	0	0
34.1986	-0.04974839	-0.1501146	1.159914	-0.8763812	35.00225	-26.44619
34.21517	-0.04974839	-0.1501146	0	0	-35.00225	26.44619
34.23207	-0.04974839	-0.1501146	0	0	0	0
34.25438	-0.01655112	-0.1753507	1.487601	-1.130853	37.93809	-28.84001
34.27095	-0.01655112	-0.1753507	0	0	-38.25443	29.08048
34.28752	-0.01528828	-0.1763153	0.07622506	-0.05822408	2.300212	-1.757004
34.30409	-0.01528828	-0.1763153	0	0	-2.300477	1.757206
34.32066	-0.01528828	-0.1763153	0	0	0	0
34.33722	-0.01531459	-0.1762952	-0.001588432	0.001213618	-0.0479445	0.03663129
34.35381	-0.01531459	-0.1762952	0	0	0.04790589	-0.03660179
34.37035	-0.01531459	-0.1762952	0	0	0	0
34.38692	-0.01531459	-0.1762952	0	0	0	0
34.40349	-0.01531459	-0.1762952	0	0	0	0
34.42006	-0.01531459	-0.1762952	0	0	0	0
34.43662	-0.01536721	-0.176255	-0.003176077	0.002426678	-0.09585419	0.07323729
34.45319	-0.01536721	-0.176255	0	0	0.09585419	-0.07323729
34.46976	-0.01536721	-0.176255	0	0	0	0
34.49509	-0.01539352	-0.1762349	-0.001038544	0.0007928964	-0.02478363	0.01892153
34.51193	-0.01539352	-0.1762349	0	0	0.0246267	-0.01880172
34.52824	-0.01539352	-0.1762349	0	0	0	0
34.54497	-0.01539352	-0.1762349	0	0	0	0
34.56153	-0.01539352	-0.1762349	0	0	0	0
34.57794	-0.01541983	-0.1762148	-0.001603201	0.001224903	-0.04862544	0.03715156
34.59451	-0.01541983	-0.1762148	0	0	0.04860856	-0.03713866
34.61108	-0.01541983	-0.1762148	0	0	0	0
34.62767	-0.01547245	-0.1761746	-0.003170237	0.002422216	-0.0955899	0.07303536
34.64421	-0.01547245	-0.1761746	0	0	0.09567794	-0.07310263
34.66078	-0.01547245	-0.1761746	0	0	0	0
34.67735	-0.01557769	-0.1760942	-0.006352154	0.004852457	-0.1917084	0.1464474
34.69396	-0.01557769	-0.1760942	0	0	0.1914219	-0.1462286
34.71048	-0.01557769	-0.1760942	0	0	0	0
34.72704	-0.01557769	-0.1760942	0	0	0	0
34.74361	-0.01557769	-0.1760942	0	0	0	0
34.76028	-0.01557769	-0.1760942	0	0	0	0
34.77674	-0.01557769	-0.1760942	0	0	0	0
34.79331	-0.01557769	-0.1760942	0	0	0	0
34.81013	-0.01557769	-0.1760942	0	0	0	0
34.82644	-0.01557769	-0.1760942	0	0	0	0
34.84308	-0.01557769	-0.1760942	0	0	0	0
34.85957	-0.01557769	-0.1760942	0	0	0	0
34.87614	-0.015604	-0.1760741	-0.001588066	0.001213339	-0.04803855	0.03670315
34.8927	-0.015604	-0.1760741	0	0	0.04793346	-0.03662286
34.90928	-0.015604	-0.1760741	0	0	0	0
34.92584	-0.015604	-0.1760741	0	0	0	0
34.94241	-0.015604	-0.1760741	0	0	0	0
34.95909	-0.015604	-0.1760741	0	0	0	0
34.97554	-0.01565661	-0.1760339	-0.003198112	0.002442652	-0.09651921	0.07371937
34.99218	-0.01565661	-0.1760339	0	0	0.09664159	-0.07381285
35.00868	-0.01565661	-0.1760339	0	0	0	0
35.02524	-0.01570923	-0.1759937	-0.003176864	0.002427237	-0.09609924	0.07342321
35.04181	-0.01570923	-0.1759937	0	0	0.095889	-0.07326259
35.05838	-0.01570923	-0.1759937	0	0	0	0
35.07521	-0.01573554	-0.1759736	-0.001562412	0.001193822	-0.04677136	0.03573751
35.09192	-0.01573554	-0.1759736	0	0	0.04657457	-0.03558714
35.1081	-0.01573554	-0.1759736	0	0	0	0
35.12464	-0.01573554	-0.1759736	0	0	0	0
35.14121	-0.01573554	-0.1759736	0	0	0	0
35.15778	-0.01573554	-0.1759736	0	0	0	0
35.17435	-0.01578816	-0.1759334	-0.003176133	0.002425779	-0.09585588	0.07321014
35.19091	-0.01578816	-0.1759334	0	0	0.09585588	-0.07321014
35.20749	-0.01578816	-0.1759334	0	0	0	0
35.22404	-0.01594602	-0.1758128	-0.009536957	0.007284945	-0.2878591	0.2198854
35.24061	-0.01594602	-0.1758128	0	0	0.2879586	-0.2199614
35.25718	-0.01594602	-0.1758128	0	0	0	0
35.27374	-0.01597233	-0.1757927	-0.00158832	0.001213618	-0.0479411	0.03663129
35.29031	-0.01597233	-0.1757927	0	0	0.04793559	-0.03662708
35.30688	-0.01597233	-0.1757927	0	0	0	0
35.3245	-0.01597233	-0.1757927	0	0	0	0
35.34107	-0.01597233	-0.1757927	0	0	0	0
35.35764	-0.01597233	-0.1757927	0	0	0	0
35.37439	-0.01597233	-0.1757927	0	0	0	0
35.39077	-0.01597233	-0.1757927	0	0	0	0
35.40734	-0.01597233	-0.1757927	0	0	0	0
35.4239	-0.01599864	-0.1757726	-0.001588432	0.001212719	-0.0479445	0.03660414
35.44047	-0.01599864	-0.1757726	0	0	0.04793898	-0.03659993
35.45704	-0.01599864	-0.1757726	0	0	0	0
35.4736	-0.01599864	-0.1757726	0	0	0	0
35.49017	-0.01599864	-0.1757726	0	0	0	0
35.50674	-0.01599864	-0.1757726	0	0	0	0
35.5233	-0.01599864	-0.1757726	0	0	0	0
35.53994	-0.01599864	-0.1757726	0	0	0	0
35.55643	-0.01599864	-0.1757726	0	0	0	0
35.57341	-0.01599864	-0.1757726	0	0	0	0
35.58957	-0.01599864	-0.1757726	0	0	0	0
35.60613	-0.01599864	-0.1757726	0	0	0	0
35.6227	-0.01599864	-0.1757726	0	0	0	0
35.63927	-0.01599864	-0.1757726	0	0	0	0
35.65604	-0.01599864	-0.1757726	0	0	0	0
35.6724	-0.01602494	-0.1757525	-0.001607947	0.001228615	-0.04853911	0.03708823
35.68897	-0.01602494	-0.1757525	0	0	0.04882021	-0.03730301
35.70555	-0.01602494	-0.1757525	0	0	0	0
35.7221	-0.01602494	-0.1757525	0	0	0	0
35.73867	-0.01602494	-0.1757525	0	0	0	0
35.75555	-0.01602494	-0.1757525	0	0	0	0
35.7718	-0.01605125	-0.1757324	-0.001619008	0.001236062	-0.04887863	0.03731732
35.78883	-0.01605125	-0.1757324	0	0	0.04864334	-0.03713769
35.80493	-0.01605125	-0.1757324	0	0	0	0
35.8215	-0.01605125	-0.1757324	0	0	0	0
35.83807	-0.01605125	-0.1757324	0	0	0	0
35.85463	-0.01605125	-0.1757324	0	0	0	0
35.87119	-0.01607756	-0.1757123	-0.001588686	0.001213898	-0.04795767	0.03664395
35.88779	-0.01607756	-0.1757123	0	0	0.04790802	-0.03660601
35.90453	-0.01607756	-0.1757123	0	0	0	0
35.92089	-0.01607756	-0.1757123	0	0	0	0
35.93747	-0.01607756	-0.1757123	0	0	0	0
35.95403	-0.01607756	-0.1757123	0	0	0	0
35.97068	-0.01607756	-0.1757123	0	0	0	0
35.98716	-0.01607756	-0.1757123	0	0	0	0
36.00416	-0.01607756	-0.1757123	0	0	0	0
36.02029	-0.01607756	-0.1757123	0	0	0	0
36.03686	-0.01607756	-0.1757123	0	0	0	0
36.05342	-0.01607756	-0.1757123	0	0	0	0
36.06999	-0.01607756	-0.1757123	0	0	0	0
36.08656	-0.01607756	-0.1757123	0	0	0	0
36.10313	-0.01607756	-0.1757123	0	0	0	0
36.11969	-0.01610387	-0.1756922	-0.001588066	0.001212439	-0.04792794	0.0365915
36.13626	-0.01610387	-0.1756922	0	0	0.04792794	-0.0365915
36.15283	-0.01610387	-0.1756922	0	0	0	0
36.1694	-0.01613018	-0.1756721	-0.001587954	0.001213339	-0.04792455	0.03661865
36.18596	-0.01613018	-0.1756721	0	0	0.04792455	-0.03661865
36.20253	-0.01613018	-0.1756721	0	0	0	0
36.22419	-0.01613018	-0.1756721	0	0	0	0
36.24076	-0.01613018	-0.1756721	0	0	0	0
36.25733	-0.01613018	-0.1756721	0	0	0	0
36.2739	-0.01613018	-0.1756721	0	0	0	0
36.29046	-0.01613018	-0.1756721	0	0	0	0
36.30703	-0.01613018	-0.1756721	0	0	0	0
36.32359	-0.01613018	-0.1756721	0	0	0	0
36.34016	-0.01613018	-0.1756721	0	0	0	0
36.35673	-0.01613018	-0.1756721	0	0	0	0
36.37329	-0.01613018	-0.1756721	0	0	0	0
36.38986	-0.01613018	-0.1756721	0	0	0	0
36.40643	-0.01613018	-0.1756721	0	0	0	0
36.42299	-0.01613018	-0.1756721	0	0	0	0
36.43956	-0.01613018	-0.1756721	0	0	0	0
36.45612	-0.01610387	-0.1756521	0.00158832	0.001212719	0.0479411	0.03660414
36.4728	-0.01610387	-0.1756521	0	0	-0.04778704	-0.03648651
36.48926	-0.01610387	-0.1756521	0	0	0	0
36.50583	-0.01610387	-0.1756521	0	0	0	0
36.5224	-0.01610387	-0.1756521	0	0	0	0
36.53896	-0.01610387	-0.1756521	0	0	0	0
36.56297	-0.01613018	-0.175632	-0.001096072	0.000837497	-0.02701727	0.02064361
36.57954	-0.01613018	-0.175632	0	0	0.02701473	-0.02064167
36.5961	-0.01613018	-0.1756721	0	-0.002426337	0	-0.073227
36.61267	-0.01613018	-0.1756721	0	0	0	0.073227
36.62924	-0.01613018	-0.1756721	0	0	0	0
36.6458	-0.01613018	-0.175632	0	0.002426337	0	0.07323544
36.66237	-0.01613018	-0.175632	0	0	0	-0.07323544
36.67894	-0.01613018	-0.175632	0	0	0	0
36.69551	-0.01613018	-0.1756721	0	-0.002425779	0	-0.07320172
36.71207	-0.01613018	-0.1756721	0	0	0	0.07321014
36.72874	-0.01613018	-0.1756721	0	0	0	0
36.74521	-0.01613018	-0.1756721	0	0	0	0
36.76178	-0.01613018	-0.1756721	0	0	0	0
36.83242	-0.01613018	-0.1756721	0	0	0	0
36.85746	-0.01613018	-0.1756721	0	0	0	0
36.87402	-0.01613018	-0.1756721	0	0	0	0
36.89158	-0.01613018	-0.1756721	0	0	0	0
36.90815	-0.01613018	-0.1756721	0	0	0	0
36.92472	-0.01613018	-0.1756721	0	0	0	0
36.94821	-0.01613018	-0.1756721	0	0	0	0
36.96478	-0.01613018	-0.1756721	0	0	0	0
36.98135	-0.01613018	-0.1756721	0	0	0	0
36.99795	-0.01613018	-0.1756721	0	0	0	0
37.01448	-0.01613018	-0.1756721	0	0	0	0
37.03125	-0.01613018	-0.1756721	0	0	0	0
37.04762	-0.01613018	-0.1756721	0	0	0	0
37.06432	-0.01613018	-0.1756721	0	0	0	0
37.08075	-0.01613018	-0.1756721	0	0	0	0
37.09732	-0.01613018	-0.1756721	0	0	0	0
37.11388	-0.01613018	-0.1756721	0	0	0	0
37.13045	-0.01613018	-0.1756721	0	0	0	0
37.14702	-0.01613018	-0.1756721	0	0	0	0
37.16359	-0.01613018	-0.1756721	0	0	0	0
37.18015	-0.01613018	-0.1756721	0	0	0	0
37.19672	-0.01613018	-0.1756721	0	0	0	0
37.21391	-0.01613018	-0.1756721	0	0	0	0
37.22985	-0.01613018	-0.1756721	0	0	0	0
37.24642	-0.01613018	-0.1756721	0	0	0	0
37.26299	-0.01613018	-0.1756721	0	0	0	0
37.27955	-0.01613018	-0.1756721	0	0	0	0
37.29639	-0.01613018	-0.1756721	0	0	0	0
37.31306	-0.01613018	-0.1756721	0	0	0	0
37.32925	-0.01613018	-0.1757525	0	-0.0049659	0	-0.1511063
37.34627	-0.01613018	-0.1757525	0	0	0	0.149544
37.36306	-0.01613018	-0.1757525	0	0	0	0
37.37895	-0.01973428	-0.1787487	-0.2268412	-0.1885814	-6.941175	-5.770453
37.39552	-0.01973428	-0.1787487	0	0	6.98931	5.81047
37.41248	-0.01973428	-0.1787487	0	0	0	0
37.42904	-0.0401626	-0.1950473	-1.23334	-0.9840097	-36.79024	-29.35278
37.44522	-0.0401626	-0.1950473	0	0	37.67335	30.05736
37.46178	-0.0401626	-0.1950473	0	0	0	0
37.47835	-0.08377713	-0.229174	-2.633184	-2.060364	-79.47881	-62.18908
37.49492	-0.08377713	-0.229174	0	0	79.46967	62.18192
37.51171	-0.08377713	-0.229174	0	0	0	0
37.52805	-0.1457744	-0.2789967	-3.793698	-3.048725	-114.494	-92.0107
37.54462	-0.1457744	-0.2789967	0	0	115.2771	92.63997
37.56119	-0.1457744	-0.2789967	0	0	0	0
37.578	-0.1943573	-0.3196237	-2.889885	-2.416638	-86.57897	-72.40083
37.59432	-0.1943573	-0.3196237	0	0	87.2169	72.93429
37.61089	-0.1943573	-0.3196237	0	0	0	0
37.62968	-0.2001016	-0.3245374	-0.3056286	-0.2614325	-8.642795	-7.392985
37.64626	-0.2001016	-0.3245374	0	0	8.641862	7.392187
37.66282	-0.2001016	-0.3245374	0	0	0	0
37.67997	-0.2000763	-0.3245591	0.001474401	-0.001265013	0.04372727	-0.03751733
37.69703	-0.2000763	-0.3245591	0	0	-0.04309827	0.03697766
37.71311	-0.2000763	-0.3245591	0	0	0	0
37.72968	-0.200051	-0.3245807	0.001525443	-0.00130778	0.04672655	-0.0400592
37.74625	-0.200051	-0.3245807	0	0	-0.04603797	0.03946887
37.76291	-0.200051	-0.3245807	0	0	0	0
37.77938	-0.1999752	-0.3246458	0.004602664	-0.00394695	0.1389087	-0.1191192
37.79609	-0.1999752	-0.3246458	0	0	-0.1386852	0.1189275
37.81252	-0.1999752	-0.3246458	0	0	0	0
37.82908	-0.1998235	-0.3247758	0.009154459	-0.007852076	0.2774961	-0.2380174
37.84565	-0.1998235	-0.3247758	0	0	-0.2762821	0.2369761
37.86222	-0.1998235	-0.3247758	0	0	0	0
37.87878	-0.1997477	-0.3248409	0.004578128	-0.003925138	0.1381682	-0.1184609
37.89587	-0.1997477	-0.3248409	0	0	-0.1360536	0.1166479
37.91199	-0.1997477	-0.3248409	0	0	0	0
37.92849	-0.1997224	-0.3248625	0.001532146	-0.001313526	0.04697029	-0.04026816
37.94506	-0.1997224	-0.3248625	0	0	-0.04633629	0.03972462
37.96162	-0.1997224	-0.3248625	0	0	0	0
37.9786	-0.199242	-0.3252745	0.02829157	-0.02426421	0.8433552	-0.7233019
37.99476	-0.199242	-0.3252745	0	0	-0.8538413	0.7322953
38.01133	-0.199242	-0.3252745	0	0	0	0
38.02789	-0.1974209	-0.3268366	0.1099264	-0.09428786	3.317584	-2.845613
38.04446	-0.1974209	-0.3268366	0	0	-3.317584	2.845613
38.06103	-0.1974209	-0.3268366	0	0	0	0
38.07798	-0.1967629	-0.327401	0.03880413	-0.03328705	1.157518	-0.9929449
38.09416	-0.1967629	-0.327401	0	0	-1.171111	1.004605
38.11073	-0.1967629	-0.327401	0	0	0	0
38.12729	-0.196611	-0.3277485	0.009169161	-0.02097608	0.2767577	-0.6331321
38.14386	-0.196611	-0.3277485	0	0	-0.2767258	0.6330592
38.16043	-0.196611	-0.3277485	0	0	0	0
38.177	-0.1947879	-0.3296171	0.1100415	-0.1127911	3.321059	-3.404041
38.19356	-0.1947879	-0.3296171	0	0	-3.321441	3.404433
38.21013	-0.1947879	-0.3296171	0	0	0	0
38.22669	-0.1676995	-0.3530394	1.635438	-1.414097	49.36329	-42.68244
38.24326	-0.1676995	-0.3530394	0	0	-49.36329	42.68244
38.25983	-0.1676995	-0.3530394	0	0	0	0
38.27639	-0.126505	-0.3887852	2.486504	-2.157619	75.04284	-65.11707
38.29296	-0.126505	-0.3887852	0	0	-75.05148	65.12457
38.30953	-0.126505	-0.3887852	0	0	0	0
38.3261	-0.08887056	-0.4219275	2.271621	-2.000477	68.54976	-60.36755
38.34266	-0.08887056	-0.4219275	0	0	-68.55765	60.3745
38.35975	-0.08887056	-0.4219275	0	0	0	0
38.3758	-0.06275958	-0.4450902	1.627398	-1.443645	49.11497	-43.56928
38.39236	-0.06275958	-0.4450902	0	0	-49.90205	44.26749
38.40893	-0.06275958	-0.4450902	0	0	0	0
38.4255	-0.06147507	-0.446237	0.07755081	-0.06923473	2.340757	-2.089749
38.44206	-0.06147507	-0.446237	0	0	-2.340757	2.089749
38.45864	-0.06147507	-0.446237	0	0	0	0
38.48499	-0.0616848	-0.4460497	-0.00796112	0.007108855	-0.1854746	0.1656189
38.50156	-0.0616848	-0.4460497	0	0	0.1855075	-0.1656483
38.51901	-0.06171102	-0.4460263	-0.001501764	0.00134192	-0.04413434	0.03943679
38.53558	-0.06171102	-0.4460263	0	0	0.04413434	-0.03943679
38.55215	-0.06171102	-0.4460263	0	0	0	0
38.57545	-0.06176345	-0.4459795	-0.002249818	0.002009075	-0.05642713	0.0503891
38.59203	-0.06176345	-0.4459795	0	0	0.05642173	-0.05038428
38.60859	-0.06181588	-0.4459327	-0.00316489	0.002826028	-0.09550557	0.08527986
38.62516	-0.06181588	-0.4459327	0	0	0.09551657	-0.08528968
38.64173	-0.06181588	-0.4459327	0	0	0	0
38.65829	-0.06205181	-0.445722	-0.01424427	0.01271735	-0.4299425	0.3838547
38.67486	-0.06205181	-0.445722	0	0	0.429893	-0.3838105
38.6917	-0.06205181	-0.445722	0	0	0	0
38.70799	-0.06270715	-0.445137	-0.04021348	0.0358969	-1.213785	1.083495
38.72456	-0.06270715	-0.445137	0	0	1.223647	-1.092299
38.7415	-0.06270715	-0.445137	0	0	0	0
38.75835	-0.06386042	-0.444108	-0.06841418	0.06104322	-2.024423	1.806312
38.77426	-0.06386042	-0.444108	0	0	2.088305	-1.863311
38.79082	-0.06386042	-0.444108	0	0	0	0
38.80739	-0.06564239	-0.4426126	-0.1075852	0.09028458	-3.2473	2.725108
38.82396	-0.06564239	-0.4426126	0	0	3.246553	-2.72448
38.84052	-0.06564239	-0.4426126	0	0	0	0
38.85709	-0.06585202	-0.4425659	-0.01265281	0.002818832	-0.3819506	0.08509211
38.87366	-0.06585202	-0.4425659	0	0	0.3818627	-0.08507252
38.89027	-0.06585202	-0.4425659	0	0	0	0
38.90679	-0.06671663	-0.4419355	-0.05234465	0.03816578	-1.579947	1.151978
38.92336	-0.06671663	-0.4419355	0	0	1.582133	-1.153572
38.93992	-0.06671663	-0.4419355	0	0	0	0
38.95652	-0.08607626	-0.424855	-1.166401	1.029086	-35.16967	31.02931
38.97305	-0.08607626	-0.424855	0	0	35.20611	-31.06146
38.98962	-0.08607626	-0.424855	0	0	0	0
39.00625	-0.1064123	-0.4069646	-1.222981	1.075901	-36.84176	32.41105
39.02276	-0.1064123	-0.4069646	0	0	36.90538	-32.46701
39.03933	-0.1064123	-0.4069646	0	0	0	0
39.05589	-0.1108334	-0.4032297	-0.2668581	0.22544	-8.053794	6.803793
39.07246	-0.1108334	-0.4032297	0	0	8.053794	-6.803793
39.08903	-0.1108334	-0.4032297	0	0	0	0
39.10559	-0.1191176	-0.3960812	-0.5000355	0.4314828	-15.0911	13.02218
39.12216	-0.1191176	-0.3960812	0	0	15.0911	-13.02218
39.13873	-0.1191176	-0.3960812	0	0	0	0
39.15535	-0.1216075	-0.3939092	-0.1498414	0.1307123	-4.515463	3.93901
39.17186	-0.1216075	-0.3939092	0	0	4.522222	-3.944905
39.18869	-0.1216075	-0.3939092	0	0	0	0
39.20499	-0.1216594	-0.3939544	-0.003181313	-0.002773593	-0.09602327	-0.08371684
39.22156	-0.1216594	-0.3939544	0	0	0.09679226	0.08438727
39.23821	-0.1216594	-0.3939544	0	0	0	0
39.2547	-0.121789	-0.3941127	-0.007864933	-0.00960245	-0.2373641	-0.2898025
39.27127	-0.121789	-0.3941127	0	0	0.2379394	0.2905049
39.28783	-0.121789	-0.3941127	0	0	0	0
39.30444	-0.1219186	-0.3942257	-0.007805323	-0.006807677	-0.2352942	-0.2052198
39.32096	-0.1219186	-0.3942257	0	0	0.2355651	0.2054561
39.33755	-0.1219186	-0.3942257	0	0	0	0
39.3541	-0.1219964	-0.3943388	-0.004700017	-0.006832786	-0.1418468	-0.2062139
39.37067	-0.1219964	-0.3943388	0	0	0.1419285	0.2063327
39.38739	-0.1219964	-0.3943388	0	0	0	0
39.40379	-0.1221779	-0.3944519	-0.01106332	-0.006894986	-0.3339685	-0.208139
39.4204	-0.1221779	-0.3944519	0	0	0.335165	0.2088847
39.43694	-0.1221779	-0.3944519	0	0	0	0
39.45362	-0.1222816	-0.3945424	-0.00621526	-0.005420882	-0.1870815	-0.1631705
39.47043	-0.1222816	-0.3945424	0	0	0.1855687	0.161851
39.48693	-0.1222816	-0.3945424	0	0	0	0
39.50901	-0.1223334	-0.3945424	-0.002349084	0	-0.06089174	0
39.52557	-0.1223334	-0.3945424	0	0	0.06079555	0
39.54945	-0.1223594	-0.3945197	-0.001085451	0.0009472345	-0.02683622	0.02341902
39.56821	-0.1223594	-0.3945197	0	0	0.02545575	-0.02221433
39.58538	-0.1223594	-0.3945197	0	0	0	0
39.60135	-0.1223594	-0.3945197	0	0	0	0
39.6347	-0.1223594	-0.3945197	0	0	0	0
39.65127	-0.1223594	-0.3945197	0	0	0	0
39.66784	-0.1223594	-0.3945197	0	0	0	0
39.68447	-0.1223594	-0.3945197	0	0	0	0
39.70097	-0.1223594	-0.3945197	0	0	0	0
39.71759	-0.1223594	-0.3945197	0	0	0	0
39.7341	-0.1223594	-0.3945197	0	0	0	0
39.75067	-0.1223594	-0.3945197	0	0	0	0
39.76723	-0.1223594	-0.3945197	0	0	0	0
39.78386	-0.1223594	-0.3945197	0	0	0	0
39.80037	-0.1223594	-0.3945197	0	0	0	0
39.81707	-0.1223594	-0.3945197	0	0	0	0
39.8335	-0.1223594	-0.3945197	0	0	0	0
39.85011	-0.1223594	-0.3945197	0	0	0	0
39.86663	-0.1223594	-0.3945197	0	0	0	0
39.8832	-0.1223594	-0.3945197	0	0	0	0
39.89976	-0.1223594	-0.3945197	0	0	0	0
39.91689	-0.1223594	-0.3945197	0	0	0	0
39.9329	-0.1223594	-0.3945197	0	0	0	0
39.94946	-0.1223334	-0.3944971	0.001564569	0.001365344	0.04802603	0.04191061
39.96603	-0.1223334	-0.3944971	0	0	-0.04721878	-0.04120615
39.98296	-0.1223334	-0.3944971	0	0	0	0
39.99916	-0.1223853	-0.3944519	-0.003199116	0.002789916	-0.09656063	0.08420952
40.01582	-0.1223853	-0.3944519	0	0	0.09734522	-0.08489376
40.0323	-0.1223853	-0.3944519	0	0	0	0
40.04886	-0.1224112	-0.3944293	-0.001565379	0.001365658	-0.04737959	0.04133461
40.06543	-0.1224112	-0.3944293	0	0	0.04724867	-0.04122039
40.08199	-0.1224112	-0.3944293	0	0	0	0
40.09856	-0.1246659	-0.3923725	-0.1361259	0.1241795	-4.108761	3.748177
40.11513	-0.1246659	-0.3923725	0	0	4.108288	-3.747746
40.13169	-0.1246659	-0.3923725	0	0	0	0
40.14826	-0.1329221	-0.3847339	-0.4984598	0.4611696	-15.04528	13.91973
40.16483	-0.1329221	-0.3847339	0	0	15.04355	-13.91813
40.1814	-0.1329221	-0.3847339	0	0	0	0
40.19796	-0.1363849	-0.3812312	-0.2090608	0.2114737	-6.310195	6.383023
40.21453	-0.1363849	-0.3812312	0	0	6.309469	-6.382288
40.23109	-0.1363849	-0.3812312	0	0	0	0
40.24766	-0.1372371	-0.3800878	-0.05145508	0.06903321	-1.553275	2.083906
40.26423	-0.1372371	-0.3800878	0	0	1.552917	-2.083426
40.28125	-0.1372371	-0.3800878	0	0	0	0
40.30589	-0.1368756	-0.3797292	0.01467369	0.01455334	0.35219	0.3493014
40.32246	-0.1368756	-0.3797292	0	0	-0.3560695	-0.3531491
40.33908	-0.136669	-0.3793707	0.01243061	0.02156731	0.3745097	0.6497805
40.3556	-0.136669	-0.3793707	0	0	-0.3751565	-0.6509026
40.37216	-0.136669	-0.3793707	0	0	0	0
40.38873	-0.134473	-0.3771544	0.1325499	0.1337767	4.000823	4.037854
40.4053	-0.134473	-0.3771544	0	0	-4.000363	-4.037389
40.42186	-0.134473	-0.3771544	0	0	0	0
40.43843	-0.1259352	-0.3696106	0.5153408	0.455343	15.55302	13.74228
40.455	-0.1259352	-0.3696106	0	0	-15.55302	-13.74228
40.47156	-0.1259352	-0.3696106	0	0	0	0
40.48889	-0.1058659	-0.3523121	1.158314	0.9983917	34.17888	29.45997
40.50546	-0.1058659	-0.3523121	0	0	-34.17503	-29.45666
40.52202	-0.1058659	-0.3523121	0	0	0	0
40.53859	-0.07828704	-0.3291824	1.665045	1.396438	50.25695	42.14945
40.55515	-0.07828704	-0.3291824	0	0	-50.25695	-42.14945
40.57172	-0.07828704	-0.3291824	0	0	0	0
40.58928	-0.07200687	-0.3239305	0.3578154	0.299225	10.48621	8.76915
40.60587	-0.07200687	-0.3239305	0	0	-10.48035	-8.764251
40.62241	-0.07200687	-0.3239305	0	0	0	0
40.64156	-0.06894319	-0.3213971	0.1600169	0.1323206	4.483006	3.70707
40.65825	-0.06894319	-0.3213971	0	0	-4.465824	-3.692862
40.6747	-0.06894319	-0.3213971	0	0	0	0
40.69126	-0.06886462	-0.3213322	0.004743368	0.003920644	0.1436679	0.1187491
40.70783	-0.06886462	-0.3213322	0	0	-0.1431551	-0.1183253
40.7244	-0.06886462	-0.3213322	0	0	0	0
40.74097	-0.06946699	-0.3181113	-0.03635925	0.1944131	-1.097324	5.867398
40.75753	-0.06946699	-0.3181113	0	0	1.097324	-5.867398
40.7741	-0.06946699	-0.3181113	0	0	0	0
40.79066	-0.07713612	-0.277898	-0.4630161	2.42784	-13.97546	73.28078
40.80725	-0.07713612	-0.277898	0	0	13.96581	-73.23019
40.8238	-0.07713612	-0.277898	0	0	0	0
40.84036	-0.0691789	-0.2466388	0.4804094	1.887243	14.51048	57.00305
40.85693	-0.0691789	-0.2466388	0	0	-14.50045	-56.96367
40.8735	-0.0691789	-0.2466388	0	0	0	0
40.89006	-0.04144993	-0.2187954	1.673724	1.680628	50.51309	50.72146
40.90664	-0.04144993	-0.2187954	0	0	-50.50728	-50.71563
40.9232	-0.04144993	-0.2187954	0	0	0	0
40.9421	-0.02183863	-0.203151	1.037535	0.8276701	29.25183	23.33499
40.95867	-0.02183863	-0.203151	0	0	-29.25183	-23.33499
40.97556	-0.02183863	-0.203151	0	0	0	0
40.9918	-0.01578816	-0.1977451	0.3725851	0.3328883	11.24594	10.04775
41.00837	-0.01578816	-0.1977451	0	0	-11.35709	-10.14705
41.02494	-0.01578816	-0.1977451	0	0	0	0
41.0415	-0.01578816	-0.1977451	0	0	0	0
41.05834	-0.01578816	-0.1977451	0	0	0	0
41.07495	-0.01578816	-0.1977451	0	0	0	0
41.09159	-0.01581447	-0.1977248	-0.001580675	0.001219416	-0.04753521	0.03667117
41.10788	-0.01581447	-0.1977248	0	0	0.04799217	-0.0370237
41.12434	-0.01581447	-0.1977248	0	0	0	0
41.1409	-0.02099691	-0.193568	-0.3128849	0.2509671	-9.476707	7.601331
41.15747	-0.02099691	-0.193568	0	0	9.442885	-7.574203
41.17404	-0.02099691	-0.193568	0	0	0	0
41.19061	-0.043315	-0.1764359	-1.347122	1.034095	-40.65623	31.20905
41.20717	-0.043315	-0.1764359	0	0	40.65623	-31.20905
41.22374	-0.043315	-0.1764359	0	0	0	0
41.2403	-0.04470703	-0.1753707	-0.08404285	0.06430648	-2.536711	1.940997
41.25687	-0.04470703	-0.1753707	0	0	2.536418	-1.940773
41.27344	-0.04470703	-0.1753707	0	0	0	0
41.29001	-0.04468077	-0.1753908	0.001585256	-0.001213339	0.04784311	-0.03661865
41.30658	-0.04468077	-0.1753908	0	0	-0.04784311	0.03661865
41.32314	-0.04468077	-0.1753908	0	0	0	0
41.33971	-0.04449692	-0.1755315	0.01109701	-0.008489775	0.3349086	-0.2562219
41.35628	-0.04449692	-0.1755315	0	0	-0.3349086	0.2562219
41.37285	-0.04449692	-0.1755315	0	0	0	0
41.3966	-0.04447066	-0.1755516	0.001105986	-0.0008458835	0.0274319	-0.02098054
41.41317	-0.04447066	-0.1755516	0	0	-0.0274319	0.02098054
41.42973	-0.04447066	-0.1755516	0	0	0	0
41.4463	-0.04447066	-0.1755516	0	0	0	0
41.46287	-0.04447066	-0.1755516	0	0	0	0
41.47943	-0.04447066	-0.1755516	0	0	0	0
41.496	-0.04447066	-0.1755516	0	0	0	0
41.51257	-0.04447066	-0.1755516	0	0	0	0
41.52914	-0.04447066	-0.1755516	0	0	0	0
41.5457	-0.04447066	-0.1755516	0	0	0	0
41.56227	-0.04447066	-0.1755516	0	0	0	0
41.57884	-0.04447066	-0.1755516	0	0	0	0
41.59541	-0.04447066	-0.1755516	0	0	0	0
41.61197	-0.04447066	-0.1755516	0	0	0	0
41.63583	-0.0444444	-0.1755717	0.001101034	-0.0008427205	0.02723947	-0.02084882
41.65258	-0.0444444	-0.1755717	0	0	-0.02711154	0.0207509
41.66896	-0.04447066	-0.1755516	-0.001603719	0.001227471	-0.04840034	0.03704514
41.68554	-0.04447066	-0.1755516	0	0	0.04866929	-0.03725099
41.70272	-0.04447066	-0.1755516	0	0	0	0
41.71867	-0.04447066	-0.1755516	0	0	0	0
41.73523	-0.04447066	-0.1755516	0	0	0	0
41.75188	-0.04447066	-0.1755516	0	0	0	0
41.76836	-0.0444444	-0.1755717	0.001593696	-0.001219799	0.04810891	-0.03682208
41.78493	-0.0444444	-0.1755717	0	0	-0.04821996	0.03690708
41.80186	-0.0444444	-0.1755717	0	0	0	0
41.81806	-0.0444444	-0.1755717	0	0	0	0
41.83463	-0.0444444	-0.1755717	0	0	0	0
41.85172	-0.0444444	-0.1755717	0	0	0	0
41.86784	-0.04447066	-0.1755516	-0.001629145	0.001246931	-0.04905473	0.03754601
41.88433	-0.04447066	-0.1755516	0	0	0.04995561	-0.03823553
41.9009	-0.04447066	-0.1755516	0	0	0	0
41.91747	-0.04447066	-0.1755516	0	0	0	0
41.9341	-0.04447066	-0.1755516	0	0	0	0
41.95071	-0.04447066	-0.1755516	0	0	0	0
41.96716	-0.0444444	-0.1755717	0.001596282	-0.001221779	0.04828151	-0.03695419
41.98373	-0.0444444	-0.1755717	0	0	-0.04834286	0.03700115
42.00081	-0.0444444	-0.1755717	0	0	0	0
42.01686	-0.04449692	-0.1755717	-0.003273783	0	-0.09882572	0
42.03381	-0.04449692	-0.1755717	0	0	0.0992027	0
42.04999	-0.04449692	-0.1755717	0	0	0	0
42.06656	-0.04449692	-0.1755717	0	0	0	0
42.08313	-0.04449692	-0.1755717	0	0	0	0
42.09969	-0.04449692	-0.1755717	0	0	0	0
42.11626	-0.04449692	-0.1755717	0	0	0	0
42.13283	-0.04449692	-0.1755717	0	0	0	0
42.14953	-0.04449692	-0.1755717	0	0	0	0
42.16601	-0.04452319	-0.1755516	-0.001594065	0.001220081	-0.0480426	0.03677133
42.18253	-0.04452319	-0.1755516	0	0	0.04830919	-0.03697538
42.19909	-0.04452319	-0.1755516	0	0	0	0
42.21641	-0.04452319	-0.1755516	0	0	0	0
42.40847	-0.04452319	-0.1755516	0	0	0	0
42.42504	-0.04452319	-0.1755516	0	0	0	0
42.44422	-0.04449692	-0.1755717	0.001369285	-0.001048037	0.03830433	-0.02931775
42.46218	-0.04449692	-0.1755717	0	0	-0.03686453	0.02821574
42.47875	-0.04449692	-0.1755717	0	0	0	0
42.49532	-0.04452319	-0.1755516	-0.001585256	0.001213339	-0.04784311	0.03661865
