Time	Pos X	Pos Y	Vel X	Vel Y	Acc X	Acc Y
0.01657266	0.01163105	-0.1631477	-0.0001777807	0.002493712	2.718066E-06	-3.812605E-05
0.05782112	0.01149949	-0.1630477	-0.003189486	0.002422567	4.606296E-05	1.088139E-06
0.0743918	0.01149949	-0.1630477	0	0	0.05516314	-0.04189904
0.09095894	0.01144687	-0.1630078	-0.003176489	0.002412301	-0.09585692	0.07279602
0.1075241	0.01144687	-0.1630078	0	0	0.09587289	-0.07280815
0.124092	0.01144687	-0.1630078	0	0	0	0
0.1408818	0.01144687	-0.1630078	0	0	0	0
0.1572235	0.01144687	-0.1630078	0	0	0	0
0.1737914	0.01144687	-0.1630078	0	0	0	0
0.1903577	0.01142056	-0.1629878	-0.001588265	0.001206209	-0.04793422	0.03640368
0.2069241	0.01142056	-0.1629878	0	0	0.04793651	-0.03640541
0.2234916	0.01142056	-0.1629878	0	0	0	0
0.2403509	0.01142056	-0.1629878	0	0	0	0
0.2566247	0.01142056	-0.1629878	0	0	0	0
0.273191	0.01142056	-0.1629878	0	0	0	0
0.2897577	0.01142056	-0.1629878	0	0	0	0
0.3063245	0.01142056	-0.1629878	0	0	0	0
0.3229086	0.01142056	-0.1629878	0	0	0	0
0.3394591	0.01144687	-0.1630078	0.00158978	-0.00120736	0.04797941	-0.03643799
0.3560235	0.01144687	-0.1630078	0	0	-0.04800799	0.0364597
0.372591	0.01144687	-0.1630078	0	0	0	0
0.3894723	0.01144687	-0.1630078	0	0	0	0
0.4059913	0.01144687	-0.1630078	0	0	0	0
0.4229729	0.01144687	-0.1630078	0	0	0	0
0.4390084	0.01144687	-0.1630078	0	0	0	0
0.4555238	0.01144687	-0.1630078	0	0	0	0
0.471989	0.01144687	-0.1630078	0	0	0	0
0.488555	0.01144687	-0.1630078	0	0	0	0
0.5051265	0.01144687	-0.1630078	0	0	0	0
0.5217291	0.01144687	-0.1630078	0	0	0	0
0.5779365	0.01144687	-0.1630078	0	0	0	0
0.5947606	0.01144687	-0.1630078	0	0	0	0
0.6110708	0.01144687	-0.1630078	0	0	0	0
0.6276387	0.01144687	-0.1630078	0	0	0	0
0.6442086	0.01144687	-0.1630078	0	0	0	0
0.6607734	0.01144687	-0.1630078	0	0	0	0
0.6774159	0.01144687	-0.1630078	0	0	0	0
0.693908	0.01144687	-0.1630078	0	0	0	0
0.7126325	0.01144687	-0.1630078	0	0	0	0
0.7291996	0.01144687	-0.1630078	0	0	0	0
0.7457664	0.01144687	-0.1630078	0	0	0	0
0.7623332	0.01147318	-0.1630277	0.001588281	-0.001206178	0.04793579	-0.03640358
0.7789003	0.01147318	-0.1630277	0	0	-0.04793527	0.03640319
0.7954698	0.01147318	-0.1630277	0	0	0	0
0.8120365	0.01147318	-0.1630677	0	-0.002412356	0	-0.07280114
0.8286001	0.01147318	-0.1630677	0	0	0	0.0728141
0.8451692	0.01147318	-0.1630677	0	0	0	0
0.8617399	0.01144687	-0.1630477	-0.001587904	0.001205892	-0.04791536	0.03638806
0.8783038	0.01144687	-0.1630477	0	0	0.04792277	-0.03639369
0.8950099	0.01144687	-0.1630477	0	0	0	0
0.9115309	0.01144687	-0.1630477	0	0	0	0
0.9280297	0.01144687	-0.1630477	0	0	0	0
0.9445779	0.01144687	-0.1630477	0	0	0	0
0.9611355	0.01144687	-0.1630477	0	0	0	0
0.9777046	0.01144687	-0.1630477	0	0	0	0
0.9945879	0.01144687	-0.1630477	0	0	0	0
1.010841	0.01144687	-0.1630477	0	0	0	0
1.027604	0.01144687	-0.1630477	0	0	0	0
1.044146	0.01144687	-0.1630477	0	0	0	0
1.060639	0.01142056	-0.1630277	-0.00159533	0.001211575	-0.04829294	0.03667611
1.077103	0.01142056	-0.1630277	0	0	0.04840631	-0.0367622
1.093671	0.01142056	-0.1630277	0	0	0	0
1.110233	0.01142056	-0.1630277	0	0	0	0
1.126802	0.01142056	-0.1630277	0	0	0	0
1.143706	0.01142056	-0.1630277	0	0	0	0
1.160215	0.01144687	-0.1630078	0.001593729	0.001210359	0.04769729	0.03622374
1.176503	0.01144687	-0.1630078	0	0	-0.04859343	-0.03690431
1.193228	0.01144687	-0.1630078	0	0	0	0
1.209638	0.01144687	-0.1630078	0	0	0	0
1.226238	0.01144687	-0.1630078	0	0	0	0
1.242781	0.01144687	-0.1630078	0	0	0	0
1.259777	0.01142056	-0.1629878	-0.001548089	0.001175697	-0.04615795	0.03505469
1.275904	0.01142056	-0.1629878	0	0	0.04673722	-0.03549461
1.29247	0.01142056	-0.1629878	0	0	0	0
1.309318	0.01144687	-0.1630078	0.001561693	-0.001186029	0.04673851	-0.03549559
1.325602	0.01144687	-0.1630078	0	0	-0.04713504	0.03579674
1.342171	0.01144687	-0.1630078	0	0	0	0
1.358737	0.01142056	-0.1630277	-0.001588339	-0.001206265	-0.04793582	-0.03640489
1.3753	0.01142056	-0.1630277	0	0	0.04794444	0.03641144
1.391869	0.01142056	-0.1630277	0	0	0	0
1.408434	0.01142056	-0.1630277	0	0	0	0
1.425405	0.01142056	-0.1630277	0	0	0	0
1.44157	0.01142056	-0.1630277	0	0	0	0
1.458135	0.01139424	-0.1630078	-0.001588395	0.001206265	-0.04852957	0.03685451
1.474703	0.01139424	-0.1630078	0	0	0.04793993	-0.03640672
1.491269	0.01139424	-0.1630078	0	0	0	0
1.507834	0.01131531	-0.1629478	-0.004765369	0.003618977	-0.1438321	0.1092308
1.524454	0.01131531	-0.1629478	0	0	0.1435996	-0.1090542
1.540969	0.01131531	-0.1629478	0	0	0	0
1.557538	0.01102587	-0.1626881	-0.01746896	0.01567761	-0.5280294	0.4738827
1.574103	0.01102587	-0.1626881	0	0	0.5272239	-0.4731598
1.591486	0.01102587	-0.1626881	0	0	0	0
1.607235	0.01086799	-0.1625682	-0.01002467	0.007612028	-0.3025659	0.2297472
1.624006	0.01086799	-0.1625682	0	0	0.3082623	-0.2340727
1.64037	0.01086799	-0.1625682	0	0	0	0
1.657031	0.009105012	-0.16123	-0.1058146	0.08032079	-3.204083	2.432128
1.673544	0.009105012	-0.16123	0	0	3.189749	-2.421247
1.69007	0.009105012	-0.16123	0	0	0	0
1.706637	0.007605116	-0.1600921	-0.09053648	0.0686847	-2.735802	2.075492
1.723204	0.007605116	-0.1600921	0	0	2.732475	-2.072968
1.739769	0.007605116	-0.1600921	0	0	0	0
1.756337	0.007605116	-0.1600921	0	0	0	0
1.772903	0.007605116	-0.1600921	0	0	0	0
1.78947	0.007605116	-0.1600921	0	0	0	0
1.806132	0.007631431	-0.160112	0.001579324	-0.001198397	0.04752902	-0.0360652
1.822602	0.007631431	-0.160112	0	0	-0.04766668	0.03616966
1.83917	0.007631431	-0.160112	0	0	0	0
1.855736	0.007631431	-0.160112	0	0	0	0
1.872303	0.007631431	-0.160112	0	0	0	0
1.889214	0.007631431	-0.160112	0	0	0	0
1.905435	0.007657745	-0.160132	0.001622265	-0.001230084	0.04896321	-0.0371264
1.922237	0.007657745	-0.160132	0	0	-0.049126	0.03724983
1.938745	0.007657745	-0.160132	0	0	0	0
1.955138	0.007657745	-0.160132	0	0	0	0
1.971767	0.007657745	-0.160132	0	0	0	0
1.988271	0.007657745	-0.160132	0	0	0	0
2.004834	0.007657745	-0.160132	0	0	0	0
2.021403	0.007657745	-0.160132	0	0	0	0
2.037966	0.007657745	-0.160132	0	0	0	0
2.054834	0.007657745	-0.160132	0	0	0	0
2.071338	0.007657745	-0.160132	0	0	0	0
2.08767	0.007657745	-0.160132	0	0	0	0
2.104357	0.007657745	-0.160132	0	0	0	0
2.120804	0.007657745	-0.160132	0	0	0	0
2.137413	0.007657745	-0.160132	0	0	0	0
2.153937	0.007631431	-0.160112	-0.001592467	0.00120749	-0.04806353	0.03644421
2.170502	0.007631431	-0.160112	0	0	0.04812586	-0.03649148
2.187071	0.007631431	-0.160112	0	0	0	0
2.203638	0.007631431	-0.160152	0	-0.002409658	0	-0.07272049
2.22045	0.007631431	-0.160152	0	0	0	0.07219171
2.23677	0.007631431	-0.160152	0	0	0	0
2.253334	0.007631431	-0.160152	0	0	0	0
2.269978	0.007631431	-0.160152	0	0	0	0
2.286469	0.007631431	-0.160152	0	0	0	0
2.303039	0.007657745	-0.1601719	0.001588	-0.001204102	0.04803168	-0.03642006
2.319602	0.007657745	-0.1601719	0	0	-0.04792764	0.03634118
2.336169	0.007657745	-0.1601719	0	0	0	0
2.352735	0.007684059	-0.1602318	0.001588508	-0.003614297	0.04794332	-0.1090844
2.369302	0.007684059	-0.1602318	0	0	-0.04794367	0.1090852
2.386095	0.007684059	-0.1602318	0	0	0	0
2.402436	0.007710373	-0.1602518	0.001610288	-0.001221914	0.04859964	-0.03687824
2.419087	0.007710373	-0.1602518	0	0	-0.0488072	0.03703574
2.43561	0.007710373	-0.1602518	0	0	0	0
2.452138	0.007684059	-0.1602318	-0.001592077	0.001208095	-0.04817099	0.03655297
2.468702	0.007684059	-0.1602318	0	0	0.04811094	-0.03650741
2.485615	0.007684059	-0.1602318	0	0	0	0
2.501835	0.007657745	-0.1602118	-0.001622365	0.001230138	-0.04896483	0.03712697
2.518404	0.007657745	-0.1602118	0	0	0.04947894	-0.03751679
2.53566	0.007657745	-0.1602118	0	0	0	0
2.551681	0.007657745	-0.1602118	0	0	0	0
2.568206	0.007657745	-0.1602118	0	0	0	0
2.584702	0.007657745	-0.1602118	0	0	0	0
2.601236	0.007657745	-0.1602118	0	0	0	0
2.617811	0.007657745	-0.1602118	0	0	0	0
2.634383	0.007657745	-0.1602118	0	0	0	0
2.650934	0.007631431	-0.1603116	-0.001589921	-0.006029596	-0.04800084	-0.1820378
2.667501	0.007631431	-0.1603116	0	0	0.0480081	0.1820653
2.684081	0.007631431	-0.1603116	0	0	0	0
2.700944	0.007605116	-0.1608506	-0.001560434	-0.03196088	-0.0466589	-0.9556693
2.717453	0.007605116	-0.1608506	0	0	0.0467589	0.9577175
2.733775	0.007605116	-0.1608506	0	0	0	0
2.750339	-0.005631519	-0.1715164	-0.799126	-0.643918	-24.30004	-19.58043
2.767176	-0.005631519	-0.1715164	0	0	23.9252	19.2784
2.783929	-0.005631519	-0.1715164	0	0	0	0
2.800039	-0.03729848	-0.1987196	-1.965678	-1.688598	-59.81364	-51.38236
3.157466	-0.03729848	-0.1987196	0	0	5.262334	4.52056
3.181164	-0.03729848	-0.1987196	0	0	0	0
3.20505	-0.02980696	-0.3485487	0.3136339	-6.27262	6.591188	-131.8225
3.222089	-0.02980696	-0.3485487	0	0	-7.663622	153.271
3.241034	-0.02978067	-0.3485706	0.001387751	-0.001159359	0.03856573	-0.03221871
3.257926	-0.02978067	-0.3485706	0	0	-0.03872377	0.03235075
3.274495	-0.02978067	-0.3485706	0	0	0	0
3.292237	-0.02972808	-0.3486146	0.002964072	-0.002479439	0.08639004	-0.07226506
3.308806	-0.02972808	-0.3486146	0	0	-0.08638884	0.07226406
3.325531	-0.02972808	-0.3486146	0	0	0	0
3.342026	-0.02523149	-0.3523782	0.2725998	-0.2281639	8.205938	-6.868309
3.358596	-0.02523149	-0.3523782	0	0	-8.244221	6.90035
3.375602	-0.02523149	-0.3523782	0	0	0	0
3.391959	-0.01247304	-0.3631439	0.7799906	-0.6581599	23.379	-19.72732
3.408298	-0.01247304	-0.3631439	0	0	-23.85549	20.12938
3.424866	-0.01247304	-0.3631439	0	0	0	0
3.44143	-0.008973443	-0.3661852	0.2112785	-0.1836083	6.376995	-5.541827
3.458011	-0.008973443	-0.3661852	0	0	-6.37438	5.539555
3.47503	-0.008973443	-0.3661852	0	0	0	0
3.49113	-0.009526027	-0.3667852	-0.03432165	-0.03726918	-1.036307	-1.125304
3.508044	-0.009526027	-0.3667852	0	0	1.0396	1.12888
3.52455	-0.009526027	-0.3667852	0	0	0	0
3.540831	-0.0119468	-0.3690096	-0.1486836	-0.1366197	-4.534856	-4.166907
3.557397	-0.0119468	-0.3690096	0	0	4.526463	4.159194
3.574074	-0.0119468	-0.3690096	0	0	0	0
3.590528	-0.01192049	-0.3690318	0.001599143	-0.001351175	0.0482678	-0.04078324
3.607103	-0.01192049	-0.3690318	0	0	-0.04841553	0.04090806
3.623663	-0.01192049	-0.3690318	0	0	0	0
3.64023	-0.0117363	-0.3693212	0.01111768	-0.01746935	0.3356097	-0.5273473
3.656796	-0.0117363	-0.3693212	0	0	-0.3355493	0.5272525
3.673666	-0.0117363	-0.3693212	0	0	0	0
3.689928	-0.0117363	-0.3694993	0	-0.01095163	0	-0.3305471
3.706494	-0.0117363	-0.3694993	0	0	0	0.3336031
3.846775	-0.0117363	-0.3694993	0	0	0	0
3.866645	-0.0117363	-0.3694993	0	0	0	0
3.883219	-0.0117363	-0.3694993	0	0	0	0
3.899779	-0.0117363	-0.3694993	0	0	0	0
3.916345	-0.0117363	-0.3694993	0	0	0	0
3.932934	-0.0117363	-0.3694993	0	0	0	0
3.949531	-0.0117363	-0.3694993	0	0	0	0
3.966052	-0.0117363	-0.3694993	0	0	0	0
3.98262	-0.0117363	-0.3694993	0	0	0	0
3.999363	-0.0117363	-0.3694993	0	0	0	0
4.015749	-0.0117363	-0.3694993	0	0	0	0
4.03232	-0.0117363	-0.3694993	0	0	0	0
4.049078	-0.0117363	-0.3694993	0	0	0	0
4.065603	-0.0117363	-0.3694993	0	0	0	0
4.082014	-0.0117363	-0.3694993	0	0	0	0
4.09908	-0.0117363	-0.3694993	0	0	0	0
4.115237	-0.0117363	-0.3694993	0	0	0	0
4.132294	-0.0117363	-0.3694993	0	0	0	0
4.148281	-0.0117363	-0.3694993	0	0	0	0
4.164845	-0.0117363	-0.3694993	0	0	0	0
4.181415	-0.0117363	-0.3694993	0	0	0	0
4.198799	-0.0117363	-0.3694993	0	0	0	0
4.214546	-0.0117363	-0.3694993	0	0	0	0
4.231278	-0.0117363	-0.3694993	0	0	0	0
4.247682	-0.0117363	-0.3694993	0	0	0	0
4.264248	-0.0117363	-0.3694993	0	0	0	0
4.280815	-0.0117363	-0.3694993	0	0	0	0
4.297692	-0.0117363	-0.3694993	0	0	0	0
4.313946	-0.0117363	-0.3694993	0	0	0	0
4.330514	-0.0117363	-0.3694993	0	0	0	0
4.347083	-0.0117363	-0.3694993	0	0	0	0
4.363868	-0.01176262	-0.369477	-0.001567516	0.001326274	-0.0469966	0.0397638
4.380215	-0.01176262	-0.369477	0	0	0.04731112	-0.04002991
4.396781	-0.01176262	-0.369477	0	0	0	0
4.413363	-0.01176262	-0.369477	0	0	0	0
4.430014	-0.01176262	-0.369477	0	0	0	0
4.446482	-0.01176262	-0.369477	0	0	0	0
4.463048	-0.01176262	-0.369477	0	0	0	0
4.479612	-0.01176262	-0.369477	0	0	0	0
4.496862	-0.01176262	-0.369477	0	0	0	0
4.51739	-0.0117363	-0.3694993	0.001281788	-0.00108452	0.03393	-0.02870815
4.534064	-0.0117363	-0.3694993	0	0	-0.03445536	0.02915266
4.550527	-0.0117363	-0.3694993	0	0	0	0
4.567092	-0.0117363	-0.3694993	0	0	0	0
4.583681	-0.0117363	-0.3694993	0	0	0	0
4.600244	-0.0117363	-0.3694993	0	0	0	0
4.616795	-0.0117363	-0.3694993	0	0	0	0
4.679116	-0.0117363	-0.3694993	0	0	0	0
4.696196	-0.0117363	-0.3694993	0	0	0	0
4.712251	-0.0117363	-0.3694993	0	0	0	0
4.72882	-0.0117363	-0.3694993	0	0	0	0
4.745444	-0.0117363	-0.3694993	0	0	0	0
4.761954	-0.0117363	-0.3694993	0	0	0	0
4.778636	-0.0117363	-0.3694993	0	0	0	0
4.795087	-0.0117363	-0.3694993	0	0	0	0
4.811694	-0.0117363	-0.3694993	0	0	0	0
4.82822	-0.0117363	-0.3694993	0	0	0	0
4.844808	-0.0117363	-0.3694993	0	0	0	0
4.861353	-0.0117363	-0.3694993	0	0	0	0
4.877919	-0.0117363	-0.3694993	0	0	0	0
4.894483	-0.0117363	-0.3694993	0	0	0	0
4.911053	-0.0117363	-0.3694993	0	0	0	0
4.927619	-0.0117363	-0.3694993	0	0	0	0
4.944186	-0.0117363	-0.3694993	0	0	0	0
4.961162	-0.0117363	-0.3694993	0	0	0	0
4.977719	-0.0117363	-0.3694993	0	0	0	0
4.994126	-0.0117363	-0.3694993	0	0	0	0
5.010455	-0.0117363	-0.3694993	0	0	0	0
5.02702	-0.0117363	-0.3694993	0	0	0	0
5.043584	-0.0117363	-0.3694993	0	0	0	0
5.060154	-0.0117363	-0.3694993	0	0	0	0
5.07672	-0.0117363	-0.3694993	0	0	0	0
5.093287	-0.0117363	-0.3694993	0	0	0	0
5.110152	-0.0117363	-0.3694993	0	0	0	0
5.126417	-0.0117363	-0.3694993	0	0	0	0
5.142987	-0.0117363	-0.3694993	0	0	0	0
5.159554	-0.0117363	-0.3694993	0	0	0	0
5.17612	-0.0117363	-0.3694993	0	0	0	0
5.192687	-0.01205205	-0.3692321	-0.01905892	0.01612555	-0.5752324	0.4866981
5.209253	-0.01205205	-0.3692321	0	0	0.5752159	-0.4866841
5.225816	-0.01205205	-0.3692321	0	0	0	0
5.242387	-0.02394279	-0.3590238	-0.7175822	0.6160506	-21.6573	18.59298
5.258951	-0.02394279	-0.3590238	0	0	21.65636	-18.59218
5.275517	-0.02394279	-0.3590238	0	0	0	0
5.29211	-0.05940371	-0.3292041	-2.137104	1.797131	-64.45061	54.19774
5.308653	-0.05940371	-0.3292041	0	0	64.49513	-54.23518
5.325282	-0.05940371	-0.3292041	0	0	0	0
5.341784	-0.08129413	-0.3107836	-1.326577	1.116298	-40.04079	33.69383
5.358353	-0.08129413	-0.3107836	0	0	40.11353	-33.75505
5.375186	-0.08129413	-0.3107836	0	0	0	0
5.391484	-0.09846997	-0.2964738	-1.053874	0.8780172	-31.80917	26.50128
5.408053	-0.09846997	-0.2964738	0	0	32.06437	-26.7139
5.424621	-0.09846997	-0.2964738	0	0	0	0
5.441184	-0.1152761	-0.2814713	-1.014656	0.9057606	-30.62589	27.33906
5.457754	-0.1152761	-0.2814713	0	0	30.62325	-27.33669
5.47432	-0.1152761	-0.2814713	0	0	0	0
5.490884	-0.1263755	-0.2582077	-0.6701162	1.404519	-20.22706	42.39457
5.507453	-0.1263755	-0.2582077	0	0	20.22502	-42.3903
5.524021	-0.1263755	-0.2582077	0	0	0	0
5.540584	-0.1056056	-0.2289886	1.253962	1.764076	37.84901	53.24604
5.557153	-0.1056056	-0.2289886	0	0	-37.84683	-53.24298
5.57372	-0.1056056	-0.2289886	0	0	0	0
5.590287	-0.08497906	-0.2127976	1.245095	0.9773464	37.57813	29.49722
5.606854	-0.08497906	-0.2127976	0	0	-37.57813	-29.49722
5.62342	-0.08497906	-0.2127976	0	0	0	0
5.639984	-0.07328955	-0.2035987	0.7057222	0.5553588	21.3015	16.76293
5.656554	-0.07328955	-0.2035987	0	0	-21.29935	-16.76125
5.67312	-0.07328955	-0.2035987	0	0	0	0
5.689684	-0.0577515	-0.187398	0.9380947	0.9780991	28.31542	29.52291
5.706254	-0.0577515	-0.187398	0	0	-28.31257	-29.51994
5.722884	-0.0577515	-0.187398	0	0	0	0
5.739384	-0.05237311	-0.1833413	0.3259533	0.2458513	9.838566	7.420767
5.755953	-0.05237311	-0.1833413	0	0	-9.856583	-7.434357
5.772521	-0.05237311	-0.1833413	0	0	0	0
5.789087	-0.05234687	-0.1833615	0.001584223	-0.001217007	0.04781262	-0.03672987
5.805654	-0.05234687	-0.1833615	0	0	-0.047814	0.03673092
5.822221	-0.05234687	-0.1833615	0	0	0	0
5.838785	-0.05234687	-0.1833615	0	0	0	0
6.395385	-0.05234687	-0.1833615	0	0	0	0
6.416652	-0.05234687	-0.1833615	0	0	0	0
6.448603	0.02857117	-0.1220199	2.532571	1.919868	47.58871	36.0756
6.465177	0.02857117	-0.1220199	0	0	-52.19069	-39.56423
6.481736	0.03367148	-0.1182903	0.308006	0.2252323	9.295908	6.797719
6.49831	0.03367148	-0.1182903	0	0	-9.296041	-6.797817
6.691742	0.03367148	-0.1182903	0	0	0	0
6.716135	0.03367148	-0.1182903	0	0	0	0
6.732849	0.03367148	-0.1182903	0	0	0	0
6.749305	0.03367148	-0.1182903	0	0	0	0
6.765841	0.03367148	-0.1182903	0	0	0	0
6.782403	0.03367148	-0.1182903	0	0	0	0
6.799306	0.03361891	-0.118251	-0.00311019	0.002320741	-0.09293884	0.06934849
6.815536	0.03361891	-0.118251	0	0	0.09387112	-0.07004413
6.832102	0.03361891	-0.118251	0	0	0	0
6.85197	0.03356634	-0.1182118	-0.002646042	0.001974782	-0.07262529	0.05420135
6.868701	0.03356634	-0.1182118	0	0	0.0722979	-0.05395702
6.885107	0.03356634	-0.1182118	0	0	0	0
6.901672	0.03356634	-0.1182118	0	0	0	0
6.91824	0.03356634	-0.1182118	0	0	0	0
6.935019	0.03356634	-0.1182118	0	0	0	0
6.951371	0.03356634	-0.1182118	0	0	0	0
6.967976	0.03356634	-0.1182118	0	0	0	0
6.984514	0.03356634	-0.1182118	0	0	0	0
7.001072	0.03359262	-0.1182314	0.001587519	-0.001184789	0.04796663	-0.03579823
7.017641	0.03359262	-0.1182314	0	0	-0.04792313	0.03576576
7.034258	0.03359262	-0.1182314	0	0	0	0
7.050772	0.03361891	-0.118251	0.001591736	-0.001187937	0.04804283	-0.0358551
7.06734	0.03361891	-0.118251	0	0	-0.04811555	0.03590936
7.083908	0.03361891	-0.118251	0	0	0	0
7.100473	0.03361891	-0.118251	0	0	0	0
7.11704	0.03361891	-0.118251	0	0	0	0
7.133607	0.03361891	-0.118251	0	0	0	0
7.150171	0.03361891	-0.1182903	0	-0.002368174	0	-0.07147883
7.16674	0.03361891	-0.1182903	0	0	0	0.07147368
7.183593	0.03361891	-0.1182903	0	0	0	0
7.199872	0.03361891	-0.1182903	0	0	0	0
7.216676	0.03361891	-0.1182903	0	0	0	0
7.233295	0.03361891	-0.1182903	0	0	0	0
7.249827	0.03356634	-0.1183687	-0.003180075	-0.004746225	-0.09592652	-0.1431693
7.266138	0.03356634	-0.1183687	0	0	0.09682903	0.1445162
7.282708	0.03356634	-0.1183687	0	0	0	0
7.299375	0.03348748	-0.1183883	-0.004731442	-0.001176993	-0.1423527	-0.03541166
7.315846	0.03348748	-0.1183883	0	0	0.1427788	0.03551764
7.33241	0.03348748	-0.1183883	0	0	0	0
7.348978	0.03343491	-0.1184276	-0.003173118	-0.002367697	-0.09577318	-0.0714634
7.365543	0.03343491	-0.1184276	0	0	0.09576766	0.07145929
7.382112	0.03343491	-0.1184276	0	0	0	0
7.400633	0.03343491	-0.1184276	0	0	0	0
7.417201	0.03343491	-0.1184276	0	0	0	0
7.43377	0.03343491	-0.1184276	0	0	0	0
7.450336	0.03340862	-0.118408	-0.001586921	0.001183726	-0.0478913	0.03572337
7.466903	0.03340862	-0.118408	0	0	0.04789544	-0.03572646
7.48347	0.03340862	-0.118408	0	0	0	0
7.500049	0.03340862	-0.118408	0	0	0	0
7.516651	0.03340862	-0.118408	0	0	0	0
7.533265	0.03340862	-0.118408	0	0	0	0
7.549737	0.03340862	-0.118408	0	0	0	0
7.566594	0.03340862	-0.118408	0	0	0	0
7.58287	0.03340862	-0.118408	0	0	0	0
7.599436	0.03340862	-0.118408	0	0	0	0
7.616007	0.03340862	-0.118408	0	0	0	0
7.632574	0.03340862	-0.118408	0	0	0	0
7.649134	0.03340862	-0.118408	0	0	0	0
7.665706	0.03340862	-0.118408	0	0	0	0
7.682514	0.03340862	-0.118408	0	0	0	0
7.698839	0.03327718	-0.1185453	-0.008050964	-0.008411285	-0.2429856	-0.2538604
7.715407	0.03327718	-0.1185453	0	0	0.2447609	0.2557151
7.731971	0.03327718	-0.1185453	0	0	0	0
7.748776	0.03259372	-0.1192123	-0.04066893	-0.03969337	-1.218762	-1.189526
7.765374	0.03259372	-0.1192123	0	0	1.217509	1.188303
7.922257	0.03259372	-0.1192123	0	0	0	0
7.943622	0.03006988	-0.1210575	-0.1181312	-0.08636592	-0.662737	-0.4845282
7.960202	0.03006988	-0.1210575	0	0	3.113199	2.276065
7.976755	0.0300173	-0.1210968	-0.003176627	-0.002372512	-0.09587356	-0.07160461
7.993414	0.0300173	-0.1210968	0	0	0.09564781	0.07143601
8.009892	0.0300173	-0.1210968	0	0	0	0
8.026456	0.02991213	-0.1211753	-0.00634909	-0.004742195	-0.1921524	-0.1435204
8.043228	0.02991213	-0.1211753	0	0	0.1904538	0.1422517
8.059593	0.02991213	-0.1211753	0	0	0	0
8.076159	0.02983325	-0.1212343	-0.004761326	-0.003556124	-0.1445835	-0.1079861
8.092726	0.02983325	-0.1212343	0	0	0.1437054	0.1073302
8.109289	0.02983325	-0.1212343	0	0	0	0
8.125857	0.02985954	-0.1212146	0.001586851	0.001185388	0.04789539	0.03577818
8.143241	0.02985954	-0.1212146	0	0	-0.0467384	-0.0349139
8.15899	0.02985954	-0.1212146	0	0	0	0
8.17618	0.02983325	-0.1212343	-0.001529451	-0.00114251	-0.0464329	-0.03468569
8.192234	0.02983325	-0.1212343	0	0	0.04600665	0.03436728
8.20869	0.02983325	-0.1212343	0	0	0	0
8.225256	0.02983325	-0.1212343	0	0	0	0
8.241822	0.02983325	-0.1212343	0	0	0	0
8.25844	0.02983325	-0.1212343	0	0	0	0
8.274959	0.02983325	-0.1212343	0	0	0	0
8.291525	0.02983325	-0.1212343	0	0	0	0
8.308387	0.02983325	-0.1212343	0	0	0	0
8.324831	0.02983325	-0.1212343	0	0	0	0
8.341399	0.02983325	-0.1212343	0	0	0	0
8.358171	0.02983325	-0.1212343	0	0	0	0
8.374359	0.02983325	-0.1212343	0	0	0	0
8.390925	0.02983325	-0.1212343	0	0	0	0
8.407556	0.02983325	-0.1212343	0	0	0	0
8.424056	0.02983325	-0.1212343	0	0	0	0
8.440626	0.02983325	-0.1212343	0	0	0	0
8.457192	0.02983325	-0.1212343	0	0	0	0
8.473944	0.02980696	-0.1212146	-0.001569616	0.001172431	-0.04711078	0.03518957
8.490326	0.02980696	-0.1212146	0	0	0.04737248	-0.03538505
8.506892	0.02980696	-0.1212146	0	0	0	0
8.523458	0.02980696	-0.1212146	0	0	0	0
8.540025	0.02980696	-0.1212146	0	0	0	0
8.556614	0.02980696	-0.1212146	0	0	0	0
8.573262	0.02980696	-0.1212146	0	0	0	0
8.589724	0.02980696	-0.1212146	0	0	0	0
8.606292	0.02980696	-0.1212146	0	0	0	0
8.764805	0.02983325	-0.1212343	0.0001658734	-0.0001238998	0.000947408	-0.00070767
8.781568	0.02983325	-0.1212343	0	0	-0.0009463564	0.0007068845
8.801555	0.02983325	-0.1212343	0	0	0	0
8.818126	0.02983325	-0.1212343	0	0	0	0
8.83469	0.02983325	-0.1212343	0	0	0	0
8.851256	0.02983325	-0.1212343	0	0	0	0
8.868393	0.02983325	-0.1212343	0	0	0	0
8.884393	0.02983325	-0.1212343	0	0	0	0
8.910295	0.02980696	-0.1212146	-0.00101507	0.0007582103	-0.02422454	0.01809461
8.926867	0.02980696	-0.1212146	0	0	0.02389873	-0.01785125
8.943434	0.02980696	-0.1212146	0	0	0	0
8.96	0.02980696	-0.1212146	0	0	0	0
8.976564	0.02980696	-0.1212146	0	0	0	0
8.993412	0.02978067	-0.1211557	-0.001560532	0.003496742	-0.04670576	0.1046553
9.0097	0.02978067	-0.1211557	0	0	0.04709559	-0.1055288
9.026266	0.02978067	-0.1211557	0	0	0	0
9.042832	0.02975437	-0.1211361	-0.001587146	0.001185525	-0.04790292	0.03578127
9.059515	0.02975437	-0.1211361	0	0	0.04773529	-0.03565606
9.075966	0.02975437	-0.1211361	0	0	0	0
9.092565	0.02975437	-0.1211361	0	0	0	0
9.109097	0.02975437	-0.1211361	0	0	0	0
9.125666	0.02975437	-0.1211361	0	0	0	0
9.14223	0.02978067	-0.1211164	0.001587329	0.001185211	0.04790705	0.03577078
9.1588	0.02978067	-0.1211164	0	0	-0.04790568	-0.03576975
9.175493	0.02978067	-0.1211164	0	0	0	0
9.191971	0.02978067	-0.1210772	0	0.002383812	0	0.07186498
9.208499	0.02978067	-0.1210772	0	0	0	-0.07222421
9.225065	0.02978067	-0.1210772	0	0	0	0
9.241632	0.02985954	-0.1208219	0.004760939	0.01540779	0.1436896	0.4650213
9.258199	0.02985954	-0.1208219	0	0	-0.1436896	-0.4650213
9.274766	0.02985954	-0.1208219	0	0	0	0
9.291458	0.02980696	-0.1175254	-0.003150241	0.1974885	-0.09471735	5.937826
9.307899	0.02980696	-0.1175254	0	0	0.09507994	-5.960557
9.324465	0.02980696	-0.1175254	0	0	0	0
9.341032	0.02783491	-0.08756094	-0.1190328	1.808657	-3.592521	54.58695
9.357598	0.02783491	-0.08756094	0	0	3.592521	-54.58695
9.374165	0.02783491	-0.08756094	0	0	0	0
9.390729	0.05148079	-0.05219771	1.427514	2.134897	43.08743	64.43875
9.407298	0.05148079	-0.05219771	0	0	-43.08371	-64.43319
9.423864	0.05148079	-0.05219771	0	0	0	0
9.440431	0.08746052	-0.02601268	2.171866	1.580623	65.55081	47.70604
9.456997	0.08746052	-0.02601268	0	0	-65.55081	-47.70604
9.473564	0.08746052	-0.02601268	0	0	0	0
9.490128	0.107531	-0.01079292	1.211735	0.918878	36.57445	27.73499
9.506697	0.107531	-0.01079292	0	0	-36.57234	-27.73339
9.523263	0.107531	-0.01079292	0	0	0	0
9.539829	0.1090915	0.005821606	0.09419704	1.002912	2.843036	30.2697
9.556396	0.1090915	0.005821606	0	0	-2.843036	-30.2697
9.573034	0.1090915	0.005821606	0	0	0	0
9.594303	0.09607175	0.03795535	-0.6121505	1.510836	-16.14849	39.85577
9.610873	0.09607175	0.03795535	0	0	16.17779	-39.92809
9.627438	0.09813116	0.04582376	0.1243276	0.4750204	3.752213	14.33614
9.644008	0.09813116	0.04582376	0	0	-3.752213	-14.33614
9.660574	0.09813116	0.04582376	0	0	0	0
9.677416	0.1053975	0.05667901	0.431442	0.6445383	12.91427	19.29284
9.693707	0.1053975	0.05667901	0	0	-13.0217	-19.45333
9.710274	0.1053975	0.05667901	0	0	0	0
9.727324	0.09557633	0.06901959	-0.5759939	0.7237566	-17.13351	21.52886
9.743407	0.09557633	0.06901959	0	0	17.38403	-21.84365
9.759974	0.09557633	0.06901959	0	0	0	0
9.776669	0.1004502	0.07586761	0.2919383	0.410183	8.777117	12.33214
9.793107	0.1004502	0.07586761	0	0	-8.810969	-12.3797
9.809718	0.1004502	0.07586761	0	0	0	0
9.826241	0.1030286	0.07761934	0.1560538	0.1060218	4.70985	3.199837
9.842826	0.1030286	0.07761934	0	0	-4.713513	-3.202326
9.859652	0.1030286	0.07761934	0	0	0	0
9.87594	0.1030286	0.07761934	0	0	0	0
9.892645	0.1030286	0.07761934	0	0	0	0
9.909074	0.1030286	0.07761934	0	0	0	0
9.926011	0.1030286	0.07761934	0	0	0	0
9.942207	0.1030286	0.07761934	0	0	0	0
9.958775	0.1030286	0.07761934	0	0	0	0
9.975447	0.1030547	0.0776009	0.001561874	-0.001106048	0.0469887	-0.03327525
9.991908	0.1030547	0.0776009	0	0	-0.04713882	0.03338157
10.00854	0.1030547	0.0776009	0	0	0	0
10.02511	0.1030547	0.07756403	0	-0.00222591	0	-0.06704688
10.04182	0.1030547	0.07756403	0	0	0	0.066897
10.05862	0.1030547	0.07756403	0	0	0	0
10.07474	0.1030286	0.0775456	-0.001615758	-0.001143744	-0.04907867	-0.03474124
10.09131	0.1030286	0.0775456	0	0	0.0494338	0.03499262
10.10787	0.1030286	0.0775456	0	0	0	0
10.12515	0.1030547	0.07752717	0.001507048	-0.001066791	0.04452674	-0.03151907
10.141	0.1030547	0.07752717	0	0	-0.04548802	0.03219954
10.15757	0.1030547	0.07752717	0	0	0	0
10.17418	0.1030807	0.07747185	0.001567973	-0.003330654	0.04726032	-0.1003893
10.19072	0.1030807	0.07747185	0	0	-0.04730791	0.1004904
10.20763	0.1030807	0.07747185	0	0	0	0
10.22416	0.1030807	0.07747185	0	0	0	0
10.24041	0.1030807	0.07747185	0	0	0	0
10.25697	0.1030807	0.07747185	0	0	0	0
10.27354	0.1030807	0.07747185	0	0	0	0
10.29023	0.1030807	0.07747185	0	0	0	0
10.30667	0.1030807	0.07747185	0	0	0	0
10.32324	0.1030807	0.07747185	0	0	0	0
10.33981	0.1030807	0.07747185	0	0	0	0
10.35637	0.1030807	0.07747185	0	0	0	0
10.37294	0.1030807	0.07747185	0	0	0	0
10.38951	0.1030807	0.07747185	0	0	0	0
10.40612	0.1030807	0.07747185	0	0	0	0
10.42264	0.1030807	0.07747185	0	0	0	0
10.43921	0.1030807	0.07747185	0	0	0	0
10.45577	0.1030807	0.07747185	0	0	0	0
10.47234	0.1030547	0.07745342	-0.001572036	-0.001112794	-0.0474496	-0.03358807
10.4889	0.1030547	0.07745342	0	0	0.04744823	0.0335871
10.50547	0.1030547	0.07745342	0	0	0	0
10.52205	0.1029505	0.07723217	-0.006281906	-0.01334439	-0.1895065	-0.4025607
10.53862	0.1029505	0.07723217	0	0	0.189501	0.4025491
10.55553	0.1029505	0.07723217	0	0	0	0
10.57174	0.1043043	0.07132813	0.08353178	-0.3642954	2.522519	-11.00111
10.58834	0.1043043	0.07132813	0	0	-2.545834	11.10279
10.60487	0.1043043	0.07132813	0	0	0	0
10.62144	0.08913163	0.03139494	-0.916035	-2.410927	-27.67865	-72.84789
10.63801	0.08913163	0.03139494	0	0	27.64679	72.76402
10.65457	0.08913163	0.03139494	0	0	0	0
10.67114	0.04638775	-0.005320864	-2.580471	-2.216553	-77.88774	-66.90341
10.68797	0.04638775	-0.005320864	0	0	77.26941	66.37228
10.70428	0.04638775	-0.005320864	0	0	0	0
10.72101	-0.002473679	-0.04592601	-2.919036	-2.425797	-88.33823	-73.41142
10.73741	-0.002473679	-0.04592601	0	0	88.10176	73.2149
10.75398	-0.002473679	-0.04592601	0	0	0	0
10.77054	-0.02654639	-0.08192583	-1.45345	-2.173579	-43.87027	-65.6063
10.78711	-0.02654639	-0.08192583	0	0	43.86774	65.60252
10.80367	-0.02654639	-0.08192583	0	0	0	0
10.82024	-0.02691455	-0.08463542	-0.02222203	-0.1635512	-0.6706814	-4.936126
10.83681	-0.02691455	-0.08463542	0	0	0.6706814	4.936126
10.85337	-0.02691455	-0.08463542	0	0	0	0
10.86994	-0.02691455	-0.08475161	0	-0.007014517	0	-0.211729
10.88651	-0.02691455	-0.08475161	0	0	0	0.2117107
10.90307	-0.02691455	-0.08475161	0	0	0	0
11.66781	0.00449997	-0.1139982	0.04107859	-0.03824372	0.05257681	-0.04894844
11.82604	0.00449997	-0.1139982	0	0	-0.04450683	0.04143538
11.8533	0.004342078	-0.1138807	-0.005793524	0.004310995	-0.03123464	0.02324188
11.87469	0.004342078	-0.1138807	0	0	0.119084	-0.08861109
11.90592	0.004342078	-0.1138807	0	0	0	0
11.92249	0.004342078	-0.1138807	0	0	0	0
11.94177	0.004342078	-0.1138807	0	0	0	0
11.95834	0.004342078	-0.1138807	0	0	0	0
11.97491	0.004342078	-0.1138807	0	0	0	0
11.99167	0.004342078	-0.1138807	0	0	0	0
12.00804	0.004342078	-0.1138807	0	0	0	0
12.025	0.004342078	-0.1138807	0	0	0	0
12.04117	0.004342078	-0.1138807	0	0	0	0
12.05774	0.004342078	-0.1138807	0	0	0	0
12.0745	0.004342078	-0.1138807	0	0	0	0
12.09088	0.004342078	-0.1138807	0	0	0	0
12.10744	0.004342078	-0.1138807	0	0	0	0
12.12401	0.004342078	-0.1138807	0	0	0	0
12.14058	0.004368393	-0.1138611	0.001588221	0.001181723	0.04793398	0.03566549
12.15723	0.004368393	-0.1138611	0	0	-0.04781288	-0.03557538
12.17371	0.004368393	-0.1138611	0	0	0	0
12.19055	0.004368393	-0.1138611	0	0	0	0
12.20696	0.004368393	-0.1138611	0	0	0	0
12.22341	0.004368393	-0.1138611	0	0	0	0
12.23998	0.004394709	-0.1138807	0.001588495	-0.001181927	0.04811537	-0.03580045
12.25655	0.004394709	-0.1138807	0	0	-0.04794364	0.03567268
12.27337	0.004394709	-0.1138807	0	0	0	0
12.28968	0.004394709	-0.1138807	0	0	0	0
12.30624	0.004394709	-0.1138807	0	0	0	0
12.32281	0.004394709	-0.1138807	0	0	0	0
12.33976	0.004394709	-0.1138807	0	0	0	0
12.35623	0.004394709	-0.1138807	0	0	0	0
12.37264	0.004394709	-0.1138807	0	0	0	0
12.38908	0.004394709	-0.1138807	0	0	0	0
12.40565	0.004394709	-0.1138807	0	0	0	0
12.42221	0.004394709	-0.1138807	0	0	0	0
12.43878	0.004394709	-0.1138807	0	0	0	0
12.45535	0.004394709	-0.1138807	0	0	0	0
12.47191	0.004394709	-0.1138807	0	0	0	0
12.48848	0.004368393	-0.1138611	-0.001588495	0.001181927	-0.04794226	0.03567165
12.50504	0.004368393	-0.1138611	0	0	0.04794364	-0.03567268
12.52161	0.004368393	-0.1138611	0	0	0	0
12.53818	0.004368393	-0.1138611	0	0	0	0
12.55474	0.004368393	-0.1138611	0	0	0	0
12.57131	0.004368393	-0.1138611	0	0	0	0
12.58787	0.004368393	-0.1138611	0	0	0	0
12.60444	0.004368393	-0.1138611	0	0	0	0
12.62101	0.004368393	-0.1138611	0	0	0	0
12.63757	0.004368393	-0.1138611	0	0	0	0
12.65414	0.004368393	-0.1138611	0	0	0	0
12.67071	0.004368393	-0.1138611	0	0	0	0
12.68727	0.004368393	-0.1138611	0	0	0	0
12.70384	0.004368393	-0.1138611	0	0	0	0
12.72041	0.004368393	-0.1138611	0	0	0	0
12.73697	0.004368393	-0.1138611	0	0	0	0
12.75354	0.004368393	-0.1138611	0	0	0	0
12.77011	0.004368393	-0.1138611	0	0	0	0
12.78667	0.004368393	-0.1138611	0	0	0	0
12.80324	0.004368393	-0.1138611	0	0	0	0
12.81981	0.004368393	-0.1138611	0	0	0	0
12.83637	0.004368393	-0.1138611	0	0	0	0
12.85294	0.004368393	-0.1138611	0	0	0	0
12.86951	0.004368393	-0.1138611	0	0	0	0
12.88607	0.004368393	-0.1138611	0	0	0	0
12.90264	0.004368393	-0.1138611	0	0	0	0
12.91921	0.004368393	-0.1138611	0	0	0	0
12.93577	0.004368393	-0.1138611	0	0	0	0
12.95234	0.004368393	-0.1138611	0	0	0	0
12.96891	0.004368393	-0.1138611	0	0	0	0
12.98547	0.004368393	-0.1138611	0	0	0	0
13.00204	0.004368393	-0.1138611	0	0	0	0
13.0187	0.004368393	-0.1138611	0	0	0	0
13.03517	0.004368393	-0.1138611	0	0	0	0
13.05174	0.004368393	-0.1138611	0	0	0	0
13.06831	0.004368393	-0.1138611	0	0	0	0
13.08487	0.004368393	-0.1138611	0	0	0	0
13.10144	0.004368393	-0.1138611	0	0	0	0
13.11801	0.004368393	-0.1138611	0	0	0	0
13.13457	0.004368393	-0.1138611	0	0	0	0
13.15114	0.004368393	-0.1138611	0	0	0	0
13.16771	0.004368393	-0.1138611	0	0	0	0
13.18427	0.004368393	-0.113822	0	0.002364126	0	0.07135151
13.20084	0.004368393	-0.113822	0	0	0	-0.07135151
13.21741	0.004368393	-0.113822	0	0	0	0
13.23398	0.004368393	-0.113822	0	0	0	0
13.25056	0.004368393	-0.113822	0	0	0	0
13.26731	0.004368393	-0.113822	0	0	0	0
13.28378	0.004342078	-0.1138024	-0.001598063	0.001189046	-0.04810502	0.03579275
13.30024	0.004342078	-0.1138024	0	0	0.04852853	-0.03610787
13.31732	0.004342078	-0.1138024	0	0	0	0
13.33337	0.004368393	-0.113822	0.00163907	-0.001219557	0.04947294	-0.03681055
13.34994	0.004368393	-0.113822	0	0	-0.05024381	0.03738412
13.36651	0.004368393	-0.113822	0	0	0	0
13.38308	0.004368393	-0.113822	0	0	0	0
13.39964	0.004368393	-0.113822	0	0	0	0
13.41621	0.004368393	-0.113822	0	0	0	0
13.43278	0.004368393	-0.113822	0	0	0	0
13.44934	0.004368393	-0.113822	0	0	0	0
13.46591	0.004368393	-0.113822	0	0	0	0
13.48247	0.004368393	-0.113822	0	0	0	0
13.49904	0.004368393	-0.113822	0	0	0	0
13.516	0.004368393	-0.113822	0	0	0	0
13.69022	0.004368393	-0.113822	0	0	0	0
13.70678	0.004368393	-0.113822	0	0	0	0
13.72346	0.004368393	-0.113822	0	0	0	0
13.73992	0.004368393	-0.113822	0	0	0	0
13.75648	0.004368393	-0.113822	0	0	0	0
13.77329	0.004368393	-0.113822	0	0	0	0
13.78964	0.004368393	-0.113822	0	0	0	0
13.80618	0.004368393	-0.113822	0	0	0	0
13.82275	0.004368393	-0.113822	0	0	0	0
13.83932	0.004368393	-0.113822	0	0	0	0
13.85589	0.004368393	-0.113822	0	0	0	0
13.87245	0.004368393	-0.113822	0	0	0	0
13.88902	0.004368393	-0.113822	0	0	0	0
13.90594	0.004368393	-0.113822	0	0	0	0
13.92576	0.004368393	-0.113822	0	0	0	0
13.94233	0.004368393	-0.113822	0	0	0	0
13.95898	0.004368393	-0.113822	0	0	0	0
13.97553	0.004368393	-0.113822	0	0	0	0
13.99203	0.004368393	-0.113822	0	0	0	0
14.0086	0.004368393	-0.113822	0	0	0	0
14.02516	0.004368393	-0.113822	0	0	0	0
14.04173	0.004368393	-0.113822	0	0	0	0
14.0583	0.004368393	-0.113822	0	0	0	0
14.07486	0.004368393	-0.113822	0	0	0	0
14.09143	0.004368393	-0.113822	0	0	0	0
14.10799	0.004368393	-0.113822	0	0	0	0
14.12456	0.004394709	-0.1138415	0.001588221	-0.001181723	0.04793398	-0.03566549
14.14113	0.004394709	-0.1138415	0	0	-0.04793122	0.03566344
14.15788	0.004394709	-0.1138415	0	0	0	0
14.17426	0.004394709	-0.1138415	0	0	0	0
14.28974	0.004394709	-0.1138415	0	0	0	0
14.30631	0.004394709	-0.1138415	0	0	0	0
14.32488	0.004368393	-0.113822	-0.001416881	0.001054236	-0.04032098	0.030001
14.3417	0.004368393	-0.113822	0	0	0.04003198	-0.02978597
14.35802	0.004368393	-0.113822	0	0	0	0
14.37459	0.004394709	-0.1138415	0.001588495	-0.001181927	0.04830934	-0.03594478
14.39144	0.004394709	-0.1138415	0	0	-0.04752912	0.03536425
14.4078	0.004394709	-0.1138415	0	0	0	0
14.42428	0.004394709	-0.1138415	0	0	0	0
14.44085	0.004394709	-0.1138415	0	0	0	0
14.45798	0.004394709	-0.1138415	0	0	0	0
14.47422	0.004394709	-0.1138415	0	0	0	0
14.49055	0.004394709	-0.1138415	0	0	0	0
14.50712	0.004394709	-0.1138415	0	0	0	0
14.52368	0.004394709	-0.1138415	0	0	0	0
14.54025	0.004394709	-0.1138415	0	0	0	0
14.55719	0.004394709	-0.1138415	0	0	0	0
14.57342	0.004394709	-0.1138415	0	0	0	0
14.59013	0.004394709	-0.1138415	0	0	0	0
14.60652	0.004394709	-0.1138415	0	0	0	0
14.62332	0.004394709	-0.1138415	0	0	0	0
14.63965	0.004394709	-0.1138415	0	0	0	0
14.65663	0.004394709	-0.1138415	0	0	0	0
14.67278	0.004394709	-0.1138415	0	0	0	0
14.68935	0.004394709	-0.1138415	0	0	0	0
14.70592	0.004394709	-0.1138415	0	0	0	0
14.72248	0.004368393	-0.113822	-0.001588678	0.001182063	-0.04795192	0.03567884
14.73905	0.004368393	-0.113822	0	0	0.04794778	-0.03567576
14.75591	0.004368393	-0.113822	0	0	0	0
14.77218	0.004368393	-0.113822	0	0	0	0
14.78875	0.004368393	-0.113822	0	0	0	0
14.80532	0.004368393	-0.113822	0	0	0	0
14.82188	0.004368393	-0.113822	0	0	0	0
14.83845	0.004368393	-0.113822	0	0	0	0
14.85502	0.004368393	-0.113822	0	0	0	0
14.87172	0.004368393	-0.113822	0	0	0	0
14.88821	0.004368393	-0.113822	0	0	0	0
14.90472	0.004368393	-0.113822	0	0	0	0
15.08846	0.004368393	-0.113822	0	0	0	0
15.10503	0.004368393	-0.113822	0	0	0	0
15.12182	0.004368393	-0.113822	0	0	0	0
15.13816	0.004368393	-0.113822	0	0	0	0
15.15473	0.004368393	-0.113822	0	0	0	0
15.1713	0.004368393	-0.113822	0	0	0	0
15.18786	0.004368393	-0.113822	0	0	0	0
15.20479	0.004368393	-0.113822	0	0	0	0
15.22099	0.004368393	-0.113822	0	0	0	0
15.23758	0.004368393	-0.113822	0	0	0	0
15.25413	0.004368393	-0.113822	0	0	0	0
15.27069	0.004368393	-0.113822	0	0	0	0
15.28744	0.004368393	-0.113822	0	0	0	0
15.30383	0.004368393	-0.113822	0	0	0	0
15.32039	0.004368393	-0.113822	0	0	0	0
15.33696	0.004368393	-0.113822	0	0	0	0
15.35353	0.004368393	-0.113822	0	0	0	0
15.37484	0.004368393	-0.113822	0	0	0	0
15.39141	0.004368393	-0.113822	0	0	0	0
15.40797	0.004368393	-0.113822	0	0	0	0
15.42454	0.004368393	-0.113822	0	0	0	0
15.44111	0.004368393	-0.113822	0	0	0	0
15.45767	0.004342078	-0.1138024	-0.001588495	0.001181927	-0.04794226	0.03567165
15.47424	0.004342078	-0.1138024	0	0	0.04794364	-0.03567268
15.49081	0.004342078	-0.1138024	0	0	0	0
15.50756	0.004342078	-0.1138024	0	0	0	0
15.52394	0.004342078	-0.1138024	0	0	0	0
15.54051	0.004342078	-0.1138024	0	0	0	0
15.55731	0.004342078	-0.1138024	0	0	0	0
15.89205	0.004342078	-0.1138024	0	0	0	0
15.91819	0.004342078	-0.1138024	0	0	0	0
15.93683	0.004473655	-0.1139786	0.007060812	-0.009456963	0.1576853	-0.2111973
15.9534	0.004473655	-0.1139786	0	0	-0.200558	0.2686191
15.97036	0.004473655	-0.1139786	0	0	0	0
15.98674	0.004631546	-0.1142136	0.009639652	-0.0143468	0.2891692	-0.4303736
16.0031	0.004631546	-0.1142136	0	0	-0.2943994	0.4381577
16.01967	0.004631546	-0.1142136	0	0	0	0
16.0365	-0.001868419	-0.1196048	-0.3860278	-0.3201807	-11.55588	-9.584725
16.0528	-0.001868419	-0.1196048	0	0	11.65101	9.663628
16.06973	-0.001868419	-0.1196048	0	0	0	0
16.08615	-0.0486458	-0.1597927	-2.849404	-2.448012	-85.44431	-73.40787
16.1025	-0.0486458	-0.1597927	0	0	86.95119	74.70247
16.11907	-0.0486458	-0.1597927	0	0	0	0
16.13642	-0.07268751	-0.2232076	-1.385293	-3.653992	-40.83735	-107.7169
16.15221	-0.07268751	-0.2232076	0	0	41.79378	110.2396
16.16877	-0.07268751	-0.2232076	0	0	0	0
16.18534	-0.06370316	-0.2745423	0.542296	-3.098569	16.37312	-93.5527
16.2019	-0.06370316	-0.2745423	0	0	-16.36653	93.515
16.21851	-0.06370316	-0.2745423	0	0	0	0
16.23504	-0.04938088	-0.3264242	0.8665902	-3.139188	26.15374	-94.74088
16.2516	-0.04938088	-0.3264242	0	0	-26.1854	94.85555
16.26817	-0.04938088	-0.3264242	0	0	0	0
16.28473	-0.03853355	-0.3438069	0.6548967	-1.049461	19.7671	-31.67643
16.30131	-0.03853355	-0.3438069	0	0	-19.76482	31.67278
16.31819	-0.03853355	-0.3438069	0	0	0	0
16.33444	-0.03874376	-0.3438069	-0.01293859	0	-0.39051	0
16.351	-0.03874376	-0.3438069	0	0	0.3943236	0
16.36757	-0.03874376	-0.3438069	0	0	0	0
16.38418	-0.03871748	-0.3438726	0.001582511	-0.003959195	0.04770536	-0.1193513
16.40092	-0.03871748	-0.3438726	0	0	-0.0474462	0.1187029
16.41727	-0.03871748	-0.3438726	0	0	0	0
16.43383	-0.03874376	-0.3438946	-0.00158652	-0.001324275	-0.04820874	-0.04024002
16.4504	-0.03874376	-0.3438946	0	0	0.04788404	0.03996899
16.46716	-0.03874376	-0.3438946	0	0	0	0
16.48354	-0.03877003	-0.3438726	-0.001604401	0.00133939	-0.04842093	0.04042286
16.5001	-0.03877003	-0.3438726	0	0	0.04870128	-0.0406569
16.51686	-0.03877003	-0.3438726	0	0	0	0
16.53323	-0.03879631	-0.3438946	-0.00160519	-0.001339858	-0.04845309	-0.04044397
16.5498	-0.03879631	-0.3438946	0	0	0.04873085	0.04067582
16.56643	-0.03879631	-0.3438946	0	0	0	0
16.58301	-0.03879631	-0.3439384	0	-0.002644922	0	-0.07965884
16.5995	-0.03879631	-0.3439384	0	0	0	0.07997122
16.61608	-0.03879631	-0.3439384	0	0	0	0
16.63271	-0.03882259	-0.3439603	-0.001580109	-0.00131911	-0.0475919	-0.03973077
16.6492	-0.03882259	-0.3439603	0	0	0.04770152	0.03982228
16.66577	-0.03882259	-0.3439603	0	0	0	0
16.68234	-0.03882259	-0.3439603	0	0	0	0
16.69902	-0.03882259	-0.3439603	0	0	0	0
16.71618	-0.03882259	-0.3439603	0	0	0	0
16.73203	-0.03882259	-0.3439603	0	0	0	0
16.7486	-0.03882259	-0.3439603	0	0	0	0
16.76517	-0.03882259	-0.3439603	0	0	0	0
16.78174	-0.03882259	-0.3439603	0	0	0	0
16.7983	-0.03882259	-0.3439603	0	0	0	0
16.81487	-0.03882259	-0.3439603	0	0	0	0
16.83206	-0.03882259	-0.3439603	0	0	0	0
16.84863	-0.03882259	-0.3439603	0	0	0	0
16.86552	-0.03882259	-0.3439603	0	0	0	0
16.88176	-0.03882259	-0.3439603	0	0	0	0
16.89833	-0.03882259	-0.3439603	0	0	0	0
16.91519	-0.03882259	-0.3439603	0	0	0	0
16.93146	-0.03882259	-0.3439603	0	0	0	0
17.33763	-0.03882259	-0.3439603	0	0	0	0
17.3629	-0.03882259	-0.3439603	0	0	0	0
17.38089	-0.04108214	-0.3420321	-0.1255995	0.1071817	-2.902812	2.477146
17.39746	-0.04108214	-0.3420321	0	0	3.634122	-3.101218
17.41403	-0.04108214	-0.3420321	0	0	0	0
17.4306	-0.05043089	-0.3341232	-0.5642917	0.4773828	-17.03036	14.40744
17.44716	-0.05043089	-0.3341232	0	0	17.03232	-14.4091
17.46373	-0.05043089	-0.3341232	0	0	0	0
17.4803	-0.06294306	-0.31016	-0.7551496	1.446259	-22.79046	43.6482
17.50202	-0.06294306	-0.31016	0	0	19.72184	-37.77118
17.52913	-0.06294306	-0.31016	0	0	0	0
17.54775	-0.03156846	-0.2469921	1.685037	3.392555	36.84243	74.17641
17.57242	-0.03156846	-0.2469921	0	0	-38.92513	-78.36958
17.58899	-0.03156846	-0.2469921	0	0	0	0
17.60558	-0.008973443	-0.2138608	1.362113	1.997284	41.08263	60.23999
17.62213	-0.008973443	-0.2138608	0	0	-41.10391	-60.2712
17.6387	-0.008973443	-0.2138608	0	0	0	0
17.65526	-0.02254881	-0.1949662	-0.8195994	1.140741	-24.73841	34.4316
17.67183	-0.02254881	-0.1949662	0	0	24.73698	-34.42962
17.6884	-0.02254881	-0.1949662	0	0	0	0
17.70497	-0.04806821	-0.1753306	-1.540177	1.185074	-46.47994	35.76353
17.72153	-0.04806821	-0.1753306	0	0	46.48262	-35.76559
17.73833	-0.04806821	-0.1753306	0	0	0	0
17.75466	-0.06210424	-0.1589348	-0.8590854	1.003514	-25.92874	30.28786
17.77123	-0.06210424	-0.1589348	0	0	26.10759	-30.49678
17.78792	-0.06210424	-0.1589348	0	0	0	0
17.80436	-0.04588882	-0.1252633	0.9860305	2.0475	29.76188	61.80079
17.82093	-0.04588882	-0.1252633	0	0	-29.86505	-62.01501
17.8375	-0.04588882	-0.1252633	0	0	0	0
17.85406	-0.02991213	-0.1031337	0.9645768	1.336054	29.11434	40.32683
18.08006	-0.02991213	-0.1031337	0	0	-3.976599	-5.508064
18.10911	-0.02991213	-0.1031337	0	0	0	0
18.12881	-0.001342105	-0.08076541	1.450743	1.135829	29.76237	23.30183
18.14538	-0.001342105	-0.08076541	0	0	-40.00037	-31.31746
18.16205	-0.001342105	-0.08076541	0	0	0	0
18.17857	-0.001342105	-0.08076541	0	0	0	0
18.19513	-0.001342105	-0.08076541	0	0	0	0
18.21164	-0.001342105	-0.08076541	0	0	0	0
18.22837	-0.001315789	-0.08078475	0.001573031	-0.001155708	0.04731892	-0.03476528
18.24495	-0.001315789	-0.08078475	0	0	-0.0472295	0.03469958
18.26186	-0.001315789	-0.08078475	0	0	0	0
18.28732	-0.001263157	-0.08082342	0.00206728	-0.00151913	0.04879351	-0.03585565
18.30389	-0.001263157	-0.08082342	0	0	-0.04918767	0.03614529
18.32045	-0.001210526	-0.08086209	0.003177208	-0.002334305	0.09588834	-0.07044946
18.33702	-0.001210526	-0.08086209	0	0	-0.09588834	0.07044946
18.35359	-0.001210526	-0.08086209	0	0	0	0
18.37015	-0.001078947	-0.08095878	0.007943025	-0.005836661	0.2397486	-0.1761711
18.38672	-0.001078947	-0.08095878	0	0	-0.2397348	0.1761609
18.40329	-0.001078947	-0.08095878	0	0	0	0
18.42177	-0.0009999997	-0.08101679	0.004271088	-0.003138785	0.1218523	-0.08954821
18.43834	-0.0009999997	-0.08101679	0	0	-0.1218523	0.08954821
18.45491	-0.0009999997	-0.08101679	0	0	0	0
18.47147	-0.0009999997	-0.08101679	0	0	0	0
18.48804	-0.0009999997	-0.08101679	0	0	0	0
18.50461	-0.0009999997	-0.08101679	0	0	0	0
18.52118	-0.001026315	-0.08103613	-0.001588418	-0.001167018	-0.04793578	-0.03521865
18.89725	-0.001026315	-0.08103613	0	0	0.00404551	0.002972255
18.92165	-0.001026315	-0.08103613	0	0	0	0
18.93821	-0.0008684208	-0.08161634	0.009531632	-0.03502582	0.2326608	-0.8549567
18.95478	-0.0008684208	-0.08161634	0	0	-0.2876487	1.05702
18.97135	-0.0008684208	-0.08161634	0	0	0	0
18.98792	-0.0009210524	-0.08165503	-0.003177578	-0.002335473	-0.09591053	-0.07049283
19.00449	-0.0009210524	-0.08165503	0	0	0.09589949	0.07048472
19.02105	-0.0009210524	-0.08165503	0	0	0	0
19.0377	-0.0009473682	-0.08175174	-0.001580419	-0.005808366	-0.04757937	-0.174864
19.05419	-0.0009473682	-0.08175174	0	0	0.04769714	0.1752968
19.07075	-0.0009473682	-0.08175174	0	0	0	0
19.08731	-0.0007631577	-0.08196452	0.01112152	-0.01284645	0.3357062	-0.3877737
19.10389	-0.0007631577	-0.08196452	0	0	-0.3356483	0.3877067
19.12045	-0.0007631577	-0.08196452	0	0	0	0
19.13703	-0.0005526315	-0.08215798	0.01269862	-0.01166887	0.3831127	-0.3520455
19.15359	-0.0005526315	-0.08215798	0	0	-0.383267	0.3521873
19.17015	-0.0005526315	-0.08215798	0	0	0	0
19.18672	-0.0004736842	-0.08221602	0.004764723	-0.0035029	0.1438079	-0.1057238
19.20329	-0.0004736842	-0.08221602	0	0	-0.1437913	0.1057116
19.22012	-0.0004736842	-0.08221602	0	0	0	0
19.23642	-0.0003421053	-0.08231276	0.008073171	-0.005935489	0.2436628	-0.1791437
19.25299	-0.0003421053	-0.08231276	0	0	-0.2456425	0.1805992
19.26965	-0.0003421053	-0.08231276	0	0	0	0
19.28612	-0.0003157895	-0.0823321	0.001598177	-0.001174635	0.04823862	-0.03545464
19.30268	-0.0003157895	-0.0823321	0	0	-0.04837788	0.03555699
19.31925	-0.0003157895	-0.0823321	0	0	0	0
19.33607	-0.0003421053	-0.08235145	-0.00156518	-0.001150826	-0.04688903	-0.03447599
19.35239	-0.0003421053	-0.08235145	0	0	0.04723721	0.034732
19.36899	-0.0003421053	-0.08235145	0	0	0	0
19.38552	-0.0003157895	-0.0823708	0.001591723	-0.001170343	0.04804107	-0.03532305
19.40209	-0.0003157895	-0.0823708	0	0	-0.04808813	0.03535765
19.41886	-0.0003157895	-0.0823708	0	0	0	0
19.43522	0.001026315	-0.08339642	0.08203911	-0.06269356	2.475945	-1.892095
19.45179	0.001026315	-0.08339642	0	0	-2.491434	1.903932
19.46836	0.001026315	-0.08339642	0	0	0	0
19.48492	0.001999997	-0.08426753	0.05878509	-0.05259268	1.774342	-1.587433
19.50149	0.001999997	-0.08426753	0	0	-1.77424	1.587342
19.51805	0.001999997	-0.08426753	0	0	0	0
19.53462	0.001973682	-0.08424817	-0.001588601	0.001168952	-0.04794958	0.03528309
19.55119	0.001973682	-0.08424817	0	0	0.04794407	-0.03527903
19.98003	0.001973682	-0.08424817	0	0	0	0
20.00752	0.00192105	-0.08420945	-0.001915053	0.001408896	-0.004196663	0.003087467
20.02408	0.00192105	-0.08420945	0	0	0.04347431	-0.03198386
20.04065	0.001947366	-0.08422881	0.001588601	-0.001168952	0.04794683	-0.03528106
20.05722	0.001947366	-0.08422881	0	0	-0.04794683	0.03528106
20.07403	0.001947366	-0.08422881	0	0	0	0
20.09035	0.001947366	-0.08422881	0	0	0	0
20.10692	0.001947366	-0.08422881	0	0	0	0
20.12349	0.001947366	-0.08422881	0	0	0	0
20.14005	0.00192105	-0.08420945	-0.001588418	0.001168817	-0.04793854	0.03527496
20.15662	0.00192105	-0.08420945	0	0	0.04793854	-0.03527496
20.17319	0.00192105	-0.08420945	0	0	0	0
20.18975	0.00192105	-0.08420945	0	0	0	0
20.20632	0.00192105	-0.08420945	0	0	0	0
20.22289	0.00192105	-0.08420945	0	0	0	0
20.51332	0.00192105	-0.08420945	0	0	0	0
20.53029	0.00192105	-0.08420945	0	0	0	0
20.54645	0.00192105	-0.08420945	0	0	0	0
20.56302	0.00192105	-0.08420945	0	0	0	0
20.57983	0.00192105	-0.08420945	0	0	0	0
20.59615	0.00192105	-0.08420945	0	0	0	0
20.61272	0.00192105	-0.08420945	0	0	0	0
20.62929	0.00192105	-0.08420945	0	0	0	0
20.64585	0.00192105	-0.08420945	0	0	0	0
20.66242	0.00192105	-0.08420945	0	0	0	0
20.67906	0.00192105	-0.08420945	0	0	0	0
20.69558	0.00192105	-0.08420945	0	0	0	0
20.71212	0.00192105	-0.08420945	0	0	0	0
20.72869	0.00192105	-0.08420945	0	0	0	0
20.74525	0.00192105	-0.08420945	0	0	0	0
20.76182	0.00192105	-0.08420945	0	0	0	0
20.77839	0.00192105	-0.08420945	0	0	0	0
20.79496	0.00192105	-0.08420945	0	0	0	0
20.81152	0.00192105	-0.08420945	0	0	0	0
20.82809	0.00192105	-0.08420945	0	0	0	0
20.84466	0.00192105	-0.08420945	0	0	0	0
20.86176	0.00192105	-0.08420945	0	0	0	0
20.87779	0.00192105	-0.08420945	0	0	0	0
20.89453	0.00192105	-0.08420945	0	0	0	0
20.91092	0.00192105	-0.08420945	0	0	0	0
20.92749	0.00192105	-0.08420945	0	0	0	0
20.94406	0.001947366	-0.08422881	0.001588418	-0.001168817	0.04793854	-0.03527496
20.96062	0.001947366	-0.08422881	0	0	-0.04793578	0.03527293
20.97719	0.001947366	-0.08422881	0	0	0	0
20.99376	0.001947366	-0.08422881	0	0	0	0
21.0105	0.001947366	-0.08422881	0	0	0	0
21.02689	0.001947366	-0.08422881	0	0	0	0
21.04346	0.001947366	-0.08422881	0	0	0	0
21.06002	0.001947366	-0.08422881	0	0	0	0
21.07659	0.001947366	-0.08422881	0	0	0	0
21.09315	0.001947366	-0.08422881	0	0	0	0
21.10972	0.001947366	-0.08422881	0	0	0	0
21.12679	0.001947366	-0.08422881	0	0	0	0
21.14285	0.00192105	-0.08424817	-0.001637626	-0.001204562	-0.04942933	-0.03635795
21.15942	0.00192105	-0.08424817	0	0	0.05017459	0.03690612
21.17612	0.00192105	-0.08424817	0	0	0	0
21.19255	0.00192105	-0.08428689	0	-0.002355899	0	-0.07111345
21.20912	0.00192105	-0.08428689	0	0	0	0.07138058
21.22643	0.00192105	-0.08428689	0	0	0	0
21.24225	0.001868419	-0.08432562	-0.003327384	-0.002448413	-0.1004322	-0.07390175
21.25882	0.001868419	-0.08432562	0	0	0.102739	0.07559914
21.27539	0.001868419	-0.08432562	0	0	0	0
21.29196	0.001842103	-0.08434498	-0.001588418	-0.001168367	-0.04793854	-0.03526139
21.30866	0.001842103	-0.08434498	0	0	0.04774615	0.03511988
21.32509	0.001842103	-0.08434498	0	0	0	0
21.34188	0.001815788	-0.08436434	-0.001567128	-0.001153151	-0.04716841	-0.03470827
21.35822	0.001815788	-0.08436434	0	0	0.04729602	0.03480218
21.37479	0.001815788	-0.08436434	0	0	0	0
21.39135	0.001763156	-0.08440307	-0.003177574	-0.002338172	-0.09591043	-0.0705743
21.40792	0.001763156	-0.08440307	0	0	0.09591043	0.0705743
21.42459	0.001763156	-0.08440307	0	0	0	0
21.44113	0.00173684	-0.08442242	-0.001590799	-0.001170118	-0.04790011	-0.03523312
21.45762	0.00173684	-0.08442242	0	0	0.04815732	0.03542231
21.47419	0.00173684	-0.08442242	0	0	0	0
21.49088	0.00173684	-0.08442242	0	0	0	0
21.50732	0.00173684	-0.08442242	0	0	0	0
21.52396	0.00173684	-0.08442242	0	0	0	0
21.54046	0.001710525	-0.08440307	-0.001595582	0.001173637	-0.04815476	0.03542043
21.55702	0.001710525	-0.08440307	0	0	0.04826311	-0.03550012
21.57359	0.001710525	-0.08440307	0	0	0	0
21.59015	0.001710525	-0.08440307	0	0	0	0
21.60678	0.001710525	-0.08440307	0	0	0	0
21.62329	0.001710525	-0.08440307	0	0	0	0
21.64489	0.001710525	-0.08440307	0	0	0	0
21.66146	0.001710525	-0.08440307	0	0	0	0
21.67802	0.001710525	-0.08440307	0	0	0	0
21.69459	0.001710525	-0.08440307	0	0	0	0
21.71116	0.001710525	-0.08440307	0	0	0	0
21.80965	0.001710525	-0.08440307	0	0	0	0
21.82646	0.001710525	-0.08440307	0	0	0	0
21.84403	0.001710525	-0.08440307	0	0	0	0
21.86061	0.001710525	-0.08440307	0	0	0	0
21.87717	0.001710525	-0.08440307	0	0	0	0
21.89373	0.001684209	-0.0843837	-0.001588967	0.001169221	-0.04796615	0.03529528
21.9103	0.001684209	-0.0843837	0	0	0.04796063	-0.03529122
21.92687	0.001684209	-0.0843837	0	0	0	0
21.94343	0.001684209	-0.0843837	0	0	0	0
21.96	0.001684209	-0.0843837	0	0	0	0
21.97657	0.001684209	-0.0843837	0	0	0	0
21.99313	0.001684209	-0.0843837	0	0	0	0
22.0097	0.001684209	-0.0843837	0	0	0	0
22.02627	0.001684209	-0.0843837	0	0	0	0
22.04283	0.001684209	-0.0843837	0	0	0	0
22.0594	0.001684209	-0.0843837	0	0	0	0
22.31439	0.001684209	-0.0843837	0	0	0	0
22.34436	0.001684209	-0.0843837	0	0	0	0
22.36094	0.001684209	-0.0843837	0	0	0	0
22.3775	0.001684209	-0.0843837	0	0	0	0
22.39406	0.001684209	-0.0843837	0	0	0	0
22.41098	0.001684209	-0.0843837	0	0	0	0
22.42719	0.001684209	-0.0843837	0	0	0	0
22.44376	0.001684209	-0.0843837	0	0	0	0
22.46058	0.001684209	-0.0843837	0	0	0	0
22.47689	0.001684209	-0.0843837	0	0	0	0
22.5022	0.001684209	-0.0843837	0	0	0	0
22.52746	0.001684209	-0.0843837	0	0	0	0
22.5729	0.001684209	-0.0843837	0	0	0	0
22.58969	0.001684209	-0.0843837	0	0	0	0
22.60655	0.001684209	-0.0843837	0	0	0	0
22.62261	0.001684209	-0.0843837	0	0	0	0
22.63918	0.001684209	-0.0843837	0	0	0	0
22.65574	0.001684209	-0.0843837	0	0	0	0
22.67231	0.001684209	-0.0843837	0	0	0	0
22.68888	0.001684209	-0.0843837	0	0	0	0
22.70551	0.001710525	-0.08440307	0.001581499	-0.001163726	0.04762556	-0.03504466
22.72201	0.001710525	-0.08440307	0	0	-0.04773523	0.03512536
22.73858	0.001710525	-0.08440307	0	0	0	0
22.75514	0.001710525	-0.08440307	0	0	0	0
22.77171	0.001710525	-0.08440307	0	0	0	0
22.78827	0.001710525	-0.08440307	0	0	0	0
22.80484	0.00173684	-0.08442242	0.001588601	-0.001168502	0.04794407	-0.03526545
22.82141	0.00173684	-0.08442242	0	0	-0.04794407	0.03526545
22.83797	0.00173684	-0.08442242	0	0	0	0
22.85454	0.00173684	-0.08442242	0	0	0	0
22.87111	0.00173684	-0.08442242	0	0	0	0
22.88767	0.00173684	-0.08442242	0	0	0	0
22.90424	0.001710525	-0.08440307	-0.001588418	0.001168367	-0.04793854	0.03526139
22.92081	0.001710525	-0.08440307	0	0	0.0479413	-0.03526342
22.93737	0.001710525	-0.08440307	0	0	0	0
22.95394	0.001710525	-0.08440307	0	0	0	0
22.97051	0.001710525	-0.08440307	0	0	0	0
22.98708	0.001710525	-0.08440307	0	0	0	0
23.00369	0.001710525	-0.08440307	0	0	0	0
23.02021	0.001710525	-0.08440307	0	0	0	0
23.03727	0.001710525	-0.08440307	0	0	0	0
23.05334	0.001684209	-0.0843837	-0.001637431	0.001204883	-0.04942347	0.03636763
23.06991	0.001684209	-0.0843837	0	0	0.0501657	-0.03691379
23.1843	0.001684209	-0.0843837	0	0	0	0
23.22282	0.001710525	-0.08440307	0.0006830873	-0.000502641	0.004467132	-0.003287082
23.23939	0.001710525	-0.08440307	0	0	-0.0123982	0.009123058
23.25608	0.001710525	-0.08440307	0	0	0	0
23.27253	0.001710525	-0.08440307	0	0	0	0
23.28909	0.001710525	-0.08440307	0	0	0	0
23.30566	0.001684209	-0.0843837	-0.001588784	0.001169086	-0.04795786	0.03528918
23.32223	0.001684209	-0.0843837	0	0	0.04795234	-0.03528512
23.33903	0.001684209	-0.0843837	0	0	0	0
23.35536	0.001684209	-0.0843837	0	0	0	0
23.37223	0.001684209	-0.0843837	0	0	0	0
23.38849	0.001684209	-0.0843837	0	0	0	0
23.40506	0.001684209	-0.0843837	0	0	0	0
23.42163	0.001684209	-0.0843837	0	0	0	0
23.43819	0.001684209	-0.0843837	0	0	0	0
23.45476	0.001684209	-0.0843837	0	0	0	0
23.47133	0.001684209	-0.0843837	0	0	0	0
23.48789	0.001684209	-0.0843837	0	0	0	0
23.50446	0.001710525	-0.08440307	0.001588418	-0.001168817	0.04793854	-0.03527496
23.52106	0.001710525	-0.08440307	0	0	-0.04788617	0.03523643
23.53759	0.001710525	-0.08440307	0	0	0	0
23.55416	0.001710525	-0.08440307	0	0	0	0
23.57072	0.001710525	-0.08440307	0	0	0	0
23.58729	0.001710525	-0.08440307	0	0	0	0
23.60386	0.001710525	-0.08444179	0	-0.002337184	0	-0.07053229
23.62043	0.001710525	-0.08444179	0	0	0	0.07054041
23.63699	0.001710525	-0.08444179	0	0	0	0
23.65356	0.001605262	-0.08455797	-0.006353678	-0.007012452	-0.1917544	-0.2116362
23.67013	0.001605262	-0.08455797	0	0	0.1917544	0.2116362
23.75276	0.001605262	-0.08455797	0	0	0	0
23.77604	-0.001578946	-0.08713451	-0.1367946	-0.1106892	-1.291574	-1.045094
23.79261	-0.001578946	-0.08713451	0	0	3.432719	2.777631
23.80917	0.001315789	-0.0902762	0.174807	-0.1897199	5.27599	-5.726089
23.82574	0.001315789	-0.0902762	0	0	-5.276598	5.726748
23.84268	0.001315789	-0.0902762	0	0	0	0
23.85931	0.002605257	-0.1530377	0.07752901	-3.77352	2.309519	-112.4097
23.87582	0.002605257	-0.1530377	0	0	-2.339561	113.8719
23.89287	0.002605257	-0.1530377	0	0	0	0
23.90895	-0.02286444	-0.2479278	-1.583288	-5.898713	-47.78374	-178.0235
23.92555	-0.02286444	-0.2479278	0	0	48.439	180.4647
23.97842	-0.02286444	-0.2479278	0	0	0	0
24.02414	-0.0312004	-0.3342976	-0.1823298	-1.889139	-1.849394	-19.16177
24.04071	-0.0312004	-0.3342976	0	0	2.927282	30.32989
24.05727	-0.03114782	-0.3343412	0.003174137	-0.002632052	0.09580117	-0.07944007
24.07384	-0.03114782	-0.3343412	0	0	-0.09580117	0.07944007
24.09041	-0.03114782	-0.3343412	0	0	0	0
24.10698	-0.03080604	-0.3346246	0.02062969	-0.01710907	0.6225693	-0.516323
24.12354	-0.03080604	-0.3346246	0	0	-0.6226051	0.5163528
24.14011	-0.03080604	-0.3346246	0	0	0	0
24.15668	-0.03028022	-0.3350608	0.03173884	-0.02632469	0.9578802	-0.7944807
24.17325	-0.03028022	-0.3350608	0	0	-0.9578802	0.7944807
24.18981	-0.03028022	-0.3350608	0	0	0	0
24.20638	-0.03025392	-0.3350826	0.001587125	-0.001315127	0.04790228	-0.03969289
24.22327	-0.03025392	-0.3350826	0	0	-0.04744074	0.03931044
24.23957	-0.03025392	-0.3350826	0	0	0	0
24.25668	-0.03025392	-0.3350826	0	0	0	0
24.27264	-0.03025392	-0.3350826	0	0	0	0
24.28921	-0.03025392	-0.3350826	0	0	0	0
24.30578	-0.03025392	-0.3350826	0	0	0	0
24.32238	-0.03025392	-0.3350826	0	0	0	0
24.33891	-0.03025392	-0.3350826	0	0	0	0
24.35548	-0.03022763	-0.3351044	0.001587308	-0.001317077	0.04795473	-0.0397907
24.37233	-0.03022763	-0.3351044	0	0	-0.04749494	0.03940919
24.38895	-0.03022763	-0.3351044	0	0	0	0
24.40518	-0.03025392	-0.3351698	-0.001620524	-0.004033917	-0.04934209	-0.1228256
24.42174	-0.03025392	-0.3351698	0	0	0.04941958	0.1230185
24.43868	-0.03025392	-0.3351698	0	0	0	0
24.45488	-0.03025392	-0.3351698	0	0	0	0
24.47144	-0.03025392	-0.3351698	0	0	0	0
24.48801	-0.03025392	-0.3351698	0	0	0	0
24.50458	-0.03025392	-0.3351698	0	0	0	0
24.52114	-0.03025392	-0.3351698	0	0	0	0
24.53771	-0.03025392	-0.3351698	0	0	0	0
24.68274	-0.03025392	-0.3351698	0	0	0	0
24.69931	-0.03025392	-0.3351698	0	0	0	0
24.7198	-0.03025392	-0.3351698	0	0	0	0
24.73637	-0.03025392	-0.3351698	0	0	0	0
24.75294	-0.03025392	-0.3351698	0	0	0	0
24.76954	-0.03025392	-0.3351698	0	0	0	0
24.78607	-0.03025392	-0.3351698	0	0	0	0
24.80874	-0.03025392	-0.3351698	0	0	0	0
24.82533	-0.03025392	-0.3351698	0	0	0	0
24.84188	-0.03025392	-0.3351698	0	0	0	0
24.85845	-0.03025392	-0.3351698	0	0	0	0
24.87502	-0.03025392	-0.3351698	0	0	0	0
24.8917	-0.03025392	-0.3351698	0	0	0	0
24.90815	-0.03025392	-0.3351698	0	0	0	0
24.92471	-0.03025392	-0.3351698	0	0	0	0
24.94128	-0.03025392	-0.3351698	0	0	0	0
24.95785	-0.03025392	-0.3351698	0	0	0	0
24.97441	-0.03025392	-0.3351698	0	0	0	0
24.9911	-0.03025392	-0.3351698	0	0	0	0
25.00754	-0.03025392	-0.3351698	0	0	0	0
25.02411	-0.03025392	-0.3351698	0	0	0	0
25.04067	-0.03025392	-0.3351698	0	0	0	0
25.05724	-0.03025392	-0.3351698	0	0	0	0
25.07381	-0.03025392	-0.3351698	0	0	0	0
25.09038	-0.03025392	-0.3351698	0	0	0	0
25.10695	-0.03025392	-0.3351698	0	0	0	0
25.12351	-0.03025392	-0.3351698	0	0	0	0
25.14008	-0.03030651	-0.3351262	-0.003173884	0.002633548	-0.09578802	0.07948065
25.15665	-0.03030651	-0.3351262	0	0	0.09578802	-0.07948065
25.17321	-0.03030651	-0.3351262	0	0	0	0
25.18978	-0.03233084	-0.3333605	-0.1222029	0.10659	-3.688303	3.217078
25.20635	-0.03233084	-0.3333605	0	0	3.688303	-3.217078
25.22376	-0.03233084	-0.3333605	0	0	0	0
25.23948	-0.06401767	-0.3047716	-2.015899	1.81881	-60.84696	54.89811
25.25605	-0.06401767	-0.3047716	0	0	62.43571	-56.33153
25.2732	-0.06401767	-0.3047716	0	0	0	0
25.28918	-0.1077911	-0.2677228	-2.740612	2.319592	-82.72137	70.0135
25.42059	-0.1077911	-0.2677228	0	0	18.59521	-15.73856
25.43738	-0.1077911	-0.2677228	0	0	0	0
25.46234	-0.09886087	-0.1975219	0.3577605	2.812369	8.567949	67.35298
25.47901	-0.09886087	-0.1975219	0	0	-8.595039	-67.56594
25.49598	-0.04699169	-0.1576585	3.055549	2.348303	90.83624	69.81102
25.51204	-0.04699169	-0.1576585	0	0	-92.48285	-71.0765
25.52861	-0.04699169	-0.1576585	0	0	0	0
25.54566	-0.01920816	-0.1364415	1.6301	1.24483	48.49582	37.03394
25.56175	-0.01920816	-0.1364415	0	0	-49.19651	-37.56903
25.57832	-0.01920816	-0.1364415	0	0	0	0
25.59921	-0.02770344	-0.1254994	-0.4065696	0.5236728	-10.85279	13.97869
25.61578	-0.02770344	-0.1254994	0	0	10.85168	-13.97726
25.63235	-0.04402417	-0.1132738	-0.9853483	0.7381103	-29.73787	22.27621
25.64891	-0.04402417	-0.1132738	0	0	29.74129	-22.27878
25.66548	-0.04402417	-0.1132738	0	0	0	0
25.68204	-0.05113958	-0.1078959	-0.4295366	0.3246438	-12.96419	9.798333
25.69861	-0.05113958	-0.1078959	0	0	12.96419	-9.798333
25.71518	-0.05113958	-0.1078959	0	0	0	0
25.73174	-0.05095585	-0.1077201	0.0110926	0.01061444	0.3348138	0.3203813
25.74831	-0.05095585	-0.1077201	0	0	-0.3348138	-0.3203813
25.76488	-0.05095585	-0.1077201	0	0	0	0
25.78173	-0.05087711	-0.1076224	0.004673217	0.005796585	0.1398386	0.1734536
25.79802	-0.05087711	-0.1076224	0	0	-0.1410055	-0.174901
26.28722	-0.05087711	-0.1076224	0	0	0	0
26.30986	-0.05077212	-0.1077006	0.004637705	-0.003451415	0.009060936	-0.006743216
26.32643	-0.05077212	-0.1077006	0	0	-0.1182863	0.08802955
26.34299	-0.05077212	-0.1077006	0	0	0	0
26.35956	-0.05077212	-0.1077006	0	0	0	0
26.37713	-0.05077212	-0.1077006	0	0	0	0
26.39272	-0.05077212	-0.1077006	0	0	0	0
26.40926	-0.05077212	-0.1077006	0	0	0	0
26.42583	-0.05077212	-0.1077006	0	0	0	0
26.44239	-0.05077212	-0.1077006	0	0	0	0
26.45896	-0.05077212	-0.1077006	0	0	0	0
26.47553	-0.05077212	-0.1077006	0	0	0	0
26.49209	-0.05074587	-0.1077201	0.001584721	-0.001179432	0.04783524	-0.03560148
26.50866	-0.05074587	-0.1077201	0	0	-0.04782973	0.03559738
26.52523	-0.05074587	-0.1077201	0	0	0	0
26.54179	-0.05074587	-0.1077201	0	0	0	0
26.55836	-0.05074587	-0.1077201	0	0	0	0
26.57493	-0.05074587	-0.1077201	0	0	0	0
26.59149	-0.05074587	-0.1077201	0	0	0	0
26.60806	-0.05074587	-0.1077201	0	0	0	0
26.62475	-0.05074587	-0.1077201	0	0	0	0
26.64119	-0.05074587	-0.1077201	0	0	0	0
26.65776	-0.05074587	-0.1077201	0	0	0	0
26.67433	-0.05074587	-0.1077201	0	0	0	0
26.6909	-0.05074587	-0.1077201	0	0	0	0
26.70746	-0.05074587	-0.1077201	0	0	0	0
26.72402	-0.05074587	-0.1077201	0	0	0	0
26.74059	-0.05074587	-0.1077201	0	0	0	0
26.75731	-0.05074587	-0.1077201	0	0	0	0
26.77373	-0.05074587	-0.1077201	0	0	0	0
26.7938	-0.05074587	-0.1077201	0	0	0	0
26.81037	-0.05074587	-0.1077201	0	0	0	0
26.83171	-0.05074587	-0.1077201	0	0	0	0
26.84828	-0.05074587	-0.1077201	0	0	0	0
26.86485	-0.05074587	-0.1077201	0	0	0	0
26.88141	-0.05074587	-0.1077201	0	0	0	0
26.89798	-0.05074587	-0.1077201	0	0	0	0
26.91455	-0.05074587	-0.1077201	0	0	0	0
26.93111	-0.05074587	-0.1077201	0	0	0	0
26.94768	-0.05074587	-0.1077201	0	0	0	0
26.9645	-0.05074587	-0.1077201	0	0	0	0
26.98081	-0.05074587	-0.1077201	0	0	0	0
26.99738	-0.05074587	-0.1077201	0	0	0	0
27.01395	-0.05074587	-0.1077201	0	0	0	0
27.03051	-0.05074587	-0.1077201	0	0	0	0
27.04708	-0.05074587	-0.1077201	0	0	0	0
27.06365	-0.05074587	-0.1077201	0	0	0	0
27.08022	-0.05074587	-0.1077201	0	0	0	0
27.09678	-0.05074587	-0.1077201	0	0	0	0
27.11335	-0.05074587	-0.1077201	0	0	0	0
27.12992	-0.05074587	-0.1077201	0	0	0	0
27.14648	-0.05074587	-0.1077201	0	0	0	0
27.16305	-0.05074587	-0.1077201	0	0	0	0
27.17963	-0.05074587	-0.1077201	0	0	0	0
27.19618	-0.05074587	-0.1077201	0	0	0	0
27.21275	-0.05071962	-0.1077396	0.001584721	-0.001179432	0.04785728	-0.03561788
27.22931	-0.05071962	-0.1077396	0	0	-0.04782973	0.03559738
27.24602	-0.05071962	-0.1077396	0	0	0	0
27.26245	-0.05066713	-0.1077396	0.003195569	0	0.09644802	0
27.27901	-0.05066713	-0.1077396	0	0	-0.09685504	0
27.43433	-0.05066713	-0.1077396	0	0	0	0
27.45258	-0.0502209	-0.1075248	0.02444907	0.01177264	0.1408595	0.0678262
27.46915	-0.0502209	-0.1075248	0	0	-0.7021062	-0.3380759
27.48572	-0.0502209	-0.1075248	0	0	0	0
27.51144	-0.04987964	-0.1077396	0.01327059	-0.008355759	0.3138583	-0.1976193
27.52838	-0.04987964	-0.1077396	0	0	-0.3110798	0.1958698
27.54461	-0.0498009	-0.1077982	0.004851599	-0.003610183	0.1462364	-0.1088177
27.56114	-0.0498009	-0.1077982	0	0	-0.1481097	0.1102117
27.57771	-0.0498009	-0.1077982	0	0	0	0
27.59427	-0.04974839	-0.1078373	0.003169527	-0.002358592	0.09565102	-0.07117836
27.61084	-0.04974839	-0.1078373	0	0	-0.09566203	0.07118656
27.62741	-0.04974839	-0.1078373	0	0	0	0
27.64397	-0.04974839	-0.1078373	0	0	0	0
27.66054	-0.04974839	-0.1078373	0	0	0	0
27.67711	-0.04974839	-0.1078373	0	0	0	0
27.69371	-0.04974839	-0.1078373	0	0	0	0
27.71024	-0.04974839	-0.1078373	0	0	0	0
27.72681	-0.04974839	-0.1078373	0	0	0	0
27.74338	-0.04974839	-0.1078373	0	0	0	0
27.75994	-0.04974839	-0.1078373	0	0	0	0
27.77658	-0.04974839	-0.1078373	0	0	0	0
27.79308	-0.04974839	-0.1078373	0	0	0	0
27.80964	-0.04974839	-0.1078373	0	0	0	0
27.82621	-0.04974839	-0.1078373	0	0	0	0
27.84278	-0.04974839	-0.1078373	0	0	0	0
27.85934	-0.04974839	-0.1078373	0	0	0	0
27.87596	-0.04974839	-0.1078373	0	0	0	0
27.89248	-0.04974839	-0.1078373	0	0	0	0
27.90904	-0.04974839	-0.1078373	0	0	0	0
27.92561	-0.04974839	-0.1078373	0	0	0	0
28.3961	-0.04974839	-0.1078373	0	0	0	0
28.41267	-0.04974839	-0.1078373	0	0	0	0
28.42923	-0.04974839	-0.1078373	0	0	0	0
28.4458	-0.04974839	-0.1078373	0	0	0	0
28.46237	-0.04974839	-0.1078373	0	0	0	0
28.47893	-0.04974839	-0.1078373	0	0	0	0
28.49622	-0.04974839	-0.1078373	0	0	0	0
28.51207	-0.04974839	-0.1078373	0	0	0	0
28.52871	-0.04974839	-0.1078373	0	0	0	0
28.55547	-0.04974839	-0.1078373	0	0	0	0
28.577	-0.04974839	-0.1078373	0	0	0	0
28.59357	-0.04974839	-0.1078373	0	0	0	0
28.61014	-0.04974839	-0.1078373	0	0	0	0
28.6267	-0.04974839	-0.1078373	0	0	0	0
28.64342	-0.04974839	-0.1078373	0	0	0	0
28.65984	-0.04974839	-0.1078373	0	0	0	0
28.67652	-0.04974839	-0.1078373	0	0	0	0
28.69298	-0.04974839	-0.1078373	0	0	0	0
28.70954	-0.04974839	-0.1078373	0	0	0	0
28.72611	-0.04974839	-0.1078373	0	0	0	0
28.74267	-0.04974839	-0.1078373	0	0	0	0
28.75924	-0.04974839	-0.1078373	0	0	0	0
28.7758	-0.04974839	-0.1078373	0	0	0	0
28.79237	-0.04974839	-0.1078373	0	0	0	0
28.80894	-0.04974839	-0.1078373	0	0	0	0
28.82551	-0.04974839	-0.1078373	0	0	0	0
28.84207	-0.04974839	-0.1078373	0	0	0	0
28.85864	-0.04974839	-0.1078373	0	0	0	0
28.87579	-0.04974839	-0.1078373	0	0	0	0
28.89178	-0.04974839	-0.1078373	0	0	0	0
28.90862	-0.04974839	-0.1078373	0	0	0	0
28.92581	-0.04974839	-0.1078373	0	0	0	0
28.94147	-0.04974839	-0.1078373	0	0	0	0
29.27498	-0.04974839	-0.1078373	0	0	0	0
29.30126	-0.04974839	-0.1078373	0	0	0	0
29.31916	-0.04974839	-0.1078373	0	0	0	0
29.33599	-0.04974839	-0.1078373	0	0	0	0
29.3523	-0.04974839	-0.1078373	0	0	0	0
29.36886	-0.04974839	-0.1078373	0	0	0	0
29.38562	-0.04974839	-0.1078373	0	0	0	0
29.402	-0.04974839	-0.1078373	0	0	0	0
29.41889	-0.04974839	-0.1078373	0	0	0	0
29.43513	-0.04974839	-0.1078373	0	0	0	0
29.4517	-0.04974839	-0.1078373	0	0	0	0
29.46826	-0.04974839	-0.1078373	0	0	0	0
29.48493	-0.04974839	-0.1078373	0	0	0	0
29.5014	-0.04974839	-0.1078373	0	0	0	0
29.51796	-0.04977464	-0.1078178	-0.001584764	0.001179296	-0.04798017	0.03570427
29.53453	-0.04977464	-0.1078178	0	0	0.04782826	-0.03559123
29.5511	-0.04977464	-0.1078178	0	0	0	0
29.56766	-0.04977464	-0.1078178	0	0	0	0
29.58423	-0.04977464	-0.1078178	0	0	0	0
29.6008	-0.04977464	-0.1078178	0	0	0	0
29.61736	-0.0498009	-0.1077982	-0.001584399	0.001179025	-0.04782	0.03558508
29.63393	-0.0498009	-0.1077982	0	0	0.0478145	-0.03558099
29.6505	-0.0498009	-0.1077982	0	0	0	0
29.66707	-0.0498009	-0.1077982	0	0	0	0
29.68363	-0.0498009	-0.1077982	0	0	0	0
29.70035	-0.0498009	-0.1077982	0	0	0	0
29.71678	-0.0498009	-0.1077982	0	0	0	0
29.73333	-0.0498009	-0.1077982	0	0	0	0
29.7499	-0.0498009	-0.1077982	0	0	0	0
29.76646	-0.0498009	-0.1077982	0	0	0	0
29.78303	-0.0498009	-0.1077982	0	0	0	0
29.79977	-0.0498009	-0.1077982	0	0	0	0
29.81616	-0.0498009	-0.1077982	0	0	0	0
29.83273	-0.0498009	-0.1077982	0	0	0	0
29.8493	-0.0498009	-0.1077982	0	0	0	0
29.86586	-0.0498009	-0.1077982	0	0	0	0
29.88243	-0.0498009	-0.1077982	0	0	0	0
29.899	-0.0498009	-0.1077982	0	0	0	0
29.91557	-0.0499584	-0.107681	-0.009506812	0.007074513	-0.2869162	0.2135092
29.93222	-0.0499584	-0.107681	0	0	0.2861749	-0.2129576
29.9487	-0.0499584	-0.107681	0	0	0	0
29.96562	-0.04783191	-0.1021979	0.1256925	0.3240968	3.763296	9.703617
29.98184	-0.04783191	-0.1021979	0	0	-3.793408	-9.78126
29.9984	-0.04783191	-0.1021979	0	0	0	0
30.01547	-0.03871748	-0.05867476	0.53392	2.549572	15.87252	75.79438
30.03154	-0.03871748	-0.05867476	0	0	-16.11374	-76.94622
30.04836	-0.03871748	-0.05867476	0	0	0	0
30.06467	-0.03926928	-0.003304171	-0.03381635	3.393353	-1.020579	102.4116
30.08124	-0.03926928	-0.003304171	0	0	1.028334	-103.1897
30.09782	-0.03926928	-0.003304171	0	0	0	0
30.11437	-0.04084569	0.03644674	-0.09525137	2.401859	-2.875023	72.49658
30.13094	-0.04084569	0.03644674	0	0	2.876016	-72.52163
30.14758	-0.04084569	0.03644674	0	0	0	0
30.16407	-0.04273712	0.06539718	-0.1147347	1.756146	-3.463299	53.00974
30.18064	-0.04273712	0.06539718	0	0	3.470893	-53.12597
30.1972	-0.04273712	0.06539718	0	0	0	0
30.21377	-0.04116095	0.08097328	0.09513783	0.9401754	2.871431	28.37618
30.23034	-0.04116095	0.08097328	0	0	-2.871265	-28.37455
30.24691	-0.04116095	0.08097328	0	0	0	0
30.41938	-0.05869566	0.09616259	-0.1016636	0.08806536	-0.5377749	0.4658435
30.43801	-0.05869566	0.09616259	0	0	0.5319728	-0.4608175
30.45467	-0.05861698	0.09610753	0.004724321	-0.003306734	0.1339012	-0.09372261
30.47125	-0.05861698	0.09610753	0	0	-0.1421385	0.09948818
30.4878	-0.05861698	0.09610753	0	0	0	0
30.50437	-0.05845963	0.09596066	0.009499136	-0.00886586	0.2868331	-0.2677109
30.52094	-0.05845963	0.09596066	0	0	-0.286701	0.2675876
30.5375	-0.05845963	0.09596066	0	0	0	0
30.55432	-0.05840718	0.09588722	0.003118267	-0.004366017	0.09339447	-0.1307655
30.57063	-0.05840718	0.09588722	0	0	-0.09411491	0.1317742
30.58765	-0.05840718	0.09588722	0	0	0	0
30.60377	-0.05848585	0.09583215	-0.004882235	-0.003417564	-0.1473631	-0.1031542
30.62035	-0.05848585	0.09583215	0	0	0.1493144	0.1045201
30.6369	-0.05848585	0.09583215	0	0	0	0
30.65346	-0.05898413	0.09548331	-0.03008294	-0.02106064	-0.9084278	-0.6359776
30.67003	-0.05898413	0.09548331	0	0	0.9079571	0.6356481
30.6868	-0.05898413	0.09548331	0	0	0	0
30.70316	-0.05971838	0.09507937	-0.04486701	-0.02468313	-1.354245	-0.7450241
30.71976	-0.05971838	0.09507937	0	0	1.36122	0.7488611
30.73726	-0.05971838	0.09507937	0	0	0	0
30.75337	-0.05982327	0.09515281	-0.006510802	0.004558833	-0.1936978	0.1356263
30.76943	-0.05982327	0.09515281	0	0	0.2023915	-0.1417136
30.786	-0.05982327	0.09515281	0	0	0	0
30.80257	-0.05987571	0.09522626	-0.0031652	0.004432809	-0.09552043	0.1337747
30.81913	-0.05987571	0.09522626	0	0	0.09553143	-0.1337902
30.8357	-0.05987571	0.09522626	0	0	0	0
30.85234	-0.05990193	0.0952079	-0.001575527	-0.001103025	-0.04744026	-0.0332129
30.86883	-0.05990193	0.0952079	0	0	0.04755223	0.03329129
30.88603	-0.05990193	0.0952079	0	0	0	0
30.90196	-0.05992816	0.09522626	-0.001646078	0.001152419	-0.0496816	0.03478206
30.91855	-0.05992816	0.09522626	0	0	0.0506229	-0.03544106
31.07356	-0.05992816	0.09522626	0	0	0	0
31.09861	-0.05992816	0.09518953	0	-0.001466071	0	-0.008142321
31.11517	-0.05992816	0.09518953	0	0	0	0.03522816
31.224	-0.06021659	0.09495083	-0.002650345	-0.002193393	-0.021136	-0.0174919
31.24135	-0.06021659	0.09495083	0	0	0.02100437	0.01738296
31.25715	-0.06055744	0.09467538	-0.02157776	-0.0174371	-0.6509184	-0.5260105
31.27371	-0.06055744	0.09467538	0	0	0.6669199	0.5389414
31.29086	-0.06055744	0.09467538	0	0	0	0
31.31034	-0.06095073	0.09436319	-0.02019524	-0.01603131	-0.5513784	-0.4376933
31.3269	-0.06095073	0.09436319	0	0	0.5603069	0.4447809
31.34347	-0.06095073	0.09436319	0	0	0	0
31.36003	-0.06192074	0.09368363	-0.05856361	-0.04102777	-1.767657	-1.238363
31.3766	-0.06192074	0.09368363	0	0	1.767555	1.238292
31.39317	-0.06192074	0.09368363	0	0	0	0
31.40974	-0.0632576	0.09252632	-0.08070218	-0.06986363	-2.435737	-2.10861
31.4263	-0.0632576	0.09252632	0	0	2.435737	2.10861
31.44287	-0.0632576	0.09252632	0	0	0	0
31.45944	-0.06019036	0.08993504	0.1851385	-0.1564097	5.587492	-4.720453
31.47602	-0.06019036	0.08993504	0	0	-5.585242	4.718551
31.49257	-0.06019036	0.08993504	0	0	0	0
31.50913	-0.05253058	0.08434301	0.4624523	-0.3376135	13.96488	-10.19506
31.5257	-0.05253058	0.08434301	0	0	-13.95764	10.18978
31.54227	-0.05253058	0.08434301	0	0	0	0
31.55883	-0.05255682	0.0843246	-0.001584496	-0.001111509	-0.0478257	-0.03354927
31.57555	-0.05255682	0.0843246	0	0	0.04761463	0.0334012
31.59197	-0.05255682	0.0843246	0	0	0	0
31.60853	-0.05371145	0.08101012	-0.06970952	-0.2001085	-2.113326	-6.066525
31.6251	-0.05371145	0.08101012	0	0	2.103959	6.039634
31.64167	-0.05371145	0.08101012	0	0	0	0
31.65823	-0.05218941	0.03760153	0.09189179	-2.620751	2.773619	-79.10352
31.6748	-0.05218941	0.03760153	0	0	-2.773459	79.09897
31.69137	-0.05218941	0.03760153	0	0	0	0
31.70794	-0.04426055	-0.03142551	0.4785316	-4.166	14.44211	-125.7301
31.7245	-0.04426055	-0.03142551	0	0	-14.44128	125.7229
31.74107	-0.04426055	-0.03142551	0	0	0	0
31.75767	-0.04956464	-0.1117277	-0.3194932	-4.837026	-9.632344	-145.8306
31.7742	-0.04956464	-0.1117277	0	0	9.643435	145.9985
31.79078	-0.04956464	-0.1117277	0	0	0	0
31.8081	-0.05961349	-0.1619489	-0.580039	-2.898864	-17.11064	-85.51395
31.82391	-0.05961349	-0.1619489	0	0	17.50763	87.49796
31.84057	-0.05961349	-0.1619489	0	0	0	0
31.85704	-0.05830227	-0.162708	0.0796313	-0.04610307	2.403554	-1.391554
31.87361	-0.05830227	-0.162708	0	0	-2.410354	1.39549
31.89049	-0.05830227	-0.162708	0	0	0	0
31.90674	-0.05827605	-0.162728	0.00161366	-0.001229499	0.04870597	-0.03711063
31.92331	-0.05827605	-0.162728	0	0	-0.04916165	0.03745782
31.94008	-0.05827605	-0.162728	0	0	0	0
31.95644	-0.05827605	-0.162728	0	0	0	0
31.97319	-0.05827605	-0.162728	0	0	0	0
31.98958	-0.05827605	-0.162728	0	0	0	0
32.00614	-0.05827605	-0.162728	0	0	0	0
32.02271	-0.05827605	-0.162728	0	0	0	0
32.03942	-0.05827605	-0.162728	0	0	0	0
32.05584	-0.05827605	-0.162728	0	0	0	0
32.07262	-0.05827605	-0.162728	0	0	0	0
32.08939	-0.05827605	-0.162728	0	0	0	0
32.10553	-0.05830227	-0.162708	-0.001624144	0.001237487	-0.04935198	0.03760284
32.1221	-0.05830227	-0.162708	0	0	0.04964546	-0.03782646
32.13904	-0.05830227	-0.162708	0	0	0	0
32.15523	-0.05830227	-0.162708	0	0	0	0
32.1718	-0.05830227	-0.162708	0	0	0	0
32.18837	-0.05830227	-0.162708	0	0	0	0
32.20494	-0.05830227	-0.162708	0	0	0	0
32.22171	-0.05830227	-0.162708	0	0	0	0
32.23807	-0.05830227	-0.162708	0	0	0	0
32.25464	-0.05827605	-0.1626881	0.001583007	0.001206144	0.04806855	0.03662496
32.27121	-0.05827605	-0.1626881	0	0	-0.04777525	-0.03640148
32.28777	-0.05827605	-0.1626881	0	0	0	0
32.30433	-0.05819736	-0.1626281	0.00475034	0.003618364	0.1433986	0.1092276
32.3209	-0.05819736	-0.1626281	0	0	-0.1433655	-0.1092025
32.33773	-0.05819736	-0.1626281	0	0	0	0
32.35403	-0.05798755	-0.1624683	0.01287198	0.009806305	0.3885217	0.2959889
32.3706	-0.05798755	-0.1624683	0	0	-0.3916332	-0.2983593
32.38717	-0.05798755	-0.1624683	0	0	0	0
32.40374	-0.05783018	-0.1623484	0.009498717	0.007235062	0.2866718	0.2183546
32.42039	-0.05783018	-0.1623484	0	0	-0.2859476	-0.217803
32.43687	-0.05783018	-0.1623484	0	0	0	0
32.45343	-0.05759413	-0.1621686	0.01425147	0.01085419	0.4312521	0.3284499
32.47071	-0.05759413	-0.1621686	0	0	-0.4211405	-0.3207487
32.48659	-0.05759413	-0.1621686	0	0	0	0
32.50313	-0.05696462	-0.1616493	0.03804969	0.03138961	1.173608	0.9681841
32.5197	-0.05696462	-0.1616493	0	0	-1.149136	-0.947995
32.53708	-0.05696462	-0.1616493	0	0	0	0
32.55312	-0.05675477	-0.1614895	0.01308533	0.00996261	0.3915801	0.2981322
32.5694	-0.05675477	-0.1614895	0	0	-0.4048438	-0.3082307
32.58619	-0.05675477	-0.1614895	0	0	0	0
32.60275	-0.05607274	-0.1609305	0.04119609	0.03377016	1.235336	1.012657
32.6191	-0.05607274	-0.1609305	0	0	-1.251948	-1.026275
32.63566	-0.05607274	-0.1609305	0	0	0	0
32.65245	-0.0532916	-0.158855	0.1656199	0.1235944	4.965262	3.705344
32.6688	-0.0532916	-0.158855	0	0	-4.998417	-3.730086
32.68536	-0.0532916	-0.158855	0	0	0	0
32.70193	-0.05043089	-0.1566818	0.172673	0.1311773	5.211282	3.958939
32.7185	-0.05043089	-0.1566818	0	0	-5.211282	-3.958939
32.73536	-0.05043089	-0.1566818	0	0	0	0
32.75163	-0.03937438	-0.1483068	0.6794181	0.5146388	20.50724	15.53362
32.76837	-0.03937438	-0.1483068	0	0	-20.57832	-15.58746
32.78476	-0.03937438	-0.1483068	0	0	0	0
32.80133	-0.03035909	-0.1414261	0.5442891	0.4154147	16.51605	12.60545
32.81789	-0.03035909	-0.1414261	0	0	-16.42857	-12.53868
32.83506	-0.03035909	-0.1414261	0	0	0	0
32.85102	-0.01021017	-0.1260306	1.261806	0.9641299	38.08575	29.10085
32.86759	-0.01021017	-0.1260306	0	0	-38.78236	-29.63312
32.88427	-0.01021017	-0.1260306	0	0	0	0
32.90076	0.002447363	-0.1165843	0.7675449	0.5728155	23.14324	17.2717
32.91729	0.002447363	-0.1165843	0	0	-23.23947	-17.34351
32.93386	0.002447363	-0.1165843	0	0	0	0
32.95084	0.003236831	-0.1160747	0.04649609	0.03001301	1.386021	0.8946702
32.967	0.003236831	-0.1160747	0	0	-1.403255	-0.9057943
32.98361	0.003236831	-0.1160747	0	0	0	0
33.00013	0.003315777	-0.1161335	0.004778428	-0.003558557	0.1442133	-0.1073975
33.01686	0.003315777	-0.1161335	0	0	-0.1436839	0.1070032
33.14686	0.003315777	-0.1161335	0	0	0	0
33.17097	0.003315777	-0.1161727	0	-0.001625596	0	-0.01054829
33.18755	0.003315777	-0.1161727	0	0	0	0.03995688
33.20411	0.003342093	-0.1161923	0.001588404	-0.001183208	0.0479326	-0.03570517
33.22068	0.003342093	-0.1161923	0	0	-0.04793812	0.03570928
33.23725	0.003342093	-0.1161923	0	0	0	0
33.25381	0.003368408	-0.1162119	0.001588784	-0.001183031	0.0479551	-0.03570804
33.27038	0.003368408	-0.1162119	0	0	-0.04794958	0.03570393
33.28717	0.003368408	-0.1162119	0	0	0	0
33.30368	0.003394724	-0.1162707	0.001593909	-0.003561475	0.0478673	-0.106956
33.32049	0.003394724	-0.1162707	0	0	-0.04783989	0.1068948
33.33699	0.003394724	-0.1162707	0	0	0	0
33.35351	0.003421039	-0.1163687	0.001592805	-0.005931529	0.04823198	-0.1796136
33.36978	0.003421039	-0.1163687	0	0	-0.04857425	0.1808882
33.38634	0.003421039	-0.1163687	0	0	0	0
33.40292	0.003421039	-0.1163687	0	0	0	0
33.41948	0.003421039	-0.1163687	0	0	0	0
33.43605	0.003421039	-0.1163687	0	0	0	0
33.5253	0.003394724	-0.1163883	-0.0002948302	-0.0002196201	-0.002786056	-0.002075343
33.5422	0.003394724	-0.1163883	0	0	0.002777345	0.002068855
33.55997	0.003394724	-0.1163883	0	0	0	0
33.57695	0.003394724	-0.1163883	0	0	0	0
33.59313	0.003394724	-0.1163883	0	0	0	0
33.60967	0.003368408	-0.1164079	-0.001590968	-0.001185118	-0.04862005	-0.03621725
33.62664	0.003368408	-0.1164079	0	0	0.04747982	0.03536789
33.64283	0.003368408	-0.1164079	0	0	0	0
33.65938	0.003342093	-0.1164275	-0.001589882	-0.001183848	-0.04856421	-0.03616159
33.67665	0.003342093	-0.1164275	0	0	0.04700858	0.03500324
33.69251	0.003342093	-0.1164275	0	0	0	0
33.70908	0.003315777	-0.1164471	-0.001588404	-0.001183208	-0.04897559	-0.0364821
33.72565	0.003315777	-0.1164471	0	0	0.04793812	0.03570928
33.74232	0.003315777	-0.1164471	0	0	0	0
33.75878	0.003289462	-0.1164275	-0.001599452	0.001191438	-0.04827712	0.03596181
33.77535	0.003289462	-0.1164275	0	0	0.04843327	-0.03607812
33.79192	0.003289462	-0.1164275	0	0	0	0
33.80848	0.003289462	-0.1164275	0	0	0	0
33.82505	0.003289462	-0.1164275	0	0	0	0
33.84161	0.003289462	-0.1164275	0	0	0	0
33.85859	0.003263146	-0.1164079	-0.001550559	0.001154578	-0.04623177	0.03442513
33.87474	0.003263146	-0.1164079	0	0	0.04680135	-0.03484925
33.89131	0.003263146	-0.1164079	0	0	0	0
33.90788	0.003263146	-0.1164079	0	0	0	0
33.92444	0.003263146	-0.1164079	0	0	0	0
33.94101	0.003263146	-0.1164079	0	0	0	0
33.95758	0.003263146	-0.1164079	0	0	0	0
33.97414	0.003263146	-0.1164079	0	0	0	0
33.99071	0.003263146	-0.1164079	0	0	0	0
34.00728	0.003263146	-0.1164079	0	0	0	0
34.02385	0.003263146	-0.1164079	0	0	0	0
34.04041	0.003263146	-0.1164079	0	0	0	0
34.05697	0.003263146	-0.1164079	0	0	0	0
34.07354	0.003263146	-0.1164079	0	0	0	0
34.09058	0.003263146	-0.1164079	0	0	0	0
34.10667	0.003263146	-0.1164079	0	0	0	0
34.12325	0.003263146	-0.1164079	0	0	0	0
34.14033	0.003263146	-0.1164079	0	0	0	0
34.15651	0.003263146	-0.1164079	0	0	0	0
34.17295	0.003263146	-0.1164079	0	0	0	0
34.18952	0.003263146	-0.1164079	0	0	0	0
34.20609	0.003263146	-0.1164079	0	0	0	0
34.22313	0.003263146	-0.1164079	0	0	0	0
34.2396	0.003263146	-0.1164079	0	0	0	0
34.25632	0.003263146	-0.1164079	0	0	0	0
34.27263	0.003263146	-0.1164079	0	0	0	0
34.28892	0.003263146	-0.1164079	0	0	0	0
34.30548	0.003263146	-0.1164079	0	0	0	0
34.32206	0.003263146	-0.1164079	0	0	0	0
34.33867	0.003263146	-0.1164079	0	0	0	0
34.35518	0.003263146	-0.1164471	0	-0.00237307	0	-0.07163587
34.37175	0.003263146	-0.1164471	0	0	0	0.07171846
34.38832	0.003263146	-0.1164471	0	0	0	0
34.40488	0.003210515	-0.1164863	-0.003178285	-0.002367506	-0.09594293	-0.07146793
34.42169	0.003210515	-0.1164863	0	0	0.09524102	0.07094508
34.43801	0.003210515	-0.1164863	0	0	0	0
34.45458	0.003210515	-0.1164863	0	0	0	0
34.47117	0.003210515	-0.1164863	0	0	0	0
34.48771	0.003210515	-0.1164863	0	0	0	0
34.50431	0.003210515	-0.1164863	0	0	0	0
34.52085	0.003210515	-0.1164863	0	0	0	0
34.53807	0.003210515	-0.1164863	0	0	0	0
34.55398	0.003210515	-0.1164863	0	0	0	0
34.57061	0.003210515	-0.1164863	0	0	0	0
34.58711	0.003210515	-0.1164863	0	0	0	0
34.60368	0.0031842	-0.1164667	-0.001588404	0.001183208	-0.04803213	0.03577931
34.62025	0.0031842	-0.1164667	0	0	0.04793812	-0.03570928
34.63681	0.0031842	-0.1164667	0	0	0	0
34.65338	0.0031842	-0.1164667	0	0	0	0
34.66995	0.0031842	-0.1164667	0	0	0	0
34.68659	0.0031842	-0.1164667	0	0	0	0
34.70308	0.0031842	-0.1164667	0	0	0	0
34.71965	0.0031842	-0.1164667	0	0	0	0
34.7365	0.0031842	-0.1164667	0	0	0	0
34.75278	0.003210515	-0.1164863	0.001616316	-0.001204	0.04878613	-0.03634097
35.1195	0.003210515	-0.1164863	0	0	-0.004220153	0.003143608
35.16114	0.003210515	-0.1164863	0	0	0	0
35.1787	0.003157884	-0.1164863	-0.002997366	0	-0.05062767	0
35.19534	0.003157884	-0.1164863	0	0	0.08764545	0
35.21184	0.003157884	-0.1164863	0	0	0	0
35.2284	0.003157884	-0.1164863	0	0	0	0
35.24497	0.003157884	-0.1164863	0	0	0	0
35.26154	0.003157884	-0.1164863	0	0	0	0
35.2781	0.003157884	-0.1164863	0	0	0	0
35.29467	0.003157884	-0.1164863	0	0	0	0
35.31123	0.003157884	-0.1164863	0	0	0	0
35.32807	0.0031842	-0.1164667	0.001562854	0.001164176	0.04678995	0.03485401
35.34437	0.0031842	-0.1164667	0	0	-0.0471616	-0.03513085
35.36094	0.0031842	-0.1164667	0	0	0	0
35.3775	0.0031842	-0.1164667	0	0	0	0
35.39407	0.0031842	-0.1164667	0	0	0	0
35.41086	0.0031842	-0.1164667	0	0	0	0
35.4272	0.0031842	-0.1164667	0	0	0	0
35.44378	0.0031842	-0.1164667	0	0	0	0
35.46034	0.0031842	-0.1164667	0	0	0	0
35.47691	0.0031842	-0.1164667	0	0	0	0
35.49348	0.0031842	-0.1164667	0	0	0	0
35.51004	0.0031842	-0.1164667	0	0	0	0
35.52661	0.003157884	-0.1164471	-0.00158877	0.00118348	-0.04795468	0.03572162
35.54317	0.003157884	-0.1164471	0	0	0.04795468	-0.03572162
35.55974	0.003157884	-0.1164471	0	0	0	0
35.57631	0.003157884	-0.1164471	0	0	0	0
35.59288	0.003157884	-0.1164471	0	0	0	0
35.60945	0.003157884	-0.1164471	0	0	0	0
35.62944	0.003157884	-0.1164471	0	0	0	0
35.64608	0.003157884	-0.1164471	0	0	0	0
35.6628	0.003157884	-0.1164471	0	0	0	0
35.75409	0.003157884	-0.1164471	0	0	0	0
35.77066	0.003157884	-0.1164471	0	0	0	0
35.78733	0.003157884	-0.1164471	0	0	0	0
35.80379	0.003157884	-0.1164471	0	0	0	0
35.82119	0.003157884	-0.1164471	0	0	0	0
35.83693	0.003157884	-0.1164471	0	0	0	0
35.8535	0.003157884	-0.1164471	0	0	0	0
35.87012	0.003157884	-0.1164471	0	0	0	0
35.89506	0.003157884	-0.1164471	0	0	0	0
35.91167	0.003157884	-0.1164471	0	0	0	0
35.9282	0.003157884	-0.1164471	0	0	0	0
35.94476	0.003157884	-0.1164471	0	0	0	0
35.96133	0.003157884	-0.1164471	0	0	0	0
35.97789	0.003157884	-0.1164471	0	0	0	0
35.99446	0.003157884	-0.1164471	0	0	0	0
36.01103	0.003157884	-0.1164471	0	0	0	0
36.02759	0.003157884	-0.1164471	0	0	0	0
36.04416	0.003157884	-0.1164471	0	0	0	0
36.06107	0.003157884	-0.1164471	0	0	0	0
36.0773	0.003157884	-0.1164471	0	0	0	0
36.09386	0.003157884	-0.1164471	0	0	0	0
36.11048	0.003157884	-0.1164471	0	0	0	0
36.127	0.003157884	-0.1164471	0	0	0	0
36.14357	0.003157884	-0.1164471	0	0	0	0
36.16013	0.003157884	-0.1164471	0	0	0	0
36.17748	0.003157884	-0.1164471	0	0	0	0
36.19327	0.003157884	-0.1164471	0	0	0	0
36.20984	0.003157884	-0.1164471	0	0	0	0
36.2264	0.003157884	-0.1164471	0	0	0	0
36.24297	0.003157884	-0.1164471	0	0	0	0
36.25954	0.003157884	-0.1164471	0	0	0	0
36.2761	0.003157884	-0.1164471	0	0	0	0
36.29267	0.003157884	-0.1164471	0	0	0	0
36.30923	0.003157884	-0.1164471	0	0	0	0
36.3258	0.003157884	-0.1164471	0	0	0	0
36.34237	0.003157884	-0.1164471	0	0	0	0
36.35894	0.003157884	-0.1164471	0	0	0	0
36.37584	0.003131569	-0.1164667	-0.00155652	-0.001159448	-0.04649943	-0.03463729
36.39207	0.003131569	-0.1164667	0	0	0.04697588	0.0349922
36.40864	0.003131569	-0.1164667	0	0	0	0
36.42557	0.003157884	-0.1164471	0.001554416	0.00115788	0.04640483	0.03456683
36.44178	0.003157884	-0.1164471	0	0	-0.04689617	-0.03493283
36.45834	0.003157884	-0.1164471	0	0	0	0
36.4749	0.003157884	-0.1164471	0	0	0	0
36.49147	0.003157884	-0.1164471	0	0	0	0
36.50804	0.003157884	-0.1164471	0	0	0	0
36.5246	0.003131569	-0.1164667	-0.001588418	-0.001183208	-0.04793854	-0.03570928
36.54117	0.003131569	-0.1164667	0	0	0.04793854	0.03570928
36.55774	0.003131569	-0.1164667	0	0	0	0
36.5743	0.003131569	-0.1164667	0	0	0	0
36.59087	0.003131569	-0.1164667	0	0	0	0
36.60744	0.003131569	-0.1164667	0	0	0	0
36.624	0.003078938	-0.1163883	-0.003177553	0.004733472	-0.09590979	0.1428729
36.64057	0.003078938	-0.1163883	0	0	0.09590979	-0.1428729
36.65714	0.003078938	-0.1163883	0	0	0	0
36.6737	0.002894729	-0.1162511	-0.01111887	0.008281556	-0.3355681	0.2499378
36.69027	0.002894729	-0.1162511	0	0	0.3355681	-0.2499378
36.70684	0.002894729	-0.1162511	0	0	0	0
36.7234	0.002868413	-0.1162315	-0.001588404	0.001182758	-0.04793812	0.03569571
36.73997	0.002868413	-0.1162315	0	0	0.04793812	-0.03569571
36.75653	0.002868413	-0.1162315	0	0	0	0
36.7731	0.002894729	-0.1162511	0.001588404	-0.001182758	0.04794364	-0.03569982
36.78967	0.002894729	-0.1162511	0	0	-0.04793812	0.03569571
36.80624	0.002894729	-0.1162511	0	0	0	0
36.8228	0.002894729	-0.1162903	0	-0.002367506	0	-0.0714597
36.83937	0.002894729	-0.1162903	0	0	0	0.07145147
36.85594	0.002894729	-0.1162903	0	0	0	0
36.8725	0.002921044	-0.1163099	0.00158915	-0.001183303	0.04797168	-0.03572038
36.88907	0.002921044	-0.1163099	0	0	-0.04797168	0.03572038
36.90564	0.002921044	-0.1163099	0	0	0	0
36.9222	0.002921044	-0.1163883	0	-0.004734562	0	-0.1429058
36.93877	0.002921044	-0.1163883	0	0	0	0.1428894
36.95555	0.002921044	-0.1163883	0	0	0	0
36.97221	0.0009736839	-0.1182314	-0.1168434	-0.1105883	-3.494159	-3.307101
36.98848	0.0009736839	-0.1182314	0	0	3.548401	3.35844
37.00504	0.0009736839	-0.1182314	0	0	0	0
37.02161	-0.006815684	-0.1482671	-0.4701672	-1.812957	-14.19131	-54.72145
37.03836	-0.006815684	-0.1482671	0	0	14.11169	54.41445
37.05474	-0.006815684	-0.1482671	0	0	0	0
37.0713	-0.01686682	-0.2207028	-0.6069674	-4.374243	-18.42437	-132.7793
37.08794	-0.01686682	-0.2207028	0	0	18.28253	131.757
37.10522	-0.01686682	-0.2207028	0	0	0	0
37.12116	-0.03101637	-0.2912111	-0.8873728	-4.42185	-26.71024	-133.0992
37.13779	-0.03101637	-0.2912111	0	0	27.24519	135.765
37.15414	-0.03101637	-0.2912111	0	0	0	0
37.17158	-0.0401626	-0.3351044	-0.5243014	-2.51615	-15.51445	-74.45462
37.18815	-0.0401626	-0.3351044	0	0	15.41526	73.97864
37.20472	-0.0401626	-0.3351044	0	0	0	0
37.22638	-0.03855982	-0.3386194	0.07399757	-0.162282	1.935544	-4.244788
37.24295	-0.03855982	-0.3386194	0	0	-1.935544	4.244788
37.25952	-0.03840216	-0.3387505	0.009516481	-0.007915036	0.2871749	-0.2388488
37.27608	-0.03840216	-0.3387505	0	0	-0.287208	0.2388763
37.29279	-0.03840216	-0.3387505	0	0	0	0
37.30922	-0.03553766	-0.3411345	0.1743467	-0.1451017	5.262399	-4.379683
37.32578	-0.03553766	-0.3411345	0	0	-5.283692	4.397404
37.34251	-0.03553766	-0.3411345	0	0	0	0
37.35892	-0.03556395	-0.3411126	-0.001601499	0.001332956	-0.04833333	0.04022868
37.37566	-0.03556395	-0.3411126	0	0	0.04829997	-0.04020091
37.39268	-0.03556395	-0.3411126	0	0	0	0
37.40862	-0.03556395	-0.3411126	0	0	0	0
37.42518	-0.03556395	-0.3411126	0	0	0	0
37.44175	-0.03556395	-0.3411126	0	0	0	0
37.45832	-0.03559023	-0.3410908	-0.00158638	0.001320372	-0.04787704	0.0398489
37.47488	-0.03559023	-0.3410908	0	0	0.04787704	-0.0398489
37.5729	-0.03559023	-0.3410908	0	0	0	0
37.59097	-0.0356428	-0.3410908	-0.002908458	0	-0.02505454	0
37.60754	-0.0356428	-0.3410908	0	0	0.08395009	0
37.62411	-0.0356428	-0.3410908	0	0	0	0
37.64098	-0.0356428	-0.3410908	0	0	0	0
37.65738	-0.0356428	-0.3410908	0	0	0	0
37.67391	-0.0356428	-0.3410908	0	0	0	0
37.69211	-0.03566908	-0.3411126	-0.001444371	-0.001202175	-0.04158975	-0.03461588
37.70868	-0.03566908	-0.3411126	0	0	0.04154868	0.03458169
37.72524	-0.03566908	-0.3411126	0	0	0	0
37.74181	-0.03566908	-0.3411126	0	0	0	0
37.75837	-0.03566908	-0.3411126	0	0	0	0
37.77554	-0.03566908	-0.3411126	0	0	0	0
37.79151	-0.03566908	-0.3411126	0	0	0	0
37.80807	-0.03566908	-0.3411126	0	0	0	0
37.82464	-0.03566908	-0.3411126	0	0	0	0
37.90115	-0.03566908	-0.3411126	0	0	0	0
37.91772	-0.03566908	-0.3411126	0	0	0	0
37.93625	-0.03569536	-0.3410908	-0.001418499	0.001180641	-0.04041858	0.03364109
37.95311	-0.03569536	-0.3410908	0	0	0.04008742	-0.03336547
37.96948	-0.03569536	-0.3410908	0	0	0	0
37.98595	-0.03569536	-0.3410908	0	0	0	0
38.00252	-0.03569536	-0.3410908	0	0	0	0
38.01908	-0.03569536	-0.3410908	0	0	0	0
38.03565	-0.03569536	-0.3410908	0	0	0	0
38.05222	-0.03569536	-0.3410908	0	0	0	0
38.06879	-0.03569536	-0.3410908	0	0	0	0
38.08535	-0.0357742	-0.3410251	-0.00475914	0.003962914	-0.1436477	0.1196148
38.10192	-0.0357742	-0.3410251	0	0	0.1436311	-0.119601
38.11849	-0.0357742	-0.3410251	0	0	0	0
38.13506	-0.03979477	-0.3375488	-0.2426817	0.2098294	-7.32415	6.332664
38.15162	-0.03979477	-0.3375488	0	0	7.32415	-6.332664
38.16819	-0.03979477	-0.3375488	0	0	0	0
38.18476	-0.05924637	-0.3187161	-1.174101	1.136745	-35.43444	34.30703
38.20132	-0.05924637	-0.3187161	0	0	35.43444	-34.30703
38.21789	-0.05924637	-0.3187161	0	0	0	0
38.23446	-0.06729298	-0.275829	-0.4856943	2.58867	-14.65828	78.12621
38.25103	-0.06729298	-0.275829	0	0	14.65828	-78.12621
38.26808	-0.06729298	-0.275829	0	0	0	0
38.28415	-0.02265402	-0.2056553	2.777554	4.366396	83.84606	131.8085
38.30105	-0.02265402	-0.2056553	0	0	-84.25355	-132.449
38.3178	-0.02265402	-0.2056553	0	0	0	0
38.33385	0.02097061	-0.1719376	2.717019	2.099994	82.8198	64.01172
38.35042	0.02097061	-0.1719376	0	0	-83.28465	-64.371
38.36714	0.02097061	-0.1719376	0	0	0	0
38.3839	0.04586256	-0.1529382	1.485042	1.133497	44.35398	33.85433
38.40012	0.04586256	-0.1529382	0	0	-45.026	-34.36727
38.41669	0.04586256	-0.1529382	0	0	0	0
38.43332	0.05717446	-0.1444179	0.6801258	0.5122832	20.48614	15.43054
38.44983	0.05717446	-0.1444179	0	0	-20.52624	-15.46074
38.46692	0.05717446	-0.1444179	0	0	0	0
38.48296	0.05722692	-0.1444575	0.003271159	-0.002472534	0.09872378	-0.07462122
38.49953	0.05722692	-0.1444575	0	0	-0.1003293	0.07583478
38.51646	0.05722692	-0.1444575	0	0	0	0
38.53266	0.05725315	-0.1444773	0.001619171	-0.001223578	0.0488723	-0.03693191
38.54923	0.05725315	-0.1444773	0	0	-0.0494128	0.03734036
38.5658	0.05725315	-0.1444773	0	0	0	0
38.58236	0.05725315	-0.1444773	0	0	0	0
38.59893	0.05725315	-0.1444773	0	0	0	0
38.61549	0.05725315	-0.1444773	0	0	0	0
38.63206	0.05725315	-0.1444773	0	0	0	0
38.64863	0.05725315	-0.1444773	0	0	0	0
38.6652	0.05725315	-0.1444773	0	0	0	0
38.68574	0.05725315	-0.1444773	0	0	0	0
38.70254	0.05725315	-0.1444773	0	0	0	0
38.71888	0.05722692	-0.1444972	-0.001605183	-0.00121392	-0.04843895	-0.03663196
38.73544	0.05722692	-0.1444972	0	0	0.04878149	0.03689101
38.91191	0.05722692	-0.1444972	0	0	0	0
38.93356	0.05662362	-0.1449929	-0.02786352	-0.02289382	-0.1406422	-0.1155575
38.95013	0.05662362	-0.1449929	0	0	0.7289674	0.5989498
38.96669	0.05633507	-0.145211	-0.01742091	-0.01316987	-0.5257642	-0.3974676
38.98326	0.05633507	-0.145211	0	0	0.5257642	0.3974676
38.99983	0.05633507	-0.145211	0	0	0	0
39.01639	0.05271428	-0.1479494	-0.2186016	-0.1653274	-6.598927	-4.99074
39.03302	0.05271428	-0.1479494	0	0	6.586034	4.980989
39.05006	0.05271428	-0.1479494	0	0	0	0
39.06609	0.04166009	-0.1562832	-0.6894571	-0.5197878	-20.84625	-15.71618
39.08266	0.04166009	-0.1562832	0	0	21.14873	15.94421
39.09923	0.04166009	-0.1562832	0	0	0	0
39.1158	0.03714081	-0.1595134	-0.2728473	-0.1950156	-8.234549	-5.885583
39.13236	0.03714081	-0.1595134	0	0	8.235497	5.886261
39.14893	0.03714081	-0.1595134	0	0	0	0
39.16601	0.0359319	-0.1585957	-0.07077025	0.0537201	-2.103163	1.596463
39.18206	0.0359319	-0.1585957	0	0	2.136096	-1.621462
39.2997	0.0359319	-0.1585957	0	0	0	0
39.32279	0.0150778	-0.1428324	-0.9031514	0.6826806	-6.417709	4.851065
39.33936	0.0150778	-0.1428324	0	0	22.77154	-17.21272
39.35608	0.0150778	-0.1428324	0	0	0	0
39.37249	0.0150778	-0.1428324	0	0	0	0
39.38906	0.0150778	-0.1428324	0	0	0	0
39.40562	0.0150778	-0.1428324	0	0	0	0
39.42219	0.0150778	-0.1428324	0	0	0	0
39.43876	0.0150778	-0.1428324	0	0	0	0
39.45533	0.0150778	-0.1428324	0	0	0	0
39.47189	0.0150778	-0.1428324	0	0	0	0
39.48862	0.0150778	-0.1428324	0	0	0	0
39.50503	0.01502519	-0.1427531	-0.003206346	0.004828786	-0.09676772	0.145733
39.52173	0.01502519	-0.1427531	0	0	0.09682345	-0.145817
39.53817	0.01502519	-0.1427531	0	0	0	0
39.55473	0.01449898	-0.1423173	-0.03176893	0.02631186	-0.9627784	0.7973984
39.5713	0.01449898	-0.1423173	0	0	0.9588985	-0.7941849
39.58786	0.01449898	-0.1423173	0	0	0	0
39.60443	0.001210526	-0.1322955	-0.8022776	0.6050567	-24.21557	18.26275
39.62099	0.001210526	-0.1322955	0	0	24.21557	-18.26275
39.63757	0.001210526	-0.1322955	0	0	0	0
39.65413	-0.0070262	-0.1260503	-0.4972843	0.3770503	-15.00807	11.3794
39.6707	-0.0070262	-0.1260503	0	0	15.0098	-11.38071
39.68726	-0.0070262	-0.1260503	0	0	0	0
39.70383	-0.01063118	-0.1232775	-0.2175969	0.1673666	-6.567088	5.051133
39.7204	-0.01063118	-0.1232775	0	0	6.567088	-5.051133
39.73697	-0.01063118	-0.1232775	0	0	0	0
39.75353	-0.01336762	-0.121195	-0.1652103	0.1257278	-4.986056	3.794473
39.7701	-0.01336762	-0.121195	0	0	4.98663	-3.79491
39.78709	-0.01336762	-0.121195	0	0	0	0
39.80323	-0.01334131	-0.1212146	0.001629835	-0.00121655	0.04918851	-0.03671554
39.91314	-0.01334131	-0.1212146	0	0	-0.01293016	0.009651398
39.92971	-0.01334131	-0.1212146	0	0	0	0
39.94627	-0.013315	-0.1212343	0.001588488	-0.00118573	0.0479462	-0.03578951
39.96284	-0.013315	-0.1212343	0	0	-0.0479462	0.03578951
39.9794	-0.013315	-0.1212343	0	0	0	0
39.99597	-0.01326238	-0.1212735	0.003177033	-0.002371459	0.09589409	-0.07157902
40.01254	-0.01326238	-0.1212735	0	0	-0.09589409	0.07157902
40.0291	-0.01326238	-0.1212735	0	0	0	0
40.04567	-0.01320976	-0.1213128	0.003176245	-0.002370463	0.09585927	-0.07154072
40.06224	-0.01320976	-0.1213128	0	0	-0.09585927	0.07154072
40.0788	-0.01320976	-0.1213128	0	0	0	0
40.09537	-0.01318345	-0.1213325	0.001588179	-0.001185457	0.04793134	-0.03577715
40.11194	-0.01318345	-0.1213325	0	0	-0.04793134	0.03577715
40.12851	-0.01318345	-0.1213325	0	0	0	0
40.1451	-0.01315714	-0.1213521	0.001585567	-0.001183549	0.04781398	-0.03569081
40.16164	-0.01315714	-0.1213521	0	0	-0.04785251	0.03571957
40.17823	-0.01315714	-0.1213521	0	0	0	0
40.19477	-0.01315714	-0.1213521	0	0	0	0
40.21159	-0.01315714	-0.1213521	0	0	0	0
40.22872	-0.01315714	-0.1213521	0	0	0	0
40.24447	-0.01318345	-0.1213717	-0.001670433	-0.001246897	-0.05079976	-0.03791955
40.26104	-0.01318345	-0.1213717	0	0	0.0516872	0.03858198
40.2776	-0.01318345	-0.1213717	0	0	0	0
40.29417	-0.01310451	-0.1214307	0.004764424	-0.003556369	0.1437906	-0.1073314
40.31074	-0.01310451	-0.1214307	0	0	-0.1437906	0.1073314
40.3273	-0.01310451	-0.1214307	0	0	0	0
40.34823	-0.01297296	-0.1215288	0.006286332	-0.004692342	0.1676594	-0.1251469
40.3648	-0.01297296	-0.1215288	0	0	-0.1676423	0.1251342
40.38137	-0.01294664	-0.1215485	0.001588179	-0.001185457	0.04792582	-0.03577303
40.39793	-0.01294664	-0.1215485	0	0	-0.04793685	0.03578127
40.4145	-0.01294664	-0.1215485	0	0	0	0
40.4315	-0.01294664	-0.1215485	0	0	0	0
40.44764	-0.01294664	-0.1215485	0	0	0	0
40.4642	-0.01294664	-0.1215485	0	0	0	0
40.48077	-0.01294664	-0.1215485	0	0	0	0
40.49733	-0.01294664	-0.1215485	0	0	0	0
40.5139	-0.01294664	-0.1215485	0	0	0	0
40.53053	-0.01294664	-0.1215485	0	0	0	0
40.54714	-0.01294664	-0.1215485	0	0	0	0
40.81462	-0.01294664	-0.1215485	0	0	0	0
40.86087	-0.01281509	-0.1216467	0.002844039	-0.002123053	0.009065071	-0.006767005
40.87745	-0.01281509	-0.1216467	0	0	-0.04526702	0.03379147
40.89563	-0.01268353	-0.1217449	0.00723606	-0.005402034	0.2082206	-0.1554458
40.9122	-0.01268353	-0.1217449	0	0	-0.2082206	0.1554458
40.92907	-0.01268353	-0.1217449	0	0	0	0
40.94607	-0.01263091	-0.1217842	0.003095114	-0.00231027	0.09138028	-0.06820853
40.96189	-0.01263091	-0.1217842	0	0	-0.09429	0.07038042
40.97849	-0.01263091	-0.1217842	0	0	0	0
40.99542	-0.01263091	-0.1217842	0	0	0	0
41.01159	-0.01263091	-0.1217842	0	0	0	0
41.02816	-0.01263091	-0.1217842	0	0	0	0
41.04472	-0.01263091	-0.1217842	0	0	0	0
41.06129	-0.01263091	-0.1217842	0	0	0	0
41.07807	-0.01263091	-0.1217842	0	0	0	0
41.09443	-0.01265722	-0.1217645	-0.001608925	0.001200942	-0.04855745	0.0362445
41.11099	-0.01265722	-0.1217645	0	0	0.04887254	-0.03647969
41.12756	-0.01265722	-0.1217645	0	0	0	0
41.14413	-0.01265722	-0.1217645	0	0	0	0
41.16069	-0.01265722	-0.1217645	0	0	0	0
41.17726	-0.01265722	-0.1217645	0	0	0	0
41.19383	-0.01265722	-0.1217645	0	0	0	0
41.2104	-0.01265722	-0.1217645	0	0	0	0
41.22696	-0.01265722	-0.1217645	0	0	0	0
41.24353	-0.01265722	-0.1217645	0	0	0	0
41.2601	-0.01265722	-0.1217645	0	0	0	0
41.27666	-0.01265722	-0.1217645	0	0	0	0
41.29323	-0.01265722	-0.1217645	0	0	0	0
41.3098	-0.01265722	-0.1217645	0	0	0	0
41.32637	-0.01265722	-0.1217645	0	0	0	0
41.34293	-0.01265722	-0.1217645	0	0	0	0
41.3595	-0.01265722	-0.1217645	0	0	0	0
41.37654	-0.01265722	-0.1217645	0	0	0	0
41.39263	-0.01265722	-0.1217645	0	0	0	0
41.4092	-0.01265722	-0.1217645	0	0	0	0
41.42577	-0.01265722	-0.1217645	0	0	0	0
41.44234	-0.01265722	-0.1217645	0	0	0	0
41.4589	-0.01265722	-0.1217645	0	0	0	0
41.47564	-0.01265722	-0.1217645	0	0	0	0
41.49203	-0.01263091	-0.1217842	0.001604434	-0.00119759	0.04842748	-0.03614749
41.5086	-0.01263091	-0.1217842	0	0	-0.04866844	0.03632734
41.52517	-0.01263091	-0.1217842	0	0	0	0
41.54174	-0.01265722	-0.1217645	-0.001588179	0.001185457	-0.04793134	0.03577715
41.5583	-0.01265722	-0.1217645	0	0	0.04793134	-0.03577715
41.57494	-0.01265722	-0.1217645	0	0	0	0
41.59143	-0.01265722	-0.1217645	0	0	0	0
41.60801	-0.01265722	-0.1217645	0	0	0	0
41.62473	-0.01265722	-0.1217645	0	0	0	0
41.64135	-0.01265722	-0.1217645	0	0	0	0
41.65771	-0.01265722	-0.1217645	0	0	0	0
41.67427	-0.01265722	-0.1217645	0	0	0	0
41.69084	-0.01265722	-0.1217645	0	0	0	0
41.70741	-0.01265722	-0.1217645	0	0	0	0
41.72398	-0.01265722	-0.1217645	0	0	0	0
41.74064	-0.01263091	-0.1217842	0.001578728	-0.001178402	0.0475039	-0.0354581
41.75711	-0.01263091	-0.1217842	0	0	-0.04764609	0.03556424
41.77368	-0.01263091	-0.1217842	0	0	0	0
41.79025	-0.01263091	-0.1217842	0	0	0	0
41.80681	-0.01263091	-0.1217842	0	0	0	0
41.8235	-0.01263091	-0.1217842	0	0	0	0
41.84	-0.01263091	-0.1217842	0	0	0	0
41.85651	-0.01263091	-0.1217842	0	0	0	0
41.87307	-0.01263091	-0.1217842	0	0	0	0
41.88964	-0.01263091	-0.1217842	0	0	0	0
41.9062	-0.01263091	-0.1217842	0	0	0	0
41.92277	-0.01263091	-0.1217842	0	0	0	0
41.94196	-0.01263091	-0.1217842	0	0	0	0
41.95853	-0.01263091	-0.1217842	0	0	0	0
41.97512	-0.01263091	-0.1217842	0	0	0	0
41.99196	-0.01263091	-0.1217842	0	0	0	0
42.00822	-0.01263091	-0.1217842	0	0	0	0
42.02479	-0.01263091	-0.1217842	0	0	0	0
42.04135	-0.01263091	-0.1217842	0	0	0	0
42.05792	-0.01263091	-0.1217842	0	0	0	0
42.07458	-0.01263091	-0.1217842	0	0	0	0
42.09105	-0.01263091	-0.1217842	0	0	0	0
42.10762	-0.01263091	-0.1217842	0	0	0	0
42.12458	-0.01263091	-0.1217842	0	0	0	0
42.14075	-0.01263091	-0.1217842	0	0	0	0
42.15732	-0.01263091	-0.1217842	0	0	0	0
42.17431	-0.01263091	-0.1217842	0	0	0	0
42.19045	-0.01263091	-0.1217842	0	0	0	0
42.20702	-0.01263091	-0.1217842	0	0	0	0
42.22378	-0.01263091	-0.1217842	0	0	0	0
42.24015	-0.01263091	-0.1217842	0	0	0	0
42.25672	-0.01263091	-0.1217842	0	0	0	0
42.27329	-0.01263091	-0.1217842	0	0	0	0
42.28986	-0.01263091	-0.1217842	0	0	0	0
42.30642	-0.01263091	-0.1217842	0	0	0	0
42.32299	-0.01263091	-0.1217842	0	0	0	0
42.33955	-0.01263091	-0.1217842	0	0	0	0
42.35612	-0.01263091	-0.1217842	0	0	0	0
42.37281	-0.01263091	-0.1217842	0	0	0	0
42.38925	-0.01263091	-0.1217842	0	0	0	0
42.40672	-0.01263091	-0.1217842	0	0	0	0
42.42239	-0.01263091	-0.1217842	0	0	0	0
42.43895	-0.01263091	-0.1217842	0	0	0	0
42.45552	-0.01263091	-0.1217842	0	0	0	0
42.47209	-0.01263091	-0.1217842	0	0	0	0
42.48865	-0.0126046	-0.1218038	0.001588545	-0.001186179	0.04794789	-0.03580309
42.50562	-0.0126046	-0.1218038	0	0	-0.04736975	0.03537138
42.52247	-0.0126046	-0.1218038	0	0	0	0
42.53836	-0.0126046	-0.1218038	0	0	0	0
42.55492	-0.0126046	-0.1218038	0	0	0	0
42.5715	-0.0126046	-0.1218038	0	0	0	0
42.5881	-0.01144687	-0.1208612	0.06972001	0.05676895	2.101251	1.710927
42.60462	-0.01144687	-0.1208612	0	0	-2.104881	-1.713882
42.62119	-0.01144687	-0.1208612	0	0	0	0
42.63776	-0.007131458	-0.1176823	0.2604786	0.1918789	7.861261	5.790917
42.65432	-0.007131458	-0.1176823	0	0	-7.861261	-5.790917
42.67102	-0.007131458	-0.1176823	0	0	0	0
42.68746	0.01157843	-0.1064312	1.137978	0.6843156	34.34424	20.65269
42.70403	0.01157843	-0.1064312	0	0	-34.47123	-20.72905
42.7206	0.01157843	-0.1064312	0	0	0	0
42.73716	0.05085086	-0.09773798	2.371581	0.5249655	71.5827	15.84531
42.75433	0.05085086	-0.09773798	0	0	-70.31166	-15.56396
42.7703	0.05085086	-0.09773798	0	0	0	0
42.78686	0.08782612	-0.09097485	2.232345	0.4083169	68.62052	12.55134
42.80343	0.08782612	-0.09097485	0	0	-67.3723	-12.32303
42.82	0.08782612	-0.09097485	0	0	0	0
42.83672	0.1056317	-0.08347384	1.064937	0.4486301	31.99254	13.47762
42.85313	0.1056317	-0.08347384	0	0	-32.13987	-13.53968
42.8697	0.1056317	-0.08347384	0	0	0	0
42.88626	0.1094035	-0.08570064	0.2277212	-0.1344409	6.873432	-4.0579
42.90303	0.1094035	-0.08570064	0	0	-6.831741	4.033287
42.91955	0.1094035	-0.08570064	0	0	0	0
42.93596	0.1278255	-0.09948988	1.122814	-0.8404481	34.10254	-25.52641
42.95253	0.1278255	-0.09948988	0	0	-34.05126	25.48802
42.9691	0.1278255	-0.09948988	0	0	0	0
42.98566	0.1334133	-0.1036993	0.337433	-0.2541951	10.18492	-7.672506
43.00223	0.1334133	-0.1036993	0	0	-10.18375	7.671623
43.01885	0.1334133	-0.1036993	0	0	0	0
43.03561	0.1342146	-0.1043039	0.04779312	-0.03606682	1.431686	-1.080414
43.05223	0.1342146	-0.1043039	0	0	-1.431849	1.080537
43.06849	0.1342146	-0.1043039	0	0	0	0
43.08506	0.1343438	-0.1044015	0.007800804	-0.005889063	0.2376173	-0.1793845
43.10162	0.1343438	-0.1044015	0	0	-0.2354559	0.1777527
43.11819	0.1343438	-0.1044015	0	0	0	0
43.13476	0.1346281	-0.1046551	0.01715854	-0.0153093	0.5178457	-0.4620355
43.15147	0.1346281	-0.1046551	0	0	-0.5155901	0.460023
43.1689	0.1346281	-0.1046551	0	0	0	0
43.18446	0.135119	-0.1050258	0.03156035	-0.02383119	0.9567893	-0.7224706
43.20103	0.135119	-0.1050258	0	0	-0.9823507	0.741772
43.21759	0.135119	-0.1050258	0	0	0	0
43.23416	0.1489414	-0.1157416	0.8343221	-0.6468032	25.17989	-19.52056
43.25073	0.1489414	-0.1157416	0	0	-25.17989	19.52056
43.2676	0.1489414	-0.1157416	0	0	0	0
43.39481	0.1811246	-0.145211	0.2530024	-0.2316691	1.756018	-1.60795
43.41137	0.1811246	-0.145211	0	0	-1.759746	1.611363
43.42794	0.1810227	-0.1452903	-0.00614906	-0.004789699	-0.1856004	-0.1445701
43.44451	0.1810227	-0.1452903	0	0	0.1855576	0.1445368
43.46252	0.1810227	-0.1452903	0	0	0	0
43.47908	0.1808699	-0.1454887	-0.009221916	-0.01197149	-0.2667406	-0.3462711
43.49565	0.1808699	-0.1454887	0	0	0.278318	0.3613003
43.51222	0.1808699	-0.1454887	0	0	0	0
43.52879	0.1808445	-0.1455878	-0.001536236	-0.005985746	-0.04636371	-0.1806502
43.54535	0.1808445	-0.1455878	0	0	0.04636371	0.1806502
43.56226	0.1808445	-0.1455878	0	0	0	0
43.57848	0.1811755	-0.1460838	0.02040288	-0.03056758	0.615831	-0.9226375
43.59505	0.1811755	-0.1460838	0	0	-0.622207	0.9321902
43.61162	0.1811755	-0.1460838	0	0	0	0
43.62819	0.1888539	-0.1521226	0.4635743	-0.3645866	13.9907	-11.00325
43.64476	0.1888539	-0.1521226	0	0	-13.9907	11.00325
43.66132	0.1888539	-0.1521226	0	0	0	0
43.67789	0.1951679	-0.1573196	0.3812003	-0.3137649	11.50597	-9.470533
43.69446	0.1951679	-0.1573196	0	0	-11.50465	9.469443
43.71103	0.1951679	-0.1573196	0	0	0	0
43.72759	0.1950919	-0.1584561	-0.00458728	-0.06861577	-0.1384603	-2.071067
43.74416	0.1950919	-0.1584561	0	0	0.1384444	2.070828
43.76082	0.1950919	-0.1584561	0	0	0	0
43.77972	0.2096875	-0.1700125	0.7721817	-0.6113932	21.71453	-17.19299
43.79629	0.2096875	-0.1700125	0	0	-21.76823	17.23551
43.81285	0.2096875	-0.1700125	0	0	0	0
43.82942	0.2134105	-0.1730212	0.2247223	-0.1816033	6.782912	-5.48143
43.84599	0.2134105	-0.1730212	0	0	-6.782131	5.480798
43.86256	0.2134105	-0.1730212	0	0	0	0
43.87912	0.2133603	-0.1730212	-0.003035396	0	-0.09161897	0
44.01013	0.2133603	-0.1730212	0	0	0.02056897	0
44.02755	0.2133603	-0.1730212	0	0	0	0
44.04887	0.2131843	-0.1730011	-0.008252818	0.0009414419	-0.2130405	0.02430264
44.06543	0.2131843	-0.1730011	0	0	0.2178239	-0.0248483
44.082	0.2131592	-0.1729811	-0.001517348	0.00121154	-0.04579366	0.03656435
44.09857	0.2131592	-0.1729811	0	0	0.04579366	-0.03656435
44.11514	0.2131592	-0.1729811	0	0	0	0
44.1317	0.2131592	-0.1729811	0	0	0	0
44.14827	0.2131592	-0.1729811	0	0	0	0
44.16536	0.2131592	-0.1729811	0	0	0	0
44.1814	0.213134	-0.1730011	-0.001566772	-0.001251003	-0.04729072	-0.03775969
44.19797	0.213134	-0.1730011	0	0	0.04804303	0.03836038
44.2146	0.213134	-0.1730011	0	0	0	0
44.2311	0.213134	-0.1730011	0	0	0	0
44.2477	0.213134	-0.1730011	0	0	0	0
44.26493	0.213134	-0.1730011	0	0	0	0
44.2808	0.2131089	-0.1729811	-0.001584097	0.001264836	-0.04786877	0.03822124
44.29736	0.2131089	-0.1729811	0	0	0.04883706	-0.03899438
44.31393	0.2131089	-0.1729811	0	0	0	0
44.3305	0.2130838	-0.1730011	-0.001517348	-0.00121154	-0.04579366	-0.03656435
44.34706	0.2130838	-0.1730011	0	0	0.04579366	0.03656435
44.36363	0.2130838	-0.1730011	0	0	0	0
44.3802	0.2130586	-0.1730212	-0.001518248	-0.00121154	-0.04582081	-0.03656435
44.39677	0.2130586	-0.1730212	0	0	0.04582081	0.03656435
44.41336	0.2130586	-0.1730212	0	0	0	0
44.4299	0.2130335	-0.1730413	-0.001520499	-0.001214056	-0.04589404	-0.0366445
44.44646	0.2130335	-0.1730413	0	0	0.04593635	0.03667829
44.46303	0.2130335	-0.1730413	0	0	0	0
44.4796	0.2128575	-0.1730212	-0.01062234	0.00121154	-0.3205828	0.03656435
44.66571	0.2128575	-0.1730212	0	0	0.05240875	-0.005977527
44.68248	0.2128575	-0.1730212	0	0	0	0
44.70013	0.09880876	-0.1540726	-6.461463	1.07354	-187.724	31.18941
44.71671	0.09880876	-0.1540726	0	0	188.8121	-31.3702
44.73351	0.09880876	-0.1540726	0	0	0	0
44.74984	0.03259372	-0.1504922	-4.056526	0.219347	-122.4403	6.620669
44.7664	0.03259372	-0.1504922	0	0	123.3493	-6.669819
44.78298	0.03259372	-0.1504922	0	0	0	0
44.79998	-0.01057855	-0.1624683	-2.539231	-0.7043906	-75.6156	-20.976
44.81614	-0.01057855	-0.1624683	0	0	76.57243	21.24143
44.83315	-0.01057855	-0.1624683	0	0	0	0
44.8497	-0.03480173	-0.1808223	-1.462788	-1.108361	-43.58007	-33.02082
44.8658	-0.03480173	-0.1808223	0	0	44.79161	33.93881
44.88237	-0.03480173	-0.1808223	0	0	0	0
44.89894	-0.04131858	-0.1856614	-0.3933575	-0.2920891	-11.87155	-8.815267
44.9155	-0.04131858	-0.1856614	0	0	11.87155	8.815267
44.93251	-0.04131858	-0.1856614	0	0	0	0
44.94864	-0.04126604	-0.1856614	0.003258443	0	0.09835132	0
44.96521	-0.04126604	-0.1856614	0	0	-0.09965946	0
44.98177	-0.04126604	-0.1856614	0	0	0	0
44.99834	-0.04121349	-0.1857018	0.003170906	-0.002436011	0.09569812	-0.07351895
45.04134	-0.04121349	-0.1857018	0	0	-0.05322963	0.04089303
45.05847	-0.04121349	-0.1857018	0	0	0	0
45.0827	-0.04116095	-0.1857421	0.002168704	-0.001666199	0.05243615	-0.04028631
45.10025	-0.04116095	-0.1857421	0	0	-0.05190475	0.03987804
45.11583	-0.04113468	-0.185722	0.001686681	0.001295386	0.05091	0.03909934
45.1324	-0.04113468	-0.185722	0	0	-0.05247488	-0.04030118
45.14896	-0.04113468	-0.185722	0	0	0	0
45.16553	-0.04113468	-0.185722	0	0	0	0
45.1821	-0.04113468	-0.185722	0	0	0	0
45.199	-0.04113468	-0.185722	0	0	0	0
45.21531	-0.04113468	-0.185722	0	0	0	0
45.23188	-0.04113468	-0.185722	0	0	0	0
45.24916	-0.04113468	-0.185722	0	0	0	0
45.26501	-0.04113468	-0.1856816	0	0.002548372	0	0.07691888
45.28157	-0.04113468	-0.1856816	0	0	0	-0.07862075
45.29814	-0.04113468	-0.1856816	0	0	0	0
45.3147	-0.04110841	-0.185621	0.001586071	0.003655249	0.04787322	0.1103283
45.33127	-0.04110841	-0.185621	0	0	-0.04787322	-0.1103283
45.34784	-0.04110841	-0.185621	0	0	0	0
45.36441	-0.04097705	-0.1854797	0.007930578	0.008530416	0.2393453	0.2574485
45.38097	-0.04097705	-0.1854797	0	0	-0.2393729	-0.2574781
45.39756	-0.04097705	-0.1854797	0	0	0	0
45.41411	-0.04079315	-0.1853385	0.01111318	0.00853738	0.3353965	0.2576586
45.43068	-0.04079315	-0.1853385	0	0	-0.3355897	-0.257807
45.44724	-0.04079315	-0.1853385	0	0	0	0
45.46381	-0.04071433	-0.1852779	0.004757341	0.003654408	0.1435934	0.110303
45.48042	-0.04071433	-0.1852779	0	0	-0.1433623	-0.1101254
45.49762	-0.04071433	-0.1852779	0	0	0	0
45.5137	-0.04068806	-0.1852577	0.001633704	0.001255448	0.04909614	0.03772878
45.53008	-0.04068806	-0.1852577	0	0	-0.05032499	-0.03867311
45.54665	-0.04068806	-0.1852577	0	0	0	0
45.56326	-0.04037279	-0.1840069	0.01898151	0.07531239	0.5721386	2.270058
45.57978	-0.04037279	-0.1840069	0	0	-0.5729291	-2.273194
45.59634	-0.04037279	-0.1840069	0	0	0	0
45.61291	-0.05106084	-0.171396	-0.6451321	0.7611908	-19.47013	22.97278
45.62948	-0.05106084	-0.171396	0	0	19.47013	-22.97278
45.64614	-0.05106084	-0.171396	0	0	0	0
45.66261	-0.05741053	-0.1659472	-0.3855762	0.3308749	-11.63671	9.985823
45.67918	-0.05741053	-0.1659472	0	0	11.67165	-10.0158
45.69574	-0.05741053	-0.1659472	0	0	0	0
45.71232	-0.03388176	-0.1481281	1.419545	1.075067	42.83702	32.44184
45.72887	-0.03388176	-0.1481281	0	0	-42.84689	-32.44931
45.74544	-0.03388176	-0.1481281	0	0	0	0
45.762	-0.0121573	-0.131901	1.311594	0.9796932	39.58853	29.5706
45.77858	-0.0121573	-0.131901	0	0	-39.58398	-29.5672
45.79514	-0.0121573	-0.131901	0	0	0	0
45.81171	-0.009920727	-0.130304	0.1349995	0.09639794	4.074763	2.909631
45.82827	-0.009920727	-0.130304	0	0	-4.074294	-2.909296
45.84484	-0.009920727	-0.130304	0	0	0	0
45.86143	-0.0098681	-0.1303434	0.003171471	-0.00237518	0.09563811	-0.07162534
45.87797	-0.0098681	-0.1303434	0	0	-0.09572621	0.07169132
45.89476	-0.0098681	-0.1303434	0	0	0	0
45.9111	-0.009841788	-0.1303631	0.001610484	-0.001206624	0.04861011	-0.03642017
45.92767	-0.009841788	-0.1303631	0	0	-0.0489426	0.03666927
45.94424	-0.009841788	-0.1303631	0	0	0	0
45.9608	-0.009789161	-0.1304025	0.003177258	-0.002380455	0.09590088	-0.07185056
45.97737	-0.009789161	-0.1304025	0	0	-0.09590088	0.07185056
45.99393	-0.009789161	-0.1304025	0	0	0	0
46.26359	-0.009499714	-0.1306194	0.001073391	-0.0008040833	0.003750174	-0.002809276
46.28593	-0.009499714	-0.1306194	0	0	-0.003676096	0.002753784
46.30662	-0.009341833	-0.1307376	0.007629023	-0.005715726	0.1772963	-0.1328319
46.3232	-0.009341833	-0.1307376	0	0	-0.2046983	0.1533616
46.33976	-0.00923658	-0.1308165	0.006356036	-0.004761108	0.1918256	-0.1436905
46.35632	-0.00923658	-0.1308165	0	0	-0.1918697	0.1437236
46.37289	-0.00923658	-0.1308165	0	0	0	0
46.38946	-0.009210266	-0.1308756	0.001588291	-0.00357076	0.04793473	-0.1077658
46.40602	-0.009210266	-0.1308756	0	0	-0.04793473	0.1077658
46.42259	-0.009210266	-0.1308756	0	0	0	0
46.43916	-0.009157639	-0.1309151	0.003176583	-0.002379907	0.09586946	-0.07182574
46.45573	-0.009157639	-0.1309151	0	0	-0.09586946	0.07182574
46.47229	-0.009157639	-0.1309151	0	0	0	0
46.48886	-0.009078698	-0.1310531	0.004764874	-0.008329676	0.1438042	-0.2513901
46.5056	-0.009078698	-0.1310531	0	0	-0.143063	0.2500944
46.522	-0.009078698	-0.1310531	0	0	0	0
46.53856	-0.008999757	-0.1311122	0.004764874	-0.00357076	0.1445531	-0.108327
46.55513	-0.008999757	-0.1311122	0	0	-0.1438042	0.1077658
46.5717	-0.008999757	-0.1311122	0	0	0	0
46.58826	-0.008947129	-0.1311517	0.003176639	-0.002379907	0.09587115	-0.07182574
46.60483	-0.008947129	-0.1311517	0	0	-0.09587115	0.07182574
46.6214	-0.008947129	-0.1311517	0	0	0	0
46.63799	-0.008947129	-0.1311517	0	0	0	0
46.65453	-0.008947129	-0.1311517	0	0	0	0
46.6711	-0.008947129	-0.1311517	0	0	0	0
46.68767	-0.008973443	-0.1311319	-0.001588291	0.001189954	-0.04793473	0.03591287
46.70424	-0.008973443	-0.1311319	0	0	0.04793473	-0.03591287
46.7208	-0.008973443	-0.1311319	0	0	0	0
46.73785	-0.008973443	-0.1311319	0	0	0	0
46.7543	-0.008973443	-0.1311319	0	0	0	0
46.77062	-0.008973443	-0.1311319	0	0	0	0
46.78707	-0.008999757	-0.1311122	-0.001599396	0.001198231	-0.04879795	0.03655831
46.80364	-0.008999757	-0.1311122	0	0	0.04843715	-0.036288
46.82021	-0.008999757	-0.1311122	0	0	0	0
46.83677	-0.008999757	-0.1311122	0	0	0	0
46.85334	-0.008999757	-0.1311122	0	0	0	0
46.86991	-0.008999757	-0.1311122	0	0	0	0
46.88647	-0.008999757	-0.1311122	0	0	0	0
46.90304	-0.008999757	-0.1311122	0	0	0	0
46.91961	-0.008999757	-0.1311122	0	0	0	0
46.93618	-0.008999757	-0.1311122	0	0	0	0
46.95274	-0.008999757	-0.1311122	0	0	0	0
46.96931	-0.008999757	-0.1311122	0	0	0	0
46.98588	-0.008999757	-0.1311122	0	0	0	0
47.00245	-0.008999757	-0.1311122	0	0	0	0
47.01901	-0.008999757	-0.1311122	0	0	0	0
47.03558	-0.008999757	-0.1311122	0	0	0	0
47.05215	-0.008999757	-0.1311122	0	0	0	0
47.06871	-0.008999757	-0.1311122	0	0	0	0
47.08559	-0.009026071	-0.1311319	-0.001559211	-0.001168167	-0.04662231	-0.0349296
47.10184	-0.009026071	-0.1311319	0	0	0.0470625	0.0352594
47.11842	-0.009026071	-0.1311319	0	0	0	0
47.13529	-0.009026071	-0.1311714	0	-0.002336861	0	-0.06986704
47.15161	-0.009026071	-0.1311714	0	0	0	0.07041313
47.16812	-0.009026071	-0.1311714	0	0	0	0
47.18468	-0.009052385	-0.1311911	-0.001588657	-0.001190228	-0.04803425	-0.03598743
47.20125	-0.009052385	-0.1311911	0	0	0.04795129	0.03592528
47.21782	-0.009052385	-0.1311911	0	0	0	0
47.23438	-0.009052385	-0.1312305	0	-0.002380807	0	-0.07185289
47.25108	-0.009052385	-0.1312305	0	0	0	0.07158094
47.41261	-0.009052385	-0.1312305	0	0	0	0
47.4303	-0.009105012	-0.13127	-0.002975177	-0.002229014	-0.0166005	-0.01243716
47.4472	-0.009105012	-0.13127	0	0	0.08600848	0.06443787
47.46377	-0.009105012	-0.13127	0	0	0	0
47.48016	-0.009105012	-0.13127	0	0	0	0
47.49657	-0.009105012	-0.13127	0	0	0	0
47.51381	-0.009105012	-0.13127	0	0	0	0
47.53162	-0.009105012	-0.13127	0	0	0	0
47.54819	-0.009105012	-0.13127	0	0	0	0
47.56475	-0.009105012	-0.13127	0	0	0	0
47.58132	-0.009105012	-0.13127	0	0	0	0
47.59789	-0.009105012	-0.13127	0	0	0	0
47.61446	-0.009105012	-0.13127	0	0	0	0
47.63102	-0.009131325	-0.1312897	-0.001588291	-0.001190853	-0.04794025	-0.03594416
47.64759	-0.009131325	-0.1312897	0	0	0.04793473	0.03594002
47.66416	-0.009131325	-0.1312897	0	0	0	0
47.68072	-0.009131325	-0.1312897	0	0	0	0
47.69729	-0.009131325	-0.1312897	0	0	0	0
47.71386	-0.009131325	-0.1312897	0	0	0	0
47.73042	-0.009131325	-0.1312897	0	0	0	0
47.74699	-0.009131325	-0.1312897	0	0	0	0
47.76356	-0.009131325	-0.1312897	0	0	0	0
47.78012	-0.009131325	-0.1312897	0	0	0	0
47.79669	-0.009131325	-0.1312897	0	0	0	0
47.8142	-0.009131325	-0.1312897	0	0	0	0
47.82982	-0.009131325	-0.1312897	0	0	0	0
47.84639	-0.009131325	-0.1312897	0	0	0	0
47.86295	-0.009131325	-0.1312897	0	0	0	0
47.87999	-0.009131325	-0.1312897	0	0	0	0
47.89658	-0.009131325	-0.1312897	0	0	0	0
47.91266	-0.009131325	-0.1312897	0	0	0	0
48.02261	-0.009131325	-0.1312897	0	0	0	0
48.03918	-0.009131325	-0.1312897	0	0	0	0
48.05575	-0.009157639	-0.13127	-0.001588657	0.001191127	-0.04794577	0.0359483
48.07232	-0.009157639	-0.13127	0	0	0.04794577	-0.0359483
48.08892	-0.009157639	-0.13127	0	0	0	0
48.10569	-0.009157639	-0.13127	0	0	0	0
48.1223	-0.009157639	-0.13127	0	0	0	0
48.13869	-0.009157639	-0.13127	0	0	0	0
48.15515	-0.009157639	-0.13127	0	0	0	0
48.17172	-0.009157639	-0.13127	0	0	0	0
48.18876	-0.009157639	-0.13127	0	0	0	0
48.20485	-0.009157639	-0.13127	0	0	0	0
48.22142	-0.009157639	-0.13127	0	0	0	0
48.23815	-0.009157639	-0.13127	0	0	0	0
48.25478	-0.009157639	-0.13127	0	0	0	0
48.27112	-0.009157639	-0.13127	0	0	0	0
48.28793	-0.009157639	-0.13127	0	0	0	0
48.30425	-0.009157639	-0.13127	0	0	0	0
48.32146	-0.009157639	-0.13127	0	0	0	0
48.33746	-0.009157639	-0.13127	0	0	0	0
48.35395	-0.009157639	-0.13127	0	0	0	0
48.37052	-0.009157639	-0.13127	0	0	0	0
48.38774	-0.009157639	-0.13127	0	0	0	0
48.40365	-0.009157639	-0.13127	0	0	0	0
48.42022	-0.009157639	-0.13127	0	0	0	0
48.43679	-0.009157639	-0.13127	0	0	0	0
48.45335	-0.009157639	-0.13127	0	0	0	0
48.47002	-0.009157639	-0.13127	0	0	0	0
48.48649	-0.009157639	-0.13127	0	0	0	0
48.50306	-0.009157639	-0.13127	0	0	0	0
48.51962	-0.009157639	-0.13127	0	0	0	0
48.53619	-0.009157639	-0.13127	0	0	0	0
48.55275	-0.009157639	-0.13127	0	0	0	0
48.56932	-0.009157639	-0.13127	0	0	0	0
48.58605	-0.009157639	-0.13127	0	0	0	0
48.60246	-0.009157639	-0.13127	0	0	0	0
48.61902	-0.009157639	-0.13127	0	0	0	0
48.63559	-0.009157639	-0.13127	0	0	0	0
48.6526	-0.009157639	-0.13127	0	0	0	0
48.66872	-0.009157639	-0.13127	0	0	0	0
48.68529	-0.009157639	-0.13127	0	0	0	0
48.70186	-0.009157639	-0.13127	0	0	0	0
48.71843	-0.009157639	-0.13127	0	0	0	0
48.735	-0.009157639	-0.13127	0	0	0	0
48.75156	-0.009157639	-0.13127	0	0	0	0
48.76818	-0.009157639	-0.13127	0	0	0	0
48.78469	-0.009157639	-0.13127	0	0	0	0
48.80172	-0.009131325	-0.1312502	0.001545239	0.001157699	0.04607841	0.03452211
48.81783	-0.009131325	-0.1312502	0	0	-0.04663542	-0.03493943
48.83439	-0.009131325	-0.1312502	0	0	0	0
48.85115	-0.009157639	-0.13127	-0.001570214	-0.00117641	-0.04711792	-0.03530091
48.86761	-0.009157639	-0.13127	0	0	0.04726399	0.03541036
48.88472	-0.009157639	-0.13127	0	0	0	0
48.90065	-0.009183953	-0.1312502	-0.001651808	0.00123754	-0.04999556	0.03745685
48.91722	-0.009183953	-0.1312502	0	0	0.05082295	-0.03807674
48.93379	-0.009183953	-0.1312502	0	0	0	0
48.95035	-0.009157639	-0.1312305	0.001589023	0.001190502	0.04796785	0.03593769
48.96693	-0.009157639	-0.1312305	0	0	-0.04795681	-0.03592942
48.98349	-0.009157639	-0.1312305	0	0	0	0
49.00005	-0.009157639	-0.1312305	0	0	0	0
49.01668	-0.009157639	-0.1312305	0	0	0	0
49.03372	-0.009157639	-0.1312305	0	0	0	0
49.04975	-0.009157639	-0.13127	0	-0.002459766	0	-0.07438146
49.06632	-0.009157639	-0.13127	0	0	0	0.07545201
49.08289	-0.009157639	-0.13127	0	0	0	0
49.09945	-0.009131325	-0.1312897	0.001588657	-0.001191127	0.04795129	-0.03595243
49.11602	-0.009131325	-0.1312897	0	0	-0.04794577	0.0359483
49.13326	-0.009131325	-0.1312897	0	0	0	0
49.14915	-0.00826297	-0.1326506	0.05464097	-0.08563558	1.649258	-2.584785
49.16572	-0.00826297	-0.1326506	0	0	-1.683173	2.637938
49.18229	-0.00826297	-0.1326506	0	0	0	0
49.19885	0.000736842	-0.140753	0.5433548	-0.4891728	16.40037	-14.76496
49.21542	0.000736842	-0.140753	0	0	-16.39848	14.76326
49.23199	0.000736842	-0.140753	0	0	0	0
49.24856	0.02972808	-0.1816079	1.749915	-2.466009	52.81253	-74.42431
49.26549	0.02972808	-0.1816079	0	0	-52.23521	73.61075
49.28169	0.02972808	-0.1816079	0	0	0	0
49.29826	0.04423428	-0.2733619	0.8755961	-5.53828	26.72398	-169.0333
49.31482	0.04423428	-0.2733619	0	0	-26.42859	167.1649
49.33197	0.04423428	-0.2733619	0	0	0	0
49.34795	0.04998465	-0.3510127	0.359681	-4.857	10.85519	-146.5846
49.50604	0.04998465	-0.3510127	0	0	-2.066228	27.9016
49.52386	0.04998465	-0.3510127	0	0	0	0
49.54285	0.05287173	-0.3780048	0.1520048	-1.421131	4.129666	-38.60929
49.55942	0.05287173	-0.3780048	0	0	-4.274528	39.96364
49.57621	0.05287173	-0.3780048	0	0	0	0
49.59255	0.05287173	-0.3780048	0	0	0	0
49.60912	0.05287173	-0.3780048	0	0	0	0
49.62568	0.05287173	-0.3780048	0	0	0	0
49.64225	0.05284549	-0.3779824	-0.001583907	0.001350953	-0.0478024	0.04077183
49.66242	0.05284549	-0.3779824	0	0	0.04311647	-0.03677509
49.68707	0.05284549	-0.3779824	0	0	0	0
49.70782	0.05281925	-0.3780048	-0.00126404	-0.001078131	-0.02783841	-0.02374406
49.73044	0.05281925	-0.3780048	0	0	0.02914341	0.02485713
49.75296	0.052793	-0.3780271	-0.001165094	-0.0009935965	-0.02581108	-0.02201178
49.77661	0.052793	-0.3780271	0	0	0.02523319	0.02151895
49.79594	0.052793	-0.3780271	0	0	0	0
49.81295	0.052793	-0.3780271	0	0	0	0
49.82908	0.052793	-0.3780271	0	0	0	0
49.84565	0.05318663	-0.378542	0.0237595	-0.03107911	0.7266842	-0.9505544
49.86221	0.05318663	-0.378542	0	0	-0.7170631	0.9379693
49.87878	0.05318663	-0.378542	0	0	0	0
49.89535	0.07014787	-0.3932762	1.023782	-0.8893568	30.89782	-26.84084
49.91203	0.07014787	-0.3932762	0	0	-30.795	26.75153
49.9939	0.07014787	-0.3932762	0	0	0	0
50.01492	0.08045752	-0.4022519	0.4904921	-0.4270276	4.766973	-4.150177
50.03149	0.08045752	-0.4022519	0	0	-13.04846	11.36013
50.04811	0.08045752	-0.4022519	0	0	0	0
50.06462	0.08045752	-0.4022519	0	0	0	0
50.08118	0.08045752	-0.4022519	0	0	0	0
50.09775	0.08040523	-0.4022065	-0.00315612	0.002743279	-0.09526287	0.08280186
50.11432	0.08040523	-0.4022065	0	0	0.0952519	-0.08279233
50.13089	0.08040523	-0.4022065	0	0	0	0
50.14745	0.08035293	-0.402161	-0.00315657	0.002743279	-0.09526548	0.08279233
50.16402	0.08035293	-0.402161	0	0	0.09526548	-0.08279233
50.18059	0.08035293	-0.402161	0	0	0	0
50.19715	0.08032679	-0.4021383	-0.001578424	0.001372855	-0.04763692	0.04143285
50.21373	0.08032679	-0.4021383	0	0	0.04763692	-0.04143285
50.3467	0.08032679	-0.4021383	0	0	0	0
50.37006	0.08030064	-0.4021155	-0.001119626	0.0009735322	-0.007161758	0.006227261
50.38663	0.08030064	-0.4021155	0	0	0.02804349	-0.02438425
50.40319	0.07776392	-0.3998669	-0.1531164	0.1357249	-4.621061	4.096185
50.41977	0.07776392	-0.3998669	0	0	4.620529	-4.095713
50.43671	0.07776392	-0.3998669	0	0	0	0
50.4529	0.03869121	-0.3662296	-2.413449	2.077716	-72.83804	62.7056
50.46946	0.03869121	-0.3662296	0	0	73.68637	-63.43593
50.48767	0.03869121	-0.3662296	0	0	0	0
50.50424	-0.02517889	-0.312096	-3.855206	3.267509	-110.8621	93.96202
50.52081	-0.02517889	-0.312096	0	0	116.3504	-98.6136
50.53745	-0.02517889	-0.312096	0	0	0	0
50.55394	-0.06810503	-0.2528212	-2.604219	3.596052	-78.60455	108.5415
50.5705	-0.06810503	-0.2528212	0	0	78.79507	-108.8046
50.58707	-0.06810503	-0.2528212	0	0	0	0
50.60366	-0.05405256	-0.1837447	0.8470387	4.163717	25.54603	125.5745
50.6202	-0.05405256	-0.1837447	0	0	-25.56368	-125.6612
50.63677	-0.05405256	-0.1837447	0	0	0	0
50.65334	-0.03054313	-0.1582168	1.419032	1.540865	42.82647	46.5034
50.66991	-0.03054313	-0.1582168	0	0	-42.82647	-46.5034
50.68647	-0.03054313	-0.1582168	0	0	0	0
50.70304	-0.02970179	-0.1575787	0.05078338	0.03851295	1.532646	1.162323
50.71961	-0.02970179	-0.1575787	0	0	-1.532646	-1.162323
50.73618	-0.02970179	-0.1575787	0	0	0	0
50.75275	-0.0303328	-0.1571003	-0.03808774	0.02887729	-1.149226	0.8713177
50.76931	-0.0303328	-0.1571003	0	0	1.149887	-0.8718194
50.78587	-0.0303328	-0.1571003	0	0	0	0
50.80244	-0.0303328	-0.1570605	0	0.002406545	0	0.07263803
50.819	-0.0303328	-0.1570605	0	0	0	-0.07263803
50.83557	-0.0303328	-0.1570605	0	0	0	0
50.85214	-0.0303328	-0.1570605	0	0	0	0
50.86871	-0.0303328	-0.1570605	0	0	0	0
