Time	Pos X	Pos Y	Vel X	Vel Y	Acc X	Acc Y
0.01656713	-0.03096378	-0.1023149	0.0004746224	0.001568314	-7.277699E-06	-2.404799E-05
0.03740434	-0.03101637	-0.1022369	-0.00252349	0.00374188	4.597068E-05	-3.332774E-05
0.05397462	-0.03101637	-0.1022369	0	0	0.06745947	-0.1000302
0.07053939	-0.03109524	-0.1021394	-0.00476131	0.005883636	-0.1436941	0.1775653
0.08773339	-0.03109524	-0.1021394	0	0	0.1410392	-0.1742847
0.1036744	-0.03109524	-0.1021394	0	0	0	0
0.1202384	-0.03109524	-0.1020615	0	0.004706773	0	0.1448014
0.1377368	-0.03109524	-0.1020615	0	0	0	-0.1381812
0.154594	-0.03109524	-0.1020615	0	0	0	0
0.1708722	-0.0312004	-0.1019445	-0.006460263	0.007184122	-0.1949654	0.2168109
0.1874425	-0.0312004	-0.1019445	0	0	0.1966688	-0.2187051
0.2040069	-0.0312004	-0.1019445	0	0	0	0
0.221341	-0.03122669	-0.101925	-0.001516732	0.001124413	-0.04474333	0.03316998
0.2371391	-0.03122669	-0.101925	0	0	0.04577807	-0.03393707
0.2537047	-0.03122669	-0.101925	0	0	0	0
0.270271	-0.03122669	-0.101925	0	0	0	0
0.2873912	-0.03122669	-0.101925	0	0	0	0
0.3034073	-0.03122669	-0.101925	0	0	0	0
0.3199712	-0.03122669	-0.101925	0	0	0	0
0.3365376	-0.03122669	-0.101925	0	0	0	0
0.3531043	-0.03122669	-0.101925	0	0	0	0
0.3696829	-0.0312004	-0.1019055	0.001585855	0.001175656	0.04784554	0.03546977
0.3862378	-0.0312004	-0.1019055	0	0	-0.04786263	-0.03548243
0.4032506	-0.0312004	-0.1019055	0	0	0	0
0.4193712	-0.03122669	-0.1018861	-0.001630902	0.001209051	-0.04922218	0.03649032
0.4359376	-0.03122669	-0.1018861	0	0	0.0498945	-0.03698874
0.4525043	-0.03122669	-0.1018861	0	0	0	0
0.4690706	-0.0312004	-0.1019055	0.001587028	-0.001176526	0.04789862	-0.03550911
0.4856378	-0.0312004	-0.1019055	0	0	-0.04789802	0.03550867
0.5022049	-0.0312004	-0.1019055	0	0	0	0
0.5187712	-0.0312004	-0.1019055	0	0	0	0
0.5353376	-0.0312004	-0.1019055	0	0	0	0
0.5520602	-0.0312004	-0.1019055	0	0	0	0
0.5684711	-0.0312004	-0.1019055	0	0	0	0
0.5850378	-0.0312004	-0.1019055	0	0	0	0
0.6016046	-0.0312004	-0.1019055	0	0	0	0
0.6181713	-0.03117411	-0.101925	0.001586875	-0.001176496	0.04789338	-0.03550774
0.6347377	-0.03117411	-0.101925	0	0	-0.04789397	0.03550819
0.6513048	-0.03117411	-0.101925	0	0	0	0
0.6678715	-0.03117411	-0.101925	0	0	0	0
0.684441	-0.03117411	-0.101925	0	0	0	0
0.7010081	-0.03117411	-0.101925	0	0	0	0
0.7175717	-0.0312004	-0.1019055	-0.001587178	0.00117672	-0.04790656	0.03551752
0.7341408	-0.0312004	-0.1019055	0	0	0.04790372	-0.03551541
0.750732	-0.0312004	-0.1019055	0	0	0	0
0.7672743	-0.0312004	-0.1019055	0	0	0	0
0.7838406	-0.0312004	-0.1019055	0	0	0	0
0.8004077	-0.0312004	-0.1019055	0	0	0	0
0.8169717	-0.0312004	-0.1019055	0	0	0	0
0.8335407	-0.0312004	-0.1019055	0	0	0	0
0.8503953	-0.0312004	-0.1019055	0	0	0	0
0.8666738	-0.0312004	-0.1019055	0	0	0	0
0.8833373	-0.0312004	-0.1019055	0	0	0	0
0.8998077	-0.0312004	-0.1019055	0	0	0	0
0.9163713	-0.0312004	-0.1019055	0	0	0	0
0.9329408	-0.0312004	-0.1019055	0	0	0	0
0.9499248	-0.0312004	-0.1019055	0	0	0	0
0.9660739	-0.0312004	-0.1019055	0	0	0	0
0.9826406	-0.0312004	-0.1019055	0	0	0	0
0.9992216	-0.0312004	-0.1019055	0	0	0	0
1.015771	-0.0312004	-0.1019055	0	0	0	0
1.032341	-0.0312004	-0.1019055	0	0	0	0
1.048956	-0.0312004	-0.1019055	0	0	0	0
1.065471	-0.0312004	-0.1019055	0	0	0	0
1.082041	-0.0312004	-0.1019055	0	0	0	0
1.099203	-0.0312004	-0.1019055	0	0	0	0
1.115171	-0.03117411	-0.1018861	0.001646431	0.00122065	0.04969619	0.03684434
1.131738	-0.03117411	-0.1018861	0	0	-0.050605	-0.03751811
1.148305	-0.03117411	-0.1018861	0	0	0	0
1.164871	-0.03117411	-0.1018861	0	0	0	0
1.181441	-0.03117411	-0.1018861	0	0	0	0
1.198007	-0.03117411	-0.1018861	0	0	0	0
1.214574	-0.03117411	-0.1018861	0	0	0	0
1.231187	-0.03117411	-0.1018861	0	0	0	0
1.247756	-0.03117411	-0.1018861	0	0	0	0
1.264274	-0.03114782	-0.1018666	0.00159173	0.001180011	0.04810755	0.03566401
1.280841	-0.03114782	-0.1018666	0	0	-0.04811154	-0.03566696
1.297407	-0.03114782	-0.1018666	0	0	0	0
1.313973	-0.03114782	-0.1018666	0	0	0	0
1.33054	-0.03114782	-0.1018666	0	0	0	0
1.347184	-0.03114782	-0.1018666	0	0	0	0
1.363674	-0.03114782	-0.1018666	0	0	0	0
1.380241	-0.03114782	-0.1018666	0	0	0	0
1.396805	-0.03114782	-0.1018666	0	0	0	0
1.413371	-0.03114782	-0.1018666	0	0	0	0
1.42994	-0.03114782	-0.1018666	0	0	0	0
1.44651	-0.03114782	-0.1018666	0	0	0	0
1.463075	-0.03114782	-0.1018666	0	0	0	0
1.479641	-0.03114782	-0.1018666	0	0	0	0
1.496207	-0.03114782	-0.1018666	0	0	0	0
1.512774	-0.03112153	-0.1018471	0.001586875	0.001176496	0.04789389	0.03550813
1.529341	-0.03112153	-0.1018471	0	0	-0.04789389	-0.03550813
1.545907	-0.03112153	-0.1018471	0	0	0	0
1.562595	-0.03112153	-0.1018471	0	0	0	0
1.579041	-0.03112153	-0.1018471	0	0	0	0
1.595634	-0.03112153	-0.1018471	0	0	0	0
1.61227	-0.03112153	-0.1018471	0	0	0	0
1.628769	-0.03112153	-0.1018471	0	0	0	0
1.645308	-0.03112153	-0.1018471	0	0	0	0
1.661872	-0.03112153	-0.1018471	0	0	0	0
1.678441	-0.03112153	-0.1018471	0	0	0	0
1.695008	-0.03112153	-0.1018471	0	0	0	0
1.711571	-0.03112153	-0.1018471	0	0	0	0
1.728141	-0.03112153	-0.1018471	0	0	0	0
1.745094	-0.03112153	-0.1018471	0	0	0	0
1.761385	-0.03112153	-0.1018471	0	0	0	0
1.778011	-0.03112153	-0.1018471	0	0	0	0
1.794407	-0.03112153	-0.1018471	0	0	0	0
1.810971	-0.03109524	-0.1018276	0.001587251	0.001176691	0.04815662	0.03570038
1.827541	-0.03109524	-0.1018276	0	0	-0.04790521	-0.035514
1.84411	-0.03109524	-0.1018276	0	0	0	0
1.860752	-0.03109524	-0.1018276	0	0	0	0
1.877241	-0.03109524	-0.1018276	0	0	0	0
1.894083	-0.03109524	-0.1018276	0	0	0	0
1.910371	-0.03109524	-0.1018276	0	0	0	0
1.926941	-0.03109524	-0.1018276	0	0	0	0
1.943507	-0.03109524	-0.1018276	0	0	0	0
1.960271	-0.03109524	-0.1018276	0	0	0	0
1.976948	-0.03109524	-0.1018276	0	0	0	0
1.993208	-0.03109524	-0.1018276	0	0	0	0
2.009774	-0.03109524	-0.1018276	0	0	0	0
2.026341	-0.03109524	-0.1018276	0	0	0	0
2.042907	-0.03109524	-0.1018276	0	0	0	0
2.059475	-0.03109524	-0.1018276	0	0	0	0
2.076042	-0.03109524	-0.1018276	0	0	0	0
2.092608	-0.03109524	-0.1018276	0	0	0	0
2.318222	-0.03109524	-0.1018276	0	0	0	0
2.33505	-0.03109524	-0.1018276	0	0	0	0
2.351558	-0.03112153	-0.1018471	-0.001592672	-0.00118071	-0.04777577	-0.03541804
2.368656	-0.03112153	-0.1018471	0	0	0.04739242	0.03513385
2.384693	-0.03112153	-0.1018471	0	0	0	0
2.401774	-0.03114782	-0.1018666	-0.001539098	-0.001141074	-0.04647382	-0.0344553
2.418342	-0.03114782	-0.1018666	0	0	0.04573984	0.03391113
2.434912	-0.03114782	-0.1018666	0	0	0	0
2.451512	-0.03125298	-0.1019445	-0.006335166	-0.004696589	-0.1909896	-0.1415905
2.468041	-0.03125298	-0.1019445	0	0	0.191226	0.1417658
2.484655	-0.03125298	-0.1019445	0	0	0	0
2.501188	-0.03135814	-0.1018666	-0.006360408	0.004715553	-0.1918885	0.1422645
2.517744	-0.03135814	-0.1018666	0	0	0.1922203	-0.1425105
2.534484	-0.03135814	-0.1018666	0	0	0	0
2.550874	-0.03148959	-0.1017691	-0.008020012	0.005945346	-0.242074	0.1794529
2.567442	-0.03148959	-0.1017691	0	0	0.2433419	-0.1803927
2.584008	-0.03148959	-0.1017691	0	0	0	0
2.600574	-0.03151588	-0.1017496	-0.001586944	0.001176547	-0.04789717	0.03551055
2.617158	-0.03151588	-0.1017496	0	0	0.04787202	-0.03549191
2.633986	-0.03151588	-0.1017496	0	0	0	0
2.650274	-0.03156846	-0.1017106	-0.003227964	0.002393185	-0.09747273	0.07226546
2.666845	-0.03156846	-0.1017106	0	0	0.09823727	-0.07283228
2.684037	-0.03156846	-0.1017106	0	0	0	0
2.699975	-0.03154217	-0.1016912	0.001649572	0.001222511	0.04979098	0.0369005
2.716544	-0.03154217	-0.1016912	0	0	-0.05074633	-0.03760852
2.733345	-0.03154217	-0.1016912	0	0	0	0
2.749674	-0.03154217	-0.1016912	0	0	0	0
2.766245	-0.03154217	-0.1016912	0	0	0	0
2.782811	-0.03154217	-0.1016912	0	0	0	0
2.799375	-0.03154217	-0.1016912	0	0	0	0
2.815944	-0.03154217	-0.1016912	0	0	0	0
2.83251	-0.03154217	-0.1016912	0	0	0	0
2.849332	-0.03154217	-0.1016912	0	0	0	0
2.865644	-0.03154217	-0.1016912	0	0	0	0
2.882769	-0.03154217	-0.1016912	0	0	0	0
2.898774	-0.03154217	-0.1016912	0	0	0	0
2.915342	-0.03154217	-0.1016912	0	0	0	0
2.931911	-0.03154217	-0.1016912	0	0	0	0
2.948477	-0.03154217	-0.1016912	0	0	0	0
2.965044	-0.03154217	-0.1016912	0	0	0	0
2.981611	-0.03154217	-0.1016912	0	0	0	0
2.998202	-0.03154217	-0.1016912	0	0	0	0
3.01476	-0.03154217	-0.1016912	0	0	0	0
3.031313	-0.03154217	-0.1016912	0	0	0	0
3.047874	-0.03154217	-0.1016912	0	0	0	0
3.064444	-0.03154217	-0.1016912	0	0	0	0
3.081127	-0.03154217	-0.1016912	0	0	0	0
3.097577	-0.03151588	-0.1017106	0.001598122	-0.001184381	0.0482335	-0.03574624
3.114144	-0.03151588	-0.1017106	0	0	-0.04840207	0.03587117
3.13071	-0.03151588	-0.1017106	0	0	0	0
3.154212	-0.03151588	-0.1017106	0	0	0	0
3.170784	-0.03151588	-0.1017106	0	0	0	0
3.187635	-0.03148959	-0.1017301	0.001560112	-0.001156654	0.04667755	-0.03460634
3.203916	-0.03148959	-0.1017301	0	0	-0.04708835	0.0349109
3.220483	-0.03148959	-0.1017301	0	0	0	0
3.237047	-0.03148959	-0.1017301	0	0	0	0
3.253617	-0.03148959	-0.1017301	0	0	0	0
3.270183	-0.03148959	-0.1017301	0	0	0	0
3.286749	-0.03143701	-0.1016912	0.003173751	0.002352542	0.09578881	0.07100344
3.303317	-0.03143701	-0.1016912	0	0	-0.09578537	-0.07100089
3.319884	-0.03143701	-0.1016912	0	0	0	0
3.33645	-0.03096378	-0.1013014	0.02856559	0.02352655	0.8621361	0.7100531
3.353016	-0.03096378	-0.1013014	0	0	-0.8621671	-0.7100787
3.369916	-0.03096378	-0.1013014	0	0	0	0
3.386149	-0.03064829	-0.1010676	0.01943452	0.01440324	0.5865561	0.4347062
3.402717	-0.03064829	-0.1010676	0	0	-0.5925038	-0.439114
3.419281	-0.03064829	-0.1010676	0	0	0	0
3.435847	-0.03056942	-0.1010092	0.004761101	0.00352824	0.1437068	0.1064948
3.452414	-0.03056942	-0.1010092	0	0	-0.1436986	-0.1064886
3.469559	-0.03056942	-0.1010092	0	0	0	0
3.485547	-0.03054313	-0.1010286	0.001644424	-0.00121861	0.0496306	-0.03677904
3.502117	-0.03054313	-0.1010286	0	0	-0.05050759	0.03742893
3.518796	-0.03054313	-0.1010286	0	0	0	0
3.53525	-0.03054313	-0.1010286	0	0	0	0
3.551816	-0.03054313	-0.1010286	0	0	0	0
3.569253	-0.03054313	-0.1010286	0	0	0	0
3.584949	-0.03054313	-0.1010286	0	0	0	0
3.601515	-0.03054313	-0.1010286	0	0	0	0
3.618082	-0.03054313	-0.1010286	0	0	0	0
3.63656	-0.03056942	-0.1010092	-0.001422791	0.001054368	-0.04059853	0.03008577
3.653128	-0.03056942	-0.1010092	0	0	0.04059771	-0.03008516
3.669948	-0.03056942	-0.1010092	0	0	0	0
3.686261	-0.030622	-0.1009702	-0.003223286	0.002388634	-0.09728175	0.07209119
3.702831	-0.030622	-0.1009702	0	0	0.09802307	-0.07264055
3.719395	-0.030622	-0.1009702	0	0	0	0
3.735997	-0.03167361	-0.09976251	-0.06334314	0.07274389	-1.909872	2.193316
3.75266	-0.03167361	-0.09976251	0	0	1.904232	-2.186839
3.769098	-0.03167361	-0.09976251	0	0	0	0
3.785661	-0.03188393	-0.08151963	-0.01269774	1.101411	-0.3847663	33.37491
3.802228	-0.03188393	-0.08151963	0	0	0.3832656	-33.24473
3.821057	-0.03188393	-0.08151963	0	0	0	0
3.837752	-0.03072717	-0.05101118	0.06928774	1.827398	1.950442	51.44104
3.854192	-0.03072717	-0.05101118	0	0	-2.091093	-55.15059
3.87076	-0.03072717	-0.05101118	0	0	0	0
3.887325	-0.02231209	-0.01824224	0.5080085	1.978222	15.3325	59.70587
3.903892	-0.02231209	-0.01824224	0	0	-15.33272	-59.70673
3.920733	-0.02231209	-0.01824224	0	0	0	0
3.937058	-0.02062865	0.02908109	0.1031216	2.898869	3.109262	87.40501
3.953596	-0.02062865	0.02908109	0	0	-3.137955	-88.21162
3.97074	-0.02062865	0.02908109	0	0	0	0
3.986725	-0.02073387	0.06415817	-0.006582449	2.194406	-0.1986916	66.23826
4.003294	-0.02073387	0.06415817	0	0	0.202203	-67.40885
4.020048	-0.02073387	0.06415817	0	0	0	0
4.036427	-0.01499888	0.09151571	0.3501356	1.670245	10.56742	50.40955
4.052992	-0.01499888	0.09151571	0	0	-10.62829	-50.69995
4.069561	-0.01499888	0.09151571	0	0	0	0
4.086125	-0.006420964	0.11761	0.5178382	1.575283	15.62884	47.54351
4.102695	-0.006420964	0.11761	0	0	-15.62861	-47.54283
4.119319	-0.006420964	0.11761	0	0	0	0
4.135887	-0.006710425	0.1437673	-0.0174709	1.578766	-0.5263488	47.56375
4.152394	-0.006710425	0.1437673	0	0	0.5282155	-47.73244
4.1695	-0.006710425	0.1437673	0	0	0	0
4.185527	-0.008078772	0.1690235	-0.08537516	1.575806	-2.576739	47.55998
4.202094	-0.008078772	0.1690235	0	0	2.619336	-48.34621
4.218661	-0.008078772	0.1690235	0	0	0	0
4.235294	-0.003789456	0.1854249	0.257872	0.9860462	7.767166	29.69995
4.251794	-0.003789456	0.1854249	0	0	-7.782927	-29.76022
4.268671	-0.003789456	0.1854249	0	0	0	0
4.284925	-0.007289344	0.2008145	-0.2153318	0.9468486	-6.499474	28.57924
4.301581	-0.007289344	0.2008145	0	0	6.542981	-28.77054
4.318562	-0.007289344	0.2008145	0	0	0	0
4.334627	-0.006236761	0.2023283	0.06551977	0.09422862	1.982726	2.851499
4.351194	-0.006236761	0.2023283	0	0	-2.007787	-2.887541
4.367897	-0.006236761	0.2023283	0	0	0	0
4.384327	-0.0121573	0.207102	-0.3603303	0.2905321	-10.87526	8.768656
4.400895	-0.0121573	0.207102	0	0	10.91973	-8.804515
4.417461	-0.0121573	0.207102	0	0	0	0
4.434028	-0.01210467	0.207102	0.003176449	0	0.09586956	0
4.450594	-0.01210467	0.207102	0	0	-0.09586956	0
4.467158	-0.01210467	0.207102	0	0	0	0
4.486824	-0.01202574	0.2070119	0.004013991	-0.004578271	0.1107931	-0.1263682
4.503394	-0.01202574	0.2070119	0	0	-0.1107756	0.1263483
4.51996	-0.01202574	0.2070119	0	0	0	0
4.536527	-0.01186786	0.2069039	0.00952946	-0.006522897	0.2876121	-0.1968699
4.553257	-0.01186786	0.2069039	0	0	-0.2861952	0.1959001
4.569657	-0.01186786	0.2069039	0	0	0	0
4.586224	-0.01163105	0.2066697	0.01429466	-0.01413185	0.4336101	-0.4286716
4.602794	-0.01163105	0.2066697	0	0	-0.4313888	0.4264756
4.61936	-0.01163105	0.2066697	0	0	0	0
4.635927	-0.01131531	0.2063816	0.01905969	-0.01739429	0.5752475	-0.5249835
4.652494	-0.01131531	0.2063816	0	0	-0.5752392	0.5249759
4.669131	-0.01131531	0.2063816	0	0	0	0
4.685624	-0.01126268	0.2063456	0.003190797	-0.002183741	0.0963123	-0.06591494
4.702193	-0.01126268	0.2063456	0	0	-0.09650815	0.06604897
4.71876	-0.01126268	0.2063456	0	0	0	0
4.735327	-0.01123637	0.2062555	0.001588179	-0.00543619	0.04793203	-0.1640669
4.751894	-0.01123637	0.2062555	0	0	-0.04793203	0.1640669
4.76846	-0.01123637	0.2062555	0	0	0	0
4.785028	-0.01121006	0.2062375	0.001588189	-0.001086487	0.04793234	-0.03279072
4.801594	-0.01121006	0.2062375	0	0	-0.04793303	0.0327912
4.818802	-0.01121006	0.2062375	0	0	0	0
4.834727	-0.01118374	0.2061835	0.001652244	-0.003392793	0.04986626	-0.1023976
4.851294	-0.01118374	0.2061835	0	0	-0.05085054	0.1044188
4.867858	-0.01118374	0.2061835	0	0	0	0
4.884789	-0.01118374	0.2061114	0	-0.004255323	0	-0.1270419
4.900993	-0.01118374	0.2061114	0	0	0	0.128424
4.918096	-0.01118374	0.2061114	0	0	0	0
4.934217	-0.01118374	0.2059313	0	-0.01117247	0	-0.3362808
4.950851	-0.01118374	0.2059313	0	0	0	0.341093
4.967261	-0.01118374	0.2059313	0	0	0	0
4.983827	-0.01073643	0.2045804	0.02700233	-0.0815508	0.8188442	-2.473024
5.000393	-0.01073643	0.2045804	0	0	-0.8150023	2.461421
5.016961	-0.01073643	0.2045804	0	0	0	0
5.033524	-0.01034174	0.2008505	0.02382918	-0.225186	0.7192386	-6.796813
5.050094	-0.01034174	0.2008505	0	0	-0.7191868	6.796324
5.066669	-0.01034174	0.2008505	0	0	0	0
5.083224	-0.001315789	0.1754479	0.5451839	-1.534367	16.45581	-46.31328
5.099794	-0.001315789	0.1754479	0	0	-16.45818	46.31995
5.116361	-0.001315789	0.1754479	0	0	0	0
5.137436	0.001499999	0.0592909	0.1336064	-5.511535	3.549396	-146.4198
5.154006	0.001499999	0.0592909	0	0	-3.549126	146.4087
5.170778	-0.004210501	0.03311073	-0.3404727	-1.56092	-10.21156	-46.81559
5.187632	-0.004210501	0.03311073	0	0	10.12526	46.41993
5.204	-0.004210501	0.03311073	0	0	0	0
5.220278	-0.009973354	0.02839038	-0.3540316	-0.2899868	-10.8445	-8.882719
5.23713	-0.009973354	0.02839038	0	0	10.68608	8.752954
5.253411	-0.009973354	0.02839038	0	0	0	0
5.269971	-0.002605257	0.02300951	0.4449313	-0.3249305	13.54796	-9.893989
5.28654	-0.002605257	0.02300951	0	0	-13.43056	9.808257
5.303106	-0.002605257	0.02300951	0	0	0	0
5.319749	0.01318345	-0.003002716	0.9486939	-1.562993	28.56709	-47.06489
5.336239	0.01318345	-0.003002716	0	0	-28.63287	47.17326
5.352899	0.01318345	-0.003002716	0	0	0	0
5.369672	0.008762933	-0.04678567	-0.2635383	-2.610214	-7.88259	-78.07308
5.38594	0.008762933	-0.04678567	0	0	7.975985	78.99811
5.402507	0.008762933	-0.04678567	0	0	0	0
5.419071	0.01134162	-0.06065143	0.1556767	-0.8370838	4.698805	-25.26579
5.435639	0.01134162	-0.06065143	0	0	-4.698602	25.26469
5.452207	0.01134162	-0.06065143	0	0	0	0
5.469192	0.005210479	-0.06516644	-0.3609852	-0.2658318	-10.75892	-7.92294
5.48534	0.005210479	-0.06516644	0	0	10.89503	8.023167
5.501907	0.005210479	-0.06516644	0	0	0	0
5.518474	0.004947328	-0.06532028	-0.0158843	-0.009285593	-0.4794029	-0.2802478
5.53504	0.004947328	-0.06532028	0	0	0.4794098	0.2802519
5.551835	0.004947328	-0.06532028	0	0	0	0
5.56826	0.004947328	-0.06535874	0	-0.002341527	0	-0.07048586
5.584738	0.004947328	-0.06535874	0	0	0	0.0711631
5.601307	0.004947328	-0.06535874	0	0	0	0
5.617875	0.005052588	-0.06547412	0.006353348	-0.006964132	0.1917334	-0.2101658
5.63444	0.005052588	-0.06547412	0	0	-0.1917499	0.210184
5.651183	0.005052588	-0.06547412	0	0	0	0
5.667574	0.007552488	-0.06730157	0.152514	-0.1114895	4.603014	-3.364858
5.684141	0.007552488	-0.06730157	0	0	-4.627522	3.382773
5.700707	0.007552488	-0.06730157	0	0	0	0
5.717271	0.02625712	-0.08101679	1.129241	-0.8280193	34.0845	-24.99255
5.734313	0.02625712	-0.08101679	0	0	-33.6028	24.63934
5.750407	0.02625712	-0.08101679	0	0	0	0
5.766971	0.03427605	-0.08696008	0.4841347	-0.3588204	14.82455	-10.98734
5.78354	0.03427605	-0.08696008	0	0	-14.61184	10.82969
5.800104	0.03427605	-0.08696008	0	0	0	0
5.81667	0.03427605	-0.08692132	0	0.002340017	0	0.070631
5.833241	0.03427605	-0.08692132	0	0	0	-0.07061779
5.849807	0.03427605	-0.08692132	0	0	0	0
5.866371	0.03424976	-0.08690194	-0.001586925	0.001169952	-0.047899	0.03531329
5.882941	0.03424976	-0.08690194	0	0	0.04789417	-0.03530973
5.899507	0.03424976	-0.08690194	0	0	0	0
5.916074	0.03422347	-0.08688256	-0.00158665	0.00116975	-0.04788796	0.03530516
5.932698	0.03422347	-0.08688256	0	0	0.04780334	-0.03524277
5.949759	0.03422347	-0.08688256	0	0	0	0
5.965771	0.03422347	-0.08688256	0	0	0	0
5.982338	0.03422347	-0.08688256	0	0	0	0
5.998909	0.03422347	-0.08688256	0	0	0	0
6.01547	0.03422347	-0.08688256	0	0	0	0
6.032441	0.03422347	-0.08688256	0	0	0	0
6.048878	0.03422347	-0.08688256	0	0	0	0
6.065171	0.03419719	-0.08686318	-0.001613352	0.001189435	-0.04929331	0.03634124
6.082378	0.03419719	-0.08686318	0	0	0.04816015	-0.03550583
6.098307	0.03419719	-0.08686318	0	0	0	0
6.114871	0.03414462	-0.08682442	-0.003173941	0.002339971	-0.09768184	0.07201543
6.13144	0.03414462	-0.08682442	0	0	0.09579523	-0.07062455
6.148235	0.03414462	-0.08682442	0	0	0	0
6.16457	0.0341709	-0.0868438	0.001609113	-0.001186311	0.04856873	-0.03580705
6.181139	0.0341709	-0.0868438	0	0	-0.04890234	0.036053
6.197776	0.0341709	-0.0868438	0	0	0	0
6.214271	0.03414462	-0.08682442	-0.001593623	0.00117489	-0.04810047	0.03546182
6.23084	0.03414462	-0.08682442	0	0	0.04819828	-0.03553393
6.247407	0.03414462	-0.08682442	0	0	0	0
6.26426	0.03414462	-0.08682442	0	0	0	0
6.280913	0.03414462	-0.08682442	0	0	0	0
6.297107	0.03414462	-0.08682442	0	0	0	0
6.313674	0.03414462	-0.08682442	0	0	0	0
6.33024	0.03414462	-0.08682442	0	0	0	0
6.346807	0.03414462	-0.08682442	0	0	0	0
6.363459	0.03411834	-0.08680504	-0.001578249	0.001164168	-0.04750995	0.0350449
6.379941	0.03411834	-0.08680504	0	0	0.04763233	-0.03513518
6.396507	0.03411834	-0.08680504	0	0	0	0
6.413405	0.03406576	-0.08676628	-0.003110979	0.002293554	-0.09296244	0.06853608
6.429974	0.03406576	-0.08676628	0	0	0.09295714	-0.06853218
6.446565	0.03406576	-0.08676628	0	0	0	0
6.476154	0.03403948	-0.08678566	-0.0008883535	-0.0006549341	-0.01923666	-0.01418213
6.492725	0.03403948	-0.08678566	0	0	0.019245	0.01418828
6.509288	0.03403948	-0.08682442	0	-0.002340421	0	-0.07063405
6.525858	0.03403948	-0.08682442	0	0	0	0.07063609
6.542591	0.03403948	-0.08682442	0	0	0	0
6.558989	0.03396062	-0.08692132	-0.00480909	-0.005909129	-0.1451574	-0.178361
6.575558	0.03396062	-0.08692132	0	0	0.1458755	0.1792433
6.592125	0.03396062	-0.08692132	0	0	0	0
6.608689	0.03393434	-0.08690194	-0.001586925	0.001169952	-0.047899	0.03531329
6.625258	0.03393434	-0.08690194	0	0	0.04789486	-0.03531024
6.642269	0.03393434	-0.08690194	0	0	0	0
6.658392	0.03393434	-0.08690194	0	0	0	0
6.674958	0.03393434	-0.08690194	0	0	0	0
6.691525	0.03393434	-0.08690194	0	0	0	0
6.708091	0.03393434	-0.08690194	0	0	0	0
6.724658	0.03393434	-0.08690194	0	0	0	0
6.741225	0.03393434	-0.08690194	0	0	0	0
6.757789	0.03393434	-0.08690194	0	0	0	0
6.774358	0.03393434	-0.08690194	0	0	0	0
6.790925	0.03393434	-0.08690194	0	0	0	0
6.807489	0.03390805	-0.08688256	-0.001586925	0.001169952	-0.047899	0.03531329
6.824059	0.03390805	-0.08688256	0	0	0.04789486	-0.03531024
6.841229	0.03390805	-0.08688256	0	0	0	0
6.857192	0.03330347	-0.08732834	-0.03787462	-0.02792626	-1.143108	-0.8428525
6.873758	0.03330347	-0.08732834	0	0	1.164338	0.8585066
6.890325	0.03330347	-0.08732834	0	0	0	0
6.90689	0.01263091	-0.1023733	-1.247978	-0.9082493	-37.66677	-27.41299
6.923459	0.01263091	-0.1023733	0	0	37.66514	27.41181
6.940025	0.01263091	-0.1023733	0	0	0	0
6.95659	-0.01089431	-0.1193497	-1.42023	-1.024872	-42.86694	-30.93381
6.973159	-0.01089431	-0.1193497	0	0	42.86386	30.93159
6.989725	-0.01089431	-0.1193497	0	0	0	0
7.006292	-0.01736668	-0.1240244	-0.3906618	-0.2821597	-11.79053	-8.515843
7.022859	-0.01736668	-0.1240244	0	0	11.79037	8.51572
7.039423	-0.01736668	-0.1240244	0	0	0	0
7.056538	-0.01736668	-0.1240244	0	0	0	0
7.072558	-0.01736668	-0.1240244	0	0	0	0
7.089125	-0.01736668	-0.1240244	0	0	0	0
7.1061	-0.01734037	-0.1240048	0.001549815	0.001158301	0.046205	0.03453271
7.122259	-0.01734037	-0.1240048	0	0	-0.04677486	-0.03495862
7.138823	-0.01734037	-0.1240048	0	0	0	0
7.155392	-0.01734037	-0.1240048	0	0	0	0
7.171958	-0.01734037	-0.1240048	0	0	0	0
7.188524	-0.01734037	-0.1240048	0	0	0	0
7.20509	-0.01731406	-0.1239851	0.001588137	0.001186942	0.0479342	0.03582508
7.221661	-0.01731406	-0.1239851	0	0	-0.04792731	-0.03581993
7.238276	-0.01731406	-0.1239851	0	0	0	0
7.254789	-0.01728775	-0.1239655	0.001593182	0.001190713	0.04809062	0.03594198
7.271363	-0.01728775	-0.1239655	0	0	-0.0481523	-0.03598808
7.287928	-0.01728775	-0.1239655	0	0	0	0
7.304493	-0.01726144	-0.1239458	0.001588137	0.001186493	0.04793628	0.03581305
7.321063	-0.01726144	-0.1239458	0	0	-0.04792869	-0.03580739
7.337627	-0.01726144	-0.1239458	0	0	0	0
7.354189	-0.01689313	-0.1236313	0.02223851	0.0189913	0.6713238	0.573299
7.370756	-0.01689313	-0.1236313	0	0	-0.6712852	-0.573266
7.486856	-0.01689313	-0.1236313	0	0	0	0
7.503422	-0.01623541	-0.1229827	0.03970089	0.03915042	0.2992531	0.2951038
7.519995	-0.01623541	-0.1229827	0	0	-1.197986	-1.181375
7.536932	-0.01623541	-0.1229827	0	0	0	0
7.553163	-0.01613018	-0.1229041	0.006483411	0.004843107	0.1954728	0.1460182
7.569771	-0.01613018	-0.1229041	0	0	-0.1974256	-0.1474769
7.586265	-0.01613018	-0.1229041	0	0	0	0
7.602823	-0.01610387	-0.1229237	0.001588777	-0.001186971	0.04806906	-0.03591226
7.619802	-0.01610387	-0.1229237	0	0	-0.04737264	0.03539196
7.636007	-0.01610387	-0.1229237	0	0	0	0
7.653427	-0.01610387	-0.1229237	0	0	0	0
7.67029	-0.01610387	-0.1229237	0	0	0	0
7.686844	-0.01610387	-0.1229237	0	0	0	0
7.703134	-0.01610387	-0.1229237	0	0	0	0
7.719699	-0.01610387	-0.1229237	0	0	0	0
7.736267	-0.01610387	-0.1229237	0	0	0	0
7.752828	-0.01610387	-0.1229237	0	0	0	0
7.769733	-0.01610387	-0.1229237	0	0	0	0
7.785969	-0.01610387	-0.1229237	0	0	0	0
7.80253	-0.01613018	-0.1229434	-0.001588594	-0.001186384	-0.04843739	-0.03617372
7.819097	-0.01613018	-0.1229434	0	0	0.04795353	0.03581236
7.835663	-0.01613018	-0.1229434	0	0	0	0
7.852229	-0.01613018	-0.1229434	0	0	0	0
7.868796	-0.01613018	-0.1229434	0	0	0	0
7.886217	-0.01613018	-0.1229434	0	0	0	0
7.901927	-0.01613018	-0.1229434	0	0	0	0
7.918497	-0.01613018	-0.1229434	0	0	0	0
7.935063	-0.01613018	-0.1229434	0	0	0	0
7.951647	-0.01613018	-0.1229434	0	0	0	0
7.968232	-0.01613018	-0.1229434	0	0	0	0
7.984763	-0.01613018	-0.1229434	0	0	0	0
8.001327	-0.01613018	-0.1229434	0	0	0	0
8.017896	-0.01613018	-0.1229434	0	0	0	0
8.034463	-0.01613018	-0.1229434	0	0	0	0
8.051026	-0.01613018	-0.1229434	0	0	0	0
8.067596	-0.01613018	-0.1229434	0	0	0	0
8.084233	-0.01613018	-0.1229434	0	0	0	0
8.100727	-0.01610387	-0.1229237	0.001595024	0.001191186	0.04814346	0.0359542
8.117293	-0.01610387	-0.1229237	0	0	-0.04824623	-0.03603096
8.134344	-0.01610387	-0.1229237	0	0	0	0
8.150426	-0.01594602	-0.1227665	0.00981566	0.00977547	0.2962543	0.2950413
8.166996	-0.01594602	-0.1227665	0	0	-0.3006153	-0.2993844
8.184277	-0.01594602	-0.1227665	0	0	0	0
8.200127	-0.01576185	-0.1225897	0.01161921	0.01115749	0.3507089	0.3367725
8.217157	-0.01576185	-0.1225897	0	0	-0.353374	-0.3393317
8.233263	-0.01576185	-0.1225897	0	0	0	0
8.249826	-0.01568292	-0.1225307	0.004765184	0.003558988	0.1458623	0.1089406
8.266396	-0.01568292	-0.1225307	0	0	-0.1438218	-0.1074166
8.283116	-0.01568292	-0.1225307	0	0	0	0
8.299526	-0.01565661	-0.1225504	0.001603295	-0.001197732	0.0483931	-0.03615179
8.316095	-0.01565661	-0.1225504	0	0	-0.0486156	0.03631801
8.332662	-0.01565661	-0.1225504	0	0	0	0
8.349225	-0.01565661	-0.1225504	0	0	0	0
8.365794	-0.01565661	-0.1225504	0	0	0	0
8.383283	-0.01565661	-0.1225504	0	0	0	0
8.398925	-0.01565661	-0.1225504	0	0	0	0
8.415495	-0.01565661	-0.1225504	0	0	0	0
8.432555	-0.01565661	-0.1225504	0	0	0	0
8.448625	-0.01563031	-0.12257	0.001637148	-0.001222645	0.04941633	-0.0369048
8.465194	-0.01563031	-0.12257	0	0	-0.05015994	0.03746014
8.481762	-0.01563031	-0.12257	0	0	0	0
8.499485	-0.015604	-0.1225504	0.001484497	0.001108564	0.04329081	0.03232789
8.516199	-0.015604	-0.1225504	0	0	-0.04310739	-0.03219092
8.532735	-0.015604	-0.1225504	0	0	0	0
8.549303	-0.01420957	-0.1215092	0.08416296	0.06284086	2.542385	1.898289
8.565872	-0.01420957	-0.1215092	0	0	-2.539824	-1.896377
8.582438	-0.01420957	-0.1215092	0	0	0	0
8.599002	-0.00271052	-0.112941	0.6942439	0.5172983	20.95534	15.61434
8.615571	-0.00271052	-0.112941	0	0	-20.95353	-15.61299
8.633109	-0.00271052	-0.112941	0	0	0	0
8.648701	0.009157639	-0.1042064	0.7611882	0.5602101	22.97601	16.90961
8.665271	0.009157639	-0.1042064	0	0	-23.66753	-17.41854
8.681856	0.009157639	-0.1042064	0	0	0	0
8.698403	0.009210266	-0.1041674	0.003180427	0.002357573	0.09599101	0.07115579
8.714971	0.009210266	-0.1041674	0	0	-0.09604353	-0.07119472
8.731537	0.009210266	-0.1041674	0	0	0	0
8.748105	0.009210266	-0.1041674	0	0	0	0
8.76467	0.009210266	-0.1041674	0	0	0	0
8.781235	0.009210266	-0.1041674	0	0	0	0
8.797804	0.009210266	-0.1041674	0	0	0	0
8.81437	0.009210266	-0.1041674	0	0	0	0
8.831149	0.009210266	-0.1041674	0	0	0	0
8.847501	0.00923658	-0.1041869	0.001609226	-0.00119288	0.04857214	-0.03600534
8.864068	0.00923658	-0.1041869	0	0	-0.04888453	0.03623691
8.880637	0.00923658	-0.1041869	0	0	0	0
8.897202	0.009262893	-0.1042064	0.001588566	-0.001177565	0.04794439	-0.03554
8.913771	0.009262893	-0.1042064	0	0	-0.04794439	0.03554
8.930337	0.009262893	-0.1042064	0	0	0	0
8.946901	0.009289207	-0.1042259	0.001588566	-0.001177565	0.04794853	-0.03554307
8.963469	0.009289207	-0.1042259	0	0	-0.04794715	0.03554205
8.980103	0.009289207	-0.1042259	0	0	0	0
8.996601	0.009341833	-0.1042649	0.003189747	-0.002364975	0.09627229	-0.07137918
9.013171	0.009341833	-0.1042649	0	0	-0.09645831	0.07151711
9.029736	0.009341833	-0.1042649	0	0	0	0
9.046301	0.009341833	-0.1042649	0	0	0	0
9.062952	0.009341833	-0.1042649	0	0	0	0
9.079526	0.009341833	-0.1042649	0	0	0	0
9.096004	0.00939446	-0.1042649	0.00319368	0	0.09662461	0
9.112966	0.00939446	-0.1042649	0	0	-0.09550582	0
9.129424	0.00939446	-0.1042649	0	0	0	0
9.145701	0.009499714	-0.104343	0.006466265	-0.004793785	0.1975287	-0.1464385
9.162271	0.009499714	-0.104343	0	0	-0.1968634	0.1459453
9.1792	0.009499714	-0.104343	0	0	0	0
9.195401	0.009762848	-0.1045771	0.01624182	-0.01445046	0.4902355	-0.4361659
9.211967	0.009762848	-0.1045771	0	0	-0.4956716	0.4410025
9.228537	0.009762848	-0.1045771	0	0	0	0
9.2451	0.009841788	-0.1046356	0.004765915	-0.003533798	0.1438439	-0.1066564
9.261669	0.009841788	-0.1046356	0	0	-0.1438439	0.1066564
9.278236	0.009841788	-0.1046356	0	0	0	0
9.294803	0.009841788	-0.1046356	0	0	0	0
9.311369	0.009841788	-0.1046356	0	0	0	0
9.327935	0.009841788	-0.1046356	0	0	0	0
9.344512	0.01007861	-0.1048112	0.01428617	-0.0105933	0.4310459	-0.3196238
9.361067	0.01007861	-0.1048112	0	0	-0.4311948	0.3197342
9.377635	0.01007861	-0.1048112	0	0	0	0
9.394201	0.01728775	-0.110163	0.4351699	-0.323055	13.13345	-9.74982
9.410768	0.01728775	-0.110163	0	0	-13.13421	9.750381
9.427334	0.01728775	-0.110163	0	0	0	0
9.443951	0.0353274	-0.1236116	1.085626	-0.8093362	32.71623	-24.39001
9.460525	0.0353274	-0.1236116	0	0	-32.70871	24.38441
9.477164	0.0353274	-0.1236116	0	0	0	0
9.496612	0.03911162	-0.1264438	0.1945882	-0.1456346	5.392191	-4.035649
9.513762	0.03911162	-0.1264438	0	0	-5.317017	3.979387
9.529749	0.03911162	-0.1264438	0	0	0	0
9.546316	0.03911162	-0.1264438	0	0	0	0
9.562881	0.03911162	-0.1264438	0	0	0	0
9.579449	0.03911162	-0.1264438	0	0	0	0
9.596013	0.0390328	-0.1263848	-0.004758613	0.00356418	-0.1436276	0.1075765
9.612583	0.0390328	-0.1263848	0	0	0.1436152	-0.1075672
9.629149	0.0390328	-0.1263848	0	0	0	0
9.645714	0.03900652	-0.1263651	-0.001586429	0.00118836	-0.04788404	0.03586891
9.662283	0.03900652	-0.1263651	0	0	0.0478799	-0.03586581
9.67885	0.03900652	-0.1263651	0	0	0	0
9.695414	0.03898025	-0.1263454	-0.001586296	0.001187529	-0.04788001	0.03584382
9.71198	0.03898025	-0.1263454	0	0	0.04788138	-0.03584485
9.728549	0.03898025	-0.1263454	0	0	0	0
9.745113	0.03895397	-0.1263257	-0.001586429	0.00118836	-0.0478799	0.03586581
9.761683	0.03895397	-0.1263257	0	0	0.0478799	-0.03586581
9.778376	0.03895397	-0.1263257	0	0	0	0
9.794816	0.03890142	-0.1262864	-0.003196332	0.002393737	-0.09646825	0.07224519
9.811416	0.03890142	-0.1262864	0	0	0.09674114	-0.07244955
9.82795	0.03890142	-0.1262864	0	0	0	0
9.844785	0.03890142	-0.1262864	0	0	0	0
9.86108	0.03890142	-0.1262864	0	0	0	0
9.877805	0.03890142	-0.1262864	0	0	0	0
9.894213	0.03887514	-0.1263061	-0.001601551	-0.001199688	-0.04833769	-0.03620873
9.910782	0.03887514	-0.1263061	0	0	0.04856555	0.03637941
9.927348	0.03887514	-0.1263061	0	0	0	0
9.943915	0.03887514	-0.1263061	0	0	0	0
9.960482	0.03887514	-0.1263061	0	0	0	0
9.977324	0.03887514	-0.1263061	0	0	0	0
9.993615	0.03879631	-0.126247	-0.004838509	0.003623851	-0.1460307	0.1093712
10.01114	0.03879631	-0.126247	0	0	0.143078	-0.1071597
10.02679	0.03879631	-0.126247	0	0	0	0
10.04332	0.03879631	-0.126247	0	0	0	0
10.05988	0.03879631	-0.126247	0	0	0	0
10.0768	0.03879631	-0.126247	0	0	0	0
10.09301	0.03871748	-0.1262273	-0.004861218	0.001213869	-0.1467288	0.03663885
10.10958	0.03871748	-0.1262273	0	0	0.1482695	-0.03702358
10.12634	0.03871748	-0.1262273	0	0	0	0
10.14271	0.03861238	-0.1261486	-0.006421052	0.004808392	-0.19381	0.1451343
10.1595	0.03861238	-0.1261486	0	0	0.193693	-0.1450466
10.17585	0.03861238	-0.1261486	0	0	0	0
10.19241	0.0385861	-0.1261683	-0.001586296	-0.001188428	-0.04819074	-0.03610376
10.20916	0.0385861	-0.1261683	0	0	0.04762775	0.03568198
10.22555	0.0385861	-0.1261683	0	0	0	0
10.24212	0.03855982	-0.126188	-0.001586246	-0.001187324	-0.04812511	-0.0360222
10.25868	0.03855982	-0.126188	0	0	0.04787852	0.03583763
10.27525	0.03855982	-0.126188	0	0	0	0
10.29181	0.03842844	-0.1260896	-0.007932153	0.005939443	-0.2394066	0.1792631
10.30838	0.03842844	-0.1260896	0	0	0.2393997	-0.1792579
10.32495	0.03842844	-0.1260896	0	0	0	0
10.34151	0.03827078	-0.1259322	-0.009518125	0.009503282	-0.2872907	0.2868426
10.35808	0.03827078	-0.1259322	0	0	0.2872659	-0.2868179
10.37468	0.03827078	-0.1259322	0	0	0	0
10.39147	0.0382445	-0.1259519	-0.001564985	-0.001172297	-0.04687516	-0.03511317
10.40778	0.0382445	-0.1259519	0	0	0.04727215	0.03541056
10.42435	0.0382445	-0.1259519	0	0	0	0
10.44092	0.0382445	-0.1259519	0	0	0	0
10.45748	0.0382445	-0.1259519	0	0	0	0
10.47405	0.0382445	-0.1259519	0	0	0	0
10.49061	0.03821822	-0.1259322	-0.001586429	0.00118836	-0.04788404	0.03586891
10.50718	0.03821822	-0.1259322	0	0	0.0478799	-0.03586581
10.52375	0.03821822	-0.1259322	0	0	0	0
10.54354	0.03821822	-0.1259322	0	0	0	0
10.56011	0.03821822	-0.1259322	0	0	0	0
10.57677	0.03821822	-0.1259322	0	0	0	0
10.59355	0.03816567	-0.1258929	-0.003131171	0.002343883	-0.0936365	0.07009297
10.61012	0.03816567	-0.1258929	0	0	0.09388551	-0.07027937
10.62669	0.03816567	-0.1258929	0	0	0	0
10.64337	0.03811311	-0.1258535	-0.003151809	0.002360059	-0.09480525	0.0709897
10.65991	0.03811311	-0.1258535	0	0	0.09488418	-0.0710488
10.6764	0.03811311	-0.1258535	0	0	0	0
10.69326	0.03808684	-0.1258338	-0.001558788	0.00116677	-0.0467376	0.03498363
10.70974	0.03808684	-0.1258338	0	0	0.04676434	-0.03500364
10.72631	0.03808684	-0.1258338	0	0	0	0
10.74266	0.03766639	-0.1261093	-0.02572027	-0.01685013	-0.7812988	-0.5118527
10.75922	0.03766639	-0.1261093	0	0	0.7813894	0.511912
10.77579	0.03766639	-0.1261093	0	0	0	0
10.79235	0.03338233	-0.1292793	-0.2586309	-0.1913736	-7.80662	-5.776499
10.80892	0.03338233	-0.1292793	0	0	7.805721	5.775835
10.82549	0.03338233	-0.1292793	0	0	0	0
10.84205	0.01547245	-0.1418222	-1.081229	-0.757221	-32.63532	-22.85561
10.85862	0.01547245	-0.1418222	0	0	32.63156	22.85298
10.87576	0.01547245	-0.1418222	0	0	0	0
10.89175	-0.03143701	-0.1568611	-2.932578	-0.9401726	-88.51812	-28.37855
10.90832	-0.03143701	-0.1568611	0	0	90.05274	28.87054
10.92489	-0.03143701	-0.1568611	0	0	0	0
10.94146	-0.1094815	-0.1539531	-4.711047	0.1755368	-142.1838	5.297864
10.95802	-0.1094815	-0.1539531	0	0	142.1879	-5.298017
10.97459	-0.1094815	-0.1539531	0	0	0	0
10.99124	-0.1771497	-0.1451317	-4.063638	0.5297502	-122.331	15.9475
11.00772	-0.1771497	-0.1451317	0	0	122.6444	-15.98835
11.02436	-0.1771497	-0.1451317	0	0	0	0
11.04086	-0.1933184	-0.1417231	-0.9799506	0.2065849	-29.57667	6.235103
11.05742	-0.1933184	-0.1417231	0	0	29.63724	-6.247871
11.07399	-0.1933184	-0.1417231	0	0	0	0
11.09056	-0.1933691	-0.1416835	-0.003060057	0.002390838	-0.0923527	0.07215564
11.10712	-0.1933691	-0.1416835	0	0	0.09235536	-0.07215772
11.12394	-0.1933691	-0.1416835	0	0	0	0
11.14025	-0.1934198	-0.1416439	-0.003106917	0.00242745	-0.09377235	0.07326481
11.15682	-0.1934198	-0.1416439	0	0	0.09448215	-0.07381938
11.17342	-0.1934198	-0.1416439	0	0	0	0
11.18995	-0.1933944	-0.1416241	0.001532499	0.001197349	0.04625357	0.03613815
11.20652	-0.1933944	-0.1416241	0	0	-0.04629488	-0.03617042
11.22309	-0.1933944	-0.1416241	0	0	0	0
11.23965	-0.1933944	-0.1416241	0	0	0	0
11.25622	-0.1933944	-0.1416241	0	0	0	0
11.27279	-0.1933944	-0.1416241	0	0	0	0
11.28936	-0.1933944	-0.1416241	0	0	0	0
11.30592	-0.1933944	-0.1416241	0	0	0	0
11.32265	-0.1933944	-0.1416241	0	0	0	0
11.33905	-0.1934198	-0.1416439	-0.001545689	-0.001207655	-0.04665436	-0.03645129
11.35562	-0.1934198	-0.1416439	0	0	0.04688514	0.0366316
11.37219	-0.1934198	-0.1416439	0	0	0	0
11.38875	-0.1934451	-0.1416241	-0.001529129	0.001195419	-0.04615186	0.0360799
11.40582	-0.1934451	-0.1416241	0	0	0.04546998	-0.03554683
11.42189	-0.1934451	-0.1416241	0	0	0	0
11.43871	-0.1934451	-0.1415845	0	0.00235336	0	0.07154346
11.45516	-0.1934451	-0.1415845	0	0	0	-0.07073343
11.47176	-0.1934451	-0.1415845	0	0	0	0
11.48815	-0.1935211	-0.1415251	-0.004638416	0.003624018	-0.1405906	0.1098442
11.50472	-0.1935211	-0.1415251	0	0	0.1407086	-0.1099363
11.52173	-0.1935211	-0.1415251	0	0	0	0
11.53785	-0.1938759	-0.1412479	-0.02200272	0.0171924	-0.6641772	0.5189722
11.55442	-0.1938759	-0.1412479	0	0	0.6729727	-0.5258448
11.57099	-0.1938759	-0.1412479	0	0	0	0
11.58755	-0.2006576	-0.1359476	-0.4093676	0.3199469	-12.35581	9.656849
11.60447	-0.2006576	-0.1359476	0	0	12.2263	-9.55563
11.62069	-0.2006576	-0.1359476	0	0	0	0
11.68972	-0.2057316	-0.1319799	-0.07350221	0.05747529	-0.862197	0.6741977
11.70629	-0.2057316	-0.1319799	0	0	0.8586621	-0.6714336
11.72308	-0.2057569	-0.1319996	-0.001500937	-0.001174492	-0.04498374	-0.03520004
11.73942	-0.2057569	-0.1319996	0	0	0.04529706	0.03544521
11.75599	-0.2057569	-0.1319996	0	0	0	0
11.77255	-0.2057316	-0.1319799	0.001521933	0.001190922	0.045936	0.03594519
11.78912	-0.2057316	-0.1319799	0	0	-0.04593468	-0.03594416
11.80569	-0.2057316	-0.1319799	0	0	0	0
11.82225	-0.2057316	-0.1319799	0	0	0	0
11.83882	-0.2057316	-0.1319799	0	0	0	0
11.85539	-0.2057316	-0.1319799	0	0	0	0
11.87195	-0.2057569	-0.1319602	-0.001522108	0.001191059	-0.04593864	0.03594726
11.88852	-0.2057569	-0.1319602	0	0	0.04593864	-0.03594726
11.90513	-0.2057569	-0.1319602	0	0	0	0
11.92166	-0.2057569	-0.1319602	0	0	0	0
11.93822	-0.2057569	-0.1319602	0	0	0	0
11.95479	-0.2057569	-0.1319602	0	0	0	0
11.97228	-0.2057316	-0.1319799	0.001441678	-0.001128122	0.04233294	-0.03312578
11.98904	-0.2057316	-0.1319799	0	0	-0.04208897	0.03293487
12.00541	-0.2057316	-0.1319799	0	0	0	0
12.02198	-0.2057316	-0.1319799	0	0	0	0
12.03855	-0.2057316	-0.1319799	0	0	0	0
12.05528	-0.2057316	-0.1319799	0	0	0	0
12.07168	-0.2057316	-0.1319799	0	0	0	0
12.08825	-0.2057316	-0.1319799	0	0	0	0
12.10481	-0.2057316	-0.1319799	0	0	0	0
12.12138	-0.2056308	-0.1319405	0.006088632	0.002380944	0.1837658	0.07186116
12.13795	-0.2056308	-0.1319405	0	0	-0.1837606	-0.0718591
12.15461	-0.2056308	-0.1319405	0	0	0	0
12.17108	-0.2039405	-0.1307376	0.1026443	0.07304396	3.09799	2.204598
12.18765	-0.2039405	-0.1307376	0	0	-3.107202	-2.211153
12.20427	-0.2039405	-0.1307376	0	0	0	0
12.22078	-0.200506	-0.1282156	0.2079694	0.1527148	6.27671	4.609075
12.23735	-0.200506	-0.1282156	0	0	-6.286662	-4.616383
12.25391	-0.200506	-0.1282156	0	0	0	0
12.27048	-0.1874571	-0.1195459	0.7876732	0.5233313	23.77339	15.79508
12.28705	-0.1874571	-0.1195459	0	0	-23.77066	-15.79326
12.30378	-0.1874571	-0.1195459	0	0	0	0
12.32018	-0.1610406	-0.1201151	1.610636	-0.0347038	48.61469	-1.047483
12.33675	-0.1610406	-0.1201151	0	0	-48.85093	1.052573
12.60797	-0.1610406	-0.1201151	0	0	0	0
12.6379	-0.03183135	-0.06128503	4.31772	1.965896	14.33761	6.528037
12.65447	-0.03183135	-0.06128503	0	0	-92.86331	-42.28147
12.67103	-0.02502109	-0.05543443	0.4110916	0.3531632	12.40605	10.65787
12.6876	-0.02502109	-0.05543443	0	0	-12.40784	-10.65941
12.70416	-0.02502109	-0.05543443	0	0	0	0
12.72073	-0.01747191	-0.04993989	0.4557223	0.3316892	13.75531	10.01155
12.73729	-0.01747191	-0.04993989	0	0	-13.75491	-10.01126
12.75386	-0.01747191	-0.04993989	0	0	0	0
12.77043	-0.01189418	-0.04600241	0.3366918	0.2376802	10.16167	7.173408
12.787	-0.01189418	-0.04600241	0	0	-10.16109	-7.172995
12.80356	-0.01189418	-0.04600241	0	0	0	0
12.82348	-0.01084168	-0.04676656	0.05284782	-0.03836947	1.448606	-1.051741
12.84005	-0.01084168	-0.04676656	0	0	-1.448416	1.051604
12.85678	-0.01084168	-0.04676656	0	0	0	0
12.87318	0.007631431	-0.06020992	1.12619	-0.8195571	33.99238	-24.73713
12.88975	0.007631431	-0.06020992	0	0	-34.15559	24.8559
12.90632	0.007631431	-0.06020992	0	0	0	0
12.92338	0.02751937	-0.0747584	1.165289	-0.8524352	34.64695	-25.34503
12.93945	0.02751937	-0.0747584	0	0	-35.17153	25.72877
12.95602	0.02751937	-0.0747584	0	0	0	0
12.9726	0.03080604	-0.07717121	0.1982014	-0.145504	5.978633	-4.389046
12.98915	0.03080604	-0.07717121	0	0	-5.981903	4.391446
13.00599	0.03080604	-0.07717121	0	0	0	0
13.02292	0.03135814	-0.07757678	0.0326205	-0.02396268	0.9659722	-0.709593
13.03949	0.03135814	-0.07757678	0	0	-0.9739486	0.7154524
13.05606	0.03135814	-0.07757678	0	0	0	0
13.07262	0.03141072	-0.0776154	0.003174208	-0.00233174	0.09580053	-0.07037409
13.08919	0.03141072	-0.0776154	0	0	-0.09580053	0.07037409
13.10596	0.03141072	-0.0776154	0	0	0	0
13.12232	0.03138443	-0.07759609	-0.001606809	0.001180345	-0.04849916	0.03562699
13.13889	0.03138443	-0.07759609	0	0	0.04879412	-0.03584366
13.15581	0.03138443	-0.07759609	0	0	0	0
13.17202	0.03133185	-0.07755746	-0.003243679	0.002383233	-0.09789724	0.07192819
13.18859	0.03133185	-0.07755746	0	0	0.09896543	-0.07271302
13.20516	0.03133185	-0.07755746	0	0	0	0
13.22176	0.03130556	-0.07757678	-0.001583003	-0.001163306	-0.0477188	-0.03506726
13.23829	0.03130556	-0.07757678	0	0	0.04777649	0.03510966
13.25486	0.03130556	-0.07757678	0	0	0	0
13.27142	0.03127927	-0.07763472	-0.001587104	-0.00349806	-0.0479044	-0.1055838
13.28799	0.03127927	-0.07763472	0	0	0.04790165	0.1055778
13.30474	0.03127927	-0.07763472	0	0	0	0
13.32112	0.03114782	-0.07780855	-0.008025029	-0.0106121	-0.2422168	-0.3203015
13.33769	0.03114782	-0.07780855	0	0	0.2435558	0.3220722
13.35472	0.03114782	-0.07780855	0	0	0	0
13.37082	0.03106895	-0.07775061	-0.004897328	0.003597904	-0.1478187	0.1085975
13.38739	0.03106895	-0.07775061	0	0	0.1498809	-0.1101126
13.40396	0.03106895	-0.07775061	0	0	0	0
13.42052	0.03101637	-0.07771198	-0.00317432	0.00233219	-0.09581496	0.07039578
13.43709	0.03101637	-0.07771198	0	0	0.09580393	-0.07038767
13.45366	0.03101637	-0.07771198	0	0	0	0
13.47022	0.03101637	-0.07771198	0	0	0	0
13.48679	0.03101637	-0.07771198	0	0	0	0
13.50343	0.03101637	-0.07771198	0	0	0	0
13.51992	0.03101637	-0.07771198	0	0	0	0
13.53649	0.03101637	-0.07771198	0	0	0	0
13.55305	0.03101637	-0.07771198	0	0	0	0
13.56962	0.03104266	-0.07773129	0.001587104	-0.00116587	0.04790027	-0.03518705
13.58619	0.03104266	-0.07773129	0	0	-0.04790027	0.03518705
13.60276	0.03104266	-0.07773129	0	0	0	0
13.61932	0.03101637	-0.07771198	-0.001586921	0.001165736	-0.04789475	0.03518299
13.63589	0.03101637	-0.07771198	0	0	0.04789475	-0.03518299
13.65245	0.03101637	-0.07771198	0	0	0	0
13.66902	0.03101637	-0.07771198	0	0	0	0
13.68559	0.03101637	-0.07771198	0	0	0	0
13.70216	0.03101637	-0.07771198	0	0	0	0
13.81689	0.02707233	-0.08072674	-0.03437528	-0.02627592	-0.2618072	-0.2001213
13.83347	0.02707233	-0.08072674	0	0	0.261792	0.2001096
13.85003	0.02707233	-0.08072674	0	0	0	0
13.86659	0.02707233	-0.08072674	0	0	0	0
13.88316	0.02707233	-0.08072674	0	0	0	0
13.8998	0.02704603	-0.0807074	-0.001580003	0.001161668	-0.04757505	0.03497868
13.9163	0.02704603	-0.0807074	0	0	0.04768322	-0.03505822
13.93286	0.02704603	-0.0807074	0	0	0	0
13.94943	0.02707233	-0.08072674	0.001587371	-0.001167085	0.04790971	-0.03522473
13.96599	0.02707233	-0.08072674	0	0	-0.04790971	0.03522473
13.98265	0.02707233	-0.08072674	0	0	0	0
13.99912	0.02707233	-0.08072674	0	0	0	0
14.01569	0.02707233	-0.08072674	0	0	0	0
14.0324	0.02707233	-0.08072674	0	0	0	0
14.04882	0.02707233	-0.08072674	0	0	0	0
14.06539	0.02707233	-0.08072674	0	0	0	0
14.08196	0.02707233	-0.08072674	0	0	0	0
14.0987	0.02704603	-0.0807074	-0.001571001	0.00115505	-0.04716855	0.03467981
14.11509	0.02704603	-0.0807074	0	0	0.04741155	-0.03485848
14.13166	0.02704603	-0.0807074	0	0	0	0
14.1488	0.02704603	-0.0807074	0	0	0	0
14.16479	0.02704603	-0.0807074	0	0	0	0
14.18155	0.02704603	-0.0807074	0	0	0	0
14.19815	0.02704603	-0.0807074	0	0	0	0
14.2187	0.02704603	-0.0807074	0	0	0	0
14.23522	0.02704603	-0.0807074	0	0	0	0
14.25179	0.02704603	-0.08074608	0	-0.002334486	0	-0.07054426
14.26836	0.02704603	-0.08074608	0	0	0	0.07044884
14.28493	0.02704603	-0.08074608	0	0	0	0
14.30149	0.02683566	-0.08090077	-0.01270032	-0.009338656	-0.3833404	-0.2818737
14.31806	0.02683566	-0.08090077	0	0	0.3833073	0.2818493
14.33497	0.02683566	-0.08090077	0	0	0	0
14.35119	0.02675677	-0.08099745	-0.004864036	-0.00596124	-0.146818	-0.1799365
14.36776	0.02675677	-0.08099745	0	0	0.1483425	0.1818048
14.38435	0.02675677	-0.08099745	0	0	0	0
14.40089	0.02673047	-0.08101679	-0.0015903	-0.00116969	-0.04800227	-0.03530639
14.41748	0.02673047	-0.08101679	0	0	0.04800089	0.03530537
14.43415	0.02673047	-0.08101679	0	0	0	0
14.45059	0.02673047	-0.08101679	0	0	0	0
14.4674	0.02673047	-0.08101679	0	0	0	0
14.48372	0.02673047	-0.08101679	0	0	0	0
14.50029	0.02670418	-0.08107481	-0.001587371	-0.003502155	-0.04826256	-0.1064798
14.51686	0.02670418	-0.08107481	0	0	0.04790695	0.1056953
14.53351	0.02670418	-0.08107481	0	0	0	0
14.55008	0.02665158	-0.08111349	-0.003174123	-0.002334083	-0.09552853	-0.07024664
14.56655	0.02665158	-0.08111349	0	0	0.09606342	0.07063998
14.5835	0.02665158	-0.08111349	0	0	0	0
14.59968	0.02665158	-0.08111349	0	0	0	0
14.61625	0.02665158	-0.08111349	0	0	0	0
14.63317	0.02665158	-0.08111349	0	0	0	0
14.64938	0.02662528	-0.08113282	-0.001622108	-0.001192625	-0.04895673	-0.03599454
14.66595	0.02662528	-0.08113282	0	0	0.04948372	0.03638199
14.68276	0.02662528	-0.08113282	0	0	0	0
14.69908	0.02662528	-0.08113282	0	0	0	0
14.71566	0.02662528	-0.08113282	0	0	0	0
14.7324	0.02662528	-0.08113282	0	0	0	0
14.74879	0.02662528	-0.08113282	0	0	0	0
14.76535	0.02662528	-0.08113282	0	0	0	0
14.78195	0.02662528	-0.08113282	0	0	0	0
14.79848	0.02662528	-0.08113282	0	0	0	0
14.81505	0.02662528	-0.08113282	0	0	0	0
14.83196	0.02662528	-0.08113282	0	0	0	0
14.84819	0.02662528	-0.08113282	0	0	0	0
14.86475	0.02662528	-0.08113282	0	0	0	0
14.88157	0.02662528	-0.08113282	0	0	0	0
14.89812	0.02662528	-0.08113282	0	0	0	0
14.91445	0.02662528	-0.08113282	0	0	0	0
14.93151	0.02662528	-0.08113282	0	0	0	0
14.9477	0.02659899	-0.08111349	-0.001623732	0.001193819	-0.04883146	0.03590243
14.96415	0.02659899	-0.08111349	0	0	0.04974019	-0.03657056
14.98072	0.02659899	-0.08111349	0	0	0	0
14.99774	0.02659899	-0.08111349	0	0	0	0
15.01385	0.02659899	-0.08111349	0	0	0	0
15.03042	0.02659899	-0.08111349	0	0	0	0
15.04698	0.02659899	-0.08111349	0	0	0	0
15.06392	0.02659899	-0.08111349	0	0	0	0
15.08012	0.02659899	-0.08111349	0	0	0	0
15.09677	0.02659899	-0.08107481	0	0.002323518	0	0.0707429
15.11325	0.02659899	-0.08107481	0	0	0	-0.07012796
15.12982	0.02659899	-0.08107481	0	0	0	0
15.14638	0.02659899	-0.08107481	0	0	0	0
15.16295	0.02659899	-0.08107481	0	0	0	0
15.17978	0.02659899	-0.08107481	0	0	0	0
15.19609	0.02657269	-0.08105547	-0.001612433	0.001185969	-0.04866613	0.03579466
15.21265	0.02657269	-0.08105547	0	0	0.04904873	-0.03607607
15.22967	0.02657269	-0.08105547	0	0	0	0
15.24578	0.02657269	-0.08105547	0	0	0	0
15.26235	0.02657269	-0.08105547	0	0	0	0
15.27892	0.02657269	-0.08105547	0	0	0	0
15.29548	0.02657269	-0.08105547	0	0	0	0
15.31207	0.02657269	-0.08105547	0	0	0	0
15.32862	0.02657269	-0.08105547	0	0	0	0
15.34519	0.02654639	-0.08103613	-0.001587371	0.001167535	-0.04792488	0.03524946
15.36188	0.02654639	-0.08103613	0	0	0.047727	-0.03510392
15.37893	0.02654639	-0.08103613	0	0	0	0
15.39558	0.02654639	-0.08103613	0	0	0	0
15.41215	0.02654639	-0.08103613	0	0	0	0
15.42948	0.02654639	-0.08103613	0	0	0	0
15.44528	0.02654639	-0.08103613	0	0	0	0
15.4619	0.02654639	-0.08103613	0	0	0	0
15.4785	0.02654639	-0.08103613	0	0	0	0
15.49516	0.02657269	-0.08105547	0.001578918	-0.001161318	0.04748101	-0.03492299
15.51155	0.02657269	-0.08105547	0	0	-0.04777697	0.03514067
15.52867	0.02657269	-0.08105547	0	0	0	0
15.54932	0.02657269	-0.08105547	0	0	0	0
15.56589	0.02657269	-0.08105547	0	0	0	0
15.5826	0.02657269	-0.08105547	0	0	0	0
15.59903	0.02657269	-0.08105547	0	0	0	0
15.61559	0.02657269	-0.08105547	0	0	0	0
15.6323	0.02657269	-0.08105547	0	0	0	0
15.64873	0.02657269	-0.08105547	0	0	0	0
15.66529	0.02657269	-0.08105547	0	0	0	0
15.68206	0.02654639	-0.08103613	-0.001568499	0.001153655	-0.04705839	0.03461215
15.69843	0.02654639	-0.08103613	0	0	0.04733741	-0.03481737
15.71512	0.02654639	-0.08103613	0	0	0	0
15.73156	0.02654639	-0.08103613	0	0	0	0
15.74813	0.02654639	-0.08103613	0	0	0	0
15.76471	0.02654639	-0.08103613	0	0	0	0
15.78126	0.02654639	-0.08103613	0	0	0	0
15.79805	0.02654639	-0.08103613	0	0	0	0
15.81473	0.02654639	-0.08103613	0	0	0	0
15.83096	0.02654639	-0.08103613	0	0	0	0
15.84753	0.02654639	-0.08103613	0	0	0	0
15.86409	0.02654639	-0.08103613	0	0	0	0
15.88066	0.02654639	-0.08103613	0	0	0	0
15.89722	0.02654639	-0.08103613	0	0	0	0
15.91443	0.02654639	-0.08103613	0	0	0	0
15.93036	0.02654639	-0.08103613	0	0	0	0
15.94693	0.02654639	-0.08103613	0	0	0	0
15.96378	0.02654639	-0.08103613	0	0	0	0
15.98006	0.02654639	-0.08103613	0	0	0	0
15.99663	0.02654639	-0.08103613	0	0	0	0
16.0132	0.02654639	-0.08103613	0	0	0	0
16.02976	0.02654639	-0.08103613	0	0	0	0
16.04636	0.02654639	-0.08103613	0	0	0	0
16.06289	0.02654639	-0.08103613	0	0	0	0
16.07946	0.02654639	-0.08103613	0	0	0	0
16.09603	0.02654639	-0.08103613	0	0	0	0
16.11287	0.02654639	-0.08103613	0	0	0	0
16.12916	0.02654639	-0.08103613	0	0	0	0
16.14573	0.02654639	-0.08103613	0	0	0	0
16.16229	0.02654639	-0.08103613	0	0	0	0
16.17885	0.02654639	-0.08103613	0	0	0	0
16.19542	0.02654639	-0.08103613	0	0	0	0
16.21199	0.02654639	-0.08103613	0	0	0	0
16.22856	0.02654639	-0.08103613	0	0	0	0
16.24512	0.02654639	-0.08103613	0	0	0	0
16.26169	0.02654639	-0.08103613	0	0	0	0
16.27826	0.02657269	-0.08101679	0.001587462	0.001167152	0.04791246	0.03522676
16.29482	0.02657269	-0.08101679	0	0	-0.04790971	-0.03522473
16.3115	0.02657269	-0.08101679	0	0	0	0
16.32809	0.02654639	-0.08103613	-0.001584725	-0.00116514	-0.04763516	-0.03502287
16.34452	0.02654639	-0.08103613	0	0	0.04798455	0.03527975
16.36109	0.02654639	-0.08103613	0	0	0	0
16.37766	0.02654639	-0.08103613	0	0	0	0
16.39422	0.02654639	-0.08103613	0	0	0	0
16.41101	0.02654639	-0.08103613	0	0	0	0
16.42736	0.02654639	-0.08103613	0	0	0	0
16.44392	0.02654639	-0.08103613	0	0	0	0
16.46049	0.02654639	-0.08103613	0	0	0	0
16.47705	0.02657269	-0.08101679	0.001587645	0.001167287	0.04792074	0.03523284
16.49362	0.02657269	-0.08101679	0	0	-0.04791798	-0.03523081
16.51019	0.02657269	-0.08101679	0	0	0	0
16.52676	0.02657269	-0.08101679	0	0	0	0
16.54332	0.02657269	-0.08101679	0	0	0	0
16.55989	0.02657269	-0.08101679	0	0	0	0
16.57645	0.02657269	-0.08101679	0	0	0	0
16.59347	0.02657269	-0.08101679	0	0	0	0
16.77667	0.02657269	-0.08101679	0	0	0	0
16.79508	0.02657269	-0.08101679	0	0	0	0
16.81165	0.02657269	-0.08101679	0	0	0	0
16.82869	0.02657269	-0.08101679	0	0	0	0
16.84479	0.02657269	-0.08101679	0	0	0	0
16.86151	0.02657269	-0.08101679	0	0	0	0
16.87792	0.02657269	-0.08101679	0	0	0	0
16.89449	0.02657269	-0.08101679	0	0	0	0
16.91106	0.02657269	-0.08101679	0	0	0	0
16.93678	0.02657269	-0.08101679	0	0	0	0
16.95335	0.02657269	-0.08101679	0	0	0	0
16.96992	0.02657269	-0.08101679	0	0	0	0
16.98648	0.02657269	-0.08101679	0	0	0	0
17.00341	0.02657269	-0.08101679	0	0	0	0
17.01962	0.02657269	-0.08101679	0	0	0	0
17.03619	0.02657269	-0.08101679	0	0	0	0
17.05779	0.02657269	-0.08101679	0	0	0	0
17.07449	0.02657269	-0.08101679	0	0	0	0
17.09093	0.02657269	-0.08101679	0	0	0	0
17.10752	0.02657269	-0.08101679	0	0	0	0
17.12406	0.02657269	-0.08101679	0	0	0	0
17.14063	0.02657269	-0.08101679	0	0	0	0
17.15719	0.02657269	-0.08101679	0	0	0	0
17.17376	0.02657269	-0.08101679	0	0	0	0
17.19033	0.02654639	-0.08099745	-0.001587462	0.001167602	-0.04791246	0.03524033
17.2069	0.02654639	-0.08099745	0	0	0.04790971	-0.0352383
17.22346	0.02654639	-0.08099745	0	0	0	0
17.24043	0.02654639	-0.08099745	0	0	0	0
17.2566	0.02654639	-0.08099745	0	0	0	0
17.27316	0.02654639	-0.08099745	0	0	0	0
17.28973	0.02654639	-0.08099745	0	0	0	0
17.3063	0.02654639	-0.08099745	0	0	0	0
17.32287	0.02654639	-0.08099745	0	0	0	0
17.34232	0.02654639	-0.08099745	0	0	0	0
17.35888	0.02654639	-0.08099745	0	0	0	0
17.37545	0.02654639	-0.08099745	0	0	0	0
17.39202	0.02654639	-0.08099745	0	0	0	0
17.40892	0.02654639	-0.08099745	0	0	0	0
17.42572	0.02654639	-0.08099745	0	0	0	0
17.44172	0.02657269	-0.08101679	0.001644063	-0.001209233	0.05012575	-0.03686823
17.45879	0.02657269	-0.08101679	0	0	-0.04971808	0.03656839
17.47488	0.02657269	-0.08101679	0	0	0	0
17.49142	0.02657269	-0.08101679	0	0	0	0
17.50828	0.02657269	-0.08101679	0	0	0	0
17.52455	0.02657269	-0.08101679	0	0	0	0
17.54111	0.02654639	-0.08099745	-0.001587645	0.001167737	-0.0483494	0.0355617
17.55768	0.02654639	-0.08099745	0	0	0.04791798	-0.03524439
17.57425	0.02654639	-0.08099745	0	0	0	0
17.59082	0.02654639	-0.08099745	0	0	0	0
17.60803	0.02654639	-0.08099745	0	0	0	0
17.62445	0.02654639	-0.08099745	0	0	0	0
17.64051	0.02654639	-0.08099745	0	0	0	0
17.65708	0.02654639	-0.08099745	0	0	0	0
17.67365	0.02654639	-0.08099745	0	0	0	0
17.6904	0.02612563	-0.08057205	-0.02511666	0.02539352	-0.7538131	0.7621224
17.70679	0.02612563	-0.08057205	0	0	0.7580222	-0.7663778
17.72335	0.02612563	-0.08057205	0	0	0	0
17.73992	0.01865573	-0.07462335	-0.4509881	0.3591474	-13.61242	10.84034
17.75679	0.01865573	-0.07462335	0	0	13.48817	-10.7414
17.77352	0.01865573	-0.07462335	0	0	0	0
17.78962	-0.02328526	-0.04098304	-2.605659	2.089964	-79.37459	63.66529
17.80619	-0.02328526	-0.04098304	0	0	79.76388	-63.97754
17.82275	-0.02328526	-0.04098304	0	0	0	0
17.83935	-0.0762728	0.02224282	-3.19282	3.809741	-96.27637	114.879
17.85589	-0.0762728	0.02224282	0	0	96.3595	-114.9782
17.87246	-0.0762728	0.02224282	0	0	0	0
17.88902	-0.0752262	0.06903806	0.06318778	2.825217	1.90723	85.27504
17.90593	-0.0752262	0.06903806	0	0	-1.887884	-84.41004
17.92216	-0.0752262	0.06903806	0	0	0	0
17.93872	-0.05898413	0.09361016	0.9805987	1.483516	29.90264	45.23875
17.95529	-0.05898413	0.09361016	0	0	-29.59623	-44.77519
17.97186	-0.05898413	0.09361016	0	0	0	0
17.98842	-0.05699085	0.09485902	0.1203423	0.07539863	3.632357	2.275797
18.00499	-0.05699085	0.09485902	0	0	-3.632148	-2.275666
18.0218	-0.05699085	0.09485902	0	0	0	0
18.03812	-0.05706954	0.09487738	-0.004822426	0.001125073	-0.1455579	0.03395868
18.05469	-0.05706954	0.09487738	0	0	0.1466385	-0.03421078
18.0713	-0.05706954	0.09487738	0	0	0	0
18.08791	-0.05701708	0.09487738	0.003158827	0	0.09508181	0
18.10439	-0.05701708	0.09487738	0	0	-0.09547648	0
18.12095	-0.05701708	0.09487738	0	0	0	0
18.13752	-0.05701708	0.09484065	0	-0.00221717	0	-0.06692204
18.1543	-0.05701708	0.09484065	0	0	0	0.0664895
18.17089	-0.05701708	0.09484065	0	0	0	0
18.18722	-0.05699085	0.09482229	0.001606724	-0.001125004	0.04880852	-0.03417498
18.20379	-0.05699085	0.09482229	0	0	-0.04884248	0.03419875
18.22045	-0.05699085	0.09482229	0	0	0	0
18.24093	-0.05688593	0.09474884	0.005122906	-0.003586125	0.1379496	-0.09656715
18.25749	-0.05688593	0.09474884	0	0	-0.1382763	0.09679583
18.27446	-0.05688593	0.09474884	0	0	0	0
18.29063	-0.05688593	0.09474884	0	0	0	0
18.30722	-0.05688593	0.09474884	0	0	0	0
18.32587	-0.05691216	0.09473047	-0.00140613	-0.0009845507	-0.03989486	-0.02793377
18.34245	-0.05691216	0.09473047	0	0	0.03991646	0.02794889
18.35901	-0.05691216	0.09473047	0	0	0	0
18.37557	-0.05691216	0.09469375	0	-0.00221717	0	-0.06692974
18.39214	-0.05691216	0.09469375	0	0	0	0.06692589
18.40871	-0.05691216	0.09469375	0	0	0	0
18.42527	-0.05693839	0.09471211	-0.001583232	0.001108105	-0.04778203	0.03344267
18.44184	-0.05693839	0.09471211	0	0	0.04778203	-0.03344267
18.45841	-0.05693839	0.09471211	0	0	0	0
18.47498	-0.05696462	0.09469375	-0.001583457	-0.001108105	-0.04778882	-0.03344267
18.49154	-0.05696462	0.09469375	0	0	0.04779157	0.0334446
18.50811	-0.05696462	0.09469375	0	0	0	0
18.52471	-0.05696462	0.09469375	0	0	0	0
18.54124	-0.05696462	0.09469375	0	0	0	0
18.55781	-0.05696462	0.09469375	0	0	0	0
18.57437	-0.05693839	0.09467538	0.001583639	-0.001108682	0.04779708	-0.03346203
18.59094	-0.05693839	0.09467538	0	0	-0.04779708	0.03346203
18.60769	-0.05693839	0.09467538	0	0	0	0
18.62407	-0.05693839	0.09463865	0	-0.002241626	0	-0.06765632
18.64064	-0.05693839	0.09463865	0	0	0	0.06802441
18.65721	-0.05693839	0.09463865	0	0	0	0
18.67377	-0.05688593	0.09460193	0.003167193	-0.00221717	0.09559158	-0.06691819
18.69034	-0.05688593	0.09460193	0	0	-0.09558608	0.06691433
18.70691	-0.05688593	0.09460193	0	0	0	0
18.72347	-0.05683346	0.09449174	0.003167783	-0.006653177	0.09562039	-0.200828
18.74004	-0.05683346	0.09449174	0	0	-0.09562039	0.200828
18.75661	-0.05683346	0.09449174	0	0	0	0
18.77317	-0.05683346	0.09445501	0	-0.00221762	0	-0.06693176
18.78974	-0.05683346	0.09445501	0	0	0	0.06693176
18.80631	-0.05683346	0.09445501	0	0	0	0
18.82287	-0.05683346	0.09438156	0	-0.00443479	0	-0.1338577
18.83944	-0.05683346	0.09438156	0	0	0	0.1338422
18.85601	-0.05683346	0.09438156	0	0	0	0
18.87286	-0.05672854	0.09416117	0.006227755	-0.01308127	0.1863769	-0.3914809
18.88919	-0.05672854	0.09416117	0	0	-0.1876732	0.3942036
18.90609	-0.05672854	0.09416117	0	0	0	0
18.92236	-0.05358025	0.09081735	0.1935749	-0.2055969	5.837062	-6.199574
18.93884	-0.05358025	0.09081735	0	0	-5.910833	6.277926
18.95541	-0.05358025	0.09081735	0	0	0	0
18.97199	-0.03895397	0.07348777	0.8819302	-1.044933	26.60292	-31.51981
18.98854	-0.03895397	0.07348777	0	0	-26.6167	31.53614
19.00552	-0.03895397	0.07348777	0	0	0	0
19.02168	-0.04822574	0.03202913	-0.5740527	-2.566871	-17.32694	-77.47724
19.03824	-0.04822574	0.03202913	0	0	17.54409	78.44824
19.05481	-0.04822574	0.03202913	0	0	0	0
19.07138	-0.05512829	0.008770433	-0.4166391	-1.403898	-12.57419	-42.36972
19.08806	-0.05512829	0.008770433	0	0	12.53091	42.22389
19.10451	-0.05512829	0.008770433	0	0	0	0
19.12107	-0.05381641	0.007869152	0.0792039	-0.05441395	2.399079	-1.648194
19.13764	-0.05381641	0.007869152	0	0	-2.390516	1.642311
19.15421	-0.05381641	0.007869152	0	0	0	0
19.17084	-0.05379017	0.007737695	0.001578455	-0.007907456	0.04755574	-0.2382361
19.18734	-0.05379017	0.007737695	0	0	-0.0476406	0.2386612
19.20391	-0.05379017	0.007737695	0	0	0	0
19.22047	-0.06336243	-0.0001402543	-0.5779163	-0.4756235	-17.44356	-14.356
19.23753	-0.06336243	-0.0001402543	0	0	17.19118	14.14829
19.2543	-0.06336243	-0.0001402543	0	0	0	0
19.27023	-0.05940371	-0.03361233	0.248594	-2.101929	7.602361	-64.28001
19.28675	-0.05940371	-0.03361233	0	0	-7.662701	64.79019
19.30363	-0.05940371	-0.03361233	0	0	0	0
19.31988	-0.0414762	-0.08362868	1.10306	-3.077453	33.29234	-92.88305
19.33644	-0.0414762	-0.08362868	0	0	-33.60965	93.76832
19.35301	-0.0414762	-0.08362868	0	0	0	0
19.36958	-0.0372722	-0.09639563	0.253783	-0.7707034	7.659627	-23.26121
19.38615	-0.0372722	-0.09639563	0	0	-7.659187	23.25987
19.40323	-0.0372722	-0.09639563	0	0	0	0
19.41928	-0.03724593	-0.09641509	0.001637431	-0.001212172	0.04942345	-0.03658765
19.43585	-0.03724593	-0.09641509	0	0	-0.05020089	0.03716318
19.45241	-0.03724593	-0.09641509	0	0	0	0
19.46898	-0.03721965	-0.09639563	0.001586338	0.001174349	0.04787853	0.03544396
19.48555	-0.03721965	-0.09639563	0	0	-0.04787577	-0.03544192
19.50222	-0.03721965	-0.09639563	0	0	0	0
19.51868	-0.03721965	-0.09635674	0	0.00236194	0	0.07128348
19.53525	-0.03721965	-0.09635674	0	0	0	-0.07150163
19.55182	-0.03721965	-0.09635674	0	0	0	0
19.56838	-0.03721965	-0.09631784	0	0.002348248	0	0.07087433
19.58495	-0.03721965	-0.09631784	0	0	0	-0.07087026
19.60197	-0.03721965	-0.09631784	0	0	0	0
19.61896	-0.03721965	-0.09627894	0	0.002289205	0	0.06731368
19.63465	-0.03721965	-0.09627894	0	0	0	-0.07004394
19.65122	-0.03721965	-0.09627894	0	0	0	0
19.66778	-0.0372722	-0.09616226	-0.00317231	0.007043032	-0.09574051	0.2125591
19.68435	-0.0372722	-0.09616226	0	0	0.09574603	-0.2125714
19.70091	-0.0372722	-0.09616226	0	0	0	0
19.71748	-0.03721965	-0.09608447	0.003172676	0.004696046	0.09576257	0.1417433
19.73405	-0.03721965	-0.09608447	0	0	-0.09575154	-0.1417269
19.75062	-0.03721965	-0.09608447	0	0	0	0
19.76718	-0.03708825	-0.09606502	0.007931226	0.001173764	0.2393649	0.03542426
19.78375	-0.03708825	-0.09606502	0	0	-0.2393373	-0.03542018
19.80032	-0.03708825	-0.09606502	0	0	0	0
19.81688	-0.03698313	-0.09606502	0.006346532	0	0.1915608	0
19.83345	-0.03698313	-0.09606502	0	0	-0.1915497	0
19.85002	-0.03698313	-0.09606502	0	0	0	0
19.86658	-0.03682545	-0.09598724	0.009520894	0.004696677	0.2874073	0.1417786
19.88315	-0.03682545	-0.09598724	0	0	-0.2873577	-0.1417542
19.89993	-0.03682545	-0.09598724	0	0	0	0
19.91628	-0.03661521	-0.09583167	0.01285891	0.00951499	0.3881496	0.2872126
20.06799	-0.03661521	-0.09583167	0	0	-0.0765154	-0.05661781
20.08507	-0.03661521	-0.09583167	0	0	0	0
20.10352	-0.03580049	-0.09639563	0.0441634	-0.03057069	1.243053	-0.860463
20.12009	-0.03580049	-0.09639563	0	0	-1.26113	0.8729763
20.13665	-0.03580049	-0.09639563	0	0	0	0
20.15322	-0.0140254	-0.1125495	1.314498	-0.9751637	39.67392	-29.43219
20.16979	-0.0140254	-0.1125495	0	0	-39.67392	29.43219
20.18635	-0.0140254	-0.1125495	0	0	0	0
20.20322	0.005973613	-0.1274673	1.185979	-0.8846545	35.47638	-26.46281
20.21949	0.005973613	-0.1274673	0	0	-35.79498	26.70046
20.23605	0.005973613	-0.1274673	0	0	0	0
20.25262	0.01336762	-0.1330058	0.4463548	-0.3343372	13.47257	-10.09148
20.26919	0.01336762	-0.1330058	0	0	-13.47101	10.09032
20.28575	0.01336762	-0.1330058	0	0	0	0
20.3025	0.01384122	-0.133361	0.02828349	-0.02121273	0.8490521	-0.6367924
20.31888	0.01384122	-0.133361	0	0	-0.8536958	0.6402752
20.33561	0.01384122	-0.133361	0	0	0	0
20.35202	0.01386753	-0.1333807	0.001603072	-0.001202971	0.04837802	-0.03630364
20.36859	0.01386753	-0.1333807	0	0	-0.04860745	0.0364758
20.3854	0.01386753	-0.1333807	0	0	0	0
20.40172	0.01384122	-0.133361	-0.001612818	0.001210284	-0.04868055	0.03653066
20.41829	0.01384122	-0.133361	0	0	0.04904763	-0.03680613
20.43485	0.01384122	-0.133361	0	0	0	0
20.45155	0.01384122	-0.133361	0	0	0	0
20.46799	0.01384122	-0.133361	0	0	0	0
20.48456	0.01384122	-0.133361	0	0	0	0
20.50112	0.01384122	-0.133361	0	0	0	0
20.51771	0.01384122	-0.133361	0	0	0	0
20.53426	0.01384122	-0.133361	0	0	0	0
20.55082	0.01384122	-0.133361	0	0	0	0
20.56739	0.01384122	-0.133361	0	0	0	0
20.58428	0.01384122	-0.133361	0	0	0	0
20.60052	0.01384122	-0.133361	0	0	0	0
20.61709	0.01384122	-0.133361	0	0	0	0
20.63366	0.01384122	-0.133361	0	0	0	0
20.65038	0.01384122	-0.133361	0	0	0	0
20.66679	0.01384122	-0.133361	0	0	0	0
20.68342	0.01384122	-0.133361	0	0	0	0
20.69992	0.01384122	-0.133361	0	0	0	0
20.71649	0.01384122	-0.133361	0	0	0	0
20.73306	0.01384122	-0.133361	0	0	0	0
20.74962	0.01384122	-0.133361	0	0	0	0
20.76619	0.01384122	-0.133361	0	0	0	0
20.78347	0.01384122	-0.133361	0	0	0	0
20.8006	0.01384122	-0.133361	0	0	0	0
20.81717	0.01384122	-0.133361	0	0	0	0
20.83397	0.01384122	-0.133361	0	0	0	0
20.85031	0.01384122	-0.133361	0	0	0	0
20.86687	0.01384122	-0.133361	0	0	0	0
20.88344	0.01384122	-0.133361	0	0	0	0
20.90005	0.01384122	-0.133361	0	0	0	0
20.91658	0.01384122	-0.133361	0	0	0	0
20.93315	0.01384122	-0.133361	0	0	0	0
20.95594	0.01384122	-0.133361	0	0	0	0
20.97266	0.01384122	-0.133361	0	0	0	0
20.98914	0.01384122	-0.133361	0	0	0	0
21.00565	0.01384122	-0.133361	0	0	0	0
21.02221	0.01384122	-0.133361	0	0	0	0
21.03877	0.01384122	-0.133361	0	0	0	0
21.05534	0.01384122	-0.133361	0	0	0	0
21.07191	0.01384122	-0.133361	0	0	0	0
21.08847	0.01384122	-0.133361	0	0	0	0
21.10504	0.01384122	-0.133361	0	0	0	0
21.12161	0.01384122	-0.133361	0	0	0	0
21.13839	0.01384122	-0.133361	0	0	0	0
21.15496	0.01384122	-0.133361	0	0	0	0
21.17153	0.01384122	-0.133361	0	0	0	0
21.18809	0.01384122	-0.133361	0	0	0	0
21.20466	0.01384122	-0.133361	0	0	0	0
21.22123	0.01384122	-0.133361	0	0	0	0
21.23779	0.01381491	-0.1333412	-0.001588488	0.001191127	-0.04794344	0.03595036
21.25436	0.01381491	-0.1333412	0	0	0.0479462	-0.03595243
21.27097	0.01381491	-0.1333412	0	0	0	0
21.28749	0.01381491	-0.1333412	0	0	0	0
21.30406	0.01381491	-0.1333412	0	0	0	0
21.32063	0.01381491	-0.1333412	0	0	0	0
21.33724	0.01381491	-0.1333412	0	0	0	0
21.35376	0.01381491	-0.1333412	0	0	0	0
21.37046	0.01381491	-0.1333412	0	0	0	0
21.38689	0.01381491	-0.1333412	0	0	0	0
21.40349	0.01381491	-0.1333412	0	0	0	0
21.42027	0.01381491	-0.1333412	0	0	0	0
21.43659	0.01384122	-0.133361	0.001611687	-0.001208523	0.04869128	-0.03651113
21.45316	0.01384122	-0.133361	0	0	-0.04899904	0.03674191
21.46973	0.01384122	-0.133361	0	0	0	0
21.48631	0.01384122	-0.133361	0	0	0	0
21.50286	0.01384122	-0.133361	0	0	0	0
21.51993	0.01384122	-0.133361	0	0	0	0
21.53599	0.01384122	-0.133361	0	0	0	0
21.55256	0.01384122	-0.133361	0	0	0	0
21.56913	0.01384122	-0.133361	0	0	0	0
21.5857	0.01381491	-0.1333412	-0.001588123	0.001190853	-0.04792964	0.03594002
21.60233	0.01381491	-0.1333412	0	0	0.04783601	-0.03586981
21.61883	0.01381491	-0.1333412	0	0	0	0
21.6354	0.01381491	-0.1333412	0	0	0	0
21.65196	0.01381491	-0.1333412	0	0	0	0
21.66853	0.01381491	-0.1333412	0	0	0	0
21.6851	0.01381491	-0.1333412	0	0	0	0
21.70166	0.01381491	-0.1333412	0	0	0	0
21.71823	0.01381491	-0.1333412	0	0	0	0
21.7348	0.01381491	-0.1333412	0	0	0	0
21.75137	0.01381491	-0.1333412	0	0	0	0
21.76825	0.01381491	-0.1333412	0	0	0	0
21.7845	0.01381491	-0.1333017	0	0.002429883	0	0.07334246
21.80106	0.01381491	-0.1333017	0	0	0	-0.07405874
21.81772	0.01381491	-0.1333017	0	0	0	0
21.8342	0.01381491	-0.1333017	0	0	0	0
21.85077	0.01381491	-0.1333017	0	0	0	0
21.86733	0.01381491	-0.1333017	0	0	0	0
21.8839	0.01381491	-0.1333017	0	0	0	0
21.90085	0.01381491	-0.1333017	0	0	0	0
21.91703	0.01381491	-0.1333017	0	0	0	0
21.93444	0.01381491	-0.1333017	0	0	0	0
21.95101	0.01381491	-0.1333017	0	0	0	0
21.96758	0.01381491	-0.1333017	0	0	0	0
21.98414	0.01381491	-0.1333017	0	0	0	0
22.00071	0.01381491	-0.1333017	0	0	0	0
22.01728	0.01381491	-0.1333017	0	0	0	0
22.03384	0.01381491	-0.1333017	0	0	0	0
22.05041	0.01381491	-0.1333017	0	0	0	0
22.06698	0.01381491	-0.1333017	0	0	0	0
22.08354	0.01381491	-0.1333017	0	0	0	0
22.10011	0.01381491	-0.1333017	0	0	0	0
22.11672	0.01381491	-0.1333017	0	0	0	0
22.13324	0.01381491	-0.1333017	0	0	0	0
22.14981	0.01381491	-0.1333017	0	0	0	0
22.16666	0.01381491	-0.1333017	0	0	0	0
22.18294	0.01381491	-0.1333017	0	0	0	0
22.19981	0.01381491	-0.1333017	0	0	0	0
22.21609	0.01381491	-0.1333017	0	0	0	0
22.23265	0.01381491	-0.1333017	0	0	0	0
22.24921	0.01381491	-0.1333017	0	0	0	0
22.26578	0.01381491	-0.1333017	0	0	0	0
22.28234	0.01381491	-0.1333017	0	0	0	0
22.29912	0.01381491	-0.1333017	0	0	0	0
22.31548	0.01381491	-0.1333017	0	0	0	0
22.33204	0.01381491	-0.1333017	0	0	0	0
22.34861	0.01381491	-0.1333017	0	0	0	0
22.36518	0.01381491	-0.1333017	0	0	0	0
22.38174	0.01384122	-0.1333215	0.001588488	-0.001192027	0.0479462	-0.03597959
22.39859	0.01384122	-0.1333215	0	0	-0.04754113	0.03567562
22.41566	0.01384122	-0.1333215	0	0	0	0
22.43144	0.01381491	-0.1333017	-0.001667203	0.001251095	-0.05075157	0.03808479
22.44807	0.01381491	-0.1333017	0	0	0.05144757	-0.03860708
22.46469	0.01381491	-0.1333017	0	0	0	0
22.48495	0.01381491	-0.1333017	0	0	0	0
22.50152	0.01381491	-0.1333017	0	0	0	0
22.51822	0.01381491	-0.1333017	0	0	0	0
22.53465	0.01381491	-0.1333017	0	0	0	0
22.55122	0.01381491	-0.1333017	0	0	0	0
22.56778	0.01381491	-0.1333017	0	0	0	0
22.58435	0.01381491	-0.1333017	0	0	0	0
22.60092	0.01381491	-0.1333017	0	0	0	0
22.61748	0.01381491	-0.1333017	0	0	0	0
22.63405	0.01381491	-0.1333017	0	0	0	0
22.65062	0.01381491	-0.1333017	0	0	0	0
22.66718	0.01381491	-0.1333017	0	0	0	0
22.68375	0.01381491	-0.1333017	0	0	0	0
22.70032	0.01381491	-0.1333017	0	0	0	0
22.71688	0.01381491	-0.1333017	0	0	0	0
22.73345	0.01381491	-0.1333017	0	0	0	0
22.75002	0.01381491	-0.1333017	0	0	0	0
22.76658	0.01381491	-0.1333017	0	0	0	0
22.78315	0.01381491	-0.1333017	0	0	0	0
22.79972	0.01381491	-0.1333017	0	0	0	0
22.81628	0.01381491	-0.1333017	0	0	0	0
22.83285	0.01381491	-0.1333017	0	0	0	0
22.84974	0.01381491	-0.1333017	0	0	0	0
22.86603	0.01381491	-0.1333017	0	0	0	0
22.88255	0.01381491	-0.1333017	0	0	0	0
22.89912	0.01381491	-0.1333017	0	0	0	0
22.91568	0.01381491	-0.1333017	0	0	0	0
22.93256	0.01381491	-0.1333017	0	0	0	0
22.94882	0.01381491	-0.1333017	0	0	0	0
22.96538	0.01381491	-0.1333017	0	0	0	0
22.98195	0.01381491	-0.1333017	0	0	0	0
22.99851	0.01381491	-0.1333017	0	0	0	0
23.01508	0.01381491	-0.1333017	0	0	0	0
23.03165	0.01381491	-0.1333017	0	0	0	0
23.04821	0.01381491	-0.1333017	0	0	0	0
23.06478	0.01381491	-0.1333017	0	0	0	0
23.08135	0.01381491	-0.1333017	0	0	0	0
23.09792	0.01381491	-0.1333017	0	0	0	0
23.11451	0.01381491	-0.1333017	0	0	0	0
23.13105	0.01381491	-0.1333017	0	0	0	0
23.14777	0.01381491	-0.1333017	0	0	0	0
23.16417	0.01381491	-0.1333017	0	0	0	0
23.18094	0.01381491	-0.1333017	0	0	0	0
23.19731	0.01381491	-0.1333017	0	0	0	0
23.21388	0.01381491	-0.1333017	0	0	0	0
23.23044	0.01381491	-0.1333017	0	0	0	0
23.24752	0.01381491	-0.1333017	0	0	0	0
23.26358	0.01381491	-0.1333017	0	0	0	0
23.28014	0.01381491	-0.1333017	0	0	0	0
23.29671	0.01381491	-0.1333017	0	0	0	0
23.31328	0.01384122	-0.1333215	0.001588306	-0.00119189	0.04793792	-0.03597337
23.32984	0.01384122	-0.1333215	0	0	-0.04793792	0.03597337
23.34682	0.01384122	-0.1333215	0	0	0	0
23.36297	0.01384122	-0.1333215	0	0	0	0
23.37954	0.01384122	-0.1333215	0	0	0	0
23.39611	0.01384122	-0.1333215	0	0	0	0
23.41267	0.01384122	-0.1333215	0	0	0	0
23.42924	0.01384122	-0.1333215	0	0	0	0
23.44589	0.01384122	-0.1333215	0	0	0	0
23.46238	0.01384122	-0.1333215	0	0	0	0
23.47931	0.01384122	-0.1333215	0	0	0	0
23.49578	0.01384122	-0.1333215	0	0	0	0
23.51208	0.01384122	-0.1333215	0	0	0	0
23.52864	0.01384122	-0.1333215	0	0	0	0
23.54592	0.01384122	-0.1333215	0	0	0	0
23.56178	0.01384122	-0.1333215	0	0	0	0
23.57834	0.01384122	-0.1333215	0	0	0	0
23.59525	0.01384122	-0.1333215	0	0	0	0
23.61148	0.01384122	-0.1333215	0	0	0	0
23.62805	0.01384122	-0.1333215	0	0	0	0
23.64461	0.01384122	-0.1333215	0	0	0	0
23.66121	0.01384122	-0.1333215	0	0	0	0
23.67775	0.01384122	-0.1333215	0	0	0	0
23.69454	0.01384122	-0.1333215	0	0	0	0
23.71088	0.01384122	-0.1333215	0	0	0	0
23.72746	0.01384122	-0.1333215	0	0	0	0
23.74401	0.01384122	-0.1333215	0	0	0	0
23.76061	0.01384122	-0.1333215	0	0	0	0
23.77715	0.01384122	-0.1333215	0	0	0	0
23.79371	0.01384122	-0.1333215	0	0	0	0
23.81405	0.01384122	-0.1333215	0	0	0	0
23.83063	0.01384122	-0.1333215	0	0	0	0
23.84759	0.01384122	-0.1333215	0	0	0	0
23.86376	0.01384122	-0.1333215	0	0	0	0
23.88055	0.01384122	-0.1333215	0	0	0	0
23.89689	0.01381491	-0.1333017	-0.001610558	0.001208589	-0.04861235	0.03647948
23.91346	0.01381491	-0.1333017	0	0	0.04894485	-0.03672899
23.93033	0.01381491	-0.1333017	0	0	0	0
23.94659	0.01381491	-0.1333017	0	0	0	0
23.96337	0.01381491	-0.1333017	0	0	0	0
23.97972	0.01381491	-0.1333017	0	0	0	0
23.99629	0.01381491	-0.1333017	0	0	0	0
24.01286	0.01381491	-0.1333017	0	0	0	0
24.03006	0.01381491	-0.1333017	0	0	0	0
24.04599	0.01384122	-0.1333215	0.001652424	-0.001240005	0.04987599	-0.03742774
24.06256	0.01384122	-0.1333215	0	0	-0.05085384	0.03816153
24.07912	0.01384122	-0.1333215	0	0	0	0
24.09569	0.01384122	-0.1333215	0	0	0	0
24.11228	0.01384122	-0.1333215	0	0	0	0
24.12899	0.01384122	-0.1333215	0	0	0	0
24.14539	0.01384122	-0.1333215	0	0	0	0
24.16195	0.01384122	-0.1333215	0	0	0	0
24.17859	0.01384122	-0.1333215	0	0	0	0
24.19533	0.01384122	-0.1333215	0	0	0	0
24.2119	0.01384122	-0.1333215	0	0	0	0
24.22846	0.01384122	-0.1333215	0	0	0	0
24.24503	0.01381491	-0.1333412	-0.001588306	-0.00119099	-0.04793792	-0.03594622
24.2616	0.01381491	-0.1333412	0	0	0.04793792	0.03594622
24.27817	0.01381491	-0.1333412	0	0	0	0
24.29473	0.01376229	-0.1334596	-0.003176245	-0.007146917	-0.09585376	-0.215682
24.3113	0.01376229	-0.1334596	0	0	0.09585927	0.2156944
24.32787	0.01376229	-0.1334596	0	0	0	0
24.34443	0.0135518	-0.1341307	-0.01270791	-0.04051722	-0.3835696	-1.222953
24.361	0.0135518	-0.1341307	0	0	0.3835696	1.222953
24.37766	0.0135518	-0.1341307	0	0	0	0
24.39413	0.01157843	-0.1466592	-0.1198165	-0.7606851	-3.61607	-22.95752
24.4107	0.01157843	-0.1466592	0	0	3.626717	23.02512
24.42727	0.01157843	-0.1466592	0	0	0	0
24.44383	-0.02018147	-0.214679	-1.917031	-4.105685	-57.85612	-123.9098
24.4604	-0.02018147	-0.214679	0	0	57.86278	123.9241
24.4773	-0.02018147	-0.214679	0	0	0	0
24.49353	-0.0597446	-0.2804345	-2.437997	-4.05205	-73.58313	-122.2982
24.5101	-0.0597446	-0.2804345	0	0	74.33197	123.5428
24.52667	-0.0597446	-0.2804345	0	0	0	0
24.54324	-0.07226866	-0.3027792	-0.7559534	-1.348727	-22.81472	-40.70467
24.5598	-0.07226866	-0.3027792	0	0	22.81472	40.70467
24.57659	-0.07226866	-0.3027792	0	0	0	0
24.59348	-0.07192833	-0.3030576	0.02015016	-0.0164808	0.598419	-0.4894464
24.6095	-0.07192833	-0.3030576	0	0	-0.6121502	0.5006772
24.62628	-0.07192833	-0.3030576	0	0	0	0
24.64264	-0.07190215	-0.303079	0.001600952	-0.001310284	0.04831683	-0.03954445
24.6592	-0.07190215	-0.303079	0	0	-0.04863317	0.03980336
24.67656	-0.07190215	-0.303079	0	0	0	0
24.69233	-0.07192833	-0.3030576	-0.001660203	0.001358778	-0.05011081	0.04101272
24.7089	-0.07192833	-0.3030576	0	0	0.05133735	-0.04201657
24.72547	-0.07192833	-0.3030576	0	0	0	0
24.74257	-0.07187597	-0.3031004	0.003062598	-0.002504811	0.09097356	-0.07440466
24.7586	-0.07187597	-0.3031004	0	0	-0.0924347	0.07559969
24.77533	-0.07187597	-0.3031004	0	0	0	0
24.79214	-0.07169271	-0.303336	0.01089983	-0.01401198	0.3249731	-0.4177603
24.8083	-0.07169271	-0.303336	0	0	-0.3305751	0.4249618
24.82487	-0.07169271	-0.303336	0	0	0	0
24.84143	-0.07166652	-0.3043858	0.001580673	-0.06338165	0.04771029	-1.913082
24.858	-0.07166652	-0.3043858	0	0	-0.04770755	1.912972
24.87457	-0.07166652	-0.3043858	0	0	0	0
24.89113	-0.06946699	-0.3147454	0.1327945	-0.6254498	4.008208	-18.87829
24.90811	-0.06946699	-0.3147454	0	0	-3.958977	18.64641
24.92427	-0.06946699	-0.3147454	0	0	0	0
24.94083	-0.0622091	-0.3270971	0.4380873	-0.7455496	13.38797	-22.78402
24.9574	-0.0622091	-0.3270971	0	0	-13.2215	22.50073
24.97397	-0.0622091	-0.3270971	0	0	0	0
24.99056	-0.05919392	-0.3295954	0.1817662	-0.1506051	5.482243	-4.542395
25.0071	-0.05919392	-0.3295954	0	0	-5.485714	4.545271
25.02407	-0.05919392	-0.3295954	0	0	0	0
25.04023	-0.0591677	-0.3296171	0.001621806	-0.001345553	0.04895183	-0.04061354
25.0568	-0.0591677	-0.3296171	0	0	-0.04953934	0.04110097
25.0736	-0.0591677	-0.3296171	0	0	0	0
25.08993	-0.0591677	-0.3296171	0	0	0	0
25.1065	-0.0591677	-0.3296171	0	0	0	0
25.12307	-0.0591677	-0.3296171	0	0	0	0
25.14318	-0.05911525	-0.3296606	0.002607686	-0.002161866	0.07109242	-0.05893819
25.15975	-0.05911525	-0.3296606	0	0	-0.07108503	0.05893206
25.17632	-0.05864321	-0.3300955	0.02849934	-0.02625518	0.8601118	-0.792383
25.19289	-0.05864321	-0.3300955	0	0	-0.8601613	0.7924286
25.2099	-0.05864321	-0.3300955	0	0	0	0
25.22602	-0.04638775	-0.3403687	0.7603111	-0.637334	22.94755	-19.23589
25.24258	-0.04638775	-0.3403687	0	0	-23.26225	19.49968
25.25915	-0.04638775	-0.3403687	0	0	0	0
25.27572	-0.04420802	-0.3424045	0.1315688	-0.1228809	3.970983	-3.708767
25.29228	-0.04420802	-0.3424045	0	0	-3.970754	3.708554
25.30885	-0.04420802	-0.3424045	0	0	0	0
25.32542	-0.04439187	-0.3425578	-0.01109724	-0.009255195	-0.3349154	-0.2793223
25.34198	-0.04439187	-0.3425578	0	0	0.3349347	0.2793384
25.35871	-0.04439187	-0.3425578	0	0	0	0
25.37512	-0.04452319	-0.3427112	-0.00800089	-0.009344132	-0.2414673	-0.2820064
25.39169	-0.04452319	-0.3427112	0	0	0.2425985	0.2833275
25.40825	-0.04452319	-0.3427112	0	0	0	0
25.42482	-0.04457572	-0.3427112	-0.003170736	0	-0.09569301	0
25.44143	-0.04457572	-0.3427112	0	0	0.09556649	0
25.45798	-0.04457572	-0.3427112	0	0	0	0
25.4751	-0.04457572	-0.3427112	0	0	0	0
25.49109	-0.04457572	-0.3427112	0	0	0	0
25.50765	-0.04457572	-0.3427112	0	0	0	0
25.52436	-0.04457572	-0.3427112	0	0	0	0
25.54079	-0.04457572	-0.3427112	0	0	0	0
25.55735	-0.04457572	-0.3427112	0	0	0	0
25.5741	-0.04457572	-0.3427112	0	0	0	0
25.59049	-0.04457572	-0.3427112	0	0	0	0
25.60705	-0.04457572	-0.3427112	0	0	0	0
25.62362	-0.04460198	-0.3427331	-0.001585438	-0.001322323	-0.04785413	-0.03991238
25.64019	-0.04460198	-0.3427331	0	0	0.04784862	0.03990779
25.65675	-0.04460198	-0.3427331	0	0	0	0
25.67332	-0.04460198	-0.3427331	0	0	0	0
25.68989	-0.04460198	-0.3427331	0	0	0	0
25.70693	-0.04460198	-0.3427331	0	0	0	0
25.72302	-0.04460198	-0.3427331	0	0	0	0
25.73959	-0.04460198	-0.3427331	0	0	0	0
25.75615	-0.04460198	-0.3427331	0	0	0	0
25.77272	-0.04460198	-0.3427331	0	0	0	0
25.78929	-0.04460198	-0.3427331	0	0	0	0
25.80611	-0.04460198	-0.3427331	0	0	0	0
25.82242	-0.04460198	-0.3427331	0	0	0	0
25.93029	-0.04460198	-0.3427331	0	0	0	0
25.94689	-0.04460198	-0.3427331	0	0	0	0
25.96532	-0.04457572	-0.3427112	0.001424827	0.001188367	0.04067185	0.03392205
25.9819	-0.04457572	-0.3427112	0	0	-0.0407051	-0.03394978
25.99871	-0.04457572	-0.3427112	0	0	0	0
26.01503	-0.04457572	-0.3427112	0	0	0	0
26.0316	-0.04457572	-0.3427112	0	0	0	0
26.04817	-0.04457572	-0.3427112	0	0	0	0
26.06473	-0.04457572	-0.3427112	0	0	0	0
26.08169	-0.04457572	-0.3427112	0	0	0	0
26.09786	-0.04457572	-0.3427112	0	0	0	0
26.11457	-0.04460198	-0.3426892	-0.001571685	0.001310852	-0.04779672	0.0398645
26.13104	-0.04460198	-0.3426892	0	0	0.0473681	-0.03950702
26.14757	-0.04460198	-0.3426892	0	0	0	0
26.16413	-0.04460198	-0.3426892	0	0	0	0
26.1807	-0.04460198	-0.3426892	0	0	0	0
26.19727	-0.04460198	-0.3426892	0	0	0	0
26.21383	-0.04460198	-0.3426892	0	0	0	0
26.2304	-0.04460198	-0.3426892	0	0	0	0
26.24739	-0.04460198	-0.3426892	0	0	0	0
26.26353	-0.04462824	-0.3426673	-0.001626835	0.00135685	-0.04910363	0.04095452
26.2801	-0.04462824	-0.3426673	0	0	0.04972483	-0.04147262
26.29667	-0.04462824	-0.3426673	0	0	0	0
26.31496	-0.04462824	-0.3426673	0	0	0	0
26.33154	-0.04462824	-0.3426673	0	0	0	0
26.34811	-0.04462824	-0.3426673	0	0	0	0
26.36466	-0.04460198	-0.3426892	0.001586169	-0.001322932	0.04788445	-0.03993767
26.38155	-0.04460198	-0.3426892	0	0	-0.04742568	0.03955504
26.3978	-0.04460198	-0.3426892	0	0	0	0
26.41436	-0.04460198	-0.3426892	0	0	0	0
26.43093	-0.04460198	-0.3426892	0	0	0	0
26.4475	-0.04460198	-0.3426892	0	0	0	0
26.46407	-0.04457572	-0.3426673	0.001585256	0.001322171	0.04784311	0.03990319
26.48063	-0.04457572	-0.3426673	0	0	-0.04784311	-0.03990319
26.49743	-0.04457572	-0.3426673	0	0	0	0
26.51377	-0.04465451	-0.3425578	-0.00482239	0.006705288	-0.1455316	0.2023544
26.53053	-0.04465451	-0.3425578	0	0	0.145691	-0.2025759
26.54698	-0.04465451	-0.3425578	0	0	0	0
26.56355	-0.04546864	-0.3417475	-0.04914113	0.04890952	-1.488222	1.481208
26.58012	-0.04546864	-0.3417475	0	0	1.482826	-1.475837
26.5968	-0.04546864	-0.3417475	0	0	0	0
26.61653	-0.04541612	-0.3416161	0.002661876	0.006657806	0.07310963	0.1828596
26.6331	-0.04541612	-0.3416161	0	0	-0.07332859	-0.1834073
26.64967	-0.04541612	-0.3416161	0	0	0	0
26.66633	-0.04533733	-0.3415067	0.004727783	0.006568688	0.1422671	0.1976631
26.6828	-0.04533733	-0.3415067	0	0	-0.1426848	-0.1982434
26.69975	-0.04533733	-0.3415067	0	0	0	0
26.71593	-0.04531107	-0.3414848	0.00162277	0.001353651	0.04898375	0.04086032
26.7325	-0.04531107	-0.3414848	0	0	-0.04954858	-0.04133148
26.74911	-0.04531107	-0.3414848	0	0	0	0
26.76614	-0.04552116	-0.3405218	-0.0123388	0.0565542	-0.3668528	1.68145
26.7822	-0.04552116	-0.3405218	0	0	0.3728578	-1.708973
26.79962	-0.04552116	-0.3405218	0	0	0	0
26.81564	-0.04586256	-0.3345156	-0.02130813	0.3748772	-0.637248	11.21121
26.8319	-0.04586256	-0.3345156	0	0	0.6601037	-11.61331
26.84847	-0.04586256	-0.3345156	0	0	0	0
26.86503	-0.04602012	-0.3343848	-0.009511505	0.007897956	-0.2870578	0.2383608
26.88218	-0.04602012	-0.3343848	0	0	0.2821209	-0.2342613
26.89817	-0.04602012	-0.3343848	0	0	0	0
26.91641	-0.0459676	-0.3344284	0.002879042	-0.002390148	0.08411519	-0.06983148
26.93298	-0.0459676	-0.3344284	0	0	-0.08270037	0.06865691
26.9497	-0.0459676	-0.3344284	0	0	0	0
26.96611	-0.04594133	-0.3344066	0.00160055	0.001327662	0.04831025	0.04007353
26.98268	-0.04594133	-0.3344066	0	0	-0.04853659	-0.04026128
26.99925	-0.04594133	-0.3344066	0	0	0	0
27.01581	-0.04533733	-0.3338617	0.03645773	0.03289237	1.100233	0.9926365
27.03238	-0.04533733	-0.3338617	0	0	-1.100296	-0.9926937
27.04895	-0.04533733	-0.3338617	0	0	0	0
27.06551	-0.04229056	-0.3306827	0.1839246	0.1919059	5.551174	5.792067
27.08208	-0.04229056	-0.3306827	0	0	-5.550854	-5.791733
27.09865	-0.04229056	-0.3306827	0	0	0	0
27.11522	-0.02872894	-0.3073457	0.8186756	1.408787	24.7091	42.51971
27.13178	-0.02872894	-0.3073457	0	0	-24.7091	-42.51971
27.14835	-0.02872894	-0.3073457	0	0	0	0
27.16492	-0.01531459	-0.2823181	0.8097847	1.510845	24.44076	45.60001
27.18148	-0.01531459	-0.2823181	0	0	-24.43935	-45.59739
27.19809	-0.01531459	-0.2823181	0	0	0	0
27.22029	-0.02565227	-0.2638817	-0.4655488	0.8302657	-11.99536	21.39268
27.23686	-0.02565227	-0.2638817	0	0	12.00716	-21.41373
27.25343	-0.03622099	-0.2553873	-0.6379296	0.5127234	-19.25275	15.47402
27.27	-0.03622099	-0.2553873	0	0	19.25165	-15.47313
27.28657	-0.03622099	-0.2553873	0	0	0	0
27.3056	-0.04402417	-0.2491552	-0.4100954	0.3275275	-11.52055	9.201024
27.32216	-0.04402417	-0.2491552	0	0	11.52055	-9.201024
27.33873	-0.04402417	-0.2491552	0	0	0	0
27.3553	-0.03953202	-0.2455168	0.2712401	0.2196911	8.186985	6.631055
27.37186	-0.03953202	-0.2455168	0	0	-8.186985	-6.631055
27.38843	-0.03953202	-0.2455168	0	0	0	0
27.40501	-0.02996471	-0.2368944	0.577019	0.5200296	17.40746	15.6882
27.42156	-0.02996471	-0.2368944	0	0	-17.41547	-15.69543
27.43813	-0.02996471	-0.2368944	0	0	0	0
27.45469	-0.03682545	-0.2315035	-0.4142101	0.3254693	-12.50233	9.823812
27.47126	-0.03682545	-0.2315035	0	0	12.50161	-9.823247
27.48783	-0.03682545	-0.2315035	0	0	0	0
27.50456	-0.03827078	-0.2239473	-0.08641459	0.4517753	-2.595596	13.56977
27.52096	-0.03827078	-0.2239473	0	0	2.608148	-13.63539
27.53753	-0.03827078	-0.2239473	0	0	0	0
27.55409	-0.03616843	-0.1976437	0.1269273	1.588059	3.831113	47.93323
27.57066	-0.03616843	-0.1976437	0	0	-3.830893	-47.93047
27.58723	-0.03616843	-0.1976437	0	0	0	0
27.60379	-0.03622099	-0.1877616	-0.003173491	0.5966172	-0.09578717	18.00801
27.62036	-0.03622099	-0.1877616	0	0	0.09578717	-18.00801
27.63693	-0.03622099	-0.1877616	0	0	0	0
27.65353	-0.03611587	-0.187802	0.006332901	-0.002434505	0.1909295	-0.07339747
27.67021	-0.03611587	-0.187802	0	0	-0.1903057	0.07315768
27.68663	-0.03611587	-0.187802	0	0	0	0
27.70334	-0.03280402	-0.1851366	0.1981926	0.1595066	5.981808	4.814197
27.71999	-0.03280402	-0.1851366	0	0	-5.94043	-4.780894
27.73634	-0.03280402	-0.1851366	0	0	0	0
27.7529	0.009289207	-0.1530377	2.542508	1.938837	77.27126	58.92463
27.76946	0.009289207	-0.1530377	0	0	-76.75957	-58.53442
27.78603	0.009289207	-0.1530377	0	0	0	0
27.8026	0.04491714	-0.1262667	2.150754	1.616086	64.91735	48.77917
27.81916	0.04491714	-0.1262667	0	0	-64.90987	-48.77356
27.83583	0.04491714	-0.1262667	0	0	0	0
27.8523	0.05722692	-0.117094	0.7477549	0.5571926	22.56859	16.81707
27.86887	0.05722692	-0.117094	0	0	-22.63766	-16.86854
27.88543	0.05722692	-0.117094	0	0	0	0
27.902	0.05743676	-0.1172509	0.01266563	-0.009467462	0.3822935	-0.2857615
27.91857	0.05743676	-0.1172509	0	0	-0.3822275	0.2857121
27.93513	0.05743676	-0.1172509	0	0	0	0
28.05576	0.0575679	-0.1173489	0.001087135	-0.0008127496	0.007923869	-0.005923939
28.07233	0.0575679	-0.1173489	0	0	-0.007923869	0.005923939
28.08987	0.0575679	-0.1173489	0	0	0	0
28.10643	0.0575679	-0.1173489	0	0	0	0
28.12328	0.0575679	-0.1173489	0	0	0	0
28.13957	0.05754167	-0.1173685	-0.001609693	-0.001203154	-0.04858064	-0.03631127
28.15614	0.05754167	-0.1173685	0	0	0.0489867	0.03661477
28.1727	0.05754167	-0.1173685	0	0	0	0
28.18927	0.05754167	-0.1173685	0	0	0	0
28.20606	0.05754167	-0.1173685	0	0	0	0
28.2224	0.05754167	-0.1173685	0	0	0	0
28.23897	0.05751544	-0.1174273	-0.001583414	-0.003551382	-0.04812272	-0.1079327
28.25554	0.05751544	-0.1174273	0	0	0.04778754	0.1071809
28.2721	0.05751544	-0.1174273	0	0	0	0
28.28906	0.05748921	-0.1174077	-0.001546727	0.001156366	-0.04613589	0.03449216
28.30524	0.05748921	-0.1174077	0	0	0.04668301	-0.0349012
28.3218	0.05748921	-0.1174077	0	0	0	0
28.33837	0.05746298	-0.1174273	-0.001583232	-0.001183658	-0.04778203	-0.03572286
28.35494	0.05746298	-0.1174273	0	0	0.04778203	0.03572286
28.37154	0.05746298	-0.1174273	0	0	0	0
28.38822	0.05654492	-0.118153	-0.05503409	-0.04349801	-1.653697	-1.307054
28.40464	0.05654492	-0.118153	0	0	1.662559	1.314058
28.4212	0.05654492	-0.118153	0	0	0	0
28.43777	0.05308167	-0.1206648	-0.2090424	-0.1516161	-6.309275	-4.576047
28.4544	0.05308167	-0.1206648	0	0	6.298036	4.567895
28.47091	0.05308167	-0.1206648	0	0	0	0
28.48784	0.05300294	-0.1206059	-0.004648129	0.003477794	-0.1389689	0.1039784
28.50404	0.05300294	-0.1206059	0	0	0.140297	-0.1049721
28.52061	0.05300294	-0.1206059	0	0	0	0
28.5384	0.05287173	-0.1205078	-0.007374099	0.005516652	-0.2145955	0.1605414
28.55497	0.05287173	-0.1205078	0	0	0.2145835	-0.1605325
28.57154	0.05287173	-0.1205078	0	0	0	0
28.58822	0.05276676	-0.12039	-0.006290947	0.00705965	-0.189186	0.2123029
28.60467	0.05276676	-0.12039	0	0	0.1898721	-0.2130729
28.62123	0.05276676	-0.12039	0	0	0	0
28.63821	0.05276676	-0.1203507	0	0.002313027	0	0.06896566
28.65437	0.05276676	-0.1203507	0	0	0	-0.06980327
28.67094	0.05276676	-0.1203507	0	0	0	0
28.6875	0.05274052	-0.1203311	-0.001584131	0.001185007	-0.04780918	0.03576358
28.70407	0.05274052	-0.1203311	0	0	0.04780918	-0.03576358
28.72064	0.05274052	-0.1203311	0	0	0	0
28.7372	0.05268803	-0.1202918	-0.003168768	0.00237011	-0.09564461	0.07153828
28.75377	0.05268803	-0.1202918	0	0	0.0956391	-0.07153416
28.77101	0.05268803	-0.1202918	0	0	0	0
28.7869	0.05271428	-0.1203114	0.001650842	-0.001234909	0.04982537	-0.03727178
28.80347	0.05271428	-0.1203114	0	0	-0.05084693	0.03803596
28.82004	0.05271428	-0.1203114	0	0	0	0
28.8366	0.05263555	-0.1202525	-0.004753264	0.003555839	-0.1434703	0.1073278
28.85317	0.05263555	-0.1202525	0	0	0.143462	-0.1073216
28.86974	0.05263555	-0.1202525	0	0	0	0
28.8863	0.051717	-0.1195656	-0.05545624	0.04147534	-1.673865	1.251872
28.90325	0.051717	-0.1195656	0	0	1.655094	-1.237834
28.91944	0.051717	-0.1195656	0	0	0	0
28.93601	0.03453889	-0.1068022	-1.036873	0.7703996	-31.64998	23.51603
28.95257	0.03453889	-0.1068022	0	0	31.29469	-23.25204
28.96914	0.03453889	-0.1068022	0	0	0	0
28.98573	0.01489364	-0.09225619	-1.184018	0.8766857	-35.70701	26.43864
29.00228	0.01489364	-0.09225619	0	0	35.73167	-26.45691
29.01884	0.01489364	-0.09225619	0	0	0	0
29.03764	0.002684204	-0.08326094	-0.6495442	0.4785491	-18.3683	13.53277
29.05433	0.002684204	-0.08326094	0	0	18.30511	-13.48622
29.07079	0.002684204	-0.08326094	0	0	0	0
29.08734	0.001947366	-0.08271908	-0.04451152	0.03273302	-1.348172	0.9914227
29.10391	0.001947366	-0.08271908	0	0	1.343902	-0.9882826
29.12079	0.001947366	-0.08271908	0	0	0	0
29.13704	0.001947366	-0.08271908	0	0	0	0
29.15361	0.001947366	-0.08271908	0	0	0	0
29.17076	0.001947366	-0.08271908	0	0	0	0
29.18674	0.001973682	-0.08273843	0.001646616	-0.001210709	0.04969211	-0.03653717
29.20374	0.001973682	-0.08273843	0	0	-0.04993644	0.03671681
29.21988	0.001973682	-0.08273843	0	0	0	0
29.23644	0.001973682	-0.08273843	0	0	0	0
29.25301	0.001973682	-0.08273843	0	0	0	0
29.26958	0.001973682	-0.08273843	0	0	0	0
29.28941	0.002078944	-0.08281583	0.005308068	-0.003902869	0.145842	-0.1072334
29.30598	0.002078944	-0.08281583	0	0	-0.1458191	0.1072165
29.32254	0.002078944	-0.08281583	0	0	0	0
29.33911	0.002184207	-0.08293194	0.00635294	-0.007007597	0.1917431	-0.2115019
29.35567	0.002184207	-0.08293194	0	0	-0.1917431	0.2115019
29.37245	0.002184207	-0.08293194	0	0	0	0
29.38881	0.002236838	-0.08297064	0.003216458	-0.002365424	0.09706731	-0.07138452
29.40538	0.002236838	-0.08297064	0	0	-0.0976745	0.07183105
29.42194	0.002236838	-0.08297064	0	0	0	0
29.43881	0.002236838	-0.08300935	0	-0.002295065	0	-0.06864875
29.45508	0.002236838	-0.08300935	0	0	0	0.0692692
29.47164	0.002236838	-0.08300935	0	0	0	0
29.48823	0.002263154	-0.0830674	0.001586956	-0.003500978	0.04787239	-0.1056111
29.50478	0.002263154	-0.0830674	0	0	-0.04789719	0.1056658
29.52134	0.002263154	-0.0830674	0	0	0	0
29.53884	0.002394732	-0.08316417	0.007518786	-0.005529632	0.2207049	-0.1623157
29.55448	0.002394732	-0.08316417	0	0	-0.2269305	0.1668942
29.57104	0.002394732	-0.08316417	0	0	0	0
29.58761	0.002578942	-0.08329964	0.01112146	-0.008179105	0.3356656	-0.2468601
29.60478	0.002578942	-0.08329964	0	0	-0.3296871	0.2424633
29.62074	0.002578942	-0.08329964	0	0	0	0
29.63731	0.002578942	-0.08333835	0	-0.002336823	0	-0.07184051
29.65388	0.002578942	-0.08333835	0	0	0	0.07052951
29.67044	0.002578942	-0.08333835	0	0	0	0
29.68737	0.002605257	-0.08335771	0.001554416	-0.001143357	0.04640483	-0.03413327
29.70358	0.002605257	-0.08335771	0	0	-0.04691507	0.03450857
29.72036	0.002605257	-0.08335771	0	0	0	0
29.73671	0.002763151	-0.08351255	0.009661734	-0.00947521	0.2916253	-0.2859953
29.75327	0.002763151	-0.08351255	0	0	-0.2935689	0.2879014
29.77011	0.002763151	-0.08351255	0	0	0	0
29.78641	0.002921044	-0.08370612	0.009686592	-0.01187507	0.2923756	-0.3584317
29.80368	0.002921044	-0.08370612	0	0	-0.2884892	0.3536673
29.81954	0.002921044	-0.08370612	0	0	0	0
29.83611	0.002921044	-0.08370612	0	0	0	0
29.85267	0.002921044	-0.08370612	0	0	0	0
29.86924	0.002921044	-0.08370612	0	0	0	0
29.88581	0.002973675	-0.08378354	0.003177553	-0.004674545	0.09590979	-0.1410943
29.90237	0.002973675	-0.08378354	0	0	-0.09590427	0.1410862
29.91947	0.002973675	-0.08378354	0	0	0	0
29.9355	0.005447315	-0.0857975	0.1542826	-0.125612	4.656793	-3.791414
29.95208	0.005447315	-0.0857975	0	0	-4.731982	3.852631
29.96883	0.005447315	-0.0857975	0	0	0	0
29.98521	0.001105263	-0.08926735	-0.2651393	-0.2118797	-8.002841	-6.395279
30.0023	0.001105263	-0.08926735	0	0	7.92076	6.329686
30.01834	0.001105263	-0.08926735	0	0	0	0
30.0349	-0.02302225	-0.1070756	-1.456507	-1.07503	-44.67758	-32.97598
30.05147	-0.02302225	-0.1070756	0	0	43.95747	32.44447
30.06804	-0.02302225	-0.1070756	0	0	0	0
30.08461	-0.03101637	-0.1130193	-0.482526	-0.3587629	-14.5635	-10.82811
30.10117	-0.03101637	-0.1130193	0	0	14.56266	10.82749
30.11812	-0.03101637	-0.1130193	0	0	0	0
30.13431	-0.03101637	-0.1130193	0	0	0	0
30.15088	-0.03101637	-0.1130193	0	0	0	0
30.16744	-0.03101637	-0.1130193	0	0	0	0
30.18401	-0.03106895	-0.1129018	-0.003174503	0.007090536	-0.09581771	0.2140175
30.20057	-0.03106895	-0.1129018	0	0	0.0958122	-0.2140051
30.21714	-0.03106895	-0.1129018	0	0	0	0
30.23384	-0.03109524	-0.1126865	-0.001573964	0.01289013	-0.04731169	0.3874637
30.25029	-0.03109524	-0.1126865	0	0	0.04748319	-0.3888683
30.26684	-0.03109524	-0.1126865	0	0	0	0
30.28341	-0.03109524	-0.1126865	0	0	0	0
30.30047	-0.03109524	-0.1126865	0	0	0	0
30.31655	-0.03109524	-0.1126865	0	0	0	0
30.33323	-0.03101637	-0.1125495	0.004726321	0.008209866	0.1442432	0.2505579
30.3498	-0.03101637	-0.1125495	0	0	-0.1421089	-0.2468506
30.36658	-0.03101637	-0.1125495	0	0	0	0
30.383	-0.03099008	-0.11253	0.00160095	0.001191837	0.04822239	0.03589946
30.3999	-0.03099008	-0.11253	0	0	-0.04805398	-0.03577409
30.41677	-0.03099008	-0.11253	0	0	0	0
30.43263	-0.03099008	-0.11253	0	0	0	0
30.4492	-0.03099008	-0.11253	0	0	0	0
30.46577	-0.03099008	-0.11253	0	0	0	0
30.48238	-0.03096378	-0.1125104	0.001582388	0.001178018	0.04768793	0.03550158
30.4989	-0.03096378	-0.1125104	0	0	-0.04775931	-0.03555471
30.51547	-0.03096378	-0.1125104	0	0	0	0
30.53203	-0.0309112	-0.1124713	0.003174503	0.002362912	0.09582324	0.07132515
30.5486	-0.0309112	-0.1124713	0	0	-0.0958122	-0.07131694
30.56517	-0.0309112	-0.1124713	0	0	0	0
30.58173	-0.03085862	-0.1124321	0.003174503	0.002362912	0.09581771	0.07132105
30.59899	-0.03085862	-0.1124321	0	0	-0.09385101	-0.06985714
30.61486	-0.03085862	-0.1124321	0	0	0	0
30.63423	-0.03046426	-0.1120994	0.02036259	0.01717688	0.5778232	0.4874233
30.6508	-0.03046426	-0.1120994	0	0	-0.5665991	-0.4779553
30.66737	-0.03046426	-0.1120994	0	0	0	0
30.68394	-0.03041167	-0.1120603	0.003173884	0.002362368	0.09578802	0.07129642
30.7005	-0.03041167	-0.1120603	0	0	-0.09578802	-0.07129642
30.71707	-0.03041167	-0.1120603	0	0	0	0
30.73364	-0.03038538	-0.1120799	0.001587125	-0.001181545	0.04790228	-0.03566115
30.75044	-0.03038538	-0.1120799	0	0	-0.04756548	0.03541042
30.76706	-0.03038538	-0.1120799	0	0	0	0
30.78353	-0.03038538	-0.1120799	0	0	0	0
30.79991	-0.03038538	-0.1120799	0	0	0	0
30.81647	-0.03038538	-0.1120799	0	0	0	0
30.83304	-0.0303328	-0.1120016	0.003174728	0.004725375	0.09582451	0.1426285
30.84961	-0.0303328	-0.1120016	0	0	-0.09581899	-0.1426203
30.86617	-0.0303328	-0.1120016	0	0	0	0
30.88274	-0.03030651	-0.1120212	0.001587125	-0.001181095	0.04790228	-0.03564758
30.89946	-0.03030651	-0.1120212	0	0	-0.04767995	0.03548213
30.91587	-0.03030651	-0.1120212	0	0	0	0
30.93244	-0.03030651	-0.1120212	0	0	0	0
30.94901	-0.03030651	-0.1120212	0	0	0	0
30.96557	-0.03030651	-0.1120212	0	0	0	0
30.98214	-0.03028022	-0.1120407	0.001587308	-0.001181231	0.04791056	-0.03565373
30.9987	-0.03028022	-0.1120407	0	0	-0.0479078	0.03565168
31.0155	-0.03028022	-0.1120407	0	0	0	0
31.03185	-0.03028022	-0.1120407	0	0	0	0
31.04841	-0.03028022	-0.1120407	0	0	0	0
31.06509	-0.03028022	-0.1120407	0	0	0	0
31.08351	-0.03028022	-0.1120407	0	0	0	0
31.10048	-0.03028022	-0.1120407	0	0	0	0
31.11665	-0.03028022	-0.1120407	0	0	0	0
31.13321	-0.03028022	-0.1120407	0	0	0	0
31.14978	-0.03028022	-0.1120407	0	0	0	0
31.16635	-0.03028022	-0.1120407	0	0	0	0
31.18291	-0.03028022	-0.1120407	0	0	0	0
31.19948	-0.03028022	-0.1120407	0	0	0	0
31.21621	-0.03028022	-0.1120407	0	0	0	0
31.23274	-0.03028022	-0.1120407	0	0	0	0
31.24918	-0.03028022	-0.1120407	0	0	0	0
31.26575	-0.03028022	-0.1120407	0	0	0	0
31.28231	-0.03030651	-0.1120212	-0.001587125	0.001181095	-0.04790228	0.03564758
31.29888	-0.03030651	-0.1120212	0	0	0.04790504	-0.03564963
31.31545	-0.03030651	-0.1120212	0	0	0	0
31.33201	-0.03028022	-0.1120407	0.001587125	-0.001181095	0.04789953	-0.03564553
31.34858	-0.03028022	-0.1120407	0	0	-0.04789953	0.03564553
31.36533	-0.03028022	-0.1120407	0	0	0	0
31.38171	-0.03028022	-0.1120407	0	0	0	0
31.39828	-0.03028022	-0.1120407	0	0	0	0
31.41485	-0.03028022	-0.1120407	0	0	0	0
31.43142	-0.03028022	-0.1120407	0	0	0	0
31.44798	-0.03028022	-0.1120407	0	0	0	0
31.46455	-0.03028022	-0.1120407	0	0	0	0
31.48112	-0.03028022	-0.1120407	0	0	0	0
31.49768	-0.03028022	-0.1120407	0	0	0	0
31.51425	-0.03028022	-0.1120407	0	0	0	0
31.53108	-0.03028022	-0.1120407	0	0	0	0
31.54758	-0.03028022	-0.1120407	0	0	0	0
31.56463	-0.03028022	-0.1120407	0	0	0	0
31.58055	-0.03028022	-0.1120407	0	0	0	0
31.5971	-0.03028022	-0.1120407	0	0	0	0
31.61365	-0.03028022	-0.1120407	0	0	0	0
31.63022	-0.03028022	-0.1120407	0	0	0	0
31.64679	-0.03028022	-0.1120407	0	0	0	0
31.66365	-0.03028022	-0.1120407	0	0	0	0
31.67992	-0.03028022	-0.1120407	0	0	0	0
31.69649	-0.03028022	-0.1120407	0	0	0	0
31.71318	-0.03028022	-0.1120407	0	0	0	0
31.72983	-0.03028022	-0.1120407	0	0	0	0
31.74619	-0.03028022	-0.1120407	0	0	0	0
31.76276	-0.03028022	-0.1120407	0	0	0	0
31.77932	-0.03028022	-0.1120407	0	0	0	0
31.79589	-0.03028022	-0.1120407	0	0	0	0
31.81258	-0.03028022	-0.1120407	0	0	0	0
31.82902	-0.03028022	-0.1120407	0	0	0	0
31.84559	-0.03028022	-0.1120407	0	0	0	0
31.91994	-0.03028022	-0.1120407	0	0	0	0
31.94307	-0.03028022	-0.1120407	0	0	0	0
31.96244	-0.03028022	-0.1120407	0	0	0	0
31.97905	-0.03028022	-0.1120407	0	0	0	0
31.99558	-0.03028022	-0.1120407	0	0	0	0
32.01235	-0.03028022	-0.1120407	0	0	0	0
32.03276	-0.03028022	-0.1120407	0	0	0	0
32.04934	-0.03028022	-0.1120407	0	0	0	0
32.0659	-0.03028022	-0.1120407	0	0	0	0
32.08247	-0.03028022	-0.1120407	0	0	0	0
32.09919	-0.03028022	-0.1120407	0	0	0	0
32.1156	-0.03028022	-0.1120407	0	0	0	0
32.13217	-0.03028022	-0.1120407	0	0	0	0
32.14874	-0.03028022	-0.1120407	0	0	0	0
32.1653	-0.03028022	-0.1120407	0	0	0	0
32.18187	-0.03028022	-0.1120407	0	0	0	0
32.19844	-0.03028022	-0.1120407	0	0	0	0
32.215	-0.03028022	-0.1120407	0	0	0	0
32.23157	-0.03028022	-0.1120407	0	0	0	0
32.24813	-0.03028022	-0.1120407	0	0	0	0
32.2647	-0.03028022	-0.1120407	0	0	0	0
32.28127	-0.03028022	-0.1120407	0	0	0	0
32.29787	-0.03028022	-0.1120407	0	0	0	0
32.3144	-0.03028022	-0.1120407	0	0	0	0
32.33097	-0.03028022	-0.1120407	0	0	0	0
32.34753	-0.03028022	-0.1120407	0	0	0	0
32.3641	-0.03028022	-0.1120407	0	0	0	0
32.38066	-0.03028022	-0.1120407	0	0	0	0
32.39733	-0.03028022	-0.1120407	0	0	0	0
32.4138	-0.03030651	-0.1120212	-0.00159613	0.001187797	-0.0481713	0.03584778
32.43063	-0.03030651	-0.1120212	0	0	0.047934	-0.03567119
32.44712	-0.03030651	-0.1120212	0	0	0	0
32.46367	-0.03030651	-0.1120212	0	0	0	0
32.48007	-0.03030651	-0.1120212	0	0	0	0
32.49664	-0.03030651	-0.1120212	0	0	0	0
32.51327	-0.03030651	-0.1120212	0	0	0	0
32.52977	-0.03030651	-0.1120212	0	0	0	0
32.54633	-0.03030651	-0.1120212	0	0	0	0
32.5629	-0.03030651	-0.1120212	0	0	0	0
32.57946	-0.03030651	-0.1120212	0	0	0	0
32.59604	-0.03030651	-0.1120212	0	0	0	0
32.6126	-0.03030651	-0.1120212	0	0	0	0
32.62922	-0.03030651	-0.1120212	0	0	0	0
32.64574	-0.03030651	-0.1120212	0	0	0	0
32.6623	-0.03030651	-0.1120603	0	-0.002362462	0	-0.0714226
32.6791	-0.03030651	-0.1120603	0	0	0	0.07080203
32.69585	-0.03030651	-0.1120603	0	0	0	0
32.71201	-0.03035909	-0.1121386	-0.003254939	-0.004845226	-0.09892903	-0.1472634
32.72857	-0.03035909	-0.1121386	0	0	0.09948266	0.1480875
32.74514	-0.03035909	-0.1121386	0	0	0	0
32.7617	-0.03054313	-0.1123538	-0.01111371	-0.01299834	-0.3354898	-0.3923809
32.77827	-0.03054313	-0.1123538	0	0	0.3354512	0.3923357
32.79552	-0.03054313	-0.1123538	0	0	0	0
32.8114	-0.04294726	-0.1214896	-0.7814631	-0.5755537	-23.58732	-17.37225
32.82796	-0.04294726	-0.1214896	0	0	24.08935	17.742
32.84476	-0.04294726	-0.1214896	0	0	0	0
32.86118	-0.0838294	-0.1517248	-2.489433	-1.841111	-74.95002	-55.43084
32.87787	-0.0838294	-0.1517248	0	0	75.18316	55.60326
32.89433	-0.0838294	-0.1517248	0	0	0	0
32.9108	-0.1244068	-0.1785878	-2.463438	-1.630839	-74.81181	-49.52674
32.92736	-0.1244068	-0.1785878	0	0	74.56132	49.3609
32.94393	-0.1244068	-0.1785878	0	0	0	0
32.96049	-0.1359458	-0.1851568	-0.6966521	-0.3966013	-21.02742	-11.97083
32.97706	-0.1359458	-0.1851568	0	0	21.02742	11.97083
32.99363	-0.1359458	-0.1851568	0	0	0	0
33.0102	-0.1361266	-0.1852981	-0.01091465	-0.008526652	-0.3294049	-0.2573349
33.02676	-0.1361266	-0.1852981	0	0	0.3294049	0.2573349
33.04333	-0.1361266	-0.1852981	0	0	0	0
33.05989	-0.1451045	-0.1893381	-0.5420349	-0.2439139	-16.36053	-7.362184
33.07647	-0.1451045	-0.1893381	0	0	16.35865	7.361337
33.09303	-0.1451045	-0.1893381	0	0	0	0
33.1096	-0.177787	-0.185399	-1.973174	0.2378215	-59.55738	7.178295
33.12616	-0.177787	-0.185399	0	0	59.55738	-7.178295
33.14273	-0.177787	-0.185399	0	0	0	0
33.1593	-0.1827791	-0.1814065	-0.3013903	0.2410468	-9.095978	7.274806
33.17587	-0.1827791	-0.1814065	0	0	9.095978	-7.274806
33.19287	-0.1827791	-0.1814065	0	0	0	0
33.209	-0.1827791	-0.1814065	0	0	0	0
33.22556	-0.1827791	-0.1814065	0	0	0	0
33.24217	-0.1827791	-0.1814065	0	0	0	0
33.25887	-0.1827537	-0.1814266	0.001523411	-0.001206591	0.04573966	-0.03622731
33.27527	-0.1827537	-0.1814266	0	0	-0.04602962	0.03645697
33.29187	-0.1827537	-0.1814266	0	0	0	0
33.3084	-0.1827791	-0.1814467	-0.001538525	-0.001218562	-0.04643279	-0.03677629
33.32497	-0.1827791	-0.1814467	0	0	0.04648095	0.03681443
33.34162	-0.1827791	-0.1814467	0	0	0	0
33.3581	-0.1828554	-0.1815475	-0.00463127	-0.006112047	-0.139772	-0.184462
33.37467	-0.1828554	-0.1815475	0	0	0.1401431	0.1849517
33.39124	-0.1828554	-0.1815475	0	0	0	0
33.4078	-0.1925072	-0.189419	-0.5827177	-0.4752355	-17.58645	-14.34264
33.42437	-0.1925072	-0.189419	0	0	17.58848	14.34429
33.44099	-0.1925072	-0.189419	0	0	0	0
33.4575	-0.2098386	-0.2034155	-1.049263	-0.8473657	-31.66682	-25.57355
33.47407	-0.2098386	-0.2034155	0	0	31.71428	25.61188
33.49064	-0.2098386	-0.2034155	0	0	0	0
33.50721	-0.2098134	-0.2034359	0.001519147	-0.001228629	0.04584795	-0.03708011
33.52377	-0.2098134	-0.2034359	0	0	-0.04585323	0.03708438
33.54079	-0.2098134	-0.2034359	0	0	0	0
33.5569	-0.2098134	-0.2034359	0	0	0	0
33.57347	-0.2098134	-0.2034359	0	0	0	0
33.59004	-0.2098134	-0.2034359	0	0	0	0
33.60661	-0.2097882	-0.2034562	0.001520047	-0.00122773	0.0458751	-0.03705296
33.62342	-0.2097882	-0.2034562	0	0	-0.04553955	0.03678195
33.94873	-0.2097882	-0.2034562	0	0	0	0
33.97707	-0.2095868	-0.203619	0.007108775	-0.005747084	0.02010143	-0.01625098
33.99364	-0.2095868	-0.203619	0	0	-0.1583147	0.1279894
34.0102	-0.209612	-0.2035987	-0.001520047	0.001228629	-0.04586982	0.03707584
34.02677	-0.209612	-0.2035987	0	0	0.0458751	-0.03708011
34.04334	-0.209612	-0.2035987	0	0	0	0
34.06022	-0.209612	-0.2035987	0	0	0	0
34.07648	-0.209612	-0.2035987	0	0	0	0
34.09319	-0.209612	-0.2035987	0	0	0	0
34.10961	-0.2095616	-0.2036394	0.003068354	-0.002480101	0.09261376	-0.07485822
34.12617	-0.2095616	-0.2036394	0	0	-0.09303151	0.07519589
34.14274	-0.2095616	-0.2036394	0	0	0	0
34.15958	-0.2094861	-0.2037004	0.004484003	-0.003624894	0.134215	-0.1085001
34.17603	-0.2094861	-0.2037004	0	0	-0.1347226	0.1089105
34.19266	-0.2094861	-0.2037004	0	0	0	0
34.20901	-0.2092847	-0.2038633	0.01232315	-0.009962077	0.373634	-0.302047
34.22557	-0.2092847	-0.2038633	0	0	-0.3744135	0.3026772
34.24215	-0.2092847	-0.2038633	0	0	0	0
34.25912	-0.2089573	-0.2041279	0.01928459	-0.01558901	0.5748622	-0.4646993
34.27528	-0.2089573	-0.2041279	0	0	-0.582077	0.4705314
34.29184	-0.2089573	-0.2041279	0	0	0	0
34.30841	-0.2087055	-0.2043315	0.01520487	-0.01229182	0.4589366	-0.3710107
34.32498	-0.2087055	-0.2043315	0	0	-0.4588838	0.370968
34.34162	-0.2087055	-0.2043315	0	0	0	0
34.35813	-0.2086551	-0.2043722	0.003052237	-0.002466345	0.0920743	-0.07440018
34.37468	-0.2086551	-0.2043722	0	0	-0.0923293	0.07460622
34.3913	-0.2086551	-0.2043722	0	0	0	0
34.40781	-0.2086047	-0.2044129	0.003049925	-0.002466108	0.09204692	-0.07442728
34.42479	-0.2086047	-0.2044129	0	0	-0.09106145	0.07363046
34.44123	-0.2086047	-0.2044129	0	0	0	0
34.45751	-0.208504	-0.2044944	0.006189397	-0.005002966	0.1891702	-0.1529087
34.47408	-0.208504	-0.2044944	0	0	-0.1884452	0.1523226
34.49065	-0.208504	-0.2044944	0	0	0	0
34.50721	-0.2082017	-0.2047387	0.01825016	-0.01475235	0.5508543	-0.445278
34.52378	-0.2082017	-0.2047387	0	0	-0.5508543	0.445278
34.54034	-0.2082017	-0.2047387	0	0	0	0
34.55691	-0.2078742	-0.2050035	0.01977325	-0.01598396	0.5968267	-0.4824523
34.57347	-0.2078742	-0.2050035	0	0	-0.5968267	0.4824523
34.59004	-0.2078742	-0.2050035	0	0	0	0
34.60661	-0.207849	-0.2050238	0.001521296	-0.001229812	0.0459181	-0.03712007
34.62318	-0.207849	-0.2050238	0	0	-0.04591281	0.0371158
34.64001	-0.207849	-0.2050238	0	0	0	0
34.65631	-0.2078238	-0.2050442	0.001546586	-0.001249342	0.04668143	-0.03770955
34.67323	-0.2078238	-0.2050442	0	0	-0.04655813	0.03760994
34.68944	-0.2078238	-0.2050442	0	0	0	0
34.70601	-0.2077986	-0.2050646	0.001519697	-0.001229246	0.04636092	-0.03750022
34.72259	-0.2077986	-0.2050646	0	0	-0.0458487	0.0370859
34.73949	-0.2077986	-0.2050646	0	0	0	0
34.75599	-0.2077986	-0.2050646	0	0	0	0
34.77228	-0.2077986	-0.2050646	0	0	0	0
34.78885	-0.2077986	-0.2050646	0	0	0	0
34.80569	-0.2077734	-0.2050849	0.001496142	-0.001209478	0.04478246	-0.03620202
34.82198	-0.2077734	-0.2050849	0	0	-0.04515367	0.03650211
34.83906	-0.2077734	-0.2050849	0	0	0	0
34.85512	-0.207723	-0.2051256	0.00313799	-0.002535815	0.09469382	-0.07652224
34.87169	-0.207723	-0.2051256	0	0	-0.09618863	0.07773021
34.88825	-0.207723	-0.2051256	0	0	0	0
34.90482	-0.2076978	-0.205146	0.001521296	-0.001229812	0.0459181	-0.03712007
34.92139	-0.2076978	-0.205146	0	0	-0.04591281	0.0371158
34.938	-0.2076978	-0.205146	0	0	0	0
34.95452	-0.2076978	-0.2051053	0	0.002464969	0	0.07440148
34.97109	-0.2076978	-0.2051053	0	0	0	-0.07448725
34.99688	-0.2076978	-0.2051053	0	0	0	0
35.01463	-0.2070678	-0.2043111	0.035509	0.04476188	0.8156024	1.028131
35.0312	-0.2070678	-0.2043111	0	0	-1.034849	-1.304509
35.04776	-0.2070678	-0.2043111	0	0	0	0
35.06433	-0.2043947	-0.2007309	0.1613834	0.2161536	4.87112	6.524281
35.0809	-0.2043947	-0.2007309	0	0	-4.87056	-6.52353
35.09747	-0.2043947	-0.2007309	0	0	0	0
35.11403	-0.1785007	-0.1741655	1.562965	1.603486	47.17038	48.39331
35.1306	-0.1785007	-0.1741655	0	0	-47.17038	-48.39331
35.14717	-0.1785007	-0.1741655	0	0	0	0
35.16373	-0.1159253	-0.126129	3.777933	2.900161	114.0314	87.53712
35.1803	-0.1159253	-0.126129	0	0	-114.0182	-87.52704
35.19687	-0.1159253	-0.126129	0	0	0	0
35.21343	-0.07886242	-0.09857485	2.237633	1.663553	67.53967	50.21191
35.23	-0.07886242	-0.09857485	0	0	-67.53967	-50.21191
35.24657	-0.07886242	-0.09857485	0	0	0	0
35.26313	-0.07224248	-0.09439313	0.3995802	0.2524096	12.05936	7.617736
35.2797	-0.07224248	-0.09439313	0	0	-12.05936	-7.617736
35.29627	-0.07224248	-0.09439313	0	0	0	0
35.31283	-0.07200687	-0.09456804	0.01422516	-0.01056046	0.4293655	-0.318752
35.3294	-0.07200687	-0.09456804	0	0	-0.429316	0.3187153
35.34597	-0.07200687	-0.09456804	0	0	0	0
35.36254	-0.07177125	-0.09474297	0.01422188	-0.01055848	0.4292172	-0.3186555
35.3791	-0.07177125	-0.09474297	0	0	-0.4292666	0.3186922
35.39567	-0.07177125	-0.09474297	0	0	0	0
35.41224	-0.07174507	-0.09476241	0.001580309	-0.001173314	0.04769382	-0.03541069
35.4288	-0.07174507	-0.09476241	0	0	-0.04769382	0.03541069
35.44537	-0.07174507	-0.09476241	0	0	0	0
35.46193	-0.07174507	-0.09476241	0	0	0	0
35.4785	-0.07174507	-0.09476241	0	0	0	0
35.49507	-0.07174507	-0.09476241	0	0	0	0
35.51163	-0.07177125	-0.09478185	-0.001580309	-0.001173314	-0.04769382	-0.03541069
35.52821	-0.07177125	-0.09478185	0	0	0.04768832	0.03540661
35.54494	-0.07177125	-0.09478185	0	0	0	0
35.56134	-0.07177125	-0.09478185	0	0	0	0
35.57791	-0.07177125	-0.09478185	0	0	0	0
35.59447	-0.07177125	-0.09478185	0	0	0	0
35.61103	-0.07171889	-0.09482072	0.003162074	-0.002347259	0.09545356	-0.07085674
35.62761	-0.07171889	-0.09482072	0	0	-0.09544257	0.07084858
35.64417	-0.07171889	-0.09482072	0	0	0	0
35.66423	-0.06894319	-0.09688191	0.1383595	-0.1027439	3.777744	-2.805301
35.68087	-0.06894319	-0.09688191	0	0	-3.770283	2.79976
35.69744	-0.06773831	-0.0977769	0.07269311	-0.0539966	2.188843	-1.625877
35.71394	-0.06773831	-0.0977769	0	0	-2.198185	1.632816
35.7305	-0.06773831	-0.0977769	0	0	0	0
35.74728	-0.06773831	-0.0977769	0	0	0	0
35.76387	-0.06773831	-0.0977769	0	0	0	0
35.78043	-0.06773831	-0.0977769	0	0	0	0
35.79753	-0.06771211	-0.09783527	0.001531829	-0.003413503	0.04550767	-0.1014086
35.81356	-0.06771211	-0.09783527	0	0	-0.046236	0.1030316
35.83012	-0.06771211	-0.09783527	0	0	0	0
35.84668	-0.06742396	-0.09812719	0.01739685	-0.01762401	0.5251588	-0.5320161
35.86325	-0.06742396	-0.09812719	0	0	-0.5250379	0.5318936
35.87982	-0.06742396	-0.09812719	0	0	0	0
35.89639	-0.06734537	-0.0982245	0.004743625	-0.005873766	0.1431629	-0.1772706
35.91296	-0.06734537	-0.0982245	0	0	-0.1431629	0.1772706
35.92952	-0.06734537	-0.0982245	0	0	0	0
35.94609	-0.06737157	-0.09820504	-0.001581208	0.001174663	-0.04772096	0.0354514
35.96265	-0.06737157	-0.09820504	0	0	0.04772646	-0.03545549
35.97922	-0.06737157	-0.09820504	0	0	0	0
35.99579	-0.06737157	-0.09820504	0	0	0	0
36.01236	-0.06737157	-0.09820504	0	0	0	0
36.02892	-0.06737157	-0.09820504	0	0	0	0
36.0455	-0.06737157	-0.09824397	0	-0.002348695	0	-0.07086743
36.06221	-0.06737157	-0.09824397	0	0	0	0.07055882
36.07862	-0.06737157	-0.09824397	0	0	0	0
36.09519	-0.06540657	-0.1000546	0.1186077	-0.1092923	3.596564	-3.31409
36.11176	-0.06540657	-0.1000546	0	0	-3.579588	3.298447
36.12832	-0.06540657	-0.1000546	0	0	0	0
36.14489	-0.04567873	-0.1149775	1.190775	-0.9007441	35.93765	-27.18451
36.16146	-0.04567873	-0.1149775	0	0	-35.93765	27.18451
36.17802	-0.04567873	-0.1149775	0	0	0	0
36.19459	-0.03112153	-0.1259322	0.8788769	-0.6613811	26.52761	-19.96282
36.21115	-0.03112153	-0.1259322	0	0	-26.52761	19.96282
36.22772	-0.03112153	-0.1259322	0	0	0	0
36.24429	-0.03133185	-0.1258142	-0.01269498	0.007125331	-0.3831351	0.2150429
36.26086	-0.03133185	-0.1258142	0	0	0.3831351	-0.2150429
36.27753	-0.03133185	-0.1258142	0	0	0	0
36.29406	-0.0316999	-0.1254994	-0.02227225	0.01904793	-0.6707879	0.5736788
36.31068	-0.0316999	-0.1254994	0	0	0.6719459	-0.5746692
36.32712	-0.0316999	-0.1254994	0	0	0	0
36.34369	-0.03193651	-0.1253224	-0.01427818	0.01068284	-0.4325097	0.3236009
36.36026	-0.03193651	-0.1253224	0	0	0.4308667	-0.3223716
36.37683	-0.03193651	-0.1253224	0	0	0	0
36.39339	-0.03238341	-0.124988	-0.02698142	0.02018799	-0.8143946	0.6093448
36.40996	-0.03238341	-0.124988	0	0	0.8143008	-0.6092747
36.42677	-0.03238341	-0.124988	0	0	0	0
36.44326	-0.03246228	-0.124929	-0.004783394	0.00357862	-0.1436684	0.1074833
36.45966	-0.03246228	-0.124929	0	0	0.1454178	-0.1087921
36.47623	-0.03246228	-0.124929	0	0	0	0
36.49281	-0.03256743	-0.1248503	-0.006343948	0.004746386	-0.1914167	0.1432132
36.50982	-0.03256743	-0.1248503	0	0	0.1888517	-0.1412942
36.5261	-0.03256743	-0.1248503	0	0	0	0
36.54275	-0.03259372	-0.1248306	-0.001578832	0.001180824	-0.04795288	0.03586444
36.55906	-0.03259372	-0.1248306	0	0	0.04789184	-0.03581879
36.57563	-0.03259372	-0.1248306	0	0	0	0
36.59223	-0.03256743	-0.124811	0.001583548	0.0011848	0.04774211	0.03572033
36.60887	-0.03256743	-0.124811	0	0	-0.04764348	-0.03564653
36.62543	-0.03256743	-0.124811	0	0	0	0
36.6419	-0.03256743	-0.124811	0	0	0	0
36.65847	-0.03256743	-0.124811	0	0	0	0
36.67503	-0.03256743	-0.124811	0	0	0	0
36.6916	-0.03254114	-0.1248306	0.00158697	-0.001187529	0.04790037	-0.03584382
36.70816	-0.03254114	-0.1248306	0	0	-0.04790037	0.03584382
36.72533	-0.03254114	-0.1248306	0	0	0	0
36.7413	-0.03254114	-0.12487	0	-0.002463102	0	-0.07433657
36.75787	-0.03254114	-0.12487	0	0	0	0.07570495
36.77473	-0.03254114	-0.12487	0	0	0	0
36.791	-0.03254114	-0.12487	0	0	0	0
36.80756	-0.03254114	-0.12487	0	0	0	0
36.82421	-0.03254114	-0.12487	0	0	0	0
36.8407	-0.03251485	-0.1248896	0.001594909	-0.001192848	0.04813445	-0.03600023
36.85727	-0.03251485	-0.1248896	0	0	-0.04825667	0.03609164
36.87384	-0.03251485	-0.1248896	0	0	0	0
36.89078	-0.03248857	-0.1249093	0.001551244	-0.001160795	0.04628378	-0.03463412
36.90697	-0.03248857	-0.1249093	0	0	-0.04681663	0.03503285
36.92384	-0.03248857	-0.1249093	0	0	0	0
36.94011	-0.03248857	-0.1249093	0	0	0	0
36.95667	-0.03248857	-0.1249093	0	0	0	0
36.97357	-0.03248857	-0.1249093	0	0	0	0
36.99408	-0.03251485	-0.1248896	-0.001281738	0.0009591239	-0.03426823	0.02564289
37.01075	-0.03251485	-0.1248896	0	0	0.03447568	-0.02579813
37.02721	-0.03251485	-0.1248896	0	0	0	0
37.04379	-0.03251485	-0.1248896	0	0	0	0
37.06035	-0.03251485	-0.1248896	0	0	0	0
37.07723	-0.03248857	-0.1249093	0.001557203	-0.001165254	0.04655697	-0.03483855
37.0938	-0.03248857	-0.1249093	0	0	-0.04655166	0.03483458
37.11037	-0.03248857	-0.1249093	0	0	0	0
37.12693	-0.03248857	-0.1249093	0	0	0	0
37.14533	-0.03248857	-0.1249093	0	0	0	0
37.1619	-0.03248857	-0.1249093	0	0	0	0
37.17846	-0.03248857	-0.1249093	0	0	0	0
37.19503	-0.03248857	-0.1249093	0	0	0	0
37.21234	-0.03248857	-0.1249093	0	0	0	0
37.22823	-0.03248857	-0.1249093	0	0	0	0
37.24473	-0.03248857	-0.1249093	0	0	0	0
37.2613	-0.03248857	-0.1249093	0	0	0	0
37.27787	-0.03243599	-0.1249093	0.00317366	0	0.09578124	0
37.29443	-0.03243599	-0.1249093	0	0	-0.09579226	0
37.31116	-0.03243599	-0.1249093	0	0	0	0
37.32756	-0.0324097	-0.124929	0.001602844	-0.001199407	0.04837392	-0.03619817
37.34413	-0.0324097	-0.124929	0	0	-0.04862021	0.03638247
37.36092	-0.0324097	-0.124929	0	0	0	0
37.37726	-0.03235712	-0.1249683	0.003218119	-0.002407319	0.0971342	-0.07266139
37.39395	-0.03235712	-0.1249683	0	0	-0.09743711	0.07288799
37.41053	-0.03235712	-0.1249683	0	0	0	0
37.42696	-0.03235712	-0.1249683	0	0	0	0
37.44353	-0.03235712	-0.1249683	0	0	0	0
37.4601	-0.03235712	-0.1249683	0	0	0	0
37.47667	-0.03235712	-0.1249683	0	0	0	0
37.49323	-0.03235712	-0.1249683	0	0	0	0
37.5098	-0.03235712	-0.1249683	0	0	0	0
37.52637	-0.03233084	-0.124988	0.00158697	-0.001187529	0.04789486	-0.03583969
37.54293	-0.03233084	-0.124988	0	0	-0.04790037	0.03584382
37.5595	-0.03233084	-0.124988	0	0	0	0
37.57607	-0.03230455	-0.1250076	0.00158683	-0.001187255	0.04789062	-0.03583144
37.59264	-0.03230455	-0.1250076	0	0	-0.04788511	0.03582731
37.60923	-0.03230455	-0.1250076	0	0	0	0
37.62577	-0.03222568	-0.1250667	0.004767949	-0.003567516	0.1439301	-0.1076926
37.64233	-0.03222568	-0.1250667	0	0	-0.144013	0.1077547
37.65915	-0.03222568	-0.1250667	0	0	0	0
37.67547	-0.03212053	-0.1251453	0.006445039	-0.004821392	0.1945117	-0.1455099
37.69204	-0.03212053	-0.1251453	0	0	-0.1960009	0.146624
37.70917	-0.03212053	-0.1251453	0	0	0	0
37.72517	-0.03206795	-0.1251847	0.003287194	-0.002459456	0.09921912	-0.07423508
37.74173	-0.03206795	-0.1251847	0	0	-0.100951	0.07553089
37.7583	-0.03206795	-0.1251847	0	0	0	0
37.77486	-0.03206795	-0.1251847	0	0	0	0
37.79144	-0.03206795	-0.1251847	0	0	0	0
37.808	-0.03206795	-0.1251847	0	0	0	0
37.82479	-0.03206795	-0.1251847	0	0	0	0
37.84114	-0.03206795	-0.1251847	0	0	0	0
37.8577	-0.03206795	-0.1251847	0	0	0	0
37.87427	-0.03162104	-0.1255191	0.02697588	-0.02018514	0.8141337	-0.6091887
37.89084	-0.03162104	-0.1255191	0	0	-0.8141337	0.6091887
37.908	-0.03162104	-0.1255191	0	0	0	0
37.92397	-0.02233839	-0.1324336	0.5814552	-0.4331186	17.55037	-13.07305
38.03921	-0.02233839	-0.1324336	0	0	-4.431603	3.301045
38.05578	-0.02233839	-0.1324336	0	0	0	0
38.07235	0.003552617	-0.1518044	1.562784	-1.169222	47.16492	-35.28718
38.08891	0.003552617	-0.1518044	0	0	-47.16492	35.28718
38.10559	0.003552617	-0.1518044	0	0	0	0
38.12205	0.003552617	-0.1517646	0	0.002417292	0	0.07295402
38.13861	0.003552617	-0.1517646	0	0	0	-0.07320687
38.15577	0.003552617	-0.1517646	0	0	0	0
38.17175	0.003499986	-0.1517248	-0.00329281	0.002489186	-0.09937721	0.07512377
38.18879	0.003499986	-0.1517248	0	0	0.09972163	-0.07538414
38.20488	0.003499986	-0.1517248	0	0	0	0
38.22165	0.003499986	-0.1517248	0	0	0	0
38.23801	0.003499986	-0.1517248	0	0	0	0
38.25458	0.003499986	-0.1517248	0	0	0	0
38.27115	0.003499986	-0.1517248	0	0	0	0
38.28772	0.003499986	-0.1517248	0	0	0	0
38.30428	0.003499986	-0.1517248	0	0	0	0
38.32085	0.00347367	-0.1517049	-0.001588404	0.001199847	-0.04793812	0.03621147
38.33742	0.00347367	-0.1517049	0	0	0.04793812	-0.03621147
38.35398	0.00347367	-0.1517049	0	0	0	0
38.37055	0.003499986	-0.1517248	0.00158877	-0.001200124	0.04795468	-0.03622398
38.38711	0.003499986	-0.1517248	0	0	-0.0479602	0.03622815
38.40368	0.003499986	-0.1517248	0	0	0	0
38.42043	0.003499986	-0.1517248	0	0	0	0
38.43681	0.003499986	-0.1517248	0	0	0	0
38.45338	0.003499986	-0.1517248	0	0	0	0
38.4705	0.003552617	-0.1517646	0.003073485	-0.002323388	0.0912246	-0.06896084
38.48651	0.003552617	-0.1517646	0	0	-0.09276865	0.07012805
38.50308	0.003552617	-0.1517646	0	0	0	0
38.51965	0.003552617	-0.1517646	0	0	0	0
38.53622	0.003552617	-0.1517646	0	0	0	0
38.55362	0.003552617	-0.1517646	0	0	0	0
38.57054	0.003552617	-0.1517646	0	0	0	0
38.58711	0.003552617	-0.1517646	0	0	0	0
38.60368	0.003552617	-0.1517646	0	0	0	0
38.62024	0.003526301	-0.1517845	-0.001588404	-0.001199847	-0.04793812	-0.03621147
38.63681	0.003526301	-0.1517845	0	0	0.04793812	0.03621147
38.65338	0.003526301	-0.1517845	0	0	0	0
38.66994	0.003552617	-0.1518044	0.001588404	-0.001200747	0.04793812	-0.03623861
38.68651	0.003552617	-0.1518044	0	0	-0.04793812	0.03623861
38.70311	0.003552617	-0.1518044	0	0	0	0
38.71964	0.003605247	-0.1518441	0.003184139	-0.002406135	0.09610858	-0.07262564
38.73621	0.003605247	-0.1518441	0	0	-0.09619719	0.0726926
38.75301	0.003605247	-0.1518441	0	0	0	0
38.76934	0.003605247	-0.1518441	0	0	0	0
38.78591	0.003605247	-0.1518441	0	0	0	0
38.80248	0.003605247	-0.1518441	0	0	0	0
38.81905	0.003605247	-0.1518441	0	0	0	0
38.83566	0.003605247	-0.1518441	0	0	0	0
38.85251	0.003605247	-0.1518441	0	0	0	0
38.86875	0.003605247	-0.1518441	0	0	0	0
38.88531	0.003605247	-0.1518441	0	0	0	0
38.90272	0.003605247	-0.1518441	0	0	0	0
38.91845	0.003631563	-0.151864	0.001673566	-0.001265125	0.05051412	-0.03818594
38.93502	0.003631563	-0.151864	0	0	-0.05182083	0.03917373
38.95161	0.003631563	-0.151864	0	0	0	0
38.9689	0.003657878	-0.1518839	0.001522498	-0.001150063	0.04493511	-0.03394306
38.98471	0.003657878	-0.1518839	0	0	-0.04599673	0.03474499
39.00188	0.003657878	-0.1518839	0	0	0	0
39.01785	0.003684194	-0.1519038	0.001648372	-0.00124608	0.04974797	-0.03760676
39.03442	0.003684194	-0.1519038	0	0	-0.05066372	0.03829902
39.05153	0.003684194	-0.1519038	0	0	0	0
39.06755	0.003710509	-0.1519237	0.001642485	-0.001241629	0.04957601	-0.03747677
39.08412	0.003710509	-0.1519237	0	0	-0.05039415	0.03809524
39.10069	0.003710509	-0.1519237	0	0	0	0
39.11725	0.003736825	-0.1519436	0.001588404	-0.001199847	0.04794364	-0.03621564
39.13382	0.003736825	-0.1519436	0	0	-0.0479326	0.0362073
39.15039	0.003736825	-0.1519436	0	0	0	0
39.16696	0.00376314	-0.1519635	0.001588404	-0.001200747	0.04793812	-0.03623861
39.18352	0.00376314	-0.1519635	0	0	-0.04794364	0.03624278
39.20033	0.00376314	-0.1519635	0	0	0	0
39.21665	0.00376314	-0.1519635	0	0	0	0
39.23322	0.00376314	-0.1519635	0	0	0	0
39.24979	0.00376314	-0.1519635	0	0	0	0
39.26635	0.003789456	-0.1519834	0.00158877	-0.001201023	0.04795468	-0.03625114
39.28292	0.003789456	-0.1519834	0	0	-0.04794916	0.03624696
39.29953	0.003789456	-0.1519834	0	0	0	0
39.31606	0.003789456	-0.1519834	0	0	0	0
39.33262	0.003789456	-0.1519834	0	0	0	0
39.34941	0.003789456	-0.1519834	0	0	0	0
39.36579	0.003842086	-0.1520231	0.003213045	-0.002427988	0.09688065	-0.0732094
39.4643	0.003842086	-0.1520231	0	0	-0.02796509	0.02113226
39.48507	0.003842086	-0.1520231	0	0	0	0
39.50706	0.003999979	-0.1521425	0.007182121	-0.005428623	0.1679827	-0.1269701
39.52362	0.003999979	-0.1521425	0	0	-0.1863002	0.1408155
39.54019	0.003999979	-0.1521425	0	0	0	0
39.55676	0.003999979	-0.1521425	0	0	0	0
39.57411	0.003999979	-0.1521425	0	0	0	0
39.59326	0.003999979	-0.1521425	0	0	0	0
39.61034	0.003999979	-0.1521425	0	0	0	0
39.6264	0.003999979	-0.1521425	0	0	0	0
39.64296	0.003999979	-0.1521425	0	0	0	0
39.65965	0.003999979	-0.1521425	0	0	0	0
39.67621	0.003999979	-0.1521425	0	0	0	0
39.69592	0.003999979	-0.1521425	0	0	0	0
39.71248	0.003999979	-0.1521425	0	0	0	0
39.72907	0.003999979	-0.1521425	0	0	0	0
39.74562	0.003999979	-0.1521425	0	0	0	0
39.76218	0.003999979	-0.1521425	0	0	0	0
39.77875	0.003999979	-0.1521425	0	0	0	0
39.79541	0.003999979	-0.1521425	0	0	0	0
39.81209	0.003999979	-0.1521425	0	0	0	0
39.82866	0.003999979	-0.1521425	0	0	0	0
39.84522	0.003999979	-0.1521425	0	0	0	0
39.86179	0.003999979	-0.1521425	0	0	0	0
39.87836	0.003999979	-0.1521425	0	0	0	0
39.89492	0.003999979	-0.1521425	0	0	0	0
39.91177	0.003999979	-0.1521425	0	0	0	0
39.92805	0.003999979	-0.1521425	0	0	0	0
39.94462	0.003999979	-0.1521425	0	0	0	0
39.96119	0.003999979	-0.1521425	0	0	0	0
39.97775	0.003999979	-0.1521425	0	0	0	0
39.99432	0.003999979	-0.1521425	0	0	0	0
40.01088	0.003999979	-0.1521425	0	0	0	0
40.02745	0.003999979	-0.1521425	0	0	0	0
40.24491	0.004184186	-0.1523215	0.000847098	-0.0008231871	0.003619705	-0.003517532
40.26147	0.004184186	-0.1523215	0	0	-0.003619705	0.003517532
40.27804	0.004210501	-0.1523414	0.00158877	-0.001201023	0.04795468	-0.03625114
40.29471	0.004210501	-0.1523414	0	0	-0.04780606	0.03613878
40.3117	0.004210501	-0.1523414	0	0	0	0
40.32774	0.004236817	-0.1523613	0.001640922	-0.001240448	0.04967755	-0.03755353
40.34431	0.004236817	-0.1523613	0	0	-0.05032853	0.03804563
40.36088	0.004236817	-0.1523613	0	0	0	0
40.37751	0.004289447	-0.152401	0.003164393	-0.00239213	0.09530407	-0.07204533
40.39401	0.004289447	-0.152401	0	0	-0.09550156	0.07219464
40.41058	0.004289447	-0.152401	0	0	0	0
40.42755	0.004315763	-0.1524209	0.001550559	-0.001172138	0.04623703	-0.03495269
40.44371	0.004315763	-0.1524209	0	0	-0.04680135	0.03537928
40.46027	0.004315763	-0.1524209	0	0	0	0
40.47684	0.004315763	-0.1524607	0	-0.002402047	0	-0.07250227
40.49341	0.004315763	-0.1524607	0	0	0	0.07249392
40.50998	0.004315763	-0.1524607	0	0	0	0
40.52654	0.004315763	-0.1524607	0	0	0	0
40.54311	0.004315763	-0.1524607	0	0	0	0
40.55967	0.004315763	-0.1524607	0	0	0	0
40.57624	0.004315763	-0.1524607	0	0	0	0
40.59281	0.004315763	-0.1524607	0	0	0	0
40.60962	0.004315763	-0.1524607	0	0	0	0
40.62641	0.004289447	-0.1524408	-0.001567827	0.001185192	-0.04666701	0.03527772
40.64307	0.004289447	-0.1524408	0	0	0.04687459	-0.03543464
40.65954	0.004289447	-0.1524408	0	0	0	0
40.67611	0.004289447	-0.1524408	0	0	0	0
40.69267	0.004289447	-0.1524408	0	0	0	0
40.70924	0.004289447	-0.1524408	0	0	0	0
40.72667	0.004315763	-0.1524607	0.001509505	-0.001141104	0.04439669	-0.03356148
40.74237	0.004315763	-0.1524607	0	0	-0.0455622	0.03444254
40.75894	0.004315763	-0.1524607	0	0	0	0
40.77579	0.004289447	-0.1524408	-0.001561439	0.001180363	-0.04672091	0.03531846
40.79207	0.004289447	-0.1524408	0	0	0.04712975	-0.03562753
40.80864	0.004289447	-0.1524408	0	0	0	0
40.8252	0.004289447	-0.1524408	0	0	0	0
40.84184	0.004289447	-0.1524408	0	0	0	0
40.85855	0.004289447	-0.1524408	0	0	0	0
40.87493	0.004289447	-0.1524408	0	0	0	0
40.89161	0.004289447	-0.1524408	0	0	0	0
40.9082	0.004289447	-0.1524408	0	0	0	0
40.9246	0.004289447	-0.1524408	0	0	0	0
40.94139	0.004289447	-0.1524408	0	0	0	0
40.95773	0.004289447	-0.1524408	0	0	0	0
40.97451	0.004289447	-0.1524408	0	0	0	0
40.99087	0.004289447	-0.1524408	0	0	0	0
41.00743	0.004289447	-0.1524408	0	0	0	0
41.024	0.004289447	-0.1524408	0	0	0	0
41.04057	0.004289447	-0.1524408	0	0	0	0
41.05714	0.004289447	-0.1524408	0	0	0	0
41.0737	0.004289447	-0.1524408	0	0	0	0
41.09027	0.004289447	-0.1524408	0	0	0	0
41.10684	0.004289447	-0.1524408	0	0	0	0
41.1234	0.004289447	-0.1524408	0	0	0	0
41.13997	0.004289447	-0.1524408	0	0	0	0
41.15676	0.004289447	-0.1524408	0	0	0	0
41.17333	0.004289447	-0.1524408	0	0	0	0
41.18989	0.004289447	-0.1524408	0	0	0	0
41.20623	0.004289447	-0.1524408	0	0	0	0
41.22301	0.004289447	-0.1524408	0	0	0	0
41.23937	0.004289447	-0.1524408	0	0	0	0
41.25609	0.004289447	-0.1524408	0	0	0	0
41.27251	0.004289447	-0.1524408	0	0	0	0
41.28907	0.004289447	-0.1524408	0	0	0	0
41.30587	0.004289447	-0.1524408	0	0	0	0
41.33688	0.004289447	-0.1524408	0	0	0	0
41.35345	0.004289447	-0.1524408	0	0	0	0
41.37002	0.004263132	-0.1524607	-0.001588404	-0.001200747	-0.0479326	-0.03623444
41.38659	0.004263132	-0.1524607	0	0	0.04793812	0.03623861
41.40329	0.004263132	-0.1524607	0	0	0	0
41.41972	0.003947348	-0.1527392	-0.01922008	-0.01695187	-0.5800632	-0.5116085
41.43629	0.003947348	-0.1527392	0	0	0.5824773	0.5137378
41.45285	0.003947348	-0.1527392	0	0	0	0
41.46967	0.002052629	-0.1541721	-0.1127046	-0.08523283	-3.376553	-2.553517
41.48629	0.002052629	-0.1541721	0	0	3.371159	2.549438
41.50256	0.002052629	-0.1541721	0	0	0	0
41.51912	0.0001315789	-0.155586	-0.1159548	-0.08533937	-3.531233	-2.598885
41.53569	0.0001315789	-0.155586	0	0	3.499523	2.575547
41.55226	0.0001315789	-0.155586	0	0	0	0
41.56882	-0.0003157895	-0.1558449	-0.02700321	-0.0156313	-0.8149585	-0.4717534
41.58539	-0.0003157895	-0.1558449	0	0	0.8149585	0.4717534
41.60196	-0.0003157895	-0.1558449	0	0	0	0
