Time	Pos X	Pos Y	Vel X	Vel Y	Acc X	Acc Y
0.01656634	-0.07326338	-0.09573445	0.001125127	0.001470222	-1.728331E-05	-2.258438E-05
0.04012776	-0.07279221	-0.09608447	0.0199974	-0.01485568	-0.000289932	0.0002508124
0.05669726	-0.07279221	-0.09608447	0	0	-0.4983042	0.3701803
0.07326241	-0.07216395	-0.09655124	0.03792677	-0.02817792	1.144626	-0.8504064
0.08983151	-0.07216395	-0.09655124	0	0	-1.144639	0.8504165
0.1063986	-0.07216395	-0.09655124	0	0	0	0
0.1229626	-0.05525947	-0.1090488	1.020557	-0.7545006	30.8036	-22.77318
0.1537883	-0.05525947	-0.1090488	0	0	-21.53543	15.9212
0.1707392	-0.05525947	-0.1090488	0	0	0	0
0.1869249	-0.03556395	-0.1236313	1.216841	-0.900945	36.72193	-27.1888
0.2034905	-0.03556395	-0.1236313	0	0	-37.15392	27.50865
0.2202455	-0.03556395	-0.1236313	0	0	0	0
0.236622	-0.03559023	-0.1234937	-0.001604859	0.008402138	-0.04843908	0.2535997
0.2531887	-0.03559023	-0.1234937	0	0	0.04871594	-0.2550492
0.2697578	-0.03559023	-0.1234937	0	0	0	0
0.2863218	-0.03574792	-0.1233364	-0.009520371	0.009493158	-0.2873373	0.286516
0.3028917	-0.03574792	-0.1233364	0	0	0.2873305	-0.2865092
0.3194592	-0.03574792	-0.1233364	0	0	0	0
0.3416023	-0.03629984	-0.1229237	-0.02492486	0.01863834	-0.6438771	0.4814791
0.3581726	-0.03629984	-0.1229237	0	0	0.643831	-0.4814446
0.3747366	-0.03632612	-0.1229041	-0.001586691	0.001186589	-0.04788669	0.03581151
0.3913061	-0.03632612	-0.1229041	0	0	0.04788785	-0.03581238
0.4078712	-0.03632612	-0.1229041	0	0	0	0
0.4244379	-0.03640496	-0.1228058	-0.004759061	0.005930612	-0.14364	0.1790002
0.4412463	-0.03640496	-0.1228058	0	0	0.1425933	-0.1776959
0.457573	-0.03640496	-0.1228058	0	0	0	0
0.4741401	-0.03661521	-0.1226486	-0.01269066	0.00948865	-0.3858062	0.2884626
0.4907061	-0.03661521	-0.1226486	0	0	0.3830207	-0.2863799
0.5072732	-0.03661521	-0.1226486	0	0	0	0
0.5238403	-0.03679917	-0.1224718	-0.01110407	0.01067413	-0.3351238	0.3221483
0.5404062	-0.03679917	-0.1224718	0	0	0.3351358	-0.3221599
0.5569726	-0.03679917	-0.1224718	0	0	0	0
0.5736593	-0.03679917	-0.1224718	0	0	0	0
0.5903168	-0.03679917	-0.1224718	0	0	0	0
0.607107	-0.03679917	-0.1224718	0	0	0	0
0.6232367	-0.03677289	-0.1224521	0.001629409	0.001218072	0.04949618	0.03700111
0.639807	-0.03677289	-0.1224521	0	0	-0.04982901	-0.03724992
0.6563729	-0.03677289	-0.1224521	0	0	0	0
0.6729811	-0.03677289	-0.1224521	0	0	0	0
0.6895064	-0.03677289	-0.1224521	0	0	0	0
0.7065867	-0.03677289	-0.1224521	0	0	0	0
0.7226371	-0.03674661	-0.1224718	0.00163723	-0.001224093	0.04941731	-0.03694739
0.7392034	-0.03674661	-0.1224718	0	0	-0.05019602	0.0375296
0.7557713	-0.03674661	-0.1224718	0	0	0	0
0.7726262	-0.03674661	-0.1224718	0	0	0	0
0.789142	-0.03674661	-0.1224718	0	0	0	0
0.8058445	-0.03674661	-0.1224718	0	0	0	0
0.8220367	-0.03674661	-0.1224718	0	0	0	0
0.8386062	-0.03674661	-0.1224718	0	0	0	0
0.8552318	-0.03674661	-0.1224718	0	0	0	0
0.8717365	-0.03674661	-0.1224718	0	0	0	0
0.8883064	-0.03674661	-0.1224718	0	0	0	0
0.9048728	-0.03674661	-0.1224718	0	0	0	0
0.9217932	-0.03674661	-0.1224718	0	0	0	0
0.9380039	-0.03674661	-0.1224718	0	0	0	0
0.9545766	-0.03674661	-0.1224718	0	0	0	0
0.9711382	-0.03674661	-0.1224718	0	0	0	0
0.9877061	-0.03674661	-0.1224718	0	0	0	0
1.004269	-0.03674661	-0.1224718	0	0	0	0
1.020992	-0.03674661	-0.1224718	0	0	0	0
1.037631	-0.03674661	-0.1224718	0	0	0	0
1.054341	-0.03674661	-0.1224718	0	0	0	0
1.07054	-0.03674661	-0.1224718	0	0	0	0
1.087107	-0.03674661	-0.1224718	0	0	0	0
1.103673	-0.03674661	-0.1224718	0	0	0	0
1.120237	-0.03674661	-0.1224718	0	0	0	0
1.136806	-0.03674661	-0.1224718	0	0	0	0
1.153373	-0.03674661	-0.1224718	0	0	0	0
1.16994	-0.03674661	-0.1224718	0	0	0	0
1.186505	-0.03674661	-0.1224718	0	0	0	0
1.203073	-0.03674661	-0.1224718	0	0	0	0
1.219886	-0.03669405	-0.1225111	0.003126285	-0.002337235	0.09365467	-0.07001697
1.236207	-0.03669405	-0.1225111	0	0	-0.09435419	0.07053994
1.252773	-0.03669405	-0.1225111	0	0	0	0
1.26934	-0.03669405	-0.1225111	0	0	0	0
1.285906	-0.03669405	-0.1225111	0	0	0	0
1.302473	-0.03669405	-0.1225111	0	0	0	0
1.319396	-0.03669405	-0.1225111	0	0	0	0
1.335708	-0.03669405	-0.1225111	0	0	0	0
1.352174	-0.03669405	-0.1225111	0	0	0	0
1.368737	-0.03669405	-0.1225111	0	0	0	0
1.385306	-0.03669405	-0.1225111	0	0	0	0
1.401873	-0.03669405	-0.1225111	0	0	0	0
1.418437	-0.03669405	-0.1225111	0	0	0	0
1.435006	-0.03669405	-0.1225111	0	0	0	0
1.452055	-0.03669405	-0.1225111	0	0	0	0
1.468179	-0.03669405	-0.1225111	0	0	0	0
1.484707	-0.03669405	-0.1225111	0	0	0	0
1.501376	-0.03669405	-0.1225111	0	0	0	0
1.517837	-0.03669405	-0.1225111	0	0	0	0
1.534406	-0.03669405	-0.1225111	0	0	0	0
1.551208	-0.03669405	-0.1225111	0	0	0	0
1.567537	-0.03669405	-0.1225111	0	0	0	0
1.584106	-0.03669405	-0.1225111	0	0	0	0
1.600855	-0.03669405	-0.1225111	0	0	0	0
1.617236	-0.03669405	-0.1225111	0	0	0	0
1.633806	-0.03669405	-0.1225111	0	0	0	0
1.650373	-0.03669405	-0.1225111	0	0	0	0
1.669609	-0.03669405	-0.1225111	0	0	0	0
1.686376	-0.03669405	-0.1225111	0	0	0	0
1.702955	-0.03669405	-0.1225111	0	0	0	0
1.71931	-0.03669405	-0.1225111	0	0	0	0
1.735879	-0.03669405	-0.1225111	0	0	0	0
1.752475	-0.03669405	-0.1225111	0	0	0	0
1.769013	-0.03666777	-0.1225307	0.001589227	-0.001188035	0.04796487	-0.03585638
1.785672	-0.03666777	-0.1225307	0	0	-0.04787204	0.03578698
1.802147	-0.03666777	-0.1225307	0	0	0	0
1.81871	-0.03666777	-0.1225307	0	0	0	0
1.835279	-0.03666777	-0.1225307	0	0	0	0
1.851912	-0.03666777	-0.1225307	0	0	0	0
1.868453	-0.03666777	-0.1225307	0	0	0	0
1.884979	-0.03666777	-0.1225307	0	0	0	0
1.901547	-0.03666777	-0.1225307	0	0	0	0
1.91811	-0.03666777	-0.1225307	0	0	0	0
1.93468	-0.03666777	-0.1225307	0	0	0	0
1.951352	-0.03666777	-0.1225307	0	0	0	0
1.96781	-0.03666777	-0.1225307	0	0	0	0
1.984379	-0.03666777	-0.1225307	0	0	0	0
2.000946	-0.03666777	-0.1225307	0	0	0	0
2.01751	-0.03666777	-0.1225307	0	0	0	0
2.03408	-0.03666777	-0.1225307	0	0	0	0
2.050666	-0.03666777	-0.1225307	0	0	0	0
2.067213	-0.03669405	-0.1225504	-0.001588323	-0.001187809	-0.04793844	-0.03585021
2.084091	-0.03669405	-0.1225504	0	0	0.04751888	0.03553644
2.100347	-0.03669405	-0.1225504	0	0	0	0
2.117006	-0.03666777	-0.1225307	0.001577594	0.001179785	0.04792916	0.03584327
2.13348	-0.03666777	-0.1225307	0	0	-0.04761325	-0.03560702
2.150046	-0.03666777	-0.1225307	0	0	0	0
2.166985	-0.03669405	-0.1225504	-0.00155157	-0.001160324	-0.04630866	-0.03463139
2.18318	-0.03669405	-0.1225504	0	0	0.04682748	0.03501939
2.199746	-0.03669405	-0.1225504	0	0	0	0
2.216313	-0.03666777	-0.12257	0.001586426	-0.00118594	0.04788049	-0.0357933
2.232945	-0.03666777	-0.12257	0	0	-0.0477849	0.03572184
2.249744	-0.03666777	-0.12257	0	0	0	0
2.26601	-0.03666777	-0.12257	0	0	0	0
2.282578	-0.03666777	-0.12257	0	0	0	0
2.299319	-0.03666777	-0.12257	0	0	0	0
2.315713	-0.03666777	-0.12257	0	0	0	0
2.332911	-0.03666777	-0.12257	0	0	0	0
2.348843	-0.03666777	-0.12257	0	0	0	0
2.365413	-0.03666777	-0.12257	0	0	0	0
2.382195	-0.03666777	-0.12257	0	0	0	0
2.398926	-0.03666777	-0.12257	0	0	0	0
2.41511	-0.03666777	-0.12257	0	0	0	0
2.431679	-0.03666777	-0.12257	0	0	0	0
2.44848	-0.03666777	-0.12257	0	0	0	0
2.464811	-0.03666777	-0.12257	0	0	0	0
2.48138	-0.03666777	-0.12257	0	0	0	0
2.498551	-0.03666777	-0.12257	0	0	0	0
2.516457	-0.03669405	-0.1225504	-0.001467737	0.001097214	-0.04184317	0.03128007
2.533024	-0.03669405	-0.1225504	0	0	0.04257561	-0.03182761
2.549878	-0.03669405	-0.1225504	0	0	0	0
2.566158	-0.03666777	-0.12257	0.001614422	-0.001206869	0.04872477	-0.03642444
2.582728	-0.03666777	-0.12257	0	0	-0.04914631	0.03673956
2.599933	-0.03666777	-0.12257	0	0	0	0
2.615857	-0.03666777	-0.12257	0	0	0	0
2.632427	-0.03666777	-0.12257	0	0	0	0
2.649001	-0.03666777	-0.12257	0	0	0	0
2.666184	-0.03666777	-0.12257	0	0	0	0
2.682127	-0.03666777	-0.12257	0	0	0	0
2.698694	-0.03666777	-0.12257	0	0	0	0
2.715258	-0.03666777	-0.12257	0	0	0	0
2.731827	-0.03666777	-0.12257	0	0	0	0
2.748394	-0.03666777	-0.12257	0	0	0	0
2.764959	-0.03666777	-0.12257	0	0	0	0
2.781528	-0.03666777	-0.12257	0	0	0	0
2.798095	-0.03666777	-0.12257	0	0	0	0
2.814658	-0.03666777	-0.12257	0	0	0	0
2.831225	-0.03666777	-0.12257	0	0	0	0
2.847794	-0.03666777	-0.12257	0	0	0	0
2.864361	-0.03666777	-0.12257	0	0	0	0
2.880927	-0.03666777	-0.12257	0	0	0	0
2.897494	-0.03666777	-0.12257	0	0	0	0
2.914317	-0.03666777	-0.12257	0	0	0	0
2.930627	-0.03666777	-0.12257	0	0	0	0
2.947194	-0.03666777	-0.12257	0	0	0	0
2.964232	-0.03666777	-0.12257	0	0	0	0
2.980649	-0.03666777	-0.12257	0	0	0	0
2.997621	-0.03666777	-0.12257	0	0	0	0
3.013458	-0.03666777	-0.12257	0	0	0	0
3.030025	-0.03666777	-0.12257	0	0	0	0
3.046593	-0.03666777	-0.12257	0	0	0	0
3.063159	-0.03666777	-0.12257	0	0	0	0
3.079746	-0.03666777	-0.12257	0	0	0	0
3.096293	-0.03666777	-0.12257	0	0	0	0
3.112859	-0.03666777	-0.12257	0	0	0	0
3.129425	-0.03666777	-0.12257	0	0	0	0
3.145993	-0.03666777	-0.12257	0	0	0	0
3.16256	-0.03666777	-0.12257	0	0	0	0
3.179125	-0.03666777	-0.12257	0	0	0	0
3.196197	-0.03666777	-0.12257	0	0	0	0
3.212259	-0.03666777	-0.12257	0	0	0	0
3.228827	-0.03666777	-0.12257	0	0	0	0
3.245393	-0.03666777	-0.12257	0	0	0	0
3.26207	-0.03666777	-0.12257	0	0	0	0
3.278526	-0.03666777	-0.12257	0	0	0	0
3.295174	-0.03666777	-0.12257	0	0	0	0
3.311745	-0.03666777	-0.12257	0	0	0	0
3.328226	-0.03666777	-0.12257	0	0	0	0
3.345071	-0.03666777	-0.12257	0	0	0	0
3.36165	-0.03666777	-0.12257	0	0	0	0
3.377927	-0.03666777	-0.12257	0	0	0	0
3.394495	-0.03666777	-0.12257	0	0	0	0
3.411061	-0.03666777	-0.12257	0	0	0	0
3.428061	-0.03666777	-0.12257	0	0	0	0
3.444719	-0.03666777	-0.12257	0	0	0	0
3.460761	-0.03664149	-0.1225504	0.001638271	0.001224698	0.05009959	0.03745219
3.477326	-0.03664149	-0.1225504	0	0	-0.05024245	-0.03755899
3.493895	-0.03664149	-0.1225504	0	0	0	0
3.510461	-0.03666777	-0.1225307	-0.001586426	0.00118639	-0.04787704	0.03580429
3.527028	-0.03666777	-0.1225307	0	0	0.0478798	-0.03580635
3.544033	-0.03666777	-0.1225307	0	0	0	0
3.560634	-0.03666777	-0.1225307	0	0	0	0
3.576725	-0.03666777	-0.1225307	0	0	0	0
3.593466	-0.03666777	-0.1225307	0	0	0	0
3.609861	-0.03669405	-0.1225504	-0.001603036	-0.001198812	-0.04837833	-0.03617917
3.626426	-0.03669405	-0.1225504	0	0	0.04863554	0.03637153
3.642995	-0.03669405	-0.1225504	0	0	0	0
3.659561	-0.03669405	-0.1225504	0	0	0	0
3.676125	-0.03669405	-0.1225504	0	0	0	0
3.692964	-0.03669405	-0.1225504	0	0	0	0
3.710008	-0.03666777	-0.12257	0.001542041	-0.001152761	0.04551064	-0.03402171
3.726115	-0.03666777	-0.12257	0	0	-0.04651581	0.03477312
3.742394	-0.03666777	-0.12257	0	0	0	0
3.759087	-0.03666777	-0.12257	0	0	0	0
3.775663	-0.03666777	-0.12257	0	0	0	0
3.792095	-0.03666777	-0.12257	0	0	0	0
3.808659	-0.03672033	-0.1227272	-0.00317322	-0.009490198	-0.09617141	-0.2876213
3.825228	-0.03672033	-0.1227272	0	0	0.0957728	0.2864292
3.841794	-0.03672033	-0.1227272	0	0	0	0
3.858361	-0.03895397	-0.12487	-0.1348208	-0.1293357	-4.068988	-3.903443
3.874928	-0.03895397	-0.12487	0	0	4.069017	3.903471
3.891494	-0.03895397	-0.12487	0	0	0	0
3.908062	-0.05746298	-0.1393677	-1.117206	-0.8750864	-33.71784	-26.41054
3.924628	-0.05746298	-0.1393677	0	0	33.71784	26.41054
3.941195	-0.05746298	-0.1393677	0	0	0	0
3.958135	-0.104018	-0.1753105	-2.748131	-2.121693	-82.01695	-63.32112
3.974328	-0.104018	-0.1753105	0	0	82.94115	64.03465
3.990895	-0.104018	-0.1753105	0	0	0	0
4.007461	-0.1314482	-0.2166645	-1.655834	-2.496351	-49.97534	-75.34329
4.024025	-0.1314482	-0.2166645	0	0	49.97966	75.3498
4.040595	-0.1314482	-0.2166645	0	0	0	0
4.057159	-0.1168079	-0.2535093	0.883839	-2.224342	26.67508	-67.13271
4.073729	-0.1168079	-0.2535093	0	0	-26.6747	67.13174
4.090295	-0.1168079	-0.2535093	0	0	0	0
4.106861	-0.09604568	-0.2709401	1.253321	-1.052211	37.82748	-31.75763
4.123428	-0.09604568	-0.2709401	0	0	-37.82748	31.75763
4.139995	-0.09604568	-0.2709401	0	0	0	0
4.156559	-0.08981039	-0.2759767	0.3764389	-0.3040742	11.36209	-9.177902
4.173128	-0.08981039	-0.2759767	0	0	-11.3616	9.177505
4.189694	-0.08981039	-0.2759767	0	0	0	0
4.206626	-0.08981039	-0.2759767	0	0	0	0
4.222828	-0.08981039	-0.2759767	0	0	0	0
4.239694	-0.08981039	-0.2759767	0	0	0	0
4.255961	-0.08981039	-0.2760189	0	-0.002594167	0	-0.07829662
4.272529	-0.08981039	-0.2760189	0	0	0	0.07900614
4.289114	-0.08981039	-0.2760189	0	0	0	0
4.305825	-0.08986259	-0.2762722	-0.00312393	-0.01515465	-0.09382133	-0.4551412
4.322874	-0.08986259	-0.2762722	0	0	0.09253328	0.4488927
4.338791	-0.08986259	-0.2762722	0	0	0	0
4.355359	-0.089967	-0.2763566	-0.006302166	-0.005096057	-0.1939994	-0.1568718
4.371925	-0.089967	-0.2763566	0	0	0.1902052	0.1538037
4.388498	-0.089967	-0.2763566	0	0	0	0
4.414089	-0.09020193	-0.2766732	-0.009179994	-0.01237236	-0.2177195	-0.293432
4.433427	-0.09020193	-0.2766732	0	0	0.2043243	0.2753786
4.452586	-0.09038464	-0.276821	-0.009536383	-0.00771217	-0.2477177	-0.2003319
4.469159	-0.09038464	-0.276821	0	0	0.2668879	0.215835
4.486223	-0.09038464	-0.276821	0	0	0	0
4.502287	-0.09041075	-0.2768843	-0.001625111	-0.003944049	-0.04905443	-0.1190522
4.518854	-0.09041075	-0.2768843	0	0	0.0498028	0.1208684
4.535421	-0.09041075	-0.2768843	0	0	0	0
4.551987	-0.09059345	-0.2771166	-0.01102894	-0.01401982	-0.3328683	-0.4231372
4.568554	-0.09059345	-0.2771166	0	0	0.3328683	0.4231372
4.585122	-0.09059345	-0.2771166	0	0	0	0
4.601687	-0.1088054	-0.2921901	-1.099436	-0.9099679	-33.18247	-27.46407
4.618254	-0.1088054	-0.2921901	0	0	33.18342	27.46486
4.634886	-0.1088054	-0.2921901	0	0	0	0
4.651387	-0.09956443	-0.299891	0.5600284	-0.4666938	16.90242	-14.08545
4.667956	-0.09956443	-0.299891	0	0	-16.93459	14.11226
4.684524	-0.09956443	-0.299891	0	0	0	0
4.701087	-0.08069283	-0.3154137	1.139322	-0.9371455	34.38827	-28.28596
4.717657	-0.08069283	-0.3154137	0	0	-34.38579	28.28392
4.734255	-0.08069283	-0.3154137	0	0	0	0
4.750788	-0.07213777	-0.3224793	0.5174569	-0.4273639	15.61868	-12.89935
4.767357	-0.07213777	-0.3224793	0	0	-15.63218	12.9105
4.783923	-0.07213777	-0.3224793	0	0	0	0
4.800488	-0.07213777	-0.3224793	0	0	0	0
4.817057	-0.07213777	-0.3224793	0	0	0	0
4.833665	-0.07213777	-0.3224793	0	0	0	0
4.85019	-0.07211158	-0.322501	0.001584413	-0.001311176	0.04781975	-0.03957308
4.866756	-0.07211158	-0.322501	0	0	-0.04788039	0.03962327
4.883324	-0.07211158	-0.322501	0	0	0	0
4.899888	-0.07211158	-0.322501	0	0	0	0
4.916774	-0.07211158	-0.322501	0	0	0	0
4.933776	-0.07211158	-0.322501	0	0	0	0
4.950023	-0.07211158	-0.322501	0	0	0	0
4.966157	-0.07211158	-0.322501	0	0	0	0
4.982814	-0.07211158	-0.322501	0	0	0	0
4.999289	-0.07213777	-0.3224793	-0.001589228	0.001315161	-0.04796715	0.03969507
5.015854	-0.07213777	-0.3224793	0	0	0.04810076	-0.03980564
5.03258	-0.07213777	-0.3224793	0	0	0	0
5.049026	-0.07213777	-0.3224793	0	0	0	0
5.065557	-0.07213777	-0.3224793	0	0	0	0
5.082124	-0.07213777	-0.3224793	0	0	0	0
5.098689	-0.07213777	-0.3224793	0	0	0	0
5.115257	-0.07213777	-0.3224793	0	0	0	0
5.131823	-0.07213777	-0.3224793	0	0	0	0
5.148391	-0.07213777	-0.3224793	0	0	0	0
5.164958	-0.07213777	-0.3224793	0	0	0	0
5.181524	-0.07213777	-0.3224793	0	0	0	0
5.198091	-0.07216395	-0.3224577	-0.001580309	0.001305981	-0.04769656	0.03941685
5.214657	-0.07216395	-0.3224577	0	0	0.04769519	-0.03941571
5.231224	-0.07216395	-0.3224577	0	0	0	0
5.247867	-0.07219012	-0.322436	-0.001572617	0.001299994	-0.047354	0.0391449
5.264388	-0.07219012	-0.322436	0	0	0.04741868	-0.03919837
5.281634	-0.07219012	-0.322436	0	0	0	0
5.297488	-0.0722163	-0.3224144	-0.001651415	0.001366624	-0.0498915	0.04128756
5.314151	-0.0722163	-0.3224144	0	0	0.05078702	-0.04202864
5.330624	-0.0722163	-0.3224144	0	0	0	0
5.347189	-0.07224248	-0.3223927	-0.001580536	0.001306169	-0.04783975	0.03953518
5.363975	-0.07224248	-0.3223927	0	0	0.04739173	-0.03916493
5.380326	-0.07224248	-0.3223927	0	0	0	0
5.396889	-0.07224248	-0.3223927	0	0	0	0
5.413457	-0.07224248	-0.3223927	0	0	0	0
5.430024	-0.07224248	-0.3223927	0	0	0	0
5.446788	-0.07224248	-0.3223927	0	0	0	0
5.463217	-0.07224248	-0.3223927	0	0	0	0
5.480214	-0.07224248	-0.3223927	0	0	0	0
5.497625	-0.07224248	-0.3223927	0	0	0	0
5.514193	-0.07224248	-0.3223927	0	0	0	0
5.53076	-0.07224248	-0.3223927	0	0	0	0
5.547326	-0.07224248	-0.3223927	0	0	0	0
5.563894	-0.07224248	-0.3223927	0	0	0	0
5.580824	-0.07224248	-0.3223927	0	0	0	0
5.597026	-0.07224248	-0.3223927	0	0	0	0
5.613594	-0.07224248	-0.3223927	0	0	0	0
5.63016	-0.07224248	-0.3223927	0	0	0	0
5.646861	-0.07224248	-0.3223927	0	0	0	0
5.663293	-0.07224248	-0.3223927	0	0	0	0
5.67986	-0.07224248	-0.3223927	0	0	0	0
5.696426	-0.07224248	-0.3223927	0	0	0	0
5.737973	-0.07224248	-0.3223927	0	0	0	0
5.759562	-0.07224248	-0.3223927	0	0	0	0
5.776222	-0.07224248	-0.322436	0	-0.002599247	0	-0.06795593
5.792792	-0.07224248	-0.322436	0	0	0	0.07821918
5.80936	-0.07224248	-0.322436	0	0	0	0
5.825922	-0.07224248	-0.322436	0	0	0	0
5.842493	-0.07224248	-0.322436	0	0	0	0
5.859421	-0.07224248	-0.322436	0	0	0	0
5.875621	-0.07224248	-0.322436	0	0	0	0
5.892189	-0.07224248	-0.322436	0	0	0	0
5.908759	-0.07224248	-0.322436	0	0	0	0
5.925325	-0.07224248	-0.322436	0	0	0	0
5.941893	-0.07224248	-0.322436	0	0	0	0
5.958458	-0.07224248	-0.322436	0	0	0	0
6.043521	-0.07352512	-0.3204669	-0.0150787	0.02314885	-0.1483711	0.2277796
6.060818	-0.07352512	-0.3204669	0	0	0.1473109	-0.2261518
6.078368	-0.07355129	-0.3194076	-0.001491431	0.06036368	-0.04279967	1.73226
6.094937	-0.07355129	-0.3194076	0	0	0.04371307	-1.769228
6.111503	-0.07355129	-0.3194076	0	0	0	0
6.128068	-0.08330674	-0.3094291	-0.5889083	0.6023712	-17.77482	18.18117
6.144635	-0.08330674	-0.3094291	0	0	17.77456	-18.18091
6.161203	-0.08330674	-0.3094291	0	0	0	0
6.177769	-0.1083113	-0.2696567	-1.509408	2.400875	-45.55535	72.46065
6.194336	-0.1083113	-0.2696567	0	0	45.55535	-72.46065
6.211001	-0.1083113	-0.2696567	0	0	0	0
6.229191	-0.08636358	-0.220395	1.206588	2.708186	34.61794	77.69994
6.245759	-0.08636358	-0.220395	0	0	-34.71387	-77.91526
6.262329	-0.08636358	-0.220395	0	0	0	0
6.279182	-0.03309318	-0.179433	3.160734	2.430432	94.56643	72.71643
6.295602	-0.03309318	-0.179433	0	0	-94.99197	-73.04365
6.312078	-0.03309318	-0.179433	0	0	0	0
6.328592	-0.003710509	-0.1570605	1.779328	1.354816	53.9362	41.06808
6.345166	-0.003710509	-0.1570605	0	0	-53.77685	-40.94676
6.361785	-0.003710509	-0.1570605	0	0	0	0
6.384226	0.003447355	-0.151685	0.3189717	0.2395422	8.166175	6.132654
6.400796	0.003447355	-0.151685	0	0	-8.176455	-6.140375
6.417359	0.003447355	-0.151685	0	0	0	0
6.433926	0.003447355	-0.151685	0	0	0	0
6.450496	0.003447355	-0.151685	0	0	0	0
6.467062	0.003447355	-0.151685	0	0	0	0
6.483747	0.003447355	-0.151685	0	0	0	0
6.500196	0.003447355	-0.151685	0	0	0	0
6.516762	0.003447355	-0.1516453	0	0.002400802	0	0.07271796
6.533329	0.003447355	-0.1516453	0	0	0	-0.07245947
6.550255	0.003447355	-0.1516453	0	0	0	0
6.566462	0.003421039	-0.1516254	-0.001623687	0.0012265	-0.04900509	0.03701743
6.583028	0.003421039	-0.1516254	0	0	0.04954269	-0.03742353
6.600069	0.003421039	-0.1516254	0	0	0	0
6.621809	0.003736825	-0.1511879	0.01452589	0.02012253	0.3745697	0.5188865
6.638378	0.003736825	-0.1511879	0	0	-0.3791761	-0.5252677
6.654942	0.00939446	-0.1469569	0.3415644	0.2554391	10.30873	7.709388
6.671512	0.00939446	-0.1469569	0	0	-10.30858	-7.709278
6.688261	0.00939446	-0.1469569	0	0	0	0
6.704642	0.02715122	-0.1335978	1.083968	0.8155091	32.71845	24.6153
6.721209	0.02715122	-0.1335978	0	0	-32.89981	-24.75175
6.737776	0.02715122	-0.1335978	0	0	0	0
6.754524	0.03209424	-0.1298901	0.2951417	0.2213818	8.858949	6.644979
6.770909	0.03209424	-0.1298901	0	0	-8.907779	-6.681605
6.787478	0.03209424	-0.1298901	0	0	0	0
6.804042	0.03209424	-0.1298901	0	0	0	0
6.820609	0.03209424	-0.1298901	0	0	0	0
6.837574	0.03209424	-0.1298901	0	0	0	0
6.853742	0.03214682	-0.1299689	0.003251771	-0.004875468	0.09814148	-0.1471462
6.870312	0.03214682	-0.1299689	0	0	-0.09932794	0.148925
6.8869	0.03214682	-0.1299689	0	0	0	0
6.903697	0.03225197	-0.1300872	0.006260424	-0.007040454	0.1875232	-0.210888
6.920012	0.03225197	-0.1300872	0	0	-0.1890679	0.2126251
6.936579	0.03225197	-0.1300872	0	0	0	0
6.953331	0.03227826	-0.1302251	0.00156926	-0.008234779	0.04709738	-0.2471461
6.969712	0.03227826	-0.1302251	0	0	-0.04736241	0.2485369
6.986277	0.03227826	-0.1302251	0	0	0	0
7.002872	0.03222568	-0.1302646	-0.003168237	-0.002376009	-0.0955447	-0.07165345
7.019412	0.03222568	-0.1302646	0	0	0.09561621	0.07170707
7.036272	0.03222568	-0.1302646	0	0	0	0
7.052542	0.03222568	-0.130304	0	-0.002422516	0	-0.07312221
7.069112	0.03222568	-0.130304	0	0	0	0.07376774
7.085679	0.03222568	-0.130304	0	0	0	0
7.106053	0.03222568	-0.1303828	0	-0.003869681	0	-0.1047529
7.122623	0.03222568	-0.1303828	0	0	0	0.1047421
7.139225	0.03219939	-0.1304025	-0.001583548	-0.001187493	-0.0477373	-0.03579791
7.155757	0.03219939	-0.1304025	0	0	0.04779295	0.03583964
7.172326	0.03219939	-0.1304025	0	0	0	0
7.191626	0.03214682	-0.1303631	-0.00272429	0.002042928	-0.07595184	0.05695581
7.208193	0.03214682	-0.1303631	0	0	0.07595487	-0.05695808
7.224763	0.03214682	-0.1303631	0	0	0	0
7.241329	0.03188393	-0.1305208	-0.01586876	-0.009519278	-0.4788926	-0.2872759
7.25836	0.03188393	-0.1305208	0	0	0.4723201	0.2833332
7.274963	0.03188393	-0.1305208	0	0	0	0
7.291027	0.0296755	-0.1322166	-0.1374838	-0.1055702	-4.208748	-3.231787
7.307922	0.0296755	-0.1322166	0	0	4.171361	3.203079
7.324159	0.0296755	-0.1322166	0	0	0	0
7.34073	0.01610387	-0.1424163	-0.8189964	-0.6155158	-24.96344	-18.76125
7.357296	0.01610387	-0.1424163	0	0	24.71523	18.5747
7.373864	0.01610387	-0.1424163	0	0	0	0
7.390427	-0.007552488	-0.1602118	-1.42823	-1.074385	-43.10902	-32.42874
7.406997	-0.007552488	-0.1602118	0	0	43.10529	32.42594
7.423563	-0.007552488	-0.1602118	0	0	0	0
7.440127	-0.0153409	-0.1660472	-0.4702179	-0.3523056	-14.19325	-10.63413
7.456697	-0.0153409	-0.1660472	0	0	14.19161	10.63291
7.473263	-0.0153409	-0.1660472	0	0	0	0
7.489827	-0.0153409	-0.1660472	0	0	0	0
7.506394	-0.0153409	-0.1660472	0	0	0	0
7.522964	-0.0153409	-0.1660472	0	0	0	0
7.539527	-0.01528828	-0.1660472	0.003176864	0	0.0958821	0
7.556097	-0.01528828	-0.1660472	0	0	-0.0958821	0
7.572664	-0.01528828	-0.1660472	0	0	0	0
7.589227	-0.01528828	-0.1660472	0	0	0	0
7.606162	-0.01528828	-0.1660472	0	0	0	0
7.622365	-0.01528828	-0.1660472	0	0	0	0
7.63905	-0.01526197	-0.1660672	0.001576801	-0.001199416	0.04794465	-0.03646977
7.655626	-0.01526197	-0.1660672	0	0	-0.04740578	0.03605988
7.672187	-0.01526197	-0.1660672	0	0	0	0
7.68875	-0.01520935	-0.1660272	0.003176864	0.002416441	0.09590832	0.07295144
7.70532	-0.01520935	-0.1660272	0	0	-0.0958821	-0.07293149
7.721888	-0.01520935	-0.1660272	0	0	0	0
7.738451	-0.01518304	-0.1660072	0.001588432	0.001208221	0.04794381	0.03646784
7.755019	-0.01518304	-0.1660072	0	0	-0.04794381	-0.03646784
7.771584	-0.01518304	-0.1660072	0	0	0	0
7.788154	-0.01518304	-0.1660072	0	0	0	0
7.804721	-0.01518304	-0.1660072	0	0	0	0
7.821287	-0.01518304	-0.1660072	0	0	0	0
7.837854	-0.01518304	-0.1659672	0	0.002415055	0	0.07288965
7.854421	-0.01518304	-0.1659672	0	0	0	-0.07288755
7.870987	-0.01518304	-0.1659672	0	0	0	0
7.887554	-0.01515673	-0.1659472	0.001588158	0.001208012	0.04793346	0.03645997
7.904121	-0.01515673	-0.1659472	0	0	-0.04793208	-0.03645892
7.920685	-0.01515673	-0.1659472	0	0	0	0
7.937251	-0.01515673	-0.1659472	0	0	0	0
7.95382	-0.01515673	-0.1659472	0	0	0	0
7.970387	-0.01515673	-0.1659472	0	0	0	0
7.987149	-0.01515673	-0.1659472	0	0	0	0
8.003521	-0.01515673	-0.1659472	0	0	0	0
8.020087	-0.01515673	-0.1659472	0	0	0	0
8.036654	-0.01515673	-0.1659472	0	0	0	0
8.053296	-0.01515673	-0.1659472	0	0	0	0
8.069787	-0.01515673	-0.1659472	0	0	0	0
8.08635	-0.01515673	-0.1659472	0	0	0	0
8.10292	-0.01515673	-0.1659472	0	0	0	0
8.119487	-0.01515673	-0.1659472	0	0	0	0
8.136193	-0.01515673	-0.1659472	0	0	0	0
8.152617	-0.01515673	-0.1659472	0	0	0	0
8.169187	-0.01515673	-0.1659472	0	0	0	0
8.185751	-0.01515673	-0.1659472	0	0	0	0
8.20232	-0.01515673	-0.1659472	0	0	0	0
8.218887	-0.01515673	-0.1659472	0	0	0	0
8.235651	-0.01515673	-0.1659071	0	0.002387573	0	0.07163237
8.25202	-0.01515673	-0.1659071	0	0	0	-0.07206123
8.268586	-0.01515673	-0.1659071	0	0	0	0
8.285155	-0.01518304	-0.1658471	-0.001587884	0.003622511	-0.04792105	0.1093244
8.301922	-0.01518304	-0.1658471	0	0	0.04763315	-0.1086676
8.318286	-0.01518304	-0.1658471	0	0	0	0
8.339813	-0.01515673	-0.1657871	0.001222163	0.002788176	0.03225438	0.07358337
8.356384	-0.01515673	-0.1657871	0	0	-0.03207918	-0.07318367
8.372949	-0.01515673	-0.1657471	0	0.002415402	0	0.07289489
8.389519	-0.01515673	-0.1657471	0	0	0	-0.07289699
8.408154	-0.01515673	-0.1657471	0	0	0	0
8.424722	-0.01515673	-0.1657471	0	0	0	0
8.441291	-0.01515673	-0.1657471	0	0	0	0
8.45797	-0.01515673	-0.1657471	0	0	0	0
8.474451	-0.01513042	-0.1657671	0.001596337	-0.001214233	0.04814013	-0.03661717
8.490992	-0.01513042	-0.1657671	0	0	-0.04834172	0.03677051
8.507558	-0.01513042	-0.1657671	0	0	0	0
8.524121	-0.01513042	-0.1657671	0	0	0	0
8.540741	-0.01513042	-0.1657671	0	0	0	0
8.557258	-0.01513042	-0.1657671	0	0	0	0
8.573824	-0.01513042	-0.1657671	0	0	0	0
8.59039	-0.01513042	-0.1657671	0	0	0	0
8.606956	-0.01513042	-0.1657671	0	0	0	0
8.62352	-0.01515673	-0.1657471	-0.001588432	0.001208221	-0.04794588	0.03646942
8.640089	-0.01515673	-0.1657471	0	0	0.04794174	-0.03646627
8.656656	-0.01515673	-0.1657471	0	0	0	0
8.673221	-0.01515673	-0.1657071	0	0.002415402	0	0.07290328
8.68979	-0.01515673	-0.1657071	0	0	0	-0.07289909
8.706356	-0.01515673	-0.1657071	0	0	0	0
8.72292	-0.01513042	-0.165367	0.001588341	0.02053137	0.04794174	0.6197094
8.739491	-0.01513042	-0.165367	0	0	-0.04793622	-0.619638
8.756438	-0.01513042	-0.165367	0	0	0	0
8.772943	-0.0150515	-0.165147	0.004782312	0.01333172	0.1429603	0.3985325
8.789676	-0.0150515	-0.165147	0	0	-0.1438832	-0.4011053
8.806032	-0.0150515	-0.165147	0	0	0	0
8.822321	-0.01497257	-0.165087	0.004845648	0.003683951	0.1484336	0.1128481
8.838888	-0.01497257	-0.165087	0	0	-0.1474814	-0.1121242
8.855457	-0.01497257	-0.165087	0	0	0	0
8.87204	-0.01494626	-0.165067	0.001586605	0.001205932	0.04785905	0.03637626
8.888591	-0.01494626	-0.165067	0	0	-0.04788522	-0.03639615
8.905157	-0.01494626	-0.165067	0	0	0	0
8.921723	-0.01491995	-0.165087	0.001588214	-0.001207112	0.04793515	-0.03643283
8.93829	-0.01491995	-0.165087	0	0	-0.04793515	0.03643283
8.954857	-0.01491995	-0.165087	0	0	0	0
8.971424	-0.01494626	-0.165107	-0.001588123	-0.001207043	-0.04792964	-0.03642863
8.98799	-0.01494626	-0.165107	0	0	0.04793102	0.03642968
9.004857	-0.01494626	-0.165107	0	0	0	0
9.021398	-0.01494626	-0.165107	0	0	0	0
9.037965	-0.01494626	-0.165107	0	0	0	0
9.054531	-0.01494626	-0.165107	0	0	0	0
9.072666	-0.01494626	-0.165107	0	0	0	0
9.089233	-0.01494626	-0.165107	0	0	0	0
9.106058	-0.01494626	-0.165107	0	0	0	0
9.122369	-0.01494626	-0.165107	0	0	0	0
9.138934	-0.01494626	-0.165107	0	0	0	0
9.155503	-0.01494626	-0.165107	0	0	0	0
9.172068	-0.01494626	-0.165107	0	0	0	0
9.188637	-0.01494626	-0.165107	0	0	0	0
9.205203	-0.01494626	-0.165107	0	0	0	0
9.221767	-0.01494626	-0.165107	0	0	0	0
9.238334	-0.01494626	-0.165107	0	0	0	0
9.254903	-0.01494626	-0.165107	0	0	0	0
9.271466	-0.01491995	-0.165127	0.001588488	-0.001208221	0.04794344	-0.03646627
9.288035	-0.01491995	-0.165127	0	0	-0.04794344	0.03646627
9.304603	-0.01491995	-0.165127	0	0	0	0
9.321166	-0.01491995	-0.165127	0	0	0	0
9.337736	-0.01491995	-0.165127	0	0	0	0
9.354302	-0.01491995	-0.165127	0	0	0	0
9.370869	-0.01491995	-0.165127	0	0	0	0
9.387436	-0.01491995	-0.165127	0	0	0	0
9.404064	-0.01491995	-0.165127	0	0	0	0
9.420568	-0.01491995	-0.165127	0	0	0	0
9.43738	-0.01491995	-0.165127	0	0	0	0
9.453702	-0.01491995	-0.165127	0	0	0	0
9.470286	-0.01494626	-0.165107	-0.001586479	0.001206692	-0.04821167	0.03667029
9.486833	-0.01494626	-0.165107	0	0	0.04788554	-0.03642223
9.503403	-0.01494626	-0.165107	0	0	0	0
9.519966	-0.01494626	-0.165107	0	0	0	0
9.536953	-0.01494626	-0.165107	0	0	0	0
9.553102	-0.01494626	-0.165107	0	0	0	0
9.569666	-0.01494626	-0.165107	0	0	0	0
9.586813	-0.01494626	-0.165107	0	0	0	0
9.603163	-0.01494626	-0.165107	0	0	0	0
9.619367	-0.01494626	-0.165107	0	0	0	0
9.636423	-0.01494626	-0.165107	0	0	0	0
9.652502	-0.01494626	-0.165107	0	0	0	0
9.669069	-0.01494626	-0.165107	0	0	0	0
9.685987	-0.01494626	-0.165107	0	0	0	0
9.702202	-0.01494626	-0.165107	0	0	0	0
9.718766	-0.01494626	-0.165107	0	0	0	0
9.735744	-0.01494626	-0.165107	0	0	0	0
9.752151	-0.01494626	-0.165107	0	0	0	0
9.768467	-0.01494626	-0.165107	0	0	0	0
9.785038	-0.01494626	-0.165107	0	0	0	0
9.801749	-0.01494626	-0.165107	0	0	0	0
9.818165	-0.01494626	-0.165107	0	0	0	0
9.83533	-0.01494626	-0.165107	0	0	0	0
9.851923	-0.01494626	-0.165107	0	0	0	0
9.867866	-0.01491995	-0.165127	0.001650348	-0.001255272	0.05072445	-0.03858154
9.884463	-0.01491995	-0.165127	0	0	-0.05071701	0.03857588
9.901002	-0.01491995	-0.165127	0	0	0	0
9.917565	-0.01491995	-0.165127	0	0	0	0
9.934359	-0.01491995	-0.165127	0	0	0	0
9.950701	-0.01491995	-0.165127	0	0	0	0
9.967267	-0.01494626	-0.165107	-0.001588214	0.001208012	-0.04826161	0.03670827
9.983832	-0.01494626	-0.165107	0	0	0.04793654	-0.03646102
10.0004	-0.01494626	-0.165107	0	0	0	0
10.01696	-0.01494626	-0.165107	0	0	0	0
10.03353	-0.01494626	-0.165107	0	0	0	0
10.0501	-0.01494626	-0.165107	0	0	0	0
10.06666	-0.01494626	-0.165107	0	0	0	0
10.08323	-0.01494626	-0.165107	0	0	0	0
10.0998	-0.01494626	-0.165107	0	0	0	0
10.11637	-0.01494626	-0.165107	0	0	0	0
10.13294	-0.01494626	-0.165107	0	0	0	0
10.14953	-0.01494626	-0.165107	0	0	0	0
10.16611	-0.01494626	-0.165107	0	0	0	0
10.18263	-0.01494626	-0.165107	0	0	0	0
10.19939	-0.01494626	-0.165107	0	0	0	0
10.21577	-0.01494626	-0.165107	0	0	0	0
10.23234	-0.01494626	-0.165107	0	0	0	0
10.2489	-0.01494626	-0.165107	0	0	0	0
10.26547	-0.01494626	-0.165107	0	0	0	0
10.28203	-0.01494626	-0.165107	0	0	0	0
10.2986	-0.01494626	-0.165107	0	0	0	0
10.3224	-0.01494626	-0.165107	0	0	0	0
10.33925	-0.01494626	-0.165107	0	0	0	0
10.35562	-0.01494626	-0.165107	0	0	0	0
10.3721	-0.01494626	-0.165107	0	0	0	0
10.38867	-0.01494626	-0.165107	0	0	0	0
10.41056	-0.01494626	-0.165107	0	0	0	0
10.42714	-0.01494626	-0.165107	0	0	0	0
10.4437	-0.01494626	-0.165107	0	0	0	0
10.46026	-0.01494626	-0.165107	0	0	0	0
10.47683	-0.01494626	-0.165107	0	0	0	0
10.49384	-0.01491995	-0.165127	0.001546808	-0.001176518	0.04606492	-0.03503745
10.50996	-0.01491995	-0.165127	0	0	-0.04668813	0.03551148
10.52653	-0.01491995	-0.165127	0	0	0	0
10.54312	-0.01491995	-0.165127	0	0	0	0
10.55979	-0.01491995	-0.165127	0	0	0	0
10.57623	-0.01491995	-0.165127	0	0	0	0
10.59359	-0.01491995	-0.165127	0	0	0	0
10.60936	-0.01491995	-0.165127	0	0	0	0
10.62593	-0.01491995	-0.165127	0	0	0	0
10.6425	-0.01491995	-0.165127	0	0	0	0
10.65926	-0.01491995	-0.165127	0	0	0	0
10.67589	-0.01491995	-0.165127	0	0	0	0
10.69219	-0.01494626	-0.165107	-0.001613573	0.0012273	-0.04898676	0.03725983
10.70876	-0.01494626	-0.165107	0	0	0.04908482	-0.03733442
10.72533	-0.01494626	-0.165107	0	0	0	0
10.74189	-0.01494626	-0.165107	0	0	0	0
10.7586	-0.01494626	-0.165107	0	0	0	0
10.77503	-0.01494626	-0.165107	0	0	0	0
10.79159	-0.01491995	-0.165127	0.001588214	-0.001208012	0.04813467	-0.03661172
10.80819	-0.01491995	-0.165127	0	0	-0.04789793	0.03643166
10.82479	-0.01491995	-0.165127	0	0	0	0
10.84129	-0.01491995	-0.165127	0	0	0	0
10.85786	-0.01491995	-0.165127	0	0	0	0
10.87443	-0.01491995	-0.165127	0	0	0	0
10.891	-0.01491995	-0.165127	0	0	0	0
10.90756	-0.01491995	-0.165127	0	0	0	0
10.92413	-0.01491995	-0.165127	0	0	0	0
10.9407	-0.01491995	-0.165127	0	0	0	0
10.95726	-0.01491995	-0.165127	0	0	0	0
10.974	-0.01491995	-0.165127	0	0	0	0
10.99039	-0.01494626	-0.165107	-0.00160447	0.001220377	-0.04842998	0.03683634
11.00696	-0.01494626	-0.165107	0	0	0.04866814	-0.03701749
11.02353	-0.01494626	-0.165107	0	0	0	0
11.0401	-0.01494626	-0.165107	0	0	0	0
11.05666	-0.01494626	-0.165107	0	0	0	0
11.07379	-0.01494626	-0.165107	0	0	0	0
11.0898	-0.01491995	-0.165127	0.00164425	-0.001250633	0.04962641	-0.03774636
11.10636	-0.01491995	-0.165127	0	0	-0.05048522	0.03839958
11.12293	-0.01491995	-0.165127	0	0	0	0
11.13949	-0.01494626	-0.165107	-0.001588397	0.001208151	-0.04794344	0.03646627
11.15606	-0.01494626	-0.165107	0	0	0.04793791	-0.03646207
11.17263	-0.01494626	-0.165107	0	0	0	0
11.18919	-0.01489364	-0.165107	0.003176921	0	0.09589345	0
11.20576	-0.01489364	-0.165107	0	0	-0.09588242	0
11.22233	-0.01489364	-0.165107	0	0	0	0
11.2389	-0.01463053	-0.165267	0.01588169	-0.009659598	0.479338	-0.291544
11.25546	-0.01463053	-0.165267	0	0	-0.4793656	0.2915608
11.27203	-0.01463053	-0.165267	0	0	0	0
11.2886	-0.01076274	-0.1682093	0.2334738	-0.1776074	7.046051	-5.360049
11.30541	-0.01076274	-0.1682093	0	0	-6.994716	5.320997
11.32173	-0.01076274	-0.1682093	0	0	0	0
11.3383	0.001710525	-0.1777227	0.7528012	-0.574168	22.89022	-17.45857
11.35531	0.001710525	-0.1777227	0	0	-22.4189	17.09908
11.37161	0.001710525	-0.1777227	0	0	0	0
11.38799	0.02204906	-0.1933249	1.241428	-0.9523273	37.97684	-29.13288
11.40456	0.02204906	-0.1933249	0	0	-37.67567	28.90184
11.42113	0.02204906	-0.1933249	0	0	0	0
11.4377	0.0500109	-0.2150268	1.687974	-1.310084	50.94463	-39.53955
11.45426	0.0500109	-0.2150268	0	0	-50.94757	39.54182
11.47083	0.0500109	-0.2150268	0	0	0	0
11.48739	0.08369873	-0.2415119	2.03387	-1.599007	61.39116	-48.26509
11.50433	0.08369873	-0.2415119	0	0	-60.70614	47.72654
11.52053	0.08369873	-0.2415119	0	0	0	0
11.53709	0.113484	-0.26535	1.797945	-1.438958	54.87809	-43.92085
11.5538	0.113484	-0.26535	0	0	-54.03657	43.24735
11.57038	0.113484	-0.26535	0	0	0	0
11.58679	0.1209074	-0.271361	0.4522938	-0.3662387	13.70944	-11.10103
11.60381	0.1209074	-0.271361	0	0	-13.5307	10.9563
11.62001	0.1209074	-0.271361	0	0	0	0
11.63664	0.1210889	-0.2715084	0.01091483	-0.008859453	0.3324338	-0.269833
11.65306	0.1210889	-0.2715084	0	0	-0.3302181	0.2680345
11.66963	0.1210889	-0.2715084	0	0	0	0
11.6862	0.1306722	-0.2792293	0.5784821	-0.4660605	17.45913	-14.06614
11.70276	0.1306722	-0.2792293	0	0	-17.45963	14.06654
11.71933	0.1306722	-0.2792293	0	0	0	0
11.73949	0.1434551	-0.2895949	0.6338736	-0.5140053	17.2564	-13.99314
11.75616	0.1434551	-0.2895949	0	0	-17.21037	13.95582
11.77263	0.1516683	-0.2963884	0.4985915	-0.4124103	15.04622	-12.44549
11.7892	0.1516683	-0.2963884	0	0	-15.09052	12.48213
11.80613	0.1516683	-0.2963884	0	0	0	0
11.82233	0.1570383	-0.3007677	0.3315186	-0.2703525	10.0064	-8.160194
11.8389	0.1570383	-0.3007677	0	0	-10.11736	8.250681
11.85546	0.1570383	-0.3007677	0	0	0	0
11.87203	0.157218	-0.3007035	0.01084907	0.00387364	0.3274633	0.1169201
11.88885	0.157218	-0.3007035	0	0	-0.3249657	-0.1160284
11.90516	0.157218	-0.3007035	0	0	0	0
11.92173	0.1573464	-0.3005966	0.007748179	0.006455467	0.2356583	0.1963409
11.9383	0.1573464	-0.3005966	0	0	-0.2338472	-0.194832
11.95531	0.1573464	-0.3005966	0	0	0	0
11.97159	0.1573207	-0.3005752	-0.001576868	0.00131421	-0.04736776	0.03947771
11.988	0.1573207	-0.3005752	0	0	0.04822992	-0.04019627
12.00476	0.1573207	-0.3005752	0	0	0	0
12.02113	0.1573207	-0.3005752	0	0	0	0
12.0377	0.1573207	-0.3005752	0	0	0	0
12.05427	0.1573207	-0.3005752	0	0	0	0
12.07086	0.1572694	-0.3004896	-0.003093926	0.005155046	-0.09329968	0.1554543
12.08777	0.1572694	-0.3004896	0	0	0.09235415	-0.1538789
12.10419	0.1572694	-0.3004896	0	0	0	0
12.12053	0.157218	-0.3004469	-0.00314123	0.002616932	-0.09587318	0.07987112
12.13717	0.157218	-0.3004469	0	0	0.09525489	-0.07935603
12.15367	0.157218	-0.3004469	0	0	0	0
12.17023	0.1571924	-0.3004255	-0.001549728	0.00129159	-0.0468653	0.03905895
12.18719	0.1571924	-0.3004255	0	0	0.04622013	-0.03852125
12.28212	0.1571924	-0.3004255	0	0	0	0
12.31032	0.1571667	-0.3004041	-0.0009102916	0.0007576077	-0.007392998	0.006152965
12.3269	0.1571667	-0.3004041	0	0	0.02032948	-0.01691961
12.34346	0.1571667	-0.3004041	0	0	0	0
12.36002	0.1571667	-0.3004041	0	0	0	0
12.3766	0.1571667	-0.3004041	0	0	0	0
12.39316	0.1571924	-0.3004255	0.001550174	-0.001290162	0.046783	-0.03893606
12.40975	0.1571924	-0.3004255	0	0	-0.04676012	0.03891701
12.42632	0.1571924	-0.3004255	0	0	0	0
12.44289	0.157141	-0.3004255	-0.003098743	0	-0.09350947	0
12.45961	0.157141	-0.3004255	0	0	0.0930782	0
12.47602	0.157141	-0.3004255	0	0	0	0
12.49264	0.157141	-0.3004255	0	0	0	0
12.50927	0.157141	-0.3004255	0	0	0	0
12.52572	0.157141	-0.3004255	0	0	0	0
12.54228	0.157141	-0.3004255	0	0	0	0
12.55892	0.157141	-0.3004255	0	0	0	0
12.57574	0.157141	-0.3004255	0	0	0	0
12.59198	0.157064	-0.3003613	-0.004741911	0.003949146	-0.1434373	0.1194571
12.60855	0.157064	-0.3003613	0	0	0.1445297	-0.1203668
12.62512	0.157064	-0.3003613	0	0	0	0
12.6419	0.1566019	-0.2999765	-0.02753911	0.0229349	-0.8258314	0.6877624
12.65857	0.1566019	-0.2999765	0	0	0.8232886	-0.6856447
12.67482	0.1566019	-0.2999765	0	0	0	0
12.69138	0.1560626	-0.2995276	-0.03256288	0.02710709	-0.9922888	0.8260344
12.70795	0.1560626	-0.2995276	0	0	0.9829478	-0.8182585
12.72453	0.1560626	-0.2995276	0	0	0	0
12.74108	0.1527225	-0.2936382	-0.2018213	0.3558546	-6.091679	10.74095
12.75765	0.1527225	-0.2936382	0	0	6.093784	-10.74466
12.77422	0.1527225	-0.2936382	0	0	0	0
12.79078	0.1455683	-0.2499253	-0.4319046	2.638968	-13.03603	79.65109
12.80764	0.1455683	-0.2499253	0	0	12.92516	-78.97367
12.82418	0.1455683	-0.2499253	0	0	0	0
12.84048	0.1253395	-0.1992476	-1.240651	3.108113	-37.76904	94.62003
12.85705	0.1253395	-0.1992476	0	0	37.74164	-94.55141
12.87426	0.1253395	-0.1992476	0	0	0	0
12.89018	0.09708852	-0.1559047	-1.774381	2.722275	-53.55246	82.16077
12.90675	0.09708852	-0.1559047	0	0	54.61191	-83.78619
12.92332	0.09708852	-0.1559047	0	0	0	0
12.93988	0.06687382	-0.12487	-1.824078	1.873583	-55.05713	56.55136
12.95645	0.06687382	-0.12487	0	0	55.05237	-56.54648
12.97302	0.06687382	-0.12487	0	0	0	0
12.98959	0.03798173	-0.1033092	-1.744031	1.301485	-52.63798	39.28115
13.0062	0.03798173	-0.1033092	0	0	52.56233	-39.2247
13.02272	0.03798173	-0.1033092	0	0	0	0
13.03934	0.0161828	-0.0871539	-1.311633	0.9720594	-39.58062	29.33343
13.05663	0.0161828	-0.0871539	0	0	38.67355	-28.6612
13.07242	0.0161828	-0.0871539	0	0	0	0
13.08898	-0.005684149	-0.0710564	-1.320196	0.9718708	-40.81268	30.04453
13.10555	-0.005684149	-0.0710564	0	0	39.84473	-29.33196
13.12212	-0.005684149	-0.0710564	0	0	0	0
13.14307	-0.02031299	-0.06036349	-0.6981366	0.5103008	-18.60685	13.60062
13.15964	-0.02031299	-0.06036349	0	0	18.60448	-13.59889
13.17653	-0.02007625	-0.06053625	0.0140157	-0.01022788	0.4188477	-0.3056518
13.37034	-0.02007625	-0.06053625	0	0	-0.06652179	0.04854392
13.38691	-0.02007625	-0.06053625	0	0	0	0
13.40347	-0.01989211	-0.06070903	0.01111636	-0.01043076	0.3354925	-0.314801
13.42012	-0.01989211	-0.06070903	0	0	-0.3346833	0.3140417
13.43661	-0.01989211	-0.06070903	0	0	0	0
13.45317	-0.01991842	-0.06076662	-0.001588003	-0.00347692	-0.04804912	-0.1052031
13.46974	-0.01991842	-0.06076662	0	0	0.04793156	0.1049457
13.48639	-0.01991842	-0.06076662	0	0	0	0
13.50287	-0.0198395	-0.06109301	0.004787388	-0.01980018	0.1444878	-0.5975878
13.51944	-0.0198395	-0.06109301	0	0	-0.1448505	0.599088
13.53611	-0.0198395	-0.06109301	0	0	0	0
13.55257	-0.02015517	-0.0617075	-0.01917384	-0.03732445	-0.5786843	-1.126487
13.56914	-0.02015517	-0.0617075	0	0	0.5805056	1.130032
13.5857	-0.02015517	-0.0617075	0	0	0	0
13.60278	-0.02252251	-0.06355175	-0.1386316	-0.1079993	-4.120579	-3.210088
13.61884	-0.02252251	-0.06355175	0	0	4.184152	3.259614
13.6354	-0.02252251	-0.06355175	0	0	0	0
13.65197	-0.02233839	-0.06368627	0.01111407	-0.008120125	0.3354329	-0.2450729
13.66854	-0.02233839	-0.06368627	0	0	-0.3354426	0.24508
13.6851	-0.02233839	-0.06368627	0	0	0	0
13.70167	-0.02204906	-0.06389768	0.01746401	-0.01276075	0.52708	-0.3851312
13.71824	-0.02204906	-0.06389768	0	0	-0.52708	0.3851312
13.73503	-0.02204906	-0.06389768	0	0	0	0
13.75137	-0.01797175	-0.06695522	0.2495691	-0.1871502	7.532228	-5.648367
13.76795	-0.01797175	-0.06695522	0	0	-7.581546	5.68535
13.78456	-0.01797175	-0.06695522	0	0	0	0
13.80107	-0.00547363	-0.0764568	0.7572212	-0.5756702	22.86417	-17.38227
13.81764	-0.00547363	-0.0764568	0	0	-22.8945	17.40532
13.8342	-0.00547363	-0.0764568	0	0	0	0
13.85114	0.007447231	-0.08599123	0.7627374	-0.5628312	22.76458	-16.7982
13.86734	0.007447231	-0.08599123	0	0	-23.02079	16.98726
13.8839	0.007447231	-0.08599123	0	0	0	0
13.90047	0.007552488	-0.08606873	0.006353334	-0.004677966	0.1917495	-0.1411853
13.91704	0.007552488	-0.08606873	0	0	-0.1917219	0.141165
13.93361	0.007552488	-0.08606873	0	0	0	0
13.95072	0.007526174	-0.08604935	-0.001537689	0.001132429	-0.04565718	0.03362419
13.96729	0.007526174	-0.08604935	0	0	0.04565331	-0.03362133
13.98385	0.007526174	-0.08604935	0	0	0	0
14.00042	0.007473545	-0.08601061	-0.00317685	0.002338668	-0.09588856	0.07058926
14.01699	0.007473545	-0.08601061	0	0	0.09588028	-0.07058316
14.03355	0.007473545	-0.08601061	0	0	0	0
14.05012	0.007394602	-0.08595248	-0.004765563	0.003508653	-0.1438333	0.1058975
14.06669	0.007394602	-0.08595248	0	0	0.1438291	-0.1058944
14.08325	0.007394602	-0.08595248	0	0	0	0
14.09982	0.007368288	-0.08593311	-0.001588439	0.001169334	-0.04794194	0.0352926
14.11649	0.007368288	-0.08593311	0	0	0.04778514	-0.03517717
14.13295	0.007368288	-0.08593311	0	0	0	0
14.14994	0.007368288	-0.08593311	0	0	0	0
14.16623	0.007368288	-0.08593311	0	0	0	0
14.18265	0.007368288	-0.08593311	0	0	0	0
14.19922	0.007368288	-0.08593311	0	0	0	0
14.21579	0.007368288	-0.08593311	0	0	0	0
14.23272	0.007368288	-0.08593311	0	0	0	0
14.24892	0.007368288	-0.08593311	0	0	0	0
14.26549	0.007368288	-0.08593311	0	0	0	0
14.28205	0.007368288	-0.08593311	0	0	0	0
14.29862	0.007368288	-0.08593311	0	0	0	0
14.31519	0.007368288	-0.08593311	0	0	0	0
14.33183	0.007368288	-0.08593311	0	0	0	0
14.34832	0.007341973	-0.08591373	-0.001596221	0.001175536	-0.04817683	0.03547978
14.36489	0.007341973	-0.08591373	0	0	0.0482936	-0.03556577
14.38183	0.007341973	-0.08591373	0	0	0	0
14.39802	0.007315659	-0.08589436	-0.001625016	0.00119626	-0.04904449	0.03610425
14.41494	0.007315659	-0.08589436	0	0	0.04907981	-0.03613025
14.43171	0.007315659	-0.08589436	0	0	0	0
14.44772	0.007315659	-0.08589436	0	0	0	0
14.46428	0.007315659	-0.08589436	0	0	0	0
14.48085	0.007315659	-0.08589436	0	0	0	0
14.49742	0.007289344	-0.08591373	-0.001588439	-0.001169334	-0.04794056	-0.03529158
14.51399	0.007289344	-0.08591373	0	0	0.04794056	0.03529158
14.53055	0.007289344	-0.08591373	0	0	0	0
14.54712	0.007052515	-0.08612685	-0.01429672	-0.01286521	-0.4315131	-0.3883064
14.56368	0.007052515	-0.08612685	0	0	0.4315006	0.3882952
14.58025	0.007052515	-0.08612685	0	0	0	0
14.59683	0.006815684	-0.08630122	-0.01428855	-0.01052035	-0.43113	-0.3174318
14.61339	0.006815684	-0.08630122	0	0	0.4312416	0.3175141
14.63077	0.006815684	-0.08630122	0	0	0	0
14.64801	0.006631482	-0.08647561	-0.01068189	-0.01011278	-0.3085017	-0.2920655
14.66458	0.006631482	-0.08647561	0	0	0.3159151	0.299084
14.68114	0.006631482	-0.08647561	0	0	0	0
14.69771	-0.004421024	-0.09474297	-0.667169	-0.4990474	-20.13636	-15.06215
14.71428	-0.004421024	-0.09474297	0	0	20.13578	15.06172
14.73091	-0.004421024	-0.09474297	0	0	0	0
14.74762	-0.035012	-0.1175254	-1.831086	-1.363688	-54.924	-40.90425
14.76398	-0.035012	-0.1175254	0	0	55.37385	41.23928
14.78055	-0.035012	-0.1175254	0	0	0	0
14.79711	-0.05037839	-0.1289444	-0.9275703	-0.68929	-27.99493	-20.80341
14.81383	-0.05037839	-0.1289444	0	0	27.86979	20.71042
14.83025	-0.05037839	-0.1289444	0	0	0	0
14.84682	-0.05003715	-0.1285701	0.02059872	0.02259153	0.6244383	0.6848493
14.86338	-0.05003715	-0.1285701	0	0	-0.6217063	-0.681853
14.88007	-0.05003715	-0.1285701	0	0	0	0
14.89651	-0.0499059	-0.1283534	0.007983352	0.01317779	0.2409658	0.3977522
14.91343	-0.0499059	-0.1283534	0	0	-0.2393399	-0.3950684
14.92965	-0.0499059	-0.1283534	0	0	0	0
14.95098	-0.0499584	-0.1281171	-0.0024607	0.01107621	-0.06551969	0.29492
14.96756	-0.0499584	-0.1281171	0	0	0.06491473	-0.2921969
14.98412	-0.0500109	-0.1280777	-0.00316912	0.002377346	-0.09563597	0.07174224
15.00068	-0.0500109	-0.1280777	0	0	0.09565799	-0.07175877
15.01763	-0.0500109	-0.1280777	0	0	0	0
15.03382	-0.05006339	-0.1280384	-0.003242438	0.002432519	-0.09785979	0.07341568
15.05039	-0.05006339	-0.1280384	0	0	0.0989823	-0.0742578
15.06695	-0.05006339	-0.1280384	0	0	0	0
15.08352	-0.05058838	-0.1276052	-0.0316846	0.02614449	-0.9562157	0.7890195
15.10009	-0.05058838	-0.1276052	0	0	0.9561882	-0.7889968
15.11694	-0.05058838	-0.1276052	0	0	0	0
15.1335	-0.05061463	-0.1274673	-0.00158536	0.008324154	-0.0474475	0.2491297
15.14979	-0.05061463	-0.1274673	0	0	0.04827	-0.2534484
15.16681	-0.05061463	-0.1274673	0	0	0	0
15.18292	-0.05056213	-0.1273886	0.003259526	0.004888827	0.09838402	0.1475621
15.19949	-0.05056213	-0.1273886	0	0	-0.09975661	-0.1496208
15.21605	-0.05056213	-0.1273886	0	0	0	0
15.23295	-0.05027339	-0.1271327	0.01708417	0.01514272	0.5104735	0.4524634
15.24919	-0.05027339	-0.1271327	0	0	-0.5156309	-0.4570346
15.26575	-0.05027339	-0.1271327	0	0	0	0
15.28681	-0.05024714	-0.127113	0.00124642	0.0009347263	0.03312716	0.02484302
15.30338	-0.05024714	-0.127113	0	0	-0.0331238	-0.0248405
15.31995	-0.0502209	-0.1270933	0.001584721	0.001188428	0.04782835	0.03586787
15.33679	-0.0502209	-0.1270933	0	0	-0.04744191	-0.03557807
15.35373	-0.0502209	-0.1270933	0	0	0	0
15.37009	-0.0480157	-0.1254797	0.1348289	0.09865798	4.048753	2.962582
15.3865	-0.0480157	-0.1254797	0	0	-4.114861	-3.010955
15.40278	-0.0480157	-0.1254797	0	0	0	0
15.41935	-0.04278966	-0.1216074	0.3154627	0.2337458	9.603048	7.115492
15.43591	-0.04278966	-0.1216074	0	0	-9.521504	-7.055072
15.4529	-0.04278966	-0.1216074	0	0	0	0
15.47262	-0.03335604	-0.1146053	0.478538	0.3551957	13.03842	9.677788
15.48919	-0.03335604	-0.1146053	0	0	-13.18852	-9.789199
15.50575	-0.03335604	-0.1146053	0	0	0	0
15.52232	-0.03267258	-0.1141353	0.04124923	0.02836809	1.245012	0.8562245
15.53888	-0.03267258	-0.1141353	0	0	-1.244868	-0.856126
15.55569	-0.03267258	-0.1141353	0	0	0	0
15.57201	-0.03256743	-0.1142136	0.006440145	-0.004797197	0.1943919	-0.1448005
15.58858	-0.03256743	-0.1142136	0	0	-0.195767	0.1458248
15.60593	-0.03256743	-0.1142136	0	0	0	0
15.62171	-0.03256743	-0.1142136	0	0	0	0
15.63828	-0.03256743	-0.1142136	0	0	0	0
15.65485	-0.03256743	-0.1142136	0	0	0	0
15.67141	-0.03256743	-0.1142136	0	0	0	0
15.68846	-0.03256743	-0.1142136	0	0	0	0
15.70455	-0.03256743	-0.1142136	0	0	0	0
15.72111	-0.03256743	-0.1142136	0	0	0	0
15.73768	-0.03256743	-0.1142136	0	0	0	0
15.75425	-0.03256743	-0.1142136	0	0	0	0
15.77082	-0.03251485	-0.1142919	0.003173617	-0.004728606	0.09578548	-0.1427178
15.78738	-0.03251485	-0.1142919	0	0	-0.09578272	0.1427137
15.80395	-0.03251485	-0.1142919	0	0	0	0
15.82052	-0.03233084	-0.114429	0.01110777	-0.008275736	0.3352526	-0.2497766
15.83708	-0.03233084	-0.114429	0	0	-0.3352718	0.249791
15.85386	-0.03233084	-0.114429	0	0	0	0
15.87088	-0.03227826	-0.1144682	0.003090058	-0.002301889	0.09142923	-0.06810875
15.88678	-0.03227826	-0.1144682	0	0	-0.093866	0.06992398
15.90335	-0.03227826	-0.1144682	0	0	0	0
15.91991	-0.03227826	-0.1144682	0	0	0	0
15.93648	-0.03227826	-0.1144682	0	0	0	0
15.95335	-0.03227826	-0.1144682	0	0	0	0
15.9698	-0.03225197	-0.1144878	0.001598053	-0.00119067	0.04796838	-0.03574008
15.98618	-0.03225197	-0.1144878	0	0	-0.048672	0.03626433
16.00285	-0.03225197	-0.1144878	0	0	0	0
16.01931	-0.0321731	-0.1145857	0.004791154	-0.00594945	0.1445973	-0.1795547
16.03588	-0.0321731	-0.1145857	0	0	-0.1450649	0.1801354
16.05245	-0.0321731	-0.1145857	0	0	0	0
16.06901	-0.03214682	-0.1146053	0.001587012	-0.001182445	0.04789889	-0.0356883
16.08558	-0.03214682	-0.1146053	0	0	-0.04789889	0.0356883
16.10215	-0.03214682	-0.1146053	0	0	0	0
16.11872	-0.03214682	-0.1146053	0	0	0	0
16.13528	-0.03214682	-0.1146053	0	0	0	0
16.15185	-0.03214682	-0.1146053	0	0	0	0
16.16842	-0.03214682	-0.1146053	0	0	0	0
16.18498	-0.03214682	-0.1146053	0	0	0	0
16.20155	-0.03214682	-0.1146053	0	0	0	0
16.21812	-0.03214682	-0.1146053	0	0	0	0
16.23469	-0.03214682	-0.1146053	0	0	0	0
16.25125	-0.03214682	-0.1146053	0	0	0	0
16.26782	-0.03214682	-0.1146053	0	0	0	0
16.28439	-0.03214682	-0.1146053	0	0	0	0
16.30095	-0.03214682	-0.1146053	0	0	0	0
16.31752	-0.03214682	-0.1146053	0	0	0	0
16.33409	-0.03214682	-0.1146053	0	0	0	0
16.35065	-0.03214682	-0.1146053	0	0	0	0
16.36722	-0.03214682	-0.1146053	0	0	0	0
16.38379	-0.03214682	-0.1146053	0	0	0	0
16.40035	-0.03214682	-0.1146053	0	0	0	0
16.41692	-0.03214682	-0.1146053	0	0	0	0
16.43349	-0.03214682	-0.1146053	0	0	0	0
16.45035	-0.03214682	-0.1146053	0	0	0	0
16.46661	-0.03214682	-0.1146053	0	0	0	0
16.48318	-0.03214682	-0.1146053	0	0	0	0
16.50035	-0.03214682	-0.1146053	0	0	0	0
16.51632	-0.03214682	-0.1146053	0	0	0	0
16.53288	-0.03214682	-0.1146053	0	0	0	0
16.55003	-0.03214682	-0.1146053	0	0	0	0
16.56602	-0.03214682	-0.1146053	0	0	0	0
16.58258	-0.03214682	-0.1146053	0	0	0	0
16.59993	-0.03214682	-0.1146053	0	0	0	0
16.62189	-0.03214682	-0.1146053	0	0	0	0
16.63862	-0.03214682	-0.1146053	0	0	0	0
16.65503	-0.03214682	-0.1146053	0	0	0	0
16.67208	-0.03214682	-0.1146053	0	0	0	0
16.68818	-0.03214682	-0.1146053	0	0	0	0
16.70473	-0.03214682	-0.1146053	0	0	0	0
16.7213	-0.03214682	-0.1146053	0	0	0	0
16.73786	-0.03214682	-0.1146053	0	0	0	0
16.75443	-0.03214682	-0.1146053	0	0	0	0
16.771	-0.03214682	-0.1146053	0	0	0	0
16.78757	-0.03214682	-0.1146053	0	0	0	0
16.80413	-0.03214682	-0.1146053	0	0	0	0
16.8207	-0.03214682	-0.1146053	0	0	0	0
16.83746	-0.03214682	-0.1146053	0	0	0	0
16.85383	-0.03214682	-0.1146053	0	0	0	0
16.8704	-0.03214682	-0.1146053	0	0	0	0
16.88697	-0.03214682	-0.1146053	0	0	0	0
16.90353	-0.03214682	-0.1146053	0	0	0	0
16.9201	-0.03214682	-0.1146053	0	0	0	0
16.93667	-0.03214682	-0.1146053	0	0	0	0
16.95329	-0.03214682	-0.1146053	0	0	0	0
16.9698	-0.03214682	-0.1146053	0	0	0	0
16.98637	-0.03214682	-0.1146053	0	0	0	0
17.00293	-0.03214682	-0.1146053	0	0	0	0
17.0195	-0.03214682	-0.1146053	0	0	0	0
17.03607	-0.03214682	-0.1146053	0	0	0	0
17.05263	-0.03214682	-0.1146053	0	0	0	0
17.06952	-0.03214682	-0.1146053	0	0	0	0
17.08612	-0.03214682	-0.1146053	0	0	0	0
17.10233	-0.03214682	-0.1146053	0	0	0	0
17.11909	-0.03214682	-0.1146053	0	0	0	0
17.13547	-0.03214682	-0.1146053	0	0	0	0
17.15203	-0.03214682	-0.1146053	0	0	0	0
17.16868	-0.03214682	-0.1146053	0	0	0	0
17.18517	-0.03214682	-0.1146053	0	0	0	0
17.20191	-0.03214682	-0.1146053	0	0	0	0
17.2183	-0.03214682	-0.1146053	0	0	0	0
17.23487	-0.03214682	-0.1146053	0	0	0	0
17.25174	-0.0321731	-0.1145857	-0.001558481	0.001161186	-0.04661111	0.03472881
17.268	-0.0321731	-0.1145857	0	0	0.04703775	-0.03504669
17.28457	-0.0321731	-0.1145857	0	0	0	0
17.30114	-0.0321731	-0.1145857	0	0	0	0
17.3177	-0.0321731	-0.1145857	0	0	0	0
17.33427	-0.0321731	-0.1145857	0	0	0	0
17.35084	-0.03214682	-0.1146053	0.00158683	-0.001182308	0.04789062	-0.03568214
17.3674	-0.03214682	-0.1146053	0	0	-0.04789062	0.03568214
17.38414	-0.03214682	-0.1146053	0	0	0	0
17.40054	-0.03214682	-0.1146053	0	0	0	0
17.41714	-0.03214682	-0.1146053	0	0	0	0
17.43368	-0.03214682	-0.1146053	0	0	0	0
17.45024	-0.03214682	-0.1146053	0	0	0	0
17.4668	-0.03214682	-0.1146053	0	0	0	0
17.48337	-0.03214682	-0.1146053	0	0	0	0
17.49994	-0.03214682	-0.1146053	0	0	0	0
17.51651	-0.03214682	-0.1146053	0	0	0	0
17.53329	-0.03214682	-0.1146053	0	0	0	0
17.54963	-0.03214682	-0.1146053	0	0	0	0
17.56621	-0.03214682	-0.1146053	0	0	0	0
17.58277	-0.03214682	-0.1146053	0	0	0	0
17.59934	-0.03214682	-0.1146053	0	0	0	0
17.61598	-0.03214682	-0.1146053	0	0	0	0
17.63257	-0.03214682	-0.1146053	0	0	0	0
17.64904	-0.03214682	-0.1146053	0	0	0	0
17.66567	-0.03214682	-0.1146053	0	0	0	0
17.68217	-0.03214682	-0.1146053	0	0	0	0
17.69874	-0.03214682	-0.1146053	0	0	0	0
17.71531	-0.03214682	-0.1146053	0	0	0	0
17.73187	-0.03214682	-0.1146053	0	0	0	0
17.74844	-0.03214682	-0.1146053	0	0	0	0
17.76501	-0.03214682	-0.1146053	0	0	0	0
17.78157	-0.03214682	-0.1146053	0	0	0	0
17.79814	-0.03214682	-0.1146053	0	0	0	0
17.8147	-0.03214682	-0.1146053	0	0	0	0
17.83127	-0.03214682	-0.1146053	0	0	0	0
17.84784	-0.03214682	-0.1146053	0	0	0	0
17.86441	-0.03214682	-0.1146053	0	0	0	0
17.88097	-0.03214682	-0.1146053	0	0	0	0
17.89754	-0.03214682	-0.1146053	0	0	0	0
17.9141	-0.03214682	-0.1146053	0	0	0	0
17.93108	-0.03214682	-0.1146053	0	0	0	0
17.95169	-0.03214682	-0.1146053	0	0	0	0
17.96827	-0.03214682	-0.1146053	0	0	0	0
17.98487	-0.03214682	-0.1146053	0	0	0	0
18.0014	-0.03214682	-0.1146053	0	0	0	0
18.01797	-0.03214682	-0.1146053	0	0	0	0
18.03453	-0.03214682	-0.1146053	0	0	0	0
18.0511	-0.03214682	-0.1146053	0	0	0	0
18.06767	-0.03214682	-0.1146053	0	0	0	0
18.08423	-0.0321731	-0.1145857	-0.00158683	0.001182308	-0.04789062	0.03568214
18.1008	-0.0321731	-0.1145857	0	0	0.04789062	-0.03568214
18.11737	-0.0321731	-0.1145857	0	0	0	0
18.13394	-0.0321731	-0.1145857	0	0	0	0
18.1505	-0.0321731	-0.1145857	0	0	0	0
18.16707	-0.0321731	-0.1145857	0	0	0	0
18.18439	-0.0321731	-0.1145857	0	0	0	0
18.2002	-0.0321731	-0.1145857	0	0	0	0
18.21677	-0.0321731	-0.1145857	0	0	0	0
18.23334	-0.0321731	-0.1145857	0	0	0	0
18.25003	-0.0321731	-0.1145857	0	0	0	0
18.26647	-0.0321731	-0.1145857	0	0	0	0
18.28311	-0.03214682	-0.1146053	0.00158028	-0.001177429	0.0477727	-0.03559428
18.29991	-0.03214682	-0.1146053	0	0	-0.04726848	0.0352186
18.31617	-0.03214682	-0.1146053	0	0	0	0
18.33274	-0.03214682	-0.1146053	0	0	0	0
18.34931	-0.03214682	-0.1146053	0	0	0	0
18.36589	-0.03214682	-0.1146053	0	0	0	0
18.38244	-0.0321731	-0.1145857	-0.001588842	0.001183808	-0.04795134	0.03572739
18.39901	-0.0321731	-0.1145857	0	0	0.04798172	-0.03575002
18.41559	-0.0321731	-0.1145857	0	0	0	0
18.43214	-0.0321731	-0.1145857	0	0	0	0
18.44871	-0.0321731	-0.1145857	0	0	0	0
18.46527	-0.0321731	-0.1145857	0	0	0	0
18.48184	-0.0321731	-0.1145857	0	0	0	0
18.49859	-0.0321731	-0.1145857	0	0	0	0
18.51497	-0.0321731	-0.1145857	0	0	0	0
18.53154	-0.03214682	-0.1146053	0.00158683	-0.001182308	0.04816232	-0.03588457
18.54811	-0.03214682	-0.1146053	0	0	-0.04789338	0.03568419
18.56524	-0.03214682	-0.1146053	0	0	0	0
18.58173	-0.03201537	-0.1148991	0.007970629	-0.01781667	0.2370607	-0.5298995
18.59781	-0.03201537	-0.1148991	0	0	-0.2447382	0.5470611
18.61437	-0.03201537	-0.1148991	0	0	0	0
18.63102	-0.02757196	-0.1186041	0.2668532	-0.2225077	8.034223	-6.6991
18.64751	-0.02757196	-0.1186041	0	0	-8.053184	6.714909
18.66407	-0.02757196	-0.1186041	0	0	0	0
18.68064	-0.01328869	-0.1297127	0.8623382	-0.6706722	26.02841	-20.24326
18.69722	-0.01328869	-0.1297127	0	0	-26.01493	20.23277
18.71432	-0.01328869	-0.1297127	0	0	0	0
18.73034	0.004184186	-0.1448144	1.091093	-0.9430225	32.94823	-28.47687
18.74691	0.004184186	-0.1448144	0	0	-33.48634	28.94195
18.76348	0.004184186	-0.1448144	0	0	0	0
18.78004	0.01363073	-0.165547	0.5701948	-1.251424	17.20752	-37.76587
18.79661	0.01363073	-0.165547	0	0	-17.20851	37.76805
18.81318	0.01363073	-0.165547	0	0	0	0
18.82974	0.006815684	-0.2036597	-0.411452	-2.301017	-12.41908	-69.45283
18.84631	0.006815684	-0.2036597	0	0	12.41908	69.45283
18.86287	0.006815684	-0.2036597	0	0	0	0
18.94988	-0.01342025	-0.3154353	-0.2325768	-1.284666	-2.245497	-12.40327
18.96691	-0.01342025	-0.3154353	0	0	2.235657	12.34892
18.98302	-0.01626172	-0.3354315	-0.1763856	-1.241272	-5.323635	-37.46381
18.99958	-0.01626172	-0.3354315	0	0	5.397587	37.98423
19.01616	-0.01626172	-0.3354315	0	0	0	0
19.03271	-0.01899771	-0.3627891	-0.165335	-1.653206	-4.990682	-49.90248
19.04928	-0.01899771	-0.3627891	0	0	4.992694	49.9226
19.06602	-0.01899771	-0.3627891	0	0	0	0
19.08241	-0.01147318	-0.3691431	0.4588836	-0.3875007	13.84993	-11.69547
19.09898	-0.01147318	-0.3691431	0	0	-13.92045	11.75502
19.11555	-0.01147318	-0.3691431	0	0	0	0
19.17396	-0.00552626	-0.3743604	0.1018056	-0.08931596	1.357705	-1.19114
19.19054	-0.00552626	-0.3743604	0	0	-1.357636	1.191079
19.2071	0.002684204	-0.3813433	0.4957558	-0.4216339	14.96194	-12.72494
19.224	0.002684204	-0.3813433	0	0	-14.8161	12.6009
19.24067	0.002684204	-0.3813433	0	0	0	0
19.2568	0.002631573	-0.3813433	-0.003262473	0	-0.09945781	0
19.27343	0.002631573	-0.3813433	0	0	0.09959099	0
19.29015	0.002631573	-0.3813433	0	0	0	0
19.30663	0.002421048	-0.3816125	-0.01277791	-0.0163395	-0.3848407	-0.4921074
19.32307	0.002421048	-0.3816125	0	0	0.3882305	0.4964421
19.33963	0.002421048	-0.3816125	0	0	0	0
19.35623	0.002342101	-0.3817696	-0.004756492	-0.009460828	-0.1434191	-0.2852656
19.37277	0.002342101	-0.3817696	0	0	0.1435595	0.2855448
19.38958	0.002342101	-0.3817696	0	0	0	0
19.40952	0.002315785	-0.3818369	-0.001320287	-0.003377691	-0.03592726	-0.09191275
19.42608	0.002315785	-0.3818369	0	0	0.03617132	0.09253713
19.44265	0.002315785	-0.3818369	0	0	0	0
19.45922	0.002315785	-0.3818369	0	0	0	0
19.47596	0.002315785	-0.3818369	0	0	0	0
19.49235	0.002315785	-0.3818369	0	0	0	0
19.50892	0.002315785	-0.3818369	0	0	0	0
19.52549	0.002315785	-0.3818369	0	0	0	0
19.54216	0.002315785	-0.3818369	0	0	0	0
19.56021	0.002315785	-0.3818369	0	0	0	0
19.57689	0.002315785	-0.3818369	0	0	0	0
19.59335	0.002315785	-0.3818369	0	0	0	0
19.61079	0.002315785	-0.3818369	0	0	0	0
19.62736	0.002315785	-0.3818369	0	0	0	0
19.6441	0.002315785	-0.3818369	0	0	0	0
19.66052	0.002315785	-0.3818369	0	0	0	0
19.67706	0.002315785	-0.3818369	0	0	0	0
19.69363	0.002315785	-0.3818369	0	0	0	0
19.71019	0.002315785	-0.3818369	0	0	0	0
19.72676	0.002315785	-0.3818369	0	0	0	0
19.74333	0.002315785	-0.3818369	0	0	0	0
19.75989	0.002315785	-0.3818369	0	0	0	0
19.77646	0.002315785	-0.3818369	0	0	0	0
19.79303	0.002315785	-0.3818369	0	0	0	0
19.8096	0.002315785	-0.3818369	0	0	0	0
19.82616	0.002315785	-0.3818369	0	0	0	0
19.84295	0.002315785	-0.3818369	0	0	0	0
19.8593	0.00228947	-0.3818145	-0.001609167	0.001372245	-0.04855637	0.04140727
19.87639	0.00228947	-0.3818145	0	0	0.04811331	-0.04102945
19.89243	0.00228947	-0.3818145	0	0	0	0
19.90927	0.002263154	-0.381792	-0.001562323	0.001332309	-0.04751753	0.04052174
19.92556	0.002263154	-0.381792	0	0	0.04715372	-0.0402115
19.94256	0.002263154	-0.381792	0	0	0	0
19.95869	0.001578946	-0.3811639	-0.0424222	0.03894239	-1.280304	1.175284
19.97526	0.001578946	-0.3811639	0	0	1.297483	-1.191053
19.99187	0.001578946	-0.3811639	0	0	0	0
20.00839	-0.01071012	-0.3703679	-0.7438245	0.6534559	-22.45125	19.72361
20.02496	-0.01071012	-0.3703679	0	0	22.47972	-19.74862
20.04153	-0.01071012	-0.3703679	0	0	0	0
20.06179	-0.08281019	-0.3004896	-3.558095	3.44845	-96.60124	93.6244
20.07836	-0.08281019	-0.3004896	0	0	96.59624	-93.61955
20.09525	-0.1232148	-0.2459115	-2.392549	3.231835	-71.50751	96.59173
20.11149	-0.1232148	-0.2459115	0	0	72.21558	-97.54819
20.12806	-0.1232148	-0.2459115	0	0	0	0
20.14478	-0.1224112	-0.1670879	0.04805396	4.713841	1.443541	141.6037
20.16119	-0.1224112	-0.1670879	0	0	-1.450355	-142.2722
20.17776	-0.1224112	-0.1670879	0	0	0	0
20.19432	-0.06310033	-0.1178392	3.580424	2.973005	108.0636	89.73064
20.21089	-0.06310033	-0.1178392	0	0	-108.0574	-89.72548
20.22746	-0.06310033	-0.1178392	0	0	0	0
20.24403	-0.05148079	-0.1091269	0.7013569	0.52587	21.16821	15.8717
20.26064	-0.05148079	-0.1091269	0	0	-21.13901	-15.8498
20.27716	-0.05148079	-0.1091269	0	0	0	0
20.29373	-0.05148079	-0.1091269	0	0	0	0
20.3103	-0.05148079	-0.1091269	0	0	0	0
20.32686	-0.05148079	-0.1091269	0	0	0	0
20.34343	-0.0514283	-0.109166	0.003168123	-0.002359398	0.09560864	-0.07120269
20.36	-0.0514283	-0.109166	0	0	-0.09561965	0.07121088
20.37664	-0.0514283	-0.109166	0	0	0	0
20.39313	-0.05134956	-0.1092638	0.004775159	-0.005926475	0.1441146	-0.1788614
20.4097	-0.05134956	-0.1092638	0	0	-0.1444555	0.1792845
20.42626	-0.05134956	-0.1092638	0	0	0	0
20.44289	-0.05116583	-0.1094397	0.01104911	-0.01057932	0.3328689	-0.3187156
20.4594	-0.05116583	-0.1094397	0	0	-0.3334821	0.3193027
20.47602	-0.05116583	-0.1094397	0	0	0	0
20.49259	-0.05100835	-0.1095961	0.009506783	-0.009440216	0.2864206	-0.2844151
20.5091	-0.05100835	-0.1095961	0	0	-0.2874447	0.2854321
20.52566	-0.05100835	-0.1095961	0	0	0	0
20.54273	-0.05077212	-0.1098502	0.01383971	-0.01488906	0.4114541	-0.4426512
20.5588	-0.05077212	-0.1098502	0	0	-0.4176833	0.4493527
20.5755	-0.05077212	-0.1098502	0	0	0	0
20.59193	-0.05069337	-0.1099088	0.004793354	-0.003570185	0.1446804	-0.1077608
20.6085	-0.05069337	-0.1099088	0	0	-0.1452658	0.1081968
20.62506	-0.05069337	-0.1099088	0	0	0	0
20.64163	-0.0499059	-0.1104954	0.04754321	-0.03541445	1.435022	-1.068933
20.6582	-0.0499059	-0.1104954	0	0	-1.43494	1.068872
20.67496	-0.0499059	-0.1104954	0	0	0	0
20.69133	-0.04972214	-0.1106323	0.01122188	-0.008359876	0.338677	-0.2523015
20.7079	-0.04972214	-0.1106323	0	0	-0.3406576	0.253777
20.72446	-0.04972214	-0.1106323	0	0	0	0
20.74103	-0.04974839	-0.1106519	-0.001584356	-0.00118051	-0.04782147	-0.03563195
20.7576	-0.04974839	-0.1106519	0	0	0.04781597	0.03562785
20.77444	-0.04974839	-0.1106519	0	0	0	0
20.79073	-0.04972214	-0.1106714	0.001611254	-0.001200551	0.04863054	-0.03623479
20.8073	-0.04972214	-0.1106714	0	0	-0.04903704	0.03653767
20.82415	-0.04972214	-0.1106714	0	0	0	0
20.8406	-0.04972214	-0.1106714	0	0	0	0
20.857	-0.04972214	-0.1106714	0	0	0	0
20.87356	-0.04972214	-0.1106714	0	0	0	0
20.89013	-0.04969589	-0.110691	0.001584581	-0.00118051	0.04782275	-0.03562785
20.90693	-0.04969589	-0.110691	0	0	-0.04749739	0.03538546
20.92327	-0.04969589	-0.110691	0	0	0	0
20.9407	-0.04969589	-0.110691	0	0	0	0
20.95727	-0.04969589	-0.110691	0	0	0	0
20.97383	-0.04969589	-0.110691	0	0	0	0
20.9904	-0.04966964	-0.1107105	0.001584581	-0.00118051	0.04782826	-0.03563195
21.00696	-0.04966964	-0.1107105	0	0	-0.04782275	0.03562785
21.02354	-0.04966964	-0.1107105	0	0	0	0
21.20557	-0.04893459	-0.1112582	0.004037918	-0.003008394	0.02033086	-0.01514722
21.22214	-0.04893459	-0.1112582	0	0	-0.02033144	0.01514766
21.23871	-0.04039906	-0.1176234	0.5152647	-0.3842513	15.55162	-11.5974
21.25528	-0.04039906	-0.1176234	0	0	-15.55072	11.59673
21.27184	-0.04039906	-0.1176234	0	0	0	0
21.28848	-0.02741418	-0.1273295	0.7802654	-0.5832432	23.49571	-17.56289
21.30498	-0.02741418	-0.1273295	0	0	-23.54981	17.60333
21.32154	-0.02741418	-0.1273295	0	0	0	0
21.33811	-0.02751937	-0.1272508	-0.006350467	0.004753713	-0.1916685	0.1434756
21.35468	-0.02751937	-0.1272508	0	0	0.1916685	-0.1434756
21.37151	-0.02751937	-0.1272508	0	0	0	0
21.38781	-0.02749307	-0.1272705	0.001613471	-0.00120776	0.04870026	-0.03645448
21.40438	-0.02749307	-0.1272705	0	0	-0.04909027	0.03674642
21.42094	-0.02749307	-0.1272705	0	0	0	0
21.43751	-0.02751937	-0.1272508	-0.001587279	0.001188155	-0.04790971	0.03586271
21.45408	-0.02751937	-0.1272508	0	0	0.04790143	-0.03585652
21.47097	-0.02751937	-0.1272508	0	0	0	0
21.48721	-0.02770344	-0.127113	-0.01133751	0.008488017	-0.3422061	0.2561983
21.50381	-0.02770344	-0.127113	0	0	0.3453073	-0.2585201
21.52034	-0.02770344	-0.127113	0	0	0	0
21.53691	-0.02796639	-0.1269162	-0.01587201	0.01188065	-0.4794597	0.3588892
21.55351	-0.02796639	-0.1269162	0	0	0.4784948	-0.3581669
21.57038	-0.02796639	-0.1269162	0	0	0	0
21.58661	-0.02801898	-0.1268768	-0.003240746	0.002426025	-0.09792428	0.07330621
21.60379	-0.02801898	-0.1268768	0	0	0.09700737	-0.07261981
21.61974	-0.02801898	-0.1268768	0	0	0	0
21.63631	-0.02799269	-0.1268965	0.001587167	-0.001188155	0.04879971	-0.03653151
21.65288	-0.02799269	-0.1268965	0	0	-0.0479008	0.03585858
21.67023	-0.02799269	-0.1268965	0	0	0	0
21.68601	-0.0279401	-0.1269359	0.003332399	-0.002494637	0.1005836	-0.07529696
21.70258	-0.0279401	-0.1269359	0	0	-0.1030091	0.07711268
21.71914	-0.0279401	-0.1269359	0	0	0	0
21.73572	-0.0279138	-0.1269555	0.001586184	-0.001187335	0.04785459	-0.03582146
21.75228	-0.0279138	-0.1269555	0	0	-0.04787112	0.03583383
21.76884	-0.0279138	-0.1269555	0	0	0	0
21.78541	-0.0279138	-0.1269555	0	0	0	0
21.80198	-0.0279138	-0.1269555	0	0	0	0
21.81876	-0.0279138	-0.1269555	0	0	0	0
21.83538	-0.0278875	-0.1269752	0.00158243	-0.001183712	0.04737604	-0.0354389
21.85168	-0.0278875	-0.1269752	0	0	-0.0480761	0.03596257
21.86825	-0.0278875	-0.1269752	0	0	0	0
21.88481	-0.0278875	-0.1269752	0	0	0	0
21.90138	-0.0278875	-0.1269752	0	0	0	0
21.91795	-0.0278875	-0.1269752	0	0	0	0
21.93451	-0.0278875	-0.1269752	0	0	0	0
21.95108	-0.0278875	-0.1269752	0	0	0	0
21.96765	-0.0278875	-0.1269752	0	0	0	0
21.98429	-0.0278875	-0.1269752	0	0	0	0
22.00078	-0.0278875	-0.1269752	0	0	0	0
22.01735	-0.0278875	-0.1269752	0	0	0	0
22.03423	-0.0278875	-0.1269752	0	0	0	0
22.05048	-0.0278875	-0.1269752	0	0	0	0
22.06705	-0.0278875	-0.1269752	0	0	0	0
22.08397	-0.0278875	-0.1269752	0	0	0	0
22.10018	-0.0278875	-0.1269752	0	0	0	0
22.1171	-0.0278875	-0.1269752	0	0	0	0
22.13331	-0.02786121	-0.1269949	0.001621707	-0.001214012	0.04894604	-0.03664105
22.14988	-0.02786121	-0.1269949	0	0	-0.0494758	0.03703763
22.16645	-0.02786121	-0.1269949	0	0	0	0
22.18301	-0.02786121	-0.1269949	0	0	0	0
22.19958	-0.02786121	-0.1269949	0	0	0	0
22.21614	-0.02786121	-0.1269949	0	0	0	0
22.23725	-0.02783491	-0.1270146	0.00124581	-0.0009326146	0.03307156	-0.0247574
22.25382	-0.02783491	-0.1270146	0	0	-0.03306821	0.02475489
22.27042	-0.02783491	-0.1270146	0	0	0	0
22.28695	-0.02783491	-0.1270146	0	0	0	0
22.30352	-0.02783491	-0.1270146	0	0	0	0
22.32008	-0.02786121	-0.1269949	-0.001587167	0.001188155	-0.0479008	0.03585858
22.33665	-0.02786121	-0.1269949	0	0	0.0479008	-0.03585858
22.35322	-0.02786121	-0.1269949	0	0	0	0
22.36991	-0.02786121	-0.1269949	0	0	0	0
22.38635	-0.02786121	-0.1269949	0	0	0	0
22.40299	-0.02786121	-0.1269949	0	0	0	0
22.41999	-0.02783491	-0.1270146	0.001547439	-0.001158414	0.04600792	-0.03444158
22.43605	-0.02783491	-0.1270146	0	0	-0.04680958	0.0350417
22.45262	-0.02783491	-0.1270146	0	0	0	0
22.4692	-0.02780862	-0.1270343	0.001585889	-0.001187198	0.0478402	-0.03581321
22.48575	-0.02780862	-0.1270343	0	0	-0.04786498	0.03583177
22.50232	-0.02780862	-0.1270343	0	0	0	0
22.51888	-0.02780862	-0.1270343	0	0	0	0
22.53545	-0.02780862	-0.1270343	0	0	0	0
22.55202	-0.02780862	-0.1270343	0	0	0	0
22.56859	-0.02780862	-0.1270343	0	0	0	0
22.58516	-0.02780862	-0.1270343	0	0	0	0
22.60179	-0.02780862	-0.1270343	0	0	0	0
22.61828	-0.02780862	-0.1270343	0	0	0	0
22.63485	-0.02780862	-0.1270343	0	0	0	0
22.65142	-0.02780862	-0.1270343	0	0	0	0
22.66798	-0.02780862	-0.1270343	0	0	0	0
22.68455	-0.02780862	-0.1270343	0	0	0	0
22.70136	-0.02780862	-0.1270343	0	0	0	0
22.71768	-0.02780862	-0.1270343	0	0	0	0
22.73425	-0.02780862	-0.1270343	0	0	0	0
22.75082	-0.02780862	-0.1270343	0	0	0	0
22.76739	-0.02780862	-0.1270343	0	0	0	0
22.78395	-0.02780862	-0.1270343	0	0	0	0
22.80052	-0.02780862	-0.1270343	0	0	0	0
22.81708	-0.02780862	-0.1270343	0	0	0	0
22.83365	-0.02780862	-0.1270343	0	0	0	0
22.85022	-0.02780862	-0.1270343	0	0	0	0
22.86678	-0.02780862	-0.1270343	0	0	0	0
22.88344	-0.02780862	-0.1270343	0	0	0	0
22.89992	-0.02780862	-0.1270343	0	0	0	0
22.91649	-0.02780862	-0.1270343	0	0	0	0
22.93305	-0.02780862	-0.1270343	0	0	0	0
22.94962	-0.02780862	-0.1270343	0	0	0	0
22.96619	-0.02780862	-0.1270343	0	0	0	0
22.98275	-0.02780862	-0.1270343	0	0	0	0
22.99966	-0.02780862	-0.1270343	0	0	0	0
23.01588	-0.02780862	-0.1270343	0	0	0	0
23.03245	-0.02780862	-0.1270343	0	0	0	0
23.04902	-0.02780862	-0.1270343	0	0	0	0
23.06566	-0.02780862	-0.1270343	0	0	0	0
23.08215	-0.02780862	-0.1270343	0	0	0	0
23.09872	-0.02780862	-0.1270343	0	0	0	0
23.11528	-0.02778232	-0.1270539	0.001587645	-0.001188428	0.04792074	-0.03587097
23.13185	-0.02778232	-0.1270539	0	0	-0.04792074	0.03587097
23.14842	-0.02778232	-0.1270539	0	0	0	0
23.16498	-0.02775603	-0.1270736	0.001587533	-0.001188428	0.04791459	-0.03586891
23.18155	-0.02775603	-0.1270736	0	0	-0.04791459	0.03586891
23.19814	-0.02775603	-0.1270736	0	0	0	0
23.21468	-0.02775603	-0.1270736	0	0	0	0
23.23125	-0.02775603	-0.1270736	0	0	0	0
23.24782	-0.02775603	-0.1270736	0	0	0	0
23.26438	-0.02775603	-0.1270736	0	0	0	0
23.28095	-0.02775603	-0.1270736	0	0	0	0
23.2976	-0.02775603	-0.1270736	0	0	0	0
23.31408	-0.02775603	-0.1270736	0	0	0	0
23.33065	-0.02775603	-0.1270736	0	0	0	0
23.34722	-0.02775603	-0.1270736	0	0	0	0
23.36378	-0.02775603	-0.1270736	0	0	0	0
23.38035	-0.02775603	-0.1270736	0	0	0	0
23.39692	-0.02775603	-0.1270736	0	0	0	0
23.41348	-0.02775603	-0.1270736	0	0	0	0
23.43005	-0.02775603	-0.1270736	0	0	0	0
23.44662	-0.02775603	-0.1270736	0	0	0	0
23.46318	-0.02775603	-0.1270736	0	0	0	0
23.47975	-0.02775603	-0.1270736	0	0	0	0
23.49697	-0.02775603	-0.1270736	0	0	0	0
23.518	-0.02772973	-0.1270933	0.00125067	-0.0009362526	0.03269727	-0.02447721
23.53458	-0.02772973	-0.1270933	0	0	-0.03325444	0.02489431
23.55139	-0.02772973	-0.1270933	0	0	0	0
23.56771	-0.02772973	-0.1270933	0	0	0	0
23.5845	-0.02772973	-0.1270933	0	0	0	0
23.60084	-0.02772973	-0.1270933	0	0	0	0
23.6174	-0.02772973	-0.1270933	0	0	0	0
23.63397	-0.02772973	-0.1270933	0	0	0	0
23.65054	-0.02772973	-0.1270933	0	0	0	0
23.6671	-0.02772973	-0.1270933	0	0	0	0
23.68367	-0.02772973	-0.1270933	0	0	0	0
23.70024	-0.02772973	-0.1270933	0	0	0	0
23.7168	-0.02772973	-0.1270933	0	0	0	0
23.73337	-0.02772973	-0.1270933	0	0	0	0
23.75002	-0.02772973	-0.1270933	0	0	0	0
23.7665	-0.02772973	-0.1270933	0	0	0	0
23.7835	-0.02772973	-0.1270933	0	0	0	0
23.79971	-0.02772973	-0.1270933	0	0	0	0
23.81625	-0.02772973	-0.1270933	0	0	0	0
23.83284	-0.02772973	-0.1270933	0	0	0	0
23.84933	-0.02772973	-0.1270933	0	0	0	0
23.8659	-0.02772973	-0.1270933	0	0	0	0
23.88278	-0.02772973	-0.1270933	0	0	0	0
23.89903	-0.02772973	-0.1270933	0	0	0	0
23.9156	-0.02772973	-0.1270933	0	0	0	0
23.93217	-0.02772973	-0.1270933	0	0	0	0
23.94873	-0.02772973	-0.1270933	0	0	0	0
23.9653	-0.02772973	-0.1270933	0	0	0	0
23.98187	-0.02772973	-0.1270933	0	0	0	0
23.99844	-0.02772973	-0.1270933	0	0	0	0
24.015	-0.02772973	-0.1270933	0	0	0	0
24.03157	-0.02772973	-0.1270933	0	0	0	0
24.04813	-0.02772973	-0.1270933	0	0	0	0
24.0647	-0.02772973	-0.1270933	0	0	0	0
24.08127	-0.02772973	-0.1270933	0	0	0	0
24.09783	-0.02772973	-0.1270933	0	0	0	0
24.1144	-0.02772973	-0.1270933	0	0	0	0
24.13097	-0.02772973	-0.1270933	0	0	0	0
24.14753	-0.02770344	-0.127113	0.001587645	-0.001188428	0.04792626	-0.0358751
24.1641	-0.02770344	-0.127113	0	0	-0.04792074	0.03587097
24.18095	-0.02770344	-0.127113	0	0	0	0
24.19737	-0.02770344	-0.127113	0	0	0	0
24.2138	-0.02770344	-0.127113	0	0	0	0
24.23037	-0.02770344	-0.127113	0	0	0	0
24.24693	-0.02770344	-0.127113	0	0	0	0
24.2635	-0.02770344	-0.127113	0	0	0	0
24.28007	-0.02770344	-0.127113	0	0	0	0
24.29663	-0.02770344	-0.127113	0	0	0	0
24.3132	-0.02770344	-0.127113	0	0	0	0
24.32977	-0.02770344	-0.127113	0	0	0	0
24.34634	-0.02770344	-0.127113	0	0	0	0
24.36347	-0.02770344	-0.127113	0	0	0	0
24.3799	-0.02770344	-0.127113	0	0	0	0
24.39603	-0.02772973	-0.1270933	-0.001629875	0.001220039	-0.05005411	0.0374679
24.41261	-0.02772973	-0.1270933	0	0	0.04983517	-0.03730402
24.42917	-0.02772973	-0.1270933	0	0	0	0
24.44574	-0.02772973	-0.1270933	0	0	0	0
24.46231	-0.02772973	-0.1270933	0	0	0	0
24.47942	-0.02772973	-0.1270933	0	0	0	0
24.49549	-0.02772973	-0.1270933	0	0	0	0
24.66455	-0.02772973	-0.1270933	0	0	0	0
24.68409	-0.02772973	-0.1270933	0	0	0	0
24.70375	-0.02775603	-0.1270736	-0.001337161	0.001001	-0.03410643	0.02553211
24.72032	-0.02775603	-0.1270736	0	0	0.03690165	-0.02762461
24.73689	-0.02775603	-0.1270736	0	0	0	0
24.75345	-0.02775603	-0.1270736	0	0	0	0
24.77002	-0.02775603	-0.1270736	0	0	0	0
24.78658	-0.02775603	-0.1270736	0	0	0	0
24.8052	-0.02775603	-0.1270736	0	0	0	0
24.83077	-0.02775603	-0.1270736	0	0	0	0
24.84734	-0.02775603	-0.1270736	0	0	0	0
24.8639	-0.02775603	-0.1270736	0	0	0	0
24.88047	-0.02775603	-0.1270736	0	0	0	0
24.89704	-0.02775603	-0.1270736	0	0	0	0
24.9136	-0.02775603	-0.1270736	0	0	0	0
24.93017	-0.02775603	-0.1270736	0	0	0	0
24.94674	-0.02775603	-0.1270736	0	0	0	0
24.9633	-0.02775603	-0.1270736	0	0	0	0
24.97987	-0.02775603	-0.1270736	0	0	0	0
24.99657	-0.02775603	-0.1270736	0	0	0	0
25.01775	-0.02775603	-0.1270736	0	0	0	0
25.03432	-0.02775603	-0.1270736	0	0	0	0
25.05089	-0.02775603	-0.1270736	0	0	0	0
25.06745	-0.02775603	-0.1270736	0	0	0	0
25.08402	-0.02775603	-0.1270736	0	0	0	0
25.10059	-0.02775603	-0.1270736	0	0	0	0
25.11716	-0.02775603	-0.1270736	0	0	0	0
25.13372	-0.02775603	-0.1270736	0	0	0	0
25.15029	-0.02775603	-0.1270736	0	0	0	0
25.16686	-0.02775603	-0.1270736	0	0	0	0
25.18342	-0.02775603	-0.1270736	0	0	0	0
25.19999	-0.02775603	-0.1270736	0	0	0	0
25.21656	-0.02775603	-0.1270736	0	0	0	0
25.23313	-0.02775603	-0.1270736	0	0	0	0
25.24985	-0.02775603	-0.1270736	0	0	0	0
25.26626	-0.02775603	-0.1270736	0	0	0	0
25.28283	-0.02775603	-0.1270736	0	0	0	0
25.29958	-0.02775603	-0.1270736	0	0	0	0
25.31596	-0.02775603	-0.1270736	0	0	0	0
25.33253	-0.02775603	-0.1270736	0	0	0	0
25.34909	-0.02780862	-0.1270343	-0.003174812	0.002376583	-0.09582154	0.07172955
25.36566	-0.02780862	-0.1270343	0	0	0.09582154	-0.07172955
25.38223	-0.02780862	-0.1270343	0	0	0	0
25.39879	-0.02815046	-0.1265422	-0.02063328	0.02970027	-0.6227137	0.896356
25.41536	-0.02815046	-0.1265422	0	0	0.6227137	-0.896356
25.43193	-0.02815046	-0.1265422	0	0	0	0
25.44887	-0.01123637	-0.1112191	0.9981824	0.9042929	29.78402	26.98252
25.46595	-0.01123637	-0.1112191	0	0	-29.34315	-26.58312
25.48165	-0.01123637	-0.1112191	0	0	0	0
25.49819	0.03884887	-0.0705362	3.027333	2.45902	93.87795	76.2545
25.51498	0.03884887	-0.0705362	0	0	-90.82138	-73.77174
26.13	0.03884887	-0.0705362	0	0	0	0
26.16079	0.09875663	0.03189857	1.94603	3.327467	3.013338	5.152431
26.17736	0.09875663	0.03189857	0	0	-41.09393	-70.26547
26.19392	0.09875663	0.03186127	0	-0.002252291	0	-0.06797818
26.21049	0.09875663	0.03186127	0	0	0	0.06798209
26.22706	0.09875663	0.03186127	0	0	0	0
26.24366	0.09873058	0.03184262	-0.001569592	-0.00112367	-0.04732406	-0.03387927
26.26019	0.09873058	0.03184262	0	0	0.04737582	0.03391632
26.27675	0.09873058	0.03184262	0	0	0	0
26.30182	0.09870452	0.03186127	-0.001039962	0.0007442954	-0.02498234	0.01787973
26.32738	0.09870452	0.03186127	0	0	0.02054098	-0.01470107
26.34395	0.09870452	0.03186127	0	0	0	0
26.36664	0.09870452	0.03186127	0	0	0	0
26.38321	0.09870452	0.03186127	0	0	0	0
26.39978	0.09870452	0.03186127	0	0	0	0
26.41634	0.09870452	0.03186127	0	0	0	0
26.43291	0.09870452	0.03186127	0	0	0	0
26.45089	0.09870452	0.03186127	0	0	0	0
26.46749	0.09870452	0.03186127	0	0	0	0
26.48402	0.09870452	0.03186127	0	0	0	0
26.50059	0.09867845	0.03187992	-0.001573476	0.001125903	-0.04755054	0.03402488
26.51715	0.09867845	0.03187992	0	0	0.04749032	-0.03398178
26.53372	0.09867845	0.03187992	0	0	0	0
26.5503	0.09867845	0.03187992	0	0	0	0
26.56685	0.09867845	0.03187992	0	0	0	0
26.58368	0.09867845	0.03187992	0	0	0	0
26.59999	0.09852209	0.03202913	-0.009587238	0.009148693	-0.2893434	0.2761081
26.61656	0.09852209	0.03202913	0	0	0.2916095	-0.2782706
26.63312	0.09852209	0.03202913	0	0	0	0
26.64969	0.09839179	0.03208508	-0.007866928	0.003377935	-0.2374517	0.101958
26.66626	0.09839179	0.03208508	0	0	0.237438	-0.1019521
26.68282	0.09839179	0.03208508	0	0	0	0
26.69939	0.09836572	0.03210374	-0.001573113	0.001125869	-0.04747666	0.03397879
26.71596	0.09836572	0.03210374	0	0	0.04747666	-0.03397879
26.73252	0.09836572	0.03210374	0	0	0	0
26.75451	0.09836572	0.03210374	0	0	0	0
26.77108	0.09836572	0.03210374	0	0	0	0
26.78765	0.09833966	0.03212238	-0.001573113	0.001125644	-0.04747392	0.03397005
26.93399	0.09833966	0.03212238	0	0	0.00965642	-0.006909668
26.95055	0.09833966	0.03212238	0	0	0	0
26.96724	0.0977402	0.03255132	-0.0359192	0.02570134	-1.080064	0.7728208
26.98401	0.0977402	0.03255132	0	0	1.073599	-0.7681947
27.17779	0.0977402	0.03255132	0	0	0	0
27.20475	0.09760987	0.03253267	-0.004832942	-0.0006915649	-0.02189415	-0.00313292
27.22132	0.09760987	0.03253267	0	0	0.1110122	0.01588518
27.23788	0.09721886	0.03217833	-0.02360663	-0.02139284	-0.7124906	-0.6456743
27.25446	0.09721886	0.03217833	0	0	0.7124086	0.6456
27.27108	0.09721886	0.03217833	0	0	0	0
27.28759	0.08753887	0.02390688	-0.5864462	-0.5011121	-17.70204	-15.12621
27.30415	0.08753887	0.02390688	0	0	17.73165	15.1515
27.32072	0.08753887	0.02390688	0	0	0	0
27.33729	0.05510206	-0.02639221	-1.958115	-3.036409	-59.09944	-91.64428
27.35386	0.05510206	-0.02639221	0	0	59.09604	91.639
27.37042	0.05510206	-0.02639221	0	0	0	0
27.38699	0.0171036	-0.1074857	-2.29412	-4.895941	-69.24464	-147.7768
27.40374	0.0171036	-0.1074857	0	0	68.85616	146.9477
27.42023	0.0171036	-0.1074857	0	0	0	0
27.43669	-0.008210341	-0.1345058	-1.53858	-1.642282	-46.69788	-49.84536
27.45325	-0.008210341	-0.1345058	0	0	46.59538	49.73595
27.46982	-0.008210341	-0.1345058	0	0	0	0
27.48639	-0.01057855	-0.136481	-0.1429949	-0.119265	-4.316092	-3.59984
27.50295	-0.01057855	-0.136481	0	0	4.316092	3.59984
27.51952	-0.01057855	-0.136481	0	0	0	0
27.53609	-0.01052593	-0.136481	0.003177258	0	0.09590088	0
27.55265	-0.01052593	-0.136481	0	0	-0.09589536	0
27.56922	-0.01052593	-0.136481	0	0	0	0
27.58579	-0.01055224	-0.1364613	-0.001587687	0.00119224	-0.04790821	0.03597567
27.60235	-0.01055224	-0.1364613	0	0	0.04791924	-0.03598395
27.97225	-0.01055224	-0.1364613	0	0	0	0
27.99747	-0.01049961	-0.1365008	0.002086262	-0.001566635	0.00528009	-0.003964974
28.01404	-0.01049961	-0.1365008	0	0	-0.04992024	0.03748656
28.03077	-0.01049961	-0.1365008	0	0	0	0
28.04717	-0.01049961	-0.1365008	0	0	0	0
28.06374	-0.01049961	-0.1365008	0	0	0	0
28.08077	-0.01049961	-0.1365008	0	0	0	0
28.09687	-0.01049961	-0.1365008	0	0	0	0
28.11344	-0.01049961	-0.1365008	0	0	0	0
28.13001	-0.0104733	-0.136481	0.001588235	0.001192652	0.04793303	0.03599431
28.14657	-0.0104733	-0.136481	0	0	-0.04793303	-0.03599431
28.16314	-0.0104733	-0.136481	0	0	0	0
28.17971	-0.01044699	-0.1365008	0.001588474	-0.001192789	0.047943	-0.03600052
28.19627	-0.01044699	-0.1365008	0	0	-0.047943	0.03600052
28.21284	-0.01044699	-0.1365008	0	0	0	0
28.22941	-0.01044699	-0.1365008	0	0	0	0
28.24597	-0.01044699	-0.1365008	0	0	0	0
28.26254	-0.01044699	-0.1365008	0	0	0	0
28.27928	-0.0104733	-0.136481	-0.001572361	0.00118069	-0.04721479	0.0354537
28.29567	-0.0104733	-0.136481	0	0	0.04745669	-0.03563535
28.31224	-0.0104733	-0.136481	0	0	0	0
28.32881	-0.01044699	-0.1364613	0.001588291	0.001192652	0.04793473	0.03599431
28.34538	-0.01044699	-0.1364613	0	0	-0.04793473	-0.03599431
28.36213	-0.01044699	-0.1364613	0	0	0	0
28.37851	-0.0104733	-0.1364415	-0.001606229	0.001206121	-0.04847887	0.0364029
28.39507	-0.0104733	-0.1364415	0	0	0.04874828	-0.0366052
28.41164	-0.0104733	-0.1364415	0	0	0	0
28.43253	-0.0104733	-0.1364415	0	0	0	0
28.44909	-0.0104733	-0.1364415	0	0	0	0
28.46566	-0.01044699	-0.1364613	0.001588291	-0.001192652	0.04793473	-0.03599431
28.48223	-0.01044699	-0.1364613	0	0	-0.04793473	0.03599431
28.4988	-0.01044699	-0.1364613	0	0	0	0
28.51562	-0.01044699	-0.1364613	0	0	0	0
28.53193	-0.01044699	-0.1364613	0	0	0	0
28.54849	-0.01044699	-0.1364613	0	0	0	0
28.56515	-0.01044699	-0.1364613	0	0	0	0
28.58163	-0.01044699	-0.1364613	0	0	0	0
28.59819	-0.01044699	-0.1364613	0	0	0	0
28.61476	-0.01044699	-0.1364613	0	0	0	0
28.63133	-0.01044699	-0.1364613	0	0	0	0
28.6479	-0.01044699	-0.1364613	0	0	0	0
28.66472	-0.01044699	-0.1364613	0	0	0	0
28.68119	-0.01044699	-0.1364613	0	0	0	0
28.69791	-0.01044699	-0.1364613	0	0	0	0
28.71444	-0.01044699	-0.1364613	0	0	0	0
28.73073	-0.01044699	-0.1364613	0	0	0	0
28.7473	-0.01044699	-0.1364613	0	0	0	0
28.76386	-0.01044699	-0.1364613	0	0	0	0
28.78043	-0.01044699	-0.1364613	0	0	0	0
28.797	-0.01044699	-0.1364613	0	0	0	0
29.16401	-0.01044699	-0.1364613	0	0	0	0
29.1806	-0.01044699	-0.1364613	0	0	0	0
29.19715	-0.01044699	-0.1364613	0	0	0	0
29.21372	-0.01044699	-0.1364613	0	0	0	0
29.23028	-0.01044699	-0.1364613	0	0	0	0
29.24685	-0.01044699	-0.1364613	0	0	0	0
29.26342	-0.01044699	-0.1364613	0	0	0	0
29.30029	-0.01044699	-0.1364613	0	0	0	0
29.3174	-0.01044699	-0.1364613	0	0	0	0
29.33447	-0.01044699	-0.1364613	0	0	0	0
29.35054	-0.01044699	-0.1364613	0	0	0	0
29.3671	-0.01044699	-0.1364613	0	0	0	0
29.38367	-0.01044699	-0.1364613	0	0	0	0
29.40029	-0.01044699	-0.1364613	0	0	0	0
29.41812	-0.01044699	-0.1364613	0	0	0	0
29.43469	-0.01044699	-0.1364613	0	0	0	0
29.45126	-0.01044699	-0.1364613	0	0	0	0
29.46782	-0.01044699	-0.1364613	0	0	0	0
29.48469	-0.01044699	-0.1364613	0	0	0	0
29.50096	-0.01044699	-0.1364613	0	0	0	0
29.51752	-0.01044699	-0.1364613	0	0	0	0
29.53409	-0.01044699	-0.1364613	0	0	0	0
29.55066	-0.01044699	-0.1364613	0	0	0	0
29.56723	-0.01042068	-0.136481	0.001588235	-0.001192652	0.04793303	-0.03599431
29.58379	-0.01042068	-0.136481	0	0	-0.04793303	0.03599431
29.6004	-0.01042068	-0.136481	0	0	0	0
29.61692	-0.01044699	-0.1364613	-0.001592084	0.001195542	-0.04805473	0.0360857
29.63349	-0.01044699	-0.1364613	0	0	0.04810735	-0.03612521
29.65006	-0.01044699	-0.1364613	0	0	0	0
29.66662	-0.01044699	-0.1364613	0	0	0	0
29.68319	-0.01044699	-0.1364613	0	0	0	0
29.70004	-0.01044699	-0.1364613	0	0	0	0
29.71671	-0.01044699	-0.1364613	0	0	0	0
29.733	-0.01044699	-0.1364613	0	0	0	0
29.74946	-0.01044699	-0.1364613	0	0	0	0
29.76603	-0.01044699	-0.1364613	0	0	0	0
29.78259	-0.01044699	-0.1364613	0	0	0	0
29.79994	-0.01044699	-0.1364613	0	0	0	0
29.81577	-0.01044699	-0.1364613	0	0	0	0
29.8323	-0.01044699	-0.1364613	0	0	0	0
29.84889	-0.01044699	-0.1364613	0	0	0	0
29.86543	-0.01044699	-0.1364613	0	0	0	0
29.882	-0.01044699	-0.1364613	0	0	0	0
29.89856	-0.01044699	-0.1364613	0	0	0	0
29.91992	-0.01042068	-0.136481	0.001232063	-0.000925192	0.03248785	-0.02439607
29.93649	-0.01042068	-0.136481	0	0	-0.03248295	0.02439239
29.95316	-0.01042068	-0.136481	0	0	0	0
29.96992	-0.01042068	-0.136481	0	0	0	0
29.98619	-0.01042068	-0.136481	0	0	0	0
30.00276	-0.01042068	-0.136481	0	0	0	0
30.01932	-0.01042068	-0.136481	0	0	0	0
30.03604	-0.01042068	-0.136481	0	0	0	0
30.05268	-0.01042068	-0.136481	0	0	0	0
30.06902	-0.01042068	-0.136481	0	0	0	0
30.08559	-0.01042068	-0.136481	0	0	0	0
30.10215	-0.01042068	-0.136481	0	0	0	0
30.11872	-0.01042068	-0.136481	0	0	0	0
30.13529	-0.01042068	-0.136481	0	0	0	0
30.15185	-0.01042068	-0.136481	0	0	0	0
30.16842	-0.01042068	-0.136481	0	0	0	0
30.18499	-0.01042068	-0.136481	0	0	0	0
30.20308	-0.01042068	-0.136481	0	0	0	0
30.21977	-0.01042068	-0.136481	0	0	0	0
30.23622	-0.01042068	-0.136481	0	0	0	0
30.25436	-0.01042068	-0.136481	0	0	0	0
30.55107	-0.01042068	-0.136481	0	0	0	0
30.57531	-0.01042068	-0.136481	0	0	0	0
30.60494	-0.01042068	-0.136481	0	0	0	0
30.62154	-0.01042068	-0.136481	0	0	0	0
30.64216	-0.01042068	-0.136481	0	0	0	0
30.65998	-0.01042068	-0.136481	0	0	0	0
30.67655	-0.01042068	-0.136481	0	0	0	0
30.69312	-0.01042068	-0.136481	0	0	0	0
30.70969	-0.01042068	-0.136481	0	0	0	0
30.72679	-0.01042068	-0.136481	0	0	0	0
30.74282	-0.01042068	-0.136481	0	0	0	0
30.75939	-0.01042068	-0.136481	0	0	0	0
30.77595	-0.01042068	-0.136481	0	0	0	0
30.79252	-0.01042068	-0.136481	0	0	0	0
30.80909	-0.01042068	-0.136481	0	0	0	0
30.82565	-0.01042068	-0.136481	0	0	0	0
30.84222	-0.01042068	-0.136481	0	0	0	0
30.8589	-0.01042068	-0.136481	0	0	0	0
30.8815	-0.01042068	-0.136481	0	0	0	0
30.89807	-0.01042068	-0.136481	0	0	0	0
30.91463	-0.01039436	-0.1365008	0.001588235	-0.001192652	0.04792751	-0.03599016
30.93123	-0.01039436	-0.1365008	0	0	-0.04789443	0.03596532
30.94777	-0.01039436	-0.1365008	0	0	0	0
30.96434	-0.01039436	-0.1365008	0	0	0	0
30.9809	-0.01039436	-0.1365008	0	0	0	0
30.99747	-0.01039436	-0.1365008	0	0	0	0
31.01403	-0.01039436	-0.1365008	0	0	0	0
31.03085	-0.01039436	-0.1365008	0	0	0	0
31.04717	-0.01039436	-0.1365008	0	0	0	0
31.06373	-0.01039436	-0.1365008	0	0	0	0
31.0803	-0.01039436	-0.1365008	0	0	0	0
31.23596	-0.01039436	-0.1365008	0	0	0	0
31.26039	-0.01039436	-0.1365008	0	0	0	0
31.27695	-0.01039436	-0.1365008	0	0	0	0
31.29352	-0.01039436	-0.1365008	0	0	0	0
31.31009	-0.01039436	-0.1365008	0	0	0	0
31.32672	-0.01039436	-0.1365008	0	0	0	0
31.34322	-0.01039436	-0.1365008	0	0	0	0
31.35979	-0.01039436	-0.1365008	0	0	0	0
31.37635	-0.01039436	-0.1365008	0	0	0	0
31.39973	-0.01039436	-0.1365008	0	0	0	0
31.42439	-0.01039436	-0.1365008	0	0	0	0
31.44923	-0.01039436	-0.1365008	0	0	0	0
31.47428	-0.01039436	-0.1365008	0	0	0	0
31.49949	-0.01039436	-0.1365008	0	0	0	0
31.51769	-0.01039436	-0.1365008	0	0	0	0
31.53426	-0.01039436	-0.1365008	0	0	0	0
31.55082	-0.01039436	-0.1365008	0	0	0	0
31.56783	-0.01039436	-0.1365008	0	0	0	0
31.58395	-0.01039436	-0.1365008	0	0	0	0
31.60052	-0.01039436	-0.1365008	0	0	0	0
31.61713	-0.01039436	-0.1365008	0	0	0	0
31.63365	-0.01039436	-0.1365008	0	0	0	0
31.6507	-0.01039436	-0.1365008	0	0	0	0
31.66679	-0.01039436	-0.1365008	0	0	0	0
31.68335	-0.01039436	-0.1365008	0	0	0	0
31.69992	-0.01039436	-0.1365008	0	0	0	0
31.71649	-0.01039436	-0.1365008	0	0	0	0
31.73785	-0.01039436	-0.1365008	0	0	0	0
31.75442	-0.01039436	-0.1365008	0	0	0	0
31.77112	-0.01039436	-0.1365008	0	0	0	0
31.78761	-0.01039436	-0.1365008	0	0	0	0
31.80415	-0.01039436	-0.1365008	0	0	0	0
31.82068	-0.01039436	-0.1365008	0	0	0	0
31.83725	-0.01039436	-0.1365008	0	0	0	0
31.85428	-0.01039436	-0.1365008	0	0	0	0
31.87039	-0.01039436	-0.1365008	0	0	0	0
31.88695	-0.01039436	-0.1365008	0	0	0	0
31.90358	-0.01039436	-0.1365008	0	0	0	0
31.92009	-0.01039436	-0.1365008	0	0	0	0
31.93666	-0.01039436	-0.1365008	0	0	0	0
31.95386	-0.01039436	-0.1365008	0	0	0	0
31.97154	-0.01039436	-0.1365008	0	0	0	0
31.98811	-0.01039436	-0.1365008	0	0	0	0
32.00467	-0.01039436	-0.1365008	0	0	0	0
32.02124	-0.01039436	-0.1365008	0	0	0	0
32.03781	-0.01039436	-0.1365008	0	0	0	0
32.05437	-0.01039436	-0.1365008	0	0	0	0
32.07094	-0.01039436	-0.1365008	0	0	0	0
32.08751	-0.01039436	-0.1365008	0	0	0	0
32.10408	-0.01039436	-0.1365008	0	0	0	0
32.12064	-0.01039436	-0.1365008	0	0	0	0
32.13721	-0.01039436	-0.1365008	0	0	0	0
32.15418	-0.01039436	-0.1365008	0	0	0	0
32.17034	-0.01039436	-0.1365008	0	0	0	0
32.18727	-0.01039436	-0.1365008	0	0	0	0
32.20418	-0.01039436	-0.1365008	0	0	0	0
32.22004	-0.01039436	-0.1365008	0	0	0	0
32.23679	-0.01039436	-0.1365008	0	0	0	0
32.25318	-0.01039436	-0.1365008	0	0	0	0
32.26974	-0.01042068	-0.136481	-0.001588601	0.001192927	-0.04819933	0.03619428
32.28636	-0.01042068	-0.136481	0	0	0.04787793	-0.03595293
32.30294	-0.01042068	-0.136481	0	0	0	0
32.31944	-0.01042068	-0.136481	0	0	0	0
32.33601	-0.01042068	-0.136481	0	0	0	0
32.35291	-0.01042068	-0.136481	0	0	0	0
32.36914	-0.01042068	-0.136481	0	0	0	0
32.62352	-0.01042068	-0.136481	0	0	0	0
32.65441	-0.01042068	-0.136481	0	0	0	0
32.67097	-0.006473594	-0.1309151	0.2382463	0.3359627	5.020485	7.07963
32.68761	-0.006473594	-0.1309151	0	0	-7.176243	-10.11957
32.70415	-0.006473594	-0.1309151	0	0	0	0
32.72068	0.03396062	-0.08335771	2.446247	2.877193	73.96411	86.99412
32.73725	0.03396062	-0.08335771	0	0	-73.91296	-86.93395
32.75381	0.03396062	-0.08335771	0	0	0	0
32.77043	0.07938544	-0.02709448	2.734293	3.386697	82.40727	102.0697
32.78695	0.07938544	-0.02709448	0	0	-82.52112	-102.2107
32.80354	0.07938544	-0.02709448	0	0	0	0
32.82008	0.09101104	-0.01536634	0.7025312	0.7087283	21.20243	21.38946
32.83665	0.09101104	-0.01536634	0	0	-21.2122	-21.39932
32.85328	0.09101104	-0.01536634	0	0	0	0
33.30178	0.08829614	0.01737703	-0.006053169	0.07300489	-0.01301393	0.1569559
33.34858	0.08829614	0.01737703	0	0	0.01222112	-0.1473941
33.42402	0.05473475	0.04152887	-0.444901	0.3201648	-3.639852	2.619352
33.44084	0.05473475	0.04152887	0	0	4.822333	-3.470303
33.45737	0.05268803	0.04413242	-0.1238251	0.1575132	-3.712685	4.722767
33.47372	0.05268803	0.04413242	0	0	3.766099	-4.790713
33.49028	0.05268803	0.04413242	0	0	0	0
33.50685	0.05287173	0.04441126	0.01108802	0.01683114	0.3346371	0.5079649
33.524	0.05287173	0.04441126	0	0	-0.3288447	-0.4991722
33.53999	0.05287173	0.04441126	0	0	0	0
33.55655	0.05287173	0.04441126	0	0	0	0
33.57312	0.05287173	0.04441126	0	0	0	0
33.58968	0.05287173	0.04441126	0	0	0	0
33.60625	0.05287173	0.04441126	0	0	0	0
33.62282	0.05287173	0.04441126	0	0	0	0
33.63975	0.05287173	0.04441126	0	0	0	0
33.65599	0.05195321	0.04524767	-0.05657546	0.05151803	-1.705683	1.553208
33.67252	0.05195321	0.04524767	0	0	1.726734	-1.572377
33.68908	0.05195321	0.04524767	0	0	0	0
33.70594	0.03164732	0.05973531	-1.204313	0.8592413	-36.02688	25.70409
33.72252	0.03164732	0.05973531	0	0	36.02277	-25.70116
33.73941	0.03164732	0.05973531	0	0	0	0
33.75564	0.02757196	0.06260425	-0.2511361	0.1767925	-7.581048	5.336836
33.77221	0.02757196	0.06260425	0	0	7.656876	-5.390217
33.78878	0.02757196	0.06260425	0	0	0	0
33.81419	0.02759825	0.06258574	0.001034758	-0.0007282441	0.02465063	-0.01734868
33.83086	0.02759825	0.06258574	0	0	-0.02459029	0.01730621
33.84733	0.02762455	0.06256724	0.001596356	-0.001123115	0.04817258	-0.03389177
33.8639	0.02762455	0.06256724	0	0	-0.04831719	0.03399351
33.88047	0.02762455	0.06256724	0	0	0	0
33.89703	0.02765085	0.06254873	0.001587645	-0.001117357	0.04791522	-0.03372189
33.91359	0.02765085	0.06254873	0	0	-0.04792626	0.03372965
33.93016	0.02765085	0.06254873	0	0	0	0
33.94673	0.02765085	0.06251173	0	-0.002233814	0	-0.06741662
33.9633	0.02765085	0.06251173	0	0	0	0.06741662
33.98	0.02765085	0.06251173	0	0	0	0
33.99654	0.02772973	0.06245622	0.004769301	-0.003356258	0.1434917	-0.1009782
34.01319	0.02772973	0.06245622	0	0	-0.1436731	0.1011058
34.02957	0.02772973	0.06245622	0	0	0	0
34.04613	0.02809787	0.06212315	0.02222568	-0.02010882	0.6747341	-0.6104698
34.0627	0.02809787	0.06212315	0	0	-0.6707724	0.6068854
34.07927	0.02809787	0.06212315	0	0	0	0
34.09583	0.02812416	0.06210464	0.001587533	-0.001117357	0.04791734	-0.03372577
34.1124	0.02812416	0.06210464	0	0	-0.04791734	0.03372577
34.12897	0.02812416	0.06210464	0	0	0	0
34.14553	0.02812416	0.06210464	0	0	0	0
34.1621	0.02812416	0.06210464	0	0	0	0
34.17867	0.02812416	0.06210464	0	0	0	0
34.19532	0.02809787	0.06208614	-0.001579168	-0.001111245	-0.04753897	-0.03345272
34.2118	0.02809787	0.06208614	0	0	0.04766486	0.03354131
34.22847	0.02809787	0.06208614	0	0	0	0
34.24493	0.02809787	0.06208614	0	0	0	0
34.26245	0.02809787	0.06208614	0	0	0	0
34.27854	0.02809787	0.06208614	0	0	0	0
34.29467	0.02812416	0.06210464	0.001630337	0.001147253	0.05060184	0.03560804
34.3112	0.02812416	0.06210464	0	0	-0.0499221	-0.03512972
34.32776	0.02812416	0.06210464	0	0	0	0
34.3444	0.02812416	0.06210464	0	0	0	0
34.36089	0.02812416	0.06210464	0	0	0	0
34.37746	0.02812416	0.06210464	0	0	0	0
34.39402	0.02825564	0.06201212	0.007935835	-0.005584822	0.2395315	-0.1685697
34.41059	0.02825564	0.06201212	0	0	-0.239504	0.1685503
34.72559	0.02825564	0.06201212	0	0	0	0
34.74803	0.03661521	0.06541567	0.372499	0.151661	1.103908	0.4494503
34.76868	0.03661521	0.06541567	0	0	-8.644509	-3.519567
34.78562	0.06053123	0.06602579	1.4114	0.03600574	37.54339	0.9577563
34.80181	0.06053123	0.06602579	0	0	-42.59615	-1.086655
34.81838	0.06053123	0.06602579	0	0	0	0
34.83495	0.08032679	0.06617368	1.195138	0.008928957	36.06933	0.2694765
34.85173	0.08032679	0.06617368	0	0	-35.84237	-0.2677809
34.86808	0.08032679	0.06617368	0	0	0	0
34.88475	0.08043137	0.06621066	0.006275124	0.002218668	0.19004	0.06719159
34.90121	0.08043137	0.06621066	0	0	-0.1893836	-0.06695952
34.91778	0.08043137	0.06621066	0	0	0	0
34.93434	0.08050981	0.0661552	0.004735721	-0.003348471	0.1429573	-0.1010803
34.95091	0.08050981	0.0661552	0	0	-0.1429408	0.1010687
34.96762	0.08050981	0.0661552	0	0	0	0
34.98404	0.08050981	0.0661552	0	0	0	0
35.00061	0.08050981	0.0661552	0	0	0	0
35.01718	0.08050981	0.0661552	0	0	0	0
35.03425	0.08050981	0.0661552	0	0	0	0
35.05031	0.08050981	0.0661552	0	0	0	0
35.06688	0.08050981	0.0661552	0	0	0	0
35.08344	0.08053596	0.06613671	0.001578424	-0.001116007	0.04764241	-0.03368504
35.10001	0.08053596	0.06613671	0	0	-0.04764241	0.03368504
35.11659	0.08053596	0.06613671	0	0	0	0
35.13314	0.08053596	0.06613671	0	0	0	0
35.14971	0.08053596	0.06613671	0	0	0	0
35.16681	0.08053596	0.06613671	0	0	0	0
35.18284	0.08053596	0.06613671	0	0	0	0
35.19941	0.08053596	0.06613671	0	0	0	0
35.21598	0.08053596	0.06613671	0	0	0	0
35.23255	0.08069283	0.06598882	0.009468812	-0.008926901	0.2857693	-0.2694144
35.24911	0.08069283	0.06598882	0	0	-0.2857693	0.2694144
35.2663	0.08069283	0.06598882	0	0	0	0
35.28225	0.08795668	0.06084611	0.4554355	-0.322442	13.74507	-9.731318
35.29882	0.08795668	0.06084611	0	0	-14.0063	9.916263
35.31538	0.08795668	0.06084611	0	0	0	0
35.33197	0.09466358	0.05601187	0.4043638	-0.2914599	12.1967	-8.791216
35.34851	0.09466358	0.05601187	0	0	-12.20513	8.79729
35.36593	0.09466358	0.05601187	0	0	0	0
35.38165	0.09466358	0.0559748	0	-0.002358683	0	-0.07119339
35.39822	0.09466358	0.0559748	0	0	0	0.07305229
35.41478	0.09466358	0.0559748	0	0	0	0
35.43135	0.09463751	0.05595626	-0.001574013	-0.001118673	-0.04750927	-0.03376552
35.44821	0.09463751	0.05595626	0	0	0.04708102	0.03346115
35.46466	0.09463751	0.05595626	0	0	0	0
35.48105	0.09455926	0.05590066	-0.00477572	-0.003393526	-0.1454375	-0.1033449
35.49762	0.09455926	0.05590066	0	0	0.1449157	0.102974
35.51419	0.09455926	0.05590066	0	0	0	0
35.53075	0.09408978	0.05552997	-0.02833808	-0.02237504	-0.8552449	-0.6752801
35.54732	0.09408978	0.05552997	0	0	0.8552449	0.6752801
35.56389	0.09408978	0.05552997	0	0	0	0
35.58046	0.08618074	0.04935274	-0.4773904	-0.3728584	-14.40767	-11.25289
35.59702	0.08618074	0.04935274	0	0	14.40767	11.25289
35.61359	0.08618074	0.04935274	0	0	0	0
35.63015	0.06792168	0.02797963	-1.102373	-1.290381	-33.27352	-38.94825
35.64672	0.06792168	0.02797963	0	0	33.26969	38.94377
35.66329	0.06792168	0.02797963	0	0	0	0
35.67986	0.05704331	0.0006314352	-0.6567706	-1.65112	-19.82366	-49.83665
35.69644	0.05704331	0.0006314352	0	0	19.81225	49.80797
35.71299	0.05704331	0.0006314352	0	0	0	0
35.72956	0.03243599	-0.01988949	-1.485643	-1.23893	-44.86262	-37.41253
35.74612	0.03243599	-0.01988949	0	0	44.84196	37.3953
35.76269	0.03243599	-0.01988949	0	0	0	0
35.77925	0.01126268	-0.03517259	-1.278318	-0.9227022	-38.58414	-27.85041
35.79634	0.01126268	-0.03517259	0	0	37.98495	27.41792
35.81314	0.01126268	-0.03517259	0	0	0	0
35.82895	0.004394709	-0.04018224	-0.4343541	-0.316828	-13.32046	-9.716256
35.84575	0.004394709	-0.04018224	0	0	13.32046	9.716256
35.86209	0.004394709	-0.04018224	0	0	0	0
35.87865	0.004368393	-0.04035383	-0.001588404	-0.01035678	-0.04827156	-0.3147424
35.89522	0.004368393	-0.04035383	0	0	0.04793812	0.3125682
35.91187	0.004368393	-0.04035383	0	0	0	0
35.92836	0.006999886	-0.0426425	0.159609	-0.138816	4.817008	-4.189476
35.94493	0.006999886	-0.0426425	0	0	-4.828125	4.199145
35.96162	0.006999886	-0.0426425	0	0	0	0
35.97812	0.01949753	-0.05179577	0.7578492	-0.5550483	22.83513	-16.72443
35.99463	0.01949753	-0.05179577	0	0	-22.96447	16.81916
36.01119	0.01949753	-0.05179577	0	0	0	0
36.02776	0.02517889	-0.05597104	0.3430066	-0.2520777	10.35315	-7.608597
36.04432	0.02517889	-0.05597104	0	0	-10.35315	7.608597
36.06089	0.02517889	-0.05597104	0	0	0	0
36.08126	0.02499479	-0.05614354	-0.009037318	-0.008468114	-0.2446637	-0.2292539
36.09783	0.02499479	-0.05614354	0	0	0.2446384	0.2292302
36.1144	0.02502109	-0.05612437	0.001587392	0.001156899	0.04790207	0.03491127
36.13097	0.02502109	-0.05612437	0	0	-0.04790758	-0.03491529
36.14753	0.02502109	-0.05612437	0	0	0	0
36.1641	0.02502109	-0.05612437	0	0	0	0
36.18067	0.02502109	-0.05612437	0	0	0	0
36.19724	0.02502109	-0.05612437	0	0	0	0
36.2138	0.02502109	-0.05612437	0	0	0	0
36.23054	0.02502109	-0.05612437	0	0	0	0
36.24694	0.02502109	-0.05612437	0	0	0	0
36.26398	0.02499479	-0.05614354	-0.001542982	-0.001124533	-0.0461423	-0.03362875
36.28007	0.02499479	-0.05614354	0	0	0.04657264	0.03394239
36.29663	0.02499479	-0.05614354	0	0	0	0
36.31368	0.02502109	-0.05616271	0.001542982	-0.001124752	0.04590664	-0.0334635
36.32977	0.02502109	-0.05616271	0	0	-0.04656728	0.03394508
36.34634	0.02502109	-0.05616271	0	0	0	0
36.3629	0.02499479	-0.05614354	-0.001587392	0.001157124	-0.04790758	0.03492208
36.37947	0.02499479	-0.05614354	0	0	0.0479131	-0.0349261
36.39609	0.02499479	-0.05614354	0	0	0	0
36.4126	0.02502109	-0.05616271	0.001592894	-0.001161135	0.04807362	-0.03504311
36.42917	0.02502109	-0.05616271	0	0	-0.04815678	0.03510373
36.44574	0.02502109	-0.05616271	0	0	0	0
36.46245	0.02515259	-0.05625855	0.007866432	-0.00573346	0.2363482	-0.1722627
36.47887	0.02515259	-0.05625855	0	0	-0.2374094	0.1730362
36.49544	0.02515259	-0.05625855	0	0	0	0
36.512	0.02515259	-0.05625855	0	0	0	0
36.52875	0.02515259	-0.05625855	0	0	0	0
36.54514	0.02515259	-0.05625855	0	0	0	0
36.5617	0.02515259	-0.05625855	0	0	0	0
36.57836	0.02515259	-0.05625855	0	0	0	0
36.59484	0.02515259	-0.05625855	0	0	0	0
36.6114	0.02523149	-0.05631605	0.004763385	-0.003471722	0.1441576	-0.1050671
36.62797	0.02523149	-0.05631605	0	0	-0.1437758	0.1047889
36.64454	0.02523149	-0.05631605	0	0	0	0
36.6611	0.02523149	-0.05635439	0	-0.002314557	0	-0.0698615
36.67767	0.02523149	-0.05635439	0	0	0	0.0698615
36.69428	0.02523149	-0.05635439	0	0	0	0
36.7108	0.02523149	-0.05635439	0	0	0	0
36.72736	0.02523149	-0.05635439	0	0	0	0
36.74392	0.02523149	-0.05635439	0	0	0	0
36.76049	0.02528408	-0.05646941	0.003174784	-0.006942521	0.09582619	-0.2095498
36.77706	0.02528408	-0.05646941	0	0	-0.09581516	0.2095257
36.79362	0.02528408	-0.05646941	0	0	0	0
36.81044	0.02528408	-0.05915441	0	-0.1596775	0	-4.783281
36.82676	0.02528408	-0.05915441	0	0	0	4.819076
36.84373	0.02528408	-0.05915441	0	0	0	0
36.86217	0.01868204	-0.08884065	-0.3578757	-1.609195	-10.10502	-45.4374
36.87875	0.01868204	-0.08884065	0	0	10.2195	45.95216
36.89531	0.01868204	-0.08884065	0	0	0	0
36.91219	0.01092062	-0.09795204	-0.4600066	-0.5400172	-13.75633	-16.14902
36.92845	0.01092062	-0.09795204	0	0	13.88303	16.29775
36.9452	0.01092062	-0.09795204	0	0	0	0
36.96158	0.01089431	-0.09793258	-0.001606733	0.001188344	-0.04849688	0.03586844
36.9782	0.01089431	-0.09793258	0	0	0.04869874	-0.03601773
36.99472	0.01089431	-0.09793258	0	0	0	0
37.01128	0.01092062	-0.09795204	0.001588601	-0.001174934	0.04801593	-0.03551272
37.02785	0.01092062	-0.09795204	0	0	-0.04794959	0.03546365
37.04441	0.01092062	-0.09795204	0	0	0	0
37.06098	0.01092062	-0.09795204	0	0	0	0
37.07755	0.01092062	-0.09795204	0	0	0	0
37.09412	0.01092062	-0.09795204	0	0	0	0
37.11072	0.01092062	-0.09795204	0	0	0	0
37.12725	0.01092062	-0.09795204	0	0	0	0
37.14382	0.01092062	-0.09795204	0	0	0	0
37.16039	0.01094693	-0.09793258	0.001588235	0.001174663	0.04793303	0.0354514
37.17695	0.01094693	-0.09793258	0	0	-0.04793303	-0.0354514
37.19352	0.01094693	-0.09793258	0	0	0	0
37.21009	0.01092062	-0.09795204	-0.001588235	-0.001174663	-0.04793303	-0.0354514
37.2268	0.01092062	-0.09795204	0	0	0.04772424	0.03529699
37.24334	0.01092062	-0.09795204	0	0	0	0
37.25978	0.01092062	-0.09795204	0	0	0	0
37.27635	0.01092062	-0.09795204	0	0	0	0
37.2931	0.01092062	-0.09795204	0	0	0	0
37.30949	0.01092062	-0.09795204	0	0	0	0
37.32621	0.01092062	-0.09795204	0	0	0	0
37.34262	0.01092062	-0.09795204	0	0	0	0
37.35918	0.01094693	-0.0979715	0.001588601	-0.001174934	0.0481826	-0.03563599
37.37575	0.01094693	-0.0979715	0	0	-0.04794959	0.03546365
37.39232	0.01094693	-0.0979715	0	0	0	0
37.4129	0.01099956	-0.09804934	0.002557073	-0.003782437	0.06882857	-0.1018116
37.42947	0.01099956	-0.09804934	0	0	-0.06882857	0.1018116
37.44645	0.01113112	-0.09818558	0.007748434	-0.008023566	0.23095	-0.2391506
37.46262	0.01113112	-0.09818558	0	0	-0.2337944	0.2420959
37.47954	0.01113112	-0.09818558	0	0	0	0
37.49574	0.01115743	-0.09828289	0.001624518	-0.006007952	0.049045	-0.181383
37.51231	0.01115743	-0.09828289	0	0	-0.04958176	0.1833681
37.52954	0.01115743	-0.09828289	0	0	0	0
37.54567	0.01115743	-0.09828289	0	0	0	0
37.56253	0.01115743	-0.09828289	0	0	0	0
37.57879	0.01115743	-0.09828289	0	0	0	0
37.59514	0.01115743	-0.09828289	0	0	0	0
37.61171	0.01115743	-0.09828289	0	0	0	0
37.62827	0.01115743	-0.09828289	0	0	0	0
37.64906	0.01115743	-0.09832182	0	-0.001872835	0	-0.05013812
37.66563	0.01115743	-0.09832182	0	0	0	0.050133
37.68219	0.01115743	-0.09836075	0	-0.002350317	0	-0.07093272
37.69876	0.01115743	-0.09836075	0	0	0	0.07094088
37.71533	0.01115743	-0.09836075	0	0	0	0
37.7319	0.01115743	-0.09836075	0	0	0	0
37.74881	0.01115743	-0.09836075	0	0	0	0
37.76503	0.01115743	-0.09836075	0	0	0	0
37.78159	0.01115743	-0.09836075	0	0	0	0
37.79816	0.01115743	-0.09836075	0	0	0	0
37.81512	0.01115743	-0.09836075	0	0	0	0
37.83195	0.01115743	-0.09836075	0	0	0	0
38.439	0.01115743	-0.09836075	0	0	0	0
38.46294	0.01115743	-0.09836075	0	0	0	0
38.48092	0.01139424	-0.09869165	0.01317183	-0.01840529	0.3141872	-0.4390206
38.49749	0.01139424	-0.09869165	0	0	-0.381243	0.5327191
38.51405	0.01139424	-0.09869165	0	0	0	0
38.53062	0.01147318	-0.09878898	0.004764649	-0.005875115	0.143814	-0.1773317
38.54719	0.01147318	-0.09878898	0	0	-0.1437974	0.1773113
38.56376	0.01147318	-0.09878898	0	0	0	0
38.58032	0.01149949	-0.09884738	0.001588235	-0.003524889	0.04793303	-0.1063814
38.59689	0.01149949	-0.09884738	0	0	-0.04793303	0.1063814
38.61401	0.01149949	-0.09884738	0	0	0	0
38.63509	0.01155212	-0.09888632	0.002496411	-0.001847092	0.06535042	-0.04835272
38.65166	0.01155212	-0.09888632	0	0	-0.06631058	0.04906314
38.66822	0.01155212	-0.09892526	0	-0.002350226	0	-0.07092996
38.68479	0.01155212	-0.09892526	0	0	0	0.07092996
38.70136	0.01155212	-0.09892526	0	0	0	0
38.71793	0.01160474	-0.09900313	0.003176414	-0.004700452	0.09586436	-0.1418599
38.73478	0.01160474	-0.09900313	0	0	-0.0950437	0.1406455
38.75132	0.01160474	-0.09900313	0	0	0	0
38.76781	0.0135518	-0.1004831	0.1180958	-0.08976828	3.575253	-2.71766
38.78419	0.0135518	-0.1004831	0	0	-3.592679	2.730906
38.80076	0.0135518	-0.1004831	0	0	0	0
38.81755	0.03719337	-0.1180549	1.407881	-1.046417	42.20328	-31.36785
38.8339	0.03719337	-0.1180549	0	0	-42.48995	31.58092
38.85051	0.03719337	-0.1180549	0	0	0	0
38.86703	0.05922015	-0.134644	1.333531	-1.00433	40.24604	-30.31073
38.88359	0.05922015	-0.134644	0	0	-40.31101	30.35967
38.90016	0.05922015	-0.134644	0	0	0	0
38.91686	0.06553759	-0.1397239	0.378273	-0.3041673	11.37179	-9.143995
38.93329	0.06553759	-0.1397239	0	0	-11.41762	9.180845
38.94989	0.06553759	-0.1397239	0	0	0	0
38.96642	0.06553759	-0.1396843	0	0.002394415	0	0.07227191
38.98299	0.06553759	-0.1396843	0	0	0	-0.07234688
38.99955	0.06553759	-0.1396843	0	0	0	0
39.01612	0.06548518	-0.1396447	-0.003164045	0.002388552	-0.09550205	0.07209495
39.03268	0.06548518	-0.1396447	0	0	0.09550205	-0.07209495
39.04966	0.06548518	-0.1396447	0	0	0	0
39.06582	0.06548518	-0.1396447	0	0	0	0
39.08239	0.06548518	-0.1396447	0	0	0	0
39.0993	0.06548518	-0.1396447	0	0	0	0
39.11564	0.06548518	-0.1396447	0	0	0	0
39.13209	0.06548518	-0.1396447	0	0	0	0
39.14947	0.06548518	-0.1396447	0	0	0	0
39.16522	0.06535416	-0.1395458	-0.008316151	0.00627932	-0.2509819	0.1895103
39.18179	0.06535416	-0.1395458	0	0	0.2572913	-0.1942743
39.19836	0.06535416	-0.1395458	0	0	0	0
39.21492	0.06488249	-0.1391501	-0.02847029	0.02388272	-0.8592352	0.7207819
39.23149	0.06488249	-0.1391501	0	0	0.8592352	-0.7207819
39.24806	0.06488249	-0.1391501	0	0	0	0
39.26468	0.06404387	-0.1384776	-0.05045625	0.04046111	-1.520322	1.219154
39.28119	0.06404387	-0.1384776	0	0	1.522773	-1.221119
39.29823	0.06404387	-0.1384776	0	0	0	0
39.31432	0.05567923	-0.1322166	-0.5196067	0.388932	-15.68357	11.73934
39.33089	0.05567923	-0.1322166	0	0	15.90702	-11.9066
39.34776	0.05567923	-0.1322166	0	0	0	0
39.36402	0.04110841	-0.1212932	-0.8957914	0.6715553	-27.03815	20.26991
39.38059	0.04110841	-0.1212932	0	0	27.28318	-20.45361
39.39716	0.04110841	-0.1212932	0	0	0	0
39.41395	0.03519599	-0.1169568	-0.3520912	0.2582371	-10.55323	7.740146
39.43029	0.03519599	-0.1169568	0	0	10.62613	-7.793612
39.44686	0.03519599	-0.1169568	0	0	0	0
39.46343	0.03503828	-0.1169176	-0.009518955	0.002366416	-0.2872826	0.07141857
39.48	0.03503828	-0.1169176	0	0	0.2872826	-0.07141857
39.49656	0.03503828	-0.1169176	0	0	0	0
39.51313	0.03172619	-0.1192712	-0.1999643	-0.1420986	-6.03563	-4.289039
39.52969	0.03172619	-0.1192712	0	0	6.03563	4.289039
39.54657	0.03172619	-0.1192712	0	0	0	0
39.56283	0.00347367	-0.1401988	-1.737736	-1.287199	-52.44497	-38.84774
39.5794	0.00347367	-0.1401988	0	0	52.93864	39.21342
39.59596	0.00347367	-0.1401988	0	0	0	0
39.61297	-0.02709863	-0.1514265	-1.797341	-0.6600766	-53.529	-19.65861
39.62909	-0.02709863	-0.1514265	0	0	54.25011	19.92344
39.64566	-0.02709863	-0.1514265	0	0	0	0
39.66222	-0.04452319	-0.1432683	-1.051991	0.4925465	-31.7528	14.86679
39.67879	-0.04452319	-0.1432683	0	0	31.74914	-14.86508
39.69536	-0.04452319	-0.1432683	0	0	0	0
39.71223	-0.04433934	-0.143407	0.0108963	-0.008221406	0.325887	-0.2458862
39.72872	-0.04433934	-0.143407	0	0	-0.3266323	0.2464485
39.74506	-0.04433934	-0.143407	0	0	0	0
39.76163	-0.04426055	-0.1433475	0.004754672	0.003587923	0.1444777	0.1090243
39.77819	-0.04426055	-0.1433475	0	0	-0.1434798	-0.1082713
39.79494	-0.04426055	-0.1433475	0	0	0	0
39.81133	-0.04423428	-0.1433277	0.0016032	0.001208709	0.04839023	0.03648312
39.82789	-0.04423428	-0.1433277	0	0	-0.04865353	-0.03668162
39.84446	-0.04423428	-0.1433277	0	0	0	0
39.86103	-0.04420802	-0.1433475	0.001585256	-0.00119535	0.04784311	-0.03607574
39.87777	-0.04420802	-0.1433475	0	0	-0.04758563	0.03588159
39.89416	-0.04420802	-0.1433475	0	0	0	0
39.91073	-0.04420802	-0.1433475	0	0	0	0
39.9273	-0.04420802	-0.1433475	0	0	0	0
39.94416	-0.04420802	-0.1433475	0	0	0	0
39.96503	-0.04420802	-0.1433475	0	0	0	0
39.98161	-0.04420802	-0.1433475	0	0	0	0
39.99825	-0.04418176	-0.1433674	0.001577627	-0.001190493	0.0474926	-0.03583838
40.01474	-0.04418176	-0.1433674	0	0	-0.04761289	0.03592916
40.03148	-0.04418176	-0.1433674	0	0	0	0
40.04794	-0.04415549	-0.1433872	0.001596509	-0.001204571	0.04809414	-0.03628717
40.06444	-0.04415549	-0.1433872	0	0	-0.04843926	0.03654756
40.08107	-0.04415549	-0.1433872	0	0	0	0
40.09822	-0.04415549	-0.1433872	0	0	0	0
40.11414	-0.04415549	-0.1433872	0	0	0	0
40.13071	-0.04415549	-0.1433872	0	0	0	0
40.14728	-0.04415549	-0.1433872	0	0	0	0
40.16385	-0.04415549	-0.1433872	0	0	0	0
40.18071	-0.04415549	-0.1433872	0	0	0	0
40.19698	-0.04412923	-0.143407	0.001614248	-0.001218127	0.0487237	-0.03676739
40.21397	-0.04412923	-0.143407	0	0	-0.0485337	0.03662401
40.23049	-0.04412923	-0.143407	0	0	0	0
40.24667	-0.04412923	-0.143407	0	0	0	0
40.26324	-0.04412923	-0.143407	0	0	0	0
40.27981	-0.04412923	-0.143407	0	0	0	0
40.29638	-0.04410296	-0.1434268	0.001585256	-0.00119625	0.04784311	-0.03610289
40.31294	-0.04410296	-0.1434268	0	0	-0.04784311	0.03610289
40.32951	-0.04410296	-0.1434268	0	0	0	0
40.34616	-0.0439979	-0.1434664	0.006309511	-0.002380441	0.1899403	-0.07166035
41.28535	-0.0439979	-0.1434664	0	0	-0.006600978	0.002490405
41.31078	-0.0439979	-0.1434664	0	0	0	0
41.32837	-0.03185764	-0.1345651	0.6904962	0.5062793	16.05405	11.77101
41.34494	-0.03185764	-0.1345651	0	0	-20.21774	-14.82387
41.3615	-0.03185764	-0.1345651	0	0	0	0
41.37807	-0.03188393	-0.1345453	-0.00158683	0.001191752	-0.04789062	0.03596716
41.39464	-0.03188393	-0.1345453	0	0	0.04789062	-0.03596716
41.41121	-0.03188393	-0.1345453	0	0	0	0
41.42777	-0.03188393	-0.1344664	0	0.004768108	0	0.1439184
41.44434	-0.03188393	-0.1344664	0	0	0	-0.1439018
41.46091	-0.03188393	-0.1344664	0	0	0	0
41.47747	-0.03188393	-0.1344664	0	0	0	0
41.49412	-0.03188393	-0.1344664	0	0	0	0
41.5106	-0.03188393	-0.1344664	0	0	0	0
41.52717	-0.03188393	-0.1344664	0	0	0	0
41.54374	-0.03188393	-0.1344664	0	0	0	0
41.5603	-0.03188393	-0.1344664	0	0	0	0
41.57687	-0.03188393	-0.1344664	0	0	0	0
41.59344	-0.03188393	-0.1344664	0	0	0	0
41.61	-0.03188393	-0.1344664	0	0	0	0
41.62673	-0.03185764	-0.1344861	0.001571989	-0.001180607	0.04721985	-0.03546339
41.64314	-0.03185764	-0.1344861	0	0	-0.0474482	0.03563489
41.65971	-0.03185764	-0.1344861	0	0	0	0
41.67685	-0.03185764	-0.1344861	0	0	0	0
41.69284	-0.03185764	-0.1344861	0	0	0	0
41.7094	-0.03185764	-0.1344861	0	0	0	0
41.72675	-0.03185764	-0.1344861	0	0	0	0
41.74254	-0.03185764	-0.1344861	0	0	0	0
41.75932	-0.03185764	-0.1344861	0	0	0	0
41.77567	-0.03185764	-0.1344861	0	0	0	0
41.79224	-0.03185764	-0.1344861	0	0	0	0
41.80881	-0.03185764	-0.1344861	0	0	0	0
41.82558	-0.03185764	-0.1344861	0	0	0	0
41.84194	-0.03185764	-0.1344861	0	0	0	0
41.8585	-0.03185764	-0.1344861	0	0	0	0
41.87507	-0.03185764	-0.1344861	0	0	0	0
41.89164	-0.03185764	-0.1344861	0	0	0	0
41.9082	-0.03185764	-0.1344861	0	0	0	0
41.92477	-0.03188393	-0.1344664	-0.00158683	0.001191752	-0.04789062	0.03596716
41.94134	-0.03188393	-0.1344664	0	0	0.04789062	-0.03596716
41.95821	-0.03188393	-0.1344664	0	0	0	0
41.97447	-0.03185764	-0.1344861	0.001616988	-0.001214402	0.04880641	-0.03665495
41.99104	-0.03185764	-0.1344861	0	0	-0.04925443	0.03699142
42.00763	-0.03185764	-0.1344861	0	0	0	0
42.02425	-0.03185764	-0.1344861	0	0	0	0
42.04086	-0.03185764	-0.1344861	0	0	0	0
42.0573	-0.03185764	-0.1344861	0	0	0	0
42.07392	-0.03185764	-0.1344861	0	0	0	0
42.09044	-0.03185764	-0.1344861	0	0	0	0
42.107	-0.03185764	-0.1344861	0	0	0	0
42.12357	-0.03183135	-0.1345058	0.00158683	-0.001191752	0.04789613	-0.0359713
42.14026	-0.03183135	-0.1345058	0	0	-0.04770389	0.03582692
42.15701	-0.03183135	-0.1345058	0	0	0	0
42.17326	-0.03185764	-0.1345256	-0.001616988	-0.001214402	-0.04899823	-0.03679901
42.18983	-0.03185764	-0.1345256	0	0	0.04925443	0.03699142
42.2064	-0.03185764	-0.1345256	0	0	0	0
42.22297	-0.03185764	-0.1345256	0	0	0	0
42.23954	-0.03185764	-0.1345256	0	0	0	0
42.25619	-0.03185764	-0.1345256	0	0	0	0
42.27267	-0.03185764	-0.1345256	0	0	0	0
42.28923	-0.03185764	-0.1345256	0	0	0	0
42.3058	-0.03185764	-0.1345256	0	0	0	0
42.32237	-0.03185764	-0.1345256	0	0	0	0
42.75292	-0.03185764	-0.1345256	0	0	0	0
42.77949	-0.03185764	-0.1345256	0	0	0	0
42.79606	-0.06624503	-0.0133434	-2.075627	7.314571	-48.1133	169.5526
42.81263	-0.06624503	-0.0133434	0	0	62.63535	-220.7288
42.8292	-0.06624503	-0.0133434	0	0	0	0
42.84576	-0.04861955	0.03693106	1.064121	3.035271	32.11895	91.61522
42.86233	-0.04861955	0.03693106	0	0	-32.11525	-91.60468
42.87928	-0.04861955	0.03693106	0	0	0	0
42.89569	-0.05384265	0.05300832	-0.3181234	0.9792188	-9.535118	29.35014
42.91203	-0.05384265	0.05300832	0	0	9.712805	-29.89708
42.92908	-0.05384265	0.05300832	0	0	0	0
42.94516	-0.05817114	0.05825376	-0.2692025	0.3262305	-8.125483	9.846789
42.96173	-0.05817114	0.05825376	0	0	8.246063	-9.992915
42.9783	-0.05817114	0.05825376	0	0	0	0
42.99486	-0.05817114	0.05825376	0	0	0	0
43.01176	-0.05817114	0.05825376	0	0	0	0
43.02844	-0.05817114	0.05825376	0	0	0	0
43.04456	-0.05817114	0.05825376	0	0	0	0
43.06113	-0.05817114	0.05825376	0	0	0	0
43.0777	-0.05817114	0.05825376	0	0	0	0
43.09426	-0.05819736	0.05827228	-0.001583007	0.001117999	-0.04777525	0.03374127
43.11083	-0.05819736	0.05827228	0	0	0.04777525	-0.03374127
43.1274	-0.05819736	0.05827228	0	0	0	0
43.14397	-0.05819736	0.05827228	0	0	0	0
43.16053	-0.05819736	0.05827228	0	0	0	0
43.1771	-0.05819736	0.05827228	0	0	0	0
43.19386	-0.05819736	0.05823524	0	-0.00221077	0	-0.06633931
43.21023	-0.05819736	0.05823524	0	0	0	0.06672118
43.22689	-0.05819736	0.05823524	0	0	0	0
43.24337	-0.05811869	0.05817967	0.004774306	-0.003371853	0.1440888	-0.1017627
43.25993	-0.05811869	0.05817967	0	0	-0.1444714	0.1020329
43.2765	-0.05811869	0.05817967	0	0	0	0
43.60028	-0.05822359	0.05817967	-0.0003239944	0	-0.0009519524	0
43.62362	-0.05822359	0.05817967	0	0	0.0009333831	0
43.64337	-0.05819736	0.05816114	0.001327733	-0.0009378998	0.03081515	-0.02176758
43.65994	-0.05819736	0.05816114	0	0	-0.03655295	0.02582071
43.67651	-0.05819736	0.05816114	0	0	0	0
43.69865	-0.05835472	0.05805	-0.007107336	-0.005019774	-0.1836154	-0.129684
43.71618	-0.05835472	0.05805	0	0	0.1791486	0.1265292
43.73474	-0.05848585	0.05795738	-0.007064324	-0.00498958	-0.1957166	-0.1382359
43.75131	-0.05848585	0.05795738	0	0	0.2010935	0.1420337
43.76817	-0.05848585	0.05795738	0	0	0	0
43.78444	-0.05851208	0.05793886	-0.001611958	-0.001138674	-0.04865458	-0.03436921
43.80101	-0.05851208	0.05793886	0	0	0.04908981	0.03467665
43.81757	-0.05851208	0.05793886	0	0	0	0
43.83414	-0.05848585	0.05792034	0.001583372	-0.001118256	0.04779175	-0.03375293
43.8507	-0.05848585	0.05792034	0	0	-0.04779175	0.03375293
43.86727	-0.05848585	0.05792034	0	0	0	0
43.88384	-0.05848585	0.05792034	0	0	0	0
43.90041	-0.05848585	0.05792034	0	0	0	0
43.91713	-0.05848585	0.05792034	0	0	0	0
43.93354	-0.05848585	0.05792034	0	0	0	0
43.95011	-0.05848585	0.05792034	0	0	0	0
43.96667	-0.05848585	0.05792034	0	0	0	0
44.13544	-0.05845963	0.05756836	0.0001553988	-0.002085611	0.0008384833	-0.0112533
44.15201	-0.05845963	0.05756836	0	0	-0.000838466	0.01125307
44.172	-0.05848585	0.05758688	-0.001311773	0.0009266257	-0.0358762	0.02534266
44.18858	-0.05848585	0.05758688	0	0	0.0358762	-0.02534266
44.20547	-0.05848585	0.05758688	0	0	0	0
44.22646	-0.05848585	0.05758688	0	0	0	0
44.24303	-0.05848585	0.05758688	0	0	0	0
44.25959	-0.05848585	0.05758688	0	0	0	0
44.27616	-0.05848585	0.05758688	0	0	0	0
44.29273	-0.05848585	0.05758688	0	0	0	0
44.3093	-0.05848585	0.05758688	0	0	0	0
44.32586	-0.05848585	0.05758688	0	0	0	0
44.34243	-0.05848585	0.05758688	0	0	0	0
44.359	-0.05848585	0.05758688	0	0	0	0
44.37556	-0.05848585	0.05758688	0	0	0	0
44.39213	-0.05848585	0.05758688	0	0	0	0
44.40903	-0.05848585	0.05758688	0	0	0	0
44.42526	-0.05848585	0.05758688	0	0	0	0
44.44183	-0.05848585	0.05758688	0	0	0	0
44.45854	-0.05848585	0.05758688	0	0	0	0
44.47496	-0.05848585	0.05758688	0	0	0	0
44.49153	-0.05848585	0.05758688	0	0	0	0
44.50848	-0.05851208	0.05760541	-0.001546682	0.001092564	-0.04613715	0.03259092
44.52466	-0.05851208	0.05760541	0	0	0.04668432	-0.03297743
44.54123	-0.05851208	0.05760541	0	0	0	0
44.55779	-0.05853831	0.05758688	-0.001583007	-0.001118224	-0.04777525	-0.03374806
44.57436	-0.05853831	0.05758688	0	0	0.04777525	0.03374806
44.59093	-0.05853831	0.05758688	0	0	0	0
44.60749	-0.05856453	0.05756836	-0.001583372	-0.001118481	-0.04779175	-0.03375971
44.62406	-0.05856453	0.05756836	0	0	0.04779175	0.03375971
44.64098	-0.05856453	0.05756836	0	0	0	0
44.65719	-0.05859076	0.05754983	-0.001617267	-0.001142424	-0.0488092	-0.03447843
44.67376	-0.05859076	0.05754983	0	0	0.04933171	0.03484753
44.69033	-0.05859076	0.05754983	0	0	0	0
44.70689	-0.05859076	0.05754983	0	0	0	0
44.72346	-0.05859076	0.05754983	0	0	0	0
44.74003	-0.05859076	0.05754983	0	0	0	0
44.7566	-0.05859076	0.05754983	0	0	0	0
44.77316	-0.05859076	0.05754983	0	0	0	0
44.78982	-0.05859076	0.05754983	0	0	0	0
44.80835	-0.05861698	0.05749425	-0.001415483	-0.002999657	-0.0402277	-0.08524958
44.82493	-0.05861698	0.05749425	0	0	0.04031512	0.08543483
44.84148	-0.05861698	0.05749425	0	0	0	0
44.85805	-0.05856453	0.05675313	0.003166743	-0.04474464	0.09562755	-1.351174
44.87462	-0.05856453	0.05675313	0	0	-0.0955725	1.350396
44.89135	-0.05856453	0.05675313	0	0	0	0
44.90779	-0.05473475	0.05200662	0.2329903	-0.2887602	7.023574	-8.704778
44.92432	-0.05473475	0.05200662	0	0	-7.067461	8.759171
44.94089	-0.05473475	0.05200662	0	0	0	0
44.95745	-0.06910034	0.03344633	-0.8671086	-1.120302	-26.16939	-33.81077
44.97402	-0.06910034	0.03344633	0	0	26.16939	33.81077
44.99059	-0.06910034	0.03344633	0	0	0	0
45.00715	-0.08273178	0.01956747	-0.8227959	-0.8377299	-24.83489	-25.28565
45.02372	-0.08273178	0.01956747	0	0	24.83203	25.28274
45.04039	-0.08273178	0.01956747	0	0	0	0
45.05983	-0.04510098	-0.01591483	1.936151	-1.825608	53.62392	-50.56229
45.0764	-0.04510098	-0.01591483	0	0	-53.77163	50.70156
45.09296	-0.04510098	-0.01591483	0	0	0	0
45.10953	-0.001447367	-0.0475118	2.635544	-1.907636	79.55003	-57.5792
45.1261	-0.001447367	-0.0475118	0	0	-79.54087	57.57257
45.14297	-0.001447367	-0.0475118	0	0	0	0
45.15923	0.02136517	-0.06432053	1.403466	-1.034102	42.36157	-31.21286
45.17609	0.02136517	-0.06432053	0	0	-42.38109	31.22724
45.19236	0.02136517	-0.06432053	0	0	0	0
45.20893	0.02570486	-0.06772494	0.2620047	-0.2055378	7.97897	-6.259353
45.2255	0.02570486	-0.06772494	0	0	-7.907319	6.203145
45.24247	0.02570486	-0.06772494	0	0	0	0
45.25863	0.03101637	-0.07161524	0.3287013	-0.2407503	9.921369	-7.266696
45.2752	0.03101637	-0.07161524	0	0	-10.04395	7.356482
45.29197	0.03101637	-0.07161524	0	0	0	0
45.30833	0.03890142	-0.07736433	0.481935	-0.3513849	14.54483	-10.60482
45.3249	0.03890142	-0.07736433	0	0	-14.63582	10.67116
45.60498	0.03890142	-0.07736433	0	0	0	0
45.63468	0.01076274	-0.0980688	-0.9472691	-0.6970018	-3.057838	-2.249961
45.65125	0.01076274	-0.0980688	0	0	20.46995	15.06181
45.66974	0.01076274	-0.0980688	0	0	0	0
45.68637	0.01076274	-0.0980688	0	0	0	0
45.70288	0.01076274	-0.0980688	0	0	0	0
45.71944	0.01063118	-0.0979715	-0.00794306	0.005874669	-0.2402198	0.177666
45.7362	0.01063118	-0.0979715	0	0	0.2383773	-0.1763033
45.75257	0.01063118	-0.0979715	0	0	0	0
45.77049	0.01060487	-0.09795204	-0.001468534	0.001086132	-0.04282174	0.03167108
45.78706	0.01060487	-0.09795204	0	0	0.04258018	-0.03149243
45.80363	0.01060487	-0.09795204	0	0	0	0
45.82019	0.01057855	-0.09793258	-0.001588601	0.001174934	-0.04794959	0.03546365
45.83676	0.01057855	-0.09793258	0	0	0.04794959	-0.03546365
45.85333	0.01057855	-0.09793258	0	0	0	0
45.86989	0.01052593	-0.09789366	-0.003177258	0.002349867	-0.09590088	0.07092731
45.88646	0.01052593	-0.09789366	0	0	0.09588984	-0.07091914
45.90303	0.01052593	-0.09789366	0	0	0	0
45.92177	0.01049961	-0.09787419	-0.00140397	0.00103838	-0.03976257	0.02940851
45.93837	0.01049961	-0.09787419	0	0	0.03972394	-0.02937994
45.95491	0.01049961	-0.09787419	0	0	0	0
45.97187	0.01049961	-0.09787419	0	0	0	0
45.99604	0.01049961	-0.09787419	0	0	0	0
46.01262	0.01049961	-0.09787419	0	0	0	0
46.02918	0.01052593	-0.09789366	0.001588601	-0.001174934	0.04794407	-0.03545957
46.04575	0.01052593	-0.09789366	0	0	-0.04794407	0.03545957
46.06232	0.01052593	-0.09789366	0	0	0	0
46.07929	0.01052593	-0.09789366	0	0	0	0
46.09545	0.01052593	-0.09789366	0	0	0	0
46.11202	0.01052593	-0.09789366	0	0	0	0
46.12858	0.01052593	-0.09789366	0	0	0	0
46.14515	0.01052593	-0.09789366	0	0	0	0
46.16172	0.01052593	-0.09789366	0	0	0	0
46.17831	0.01049961	-0.09791312	-0.001586409	-0.001173312	-0.04785037	-0.03539027
46.19485	0.01049961	-0.09791312	0	0	0.04788342	0.03541472
46.2117	0.01049961	-0.09791312	0	0	0	0
46.22798	0.01049961	-0.09791312	0	0	0	0
46.24455	0.01049961	-0.09791312	0	0	0	0
46.26112	0.01049961	-0.09791312	0	0	0	0
46.27768	0.0104733	-0.09789366	-0.001588601	0.001174934	-0.04794959	0.03546365
46.29425	0.0104733	-0.09789366	0	0	0.04794959	-0.03546365
46.31094	0.0104733	-0.09789366	0	0	0	0
46.32738	0.01049961	-0.09791312	0.001600396	-0.001183657	0.0483056	-0.03572696
46.34394	0.01049961	-0.09791312	0	0	-0.04848424	0.03585908
46.53254	0.01049961	-0.09791312	0	0	0	0
46.5579	0.01044699	-0.09795204	-0.002074847	-0.001534535	-0.009697414	-0.007172109
46.57447	0.01044699	-0.09795204	0	0	0.04948222	0.03659654
46.59104	0.01044699	-0.09795204	0	0	0	0
46.6076	0.01044699	-0.09795204	0	0	0	0
46.62418	0.01044699	-0.09795204	0	0	0	0
46.64074	0.01044699	-0.09795204	0	0	0	0
46.65731	0.01044699	-0.09795204	0	0	0	0
46.67388	0.01044699	-0.09795204	0	0	0	0
46.69044	0.01039436	-0.09791312	-0.00317647	0.002349326	-0.09586606	0.07090281
46.70701	0.01039436	-0.09791312	0	0	0.09586606	-0.07090281
46.72358	0.01039436	-0.09791312	0	0	0	0
46.74356	0.01042068	-0.09793258	0.001316607	-0.0009737664	0.03602345	-0.02664305
46.76013	0.01042068	-0.09793258	0	0	-0.03601969	0.02664027
46.7767	0.01042068	-0.09793258	0	0	0	0
46.79326	0.01042068	-0.09793258	0	0	0	0
46.81008	0.01042068	-0.09793258	0	0	0	0
46.8264	0.01042068	-0.09793258	0	0	0	0
46.845	0.01042068	-0.09793258	0	0	0	0
46.86156	0.01042068	-0.09793258	0	0	0	0
46.87815	0.01042068	-0.09793258	0	0	0	0
46.8947	0.01042068	-0.09793258	0	0	0	0
46.91127	0.01042068	-0.09793258	0	0	0	0
46.92818	0.01042068	-0.09793258	0	0	0	0
46.9444	0.01042068	-0.09793258	0	0	0	0
46.96097	0.01042068	-0.09793258	0	0	0	0
46.97837	0.01042068	-0.09793258	0	0	0	0
46.9941	0.01042068	-0.09793258	0	0	0	0
47.01067	0.01042068	-0.09793258	0	0	0	0
47.02723	0.01042068	-0.09793258	0	0	0	0
47.0438	0.01042068	-0.09793258	0	0	0	0
47.06037	0.01042068	-0.09793258	0	0	0	0
47.86021	0.01042068	-0.09793258	0	0	0	0
47.87699	0.01039436	-0.09791312	-0.001568373	0.001159973	-0.001920567	0.001420457
47.94362	0.01039436	-0.09791312	0	0	0.01880355	-0.01390716
47.9736	0.01039436	-0.09791312	0	0	0	0
47.99017	0.01042068	-0.09793258	0.001588235	-0.001174663	0.03412115	-0.0252361
48.00673	0.01042068	-0.09793258	0	0	-0.04793303	0.0354514
48.02331	0.01042068	-0.09793258	0	0	0	0
48.03987	0.01042068	-0.09793258	0	0	0	0
48.05644	0.01042068	-0.09793258	0	0	0	0
48.07316	0.01042068	-0.09793258	0	0	0	0
48.08957	0.01039436	-0.09791312	-0.001603744	0.001186134	-0.04840668	0.03580172
48.10614	0.01039436	-0.09791312	0	0	0.04863065	-0.03596737
48.1227	0.01039436	-0.09791312	0	0	0	0
48.13927	0.01039436	-0.09791312	0	0	0	0
48.15584	0.01039436	-0.09791312	0	0	0	0
48.17241	0.01039436	-0.09791312	0	0	0	0
48.18897	0.01039436	-0.09791312	0	0	0	0
48.20565	0.01039436	-0.09791312	0	0	0	0
48.22211	0.01039436	-0.09791312	0	0	0	0
48.23867	0.01039436	-0.09791312	0	0	0	0
48.25524	0.01039436	-0.09791312	0	0	0	0
48.27187	0.01039436	-0.09791312	0	0	0	0
48.29097	0.01042068	-0.09793258	0.001377612	-0.001018886	0.03856197	-0.02852054
48.30754	0.01042068	-0.09793258	0	0	-0.0386197	0.02856324
48.32425	0.01042068	-0.09793258	0	0	0	0
48.34067	0.01042068	-0.09793258	0	0	0	0
48.35724	0.01042068	-0.09793258	0	0	0	0
48.37461	0.01042068	-0.09793258	0	0	0	0
48.39037	0.01042068	-0.09793258	0	0	0	0
48.40694	0.01042068	-0.09793258	0	0	0	0
48.42351	0.01042068	-0.09793258	0	0	0	0
48.44007	0.01042068	-0.09793258	0	0	0	0
48.45664	0.01042068	-0.09793258	0	0	0	0
48.47321	0.01042068	-0.09793258	0	0	0	0
48.48978	0.01042068	-0.09793258	0	0	0	0
48.50647	0.01042068	-0.09793258	0	0	0	0
48.52308	0.01042068	-0.09793258	0	0	0	0
48.53958	0.01042068	-0.09793258	0	0	0	0
48.55604	0.01042068	-0.09793258	0	0	0	0
48.57261	0.01042068	-0.09793258	0	0	0	0
48.58917	0.01042068	-0.09793258	0	0	0	0
48.60574	0.01042068	-0.09793258	0	0	0	0
48.62236	0.01042068	-0.09793258	0	0	0	0
48.63888	0.01042068	-0.09793258	0	0	0	0
48.65545	0.01042068	-0.09793258	0	0	0	0
48.67217	0.01042068	-0.09793258	0	0	0	0
48.68858	0.01042068	-0.09793258	0	0	0	0
48.70524	0.01042068	-0.09793258	0	0	0	0
