Time	Pos X	Pos Y	Vel X	Vel Y	Acc X	Acc Y
0.01647791	-0.0224173	-0.1805202	0.0003423555	0.002756892	-5.229761E-06	-4.211379E-05
0.03304268	-0.0224173	-0.1805202	0	0	5.229753E-06	4.211373E-05
0.05158911	-0.0224173	-0.1805202	0	0	0	0
0.06815901	-0.0224173	-0.1805202	0	0	0	0
0.08472614	-0.0224173	-0.1805202	0	0	0	0
0.1012905	-0.0224436	-0.1805001	-0.001587891	0.001215348	-0.04792693	0.03668254
0.1178588	-0.0224436	-0.1805001	0	0	0.04792522	-0.03668124
0.1344263	-0.0224436	-0.1805001	0	0	0	0
0.1509923	-0.0224436	-0.1805001	0	0	0	0
0.1675594	-0.0224436	-0.1805001	0	0	0	0
0.1841254	-0.0224436	-0.1805001	0	0	0	0
0.2006901	-0.0224436	-0.1805001	0	0	0	0
0.2172596	-0.0224436	-0.1805001	0	0	0	0
0.2338264	-0.0224436	-0.1805001	0	0	0	0
0.2506599	-0.0224436	-0.1805001	0	0	0	0
0.266959	-0.0224436	-0.1805001	0	0	0	0
0.2835262	-0.0224436	-0.1805001	0	0	0	0
0.3001853	-0.0224436	-0.1805001	0	0	0	0
0.3169873	-0.0224436	-0.1805001	0	0	0	0
0.3332264	-0.0224436	-0.1805001	0	0	0	0
0.3497927	-0.0224173	-0.1805202	0.001587702	-0.001215203	0.04839757	-0.03704277
0.3663622	-0.0224173	-0.1805202	0	0	-0.04791497	0.0366734
0.3829294	-0.0224173	-0.1805202	0	0	0	0
0.4007806	-0.0224173	-0.1805202	0	0	0	0
0.4173478	-0.0224173	-0.1805202	0	0	0	0
0.4339176	-0.0224173	-0.1805202	0	0	0	0
0.4508282	-0.02239099	-0.1805403	0.001555495	-0.001191349	0.04645981	-0.03558344
0.4670507	-0.02239099	-0.1805403	0	0	-0.04694691	0.03595651
0.4843083	-0.02239099	-0.1805403	0	0	0	0
0.5009603	-0.02239099	-0.1805806	0	-0.002418796	0	-0.07133075
0.5174434	-0.02239099	-0.1805806	0	0	0	0.07299804
0.5341048	-0.02239099	-0.1805806	0	0	0	0
0.5507115	-0.02236469	-0.1806007	0.00158385	-0.001212255	0.04760868	-0.03643897
0.5671448	-0.02236469	-0.1806007	0	0	-0.04793746	0.03669061
0.5842223	-0.02236469	-0.1806007	0	0	0	0
0.6007338	-0.02233839	-0.1806209	0.001592981	-0.001220146	0.04742567	-0.03632576
0.6169835	-0.02233839	-0.1806209	0	0	-0.04862408	0.03724368
0.6335601	-0.02233839	-0.1806209	0	0	0	0
0.650246	-0.02233839	-0.1806209	0	0	0	0
0.6668518	-0.02233839	-0.1806209	0	0	0	0
0.6831114	-0.02233839	-0.1806209	0	0	0	0
0.6996758	-0.02231209	-0.180641	0.001587891	-0.001215348	0.04837595	-0.03702622
0.7162489	-0.02231209	-0.180641	0	0	-0.04791833	0.03667597
0.7328156	-0.02231209	-0.180641	0	0	0	0
0.7493756	-0.02233839	-0.1806209	-0.001588308	0.001215667	-0.04794636	0.03669742
0.7664899	-0.02233839	-0.1806209	0	0	0.04716678	-0.03610074
0.7827444	-0.02233839	-0.1806209	0	0	0	0
0.7990758	-0.02233839	-0.1806209	0	0	0	0
0.8156485	-0.02233839	-0.1806209	0	0	0	0
0.8322156	-0.02233839	-0.1806209	0	0	0	0
0.8487784	-0.02233839	-0.1806209	0	0	0	0
0.8653471	-0.02233839	-0.1806209	0	0	0	0
0.8819577	-0.02233839	-0.1806209	0	0	0	0
0.8984758	-0.02233839	-0.1806209	0	0	0	0
0.9150473	-0.02233839	-0.1806209	0	0	0	0
0.931753	-0.02233839	-0.1806209	0	0	0	0
0.9486758	-0.02231209	-0.180641	0.001554256	-0.001189604	0.04621838	-0.03537485
0.9647491	-0.02231209	-0.180641	0	0	-0.04710421	0.03605285
0.9819561	-0.02231209	-0.180641	0	0	0	0
0.9998587	-0.02231209	-0.180641	0	0	0	0
1.016462	-0.02231209	-0.180641	0	0	0	0
1.033486	-0.02231209	-0.180641	0	0	0	0
1.049561	-0.02231209	-0.180641	0	0	0	0
1.066127	-0.02231209	-0.180641	0	0	0	0
1.082699	-0.02231209	-0.180641	0	0	0	0
1.09926	-0.02231209	-0.180641	0	0	0	0
1.115831	-0.02231209	-0.180641	0	0	0	0
1.132399	-0.02231209	-0.180641	0	0	0	0
1.164143	-0.02225948	-0.1806813	0.001657164	-0.001269307	0.03430142	-0.02627322
1.180716	-0.02225948	-0.1806813	0	0	-0.03429778	0.02627043
1.197276	-0.02220687	-0.1807216	0.003176809	-0.002432295	0.09588145	-0.07341078
1.213846	-0.02220687	-0.1807216	0	0	-0.09588939	0.07341686
1.230413	-0.02220687	-0.1807216	0	0	0	0
1.246977	-0.02220687	-0.1807216	0	0	0	0
1.263546	-0.02220687	-0.1807216	0	0	0	0
1.280112	-0.02220687	-0.1807216	0	0	0	0
1.296676	-0.02218057	-0.1807417	0.001587891	-0.001215348	0.04792799	-0.03668336
1.313246	-0.02218057	-0.1807417	0	0	-0.04792299	0.03667953
1.330049	-0.02218057	-0.1807417	0	0	0	0
1.346377	-0.02215427	-0.1808022	0.001610845	-0.003700574	0.04862081	-0.111696
1.362946	-0.02215427	-0.1808022	0	0	-0.04896632	0.1124897
1.379513	-0.02215427	-0.1808022	0	0	0	0
1.396165	-0.02215427	-0.1808022	0	0	0	0
1.412646	-0.02215427	-0.1808022	0	0	0	0
1.429213	-0.02215427	-0.1808022	0	0	0	0
1.445927	-0.02212797	-0.1808223	0.001573599	-0.0012053	0.0472814	-0.03621526
1.462346	-0.02212797	-0.1808223	0	0	-0.04749268	0.03637709
1.478922	-0.02212797	-0.1808223	0	0	0	0
1.495477	-0.02212797	-0.1808223	0	0	0	0
1.512043	-0.02212797	-0.1808223	0	0	0	0
1.528613	-0.02212797	-0.1808223	0	0	0	0
1.545177	-0.02212797	-0.1808223	0	0	0	0
1.561746	-0.02212797	-0.1808223	0	0	0	0
1.57846	-0.02212797	-0.1808223	0	0	0	0
1.594879	-0.02212797	-0.1808223	0	0	0	0
1.611447	-0.02212797	-0.1808223	0	0	0	0
1.628292	-0.02212797	-0.1808223	0	0	0	0
1.64458	-0.02212797	-0.1808223	0	0	0	0
1.661146	-0.02212797	-0.1808223	0	0	0	0
1.678098	-0.02212797	-0.1808223	0	0	0	0
1.694276	-0.02212797	-0.1808223	0	0	0	0
1.710846	-0.02212797	-0.1808223	0	0	0	0
1.727414	-0.02212797	-0.1808223	0	0	0	0
1.74398	-0.02212797	-0.1808223	0	0	0	0
1.760547	-0.02212797	-0.1808223	0	0	0	0
1.777617	-0.02212797	-0.1808223	0	0	0	0
1.793677	-0.02212797	-0.1808223	0	0	0	0
1.810246	-0.02212797	-0.1808223	0	0	0	0
1.826821	-0.02212797	-0.1808223	0	0	0	0
1.84338	-0.02212797	-0.1808223	0	0	0	0
1.859946	-0.02212797	-0.1808223	0	0	0	0
1.876513	-0.02212797	-0.1808223	0	0	0	0
1.89308	-0.02212797	-0.1808223	0	0	0	0
1.909646	-0.02212797	-0.1808223	0	0	0	0
1.926213	-0.02212797	-0.1808223	0	0	0	0
1.943096	-0.02212797	-0.1808223	0	0	0	0
1.959347	-0.02212797	-0.1808223	0	0	0	0
1.975925	-0.02212797	-0.1808223	0	0	0	0
1.992477	-0.02212797	-0.1808223	0	0	0	0
2.009047	-0.02212797	-0.1808223	0	0	0	0
2.025613	-0.02212797	-0.1808223	0	0	0	0
2.042571	-0.02212797	-0.1808223	0	0	0	0
2.058748	-0.02212797	-0.1808223	0	0	0	0
2.075315	-0.02212797	-0.1808223	0	0	0	0
2.093026	-0.02212797	-0.1808223	0	0	0	0
2.109597	-0.02212797	-0.1808223	0	0	0	0
2.126232	-0.02212797	-0.1808223	0	0	0	0
2.142802	-0.02212797	-0.1808223	0	0	0	0
2.159411	-0.02212797	-0.1808223	0	0	0	0
2.176057	-0.02212797	-0.1808223	0	0	0	0
2.192578	-0.02212797	-0.1808223	0	0	0	0
2.208996	-0.02212797	-0.1808223	0	0	0	0
2.225564	-0.02212797	-0.1808223	0	0	0	0
2.242128	-0.02212797	-0.1808223	0	0	0	0
2.258697	-0.02212797	-0.1808223	0	0	0	0
2.275348	-0.02212797	-0.1808223	0	0	0	0
2.291915	-0.02212797	-0.1808223	0	0	0	0
2.308397	-0.02212797	-0.1808223	0	0	0	0
2.324963	-0.02212797	-0.1808223	0	0	0	0
2.341531	-0.02212797	-0.1808223	0	0	0	0
2.35847	-0.02212797	-0.1808223	0	0	0	0
2.374664	-0.02212797	-0.1808223	0	0	0	0
2.391227	-0.02212797	-0.1808223	0	0	0	0
2.407797	-0.02212797	-0.1808223	0	0	0	0
2.424364	-0.02212797	-0.1808223	0	0	0	0
2.441025	-0.02212797	-0.1808223	0	0	0	0
2.457529	-0.02212797	-0.1808223	0	0	0	0
2.47406	-0.02212797	-0.1808223	0	0	0	0
2.490723	-0.02212797	-0.1808223	0	0	0	0
2.507271	-0.02212797	-0.1808223	0	0	0	0
2.523764	-0.02212797	-0.1808223	0	0	0	0
2.540331	-0.02212797	-0.1808223	0	0	0	0
2.556898	-0.02212797	-0.1808223	0	0	0	0
2.573464	-0.02212797	-0.1808223	0	0	0	0
2.59003	-0.02212797	-0.1808223	0	0	0	0
2.606597	-0.02212797	-0.1808223	0	0	0	0
2.623164	-0.02212797	-0.1808223	0	0	0	0
2.639728	-0.02212797	-0.1808223	0	0	0	0
2.656298	-0.02212797	-0.1808223	0	0	0	0
2.672864	-0.02212797	-0.1808223	0	0	0	0
2.68943	-0.02212797	-0.1808223	0	0	0	0
2.705997	-0.02212797	-0.1808223	0	0	0	0
2.722564	-0.02212797	-0.1808223	0	0	0	0
2.739131	-0.02212797	-0.1808223	0	0	0	0
2.755697	-0.02212797	-0.1808223	0	0	0	0
2.772264	-0.02212797	-0.1808223	0	0	0	0
2.788828	-0.02212797	-0.1808223	0	0	0	0
2.805562	-0.02212797	-0.1808223	0	0	0	0
2.821984	-0.02212797	-0.1808223	0	0	0	0
2.838528	-0.02231209	-0.1806813	-0.0111288	0.008521335	-0.337578	0.2584838
2.855098	-0.02231209	-0.1806813	0	0	0.3360808	-0.2573374
2.871664	-0.02231209	-0.1806813	0	0	0	0
2.888228	-0.03769267	-0.1688503	-0.9285741	0.7142775	-28.02785	21.55958
2.904798	-0.03769267	-0.1688503	0	0	28.02482	-21.55725
2.921365	-0.03769267	-0.1688503	0	0	0	0
2.937971	-0.0820522	-0.1321969	-2.671204	2.207162	-80.52381	66.53519
2.954498	-0.0820522	-0.1321969	0	0	80.61942	-66.61419
2.971064	-0.0820522	-0.1321969	0	0	0	0
2.987692	-0.08416909	-0.07842672	-0.1273067	3.233661	-3.835196	97.41613
3.004198	-0.08416909	-0.07842672	0	0	3.842233	-97.59488
3.020765	-0.08416909	-0.07842672	0	0	0	0
3.03733	-0.05872189	-0.04126909	1.536217	2.243162	46.36647	67.70364
3.053898	-0.05872189	-0.04126909	0	0	-46.36447	-67.70071
3.070465	-0.05872189	-0.04126909	0	0	0	0
3.087033	-0.04835701	-0.01591483	0.6255801	1.530276	18.87991	46.18349
3.103599	-0.04835701	-0.01591483	0	0	-18.87991	-46.18349
3.120167	-0.04835701	-0.01591483	0	0	0	0
3.151565	-0.04405043	0.006103451	0.1371606	0.7012625	2.859581	14.62021
3.168135	-0.04405043	0.006103451	0	0	-2.859396	-14.61926
3.18495	-0.0363524	0.01291703	0.4578089	0.4052094	13.7129	12.13737
3.201522	-0.0363524	0.01291703	0	0	-13.71231	-12.13685
3.218088	-0.0363524	0.01291703	0	0	0	0
3.23465	-0.03246228	0.01565367	0.2348928	0.1652438	7.090457	4.988038
3.251229	-0.03246228	0.01565367	0	0	-7.087753	-4.986136
3.267787	-0.03246228	0.01565367	0	0	0	0
3.284497	-0.03246228	0.01565367	0	0	0	0
3.301615	-0.03246228	0.01565367	0	0	0	0
3.317963	-0.03246228	0.01565367	0	0	0	0
3.334051	-0.0324097	0.01557873	0.003267963	-0.004658637	0.10075	-0.1436239
3.35062	-0.0324097	0.01557873	0	0	-0.1000689	0.1426529
3.367187	-0.0324097	0.01557873	0	0	0	0
3.383754	-0.0324097	0.01557873	0	0	0	0
3.40032	-0.0324097	0.01557873	0	0	0	0
3.416955	-0.0324097	0.01557873	0	0	0	0
3.433454	-0.03230455	0.01550378	0.006373602	-0.004542888	0.1923626	-0.1371095
3.450021	-0.03230455	0.01550378	0	0	-0.1927565	0.1373903
3.466587	-0.03230455	0.01550378	0	0	0	0
3.483154	-0.03235712	0.01557873	-0.003173526	0.004524124	-0.09578203	0.1365452
3.500156	-0.03235712	0.01557873	0	0	0.09453645	-0.1347695
3.51697	-0.03235712	0.01557873	0	0	0	0
3.532852	-0.03716709	0.02289732	-0.3028606	0.4608171	-9.263058	14.09419
3.54942	-0.03716709	0.02289732	0	0	9.333089	-14.20075
3.565987	-0.03716709	0.02289732	0	0	0	0
3.582554	-0.04318366	0.05819819	-0.3631716	2.130826	-10.96086	64.31032
3.599171	-0.04318366	0.05819819	0	0	10.94416	-64.21236
3.615884	-0.04318366	0.05819819	0	0	0	0
3.632254	-0.03083233	0.08978797	0.7545074	1.929729	22.80653	58.33001
3.648821	-0.03083233	0.08978797	0	0	-22.90772	-58.58884
3.665407	-0.03083233	0.08978797	0	0	0	0
3.681952	-0.03059571	0.1085557	0.01430213	1.13439	0.4316856	34.23964
3.698676	-0.03059571	0.1085557	0	0	-0.4298975	-34.09782
3.715157	-0.03059571	0.1085557	0	0	0	0
3.731652	-0.04428681	0.1183044	-0.8300037	0.5910024	-25.16964	17.92199
3.748225	-0.04428681	0.1183044	0	0	25.09977	-17.87224
3.764944	-0.04428681	0.1183044	0	0	0	0
3.781357	-0.04457572	0.1185054	-0.01760139	0.01224553	-0.5312492	0.3695974
3.79841	-0.04457572	0.1185054	0	0	0.5259356	-0.3659006
3.814778	-0.04457572	0.1185054	0	0	0	0
3.831052	-0.04457572	0.1185054	0	0	0	0
3.847625	-0.04457572	0.1185054	0	0	0	0
3.864192	-0.04457572	0.1185054	0	0	0	0
3.88125	-0.04460198	0.1184871	-0.001539656	-0.001071426	-0.04578887	-0.03186385
3.897326	-0.04460198	0.1184871	0	0	0.04646759	0.03233617
3.913888	-0.04460198	0.1184871	0	0	0	0
3.930588	-0.04454945	0.1184506	0.00314521	-0.002187817	0.09455725	-0.06577428
3.947158	-0.04454945	0.1184506	0	0	-0.09453557	0.0657592
3.963593	-0.04454945	0.1184506	0	0	0	0
3.980157	-0.04454945	0.118341	0	-0.006618742	0	-0.2005752
3.996724	-0.04454945	0.118341	0	0	0	0.1997699
4.045282	-0.04454945	0.118341	0	0	0	0
4.068781	-0.0449434	0.1177014	-0.01676435	-0.02721637	-0.232654	-0.3777061
4.085348	-0.0449434	0.1177014	0	0	0.4184209	0.6792924
4.101915	-0.04491714	0.1176466	0.001585301	-0.00330912	0.04784587	-0.09987231
4.118484	-0.04491714	0.1176466	0	0	-0.04784242	0.09986512
4.135049	-0.04491714	0.1176466	0	0	0	0
4.151615	-0.04489087	0.1175552	0.001585438	-0.005515976	0.04785413	-0.1664916
4.168182	-0.04489087	0.1175552	0	0	-0.04785069	0.1664797
4.18475	-0.04489087	0.1175552	0	0	0	0
4.201316	-0.04489087	0.1174821	0	-0.004412437	0	-0.1331714
4.218604	-0.04489087	0.1174821	0	0	0	0.1303372
4.23445	-0.04489087	0.1174821	0	0	0	0
4.251015	-0.04496966	0.1174273	-0.004756452	-0.003309951	-0.1467538	-0.102124
4.267582	-0.04496966	0.1174273	0	0	0.1435583	0.09990026
4.284149	-0.04496966	0.1174273	0	0	0	0
4.300715	-0.04499592	0.117409	-0.001585168	-0.001103253	-0.04784321	-0.03329817
4.317282	-0.04499592	0.117409	0	0	0.04784252	0.03329769
4.333849	-0.04499592	0.117409	0	0	0	0
4.350415	-0.04502219	0.1173907	-0.001585438	-0.001103285	-0.04785138	-0.03329913
4.366982	-0.04502219	0.1173907	0	0	0.04785207	0.03329961
4.383548	-0.04502219	0.1173907	0	0	0	0
4.400114	-0.04504845	0.1173359	-0.001585438	-0.003309406	-0.04785207	-0.09988525
4.416681	-0.04504845	0.1173359	0	0	0.04785069	0.09988237
4.43325	-0.04504845	0.1173359	0	0	0	0
4.456174	-0.04504845	0.1172628	0	-0.003189094	0	-0.08075166
4.472744	-0.04504845	0.1172628	0	0	0	0.08074972
4.489573	-0.04502219	0.1172445	0.001560596	-0.001085998	0.04672569	-0.03251578
4.510523	-0.04502219	0.1172445	0	0	-0.0413082	0.02874582
4.527093	-0.04502219	0.1172445	0	0	0	0
4.543658	-0.0451535	0.1163124	-0.007927422	-0.05627528	-0.2392501	-1.698391
4.560226	-0.0451535	0.1163124	0	0	0.2392604	1.698465
4.576794	-0.0451535	0.1163124	0	0	0	0
4.593357	-0.0414762	0.09968591	0.2220132	-1.003806	6.701144	-30.29842
4.610914	-0.0414762	0.09968591	0	0	-6.506729	29.4194
4.627007	-0.0414762	0.09968591	0	0	0	0
4.643057	-0.04271085	0.02855841	-0.07692137	-4.431395	-2.39309	-137.8645
4.659627	-0.04271085	0.02855841	0	0	2.358073	135.8472
4.676194	-0.04271085	0.02855841	0	0	0	0
4.692757	-0.05195321	-0.06017153	-0.5579982	-5.356983	-16.8426	-161.695
4.709326	-0.05195321	-0.06017153	0	0	16.84139	161.6834
4.726143	-0.05195321	-0.06017153	0	0	0	0
4.742736	-0.05316039	-0.09980146	-0.0727527	-2.388355	-2.177568	-71.48608
4.759027	-0.05316039	-0.09980146	0	0	2.21246	72.63154
4.775593	-0.05316039	-0.09980146	0	0	0	0
4.792157	-0.04376152	-0.1066655	0.5674478	-0.4144098	17.12783	-12.50853
4.808726	-0.04376152	-0.1066655	0	0	-17.12635	12.50745
4.825293	-0.04376152	-0.1066655	0	0	0	0
4.841856	-0.02759825	-0.1187022	0.9758412	-0.7267047	29.45476	-21.93483
4.858426	-0.02759825	-0.1187022	0	0	-29.45222	21.93294
4.874993	-0.02759825	-0.1187022	0	0	0	0
4.89156	-0.02194384	-0.1229237	0.3413107	-0.254818	10.30092	-7.690532
4.908126	-0.02194384	-0.1229237	0	0	-10.30122	7.690753
4.924693	-0.02194384	-0.1229237	0	0	0	0
4.941257	-0.02191754	-0.1229434	0.001587937	-0.001186145	0.04792954	-0.03580205
4.957826	-0.02191754	-0.1229434	0	0	-0.04792609	0.03579948
4.974393	-0.02191754	-0.1229434	0	0	0	0
4.99096	-0.02191754	-0.1229434	0	0	0	0
5.007525	-0.02191754	-0.1229434	0	0	0	0
5.024093	-0.02191754	-0.1229434	0	0	0	0
5.04066	-0.02194384	-0.1230023	-0.001587617	-0.003558618	-0.04791437	-0.1073993
5.057226	-0.02194384	-0.1230023	0	0	0.04791575	0.1074024
5.073793	-0.02194384	-0.1230023	0	0	0	0
5.090361	-0.02194384	-0.1230416	0	-0.002372712	0	-0.07160859
5.106926	-0.02194384	-0.1230416	0	0	0	0.07161271
5.123493	-0.02194384	-0.1230416	0	0	0	0
5.14006	-0.02191754	-0.1230613	0.001587617	-0.001185906	0.04791506	-0.03579124
5.156627	-0.02191754	-0.1230613	0	0	-0.04791437	0.03579072
5.173193	-0.02191754	-0.1230613	0	0	0	0
5.189759	-0.02183863	-0.1231202	0.004763237	-0.003559273	0.1437651	-0.1074268
5.206326	-0.02183863	-0.1231202	0	0	-0.143761	0.1074237
5.223197	-0.02183863	-0.1231202	0	0	0	0
5.239457	-0.02183863	-0.1231202	0	0	0	0
5.256027	-0.02183863	-0.1231202	0	0	0	0
5.272636	-0.02183863	-0.1231202	0	0	0	0
5.289157	-0.02183863	-0.1231202	0	0	0	0
5.306683	-0.02183863	-0.1231202	0	0	0	0
5.322654	-0.02183863	-0.1231202	0	0	0	0
5.338859	-0.02181233	-0.1231399	0.001623236	-0.001212427	0.05044789	-0.03768052
5.355427	-0.02181233	-0.1231399	0	0	-0.04953038	0.03699521
5.372558	-0.02181233	-0.1231399	0	0	0	0
5.38856	-0.02183863	-0.1231202	-0.001643744	0.001227745	-0.04960973	0.03705449
5.405128	-0.02183863	-0.1231202	0	0	0.05046675	-0.03769461
5.421695	-0.02183863	-0.1231202	0	0	0	0
5.438355	-0.02186494	-0.1230613	-0.001578756	0.003539204	-0.0475143	0.106516
5.455097	-0.02186494	-0.1230613	0	0	0.04726604	-0.1059595
5.471801	-0.02186494	-0.1230613	0	0	0	0
5.488061	-0.02191754	-0.123022	-0.003235409	0.002417135	-0.09814909	0.07332598
5.504628	-0.02191754	-0.123022	0	0	0.09856112	-0.0736338
5.521193	-0.02191754	-0.123022	0	0	0	0
5.537836	-0.02194384	-0.1230023	-0.00158043	0.001180985	-0.04759199	0.03556339
5.554326	-0.02194384	-0.1230023	0	0	0.04770021	-0.03564426
5.570892	-0.02194384	-0.1230023	0	0	0	0
5.587459	-0.02191754	-0.123022	0.001587662	-0.00118639	0.04791713	-0.03580635
5.604027	-0.02191754	-0.123022	0	0	-0.04791575	0.03580532
5.620592	-0.02191754	-0.123022	0	0	0	0
5.637156	-0.02194384	-0.1230023	-0.001587937	0.001186595	-0.04793161	0.03581718
5.654109	-0.02194384	-0.1230023	0	0	0.04737722	-0.0354029
5.670314	-0.02194384	-0.1230023	0	0	0	0
5.68686	-0.02191754	-0.123022	0.001589722	-0.001187929	0.04854022	-0.03627196
5.703426	-0.02191754	-0.123022	0	0	-0.04801036	0.03587602
5.720063	-0.02191754	-0.123022	0	0	0	0
5.736556	-0.02194384	-0.1230023	-0.001594777	0.001191707	-0.0481374	0.03597095
5.753126	-0.02194384	-0.1230023	0	0	0.04823529	-0.0360441
5.769693	-0.02194384	-0.1230023	0	0	0	0
5.786257	-0.02194384	-0.1230023	0	0	0	0
5.802826	-0.02194384	-0.1230023	0	0	0	0
5.819404	-0.02194384	-0.1230023	0	0	0	0
5.83601	-0.02194384	-0.1230023	0	0	0	0
5.852526	-0.02194384	-0.1230023	0	0	0	0
5.869092	-0.02194384	-0.1230023	0	0	0	0
5.885656	-0.02199645	-0.122963	-0.003175986	0.00237274	-0.09586386	0.07161871
5.902226	-0.02199645	-0.122963	0	0	0.0958542	-0.0716115
5.918793	-0.02199645	-0.122963	0	0	0	0
5.935356	-0.02207536	-0.1229041	-0.00476406	0.003559438	-0.1437982	0.107438
5.951926	-0.02207536	-0.1229041	0	0	0.1437837	-0.1074271
5.968493	-0.02207536	-0.1229041	0	0	0	0
5.985057	-0.02210166	-0.1228844	-0.001587937	0.001186145	-0.04792954	0.03580205
6.001626	-0.02210166	-0.1228844	0	0	0.0479254	-0.03579896
6.018193	-0.02210166	-0.1228844	0	0	0	0
6.034757	-0.02215427	-0.1228451	-0.003176077	0.002372809	-0.09586662	0.07162078
6.051326	-0.02215427	-0.1228451	0	0	0.09585834	-0.07161459
6.067894	-0.02215427	-0.1228451	0	0	0	0
6.084523	-0.02215427	-0.1228451	0	0	0	0
6.101027	-0.02215427	-0.1228451	0	0	0	0
6.117593	-0.02215427	-0.1228451	0	0	0	0
6.134157	-0.02215427	-0.1228451	0	0	0	0
6.150727	-0.02215427	-0.1228451	0	0	0	0
6.167293	-0.02215427	-0.1228451	0	0	0	0
6.183897	-0.02215427	-0.1228451	0	0	0	0
6.200588	-0.02215427	-0.1228451	0	0	0	0
6.216994	-0.02215427	-0.1228451	0	0	0	0
6.23356	-0.02215427	-0.1228451	0	0	0	0
6.250127	-0.02215427	-0.1228451	0	0	0	0
6.266694	-0.02215427	-0.1228451	0	0	0	0
6.283258	-0.02215427	-0.1228451	0	0	0	0
6.299827	-0.02215427	-0.1228451	0	0	0	0
6.316394	-0.02215427	-0.1228451	0	0	0	0
6.332959	-0.02215427	-0.1228451	0	0	0	0
6.349527	-0.02215427	-0.1228451	0	0	0	0
6.366092	-0.02215427	-0.1228451	0	0	0	0
6.38266	-0.02218057	-0.1228255	-0.001587571	0.001186322	-0.04791506	0.03580481
6.399466	-0.02218057	-0.1228255	0	0	0.04756934	-0.03554646
6.415868	-0.02218057	-0.1228255	0	0	0	0
6.43236	-0.02215427	-0.1228451	0.001594823	-0.001191741	0.04848352	-0.03622959
6.448925	-0.02215427	-0.1228451	0	0	-0.04824504	0.03605139
6.465494	-0.02215427	-0.1228451	0	0	0	0
6.482058	-0.02215427	-0.1228451	0	0	0	0
6.498744	-0.02215427	-0.1228451	0	0	0	0
6.515491	-0.02215427	-0.1228451	0	0	0	0
6.531758	-0.02215427	-0.1228058	0	0.002416072	0	0.0731826
6.548327	-0.02215427	-0.1228058	0	0	0	-0.07358113
6.564893	-0.02215427	-0.1228058	0	0	0	0
6.581502	-0.02215427	-0.1228058	0	0	0	0
6.598025	-0.02215427	-0.1228058	0	0	0	0
6.615015	-0.02215427	-0.1228058	0	0	0	0
6.631254	-0.02212797	-0.1227862	0.00161969	0.001210323	0.04874345	0.03642382
6.647726	-0.02212797	-0.1227862	0	0	-0.04951438	-0.03699991
6.664527	-0.02212797	-0.1227862	0	0	0	0
6.680858	-0.02215427	-0.1227665	-0.001610657	0.001203116	-0.04861391	0.03631326
6.697431	-0.02215427	-0.1227665	0	0	0.04895138	-0.03656534
6.714314	-0.02215427	-0.1227665	0	0	0	0
6.73079	-0.02218057	-0.1227469	-0.001596393	0.001192914	-0.04785486	0.03575982
6.74713	-0.02218057	-0.1227469	0	0	0.04864547	-0.03635061
6.763698	-0.02218057	-0.1227469	0	0	0	0
6.780263	-0.02223318	-0.1227076	-0.00317562	0.002372017	-0.09584454	0.07159071
6.797009	-0.02223318	-0.1227076	0	0	0.09533007	-0.07120642
6.813398	-0.02223318	-0.1227076	0	0	0	0
6.829959	-0.02225948	-0.1226879	-0.001588257	0.001186834	-0.04820283	0.03601985
6.846528	-0.02225948	-0.1226879	0	0	0.04794058	-0.03582388
6.863503	-0.02225948	-0.1226879	0	0	0	0
6.880068	-0.02225948	-0.1226879	0	0	0	0
6.896231	-0.02225948	-0.1226879	0	0	0	0
6.9128	-0.02225948	-0.1226879	0	0	0	0
6.929386	-0.02223318	-0.1226683	0.001585791	0.001184542	0.04782898	0.03572694
6.94593	-0.02223318	-0.1226683	0	0	-0.04786615	-0.03575471
6.962498	-0.02223318	-0.1226683	0	0	0	0
6.979063	-0.02223318	-0.1226683	0	0	0	0
6.995945	-0.02223318	-0.1226683	0	0	0	0
7.012198	-0.02223318	-0.1226683	0	0	0	0
7.028764	-0.02225948	-0.1226486	-0.001587754	0.001186009	-0.04837871	0.03613757
7.045327	-0.02225948	-0.1226486	0	0	0.04792747	-0.03580051
7.062214	-0.02225948	-0.1226486	0	0	0	0
7.078458	-0.02225948	-0.1226486	0	0	0	0
7.095026	-0.02225948	-0.1226486	0	0	0	0
7.111591	-0.02225948	-0.1226486	0	0	0	0
7.128157	-0.02228578	-0.122629	-0.001587708	0.001186424	-0.04792264	0.03581047
7.144723	-0.02228578	-0.122629	0	0	0.04791988	-0.03580841
7.161291	-0.02228578	-0.122629	0	0	0	0
7.177857	-0.02231209	-0.1226093	-0.001587708	0.001185974	-0.04791782	0.0357933
7.194424	-0.02231209	-0.1226093	0	0	0.04791988	-0.03579484
7.21099	-0.02231209	-0.1226093	0	0	0	0
7.227557	-0.02239099	-0.1225504	-0.004762987	0.003557821	-0.1437514	0.1073783
7.244124	-0.02239099	-0.1225504	0	0	0.1437514	-0.1073783
7.260982	-0.02239099	-0.1225504	0	0	0	0
7.277515	-0.02239099	-0.1225111	0	0.002377051	0	0.07118736
7.293827	-0.02239099	-0.1225111	0	0	0	-0.07237069
7.310394	-0.02239099	-0.1225111	0	0	0	0
7.326959	-0.02252251	-0.1223735	-0.007939111	0.008302299	-0.2396201	0.2505819
7.343527	-0.02252251	-0.1223735	0	0	0.2396132	-0.2505747
7.360094	-0.02252251	-0.1223735	0	0	0	0
7.37666	-0.02262772	-0.1222557	-0.006350833	0.007115847	-0.1916768	0.214766
7.393226	-0.02262772	-0.1222557	0	0	0.1916795	-0.2147691
7.409794	-0.02262772	-0.1222557	0	0	0	0
7.426426	-0.02262772	-0.1222164	0	0.002362497	0	0.07115898
7.442928	-0.02262772	-0.1222164	0	0	0	-0.07130132
7.459494	-0.02262772	-0.1222164	0	0	0	0
7.476648	-0.02262772	-0.1222164	0	0	0	0
7.493217	-0.02262772	-0.1222164	0	0	0	0
7.509907	-0.02262772	-0.1222164	0	0	0	0
7.526347	-0.02265402	-0.1221967	-0.001599865	0.001194602	-0.04828959	0.03605732
7.542918	-0.02265402	-0.1221967	0	0	0.04846397	-0.03618753
7.559484	-0.02265402	-0.1221967	0	0	0	0
7.576048	-0.02265402	-0.1221967	0	0	0	0
7.592618	-0.02265402	-0.1221967	0	0	0	0
7.609185	-0.02265402	-0.1221967	0	0	0	0
7.625751	-0.02265402	-0.1221967	0	0	0	0
7.642318	-0.02265402	-0.1221967	0	0	0	0
7.659004	-0.02265402	-0.1221967	0	0	0	0
7.675451	-0.02265402	-0.1221967	0	0	0	0
7.692111	-0.02265402	-0.1221967	0	0	0	0
7.708989	-0.02265402	-0.1221967	0	0	0	0
7.725152	-0.02265402	-0.1221967	0	0	0	0
7.741719	-0.02265402	-0.1221967	0	0	0	0
7.758286	-0.02265402	-0.1221967	0	0	0	0
7.781401	-0.02265402	-0.1221967	0	0	0	0
7.797971	-0.02265402	-0.1221967	0	0	0	0
7.815079	-0.02265402	-0.1221967	0	0	0	0
7.831104	-0.02265402	-0.1221967	0	0	0	0
7.847764	-0.02265402	-0.1221967	0	0	0	0
7.864293	-0.02262772	-0.1221771	0.001591327	0.001188677	0.04794698	0.03581508
7.880804	-0.02262772	-0.1221771	0	0	-0.04816496	-0.03597791
7.89737	-0.02262772	-0.1221771	0	0	0	0
7.913937	-0.02268032	-0.1221378	-0.003175325	0.002371881	-0.09583563	0.07158659
7.930503	-0.02268032	-0.1221378	0	0	0.09583426	-0.07158556
7.947072	-0.02268032	-0.1221378	0	0	0	0
7.963641	-0.02268032	-0.1221378	0	0	0	0
7.980208	-0.02268032	-0.1221378	0	0	0	0
7.996846	-0.02268032	-0.1221378	0	0	0	0
8.01334	-0.02270662	-0.1221181	-0.001594572	0.001190734	-0.04812774	0.03593902
8.029906	-0.02270662	-0.1221181	0	0	0.04823256	-0.03601729
8.046812	-0.02270662	-0.1221181	0	0	0	0
8.063036	-0.02270662	-0.1220788	0	0.002422004	0	0.07310674
8.079605	-0.02270662	-0.1220788	0	0	0	-0.07385723
8.150522	-0.02270662	-0.1220788	0	0	0	0
8.176229	-0.02273292	-0.1220199	-0.001023152	0.002292509	-0.01058896	0.02372599
8.192797	-0.02273292	-0.1220199	0	0	0.02420259	-0.05422916
8.209367	-0.02275923	-0.1220003	-0.001587343	0.001185252	-0.04790196	0.03576788
8.225932	-0.02275923	-0.1220003	0	0	0.04790471	-0.03576994
8.242742	-0.02275923	-0.1220003	0	0	0	0
8.259063	-0.02278553	-0.1219806	-0.001611551	0.001203784	-0.0486423	0.03633446
8.275629	-0.02278553	-0.1219806	0	0	0.04900198	-0.03660314
8.29234	-0.02278553	-0.1219806	0	0	0	0
8.308763	-0.02281183	-0.121961	-0.001601631	0.001196374	-0.0483387	0.03610769
8.325332	-0.02281183	-0.121961	0	0	0.0485469	-0.03626321
8.341896	-0.02281183	-0.121961	0	0	0	0
8.358462	-0.02286444	-0.1219217	-0.003175416	0.002371499	-0.09584529	0.07158022
8.375029	-0.02286444	-0.1219217	0	0	0.09583977	-0.0715761
8.391595	-0.02286444	-0.1219217	0	0	0	0
8.408161	-0.02291704	-0.1218824	-0.003175304	0.002371499	-0.09583638	0.0715761
8.424727	-0.02291704	-0.1218824	0	0	0.09583638	-0.0715761
8.441508	-0.02291704	-0.1218824	0	0	0	0
8.457861	-0.02291704	-0.1218824	0	0	0	0
8.474427	-0.02291704	-0.1218824	0	0	0	0
8.490993	-0.02291704	-0.1218824	0	0	0	0
8.50756	-0.02291704	-0.1218824	0	0	0	0
8.524321	-0.02291704	-0.1218824	0	0	0	0
8.540872	-0.02291704	-0.1218824	0	0	0	0
8.557261	-0.02291704	-0.1218824	0	0	0	0
8.57383	-0.02291704	-0.1218824	0	0	0	0
8.590396	-0.02291704	-0.1218824	0	0	0	0
8.606962	-0.02291704	-0.1218824	0	0	0	0
8.623528	-0.02291704	-0.1218824	0	0	0	0
8.640232	-0.02291704	-0.1218824	0	0	0	0
8.65668	-0.02291704	-0.1218824	0	0	0	0
8.673228	-0.02291704	-0.1218824	0	0	0	0
8.68984	-0.02291704	-0.1218824	0	0	0	0
8.706361	-0.02291704	-0.1218824	0	0	0	0
8.722928	-0.02291704	-0.1218824	0	0	0	0
8.739494	-0.02291704	-0.1218824	0	0	0	0
8.756059	-0.02291704	-0.1218824	0	0	0	0
8.772628	-0.02291704	-0.1218824	0	0	0	0
8.789791	-0.02291704	-0.1218824	0	0	0	0
8.805836	-0.02291704	-0.1218824	0	0	0	0
8.822329	-0.02291704	-0.1218824	0	0	0	0
8.838895	-0.02291704	-0.1218824	0	0	0	0
8.855974	-0.02291704	-0.1218824	0	0	0	0
8.872367	-0.02291704	-0.1218824	0	0	0	0
8.888597	-0.02291704	-0.1218824	0	0	0	0
8.905158	-0.02291704	-0.1218824	0	0	0	0
8.921748	-0.02291704	-0.1218824	0	0	0	0
8.938295	-0.02291704	-0.1218824	0	0	0	0
8.954862	-0.02289074	-0.1218628	0.001587708	0.001185525	0.04794749	0.03580188
8.971428	-0.02289074	-0.1218628	0	0	-0.04791988	-0.03578127
8.988271	-0.02289074	-0.1218628	0	0	0	0
9.004559	-0.02289074	-0.1218628	0	0	0	0
9.021129	-0.02289074	-0.1218628	0	0	0	0
9.037696	-0.02289074	-0.1218628	0	0	0	0
9.054258	-0.02289074	-0.1218628	0	0	0	0
9.071314	-0.02289074	-0.1218628	0	0	0	0
9.087397	-0.02289074	-0.1218628	0	0	0	0
9.103977	-0.02289074	-0.1218628	0	0	0	0
9.120528	-0.02289074	-0.1218628	0	0	0	0
9.137094	-0.02289074	-0.1218628	0	0	0	0
9.159405	-0.02291704	-0.1218431	-0.001178938	0.0008806345	-0.03032519	0.02265208
9.176758	-0.02291704	-0.1218431	0	0	0.02972364	-0.02220275
9.192542	-0.02291704	-0.1218431	0	0	0	0
9.209108	-0.02291704	-0.1218431	0	0	0	0
9.226271	-0.02291704	-0.1218431	0	0	0	0
9.242242	-0.02289074	-0.1218235	0.001646867	0.001229698	0.04970397	0.03711342
9.258808	-0.02289074	-0.1218235	0	0	-0.05061448	-0.03779329
9.275418	-0.02289074	-0.1218235	0	0	0	0
9.291939	-0.02289074	-0.1218235	0	0	0	0
9.308539	-0.02289074	-0.1218235	0	0	0	0
9.325543	-0.02289074	-0.1218235	0	0	0	0
9.342011	-0.02291704	-0.1218038	-0.001597179	0.001192596	-0.04771677	0.0356296
9.358764	-0.02291704	-0.1218038	0	0	0.0480784	-0.03589963
9.374772	-0.02291704	-0.1218038	0	0	0	0
9.391338	-0.0224699	-0.1210772	0.02699081	0.04386486	0.8285833	1.346595
9.407905	-0.0224699	-0.1210772	0	0	-0.8146313	-1.32392
9.424471	-0.0224699	-0.1210772	0	0	0	0
9.441249	-0.02223318	-0.120547	0.01410917	0.03159726	0.4231364	0.9476069
9.457762	-0.02223318	-0.120547	0	0	-0.4238151	-0.9491271
9.474171	-0.02223318	-0.120547	0	0	0	0
9.490737	-0.02165451	-0.1201544	0.03493059	0.02370015	1.059299	0.7187266
9.507304	-0.02165451	-0.1201544	0	0	-1.054238	-0.7152925
9.52387	-0.02165451	-0.1201544	0	0	0	0
9.540437	-0.008184028	-0.1107105	0.8131267	0.5700647	24.54162	17.20558
9.557329	-0.008184028	-0.1107105	0	0	-24.30239	-17.03786
9.573587	-0.008184028	-0.1107105	0	0	0	0
9.590138	0.0247581	-0.08820072	1.990338	1.360027	60.66393	41.45253
9.606705	0.0247581	-0.08820072	0	0	-60.09967	-41.06697
9.623271	0.0247581	-0.08820072	0	0	0	0
9.639837	0.05790887	-0.08061072	2.0011	0.4581594	60.39678	13.82808
9.656899	0.05790887	-0.08061072	0	0	-59.50613	-13.62416
9.67297	0.05790887	-0.08061072	0	0	0	0
9.689725	0.1109894	-0.07817557	3.16802	0.1453381	96.51102	4.427602
9.706104	0.1109894	-0.07817557	0	0	-95.61102	-4.386313
9.722671	0.1109894	-0.07817557	0	0	0	0
9.739236	0.1508454	-0.06408988	2.40599	0.8503117	72.61919	25.66467
9.755804	0.1508454	-0.06408988	0	0	-72.61501	-25.6632
9.77237	0.1508454	-0.06408988	0	0	0	0
9.788937	0.1593736	-0.05844456	0.5147966	0.3407718	15.53749	10.2851
9.805503	0.1593736	-0.05844456	0	0	-15.53749	-10.2851
9.822067	0.1593736	-0.05844456	0	0	0	0
9.838634	0.1611432	-0.05842538	0.1068169	0.001157866	3.22411	0.03494848
9.855211	0.1611432	-0.05842538	0	0	-3.222812	-0.03493439
9.871769	0.1611432	-0.05842538	0	0	0	0
9.888335	0.1786282	-0.04877339	1.055457	0.5826287	31.86384	17.58934
9.904902	0.1786282	-0.04877339	0	0	-31.85467	-17.58428
9.921469	0.1786282	-0.04877339	0	0	0	0
9.938035	0.1831608	-0.04563951	0.2736035	0.1891719	8.257844	5.709548
9.954601	0.1831608	-0.04563951	0	0	-8.257844	-5.709548
9.971231	0.1831608	-0.04563951	0	0	0	0
9.987732	0.1831862	-0.04573501	0.00154146	-0.005787246	0.0465267	-0.1746795
10.0043	0.1831862	-0.04573501	0	0	-0.04660988	0.1749918
10.02087	0.1831862	-0.04573501	0	0	0	0
10.03743	0.1837459	-0.04626985	0.03378386	-0.03228441	1.019657	-0.9744016
10.054	0.1837459	-0.04626985	0	0	-1.019657	0.9744016
10.07065	0.1837459	-0.04626985	0	0	0	0
10.08713	0.1976739	-0.05712125	0.8449278	-0.6582887	25.50364	-19.87005
10.1037	0.1976739	-0.05712125	0	0	-25.56177	19.91534
10.12027	0.1976739	-0.05712125	0	0	0	0
10.13683	0.2036629	-0.06239895	0.3615194	-0.3185812	10.9113	-9.615354
10.1534	0.2036629	-0.06239895	0	0	-10.91099	9.615077
10.16997	0.2036629	-0.06239895	0	0	0	0
10.18653	0.2007334	-0.06489727	-0.1768162	-0.1507901	-5.336477	-4.550984
10.2031	0.2007334	-0.06489727	0	0	5.336324	4.550853
10.21967	0.2007334	-0.06489727	0	0	0	0
10.23623	0.2132095	-0.07443042	0.7532297	-0.5755547	22.73514	-17.37228
10.2528	0.2132095	-0.07443042	0	0	-22.73383	17.37128
10.26937	0.2132095	-0.07443042	0	0	0	0
10.28593	0.2324074	-0.08934494	1.159059	-0.9004496	34.98449	-27.17875
10.3025	0.2324074	-0.08934494	0	0	-34.98147	27.1764
10.31907	0.2324074	-0.08934494	0	0	0	0
10.33599	0.2333044	-0.1023344	0.05298591	-0.7673464	1.581953	-22.90997
10.35264	0.2333044	-0.1023344	0	0	-1.578402	22.85855
10.36877	0.2333044	-0.1023344	0	0	0	0
10.38533	0.2083528	-0.1220199	-1.506163	-1.18829	-46.06465	-36.34279
10.4019	0.2083528	-0.1220199	0	0	45.45741	35.8637
10.41874	0.2083528	-0.1220199	0	0	0	0
10.43503	0.2071938	-0.1228844	-0.0711458	-0.05306756	-2.147246	-1.601628
10.4516	0.2071938	-0.1228844	0	0	2.16532	1.615109
10.46817	0.2071938	-0.1228844	0	0	0	0
10.48969	0.2071434	-0.1228451	-0.002341812	0.001825755	-0.0614768	0.04792937
10.50641	0.2071434	-0.1228451	0	0	0.06123915	-0.04774409
10.52283	0.2071182	-0.1228255	-0.001534639	0.001197036	-0.04631682	0.03612767
10.53992	0.2071182	-0.1228255	0	0	0.04579485	-0.03572053
10.55643	0.2071182	-0.1228255	0	0	0	0
10.57253	0.2071182	-0.1228255	0	0	0	0
10.58945	0.2071182	-0.1228255	0	0	0	0
10.60597	0.2071182	-0.1228255	0	0	0	0
10.62223	0.207093	-0.1228451	-0.00154967	-0.001208761	-0.04728219	-0.03688066
10.63899	0.207093	-0.1228451	0	0	0.04692987	0.03660586
10.6555	0.207093	-0.1228451	0	0	0	0
10.67201	0.207093	-0.1228451	0	0	0	0
10.68852	0.207093	-0.1228451	0	0	0	0
10.70506	0.207093	-0.1228451	0	0	0	0
10.72163	0.207093	-0.1228451	0	0	0	0
10.73819	0.207093	-0.1228451	0	0	0	0
10.75476	0.207093	-0.1228451	0	0	0	0
10.77133	0.2070678	-0.1228648	-0.001521933	-0.001185974	-0.04593335	-0.03579381
10.78829	0.2070678	-0.1228648	0	0	0.04538342	0.03536527
10.80446	0.2070678	-0.1228648	0	0	0	0
10.82103	0.2070174	-0.1229041	-0.003043142	-0.002372535	-0.09297414	-0.07248575
10.83759	0.2070174	-0.1229041	0	0	0.09185014	0.07160944
10.85416	0.2070174	-0.1229041	0	0	0	0
10.87073	0.2069922	-0.1229237	-0.001521209	-0.001186561	-0.04591149	-0.03581151
10.88734	0.2069922	-0.1229237	0	0	0.04585342	0.03576621
10.90438	0.2069922	-0.1229237	0	0	0	0
10.92043	0.2069418	-0.122963	-0.003141343	-0.002449096	-0.09493708	-0.07401612
10.93699	0.2069418	-0.122963	0	0	0.09631112	0.07508738
10.95356	0.2069418	-0.122963	0	0	0	0
10.97013	0.2069166	-0.1229827	-0.001520946	-0.001186356	-0.04590356	-0.03580533
10.98695	0.2069166	-0.1229827	0	0	0.04554698	0.03552718
11.00326	0.2069166	-0.1229827	0	0	0	0
11.01982	0.2068662	-0.123022	-0.003043492	-0.002372809	-0.09258828	-0.07218493
11.0364	0.2068662	-0.123022	0	0	0.09185542	0.07161357
11.05296	0.2068662	-0.123022	0	0	0	0
11.06953	0.2068662	-0.1230613	0	-0.002372399	0	-0.07160326
11.08609	0.2068662	-0.1230613	0	0	0	0.07160532
11.10272	0.2068662	-0.1230613	0	0	0	0
11.11923	0.2067906	-0.1231202	-0.004579928	-0.00357099	-0.1382225	-0.1077727
11.13598	0.2067906	-0.1231202	0	0	0.1376717	0.1073432
11.15236	0.2067906	-0.1231202	0	0	0	0
11.16893	0.2014156	-0.1273099	-0.3244524	-0.2529004	-9.848116	-7.676295
11.1855	0.2014156	-0.1273099	0	0	9.792274	7.632769
11.20206	0.2014156	-0.1273099	0	0	0	0
11.21863	0.1660106	-0.1549486	-2.136805	-1.668088	-64.48704	-50.34155
11.2352	0.1660106	-0.1549486	0	0	64.49075	50.34444
11.25176	0.1660106	-0.1549486	0	0	0	0
11.26832	0.1341887	-0.1783866	-1.921324	-1.415124	-57.99567	-42.71589
11.28489	0.1341887	-0.1783866	0	0	57.989	42.71098
11.3015	0.1341887	-0.1783866	0	0	0	0
11.31802	0.117379	-0.1842489	-1.017156	-0.3547287	-30.70135	-10.70697
11.33459	0.117379	-0.1842489	0	0	30.7332	10.71807
11.35116	0.117379	-0.1842489	0	0	0	0
11.36773	0.09990314	-0.1706942	-1.055026	0.818306	-31.84442	24.69937
11.38429	0.09990314	-0.1706942	0	0	31.84167	-24.69723
11.40086	0.09990314	-0.1706942	0	0	0	0
11.41745	0.0821829	-0.1572	-1.067998	0.8132939	-32.20906	24.52761
11.43399	0.0821829	-0.1572	0	0	32.23316	-24.54597
11.45056	0.0821829	-0.1572	0	0	0	0
11.46713	0.08220904	-0.1572598	0.001577701	-0.003609644	0.04761786	-0.1089455
11.48369	0.08220904	-0.1572598	0	0	-0.04761786	0.1089455
11.50084	0.08220904	-0.1572598	0	0	0	0
11.51682	0.08220904	-0.1572598	0	0	0	0
11.53339	0.08220904	-0.1572598	0	0	0	0
11.54996	0.08220904	-0.1572598	0	0	0	0
11.56652	0.08223517	-0.1572797	0.001577974	-0.001203722	0.04762609	-0.0363305
11.58309	0.08223517	-0.1572797	0	0	-0.04762609	0.0363305
11.59966	0.08223517	-0.1572797	0	0	0	0
11.61622	0.08220904	-0.1572598	-0.001577883	0.001203653	-0.04762609	0.0363305
11.63279	0.08220904	-0.1572598	0	0	0.04762061	-0.03632632
11.64936	0.08220904	-0.1572598	0	0	0	0
11.66593	0.08223517	-0.1572399	0.001577701	0.001202615	0.04761786	0.03629708
11.68249	0.08223517	-0.1572399	0	0	-0.04761786	-0.03629708
11.69908	0.08223517	-0.1572399	0	0	0	0
11.71562	0.08199993	-0.1570206	-0.01421658	0.01325032	-0.429119	0.3999529
11.73219	0.08199993	-0.1570206	0	0	0.4293167	-0.4001372
11.74876	0.08199993	-0.1570206	0	0	0	0
11.76532	0.07805164	-0.1540129	-0.2383465	0.1815675	-7.193932	5.480192
11.78189	0.07805164	-0.1540129	0	0	7.193725	-5.480034
11.79846	0.07805164	-0.1540129	0	0	0	0
11.81502	0.06042635	-0.140654	-1.063926	0.8063889	-32.1112	24.33826
11.83159	0.06042635	-0.140654	0	0	32.11028	-24.33756
11.84818	0.06042635	-0.140654	0	0	0	0
11.86472	0.04728053	-0.1307179	-0.7944894	0.6005034	-23.97912	18.12427
11.88129	0.04728053	-0.1307179	0	0	23.99293	-18.13471
11.89792	0.04728053	-0.1307179	0	0	0	0
11.91442	0.04470703	-0.1288262	-0.1559558	0.1146432	-4.706892	3.460039
11.93099	0.04470703	-0.1288262	0	0	4.716259	-3.466924
11.94755	0.04470703	-0.1288262	0	0	0	0
11.96412	0.04478582	-0.1289247	0.004756041	-0.005945614	0.1435459	-0.1794493
11.98069	0.04478582	-0.1289247	0	0	-0.1435459	0.1794493
11.99725	0.04478582	-0.1289247	0	0	0	0
12.01382	0.04481208	-0.1289444	0.001585122	-0.001189123	0.04784046	-0.03588882
12.03039	0.04481208	-0.1289444	0	0	-0.0478377	0.03588676
12.04703	0.04481208	-0.1289444	0	0	0	0
12.06352	0.04481208	-0.1289444	0	0	0	0
12.08018	0.04481208	-0.1289444	0	0	0	0
12.09666	0.04481208	-0.1289444	0	0	0	0
12.11456	0.04481208	-0.1289444	0	0	0	0
12.13113	0.04481208	-0.1289444	0	0	0	0
12.14769	0.04481208	-0.1289444	0	0	0	0
12.16426	0.04478582	-0.1289247	-0.001584848	0.001188917	-0.04783219	0.03588263
12.23423	0.04478582	-0.1289247	0	0	0.01831505	-0.01373953
12.25348	0.04478582	-0.1289247	0	0	0	0
12.27004	0.04465451	-0.1289838	-0.007926735	-0.003567368	-0.2213112	-0.09959945
12.28693	0.04465451	-0.1289838	0	0	0.2369312	0.1066291
12.30365	0.04465451	-0.1289838	0	0	0	0
12.31975	0.04462824	-0.1289641	-0.001631364	0.001223639	-0.04971835	0.03729229
12.33631	0.04462824	-0.1289641	0	0	0.04994189	-0.03745996
12.35288	0.04462824	-0.1289641	0	0	0	0
12.36944	0.04457572	-0.1290035	-0.003170877	-0.002378382	-0.09570275	-0.07178385
12.38692	0.04457572	-0.1290035	0	0	0.09315547	0.06987321
12.40258	0.04457572	-0.1290035	0	0	0	0
12.41981	0.04439187	-0.1291414	-0.01067309	-0.008006277	-0.3245243	-0.2434376
12.43588	0.04439187	-0.1291414	0	0	0.3205002	0.240419
12.45228	0.04439187	-0.1291414	0	0	0	0
12.46884	0.04439187	-0.1291808	0	-0.002378382	0	-0.07215562
12.48541	0.04439187	-0.1291808	0	0	0	0.07178385
12.50198	0.04439187	-0.1291808	0	0	0	0
12.51887	0.04420802	-0.1293581	-0.01088237	-0.01049517	-0.3252293	-0.3136573
12.53511	0.04420802	-0.1293581	0	0	0.3284402	0.3167539
12.55168	0.04420802	-0.1293581	0	0	0	0
12.56824	0.03180506	-0.138715	-0.7486872	-0.5648153	-22.59608	-17.04665
12.58481	0.03180506	-0.138715	0	0	22.59608	17.04665
12.60138	0.03180506	-0.138715	0	0	0	0
12.61794	0.004973643	-0.1589747	-1.619548	-1.222881	-48.87945	-36.90769
12.63451	0.004973643	-0.1589747	0	0	48.87523	36.9045
12.65108	0.004973643	-0.1589747	0	0	0	0
12.66764	0.001421052	-0.1616693	-0.2144719	-0.1626731	-6.473706	-4.91019
12.68421	0.001421052	-0.1616693	0	0	6.472774	4.909483
12.70166	0.001421052	-0.1616693	0	0	0	0
12.71734	0.001421052	-0.1616693	0	0	0	0
12.73391	0.001421052	-0.1616693	0	0	0	0
12.75128	0.001421052	-0.1616693	0	0	0	0
12.76704	0.001421052	-0.1616693	0	0	0	0
12.78361	0.001421052	-0.1616693	0	0	0	0
12.80095	0.001421052	-0.1616693	0	0	0	0
12.81674	0.001421052	-0.1616693	0	0	0	0
12.83331	0.001421052	-0.1616693	0	0	0	0
12.85025	0.001421052	-0.1616693	0	0	0	0
12.86667	0.001394736	-0.1616493	-0.001602353	0.001215812	-0.04803696	0.03644885
12.88318	0.001394736	-0.1616493	0	0	0.04865176	-0.03691534
12.89958	0.001394736	-0.1616493	0	0	0	0
12.9167	0.001447367	-0.1616493	0.003073177	0	0.09167476	0
12.93272	0.001447367	-0.1616493	0	0	-0.09272998	0
12.94928	0.001447367	-0.1616493	0	0	0	0
12.96584	0.001421052	-0.1616693	-0.001588601	-0.001205383	-0.04795787	-0.036389
12.98275	0.001421052	-0.1616693	0	0	0.04745779	0.03600956
12.99898	0.001421052	-0.1616693	0	0	0	0
13.01577	0.001394736	-0.1616493	-0.001566957	0.001188955	-0.04745476	0.0360071
13.03211	0.001394736	-0.1616493	0	0	0.04729223	-0.03588377
13.04944	0.001394736	-0.1616493	0	0	0	0
13.06524	0.001421052	-0.1616693	0.001665406	-0.001263655	0.05026495	-0.03813938
13.08181	0.001421052	-0.1616693	0	0	-0.05144665	0.03903601
13.09838	0.001421052	-0.1616693	0	0	0	0
13.11495	0.001421052	-0.1616693	0	0	0	0
13.13151	0.001421052	-0.1616693	0	0	0	0
13.14808	0.001421052	-0.1616693	0	0	0	0
13.17158	0.001421052	-0.1616293	0	0.001699679	0	0.04242627
13.18815	0.001421052	-0.1616293	0	0	0	-0.04242123
13.20497	0.001421052	-0.1616293	0	0	0	0
13.22139	0.001421052	-0.1616293	0	0	0	0
13.23806	0.001421052	-0.1616293	0	0	0	0
13.25441	0.001394736	-0.1615694	-0.001608986	0.003663447	-0.04872901	0.1109495
13.27098	0.001394736	-0.1615694	0	0	0.04886733	-0.1112644
13.28755	0.001394736	-0.1615694	0	0	0	0
13.30689	0.001421052	-0.1615894	0.00136012	-0.001032014	0.03787416	-0.02873765
13.32346	0.001421052	-0.1615894	0	0	-0.03786812	0.02873308
13.34003	0.001421052	-0.1615894	0	0	0	0
13.3566	0.001394736	-0.1615694	-0.001588242	0.001205105	-0.04793186	0.0363691
13.37317	0.001394736	-0.1615694	0	0	0.04793186	-0.0363691
13.38973	0.001394736	-0.1615694	0	0	0	0
13.4063	0.001394736	-0.1615694	0	0	0	0
13.42286	0.001394736	-0.1615694	0	0	0	0
13.43952	0.001394736	-0.1615694	0	0	0	0
13.45599	0.001394736	-0.1615694	0	0	0	0
13.47256	0.001394736	-0.1615694	0	0	0	0
13.48913	0.001394736	-0.1615694	0	0	0	0
13.50599	0.001421052	-0.1615894	0.001560753	-0.001184248	0.04669106	-0.03542763
13.52228	0.001421052	-0.1615894	0	0	-0.0470833	0.03572525
13.53883	0.001421052	-0.1615894	0	0	0	0
13.5554	0.001421052	-0.1615894	0	0	0	0
13.57196	0.001421052	-0.1615894	0	0	0	0
13.58857	0.001421052	-0.1615894	0	0	0	0
13.6051	0.001394736	-0.1615694	-0.00159255	0.001208374	-0.04806603	0.0364709
13.62166	0.001394736	-0.1615694	0	0	0.04812698	-0.03651715
13.63851	0.001394736	-0.1615694	0	0	0	0
13.65479	0.00136842	-0.1615495	-0.00161633	0.001226423	-0.04878657	0.03701779
13.67136	0.00136842	-0.1615495	0	0	0.04920154	-0.03733266
13.68796	0.00136842	-0.1615495	0	0	0	0
13.70449	0.001315789	-0.1615095	-0.003184174	0.002416051	-0.09611241	0.07292707
13.72106	0.001315789	-0.1615095	0	0	0.0962038	-0.07299641
13.73763	0.001315789	-0.1615095	0	0	0	0
13.75445	0.00118421	-0.1614097	-0.007824109	0.005937571	-0.2343648	0.1778551
13.77076	0.00118421	-0.1614097	0	0	0.2361389	-0.1792014
13.78733	0.00118421	-0.1614097	0	0	0	0
13.80786	0.001157894	-0.1613897	-0.001281534	0.0009723899	-0.03454196	0.02620941
13.82443	0.001157894	-0.1613897	0	0	0.03453841	-0.02620672
13.84115	0.001157894	-0.1613897	0	0	0	0
13.85758	0.001157894	-0.1613897	0	0	0	0
13.8742	0.001157894	-0.1613897	0	0	0	0
13.89086	0.001157894	-0.1613897	0	0	0	0
13.90729	0.001157894	-0.1613897	0	0	0	0
13.92384	0.001157894	-0.1613897	0	0	0	0
13.9404	0.001157894	-0.1613897	0	0	0	0
13.95697	0.001157894	-0.1613897	0	0	0	0
13.97376	0.001157894	-0.1613897	0	0	0	0
13.99076	0.00118421	-0.1613697	0.001547616	0.001174285	0.04579763	0.03474987
14.00733	0.00118421	-0.1613697	0	0	-0.04609553	-0.03497591
14.02421	0.00118421	-0.1613697	0	0	0	0
14.04047	0.001157894	-0.1613098	-0.001618891	0.003686015	-0.0488526	0.1112313
14.0572	0.001157894	-0.1613098	0	0	0.04907575	-0.1117394
14.0736	0.001157894	-0.1613098	0	0	0	0
14.09017	-0.001789472	-0.1590744	-0.1779136	0.1349357	-5.396469	4.092866
14.10674	-0.001789472	-0.1590744	0	0	5.369752	-4.072603
14.1233	-0.001789472	-0.1590744	0	0	0	0
14.13987	-0.00271052	-0.1583763	-0.05559776	0.0421401	-1.67804	1.271864
14.1568	-0.00271052	-0.1583763	0	0	1.659885	-1.258103
14.17331	-0.00271052	-0.1583763	0	0	0	0
14.18957	-0.002973675	-0.158137	-0.01618505	0.01471861	-0.4938817	0.4491335
14.20614	-0.002973675	-0.158137	0	0	0.4930495	-0.4483767
14.2227	-0.002973675	-0.158137	0	0	0	0
14.23927	-0.003368408	-0.1578379	-0.0238179	0.01804724	-0.7187222	0.5445885
14.25584	-0.003368408	-0.1578379	0	0	0.7188464	-0.5446826
14.2724	-0.003368408	-0.1578379	0	0	0	0
14.28897	-0.003447355	-0.1577781	-0.004765211	0.003610336	-0.1438061	0.1089539
14.30554	-0.003447355	-0.1577781	0	0	0.1438185	-0.1089633
14.3221	-0.003447355	-0.1577781	0	0	0	0
14.33867	-0.003447355	-0.1577781	0	0	0	0
14.35524	-0.003447355	-0.1577781	0	0	0	0
14.3719	-0.003447355	-0.1577781	0	0	0	0
14.38837	-0.003447355	-0.1577781	0	0	0	0
14.40494	-0.003447355	-0.1577781	0	0	0	0
14.4215	-0.003447355	-0.1577781	0	0	0	0
14.43807	-0.003447355	-0.1577781	0	0	0	0
14.45464	-0.003447355	-0.1577781	0	0	0	0
14.4712	-0.003447355	-0.1577781	0	0	0	0
14.48777	-0.003447355	-0.1577781	0	0	0	0
14.50434	-0.003447355	-0.1577781	0	0	0	0
14.5209	-0.003447355	-0.1577781	0	0	0	0
14.53747	-0.003447355	-0.1577781	0	0	0	0
14.55404	-0.003447355	-0.1577781	0	0	0	0
14.57091	-0.003447355	-0.1577781	0	0	0	0
14.58717	-0.003447355	-0.1577781	0	0	0	0
14.60374	-0.003447355	-0.1577781	0	0	0	0
14.6203	-0.003447355	-0.1577781	0	0	0	0
14.63687	-0.003447355	-0.1577781	0	0	0	0
14.65344	-0.003447355	-0.1577781	0	0	0	0
14.67016	-0.003447355	-0.1577781	0	0	0	0
14.68657	-0.003447355	-0.1577781	0	0	0	0
14.70314	-0.003447355	-0.1577781	0	0	0	0
14.7197	-0.003447355	-0.1577781	0	0	0	0
14.73627	-0.003447355	-0.1577781	0	0	0	0
14.75283	-0.003447355	-0.1577781	0	0	0	0
14.76961	-0.003447355	-0.1577781	0	0	0	0
14.78599	-0.003447355	-0.1577781	0	0	0	0
14.80254	-0.003447355	-0.1577781	0	0	0	0
14.81912	-0.003447355	-0.1577781	0	0	0	0
14.83567	-0.003447355	-0.1577781	0	0	0	0
14.85224	-0.003447355	-0.1577781	0	0	0	0
14.8688	-0.003447355	-0.1577781	0	0	0	0
14.88537	-0.003421039	-0.1577582	0.001588404	0.001203445	0.0479395	0.0363211
14.90194	-0.003421039	-0.1577582	0	0	-0.0479395	-0.0363211
14.91858	-0.003421039	-0.1577582	0	0	0	0
14.9351	-0.003421039	-0.1577582	0	0	0	0
14.95164	-0.003421039	-0.1577582	0	0	0	0
14.9682	-0.003421039	-0.1577582	0	0	0	0
14.9849	-0.003421039	-0.1577582	0	0	0	0
15.00134	-0.003421039	-0.1577582	0	0	0	0
15.0179	-0.003421039	-0.1577582	0	0	0	0
15.03447	-0.003447355	-0.1577382	-0.001588404	0.001203445	-0.0479395	0.0363211
15.05103	-0.003447355	-0.1577382	0	0	0.0479395	-0.0363211
15.0676	-0.003447355	-0.1577382	0	0	0	0
15.08416	-0.00347367	-0.1577183	-0.00158877	0.001203722	-0.04795606	0.03633364
15.10073	-0.00347367	-0.1577183	0	0	0.04795192	-0.0363305
15.1173	-0.00347367	-0.1577183	0	0	0	0
15.13387	-0.003499986	-0.1576984	-0.001588495	0.001203515	-0.04794364	0.03632423
15.15043	-0.003499986	-0.1576984	0	0	0.04794364	-0.03632423
15.167	-0.003499986	-0.1576984	0	0	0	0
15.18357	-0.003526301	-0.1576784	-0.001588495	0.001203515	-0.04794226	0.03632319
15.20025	-0.003526301	-0.1576784	0	0	0.04777176	-0.03619401
15.2167	-0.003526301	-0.1576784	0	0	0	0
15.23327	-0.003552617	-0.1576585	-0.001588404	0.001203445	-0.04811121	0.03645119
15.24983	-0.003552617	-0.1576585	0	0	0.0479395	-0.0363211
15.2664	-0.003552617	-0.1576585	0	0	0	0
15.28296	-0.003552617	-0.1576585	0	0	0	0
15.29953	-0.003552617	-0.1576585	0	0	0	0
15.3161	-0.003552617	-0.1576585	0	0	0	0
15.33266	-0.003552617	-0.1576585	0	0	0	0
15.34923	-0.003552617	-0.1576585	0	0	0	0
15.3658	-0.003552617	-0.1576585	0	0	0	0
15.38236	-0.003552617	-0.1576585	0	0	0	0
15.39893	-0.003552617	-0.1576585	0	0	0	0
15.4155	-0.003552617	-0.1576585	0	0	0	0
15.43223	-0.003578932	-0.1576385	-0.001572473	0.001191375	-0.04721948	0.03577558
15.44863	-0.003578932	-0.1576385	0	0	0.04745732	-0.03595577
15.46526	-0.003578932	-0.1576385	0	0	0	0
15.48176	-0.003578932	-0.1576385	0	0	0	0
15.49833	-0.003578932	-0.1576385	0	0	0	0
15.5149	-0.003578932	-0.1576385	0	0	0	0
15.53146	-0.003578932	-0.1576385	0	0	0	0
15.54808	-0.003578932	-0.1576385	0	0	0	0
15.5646	-0.003578932	-0.1576385	0	0	0	0
15.58116	-0.003578932	-0.1576385	0	0	0	0
15.59773	-0.003578932	-0.1576385	0	0	0	0
15.6143	-0.003578932	-0.1576385	0	0	0	0
15.63087	-0.003605247	-0.1576186	-0.001588404	0.001203445	-0.0479395	0.0363211
15.64743	-0.003605247	-0.1576186	0	0	0.0479395	-0.0363211
15.664	-0.003605247	-0.1576186	0	0	0	0
15.68056	-0.003605247	-0.1576186	0	0	0	0
15.69713	-0.003605247	-0.1576186	0	0	0	0
15.7137	-0.003605247	-0.1576186	0	0	0	0
15.73026	-0.003657878	-0.1575787	-0.00317699	0.002407029	-0.09588728	0.07264847
15.74683	-0.003657878	-0.1575787	0	0	0.09588452	-0.07264637
15.76368	-0.003657878	-0.1575787	0	0	0	0
15.78278	-0.003736825	-0.1574791	-0.004132244	0.005217173	-0.1149329	0.1451088
15.79935	-0.003736825	-0.1574791	0	0	0.1158301	-0.1462415
15.81592	-0.003736825	-0.1574791	0	0	0	0
15.83249	-0.004184186	-0.1571402	-0.02699812	0.02045144	-0.8147579	0.6171901
15.84906	-0.004184186	-0.1571402	0	0	0.8147579	-0.6171901
15.86562	-0.004184186	-0.1571402	0	0	0	0
15.8822	-0.004815752	-0.1566619	-0.03810167	0.02885694	-1.149679	0.8707288
15.89875	-0.004815752	-0.1566619	0	0	1.150043	-0.8710045
15.91545	-0.004815752	-0.1566619	0	0	0	0
15.93188	-0.01389384	-0.1498363	-0.5523424	0.4152874	-16.67117	12.53448
15.94847	-0.01389384	-0.1498363	0	0	16.7275	-12.57684
15.96502	-0.01389384	-0.1498363	0	0	0	0
15.98159	-0.04993214	-0.1228648	-2.175777	1.628383	-65.70101	49.17159
15.99828	-0.04993214	-0.1228648	0	0	65.4203	-48.96151
16.01472	-0.04993214	-0.1228648	0	0	0	0
16.03129	-0.08124184	-0.09999621	-1.890074	1.380507	-57.26507	41.82632
16.04785	-0.08124184	-0.09999621	0	0	57.04585	-41.66619
16.06442	-0.08124184	-0.09999621	0	0	0	0
16.08099	-0.106022	-0.09489847	-1.495734	0.3077002	-45.14134	9.286409
16.09756	-0.106022	-0.09489847	0	0	45.14134	-9.286409
16.11419	-0.106022	-0.09489847	0	0	0	0
16.13069	-0.1566532	-0.1097133	-3.06918	-0.8980532	-92.63871	-27.10642
16.14725	-0.1566532	-0.1097133	0	0	92.82575	27.16115
16.16382	-0.1566532	-0.1097133	0	0	0	0
16.18039	-0.1784753	-0.112667	-1.317332	-0.1783013	-39.75946	-5.381454
16.19706	-0.1784753	-0.112667	0	0	39.63169	5.364161
16.21352	-0.1784753	-0.112667	0	0	0	0
16.23008	-0.1784753	-0.1126278	0	0.002363362	0	0.07156534
16.24695	-0.1784753	-0.1126278	0	0	0	-0.0707037
16.26381	-0.1784753	-0.1126278	0	0	0	0
16.32184	-0.1783733	-0.1120799	0.001756824	0.009441838	0.02345749	0.1260694
16.34138	-0.1783733	-0.1120799	0	0	-0.02264825	-0.1217203
16.35969	-0.1783478	-0.1120212	0.001391747	0.003206307	0.03677432	0.08472072
16.37651	-0.1783478	-0.1120212	0	0	-0.0396154	-0.091266
16.39309	-0.1783478	-0.1120212	0	0	0	0
16.40939	-0.1782204	-0.1119233	0.0078189	0.006002688	0.237823	0.1825803
16.42596	-0.1782204	-0.1119233	0	0	-0.2378644	-0.1826121
16.44273	-0.1782204	-0.1119233	0	0	0	0
16.45909	-0.1780165	-0.1117668	0.01246521	0.009567739	0.3762439	0.2887882
16.47606	-0.1780165	-0.1117668	0	0	-0.3740047	-0.2870694
16.49222	-0.1780165	-0.1117668	0	0	0	0
16.50897	-0.178042	-0.1117081	-0.001521765	0.003503351	-0.04623302	0.1064359
16.52535	-0.178042	-0.1117081	0	0	0.04592961	-0.1057374
16.54231	-0.178042	-0.1117081	0	0	0	0
16.55848	-0.1780929	-0.1117081	-0.003152089	0	-0.09514119	0
16.57505	-0.1780929	-0.1117081	0	0	0.09627184	0
16.59212	-0.1780929	-0.1117081	0	0	0	0
16.60819	-0.1839748	-0.1071928	-0.3660718	0.2810251	-11.04807	8.481355
16.62475	-0.1839748	-0.1071928	0	0	11.21856	-8.612234
16.64132	-0.1839748	-0.1071928	0	0	0	0
16.6588	-0.184102	-0.1070951	-0.007273883	0.005585166	-0.2136237	0.1640284
16.67537	-0.184102	-0.1070951	0	0	0.2135997	-0.1640101
16.69194	-0.184102	-0.1070951	0	0	0	0
16.7085	-0.1840511	-0.1071342	0.003071381	-0.002358414	0.09270515	-0.07118528
16.72507	-0.1840511	-0.1071342	0	0	-0.0926998	0.07118118
16.74164	-0.1840511	-0.1071342	0	0	0	0
16.7584	-0.1840257	-0.1071537	0.001517344	-0.001164897	0.04551841	-0.03494545
16.77501	-0.1840257	-0.1071537	0	0	-0.04547418	0.03491149
16.79151	-0.1840257	-0.1071537	0	0	0	0
16.8079	-0.1840257	-0.1071537	0	0	0	0
16.82447	-0.1840257	-0.1071537	0	0	0	0
16.84104	-0.1840257	-0.1071537	0	0	0	0
16.85773	-0.1840257	-0.1071537	0	0	0	0
16.87463	-0.1840257	-0.1071537	0	0	0	0
16.89158	-0.1840257	-0.1071537	0	0	0	0
16.90745	-0.1840002	-0.1071732	0.001602299	-0.001230119	0.0488212	-0.03748107
16.92387	-0.1840002	-0.1071732	0	0	-0.04961998	0.03809431
16.94059	-0.1840002	-0.1071732	0	0	0	0
16.957	-0.1840002	-0.1071732	0	0	0	0
16.97398	-0.1840002	-0.1071732	0	0	0	0
16.99013	-0.1840002	-0.1071732	0	0	0	0
17.0067	-0.1840002	-0.1071732	0	0	0	0
17.02327	-0.1840002	-0.1071732	0	0	0	0
17.03983	-0.1840002	-0.1071732	0	0	0	0
17.05697	-0.1840002	-0.1071732	0	0	0	0
17.07297	-0.1840002	-0.1071732	0	0	0	0
17.08966	-0.1840002	-0.1071732	0	0	0	0
17.1061	-0.1840002	-0.1071732	0	0	0	0
17.12267	-0.1840002	-0.1071732	0	0	0	0
17.13947	-0.1840002	-0.1071732	0	0	0	0
17.1558	-0.1840002	-0.1071732	0	0	0	0
17.17237	-0.1840002	-0.1071732	0	0	0	0
17.18902	-0.1840002	-0.1071732	0	0	0	0
17.20606	-0.1840002	-0.1071732	0	0	0	0
17.22207	-0.1840002	-0.1071732	0	0	0	0
17.23864	-0.1840002	-0.1071732	0	0	0	0
17.2552	-0.1838476	-0.1072513	0.009212023	-0.004715293	0.2780194	-0.1423078
17.27202	-0.1838476	-0.1072513	0	0	-0.2759543	0.1412508
17.28839	-0.1838476	-0.1072513	0	0	0	0
17.3049	-0.1835424	-0.1074467	0.0184824	-0.01182612	0.5620381	-0.3596248
17.32147	-0.1835424	-0.1074467	0	0	-0.5586681	0.3574685
17.33804	-0.1835424	-0.1074467	0	0	0	0
17.3546	-0.1829827	-0.1078764	0.03378461	-0.02593883	1.019621	-0.7828355
17.37117	-0.1829827	-0.1078764	0	0	-1.019621	0.7828355
17.38774	-0.1829827	-0.1078764	0	0	0	0
17.40431	-0.1814301	-0.1086384	0.09371223	-0.0459931	2.828241	-1.388075
17.42087	-0.1814301	-0.1086384	0	0	-2.828403	1.388155
17.43744	-0.1814301	-0.1086384	0	0	0	0
17.45401	-0.1780929	-0.1097915	0.2014314	-0.06960599	6.079211	-2.100713
17.47057	-0.1780929	-0.1097915	0	0	-6.079211	2.100713
17.48719	-0.1780929	-0.1097915	0	0	0	0
17.5037	-0.1722497	-0.1092638	0.3538409	0.0319606	10.68017	0.9646838
17.52028	-0.1722497	-0.1092638	0	0	-10.69495	-0.9660185
17.53684	-0.1722497	-0.1092638	0	0	0	0
17.55341	-0.145053	-0.1300281	1.641595	-1.253336	49.5463	-37.82792
17.5701	-0.145053	-0.1300281	0	0	-49.3616	37.6869
17.58654	-0.145053	-0.1300281	0	0	0	0
17.60311	-0.1262461	-0.141842	1.13545	-0.7132532	34.39864	-21.60812
17.61967	-0.1262461	-0.141842	0	0	-34.26993	21.52726
17.63624	-0.1262461	-0.141842	0	0	0	0
17.65287	-0.1063603	-0.12668	1.195903	0.9118195	36.02605	27.46817
17.66938	-0.1063603	-0.12668	0	0	-36.09241	-27.51877
17.68594	-0.1063603	-0.12668	0	0	0	0
17.70251	-0.09072395	-0.1149383	0.9440269	0.7088935	28.49407	21.39691
17.71908	-0.09072395	-0.1149383	0	0	-28.49243	-21.39568
17.73564	-0.09072395	-0.1149383	0	0	0	0
17.75221	-0.08359421	-0.1095961	0.4303522	0.3224581	12.98805	9.731805
17.76921	-0.08359421	-0.1095961	0	0	-12.82126	-9.606826
17.78537	-0.08359421	-0.1095961	0	0	0	0
17.80462	-0.06540657	-0.09639563	0.9446763	0.6856371	26.67542	19.36076
17.82128	-0.06540657	-0.09639563	0	0	-26.30563	-19.09238
17.83776	-0.06540657	-0.09639563	0	0	0	0
17.85433	-0.04945963	-0.08909278	0.96267	0.4408517	29.13058	13.34025
17.87089	-0.04945963	-0.08909278	0	0	-29.05678	-13.30646
17.88763	-0.04945963	-0.08909278	0	0	0	0
17.90403	-0.04767437	-0.0882395	0.1088612	0.05203154	3.285625	1.570405
17.92066	-0.04767437	-0.0882395	0	0	-3.295871	-1.575302
17.93756	-0.04767437	-0.0882395	0	0	0	0
17.95375	-0.03559023	-0.09709591	0.7465032	-0.5471084	22.55808	-16.5327
17.97029	-0.03559023	-0.09709591	0	0	-22.80652	16.71478
17.98686	-0.03559023	-0.09709591	0	0	0	0
18.00342	-0.0168142	-0.1110235	1.133584	-0.840863	34.21557	-25.38022
18.01999	-0.0168142	-0.1110235	0	0	-34.2136	25.37876
18.03656	-0.0168142	-0.1110235	0	0	0	0
18.05324	-0.01457791	-0.1120212	0.1340873	-0.05982227	4.033297	-1.799432
18.06969	-0.01457791	-0.1120212	0	0	-4.046763	1.80544
18.08626	-0.01457791	-0.1120212	0	0	0	0
18.10283	-0.01413064	-0.1120016	0.02700391	0.001181231	0.8150735	0.03565373
18.11939	-0.01413064	-0.1120016	0	0	-0.8150265	-0.03565168
18.13596	-0.01413064	-0.1120016	0	0	0	0
18.15252	-0.01144687	-0.1139982	0.16203	-0.1205409	4.890637	-3.638351
18.16909	-0.01144687	-0.1139982	0	0	-4.890356	3.638142
18.18566	-0.01144687	-0.1139982	0	0	0	0
18.20222	-0.01113112	-0.1142332	0.01906304	-0.01418782	0.57539	-0.4282386
18.21879	-0.01113112	-0.1142332	0	0	-0.5753569	0.4282139
18.23536	-0.01113112	-0.1142332	0	0	0	0
18.25192	-0.01110481	-0.1142528	0.001588601	-0.001182131	0.04794959	-0.03568089
18.26849	-0.01110481	-0.1142528	0	0	-0.04794683	0.03567883
18.28506	-0.01110481	-0.1142528	0	0	0	0
18.30163	-0.01110481	-0.1142919	0	-0.002364439	0	-0.07136303
18.31832	-0.01110481	-0.1142919	0	0	0	0.07109292
18.33476	-0.01110481	-0.1142919	0	0	0	0
18.35133	-0.01110481	-0.1142919	0	0	0	0
18.36789	-0.01110481	-0.1142919	0	0	0	0
18.38453	-0.01110481	-0.1142919	0	0	0	0
18.40102	-0.01115743	-0.1143311	-0.003190059	-0.002374281	-0.09628726	-0.07166419
18.41759	-0.01115743	-0.1143311	0	0	0.09647053	0.0718006
18.43416	-0.01115743	-0.1143311	0	0	0	0
18.4559	-0.01118374	-0.1143507	-0.00121023	-0.0009009151	-0.03159118	-0.023517
18.47288	-0.01118374	-0.1143507	0	0	0.03125814	0.02326908
18.49884	-0.01118374	-0.1143507	0	0	0	0
18.51541	-0.01118374	-0.1143507	0	0	0	0
18.53197	-0.01118374	-0.114429	0	-0.004729873	0	-0.1427478
18.5487	-0.01118374	-0.114429	0	0	0	0.1420609
18.56511	-0.01118374	-0.114429	0	0	0	0
18.58167	-0.01121006	-0.1144486	-0.001588235	-0.001181859	-0.04817151	-0.03584602
18.59851	-0.01121006	-0.1144486	0	0	0.04755254	0.03538543
18.61481	-0.01121006	-0.1144486	0	0	0	0
18.63172	-0.01118374	-0.1144682	0.00155599	-0.001158305	0.046852	-0.0348774
18.64794	-0.01118374	-0.1144682	0	0	-0.04695988	0.03495771
18.66451	-0.01118374	-0.1144682	0	0	0	0
18.68108	-0.01121006	-0.1144878	-0.001588235	-0.001182308	-0.04793303	-0.03568214
18.69765	-0.01121006	-0.1144878	0	0	0.04792751	0.03567803
18.71421	-0.01121006	-0.1144878	0	0	0	0
18.73078	-0.01121006	-0.1144878	0	0	0	0
18.74734	-0.01121006	-0.1144878	0	0	0	0
18.76391	-0.01121006	-0.1144878	0	0	0	0
18.78047	-0.01121006	-0.1144878	0	0	0	0
18.79704	-0.01121006	-0.1144878	0	0	0	0
18.81361	-0.01121006	-0.1144878	0	0	0	0
18.83018	-0.01123637	-0.1145074	-0.001588235	-0.001181859	-0.04793303	-0.03566857
18.84674	-0.01123637	-0.1145074	0	0	0.04793303	0.03566857
18.86364	-0.01123637	-0.1145074	0	0	0	0
18.87988	-0.01126268	-0.1145269	-0.001620263	-0.001206193	-0.04890246	-0.03640509
18.89664	-0.01126268	-0.1145269	0	0	0.04910032	0.03655238
18.91307	-0.01126268	-0.1145269	0	0	0	0
18.92957	-0.01128899	-0.1145465	-0.001594292	-0.001186817	-0.04840282	-0.03603186
18.94618	-0.01128899	-0.1145465	0	0	0.04814909	0.03584298
18.96295	-0.01128899	-0.1145465	0	0	0	0
18.97976	-0.01128899	-0.1145465	0	0	0	0
18.99633	-0.01128899	-0.1145465	0	0	0	0
19.0129	-0.01128899	-0.1145465	0	0	0	0
19.02946	-0.01131531	-0.1145661	-0.001588418	-0.001182445	-0.04794407	-0.03569036
19.04603	-0.01131531	-0.1145661	0	0	0.04793303	0.03568214
19.06319	-0.01131531	-0.1145661	0	0	0	0
19.07996	-0.01134162	-0.1145857	-0.001568908	-0.001167921	-0.0462424	-0.0344236
19.10004	-0.01134162	-0.1145857	0	0	0.04257115	0.03169067
19.11662	-0.01134162	-0.1145857	0	0	0	0
19.13328	-0.01144687	-0.1146641	-0.006316468	-0.004701719	-0.1900625	-0.1414747
19.14975	-0.01144687	-0.1146641	0	0	0.1906424	0.1419063
19.16632	-0.01144687	-0.1146641	0	0	0	0
19.18288	-0.01165737	-0.1148208	-0.01270717	-0.009459557	-0.3835254	-0.2855064
19.19945	-0.01165737	-0.1148208	0	0	0.3835033	0.28549
19.21602	-0.01165737	-0.1148208	0	0	0	0
19.23258	-0.01397278	-0.1165451	-0.1397583	-0.1040823	-4.217915	-3.141209
19.24915	-0.01397278	-0.1165451	0	0	4.218158	3.14139
19.26588	-0.01397278	-0.1165451	0	0	0	0
19.28228	-0.0142885	-0.1167803	-0.01924334	-0.01433715	-0.5807653	-0.4326959
19.29885	-0.0142885	-0.1167803	0	0	0.5835872	0.4347983
19.31562	-0.0142885	-0.1167803	0	0	0	0
19.33198	-0.0142885	-0.1168196	0	-0.002397224	0	-0.07235669
19.34855	-0.0142885	-0.1168196	0	0	0	0.07280518
19.36512	-0.0142885	-0.1168196	0	0	0	0
19.38168	-0.01423588	-0.1168588	0.003176921	-0.002366961	0.09589069	-0.07144324
19.39861	-0.01423588	-0.1168588	0	0	-0.09485856	0.07067425
19.41482	-0.01423588	-0.1168588	0	0	0	0
19.43139	-0.01420957	-0.1168784	0.001588123	-0.001183208	0.04845401	-0.03609996
19.44803	-0.01420957	-0.1168784	0	0	-0.04781678	0.0356252
19.46452	-0.01420957	-0.1168784	0	0	0	0
19.48108	-0.01420957	-0.1168784	0	0	0	0
19.49765	-0.01420957	-0.1168784	0	0	0	0
19.51422	-0.01420957	-0.1168784	0	0	0	0
19.53078	-0.01418326	-0.116898	0.001588432	-0.00118393	0.0479445	-0.0357352
19.54735	-0.01418326	-0.116898	0	0	-0.04794174	0.03573314
19.56439	-0.01418326	-0.116898	0	0	0	0
19.58048	-0.01415695	-0.1169568	0.001634993	-0.003654383	0.04934986	-0.1103022
19.59705	-0.01415695	-0.1169568	0	0	-0.05005881	0.1118868
19.61362	-0.01415695	-0.1169568	0	0	0	0
19.63018	-0.01413064	-0.1169372	0.001588123	0.001183208	0.04792964	0.03570928
19.64675	-0.01413064	-0.1169372	0	0	-0.04792964	-0.03570928
19.66357	-0.01413064	-0.1169372	0	0	0	0
19.67988	-0.01413064	-0.1169372	0	0	0	0
19.69645	-0.01413064	-0.1169372	0	0	0	0
19.71302	-0.01413064	-0.1169372	0	0	0	0
19.72958	-0.01413064	-0.1169372	0	0	0	0
19.74615	-0.01413064	-0.1169372	0	0	0	0
19.76274	-0.01413064	-0.1169372	0	0	0	0
19.77928	-0.01413064	-0.1169372	0	0	0	0
19.79589	-0.01413064	-0.1169372	0	0	0	0
19.81242	-0.01413064	-0.1169372	0	0	0	0
19.82898	-0.01413064	-0.1169372	0	0	0	0
19.84555	-0.01413064	-0.1169372	0	0	0	0
19.86212	-0.01413064	-0.1169372	0	0	0	0
19.87868	-0.01413064	-0.1169372	0	0	0	0
19.89525	-0.01413064	-0.1169372	0	0	0	0
19.91182	-0.01413064	-0.1169372	0	0	0	0
19.92839	-0.01413064	-0.1169372	0	0	0	0
19.94495	-0.01413064	-0.1169372	0	0	0	0
19.96152	-0.01413064	-0.1169372	0	0	0	0
19.97808	-0.01413064	-0.1169372	0	0	0	0
19.99465	-0.01413064	-0.1169372	0	0	0	0
20.01122	-0.01413064	-0.1169372	0	0	0	0
20.02779	-0.01413064	-0.1169372	0	0	0	0
20.04453	-0.01413064	-0.1169372	0	0	0	0
20.06092	-0.01413064	-0.1169372	0	0	0	0
20.07748	-0.01413064	-0.1169372	0	0	0	0
20.09407	-0.01413064	-0.1169372	0	0	0	0
20.11124	-0.01413064	-0.1169372	0	0	0	0
20.12719	-0.01413064	-0.1169372	0	0	0	0
20.14375	-0.01413064	-0.1169372	0	0	0	0
20.16032	-0.01413064	-0.1169372	0	0	0	0
20.17697	-0.01413064	-0.1169372	0	0	0	0
20.19356	-0.01413064	-0.1169372	0	0	0	0
20.21003	-0.01413064	-0.1169372	0	0	0	0
20.22681	-0.01413064	-0.1169372	0	0	0	0
20.24316	-0.01413064	-0.1169372	0	0	0	0
20.25973	-0.01413064	-0.1169372	0	0	0	0
20.27684	-0.01413064	-0.1169372	0	0	0	0
20.29287	-0.01413064	-0.1169372	0	0	0	0
20.3096	-0.01413064	-0.1169372	0	0	0	0
20.32658	-0.01413064	-0.1169372	0	0	0	0
20.34286	-0.01413064	-0.1169372	0	0	0	0
20.40857	-0.01413064	-0.1169372	0	0	0	0
20.42704	-0.01413064	-0.1169372	0	0	0	0
20.44361	-0.01413064	-0.1169372	0	0	0	0
20.46018	-0.01413064	-0.1169372	0	0	0	0
20.48453	-0.01415695	-0.1169176	-0.00108056	0.0008050559	-0.02640895	0.01967561
20.5011	-0.01415695	-0.1169176	0	0	0.02640649	-0.01967377
20.5183	-0.01413064	-0.1169372	0.001530165	-0.001140027	0.04531701	-0.03376278
20.53438	-0.01413064	-0.1169372	0	0	-0.04598458	0.03426015
20.5508	-0.01413064	-0.1169372	0	0	0	0
20.56737	-0.01415695	-0.1169176	-0.001588306	0.001183344	-0.04814579	0.03587032
20.58394	-0.01415695	-0.1169176	0	0	0.04793516	-0.0357134
20.6008	-0.01415695	-0.1169176	0	0	0	0
20.61707	-0.01415695	-0.1169176	0	0	0	0
20.63364	-0.01415695	-0.1169176	0	0	0	0
20.65021	-0.01415695	-0.1169176	0	0	0	0
20.66677	-0.01415695	-0.1169176	0	0	0	0
20.68334	-0.01415695	-0.1169176	0	0	0	0
20.6999	-0.01415695	-0.1169176	0	0	0	0
20.71647	-0.01415695	-0.1169176	0	0	0	0
20.73304	-0.01415695	-0.1169176	0	0	0	0
20.7496	-0.01415695	-0.1169176	0	0	0	0
20.76617	-0.01415695	-0.1169176	0	0	0	0
20.78275	-0.01415695	-0.1169176	0	0	0	0
20.7994	-0.01415695	-0.1169176	0	0	0	0
20.81602	-0.01415695	-0.1169176	0	0	0	0
20.83244	-0.01415695	-0.1169176	0	0	0	0
20.84942	-0.01415695	-0.1169176	0	0	0	0
20.86557	-0.01415695	-0.1169176	0	0	0	0
20.88214	-0.01415695	-0.1169176	0	0	0	0
20.89961	-0.01415695	-0.1169176	0	0	0	0
20.91537	-0.01415695	-0.1169176	0	0	0	0
20.93184	-0.01415695	-0.1169176	0	0	0	0
20.94841	-0.01415695	-0.1169176	0	0	0	0
20.96498	-0.01415695	-0.1169176	0	0	0	0
20.98154	-0.01415695	-0.1169176	0	0	0	0
20.99811	-0.01415695	-0.1169176	0	0	0	0
21.01467	-0.01415695	-0.1169176	0	0	0	0
21.03124	-0.01415695	-0.1169176	0	0	0	0
21.04781	-0.01415695	-0.1169176	0	0	0	0
21.06438	-0.01415695	-0.1169176	0	0	0	0
21.08097	-0.01415695	-0.1169176	0	0	0	0
21.09805	-0.01415695	-0.1169176	0	0	0	0
21.11407	-0.01415695	-0.1169176	0	0	0	0
21.13076	-0.01415695	-0.1169176	0	0	0	0
21.14721	-0.01415695	-0.1169176	0	0	0	0
21.16378	-0.01413064	-0.116898	0.001588123	0.001183208	0.04810131	0.03583718
21.18034	-0.01413064	-0.116898	0	0	-0.0479324	-0.03571134
21.19691	-0.01413064	-0.116898	0	0	0	0
21.21376	-0.01415695	-0.1168784	-0.001561339	0.001163695	-0.04672059	0.03482173
21.23005	-0.01415695	-0.1168784	0	0	0.04712132	-0.0351204
21.24661	-0.01415695	-0.1168784	0	0	0	0
21.26318	-0.01415695	-0.1168784	0	0	0	0
21.27999	-0.01415695	-0.1168784	0	0	0	0
21.29631	-0.01415695	-0.1168784	0	0	0	0
21.31288	-0.01415695	-0.1168784	0	0	0	0
21.32945	-0.01415695	-0.1168784	0	0	0	0
21.34601	-0.01415695	-0.1168784	0	0	0	0
21.36258	-0.01415695	-0.1168784	0	0	0	0
21.37915	-0.01415695	-0.1168784	0	0	0	0
21.3964	-0.01415695	-0.1168784	0	0	0	0
21.41228	-0.01415695	-0.1168784	0	0	0	0
21.42885	-0.01415695	-0.1168784	0	0	0	0
21.44542	-0.01415695	-0.1168784	0	0	0	0
21.46198	-0.01415695	-0.1168784	0	0	0	0
21.47855	-0.01415695	-0.1168784	0	0	0	0
21.49512	-0.01415695	-0.1168784	0	0	0	0
21.51168	-0.01415695	-0.1168784	0	0	0	0
21.52825	-0.01415695	-0.1168784	0	0	0	0
21.54482	-0.01415695	-0.1168784	0	0	0	0
21.56138	-0.01415695	-0.1168784	0	0	0	0
21.57829	-0.01415695	-0.1168784	0	0	0	0
21.59451	-0.01415695	-0.1168784	0	0	0	0
21.61109	-0.01415695	-0.1168784	0	0	0	0
21.62777	-0.01415695	-0.1168784	0	0	0	0
21.64422	-0.01415695	-0.1168784	0	0	0	0
21.66079	-0.01415695	-0.1168784	0	0	0	0
21.67735	-0.01415695	-0.1168784	0	0	0	0
21.69418	-0.01415695	-0.1168784	0	0	0	0
21.71048	-0.01415695	-0.1168784	0	0	0	0
21.72705	-0.01415695	-0.1168784	0	0	0	0
21.74362	-0.01415695	-0.1168784	0	0	0	0
21.76019	-0.01499888	-0.1160551	-0.0508188	0.04969068	-1.533714	1.499668
21.77684	-0.01499888	-0.1160551	0	0	1.529576	-1.495621
21.79332	-0.01499888	-0.1160551	0	0	0	0
21.8099	-0.0247844	-0.1083453	-0.5901796	0.4649925	-17.85482	14.06751
21.82645	-0.0247844	-0.1083453	0	0	17.81063	-14.03269
21.84302	-0.0247844	-0.1083453	0	0	0	0
21.85958	-0.04470703	-0.09256691	-1.202671	0.952494	-36.30087	28.74964
21.87626	-0.04470703	-0.09256691	0	0	36.17591	-28.65067
21.89272	-0.04470703	-0.09256691	0	0	0	0
21.90928	-0.07095961	-0.06526259	-1.584608	1.648092	-47.98932	49.91191
21.92585	-0.07095961	-0.06526259	0	0	47.82082	-49.73666
21.94242	-0.07095961	-0.06526259	0	0	0	0
21.95899	-0.07574952	-0.02886035	-0.2891862	2.197749	-8.72816	66.33202
21.9759	-0.07574952	-0.02886035	0	0	8.638645	-65.65173
21.99213	-0.07574952	-0.02886035	0	0	0	0
22.00869	-0.05727938	0.01075992	1.114988	2.39176	34.00075	72.93497
22.02526	-0.05727938	0.01075992	0	0	-33.65041	-72.18346
22.04213	-0.05727938	0.01075992	0	0	0	0
22.05839	-0.05024714	0.03171205	0.4324321	1.288406	13.05233	38.88865
22.07523	-0.05024714	0.03171205	0	0	-13.06587	-38.92899
22.09153	-0.05024714	0.03171205	0	0	0	0
22.10809	-0.05804	0.03724768	-0.4705947	0.3342854	-14.32046	10.17249
22.12466	-0.05804	0.03724768	0	0	14.20339	-10.08933
22.14123	-0.05804	0.03724768	0	0	0	0
22.15798	-0.05717446	0.03905382	0.05165543	0.1077903	1.55013	3.234683
22.17459	-0.05717446	0.03905382	0	0	-1.548181	-3.230615
22.19093	-0.05717446	0.03905382	0	0	0	0
22.20749	-0.03884887	0.05213649	1.10639	0.789853	33.63292	24.01058
22.22406	-0.03884887	0.05213649	0	0	-33.39284	-23.83918
22.24065	-0.03884887	0.05213649	0	0	0	0
22.25744	-0.03151588	0.05838342	0.4365884	0.371927	13.07765	11.14077
22.27376	-0.03151588	0.05838342	0	0	-13.18461	-11.23189
22.2905	-0.03151588	0.05838342	0	0	0	0
22.30699	-0.03803428	0.06312229	-0.3953175	0.2873954	-11.89646	8.648717
22.32346	-0.03803428	0.06312229	0	0	11.99492	-8.720294
22.34002	-0.03803428	0.06312229	0	0	0	0
22.35763	-0.03798173	0.06308529	0.002984158	-0.00210099	0.08732257	-0.06147925
22.37316	-0.03798173	0.06308529	0	0	-0.09006208	0.06340799
22.38981	-0.03798173	0.06308529	0	0	0	0
22.40632	-0.03803428	0.06327029	-0.003183815	0.01120779	-0.09600483	0.3379599
22.42286	-0.03803428	0.06327029	0	0	0.0963484	-0.3391693
22.43943	-0.03803428	0.06327029	0	0	0	0
22.47423	-0.04651904	0.06946293	-0.2438181	0.1779518	-4.746432	3.464206
22.4908	-0.04651904	0.06946293	0	0	4.746432	-3.464206
22.50736	-0.0500109	0.07398599	-0.2107929	0.2730435	-6.361742	8.24047
22.52393	-0.0500109	0.07398599	0	0	6.362109	-8.240944
22.54053	-0.0500109	0.07398599	0	0	0	0
22.55706	-0.0300173	0.08907095	1.209741	0.9127367	36.51215	27.54803
22.57363	-0.0300173	0.08907095	0	0	-36.55424	-27.57979
22.59037	-0.0300173	0.08907095	0	0	0	0
22.60676	-0.02896558	0.1248233	0.06415385	2.180865	1.936167	65.81863
22.62333	-0.02896558	0.1248233	0	0	-1.946475	-66.16904
22.64046	-0.02896558	0.1248233	0	0	0	0
22.65646	-0.03380291	0.1452945	-0.3022828	1.27924	-9.123437	38.60975
22.67303	-0.03380291	0.1452945	0	0	9.281051	-39.27676
22.69038	-0.03380291	0.1452945	0	0	0	0
22.70616	-0.03230455	0.14484	0.09496763	-0.02880576	2.866294	-0.8694096
22.72273	-0.03230455	0.14484	0	0	-2.9361	0.8905835
22.73929	-0.03230455	0.14484	0	0	0	0
22.75586	-0.0296755	0.1428399	0.1586898	-0.1207295	4.789268	-3.643623
22.77247	-0.0296755	0.1428399	0	0	-4.782661	3.638596
22.78923	-0.0296755	0.1428399	0	0	0	0
22.80556	-0.02972808	0.1427671	-0.003219588	-0.00445412	-0.09731302	-0.1346271
22.82213	-0.02972808	0.1427671	0	0	0.09786025	0.1353842
22.83869	-0.02972808	0.1427671	0	0	0	0
22.85526	-0.02978067	0.1426944	-0.003174109	-0.004391046	-0.0957948	-0.132522
22.87183	-0.02978067	0.1426944	0	0	0.0957948	0.132522
22.88885	-0.02978067	0.1426944	0	0	0	0
22.90496	-0.02978067	0.1426944	0	0	0	0
22.92153	-0.02978067	0.1426944	0	0	0	0
22.93812	-0.02978067	0.1426944	0	0	0	0
22.95466	-0.02975437	0.1426398	0.001589067	-0.00329701	0.04795814	-0.09950396
22.97123	-0.02975437	0.1426398	0	0	-0.04799129	0.09957274
22.98779	-0.02975437	0.1426398	0	0	0	0
23.00436	-0.02972808	0.1425853	0.001587055	-0.003293734	0.0478974	-0.09940509
23.02093	-0.02972808	0.1425853	0	0	-0.0478974	0.09940509
23.03766	-0.02972808	0.1425853	0	0	0	0
23.05407	-0.02972808	0.1425853	0	0	0	0
23.07093	-0.02972808	0.1425853	0	0	0	0
23.0872	-0.02972808	0.1425853	0	0	0	0
23.10376	-0.02972808	0.1425853	0	0	0	0
23.12033	-0.02972808	0.1425853	0	0	0	0
23.13691	-0.02972808	0.1425853	0	0	0	0
23.15346	-0.02975437	0.1425671	-0.001588884	-0.001098577	-0.04796089	-0.03316084
23.17003	-0.02975437	0.1425671	0	0	0.04798023	0.0331742
23.1867	-0.02975437	0.1425671	0	0	0	0
23.20316	-0.02980696	0.1425307	-0.003194223	-0.002209514	-0.09640183	-0.06668326
23.21973	-0.02980696	0.1425307	0	0	0.09670801	0.06689505
23.23639	-0.02980696	0.1425307	0	0	0	0
23.25286	-0.02980696	0.1423852	0	-0.00883282	0	-0.2666057
23.26943	-0.02980696	0.1423852	0	0	0	0.2673136
23.286	-0.02980696	0.1423852	0	0	0	0
23.30256	-0.02197015	0.1362342	0.4730307	-0.3712754	14.2761	-11.20511
23.31913	-0.02197015	0.1362342	0	0	-14.27692	11.20576
23.3357	-0.02197015	0.1362342	0	0	0	0
23.35226	-0.01691944	0.1111182	0.3048967	-1.516177	9.201799	-45.75831
23.36883	-0.01691944	0.1111182	0	0	-9.202329	45.76094
23.3854	-0.01691944	0.1111182	0	0	0	0
23.40196	-0.05163826	0.05352762	-2.096115	-3.476978	-63.26816	-104.9475
23.41853	-0.05163826	0.05352762	0	0	63.26452	104.9414
23.4351	-0.05163826	0.05352762	0	0	0	0
23.45166	-0.06752875	-0.01551764	-0.9593723	-4.16854	-28.95725	-125.8213
23.46823	-0.06752875	-0.01551764	0	0	28.95391	125.8068
23.4848	-0.06752875	-0.01551764	0	0	0	0
23.50137	-0.06514453	-0.0154609	0.1439115	0.003424715	4.343509	0.103364
23.51793	-0.06514453	-0.0154609	0	0	-4.343259	-0.1033581
23.5345	-0.06514453	-0.0154609	0	0	0	0
23.55107	-0.05790887	-0.02295906	0.4367959	-0.4526424	13.18328	-13.66156
23.56763	-0.05790887	-0.02295906	0	0	-13.18328	13.66156
23.58432	-0.05790887	-0.02295906	0	0	0	0
23.60076	-0.04846203	-0.0728875	0.5745783	-3.036761	17.34281	-91.66018
23.61734	-0.04846203	-0.0728875	0	0	-17.40392	91.98321
23.6339	-0.04846203	-0.0728875	0	0	0	0
23.65539	-0.05497088	-0.09799096	-0.3028231	-1.167933	-7.957026	-30.68879
23.67267	-0.05497088	-0.09799096	0	0	7.811391	30.12711
23.68922	-0.05468227	-0.09812719	0.01743031	-0.008227379	0.5152225	-0.2431931
23.7051	-0.05468227	-0.09812719	0	0	-0.5374957	0.2537064
23.72166	-0.05468227	-0.09812719	0	0	0	0
23.73822	-0.05434119	-0.09838021	0.02059046	-0.01527418	0.6215286	-0.4610552
23.75479	-0.05434119	-0.09838021	0	0	-0.621457	0.4610022
23.77136	-0.05434119	-0.09838021	0	0	0	0
23.78974	-0.05426247	-0.09847753	0.00428196	-0.005293986	0.1225158	-0.151472
23.8064	-0.05426247	-0.09847753	0	0	-0.1221824	0.1510598
23.82288	-0.05426247	-0.09847753	0	0	0	0
23.83944	-0.05140205	-0.100678	0.1726553	-0.1328179	5.225787	-4.020022
23.85601	-0.05140205	-0.100678	0	0	-5.210746	4.008452
23.87258	-0.05140205	-0.100678	0	0	0	0
23.88914	-0.05119208	-0.1008728	0.01267418	-0.01175922	0.3825294	-0.3549145
23.90573	-0.05119208	-0.1008728	0	0	-0.3823313	0.3547307
23.9224	-0.05119208	-0.1008728	0	0	0	0
23.93896	-0.05116583	-0.1008923	0.001583949	-0.001175877	0.04765281	-0.03537604
23.95541	-0.05116583	-0.1008923	0	0	-0.04798044	0.03561927
23.97198	-0.05116583	-0.1008923	0	0	0	0
23.98854	-0.05116583	-0.1008923	0	0	0	0
24.00511	-0.05116583	-0.1008923	0	0	0	0
24.02168	-0.05116583	-0.1008923	0	0	0	0
24.03871	-0.05113958	-0.1009117	0.001541411	-0.001144136	0.04588074	-0.03405567
24.05483	-0.05113958	-0.1009117	0	0	-0.04649312	0.03451022
24.07138	-0.05113958	-0.1009117	0	0	0	0
24.08794	-0.0509821	-0.1010286	0.009505688	-0.007056074	0.287064	-0.2130877
24.10451	-0.0509821	-0.1010286	0	0	-0.2868823	0.2129527
24.12108	-0.0509821	-0.1010286	0	0	0	0
24.13764	-0.05077212	-0.1011845	0.01267732	-0.009410716	0.3826243	-0.2840323
24.15421	-0.05077212	-0.1011845	0	0	-0.3826243	0.2840323
24.17078	-0.05077212	-0.1011845	0	0	0	0
24.18734	-0.05077212	-0.1011845	0	0	0	0
24.20391	-0.05077212	-0.1011845	0	0	0	0
24.22048	-0.05077212	-0.1011845	0	0	0	0
24.23705	-0.05064088	-0.1012819	0.007921781	-0.005880512	0.2390798	-0.1774742
24.25361	-0.05064088	-0.1012819	0	0	-0.2390798	0.1774742
24.27018	-0.05064088	-0.1012819	0	0	0	0
24.28675	-0.04662408	-0.1042649	0.24251	-0.180095	7.319809	-5.435905
24.30331	-0.04662408	-0.1042649	0	0	-7.319388	5.435592
24.31988	-0.04662408	-0.1042649	0	0	0	0
24.33645	-0.02349568	-0.1214896	1.396194	-1.039801	42.13965	-31.38308
24.35302	-0.02349568	-0.1214896	0	0	-42.13723	31.38127
24.36958	-0.02349568	-0.1214896	0	0	0	0
24.38615	-0.01071012	-0.1310531	0.7719156	-0.5773873	23.29914	-17.42759
24.40272	-0.01071012	-0.1310531	0	0	-23.2978	17.42659
24.41928	-0.01071012	-0.1310531	0	0	0	0
24.44029	-0.0106838	-0.1310728	0.001252307	-0.0009382659	0.03332501	-0.0249681
24.49322	-0.0106838	-0.1310728	0	0	-0.01693848	0.01269082
24.51662	-0.0106838	-0.1310334	0	0.001684475	0	0.02206882
24.53601	-0.0106838	-0.1310334	0	0	0	-0.03936308
24.55984	-0.0106838	-0.1310334	0	0	0	0
24.5764	-0.0106838	-0.1310334	0	0	0	0
24.59297	-0.01071012	-0.1310136	-0.001588418	0.001190091	-0.04794131	0.03591907
24.60954	-0.01071012	-0.1310136	0	0	0.04793579	-0.03591494
24.62619	-0.01071012	-0.1310136	0	0	0	0
24.64267	-0.01076274	-0.1309348	-0.003194178	0.004786264	-0.09641159	0.1444664
24.65924	-0.01076274	-0.1309348	0	0	0.096662	-0.1448416
24.67581	-0.01076274	-0.1309348	0	0	0	0
24.69237	-0.01081537	-0.1308954	-0.003177202	0.002380455	-0.09589918	0.07185056
24.70894	-0.01081537	-0.1308954	0	0	0.09589366	-0.07184642
24.72551	-0.01081537	-0.1308954	0	0	0	0
24.74207	-0.01081537	-0.1308954	0	0	0	0
24.75864	-0.01081537	-0.1308954	0	0	0	0
24.77521	-0.01081537	-0.1308954	0	0	0	0
24.79177	-0.01081537	-0.1308954	0	0	0	0
24.80834	-0.01081537	-0.1308954	0	0	0	0
24.82492	-0.01081537	-0.1308954	0	0	0	0
24.84149	-0.01081537	-0.1308954	0	0	0	0
24.8581	-0.01081537	-0.1308954	0	0	0	0
24.87476	-0.01081537	-0.1308954	0	0	0	0
24.89247	-0.01081537	-0.1308954	0	0	0	0
24.90904	-0.01081537	-0.1308954	0	0	0	0
24.92561	-0.01081537	-0.1308954	0	0	0	0
24.94217	-0.01081537	-0.1308954	0	0	0	0
24.95874	-0.01081537	-0.1308954	0	0	0	0
24.97531	-0.01081537	-0.1308954	0	0	0	0
24.99187	-0.01081537	-0.1308954	0	0	0	0
25.00844	-0.01081537	-0.1308954	0	0	0	0
25.02501	-0.01081537	-0.1308954	0	0	0	0
25.04157	-0.01081537	-0.1308954	0	0	0	0
25.05815	-0.01081537	-0.1308954	0	0	0	0
25.07495	-0.01081537	-0.1308954	0	0	0	0
25.09127	-0.01081537	-0.1308954	0	0	0	0
25.10784	-0.01081537	-0.1308954	0	0	0	0
25.12509	-0.01081537	-0.1308954	0	0	0	0
25.14097	-0.01081537	-0.1308954	0	0	0	0
25.15755	-0.01081537	-0.1308954	0	0	0	0
25.17411	-0.01081537	-0.1308954	0	0	0	0
25.19068	-0.01081537	-0.1308954	0	0	0	0
25.20724	-0.01081537	-0.1308954	0	0	0	0
25.22381	-0.01081537	-0.1308954	0	0	0	0
25.24037	-0.01081537	-0.1308954	0	0	0	0
25.25694	-0.01081537	-0.1308954	0	0	0	0
25.27383	-0.01081537	-0.1308954	0	0	0	0
25.29007	-0.01081537	-0.1308954	0	0	0	0
25.30664	-0.01081537	-0.1308954	0	0	0	0
25.32321	-0.01081537	-0.1308954	0	0	0	0
25.33982	-0.01078906	-0.1309151	0.001583859	-0.001186675	0.04773775	-0.03576656
25.35696	-0.01078906	-0.1309151	0	0	-0.0469231	0.03515621
25.37291	-0.01078906	-0.1309151	0	0	0	0
25.39122	-0.01081537	-0.1309348	-0.001436723	-0.001076436	-0.04193377	-0.03141805
25.40794	-0.01081537	-0.1309348	0	0	0.04100917	0.03072531
25.42437	-0.01081537	-0.1309348	0	0	0	0
25.44098	-0.01078906	-0.1309545	0.001584223	-0.001186947	0.04796102	-0.03593384
25.4575	-0.01078906	-0.1309545	0	0	-0.04781468	0.03582421
25.47406	-0.01078906	-0.1309545	0	0	0	0
25.49063	-0.01078906	-0.1309545	0	0	0	0
25.5072	-0.01078906	-0.1309545	0	0	0	0
25.52377	-0.01078906	-0.1309545	0	0	0	0
25.54046	-0.01078906	-0.1309545	0	0	0	0
25.5569	-0.01078906	-0.1309545	0	0	0	0
25.57398	-0.01078906	-0.1309545	0	0	0	0
25.59003	-0.01078906	-0.1309545	0	0	0	0
25.60679	-0.01078906	-0.1309545	0	0	0	0
25.62317	-0.01078906	-0.1309545	0	0	0	0
25.64014	-0.01078906	-0.1309545	0	0	0	0
25.6563	-0.01078906	-0.1309545	0	0	0	0
25.6731	-0.01078906	-0.1309545	0	0	0	0
25.6897	-0.01078906	-0.1309151	0	0.002374986	0	0.07110012
25.706	-0.01078906	-0.1309151	0	0	0	-0.07219251
25.72285	-0.01078906	-0.1309151	0	0	0	0
25.7396	-0.01078906	-0.1309151	0	0	0	0
25.7557	-0.01078906	-0.1309151	0	0	0	0
25.77226	-0.01078906	-0.1309151	0	0	0	0
25.79269	-0.01081537	-0.1309348	-0.001288207	-0.0009651636	-0.03482836	-0.02609446
25.80926	-0.01081537	-0.1309348	0	0	0.03481938	0.02608773
25.82604	-0.01078906	-0.1309151	0.001568017	0.001174805	0.04701431	0.03522454
25.8424	-0.01078906	-0.1309151	0	0	-0.04732284	-0.0354557
25.85907	-0.01078906	-0.1309151	0	0	0	0
25.87553	-0.01078906	-0.1309151	0	0	0	0
25.89229	-0.01078906	-0.1309151	0	0	0	0
25.90866	-0.01078906	-0.1309151	0	0	0	0
25.92523	-0.01078906	-0.1309545	0	-0.002380181	0	-0.07226665
25.9418	-0.01078906	-0.1309545	0	0	0	0.07183401
25.95837	-0.01078906	-0.1309545	0	0	0	0
25.97493	-0.01078906	-0.1309545	0	0	0	0
25.99159	-0.01078906	-0.1309545	0	0	0	0
26.00838	-0.01078906	-0.1309545	0	0	0	0
26.02463	-0.01078906	-0.1309151	0	0.002427131	0	0.07346664
26.0412	-0.01078906	-0.1309151	0	0	0	-0.07397056
26.05776	-0.01078906	-0.1309151	0	0	0	0
26.07433	-0.01078906	-0.1309151	0	0	0	0
26.0909	-0.01078906	-0.1309151	0	0	0	0
26.10747	-0.01078906	-0.1309151	0	0	0	0
26.12403	-0.01078906	-0.1309151	0	0	0	0
26.1406	-0.01078906	-0.1309151	0	0	0	0
26.15717	-0.01078906	-0.1309151	0	0	0	0
26.17373	-0.01078906	-0.1309545	0	-0.00238073	0	-0.07186297
26.19068	-0.01078906	-0.1309545	0	0	0	0.07103278
26.20687	-0.01078906	-0.1309545	0	0	0	0
26.22343	-0.01078906	-0.1309545	0	0	0	0
26.24	-0.01078906	-0.1309545	0	0	0	0
26.25657	-0.01078906	-0.1309545	0	0	0	0
26.27313	-0.01076274	-0.1309348	0.001588784	0.001190365	0.04795787	0.03593149
26.28995	-0.01076274	-0.1309348	0	0	-0.04759615	-0.03566048
26.30627	-0.01076274	-0.1309348	0	0	0	0
26.32283	-0.01078906	-0.1309545	-0.001588601	-0.001190228	-0.04831116	-0.03619618
26.3394	-0.01078906	-0.1309545	0	0	0.04794959	0.03592528
26.35619	-0.01078906	-0.1309545	0	0	0	0
26.37253	-0.01076274	-0.1309348	0.001610297	0.001206483	0.04860164	0.03641382
26.3891	-0.01076274	-0.1309348	0	0	-0.04892554	-0.03665649
26.40567	-0.01076274	-0.1309348	0	0	0	0
26.42223	-0.01078906	-0.1309151	-0.001588784	0.001190365	-0.04795787	0.03593149
26.4388	-0.01078906	-0.1309151	0	0	0.04795511	-0.03592942
26.45562	-0.01078906	-0.1309151	0	0	0	0
26.47193	-0.01078906	-0.1309151	0	0	0	0
26.48886	-0.01078906	-0.1309151	0	0	0	0
26.50507	-0.01078906	-0.1309151	0	0	0	0
26.52163	-0.01078906	-0.1309151	0	0	0	0
26.5382	-0.01078906	-0.1309151	0	0	0	0
26.55477	-0.01078906	-0.1309151	0	0	0	0
26.57133	-0.01078906	-0.1309151	0	0	0	0
26.5879	-0.01078906	-0.1309151	0	0	0	0
26.60497	-0.01078906	-0.1309151	0	0	0	0
26.62103	-0.01081537	-0.1309348	-0.001637632	-0.001226963	-0.04942667	-0.03703195
26.6376	-0.01081537	-0.1309348	0	0	0.05018064	0.03759685
26.65417	-0.01081537	-0.1309348	0	0	0	0
26.67073	-0.01078906	-0.1309151	0.001588601	0.001190228	0.04794959	0.03592528
26.6873	-0.01078906	-0.1309151	0	0	-0.04794683	-0.03592321
26.70387	-0.01078906	-0.1309151	0	0	0	0
26.72044	-0.01078906	-0.1309151	0	0	0	0
26.73713	-0.01078906	-0.1309151	0	0	0	0
26.75359	-0.01078906	-0.1309151	0	0	0	0
26.77013	-0.01078906	-0.1309151	0	0	0	0
26.78701	-0.01078906	-0.1309151	0	0	0	0
26.80327	-0.01078906	-0.1309151	0	0	0	0
26.81985	-0.01078906	-0.1309151	0	0	0	0
26.8364	-0.01078906	-0.1309151	0	0	0	0
26.85325	-0.01078906	-0.1309151	0	0	0	0
26.86973	-0.01078906	-0.1309151	0	0	0	0
26.8861	-0.01078906	-0.1309151	0	0	0	0
26.90267	-0.01078906	-0.1309151	0	0	0	0
26.92214	-0.01078906	-0.1309151	0	0	0	0
26.93876	-0.01078906	-0.1309151	0	0	0	0
26.95558	-0.01078906	-0.1309151	0	0	0	0
26.97184	-0.01078906	-0.1309151	0	0	0	0
26.98841	-0.01078906	-0.1309151	0	0	0	0
27.00497	-0.01078906	-0.1309151	0	0	0	0
27.02154	-0.01078906	-0.1309151	0	0	0	0
27.03811	-0.01078906	-0.1309151	0	0	0	0
27.05467	-0.01078906	-0.1309151	0	0	0	0
27.07124	-0.01078906	-0.1309151	0	0	0	0
27.0878	-0.01078906	-0.1309151	0	0	0	0
27.10437	-0.01078906	-0.1309151	0	0	0	0
27.12094	-0.01078906	-0.1309151	0	0	0	0
27.1375	-0.01078906	-0.1309151	0	0	0	0
27.15409	-0.01078906	-0.1309151	0	0	0	0
27.17064	-0.01078906	-0.1309151	0	0	0	0
27.18786	-0.01078906	-0.1309151	0	0	0	0
27.2042	-0.01078906	-0.1309151	0	0	0	0
27.22034	-0.01081537	-0.1308954	-0.001630663	0.001221742	-0.05021952	0.03762598
27.2369	-0.01081537	-0.1308954	0	0	0.04985928	-0.03735608
27.25386	-0.01081537	-0.1308954	0	0	0	0
27.27007	-0.01081537	-0.1308954	0	0	0	0
27.28661	-0.01081537	-0.1308954	0	0	0	0
27.30355	-0.01081537	-0.1308954	0	0	0	0
27.31973	-0.01081537	-0.1308954	0	0	0	0
27.3363	-0.01081537	-0.1308954	0	0	0	0
27.35302	-0.01081537	-0.1308954	0	0	0	0
27.36944	-0.01081537	-0.1308954	0	0	0	0
27.38601	-0.01081537	-0.1308954	0	0	0	0
27.40257	-0.01081537	-0.1308954	0	0	0	0
27.41914	-0.01078906	-0.1309545	0.001588418	-0.003570272	0.04794407	-0.1077634
27.43585	-0.01078906	-0.1309545	0	0	-0.047727	0.1072755
27.45268	-0.01078906	-0.1309545	0	0	0	0
27.46884	-0.01023648	-0.1315263	0.03421186	-0.03540258	1.037233	-1.073333
27.4854	-0.01023648	-0.1315263	0	0	-1.045577	1.081967
27.50197	-0.01023648	-0.1315263	0	0	0	0
27.51854	-0.004736807	-0.1382997	0.3320377	-0.4089345	10.02207	-12.34309
27.5351	-0.004736807	-0.1382997	0	0	-10.02149	12.34238
27.55173	-0.004736807	-0.1382997	0	0	0	0
27.56824	-0.02665158	-0.1828373	-1.32767	-2.698238	-40.07146	-81.43768
27.5848	-0.02665158	-0.1828373	0	0	40.14309	81.58327
27.60137	-0.02665158	-0.1828373	0	0	0	0
27.61794	-0.05971838	-0.2560346	-1.996376	-4.419214	-60.25768	-133.3875
27.6345	-0.05971838	-0.2560346	0	0	60.25421	133.3798
27.65107	-0.05971838	-0.2560346	0	0	0	0
27.66763	-0.07731923	-0.3201858	-1.062634	-3.873069	-32.07406	-116.9029
27.6842	-0.07731923	-0.3201858	0	0	32.07221	116.8962
27.70077	-0.07731923	-0.3201858	0	0	0	0
27.71733	-0.07273985	-0.3707244	0.2764756	-3.051213	8.345011	-92.0964
27.7339	-0.07273985	-0.3707244	0	0	-8.344531	92.09109
27.75047	-0.07273985	-0.3707244	0	0	0	0
27.77051	-0.04680789	-0.4017065	1.294347	-1.546415	35.36272	-42.24945
27.78708	-0.04680789	-0.4017065	0	0	-35.35903	42.24505
27.80364	-0.03853355	-0.4088811	0.4994401	-0.433064	15.0714	-13.06839
27.82021	-0.03853355	-0.4088811	0	0	-15.07313	13.0699
27.83691	-0.03853355	-0.4088811	0	0	0	0
27.85334	-0.03414462	-0.4126986	0.2670378	-0.2322662	8.05968	-7.01021
27.86991	-0.03414462	-0.4126986	0	0	-8.091354	7.03776
27.88648	-0.03414462	-0.4126986	0	0	0	0
27.90304	-0.0341709	-0.4127672	-0.00158697	-0.004145555	-0.04790037	-0.1251275
27.91961	-0.0341709	-0.4127672	0	0	0.04789761	0.1251203
27.93618	-0.0341709	-0.4127672	0	0	0	0
27.95275	-0.03440747	-0.4129732	-0.01427899	-0.0124338	-0.4309409	-0.3752529
27.96931	-0.03440747	-0.4129732	0	0	0.4309409	0.3752529
27.98588	-0.03440747	-0.4129732	0	0	0	0
28.00245	-0.04384031	-0.4212138	-0.5693676	-0.4974024	-17.18355	-15.01163
28.01937	-0.04384031	-0.4212138	0	0	16.99958	14.85092
28.03558	-0.04384031	-0.4212138	0	0	0	0
28.05228	-0.06349349	-0.4385081	-1.176919	-1.035658	-35.76448	-31.47181
28.06871	-0.06349349	-0.4385081	0	0	35.52153	31.25803
28.08528	-0.06349349	-0.4385081	0	0	0	0
28.10185	-0.06530175	-0.4413753	-0.109147	-0.1730677	-3.294063	-5.223192
28.11842	-0.06530175	-0.4413753	0	0	3.294063	5.223192
28.13596	-0.06530175	-0.4413753	0	0	0	0
28.15155	-0.04137112	-0.4628626	1.535121	-1.378378	46.33538	-41.60432
28.16812	-0.04137112	-0.4628626	0	0	-47.73698	42.86282
28.18468	-0.04137112	-0.4628626	0	0	0	0
28.20144	-0.01420957	-0.4875497	1.621368	-1.473662	48.66127	-44.22824
28.21786	-0.01420957	-0.4875497	0	0	-48.86828	44.41639
28.23438	-0.01420957	-0.4875497	0	0	0	0
28.25123	-0.01065749	-0.4908091	0.2108596	-0.193485	6.319376	-5.798666
28.26752	-0.01065749	-0.4908091	0	0	-6.363755	5.839388
28.28408	-0.01065749	-0.4908091	0	0	0	0
28.30065	-0.01063118	-0.4908333	0.001588235	-0.001458885	0.04793579	-0.04403177
28.31722	-0.01063118	-0.4908333	0	0	-0.04793303	0.04402924
28.3338	-0.01063118	-0.4908333	0	0	0	0
28.35035	-0.01063118	-0.4908333	0	0	0	0
28.36692	-0.01063118	-0.4908333	0	0	0	0
28.38348	-0.01063118	-0.4908333	0	0	0	0
28.40005	-0.01063118	-0.4908333	0	0	0	0
28.41662	-0.01063118	-0.4908333	0	0	0	0
28.43344	-0.01063118	-0.4908333	0	0	0	0
28.44975	-0.009973354	-0.4914377	0.04034741	-0.03707373	1.217827	-1.119016
28.46632	-0.009973354	-0.4914377	0	0	-1.227367	1.127781
28.48313	-0.009973354	-0.4914377	0	0	0	0
28.49945	-0.008499796	-0.4930348	0.09031668	-0.09788915	2.726077	-2.95464
28.51602	-0.008499796	-0.4930348	0	0	-2.746474	2.976748
28.53258	-0.008499796	-0.4930348	0	0	0	0
28.54915	-0.008526109	-0.493059	-0.001588657	-0.00146102	-0.04795129	-0.04409876
28.56619	-0.008526109	-0.493059	0	0	0.04726825	0.0434706
28.58249	-0.008526109	-0.493059	0	0	0	0
28.59885	-0.008552423	-0.4930348	-0.001608476	0.001479247	-0.04925557	0.04529825
28.61542	-0.008552423	-0.4930348	0	0	0.04885041	-0.04492564
28.63226	-0.008552423	-0.4930348	0	0	0	0
28.64855	-0.008578737	-0.4930106	-0.001615502	0.001487485	-0.04876156	0.04489757
28.66512	-0.008578737	-0.4930106	0	0	0.04916633	-0.04527026
28.68179	-0.008578737	-0.4930106	0	0	0	0
28.69825	-0.008552423	-0.4930348	0.001598654	-0.001471973	0.04825026	-0.04442678
28.71498	-0.008552423	-0.4930348	0	0	-0.04816708	0.04435019
28.73138	-0.008552423	-0.4930348	0	0	0	0
28.74796	-0.008552423	-0.4930348	0	0	0	0
28.76452	-0.008552423	-0.4930348	0	0	0	0
28.78108	-0.008552423	-0.4930348	0	0	0	0
28.79765	-0.008552423	-0.4930348	0	0	0	0
28.81422	-0.008552423	-0.4930348	0	0	0	0
28.83078	-0.008552423	-0.4930348	0	0	0	0
28.84735	-0.008552423	-0.4930348	0	0	0	0
28.86392	-0.008552423	-0.4930348	0	0	0	0
28.88107	-0.008552423	-0.4930348	0	0	0	0
28.89705	-0.008552423	-0.4930348	0	0	0	0
28.91362	-0.008552423	-0.4930348	0	0	0	0
28.93019	-0.008552423	-0.4930348	0	0	0	0
28.94675	-0.008578737	-0.4930106	-0.001588347	0.001462483	-0.04793642	0.04413782
28.96332	-0.008578737	-0.4930106	0	0	0.04793642	-0.04413782
28.97993	-0.008578737	-0.4930106	0	0	0	0
28.99645	-0.008578737	-0.4930106	0	0	0	0
29.01302	-0.008578737	-0.4930106	0	0	0	0
29.02958	-0.008578737	-0.4930106	0	0	0	0
29.04618	-0.008552423	-0.4930348	0.001585245	-0.001459626	0.04779876	-0.04401106
29.06272	-0.008552423	-0.4930348	0	0	-0.04784279	0.0440516
29.07946	-0.008552423	-0.4930348	0	0	0	0
29.09653	-0.008552423	-0.4930348	0	0	0	0
29.11242	-0.008552423	-0.4930348	0	0	0	0
29.12899	-0.008552423	-0.4930348	0	0	0	0
29.14555	-0.008526109	-0.4930106	0.001588291	0.001462483	0.04793473	0.04413782
29.16212	-0.008526109	-0.4930106	0	0	-0.04793473	-0.04413782
29.17869	-0.008526109	-0.4930106	0	0	0	0
29.19525	-0.008789247	-0.4927685	-0.01588668	0.0146156	-0.4795162	0.4411505
29.21182	-0.008789247	-0.4927685	0	0	0.479461	-0.4410997
29.22864	-0.008789247	-0.4927685	0	0	0	0
29.24496	-0.01178893	-0.489915	-0.1838551	0.1748962	-5.549078	5.278683
29.26152	-0.01178893	-0.489915	0	0	5.591244	-5.318793
29.27809	-0.01178893	-0.489915	0	0	0	0
29.29465	-0.03206795	-0.4710825	-1.224326	1.136992	-36.95449	34.31844
29.31122	-0.03206795	-0.4710825	0	0	36.95237	-34.31647
29.32779	-0.03206795	-0.4710825	0	0	0	0
29.34435	-0.06784309	-0.4383684	-2.15964	1.974858	-65.18557	59.60819
29.36172	-0.06784309	-0.4383684	0	0	63.6502	-58.20419
29.37749	-0.06784309	-0.4383684	0	0	0	0
29.39405	-0.1026901	-0.4063947	-2.103614	1.930158	-65.05632	59.69201
29.41062	-0.1026901	-0.4063947	0	0	63.48721	-58.25228
29.42719	-0.1026901	-0.4063947	0	0	0	0
29.44375	-0.1116651	-0.3648081	-0.5418563	2.510747	-16.35608	75.78759
29.46032	-0.1116651	-0.3648081	0	0	16.3542	-75.77886
29.47689	-0.1116651	-0.3648081	0	0	0	0
29.49357	-0.08704267	-0.307818	1.476188	3.416722	44.40064	102.7678
29.51002	-0.08704267	-0.307818	0	0	-44.55143	-103.1169
29.52659	-0.08704267	-0.307818	0	0	0	0
29.54315	-0.06671663	-0.2642172	1.227165	2.632354	37.0423	79.45831
29.55972	-0.06671663	-0.2642172	0	0	-37.03804	-79.44917
29.57636	-0.06671663	-0.2642172	0	0	0	0
29.59285	-0.08147712	-0.2224271	-0.8951706	2.534419	-27.01941	76.49773
29.60942	-0.08147712	-0.2224271	0	0	27.07865	-76.66545
29.62624	-0.08147712	-0.2224271	0	0	0	0
29.64255	-0.09922569	-0.1808626	-1.088092	2.548151	-32.84246	76.91221
29.65912	-0.09922569	-0.1808626	0	0	33.09204	-77.49667
29.67585	-0.09922569	-0.1808626	0	0	0	0
29.69225	-0.09260281	-0.1329466	0.4038494	2.921818	12.1882	88.18063
29.70882	-0.09260281	-0.1329466	0	0	-12.25096	-88.63473
29.72539	-0.09260281	-0.1329466	0	0	0	0
29.74545	-0.06433216	-0.08012739	1.408798	2.632113	38.45556	71.84804
29.76202	-0.06433216	-0.08012739	0	0	-38.45156	-71.84055
29.77859	-0.05473475	-0.07213564	0.5794342	0.4824938	17.48736	14.56169
29.79516	-0.05473475	-0.07213564	0	0	-17.48837	-14.56253
29.81172	-0.05473475	-0.07213564	0	0	0	0
29.82836	-0.05817114	-0.06626266	-0.2065648	0.3530306	-6.221246	10.63245
29.84485	-0.05817114	-0.06626266	0	0	6.235215	-10.65632
29.86147	-0.05817114	-0.06626266	0	0	0	0
29.87799	-0.0583285	-0.06610878	-0.009525685	0.009315286	-0.2874692	0.2811197
29.89456	-0.0583285	-0.06610878	0	0	0.2879001	-0.281541
29.91112	-0.0583285	-0.06610878	0	0	0	0
29.92769	-0.05822359	-0.06622419	0.006332254	-0.006966131	0.1911078	-0.2102382
29.94426	-0.05822359	-0.06622419	0	0	-0.1911078	0.2102382
29.96082	-0.05822359	-0.06622419	0	0	0	0
29.97739	-0.05804	-0.06635884	0.01108127	-0.008127753	0.3344335	-0.2452961
29.99396	-0.05804	-0.06635884	0	0	-0.3344335	0.2452961
30.01053	-0.05804	-0.06635884	0	0	0	0
30.02709	-0.05769904	-0.06668588	0.02058044	-0.01973992	0.621119	-0.5957519
30.04366	-0.05769904	-0.06668588	0	0	-0.621119	0.5957519
30.06023	-0.05769904	-0.06668588	0	0	0	0
30.07696	-0.05709577	-0.06720536	0.03605666	-0.03104872	1.082832	-0.9324362
30.09362	-0.05709577	-0.06720536	0	0	-1.079678	0.9297202
30.10993	-0.05709577	-0.06720536	0	0	0	0
30.1265	-0.0562826	-0.06803289	0.04908289	-0.04994972	1.493186	-1.519557
30.14306	-0.0562826	-0.06803289	0	0	-1.481325	1.507486
30.15983	-0.0562826	-0.06803289	0	0	0	0
30.17619	-0.04906585	-0.07610932	0.441037	-0.4935744	13.31282	-14.89868
30.19276	-0.04906585	-0.07610932	0	0	-13.39301	14.98843
30.20933	-0.04906585	-0.07610932	0	0	0	0
30.22603	-0.03072717	-0.1046356	1.097825	-1.707694	32.99378	-51.32264
30.24246	-0.03072717	-0.1046356	0	0	-33.13242	51.53831
30.25903	-0.03072717	-0.1046356	0	0	0	0
30.2756	-0.02186494	-0.112393	0.5349255	-0.4682364	16.14408	-14.1314
30.29216	-0.02186494	-0.112393	0	0	-16.14408	14.1314
30.30873	-0.02186494	-0.112393	0	0	0	0
30.32529	-0.03101637	-0.1245553	-0.5525723	-0.7343741	-16.67859	-22.16601
30.34186	-0.03101637	-0.1245553	0	0	16.67955	22.16728
30.35843	-0.03101637	-0.1245553	0	0	0	0
30.37499	-0.02712492	-0.1389523	0.2349149	-0.8691044	7.090155	-26.23113
30.39156	-0.02712492	-0.1389523	0	0	-7.090155	26.23113
30.40826	-0.02712492	-0.1389523	0	0	0	0
30.42469	-0.02717752	-0.1389128	-0.003199866	0.002407124	-0.0965777	0.07265133
30.44145	-0.02717752	-0.1389128	0	0	0.09640011	-0.07251774
30.45786	-0.02717752	-0.1389128	0	0	0	0
30.4744	-0.0264675	-0.1394864	0.04292078	-0.03467929	1.302776	-1.052622
30.49096	-0.0264675	-0.1394864	0	0	-1.296397	1.047467
30.50753	-0.0264675	-0.1394864	0	0	0	0
30.5241	-0.02054974	-0.1439421	0.357238	-0.2689758	10.78146	-8.117705
30.54066	-0.02054974	-0.1439421	0	0	-10.78209	8.118173
30.55777	-0.02054974	-0.1439421	0	0	0	0
30.5738	-0.02057604	-0.1439223	-0.001641397	0.001236685	-0.04954316	0.03732752
30.59036	-0.02057604	-0.1439223	0	0	0.05035781	-0.03794131
30.60693	-0.02057604	-0.1439223	0	0	0	0
30.62362	-0.02054974	-0.1439421	0.001576476	-0.001187771	0.04740895	-0.03571953
30.64006	-0.02054974	-0.1439421	0	0	-0.04758089	0.03584908
30.65663	-0.02054974	-0.1439421	0	0	0	0
30.6732	-0.02047082	-0.1440412	0.0047633	-0.005982148	0.1437567	-0.1805416
30.68977	-0.02047082	-0.1440412	0	0	-0.1437567	0.1805416
30.70633	-0.02047082	-0.1440412	0	0	0	0
30.7229	-0.02044452	-0.1441007	0.001587729	-0.003589649	0.04792052	-0.108342
30.74014	-0.02044452	-0.1441007	0	0	-0.04695551	0.1061603
30.75603	-0.02044452	-0.1441007	0	0	0	0
30.7726	-0.02039191	-0.1441403	0.003175936	-0.002393674	0.09786677	-0.0737613
30.78916	-0.02039191	-0.1441403	0	0	-0.09585547	0.0722454
30.80573	-0.02039191	-0.1441403	0	0	0	0
30.8223	-0.02020778	-0.1442791	0.01111561	-0.008376511	0.3354697	-0.2528036
30.83887	-0.02020778	-0.1442791	0	0	-0.3354697	0.2528036
30.85543	-0.02020778	-0.1442791	0	0	0	0
30.872	-0.01452529	-0.148565	0.3429953	-0.2586958	10.35221	-7.807903
30.88871	-0.01452529	-0.148565	0	0	-10.3083	7.774782
30.90522	-0.01452529	-0.148565	0	0	0	0
30.92174	0.008894502	-0.1663074	1.418193	-1.074396	42.93462	-32.52646
30.93826	0.008894502	-0.1663074	0	0	-42.92223	32.51707
30.95484	0.008894502	-0.1663074	0	0	0	0
30.9714	0.01578816	-0.1715565	0.4161501	-0.3168754	12.55871	-9.562767
30.98828	0.01578816	-0.1715565	0	0	-12.4441	9.475501
31.00521	0.01578816	-0.1715565	0	0	0	0
31.02357	0.01578816	-0.1715565	0	0	0	0
31.04014	0.01578816	-0.1715565	0	0	0	0
31.0567	0.01578816	-0.1715565	0	0	0	0
31.07327	0.01576185	-0.1715364	-0.001588432	0.001210919	-0.0479445	0.03654983
31.08984	0.01576185	-0.1715364	0	0	0.04794174	-0.03654772
31.1064	0.01576185	-0.1715364	0	0	0	0
31.12297	0.01555138	-0.1713359	-0.01270425	0.01210641	-0.383415	0.3653721
31.13954	0.01555138	-0.1713359	0	0	0.383415	-0.3653721
31.15611	0.01555138	-0.1713359	0	0	0	0
31.17267	0.01531459	-0.1711153	-0.01429407	0.01331768	-0.4314209	0.4019516
31.18924	0.01531459	-0.1711153	0	0	0.431396	-0.4019284
31.20581	0.01531459	-0.1711153	0	0	0	0
31.22238	0.01510411	-0.1709548	-0.01270448	0.009683327	-0.3833998	0.2922266
31.23894	0.01510411	-0.1709548	0	0	0.3834218	-0.2922434
31.25553	0.01510411	-0.1709548	0	0	0	0
31.27217	0.01470947	-0.170614	-0.02370371	0.02047414	-0.7132853	0.616102
31.28877	0.01470947	-0.170614	0	0	0.712917	-0.6157839
31.30521	0.01470947	-0.170614	0	0	0	0
31.32177	0.01468316	-0.1705939	-0.001588798	0.001210299	-0.04815237	0.03668103
31.33834	0.01468316	-0.1705939	0	0	0.04795554	-0.03653109
31.35491	0.01468316	-0.1705939	0	0	0	0
31.37278	0.01463053	-0.1705538	-0.002944645	0.002243936	-0.08549352	0.06514945
31.38935	0.01463053	-0.1705538	0	0	0.08549826	-0.06515305
31.40592	0.01463053	-0.1705538	0	0	0	0
31.42249	0.01460422	-0.1705338	-0.001588249	0.00121078	-0.04793346	0.03654142
31.43906	0.01460422	-0.1705338	0	0	0.04793622	-0.03654352
31.45586	0.01460422	-0.1705338	0	0	0	0
31.47219	0.01460422	-0.1705338	0	0	0	0
31.4888	0.01460422	-0.1705338	0	0	0	0
31.50534	0.01460422	-0.1705338	0	0	0	0
31.52188	0.01457791	-0.1704736	-0.001589897	0.003634307	-0.04804957	0.1098354
31.53846	0.01457791	-0.1704736	0	0	0.04800253	-0.1097278
31.55502	0.01457791	-0.1704736	0	0	0	0
31.5716	0.01457791	-0.1704736	0	0	0	0
31.58815	0.01457791	-0.1704736	0	0	0	0
31.60487	0.01457791	-0.1704736	0	0	0	0
31.62129	0.0145516	-0.1704536	-0.001601955	0.001220278	-0.04834153	0.03682382
31.63786	0.0145516	-0.1704536	0	0	0.04855673	-0.03698774
31.6548	0.0145516	-0.1704536	0	0	0	0
31.67137	0.01452529	-0.1704335	-0.001588249	0.00121078	-0.04739868	0.03613374
31.68777	0.01452529	-0.1704335	0	0	0.04817472	-0.03672534
31.70416	0.01452529	-0.1704335	0	0	0	0
31.72069	0.01452529	-0.1704335	0	0	0	0
31.73726	0.01452529	-0.1704335	0	0	0	0
31.75382	0.01452529	-0.1704335	0	0	0	0
31.77039	0.01444636	-0.1703734	-0.004764256	0.003630123	-0.1438021	0.1095699
31.78728	0.01444636	-0.1703734	0	0	0.1423759	-0.1084832
31.80356	0.01444636	-0.1703734	0	0	0	0
31.82008	0.01444636	-0.1703734	0	0	0	0
31.83665	0.01444636	-0.1703734	0	0	0	0
31.85322	0.01444636	-0.1703734	0	0	0	0
31.87125	0.01444636	-0.1703734	0	0	0	0
31.88807	0.01444636	-0.1703734	0	0	0	0
31.90439	0.01444636	-0.1703734	0	0	0	0
31.92095	0.01444636	-0.1703734	0	0	0	0
31.93755	0.01444636	-0.1703734	0	0	0	0
31.95439	0.01444636	-0.1703734	0	0	0	0
31.97065	0.01442005	-0.1703533	-0.001617736	0.001232299	-0.04886274	0.03722085
31.98728	0.01442005	-0.1703533	0	0	0.04918578	-0.03746692
32.00379	0.01442005	-0.1703533	0	0	0	0
32.02035	0.01444636	-0.1703734	0.001588854	-0.001210299	0.04804298	-0.0365964
32.03692	0.01444636	-0.1703734	0	0	-0.04796276	0.0365353
32.05384	0.01444636	-0.1703734	0	0	0	0
32.07005	0.01442005	-0.1703533	-0.001622875	0.001236213	-0.04898409	0.03731329
32.0867	0.01442005	-0.1703533	0	0	0.04938783	-0.03762084
32.10349	0.01442005	-0.1703533	0	0	0	0
32.11975	0.01442005	-0.1703533	0	0	0	0
32.13632	0.01442005	-0.1703533	0	0	0	0
32.1529	0.01442005	-0.1703533	0	0	0	0
32.16945	0.01442005	-0.1703533	0	0	0	0
32.18643	0.01442005	-0.1703533	0	0	0	0
32.20259	0.01442005	-0.1703533	0	0	0	0
32.21997	0.01439374	-0.1703333	-0.001513158	0.001153535	-0.04510634	0.0343862
32.23572	0.01439374	-0.1703333	0	0	0.04566719	-0.03481375
32.25233	0.01439374	-0.1703333	0	0	0	0
32.26886	0.01439374	-0.1703333	0	0	0	0
32.28542	0.01439374	-0.1703333	0	0	0	0
32.30213	0.01439374	-0.1703333	0	0	0	0
32.31857	0.01436743	-0.1703132	-0.001601025	0.00121957	-0.04830791	0.03679821
32.33512	0.01436743	-0.1703132	0	0	0.04853135	-0.03696842
32.35169	0.01436743	-0.1703132	0	0	0	0
32.36826	0.0142885	-0.1702531	-0.004763215	0.003629287	-0.1437376	0.1095195
32.38511	0.0142885	-0.1702531	0	0	0.1425072	-0.108582
32.40163	0.0142885	-0.1702531	0	0	0	0
32.41796	0.01426219	-0.1702331	-0.001611819	0.001227835	-0.04907417	0.03738323
32.43452	0.01426219	-0.1702331	0	0	0.04900587	-0.0373312
32.45109	0.01426219	-0.1702331	0	0	0	0
32.46766	0.01423588	-0.170213	-0.001588488	0.001210919	-0.0479462	0.03654983
32.48422	0.01423588	-0.170213	0	0	0.0479462	-0.03654983
32.50119	0.01423588	-0.170213	0	0	0	0
32.51735	0.01418326	-0.1701729	-0.00325565	0.002480012	-0.09826703	0.07485554
32.53392	0.01418326	-0.1701729	0	0	0.09945801	-0.07576277
32.55049	0.01418326	-0.1701729	0	0	0	0
32.56705	0.01418326	-0.1701729	0	0	0	0
32.58362	0.01418326	-0.1701729	0	0	0	0
32.60019	0.01418326	-0.1701729	0	0	0	0
32.61689	0.01418326	-0.1701729	0	0	0	0
32.68627	0.01418326	-0.1701729	0	0	0	0
32.70898	0.01418326	-0.1701729	0	0	0	0
32.73446	0.01418326	-0.1701729	0	0	0	0
32.75132	0.01418326	-0.1701729	0	0	0	0
32.76789	0.01418326	-0.1701729	0	0	0	0
32.78446	0.01418326	-0.1701729	0	0	0	0
32.80103	0.01418326	-0.1701729	0	0	0	0
32.8176	0.01418326	-0.1701729	0	0	0	0
32.83416	0.01418326	-0.1701729	0	0	0	0
32.85112	0.01418326	-0.1701729	0	0	0	0
32.8673	0.01418326	-0.1701729	0	0	0	0
32.88387	0.01418326	-0.1701729	0	0	0	0
32.90043	0.01418326	-0.1701729	0	0	0	0
32.91706	0.01418326	-0.1701729	0	0	0	0
32.93357	0.01418326	-0.1701729	0	0	0	0
32.95013	0.01418326	-0.1701729	0	0	0	0
32.9667	0.01418326	-0.1701729	0	0	0	0
32.98327	0.01418326	-0.1701729	0	0	0	0
32.99984	0.01418326	-0.1701729	0	0	0	0
33.01651	0.01415695	-0.1701529	-0.001578311	0.001202267	-0.0474859	0.03617205
33.03297	0.01415695	-0.1701529	0	0	0.04763351	-0.03628449
33.04954	0.01415695	-0.1701529	0	0	0	0
33.06852	0.01415695	-0.1701529	0	0	0	0
33.08512	0.01415695	-0.1701529	0	0	0	0
33.10165	0.01415695	-0.1701529	0	0	0	0
33.11822	0.01415695	-0.1701529	0	0	0	0
33.13479	0.01415695	-0.1701529	0	0	0	0
33.15138	0.01415695	-0.1701529	0	0	0	0
33.16792	0.01415695	-0.1701529	0	0	0	0
33.18449	0.01415695	-0.1701529	0	0	0	0
33.20166	0.01415695	-0.1701529	0	0	0	0
33.21762	0.01415695	-0.1701529	0	0	0	0
33.23419	0.01415695	-0.1701529	0	0	0	0
33.25076	0.01415695	-0.1701529	0	0	0	0
33.26732	0.01413064	-0.1701328	-0.001588123	0.001210641	-0.04792964	0.03653721
33.28389	0.01413064	-0.1701328	0	0	0.04792964	-0.03653721
33.30046	0.01413064	-0.1701328	0	0	0	0
33.31706	0.01415695	-0.1701529	0.001584838	-0.001208137	0.04778101	-0.03642391
33.33359	0.01415695	-0.1701529	0	0	-0.04783602	0.03646585
33.35041	0.01415695	-0.1701529	0	0	0	0
33.36715	0.01413064	-0.1701328	-0.00157112	0.001197679	-0.04680755	0.03568184
33.38329	0.01413064	-0.1701328	0	0	0.04777955	-0.03642279
33.40018	0.01413064	-0.1701328	0	0	0	0
33.41656	0.01413064	-0.1701328	0	0	0	0
33.43299	0.01413064	-0.1701328	0	0	0	0
33.44966	0.01413064	-0.1701328	0	0	0	0
33.46653	0.01413064	-0.1701328	0	0	0	0
33.48302	0.01413064	-0.1701328	0	0	0	0
33.49937	0.01413064	-0.1701328	0	0	0	0
33.51582	0.01413064	-0.1701328	0	0	0	0
33.53239	0.01413064	-0.1701328	0	0	0	0
33.54901	0.01413064	-0.1701328	0	0	0	0
33.56552	0.01410433	-0.1701128	-0.00159357	0.001213934	-0.04809958	0.03664082
33.58209	0.01410433	-0.1701128	0	0	0.04817725	-0.03669998
33.59866	0.01410433	-0.1701128	0	0	0	0
33.61523	0.01397278	-0.1700125	-0.007940557	0.006049606	-0.2396189	0.1825564
33.63179	0.01397278	-0.1700125	0	0	0.2396741	-0.1825985
33.64836	0.01397278	-0.1700125	0	0	0	0
33.66493	0.01323607	-0.1694113	-0.04446766	0.03629134	-1.341882	1.095149
33.6815	0.01323607	-0.1694113	0	0	1.342037	-1.095275
33.69808	0.01323607	-0.1694113	0	0	0	0
33.71504	0.00931552	-0.1663074	-0.2312145	0.183055	-6.893154	5.457385
33.73119	0.00931552	-0.1663074	0	0	6.983696	-5.529068
33.7478	0.00931552	-0.1663074	0	0	0	0
33.76432	0.003631563	-0.1619889	-0.3438761	0.2612671	-10.3782	7.885056
33.78089	0.003631563	-0.1619889	0	0	10.39016	-7.894145
33.79746	0.003631563	-0.1619889	0	0	0	0
33.81403	0.003973663	-0.1609305	0.02064922	0.06388513	0.6231947	1.928057
33.83059	0.003973663	-0.1609305	0	0	-0.6231947	-1.928057
33.84716	0.003973663	-0.1609305	0	0	0	0
33.86373	-0.01910294	-0.1226486	-1.392906	2.310697	-42.038	69.73696
33.8803	-0.01910294	-0.1226486	0	0	42.03316	-69.72894
33.89687	-0.01910294	-0.1226486	0	0	0	0
33.91343	-0.04546864	-0.02629733	-1.592537	5.819796	-48.06839	175.662
33.93	-0.04546864	-0.02629733	0	0	48.07393	-175.6822
33.94657	-0.04546864	-0.02629733	0	0	0	0
33.96313	-0.02391649	0.05002102	1.30119	4.607646	39.27451	139.075
33.9797	-0.02391649	0.05002102	0	0	-39.27451	-139.075
33.99632	-0.02391649	0.05002102	0	0	0	0
34.01283	-0.01076274	0.1307324	0.7968977	4.889762	24.05319	147.5903
34.0295	-0.01076274	0.1307324	0	0	-24.01724	-147.3697
34.04598	-0.01076274	0.1307324	0	0	0	0
34.06252	-0.01423588	0.1620307	-0.209929	1.891783	-6.357628	57.29201
34.07909	-0.01423588	0.1620307	0	0	6.33932	-57.12701
34.09566	-0.01423588	0.1620307	0	0	0	0
34.1127	-0.01131531	0.1671583	0.171431	0.3009789	5.101556	8.956728
34.12884	-0.01131531	0.1671583	0	0	-5.167254	-9.072073
34.14606	-0.01131531	0.1671583	0	0	0	0
34.16192	-0.01131531	0.1671583	0	0	0	0
34.17849	-0.01131531	0.1671583	0	0	0	0
34.19506	-0.01131531	0.1671583	0	0	0	0
34.2173	-0.01121006	0.1669772	0.004733329	-0.00814489	0.1219833	-0.2099031
34.23387	-0.01121006	0.1669772	0	0	-0.1219713	0.2098824
34.25043	-0.01121006	0.1667598	0	-0.01311917	0	-0.3958918
34.267	-0.01121006	0.1667598	0	0	0	0.3959374
34.28357	-0.01121006	0.1667598	0	0	0	0
34.30013	-0.01121006	0.1667598	0	0	0	0
34.3167	-0.01121006	0.1667598	0	0	0	0
34.33327	-0.01121006	0.1667598	0	0	0	0
34.34983	-0.01118374	0.1664157	0.001588601	-0.02077815	0.04794959	-0.6271582
34.3664	-0.01118374	0.1664157	0	0	-0.04794407	0.627086
34.383	-0.01118374	0.1664157	0	0	0	0
34.4026	-0.01113112	0.1664157	0.002684454	0	0.07415317	0
34.41917	-0.01113112	0.1664157	0	0	-0.0742079	0
34.43599	-0.01113112	0.1664157	0	0	0	0
34.4523	-0.0106838	0.1659991	0.02741664	-0.02553539	0.8275312	-0.7707482
34.46887	-0.0106838	0.1659991	0	0	-0.8337713	0.7765601
34.48631	-0.0106838	0.1659991	0	0	0	0
34.502	-0.01071012	0.165981	-0.001676235	-0.001153364	-0.05059468	-0.03481261
34.51857	-0.01071012	0.165981	0	0	0.05195257	0.03574692
34.53514	-0.01071012	0.165981	0	0	0	0
34.5517	-0.01071012	0.1659447	0	-0.002187428	0	-0.06601671
34.56827	-0.01071012	0.1659447	0	0	0	0.06602431
34.58493	-0.01071012	0.1659447	0	0	0	0
34.60146	-0.01078906	0.1658542	-0.004774656	-0.005478124	-0.143851	-0.1650451
34.61797	-0.01078906	0.1658542	0	0	0.1444987	0.1657882
34.63513	-0.01078906	0.1658542	0	0	0	0
34.6511	-0.01081537	0.1658723	-0.001647803	0.001134735	-0.04973653	0.03425031
34.66767	-0.01081537	0.1658723	0	0	0.0506403	-0.03487268
34.68424	-0.01081537	0.1658723	0	0	0	0
34.7008	-0.01086799	0.1657636	-0.003177202	-0.006561996	-0.09589918	-0.1980643
34.71752	-0.01086799	0.1657636	0	0	0.09545953	0.1971562
34.73444	-0.01086799	0.1657636	0	0	0	0
34.7505	-0.01097324	0.1656549	-0.006550527	-0.006765455	-0.1986099	-0.2051264
34.76707	-0.01097324	0.1656549	0	0	0.2006991	0.2072842
34.78364	-0.01097324	0.1656549	0	0	0	0
34.80021	-0.01097324	0.1654375	0	-0.01312187	0	-0.3960188
34.81726	-0.01097324	0.1654375	0	0	0	0.390312
34.83334	-0.01097324	0.1654375	0	0	0	0
34.84991	-0.009841788	0.1638249	0.06829484	-0.09733425	2.091726	-2.981142
34.86648	-0.009841788	0.1638249	0	0	-2.061142	2.937553
34.88305	-0.009841788	0.1638249	0	0	0	0
34.90194	0.002157891	0.1555198	0.635227	-0.439648	17.91511	-12.39926
34.91851	0.002157891	0.1555198	0	0	-17.91318	12.39792
34.93507	0.002157891	0.1555198	0	0	0	0
34.95164	0.002157891	0.1550117	0	-0.03067693	0	-0.9259381
34.96821	0.002157891	0.1550117	0	0	0	0.9258315
34.98478	0.002157891	0.1550117	0	0	0	0
35.00134	-0.001236841	0.152416	-0.2049537	-0.1567124	-6.186226	-4.730134
35.01793	-0.001236841	0.152416	0	0	6.182667	4.727413
35.03448	-0.001236841	0.152416	0	0	0	0
35.05925	0.001684209	0.1453491	0.1179144	-0.2852717	2.853369	-6.903192
35.07582	0.001684209	0.1453491	0	0	-2.852315	6.900643
35.09238	0.0003157895	0.1044711	-0.08259796	-2.4674	-2.492811	-74.46628
35.10896	0.0003157895	0.1044711	0	0	2.492525	74.4577
35.12552	0.0003157895	0.1044711	0	0	0	0
35.14211	-0.02536298	0.03508661	-1.548547	-4.184202	-46.71374	-126.2213
35.15865	-0.02536298	0.03508661	0	0	46.74063	126.294
35.17522	-0.02536298	0.03508661	0	0	0	0
35.19183	-0.05347528	-0.01510158	-1.692964	-3.022406	-51.03499	-91.1115
35.20835	-0.05347528	-0.01510158	0	0	51.09375	91.21639
35.22492	-0.05347528	-0.01510158	0	0	0	0
35.24149	-0.06454181	-0.1020615	-0.6679769	-5.248909	-20.15958	-158.4124
35.25806	-0.06454181	-0.1020615	0	0	20.15958	158.4124
35.27462	-0.06454181	-0.1020615	0	0	0	0
35.29123	-0.07616815	-0.129496	-0.7001551	-1.652147	-21.10642	-49.80455
35.30776	-0.07616815	-0.129496	0	0	21.13072	49.86189
35.32433	-0.07616815	-0.129496	0	0	0	0
35.34134	-0.07831319	-0.1332425	-0.1260503	-0.2201607	-3.753219	-6.555406
35.35791	-0.07831319	-0.1332425	0	0	3.753219	6.555406
35.37448	-0.07831319	-0.1332425	0	0	0	0
35.39104	-0.06687382	-0.1419212	0.6906411	-0.5239638	20.84599	-15.81508
35.40761	-0.06687382	-0.1419212	0	0	-20.84599	15.81508
35.42418	-0.06687382	-0.1419212	0	0	0	0
35.44074	-0.05379017	-0.1517845	0.7899126	-0.5954863	23.84236	-17.97388
35.45731	-0.05379017	-0.1517845	0	0	-23.84236	17.97388
35.47387	-0.05379017	-0.1517845	0	0	0	0
35.49044	-0.0486458	-0.1556856	0.3105145	-0.2354705	9.371346	-7.106514
35.50701	-0.0486458	-0.1556856	0	0	-9.371346	7.106514
35.52357	-0.0486458	-0.1556856	0	0	0	0
35.54014	-0.0486458	-0.1557254	0	-0.002405091	0	-0.07258581
35.55671	-0.0486458	-0.1557254	0	0	0	0.07258581
35.57328	-0.0486458	-0.1557254	0	0	0	0
35.58989	-0.04273712	-0.1602118	0.3556661	-0.2700551	10.71921	-8.139034
35.60641	-0.04273712	-0.1602118	0	0	-10.73402	8.150279
35.62298	-0.04273712	-0.1602118	0	0	0	0
35.63955	-0.04160755	-0.1610702	0.06818084	-0.0518129	2.057702	-1.563717
35.65619	-0.04160755	-0.1610702	0	0	-2.05321	1.560303
35.67268	-0.04160755	-0.1610702	0	0	0	0
35.68924	-0.04158128	-0.1610902	0.001585705	-0.001205244	0.04796713	-0.03645829
35.70581	-0.04158128	-0.1610902	0	0	-0.04785668	0.03637434
35.72238	-0.04158128	-0.1610902	0	0	0	0
35.73895	-0.03756127	-0.1641871	0.2426482	-0.186928	7.323138	-5.641497
35.75551	-0.03756127	-0.1641871	0	0	-7.323138	5.641497
35.77208	-0.03756127	-0.1641871	0	0	0	0
35.78864	-0.0343549	-0.1666276	0.1935816	-0.1473426	5.842977	-4.447321
35.80521	-0.0343549	-0.1666276	0	0	-5.842977	4.447321
35.82208	-0.0343549	-0.1666276	0	0	0	0
35.83834	-0.02375869	-0.1747078	0.6514384	-0.4967597	19.66045	-14.99224
35.85491	-0.02375869	-0.1747078	0	0	-19.84091	15.12985
35.87158	-0.02375869	-0.1747078	0	0	0	0
35.89018	-0.01349918	-0.1825148	0.5515727	-0.41972	15.63996	-11.90125
35.90693	-0.01349918	-0.1825148	0	0	-15.60283	11.873
35.92331	-0.01349918	-0.1825148	0	0	0	0
35.93991	-0.01347287	-0.1825349	0.001585203	-0.001213801	0.04806285	-0.03680208
35.95644	-0.01347287	-0.1825349	0	0	-0.04784702	0.03663682
35.97301	-0.01347287	-0.1825349	0	0	0	0
35.98958	-0.01349918	-0.1825148	-0.001588123	0.001216037	-0.04792964	0.03670008
36.00615	-0.01349918	-0.1825148	0	0	0.04792964	-0.03670008
36.02271	-0.01349918	-0.1825148	0	0	0	0
36.03928	-0.01352549	-0.182414	-0.001588123	0.006083784	-0.04792964	0.183609
36.056	-0.01352549	-0.182414	0	0	0.04770446	-0.1827464
36.07241	-0.01352549	-0.182414	0	0	0	0
36.08898	-0.01363073	-0.1823334	-0.006352547	0.004865948	-0.1926518	0.1475682
36.10555	-0.01363073	-0.1823334	0	0	0.1917202	-0.1468546
36.12211	-0.01363073	-0.1823334	0	0	0	0
36.13868	-0.01376229	-0.1821923	-0.007942442	0.00851782	-0.239731	0.2570979
36.15524	-0.01376229	-0.1821923	0	0	0.239731	-0.2570979
36.17181	-0.01376229	-0.1821923	0	0	0	0
36.18855	-0.0137886	-0.1821721	-0.001571836	0.001203567	-0.04719361	0.0361365
36.20494	-0.0137886	-0.1821721	0	0	0.04744357	-0.03632789
36.22151	-0.0137886	-0.1821721	0	0	0	0
36.23808	-0.01368336	-0.1820915	0.006352491	0.004865948	0.1917185	0.1468546
36.25464	-0.01368336	-0.1820915	0	0	-0.1917185	-0.1468546
36.27121	-0.01368336	-0.1820915	0	0	0	0
36.28778	-0.01368336	-0.1820512	0	0.002432974	0	0.07341885
36.30435	-0.01368336	-0.1820512	0	0	0	-0.0734273
36.32092	-0.01368336	-0.1820512	0	0	0	0
36.33748	-0.01373598	-0.1819303	-0.003176977	0.007299704	-0.09589239	0.2203308
36.35415	-0.01373598	-0.1819303	0	0	0.09560618	-0.2196732
36.37069	-0.01373598	-0.1819303	0	0	0	0
36.38718	-0.01376229	-0.1818699	-0.001595101	0.003665045	-0.0482792	0.1109306
36.40375	-0.01376229	-0.1818699	0	0	0.04824578	-0.1108538
36.42032	-0.01376229	-0.1818699	0	0	0	0
36.43689	-0.01381491	-0.1818296	-0.003176245	0.002432075	-0.09585927	0.07340015
36.45345	-0.01381491	-0.1818296	0	0	0.09585927	-0.07340015
36.47002	-0.01381491	-0.1818296	0	0	0	0
36.48698	-0.01381491	-0.1818296	0	0	0	0
36.50315	-0.01381491	-0.1818296	0	0	0	0
36.51972	-0.01381491	-0.1818296	0	0	0	0
36.53628	-0.0137886	-0.1818497	0.001588854	-0.001216598	0.04796276	-0.03672544
36.55285	-0.0137886	-0.1818497	0	0	-0.04795172	0.03671699
36.56942	-0.0137886	-0.1818497	0	0	0	0
36.59121	-0.01381491	-0.1818296	-0.001207496	0.0009245886	-0.03148064	0.02410496
36.60778	-0.01381491	-0.1818296	0	0	0.03148064	-0.02410496
36.62726	-0.01381491	-0.1818296	0	0	0	0
36.64383	-0.01381491	-0.1818296	0	0	0	0
36.6604	-0.01381491	-0.1818296	0	0	0	0
36.67696	-0.01381491	-0.1817893	0	0.002433534	0	0.07345267
36.69353	-0.01381491	-0.1817893	0	0	0	-0.07344422
36.7101	-0.01381491	-0.1817893	0	0	0	0
36.76676	-0.01384122	-0.1817288	-0.000464334	0.001066632	-0.006340697	0.01456536
36.78333	-0.01384122	-0.1817288	0	0	0.006340367	-0.0145646
36.80175	-0.01384122	-0.1817288	0	0	0	0
36.81832	-0.01384122	-0.1817288	0	0	0	0
36.83488	-0.01384122	-0.1817288	0	0	0	0
36.85145	-0.01386753	-0.1817087	-0.001588488	0.001216317	-0.0479462	0.03671276
36.86821	-0.01386753	-0.1817087	0	0	0.04767175	-0.03650261
36.88459	-0.01386753	-0.1817087	0	0	0	0
36.90154	-0.01386753	-0.1817087	0	0	0	0
36.91783	-0.01386753	-0.1817087	0	0	0	0
36.93428	-0.01386753	-0.1817087	0	0	0	0
36.95085	-0.01386753	-0.1817087	0	0	0	0
36.96742	-0.01386753	-0.1817087	0	0	0	0
36.98399	-0.01386753	-0.1817087	0	0	0	0
37.00055	-0.01386753	-0.1817087	0	0	0	0
37.01712	-0.01386753	-0.1817087	0	0	0	0
37.03371	-0.01386753	-0.1817087	0	0	0	0
37.05444	-0.01386753	-0.1817087	0	0	0	0
37.07101	-0.01386753	-0.1817087	0	0	0	0
37.08779	-0.01386753	-0.1817087	0	0	0	0
37.10414	-0.01386753	-0.1817087	0	0	0	0
37.12071	-0.01386753	-0.1817087	0	0	0	0
37.13727	-0.01386753	-0.1817087	0	0	0	0
37.15384	-0.01386753	-0.1817087	0	0	0	0
37.17041	-0.01386753	-0.1817087	0	0	0	0
37.18697	-0.01386753	-0.1817087	0	0	0	0
37.20397	-0.01386753	-0.1817087	0	0	0	0
37.22022	-0.01386753	-0.1817087	0	0	0	0
37.23676	-0.01386753	-0.1817087	0	0	0	0
37.25343	-0.01386753	-0.1817087	0	0	0	0
37.27061	-0.01386753	-0.1817087	0	0	0	0
37.28653	-0.01386753	-0.1817087	0	0	0	0
37.30294	-0.01386753	-0.1817087	0	0	0	0
37.3195	-0.01386753	-0.1817087	0	0	0	0
37.33644	-0.01386753	-0.1817087	0	0	0	0
37.35263	-0.01386753	-0.1817087	0	0	0	0
37.3692	-0.01386753	-0.1817087	0	0	0	0
37.38577	-0.01386753	-0.1817087	0	0	0	0
37.40234	-0.01386753	-0.1817087	0	0	0	0
37.41927	-0.01386753	-0.1817087	0	0	0	0
37.43547	-0.01386753	-0.1817087	0	0	0	0
37.45203	-0.01386753	-0.1817087	0	0	0	0
37.4688	-0.01386753	-0.1817087	0	0	0	0
37.48809	-0.01389384	-0.1816885	-0.001364165	0.001045324	-0.03783807	0.02899432
37.50465	-0.01389384	-0.1816885	0	0	0.03804741	-0.02915473
37.52131	-0.01389384	-0.1816885	0	0	0	0
37.53779	-0.01386753	-0.1817087	0.001596208	-0.001223133	0.04817367	-0.03691422
37.55436	-0.01386753	-0.1817087	0	0	-0.04829599	0.03700795
37.57092	-0.01386753	-0.1817087	0	0	0	0
37.58785	-0.01386753	-0.1817087	0	0	0	0
37.60406	-0.01386753	-0.1817087	0	0	0	0
37.62089	-0.01386753	-0.1817087	0	0	0	0
37.63719	-0.01386753	-0.1817087	0	0	0	0
37.65392	-0.01386753	-0.1817087	0	0	0	0
37.67033	-0.01386753	-0.1817087	0	0	0	0
37.68727	-0.01386753	-0.1817087	0	0	0	0
37.70346	-0.01386753	-0.1817087	0	0	0	0
37.72031	-0.01386753	-0.1817087	0	0	0	0
37.73682	-0.01386753	-0.1817087	0	0	0	0
37.75316	-0.01386753	-0.1817087	0	0	0	0
37.77029	-0.01386753	-0.1817087	0	0	0	0
37.78629	-0.01386753	-0.1817087	0	0	0	0
37.80288	-0.01386753	-0.1817087	0	0	0	0
37.81942	-0.01386753	-0.1817087	0	0	0	0
37.83599	-0.01386753	-0.1817087	0	0	0	0
37.85256	-0.01386753	-0.1817087	0	0	0	0
37.86961	-0.01386753	-0.1817087	0	0	0	0
37.88568	-0.01386753	-0.1817087	0	0	0	0
37.90225	-0.01386753	-0.1817087	0	0	0	0
37.91882	-0.01386753	-0.1817087	0	0	0	0
37.93545	-0.01386753	-0.1817087	0	0	0	0
37.95199	-0.01386753	-0.1817087	0	0	0	0
37.96864	-0.01386753	-0.1817087	0	0	0	0
37.98508	-0.01386753	-0.1817087	0	0	0	0
38.00165	-0.01386753	-0.1817087	0	0	0	0
38.01892	-0.01386753	-0.1817087	0	0	0	0
38.03478	-0.01386753	-0.1817087	0	0	0	0
38.05135	-0.01386753	-0.1817087	0	0	0	0
38.06871	-0.01386753	-0.1817087	0	0	0	0
38.08448	-0.01386753	-0.1817087	0	0	0	0
38.10105	-0.01386753	-0.1817087	0	0	0	0
38.11774	-0.01386753	-0.1817087	0	0	0	0
38.13419	-0.01386753	-0.1817087	0	0	0	0
38.15075	-0.01386753	-0.1817087	0	0	0	0
38.16732	-0.01386753	-0.1817087	0	0	0	0
38.18389	-0.01386753	-0.1817087	0	0	0	0
38.2005	-0.01386753	-0.1817087	0	0	0	0
38.21702	-0.01386753	-0.1817087	0	0	0	0
38.23359	-0.01386753	-0.1817087	0	0	0	0
38.25016	-0.01386753	-0.1817087	0	0	0	0
38.26679	-0.01386753	-0.1817087	0	0	0	0
38.28329	-0.01386753	-0.1817087	0	0	0	0
38.29986	-0.01386753	-0.1817087	0	0	0	0
38.31654	-0.01386753	-0.1817087	0	0	0	0
38.33302	-0.01386753	-0.1817087	0	0	0	0
38.34984	-0.01386753	-0.1817087	0	0	0	0
38.36613	-0.01386753	-0.1817087	0	0	0	0
38.3827	-0.01386753	-0.1817087	0	0	0	0
38.39927	-0.01386753	-0.1817087	0	0	0	0
38.41592	-0.01386753	-0.1817087	0	0	0	0
38.4324	-0.01386753	-0.1817087	0	0	0	0
38.44896	-0.01386753	-0.1817087	0	0	0	0
38.46556	-0.01386753	-0.1817087	0	0	0	0
38.48209	-0.01389384	-0.1816885	-0.001591421	0.001219464	-0.0480347	0.03680773
38.49866	-0.01389384	-0.1816885	0	0	0.04807344	-0.03683742
38.51554	-0.01389384	-0.1816885	0	0	0	0
38.5318	-0.01389384	-0.1816885	0	0	0	0
38.54836	-0.01389384	-0.1816885	0	0	0	0
38.56562	-0.01389384	-0.1816885	0	0	0	0
38.58149	-0.01389384	-0.1816885	0	0	0	0
38.59806	-0.01389384	-0.1816885	0	0	0	0
38.61549	-0.01389384	-0.1816885	0	0	0	0
38.6312	-0.01389384	-0.1816885	0	0	0	0
38.64777	-0.01389384	-0.1816885	0	0	0	0
38.66464	-0.01389384	-0.1816885	0	0	0	0
38.6809	-0.01389384	-0.1816885	0	0	0	0
38.69746	-0.01389384	-0.1816885	0	0	0	0
38.71404	-0.01389384	-0.1816885	0	0	0	0
38.73059	-0.01392015	-0.1816684	-0.00158922	0.001216878	-0.04796829	0.03672967
38.74716	-0.01392015	-0.1816684	0	0	0.04797934	-0.03673813
38.76373	-0.01392015	-0.1816684	0	0	0	0
38.78029	-0.01392015	-0.1816684	0	0	0	0
38.79699	-0.01392015	-0.1816684	0	0	0	0
38.81381	-0.01392015	-0.1816684	0	0	0	0
38.83058	-0.01394646	-0.1816482	-0.001568619	0.001201103	-0.04670119	0.03575945
38.84715	-0.01394646	-0.1816482	0	0	0.04704851	-0.03602539
38.86372	-0.01394646	-0.1816482	0	0	0	0
38.88041	-0.01394646	-0.1816482	0	0	0	0
38.89685	-0.01394646	-0.1816482	0	0	0	0
38.91341	-0.01394646	-0.1816482	0	0	0	0
38.92998	-0.01394646	-0.1816482	0	0	0	0
38.94655	-0.01394646	-0.1816482	0	0	0	0
38.96312	-0.01394646	-0.1816482	0	0	0	0
38.97968	-0.01394646	-0.1816482	0	0	0	0
38.99673	-0.01394646	-0.1816482	0	0	0	0
39.01281	-0.01394646	-0.1816482	0	0	0	0
39.03357	-0.01394646	-0.1816482	0	0	0	0
39.05103	-0.01394646	-0.1816482	0	0	0	0
39.06672	-0.01394646	-0.1816482	0	0	0	0
39.08329	-0.01394646	-0.1816482	0	0	0	0
39.09986	-0.01394646	-0.1816482	0	0	0	0
39.11642	-0.01405171	-0.1815273	-0.006353898	0.007297904	-0.191761	0.2202512
39.13299	-0.01405171	-0.1815273	0	0	0.1917831	-0.2202765
39.14969	-0.01405171	-0.1815273	0	0	0	0
39.16612	-0.01460422	-0.1807014	-0.03362102	0.05025624	-1.014684	1.516737
39.18285	-0.01460422	-0.1807014	0	0	1.013984	-1.515689
39.19926	-0.01460422	-0.1807014	0	0	0	0
39.21582	-0.0178139	-0.1766771	-0.1937366	0.2429097	-5.874713	7.365799
39.23239	-0.0178139	-0.1766771	0	0	5.846983	-7.331031
39.24896	-0.0178139	-0.1766771	0	0	0	0
39.26552	-0.02975437	-0.1446558	-0.7208942	1.933256	-21.75913	58.35251
39.28268	-0.02975437	-0.1446558	0	0	21.37761	-57.32936
39.29865	-0.02975437	-0.1446558	0	0	0	0
39.31522	-0.02083909	-0.07993408	0.5381278	3.90661	16.53774	120.058
39.33215	-0.02083909	-0.07993408	0	0	-16.06502	-116.6262
39.34835	-0.02083909	-0.07993408	0	0	0	0
39.36492	0.004815752	-0.01077403	1.548886	4.17547	47.26788	127.4243
39.38148	0.004815752	-0.01077403	0	0	-46.75085	-126.0304
39.39823	0.004815752	-0.01077403	0	0	0	0
39.41462	0.03262001	0.05616013	1.697024	4.085306	51.22218	123.309
39.43118	0.03262001	0.05616013	0	0	-51.50089	-123.9799
39.44775	0.03262001	0.05616013	0	0	0	0
39.46432	0.03561651	0.08511601	0.1808694	1.747781	5.458648	52.74813
39.48088	0.03561651	0.08511601	0	0	-5.458648	-52.74813
39.49745	0.03561651	0.08511601	0	0	0	0
39.51402	0.03711453	0.09917226	0.09044134	0.8486323	2.729839	25.61472
39.53059	0.03711453	0.09917226	0	0	-2.729525	-25.61177
39.54779	0.03711453	0.09917226	0	0	0	0
39.56372	0.03932182	0.1020333	0.138594	0.1796402	4.183257	5.422178
39.58029	0.03932182	0.1020333	0	0	-4.264771	-5.527833
39.59686	0.03932182	0.1020333	0	0	0	0
39.61342	0.03932182	0.1019233	0	-0.006641615	0	-0.2004674
39.62999	0.03932182	0.1019233	0	0	0	0.2004443
39.64656	0.03932182	0.1019233	0	0	0	0
39.66312	0.03929555	0.1019049	-0.001586661	-0.001107266	-0.04789655	-0.03342504
39.67969	0.03929555	0.1019049	0	0	0.04789104	0.03342119
39.69681	0.03929555	0.1019049	0	0	0	0
39.71282	0.0393481	0.1017949	0.003282432	-0.006871073	0.0990754	-0.2073933
39.72939	0.0393481	0.1017949	0	0	-0.1007458	0.2108899
39.74596	0.0393481	0.1017949	0	0	0	0
39.76252	0.03932182	0.1017766	-0.00158652	-0.001107011	-0.0478868	-0.0334135
39.77909	0.03932182	0.1017766	0	0	0.04788128	0.03340965
39.79623	0.03932182	0.1017766	0	0	0	0
39.81222	0.03942693	0.1017032	0.006570894	-0.004585395	0.1983328	-0.1384034
39.82879	0.03942693	0.1017032	0	0	-0.2017712	0.1408028
39.84544	0.03942693	0.1017032	0	0	0	0
39.86195	0.03971595	0.1014649	0.01750165	-0.01443436	0.5277755	-0.435279
39.87849	0.03971595	0.1014649	0	0	-0.529481	0.4366855
39.89507	0.03971595	0.1014649	0	0	0	0
39.91163	0.03992614	0.1013182	0.01269014	-0.008856536	0.3829892	-0.2672908
39.9282	0.03992614	0.1013182	0	0	-0.3830333	0.2673216
39.94476	0.03992614	0.1013182	0	0	0	0
