Time	Pos X	Pos Y	Vel X	Vel Y	Acc X	Acc Y
0.01657384	-0.01599864	-0.1904505	0.0002390514	0.002845708	-3.572786E-06	-4.253105E-05
0.03313781	-0.01599864	-0.1904505	0	0	3.572787E-06	4.253106E-05
0.04969862	-0.01597233	-0.1904707	0.001588682	-0.001221008	0.04796052	-0.03686085
0.06630049	-0.01597233	-0.1904707	0	0	-0.04790572	0.03681872
0.08296236	-0.01597233	-0.1904707	0	0	0	0
0.09940159	-0.01597233	-0.1904707	0	0	0	0
0.1159723	-0.01597233	-0.1904707	0	0	0	0
0.1325398	-0.01597233	-0.1904707	0	0	0	0
0.1491002	-0.01597233	-0.1904707	0	0	0	0
0.1656693	-0.01597233	-0.1904707	0	0	0	0
0.182465	-0.01597233	-0.1904707	0	0	0	0
0.1988	-0.01597233	-0.1904707	0	0	0	0
0.2153687	-0.01597233	-0.1904707	0	0	0	0
0.2319351	-0.01597233	-0.1904707	0	0	0	0
0.248499	-0.01597233	-0.1904707	0	0	0	0
0.2651345	-0.01597233	-0.1904707	0	0	0	0
0.2816353	-0.01597233	-0.1904707	0	0	0	0
0.2981992	-0.01599864	-0.1904505	-0.001588378	0.001220774	-0.04803836	0.03692067
0.3147683	-0.01599864	-0.1904505	0	0	0.04793932	-0.03684455
0.3313351	-0.01599864	-0.1904505	0	0	0	0
0.3479018	-0.01599864	-0.1904505	0	0	0	0
0.3644685	-0.01599864	-0.1904505	0	0	0	0
0.3810349	-0.01599864	-0.1904505	0	0	0	0
0.3975988	-0.01599864	-0.1904505	0	0	0	0
0.4141671	-0.01599864	-0.1904505	0	0	0	0
0.4310335	-0.01599864	-0.1904505	0	0	0	0
0.4473022	-0.01599864	-0.1904505	0	0	0	0
0.4638681	-0.01599864	-0.1904505	0	0	0	0
0.4804357	-0.01599864	-0.1904505	0	0	0	0
0.4969992	-0.01599864	-0.1904505	0	0	0	0
0.5135711	-0.01599864	-0.1904505	0	0	0	0
0.5307161	-0.01599864	-0.1904505	0	0	0	0
0.5467342	-0.01599864	-0.1904505	0	0	0	0
0.5632681	-0.01599864	-0.1904505	0	0	0	0
0.7896715	-0.01599864	-0.1904505	0	0	0	0
0.8191479	-0.01599864	-0.1904505	0	0	0	0
0.8361627	-0.01599864	-0.1904505	0	0	0	0
0.8527307	-0.01599864	-0.1904505	0	0	0	0
0.8693006	-0.01599864	-0.1904505	0	0	0	0
0.8863087	-0.01599864	-0.1904505	0	0	0	0
0.9024341	-0.01599864	-0.1904505	0	0	0	0
0.9190008	-0.01599864	-0.1904505	0	0	0	0
0.9359047	-0.01599864	-0.1904505	0	0	0	0
0.9521908	-0.01599864	-0.1904505	0	0	0	0
0.9687011	-0.01599864	-0.1904505	0	0	0	0
0.985267	-0.01599864	-0.1904505	0	0	0	0
1.002101	-0.01599864	-0.1904505	0	0	0	0
1.018644	-0.01599864	-0.1904505	0	0	0	0
1.034966	-0.01599864	-0.1904505	0	0	0	0
1.051533	-0.01599864	-0.1904505	0	0	0	0
1.068101	-0.01599864	-0.1904505	0	0	0	0
1.084666	-0.01599864	-0.1904505	0	0	0	0
1.101231	-0.01599864	-0.1904505	0	0	0	0
1.117798	-0.01599864	-0.1904505	0	0	0	0
1.134366	-0.01599864	-0.1904505	0	0	0	0
1.151028	-0.01599864	-0.1904505	0	0	0	0
1.1675	-0.01599864	-0.1904505	0	0	0	0
1.184066	-0.01599864	-0.1904505	0	0	0	0
1.200634	-0.01599864	-0.1904505	0	0	0	0
1.217202	-0.01599864	-0.1904505	0	0	0	0
1.233769	-0.01599864	-0.1904505	0	0	0	0
1.250334	-0.01599864	-0.1904505	0	0	0	0
1.266901	-0.01599864	-0.1904505	0	0	0	0
1.283466	-0.01599864	-0.1904505	0	0	0	0
1.303049	-0.01599864	-0.19041	0	0.002065858	0	0.05714969
1.319616	-0.01599864	-0.19041	0	0	0	-0.05714536
1.336459	-0.01599864	-0.19041	0	0	0	0
1.352752	-0.01599864	-0.19041	0	0	0	0
1.369319	-0.01599864	-0.19041	0	0	0	0
1.385886	-0.01599864	-0.19041	0	0	0	0
1.402451	-0.01599864	-0.1903695	0	0.002442214	0	0.07371016
1.419019	-0.01599864	-0.1903695	0	0	0	-0.07370936
1.435585	-0.01599864	-0.1903695	0	0	0	0
1.45215	-0.01599864	-0.1903695	0	0	0	0
1.468728	-0.01599864	-0.1903695	0	0	0	0
1.485284	-0.01599864	-0.1903695	0	0	0	0
1.501946	-0.01597233	-0.1903493	0.001579011	0.001214469	0.04753442	0.03656029
1.518419	-0.01597233	-0.1903493	0	0	-0.04765379	-0.0366521
1.534986	-0.01597233	-0.1903493	0	0	0	0
1.551549	-0.01594602	-0.1903695	0.001588343	-0.001221733	0.04794179	-0.03687622
1.568119	-0.01594602	-0.1903695	0	0	-0.04793886	0.03687396
1.584686	-0.01594602	-0.1903695	0	0	0	0
1.601249	-0.01594602	-0.1903695	0	0	0	0
1.617818	-0.01594602	-0.1903695	0	0	0	0
1.634385	-0.01594602	-0.1903695	0	0	0	0
1.650949	-0.01594602	-0.1903695	0	0	0	0
1.667937	-0.01594602	-0.1903695	0	0	0	0
1.684145	-0.01594602	-0.1903695	0	0	0	0
1.701006	-0.01594602	-0.1903695	0	0	0	0
1.717221	-0.01594602	-0.1903695	0	0	0	0
1.733786	-0.01594602	-0.1903695	0	0	0	0
1.75035	-0.01594602	-0.1903695	0	0	0	0
1.766917	-0.01594602	-0.1903695	0	0	0	0
1.78349	-0.01594602	-0.1903695	0	0	0	0
1.800049	-0.01594602	-0.1903695	0	0	0	0
1.816617	-0.01594602	-0.1903695	0	0	0	0
1.833184	-0.01594602	-0.1903695	0	0	0	0
1.849752	-0.01594602	-0.1903291	0	0.002441758	0	0.07369027
1.866321	-0.01594602	-0.1903291	0	0	0	-0.07368497
1.882888	-0.01594602	-0.1903291	0	0	0	0
1.899449	-0.01597233	-0.1903089	-0.001588606	0.001221935	-0.04795422	0.03688577
1.916023	-0.01597233	-0.1903089	0	0	0.04794387	-0.03687781
1.932586	-0.01597233	-0.1903089	0	0	0	0
1.949358	-0.01597233	-0.1903089	0	0	0	0
1.965867	-0.01597233	-0.1903089	0	0	0	0
1.982376	-0.01597233	-0.1903089	0	0	0	0
1.998879	-0.01597233	-0.1903089	0	0	0	0
2.015416	-0.01597233	-0.1903089	0	0	0	0
2.03227	-0.01597233	-0.1903089	0	0	0	0
2.048798	-0.01594602	-0.1903291	0.001591757	-0.001224359	0.04768385	-0.03667781
2.065121	-0.01594602	-0.1903291	0	0	-0.0484535	0.03726981
2.082193	-0.01594602	-0.1903291	0	0	0	0
2.098405	-0.01594602	-0.1903291	0	0	0	0
2.114819	-0.01594602	-0.1903291	0	0	0	0
2.131386	-0.01594602	-0.1903291	0	0	0	0
2.147952	-0.01594602	-0.1903291	0	0	0	0
2.164519	-0.01594602	-0.1903291	0	0	0	0
2.181085	-0.01594602	-0.1903291	0	0	0	0
2.197649	-0.01594602	-0.1903291	0	0	0	0
2.214278	-0.01594602	-0.1903291	0	0	0	0
2.230786	-0.01594602	-0.1903291	0	0	0	0
2.247352	-0.01597233	-0.1903493	-0.001588	-0.00122057	-0.04801368	-0.03690431
2.263919	-0.01597233	-0.1903493	0	0	0.04792731	0.03683792
2.280486	-0.01597233	-0.1903493	0	0	0	0
2.297668	-0.01597233	-0.1903493	0	0	0	0
2.313617	-0.01597233	-0.1903493	0	0	0	0
2.330186	-0.01597233	-0.1903493	0	0	0	0
2.34675	-0.01597233	-0.1903493	0	0	0	0
2.363319	-0.01597233	-0.1903493	0	0	0	0
2.379885	-0.01597233	-0.1903493	0	0	0	0
2.396713	-0.01594602	-0.1903695	0.001563341	-0.001202502	0.0468149	-0.03600942
2.413017	-0.01594602	-0.1903695	0	0	-0.04718649	0.03629524
2.429783	-0.01594602	-0.1903695	0	0	0	0
2.44615	-0.01594602	-0.1903695	0	0	0	0
2.46272	-0.01594602	-0.1903695	0	0	0	0
2.479744	-0.01594602	-0.1903695	0	0	0	0
2.495939	-0.01594602	-0.1903695	0	0	0	0
2.512419	-0.01594602	-0.1903695	0	0	0	0
2.52928	-0.01594602	-0.1903695	0	0	0	0
2.54555	-0.01591971	-0.1903898	0.001617086	-0.001242838	0.04880937	-0.03751324
2.562199	-0.01591971	-0.1903898	0	0	-0.04912293	0.03775423
2.578686	-0.01591971	-0.1903898	0	0	0	0
2.59556	-0.01591971	-0.1903898	0	0	0	0
2.61182	-0.01591971	-0.1903898	0	0	0	0
2.628383	-0.01591971	-0.1903898	0	0	0	0
2.64495	-0.01594602	-0.1903695	-0.001588158	0.001220605	-0.04793725	0.03684296
2.661519	-0.01594602	-0.1903695	0	0	0.04792932	-0.03683686
2.678083	-0.01594602	-0.1903695	0	0	0	0
2.694649	-0.01594602	-0.1903695	0	0	0	0
2.711217	-0.01594602	-0.1903695	0	0	0	0
2.72791	-0.01594602	-0.1903695	0	0	0	0
2.74435	-0.01594602	-0.1903695	0	0	0	0
2.760916	-0.01594602	-0.1903695	0	0	0	0
2.77754	-0.01594602	-0.1903695	0	0	0	0
2.794198	-0.01594602	-0.1903695	0	0	0	0
2.810619	-0.01594602	-0.1903695	0	0	0	0
2.827186	-0.01594602	-0.1903695	0	0	0	0
2.84375	-0.01594602	-0.1903695	0	0	0	0
2.860388	-0.01594602	-0.1903695	0	0	0	0
2.876886	-0.01594602	-0.1903695	0	0	0	0
2.893453	-0.01594602	-0.1903695	0	0	0	0
2.91002	-0.01594602	-0.1903695	0	0	0	0
2.926587	-0.01594602	-0.1903695	0	0	0	0
2.94315	-0.01594602	-0.1903695	0	0	0	0
2.959789	-0.01594602	-0.1903695	0	0	0	0
2.976612	-0.01594602	-0.1903695	0	0	0	0
2.99285	-0.01594602	-0.1903695	0	0	0	0
3.009502	-0.01594602	-0.1903695	0	0	0	0
3.025988	-0.01594602	-0.1903695	0	0	0	0
3.044066	-0.01594602	-0.1903695	0	0	0	0
3.060634	-0.01594602	-0.1903695	0	0	0	0
3.077204	-0.01594602	-0.1903695	0	0	0	0
3.09377	-0.01594602	-0.1903695	0	0	0	0
3.110336	-0.01594602	-0.1903695	0	0	0	0
3.126904	-0.01594602	-0.1903695	0	0	0	0
3.143467	-0.01594602	-0.1903695	0	0	0	0
3.160037	-0.01594602	-0.1903695	0	0	0	0
3.176809	-0.01594602	-0.1903695	0	0	0	0
3.193171	-0.01594602	-0.1903695	0	0	0	0
3.209737	-0.01594602	-0.1903695	0	0	0	0
3.226739	-0.01594602	-0.1903695	0	0	0	0
3.242867	-0.01591971	-0.1903898	0.00163131	-0.00125377	0.0492394	-0.03784375
3.259437	-0.01591971	-0.1903898	0	0	-0.04989069	0.0383443
3.276004	-0.01591971	-0.1903898	0	0	0	0
3.304136	-0.0158934	-0.1904909	0.0009352224	-0.003595491	0.02092247	-0.08043707
3.320703	-0.0158934	-0.1904909	0	0	-0.02092269	0.08043794
3.337337	-0.01581447	-0.1905921	0.004745103	-0.006081042	0.1429237	-0.1831625
3.354017	-0.01581447	-0.1905921	0	0	-0.1424378	0.1825398
3.370474	-0.01581447	-0.1905921	0	0	0	0
3.387037	-0.01549876	-0.1909562	0.01906101	-0.02198669	0.5772479	-0.6658499
3.403607	-0.01549876	-0.1909562	0	0	-0.5752914	0.6635931
3.420175	-0.01549876	-0.1909562	0	0	0	0
3.436742	-0.01136793	-0.2061646	0.2493337	-0.9179673	7.524689	-27.70351
3.453307	-0.01136793	-0.2061646	0	0	-7.525339	27.7059
3.469874	-0.01136793	-0.2061646	0	0	0	0
3.48644	-0.007499859	-0.2463478	0.2335008	-2.425707	7.047423	-73.21167
3.503007	-0.007499859	-0.2463478	0	0	-7.047423	73.21167
3.519714	-0.007499859	-0.2463478	0	0	0	0
3.536353	-0.003105253	-0.2851151	0.2641073	-2.329838	7.920224	-69.86871
3.552709	-0.003105253	-0.2851151	0	0	-8.004467	70.61187
3.569574	-0.003105253	-0.2851151	0	0	0	0
3.585875	-0.007105144	-0.3162981	-0.2453819	-1.912988	-7.398559	-57.6789
3.602443	-0.007105144	-0.3162981	0	0	7.465427	58.2002
3.619492	-0.007105144	-0.3162981	0	0	0	0
3.635929	-0.01052593	-0.338226	-0.2081202	-1.334093	-6.215204	-39.84074
3.652568	-0.01052593	-0.338226	0	0	6.292262	40.33469
3.669068	-0.01052593	-0.338226	0	0	0	0
3.68596	-0.00678937	-0.3470325	0.2211971	-0.5213261	6.624169	-15.61211
3.70221	-0.00678937	-0.3470325	0	0	-6.674253	15.73014
3.718766	-0.00678937	-0.3470325	0	0	0	0
3.735364	-0.006763055	-0.3470545	0.001585404	-0.001323312	0.0478187	-0.03991351
3.751898	-0.006763055	-0.3470545	0	0	-0.04785173	0.03994108
3.768466	-0.006763055	-0.3470545	0	0	0	0
3.785031	-0.006710425	-0.3471423	0.003177272	-0.00530399	0.0958944	-0.1600817
3.801599	-0.006710425	-0.3471423	0	0	-0.09589509	0.1600828
3.818166	-0.006710425	-0.3471423	0	0	0	0
3.835446	-0.006210446	-0.3477355	0.02893461	-0.03432688	0.8548804	-1.014197
3.851707	-0.006210446	-0.3477355	0	0	-0.862677	1.023446
3.867896	-0.006210446	-0.3477355	0	0	0	0
3.884434	-0.002842098	-0.376148	0.2036833	-1.7181	6.223707	-52.49794
3.901122	-0.002842098	-0.376148	0	0	-6.130323	51.71024
3.917566	-0.002842098	-0.376148	0	0	0	0
3.934133	-0.01955014	-0.4351352	-1.008558	-3.560678	-30.55242	-107.8643
3.950699	-0.01955014	-0.4351352	0	0	30.43964	107.4661
3.967407	-0.01955014	-0.4351352	0	0	0	0
3.983834	-0.02533668	-0.4534662	-0.3522674	-1.115939	-10.63153	-33.67936
4.0004	-0.02533668	-0.4534662	0	0	10.67716	33.82393
4.016966	-0.02533668	-0.4534662	0	0	0	0
4.033533	-0.01820851	-0.4601884	0.4302572	-0.4057517	12.98556	-12.24596
4.0501	-0.01820851	-0.4601884	0	0	-12.98537	12.24579
4.066666	-0.01820851	-0.4601884	0	0	0	0
4.083233	-0.005157849	-0.4722505	0.7877396	-0.72807	23.77471	-21.97383
4.100281	-0.005157849	-0.4722505	0	0	-23.43409	21.65901
4.116367	-0.005157849	-0.4722505	0	0	0	0
4.133036	0.004657861	-0.4814143	0.5888505	-0.5497418	17.97748	-16.7835
4.149498	0.004657861	-0.4814143	0	0	-17.77333	16.59291
4.166069	0.004657861	-0.4814143	0	0	0	0
4.182655	0.009105012	-0.4861518	0.2681142	-0.2856152	8.086117	-8.613934
4.199203	0.009105012	-0.4861518	0	0	-8.091702	8.619884
4.215769	0.009105012	-0.4861518	0	0	0	0
4.232334	0.008947129	-0.4862963	-0.00953145	-0.008726035	-0.2876929	-0.2633826
4.248903	0.008947129	-0.4862963	0	0	0.287668	0.2633598
4.265472	0.008947129	-0.4862963	0	0	0	0
4.282069	0.008894502	-0.4863445	-0.003170924	-0.002903594	-0.0956065	-0.08754624
4.298603	0.008894502	-0.4863445	0	0	0.0957097	0.08764073
4.315169	0.008894502	-0.4863445	0	0	0	0
4.331733	0.002315785	-0.4923328	-0.3971836	-0.3615395	-11.98875	-10.91286
4.348303	0.002315785	-0.4923328	0	0	11.98737	10.9116
4.36487	0.002315785	-0.4923328	0	0	0	0
4.381433	-0.004789437	-0.4989314	-0.4289708	-0.3983853	-12.94786	-12.02468
4.39817	-0.004789437	-0.4989314	0	0	12.88204	11.96355
4.414582	-0.004789437	-0.4989314	0	0	0	0
4.431133	-0.004789437	-0.4989314	0	0	0	0
4.447704	-0.004789437	-0.4989314	0	0	0	0
4.464392	-0.004789437	-0.4989314	0	0	0	0
4.480831	-0.004789437	-0.4989314	0	0	0	0
4.497681	-0.004789437	-0.4989314	0	0	0	0
4.514382	-0.004789437	-0.4989314	0	0	0	0
4.530533	-0.004789437	-0.4989314	0	0	0	0
4.5471	-0.004789437	-0.4989314	0	0	0	0
4.563666	-0.004789437	-0.4989314	0	0	0	0
4.58023	-0.004789437	-0.4989314	0	0	0	0
4.596797	-0.004789437	-0.4989314	0	0	0	0
4.613464	-0.004789437	-0.4989314	0	0	0	0
4.644679	-0.004789437	-0.4989314	0	0	0	0
4.661252	-0.004789437	-0.4989314	0	0	0	0
4.677813	-0.004789437	-0.4989314	0	0	0	0
4.69438	-0.004789437	-0.4989314	0	0	0	0
4.711226	-0.004789437	-0.4989314	0	0	0	0
4.728016	-0.004789437	-0.4989314	0	0	0	0
4.744082	-0.004789437	-0.4989314	0	0	0	0
4.760691	-0.004789437	-0.4989314	0	0	0	0
4.777224	-0.004789437	-0.4989314	0	0	0	0
4.793783	-0.004789437	-0.4989314	0	0	0	0
4.8109	-0.004789437	-0.4989314	0	0	0	0
4.826976	-0.004789437	-0.4989314	0	0	0	0
4.843482	-0.004789437	-0.4989314	0	0	0	0
4.860223	-0.004789437	-0.4989314	0	0	0	0
4.876613	-0.004789437	-0.4989314	0	0	0	0
4.893183	-0.004789437	-0.4989314	0	0	0	0
4.90975	-0.004789437	-0.4989314	0	0	0	0
4.926313	-0.004789437	-0.4989314	0	0	0	0
4.942884	-0.004789437	-0.4989314	0	0	0	0
4.959446	-0.004789437	-0.4989314	0	0	0	0
4.976013	-0.004789437	-0.4989314	0	0	0	0
4.992581	-0.004789437	-0.4989314	0	0	0	0
5.009147	-0.004789437	-0.4989314	0	0	0	0
5.025713	-0.004789437	-0.4989314	0	0	0	0
5.042282	-0.004789437	-0.4989314	0	0	0	0
5.058849	-0.004789437	-0.4989314	0	0	0	0
5.075416	-0.004789437	-0.4989314	0	0	0	0
5.091982	-0.004789437	-0.4989314	0	0	0	0
5.10855	-0.004789437	-0.4989314	0	0	0	0
5.125113	-0.004815752	-0.4989071	-0.001588696	0.001468175	-0.04795176	0.04431408
5.141682	-0.004815752	-0.4989071	0	0	0.04795038	-0.0443128
5.158353	-0.004815752	-0.4989071	0	0	0	0
5.174816	-0.004815752	-0.4989071	0	0	0	0
5.191382	-0.004815752	-0.4989071	0	0	0	0
5.207949	-0.004815752	-0.4989071	0	0	0	0
5.224513	-0.004815752	-0.4989071	0	0	0	0
5.241119	-0.004815752	-0.4989071	0	0	0	0
5.25769	-0.004815752	-0.4989071	0	0	0	0
5.274219	-0.004842068	-0.4988828	-0.001592115	0.001471309	-0.04809998	0.04445026
5.291801	-0.004842068	-0.4988828	0	0	0.04667517	-0.04313356
5.308371	-0.004842068	-0.4988828	0	0	0	0
5.324979	-0.005026273	-0.4987126	-0.01109123	0.01024978	-0.3342915	0.3089301
5.341502	-0.005026273	-0.4987126	0	0	0.3347678	-0.3093703
5.358069	-0.005026273	-0.4987126	0	0	0	0
5.374635	-0.005894668	-0.4977646	-0.05242095	0.05722525	-1.582159	1.727161
5.391528	-0.005894668	-0.4977646	0	0	1.566713	-1.7103
5.408031	-0.005894668	-0.4977646	0	0	0	0
5.424338	-0.008552423	-0.4949732	-0.1629837	0.1711778	-4.96754	5.217286
5.440904	-0.008552423	-0.4949732	0	0	4.957956	-5.207221
5.457559	-0.008552423	-0.4949732	0	0	0	0
5.474037	-0.009762848	-0.493616	-0.07345676	0.08236212	-2.217025	2.485801
5.490604	-0.009762848	-0.493616	0	0	2.222944	-2.492437
5.507836	-0.009762848	-0.493616	0	0	0	0
5.523738	-0.009710222	-0.4935676	0.003309501	0.003047409	0.09988237	0.09197231
5.540304	-0.009710222	-0.4935676	0	0	-0.1019317	-0.09385931
5.556872	-0.009710222	-0.4935676	0	0	0	0
5.573441	-0.01002598	-0.492938	-0.01905702	0.03800039	-0.5751007	1.146772
5.590063	-0.01002598	-0.492938	0	0	0.5741588	-1.144893
5.606568	-0.01002598	-0.492938	0	0	0	0
5.623136	-0.03143701	-0.4727037	-1.292372	1.221342	-39.07698	36.92927
5.639704	-0.03143701	-0.4727037	0	0	39.00219	-36.85859
5.65664	-0.03143701	-0.4727037	0	0	0	0
5.672836	-0.05657115	-0.4498236	-1.551849	1.412679	-46.83828	42.63781
5.689402	-0.05657115	-0.4498236	0	0	47.36797	-43.12
5.705971	-0.05657115	-0.4498236	0	0	0	0
5.72263	-0.06899557	-0.4384615	-0.7458394	0.6820667	-22.44616	20.52691
5.739104	-0.06899557	-0.4384615	0	0	22.51045	-20.5857
5.755671	-0.06899557	-0.4384615	0	0	0	0
5.772238	-0.0802222	-0.4283663	-0.6776599	0.6093656	-20.4524	18.39122
5.788805	-0.0802222	-0.4283663	0	0	20.4524	-18.39122
5.805371	-0.0802222	-0.4283663	0	0	0	0
5.821935	-0.1017787	-0.4087442	-1.301414	1.184634	-39.28128	35.75644
5.838505	-0.1017787	-0.4087442	0	0	39.27788	-35.75335
5.855244	-0.1017787	-0.4087442	0	0	0	0
5.871638	-0.1291197	-0.3843968	-1.667733	1.485128	-50.33445	44.82319
5.888204	-0.1291197	-0.3843968	0	0	50.59806	-45.05793
5.904966	-0.1291197	-0.3843968	0	0	0	0
5.921336	-0.1484009	-0.3640535	-1.17785	1.242732	-35.55066	37.50897
5.937905	-0.1484009	-0.3640535	0	0	35.75806	-37.7278
5.954469	-0.1484009	-0.3640535	0	0	0	0
5.971038	-0.1485554	-0.3500882	-0.009320412	0.842821	-0.2813027	25.43749
5.987606	-0.1485554	-0.3500882	0	0	0.2812704	-25.43456
6.004172	-0.1485554	-0.3500882	0	0	0	0
6.020764	-0.1316551	-0.334036	1.018549	0.9674379	30.71731	29.17592
6.037305	-0.1316551	-0.334036	0	0	-30.74074	-29.19818
6.053872	-0.1316551	-0.334036	0	0	0	0
6.070436	-0.1100275	-0.3127634	1.305668	1.284242	39.40966	38.76296
6.087004	-0.1100275	-0.3127634	0	0	-39.40739	-38.76073
6.103571	-0.1100275	-0.3127634	0	0	0	0
6.120139	-0.09581101	-0.2677228	0.8580857	2.718578	25.89671	82.04567
6.136705	-0.09581101	-0.2677228	0	0	-25.89745	-82.04803
6.153271	-0.09581101	-0.2677228	0	0	0	0
6.169838	-0.08949713	-0.2537805	0.3811067	0.8415572	11.50232	25.39934
6.186406	-0.08949713	-0.2537805	0	0	-11.50166	-25.39788
6.203281	-0.08949713	-0.2537805	0	0	0	0
6.219535	-0.08866169	-0.2531131	0.05139776	0.04105734	1.551433	1.239309
6.236106	-0.08866169	-0.2531131	0	0	-1.565812	-1.250795
6.252672	-0.08866169	-0.2531131	0	0	0	0
6.269237	-0.08638971	-0.2512581	0.1371567	0.1119833	4.139815	3.380003
6.285807	-0.08638971	-0.2512581	0	0	-4.139338	-3.379614
6.302372	-0.08638971	-0.2512581	0	0	0	0
6.318936	-0.08591953	-0.2509249	0.02838644	0.02012142	0.8568523	0.6073704
6.335506	-0.08591953	-0.2509249	0	0	-0.856729	-0.607283
6.352072	-0.08591953	-0.2509249	0	0	0	0
6.368639	-0.08497906	-0.2501751	0.05677027	0.04525502	1.713429	1.365878
6.385207	-0.08497906	-0.2501751	0	0	-1.71333	-1.365799
6.402343	-0.08497906	-0.2501751	0	0	0	0
6.418335	-0.06357212	-0.2332163	1.338549	1.060416	40.40448	32.00893
6.434905	-0.06357212	-0.2332163	0	0	-41.10739	-32.56579
6.451472	-0.06357212	-0.2332163	0	0	0	0
6.468038	-0.03984732	-0.2146381	1.432155	1.12148	43.2244	33.8478
6.484605	-0.03984732	-0.2146381	0	0	-43.2244	-33.8478
6.501173	-0.03984732	-0.2146381	0	0	0	0
6.518181	-0.02554707	-0.2034969	0.8407802	0.6550436	25.04145	19.50955
6.534304	-0.02554707	-0.2034969	0	0	-25.37735	-19.77125
6.550872	-0.02554707	-0.2034969	0	0	0	0
6.567436	-0.02054974	-0.199593	0.3017091	0.2356966	9.106255	7.113848
6.584006	-0.02054974	-0.199593	0	0	-9.105862	-7.113541
6.600691	-0.02054974	-0.199593	0	0	0	0
6.621835	-0.02054974	-0.199593	0	0	0	0
6.638406	-0.02054974	-0.199593	0	0	0	0
6.654973	-0.02054974	-0.199593	0	0	0	0
6.671539	-0.02054974	-0.199593	0	0	0	0
6.688106	-0.02054974	-0.199593	0	0	0	0
6.704996	-0.02052343	-0.1996133	0.001557383	-0.0012025	0.04654907	-0.03594187
6.721237	-0.02052343	-0.1996133	0	0	-0.04700665	0.03629518
6.737806	-0.02052343	-0.1996133	0	0	0	0
6.754372	-0.02054974	-0.199593	-0.001587866	0.001226037	-0.04792121	0.03700133
6.770939	-0.02054974	-0.199593	0	0	0.04792397	-0.03700346
6.787506	-0.02054974	-0.199593	0	0	0	0
6.804103	-0.02049713	-0.1996336	0.003169823	-0.002447424	0.09558017	-0.07379757
6.820929	-0.02049713	-0.1996336	0	0	-0.09484108	0.07322691
6.837205	-0.02049713	-0.1996336	0	0	0	0
6.85377	-0.02041822	-0.1996945	0.004763873	-0.003679222	0.1450557	-0.112029
6.870339	-0.02041822	-0.1996945	0	0	-0.143776	0.1110407
6.887281	-0.02041822	-0.1996945	0	0	0	0
6.903472	-0.02031299	-0.1997758	0.00649853	-0.005019363	0.1961345	-0.1514912
6.92004	-0.02031299	-0.1997758	0	0	-0.1983727	0.15322
7.051631	-0.02031299	-0.1997758	0	0	0	0
7.073932	-0.02026039	-0.1998164	0.002359001	-0.00182212	0.01532894	-0.01184025
7.095205	-0.02026039	-0.1998164	0	0	-0.0541374	0.04181637
7.111773	-0.02028669	-0.1997961	-0.001587683	0.001226795	-0.04195687	0.03241987
7.128341	-0.02028669	-0.1997961	0	0	0.047915	-0.03702369
7.144906	-0.02028669	-0.1997961	0	0	0	0
7.161473	-0.02031299	-0.1997758	-0.001587775	0.001225966	-0.04792259	0.0370024
7.178043	-0.02031299	-0.1997758	0	0	0.04791569	-0.03699708
7.194609	-0.02031299	-0.1997758	0	0	0	0
7.211349	-0.02031299	-0.1997758	0	0	0	0
7.227742	-0.02031299	-0.1997758	0	0	0	0
7.245248	-0.02031299	-0.1997758	0	0	0	0
7.260875	-0.02031299	-0.1997758	0	0	0	0
7.277442	-0.02031299	-0.1997758	0	0	0	0
7.294008	-0.02031299	-0.1997758	0	0	0	0
7.310572	-0.02031299	-0.1997758	0	0	0	0
7.327141	-0.02031299	-0.1997758	0	0	0	0
7.343711	-0.02031299	-0.1997758	0	0	0	0
7.360272	-0.02031299	-0.1997758	0	0	0	0
7.376842	-0.02031299	-0.1997758	0	0	0	0
7.394155	-0.02031299	-0.1997758	0	0	0	0
7.414693	-0.02031299	-0.1997758	0	0	0	0
7.431265	-0.02031299	-0.1997758	0	0	0	0
7.448042	-0.02031299	-0.1997758	0	0	0	0
7.4644	-0.02031299	-0.1997758	0	0	0	0
7.480965	-0.02031299	-0.1997758	0	0	0	0
7.497532	-0.02028669	-0.1997961	0.001587729	-0.001225931	0.04792052	-0.03700081
7.514258	-0.02028669	-0.1997961	0	0	-0.04768923	0.03682221
7.531391	-0.02028669	-0.1997961	0	0	0	0
7.547231	-0.02028669	-0.1997961	0	0	0	0
7.56382	-0.02028669	-0.1997961	0	0	0	0
7.580725	-0.02028669	-0.1997961	0	0	0	0
7.596931	-0.02028669	-0.1997961	0	0	0	0
7.613587	-0.02028669	-0.1997961	0	0	0	0
7.630067	-0.02028669	-0.1997961	0	0	0	0
7.646627	-0.02028669	-0.1997961	0	0	0	0
7.6632	-0.02028669	-0.1997961	0	0	0	0
7.68015	-0.02028669	-0.1997961	0	0	0	0
7.69664	-0.02031299	-0.1998164	-0.001595121	-0.001232542	-0.04770014	-0.03685766
7.712895	-0.02031299	-0.1998164	0	0	0.04871359	0.03764075
7.729462	-0.02031299	-0.1998164	0	0	0	0
7.746027	-0.02031299	-0.1998164	0	0	0	0
7.762596	-0.02031299	-0.1998164	0	0	0	0
7.779412	-0.02031299	-0.1998164	0	0	0	0
7.796187	-0.02031299	-0.1998164	0	0	0	0
7.812295	-0.02031299	-0.1998164	0	0	0	0
7.828916	-0.02031299	-0.1998164	0	0	0	0
7.84543	-0.02031299	-0.1998164	0	0	0	0
7.862005	-0.02031299	-0.1998164	0	0	0	0
7.879121	-0.02031299	-0.1998164	0	0	0	0
7.895126	-0.02031299	-0.1998164	0	0	0	0
7.911693	-0.02031299	-0.1998164	0	0	0	0
7.928263	-0.02031299	-0.1998164	0	0	0	0
7.944826	-0.02031299	-0.1998164	0	0	0	0
7.961396	-0.02031299	-0.1998164	0	0	0	0
7.978435	-0.02031299	-0.1998164	0	0	0	0
7.99453	-0.02031299	-0.1998164	0	0	0	0
8.011151	-0.02031299	-0.1998164	0	0	0	0
8.027957	-0.02031299	-0.1998164	0	0	0	0
8.044227	-0.02031299	-0.1998164	0	0	0	0
8.060796	-0.02031299	-0.1998164	0	0	0	0
8.07736	-0.02031299	-0.1998164	0	0	0	0
8.093929	-0.02031299	-0.1998164	0	0	0	0
8.110527	-0.02031299	-0.1998164	0	0	0	0
8.127062	-0.02031299	-0.1998164	0	0	0	0
8.144094	-0.02031299	-0.1998164	0	0	0	0
8.160196	-0.02031299	-0.1998164	0	0	0	0
8.176763	-0.02031299	-0.1998164	0	0	0	0
8.19333	-0.02031299	-0.1998164	0	0	0	0
8.209896	-0.02031299	-0.1998164	0	0	0	0
8.226462	-0.02031299	-0.1998164	0	0	0	0
8.243382	-0.02031299	-0.1998164	0	0	0	0
8.259595	-0.02031299	-0.1998164	0	0	0	0
8.276164	-0.02031299	-0.1998164	0	0	0	0
8.29273	-0.02031299	-0.1998164	0	0	0	0
8.309295	-0.02031299	-0.1998164	0	0	0	0
8.325861	-0.02031299	-0.1998164	0	0	0	0
8.342428	-0.02031299	-0.1998164	0	0	0	0
8.358994	-0.02031299	-0.1998164	0	0	0	0
8.375756	-0.02031299	-0.1998164	0	0	0	0
8.392125	-0.02031299	-0.1998164	0	0	0	0
8.408694	-0.02031299	-0.1998164	0	0	0	0
8.425263	-0.02031299	-0.1998164	0	0	0	0
8.441825	-0.02031299	-0.1998164	0	0	0	0
8.458392	-0.02031299	-0.1998164	0	0	0	0
8.474967	-0.02031299	-0.1998164	0	0	0	0
8.491529	-0.02031299	-0.1998164	0	0	0	0
8.508095	-0.02031299	-0.1998164	0	0	0	0
8.524913	-0.02031299	-0.1998164	0	0	0	0
8.541225	-0.02031299	-0.1998164	0	0	0	0
8.557989	-0.02031299	-0.1998164	0	0	0	0
8.574362	-0.02031299	-0.1998164	0	0	0	0
8.590926	-0.02031299	-0.1998164	0	0	0	0
8.607495	-0.02031299	-0.1998164	0	0	0	0
8.624063	-0.02031299	-0.1998164	0	0	0	0
8.640629	-0.02031299	-0.1998164	0	0	0	0
8.657585	-0.02031299	-0.1998164	0	0	0	0
8.673877	-0.02031299	-0.1998164	0	0	0	0
8.690325	-0.02031299	-0.1998164	0	0	0	0
8.706894	-0.02031299	-0.1998164	0	0	0	0
8.723686	-0.02031299	-0.1998164	0	0	0	0
8.744651	-0.02031299	-0.1998164	0	0	0	0
8.761222	-0.02031299	-0.1998164	0	0	0	0
8.777787	-0.02031299	-0.1998164	0	0	0	0
8.794353	-0.02031299	-0.1998164	0	0	0	0
8.810928	-0.02031299	-0.1998164	0	0	0	0
8.827487	-0.02031299	-0.1998164	0	0	0	0
8.844225	-0.02031299	-0.1998164	0	0	0	0
8.86062	-0.02031299	-0.1998164	0	0	0	0
8.877342	-0.02031299	-0.1998571	0	-0.002429961	0	-0.0733744
8.893751	-0.02031299	-0.1998571	0	0	0	0.07334272
8.910322	-0.02031299	-0.1998571	0	0	0	0
8.926888	-0.02031299	-0.1998571	0	0	0	0
8.943453	-0.02031299	-0.1998571	0	0	0	0
8.960625	-0.02031299	-0.1998571	0	0	0	0
8.976737	-0.02031299	-0.1998571	0	0	0	0
8.993153	-0.02031299	-0.1998571	0	0	0	0
9.009815	-0.02031299	-0.1998571	0	0	0	0
9.026283	-0.02031299	-0.1998571	0	0	0	0
9.042852	-0.02031299	-0.1998571	0	0	0	0
9.059568	-0.02031299	-0.1998571	0	0	0	0
9.075987	-0.0203393	-0.1998774	-0.00160223	-0.00123704	-0.04835538	-0.03733393
9.092553	-0.0203393	-0.1998774	0	0	0.04857488	0.0375034
9.109119	-0.0203393	-0.1998774	0	0	0	0
9.125684	-0.0203393	-0.1998774	0	0	0	0
9.142253	-0.0203393	-0.1998774	0	0	0	0
9.159266	-0.0203393	-0.1998774	0	0	0	0
9.175387	-0.0203393	-0.1998774	0	0	0	0
9.191954	-0.0203393	-0.1998774	0	0	0	0
9.208521	-0.0203393	-0.1998774	0	0	0	0
9.225118	-0.0203393	-0.1998774	0	0	0	0
9.241654	-0.0203393	-0.1998774	0	0	0	0
9.258796	-0.0203393	-0.1998774	0	0	0	0
9.274797	-0.0203393	-0.1998774	0	0	0	0
9.291428	-0.0203393	-0.1998774	0	0	0	0
9.307946	-0.0203393	-0.1998774	0	0	0	0
9.324489	-0.0203393	-0.1998774	0	0	0	0
9.341055	-0.0203393	-0.1998774	0	0	0	0
9.357621	-0.0203393	-0.1998774	0	0	0	0
9.374186	-0.02026039	-0.1999383	0.004764123	-0.003680228	0.1437981	-0.1110823
9.390755	-0.02026039	-0.1999383	0	0	-0.1437857	0.1110727
9.407317	-0.02026039	-0.1999383	0	0	0	0
9.423888	-0.02018147	-0.2000806	0.004762316	-0.00858224	0.1437311	-0.25902
9.440454	-0.02018147	-0.2000806	0	0	-0.1437146	0.2589901
9.457022	-0.02018147	-0.2000806	0	0	0	0
9.473588	-0.01989211	-0.2003447	0.01746659	-0.01594612	0.5271578	-0.4812686
9.490283	-0.01989211	-0.2003447	0	0	-0.5251325	0.4794195
9.506721	-0.01989211	-0.2003447	0	0	0	0
9.523321	-0.01889249	-0.2012391	0.06021956	-0.0538769	1.822729	-1.630749
9.539855	-0.01889249	-0.2012391	0	0	-1.817482	1.626055
9.556623	-0.01889249	-0.2012391	0	0	0	0
9.572985	-0.01691944	-0.2028864	0.1205931	-0.1006882	3.640029	-3.039212
9.589554	-0.01691944	-0.2028864	0	0	-3.662061	3.057608
9.606324	-0.01691944	-0.2028864	0	0	0	0
9.622687	-0.01699836	-0.2029475	-0.004823279	-0.003730038	-0.145571	-0.112576
9.639258	-0.01699836	-0.2029475	0	0	0.146452	0.1132573
9.6561	-0.01699836	-0.2029475	0	0	0	0
9.672411	-0.01728775	-0.2033341	-0.01774234	-0.0237029	-0.5351723	-0.7149638
9.688963	-0.01728775	-0.2033341	0	0	0.5398936	0.7212713
9.705523	-0.01728775	-0.2033341	0	0	0	0
9.722085	-0.0181559	-0.20425	-0.05241656	-0.05530244	-1.582527	-1.669656
9.738655	-0.0181559	-0.20425	0	0	1.582026	1.669127
9.755221	-0.0181559	-0.20425	0	0	0	0
9.771788	-0.02028669	-0.206022	-0.1286222	-0.1069617	-3.88205	-3.228296
9.788354	-0.02028669	-0.206022	0	0	3.88205	3.228296
9.804924	-0.02028669	-0.206022	0	0	0	0
9.824868	-0.01205205	-0.2141267	0.4128843	-0.406368	11.30747	-11.12902
9.841438	-0.01205205	-0.2141267	0	0	-11.30747	11.12902
9.858432	-0.01205205	-0.2141267	0	0	0	0
9.874572	0.01831374	-0.2379081	1.881401	-1.473447	56.78244	-44.47001
9.891136	0.01831374	-0.2379081	0	0	-57.52755	45.05356
9.907974	0.01831374	-0.2379081	0	0	0	0
9.924272	0.04877707	-0.2624145	1.869221	-1.503705	56.41158	-45.3806
9.940839	0.04877707	-0.2624145	0	0	-56.87647	45.75459
9.957405	0.04877707	-0.2624145	0	0	0	0
9.973971	0.05827605	-0.2850939	0.5733923	-1.369009	17.30601	-41.31916
9.990538	0.05827605	-0.2850939	0	0	-17.30601	41.31916
10.0071	0.05827605	-0.2850939	0	0	0	0
10.02367	0.0247055	-0.330835	-2.026439	-2.761098	-61.15981	-83.3325
10.04024	0.0247055	-0.330835	0	0	61.16157	83.3349
10.05738	0.0247055	-0.330835	0	0	0	0
10.08977	-0.004973643	-0.3961492	-0.9165317	-2.016989	-18.50528	-40.72412
10.10634	-0.004973643	-0.3961492	0	0	18.72267	41.20252
10.1229	0.004368393	-0.4190747	0.5639189	-1.383871	17.01764	-41.7617
10.13947	0.004368393	-0.4190747	0	0	-17.02106	41.77011
10.15604	0.004368393	-0.4190747	0	0	0	0
10.1726	0.02120735	-0.445839	1.016577	-1.615776	30.68211	-48.76701
10.18917	0.02120735	-0.445839	0	0	-30.68123	48.76561
10.20662	0.02120735	-0.445839	0	0	0	0
10.22231	0.03056942	-0.454243	0.5965512	-0.5354981	17.99929	-16.15718
10.2389	0.03056942	-0.454243	0	0	-18.47836	16.58722
10.25553	0.03056942	-0.454243	0	0	0	0
10.27325	0.03054313	-0.4542194	-0.001483526	0.001328499	-0.04318922	0.038676
10.29014	0.03054313	-0.4542194	0	0	0.04285843	-0.03837978
10.30656	0.03054313	-0.4542194	0	0	0	0
10.32296	0.03056942	-0.454243	0.001603837	-0.001436238	0.04887942	-0.04377158
10.33952	0.03056942	-0.454243	0	0	-0.04866161	0.04357653
10.35658	0.03056942	-0.454243	0	0	0	0
10.37267	0.0303328	-0.4544078	-0.01470847	-0.01024438	-0.4437237	-0.3090516
10.38922	0.0303328	-0.4544078	0	0	0.4506209	0.3138554
10.40643	0.0303328	-0.4544078	0	0	0	0
10.42235	0.02365348	-0.4604012	-0.4194376	-0.3763662	-12.66047	-11.36039
10.43892	0.02365348	-0.4604012	0	0	12.90794	11.58244
10.45549	0.02365348	-0.4604012	0	0	0	0
10.47206	0.02365348	-0.4604012	0	0	0	0
10.48896	0.02365348	-0.4604012	0	0	0	0
10.50529	0.02365348	-0.4604012	0	0	0	0
10.52175	0.02360088	-0.4604485	-0.003194984	-0.002872669	-0.09742304	-0.08759484
10.53832	0.02360088	-0.4604485	0	0	0.09671989	0.08696263
10.55489	0.02360088	-0.4604485	0	0	0	0
10.57145	0.01352549	-0.4695346	-0.6083268	-0.5485961	-18.36198	-16.55905
10.58802	0.01352549	-0.4695346	0	0	18.3604	16.55762
10.60523	0.01352549	-0.4695346	0	0	0	0
10.62115	-0.008947129	-0.4899633	-1.411117	-1.282773	-42.59374	-38.71975
10.63772	-0.008947129	-0.4899633	0	0	43.42501	39.47541
10.65481	-0.008947129	-0.4899633	0	0	0	0
10.67085	-0.01034174	-0.4911959	-0.08690507	-0.07680922	-2.622876	-2.318174
10.68742	-0.01034174	-0.4911959	0	0	2.664675	2.355117
10.70399	-0.01034174	-0.4911959	0	0	0	0
10.72055	-0.01036805	-0.4911717	-0.001588327	0.001458969	-0.04793717	0.04403304
10.73758	-0.01036805	-0.4911717	0	0	0.04728659	-0.04343545
10.75368	-0.01036805	-0.4911717	0	0	0	0
10.77025	-0.01036805	-0.4912201	0	-0.002919065	0	-0.08933431
10.78682	-0.01036805	-0.4912201	0	0	0	0.08809248
10.80339	-0.01036805	-0.4912201	0	0	0	0
10.81995	-0.01036805	-0.4912201	0	0	0	0
10.83654	-0.01036805	-0.4912201	0	0	0	0
10.85309	-0.01036805	-0.4912201	0	0	0	0
10.86965	-0.01042068	-0.4912201	-0.003176344	0	-0.09592022	0
10.88622	-0.01042068	-0.4912201	0	0	0.09586776	0
10.90279	-0.01042068	-0.4912201	0	0	0	0
10.91937	-0.0104733	-0.4913168	-0.003172691	-0.005830291	-0.09569693	-0.1758573
10.93592	-0.0104733	-0.4913168	0	0	0.09575476	0.1759636
10.95279	-0.0104733	-0.4913168	0	0	0	0
10.96905	-0.0104733	-0.4913168	0	0	0	0
10.98562	-0.0104733	-0.4913168	0	0	0	0
11.00219	-0.0104733	-0.4913168	0	0	0	0
11.01875	-0.0104733	-0.4913168	0	0	0	0
11.03532	-0.0104733	-0.4913168	0	0	0	0
11.05189	-0.0104733	-0.4913168	0	0	0	0
11.06845	-0.0104733	-0.4913168	0	0	0	0
11.08502	-0.0104733	-0.4913168	0	0	0	0
11.10159	-0.0104733	-0.4913168	0	0	0	0
11.11815	-0.0104733	-0.4913168	0	0	0	0
11.13479	-0.0104733	-0.4913168	0	0	0	0
11.15129	-0.0104733	-0.4913168	0	0	0	0
11.16785	-0.0104733	-0.4913168	0	0	0	0
11.18442	-0.0104733	-0.4913168	0	0	0	0
11.20098	-0.0104733	-0.4913168	0	0	0	0
11.21755	-0.0104733	-0.4913168	0	0	0	0
11.23443	-0.0104733	-0.4913168	0	0	0	0
11.25069	-0.0104733	-0.4913168	0	0	0	0
11.26725	-0.01049961	-0.4912926	-0.001588509	0.001459137	-0.04839821	0.04445653
11.28382	-0.01049961	-0.4912926	0	0	0.04794269	-0.04403811
11.30108	-0.01049961	-0.4912926	0	0	0	0
11.31695	-0.01052593	-0.4912684	-0.001657803	0.001524665	-0.05003692	0.04601846
11.33352	-0.01052593	-0.4912684	0	0	0.05110188	-0.04699789
11.35009	-0.01052593	-0.4912684	0	0	0	0
11.36672	-0.01055224	-0.4912443	-0.00158168	0.001452863	-0.04763784	0.04375809
11.38348	-0.01055224	-0.4912443	0	0	0.04736439	-0.04350691
11.39978	-0.01055224	-0.4912443	0	0	0	0
11.41635	-0.01057855	-0.4912201	-0.001588017	0.001458633	-0.04830742	0.04437156
11.43292	-0.01057855	-0.4912201	0	0	0.04792369	-0.0440191
11.44968	-0.01057855	-0.4912201	0	0	0	0
11.46641	-0.01060487	-0.4911959	-0.001572574	0.001446281	-0.04695227	0.04318153
11.48262	-0.01060487	-0.4911959	0	0	0.04774208	-0.04390792
11.49919	-0.01060487	-0.4911959	0	0	0	0
11.51575	-0.01060487	-0.4911959	0	0	0	0
11.53246	-0.01060487	-0.4911959	0	0	0	0
11.54962	-0.01060487	-0.4911959	0	0	0	0
11.56545	-0.01134162	-0.490519	-0.04654989	0.04276445	-1.411133	1.29638
11.58202	-0.01134162	-0.490519	0	0	1.436931	-1.320079
11.59915	-0.01134162	-0.490519	0	0	0	0
11.61563	-0.01165737	-0.4901807	-0.01915779	0.02052714	-0.5699969	0.6107387
11.63172	-0.01165737	-0.4901807	0	0	0.5881885	-0.6302305
11.64828	-0.01165737	-0.4901807	0	0	0	0
11.66485	-0.01181524	-0.4900358	-0.009529791	0.008750216	-0.2876345	0.2641048
11.68142	-0.01181524	-0.4900358	0	0	0.2876179	-0.2640896
11.69826	-0.01181524	-0.4900358	0	0	0	0
11.71455	-0.01323607	-0.4887318	-0.08722761	0.08005343	-2.632762	2.416226
11.73112	-0.01323607	-0.4887318	0	0	2.654847	-2.436494
11.74768	-0.01323607	-0.4887318	0	0	0	0
11.76577	-0.01626172	-0.4856701	-0.1672622	0.1692571	-4.826284	4.883845
11.78235	-0.01626172	-0.4856701	0	0	4.825355	-4.882905
11.79891	-0.01626172	-0.4856701	0	0	0	0
11.81548	-0.02531038	-0.4772196	-0.546241	0.510127	-16.48796	15.39788
11.83225	-0.02531038	-0.4772196	0	0	16.38701	-15.30361
11.8487	-0.02531038	-0.4772196	0	0	0	0
11.86518	-0.051717	-0.4531368	-1.602578	1.46155	-48.66706	44.38432
11.88224	-0.051717	-0.4531368	0	0	47.78007	-43.57538
11.89844	-0.051717	-0.4531368	0	0	0	0
11.91501	-0.0768222	-0.4302177	-1.514394	1.382527	-46.20452	42.18124
11.93145	-0.0768222	-0.4302177	0	0	45.87747	-41.88267
11.94815	-0.0768222	-0.4302177	0	0	0	0
11.96457	-0.09137641	-0.3940448	-0.8862997	2.202797	-26.75474	66.49587
11.98114	-0.09137641	-0.3940448	0	0	26.86378	-66.76689
11.99771	-0.09137641	-0.3940448	0	0	0	0
12.01427	-0.08492681	-0.3456932	0.389366	2.919015	11.75244	88.10619
12.03087	-0.08492681	-0.3456932	0	0	-11.74095	-88.02005
12.04795	-0.08492681	-0.3456932	0	0	0	0
12.07197	-0.05662362	-0.3195805	1.178448	1.087244	28.67569	26.45638
12.08854	-0.05662362	-0.3195805	0	0	-29.03413	-26.78708
12.10511	-0.04486461	-0.3099235	0.7098159	0.5829328	21.42043	17.59143
12.12251	-0.04486461	-0.3099235	0	0	-20.89838	-17.16269
12.13824	-0.04486461	-0.3099235	0	0	0	0
12.15481	-0.03264629	-0.2998268	0.7375417	0.6094695	22.83411	18.86903
12.17137	-0.03264629	-0.2998268	0	0	-22.25969	-18.39435
12.18794	-0.03264629	-0.2998268	0	0	0	0
12.2045	-0.03004359	-0.2977972	0.1571356	0.1225368	4.743044	3.698699
12.22107	-0.03004359	-0.2977972	0	0	-4.742635	-3.69838
12.23764	-0.03004359	-0.2977972	0	0	0	0
12.2542	-0.03009617	-0.2977545	-0.003174545	0.002578228	-0.09581899	0.07782005
12.27082	-0.03009617	-0.2977545	0	0	0.09566478	-0.0776948
12.28734	-0.03009617	-0.2977545	0	0	0	0
12.3039	-0.02983325	-0.296986	0.0158709	0.04639018	0.4797441	1.402278
12.32047	-0.02983325	-0.296986	0	0	-0.4790122	-1.400139
12.33706	-0.02983325	-0.296986	0	0	0	0
12.3536	-0.03382919	-0.2931908	-0.2415988	0.2294586	-7.291677	6.925273
12.37049	-0.03382919	-0.2931908	0	0	7.228635	-6.865398
12.38674	-0.03382919	-0.2931908	0	0	0	0
12.4033	-0.04265832	-0.2860484	-0.5330498	0.4312187	-16.24504	13.14167
12.41987	-0.04265832	-0.2860484	0	0	16.0884	-13.01495
12.43646	-0.04265832	-0.2860484	0	0	0	0
12.453	-0.04328873	-0.284903	-0.03811539	0.06924804	-1.150358	2.08997
12.46957	-0.04328873	-0.284903	0	0	1.151319	-2.091716
12.48614	-0.04328873	-0.284903	0	0	0	0
12.5027	-0.04305233	-0.2847122	0.01427179	0.01152017	0.4307607	0.3477093
12.5197	-0.04305233	-0.2847122	0	0	-0.4251437	-0.3431752
12.53584	-0.04305233	-0.2847122	0	0	0	0
12.5524	-0.04315739	-0.2846274	-0.006342288	0.005118085	-0.1939732	0.156532
12.56897	-0.04315739	-0.2846274	0	0	0.1914216	-0.154473
12.58554	-0.04315739	-0.2846274	0	0	0	0
12.6021	-0.04562621	-0.2825933	-0.1490436	0.1227996	-4.498533	3.706419
12.61867	-0.04562621	-0.2825933	0	0	4.498274	-3.706206
12.63523	-0.04562621	-0.2825933	0	0	0	0
12.6518	-0.05704331	-0.2733198	-0.6892567	0.5598516	-20.8042	16.8983
12.66837	-0.05704331	-0.2733198	0	0	20.80241	-16.89684
12.68494	-0.05704331	-0.2733198	0	0	0	0
12.7015	-0.06786928	-0.2645109	-0.6536075	0.5318276	-19.72705	16.05151
12.71824	-0.06786928	-0.2645109	0	0	19.62706	-15.97015
12.73463	-0.06786928	-0.2645109	0	0	0	0
12.7513	-0.0702788	-0.2625821	-0.1445815	0.1157332	-4.373298	3.500694
12.76777	-0.0702788	-0.2625821	0	0	4.363354	-3.492734
12.78452	-0.0702788	-0.2625821	0	0	0	0
12.8009	-0.0702788	-0.2625821	0	0	0	0
12.81747	-0.0702788	-0.2625821	0	0	0	0
12.83443	-0.0702788	-0.2625821	0	0	0	0
12.8506	-0.07025262	-0.2626031	0.001618889	-0.00129548	0.04886239	-0.03910104
12.86717	-0.07025262	-0.2626031	0	0	-0.04944882	0.03957031
12.88439	-0.07025262	-0.2626031	0	0	0	0
12.9003	-0.07025262	-0.2626031	0	0	0	0
12.91687	-0.07025262	-0.2626031	0	0	0	0
12.93344	-0.07025262	-0.2626031	0	0	0	0
12.95025	-0.07025262	-0.2626031	0	0	0	0
12.96657	-0.07025262	-0.2626031	0	0	0	0
12.98314	-0.07025262	-0.2626031	0	0	0	0
13.24309	-0.0694408	-0.2638817	0.003122959	-0.004918776	0.01129392	-0.01778834
13.25965	-0.0694408	-0.2638817	0	0	-0.01129396	0.0177884
13.27651	-0.06328381	-0.272477	0.3652247	-0.5098627	10.92721	-15.25465
13.29308	-0.06328381	-0.272477	0	0	-10.92596	15.25291
13.30964	-0.06328381	-0.272477	0	0	0	0
13.3266	-0.03782406	-0.2973275	1.501574	-1.465639	44.79416	-43.72216
13.34278	-0.03782406	-0.2973275	0	0	-45.32151	44.23689
13.35935	-0.03782406	-0.2973275	0	0	0	0
13.37592	0.008026144	-0.3357588	2.766727	-2.319052	83.48078	-69.973
13.39248	0.008026144	-0.3357588	0	0	-83.4976	69.9871
13.40907	0.008026144	-0.3357588	0	0	0	0
13.42561	0.02349568	-0.3881993	0.9350346	-3.169695	28.22509	-95.68087
13.44218	0.02349568	-0.3881993	0	0	-28.23728	95.72221
13.45905	0.02349568	-0.3881993	0	0	0	0
13.47531	0.007868258	-0.4382054	-0.9609744	-3.075013	-29.0031	-92.80676
13.49188	0.007868258	-0.4382054	0	0	29.27271	93.66949
13.50873	0.007868258	-0.4382054	0	0	0	0
13.52531	0.007052515	-0.4664914	-0.0491959	-1.705878	-1.471563	-51.02674
13.54158	0.007052515	-0.4664914	0	0	1.49758	51.92888
13.55814	0.007052515	-0.4664914	0	0	0	0
13.57471	0.01481471	-0.4771	0.4685538	-0.6403704	14.14179	-19.32753
13.59128	0.01481471	-0.4771	0	0	-14.14179	19.32753
13.60832	0.01481471	-0.4771	0	0	0	0
13.6399	0.01639327	-0.4787282	0.04998469	-0.05155802	1.028084	-1.060444
13.65652	0.01639327	-0.4787282	0	0	-1.036891	1.069528
13.67303	0.01636696	-0.4787522	-0.001593386	-0.001451138	-0.04808434	-0.04379164
13.6896	0.01636696	-0.4787522	0	0	0.04817029	0.04386992
13.70714	0.01636696	-0.4787522	0	0	0	0
13.72273	0.01631434	-0.4788001	-0.003375252	-0.003074147	-0.101877	-0.09278861
13.7393	0.01631434	-0.4788001	0	0	0.1049587	0.09559538
13.75642	0.01631434	-0.4788001	0	0	0	0
13.77243	0.01552507	-0.4795191	-0.0493009	-0.04491198	-1.48799	-1.355524
13.789	0.01552507	-0.4795191	0	0	1.51343	1.3787
13.80569	0.01552507	-0.4795191	0	0	0	0
13.82217	0.0006842104	-0.493059	-0.9007216	-0.8217627	-27.15726	-24.7766
13.8387	0.0006842104	-0.493059	0	0	27.2875	24.89543
13.85526	0.0006842104	-0.493059	0	0	0	0
13.87183	-0.004631546	-0.497959	-0.3208782	-0.2957803	-9.68468	-8.927182
13.88839	-0.004631546	-0.497959	0	0	9.685238	8.927696
13.90496	-0.004631546	-0.497959	0	0	0	0
13.92153	-0.004631546	-0.497959	0	0	0	0
13.9381	-0.004631546	-0.497959	0	0	0	0
13.95508	-0.004631546	-0.497959	0	0	0	0
13.97212	-0.004631546	-0.497959	0	0	0	0
13.9878	-0.004631546	-0.497959	0	0	0	0
14.0049	-0.004631546	-0.497959	0	0	0	0
14.02094	-0.004631546	-0.497959	0	0	0	0
14.0375	-0.004631546	-0.497959	0	0	0	0
14.05455	-0.004631546	-0.497959	0	0	0	0
14.07063	-0.004631546	-0.497959	0	0	0	0
14.0872	-0.004631546	-0.497959	0	0	0	0
14.10376	-0.004631546	-0.497959	0	0	0	0
14.12038	-0.004631546	-0.497959	0	0	0	0
14.13718	-0.004631546	-0.497959	0	0	0	0
14.15346	-0.004631546	-0.497959	0	0	0	0
14.17045	-0.004657861	-0.4979347	-0.001548791	0.001429544	-0.04654701	0.04296318
14.18668	-0.004657861	-0.4979347	0	0	0.04662853	-0.04303842
14.20316	-0.004657861	-0.4979347	0	0	0	0
14.21973	-0.004657861	-0.4979347	0	0	0	0
14.23635	-0.004657861	-0.4979347	0	0	0	0
14.25288	-0.004657861	-0.4979347	0	0	0	0
14.27533	-0.004657861	-0.4979347	0	0	0	0
14.29189	-0.004657861	-0.4979347	0	0	0	0
14.30847	-0.004657861	-0.4979347	0	0	0	0
14.32503	-0.004657861	-0.4979347	0	0	0	0
14.34197	-0.004657861	-0.4979347	0	0	0	0
14.35816	-0.004657861	-0.4979347	0	0	0	0
14.37499	-0.004657861	-0.4979347	0	0	0	0
14.3913	-0.004657861	-0.4979347	0	0	0	0
14.40786	-0.004657861	-0.4979347	0	0	0	0
14.42452	-0.004657861	-0.4979347	0	0	0	0
14.44108	-0.004657861	-0.4979347	0	0	0	0
14.45756	-0.004657861	-0.4979347	0	0	0	0
14.47466	-0.004657861	-0.4979347	0	0	0	0
14.4907	-0.004657861	-0.4979347	0	0	0	0
14.50771	-0.004657861	-0.4979347	0	0	0	0
14.52383	-0.004657861	-0.4979347	0	0	0	0
14.5407	-0.004657861	-0.4979347	0	0	0	0
14.55696	-0.004736807	-0.4978132	-0.004855176	0.007472507	-0.1465253	0.2255142
14.57353	-0.004736807	-0.4978132	0	0	0.1479045	-0.227637
14.59063	-0.004736807	-0.4978132	0	0	0	0
14.60709	-0.005289424	-0.4972059	-0.03356084	0.03688427	-0.9999457	1.098967
14.62323	-0.005289424	-0.4972059	0	0	1.029371	-1.131306
14.6398	-0.005289424	-0.4972059	0	0	0	0
14.6566	-0.01084168	-0.4917037	-0.3303429	0.327359	-9.89826	9.808852
14.67293	-0.01084168	-0.4917037	0	0	9.970056	-9.879998
14.6902	-0.01084168	-0.4917037	0	0	0	0
14.70606	-0.03264629	-0.4709395	-1.374852	1.309251	-41.4979	39.51782
14.72263	-0.03264629	-0.4709395	0	0	42.39859	-40.37554
14.7392	-0.03264629	-0.4709395	0	0	0	0
14.75616	-0.06535416	-0.4405822	-1.928622	1.790022	-57.52217	53.38836
14.77233	-0.06535416	-0.4405822	0	0	58.20761	-54.02454
14.78929	-0.06535416	-0.4405822	0	0	0	0
14.80546	-0.08889666	-0.4002301	-1.455892	2.495414	-43.94017	75.31393
14.82203	-0.08889666	-0.4002301	0	0	44.47267	-76.22664
14.8386	-0.08889666	-0.4002301	0	0	0	0
14.85516	-0.08330674	-0.3515411	0.3374664	2.93938	10.18593	88.72089
14.87173	-0.08330674	-0.3515411	0	0	-10.18534	-88.71577
14.8883	-0.08330674	-0.3515411	0	0	0	0
14.90486	-0.06137021	-0.3246674	1.324245	1.622287	39.96808	48.96354
14.92143	-0.06137021	-0.3246674	0	0	-39.96348	-48.9579
14.95504	-0.06137021	-0.3246674	0	0	0	0
14.97282	-0.04276339	-0.2967725	1.046204	1.568444	20.35863	30.52115
14.98939	-0.04276339	-0.2967725	0	0	-30.45092	-45.65126
15.00596	-0.04276339	-0.2967725	0	0	0	0
15.02255	-0.05625637	-0.2622678	-0.8133612	2.079955	-24.53246	62.73524
15.03909	-0.05625637	-0.2622678	0	0	24.54799	-62.77496
15.05566	-0.05625637	-0.2622678	0	0	0	0
15.07222	-0.06870747	-0.2519666	-0.7517661	0.6219645	-22.69161	18.77363
15.08887	-0.06870747	-0.2519666	0	0	22.63427	-18.72619
15.10536	-0.06870747	-0.2519666	0	0	0	0
15.12192	-0.06805264	-0.2334021	0.03953209	1.120746	1.196179	33.91202
15.13849	-0.06805264	-0.2334021	0	0	-1.193115	-33.82515
15.15549	-0.06805264	-0.2334021	0	0	0	0
15.17162	-0.05145454	-0.1922516	1.029235	2.551712	31.06507	77.01748
15.18819	-0.05145454	-0.1922516	0	0	-31.47549	-78.035
15.20476	-0.05145454	-0.1922516	0	0	0	0
15.22148	-0.0353274	-0.1796544	0.9646624	0.7535136	28.98509	22.64073
15.23789	-0.0353274	-0.1796544	0	0	-29.11524	-22.7424
15.25478	-0.0353274	-0.1796544	0	0	0	0
15.27102	-0.03511713	-0.1797752	0.01294811	-0.007438117	0.3908198	-0.2245087
15.28759	-0.03511713	-0.1797752	0	0	-0.3946711	0.226721
15.30416	-0.03511713	-0.1797752	0	0	0	0
15.32079	-0.03511713	-0.1797752	0	0	0	0
15.33763	-0.03511713	-0.1797752	0	0	0	0
15.35386	-0.03511713	-0.1797752	0	0	0	0
15.37043	-0.03514342	-0.1797551	-0.001586696	0.001215208	-0.04837952	0.03705257
15.38764	-0.03514342	-0.1797551	0	0	0.04696868	-0.03597205
15.40356	-0.03514342	-0.1797551	0	0	0	0
15.42039	-0.0351697	-0.1797349	-0.001561659	0.001196202	-0.04768822	0.0365283
15.43755	-0.0351697	-0.1797349	0	0	0.04594091	-0.03518989
15.45326	-0.0351697	-0.1797349	0	0	0	0
15.46983	-0.0351697	-0.1797349	0	0	0	0
15.48639	-0.0351697	-0.1797349	0	0	0	0
15.50296	-0.0351697	-0.1797349	0	0	0	0
15.51994	-0.0351697	-0.1797349	0	0	0	0
15.53609	-0.0351697	-0.1797349	0	0	0	0
15.55276	-0.0351697	-0.1797349	0	0	0	0
15.56944	-0.03514342	-0.1797551	0.001576398	-0.001207492	0.04727644	-0.03621288
15.58579	-0.03514342	-0.1797551	0	0	-0.0477269	0.03655792
15.60236	-0.03514342	-0.1797551	0	0	0	0
15.62683	-0.03514342	-0.1797551	0	0	0	0
15.6434	-0.03514342	-0.1797551	0	0	0	0
15.65996	-0.03514342	-0.1797551	0	0	0	0
15.67653	-0.03514342	-0.1797551	0	0	0	0
15.69339	-0.03514342	-0.1797551	0	0	0	0
15.7097	-0.03514342	-0.1797551	0	0	0	0
15.72623	-0.03514342	-0.1797551	0	0	0	0
15.74299	-0.03514342	-0.1797551	0	0	0	0
15.75936	-0.03511713	-0.1797752	0.001605738	-0.001229792	0.04846268	-0.03711626
15.77593	-0.03511713	-0.1797752	0	0	-0.04875597	0.03734088
15.7927	-0.03511713	-0.1797752	0	0	0	0
15.80906	-0.03514342	-0.1797551	-0.001606487	0.001230365	-0.04848528	0.03713356
15.82563	-0.03514342	-0.1797551	0	0	0.04878294	-0.03736154
15.84268	-0.03514342	-0.1797551	0	0	0	0
15.85876	-0.03511713	-0.1797752	0.001635368	-0.001252485	0.04936262	-0.0378055
15.87532	-0.03511713	-0.1797752	0	0	-0.05010396	0.03837327
15.89189	-0.03511713	-0.1797752	0	0	0	0
15.90846	-0.03511713	-0.1797752	0	0	0	0
15.92503	-0.03511713	-0.1797752	0	0	0	0
15.94159	-0.03511713	-0.1797752	0	0	0	0
15.95816	-0.03511713	-0.1797752	0	0	0	0
15.97473	-0.03511713	-0.1797752	0	0	0	0
15.99129	-0.03511713	-0.1797752	0	0	0	0
16.00786	-0.03511713	-0.1797752	0	0	0	0
16.02456	-0.03511713	-0.1797752	0	0	0	0
16.04099	-0.03511713	-0.1797752	0	0	0	0
16.05756	-0.03514342	-0.1797551	-0.001586605	0.001215138	-0.048072	0.03681705
16.07413	-0.03514342	-0.1797551	0	0	0.04788383	-0.03667293
16.09075	-0.03514342	-0.1797551	0	0	0	0
16.10726	-0.03511713	-0.1797349	0.00159192	0.001219208	0.04804423	0.03679578
16.12383	-0.03511713	-0.1797349	0	0	-0.04812735	-0.03685944
16.1412	-0.03511713	-0.1797349	0	0	0	0
16.15696	-0.03509085	-0.1797148	0.001667187	0.001277034	0.05031579	0.03854097
16.17375	-0.03509085	-0.1797148	0	0	-0.05121197	-0.03922743
16.1901	-0.03509085	-0.1797148	0	0	0	0
16.313	-0.03498572	-0.1796343	0.0008554129	0.000655184	0.00614301	0.004705098
16.32963	-0.03498572	-0.1796343	0	0	-0.006130582	-0.004695579
16.35803	-0.03495944	-0.1796544	0.0009252818	-0.0007087488	0.02054785	-0.01573927
16.37521	-0.03495944	-0.1796544	0	0	-0.02029766	0.01554764
16.39117	-0.03493315	-0.1796343	0.001647489	0.001261768	0.04971847	0.03807804
16.40807	-0.03493315	-0.1796343	0	0	-0.05014857	-0.03840744
16.42461	-0.03493315	-0.1796343	0	0	0	0
16.44086	-0.03493315	-0.1796343	0	0	0	0
16.45744	-0.03493315	-0.1796343	0	0	0	0
16.474	-0.03493315	-0.1796343	0	0	0	0
16.49057	-0.03493315	-0.1796343	0	0	0	0
16.50714	-0.03493315	-0.1796343	0	0	0	0
16.5237	-0.03493315	-0.1796343	0	0	0	0
16.54027	-0.03493315	-0.1796343	0	0	0	0
16.55684	-0.03493315	-0.1796343	0	0	0	0
16.5734	-0.03493315	-0.1796343	0	0	0	0
16.59037	-0.03490687	-0.1796544	0.001548758	-0.00118632	0.04618069	-0.03537356
16.60654	-0.03490687	-0.1796544	0	0	-0.04674429	0.03580527
16.62311	-0.03490687	-0.1796544	0	0	0	0
16.64093	-0.03490687	-0.1796544	0	0	0	0
16.6575	-0.03490687	-0.1796544	0	0	0	0
16.67406	-0.03490687	-0.1796544	0	0	0	0
16.69063	-0.03474917	-0.1797752	0.009518955	-0.007290827	0.2872826	-0.2200376
16.7072	-0.03474917	-0.1797752	0	0	-0.2872992	0.2200503
16.72421	-0.03474917	-0.1797752	0	0	0	0
16.74033	-0.03422347	-0.1801779	0.03260924	-0.02497837	0.9842054	-0.7538921
16.7569	-0.03422347	-0.1801779	0	0	-0.9975863	0.7641417
16.77375	-0.03422347	-0.1801779	0	0	0	0
16.79003	-0.03385548	-0.1804598	0.02260787	-0.01731859	0.6823068	-0.5226762
16.80659	-0.03385548	-0.1804598	0	0	-0.6884094	0.5273511
16.82316	-0.03385548	-0.1804598	0	0	0	0
16.83973	-0.03382919	-0.1804799	0.00158697	-0.001216317	0.04789761	-0.03671065
16.85651	-0.03382919	-0.1804799	0	0	-0.04758805	0.03647338
16.87383	-0.03382919	-0.1804799	0	0	0	0
16.88951	-0.03382919	-0.1804799	0	0	0	0
16.906	-0.03382919	-0.1804799	0	0	0	0
16.92256	-0.03382919	-0.1804799	0	0	0	0
16.93914	-0.03382919	-0.1804799	0	0	0	0
16.9557	-0.03382919	-0.1804799	0	0	0	0
16.97226	-0.03382919	-0.1804799	0	0	0	0
16.98894	-0.03382919	-0.1804799	0	0	0	0
17.00575	-0.03382919	-0.1804799	0	0	0	0
17.02196	-0.03382919	-0.1804799	0	0	0	0
17.03853	-0.03382919	-0.1804799	0	0	0	0
17.0551	-0.03382919	-0.1804799	0	0	0	0
17.07236	-0.03382919	-0.1804799	0	0	0	0
17.08823	-0.03382919	-0.1804799	0	0	0	0
17.1048	-0.03382919	-0.1804799	0	0	0	0
17.1218	-0.03382919	-0.1804799	0	0	0	0
17.13793	-0.03377662	-0.1805202	0.003258749	-0.002495788	0.09837756	-0.07534472
17.1545	-0.03377662	-0.1805202	0	0	-0.0996572	0.07632476
17.17106	-0.03377662	-0.1805202	0	0	0	0
17.18763	-0.03375034	-0.1805403	0.00158697	-0.001216317	0.04789761	-0.03671065
17.2042	-0.03375034	-0.1805403	0	0	-0.04789761	0.03671065
17.22086	-0.03375034	-0.1805403	0	0	0	0
17.23733	-0.03375034	-0.1805403	0	0	0	0
17.25396	-0.03375034	-0.1805403	0	0	0	0
17.27046	-0.03375034	-0.1805403	0	0	0	0
17.28703	-0.03372405	-0.1805605	0.001586605	-0.001215138	0.04797773	-0.03674485
17.3036	-0.03372405	-0.1805605	0	0	-0.04788383	0.03667293
17.32025	-0.03372405	-0.1805605	0	0	0	0
17.33673	-0.03372405	-0.1805605	0	0	0	0
17.3533	-0.03372405	-0.1805605	0	0	0	0
17.36987	-0.03372405	-0.1805605	0	0	0	0
17.38643	-0.03364519	-0.1806209	0.004759815	-0.003647212	0.1436515	-0.1100731
17.40335	-0.03364519	-0.1806209	0	0	-0.1421621	0.1089318
17.41957	-0.03364519	-0.1806209	0	0	0	0
17.4363	-0.03356634	-0.1806813	0.004712612	-0.003611044	0.1430173	-0.1095871
17.4527	-0.03356634	-0.1806813	0	0	-0.1422351	0.1089878
17.46927	-0.03356634	-0.1806813	0	0	0	0
17.48583	-0.03351376	-0.1807216	0.003173435	-0.002431175	0.09577445	-0.07337301
17.5024	-0.03351376	-0.1807216	0	0	-0.09577445	0.07337301
17.51897	-0.03351376	-0.1807216	0	0	0	0
17.53693	-0.03351376	-0.1807216	0	0	0	0
17.55351	-0.03351376	-0.1807216	0	0	0	0
17.57071	-0.03351376	-0.1807216	0	0	0	0
17.58663	-0.03351376	-0.1807216	0	0	0	0
17.6032	-0.03351376	-0.1807216	0	0	0	0
17.61977	-0.03351376	-0.1807216	0	0	0	0
17.63634	-0.03351376	-0.1807216	0	0	0	0
17.6529	-0.03351376	-0.1807216	0	0	0	0
17.66947	-0.03351376	-0.1807216	0	0	0	0
17.69453	-0.03351376	-0.1807216	0	0	0	0
17.7111	-0.03351376	-0.1807216	0	0	0	0
17.72767	-0.03351376	-0.1807216	0	0	0	0
17.74424	-0.03351376	-0.1807216	0	0	0	0
17.7608	-0.03351376	-0.1807216	0	0	0	0
17.77737	-0.03354005	-0.1807014	-0.001586605	0.001216037	-0.04788383	0.03670008
17.79404	-0.03354005	-0.1807014	0	0	0.04773819	-0.03658845
17.81051	-0.03354005	-0.1807014	0	0	0	0
17.82707	-0.03354005	-0.1807014	0	0	0	0
17.84377	-0.03354005	-0.1807014	0	0	0	0
17.86047	-0.03354005	-0.1807014	0	0	0	0
17.87678	-0.03354005	-0.1807014	0	0	0	0
17.89334	-0.03354005	-0.1807014	0	0	0	0
17.90991	-0.03354005	-0.1807014	0	0	0	0
17.92647	-0.03354005	-0.1807014	0	0	0	0
17.94304	-0.03354005	-0.1807014	0	0	0	0
17.95997	-0.03354005	-0.1807014	0	0	0	0
17.97792	-0.03351376	-0.1807216	0.001464688	-0.001122595	0.04199488	-0.03218655
17.99449	-0.03351376	-0.1807216	0	0	-0.04243581	0.0325245
18.01256	-0.03351376	-0.1807216	0	0	0	0
18.02912	-0.03351376	-0.1807216	0	0	0	0
18.04597	-0.03351376	-0.1807216	0	0	0	0
18.06226	-0.03351376	-0.1807216	0	0	0	0
18.07884	-0.03351376	-0.1807216	0	0	0	0
18.09539	-0.03351376	-0.1807216	0	0	0	0
18.11274	-0.03351376	-0.1807216	0	0	0	0
18.12852	-0.03351376	-0.1807216	0	0	0	0
18.14509	-0.03351376	-0.1807216	0	0	0	0
18.16166	-0.03351376	-0.1807216	0	0	0	0
18.17823	-0.03348748	-0.1807417	0.001586788	-0.001215278	0.04788934	-0.03667716
18.1948	-0.03348748	-0.1807417	0	0	-0.04788934	0.03667716
18.21136	-0.03348748	-0.1807417	0	0	0	0
18.22793	-0.03343491	-0.180782	0.003174306	-0.002432015	0.09581178	-0.07340682
18.2445	-0.03343491	-0.180782	0	0	-0.09580075	0.07339837
18.26106	-0.03343491	-0.180782	0	0	0	0
18.27763	-0.03338233	-0.1808223	0.003173435	-0.002432075	0.09577996	-0.07340439
18.2942	-0.03338233	-0.1808223	0	0	-0.09577445	0.07340015
18.31087	-0.03338233	-0.1808223	0	0	0	0
18.32733	-0.03332976	-0.1808626	0.003195652	-0.00244837	0.09646719	-0.07390895
18.3439	-0.03332976	-0.1808626	0	0	-0.09676806	0.07413947
18.36046	-0.03332976	-0.1808626	0	0	0	0
18.37703	-0.03332976	-0.1808626	0	0	0	0
18.3936	-0.03332976	-0.1808626	0	0	0	0
18.41016	-0.03332976	-0.1808626	0	0	0	0
18.42673	-0.03332976	-0.1808626	0	0	0	0
18.44334	-0.03332976	-0.1808626	0	0	0	0
18.45993	-0.03332976	-0.1808626	0	0	0	0
18.47643	-0.03330347	-0.1808827	0.001593208	-0.001221098	0.04814963	-0.0369038
18.49318	-0.03330347	-0.1808827	0	0	-0.04791762	0.03672597
18.50995	-0.03330347	-0.1808827	0	0	0	0
18.52659	-0.03330347	-0.1808827	0	0	0	0
18.5427	-0.03330347	-0.1808827	0	0	0	0
18.55926	-0.03330347	-0.1808827	0	0	0	0
18.57583	-0.03330347	-0.1808827	0	0	0	0
18.59248	-0.03330347	-0.1808827	0	0	0	0
18.60896	-0.03330347	-0.1808827	0	0	0	0
18.62553	-0.03330347	-0.1808827	0	0	0	0
18.6421	-0.03330347	-0.1808827	0	0	0	0
18.65866	-0.03330347	-0.1808827	0	0	0	0
18.67523	-0.03330347	-0.1808827	0	0	0	0
18.6918	-0.03330347	-0.1808827	0	0	0	0
18.70836	-0.03330347	-0.1808827	0	0	0	0
18.72493	-0.03330347	-0.1808827	0	0	0	0
18.7415	-0.03330347	-0.1808827	0	0	0	0
18.75806	-0.03330347	-0.1808827	0	0	0	0
18.77471	-0.03330347	-0.1808827	0	0	0	0
18.7912	-0.03330347	-0.1808827	0	0	0	0
18.80776	-0.03330347	-0.1808827	0	0	0	0
18.82433	-0.03330347	-0.1808827	0	0	0	0
18.84096	-0.03330347	-0.1808827	0	0	0	0
18.85773	-0.03330347	-0.1808827	0	0	0	0
18.87403	-0.03330347	-0.1808827	0	0	0	0
18.8906	-0.03330347	-0.1808827	0	0	0	0
18.90717	-0.03330347	-0.1808827	0	0	0	0
18.92373	-0.03330347	-0.1808827	0	0	0	0
18.9403	-0.03330347	-0.1808827	0	0	0	0
18.95727	-0.03330347	-0.1808827	0	0	0	0
18.97343	-0.03330347	-0.1808827	0	0	0	0
18.99	-0.03330347	-0.1808827	0	0	0	0
19.00657	-0.03330347	-0.1808827	0	0	0	0
19.02946	-0.03330347	-0.1808827	0	0	0	0
19.04603	-0.03330347	-0.1808827	0	0	0	0
19.06259	-0.03327718	-0.1809029	0.00158683	-0.001215138	0.04788511	-0.03666871
19.07916	-0.03327718	-0.1809029	0	0	-0.04789062	0.03667293
19.09573	-0.03327718	-0.1809029	0	0	0	0
19.11229	-0.03322461	-0.1809431	0.003173575	-0.002432355	0.09578419	-0.07341284
19.1289	-0.03322461	-0.1809431	0	0	-0.09565754	0.07331576
19.14543	-0.03322461	-0.1809431	0	0	0	0
19.16199	-0.0332509	-0.180923	-0.001586422	0.001215897	-0.04794179	0.0367445
19.17856	-0.0332509	-0.180923	0	0	0.04787556	-0.03669374
19.19513	-0.0332509	-0.180923	0	0	0	0
19.21169	-0.03322461	-0.1809431	0.001586788	-0.001216177	0.0478921	-0.03670642
19.22826	-0.03322461	-0.1809431	0	0	-0.0478921	0.03670642
19.24509	-0.03322461	-0.1809431	0	0	0	0
19.26162	-0.03311946	-0.1810237	0.006364455	-0.004876724	0.1908164	-0.1462119
19.27797	-0.03311946	-0.1810237	0	0	-0.1936177	0.1483584
19.29453	-0.03311946	-0.1810237	0	0	0	0
19.31112	-0.03248857	-0.1815475	0.03804157	-0.03158245	1.147502	-0.9526666
19.32766	-0.03248857	-0.1815475	0	0	-1.148229	0.95327
19.34423	-0.03248857	-0.1815475	0	0	0	0
19.36079	-0.02914964	-0.186893	0.2016543	-0.3228432	6.086988	-9.745109
19.37736	-0.02914964	-0.186893	0	0	-6.086988	9.745109
19.39393	-0.02914964	-0.186893	0	0	0	0
19.4105	-0.007973515	-0.2336705	1.278193	-2.823496	38.57595	-85.21326
19.42706	-0.007973515	-0.2336705	0	0	-38.58039	85.22308
19.44363	-0.007973515	-0.2336705	0	0	0	0
19.4602	-0.001789472	-0.3040858	0.3732696	-4.250273	11.26465	-128.2661
19.47676	-0.001789472	-0.3040858	0	0	-11.2653	128.2735
19.49338	-0.001789472	-0.3040858	0	0	0	0
19.5099	-0.01426219	-0.3595991	-0.7550279	-3.360465	-22.78941	-101.4307
19.52647	-0.01426219	-0.3595991	0	0	22.817	101.5535
19.54391	-0.01426219	-0.3595991	0	0	0	0
19.55965	-0.03419719	-0.4015701	-1.26641	-2.666288	-38.1654	-80.3531
19.57626	-0.03419719	-0.4015701	0	0	39.14417	82.4138
19.59277	-0.03419719	-0.4015701	0	0	0	0
19.60931	-0.03616843	-0.4285513	-0.1191352	-1.630654	-3.60443	-49.33535
19.62587	-0.03616843	-0.4285513	0	0	3.59903	49.26144
19.64313	-0.03616843	-0.4285513	0	0	0	0
19.65919	-0.03138443	-0.453984	0.2978147	-1.583242	8.936623	-47.50885
19.67615	-0.03138443	-0.453984	0	0	-9.020258	47.95348
19.69213	-0.03138443	-0.453984	0	0	0	0
19.70869	-0.03154217	-0.4716545	-0.009521203	-1.066591	-0.2925199	-32.76886
19.72526	-0.03154217	-0.4716545	0	0	0.2873339	32.18792
19.74183	-0.03154217	-0.4716545	0	0	0	0
19.7584	-0.0247318	-0.477842	0.4110747	-0.3734818	12.40626	-11.2717
19.775	-0.0247318	-0.477842	0	0	-12.39413	11.26068
19.79153	-0.0247318	-0.477842	0	0	0	0
19.8081	-0.0242847	-0.4782971	0.02699012	-0.02746834	0.8154553	-0.8299037
19.82475	-0.0242847	-0.4782971	0	0	-0.8125055	0.8269017
19.84124	-0.0242847	-0.4782971	0	0	0	0
19.85805	-0.0243373	-0.4782491	-0.003130321	0.002851873	-0.09400788	0.08564571
19.87436	-0.0243373	-0.4782491	0	0	0.09451135	-0.08610439
19.89097	-0.0243373	-0.4782491	0	0	0	0
19.9075	-0.0243899	-0.4782491	-0.003182336	0	-0.09605416	0
19.92406	-0.0243899	-0.4782491	0	0	0.09614826	0
19.94073	-0.0243899	-0.4782491	0	0	0	0
19.95719	-0.0246266	-0.4781294	-0.01437991	0.007274768	-0.4340615	0.2195909
19.97376	-0.0246266	-0.4781294	0	0	0.435365	-0.2202503
19.99091	-0.0246266	-0.4781294	0	0	0	0
20.00689	-0.02544188	-0.4774829	-0.0510133	0.04045083	-1.539762	1.220949
20.02367	-0.02544188	-0.4774829	0	0	1.557153	-1.234739
20.04003	-0.02544188	-0.4774829	0	0	0	0
20.0566	-0.02541558	-0.4775069	0.001587392	-0.001446293	0.04821287	-0.04392735
20.07316	-0.02541558	-0.4775069	0	0	-0.04790758	0.0436492
20.08973	-0.02541558	-0.4775069	0	0	0	0
20.10672	-0.02544188	-0.4775308	-0.001548006	-0.001408653	-0.04613203	-0.0419792
20.1229	-0.02544188	-0.4775308	0	0	0.04667591	0.04247412
20.13943	-0.02544188	-0.4775308	0	0	0	0
20.15605	-0.02544188	-0.4775308	0	0	0	0
20.17262	-0.02544188	-0.4775308	0	0	0	0
20.18913	-0.02544188	-0.4775308	0	0	0	0
20.2057	-0.02544188	-0.4775308	0	0	0	0
20.22226	-0.02544188	-0.4775308	0	0	0	0
20.23883	-0.02544188	-0.4775308	0	0	0	0
20.2554	-0.02544188	-0.4775308	0	0	0	0
20.27197	-0.02544188	-0.4775308	0	0	0	0
20.28867	-0.02544188	-0.4775308	0	0	0	0
20.3051	-0.02546818	-0.4775069	-0.001600846	0.001456737	-0.04831919	0.04396947
20.32166	-0.02546818	-0.4775069	0	0	0.04851751	-0.04414993
20.33829	-0.02546818	-0.4775069	0	0	0	0
20.36174	-0.02546818	-0.4775069	0	0	0	0
20.37831	-0.02546818	-0.4775069	0	0	0	0
20.39534	-0.02546818	-0.4775069	0	0	0	0
20.41144	-0.02546818	-0.4775069	0	0	0	0
20.42801	-0.02546818	-0.4775069	0	0	0	0
20.44458	-0.02559967	-0.4773872	-0.007936959	0.007224269	-0.2395379	0.2180289
20.46114	-0.02559967	-0.4773872	0	0	0.2395517	-0.2180414
20.47771	-0.02559967	-0.4773872	0	0	0	0
20.49473	-0.02612563	-0.4770043	-0.03090405	0.02249979	-0.9200808	0.6698677
20.51084	-0.02612563	-0.4770043	0	0	0.9329008	-0.6792014
20.52741	-0.02612563	-0.4770043	0	0	0	0
20.54398	-0.02659899	-0.4766693	-0.0285717	0.02021932	-0.8621469	0.6101149
20.56055	-0.02659899	-0.4766693	0	0	0.8622957	-0.6102203
20.57749	-0.02659899	-0.4766693	0	0	0	0
20.59367	-0.02673047	-0.4766932	-0.008124516	-0.001478712	-0.2452549	-0.04463791
20.61025	-0.02673047	-0.4766932	0	0	0.2480253	0.04514214
20.62681	-0.02673047	-0.4766932	0	0	0	0
20.6434	-0.02673047	-0.476741	0	-0.002883206	0	-0.08696026
20.65998	-0.02673047	-0.476741	0	0	0	0.08693526
20.67657	-0.02673047	-0.476741	0	0	0	0
20.69439	-0.02673047	-0.476741	0	0	0	0
20.71147	-0.02673047	-0.476741	0	0	0	0
20.72815	-0.02673047	-0.476741	0	0	0	0
20.74409	-0.02680936	-0.476765	-0.004948119	-0.001501002	-0.1516833	-0.04601282
20.76066	-0.02680936	-0.476765	0	0	0.1521816	0.04616398
20.7778	-0.02680936	-0.476765	0	0	0	0
20.79379	-0.02691455	-0.476765	-0.00657782	0	-0.1985304	0
20.81036	-0.02691455	-0.476765	0	0	0.2020312	0
20.82697	-0.02691455	-0.476765	0	0	0	0
20.84349	-0.02712492	-0.4765736	-0.01273625	0.01158704	-0.3844471	0.3497579
20.86006	-0.02712492	-0.4765736	0	0	0.3849568	-0.3502217
20.87662	-0.02712492	-0.4765736	0	0	0	0
20.89319	-0.02904446	-0.4748762	-0.1158502	0.102443	-3.496366	3.091734
20.90976	-0.02904446	-0.4748762	0	0	3.496366	-3.091734
20.92633	-0.02904446	-0.4748762	0	0	0	0
20.94305	-0.03561651	-0.4690587	-0.3929348	0.3478233	-11.80173	10.44681
20.95957	-0.03561651	-0.4690587	0	0	11.82137	-10.4642
20.97629	-0.03561651	-0.4690587	0	0	0	0
20.9929	-0.05079836	-0.4555149	-0.9139584	0.8153437	-27.42074	24.46208
21.00916	-0.05079836	-0.4555149	0	0	27.80258	-24.80272
21.03135	-0.05079836	-0.4555149	0	0	0	0
21.04791	-0.05318663	-0.4535604	-0.1441396	0.1179636	-3.719211	3.043797
21.06448	-0.05318663	-0.4535604	0	0	4.349891	-3.559944
21.08105	-0.05318663	-0.4535604	0	0	0	0
21.09883	-0.05321287	-0.4535839	-0.001475527	-0.001323869	-0.04295397	-0.03853906
21.11611	-0.05321287	-0.4535839	0	0	0.04208012	0.03775502
21.13212	-0.05321287	-0.4535839	0	0	0	0
21.14864	-0.05321287	-0.4535839	0	0	0	0
21.16525	-0.05321287	-0.4535839	0	0	0	0
21.18167	-0.05321287	-0.4535839	0	0	0	0
21.19863	-0.05323911	-0.4536074	-0.00154756	-0.001388498	-0.04636385	-0.04159846
21.21481	-0.05323911	-0.4536074	0	0	0.04670547	0.04190496
21.23146	-0.05323911	-0.4536074	0	0	0	0
21.24794	-0.0532916	-0.4536545	-0.003184168	-0.00285488	-0.09609838	-0.08616045
21.26451	-0.0532916	-0.4536545	0	0	0.09634796	0.08638422
21.28107	-0.0532916	-0.4536545	0	0	0	0
21.29764	-0.0532916	-0.4536545	0	0	0	0
21.31421	-0.0532916	-0.4536545	0	0	0	0
21.33077	-0.0532916	-0.4536545	0	0	0	0
21.34734	-0.05337032	-0.4537251	-0.004752267	-0.004262018	-0.1434319	-0.1286354
21.36391	-0.05337032	-0.4537251	0	0	0.1434237	0.128628
21.3807	-0.05337032	-0.4537251	0	0	0	0
21.39704	-0.0534228	-0.4537722	-0.003212566	-0.00288237	-0.09696101	-0.08699511
21.41361	-0.0534228	-0.4537722	0	0	0.09763549	0.08760025
21.43051	-0.0534228	-0.4537722	0	0	0	0
21.44674	-0.0534228	-0.4537722	0	0	0	0
21.46348	-0.0534228	-0.4537722	0	0	0	0
21.47987	-0.0534228	-0.4537722	0	0	0	0
21.49644	-0.0534228	-0.4537722	0	0	0	0
21.51301	-0.0534228	-0.4537722	0	0	0	0
21.52971	-0.0534228	-0.4537722	0	0	0	0
21.54614	-0.0534228	-0.4537722	0	0	0	0
21.56271	-0.0534228	-0.4537722	0	0	0	0
21.57928	-0.0534228	-0.4537722	0	0	0	0
21.5959	-0.0534228	-0.4537722	0	0	0	0
21.61241	-0.0534228	-0.4537722	0	0	0	0
21.62897	-0.0534228	-0.4537722	0	0	0	0
21.64557	-0.0534228	-0.4537722	0	0	0	0
21.66211	-0.0534228	-0.4537722	0	0	0	0
21.67867	-0.0534228	-0.4537722	0	0	0	0
21.69524	-0.0534228	-0.4537722	0	0	0	0
21.71181	-0.0534228	-0.4537722	0	0	0	0
21.72837	-0.0534228	-0.4537722	0	0	0	0
21.74494	-0.0534228	-0.4537251	0	0.002842545	0	0.08579311
21.76151	-0.0534228	-0.4537251	0	0	0	-0.08578817
21.77811	-0.0534228	-0.4537251	0	0	0	0
21.79464	-0.0534228	-0.4537251	0	0	0	0
21.81143	-0.0534228	-0.4537251	0	0	0	0
21.82778	-0.0534228	-0.4537251	0	0	0	0
21.84451	-0.05536442	-0.4517495	-0.1159939	0.1180243	-3.505951	3.567319
21.86091	-0.05536442	-0.4517495	0	0	3.500906	-3.562185
21.87748	-0.05536442	-0.4517495	0	0	0	0
21.89404	-0.08529257	-0.4246243	-1.806467	1.637283	-54.51928	49.41329
21.91061	-0.08529257	-0.4246243	0	0	54.51928	-49.41329
21.92718	-0.08529257	-0.4246243	0	0	0	0
21.94374	-0.1175347	-0.3957869	-1.946588	1.741027	-58.7549	52.55035
21.96031	-0.1175347	-0.3957869	0	0	58.75152	-52.54733
21.97688	-0.1175347	-0.3957869	0	0	0	0
21.99365	-0.1388378	-0.3752987	-1.270211	1.221623	-38.09602	36.63878
22.01016	-0.1388378	-0.3752987	0	0	38.1637	-36.70387
22.02658	-0.1388378	-0.3752987	0	0	0	0
22.04319	-0.1497649	-0.3623456	-0.6578918	0.7798719	-19.91943	23.6127
22.0602	-0.1497649	-0.3623456	0	0	19.5702	-23.19872
22.07628	-0.1497649	-0.3623456	0	0	0	0
22.09284	-0.1488642	-0.3619688	0.05437086	0.02274575	1.665556	0.6967763
22.10941	-0.1488642	-0.3619688	0	0	-1.640916	-0.6864682
22.12598	-0.1488642	-0.3619688	0	0	0	0
22.14255	-0.1409022	-0.3550024	0.4807553	0.4206423	14.51006	12.69574
22.15912	-0.1409022	-0.3550024	0	0	-14.51006	-12.69574
22.17568	-0.1409022	-0.3550024	0	0	0	0
22.19225	-0.105996	-0.3255348	2.10767	1.779281	63.62059	53.70809
22.20882	-0.105996	-0.3255348	0	0	-63.61327	-53.70191
22.22539	-0.105996	-0.3255348	0	0	0	0
22.24206	-0.07653443	-0.3012168	1.767114	1.458598	53.16023	43.87914
22.25866	-0.07653443	-0.3012168	0	0	-53.10842	-43.83638
22.27534	-0.07653443	-0.3012168	0	0	0	0
22.29165	-0.05903658	-0.2865576	1.073098	0.8990123	32.52658	27.24989
22.30822	-0.05903658	-0.2865576	0	0	-32.64359	-27.34792
22.32496	-0.05903658	-0.2865576	0	0	0	0
22.34472	-0.03056942	-0.2508207	1.441053	1.809059	39.48403	49.56717
22.36129	-0.03056942	-0.2508207	0	0	-39.67062	-49.80141
22.37785	-0.03056942	-0.2508207	0	0	0	0
22.3945	-0.02278553	-0.2315448	0.4677365	1.158298	14.0847	34.87919
22.41099	-0.02278553	-0.2315448	0	0	-14.11632	-34.9575
22.42756	-0.02278553	-0.2315448	0	0	0	0
22.44412	-0.02391649	-0.229751	-0.06828077	0.1082999	-2.060955	3.268875
22.461	-0.02391649	-0.229751	0	0	2.041795	-3.238485
22.47729	-0.02391649	-0.229751	0	0	0	0
22.49382	-0.02389019	-0.2297716	0.001591352	-0.001246935	0.04847917	-0.0379868
22.51039	-0.02389019	-0.2297716	0	0	-0.04808799	0.03768028
22.55031	-0.02389019	-0.2297716	0	0	0	0
22.56711	-0.02389019	-0.2297716	0	0	0	0
22.58357	-0.02389019	-0.2297716	0	0	0	0
22.60002	-0.02389019	-0.2297716	0	0	0	0
22.61675	-0.02391649	-0.229751	-0.001572299	0.001232005	-0.04739479	0.03713711
22.63315	-0.02391649	-0.229751	0	0	0.04745481	-0.03718414
22.64972	-0.02391649	-0.229751	0	0	0	0
22.66628	-0.02396909	-0.2297097	-0.003175009	0.00248784	-0.09582747	0.07508747
22.68285	-0.02396909	-0.2297097	0	0	0.09582195	-0.07508315
22.69967	-0.02396909	-0.2297097	0	0	0	0
22.71599	-0.0240743	-0.2295037	-0.006448007	0.01263115	-0.1946012	0.3812089
22.73255	-0.0240743	-0.2295037	0	0	0.1961026	-0.38415
22.74912	-0.0240743	-0.2295037	0	0	0	0
22.76592	-0.0240743	-0.2292564	0	0.01471517	0	0.4409571
22.78268	-0.0240743	-0.2292564	0	0	0	-0.438501
22.79882	-0.0240743	-0.2292564	0	0	0	0
22.81544	-0.0244688	-0.2279999	-0.02373582	0.07559764	-0.7244809	2.307442
22.83195	-0.0244688	-0.2279999	0	0	0.7163898	-2.281672
22.84882	-0.0244688	-0.2279999	0	0	0	0
22.86508	-0.01105218	-0.2041279	0.8249293	1.467786	24.89785	44.30043
22.88165	-0.01105218	-0.2041279	0	0	-25.12493	-44.70447
22.89822	-0.01105218	-0.2041279	0	0	0	0
22.91478	-0.0001842105	-0.1949257	0.6561431	0.5555754	19.80472	16.76923
22.93135	-0.0001842105	-0.1949257	0	0	-19.80472	-16.76923
22.94802	-0.0001842105	-0.1949257	0	0	0	0
22.96449	-0.0001052632	-0.1949865	0.004794528	-0.003693132	0.1446991	-0.111459
22.98108	-0.0001052632	-0.1949865	0	0	-0.145008	0.1116969
22.99762	-0.0001052632	-0.1949865	0	0	0	0
23.01939	7.894737E-05	-0.1951284	0.008460741	-0.006517603	0.2208436	-0.1701235
23.03602	7.894737E-05	-0.1951284	0	0	-0.2203609	0.1697517
23.05253	0.0002368421	-0.19525	0.009562471	-0.00736669	0.2885959	-0.2223272
23.0691	0.0002368421	-0.19525	0	0	-0.2890618	0.2226861
23.08566	0.0002368421	-0.19525	0	0	0	0
23.10272	0.0002105263	-0.1952298	-0.001543294	0.001188479	-0.04590552	0.03535148
23.11887	0.0002105263	-0.1952298	0	0	0.04648039	-0.03579418
23.13536	0.0002105263	-0.1952298	0	0	0	0
23.15193	0.0002105263	-0.1952298	0	0	0	0
23.1685	0.0002105263	-0.1952298	0	0	0	0
23.18506	0.0002105263	-0.1952298	0	0	0	0
23.20163	0.0002105263	-0.1952298	0	0	0	0
23.21864	0.0002105263	-0.1952298	0	0	0	0
23.23515	0.0002105263	-0.1952298	0	0	0	0
23.25133	0.0002105263	-0.1952298	0	0	0	0
23.26818	0.0002105263	-0.1952298	0	0	0	0
23.28469	0.0002105263	-0.1952298	0	0	0	0
23.3012	0.0002105263	-0.1952298	0	0	0	0
23.31769	0.0002105263	-0.1952298	0	0	0	0
23.33417	0.0002105263	-0.1952298	0	0	0	0
23.35073	0.0002368421	-0.19525	0.001588424	-0.001223233	0.04806601	-0.03701526
23.36738	0.0002368421	-0.19525	0	0	-0.04782585	0.03683032
23.38395	0.0002368421	-0.19525	0	0	0	0
23.40043	0.0002368421	-0.19525	0	0	0	0
23.417	0.0002368421	-0.19525	0	0	0	0
23.43357	0.0002368421	-0.19525	0	0	0	0
23.45016	0.0002368421	-0.19525	0	0	0	0
23.46728	0.0002368421	-0.19525	0	0	0	0
23.48351	0.0002368421	-0.19525	0	0	0	0
23.50299	0.0002368421	-0.19525	0	0	0	0
23.51962	0.0002368421	-0.19525	0	0	0	0
23.53632	0.0002368421	-0.19525	0	0	0	0
23.55273	0.0002105263	-0.1952298	-0.001602817	0.001234317	-0.04840098	0.03727322
23.56926	0.0002105263	-0.1952298	0	0	0.04865037	-0.03746527
23.58657	0.0002105263	-0.1952298	0	0	0	0
23.60239	0.0002105263	-0.1952298	0	0	0	0
23.61933	0.0002105263	-0.1952298	0	0	0	0
23.63586	0.0002105263	-0.1952298	0	0	0	0
23.66589	0.0002105263	-0.1952298	0	0	0	0
23.68246	0.0002105263	-0.1952298	0	0	0	0
23.69902	0.0001842105	-0.1952095	-0.001588973	0.001224555	-0.04795805	0.03695928
23.71578	0.0001842105	-0.1952095	0	0	0.04768355	-0.03674773
23.73216	0.0001842105	-0.1952095	0	0	0	0
23.74872	0.0001578947	-0.1951892	-0.00158879	0.001223515	-0.04823297	0.03714383
23.76529	0.0001578947	-0.1951892	0	0	0.04795253	-0.03692787
23.78197	0.0001578947	-0.1951892	0	0	0	0
23.79843	0.0001578947	-0.1951892	0	0	0	0
23.81505	0.0001578947	-0.1951892	0	0	0	0
23.83168	0.0001578947	-0.1951892	0	0	0	0
23.84813	0.0001578947	-0.1951892	0	0	0	0
23.86469	0.0001578947	-0.1951892	0	0	0	0
23.88179	0.0001578947	-0.1951892	0	0	0	0
23.89782	0.0001578947	-0.1951892	0	0	0	0
23.91439	0.0001578947	-0.1951892	0	0	0	0
23.93107	0.0001578947	-0.1951892	0	0	0	0
23.94797	0.0001578947	-0.1951892	0	0	0	0
23.96454	0.0001578947	-0.1951892	0	0	0	0
23.98111	0.0001578947	-0.1951892	0	0	0	0
23.99767	0.0001578947	-0.1951892	0	0	0	0
24.01424	0.0001578947	-0.1951892	0	0	0	0
24.03153	0.0001578947	-0.1951892	0	0	0	0
24.04737	0.0001578947	-0.1951892	0	0	0	0
24.06452	0.0001578947	-0.1951892	0	0	0	0
24.08051	0.0001578947	-0.1951892	0	0	0	0
24.09707	0.0001578947	-0.1951892	0	0	0	0
24.11364	0.0001578947	-0.1951892	0	0	0	0
24.13077	0.0001578947	-0.1951892	0	0	0	0
24.14723	0.0001578947	-0.1951892	0	0	0	0
24.1636	0.0001578947	-0.1951892	0	0	0	0
24.18019	0.0001578947	-0.1951892	0	0	0	0
24.19647	0.0001578947	-0.1951892	0	0	0	0
24.21323	0.0001578947	-0.1951892	0	0	0	0
24.22967	0.0001578947	-0.1951892	0	0	0	0
24.24617	0.0001578947	-0.1951892	0	0	0	0
24.26274	0.0001578947	-0.1951892	0	0	0	0
24.27931	0.0001578947	-0.1951892	0	0	0	0
24.29587	0.0001578947	-0.1951892	0	0	0	0
24.3128	0.0001578947	-0.1951892	0	0	0	0
24.329	0.0001578947	-0.1951892	0	0	0	0
24.34581	0.0001578947	-0.1951892	0	0	0	0
24.36213	0.0001578947	-0.1951892	0	0	0	0
24.37883	0.0001578947	-0.1951892	0	0	0	0
24.39534	0.0001578947	-0.1951892	0	0	0	0
24.41183	0.0001578947	-0.1951892	0	0	0	0
24.4284	0.0001578947	-0.1951892	0	0	0	0
24.44497	0.0001578947	-0.1951892	0	0	0	0
24.46154	0.0001578947	-0.1951892	0	0	0	0
24.47841	0.0001578947	-0.1951892	0	0	0	0
24.4947	0.0001842105	-0.1952095	0.001615391	-0.001244	0.04871333	-0.03751375
24.51124	0.0001842105	-0.1952095	0	0	-0.04920292	0.03789078
24.52781	0.0001842105	-0.1952095	0	0	0	0
24.54437	0.0001315789	-0.1952095	-0.00317758	0	-0.09591061	0
24.56094	0.0001315789	-0.1952095	0	0	0.09590509	0
24.57751	0.0001315789	-0.1952095	0	0	0	0
24.59407	0.0001315789	-0.1952095	0	0	0	0
24.61069	0.0001315789	-0.1952095	0	0	0	0
24.6276	0.0001315789	-0.1952095	0	0	0	0
24.64377	0.0001315789	-0.1952095	0	0	0	0
24.66034	0.0001315789	-0.1952095	0	0	0	0
24.67691	0.0001315789	-0.1952095	0	0	0	0
24.69347	0.0001315789	-0.1952095	0	0	0	0
24.71004	0.0001315789	-0.1952095	0	0	0	0
24.72662	0.0001315789	-0.1952095	0	0	0	0
24.74317	0.0001315789	-0.1952095	0	0	0	0
24.75974	0.0001315789	-0.1952095	0	0	0	0
24.77656	0.0001315789	-0.1952095	0	0	0	0
24.79287	0.0001315789	-0.1952095	0	0	0	0
24.80944	0.0001315789	-0.1952095	0	0	0	0
24.82601	0.0001315789	-0.1952095	0	0	0	0
24.84264	0.0001315789	-0.1952095	0	0	0	0
24.85914	0.0001315789	-0.1952095	0	0	0	0
24.87595	0.0001315789	-0.1952095	0	0	0	0
24.89228	0.0001315789	-0.1952095	0	0	0	0
24.90909	0.0001315789	-0.1952095	0	0	0	0
24.92547	0.0001315789	-0.1952095	0	0	0	0
24.94197	0.0001315789	-0.1952095	0	0	0	0
24.95858	0.0001315789	-0.1952095	0	0	0	0
24.97511	0.0001315789	-0.1952095	0	0	0	0
25.00025	0.0001315789	-0.1952095	0	0	0	0
25.01682	0.0001315789	-0.1952095	0	0	0	0
25.03338	0.0001315789	-0.1952095	0	0	0	0
25.05003	0.0001315789	-0.1952095	0	0	0	0
25.28052	0.0001315789	-0.1952095	0	0	0	0
25.3068	0.0001315789	-0.1952095	0	0	0	0
25.32337	0.0001315789	-0.1952095	0	0	0	0
25.33994	0.0001315789	-0.1952095	0	0	0	0
25.3565	0.0001315789	-0.1952095	0	0	0	0
25.37385	0.0001315789	-0.1952095	0	0	0	0
25.38964	0.0001315789	-0.1952095	0	0	0	0
25.40621	0.0001315789	-0.1952095	0	0	0	0
25.42316	0.0001315789	-0.1952095	0	0	0	0
25.43934	0.0001315789	-0.1952095	0	0	0	0
25.45591	0.0001315789	-0.1952095	0	0	0	0
25.47313	0.0001315789	-0.1952095	0	0	0	0
25.48904	0.0001315789	-0.1952095	0	0	0	0
25.50561	0.0001315789	-0.1952095	0	0	0	0
25.52217	0.0001315789	-0.1952095	0	0	0	0
25.53874	0.0001315789	-0.1952095	0	0	0	0
25.55531	0.0001315789	-0.1952095	0	0	0	0
25.57187	0.0001315789	-0.1952095	0	0	0	0
25.5887	0.0001315789	-0.1952095	0	0	0	0
25.60501	0.0001315789	-0.1952095	0	0	0	0
25.62157	0.0001315789	-0.1952095	0	0	0	0
25.63824	0.0001315789	-0.1952095	0	0	0	0
25.65471	0.0001315789	-0.1952095	0	0	0	0
25.67127	0.0001315789	-0.1952095	0	0	0	0
25.68784	0.0001315789	-0.1952095	0	0	0	0
25.70441	0.0001315789	-0.1952095	0	0	0	0
25.72098	0.0001315789	-0.1952095	0	0	0	0
25.73754	0.0001315789	-0.1952095	0	0	0	0
25.75418	0.0001315789	-0.1952095	0	0	0	0
25.77069	0.0001315789	-0.1952095	0	0	0	0
25.78724	0.0001315789	-0.1952095	0	0	0	0
25.80381	0.0001315789	-0.1952095	0	0	0	0
25.82061	0.0001315789	-0.1952095	0	0	0	0
25.83694	0.0001315789	-0.1952095	0	0	0	0
25.85351	0.0001315789	-0.1952095	0	0	0	0
25.87008	0.0001315789	-0.1952095	0	0	0	0
25.88664	0.0001315789	-0.1952095	0	0	0	0
25.90321	0.0001315789	-0.1952095	0	0	0	0
25.91978	0.0001315789	-0.1952095	0	0	0	0
25.93634	0.0001052632	-0.1951892	-0.001588424	0.001223233	-0.04793873	0.03691724
25.95291	0.0001052632	-0.1951892	0	0	0.04793597	-0.03691512
25.96948	0.0001052632	-0.1951892	0	0	0	0
25.98604	0.0001052632	-0.1951892	0	0	0	0
26.00261	0.0001052632	-0.1951892	0	0	0	0
26.01918	0.0001052632	-0.1951892	0	0	0	0
26.03575	0.0001052632	-0.1951892	0	0	0	0
26.05231	0.0001052632	-0.1951892	0	0	0	0
26.06888	0.0001052632	-0.1951892	0	0	0	0
26.08545	0.0001052632	-0.1951892	0	0	0	0
26.10216	0.0001052632	-0.1951892	0	0	0	0
26.11863	0.0001052632	-0.1951892	0	0	0	0
26.13514	0.0001052632	-0.1951892	0	0	0	0
26.15171	0.0001052632	-0.1951892	0	0	0	0
26.16828	0.0001052632	-0.1951892	0	0	0	0
26.18484	0.0001315789	-0.1952095	0.00158879	-0.001223515	0.04795253	-0.03692787
26.20141	0.0001315789	-0.1952095	0	0	-0.04795253	0.03692787
26.21798	0.0001315789	-0.1952095	0	0	0	0
26.23466	0.0001315789	-0.1952095	0	0	0	0
26.25111	0.0001315789	-0.1952095	0	0	0	0
26.26768	0.0001315789	-0.1952095	0	0	0	0
26.28431	0.0001315789	-0.1952095	0	0	0	0
26.30081	0.0001315789	-0.1952095	0	0	0	0
26.31763	0.0001315789	-0.1952095	0	0	0	0
26.33395	0.0001315789	-0.1952095	0	0	0	0
26.35052	0.0001315789	-0.1952095	0	0	0	0
26.36712	0.0001315789	-0.1952095	0	0	0	0
26.38365	0.0001315789	-0.1952095	0	0	0	0
26.40021	0.0001315789	-0.1952095	0	0	0	0
26.41737	0.0001315789	-0.1952095	0	0	0	0
26.43334	0.0001315789	-0.1952095	0	0	0	0
26.44991	0.0001315789	-0.1952095	0	0	0	0
26.46648	0.0001315789	-0.1952095	0	0	0	0
26.48305	0.0001315789	-0.1952095	0	0	0	0
26.49961	0.0001315789	-0.1952095	0	0	0	0
26.51618	0.0001315789	-0.1952095	0	0	0	0
26.53643	0.0001315789	-0.1952095	0	0	0	0
26.553	0.0001315789	-0.1952095	0	0	0	0
26.56956	0.0001315789	-0.1952095	0	0	0	0
26.58613	0.0001315789	-0.1952095	0	0	0	0
26.6027	0.0001315789	-0.1952095	0	0	0	0
26.61927	0.0001315789	-0.1952095	0	0	0	0
26.63586	0.0001315789	-0.1952095	0	0	0	0
26.6524	0.0001315789	-0.1952095	0	0	0	0
26.66897	0.0001315789	-0.1952095	0	0	0	0
26.68559	0.0001315789	-0.1952095	0	0	0	0
26.7021	0.0001315789	-0.1952095	0	0	0	0
26.71867	0.0001315789	-0.1952095	0	0	0	0
26.73555	0.0001315789	-0.1952095	0	0	0	0
26.7519	0.0001315789	-0.1952095	0	0	0	0
26.76837	0.0001315789	-0.1952095	0	0	0	0
26.78493	0.0001315789	-0.1952095	0	0	0	0
26.8015	0.0001315789	-0.1952095	0	0	0	0
26.81812	0.0001315789	-0.1952095	0	0	0	0
26.83463	0.0001315789	-0.1952095	0	0	0	0
26.8512	0.0001315789	-0.1952095	0	0	0	0
26.86777	0.0001315789	-0.1952095	0	0	0	0
26.88433	0.0001315789	-0.1952095	0	0	0	0
26.9009	0.0001315789	-0.1952095	0	0	0	0
26.91747	0.0001315789	-0.1952095	0	0	0	0
26.93403	0.0001315789	-0.1952095	0	0	0	0
26.95065	0.0001315789	-0.1952095	0	0	0	0
26.96717	0.0001315789	-0.1952095	0	0	0	0
26.98419	0.0001315789	-0.1952095	0	0	0	0
27.0007	0.0001315789	-0.1952095	0	0	0	0
27.01686	0.0001315789	-0.1952095	0	0	0	0
27.03343	0.0001315789	-0.1952095	0	0	0	0
27.05	0.0001315789	-0.1952095	0	0	0	0
27.06675	0.0001578947	-0.1952298	0.001570703	-0.001210475	0.047138	-0.03632728
27.08319	0.0001578947	-0.1952298	0	0	-0.0473222	0.03646923
27.0997	0.0001578947	-0.1952298	0	0	0	0
27.11627	0.0001578947	-0.1952298	0	0	0	0
27.13325	0.0001578947	-0.1952298	0	0	0	0
27.1494	0.0001578947	-0.1952298	0	0	0	0
27.16597	0.0001578947	-0.1952298	0	0	0	0
27.18253	0.0001578947	-0.1952298	0	0	0	0
27.1991	0.0001578947	-0.1952298	0	0	0	0
27.21567	0.0001578947	-0.1952298	0	0	0	0
27.23223	0.0001578947	-0.1952298	0	0	0	0
27.2488	0.0001578947	-0.1952298	0	0	0	0
27.26537	2.631579E-05	-0.1955339	-0.007943951	-0.01836081	-0.2397765	-0.5541943
27.28193	2.631579E-05	-0.1955339	0	0	0.2397627	0.5541624
27.2985	2.631579E-05	-0.1955339	0	0	0	0
27.31507	-5.263158E-05	-0.200426	-0.004765822	-0.2953242	-0.1438411	-8.913415
27.33163	-5.263158E-05	-0.200426	0	0	0.1438411	8.913415
27.3482	-5.263158E-05	-0.200426	0	0	0	0
27.36477	0.005315739	-0.2353438	0.3241101	-2.108129	9.782789	-63.63079
27.38133	0.005315739	-0.2353438	0	0	-9.782226	63.62712
27.39799	0.005315739	-0.2353438	0	0	0	0
27.41446	-0.02594155	-0.3118162	-1.896738	-4.64046	-57.25027	-140.0655
27.43103	-0.02594155	-0.3118162	0	0	57.39235	140.4131
27.4476	-0.02594155	-0.3118162	0	0	0	0
27.46416	-0.074729	-0.376707	-2.945495	-3.917719	-88.90545	-118.2506
27.48073	-0.074729	-0.376707	0	0	88.90033	118.2438
27.49767	-0.074729	-0.376707	0	0	0	0
27.51387	-0.09474183	-0.4045495	-1.236009	-1.719576	-37.30499	-51.89991
27.53043	-0.09474183	-0.4045495	0	0	37.7351	52.4983
27.547	-0.09474183	-0.4045495	0	0	0	0
27.56359	-0.09161127	-0.4073295	0.1887217	-0.1675847	5.6917	-5.054226
27.58013	-0.09161127	-0.4073295	0	0	-5.695632	5.057717
27.5967	-0.09161127	-0.4073295	0	0	0	0
27.61327	-0.09158517	-0.4073979	0.001575362	-0.004130209	0.04754725	-0.1246571
27.62983	-0.09158517	-0.4073979	0	0	-0.04754452	0.12465
27.6464	-0.09158517	-0.4073979	0	0	0	0
27.66297	-0.09150689	-0.4075119	0.004724642	-0.006881691	0.1425818	-0.2076779
27.67954	-0.09150689	-0.4075119	0	0	-0.1425818	0.2076779
27.6961	-0.09150689	-0.4075119	0	0	0	0
27.71266	-0.09163737	-0.4082192	-0.007877274	-0.04270066	-0.2377914	-1.289005
27.72923	-0.09163737	-0.4082192	0	0	0.2377503	1.288782
27.74641	-0.09163737	-0.4082192	0	0	0	0
27.76236	-0.08981039	-0.4212829	0.1145222	-0.8188815	3.456683	-24.71674
27.77893	-0.08981039	-0.4212829	0	0	-3.521559	25.18063
27.79616	-0.08981039	-0.4212829	0	0	0	0
27.81207	-0.07088105	-0.4380424	1.189836	-1.05345	35.90932	-31.79319
27.82863	-0.07088105	-0.4380424	0	0	-36.63691	32.43738
27.84519	-0.07088105	-0.4380424	0	0	0	0
27.86176	-0.06847174	-0.4401858	0.1454099	-0.12936	4.388985	-3.904541
27.87833	-0.06847174	-0.4401858	0	0	-4.387974	3.903642
27.8949	-0.06847174	-0.4401858	0	0	0	0
27.91153	-0.06847174	-0.4401858	0	0	0	0
27.92808	-0.06847174	-0.4401858	0	0	0	0
27.94462	-0.06847174	-0.4401858	0	0	0	0
27.96116	-0.06849793	-0.4401625	-0.001583396	0.001408664	-0.04786137	0.04257974
27.97773	-0.06849793	-0.4401625	0	0	0.04781726	-0.04254049
28.06879	-0.06849793	-0.4401625	0	0	0	0
28.08536	-0.06844555	-0.4402091	0.003161239	-0.002814586	0.0293709	-0.02615017
28.10237	-0.06844555	-0.4402091	0	0	-0.09414369	0.08382016
28.1185	-0.06844555	-0.4402091	0	0	0	0
28.13506	-0.06810503	-0.4405122	0.02055583	-0.01829843	0.6288099	-0.5597554
28.15176	-0.06810503	-0.4405122	0	0	-0.6178863	0.5500314
28.16826	-0.06810503	-0.4405122	0	0	0	0
28.18476	-0.06509212	-0.4431966	0.1825954	-0.1626817	5.533355	-4.929892
28.20132	-0.06509212	-0.4431966	0	0	-5.522821	4.920506
28.21789	-0.06509212	-0.4431966	0	0	0	0
28.23446	-0.06509212	-0.4431966	0	0	0	0
28.25103	-0.06509212	-0.4431966	0	0	0	0
28.26785	-0.06509212	-0.4431966	0	0	0	0
28.28416	-0.06509212	-0.4431966	0	0	0	0
28.30073	-0.06509212	-0.4431966	0	0	0	0
28.31816	-0.06509212	-0.4431966	0	0	0	0
28.33386	-0.06509212	-0.4431966	0	0	0	0
28.35046	-0.06509212	-0.4431966	0	0	0	0
28.36699	-0.06509212	-0.4431966	0	0	0	0
28.38356	-0.06509212	-0.4431966	0	0	0	0
28.40013	-0.06509212	-0.4431966	0	0	0	0
28.41669	-0.06509212	-0.4431966	0	0	0	0
28.43326	-0.06509212	-0.4431966	0	0	0	0
28.44983	-0.06509212	-0.4431966	0	0	0	0
28.46683	-0.06509212	-0.4431966	0	0	0	0
28.48316	-0.06509212	-0.4431966	0	0	0	0
28.49953	-0.06509212	-0.4431966	0	0	0	0
28.51692	-0.06509212	-0.4431966	0	0	0	0
28.53266	-0.06509212	-0.4431966	0	0	0	0
28.55003	-0.06509212	-0.4431966	0	0	0	0
28.56598	-0.06509212	-0.4431966	0	0	0	0
28.58236	-0.06509212	-0.4431966	0	0	0	0
28.59893	-0.06509212	-0.4431966	0	0	0	0
28.61549	-0.06509212	-0.4431966	0	0	0	0
28.63206	-0.06511833	-0.4431732	-0.001581658	0.001410315	-0.04773453	0.0425634
28.64863	-0.06511833	-0.4431732	0	0	0.04773728	-0.04256585
28.66519	-0.06511833	-0.4431732	0	0	0	0
28.68193	-0.06522314	-0.4430797	-0.006262464	0.005584046	-0.1880382	0.1676678
28.69833	-0.06522314	-0.4430797	0	0	0.1890015	-0.1685268
28.71532	-0.06522314	-0.4430797	0	0	0	0
28.73146	-0.06524935	-0.4430097	-0.00162391	0.004342125	-0.04901535	0.1310607
28.74803	-0.06524935	-0.4430097	0	0	0.04965281	-0.1327651
28.76477	-0.06524935	-0.4430097	0	0	0	0
28.78116	-0.06556379	-0.442636	-0.01918978	0.0228073	-0.5792153	0.6884049
28.79773	-0.06556379	-0.442636	0	0	0.5822994	-0.6920704
28.81437	-0.06556379	-0.442636	0	0	0	0
28.83086	-0.06648083	-0.4411187	-0.05559586	0.09198478	-1.677983	2.776266
28.84743	-0.06648083	-0.4411187	0	0	1.681662	-2.782352
28.86399	-0.06648083	-0.4411187	0	0	0	0
28.88056	-0.06637603	-0.4407455	0.006325732	0.02252727	0.190911	0.6798744
28.89749	-0.06637603	-0.4407455	0	0	-0.1888671	-0.6725955
28.91379	-0.06637603	-0.4407455	0	0	0	0
28.93026	-0.06666423	-0.4394166	-0.01750436	0.08071167	-0.5341556	2.462963
28.94682	-0.06666423	-0.4394166	0	0	0.52993	-2.443479
28.96339	-0.06666423	-0.4394166	0	0	0	0
28.97996	-0.08641583	-0.4193046	-1.192209	1.213963	-35.98301	36.63959
28.99652	-0.08641583	-0.4193046	0	0	35.97887	-36.63537
29.0131	-0.08641583	-0.4193046	0	0	0	0
29.03292	-0.09951232	-0.3823755	-0.6604782	1.862399	-18.14509	51.16503
29.04949	-0.09951232	-0.3823755	0	0	18.14604	-51.16771
29.06606	-0.09951232	-0.3823755	0	0	0	0
29.08262	-0.07881011	-0.3514531	1.249875	1.86691	37.72566	56.34996
29.09919	-0.07881011	-0.3514531	0	0	-37.72349	-56.34671
29.11576	-0.07881011	-0.3514531	0	0	0	0
29.13232	-0.04651904	-0.3244507	1.949541	1.630243	58.84405	49.2065
29.14912	-0.04651904	-0.3244507	0	0	-58.43698	-48.8661
29.16546	-0.04651904	-0.3244507	0	0	0	0
29.18203	-0.02670418	-0.3012382	1.196165	1.401267	36.35355	42.58694
29.19859	-0.02670418	-0.3012382	0	0	-36.10242	-42.29274
29.21538	-0.02670418	-0.3012382	0	0	0	0
29.23517	-0.04347259	-0.2713189	-0.8472897	1.511791	-23.16199	41.32718
29.25174	-0.04347259	-0.2713189	0	0	23.30416	-41.58083
29.26848	-0.04347259	-0.2713189	0	0	0	0
29.28524	-0.0522419	-0.2635043	-0.5231131	0.4661615	-15.61411	13.9142
29.30144	-0.0522419	-0.2635043	0	0	15.8698	-14.14205
29.31808	-0.0522419	-0.2635043	0	0	0	0
29.3346	-0.05809246	-0.2255715	-0.3543235	2.297299	-10.68735	69.29274
29.35117	-0.05809246	-0.2255715	0	0	10.71015	-69.44055
29.36771	-0.05809246	-0.2255715	0	0	0	0
29.38428	-0.04391911	-0.2006292	0.8555049	1.505518	25.83555	45.46542
29.40127	-0.04391911	-0.2006292	0	0	-25.49196	-44.86076
29.41753	-0.04391911	-0.2006292	0	0	0	0
29.43399	-0.03855982	-0.1964871	0.3256239	0.2516741	9.952819	7.692513
29.45055	-0.03855982	-0.1964871	0	0	-9.862548	-7.622743
29.46712	-0.03855982	-0.1964871	0	0	0	0
29.48368	-0.03811311	-0.1960206	0.02696351	0.02815864	0.8137605	0.8498294
29.50038	-0.03811311	-0.1960206	0	0	-0.8106805	-0.8466129
29.51702	-0.03811311	-0.1960206	0	0	0	0
29.53338	-0.038008	-0.1958989	0.006425772	0.007439001	0.194681	0.2253788
29.54995	-0.038008	-0.1958989	0	0	-0.1951773	-0.2259533
29.56651	-0.038008	-0.1958989	0	0	0	0
29.58308	-0.03795545	-0.1959394	0.00317231	-0.002448265	0.09574051	-0.07388877
29.59973	-0.03795545	-0.1959394	0	0	-0.09551509	0.07371479
29.61621	-0.03795545	-0.1959394	0	0	0	0
29.63278	-0.03806056	-0.1958583	-0.006345857	0.004897656	-0.1920047	0.1481869
29.64935	-0.03806056	-0.1958583	0	0	0.1915183	-0.1478116
29.66592	-0.03806056	-0.1958583	0	0	0	0
29.68304	-0.03811311	-0.1958178	-0.003068451	0.00236724	-0.09106487	0.07025447
29.69915	-0.03811311	-0.1958178	0	0	0.09234025	-0.0712384
29.71561	-0.03811311	-0.1958178	0	0	0	0
29.73218	-0.03813939	-0.1957569	-0.001586155	0.003672397	-0.04801398	0.1111659
29.74875	-0.03813939	-0.1957569	0	0	0.04786475	-0.1108204
29.76607	-0.03813939	-0.1957569	0	0	0	0
29.78188	-0.03813939	-0.1957569	0	0	0	0
29.79857	-0.03813939	-0.1957569	0	0	0	0
29.81502	-0.03813939	-0.1957569	0	0	0	0
29.83158	-0.03811311	-0.1957772	0.001586703	-0.001224555	0.04806665	-0.03709595
29.84815	-0.03811311	-0.1957772	0	0	-0.04789231	0.0369614
29.86472	-0.03811311	-0.1957772	0	0	0	0
29.88673	-0.03811311	-0.1957772	0	0	0	0
29.9033	-0.03811311	-0.1957772	0	0	0	0
29.91987	-0.03811311	-0.1957772	0	0	0	0
29.93644	-0.03811311	-0.1957772	0	0	0	0
29.953	-0.03811311	-0.1957772	0	0	0	0
29.96957	-0.03811311	-0.1957772	0	0	0	0
29.98614	-0.03811311	-0.1957772	0	0	0	0
30.0027	-0.03811311	-0.1957772	0	0	0	0
30.01929	-0.03811311	-0.1957366	0	0.002444887	0	0.07374014
30.03584	-0.03811311	-0.1957366	0	0	0	-0.07378259
30.05241	-0.03811311	-0.1957366	0	0	0	0
30.06898	-0.03795545	-0.1955339	0.009516706	0.01223952	0.2872148	0.3693895
30.08554	-0.03795545	-0.1955339	0	0	-0.2872313	-0.3694108
30.10211	-0.03795545	-0.1955339	0	0	0	0
30.11867	-0.02867635	-0.1882264	0.5602166	0.4411822	16.90932	13.31644
30.13538	-0.02867635	-0.1882264	0	0	-16.83566	-13.25843
30.15181	-0.02867635	-0.1882264	0	0	0	0
30.16866	-0.01023648	-0.1740651	1.094137	0.8402637	32.88107	25.25164
30.18494	-0.01023648	-0.1740651	0	0	-33.02303	-25.36067
30.20151	-0.01023648	-0.1740651	0	0	0	0
30.21807	0.0009999997	-0.165547	0.6782356	0.5141544	20.46801	15.51632
30.23464	0.0009999997	-0.165547	0	0	-20.46919	-15.51721
30.25127	0.0009999997	-0.165547	0	0	0	0
30.26777	0.001578946	-0.165267	0.03507854	0.01696846	1.058733	0.5121388
30.28434	0.001578946	-0.165267	0	0	-1.060687	-0.5130839
30.30091	0.001578946	-0.165267	0	0	0	0
30.31748	0.001631577	-0.165347	0.003176843	-0.004829071	0.0958773	-0.1457417
30.33404	0.001631577	-0.165347	0	0	-0.0958773	0.1457417
30.35061	0.001631577	-0.165347	0	0	0	0
30.36743	0.001631577	-0.165387	0	-0.002378565	0	-0.07124388
30.38374	0.001631577	-0.165387	0	0	0	0.07178523
30.40031	0.001631577	-0.165387	0	0	0	0
30.41687	0.001657893	-0.165447	0.001588784	-0.003623762	0.0479551	-0.109378
30.43347	0.001657893	-0.165447	0	0	-0.04791924	0.1092962
30.45019	0.001657893	-0.165447	0	0	0	0
30.46668	0.001657893	-0.165447	0	0	0	0
30.48314	0.001657893	-0.165447	0	0	0	0
30.49971	0.001657893	-0.165447	0	0	0	0
30.52046	0.001684209	-0.165467	0.001268229	-0.000963726	0.03398502	-0.0258252
30.53704	0.001684209	-0.165467	0	0	-0.03397113	0.02581464
30.55361	0.001710525	-0.165487	0.001588418	-0.001207942	0.04791648	-0.03643899
30.57017	0.001710525	-0.165487	0	0	-0.04795787	0.03647047
30.58673	0.001710525	-0.165487	0	0	0	0
30.60335	0.00173684	-0.165507	0.001584041	-0.001203717	0.0477405	-0.03627813
30.61996	0.00173684	-0.165507	0	0	-0.04767746	0.03623023
30.63643	0.00173684	-0.165507	0	0	0	0
30.65342	0.001763156	-0.1656071	0.001549006	-0.005888101	0.04628813	-0.175951
30.66957	0.001763156	-0.1656071	0	0	-0.0467491	0.1777032
30.68623	0.001763156	-0.1656071	0	0	0	0
30.7029	0.001763156	-0.1656471	0	-0.002399515	0	-0.07198244
30.71927	0.001763156	-0.1656471	0	0	0	0.07262655
30.73623	0.001763156	-0.1656471	0	0	0	0
30.7524	0.001710525	-0.1656871	-0.003256313	-0.002475403	-0.09828703	-0.0747164
30.76897	0.001710525	-0.1656871	0	0	0.09948405	0.07562636
30.78553	0.001710525	-0.1656871	0	0	0	0
30.8021	0.001684209	-0.1657071	-0.001588784	-0.001208221	-0.0479551	-0.03646837
30.81867	0.001684209	-0.1657071	0	0	0.04795234	0.03646627
30.83523	0.001684209	-0.1657071	0	0	0	0
30.8518	0.001684209	-0.1657071	0	0	0	0
30.86837	0.001684209	-0.1657071	0	0	0	0
30.8853	0.001684209	-0.1657071	0	0	0	0
30.9015	0.001657893	-0.1657271	-0.001624904	-0.001234763	-0.04904534	-0.03726952
30.91807	0.001657893	-0.1657271	0	0	0.04959352	0.03768609
30.93464	0.001657893	-0.1657271	0	0	0	0
30.95133	0.001657893	-0.1657271	0	0	0	0
30.96777	0.001657893	-0.1657271	0	0	0	0
30.98437	0.001657893	-0.1657271	0	0	0	0
31.0009	0.001657893	-0.1657271	0	0	0	0
31.01747	0.001657893	-0.1657271	0	0	0	0
31.03403	0.001657893	-0.1657271	0	0	0	0
31.0506	0.001631577	-0.1657471	-0.001588601	-0.001208081	-0.04794683	-0.03646207
31.06717	0.001631577	-0.1657471	0	0	0.04794407	0.03645997
31.08381	0.001631577	-0.1657471	0	0	0	0
31.1003	0.001631577	-0.1657471	0	0	0	0
31.11717	0.001631577	-0.1657471	0	0	0	0
31.13344	0.001631577	-0.1657471	0	0	0	0
31.15	0.001605262	-0.1657271	-0.001588784	0.001208221	-0.04839531	0.03680313
31.16671	0.001605262	-0.1657271	0	0	0.04775441	-0.03631575
31.18324	0.001605262	-0.1657271	0	0	0	0
31.1997	0.001578946	-0.1657071	-0.001599103	0.001215157	-0.04846748	0.0368304
31.21627	0.001578946	-0.1657071	0	0	0.04841989	-0.03679424
31.23284	0.001578946	-0.1657071	0	0	0	0
31.2494	0.001578946	-0.1657071	0	0	0	0
31.26597	0.001578946	-0.1657071	0	0	0	0
31.28333	0.001578946	-0.1657071	0	0	0	0
31.30018	0.001578946	-0.1657071	0	0	0	0
31.31675	0.001578946	-0.1657071	0	0	0	0
31.33381	0.001578946	-0.1657071	0	0	0	0
31.34989	0.001578946	-0.1657071	0	0	0	0
31.36654	0.001578946	-0.1657071	0	0	0	0
31.38302	0.001578946	-0.1657071	0	0	0	0
31.39958	0.001578946	-0.1657071	0	0	0	0
31.41615	0.001578946	-0.1657071	0	0	0	0
31.43272	0.001578946	-0.1657071	0	0	0	0
31.45	0.001578946	-0.1657071	0	0	0	0
31.46657	0.001578946	-0.1657071	0	0	0	0
31.48313	0.001578946	-0.1657071	0	0	0	0
31.4997	0.001605262	-0.1657271	0.001588425	-0.001207043	0.04793876	-0.03642863
31.51634	0.001605262	-0.1657271	0	0	-0.04783962	0.03635329
31.53284	0.001605262	-0.1657271	0	0	0	0
31.5494	0.001578946	-0.1657071	-0.001588791	0.001207321	-0.04805491	0.0365169
31.56597	0.001578946	-0.1657071	0	0	0.0479498	-0.03643702
31.58254	0.001578946	-0.1657071	0	0	0	0
31.5991	0.001605262	-0.1657271	0.001588608	-0.001207182	0.04794703	-0.03643492
31.61567	0.001605262	-0.1657271	0	0	-0.04794703	0.03643492
31.63307	0.001605262	-0.1657271	0	0	0	0
31.64884	0.001605262	-0.1657271	0	0	0	0
31.66537	0.001605262	-0.1657271	0	0	0	0
31.68194	0.001605262	-0.1657271	0	0	0	0
31.6985	0.001605262	-0.1657271	0	0	0	0
31.71507	0.001605262	-0.1657271	0	0	0	0
31.73195	0.001605262	-0.1657271	0	0	0	0
31.7482	0.001605262	-0.1657271	0	0	0	0
31.76477	0.001605262	-0.1657271	0	0	0	0
31.78134	0.001605262	-0.1657271	0	0	0	0
31.7979	0.001605262	-0.1657271	0	0	0	0
31.81447	0.001605262	-0.1657271	0	0	0	0
31.83104	0.001605262	-0.1657271	0	0	0	0
31.85208	0.001605262	-0.1657271	0	0	0	0
31.86865	0.001605262	-0.1657271	0	0	0	0
31.88523	0.001605262	-0.1657271	0	0	0	0
31.90178	0.001605262	-0.1657271	0	0	0	0
31.91874	0.001605262	-0.1657271	0	0	0	0
31.93492	0.001605262	-0.1657271	0	0	0	0
31.95192	0.001605262	-0.1657271	0	0	0	0
31.96805	0.001605262	-0.1657271	0	0	0	0
31.98469	0.001578946	-0.1657071	-0.001581869	0.001202061	-0.04828005	0.03668798
32.00119	0.001578946	-0.1657071	0	0	0.04773814	-0.03627618
32.01775	0.001578946	-0.1657071	0	0	0	0
32.03432	0.001578946	-0.1657071	0	0	0	0
32.05115	0.001578946	-0.1657071	0	0	0	0
32.06746	0.001578946	-0.1657071	0	0	0	0
32.08411	0.001578946	-0.1657071	0	0	0	0
32.10059	0.001578946	-0.1657071	0	0	0	0
32.11716	0.001578946	-0.1657071	0	0	0	0
32.13411	0.001578946	-0.1657071	0	0	0	0
32.15029	0.001578946	-0.1657071	0	0	0	0
32.16727	0.001578946	-0.1657071	0	0	0	0
32.18342	0.001578946	-0.1657071	0	0	0	0
32.19999	0.001578946	-0.1657071	0	0	0	0
32.2172	0.001578946	-0.1657071	0	0	0	0
32.23537	0.001578946	-0.1657071	0	0	0	0
32.25193	0.001578946	-0.1657071	0	0	0	0
32.2685	0.001578946	-0.1657071	0	0	0	0
32.28519	0.001578946	-0.1657071	0	0	0	0
32.30164	0.001578946	-0.1657071	0	0	0	0
32.31824	0.001578946	-0.1657071	0	0	0	0
32.33482	0.001578946	-0.1657071	0	0	0	0
32.35133	0.001578946	-0.1657071	0	0	0	0
32.3679	0.001578946	-0.1657071	0	0	0	0
32.38447	0.001578946	-0.1657071	0	0	0	0
32.40104	0.001578946	-0.1657071	0	0	0	0
32.4176	0.001578946	-0.1657071	0	0	0	0
32.43417	0.001578946	-0.1657071	0	0	0	0
32.45073	0.001578946	-0.1657071	0	0	0	0
32.46768	0.001578946	-0.1657071	0	0	0	0
32.48386	0.001578946	-0.1657071	0	0	0	0
32.5005	0.001578946	-0.1657071	0	0	0	0
32.51704	0.001578946	-0.1657071	0	0	0	0
32.5336	0.001578946	-0.1657071	0	0	0	0
32.55017	0.001578946	-0.1657071	0	0	0	0
32.56719	0.001578946	-0.1657071	0	0	0	0
32.58331	0.001578946	-0.1657071	0	0	0	0
32.59988	0.001578946	-0.1657071	0	0	0	0
32.61644	0.001578946	-0.1657071	0	0	0	0
32.63301	0.001578946	-0.1657071	0	0	0	0
32.64964	0.001578946	-0.1657071	0	0	0	0
32.66614	0.001578946	-0.1657071	0	0	0	0
32.6827	0.001578946	-0.1657071	0	0	0	0
32.69928	0.001578946	-0.1657071	0	0	0	0
32.71594	0.001578946	-0.1657071	0	0	0	0
32.73241	0.001578946	-0.1657071	0	0	0	0
32.74927	0.001578946	-0.1657071	0	0	0	0
32.76554	0.001578946	-0.1657071	0	0	0	0
32.78217	0.001578946	-0.1657071	0	0	0	0
32.79868	0.001578946	-0.1657071	0	0	0	0
32.81575	0.001578946	-0.1657071	0	0	0	0
32.83181	0.001578946	-0.1657071	0	0	0	0
32.84838	0.001578946	-0.1657071	0	0	0	0
32.86534	0.001578946	-0.1657071	0	0	0	0
32.88151	0.001605262	-0.1657271	0.001627012	-0.001236365	0.04910331	-0.03731357
32.89808	0.001605262	-0.1657271	0	0	-0.04969836	0.03776575
32.91533	0.001605262	-0.1657271	0	0	0	0
32.93121	0.001605262	-0.1657271	0	0	0	0
32.94778	0.001605262	-0.1657271	0	0	0	0
32.96465	0.001605262	-0.1657271	0	0	0	0
32.98091	0.001605262	-0.1657271	0	0	0	0
32.99747	0.001605262	-0.1657271	0	0	0	0
33.01404	0.001605262	-0.1657271	0	0	0	0
33.03061	0.001605262	-0.1657271	0	0	0	0
33.04749	0.001605262	-0.1657271	0	0	0	0
33.06374	0.001605262	-0.1657271	0	0	0	0
33.08031	0.001578946	-0.1657071	-0.001588425	0.001207043	-0.04840126	0.03678009
33.09687	0.001578946	-0.1657071	0	0	0.04793876	-0.03642863
33.11364	0.001578946	-0.1657071	0	0	0	0
33.13203	0.001578946	-0.1657071	0	0	0	0
33.14861	0.001578946	-0.1657071	0	0	0	0
33.16518	0.001578946	-0.1657071	0	0	0	0
33.20857	0.001578946	-0.1657071	0	0	0	0
33.22515	0.001578946	-0.1657071	0	0	0	0
33.24277	0.001578946	-0.1657071	0	0	0	0
33.25943	0.001578946	-0.1657071	0	0	0	0
33.27591	0.001578946	-0.1657071	0	0	0	0
33.29247	0.001605262	-0.1657271	0.001588791	-0.001207321	0.04808265	-0.03653798
33.30904	0.001605262	-0.1657271	0	0	-0.0479498	0.03643702
33.32563	0.001605262	-0.1657271	0	0	0	0
33.34218	0.001605262	-0.1657671	0	-0.002419227	0	-0.07301242
33.35885	0.001605262	-0.1657671	0	0	0	0.07283632
33.37531	0.001605262	-0.1657671	0	0	0	0
33.39188	0.001578946	-0.1657471	-0.001588425	0.001207942	-0.04809379	0.03657367
33.40844	0.001578946	-0.1657471	0	0	0.04793876	-0.03645577
33.42501	0.001578946	-0.1657471	0	0	0	0
33.44157	0.001578946	-0.1657471	0	0	0	0
33.45815	0.001578946	-0.1657471	0	0	0	0
33.47474	0.001578946	-0.1657471	0	0	0	0
33.49133	0.001578946	-0.1657471	0	0	0	0
33.50784	0.001578946	-0.1657471	0	0	0	0
33.52452	0.001578946	-0.1657471	0	0	0	0
33.54097	0.001578946	-0.1657471	0	0	0	0
33.55754	0.001578946	-0.1657471	0	0	0	0
33.81221	0.001578946	-0.1657471	0	0	0	0
33.83553	0.001578946	-0.1657871	0	-0.001715453	0	-0.006170952
33.8521	0.001578946	-0.1657871	0	0	0	0.04300017
33.86867	0.001578946	-0.1658671	0	-0.004829758	0	-0.1457288
33.88524	0.001578946	-0.1658671	0	0	0	0.1457456
33.9018	0.001578946	-0.1658671	0	0	0	0
33.91837	0.001499999	-0.1660872	-0.004766358	-0.01328863	-0.1438821	-0.4011439
33.93493	0.001499999	-0.1660872	0	0	0.1438655	0.4010977
33.95171	0.001499999	-0.1660872	0	0	0	0
33.96807	0.001473683	-0.1661473	-0.001608792	-0.003669397	-0.04855343	-0.1107426
33.98463	0.001473683	-0.1661473	0	0	0.04886283	0.1114483
34.0012	0.001473683	-0.1661473	0	0	0	0
34.01794	0.001315789	-0.1662273	-0.009430641	-0.004781129	-0.2831179	-0.1435346
34.03433	0.001315789	-0.1662273	0	0	0.2846501	0.1443114
34.0509	0.001315789	-0.1662273	0	0	0	0
34.06754	0.0005	-0.1668477	-0.04900415	-0.03726871	-1.475551	-1.122188
34.08403	0.0005	-0.1668477	0	0	1.478948	1.124772
34.1006	0.0005	-0.1668477	0	0	0	0
34.11758	-0.0181559	-0.1810841	-1.098749	-0.8384606	-32.75307	-24.99402
34.13373	-0.0181559	-0.1810841	0	0	33.16413	25.3077
34.15029	-0.0181559	-0.1810841	0	0	0	0
34.16686	-0.06247124	-0.2154157	-2.674879	-2.072255	-80.7373	-62.54799
34.18343	-0.06247124	-0.2154157	0	0	80.71872	62.53359
34.2	-0.06247124	-0.2154157	0	0	0	0
34.21656	-0.1321723	-0.2711295	-4.208132	-3.363667	-127.0163	-101.5274
34.23318	-0.1321723	-0.2711295	0	0	126.8265	101.3756
34.24969	-0.1321723	-0.2711295	0	0	0	0
34.26626	-0.1922537	-0.322068	-3.62652	-3.074655	-109.6126	-92.93237
34.28283	-0.1922537	-0.322068	0	0	109.4486	92.79327
34.30005	-0.1922537	-0.322068	0	0	0	0
34.31604	-0.1980028	-0.3277268	-0.35943	-0.3537816	-10.82146	-10.6514
34.33253	-0.1980028	-0.3277268	0	0	11.06546	10.89157
34.3491	-0.1980028	-0.3277268	0	0	0	0
34.3657	-0.1980281	-0.327705	-0.001524084	0.001308666	-0.04594933	0.03945472
34.38223	-0.1980281	-0.327705	0	0	0.04600224	-0.03950015
34.3988	-0.1980281	-0.327705	0	0	0	0
34.41555	-0.1980281	-0.327705	0	0	0	0
34.43193	-0.1980281	-0.327705	0	0	0	0
34.44862	-0.1980281	-0.327705	0	0	0	0
34.46506	-0.1980281	-0.327705	0	0	0	0
34.48168	-0.1980281	-0.327705	0	0	0	0
34.4982	-0.1980281	-0.327705	0	0	0	0
34.51492	-0.1980534	-0.3276833	-0.001512614	0.001297035	-0.04549888	0.03901435
34.53133	-0.1980534	-0.3276833	0	0	0.04565078	-0.03914461
34.54795	-0.1980534	-0.3276833	0	0	0	0
34.56446	-0.1981293	-0.3276182	-0.004596863	0.003946874	-0.1387496	0.1191306
34.58103	-0.1981293	-0.3276182	0	0	0.1389896	-0.1193367
34.59813	-0.1981293	-0.3276182	0	0	0	0
34.61416	-0.198281	-0.3274879	-0.009466824	0.008126636	-0.2857422	0.2452906
34.63073	-0.198281	-0.3274879	0	0	0.2903558	-0.2492511
34.6473	-0.198281	-0.3274879	0	0	0	0
34.66386	-0.1983569	-0.3274227	-0.004580982	0.003933239	-0.1382702	0.1187191
34.68043	-0.1983569	-0.3274227	0	0	0.1382543	-0.1187054
34.69727	-0.1983569	-0.3274227	0	0	0	0
34.71393	-0.1983822	-0.327401	-0.001518849	0.001302382	-0.04533786	0.03887628
34.73013	-0.1983822	-0.327401	0	0	0.04622209	-0.03963449
34.74735	-0.1983822	-0.327401	0	0	0	0
34.76365	-0.1983822	-0.327401	0	0	0	0
34.77983	-0.1983822	-0.327401	0	0	0	0
34.7964	-0.1983822	-0.327401	0	0	0	0
34.81485	-0.1983569	-0.3274227	0.001371833	-0.001176319	0.03917832	-0.0335946
34.83141	-0.1983569	-0.3274227	0	0	-0.03918259	0.03359826
34.84798	-0.1983569	-0.3274227	0	0	0	0
34.86455	-0.1983316	-0.3274445	0.001526343	-0.001311378	0.04605981	-0.03957289
34.88112	-0.1983316	-0.3274445	0	0	-0.04606511	0.03957745
34.89769	-0.1983316	-0.3274445	0	0	0	0
34.91425	-0.1983063	-0.3274662	0.001527242	-0.001309579	0.04609226	-0.03952316
34.93083	-0.1983063	-0.3274662	0	0	-0.04608165	0.03951406
34.94738	-0.1983063	-0.3274662	0	0	0	0
34.96395	-0.1983063	-0.3274662	0	0	0	0
34.98052	-0.1983063	-0.3274662	0	0	0	0
34.99709	-0.1983063	-0.3274662	0	0	0	0
35.01365	-0.1983316	-0.3274445	-0.001527242	0.001309579	-0.04609226	0.03952316
35.03022	-0.1983316	-0.3274445	0	0	0.04609226	-0.03952316
35.04736	-0.1983316	-0.3274445	0	0	0	0
35.06335	-0.1989386	-0.3267064	-0.03794829	0.04614462	-1.145282	1.392647
35.07992	-0.1989386	-0.3267064	0	0	1.165407	-1.41712
35.09664	-0.1989386	-0.3267064	0	0	0	0
35.11305	-0.2002785	-0.3251227	-0.08164717	0.09649945	-2.4644	2.912694
35.12968	-0.2002785	-0.3251227	0	0	2.471229	-2.920766
35.14619	-0.2002785	-0.3251227	0	0	0	0
35.16275	-0.2065385	-0.3195805	-0.3779391	0.3346078	-11.42859	10.11829
35.17939	-0.2065385	-0.3195805	0	0	11.38395	-10.07876
35.19608	-0.2065385	-0.3195805	0	0	0	0
35.21246	-0.2088062	-0.3174203	-0.1385071	0.131937	-4.188351	3.989674
35.22902	-0.2088062	-0.3174203	0	0	4.204843	-4.005383
35.24559	-0.2088062	-0.3174203	0	0	0	0
35.26233	-0.2086047	-0.3174203	0.0120393	0	0.3615155	0
35.27872	-0.2086047	-0.3174203	0	0	-0.3633886	0
35.29529	-0.2086047	-0.3174203	0	0	0	0
35.31185	-0.208378	-0.3173124	0.01368627	0.006517014	0.4131	0.1967065
35.32842	-0.208378	-0.3173124	0	0	-0.4130524	-0.1966839
35.34499	-0.208378	-0.3173124	0	0	0	0
35.36197	-0.2078742	-0.3168807	0.02967469	0.02542441	0.8845851	0.7578869
35.37862	-0.2078742	-0.3168807	0	0	-0.8822775	-0.7559099
35.39517	-0.2078742	-0.3168807	0	0	0	0
35.41174	-0.2064376	-0.3156941	0.08669016	0.07160739	2.617821	2.16236
35.42831	-0.2064376	-0.3156941	0	0	-2.616013	-2.160866
35.44487	-0.2064376	-0.3156941	0	0	0	0
35.46163	-0.2009103	-0.3109772	0.329834	0.2814741	9.897438	8.446284
35.47801	-0.2009103	-0.3109772	0	0	-9.954412	-8.494905
35.49458	-0.2009103	-0.3109772	0	0	0	0
35.51114	-0.1671366	-0.2828475	2.039051	1.698303	61.54576	51.26078
35.52771	-0.1671366	-0.2828475	0	0	-61.54576	-51.26078
35.54428	-0.1671366	-0.2828475	0	0	0	0
35.56117	-0.1316292	-0.2543855	2.101616	1.684609	62.79792	50.33741
35.5777	-0.1316292	-0.2543855	0	0	-62.88393	-50.40636
35.59418	-0.1316292	-0.2543855	0	0	0	0
35.6107	-0.1190657	-0.2469506	0.7607867	0.4502249	23.05348	13.64279
35.62716	-0.1190657	-0.2469506	0	0	-23.06948	-13.65226
35.64378	-0.1190657	-0.2469506	0	0	0	0
35.66024	-0.08638971	-0.2447691	1.985126	0.1325255	60.01487	4.006547
35.67729	-0.08638971	-0.2447691	0	0	-59.23608	-3.954556
35.69338	-0.08638971	-0.2447691	0	0	0	0
35.70995	-0.04924962	-0.247304	2.24178	-0.153003	68.65295	-4.685611
35.7272	-0.04924962	-0.247304	0	0	-66.29095	4.524403
35.74308	-0.04924962	-0.247304	0	0	0	0
35.75965	-0.04026769	-0.2433992	0.5421498	0.2356936	16.7064	7.262919
35.77621	-0.04026769	-0.2433992	0	0	-16.36211	-7.113246
35.79284	-0.04026769	-0.2433992	0	0	0	0
35.80935	-0.02149669	-0.2286384	1.136947	0.8940538	34.31313	26.9826
35.82592	-0.02149669	-0.2286384	0	0	-34.37249	-27.02928
35.84248	-0.02149669	-0.2286384	0	0	0	0
35.85905	-0.0007894735	-0.2125318	1.24989	0.9721903	37.7261	29.34414
35.87561	-0.0007894735	-0.2125318	0	0	-37.72176	-29.34076
35.89247	-0.0007894735	-0.2125318	0	0	0	0
35.90875	-0.0002105263	-0.212164	0.03556774	0.02259986	1.073437	0.6820651
35.92573	-0.0002105263	-0.212164	0	0	-1.069497	-0.6795615
35.94188	-0.0002105263	-0.212164	0	0	0	0
35.95845	-0.0001315789	-0.2122253	0.004765273	-0.003701179	0.1456269	-0.1131082
35.97502	-0.0001315789	-0.2122253	0	0	-0.1438162	0.1117018
35.99164	-0.0001315789	-0.2122253	0	0	0	0
36.00844	-0.0001315789	-0.2122253	0	0	0	0
36.02478	-0.0001315789	-0.2122253	0	0	0	0
36.04154	-0.0001315789	-0.2122253	0	0	0	0
36.05811	-0.0001842105	-0.2121844	-0.003176849	0.002467153	-0.09530692	0.07401571
36.07468	-0.0001842105	-0.2121844	0	0	0.09587749	-0.07445882
36.09146	-0.0001842105	-0.2121844	0	0	0	0
36.10795	-0.0001578947	-0.2122049	0.001596511	-0.001239405	0.04798393	-0.03725092
36.12437	-0.0001578947	-0.2122049	0	0	-0.04851232	0.03766113
36.14094	-0.0001578947	-0.2122049	0	0	0	0
36.15751	-0.0002368421	-0.2121436	-0.004765272	0.003700279	-0.1438327	0.1116875
36.17407	-0.0002368421	-0.2121436	0	0	0.1438162	-0.1116746
36.19073	-0.0002368421	-0.2121436	0	0	0	0
36.2072	-0.0003157895	-0.2120823	-0.004793972	0.003722565	-0.144699	0.1123602
36.22377	-0.0003157895	-0.2120823	0	0	0.1451167	-0.1126845
36.24095	-0.0003157895	-0.2120823	0	0	0	0
36.25697	-0.0003157895	-0.2120823	0	0	0	0
36.27347	-0.0003157895	-0.2120823	0	0	0	0
36.29004	-0.0003157895	-0.2120823	0	0	0	0
36.30665	-0.0002894737	-0.2121027	0.001584046	-0.001229729	0.04774066	-0.03706209
36.32338	-0.0002894737	-0.2121027	0	0	-0.04751124	0.03688398
36.33974	-0.0002894737	-0.2121027	0	0	0	0
36.3563	-0.0002894737	-0.2121027	0	0	0	0
36.37287	-0.0002894737	-0.2121027	0	0	0	0
36.38944	-0.0002894737	-0.2121027	0	0	0	0
36.406	-0.0003157895	-0.2120823	-0.001588789	0.001233411	-0.04795527	0.03722869
36.42263	-0.0003157895	-0.2120823	0	0	0.04786158	-0.03715596
36.43921	-0.0003157895	-0.2120823	0	0	0	0
36.4557	-0.0003157895	-0.2120823	0	0	0	0
36.47227	-0.0003157895	-0.2120823	0	0	0	0
36.48884	-0.0003157895	-0.2120823	0	0	0	0
36.5054	-0.0005789473	-0.2118779	-0.01589156	0.01233965	-0.4797186	0.3724971
36.52197	-0.0005789473	-0.2118779	0	0	0.4797186	-0.3724971
36.53867	-0.0005789473	-0.2118779	0	0	0	0
36.5551	-0.0007894735	-0.2117145	-0.0128136	0.009948377	-0.3867153	0.3002426
36.57167	-0.0007894735	-0.2117145	0	0	0.3882799	-0.3014573
36.58842	-0.0007894735	-0.2117145	0	0	0	0
36.6048	-0.0008947366	-0.2116327	-0.006426196	0.004988792	-0.1939877	0.1505967
36.62137	-0.0008947366	-0.2116327	0	0	0.1950207	-0.1513987
36.63796	-0.0008947366	-0.2116327	0	0	0	0
36.65473	-0.001894735	-0.2108566	-0.05963227	0.04628586	-1.787768	1.387644
36.67107	-0.001894735	-0.2108566	0	0	1.800742	-1.397715
36.68764	-0.001894735	-0.2108566	0	0	0	0
36.71079	-0.003289462	-0.2097744	-0.06024376	0.04674048	-1.516763	1.17679
36.72762	-0.003289462	-0.2097744	0	0	1.506778	-1.169043
36.74421	-0.003289462	-0.2097744	0	0	0	0
36.76056	-0.003289462	-0.2097744	0	0	0	0
36.7777	-0.003289462	-0.2097744	0	0	0	0
36.79588	-0.003289462	-0.2097744	0	0	0	0
36.81246	-0.003289462	-0.2097744	0	0	0	0
36.82917	-0.003289462	-0.2097744	0	0	0	0
36.84557	-0.003289462	-0.2097744	0	0	0	0
36.86214	-0.003289462	-0.2097744	0	0	0	0
36.87871	-0.003289462	-0.2097744	0	0	0	0
36.89528	-0.003289462	-0.2097744	0	0	0	0
36.91185	-0.003289462	-0.2097744	0	0	0	0
36.92841	-0.003289462	-0.2097744	0	0	0	0
36.94498	-0.003289462	-0.2097744	0	0	0	0
36.96155	-0.003289462	-0.2097744	0	0	0	0
36.97812	-0.003289462	-0.2097744	0	0	0	0
36.99494	-0.003289462	-0.2097744	0	0	0	0
37.01125	-0.003289462	-0.2097744	0	0	0	0
37.02781	-0.003289462	-0.2097744	0	0	0	0
37.04464	-0.003315777	-0.2097949	-0.001564272	-0.001213506	-0.04684844	-0.03634335
37.06121	-0.003315777	-0.2097949	0	0	0.04683239	0.0363309
37.07764	-0.003315777	-0.2097949	0	0	0	0
37.09408	-0.003315777	-0.2097949	0	0	0	0
37.11065	-0.003315777	-0.2097949	0	0	0	0
37.12721	-0.003315777	-0.2097949	0	0	0	0
37.14378	-0.003315777	-0.2097949	0	0	0	0
37.16035	-0.003315777	-0.2097949	0	0	0	0
37.17691	-0.003315777	-0.2097949	0	0	0	0
37.19348	-0.003315777	-0.2097949	0	0	0	0
37.21005	-0.003315777	-0.2097949	0	0	0	0
37.22667	-0.003315777	-0.2097949	0	0	0	0
37.24318	-0.003315777	-0.2097949	0	0	0	0
37.25975	-0.003315777	-0.2097949	0	0	0	0
37.27631	-0.003315777	-0.2097949	0	0	0	0
37.29288	-0.003342093	-0.2097744	-0.00158877	0.001232511	-0.04795468	0.03720153
37.30945	-0.003342093	-0.2097744	0	0	0.04794916	-0.03719725
37.32633	-0.003342093	-0.2097744	0	0	0	0
37.3489	-0.003315777	-0.2097949	0.001166065	-0.0009045913	0.0295597	-0.02293136
37.36547	-0.003315777	-0.2097949	0	0	-0.02979306	0.0231124
37.38237	-0.003342093	-0.2097744	-0.001556507	0.001207483	-0.04649372	0.03606817
37.3986	-0.003342093	-0.2097744	0	0	0.04698087	-0.03644609
37.41517	-0.003342093	-0.2097744	0	0	0	0
37.43174	-0.003315777	-0.2097949	0.001588404	-0.001232227	0.0479326	-0.03718441
37.4483	-0.003315777	-0.2097949	0	0	-0.04793812	0.03718869
37.46487	-0.003315777	-0.2097949	0	0	0	0
37.48144	-0.003315777	-0.2097949	0	0	0	0
37.4982	-0.003315777	-0.2097949	0	0	0	0
37.51457	-0.003315777	-0.2097949	0	0	0	0
37.53114	-0.003315777	-0.2097949	0	0	0	0
37.54771	-0.003315777	-0.2097949	0	0	0	0
37.56427	-0.003315777	-0.2097949	0	0	0	0
37.58084	-0.003315777	-0.2097949	0	0	0	0
37.59741	-0.003315777	-0.2097949	0	0	0	0
37.61404	-0.003315777	-0.2097949	0	0	0	0
37.63054	-0.003315777	-0.2097949	0	0	0	0
37.64766	-0.003315777	-0.2097949	0	0	0	0
37.66368	-0.003315777	-0.2097949	0	0	0	0
37.68024	-0.003315777	-0.2097949	0	0	0	0
37.69681	-0.003315777	-0.2097949	0	0	0	0
37.71418	-0.003315777	-0.2097949	0	0	0	0
37.72994	-0.003315777	-0.2098357	0	-0.002589356	0	-0.07814692
37.74665	-0.003315777	-0.2098357	0	0	0	0.07974438
37.76308	-0.003315777	-0.2098357	0	0	0	0
37.77964	-0.003315777	-0.2098765	0	-0.002464454	0	-0.07469556
37.79622	-0.003315777	-0.2098765	0	0	0	0.07436882
37.81278	-0.003315777	-0.2098765	0	0	0	0
37.82964	-0.003342093	-0.2098969	-0.001560732	-0.001210761	-0.04668911	-0.03621975
37.84621	-0.003342093	-0.2098969	0	0	0.04668378	0.03621562
37.86278	-0.003342093	-0.2098969	0	0	0	0
37.87956	-0.003342093	-0.2098969	0	0	0	0
37.89592	-0.003342093	-0.2098969	0	0	0	0
37.91248	-0.003342093	-0.2098969	0	0	0	0
37.92905	-0.003368408	-0.2099173	-0.001588418	-0.001232227	-0.04793854	-0.03718869
37.94562	-0.003368408	-0.2099173	0	0	0.04793854	0.03718869
37.963	-0.003368408	-0.2099173	0	0	0	0
37.97881	-0.003368408	-0.2099582	0	-0.002581554	0	-0.07776821
37.99532	-0.003368408	-0.2099582	0	0	0	0.07987006
38.01228	-0.003368408	-0.2099582	0	0	0	0
38.02888	-0.003421039	-0.2100398	-0.00316951	-0.004917586	-0.09443827	-0.1465237
38.04541	-0.003421039	-0.2100398	0	0	0.09564498	0.1483959
38.06198	-0.003421039	-0.2100398	0	0	0	0
38.07872	-0.00347367	-0.2100807	-0.003144945	-0.002439737	-0.09443626	-0.07326028
38.09512	-0.00347367	-0.2100807	0	0	0.09491464	0.0736314
38.11169	-0.00347367	-0.2100807	0	0	0	0
38.12825	-0.003499986	-0.2100602	-0.00158877	0.001232511	-0.04794916	0.03719725
38.14482	-0.003499986	-0.2100602	0	0	0.04795468	-0.03720153
38.16138	-0.003499986	-0.2100602	0	0	0	0
38.17818	-0.003499986	-0.2100602	0	0	0	0
38.19452	-0.003499986	-0.2100602	0	0	0	0
38.21137	-0.003499986	-0.2100602	0	0	0	0
38.22765	-0.003499986	-0.2100602	0	0	0	0
38.24422	-0.003499986	-0.2100602	0	0	0	0
38.26078	-0.003499986	-0.2100602	0	0	0	0
38.27735	-0.003499986	-0.2100602	0	0	0	0
38.29392	-0.003499986	-0.2100602	0	0	0	0
38.31049	-0.003499986	-0.2100602	0	0	0	0
38.32761	-0.003499986	-0.2100602	0	0	0	0
38.344	-0.003499986	-0.2100602	0	0	0	0
38.36022	-0.003499986	-0.2100602	0	0	0	0
38.37722	-0.003499986	-0.2100602	0	0	0	0
38.39332	-0.003499986	-0.2100602	0	0	0	0
38.41008	-0.003499986	-0.2100602	0	0	0	0
38.42645	-0.003499986	-0.2100602	0	0	0	0
38.44302	-0.003499986	-0.2100602	0	0	0	0
38.46001	-0.003499986	-0.2100602	0	0	0	0
38.47615	-0.003526301	-0.2100807	-0.001630066	-0.001264547	-0.04920114	-0.03816849
38.49282	-0.003526301	-0.2100807	0	0	0.0496701	0.0385323
38.50928	-0.003526301	-0.2100807	0	0	0	0
38.52584	-0.003526301	-0.2100807	0	0	0	0
38.54242	-0.003526301	-0.2100807	0	0	0	0
38.5597	-0.003526301	-0.2100807	0	0	0	0
38.57555	-0.003526301	-0.2100807	0	0	0	0
38.59212	-0.003526301	-0.2100807	0	0	0	0
38.60868	-0.003526301	-0.2100807	0	0	0	0
38.62553	-0.003552617	-0.2101011	-0.001561439	-0.001211309	-0.04672624	-0.03624856
38.92561	-0.003552617	-0.2101011	0	0	0.004926781	0.003822021
38.95931	-0.003552617	-0.2101011	0	0	0	0
38.9761	-0.005342055	-0.2114897	-0.1065872	-0.08271558	-2.111001	-1.638213
38.99245	-0.005342055	-0.2114897	0	0	3.21681	2.496361
39.00901	-0.005342055	-0.2114897	0	0	0	0
39.02559	-0.005342055	-0.2114897	0	0	0	0
39.04215	-0.005342055	-0.2114897	0	0	0	0
39.05872	-0.005342055	-0.2114897	0	0	0	0
39.07528	-0.00536837	-0.2115102	-0.001588376	-0.001233127	-0.04793727	-0.03721584
39.09185	-0.00536837	-0.2115102	0	0	0.04793727	0.03721584
39.10841	-0.00536837	-0.2115102	0	0	0	0
39.12498	-0.005499945	-0.2116123	-0.007943708	-0.006167053	-0.2397968	-0.1861649
39.14155	-0.005499945	-0.2116123	0	0	0.2397416	0.186122
39.15842	-0.005499945	-0.2116123	0	0	0	0
39.17468	-0.00552626	-0.2116327	-0.001618183	-0.001256268	-0.04883687	-0.03791423
39.19125	-0.00552626	-0.2116327	0	0	0.04929085	0.03826667
39.20805	-0.00552626	-0.2116327	0	0	0	0
39.22438	-0.00552626	-0.2116327	0	0	0	0
39.24095	-0.00552626	-0.2116327	0	0	0	0
39.25751	-0.00552626	-0.2116327	0	0	0	0
39.27408	-0.005605204	-0.2117349	-0.004765127	-0.006165633	-0.1438118	-0.1860792
39.39764	-0.005605204	-0.2117349	0	0	0.03400619	0.04400086
39.41421	-0.005605204	-0.2117349	0	0	0	0
39.43113	-0.005684149	-0.2117553	-0.004666279	-0.001208427	-0.1393526	-0.03608817
39.44735	-0.005684149	-0.2117553	0	0	0.1408124	0.03646621
39.46391	-0.005684149	-0.2117553	0	0	0	0
39.48048	-0.005684149	-0.2117553	0	0	0	0
39.49707	-0.005684149	-0.2117553	0	0	0	0
39.51361	-0.005684149	-0.2117553	0	0	0	0
39.53018	-0.005684149	-0.2117553	0	0	0	0
39.54723	-0.005684149	-0.2117553	0	0	0	0
39.56382	-0.005684149	-0.2117553	0	0	0	0
39.58241	-0.005684149	-0.2117553	0	0	0	0
39.59898	-0.005684149	-0.2117553	0	0	0	0
39.61555	-0.005684149	-0.2117553	0	0	0	0
39.63211	-0.005684149	-0.2117553	0	0	0	0
39.64868	-0.005684149	-0.2117553	0	0	0	0
39.66525	-0.005684149	-0.2117553	0	0	0	0
39.68182	-0.005710464	-0.2117349	-0.001588376	0.001234026	-0.04793727	0.03724298
39.69838	-0.005710464	-0.2117349	0	0	0.04793727	-0.03724298
39.71495	-0.005710464	-0.2117349	0	0	0	0
39.74174	-0.005789409	-0.2116736	-0.002946302	0.002287359	-0.06795314	0.05275535
39.75831	-0.005789409	-0.2116736	0	0	0.06794118	-0.05274607
39.77528	-0.005868354	-0.2116123	-0.004652641	0.003612052	-0.1387241	0.1076976
39.79144	-0.005868354	-0.2116123	0	0	0.1404331	-0.1090245
39.8084	-0.005868354	-0.2116123	0	0	0	0
39.82458	-0.006052558	-0.2114693	-0.01138867	0.008841576	-0.3437108	0.2668393
39.84114	-0.006052558	-0.2114693	0	0	0.3478355	-0.2700415
39.85771	-0.006052558	-0.2114693	0	0	0	0
39.87428	-0.006157817	-0.2113876	-0.006353446	0.004931607	-0.1917474	0.1488362
39.89121	-0.006157817	-0.2113876	0	0	0.1896729	-0.147226
39.90832	-0.006157817	-0.2113876	0	0	0	0
39.92398	-0.006289391	-0.2112855	-0.008404321	0.006523742	-0.2564776	0.1990873
39.9407	-0.006289391	-0.2112855	0	0	0.2595291	-0.201456
39.95712	-0.006289391	-0.2112855	0	0	0	0
39.97368	-0.006289391	-0.2112855	0	0	0	0
39.99025	-0.006289391	-0.2112855	0	0	0	0
40.00682	-0.006289391	-0.2112855	0	0	0	0
40.02338	-0.006289391	-0.2112855	0	0	0	0
40.04027	-0.006289391	-0.2112855	0	0	0	0
40.05659	-0.006289391	-0.2112855	0	0	0	0
40.07309	-0.006289391	-0.2112855	0	0	0	0
40.08965	-0.006289391	-0.2112855	0	0	0	0
40.10622	-0.006289391	-0.2112855	0	0	0	0
40.12278	-0.006289391	-0.2112855	0	0	0	0
40.13935	-0.006289391	-0.2112855	0	0	0	0
40.15672	-0.006289391	-0.2112855	0	0	0	0
40.17249	-0.006289391	-0.2112855	0	0	0	0
40.18905	-0.006289391	-0.2112855	0	0	0	0
40.20562	-0.006289391	-0.2112855	0	0	0	0
40.22219	-0.006289391	-0.2112855	0	0	0	0
40.23911	-0.006289391	-0.2112855	0	0	0	0
40.25532	-0.006289391	-0.2112855	0	0	0	0
40.27189	-0.006289391	-0.2112855	0	0	0	0
40.28851	-0.006289391	-0.2112855	0	0	0	0
40.30502	-0.006289391	-0.2112855	0	0	0	0
40.32159	-0.006289391	-0.2112855	0	0	0	0
40.33846	-0.006289391	-0.2112855	0	0	0	0
40.35472	-0.006289391	-0.2112855	0	0	0	0
40.37128	-0.006289391	-0.2112855	0	0	0	0
40.38785	-0.006289391	-0.2112855	0	0	0	0
40.40463	-0.006289391	-0.2112855	0	0	0	0
40.42099	-0.006289391	-0.2112855	0	0	0	0
40.4376	-0.006289391	-0.2112855	0	0	0	0
40.45412	-0.006289391	-0.2112855	0	0	0	0
40.47069	-0.006263076	-0.2113059	0.001588376	-0.001232227	0.04799806	-0.03723584
40.48726	-0.006263076	-0.2113059	0	0	-0.04793175	0.03718441
40.50457	-0.006263076	-0.2113059	0	0	0	0
40.52039	-0.006289391	-0.2112855	-0.00166425	0.001291089	-0.05023872	0.03897411
40.53765	-0.006289391	-0.2112855	0	0	0.05031985	-0.03903704
40.55362	-0.006289391	-0.2112855	0	0	0	0
40.57009	-0.006263076	-0.2113059	0.001597572	-0.001239361	0.0492409	-0.03820002
40.58719	-0.006263076	-0.2113059	0	0	-0.04758481	0.03691525
40.60323	-0.006263076	-0.2113059	0	0	0	0
40.61983	-0.006263076	-0.2113059	0	0	0	0
40.63684	-0.006263076	-0.2113059	0	0	0	0
40.65293	-0.006263076	-0.2113059	0	0	0	0
40.67079	-0.006289391	-0.2113263	-0.001473055	-0.001143598	-0.04338304	-0.03368019
40.68736	-0.006289391	-0.2113263	0	0	0.0427775	0.03321007
40.70468	-0.006289391	-0.2113263	0	0	0	0
40.72394	-0.006315705	-0.2113876	-0.001365979	-0.003181467	-0.03734312	-0.0869749
40.74051	-0.006315705	-0.2113876	0	0	0.03811828	0.08878033
40.75708	-0.006315705	-0.2113876	0	0	0	0
40.77365	-0.006289391	-0.211408	0.001588347	-0.001233127	0.04793642	-0.03721584
40.79021	-0.006289391	-0.211408	0	0	-0.04793642	0.03721584
40.80678	-0.006289391	-0.211408	0	0	0	0
40.82337	-0.007368288	-0.2126545	-0.06503249	-0.07513221	-1.96133	-2.265929
40.83992	-0.007368288	-0.2126545	0	0	1.962684	2.267495
40.85702	-0.007368288	-0.2126545	0	0	0	0
40.87325	-0.009341833	-0.2143926	-0.1215585	-0.1070566	-3.646394	-3.211379
40.88961	-0.009341833	-0.2143926	0	0	3.72918	3.284288
40.90618	-0.009341833	-0.2143926	0	0	0	0
40.92275	-0.009499714	-0.2141471	-0.009529692	0.01481641	-0.2876067	0.4471601
40.93932	-0.009499714	-0.2141471	0	0	0.2876067	-0.4471601
40.95588	-0.009499714	-0.2141471	0	0	0	0
40.97245	-0.009578655	-0.2138812	-0.004764874	0.01604863	-0.1438042	0.4843487
40.98902	-0.009578655	-0.2138812	0	0	0.1438042	-0.4843487
41.00563	-0.009578655	-0.2138812	0	0	0	0
41.02215	-0.009447088	-0.2136972	0.007963404	0.01114061	0.240336	0.3362244
41.03872	-0.009447088	-0.2136972	0	0	-0.2406685	-0.3366895
41.05529	-0.009447088	-0.2136972	0	0	0	0
41.07185	-0.00939446	-0.2136972	0.003177314	0	0.09590258	0
41.08842	-0.00939446	-0.2136972	0	0	-0.09590258	0
41.10509	-0.00939446	-0.2136972	0	0	0	0
41.12155	-0.008762933	-0.2131656	0.0383664	0.0322974	1.1579	0.9747374
41.13812	-0.008762933	-0.2131656	0	0	-1.161645	-0.9778897
41.15469	-0.008762933	-0.2131656	0	0	0	0
41.17125	-0.0081314	-0.2124297	0.03812822	0.04442887	1.150844	1.34102
41.18782	-0.0081314	-0.2124297	0	0	-1.150712	-1.340866
41.20441	-0.0081314	-0.2124297	0	0	0	0
41.221	0.002921044	-0.2030899	0.6663597	0.5631002	20.08303	16.97095
41.2378	0.002921044	-0.2030899	0	0	-19.9614	-16.86817
41.25435	0.002921044	-0.2030899	0	0	0	0
41.27065	0.03527484	-0.1768379	1.984871	1.61053	60.41123	49.01787
41.28722	0.03527484	-0.1768379	0	0	-60.3902	-49.0008
41.30379	0.03527484	-0.1768379	0	0	0	0
41.32035	0.07603733	-0.135829	2.460996	2.475872	74.28155	74.73055
41.33692	0.07603733	-0.135829	0	0	-74.27299	-74.72195
41.35349	0.07603733	-0.135829	0	0	0	0
41.37005	0.1185987	-0.1038943	2.5696	1.928029	77.55962	58.19473
41.38662	0.1185987	-0.1038943	0	0	-77.55962	-58.19473
41.40343	0.1185987	-0.1038943	0	0	0	0
41.41975	0.1385797	-0.08887944	1.224095	0.9198543	36.94753	27.76446
41.43658	0.1385797	-0.08887944	0	0	-36.92627	-27.74848
41.45292	0.1385797	-0.08887944	0	0	0	0
41.46946	0.1516169	-0.07931557	0.7881976	0.5782079	23.97277	17.586
41.48639	0.1516169	-0.07931557	0	0	-23.54927	-17.27533
41.62283	0.1516169	-0.07931557	0	0	0	0
41.644	0.1733223	-0.06310979	1.025027	0.7653126	6.503333	4.855562
41.66057	0.1733223	-0.06310979	0	0	-27.15835	-20.27715
41.68104	0.1732712	-0.06307136	-0.00249473	0.001877417	-0.06735796	0.05069045
41.69761	0.1732712	-0.06307136	0	0	0.06735102	-0.05068523
41.71417	0.1732201	-0.06303293	-0.003083077	0.002319729	-0.09304743	0.07000957
41.7308	0.1732201	-0.06303293	0	0	0.09287635	-0.06988085
41.74731	0.1732201	-0.06303293	0	0	0	0
41.76388	0.1732201	-0.06303293	0	0	0	0
41.78045	0.1732201	-0.06303293	0	0	0	0
41.79727	0.1732201	-0.06303293	0	0	0	0
41.81358	0.1732201	-0.06303293	0	0	0	0
41.83015	0.1732201	-0.06303293	0	0	0	0
41.84671	0.1732201	-0.06303293	0	0	0	0
41.86328	0.1732201	-0.06303293	0	0	0	0
41.87984	0.1732201	-0.06303293	0	0	0	0
41.89641	0.1732201	-0.06303293	0	0	0	0
41.913	0.1732712	-0.06307136	0.003078822	-0.002316528	0.09286558	-0.06987274
41.92996	0.1732712	-0.06307136	0	0	-0.09177788	0.06905436
41.94612	0.1732712	-0.06307136	0	0	0	0
41.96268	0.1732712	-0.06310979	0	-0.002320179	0	-0.07090476
41.97925	0.1732712	-0.06310979	0	0	0	0.07003121
41.99582	0.1732712	-0.06310979	0	0	0	0
42.01245	0.1732967	-0.06309057	0.00153527	0.001155035	0.04623872	0.03478695
42.02895	0.1732967	-0.06309057	0	0	-0.04633454	-0.03485904
42.04552	0.1732967	-0.06309057	0	0	0	0
42.06208	0.1733223	-0.06310979	0.001541088	-0.00116009	0.0465155	-0.03501561
42.07865	0.1733223	-0.06310979	0	0	-0.0465155	0.03501561
42.09521	0.1733223	-0.06310979	0	0	0	0
42.11178	0.1733733	-0.06318665	0.003082367	-0.00463929	0.09302601	-0.1400141
42.12835	0.1733733	-0.06318665	0	0	-0.09302601	0.1400141
42.14492	0.1733733	-0.06318665	0	0	0	0
42.16148	0.1733733	-0.06318665	0	0	0	0
42.17815	0.1733733	-0.06318665	0	0	0	0
42.19467	0.1733733	-0.06318665	0	0	0	0
42.21145	0.1733478	-0.06320586	-0.001520774	-0.001144798	-0.04567096	-0.03437986
42.22775	0.1733478	-0.06320586	0	0	0.04597645	0.03460983
42.24431	0.1733478	-0.06320586	0	0	0	0
42.26088	0.1732967	-0.06324429	-0.003082367	-0.002319645	-0.09302601	-0.07000703
42.27745	0.1732967	-0.06324429	0	0	0.09302601	0.07000703
42.29401	0.1732967	-0.06324429	0	0	0	0
42.31059	0.1732967	-0.06324429	0	0	0	0
42.3277	0.1732967	-0.06324429	0	0	0	0
