Time	Pos X	Pos Y	Vel X	Vel Y	Acc X	Acc Y
0.01608043	0.4786841	0.1444353	29.76812	8.982058	1851.202	558.5709
0.4776493	0.4787761	0.1441298	0.0001994489	-0.0006618163	-62.32171	-18.8061
0.4943222	0.4787761	0.1441298	0	0	-0.000417046	0.001383853
0.5107868	0.4787761	0.1441298	0	0	0	0
0.5379832	0.4787761	0.1441298	0	0	0	0
0.5545527	0.4787761	0.1441298	0	0	0	0
0.5711183	0.4787761	0.1441298	0	0	0	0
0.5876874	0.4787761	0.1441298	0	0	0	0
0.6042534	0.4787761	0.1441298	0	0	0	0
0.6208202	0.4787761	0.1441298	0	0	0	0
0.6373905	0.4787761	0.1441298	0	0	0	0
0.6583849	0.4787761	0.1441298	0	0	0	0
0.674956	0.4787761	0.1441298	0	0	0	0
0.6915227	0.4787761	0.1441298	0	0	0	0
0.7080895	0.4787761	0.1441298	0	0	0	0
0.7249997	0.4787761	0.1441298	0	0	0	0
0.7412226	0.4787761	0.1441298	0	0	0	0
0.7580724	0.4787761	0.1441298	0	0	0	0
0.7743558	0.4787761	0.1441298	0	0	0	0
0.790958	0.4787761	0.1441298	0	0	0	0
0.8074897	0.4787761	0.1441298	0	0	0	0
0.8241129	0.4787761	0.1441298	0	0	0	0
0.8406228	0.4787761	0.1441298	0	0	0	0
0.8571892	0.4787761	0.1441298	0	0	0	0
0.8741441	0.4787761	0.1441298	0	0	0	0
0.8903252	0.4787761	0.1441298	0	0	0	0
0.9068892	0.4787761	0.1441298	0	0	0	0
0.9234556	0.4787761	0.1441298	0	0	0	0
0.9400223	0.4787761	0.1441298	0	0	0	0
0.9565899	0.4787761	0.1441298	0	0	0	0
0.9731554	0.4788978	0.1437248	0.007347332	-0.02444823	0.2217521	-0.7378796
0.9897222	0.4793258	0.1422911	0.02583254	-0.08654171	0.5579209	-1.874106
1.006782	0.4798799	0.1404114	0.03247711	-0.1101856	0.1975984	-0.7031311
1.029595	0.4807836	0.1372847	0.0396178	-0.1370593	0.1790883	-0.6739918
1.04974	0.4818348	0.1335488	0.05217641	-0.1854422	0.2923445	-1.126277
1.070626	0.4823819	0.1315587	0.0261972	-0.09528824	-0.6331586	2.19721
1.091118	0.483211	0.1284802	0.04045713	-0.1502301	0.3446317	-1.327825
1.112823	0.4836214	0.1269262	0.01891233	-0.07159471	-0.5105754	1.863525
1.12945	0.4650699	0.1217565	-1.11577	-0.3109298	-29.60145	-6.243744
1.146515	0.4424484	0.1177645	-1.325581	-0.233926	-6.227334	2.285524
1.174308	0.4184964	0.1177645	-0.8617932	0	10.33889	5.214744
1.19088	0.3626081	0.1177645	-3.372549	-4.496015E-07	-56.5934	-1.013419E-05
1.207443	0.350632	0.1177645	-0.7230327	0	79.96083	1.356871E-05
1.22401	0.3133732	0.1177645	-2.248962	8.994423E-07	-46.05777	2.714825E-05
1.24058	0.3027279	0.1177645	-0.6424471	-4.496435E-07	48.48088	-4.071227E-05
1.257148	0.2774451	0.1164338	-1.526084	-0.08031975	-26.6661	-2.42385
1.274181	0.2654691	0.1151031	-0.703074	-0.07811997	24.49366	0.06546795
1.290281	0.2601464	0.1137725	-0.3306158	-0.0826535	11.24126	-0.1368276
1.306847	0.2548237	0.1111111	-0.3212947	-0.1606473	0.2853505	-2.387635
1.323413	0.2521623	0.1097804	-0.160652	-0.08032598	4.84852	2.42426
1.33998	0.249501	0.1084498	-0.1606404	-0.0803202	0.0003489962	0.0001744981
1.356547	0.2481703	0.1071191	-0.08032367	-0.08032367	2.424034	-0.0001045624
1.373113	0.2468397	0.1044578	-0.08032013	-0.160643	0.0001065874	-2.424137
1.38968	0.2468397	0.1044578	0	0	2.424162	4.848406
1.406247	0.245509	0.1031271	-0.08031969	-0.08031834	-2.424088	-2.424047
1.422814	0.2441783	0.1004657	-0.08032277	-0.1606469	-9.309295E-05	-2.424355
1.43938	0.2441783	0.09647372	0	-0.2409654	2.424242	-2.424112
1.455948	0.2428476	0.09115103	-0.0803202	-0.3212808	-2.424112	-2.423969
1.472513	0.2428476	0.08582833	0	-0.3213108	2.424199	-0.0009066803
1.48908	0.241517	0.07917498	-0.0803202	-0.4016001	-2.424199	-2.423266
1.50581	0.2415169	0.07119095	-8.90675E-07	-0.4772228	2.412187	-2.271135
1.522214	0.2428476	0.05788423	0.08112223	-0.8112214	2.448371	-10.08039
1.538792	0.245509	0.05123087	0.1605364	-0.4013407	2.407866	12.42772
1.555771	0.245509	0.04723886	0	-0.2351101	-4.783967	4.953651
1.571914	0.2481703	0.03792415	0.1648596	-0.5770047	4.977264	-10.32211
1.58848	0.249501	0.03127079	0.08032367	-0.4016177	-2.584439	5.361945
1.605048	0.2508317	0.02727878	0.0803193	-0.2409605	-0.0001317711	4.848783
1.621614	0.2521623	0.02328676	0.08032598	-0.2409776	0.0002017072	-0.0005162985
1.63818	0.253493	0.02062542	0.08032367	-0.1606471	-6.993567E-05	2.424536
1.654991	0.253493	0.01929474	0	-0.07915589	-2.406545	2.441526
1.671314	0.253493	0.0166334	0	-0.1630441	0	-2.531813
1.687881	0.2548237	0.01530273	0.08031789	-0.08031778	2.441983	2.515207
1.704776	0.2548237	0.01264138	0	-0.157521	-2.400217	-2.307138
1.721112	0.2548237	0.01131071	0	-0.08145718	0	2.28894
1.737612	0.2561544	0.009980041	0.08064866	-0.08064854	2.456144	0.02462683
1.754145	0.2561544	0.008649368	1.80262E-06	-0.08048694	-2.441446	0.004892258
1.77071	0.257485	0.005988024	0.08032592	-0.1606552	2.426832	-2.422124
1.78728	0.257485	0.005988024	0	0	-2.424197	4.848497
1.803848	0.257485	0.005988024	0	0	0	0
1.820414	0.257485	0.005988024	0	0	0	0
1.846399	0.257485	0.005988024	0	0	0	0
1.86297	0.257485	0.005988024	0	0	0	0
1.879537	0.257485	0.005988024	0	0	0	0
1.896106	0.257485	0.005988024	0	0	0	0
1.912675	0.257485	0.005988024	0	0	0	0
1.929238	0.257485	0.005988024	0	0	0	0
1.945803	0.257485	0.005988024	0	0	0	0
1.962371	0.257485	0.005988024	0	0	0	0
1.978937	0.257485	0.005988024	0	0	0	0
1.995647	0.257485	0.005988024	0	0	0	0
2.01207	0.257485	0.005988024	0	0	0	0
2.028637	0.257485	0.005988024	0	0	0	0
2.045205	0.257485	0.005988024	0	0	0	0
2.062124	0.257485	0.005988024	0	0	0	0
2.078338	0.257485	0.004657352	0	-0.08206985	0	-2.476998
2.094904	0.2561544	0.00332668	-0.08032425	-0.08032414	-2.450391	0.05325524
2.11147	0.2521623	-0.0006653359	-0.2409727	-0.2409724	-4.84866	-4.848654
2.128037	0.245509	-0.005988024	-0.4015972	-0.3212781	-4.847796	-2.423699
2.144604	0.241517	-0.01131071	-0.2409718	-0.3212966	4.847823	-0.0005603647
2.161172	0.2361943	-0.01530273	-0.3212563	-0.2409412	-2.422971	2.425114
2.177738	0.2308716	-0.01796407	-0.32131	-0.1606553	-0.001619907	2.423069
2.194304	0.2268796	-0.02062542	-0.2409753	-0.1606506	2.424714	0.0001412236
2.210871	0.2215569	-0.02328676	-0.3212785	-0.160639	-2.423642	0.0003489937
2.227438	0.2175649	-0.02461743	-0.2409554	-0.08031824	2.424138	2.424068
2.244001	0.2135729	-0.02594811	-0.2410273	-0.08034286	-0.002171535	-0.0007430356
2.26057	0.2082502	-0.02860945	-0.3212406	-0.1606205	-2.42105	-2.422994
2.277134	0.2042581	-0.02994012	-0.2410014	-0.08033327	2.421694	2.423144
2.294086	0.1989355	-0.03260146	-0.3139935	-0.1569971	-2.177833	-2.287384
2.310271	0.1949434	-0.03526281	-0.246656	-0.1644371	2.032146	-0.2245293
2.326859	0.1882901	-0.03659348	-0.4010844	-0.08021666	-4.712059	2.569811
2.343406	0.1829674	-0.03925482	-0.3216618	-0.1608311	2.396876	-2.432844
2.359974	0.176314	-0.03925483	-0.4015972	-2.24859E-07	-2.413898	4.856787
2.376541	0.1696607	-0.03925482	-0.4015981	2.24859E-07	-2.698308E-05	1.357251E-05
2.393108	0.1630073	-0.03925483	-0.4015972	-2.24859E-07	2.698308E-05	-1.357251E-05
2.409672	0.1590153	-0.03792415	-0.2410005	0.08033349	4.847238	2.424686
2.426691	0.1550233	-0.03659348	-0.2345711	0.07819067	0.1914486	-0.06380741
2.443009	0.1510313	-0.03526281	-0.2446379	0.08154573	-0.3019747	0.1006426
2.459372	0.1497006	-0.03393214	-0.0813193	0.08131998	4.997284	-0.006907664
2.47594	0.1470392	-0.03260146	-0.1606402	0.08031962	-2.408727	-0.0303778
2.492504	0.1443779	-0.03127079	-0.1606661	0.08033349	-0.0007830266	0.0004187236
2.518266	0.1417166	-0.03127079	-0.1033058	0	1.355196	-1.897961
2.534891	0.1390552	-0.03127079	-0.1600794	0	-1.339412	0
2.551403	0.1390552	-0.02994012	0	0.08058625	4.830756	2.43187
2.56797	0.1390552	-0.02994012	0	0	0	-2.436165
2.584536	0.1377245	-0.02994012	-0.08032425	1.12436E-07	-2.424295	3.39347E-06
2.601104	0.1377245	-0.02994012	0	0	2.42426	-3.393422E-06
2.61767	0.1377245	-0.02994012	0	0	0	0
2.634237	0.1377245	-0.02994012	0	0	0	0
2.650803	0.1377245	-0.02994012	0	0	0	0
2.66737	0.1377245	-0.02994012	0	0	0	0
2.684043	0.1377245	-0.02994012	0	0	0	0
2.700503	0.1377245	-0.02994012	0	0	0	0
2.71707	0.1377245	-0.02994012	0	0	0	0
2.733636	0.1363939	-0.02994012	-0.08032194	-1.124327E-07	-2.424226	-3.393373E-06
2.750205	0.1363939	-0.02994012	0	0	2.424051	3.393129E-06
2.76677	0.1363939	-0.02994012	0	0	0	0
2.783336	0.1350632	-0.02994012	-0.08032335	-1.12436E-07	-2.424408	-3.393666E-06
2.799903	0.1337325	-0.02994012	-0.08032283	1.124327E-07	1.551594E-05	6.786843E-06
2.816469	0.1324019	-0.02994012	-0.08032335	-1.12436E-07	-1.551594E-05	-6.786843E-06
2.833034	0.1324019	-0.02994012	0	0	2.42439	3.393641E-06
2.849605	0.1324019	-0.02994012	0	0	0	0
2.866169	0.1324019	-0.02994012	0	0	0	0
2.882835	0.1324019	-0.02994012	0	0	0	0
2.899303	0.1324019	-0.02994012	0	0	0	0
2.915869	0.1324019	-0.02994012	0	0	0	0
2.932436	0.1324019	-0.02994012	0	0	0	0
2.949003	0.1324019	-0.02994012	0	0	0	0
2.965569	0.1324019	-0.02994012	0	0	0	0
2.982136	0.1324019	-0.02994012	0	0	0	0
2.998703	0.1324019	-0.02994012	0	0	0	0
3.015269	0.1324019	-0.02994012	0	0	0	0
3.031836	0.1324019	-0.02994012	0	0	0	0
3.048402	0.1324019	-0.02994012	0	0	0	0
3.064969	0.1324019	-0.02994012	0	0	0	0
3.081535	0.1324019	-0.02994012	0	0	0	0
3.098376	0.1324019	-0.02994012	0	0	0	0
3.114669	0.1324019	-0.02994012	0	0	0	0
3.131236	0.1324019	-0.02994012	0	0	0	0
3.147802	0.1324019	-0.02994012	0	0	0	0
3.164369	0.1324019	-0.02994012	0	0	0	0
3.182472	0.1324019	-0.02994012	0	0	0	0
3.199168	0.1324019	-0.02994012	0	0	0	0
3.21561	0.1324019	-0.02994012	0	0	0	0
3.232177	0.1324019	-0.02994012	0	0	0	0
3.248742	0.1324019	-0.02994012	0	0	0	0
3.265309	0.1324019	-0.02994012	0	0	0	0
3.281876	0.1310712	-0.03127079	-0.08031962	-0.08031962	-2.424086	-2.424086
3.298443	0.1310712	-0.03526281	0	-0.2409723	2.424121	-4.848647
3.315009	0.1284098	-0.04058549	-0.1606485	-0.3212963	-4.84866	-2.424323
3.331576	0.1284098	-0.04191617	0	-0.08032194	4.84859	7.272935
3.348143	0.1284098	-0.04191617	0	0	0	2.424156
3.364709	0.1284098	-0.04324684	0	-0.08032447	0	-2.424267
3.381275	0.1284098	-0.04324684	0	0	0	2.424337
3.397901	0.1284098	-0.04324684	0	0	0	0
3.414409	0.1284098	-0.04324684	0	0	0	0
3.430976	0.1284098	-0.04324684	0	0	0	0
3.447542	0.1284098	-0.04324684	0	0	0	0
3.464109	0.1284098	-0.04324684	0	0	0	0
3.480676	0.1284098	-0.04324684	0	0	0	0
3.497243	0.1284098	-0.04324684	0	0	0	0
3.513809	0.1284098	-0.04324684	0	0	0	0
3.530376	0.1284098	-0.04324684	0	0	0	0
3.546942	0.1284098	-0.04324684	0	0	0	0
3.563509	0.1284098	-0.04324684	0	0	0	0
3.580076	0.1284098	-0.04324684	0	0	0	0
3.596674	0.1284098	-0.04324684	0	0	0	0
3.613209	0.1284098	-0.04324684	0	0	0	0
3.629776	0.1284098	-0.04324684	0	0	0	0
3.646342	0.1284098	-0.04324684	0	0	0	0
3.662954	0.1284098	-0.04324684	0	0	0	0
3.679651	0.1284098	-0.04324684	0	0	0	0
3.696043	0.1284098	-0.04324684	0	0	0	0
3.712609	0.1284098	-0.04324684	0	0	0	0
3.729175	0.1284098	-0.04324684	0	0	0	0
3.745742	0.1284098	-0.04324684	0	0	0	0
3.76231	0.1284098	-0.04324684	0	0	0	0
3.778875	0.1284098	-0.04324684	0	0	0	0
3.795442	0.1284098	-0.04324684	0	0	0	0
3.812009	0.1284098	-0.04324684	0	0	0	0
3.828576	0.1284098	-0.04324684	0	0	0	0
3.846488	0.1284098	-0.04324684	0	0	0	0
3.863058	0.1284098	-0.04324684	0	0	0	0
3.879626	0.1284098	-0.04324684	0	0	0	0
3.896192	0.1284098	-0.04324684	0	0	0	0
3.912761	0.1284098	-0.04324684	0	0	0	0
3.929367	0.1284098	-0.04324684	0	0	0	0
3.945892	0.1284098	-0.04324684	0	0	0	0
3.962459	0.1284098	-0.04324684	0	0	0	0
3.979026	0.1284098	-0.04324684	0	0	0	0
3.996003	0.1284098	-0.04324684	0	0	0	0
4.012159	0.1284098	-0.04324684	0	0	0	0
4.028726	0.1284098	-0.04324684	0	0	0	0
4.045651	0.1284098	-0.04324684	0	0	0	0
4.061859	0.1284098	-0.04324684	0	0	0	0
4.078426	0.1284098	-0.04324684	0	0	0	0
4.095762	0.1284098	-0.04324684	0	0	0	0
4.111558	0.1284098	-0.04324684	0	0	0	0
4.128126	0.1284098	-0.04324684	0	0	0	0
4.144692	0.1284098	-0.04324684	0	0	0	0
4.161259	0.1284098	-0.04324684	0	0	0	0
4.177825	0.1284098	-0.04324684	0	0	0	0
4.194394	0.1284098	-0.04324684	0	0	0	0
4.210958	0.1284098	-0.04324684	0	0	0	0
4.227525	0.1284098	-0.04324684	0	0	0	0
4.244091	0.1284098	-0.04324684	0	0	0	0
4.260658	0.1284098	-0.04324684	0	0	0	0
4.277225	0.1284098	-0.04324684	0	0	0	0
4.293791	0.1284098	-0.04324684	0	0	0	0
4.310357	0.1284098	-0.04324684	0	0	0	0
4.326925	0.1284098	-0.04324684	0	0	0	0
4.343492	0.1284098	-0.04324684	0	0	0	0
4.360058	0.1284098	-0.04324684	0	0	0	0
4.376628	0.1284098	-0.04324684	0	0	0	0
4.393291	0.1284098	-0.04324684	0	0	0	0
4.409758	0.1257485	-0.04324684	-0.1616114	0	-4.878074	0
4.426324	0.1190951	-0.04324684	-0.4016203	0	-7.265545	0
4.442891	0.1111111	-0.04324684	-0.481945	0	-2.424344	0
4.459457	0.1044578	-0.04324684	-0.4016092	2.248654E-07	2.424645	6.786745E-06
4.476024	0.09381238	-0.04457751	-0.6425746	-0.08032194	-7.272559	-2.424197
4.492591	0.08582835	-0.04457751	-0.4819307	0	4.848382	2.424191
4.51116	0.07518297	-0.04856953	-0.5732881	-0.214983	-2.600126	-6.11864
4.52773	0.06586827	-0.05123087	-0.5621232	-0.1606064	0.3177286	1.547445
4.544476	0.06320692	-0.05123087	-0.1589285	0	12.10209	4.820681
4.561102	0.05921491	-0.05256154	-0.2401013	-0.08003399	-2.432368	-2.398243
4.577447	0.05655356	-0.05389221	-0.1628281	-0.08141369	2.343678	-0.04184617
4.593997	0.05522288	-0.05389222	-0.08040062	-2.250857E-07	2.505768	2.474943
4.610563	0.05389221	-0.05389221	-0.08032633	2.248784E-07	0.002243071	1.358737E-05
4.627131	0.05256154	-0.05389221	-0.0803194	0	0.0002093527	-6.787136E-06
4.643697	0.05123087	-0.05522289	-0.08032425	-0.08032425	-0.0001463874	-2.42426
4.660264	0.0499002	-0.05522289	-0.0803194	0	0.0001463874	2.42426
4.67683	0.04856953	-0.05522289	-0.08032402	0	-0.0001396414	0
4.693397	0.04856953	-0.05522289	0	0	2.424289	0
4.710272	0.04723885	-0.05522289	-0.07885371	0	-2.357923	0
4.726531	0.04457751	-0.05522289	-0.1636918	0	-2.560491	0
4.743098	0.03925482	-0.05788423	-0.3212783	-0.1606392	-4.800739	-4.893738
4.759664	0.03260146	-0.05788423	-0.4016323	2.248784E-07	-2.425195	4.848318
4.77623	0.02860945	-0.05788423	-0.2409722	-2.248719E-07	4.849082	-1.357447E-05
4.793181	0.02328676	-0.05788423	-0.3140029	2.197671E-07	-2.178892	1.326593E-05
4.809364	0.02062541	-0.05788423	-0.1644542	0	4.513453	-6.632679E-06
4.826045	0.0166334	-0.05788423	-0.2393122	-2.233228E-07	-2.277806	-6.795342E-06
4.842497	0.01397206	-0.05788423	-0.1617611	2.264296E-07	2.340564	1.357394E-05
4.859064	0.01264138	-0.05788423	-0.08032414	0	2.466398	-6.85764E-06
4.875634	0.009980041	-0.05788423	-0.1606067	0	-2.422757	0
4.8922	0.009980041	-0.05788423	0	0	4.84684	0
4.908765	0.008649368	-0.05788423	-0.08032881	0	-2.424573	0
4.925334	0.007318696	-0.05788423	-0.08031024	0	0.0005605734	0
4.942111	0.004657352	-0.05788423	-0.1586392	-2.220596E-07	-2.349031	-6.659412E-06
4.958469	0.00332668	-0.05788423	-0.08134498	2.277298E-07	2.332744	1.357467E-05
4.975366	0.000665336	-0.05788423	-0.1575021	0	-2.290055	-6.847869E-06
4.991597	-0.00332668	-0.05788423	-0.2459492	0	-2.669838	0
5.008164	-0.008649368	-0.05655356	-0.3212781	0.0803194	-2.296732	2.44889
5.024731	-0.0166334	-0.05655356	-0.4819449	2.248719E-07	-4.849075	-2.424107
5.041297	-0.02328676	-0.05788423	-0.4016091	-0.08032194	2.424644	-2.424232
5.058441	-0.03260146	-0.0592149	-0.5433453	-0.07762086	-4.204574	0.080127
5.074431	-0.03925482	-0.06054557	-0.4160882	-0.08321755	3.840739	-0.1689133
5.090998	-0.0499002	-0.06320693	-0.6425748	-0.1606441	-6.956615	-2.378184
5.107583	-0.05655356	-0.06586826	-0.4011702	-0.1604675	7.281832	0.005328196
5.124131	-0.06320693	-0.06852961	-0.4020494	-0.1608202	-0.02653502	-0.01064648
5.140698	-0.06986028	-0.07252163	-0.4016088	-0.2409654	0.01330672	-2.420178
5.157265	-0.07252163	-0.0738523	-0.1606392	-0.08031962	7.272579	4.848367
5.176156	-0.07518297	-0.07518297	-0.1408833	-0.07044147	0.5571695	0.2785904
5.192726	-0.07651364	-0.07651364	-0.08030345	-0.08030345	1.708355	-0.2781081
5.209292	-0.07784431	-0.07651364	-0.08032656	0	-0.0006974724	2.423423
5.225859	-0.07784431	-0.07784431	0	-0.08031962	2.424365	-2.424156
5.242426	-0.07917498	-0.07784431	-0.08032148	4.497309E-07	-2.424142	2.424099
5.258993	-0.08050565	-0.07917498	-0.08032194	-0.08032194	-1.371679E-05	-2.424204
5.275564	-0.08050565	-0.07917498	0	0	2.423877	2.423877
5.293015	-0.08183633	-0.07917498	-0.07625075	0	-2.241197	0
5.308694	-0.08183633	-0.08050565	0	-0.08486786	2.301517	-2.561612
5.325358	-0.08183633	-0.08050565	0	0	0	2.624002
5.341828	-0.08316699	-0.08050565	-0.08079121	0	-2.438319	0
5.358619	-0.08316699	-0.08183632	0	-0.07925165	2.42902	-2.382733
5.37515	-0.08582834	-0.083167	-0.1609914	-0.08049615	-4.831474	-0.0373484
5.39153	-0.0924817	-0.08715901	-0.4061922	-0.2437147	-7.450462	-4.959419
5.408157	-0.1071191	-0.09514304	-0.8802968	-0.4801621	-14.36349	-7.163419
5.424702	-0.1124418	-0.09913506	-0.3217141	-0.2412853	16.83867	7.201028
5.441269	-0.1443779	-0.1097804	-1.927667	-0.6425561	-48.50057	-12.11857
5.459631	-0.160346	-0.1124418	-0.8696463	-0.1449408	30.29079	14.24656
5.477555	-0.172322	-0.1137725	-0.6681456	-0.07423849	5.553143	1.948479
5.497419	-0.1789754	-0.1137725	-0.3349527	0	8.817446	1.96461
5.514835	-0.1829674	-0.1151031	-0.2292149	-0.07640481	2.836346	-2.049507
5.53192	-0.1829674	-0.1151031	0	0	6.643702	2.214563
5.547974	-0.1842981	-0.1151031	-0.08288903	-9.282086E-07	-2.501272	-2.800976E-05
5.564542	-0.1842981	-0.1151031	0	0	2.540867	2.845316E-05
5.5818	-0.1842981	-0.1151031	0	0	0	0
5.601221	-0.1842981	-0.1151031	0	0	0	0
5.619174	-0.1856287	-0.1151031	-0.07411822	0	-1.983148	0
5.637451	-0.1869594	-0.1151031	-0.07280904	4.076654E-07	0.0361356	1.125227E-05
5.655431	-0.1896207	-0.1151031	-0.1480115	-4.143683E-07	-2.074163	-2.267255E-05
5.673533	-0.1949435	-0.1151031	-0.2940371	0	-4.046965	1.148384E-05
5.690279	-0.2069195	-0.1137725	-0.7151967	0.0794665	-12.08587	2.280423
5.706753	-0.2135729	-0.1137725	-0.4038531	4.522431E-07	9.372226	-2.392128
5.723255	-0.2268796	-0.1137725	-0.8063983	0	-12.20716	-1.371425E-05
5.739804	-0.2428476	-0.1124418	-0.9648612	0.08040525	-4.794496	2.432762
5.75643	-0.257485	-0.1111111	-0.8804234	0.08003813	2.545224	-0.01106616
5.772988	-0.2721224	-0.1111111	-0.8839975	0	-0.1077061	-2.41198
5.789504	-0.2814371	-0.1111111	-0.5639742	0	9.675867	0
5.806109	-0.2934132	-0.1111111	-0.7212142	4.486848E-07	-4.747356	1.35466E-05
5.822638	-0.3000665	-0.1111111	-0.4025482	-4.507818E-07	9.617635	-2.714674E-05
5.839836	-0.3040585	-0.1111111	-0.2321119	4.332095E-07	5.053454	2.621044E-05
5.866733	-0.3080505	-0.1111111	-0.1484191	-2.770046E-07	1.89799	-1.610627E-05
5.883305	-0.3200266	-0.1111111	-0.7226686	0	-13.21057	6.372471E-06
5.899871	-0.3213573	-0.1111111	-0.08032425	4.497438E-07	19.38376	1.357173E-05
5.916439	-0.3253493	-0.1124418	-0.2409519	-0.08031731	-4.847823	-2.42403
5.933005	-0.3280106	-0.1124418	-0.1606485	-4.497438E-07	2.423598	2.424003
5.949656	-0.3293413	-0.1124418	-0.0799171	0	2.430428	1.353959E-05
5.966144	-0.330672	-0.1124418	-0.08070755	0	-0.02385322	0
5.982706	-0.330672	-0.1137724	1.799441E-06	-0.08034416	2.442069	-2.431019
5.999511	-0.330672	-0.1137724	0	0	-5.392852E-05	2.407881
6.016233	-0.330672	-0.1137724	0	0	0	0
6.032405	-0.330672	-0.1137724	0	0	0	0
6.04929	-0.330672	-0.1137724	0	0	0	0
6.065538	-0.330672	-0.1137724	0	0	0	0
6.082105	-0.330672	-0.1137724	0	0	0	0
6.098672	-0.330672	-0.1137724	0	0	0	0
6.115239	-0.330672	-0.1137724	0	0	0	0
6.131805	-0.330672	-0.1137724	0	0	0	0
6.148372	-0.3320026	-0.1137725	-0.08032194	-4.497309E-07	-2.42426	-1.357369E-05
6.164938	-0.3359947	-0.1151031	-0.2409676	-0.08032194	-4.848435	-2.424177
6.181506	-0.3399867	-0.1164338	-0.2409589	-0.08032008	0.0002635385	5.621555E-05
6.198071	-0.3439787	-0.1190951	-0.2409779	-0.1606527	-0.0005738648	-2.424547
6.214643	-0.3546241	-0.1230872	-0.6424091	-0.2409029	-12.11435	-2.421784
6.231205	-0.3586161	-0.1244178	-0.2410195	-0.08033998	12.11414	4.84587
6.247772	-0.3705921	-0.1257485	-0.7228974	-0.08032194	-14.5452	0.0005446868
6.264384	-0.3785762	-0.1270792	-0.4806156	-0.08010291	7.302305	0.006601569
6.280906	-0.3852295	-0.1284098	-0.4027108	-0.08054217	2.35124	-0.01325739
6.297472	-0.3905522	-0.1284098	-0.321297	0	2.460545	2.434201
6.314039	-0.3932136	-0.1284098	-0.1606439	8.994618E-07	4.84873	2.714698E-05
6.330656	-0.3972056	-0.1284098	-0.2402398	0	-2.398653	-2.710563E-05
6.347172	-0.3985363	-0.1284098	-0.08056775	-9.022144E-07	4.819119	-2.723006E-05
6.363739	-0.3998669	-0.1284098	-0.08032013	0	0.007484596	2.727127E-05
6.380305	-0.3998669	-0.1284098	0	0	2.424171	0
6.396872	-0.3998669	-0.1284098	0	0	0	0
6.413877	-0.3998669	-0.1284098	0	0	0	0
6.430088	-0.3998669	-0.1284098	0	0	0	0
6.446569	-0.4011976	-0.1284098	-0.08073971	0	-2.469712	0
6.463382	-0.4011976	-0.1284098	0	0	2.425073	0
6.479704	-0.4025283	-0.1284098	-0.08152333	0	-2.460344	0
6.496271	-0.4051896	-0.1284098	-0.1606439	0	-2.405657	0
6.512839	-0.4091816	-0.1270792	-0.2409501	0.08031731	-2.423648	2.423981
6.539262	-0.411843	-0.1270792	-0.1007209	0	3.261851	-1.868249
6.555834	-0.4171657	-0.1270792	-0.321186	0	-5.127694	0
6.572401	-0.4184963	-0.1270792	-0.08032194	0	7.268352	0
6.588967	-0.419827	-0.1270792	-0.08032194	0	0	0
6.605534	-0.419827	-0.1270792	0	0	2.424226	0
6.6221	-0.419827	-0.1270792	0	0	0	0
6.638667	-0.419827	-0.1270792	0	0	0	0
6.655234	-0.419827	-0.1270792	0	0	0	0
6.6718	-0.419827	-0.1270792	0	0	0	0
6.688793	-0.419827	-0.1270792	0	0	0	0
6.705315	-0.419827	-0.1270792	0	0	0	0
6.72182	-0.419827	-0.1270792	0	0	0	0
6.738492	-0.419827	-0.1270792	0	0	0	0
6.754677	-0.419827	-0.1270792	0	0	0	0
6.7712	-0.419827	-0.1270792	0	0	0	0
6.787801	-0.419827	-0.1270792	0	0	0	0
6.804333	-0.419827	-0.1270792	0	0	0	0
6.820899	-0.419827	-0.1270792	0	0	0	0
6.837614	-0.419827	-0.1270792	0	0	0	0
6.854524	-0.419827	-0.1270792	0	0	0	0
6.871001	-0.419827	-0.1270792	0	0	0	0
6.887166	-0.419827	-0.1270792	0	0	0	0
6.903733	-0.419827	-0.1270792	0	0	0	0
6.920299	-0.419827	-0.1270792	0	0	0	0
6.936862	-0.419827	-0.1270792	0	0	0	0
6.953433	-0.419827	-0.1270792	0	0	0	0
6.969999	-0.419827	-0.1270792	0	0	0	0
6.986566	-0.419827	-0.1270792	0	0	0	0
7.003133	-0.419827	-0.1270792	0	0	0	0
7.019867	-0.419827	-0.1270792	0	0	0	0
7.036266	-0.419827	-0.1270792	0	0	0	0
7.052833	-0.419827	-0.1270792	0	0	0	0
7.069399	-0.419827	-0.1270792	0	0	0	0
7.085966	-0.4211577	-0.1270792	-0.08031962	0	-2.424156	0
7.102821	-0.423819	-0.1270792	-0.1578988	0	-2.321202	0
7.119099	-0.427811	-0.1244178	-0.2452344	0.1634908	-2.635907	4.934376
7.135669	-0.431803	-0.1217565	-0.2409173	0.1606106	0.1314266	-0.08768218
7.152233	-0.4357951	-0.1204258	-0.2410162	0.08033812	-0.002984864	-2.422698
7.1688	-0.4411178	-0.1177645	-0.3212767	0.1606392	-2.422547	2.423772
7.185367	-0.4451098	-0.1151031	-0.2409589	0.1606397	2.423997	1.394126E-05
7.272955	-0.4517631	-0.1111111	-0.0759619	0.04557718	1.584147	-1.104723
7.289658	-0.4650699	-0.1004657	-0.7966841	0.6373464	-6.910718	5.67424
7.309824	-0.4650699	-0.1004657	0	0	21.60848	-17.28676
7.327197	-0.4650699	-0.1004657	0	0	0	0
7.345038	-0.4650699	-0.1004657	0	0	0	0
7.362061	-0.4650699	-0.1004657	0	0	0	0
7.380882	-0.4650699	-0.1004657	0	0	0	0
7.400072	-0.4664005	-0.09913506	-0.06934264	0.06934264	-1.824275	1.824275
7.4172	-0.4677312	-0.09913506	-0.07768784	0	-0.2297797	-1.909303
7.434862	-0.4690619	-0.0978044	-0.07534084	0.07534043	0.06746091	2.165545
7.454345	-0.4703926	-0.09780439	-0.06829891	3.824127E-07	0.189579	-2.028261
7.47175	-0.4770459	-0.09647372	-0.3822652	0.07645339	-8.511312	2.072564
7.491308	-0.4823686	-0.09514305	-0.2721499	0.06803709	2.97907	-0.2276952
7.510557	-0.4863606	-0.09381238	-0.2073904	0.06912963	1.668761	0.02815318
7.52785	-0.4913833	-0.09242528	-0.290446	0.08021158	-2.272882	0.3032666
7.545547	-0.4919877	-0.08915213	-0.03415337	0.1849616	7.324872	2.993769
7.5643	-0.4921531	-0.08823463	-0.008818238	0.04892422	0.6950671	-3.732175
7.582769	-0.4927896	-0.08460739	-0.0344644	0.1963973	-0.6889982	3.961945
7.601713	-0.4935501	-0.08005218	-0.04014329	0.2404593	-0.1517907	1.177732
7.619596	-0.4944184	-0.0745014	-0.04855945	0.3103972	-0.2285348	1.899113
7.637166	-0.4952575	-0.06870278	-0.04775321	0.3300294	0.02274126	0.5537542
7.655367	-0.4961478	-0.06194612	-0.04891675	0.371208	-0.03252666	1.151144
7.673179	-0.4973807	-0.05111205	-0.06921633	0.6082694	-0.5636717	6.58264
7.694705	-0.4980078	-0.04458969	-0.02913455	0.3029941	1.018917	-7.760387
7.712835	-0.498814	-0.03441868	-0.04446556	0.5610103	-0.3865984	6.506332
7.731045	-0.4992379	-0.02759606	-0.02328059	0.3746643	0.5829694	-5.127882
7.748449	-0.499467	-0.02308254	-0.01315961	0.2593372	0.2841854	-3.238252
7.76821	-0.499564	-0.02087585	-0.004910359	0.1116656	0.221959	-3.973335
7.786063	-0.4996468	-0.01879096	-0.004635874	0.1167857	0.007297428	0.1361224
7.804575	-0.4996468	-0.01879096	0	0	0.1274833	-3.211525
7.822317	-0.4996468	-0.01879096	0	0	0	0
7.840636	-0.4996468	-0.01879096	0	0	0	0
7.858468	-0.4996468	-0.01879096	0	0	0	0
7.875922	-0.4996468	-0.01879096	0	0	0	0
7.89521	-0.4996468	-0.01879096	0	0	0	0
7.912265	-0.4996468	-0.01879096	0	0	0	0
7.928831	-0.4996468	-0.01879096	0	0	0	0
7.945399	-0.4996468	-0.01879096	0	0	0	0
7.961967	-0.4996468	-0.01879096	0	0	0	0
7.978536	-0.4996468	-0.01879096	0	0	0	0
8.007591	-0.499682	-0.01782858	-0.001213423	0.03312257	-0.02659601	0.7259861
8.024166	-0.4998211	-0.0133748	-0.008389672	0.2687071	-0.1572705	5.162934
8.040733	-0.4998878	-0.01059298	-0.004025875	0.1679107	0.1316693	-3.041342
8.057298	-0.4999779	-0.004701986	-0.005442527	0.3556425	-0.04275833	5.666247
8.073864	-0.4999997	-0.0005405402	-0.001315051	0.2511999	0.1245818	-3.152448
8.090431	-0.4999848	0.003901777	0.000897637	0.2681388	0.06678098	0.5112325
8.106997	-0.4999259	0.008609516	0.003556574	0.284176	0.08024919	0.4840184
8.123564	-0.4998471	0.01236371	0.004756491	0.2266166	0.03621564	-1.737246
8.14013	-0.4998086	0.01383345	0.002324276	0.08871888	-0.0734086	-4.162002
8.156697	-0.4996791	0.01791186	0.007819695	0.2461732	0.1658569	4.752117
8.173265	-0.4996726	0.01809052	0.0003885563	0.01078401	-0.2242722	-7.104059
8.189831	-0.499666	0.01827278	0.0003993725	0.01100186	0.0003264431	0.006574812
8.206681	-0.4996592	0.01845875	0.0004050173	0.01103628	0.0001689197	0.001030045
8.223205	-0.4996521	0.01864853	0.0004274645	0.01148597	0.0006726006	0.01347427
8.239791	-0.4996467	0.01879345	0.000328815	0.008737292	-0.002979479	-0.08301729
8.256098	-0.4996392	0.01899022	0.0004550705	0.01206656	0.003838349	0.1012146
8.272664	-0.4996335	0.01914052	0.0003472022	0.009072457	-0.003281347	-0.09108059
8.289231	-0.497006	0.01796407	0.1585957	-0.07101035	4.776088	-2.416974
8.305799	-0.4903526	0.0166334	0.401575	-0.080315	7.332918	-0.2808068
8.322366	-0.4823686	0.01397206	0.4819455	-0.1606482	2.425586	-2.424461
8.338931	-0.4743845	0.01264138	0.4819732	-0.08032881	0.0008374471	2.424253
8.355525	-0.4624085	0.008649368	0.7217116	-0.2405708	7.229907	-4.832496
8.372066	-0.4491018	0.004657352	0.8044929	-0.2413476	2.498345	-0.02344335
8.388632	-0.4371257	0.001996008	0.7229164	-0.1606483	-2.464039	2.437544
8.405887	-0.4264804	-0.001996008	0.6169513	-0.2313564	-3.133107	-2.090651
8.421765	-0.4251497	-0.00332668	0.08380067	-0.08380246	-16.09098	4.453315
8.438333	-0.4251497	-0.00332668	0	0	-2.582781	2.582836
8.4549	-0.4251497	-0.00332668	0	0	0	0
8.471466	-0.4251497	-0.00332668	0	0	0	0
8.488076	-0.4251497	-0.00332668	0	0	0	0
8.690674	-0.4251497	-0.00332668	0	0	0	0
8.717975	-0.3812375	0.00332668	1.608455	0.2437054	6.996373	1.060057
8.746266	-0.3506321	0.004657352	1.081782	0.047034	-9.473807	-3.53773
8.765552	-0.3080506	0.004657352	2.207988	0	23.67127	-0.9885888
8.785719	-0.2840985	0.004657352	1.187667	0	-25.86198	0
8.804965	-0.2481703	0.004657352	1.866775	0	17.23037	0
8.822721	-0.2215569	0.00332668	1.498884	-0.07494418	-9.942579	-2.02543
8.841733	-0.1976048	0.000665336	1.259811	-0.139979	-6.502205	-1.76879
8.859879	-0.1630073	-0.000665336	1.906663	-0.0733332	17.40814	1.793578
8.899158	-0.1403859	-0.000665336	0.5759027	-1.481867E-09	-23.17368	1.277014
8.918178	-0.08848969	-0.000665336	2.728632	3.06048E-09	36.92563	7.791459E-08
8.937596	-0.07119095	-0.000665336	0.890828	0	-47.81237	-7.962154E-08
8.957258	-0.0499002	-0.000665336	1.082843	-2.960429E-09	4.913305	-7.575184E-08
8.976077	-0.04191617	-0.000665336	0.424257	3.09305E-09	-17.11468	1.573118E-07
8.992644	-0.03925483	-0.000665336	0.160639	0	-7.449763	-8.740865E-08
9.009333	-0.03792415	-0.000665336	0.0797367	0	-2.432744	0
9.026448	-0.03792415	0.000665336	0	0.07774618	-2.358799	2.299915
9.042344	-0.03792415	0.000665336	0	0	0	-2.355129
9.058911	-0.03792415	0.000665336	0	0	0	0
9.075479	-0.03792415	0.000665336	0	0	0	0
9.092068	-0.03792415	0.000665336	0	0	0	0
9.108611	-0.03792415	0.000665336	0	0	0	0
9.125178	-0.03792415	0.000665336	0	0	0	0
9.141746	-0.03792415	0.000665336	0	0	0	0
9.158636	-0.03792415	0.000665336	0	0	0	0
9.174879	-0.03792415	0.000665336	0	0	0	0
9.191456	-0.03792415	0.000665336	0	0	0	0
9.209435	-0.03792415	0.000665336	0	0	0	0
9.226004	-0.03792415	0.000665336	0	0	0	0
9.242571	-0.03792415	0.000665336	0	0	0	0
9.259179	-0.03792415	0.000665336	0	0	0	0
9.275704	-0.03792415	0.000665336	0	0	0	0
9.292272	-0.03792415	0.000665336	0	0	0	0
9.308839	-0.03792415	0.000665336	0	0	0	0
9.325405	-0.03792415	0.000665336	0	0	0	0
9.341971	-0.03792415	0.000665336	0	0	0	0
9.358539	-0.03792415	0.000665336	0	0	0	0
9.375106	-0.03792415	0.000665336	0	0	0	0
9.391778	-0.03792415	0.000665336	0	0	0	0
9.408239	-0.03792415	0.000665336	0	0	0	0
9.424806	-0.03792415	0.000665336	0	0	0	0
9.441373	-0.03792415	0.000665336	0	0	0	0
9.45794	-0.03792415	0.000665336	0	0	0	0
9.47451	-0.03792415	0.000665336	0	0	0	0
9.491075	-0.03792415	0.000665336	0	0	0	0
9.507642	-0.03792415	0.000665336	0	0	0	0
9.524209	-0.03792415	0.000665336	0	0	0	0
9.540775	-0.03792415	0.000665336	0	0	0	0
9.557343	-0.03792415	0.000665336	0	0	0	0
9.573912	-0.03792415	0.000665336	0	0	0	0
9.590605	-0.03792415	0.000665336	0	0	0	0
9.607045	-0.03792415	0.000665336	0	0	0	0
9.623612	-0.03792415	0.000665336	0	0	0	0
9.640179	-0.03792415	0.000665336	0	0	0	0
9.656746	-0.03792415	0.000665336	0	0	0	0
9.673313	-0.03792415	0.000665336	0	0	0	0
9.689877	-0.03792415	0.000665336	0	0	0	0
9.706443	-0.03792415	0.000665336	0	0	0	0
9.72301	-0.03792415	0.000665336	0	0	0	0
9.739576	-0.03792415	0.000665336	0	0	0	0
9.756144	-0.03792415	0.000665336	0	0	0	0
9.772711	-0.03792415	0.000665336	0	0	0	0
9.789304	-0.03792415	0.000665336	0	0	0	0
9.805844	-0.03792415	0.000665336	0	0	0	0
9.822412	-0.03792415	0.000665336	0	0	0	0
9.838978	-0.03792415	0.000665336	0	0	0	0
9.855545	-0.03792415	0.000665336	0	0	0	0
9.872112	-0.03792415	0.000665336	0	0	0	0
9.888757	-0.03792415	0.000665336	0	0	0	0
9.905246	-0.03792415	0.000665336	0	0	0	0
9.921815	-0.03792415	0.000665336	0	0	0	0
9.938381	-0.02994012	-0.00332668	0.4819448	-0.2409724	14.5447	-7.272353
9.954948	-0.01929474	-0.007318696	0.6425562	-0.2409586	4.847401	0.0004186995
9.971514	-0.007318696	-0.01397206	0.7229589	-0.4016438	2.426699	-4.849771
9.988385	0.00332668	-0.02062542	0.6309697	-0.3943561	-2.751139	0.2179558
10.00465	0.01397206	-0.02727878	0.6546913	-0.409182	0.7159804	-0.4474846
10.02121	0.02461743	-0.03260146	0.6424822	-0.321241	-0.3718972	2.678737
10.03778	0.03393213	-0.03925483	0.5622366	-0.4015979	-2.421676	-2.425037
10.05435	0.04457751	-0.04590818	0.6426673	-0.4016668	2.427613	-0.002080575
10.07092	0.05522289	-0.05123087	0.6424821	-0.3212411	-0.005589256	2.427324
10.08748	0.0592149	-0.05389222	0.2409864	-0.1606577	-12.11716	4.846414
10.10404	0.06054557	-0.05522288	0.08033327	-0.08033305	-4.849218	2.424553
10.12061	0.06187625	-0.05655356	0.08031037	-0.08031061	-0.0006910115	0.0006772947
10.13718	0.06320692	-0.05655355	0.0803194	4.497179E-07	0.0002722885	2.423653
10.15375	0.06320692	-0.05655355	0	0	-2.424044	-1.357251E-05
10.17032	0.06320692	-0.05655355	0	0	0	0
10.18688	0.06320692	-0.05655355	0	0	0	0
10.20345	0.06320692	-0.05655355	0	0	0	0
10.23343	0.06320692	-0.05655355	0	0	0	0
10.25	0.06320692	-0.05788423	0	-0.08029211	0	-1.724865
10.26657	0.06320692	-0.05788423	0	0	0	2.422872
10.28313	0.06453759	-0.05788423	0.08033812	0	2.424958	0
10.2997	0.06453759	-0.05788423	0	0	-2.424679	0
10.31727	0.06453759	-0.05788423	0	0	0	0
10.33283	0.06453759	-0.05788423	0	0	0	0
10.3494	0.06453759	-0.05788423	0	0	0	0
10.36597	0.06453759	-0.05788423	0	0	0	0
10.38293	0.06453759	-0.05788423	0	0	0	0
10.3991	0.06453759	-0.05788423	0	0	0	0
10.41567	0.06453759	-0.05788423	0	0	0	0
10.43246	0.06453759	-0.05788423	0	0	0	0
10.4488	0.06453759	-0.05788423	0	0	0	0
10.51507	0.06453759	-0.05788423	0	0	0	0
10.53263	0.06586826	-0.0592149	0.07579882	-0.07579903	0.9041467	-0.9041492
10.55156	0.06586826	-0.0592149	0	0	-2.077441	2.077447
10.56813	0.06986027	-0.06187625	0.2409723	-0.1606485	6.788398	-4.525607
10.5847	0.07119095	-0.06320692	0.080315	-0.08031478	-4.848647	2.424476
10.60126	0.07252162	-0.06320692	0.08032425	0	0.00027905	2.423905
10.61783	0.07518297	-0.06586826	0.1606392	-0.1606388	2.423981	-4.848228
10.6344	0.07651364	-0.06586827	0.08031962	-4.497179E-07	-2.424051	4.848075
10.65099	0.07784431	-0.06586827	0.08017655	0	-0.004314118	1.356042E-05
10.66753	0.07917498	-0.06719893	0.0804674	-0.0804674	0.008778072	-2.428581
10.6841	0.07917498	-0.06719893	0	0	-2.43082	2.43082
10.70066	0.08183633	-0.06852961	0.16063	-0.080315	4.847823	-2.423912
10.71723	0.083167	-0.06852961	0.08032425	0	-2.423632	2.423912
10.7338	0.08449767	-0.06986028	0.0803238	-0.08032425	-1.349231E-05	-2.42433
10.75037	0.08715902	-0.07119095	0.1606115	-0.08030576	2.422948	0.0005580678
10.76797	0.08848969	-0.07252162	0.07557753	-0.07557712	-2.48806	0.138358
10.78476	0.09381238	-0.07385229	0.3171701	-0.07929263	7.025379	-0.1080451
10.80169	0.09514305	-0.07518297	0.07856489	-0.07856489	-7.07627	0.02158254
10.81768	0.0978044	-0.07518297	0.1664653	-4.660284E-07	2.669746	2.386188
10.83425	0.1017964	-0.07784432	0.2409862	-0.1606577	2.289235	-4.935296
10.85081	0.1031271	-0.07784431	0.08031917	8.994359E-07	-4.849219	4.848967
10.86738	0.1057884	-0.07917498	0.1606388	-0.08031962	2.424051	-2.424078
10.88395	0.1071191	-0.07917498	0.08032469	0	-2.423954	2.424121
10.90051	0.1071191	-0.07917498	0	0	-2.424274	0
10.91708	0.1071191	-0.07917498	0	0	0	0
10.94254	0.1071191	-0.07917498	0	0	0	0
10.95911	0.1071191	-0.07917498	0	0	0	0
10.97568	0.1071191	-0.07917498	0	0	0	0
10.99224	0.1071191	-0.07917498	0	0	0	0
11.00947	0.1071191	-0.07917498	0	0	0	0
11.02552	0.1071191	-0.07917498	0	0	0	0
11.04194	0.1071191	-0.07917498	0	0	0	0
11.05851	0.1071191	-0.07917498	0	0	0	0
11.07508	0.1071191	-0.07917498	0	0	0	0
11.09209	0.1071191	-0.07917498	0	0	0	0
11.10821	0.1071191	-0.07917498	0	0	0	0
11.12478	0.1071191	-0.07917498	0	0	0	0
11.14134	0.1071191	-0.07917498	0	0	0	0
11.15791	0.1071191	-0.07917498	0	0	0	0
11.1746	0.1071191	-0.07917498	0	0	0	0
11.19104	0.1071191	-0.07917498	0	0	0	0
11.20761	0.1071191	-0.07917498	0	0	0	0
11.22418	0.1071191	-0.07917498	0	0	0	0
11.24074	0.1071191	-0.07917498	0	0	0	0
11.25731	0.1071191	-0.07917498	0	0	0	0
11.27388	0.1071191	-0.07917498	0	0	0	0
11.29044	0.1071191	-0.07917498	0	0	0	0
11.30701	0.1071191	-0.07917498	0	0	0	0
11.32358	0.1071191	-0.07917498	0	0	0	0
11.34015	0.1057884	-0.07917498	-0.08032008	0	-2.424274	0
11.35672	0.1044578	-0.07917498	-0.08030948	0	0.000319731	0
11.37328	0.1004657	-0.08050565	-0.2409871	-0.08032887	-4.849259	-2.42433
11.38997	0.09514304	-0.08050565	-0.3190193	0	-2.346844	2.415916
11.40641	0.08715902	-0.08183633	-0.4853533	-0.08089237	-5.019971	-2.441337
11.42319	0.07651364	-0.083167	-0.634737	-0.07934223	-4.49663	0.04666105
11.43987	0.06586827	-0.08316699	-0.6382574	4.467094E-07	-0.1052459	2.371969
11.45611	0.05522288	-0.08582834	-0.6552681	-0.1638171	-0.5166551	-4.97553
11.47269	0.04324684	-0.08715902	-0.7223765	-0.08026463	-2.044458	2.54543
11.48937	0.03393214	-0.08848969	-0.5583475	-0.0797636	4.931527	0.01506343
11.50581	0.02727878	-0.08848969	-0.4047196	0	4.638233	2.408171
11.52238	0.02195609	-0.08982036	-0.321278	-0.08031917	2.528022	-2.433423
11.5397	0.02195609	-0.09115104	0	-0.07682212	9.480355	0.1031918
11.55551	0.02195609	-0.09115104	0	0	0	2.31863
11.57208	0.02195609	-0.09115104	0	0	0	0
11.58878	0.02195609	-0.09115104	0	0	0	0
11.6126	0.02195609	-0.09115104	0	0	0	0
11.62916	0.02195609	-0.09248171	0	-0.08031962	0	-1.988648
11.64717	0.02195609	-0.09248171	0	0	0	2.32328
11.6657	0.02195609	-0.09381238	0	-0.07182666	0	-1.966211
11.6835	0.02328676	-0.09647372	0.07475145	-0.1495027	2.057718	-2.138224
11.70344	0.0259481	-0.09780439	0.1334332	-0.06671667	1.554629	2.193215
11.72257	0.03260146	-0.09913506	0.3478017	-0.06956042	5.486094	-0.07277697
11.75045	0.04856953	-0.1044578	0.5727484	-0.1909161	4.785136	-2.581517
11.76829	0.08449767	-0.1124418	2.014404	-0.4476451	31.5355	-5.615819
11.78817	0.1204258	-0.1204258	1.80679	-0.4015088	-5.503979	1.223105
11.80474	0.176314	-0.1310712	3.373226	-0.64252	42.9711	-6.611516
11.82151	0.2122422	-0.1363939	2.142238	-0.317368	-36.92283	9.752755
11.83787	0.2441783	-0.1417166	1.951825	-0.3253036	-5.746845	-0.2395042
11.85444	0.2747838	-0.1470393	1.84703	-0.3212239	-3.182132	0.1238824
11.87101	0.3080506	-0.1483699	2.007989	-0.08031873	4.857333	7.269906
11.88758	0.3359947	-0.1510313	1.686516	-0.1606207	-9.701502	-2.42338
11.90415	0.3586161	-0.1523619	1.365432	-0.08031962	-9.689788	2.423353
11.92071	0.3772455	-0.1523619	1.124732	0	-7.265173	2.42433
11.93728	0.3865602	-0.1523619	0.5622697	0	-16.97758	0
11.95407	0.3918829	-0.1523619	0.3168626	8.870784E-07	-7.355381	2.658766E-05
11.97274	0.3958749	-0.1523619	0.2138317	-7.981712E-07	-2.904969	-4.751579E-05
11.9939	0.4011976	-0.1523619	0.2516443	0	0.9495727	2.004414E-05
12.01245	0.4025283	-0.1510313	0.07170894	0.07170894	-4.531447	1.8059
12.03094	0.4038589	-0.1510313	0.07199222	8.06202E-07	0.007647959	-1.935977
12.04925	0.4038589	-0.1510313	0	0	-1.956391	-2.190857E-05
12.06662	0.4038589	-0.1510313	0	0	0	0
12.08369	0.4038589	-0.1510313	0	0	0	0
12.10205	0.4038589	-0.1510313	0	0	0	0
12.11991	0.4038589	-0.1510313	0	0	0	0
12.13702	0.4038589	-0.1510313	0	0	0	0
12.15445	0.4038589	-0.1510313	0	0	0	0
12.17126	0.4038589	-0.1510313	0	0	0	0
12.19156	0.4038589	-0.1510313	0	0	0	0
12.21156	0.4011976	-0.1443779	-0.1330248	0.3325642	-3.300364	8.250966
12.22906	0.3679308	-0.1190951	-1.901591	1.445209	-47.16128	29.67022
12.24715	0.3293413	-0.09381238	-2.13249	1.397149	-6.487728	-1.350354
12.26517	0.2694611	-0.06054557	-3.323224	1.846235	-32.97091	12.435
12.28353	0.1949434	-0.01796407	-4.058242	2.318996	-20.20346	12.99479
12.30278	0.08848969	0.02727878	-5.531185	2.350754	-39.16554	0.8444465
12.3229	0.05123087	0.0405855	-1.85151	0.6612534	93.46494	-42.91385
12.36586	0.03659348	0.04191617	-0.3407503	0.03097734	23.94995	-9.99172
12.38243	0.03659348	0.04191617	0	0	5.724536	-0.520413
12.39913	0.03659348	0.04191617	0	0	0	0
12.41556	0.05788423	0.01929474	1.295779	-1.376765	39.10668	-41.55085
12.43213	0.07119095	0.009980041	0.8032416	-0.562269	-14.92667	24.68384
12.44902	0.1284098	-0.02860945	3.388206	-2.285069	77.26937	-51.49768
12.46556	0.172322	-0.0499002	2.653752	-1.286667	-21.96673	29.8611
12.48183	0.2055888	-0.06719894	2.04531	-1.063562	-18.5432	6.79949
12.49839	0.2441783	-0.08183633	2.329401	-0.8835654	8.65306	5.482482
12.51496	0.2801065	-0.08982036	2.168627	-0.4819173	-4.852294	12.12211
12.53153	0.3093812	-0.09913507	1.767132	-0.5622693	-12.1175	-2.425097
12.5481	0.3333333	-0.1017964	1.445751	-0.1606383	-9.699554	12.12159
12.56466	0.3466401	-0.1044578	0.8032407	-0.1606485	-19.39157	-0.0003062667
12.58174	0.3532934	-0.1044578	0.3896433	0	-12.29415	4.775262
12.5978	0.3559547	-0.1044577	0.1657319	4.639803E-07	-6.757852	1.400336E-05
12.61441	0.3559547	-0.1044577	0	0	-5.072905	-1.420202E-05
12.63093	0.3559547	-0.1044577	0	0	0	0
12.6475	0.3559547	-0.1044577	0	0	0	0
12.66764	0.3559547	-0.1044577	0	0	0	0
12.68609	0.3559547	-0.1044577	0	0	0	0
12.70266	0.3559547	-0.1044577	0	0	0	0
12.71922	0.3559547	-0.1044577	0	0	0	0
12.73579	0.3559547	-0.1044577	0	0	0	0
12.75236	0.3559547	-0.1044577	0	0	0	0
12.76892	0.3559547	-0.1044577	0	0	0	0
12.78549	0.3559547	-0.1044577	0	0	0	0
12.80206	0.3559547	-0.1044577	0	0	0	0
12.81871	0.3559547	-0.1044577	0	0	0	0
12.83519	0.3559547	-0.1044577	0	0	0	0
12.85176	0.3559547	-0.1044577	0	0	0	0
12.86833	0.3559547	-0.1044577	0	0	0	0
12.88506	0.3559547	-0.1044577	0	0	0	0
12.90146	0.3559547	-0.1044577	0	0	0	0
12.91803	0.3559547	-0.1044577	0	0	0	0
12.93462	0.3559547	-0.1044577	0	0	0	0
12.9512	0.3559547	-0.1044577	0	0	0	0
12.96785	0.3559547	-0.1044577	0	0	0	0
12.98529	0.3559547	-0.1044577	0	0	0	0
13.01867	0.3559547	-0.1044577	0	0	0	0
13.03548	0.3559547	-0.1044577	0	0	0	0
13.0518	0.3559547	-0.1044577	0	0	0	0
13.06851	0.3559547	-0.1044577	0	0	0	0
13.08542	0.3559547	-0.1044577	0	0	0	0
13.10199	0.3559547	-0.1044577	0	0	0	0
13.11867	0.3559547	-0.1044577	0	0	0	0
13.13513	0.3559547	-0.1044577	0	0	0	0
13.15174	0.3559547	-0.1044577	0	0	0	0
13.16826	0.3559547	-0.1044577	0	0	0	0
13.18483	0.3559547	-0.1044577	0	0	0	0
13.20139	0.3559547	-0.1044577	0	0	0	0
13.21797	0.3559547	-0.1044577	0	0	0	0
13.23453	0.3546241	-0.1044578	-0.08035946	-4.49951E-07	-2.425253	-1.357955E-05
13.25109	0.3546241	-0.1044578	0	0	2.425882	1.358307E-05
13.26766	0.3546241	-0.1044578	0	0	0	0
13.28433	0.3532934	-0.1044578	-0.0798325	0	-2.402021	0
13.30079	0.3519628	-0.1044578	-0.08082028	-4.525313E-07	-0.02981284	-1.365821E-05
13.31736	0.3466401	-0.1044578	-0.3212803	4.497179E-07	-7.279727	2.731484E-05
13.33393	0.3413174	-0.1044577	-0.3212785	4.497179E-07	5.486559E-05	0
13.35055	0.3359947	-0.1044578	-0.3202076	-4.482215E-07	0.03226467	-2.70547E-05
13.36706	0.3293413	-0.1044578	-0.4029667	0	-2.497746	1.352774E-05
13.38363	0.3253493	-0.1044577	-0.2409589	4.497179E-07	4.897723	1.35956E-05
13.4002	0.3200266	-0.1057884	-0.3212785	-0.08031962	-2.424051	-2.424064
13.41712	0.3173653	-0.1057884	-0.1572715	-4.402897E-07	4.897306	2.398359
13.43333	0.3147039	-0.1057884	-0.1641737	4.596129E-07	-0.2083222	2.716068E-05
13.4499	0.3120426	-0.1057884	-0.1606392	-4.497179E-07	0.1078316	-2.774229E-05
13.46646	0.3093812	-0.1057884	-0.1606485	0	-0.0002792829	1.357291E-05
13.48342	0.3053892	-0.1057884	-0.2353881	0	-2.229338	0
13.49969	0.3013972	-0.1057884	-0.2453081	4.578352E-07	-0.2985018	1.377665E-05
13.51616	0.2974052	-0.1057884	-0.2424382	0	0.0876593	-1.398412E-05
13.53273	0.2907518	-0.1057884	-0.4015519	-4.496662E-07	-4.816479	-1.36117E-05
13.54969	0.2840984	-0.1057884	-0.3922723	4.392747E-07	0.2767535	2.651162E-05
13.56586	0.2774451	-0.1057884	-0.4114006	0	-0.5773096	-1.325772E-05
13.58243	0.2707917	-0.1057884	-0.4015981	-4.497179E-07	0.2994065	-1.373619E-05
13.59899	0.265469	-0.1057884	-0.3213525	4.498215E-07	2.422097	2.715128E-05
13.6159	0.2588157	-0.1057884	-0.3934874	0	-2.155078	-1.343872E-05
13.63213	0.2508317	-0.1057884	-0.4920002	-9.182534E-07	-2.97295	-2.771135E-05
13.64873	0.241517	-0.1057884	-0.5610738	8.975758E-07	-2.104024	5.531127E-05
13.66579	0.2335329	-0.1057884	-0.4680939	-4.368186E-07	2.762487	-3.964565E-05
13.69483	0.2255489	-0.1057884	-0.2749023	0	4.190738	9.475526E-06
13.71444	0.2122422	-0.1057884	-0.6784874	0	-8.294746	0
13.73102	0.2055888	-0.1057884	-0.4015057	0	7.654949	0
13.74822	0.1989355	-0.1057884	-0.3866622	0	0.4394384	0
13.76744	0.1909514	-0.1057884	-0.4153944	3.876402E-07	-0.7887498	1.064142E-05
13.78463	0.1789754	-0.1057884	-0.696766	0	-7.728199	-1.064699E-05
13.80408	0.1709913	-0.1057884	-0.4104255	-3.830032E-07	7.814729	-1.045283E-05
13.83016	0.164338	-0.1057884	-0.255168	0	3.410196	8.412577E-06
13.85752	0.1523619	-0.1057884	-0.4376912	0	-3.415717	0
13.87504	0.1443779	-0.1044578	-0.4557602	0.07596017	-0.4026091	1.69252
13.89522	0.1390552	-0.1044578	-0.2636769	0	5.094443	-2.01462
13.91231	0.1324019	-0.1044578	-0.3893171	0	-3.370513	0
13.92902	0.1284098	-0.1044578	-0.2388952	0	4.450335	0
13.9456	0.1244178	-0.1044578	-0.2409029	-4.496144E-07	-0.06032626	-1.350951E-05
13.96216	0.1217565	-0.1044578	-0.1606207	0	2.422503	1.356705E-05
13.97986	0.1177645	-0.1044578	-0.2256444	0	-1.897906	0
14.00047	0.1137725	-0.1044578	-0.1936406	0	0.8354512	0
14.0184	0.1124418	-0.1044578	-0.07424244	0	3.098119	0
14.08148	0.1111111	-0.1044578	-0.021094	0	0.6561046	0
14.09951	0.1071191	-0.1044578	-0.2213255	0	-2.468352	0
14.11931	0.1071191	-0.1044578	0	0	5.849738	0
14.1365	0.1071191	-0.1044578	0	0	0	0
14.15387	0.1071191	-0.1044578	0	0	0	0
14.17223	0.1071191	-0.1044578	0	0	0	0
14.19136	0.1071191	-0.1044578	0	0	0	0
14.20911	0.1071191	-0.1044578	0	0	0	0
14.227	0.1071191	-0.1044578	0	0	0	0
14.24461	0.1071191	-0.1044578	0	0	0	0
14.26166	0.1071191	-0.1044578	0	0	0	0
14.28052	0.1057884	-0.1031271	-0.07055664	0.07055664	-1.964525	1.964525
14.30002	0.1044578	-0.1031271	-0.06825638	-7.643577E-07	0.05997315	-1.839594
14.31855	0.1031271	-0.1031271	-0.07179789	4.020017E-07	-0.09312737	3.067049E-05
14.33815	0.1017964	-0.1017964	-0.06788851	0.06788851	0.1025155	1.780224
14.35651	0.1004657	-0.1004657	-0.0724683	0.0724683	-0.1206387	0.1206387
14.37493	0.09913507	-0.1004657	-0.07225066	0	0.005917615	-1.97035
14.39462	0.09514304	-0.09780439	-0.202778	0.135185	-3.425548	3.547786
14.41203	0.08848968	-0.09381238	-0.3820885	0.2292529	-4.83319	2.535534
14.42987	0.083167	-0.0924817	-0.2984138	0.07460368	2.37377	-4.387249
14.44926	0.08050566	-0.08982036	-0.1372187	0.1372187	4.329542	1.681779
14.49017	0.07252163	-0.08449768	-0.1951575	0.1301049	-0.960753	-0.1179623
14.50674	0.0592149	-0.07651364	-0.8031493	0.4818895	-10.57765	6.120238
14.52331	0.05522289	-0.0738523	-0.2409582	0.1606388	16.96647	-9.695087
14.53988	0.05389221	-0.07385229	-0.08031985	4.497179E-07	4.848075	-4.848075
14.55651	0.05123087	-0.07119095	-0.1599852	0.1599854	-2.3994	4.818508
14.57301	0.0499002	-0.06986028	-0.08065834	0.08065812	2.394226	-2.394239
14.58957	0.0499002	-0.06986028	0	0	2.439469	-2.439462
14.60614	0.04856953	-0.06986028	-0.0803194	0	-2.424114	0
14.62271	0.04723885	-0.06986027	-0.08032447	4.497438E-07	-0.0001531334	1.357369E-05
14.63927	0.04723885	-0.06852961	0	0.08031917	2.424267	2.424094
14.65584	0.04723885	-0.06852961	0	0	0	-2.424037
14.67241	0.04723885	-0.06852961	0	0	0	0
14.68916	0.04723886	-0.06719894	4.449032E-07	0.07945926	1.335494E-05	2.385179
14.70555	0.04590818	-0.06719894	-0.08118913	0	-2.450165	-2.397947
14.72214	0.04590818	-0.06719894	0	0	2.461273	0
14.73868	0.04457751	-0.06586827	-0.08048619	0.08048642	-2.429428	2.429435
14.75524	0.04191617	-0.06453759	-0.1606483	0.08032425	-2.421875	-0.004899498
14.77181	0.04191617	-0.06453759	0	0	4.848514	-2.42426
14.78847	0.0405855	-0.06320692	-0.07988278	0.07988278	-2.404293	2.404293
14.80494	0.03925482	-0.06187625	-0.0807566	0.08075637	-0.02637115	0.0263644
14.82184	0.03792416	-0.06054558	-0.07875068	0.07875091	0.06010263	-0.06008923
14.83846	0.03526281	-0.05921491	-0.1601323	0.08006591	-2.428077	0.03923389
14.85471	0.03393213	-0.05655356	-0.08187012	0.1637402	2.380731	2.54537
14.87121	0.03127079	-0.05522289	-0.1613262	0.08066323	-2.426131	-2.536693
14.88813	0.02994012	-0.05389221	-0.07866666	0.07866677	2.47395	-0.05975275
14.90437	0.02860945	-0.05256154	-0.08194213	0.08194225	-0.09879413	0.09879436
14.92091	0.02860945	-0.05123087	0	0.08043052	2.499492	-0.04611252
14.93748	0.02727878	-0.05123087	-0.08031951	0	-2.425723	-2.429076
14.95417	0.02594811	-0.0499002	-0.07970004	0.07970004	0.01862331	2.396042
14.97061	0.02461743	-0.04856953	-0.08095338	0.08095338	-0.03782709	0.03782709
14.98718	0.02461743	-0.04723886	0	0.0803194	2.452779	-0.01920889
15.00374	0.02328676	-0.04723886	-0.08032414	0	-2.424257	-2.424114
15.02031	0.02328676	-0.04723886	0	0	2.424327	0
15.03688	0.02328676	-0.04723886	0	0	0	0
15.05344	0.02328676	-0.04723886	0	0	0	0
15.08116	0.02328676	-0.04723886	0	0	0	0
15.09782	0.02328676	-0.04723886	0	0	0	0
15.11482	0.02328676	-0.04723886	0	0	0	0
15.14594	0.02328676	-0.04723886	0	0	0	0
15.16251	0.02328676	-0.04723886	0	0	0	0
15.17954	0.02328676	-0.04723886	0	0	0	0
15.20109	0.02328676	-0.04723886	0	0	0	0
15.22327	0.02328676	-0.04723886	0	0	0	0
15.23984	0.02328676	-0.04723886	0	0	0	0
15.25641	0.02328676	-0.04723886	0	0	0	0
15.27303	0.02328676	-0.04723886	0	0	0	0
15.2896	0.02328676	-0.04723886	0	0	0	0
15.30611	0.02328676	-0.04723886	0	0	0	0
15.32268	0.02328676	-0.04723886	0	0	0	0
15.3397	0.02328676	-0.04723886	0	0	0	0
15.35581	0.02328676	-0.04723886	0	0	0	0
15.37238	0.02328676	-0.04723886	0	0	0	0
15.38894	0.02328676	-0.04723886	0	0	0	0
15.40631	0.02328676	-0.04723886	0	0	0	0
15.42208	0.02328676	-0.04723886	0	0	0	0
15.43865	0.02328676	-0.04723886	0	0	0	0
15.45521	0.02328676	-0.04723886	0	0	0	0
15.47197	0.02328676	-0.04723886	0	0	0	0
15.48912	0.02328676	-0.04723886	0	0	0	0
15.50491	0.02328676	-0.04723886	0	0	0	0
15.52148	0.02328676	-0.04723886	0	0	0	0
15.53834	0.02328676	-0.04723886	0	0	0	0
15.55461	0.02328676	-0.04723886	0	0	0	0
15.57127	0.02328676	-0.04723886	0	0	0	0
15.58774	0.02328676	-0.04723886	0	0	0	0
15.60436	0.02328676	-0.04723886	0	0	0	0
15.62088	0.02328676	-0.04723886	0	0	0	0
15.63744	0.02328676	-0.04723886	0	0	0	0
15.65401	0.02461743	-0.04723886	0.08031951	0	2.424117	0
15.67058	0.0259481	-0.04856953	0.08031951	-0.0803194	0	-2.424044
15.68714	0.0259481	-0.04856953	0	0	-2.424047	2.424044
15.70398	0.0259481	-0.04856953	0	0	0	0
15.72028	0.02727878	-0.0499002	0.0816593	-0.0816593	2.464554	-2.464554
15.73685	0.02860945	-0.05123087	0.08031015	-0.08031015	-0.04105184	0.04105184
15.75383	0.03127079	-0.05256154	0.156706	-0.07835313	2.276928	0.05832772
15.77065	0.03393214	-0.05389222	0.1582525	-0.07912626	0.04575389	-0.02287364
15.78654	0.03659348	-0.05522289	0.1674035	-0.08370177	0.2797209	-0.1398605
15.81203	0.03792415	-0.05655356	0.05221587	-0.05221573	-2.783532	0.7608664
15.8286	0.03925482	-0.05788423	0.08030091	-0.08030136	0.6678149	-0.667829
15.84517	0.03925482	-0.05788423	0	0	-2.423207	2.423221
15.86216	0.0405855	-0.0592149	0.07830916	-0.07830893	2.333421	-2.333415
15.8783	0.04191617	-0.0592149	0.08244555	2.308113E-07	0.1248439	2.363511
15.89487	0.04324684	-0.06054558	0.08032447	-0.08032447	-0.06485252	-2.455943
15.91143	0.04457751	-0.06054557	0.08031917	4.497179E-07	-0.0001598793	2.424281
15.928	0.04590818	-0.06187624	0.08031962	-0.08031962	1.349154E-05	-2.424064
15.94457	0.04723886	-0.06320692	0.08032425	-0.08032425	0.0001396414	-0.0001396414
15.96113	0.04856953	-0.06453759	0.08031962	-0.08031962	-0.0001396414	0.0001396414
15.9777	0.05123087	-0.06453759	0.1606386	0	2.424031	2.424051
15.99427	0.05522289	-0.06719894	0.240973	-0.1606485	2.424567	-4.848521
16.01083	0.05655355	-0.06852961	0.08032357	-0.0803238	-4.848687	2.424344
16.0274	0.05788423	-0.06852961	0.08031962	0	-0.0001191787	2.424247
16.04397	0.0592149	-0.06852961	0.0803291	0	0.0002860371	0
16.06053	0.0592149	-0.06852961	0	0	-2.424477	0
16.07761	0.06054557	-0.06986028	0.07793278	-0.07793301	2.316545	-2.316552
16.09367	0.06320692	-0.07119095	0.1657138	-0.08285657	2.649238	-0.1485935
16.11024	0.06586827	-0.07119095	0.1606392	-4.497179E-07	-0.1555334	2.539487
16.1268	0.06986029	-0.0738523	0.2409589	-0.1606392	2.424051	-4.848088
16.14337	0.07385229	-0.07385229	0.2409857	4.497697E-07	0.0008104384	4.848394
16.15993	0.07784431	-0.07651364	0.2409589	-0.1606392	-0.0008104384	-4.848394
16.1765	0.07784431	-0.07651364	0	0	-7.272153	4.848102
16.19307	0.07917498	-0.07651364	0.08031917	0	2.424037	0
16.20963	0.07917498	-0.07651364	0	0	-2.424177	0
16.2262	0.07917498	-0.07651364	0	0	0	0
16.24277	0.07917498	-0.07651364	0	0	0	0
16.25934	0.07917498	-0.07651364	0	0	0	0
16.2759	0.07917498	-0.07651364	0	0	0	0
16.29247	0.07917498	-0.07651364	0	0	0	0
16.30904	0.07917498	-0.07651364	0	0	0	0
16.32588	0.07917498	-0.07651364	0	0	0	0
16.34418	0.07917498	-0.07651364	0	0	0	0
16.36153	0.07917498	-0.07651364	0	0	0	0
16.3786	0.07917498	-0.07651364	0	0	0	0
16.39779	0.07917498	-0.07651364	0	0	0	0
16.41517	0.07917498	-0.07651364	0	0	0	0
16.43304	0.07917498	-0.07651364	0	0	0	0
16.45041	0.07917498	-0.07651364	0	0	0	0
16.46729	0.07917498	-0.07651364	0	0	0	0
16.50947	0.07917498	-0.07651364	0	0	0	0
16.52613	0.07917498	-0.07651364	0	0	0	0
16.5426	0.07917498	-0.07651364	0	0	0	0
16.55946	0.07917498	-0.07651364	0	0	0	0
16.57574	0.07917498	-0.07651364	0	0	0	0
16.59248	0.07917498	-0.07651364	0	0	0	0
16.60887	0.07917498	-0.07651364	0	0	0	0
16.62543	0.07917498	-0.07651364	0	0	0	0
16.64338	0.07917498	-0.07651364	0	0	0	0
16.65995	0.07917498	-0.07651364	0	0	0	0
16.67652	0.07917498	-0.07651364	0	0	0	0
16.69308	0.07917498	-0.07651364	0	0	0	0
16.70965	0.07917498	-0.07651364	0	0	0	0
16.72622	0.07917498	-0.07651364	0	0	0	0
16.74352	0.07917498	-0.07651364	0	0	0	0
16.76244	0.07917498	-0.07651364	0	0	0	0
16.78636	0.07917498	-0.07651364	0	0	0	0
16.80543	0.07917498	-0.07651364	0	0	0	0
16.82383	0.07917498	-0.07651364	0	0	0	0
16.84095	0.07917498	-0.07651364	0	0	0	0
16.85836	0.07917498	-0.07651364	0	0	0	0
16.8755	0.07917498	-0.07651364	0	0	0	0
16.8943	0.07917498	-0.07651364	0	0	0	0
16.9117	0.07917498	-0.07651364	0	0	0	0
16.92899	0.07917498	-0.07651364	0	0	0	0
16.94736	0.07917498	-0.07651364	0	0	0	0
16.96528	0.07917498	-0.07651364	0	0	0	0
16.98252	0.07917498	-0.07651364	0	0	0	0
17.00104	0.07917498	-0.07651364	0	0	0	0
17.01838	0.07917498	-0.07651364	0	0	0	0
17.03545	0.07917498	-0.07651364	0	0	0	0
17.05258	0.07917498	-0.07651364	0	0	0	0
17.06962	0.07917498	-0.07651364	0	0	0	0
17.08825	0.07917498	-0.07651364	0	0	0	0
17.10552	0.07917498	-0.07651364	0	0	0	0
17.12284	0.07917498	-0.07651364	0	0	0	0
17.14207	0.07917498	-0.07651364	0	0	0	0
17.15923	0.07917498	-0.07651364	0	0	0	0
17.17748	0.07917498	-0.07651364	0	0	0	0
17.22096	0.07917498	-0.07651364	0	0	0	0
17.23954	0.07917498	-0.07651364	0	0	0	0
17.25678	0.07917498	-0.07651364	0	0	0	0
17.27515	0.07917498	-0.07651364	0	0	0	0
17.29172	0.07917498	-0.07651364	0	0	0	0
17.30829	0.07917498	-0.07651364	0	0	0	0
17.32485	0.08183633	-0.07784431	0.1606577	-0.08032842	4.84866	-2.424316
17.34142	0.1044578	-0.09115103	1.365432	-0.8031954	36.36224	-21.81742
17.35799	0.1310712	-0.1057884	1.606391	-0.8835149	7.272155	-2.42405
17.37456	0.1616766	-0.1190951	1.847349	-0.8031945	7.272126	2.424077
17.39112	0.1936128	-0.1337325	1.927668	-0.8835158	2.424048	-2.424104
17.40769	0.2242182	-0.1457086	1.847562	-0.7229589	-2.417744	4.845896
17.42426	0.253493	-0.156354	1.767029	-0.6425561	-2.430635	2.426702
17.44083	0.2774451	-0.164338	1.445419	-0.4818059	-9.705106	4.850892
17.45739	0.2960745	-0.1696607	1.124732	-0.3213516	-9.678344	4.84252
17.47396	0.3040586	-0.1709913	0.4818623	-0.08031037	-19.40296	7.275057
17.49053	0.3080506	-0.172322	0.2409589	-0.08031962	-7.270061	-0.0002790339
17.50709	0.3093812	-0.172322	0.08031962	-8.994359E-07	-4.848103	2.424024
17.52366	0.3093812	-0.172322	0	0	-2.424191	2.714659E-05
17.54023	0.3093812	-0.172322	0	0	0	0
17.5568	0.3120426	-0.1709914	0.1606392	0.08031962	4.847823	2.423911
17.57413	0.322688	-0.1363939	0.6141323	1.995934	13.3769	56.50577
17.58993	0.32668	-0.08715901	0.252652	3.116037	-10.9095	33.80478
17.6065	0.3320026	-0.03792415	0.3212767	2.971822	2.120161	-4.455517
17.62306	0.3373253	0.008649368	0.3212785	2.811183	5.396615E-05	-4.848096
17.63963	0.338656	0.04058549	0.08031962	1.927668	-7.272153	-26.66453
17.65623	0.3399867	0.06986028	0.08018116	1.763983	-0.004175174	-4.935753
17.67276	0.338656	0.0978044	-0.08046605	1.689823	-4.848622	-2.238296
17.69035	0.334664	0.1270792	-0.2270048	1.664687	-4.294495	-0.7366406
17.70917	0.3320027	0.1510313	-0.1413961	1.272578	2.351404	-10.77002
17.72654	0.3320026	0.1630073	-1.715525E-06	0.689382	3.906587	-16.11312
17.74588	0.3320027	0.1749834	1.541231E-06	0.6193437	8.87186E-05	-1.90794
17.76474	0.3320027	0.1896208	0	0.7760351	-4.034798E-05	4.102033
17.78319	0.3320026	0.1976048	-1.615655E-06	0.4328332	-4.330616E-05	-9.199214
17.80367	0.3333333	0.2069195	0.06497078	0.4547947	1.66908	0.5641713
17.82255	0.3359947	0.2162342	0.140928	0.4932417	1.929525	0.9766598
17.84212	0.3359947	0.2188956	0	0.1359961	-3.664841	-9.290192
17.85975	0.3359947	0.2215569	0	0.150958	0	0.402211
17.87698	0.3359947	0.2215569	0	0	0	-4.330568
17.89616	0.3359947	0.2215569	0	0	0	0
17.93863	0.3359947	0.2215569	0	0	0	0
17.96321	0.3359947	0.2215569	0	0	0	0
17.98929	0.3359947	0.2215569	0	0	0	0
18.00888	0.3359947	0.2215569	0	0	0	0
18.02735	0.3359947	0.2215569	0	0	0	0
18.04392	0.3359947	0.2215569	0	0	0	0
18.06051	0.3359947	0.2215569	0	0	0	0
18.07706	0.3359947	0.2215569	0	0	0	0
18.09362	0.3359947	0.2215569	0	0	0	0
18.11019	0.3359947	0.2215569	0	0	0	0
18.12676	0.3359947	0.2215569	0	0	0	0
18.14332	0.3359947	0.2215569	0	0	0	0
18.15989	0.3359947	0.2215569	0	0	0	0
18.17823	0.3359947	0.2215569	0	0	0	0
18.1972	0.3359947	0.2215569	0	0	0	0
18.21443	0.3359947	0.2215569	0	0	0	0
18.2316	0.3359947	0.2215569	0	0	0	0
18.24914	0.3359947	0.2215569	0	0	0	0
18.26678	0.3359947	0.2215569	0	0	0	0
18.28523	0.3359947	0.2215569	0	0	0	0
18.30469	0.3359947	0.2215569	0	0	0	0
18.32196	0.3359947	0.2215569	0	0	0	0
18.34049	0.3359947	0.2215569	0	0	0	0
18.35854	0.3359947	0.2215569	0	0	0	0
18.37709	0.3359947	0.2215569	0	0	0	0
18.39667	0.3359947	0.2215569	0	0	0	0
18.41324	0.3359947	0.2215569	0	0	0	0
18.4298	0.3359947	0.2215569	0	0	0	0
18.44637	0.3359947	0.2215569	0	0	0	0
18.46294	0.3359947	0.2215569	0	0	0	0
18.4795	0.3359947	0.2215569	0	0	0	0
18.49613	0.3359947	0.2215569	0	0	0	0
18.51264	0.3359947	0.2215569	0	0	0	0
18.5292	0.3359947	0.2215569	0	0	0	0
18.54585	0.3359947	0.2215569	0	0	0	0
18.56234	0.3359947	0.2215569	0	0	0	0
18.57891	0.3359947	0.2215569	0	0	0	0
18.59547	0.3359947	0.2215569	0	0	0	0
18.62157	0.3359947	0.2215569	0	0	0	0
18.63814	0.3359947	0.2215569	0	0	0	0
18.65497	0.3359947	0.2215569	0	0	0	0
18.67127	0.3359947	0.2215569	0	0	0	0
18.68845	0.3359947	0.2215569	0	0	0	0
18.70441	0.3359947	0.2215569	0	0	0	0
18.72128	0.3359947	0.2215569	0	0	0	0
18.73755	0.3359947	0.2215569	0	0	0	0
18.75411	0.3359947	0.2215569	0	0	0	0
18.77068	0.3359947	0.2215569	0	0	0	0
18.78724	0.3359947	0.2215569	0	0	0	0
18.80381	0.3359947	0.2215569	0	0	0	0
18.82038	0.3359947	0.2215569	0	0	0	0
18.83694	0.3359947	0.2215569	0	0	0	0
18.85351	0.3359947	0.2215569	0	0	0	0
18.87008	0.3359947	0.2215569	0	0	0	0
18.88664	0.3359947	0.2215569	0	0	0	0
18.90321	0.3359947	0.2215569	0	0	0	0
18.92054	0.3359947	0.2215569	0	0	0	0
18.93635	0.3359947	0.2215569	0	0	0	0
18.95291	0.3359947	0.2215569	0	0	0	0
18.96948	0.3359947	0.2215569	0	0	0	0
18.98605	0.3359947	0.2215569	0	0	0	0
19.00262	0.3359947	0.2202262	-1.798665E-06	-0.08031128	-5.428068E-05	-2.42366
19.01924	0.3359947	0.2188956	1.793297E-06	-0.08006893	0.0001082312	0.007302218
19.03582	0.3359947	0.2175649	0	-0.08022816	-5.400679E-05	-0.004795248
19.05231	0.3359947	0.2175649	0	0	0	2.425479
19.07142	0.3359947	0.2175649	0	0	0	0
19.08875	0.3359947	0.2149035	-1.719489E-06	-0.1535504	-4.7187E-05	-4.213799
19.10953	0.3359947	0.2109115	1.434407E-06	-0.1921367	8.276027E-05	-1.01253
19.12719	0.3373254	0.2082502	0.07536527	-0.1507322	1.960911	1.077314
19.14429	0.3373254	0.2082502	0	0	-2.168429	4.336905
19.16225	0.3373254	0.2082502	0	0	0	0
19.17942	0.3373254	0.2082502	0	0	0	0
19.19853	0.3373254	0.2082502	0	0	0	0
19.21718	0.3373254	0.2082502	0	0	0	0
19.23565	0.3373254	0.2082502	0	0	0	0
19.25222	0.3373254	0.2082502	0	0	0	0
19.26879	0.3373254	0.2082502	0	0	0	0
19.28785	0.3373254	0.2082502	0	0	0	0
19.32567	0.3373254	0.2082502	0	0	0	0
19.34302	0.3373254	0.2082502	0	0	0	0
19.36118	0.3373254	0.2082502	0	0	0	0
19.37887	0.3373254	0.2082502	0	0	0	0
19.39836	0.3373254	0.2082502	0	0	0	0
19.41619	0.3373254	0.2082502	0	0	0	0
19.4337	0.3373254	0.2082502	0	0	0	0
19.45178	0.3373254	0.2082502	0	0	0	0
19.46929	0.3373254	0.2082502	0	0	0	0
19.48995	0.3373254	0.2082502	0	0	0	0
19.50817	0.3373254	0.2082502	0	0	0	0
19.52557	0.3373254	0.2082502	0	0	0	0
19.54223	0.3373254	0.2082502	0	0	0	0
19.56001	0.3373254	0.2082502	0	0	0	0
19.57735	0.3373254	0.2082502	0	0	0	0
19.59628	0.3373254	0.2082502	0	0	0	0
19.61369	0.3373254	0.2082502	0	0	0	0
19.63084	0.3373254	0.2082502	0	0	0	0
19.64909	0.3373254	0.2082502	0	0	0	0
19.66781	0.3373254	0.2082502	0	0	0	0
19.68676	0.3373254	0.2082502	0	0	0	0
19.70576	0.3373254	0.2082502	0	0	0	0
19.72371	0.3373254	0.2082502	0	0	0	0
19.74108	0.3373254	0.2082502	0	0	0	0
19.7591	0.3373254	0.2082502	0	0	0	0
19.77658	0.3373254	0.2082502	0	0	0	0
19.79525	0.3373254	0.2082502	0	0	0	0
19.8129	0.3373254	0.2082502	0	0	0	0
19.83021	0.3373254	0.2082502	0	0	0	0
19.84789	0.3373254	0.2082502	0	0	0	0
19.8651	0.3373254	0.2082502	0	0	0	0
19.88276	0.3373254	0.2082502	0	0	0	0
19.90129	0.3373254	0.2082502	0	0	0	0
19.91986	0.3373254	0.2082502	0	0	0	0
19.93742	0.3373254	0.2082502	0	0	0	0
19.95456	0.3373254	0.2082502	0	0	0	0
19.97198	0.3373254	0.2082502	0	0	0	0
19.99085	0.3373254	0.2082502	0	0	0	0
20.00883	0.3373254	0.2082502	0	0	0	0
20.02606	0.3373254	0.2082502	0	0	0	0
20.06757	0.3373254	0.2082502	0	0	0	0
20.08476	0.3373254	0.2082502	0	0	0	0
20.1043	0.3373254	0.2082502	0	0	0	0
20.1224	0.3413174	0.2095808	0.2205198	0.07350714	5.859011	1.953018
20.14068	0.342648	0.2095808	0.07277866	-8.149906E-07	-4.060328	-2.020199
20.16002	0.342648	0.2109115	0	0.06880995	-1.934448	1.828981
20.1775	0.3506321	0.2202262	0.4567308	0.5328517	12.4046	12.60317
20.19633	0.3612774	0.2322023	0.5654173	0.6360955	2.993437	2.843532
20.21665	0.3719228	0.245509	0.5238643	0.6548303	-1.061427	0.4785612
20.26028	0.3852295	0.2601464	0.3050257	0.3355283	-3.422253	-4.993326
20.28959	0.4011976	0.2734531	0.5448311	0.4540249	3.288015	1.624728
20.32154	0.4105123	0.2787758	0.2914525	0.1665448	-4.135588	-4.692185
20.34494	0.4147061	0.2793187	0.1792703	0.02320628	-2.026663	-2.589528
20.36151	0.4161241	0.2772017	0.08559211	-0.1277829	-2.344248	-3.778425
20.37808	0.4169017	0.2760308	0.04691816	-0.07064967	-1.166981	1.723985
20.39803	0.4189529	0.2729073	0.1028256	-0.1565727	1.530792	-2.352643
20.41641	0.4221698	0.2679041	0.1750107	-0.2721915	1.883249	-3.016399
20.4346	0.426349	0.261202	0.2297242	-0.3684063	1.495991	-2.630731
20.45398	0.4279729	0.2585328	0.08377872	-0.1377113	-3.884135	6.139626
20.47302	0.4307069	0.253952	0.1436135	-0.2406228	1.557397	-2.678612
20.49218	0.434404	0.2475746	0.1929484	-0.3328307	1.291541	-2.413916
20.50997	0.4371722	0.2426529	0.1556401	-0.2767133	-1.009772	1.518852
20.52931	0.44079	0.2360173	0.1870009	-0.3429913	0.8445703	-1.784917
20.54798	0.446198	0.2256264	0.2896787	-0.5565823	2.700955	-5.618544
20.56566	0.4490709	0.219853	0.1625324	-0.326637	-3.498362	6.32682
20.58373	0.4510671	0.2157277	0.1104468	-0.2282411	-1.456962	2.752378
20.60737	0.4537185	0.2100941	0.1121483	-0.2382923	0.04078817	-0.2409455
20.62956	0.4570905	0.202653	0.1520022	-0.3354236	0.8696795	-2.119571
20.65084	0.4606185	0.1945008	0.1657575	-0.3830183	0.3164426	-1.094924
20.67403	0.4632126	0.1882393	0.1118841	-0.2700563	-1.21146	2.540194
20.69555	0.4647736	0.1843515	0.07251379	-0.1806061	-0.8805287	2.000584
20.71849	0.4656646	0.1820892	0.03884552	-0.0986307	-0.757201	1.84363
20.74044	0.4664295	0.1801208	0.03484501	-0.0896676	-0.0891191	0.1996707
20.7627	0.4668027	0.1791513	0.01676575	-0.04355519	-0.4089367	1.043021
20.78345	0.4667468	0.1792969	-0.002692975	0.007016098	-0.4524357	1.175836
20.80475	0.4667468	0.1792969	0	0	0.06405183	-0.1668764
20.82676	0.4667468	0.1792969	0	0	0	0
20.90413	0.4667468	0.1792969	0	0	0	0
20.92608	0.4666543	0.1795378	-0.004217541	0.01097362	-0.04246359	0.110486
20.94772	0.4676661	0.1768854	0.04676206	-0.1225827	1.169664	-3.064285
20.9709	0.4690426	0.1732024	0.059375	-0.158864	0.2814083	-0.8094754
20.98747	0.4705237	0.1691374	0.08941242	-0.2453908	0.7556747	-2.17682
21.00438	0.4713689	0.1667673	0.04997286	-0.140136	-1.178082	3.144018
21.0206	0.4729186	0.1623206	0.09552081	-0.2740887	1.374561	-4.042467
21.03717	0.4746793	0.1570973	0.1062615	-0.315243	0.32753	-1.25497
21.05374	0.4764573	0.1516197	0.1073312	-0.3306662	0.03228458	-0.4654734
21.07056	0.47805	0.1465203	0.09466401	-0.3030844	-0.3793715	0.8260471
21.08687	0.479216	0.1426606	0.07150402	-0.2366795	-0.6990103	2.004221
21.10344	0.4799651	0.1401196	0.04520423	-0.1533428	-0.7998992	2.534657
21.12001	0.4812488	0.135645	0.07749353	-0.2701155	0.9744367	-3.524004
21.13658	0.4822778	0.1319397	0.06210429	-0.2236289	-0.464448	1.402969
21.15314	0.483125	0.1288032	0.05113293	-0.1893187	-0.3310974	1.035425
21.1697	0.484234	0.1245691	0.06697406	-0.2556893	0.4781964	-2.003531
21.18627	0.484884	0.1220148	0.03922528	-0.1541618	-0.8376045	3.064636
21.21222	0.4857321	0.1185931	0.03267849	-0.131837	-0.1539608	0.5250109
21.23267	0.4869172	0.1136292	0.05796804	-0.242795	0.5450549	-2.39143
21.25522	0.4871185	0.1127632	0.00892725	-0.03840634	-1.140604	4.753727
21.27737	0.4873185	0.111896	0.009029692	-0.03915603	0.002291925	-0.01677275
21.29877	0.4873185	0.111896	0	0	-0.2073203	0.8990162
21.32072	0.487517	0.1110278	0.009044195	-0.0395619	0.2086125	-0.912531
21.34205	0.4874718	0.111226	-0.00211817	0.009291796	-0.2579353	1.128891
21.36292	0.4880178	0.1088055	0.02616306	-0.1159882	0.6702001	-2.968849
21.38407	0.4883203	0.1074397	0.01430061	-0.06456936	-0.2822994	1.223653
21.4063	0.4886632	0.1058693	0.01542788	-0.07065947	0.02598774	-0.1403998
21.42779	0.4889623	0.1044791	0.01391569	-0.06466679	-0.03458628	0.137063
21.44776	0.4892996	0.1028879	0.01689375	-0.07969414	0.07182299	-0.3624207
21.46755	0.4894863	0.1019957	0.009435241	-0.04508697	-0.1876124	0.8705141
21.48791	0.4894863	0.1019957	0	0	-0.2350239	1.123079
21.50959	0.4894863	0.1019957	0	0	0	0
21.53038	0.4894863	0.1019957	0	0	0	0
21.5487	0.4894863	0.1019957	0	0	0	0
21.56527	0.4894863	0.1019957	0	0	0	0
21.58184	0.4894863	0.1019957	0	0	0	0
21.59841	0.4894863	0.1019957	0	0	0	0
21.61497	0.4894474	0.1021821	-0.002347528	0.01124745	-0.07084852	0.3394486
21.63154	0.4896334	0.1012874	0.01122496	-0.05400438	0.4096185	-1.969304
21.64811	0.4898178	0.1003916	0.01113142	-0.05406554	-0.002823104	-0.001845867
21.67682	0.4900008	0.09949491	0.006370392	-0.03122872	-0.1051408	0.5043203
21.74405	0.4907174	0.09589806	0.01066048	-0.053502	0.04471477	-0.2321501
21.76811	0.4908589	0.09517129	0.005876714	-0.03020284	-0.05240106	0.2552174
21.78843	0.4908589	0.09517129	0	0	-0.1324346	0.6806356
21.81084	0.4908589	0.09517129	0	0	0	0
