Time	Pos X	Pos Y	Vel X	Vel Y	Acc X	Acc Y
0.01656671	0.05256081	0.02994744	3.172676	1.807687	191.5091	109.1156
0.03313461	0.05256081	0.02994744	0	0	-95.75111	-54.55586
0.04970054	0.05256081	0.02994744	0	0	0	0
0.06626725	0.05256081	0.02994744	0	0	0	0
0.08293305	0.05256081	0.02994744	0	0	0	0
0.09943463	0.05256081	0.02994744	0	0	0	0
0.115967	0.05256081	0.02994744	0	0	0	0
0.1325333	0.05256081	0.02994744	0	0	0	0
0.1491	0.05256081	0.02994744	0	0	0	0
0.1656671	0.05256081	0.02994744	0	0	0	0
0.1822338	0.05256081	0.02994744	0	0	0	0
0.1988005	0.05256081	0.02994744	0	0	0	0
0.2153673	0.05256081	0.02994744	0	0	0	0
0.2319691	0.05256081	0.02994744	0	0	0	0
0.2484995	0.05256081	0.02994744	0	0	0	0
0.265067	0.05256081	0.02994744	0	0	0	0
0.2816341	0.05256081	0.02994744	0	0	0	0
0.2982004	0.05256081	0.02994744	0	0	0	0
0.3147675	0.05256081	0.02994744	0	0	0	0
0.3313338	0.05256081	0.02994744	0	0	0	0
0.3479073	0.05256081	0.02994744	0	0	0	0
0.3652647	0.05256081	0.02994744	0	0	0	0
0.3818353	0.05256081	0.02994744	0	0	0	0
0.3984028	0.05256081	0.02994744	0	0	0	0
0.4149664	0.05256081	0.02994744	0	0	0	0
0.4316764	0.05256081	0.02994744	0	0	0	0
0.4482329	0.05256081	0.0287251	0	-0.0738288	0	-2.219317
0.4646689	0.05256081	0.0287251	0	0	0	2.237746
0.481234	0.05256081	0.02750275	0	-0.07379024	0	-2.235988
0.4978023	0.05256081	0.02750275	0	0	0	2.227062
0.5143687	0.05256081	0.02750275	0	0	0	0
0.5310538	0.05256081	0.02750275	0	0	0	0
0.547502	0.05256081	0.02750275	0	0	0	0
0.5640913	0.05256081	0.02750275	0	0	0	0
0.5806358	0.05256081	0.02750275	0	0	0	0
0.5977505	0.05256081	0.02750275	0	0	0	0
0.6137689	0.05256081	0.02750275	0	0	0	0
0.6303356	0.05256081	0.02750275	0	0	0	0
0.6477699	0.05256081	0.02750275	0	0	0	0
0.6634686	0.05256081	0.02750275	0	0	0	0
0.6800353	0.05256081	0.02750275	0	0	0	0
0.696602	0.05256081	0.02750275	0	0	0	0
0.7136262	0.05256081	0.02750275	0	0	0	0
0.729735	0.05256081	0.02750275	0	0	0	0
0.7463025	0.05256081	0.02750275	0	0	0	0
0.7628692	0.05256081	0.02750275	0	0	0	0
0.7794356	0.05256081	0.02750275	0	0	0	0
0.7960019	0.05256081	0.02750275	0	0	0	0
0.8126065	0.05256081	0.02750275	0	0	0	0
0.8296134	0.05256081	0.02750275	0	0	0	0
0.8457021	0.05256081	0.02750275	0	0	0	0
0.8626489	0.05256081	0.02750275	0	0	0	0
0.8788354	0.05256081	0.02750275	0	0	0	0
0.8954021	0.05256081	0.02750275	0	0	0	0
0.9121516	0.05256081	0.02750275	0	0	0	0
0.9285352	0.05256081	0.02750275	0	0	0	0
0.9451694	0.05256081	0.02750275	0	0	0	0
0.9616682	0.05256081	0.02750275	0	0	0	0
0.9782353	0.05256081	0.02750275	0	0	0	0
0.9948016	0.05256081	0.02750275	0	0	0	0
1.011432	0.05256081	0.02750275	0	0	0	0
1.027936	0.05256081	0.02750275	0	0	0	0
1.044847	0.05256081	0.02750275	0	0	0	0
1.061069	0.05256081	0.02750275	0	0	0	0
1.077636	0.05256081	0.02750275	0	0	0	0
1.094266	0.05256081	0.02750275	0	0	0	0
1.111135	0.05256081	0.02750275	0	0	0	0
1.127335	0.05256081	0.02750275	0	0	0	0
1.143902	0.05256081	0.02750275	0	0	0	0
1.160625	0.05256081	0.02750275	0	0	0	0
1.177034	0.05256081	0.02750275	0	0	0	0
1.193602	0.05256081	0.02750275	0	0	0	0
1.210327	0.05256081	0.02750275	0	0	0	0
1.226733	0.05256081	0.02750275	0	0	0	0
1.243302	0.05256081	0.02750275	0	0	0	0
1.260066	0.05256081	0.02750275	0	0	0	0
1.276435	0.05256081	0.02750275	0	0	0	0
1.293002	0.05256081	0.02750275	0	0	0	0
1.309853	0.04889378	0.02750275	-0.2176115	0	-6.511793	0
1.326135	0.03055861	0.02505806	-1.126119	-0.1501493	-27.42	-4.531712
1.342739	-0.007334067	0.02383572	-2.282165	-0.07361821	-35.15361	2.327196
1.359268	-0.07089598	0.02505806	-3.845431	0.07395069	-47.18149	4.453831
1.376055	-0.1356802	0.02628041	-3.859208	0.07281522	-0.4135239	-0.03408186
1.392401	-0.180907	0.02750275	-2.766822	0.07477896	32.96971	0.05926841
1.409111	-0.2016868	0.02750275	-1.243529	1.114662E-07	46.0815	-2.262153
1.425532	-0.2090209	0.02750275	-0.4466252	-1.134301E-07	24.05276	-6.787996E-06
1.4421	-0.2102433	0.01650165	-0.07377966	-0.6640182	11.30227	-20.12875
1.458669	-0.2090209	0.00794524	0.07377435	-0.5164214	4.452965	4.454257
1.475619	-0.1943528	-0.01405696	0.865358	-1.298037	23.61595	-23.31855
1.491802	-0.1552377	-0.04950495	2.416988	-2.190395	46.8293	-26.932
1.508434	-0.09289818	-0.1020658	3.748206	-3.160252	40.56709	-29.5551
1.524935	-0.01222344	-0.16685	4.889026	-3.926036	34.43151	-23.11241
1.5415	0.0550055	-0.2316343	4.05856	-3.910977	-25.11546	0.4554307
1.558097	0.09534287	-0.2829728	2.430449	-3.093299	-49.09658	24.65751
1.574635	0.1075663	-0.3074196	0.7391009	-1.478201	-51.04425	48.74306
1.591339	0.106344	-0.3159761	-0.07317469	-0.5122246	-24.43471	29.0583
1.607767	0.1014546	-0.3196431	-0.2976359	-0.2232263	-6.77479	8.722677
1.624433	0.09656522	-0.3233101	-0.2933713	-0.2200281	0.1288674	0.09663997
1.640901	0.08923116	-0.3269772	-0.4453413	-0.2226722	-4.586448	-0.07979901
1.657468	0.08189708	-0.3318665	-0.4426984	-0.2951314	0.08000083	-2.193395
1.674034	0.07089598	-0.3367559	-0.6640657	-0.2951417	-6.681164	-0.0003112183
1.691022	0.05378315	-0.3465346	-1.007353	-0.5756271	-10.23083	-8.359177
1.707169	0.03911502	-0.3636475	-0.9084513	-1.05986	2.984882	-14.61428
1.723736	0.02322455	-0.383205	-0.959158	-1.180504	-1.550027	-3.687895
1.7403	0.01466813	-0.4015402	-0.5165702	-1.106936	13.35872	2.220518
1.756868	0.009778757	-0.4125413	-0.2951106	-0.6639997	6.684191	13.36889
1.773492	0.009778756	-0.4210977	-5.602286E-08	-0.5147022	8.891036	4.498007
1.790002	0.009778756	-0.4308764	0	-0.5922701	1.690767E-06	-2.340995
1.806568	0.009778757	-0.4320988	5.621919E-08	-0.07378837	1.699671E-06	15.67522
1.823135	0.009778757	-0.4320988	0	0	-1.69679E-06	2.227057
1.839745	0.009778757	-0.4320988	0	0	0	0
1.856755	0.009778757	-0.4320988	0	0	0	0
1.872834	0.009778757	-0.4320988	0	0	0	0
1.889403	0.009778757	-0.4320988	0	0	0	0
1.905967	0.009778757	-0.4320988	0	0	0	0
1.922533	0.009778757	-0.4320988	0	0	0	0
1.93965	0.009778757	-0.4320988	0	0	0	0
1.955669	0.009778757	-0.4320988	0	0	0	0
1.972234	0.0110011	-0.4308764	0.07378821	0.07378816	2.264557	2.264555
1.988802	0.0110011	-0.4296541	0	0.07377966	-2.227029	-0.0002563503
2.005545	0.0110011	-0.4272094	0	0.1460125	0	2.168461
2.021934	0.01222344	-0.4247647	0.07458483	0.1491693	2.251153	0.09528029
2.038543	0.01344579	-0.4174306	0.07359555	0.4415723	-0.0299806	8.861338
2.055328	0.01466813	-0.3990955	0.07281987	1.092298	-0.02322756	19.48584
2.071635	0.01589048	-0.3563134	0.07496215	2.623673	0.06473729	46.27626
2.088202	0.01711282	-0.3184207	0.07378179	2.287241	-0.03590668	-10.23426
2.104769	0.02077986	-0.2756387	0.2213459	2.582366	4.453558	8.907033
2.121335	0.02077986	-0.241413	-1.12436E-07	2.065985	-6.680477	-15.58499
2.138051	0.01589048	-0.2132991	-0.2924969	1.681856	-8.788363	-11.54153
2.154468	0.01344579	-0.1900746	-0.1489074	1.41462	4.333664	-8.065434
2.171034	0.0110011	-0.1741841	-0.1475724	0.9592211	0.04047413	-13.80686
2.187601	0.008556412	-0.1619606	-0.1475638	0.7378188	0.0002594985	-6.682225
2.204831	0.008556411	-0.1485149	-5.405303E-08	0.7803804	4.366206	1.259338
2.220738	0.008556411	-0.1350691	0	0.8452981	1.63123E-06	1.959107
2.237417	0.008556411	-0.1265126	0	0.5129889	0	-10.19788
2.253871	0.008556412	-0.1216233	5.660084E-08	0.2971499	1.708254E-06	-6.514174
2.270438	0.009778757	-0.1142892	0.07378302	0.442698	2.234427	4.407748
2.287562	0.0110011	-0.1069551	0.07138114	0.4282874	-0.07129162	-0.4277298
2.303571	0.01344579	-0.1008434	0.1527086	0.3817711	2.454574	-1.403924
2.320138	0.01344579	-0.09962107	-5.621798E-08	0.07378542	-4.687891	-9.454627
2.336706	0.01344579	-0.09839873	5.62115E-08	0.07377648	3.393129E-06	-0.0002700556
2.353711	0.01344579	-0.09839873	0	0	-1.674299E-06	-2.197484
2.369834	0.01466813	-0.09839873	0.07581	0	2.288346	0
2.386404	0.01466813	-0.09717639	5.620827E-08	0.07377223	-2.31885	2.256521
2.403451	0.01466813	-0.09595405	0	0.07170153	-1.67203E-06	-0.06159707
2.419535	0.01589048	-0.0947317	0.07600004	0.07600033	2.293917	0.1297511
2.436118	0.01711282	-0.09228701	0.07371083	0.1474214	-0.07007843	2.186375
2.452669	0.01711282	-0.09106467	0	0.07385299	-2.224629	-2.220332
2.469231	0.01711282	-0.09106467	0	0	0	-2.2303
2.485829	0.01711282	-0.08984233	0	0.07364295	0	2.220791
2.502367	0.01711282	-0.08861998	0	0.0739152	0	0.00821611
2.518935	0.01833517	-0.08739763	0.07377648	0.07377693	2.228535	-0.004176599
2.535499	0.01833517	-0.08495294	0	0.1475869	-2.226707	2.227719
2.552071	0.01955751	-0.08250825	0.07376184	0.1475237	2.226041	-0.00190897
2.568637	0.01955751	-0.08250825	0	0	-2.225913	-4.451825
2.585204	0.01955751	-0.08250825	0	0	0	0
2.60208	0.01955751	-0.08250825	0	0	0	0
2.618334	0.01955751	-0.08250825	0	0	0	0
2.634903	0.01955751	-0.08250825	0	0	0	0
2.651468	0.01955751	-0.08250825	0	0	0	0
2.668035	0.01955751	-0.08250825	0	0	0	0
2.68475	0.01955751	-0.08250825	0	0	0	0
2.701168	0.01955751	-0.08250825	0	0	0	0
2.717735	0.01955751	-0.08250825	0	0	0	0
2.734301	0.01955751	-0.08250825	0	0	0	0
2.750868	0.01955751	-0.08250825	0	0	0	0
2.767435	0.01955751	-0.08250825	0	0	0	0
2.784001	0.01955751	-0.08250825	0	0	0	0
2.800568	0.01955751	-0.08250825	0	0	0	0
2.817159	0.01955751	-0.08250825	0	0	0	0
2.833699	0.01955751	-0.08250825	0	0	0	0
2.850268	0.01955751	-0.08250825	0	0	0	0
2.866834	0.01955751	-0.08250825	0	0	0	0
2.883401	0.01955751	-0.08250825	0	0	0	0
2.899992	0.01955751	-0.08250825	0	0	0	0
2.916535	0.01955751	-0.08250825	0	0	0	0
2.933102	0.01955751	-0.08250825	0	0	0	0
2.949873	0.01955751	-0.08250825	0	0	0	0
2.966234	0.01955751	-0.08250825	0	0	0	0
2.982801	0.01955751	-0.08250825	0	0	0	0
2.999742	0.01955751	-0.08250825	0	0	0	0
3.015933	0.01955751	-0.08250825	0	0	0	0
3.032656	0.01955751	-0.08250825	0	0	0	0
3.049098	0.0220022	-0.07884122	0.1486851	0.2230272	4.483133	6.724684
3.065634	0.0220022	-0.07517419	0	0.2217607	-4.508608	-0.03840461
3.082201	0.0220022	-0.0727295	0	0.147564	0	-2.241389
3.099115	0.02322455	-0.07272949	0.07227069	4.405131E-07	2.158597	-4.407461
3.115682	0.02322455	-0.07150715	0	0.07377966	-2.158566	2.203623
3.132354	0.02322455	-0.07150715	0	0	0	-2.219631
3.148816	0.02322455	-0.07150715	0	0	0	0
3.165382	0.02322455	-0.07028481	1.124327E-07	0.0737824	3.404151E-06	2.233926
3.182079	0.02444689	-0.07028481	0.07321085	0	2.200968	-2.218154
3.198534	0.02444689	-0.07028481	0	0	-2.208332	0
3.215082	0.02444689	-0.07028481	0	0	0	0
3.232062	0.02444689	-0.07028481	0	0	0	0
3.248215	0.02444689	-0.07028481	0	0	0	0
3.264782	0.02444689	-0.07028481	0	0	0	0
3.281348	0.02444689	-0.07028481	0	0	0	0
3.298339	0.02444689	-0.07028481	0	0	0	0
3.314482	0.02444689	-0.07028481	0	0	0	0
3.331377	0.02444689	-0.07028481	0	0	0	0
3.347612	0.02444689	-0.07028481	0	0	0	0
3.364182	0.02444689	-0.07028481	0	0	0	0
3.381242	0.02444689	-0.07028481	0	0	0	0
3.397315	0.02444689	-0.07028481	0	0	0	0
3.413882	0.02444689	-0.07028481	0	0	0	0
3.430449	0.02444689	-0.07028481	0	0	0	0
3.447015	0.02444689	-0.07028481	0	0	0	0
3.463582	0.02444689	-0.07028481	0	0	0	0
3.480314	0.02444689	-0.07028481	0	0	0	0
3.496715	0.02444689	-0.07028481	0	0	0	0
3.515628	0.02444689	-0.06906246	-9.848848E-08	0.06463248	-2.788929E-06	1.830218
3.532196	0.02566924	-0.06661778	0.07377777	0.1475551	2.079406	2.337148
3.548762	0.02689158	-0.06539543	0.07378285	0.0737833	0.0001533527	-2.226421
3.565636	0.02811392	-0.0617284	0.07244225	0.2173268	-0.04008951	4.292555
3.581898	0.03055861	-0.05806136	0.1503287	0.2254931	2.350534	0.2464478
3.598464	0.03055861	-0.05317198	0	0.2951533	-4.579305	2.121986
3.615032	0.0330033	-0.04950495	0.1475532	0.2213294	4.45326	-2.228057
3.631598	0.03422565	-0.04583792	0.07378519	0.2213554	-2.226322	0.0007825092
3.648165	0.03422564	-0.04339323	-2.248622E-07	0.147564	-2.226928	-2.227107
3.664729	0.03544799	-0.04094854	0.07379369	0.1475872	2.227313	0.0006984773
3.681305	0.03544799	-0.0397262	0	0.07374464	-2.226746	-2.228219
3.697865	0.03544799	-0.03728151	2.249561E-07	0.1476254	6.788993E-06	2.229662
3.714767	0.03544799	-0.03728151	0	0	-6.722675E-06	-4.411695
3.731245	0.03544799	-0.03728151	0	0	0	0
3.747564	0.03544799	-0.03728151	0	0	0	0
3.764131	0.03544799	-0.03728151	0	0	0	0
3.780871	0.03544799	-0.03728151	0	0	0	0
3.797266	0.03544799	-0.03728151	0	0	0	0
3.813828	0.03544799	-0.03728151	0	0	0	0
3.830397	0.03544799	-0.03728151	0	0	0	0
3.846965	0.03544799	-0.03728151	0	0	0	0
3.863529	0.03544799	-0.03728151	0	0	0	0
3.880095	0.03544799	-0.03728151	0	0	0	0
3.896709	0.03544799	-0.03728151	0	0	0	0
3.913397	0.03544799	-0.03728151	0	0	0	0
3.929797	0.03544799	-0.03728151	0	0	0	0
3.946365	0.03544799	-0.03728151	0	0	0	0
3.963082	0.03544799	-0.03728151	0	0	0	0
3.979497	0.03544799	-0.03728151	0	0	0	0
3.996064	0.03544799	-0.03728151	0	0	0	0
4.012629	0.03544799	-0.03728151	0	0	0	0
4.029496	0.03544799	-0.03728151	0	0	0	0
4.045763	0.03544799	-0.03728151	0	0	0	0
4.062331	0.03544799	-0.03728151	0	0	0	0
4.078897	0.03544799	-0.03728151	0	0	0	0
4.095465	0.03544799	-0.03728151	0	0	0	0
4.112203	0.03544799	-0.03728151	0	0	0	0
4.128684	0.03544799	-0.03728151	0	0	0	0
4.145165	0.03544799	-0.03728151	0	0	0	0
4.161731	0.03544799	-0.03728151	0	0	0	0
4.178298	0.03544799	-0.03728151	0	0	0	0
4.195045	0.03544799	-0.03728151	0	0	0	0
4.21143	0.03544799	-0.03728151	0	0	0	0
4.227998	0.03544799	-0.03728151	0	0	0	0
4.24496	0.03544799	-0.03728151	0	0	0	0
4.261139	0.03544799	-0.03728151	0	0	0	0
4.277698	0.03544799	-0.03728151	0	0	0	0
4.294265	0.03544799	-0.03728151	0	0	0	0
4.310831	0.03544799	-0.03728151	0	0	0	0
4.327398	0.03544799	-0.03728151	0	0	0	0
4.344049	0.03544799	-0.03728151	0	0	0	0
4.360743	0.03544799	-0.03728151	0	0	0	0
4.377275	0.03544799	-0.03728151	0	0	0	0
4.393664	0.03544799	-0.03728151	0	0	0	0
4.41023	0.03544799	-0.03728151	0	0	0	0
4.427038	0.03544799	-0.03728151	0	0	0	0
4.443865	0.03544799	-0.03728151	0	0	0	0
4.460048	0.03544799	-0.03728151	0	0	0	0
4.476497	0.03544799	-0.03728151	0	0	0	0
4.49357	0.03544799	-0.03728151	0	0	0	0
4.509631	0.03544799	-0.03728151	0	0	0	0
4.526197	0.03544799	-0.03728151	0	0	0	0
4.542786	0.03544799	-0.03728151	0	0	0	0
4.559659	0.03544799	-0.03728151	0	0	0	0
4.575898	0.03544799	-0.03728151	0	0	0	0
4.592464	0.03544799	-0.03728151	0	0	0	0
4.609031	0.03544799	-0.03728151	0	0	0	0
4.626055	0.03544799	-0.03728151	0	0	0	0
4.642164	0.03544799	-0.03728151	0	0	0	0
4.658731	0.03544799	-0.03728151	0	0	0	0
4.675298	0.03544799	-0.03728151	0	0	0	0
4.691865	0.03544799	-0.03728151	0	0	0	0
4.708549	0.03544799	-0.03728151	0	0	0	0
4.724997	0.03544799	-0.03728151	0	0	0	0
4.741563	0.03544799	-0.03728151	0	0	0	0
4.758494	0.03544799	-0.03728151	0	0	0	0
4.774698	0.03544799	-0.03728151	0	0	0	0
4.791265	0.03544799	-0.03728151	0	0	0	0
4.808062	0.03544799	-0.03728151	0	0	0	0
4.824398	0.03544799	-0.03728151	0	0	0	0
4.840965	0.03544799	-0.03728151	0	0	0	0
4.857533	0.03544799	-0.03728151	0	0	0	0
4.874098	0.03544799	-0.03728151	0	0	0	0
4.890666	0.03544799	-0.03728151	0	0	0	0
4.907234	0.03544799	-0.03728151	0	0	0	0
4.9238	0.03544799	-0.03728151	0	0	0	0
4.940366	0.03544799	-0.03728151	0	0	0	0
4.956933	0.03544799	-0.03728151	0	0	0	0
4.9735	0.03544799	-0.03728151	0	0	0	0
4.990067	0.03544799	-0.03728151	0	0	0	0
5.006827	0.03544799	-0.03728151	0	0	0	0
5.023354	0.03544799	-0.03728151	0	0	0	0
5.039763	0.03544799	-0.03728151	0	0	0	0
5.056332	0.03544799	-0.03728151	0	0	0	0
5.073384	0.03544799	-0.03728151	0	0	0	0
5.089462	0.03544799	-0.03728151	0	0	0	0
5.106119	0.03544799	-0.03728151	0	0	0	0
5.1226	0.03544799	-0.03728151	0	0	0	0
5.139165	0.03544799	-0.03728151	0	0	0	0
5.155732	0.03544799	-0.03728151	0	0	0	0
5.172297	0.03544799	-0.03728151	0	0	0	0
5.188865	0.03544799	-0.03728151	0	0	0	0
5.205434	0.03544799	-0.03728151	0	0	0	0
5.221999	0.03544799	-0.03728151	0	0	0	0
5.238565	0.03544799	-0.03728151	0	0	0	0
5.255132	0.03544799	-0.03728151	0	0	0	0
5.271885	0.03544799	-0.03728151	0	0	0	0
5.288264	0.03544799	-0.03728151	0	0	0	0
5.304974	0.03544799	-0.03728151	0	0	0	0
5.321398	0.03544799	-0.03728151	0	0	0	0
5.337966	0.03544799	-0.03728151	0	0	0	0
5.354819	0.03544799	-0.03728151	0	0	0	0
5.371425	0.03544799	-0.03728151	0	0	0	0
5.387665	0.03544799	-0.03728151	0	0	0	0
5.404233	0.03544799	-0.03728151	0	0	0	0
5.421181	0.03544799	-0.03728151	0	0	0	0
5.437542	0.03544799	-0.03728151	0	0	0	0
5.453932	0.03544799	-0.03728151	0	0	0	0
5.470499	0.03544799	-0.03728151	0	0	0	0
5.487066	0.03544799	-0.03728151	0	0	0	0
5.503633	0.03544799	-0.03728151	0	0	0	0
5.520199	0.03544799	-0.03728151	0	0	0	0
5.536765	0.03544799	-0.03728151	0	0	0	0
5.553349	0.03544799	-0.03728151	0	0	0	0
5.569899	0.03544799	-0.03728151	0	0	0	0
5.586464	0.03544799	-0.03728151	0	0	0	0
5.603813	0.03544799	-0.03728151	0	0	0	0
5.620484	0.03544799	-0.03728151	0	0	0	0
5.636952	0.03544799	-0.03728151	0	0	0	0
5.653577	0.03544799	-0.03728151	0	0	0	0
5.670119	0.03544799	-0.03728151	0	0	0	0
5.686653	0.03544799	-0.03728151	0	0	0	0
5.703217	0.03544799	-0.03728151	0	0	0	0
5.720003	0.03544799	-0.03728151	0	0	0	0
5.736359	0.03544799	-0.03728151	0	0	0	0
5.75292	0.03544799	-0.03728151	0	0	0	0
5.769508	0.03544799	-0.03728151	0	0	0	0
5.786054	0.03544799	-0.03728151	0	0	0	0
5.802621	0.03544799	-0.03728151	0	0	0	0
5.819188	0.03544799	-0.03728151	0	0	0	0
5.835754	0.03544799	-0.03728151	0	0	0	0
5.852321	0.03544799	-0.03728151	0	0	0	0
5.869042	0.03544799	-0.03728151	0	0	0	0
5.885454	0.03544799	-0.03728151	0	0	0	0
5.902018	0.03544799	-0.03728151	0	0	0	0
5.918584	0.03544799	-0.03728151	0	0	0	0
5.935151	0.03544799	-0.03728151	0	0	0	0
5.951718	0.03544799	-0.03728151	0	0	0	0
5.968284	0.03544799	-0.03728151	0	0	0	0
5.984851	0.03544799	-0.03728151	0	0	0	0
6.001418	0.03544799	-0.03728151	0	0	0	0
6.017982	0.03544799	-0.03728151	0	0	0	0
6.034551	0.03544799	-0.03728151	0	0	0	0
6.051441	0.03544799	-0.03728151	0	0	0	0
6.068038	0.03544799	-0.03728151	0	0	0	0
6.084251	0.03544799	-0.03728151	0	0	0	0
6.100817	0.03544799	-0.03728151	0	0	0	0
6.117383	0.03544799	-0.03728151	0	0	0	0
6.13395	0.03544799	-0.03728151	0	0	0	0
6.150515	0.03544799	-0.03728151	0	0	0	0
6.167085	0.03544799	-0.03728151	0	0	0	0
6.18365	0.03544799	-0.03728151	0	0	0	0
6.200215	0.03544799	-0.03728151	0	0	0	0
6.216785	0.03544799	-0.03728151	0	0	0	0
6.233351	0.03544799	-0.03728151	0	0	0	0
6.249918	0.03544799	-0.03728151	0	0	0	0
6.266485	0.03544799	-0.03728151	0	0	0	0
6.283362	0.01344579	-0.03850385	-1.303666	-0.07242577	-38.9801	-2.165557
6.300018	-0.04522675	-0.03361448	-3.522623	0.2935518	-66.17215	10.91392
6.316182	-0.1307909	-0.02383572	-5.2934	0.6049601	-53.95383	9.488305
6.332751	-0.2151326	-0.009167584	-5.090294	0.8852683	6.204845	8.563358
6.349582	-0.2823616	0.004278206	-3.994483	0.7988968	32.80911	-2.586005
6.365884	-0.3275883	0.009167584	-2.774205	0.2999143	36.82965	-15.05997
6.38247	-0.3385894	0.01038993	-0.6633046	0.07370023	64.18465	-6.878329
6.39907	-0.3385894	0.01038993	0	0	19.98751	-2.220826
6.415586	-0.3385894	0.01038993	0	0	0	0
6.432581	-0.3385894	0.01038993	0	0	0	0
6.448718	-0.3385894	0.01038993	0	0	0	0
6.465284	-0.3398117	0.01038993	-0.07378317	0	-2.256165	0
6.481849	-0.3398117	0.01038993	0	0	2.226973	0
6.498559	-0.3410341	0.01038993	-0.07315298	0	-2.198428	0
6.514984	-0.3422565	0.01038993	-0.07442118	5.670271E-08	-0.03827437	1.711291E-06
6.531551	-0.3459235	0.01038993	-0.2213422	-5.621474E-08	-4.453246	-3.422582E-06
6.548116	-0.3495905	0.01038993	-0.2213677	5.622121E-08	-0.000769062	3.393519E-06
6.564685	-0.3520352	0.01038993	-0.1475505	-5.620989E-08	2.227838	-3.393226E-06
6.58125	-0.3532575	0.01038993	-0.07378742	0	2.226207	1.696442E-06
6.597818	-0.3532575	0.01038993	0	0	2.227005	0
6.614391	-0.3532575	0.01038993	0	0	0	0
6.632298	-0.3532575	0.01038993	0	0	0	0
6.64892	-0.3532575	0.01038993	0	0	0	0
6.665435	-0.3532575	0.01038993	0	0	0	0
6.682126	-0.3532576	0.009167584	-1.785561E-06	-0.07323491	-5.377304E-05	-2.205505
6.698569	-0.3532576	0.009167584	0	0	5.388912E-05	2.210266
6.715136	-0.3532576	0.009167584	0	0	0	0
6.731727	-0.3532576	0.009167584	0	0	0	0
6.748269	-0.3532576	0.009167584	0	0	0	0
6.764834	-0.3434788	0.009167584	0.5903156	0	17.83039	0
6.781402	-0.3251436	0.009167584	1.106681	0	15.58461	0
6.797967	-0.2994744	0.009167584	1.549577	0	13.36722	0
6.814535	-0.2725828	0.009167584	1.623131	0	2.219954	0
6.8311	-0.2420242	0.009167584	1.844681	0	6.686584	0
6.847666	-0.2077986	0.007945239	2.066043	-0.07378726	6.681299	-2.227096
6.864235	-0.1821293	0.006722894	1.54922	-0.07377234	-15.59754	0.000450386
6.880799	-0.1613495	0.00550055	1.254563	-0.07379783	-8.893267	-0.0007692868
6.897367	-0.1405696	0.004278206	1.254167	-0.07377449	-0.01195976	0.000704309
7.001456	-0.1222344	0.001833517	0.1761501	-0.02348668	-8.934558	0.4167833
7.018262	-0.07211833	-0.0006111722	2.98193	-0.14546	23.20843	-1.00892
7.034832	-0.07211833	-0.0006111722	0	0	-89.34425	4.358256
7.05142	-0.07211833	-0.0006111722	0	0	0	0
7.067964	-0.07211833	-0.0006111722	0	0	0	0
7.084533	-0.07089598	-0.0006111722	0.07377223	0	2.227861	0
7.1011	-0.06722895	-0.001833517	0.221349	-0.07378299	4.453684	-2.226679
7.11811	-0.06478425	-0.001833517	0.1437195	1.36877E-08	-2.311986	2.197429
7.134718	-0.05989488	-0.001833517	0.2944027	-7.009694E-09	4.48222	-6.156645E-07
7.150797	-0.05378316	-0.001833517	0.3800958	7.240017E-09	2.621613	4.359418E-07
7.167367	-0.04767144	-0.001833517	0.3688618	-7.026034E-09	-0.3440882	-4.36958E-07
7.183931	-0.03911502	-0.001833517	0.5165554	0	4.45753	2.120522E-07
7.200545	-0.02811392	-0.001833517	0.6621599	0	4.388542	0
7.217352	-0.01955751	-0.001833517	0.5090813	0	-4.580242	0
7.233634	-0.01833517	-0.001833517	0.07507736	0	-13.11639	0
7.250201	-0.01833517	-0.001833517	0	0	-2.285541	0
7.266767	-0.01833517	-0.001833517	0	0	0	0
7.283723	-0.01833517	-0.001833517	0	0	0	0
7.299899	-0.01833517	-0.001833517	0	0	0	0
7.316466	-0.01833517	-0.001833517	0	0	0	0
7.33317	-0.01833517	-0.001833517	0	0	0	0
7.349854	-0.01833517	-0.001833517	0	0	0	0
7.366167	-0.01833517	-0.001833517	0	0	0	0
7.382733	-0.01833517	-0.001833517	0	0	0	0
7.3993	-0.01833517	-0.001833517	0	0	0	0
7.415866	-0.01833517	-0.001833517	0	0	0	0
7.432432	-0.01833517	-0.001833517	0	0	0	0
7.448998	-0.01833517	-0.001833517	0	0	0	0
7.465564	-0.01833517	-0.001833517	0	0	0	0
7.482133	-0.01833517	-0.001833517	0	0	0	0
7.4987	-0.01833517	-0.001833517	0	0	0	0
7.515266	-0.01833517	-0.001833517	0	0	0	0
7.531833	-0.01833517	-0.001833517	0	0	0	0
7.5484	-0.01833517	-0.001833517	0	0	0	0
7.564967	-0.01833517	-0.001833517	0	0	0	0
7.581532	-0.01833517	-0.001833517	0	0	0	0
7.598181	-0.01833517	-0.001833517	0	0	0	0
7.614666	-0.01833517	-0.001833517	0	0	0	0
7.631233	-0.01833517	-0.001833517	0	0	0	0
7.647799	-0.01833517	-0.001833517	0	0	0	0
7.664366	-0.01833517	-0.001833517	0	0	0	0
7.680933	-0.01833517	-0.001833517	0	0	0	0
7.6975	-0.01833517	-0.001833517	0	0	0	0
7.714066	-0.01833517	-0.001833517	0	0	0	0
7.73064	-0.01833517	-0.001833517	0	0	0	0
7.747199	-0.01833517	-0.001833517	0	0	0	0
7.763763	-0.01833517	-0.001833517	0	0	0	0
7.78033	-0.01833517	-0.001833517	0	0	0	0
7.796899	-0.01833517	-0.001833517	0	0	0	0
7.813467	-0.01833517	-0.001833517	0	0	0	0
7.830227	-0.01833517	-0.001833517	0	0	0	0
7.846869	-0.01833517	-0.001833517	0	0	0	0
7.863165	-0.01833517	-0.001833517	0	0	0	0
7.879732	-0.01833517	-0.001833517	0	0	0	0
7.896299	-0.01833517	-0.001833517	0	0	0	0
7.912866	-0.01833517	-0.001833517	0	0	0	0
7.929433	-0.01833517	-0.001833517	0	0	0	0
7.946	-0.01833517	-0.001833517	0	0	0	0
7.962585	-0.01833517	-0.001833517	0	0	0	0
7.979173	-0.01833517	-0.001833517	0	0	0	0
7.995699	-0.01833517	-0.001833517	0	0	0	0
8.012266	-0.01833517	-0.001833517	0	0	0	0
8.028832	-0.01833517	-0.001833517	0	0	0	0
8.045401	-0.01833517	-0.001833517	0	0	0	0
8.061984	-0.01833517	-0.001833517	0	0	0	0
8.078533	-0.01833517	-0.001833517	0	0	0	0
8.095155	-0.01833517	-0.001833517	0	0	0	0
8.111666	-0.01833517	-0.001833517	0	0	0	0
8.128232	-0.01833517	-0.001833517	0	0	0	0
8.145169	-0.01833517	-0.001833517	0	0	0	0
8.161364	-0.01833517	-0.001833517	0	0	0	0
8.177933	-0.01833517	-0.001833517	0	0	0	0
8.194499	-0.01833517	-0.001833517	0	0	0	0
8.211065	-0.01833517	-0.001833517	0	0	0	0
8.227632	-0.01833517	-0.001833517	0	0	0	0
8.244267	-0.01833517	-0.001833517	0	0	0	0
8.261127	-0.01711282	-0.001833517	0.07250372	0	2.164616	0
8.277334	-0.01589048	-0.001833517	0.07541752	0	0.08811881	0
8.293899	-0.01466813	-0.001833517	0.07379369	7.028056E-09	-0.04954904	2.144527E-07
8.310464	-0.01222344	-0.001833517	0.1475787	0	2.227157	-2.121377E-07
8.327032	-0.01222344	-0.001833517	0	0	-4.454062	0
8.343598	-0.01222344	-0.001833517	0	0	0	0
8.360665	-0.01222344	-0.001833517	0	0	0	0
8.376802	-0.01222344	-0.001833517	0	0	0	0
8.393297	-0.01222344	-0.001833517	0	0	0	0
8.41021	-0.01222344	-0.001833517	0	0	0	0
8.426432	-0.01222344	-0.001833517	0	0	0	0
8.442998	-0.01222344	-0.001833517	0	0	0	0
8.459565	-0.01222344	-0.001833517	0	0	0	0
8.47613	-0.01222344	-0.001833517	0	0	0	0
8.493026	-0.01222344	-0.001833517	0	0	0	0
8.509266	-0.01222344	-0.001833517	0	0	0	0
8.525831	-0.01222344	-0.001833517	0	0	0	0
8.542399	-0.01222344	-0.001833517	0	0	0	0
8.558966	-0.01222344	-0.001833517	0	0	0	0
8.575602	-0.01222344	-0.001833517	0	0	0	0
8.592098	-0.01222344	-0.001833517	0	0	0	0
8.608665	-0.01222344	-0.001833517	0	0	0	0
8.625232	-0.01222344	-0.001833517	0	0	0	0
8.641925	-0.01222344	-0.001833517	0	0	0	0
8.658364	-0.01222344	-0.001833517	0	0	0	0
8.674931	-0.01222344	-0.001833517	0	0	0	0
8.691497	-0.01222344	-0.001833517	0	0	0	0
8.708569	-0.01222344	-0.001833517	0	0	0	0
8.724629	-0.01222344	-0.001833517	0	0	0	0
8.741372	-0.01222344	-0.001833517	0	0	0	0
8.757763	-0.01222344	-0.001833517	0	0	0	0
8.774329	-0.01222344	-0.001833517	0	0	0	0
8.790893	-0.01222344	-0.001833517	0	0	0	0
8.807562	-0.01222344	-0.001833517	0	0	0	0
8.82403	-0.01222344	-0.001833517	0	0	0	0
8.84087	-0.01222344	-0.001833517	0	0	0	0
8.857162	-0.01222344	-0.001833517	0	0	0	0
8.874035	-0.01222344	-0.001833517	0	0	0	0
8.890296	-0.01222344	-0.001833517	0	0	0	0
8.906964	-0.01222344	-0.001833517	0	0	0	0
8.923429	-0.01222344	-0.001833517	0	0	0	0
8.940532	-0.01222344	-0.001833517	0	0	0	0
8.956627	-0.01222344	-0.001833517	0	0	0	0
8.973129	-0.01222344	-0.001833517	0	0	0	0
8.989696	-0.01222344	-0.001833517	0	0	0	0
9.006264	-0.01222344	-0.001833517	0	0	0	0
9.022829	-0.01222344	-0.001833517	0	0	0	0
9.039396	-0.01222344	-0.001833517	0	0	0	0
9.056209	-0.01222344	-0.001833517	0	0	0	0
9.072948	-0.01222344	-0.001833517	0	0	0	0
9.089096	-0.01222344	-0.001833517	0	0	0	0
9.105899	-0.01222344	-0.001833517	0	0	0	0
9.122228	-0.01222344	-0.001833517	0	0	0	0
9.138845	-0.01222344	-0.001833517	0	0	0	0
9.155361	-0.01222344	-0.001833517	0	0	0	0
9.171928	-0.01222344	-0.001833517	0	0	0	0
9.188495	-0.01222344	-0.001833517	0	0	0	0
9.205565	-0.01222344	-0.001833517	0	0	0	0
9.221627	-0.01222344	-0.001833517	0	0	0	0
9.238194	-0.01222344	-0.001833517	0	0	0	0
9.254779	-0.01222344	-0.001833517	0	0	0	0
9.271327	-0.01222344	-0.001833517	0	0	0	0
9.287893	-0.01222344	-0.001833517	0	0	0	0
9.30446	-0.01222344	-0.001833517	0	0	0	0
9.321026	-0.01222344	-0.001833517	0	0	0	0
9.337593	-0.01222344	-0.001833517	0	0	0	0
9.354159	-0.01222344	-0.001833517	0	0	0	0
9.371065	-0.01222344	-0.001833517	0	0	0	0
9.387293	-0.01222344	-0.001833517	0	0	0	0
9.404204	-0.01222344	-0.001833517	0	0	0	0
9.420425	-0.01222344	-0.001833517	0	0	0	0
9.436994	-0.01222344	-0.001833517	0	0	0	0
9.453561	-0.01222344	-0.001833517	0	0	0	0
9.470127	-0.01222344	-0.001833517	0	0	0	0
9.486692	-0.01222344	-0.001833517	0	0	0	0
9.50326	-0.01222344	-0.001833517	0	0	0	0
9.519825	-0.01222344	-0.001833517	0	0	0	0
9.536392	-0.01222344	-0.001833517	0	0	0	0
9.553266	-0.0110011	-0.003055861	0.07244225	-0.07244228	2.166297	-2.166298
9.569526	-0.0110011	-0.004278206	-5.727639E-08	-0.07517426	-2.186376	-0.08245388
9.586092	-0.0110011	-0.004278206	0	0	1.744826E-06	2.290053
9.602809	-0.0110011	-0.004278206	0	0	0	0
9.619226	-0.0110011	-0.004278206	0	0	0	0
9.635791	-0.0110011	-0.004278206	0	0	0	0
9.652359	-0.0110011	-0.004278206	0	0	0	0
9.668925	-0.0110011	-0.004278206	0	0	0	0
9.685492	-0.0110011	-0.004278206	0	0	0	0
9.78638	-0.0110011	-0.004278206	0	0	0	0
9.806879	-0.0110011	-0.004278206	0	0	0	0
9.824169	-0.0110011	-0.004278206	0	0	0	0
9.840023	-0.0110011	-0.004278206	0	0	0	0
9.856638	-0.0110011	-0.004278206	0	0	0	0
9.873149	-0.0110011	-0.004278206	0	0	0	0
9.889732	-0.0110011	-0.004278206	0	0	0	0
9.906357	-0.0110011	-0.004278206	0	0	0	0
9.922849	-0.0110011	-0.004278206	0	0	0	0
9.939415	-0.0110011	-0.004278206	0	0	0	0
9.955982	-0.0110011	-0.004278206	0	0	0	0
9.972551	-0.0110011	-0.004278206	0	0	0	0
9.989117	-0.0110011	-0.004278206	0	0	0	0
10.0057	-0.0110011	-0.004278206	0	0	0	0
10.02225	-0.0110011	-0.004278206	0	0	0	0
10.03882	-0.0110011	-0.004278206	0	0	0	0
10.05563	-0.0110011	-0.004278206	0	0	0	0
10.07195	-0.0110011	-0.004278206	0	0	0	0
10.08852	-0.0110011	-0.004278206	0	0	0	0
10.10508	-0.0110011	-0.004278206	0	0	0	0
10.12165	-0.0110011	-0.004278206	0	0	0	0
10.13822	-0.0110011	-0.004278206	0	0	0	0
10.15484	-0.0110011	-0.004278206	0	0	0	0
10.17139	-0.0110011	-0.004278206	0	0	0	0
10.18792	-0.0110011	-0.004278206	0	0	0	0
10.20448	-0.0110011	-0.004278206	0	0	0	0
10.22145	-0.0110011	-0.004278206	0	0	0	0
10.23762	-0.0110011	-0.004278206	0	0	0	0
10.25419	-0.0110011	-0.004278206	0	0	0	0
10.27222	-0.0110011	-0.004278206	0	0	0	0
10.28891	-0.0110011	-0.004278206	0	0	0	0
10.30536	-0.0110011	-0.004278206	0	0	0	0
10.32193	-0.0110011	-0.004278206	0	0	0	0
10.33913	-0.0110011	-0.004278206	0	0	0	0
10.35506	-0.0110011	-0.004278206	0	0	0	0
10.37239	-0.0110011	-0.004278206	0	0	0	0
10.38819	-0.0110011	-0.004278206	0	0	0	0
10.40476	-0.0110011	-0.004278206	0	0	0	0
10.42132	-0.0110011	-0.004278206	0	0	0	0
10.438	-0.0110011	-0.004278206	0	0	0	0
10.45455	-0.0110011	-0.004278206	0	0	0	0
10.47113	-0.0110011	-0.004278206	0	0	0	0
10.48779	-0.0110011	-0.004278206	0	0	0	0
10.50426	-0.0110011	-0.004278206	0	0	0	0
10.52082	-0.0110011	-0.004278206	0	0	0	0
10.53747	-0.0110011	-0.004278206	0	0	0	0
10.55396	-0.0110011	-0.004278206	0	0	0	0
10.57052	-0.0110011	-0.004278206	0	0	0	0
10.58709	-0.0110011	-0.004278206	0	0	0	0
10.60402	-0.0110011	-0.004278206	0	0	0	0
10.62022	-0.0110011	-0.004278206	0	0	0	0
10.63679	-0.01222344	-0.00550055	-0.07378083	-0.07378086	-2.251595	-2.251596
10.65335	-0.0220022	-0.006722894	-0.5902469	-0.07378083	-15.58698	8.994359E-07
10.66992	-0.03911502	-0.009167584	-1.032991	-0.1475702	-13.36244	-2.227032
10.68649	-0.06356192	-0.009167584	-1.475617	0	-13.35886	4.453806
10.70334	-0.09534287	-0.009167584	-1.885524	0	-12.2644	0
10.72046	-0.1356802	-0.00794524	-2.356368	0.07140505	-13.85907	2.101775
10.73619	-0.1967975	-0.004278206	-3.886359	0.2331815	-46.58282	4.925521
10.75275	-0.2493583	-0.001833517	-3.172759	0.1475702	22.0981	-2.651132
10.76932	-0.2848063	-0.001833517	-2.139767	1.405449E-08	31.17757	-4.453934
10.78589	-0.3104755	-0.001833517	-1.549401	-7.026843E-09	17.8178	-6.362544E-07
10.80246	-0.3190319	-0.001833517	-0.5164038	0	31.17411	2.120583E-07
10.81972	-0.3214766	-0.001833517	-0.141642	0	11.07821	0
10.83582	-0.3226989	-0.001833517	-0.07591771	0	1.970125	0
10.85215	-0.3226989	-0.001833517	0	0	2.340443	0
10.86872	-0.3226989	-0.001833517	0	0	0	0
10.88529	-0.3226989	-0.001833517	0	0	0	0
10.90185	-0.3226989	-0.001833517	0	0	0	0
10.91842	-0.3226989	-0.001833517	0	0	0	0
10.93498	-0.3239213	-0.0006111723	-0.07378253	0.07378086	-2.226953	2.226903
10.95173	-0.3275883	-0.0006111722	-0.21896	3.475608E-09	-4.357759	-2.214663
10.96825	-0.3361447	0.0006111722	-0.5180157	0.07400237	-8.990069	2.224624
10.98468	-0.3434788	0.001833517	-0.4462827	0.07438029	2.176935	0.01146913
11.00125	-0.3544799	0.001833517	-0.6639519	7.026034E-09	-6.595465	-2.253753
11.01816	-0.3581469	0.001833517	-0.2168484	-6.884182E-09	13.35447	-4.154822E-07
11.03439	-0.3642586	0.003055861	-0.376688	0.07533775	-4.82383	2.273633
11.05095	-0.3642586	0.003055861	0	0	11.48783	-2.29757
11.06752	-0.3642586	0.003055861	0	0	0	0
11.08409	-0.3642586	0.003055861	0	0	0	0
11.10066	-0.3642586	0.003055861	0	0	0	0
11.11743	-0.3642586	0.003055861	0	0	0	0
11.13379	-0.3642586	0.003055861	0	0	0	0
11.15037	-0.3642586	0.003055861	0	0	0	0
11.16703	-0.3642586	0.003055861	0	0	0	0
11.18349	-0.3581469	0.003055861	0.3714696	1.415144E-08	11.21614	4.272881E-07
11.20005	-0.3410341	0.00550055	1.032991	0.1475702	20.03454	4.469241
11.21662	-0.3239213	0.006722895	1.032991	0.07378514	0	-2.226965
11.23321	-0.3092532	0.007945239	0.8843015	0.07369173	-4.484888	-0.00281766
11.24975	-0.294585	0.009167584	0.8864931	0.07387445	0.06614462	0.005514825
11.26632	-0.2762499	0.01038993	1.106713	0.07378089	6.65045	-0.002825343
11.28289	-0.2481359	0.01161227	1.697057	0.07378508	17.81714	0.0001263744
11.29949	-0.216355	0.01161227	1.914115	0	6.543867	-2.224469
11.31602	-0.1784623	0.01038993	2.292353	-0.07394685	11.41557	-2.231785
11.33259	-0.141792	0.009167584	2.213426	-0.07378089	-2.3847	0.005014137
11.34939	-0.110011	0.004278206	1.891195	-0.2909531	-9.65577	-6.507631
11.3659	-0.08800881	0.001833517	1.333043	-0.1481159	-16.75631	4.288124
11.38228	-0.07089598	-0.0006111722	1.044233	-0.1491761	-8.780254	-0.03223078
11.39899	-0.0660066	-0.0006111722	0.2927143	0	-22.71028	4.507982
11.41542	-0.06233957	-0.0006111722	0.2231798	0	-2.098556	0
11.43199	-0.05989488	-0.0006111723	0.1475617	-3.513421E-09	-2.29159	-1.064735E-07
11.44855	-0.05867254	-0.0006111723	0.07378072	0	-2.226713	1.060353E-07
11.46512	-0.05622784	-0.0006111723	0.1475874	0	2.227682	0
11.48169	-0.05256081	-0.0006111722	0.2213297	3.513219E-09	2.225674	1.060353E-07
11.49825	-0.05133847	-0.0006111722	0.07378072	0	-4.452908	-1.060261E-07
11.51482	-0.05133847	-0.0006111722	0	0	-2.226771	0
11.53139	-0.05011613	-0.0006111722	0.07378519	0	2.22697	0
11.54795	-0.04889378	-0.0006111722	0.07379369	0	0.0002565936	0
11.56452	-0.0440044	-0.0006111723	0.2950894	-3.513017E-09	6.678909	-1.060261E-07
11.5813	-0.04278206	-0.0006111722	0.07284562	3.468892E-09	-6.664173	2.093586E-07
11.59765	-0.04033737	-0.0006111722	0.1494982	0	2.313512	-1.046974E-07
11.61422	-0.03911502	-0.0006111722	0.07378519	0	-2.299983	0
11.63113	-0.03911502	-0.0006111722	0	0	-2.204193	0
11.64735	-0.03911502	-0.0006111722	0	0	0	0
11.66392	-0.03911502	-0.0006111722	0	0	0	0
11.68054	-0.03911502	-0.0006111722	0	0	0	0
11.69705	-0.03911502	-0.0006111722	0	0	0	0
11.71362	-0.03911502	-0.0006111722	0	0	0	0
11.73018	-0.03911502	-0.0006111722	0	0	0	0
11.74675	-0.03911502	-0.0006111722	0	0	0	0
11.76393	-0.03911502	-0.0006111722	0	0	0	0
11.77988	-0.03911502	-0.0006111722	0	0	0	0
11.79673	-0.03911502	-0.001833517	0	-0.07257764	0	-2.213073
11.8133	-0.03911502	-0.001833517	0	0	0	2.172204
11.82959	-0.03911502	-0.001833517	0	0	0	0
11.84615	-0.03911502	-0.001833517	0	0	0	0
11.86272	-0.03911502	-0.001833517	0	0	0	0
11.87957	-0.03911502	-0.001833517	0	0	0	0
11.89585	-0.03911502	-0.001833517	0	0	0	0
11.91242	-0.03911502	-0.001833517	0	0	0	0
11.92904	-0.03789268	-0.001833517	0.07354787	0	2.216171	0
11.94555	-0.03789268	-0.001833517	0	0	-2.219743	0
11.96218	-0.03789268	-0.001833517	0	0	0	0
11.97869	-0.03789268	-0.001833517	0	0	0	0
11.99525	-0.03789268	-0.001833517	0	0	0	0
12.01203	-0.03667033	-0.001833517	0.07283757	0	2.18416	0
12.02923	-0.03667033	-0.001833517	0	0	-2.14394	0
12.04605	-0.03667033	-0.001833517	0	0	0	0
12.06236	-0.03667033	-0.001833517	0	0	0	0
12.07893	-0.03667033	-0.001833517	0	0	0	0
12.09595	-0.03544799	-0.001833517	0.07179692	-6.837907E-09	2.137368	-2.03562E-07
12.11206	-0.03544799	-0.001833517	0	0	-2.166836	2.063684E-07
12.12904	-0.03422565	-0.001833517	0.07198263	6.855572E-09	2.17532	2.071759E-07
12.14519	-0.03422565	-0.001833517	0	0	-2.172565	-2.069135E-07
12.16176	-0.03422565	-0.001833517	0	0	0	0
12.17833	-0.0330033	-0.001833517	0.07378519	0	2.22697	0
12.19489	-0.0330033	-0.001833517	0	0	-2.226906	0
12.21156	-0.0330033	-0.001833517	0	0	0	0
12.22803	-0.0330033	-0.001833517	0	0	0	0
12.24459	-0.0330033	-0.001833517	0	0	0	0
12.26116	-0.0330033	-0.001833517	0	0	0	0
12.27787	-0.03178096	-0.001833517	0.07313242	-6.965098E-09	2.197401	-2.092795E-07
12.29429	-0.03055861	-0.001833517	0.0744495	7.090515E-09	0.03975196	4.242237E-07
12.3112	-0.03055861	-0.001833517	0	0	-2.234222	-2.127857E-07
12.32744	-0.03055861	-0.001833517	0	0	0	0
12.34399	-0.03055861	-0.001833517	0	0	0	0
12.36079	-0.03055861	-0.001833517	0	0	0	0
12.37713	-0.03055861	-0.001833517	0	0	0	0
12.39397	-0.03055861	-0.001833517	0	0	0	0
12.41026	-0.03055861	-0.001833517	0	0	0	0
12.42697	-0.03055861	-0.001833517	0	0	0	0
12.4435	-0.03055861	-0.001833517	0	0	0	0
12.46	-0.03055861	-0.001833517	0	0	0	0
12.47653	-0.03055861	-0.001833517	0	0	0	0
12.4931	-0.03055861	-0.001833517	0	0	0	0
12.50966	-0.02933627	-0.001833517	0.07378508	0	2.226902	0
12.52623	-0.02933627	-0.001833517	0	0	-2.227031	0
12.54306	-0.02933627	-0.001833517	0	0	0	0
12.55936	-0.02933627	-0.001833517	0	0	0	0
12.57593	-0.02933627	-0.001833517	0	0	0	0
12.59251	-0.02933627	-0.001833517	0	0	0	0
12.60906	-0.02811392	-0.001833517	0.07385311	0	2.229084	0
12.62563	-0.02811392	-0.001833517	0	0	-2.230047	0
12.6422	-0.02811392	-0.001833517	0	0	0	0
12.65907	-0.02689158	-0.001833517	0.07243007	0	2.165748	0
12.67533	-0.02689158	-0.001833517	0	0	-2.186007	0
12.6919	-0.02689158	-0.001833517	0	0	0	0
12.70846	-0.02689158	-0.001833517	0	0	0	0
12.72503	-0.02566923	-0.001833517	0.07378508	7.027247E-09	2.226902	2.120888E-07
12.74159	-0.02566923	-0.001833517	0	0	-2.227095	-2.121072E-07
12.75816	-0.02566923	-0.001833517	0	0	0	0
12.77473	-0.02566923	-0.001833517	0	0	0	0
12.7913	-0.02322455	-0.001833517	0.1475447	-7.026034E-09	4.453035	-2.120522E-07
12.80786	-0.02077986	-0.001833517	0.1475617	-7.026843E-09	0.000512649	-2.44048E-11
12.8245	-0.01955751	-0.001833517	0.07348485	6.998642E-09	-2.231148	4.224389E-07
12.84099	-0.01955751	-0.001833517	0	0	-2.217968	-2.112377E-07
12.85756	-0.01955751	-0.001833517	0	0	0	0
12.87413	-0.01955751	-0.001833517	0	0	0	0
12.89069	-0.01955751	-0.001833517	0	0	0	0
12.90733	-0.01955751	-0.001833517	0	0	0	0
12.92389	-0.01955751	-0.001833517	0	0	0	0
12.94041	-0.01833517	-0.001833517	0.07400662	0	2.237582	0
12.95697	-0.01833517	-0.001833517	0	0	-2.237066	0
12.97353	-0.01833517	-0.001833517	0	0	0	0
12.99009	-0.01833517	-0.001833517	0	0	0	0
13.00666	-0.01833517	-0.001833517	0	0	0	0
13.02323	-0.01833517	-0.001833517	0	0	0	0
13.03979	-0.01833517	-0.001833517	0	0	0	0
13.05636	-0.01833517	-0.001833517	0	0	0	0
13.07292	-0.01833517	-0.001833517	0	0	0	0
13.08949	-0.01833517	-0.001833517	0	0	0	0
13.10606	-0.01833517	-0.001833517	0	0	0	0
13.12263	-0.01833517	-0.001833517	0	0	0	0
13.1397	-0.01833517	-0.001833517	0	0	0	0
13.15576	-0.01833517	-0.001833517	0	0	0	0
13.17233	-0.01833517	-0.001833517	0	0	0	0
13.18907	-0.01833517	-0.001833517	0	0	0	0
13.20546	-0.01833517	-0.001833517	0	0	0	0
13.22203	-0.01833517	-0.001833517	0	0	0	0
13.2386	-0.01833517	-0.001833517	0	0	0	0
13.25516	-0.01833517	-0.001833517	0	0	0	0
13.27173	-0.01833517	-0.001833517	0	0	0	0
13.28829	-0.01833517	-0.001833517	0	0	0	0
13.30486	-0.01833517	-0.001833517	0	0	0	0
13.32143	-0.01833517	-0.001833517	0	0	0	0
13.33839	-0.01833517	-0.001833517	0	0	0	0
13.35456	-0.01833517	-0.001833517	0	0	0	0
13.37113	-0.01833517	-0.001833517	0	0	0	0
13.38801	-0.01833517	-0.001833517	0	0	0	0
13.40426	-0.01833517	-0.001833517	0	0	0	0
13.42082	-0.01833517	-0.001833517	0	0	0	0
13.43739	-0.01833517	-0.001833517	0	0	0	0
13.45396	-0.01833517	-0.001833517	0	0	0	0
13.47057	-0.01833517	-0.001833517	0	0	0	0
13.48709	-0.01833517	-0.001833517	0	0	0	0
13.50371	-0.01833517	-0.001833517	0	0	0	0
13.52073	-0.01833517	-0.001833517	0	0	0	0
13.53679	-0.01833517	-0.001833517	0	0	0	0
13.55336	-0.01833517	-0.001833517	0	0	0	0
13.56993	-0.01833517	-0.001833517	0	0	0	0
13.58737	-0.01833517	-0.001833517	0	0	0	0
13.60306	-0.01833517	-0.001833517	0	0	0	0
13.61963	-0.01833517	-0.001833517	0	0	0	0
13.63619	-0.01833517	-0.001833517	0	0	0	0
13.65276	-0.01833517	-0.001833517	0	0	0	0
13.66932	-0.01833517	-0.001833517	0	0	0	0
13.68589	-0.01833517	-0.001833517	0	0	0	0
13.70305	-0.01833517	-0.001833517	0	0	0	0
13.77479	-0.01833517	-0.001833517	0	0	0	0
13.79357	-0.01833517	-0.001833517	0	0	0	0
13.81014	-0.01833517	-0.001833517	0	0	0	0
13.82671	-0.01833517	-0.001833517	0	0	0	0
13.84331	-0.01833517	-0.001833517	0	0	0	0
13.8599	-0.01833517	-0.001833517	0	0	0	0
13.87641	-0.01833517	-0.001833517	0	0	0	0
13.89298	-0.01833517	-0.001833517	0	0	0	0
13.90985	-0.01833517	-0.001833517	0	0	0	0
13.92612	-0.01833517	-0.001833517	0	0	0	0
13.94268	-0.01833517	-0.001833517	0	0	0	0
13.95924	-0.01833517	-0.001833517	0	0	0	0
13.97581	-0.01833517	-0.001833517	0	0	0	0
13.99238	-0.01833517	-0.001833517	0	0	0	0
14.00912	-0.01833517	-0.001833517	0	0	0	0
14.02555	-0.01833517	-0.001833517	0	0	0	0
14.04208	-0.01833517	-0.001833517	0	0	0	0
14.0587	-0.01833517	-0.001833517	0	0	0	0
14.07521	-0.01833517	-0.001833517	0	0	0	0
14.09178	-0.01833517	-0.001833517	0	0	0	0
14.10834	-0.01833517	-0.001833517	0	0	0	0
14.12516	-0.01833517	-0.001833517	0	0	0	0
14.14148	-0.01833517	-0.001833517	0	0	0	0
14.16266	-0.01833517	-0.001833517	0	0	0	0
14.17935	-0.01833517	-0.001833517	0	0	0	0
14.19632	-0.01833517	-0.001833517	0	0	0	0
14.21236	-0.01833517	-0.001833517	0	0	0	0
14.22902	-0.01833517	-0.001833517	0	0	0	0
14.2455	-0.01833517	-0.001833517	0	0	0	0
14.26212	-0.01833517	-0.001833517	0	0	0	0
14.27863	-0.01833517	-0.001833517	0	0	0	0
14.2952	-0.01833517	-0.001833517	0	0	0	0
14.31176	-0.01833517	-0.001833517	0	0	0	0
14.32833	-0.01833517	-0.001833517	0	0	0	0
14.3449	-0.01833517	-0.001833517	0	0	0	0
14.36167	-0.01833517	-0.001833517	0	0	0	0
14.37809	-0.01833517	-0.001833517	0	0	0	0
14.3946	-0.01833517	-0.001833517	0	0	0	0
14.41207	-0.01833517	-0.001833517	0	0	0	0
14.42773	-0.01833517	-0.001833517	0	0	0	0
14.44485	-0.01833517	-0.001833517	0	0	0	0
14.46105	-0.01833517	-0.001833517	0	0	0	0
14.47743	-0.01833517	-0.003055861	0	-0.07460106	0	-2.289419
14.4941	-0.01833517	-0.003055861	0	0	0	2.256986
14.51056	-0.01833517	-0.003055861	0	0	0	0
14.52713	-0.01833517	-0.003055861	0	0	0	0
14.5437	-0.01833517	-0.003055861	0	0	0	0
14.56028	-0.01833517	-0.003055861	0	0	0	0
14.57688	-0.01833517	-0.003055861	0	0	0	0
14.59397	-0.01833517	-0.003055861	0	0	0	0
14.61002	-0.01833517	-0.003055861	0	0	0	0
14.62717	-0.01833517	-0.003055861	0	0	0	0
14.6431	-0.01833517	-0.003055861	0	0	0	0
14.66004	-0.01833517	-0.003055861	0	0	0	0
14.6763	-0.01833517	-0.003055861	0	0	0	0
14.6928	-0.01833517	-0.003055861	0	0	0	0
14.70995	-0.01833517	-0.003055861	0	0	0	0
14.72593	-0.01833517	-0.003055861	0	0	0	0
14.7425	-0.01833517	-0.003055861	0	0	0	0
14.75977	-0.01833517	-0.003055861	0	0	0	0
14.77563	-0.01833517	-0.003055861	0	0	0	0
14.7922	-0.01833517	-0.003055861	0	0	0	0
14.80877	-0.01833517	-0.003055861	0	0	0	0
14.82533	-0.01833517	-0.003055861	0	0	0	0
14.84196	-0.01833517	-0.003055861	0	0	0	0
14.85847	-0.01833517	-0.003055861	0	0	0	0
14.87503	-0.01833517	-0.003055861	0	0	0	0
14.89169	-0.01833517	-0.003055861	0	0	0	0
14.90816	-0.01833517	-0.003055861	0	0	0	0
14.92473	-0.01833517	-0.003055861	0	0	0	0
14.9413	-0.01833517	-0.003055861	0	0	0	0
14.95786	-0.01833517	-0.003055861	0	0	0	0
14.97443	-0.01833517	-0.003055861	0	0	0	0
14.99107	-0.01833517	-0.003055861	0	0	0	0
15.00756	-0.01833517	-0.003055861	0	0	0	0
15.02466	-0.01833517	-0.003055861	0	0	0	0
15.0407	-0.01833517	-0.003055861	0	0	0	0
15.05726	-0.01833517	-0.003055861	0	0	0	0
15.07383	-0.01833517	-0.003055861	0	0	0	0
15.0904	-0.01833517	-0.003055861	0	0	0	0
15.10717	-0.01833517	-0.003055861	0	0	0	0
15.12353	-0.01833517	-0.003055861	0	0	0	0
15.1401	-0.01833517	-0.003055861	0	0	0	0
15.15674	-0.01833517	-0.003055861	0	0	0	0
15.17323	-0.01833517	-0.003055861	0	0	0	0
15.19005	-0.01833517	-0.003055861	0	0	0	0
15.20718	-0.01833517	-0.003055861	0	0	0	0
15.22375	-0.01833517	-0.003055861	0	0	0	0
15.24034	-0.01833517	-0.003055861	0	0	0	0
15.25689	-0.01833517	-0.003055861	0	0	0	0
15.27345	-0.01833517	-0.003055861	0	0	0	0
15.29002	-0.01833517	-0.003055861	0	0	0	0
15.30659	-0.01833517	-0.003055861	0	0	0	0
15.32315	-0.01833517	-0.003055861	0	0	0	0
15.33972	-0.01833517	-0.003055861	0	0	0	0
15.35681	-0.01833517	-0.003055861	0	0	0	0
15.37339	-0.01833517	-0.003055861	0	0	0	0
15.38942	-0.01833517	-0.003055861	0	0	0	0
15.40599	-0.01833517	-0.003055861	0	0	0	0
15.42255	-0.01833517	-0.003055861	0	0	0	0
15.43912	-0.01833517	-0.003055861	0	0	0	0
15.45581	-0.01833517	-0.003055861	0	0	0	0
15.47225	-0.01833517	-0.003055861	0	0	0	0
15.48933	-0.01833517	-0.003055861	0	0	0	0
15.50539	-0.01833517	-0.003055861	0	0	0	0
15.52195	-0.01833517	-0.003055861	0	0	0	0
15.53871	-0.01833517	-0.003055861	0	0	0	0
15.55509	-0.01833517	-0.003055861	0	0	0	0
15.57165	-0.01833517	-0.003055861	0	0	0	0
15.58869	-0.01833517	-0.003055861	0	0	0	0
15.60479	-0.01833517	-0.003055861	0	0	0	0
15.62135	-0.01833517	-0.003055861	0	0	0	0
15.63792	-0.01833517	-0.003055861	0	0	0	0
15.65449	-0.01833517	-0.003055861	0	0	0	0
15.67105	-0.01833517	-0.003055861	0	0	0	0
15.68762	-0.02077986	-0.004278206	-0.1475872	-0.07379362	-4.454702	-2.227352
15.70448	-0.0440044	-0.006722895	-1.376792	-0.1449255	-36.76627	-2.127598
15.72115	-0.05256081	-0.00794524	-0.5133044	-0.0733292	25.74666	2.13479
15.73734	-0.09289818	-0.009167584	-2.491858	-0.07551082	-60.21721	-0.06639752
15.75389	-0.1332355	-0.01161227	-2.438277	-0.1477744	1.636986	-2.207798
15.77045	-0.1540154	-0.01283462	-1.254275	-0.07378078	35.75899	2.23474
15.78702	-0.1919081	-0.01161227	-2.287338	0.07378508	-31.17879	4.453675
15.80363	-0.2041315	-0.01038993	-0.7359028	0.07359015	46.76318	-0.005875544
15.82015	-0.2102433	-0.007945239	-0.3699053	0.1479621	11.04646	2.244679
15.83705	-0.2212444	-0.006722895	-0.6509132	0.07232368	-8.407516	-2.263036
15.85328	-0.2334678	-0.004278206	-0.7530229	0.1506047	-3.081765	2.362593
15.86987	-0.2530253	-0.001833517	-1.179	0.1473751	-12.97892	-0.09840095
15.88646	-0.2750275	-0.0006111722	-1.326299	0.07368331	-4.43973	-2.221146
15.90349	-0.294585	0.001833517	-1.148306	0.1435378	5.29413	2.077716
15.91955	-0.3068085	0.003055861	-0.761206	0.07612073	11.69852	-2.037409
15.93612	-0.3129202	0.003055861	-0.3689036	0	12.02452	-2.333188
15.95268	-0.3190319	0.004278206	-0.3689479	0.07378936	-0.001335739	2.227095
15.96927	-0.326366	0.00550055	-0.4421244	0.07368755	-2.207201	-0.00307093
15.98582	-0.3373671	0.00550055	-0.6648685	0	-6.722431	-2.223895
16.00255	-0.3410341	0.006722894	-0.2191489	0.07304917	13.39325	2.195025
16.01895	-0.3434788	0.006722895	-0.1490717	2.839505E-08	2.115056	-2.204754
16.03552	-0.3483682	0.00794524	-0.2951229	0.07378086	-4.430274	2.238047
16.05237	-0.3544799	0.00794524	-0.3626429	0	-2.020313	-2.207649
16.06865	-0.3581469	0.009167584	-0.2252581	0.07508615	4.146519	2.266235
16.08522	-0.3605916	0.009167584	-0.1475614	0	2.365451	-2.285975
16.10239	-0.3605916	0.009167584	0	0	4.374099	0
16.11905	-0.3605916	0.009167584	0	0	0	0
16.13555	-0.3605916	0.009167584	0	0	0	0
16.15209	-0.3605916	0.009167584	0	0	0	0
16.16865	-0.3605916	0.009167584	0	0	0	0
16.18522	-0.3605916	0.009167584	0	0	0	0
16.20179	-0.3605916	0.009167584	0	0	0	0
16.21836	-0.3605916	0.009167584	0	0	0	0
16.2354	-0.3557023	0.009167585	0.2868021	5.462981E-08	8.531457	1.625064E-06
16.25149	-0.3471458	0.009167584	0.5319615	-5.790125E-08	7.39935	-3.39639E-06
16.26807	-0.3324777	0.009167584	0.8845558	0	10.79354	1.77246E-06
16.28503	-0.3116978	0.01038993	1.225217	0.07207157	10.15605	2.148656
16.30119	-0.2896957	0.01161227	1.361762	0.07565351	4.123081	0.1081592
16.31776	-0.2664711	0.01283462	1.401836	0.07378089	1.224584	-0.05722382
16.33432	-0.2395795	0.01527931	1.62318	0.1475616	6.680175	2.226707
16.35095	-0.2065762	0.01405696	1.984543	-0.07350153	10.88531	-6.65905
16.36746	-0.1637942	0.01283462	2.592179	-0.07406227	18.33848	-0.01692311
16.3842	-0.1246791	0.01038993	2.335977	-0.1459985	-7.705577	-2.163568
16.4006	-0.08556411	0.00550055	2.385429	-0.2981786	1.492108	-4.591747
16.41716	-0.05622785	0.004278205	1.77176	-0.07382339	-18.6213	6.807892
16.43385	-0.03789268	0.003055861	1.098618	-0.07324118	-20.24672	0.01751168
16.45029	-0.02811392	0.003055861	0.5946283	0	-15.21044	2.210423
16.46701	-0.02322455	0.003055861	0.2924635	1.392702E-08	-9.111485	4.199556E-07
16.48343	-0.02077986	0.003055861	0.1489334	-1.418433E-08	-4.331996	-8.484509E-07
16.50084	-0.02077986	0.003055861	0	0	-4.402074	4.192509E-07
16.51656	-0.02077986	0.003055861	0	0	0	0
16.53313	-0.02077986	0.003055861	0	0	0	0
16.54969	-0.01955751	0.003055861	0.07378095	-1.405369E-08	2.226713	-4.241411E-07
16.56646	-0.01955751	0.003055861	0	0	-2.213589	4.216411E-07
16.58283	-0.01955751	0.003055861	0	0	0	0
16.59994	-0.01955751	0.003055861	0	0	0	0
16.61596	-0.01833517	0.003055861	0.0762929	0	2.302657	0
16.63253	-0.01833517	0.003055861	0	0	-2.341066	0
16.64976	-0.01711282	0.003055861	0.07095442	0	2.099591	0
16.66566	-0.01589048	0.003055861	0.07683256	1.463497E-08	0.1773923	4.41659E-07
16.68223	-0.01589048	0.003055861	0	0	-2.365795	-4.506338E-07
16.6988	-0.01589048	0.003055861	0	0	0	0
16.71543	-0.01466813	0.001833517	0.0735017	-0.07350162	2.213825	-2.213823
16.73208	-0.01344579	0.001833517	0.0734258	1.398606E-08	-0.002280792	2.208748
16.74872	-0.01344579	0.001833517	0	0	-2.20571	-4.201411E-07
16.76507	-0.01344579	0.001833517	0	0	0	0
16.78163	-0.01344579	0.001833517	0	0	0	0
16.79827	-0.01222344	0.001833517	0.07349321	-1.399889E-08	2.213697	-4.21662E-07
16.81476	-0.01222344	0.001833517	0	0	-2.218285	4.225359E-07
16.83133	-0.01222344	0.001833517	0	0	0	0
16.8479	-0.01222344	0.001833517	0	0	0	0
16.86447	-0.01222344	0.001833517	0	0	0	0
16.88103	-0.01222344	0.001833517	0	0	0	0
16.89761	-0.01222344	0.001833517	0	0	0	0
16.91417	-0.01222344	0.001833517	0	0	0	0
16.9308	-0.01222344	0.001833517	0	0	0	0
16.94734	-0.01222344	0.001833517	0	0	0	0
16.9644	-0.01222344	0.001833517	0	0	0	0
16.98043	-0.01222344	0.001833517	0	0	0	0
16.997	-0.01222344	0.001833517	0	0	0	0
17.01357	-0.01222344	0.001833517	0	0	0	0
17.03038	-0.01222344	0.001833517	0	0	0	0
17.0467	-0.01222344	0.001833517	0	0	0	0
17.06335	-0.01222344	0.001833517	0	0	0	0
17.08034	-0.01222344	0.001833517	0	0	0	0
17.09646	-0.01222344	0.001833517	0	0	0	0
17.11296	-0.01222344	0.001833517	0	0	0	0
17.13001	-0.01222344	0.001833517	0	0	0	0
17.1461	-0.01222344	0.001833517	0	0	0	0
17.16282	-0.01222344	0.001833517	0	0	0	0
17.17951	-0.01222344	0.001833517	0	0	0	0
17.1958	-0.01222344	0.001833517	0	0	0	0
17.21237	-0.01222344	0.001833517	0	0	0	0
17.22893	-0.01222344	0.001833517	0	0	0	0
17.2455	-0.01222344	0.001833517	0	0	0	0
17.26207	-0.01222344	0.001833517	0	0	0	0
17.27863	-0.01222344	0.001833517	0	0	0	0
17.29621	-0.01222344	0.001833517	0	0	0	0
17.31278	-0.01222344	0.001833517	0	0	0	0
17.32934	-0.01222344	0.001833517	0	0	0	0
17.34591	-0.01222344	0.001833517	0	0	0	0
17.36248	-0.01222344	0.001833517	0	0	0	0
17.37904	-0.01222344	0.001833517	0	0	0	0
17.39561	-0.01222344	0.001833517	0	0	0	0
17.41218	-0.01222344	0.001833517	0	0	0	0
17.42905	-0.01222344	0.001833517	0	0	0	0
17.44531	-0.01222344	0.001833517	0	0	0	0
17.46188	-0.01222344	0.001833517	0	0	0	0
17.47844	-0.01222344	0.001833517	0	0	0	0
17.49501	-0.01222344	0.001833517	0	0	0	0
17.51158	-0.01222344	0.001833517	0	0	0	0
17.52814	-0.01222344	0.001833517	0	0	0	0
17.54514	-0.01222344	0.001833517	0	0	0	0
17.56161	-0.01222344	0.001833517	0	0	0	0
17.57785	-0.01222344	0.001833517	0	0	0	0
17.59452	-0.01222344	0.001833517	0	0	0	0
17.61098	-0.01222344	0.001833517	0	0	0	0
17.62755	-0.01222344	0.001833517	0	0	0	0
17.64412	-0.01222344	0.001833517	0	0	0	0
17.66085	-0.01222344	0.001833517	0	0	0	0
17.67742	-0.01222344	0.001833517	0	0	0	0
17.69381	-0.01222344	0.001833517	0	0	0	0
17.71089	-0.01222344	0.001833517	0	0	0	0
17.72695	-0.01222344	0.001833517	0	0	0	0
17.74352	-0.01222344	0.0006111722	-5.621474E-08	-0.07378085	-1.722845E-06	-2.261204
17.76057	-0.0110011	0.0006111722	0.07166857	0	2.131552	2.194373
17.77665	-0.0110011	0.0006111722	0	0	-2.163086	0
17.79322	-0.009778757	0.0006111723	0.07373839	3.5114E-09	2.258187	1.075342E-07
17.80978	-0.008556412	-0.0006111722	0.07381488	-0.07381486	0.002308494	-2.227609
17.82635	-0.006111722	-0.0006111722	0.1475787	0	2.226839	2.228378
17.84292	-0.006111722	-0.0006111722	0	0	-4.454192	0
17.85948	-0.006111722	-0.0006111722	0	0	0	0
17.87605	-0.006111722	-0.0006111722	0	0	0	0
17.89262	-0.006111722	-0.0006111722	0	0	0	0
17.90929	-0.004889378	-0.0006111722	0.07329983	0	2.204958	0
17.92644	-0.004889378	-0.0006111722	0	0	-2.167403	0
17.94239	-0.004889378	-0.0006111722	0	0	0	0
17.95889	-0.004889378	-0.0006111722	0	0	0	0
17.97841	-0.004889378	-0.0006111722	0	0	0	0
17.99516	-0.004889378	-0.0006111722	0	0	0	0
18.01155	-0.004889378	-0.0006111722	0	0	0	0
18.02811	-0.004889378	-0.0006111722	0	0	0	0
18.04469	-0.004889378	-0.0006111722	0	0	0	0
18.06125	-0.004889378	-0.0006111722	0	0	0	0
18.07781	-0.004889378	-0.0006111722	0	0	0	0
18.09438	-0.004889378	-0.0006111722	0	0	0	0
18.11095	-0.004889378	-0.0006111722	0	0	0	0
18.12751	-0.004889378	-0.0006111722	0	0	0	0
18.14408	-0.004889378	-0.0006111722	0	0	0	0
18.16106	-0.004889378	-0.0006111722	0	0	0	0
18.17721	-0.004889378	-0.0006111722	0	0	0	0
18.19378	-0.004889378	-0.0006111722	0	0	0	0
18.21035	-0.004889378	-0.0006111722	0	0	0	0
18.22691	-0.004889378	-0.0006111722	0	0	0	0
18.24354	-0.004889378	-0.0006111722	0	0	0	0
18.26005	-0.004889378	-0.0006111722	0	0	0	0
18.27661	-0.004889378	-0.0006111722	0	0	0	0
18.29325	-0.004889378	-0.0006111722	0	0	0	0
18.31167	-0.004889378	-0.0006111722	0	0	0	0
18.32824	-0.004889378	-0.0006111722	0	0	0	0
18.34481	-0.004889378	-0.0006111722	0	0	0	0
18.36137	-0.004889378	-0.0006111722	0	0	0	0
18.37794	-0.004889378	-0.0006111722	0	0	0	0
18.39452	-0.004889378	-0.0006111722	0	0	0	0
18.41121	-0.004889378	-0.0006111722	0	0	0	0
18.42764	-0.004889378	-0.0006111722	0	0	0	0
18.44421	-0.004889378	-0.0006111722	0	0	0	0
18.46077	-0.004889378	-0.0006111722	0	0	0	0
18.47734	-0.004889378	-0.0006111722	0	0	0	0
18.49391	-0.004889378	-0.0006111722	0	0	0	0
18.51047	-0.004889378	-0.0006111722	0	0	0	0
18.52873	-0.004889378	-0.0006111722	0	0	0	0
18.54707	-0.004889378	-0.0006111722	0	0	0	0
18.56364	-0.004889378	-0.0006111722	0	0	0	0
18.5802	-0.004889378	-0.0006111722	0	0	0	0
18.59677	-0.004889378	-0.0006111722	0	0	0	0
18.61334	-0.004889378	-0.0006111722	0	0	0	0
18.63031	-0.004889378	-0.0006111722	0	0	0	0
18.64649	-0.004889378	-0.0006111722	0	0	0	0
18.66304	-0.004889378	-0.0006111722	0	0	0	0
18.67984	-0.004889378	-0.0006111722	0	0	0	0
18.69617	-0.004889378	-0.0006111722	0	0	0	0
18.71274	-0.004889378	-0.0006111722	0	0	0	0
18.72976	-0.004889378	-0.0006111722	0	0	0	0
18.74588	-0.004889378	-0.0006111722	0	0	0	0
18.76244	-0.004889378	-0.0006111722	0	0	0	0
18.77901	-0.004889378	-0.0006111722	0	0	0	0
18.79558	-0.004889378	-0.0006111722	0	0	0	0
18.81214	-0.004889378	-0.0006111722	0	0	0	0
18.82906	-0.004889378	-0.0006111722	0	0	0	0
18.84528	-0.004889378	-0.0006111722	0	0	0	0
18.86191	-0.004889378	-0.0006111722	0	0	0	0
18.87841	-0.004889378	-0.0006111722	0	0	0	0
18.89515	-0.004889378	-0.0006111722	0	0	0	0
18.91154	-0.004889378	-0.0006111722	0	0	0	0
18.92839	-0.004889378	-0.0006111722	0	0	0	0
18.94468	-0.004889378	-0.0006111722	0	0	0	0
18.9613	-0.004889378	-0.0006111722	0	0	0	0
18.97788	-0.004889378	-0.0006111722	0	0	0	0
18.99438	-0.004889378	-0.0006111722	0	0	0	0
19.01094	-0.004889378	-0.0006111722	0	0	0	0
19.02751	-0.004889378	-0.0006111722	0	0	0	0
19.04408	-0.004889378	-0.0006111722	0	0	0	0
19.06091	-0.004889378	-0.0006111722	0	0	0	0
19.07721	-0.004889378	-0.0006111722	0	0	0	0
19.09378	-0.004889378	-0.0006111722	0	0	0	0
19.11041	-0.004889378	-0.0006111722	0	0	0	0
19.12704	-0.004889378	-0.0006111722	0	0	0	0
19.14348	-0.004889378	-0.0006111722	0	0	0	0
19.16038	-0.004889378	-0.0006111722	0	0	0	0
19.17661	-0.004889378	-0.0006111722	0	0	0	0
19.1935	-0.004889378	-0.0006111722	0	0	0	0
19.21007	-0.004889378	-0.0006111722	0	0	0	0
19.22631	-0.004889378	-0.0006111722	0	0	0	0
19.24288	-0.004889378	-0.0006111722	0	0	0	0
19.25982	-0.004889378	-0.0006111722	0	0	0	0
19.27602	-0.004889378	-0.0006111722	0	0	0	0
19.29258	-0.004889378	-0.0006111722	0	0	0	0
19.30915	-0.004889378	-0.0006111722	0	0	0	0
19.32572	-0.004889378	-0.0006111722	0	0	0	0
19.34229	-0.004889378	-0.0006111722	0	0	0	0
19.35885	-0.004889378	-0.0006111722	0	0	0	0
19.37772	-0.004889378	-0.0006111722	0	0	0	0
19.39429	-0.004889378	-0.0006111722	0	0	0	0
19.41107	-0.004889378	-0.0006111722	0	0	0	0
19.42749	-0.004889378	-0.0006111722	0	0	0	0
19.44399	-0.004889378	-0.0006111722	0	0	0	0
19.46056	-0.004889378	-0.0006111722	0	0	0	0
19.47713	-0.004889378	-0.0006111722	0	0	0	0
19.49369	-0.004889378	-0.0006111722	0	0	0	0
19.51026	-0.004889378	-0.0006111722	0	0	0	0
19.52683	-0.004889378	-0.0006111722	0	0	0	0
19.54358	-0.004889378	-0.0006111722	0	0	0	0
19.55996	-0.004889378	-0.0006111722	0	0	0	0
19.57716	-0.004889378	-0.0006111722	0	0	0	0
19.59309	-0.004889378	-0.0006111722	0	0	0	0
19.60966	-0.004889378	-0.0006111722	0	0	0	0
19.62664	-0.004889378	-0.0006111722	0	0	0	0
19.64279	-0.004889378	-0.0006111722	0	0	0	0
19.65936	-0.004889378	-0.0006111722	0	0	0	0
19.67593	-0.004889378	-0.0006111722	0	0	0	0
19.69283	-0.004889378	-0.0006111722	0	0	0	0
19.70906	-0.004889378	-0.0006111722	0	0	0	0
19.72563	-0.004889378	-0.0006111722	0	0	0	0
19.7422	-0.004889378	-0.0006111722	0	0	0	0
19.75876	-0.004889378	-0.0006111722	0	0	0	0
19.77533	-0.004889378	-0.0006111722	0	0	0	0
19.7919	-0.004889378	-0.0006111722	0	0	0	0
19.80852	-0.004889378	-0.0006111722	0	0	0	0
19.82503	-0.004889378	-0.0006111722	0	0	0	0
19.8416	-0.004889378	-0.0006111722	0	0	0	0
19.85816	-0.004889378	-0.0006111722	0	0	0	0
19.87473	-0.004889378	-0.0006111722	0	0	0	0
19.8913	-0.004889378	-0.0006111722	0	0	0	0
19.90799	-0.004889378	-0.0006111722	0	0	0	0
19.92492	-0.004889378	-0.0006111722	0	0	0	0
19.941	-0.004889378	-0.0006111722	0	0	0	0
19.95757	-0.004889378	-0.0006111722	0	0	0	0
19.97413	-0.004889378	-0.0006111722	0	0	0	0
19.9907	-0.004889378	-0.0006111722	0	0	0	0
20.00727	-0.004889378	-0.0006111722	0	0	0	0
20.02411	-0.004889378	-0.0006111722	0	0	0	0
20.0404	-0.004889378	-0.0006111722	0	0	0	0
20.05696	-0.004889378	-0.0006111722	0	0	0	0
20.07353	-0.004889378	-0.0006111722	0	0	0	0
20.0901	-0.004889378	-0.0006111722	0	0	0	0
20.10684	-0.004889378	-0.0006111722	0	0	0	0
20.12323	-0.004889378	-0.0006111722	0	0	0	0
20.13988	-0.004889378	-0.0006111722	0	0	0	0
20.15636	-0.004889378	-0.0006111722	0	0	0	0
20.1731	-0.004889378	-0.0006111722	0	0	0	0
20.19005	-0.004889378	-0.0006111722	0	0	0	0
20.20606	-0.004889378	-0.0006111722	0	0	0	0
20.22263	-0.004889378	-0.0006111722	0	0	0	0
20.23948	-0.004889378	-0.0006111722	0	0	0	0
20.25576	-0.004889378	-0.0006111722	0	0	0	0
20.27233	-0.004889378	-0.0006111722	0	0	0	0
20.28907	-0.004889378	-0.0006111722	0	0	0	0
20.30547	-0.004889378	-0.0006111722	0	0	0	0
20.32203	-0.004889378	-0.0006111722	0	0	0	0
20.3386	-0.004889378	-0.0006111722	0	0	0	0
20.35517	-0.004889378	-0.0006111722	0	0	0	0
20.37173	-0.004889378	-0.0006111722	0	0	0	0
20.3883	-0.004889378	-0.0006111722	0	0	0	0
20.40487	-0.004889378	-0.0006111722	0	0	0	0
20.42331	-0.004889378	-0.0006111722	0	0	0	0
20.43988	-0.004889378	-0.0006111722	0	0	0	0
20.45673	-0.004889378	-0.0006111722	0	0	0	0
20.47333	-0.004889378	-0.0006111722	0	0	0	0
20.48958	-0.004889378	0.00550055	-2.865837E-08	0.376136	-8.723937E-07	11.45001
20.50615	-0.004889378	0.02505806	0	1.180494	8.733065E-07	24.5112
20.52299	-0.007334067	0.05439433	-0.1452046	1.742455	-4.347001	16.82348
20.57035	-0.01222345	0.1008434	-0.1032356	0.9807378	0.6537479	-11.86521
20.58716	-0.01955751	0.3135314	-0.4362563	12.65143	-5.189441	181.8637
20.60348	-0.02077986	0.3416453	-0.07487561	1.722138	10.90586	-329.8278
20.62005	-0.0220022	0.379538	-0.07378083	2.287208	0.03328365	17.17942
20.63662	-0.0220022	0.3990955	-1.124295E-07	1.180495	2.226707	-33.40065
20.65318	-0.0220022	0.4052072	0	0.3689018	3.393129E-06	-24.49393
20.66975	-0.0220022	0.4064296	0	0.07378253	0	-8.906717
20.68632	-0.0220022	0.4064296	0	0	0	-2.226761
20.70658	-0.0220022	0.4064296	0	0	0	0
20.7239	-0.0220022	0.4064296	0	0	0	0
20.7422	-0.0220022	0.4064296	0	0	0	0
20.759	-0.0220022	0.4064296	0	0	0	0
20.77533	-0.0220022	0.4064296	0	0	0	0
20.7919	-0.0220022	0.4064296	0	0	0	0
20.80847	-0.0220022	0.4064296	0	0	0	0
20.82504	-0.0220022	0.4064296	0	0	0	0
20.84223	-0.0220022	0.4064296	0	0	0	0
20.8588	-0.0220022	0.4064296	0	0	0	0
20.87577	-0.0220022	0.4064296	0	0	0	0
20.89193	-0.0220022	0.4064296	0	0	0	0
20.90849	-0.0220022	0.4052072	0	-0.07379951	0	-2.255053
20.92584	-0.02077986	0.3905391	0.07047843	-0.8457398	2.078584	-22.76644
20.94193	-0.01589048	0.3575358	0.3037614	-2.050389	6.976241	-36.0246
20.95819	-0.0110011	0.3306442	0.3006971	-1.653834	-0.09470423	12.25589
20.97476	-0.008556411	0.3025303	0.1475617	-1.69696	-4.664868	-1.313717
21.02521	-0.004889378	0.2719717	0.07268462	-0.6057049	-1.11726	16.28289
21.04178	-0.002444689	0.1741841	0.1475448	-5.901791	1.116975	-79.02199
21.05847	-0.001222344	0.163183	0.07323284	-0.6590952	-2.23425	157.626
21.07496	-0.001222344	0.1411808	0	-1.334354	-2.207122	-20.35124
21.09148	-0.001222345	0.1289574	-7.046312E-09	-0.7398515	-2.134568E-07	18.00951
21.10846	-0.001222344	0.1191786	6.857112E-09	-0.5759909	4.150429E-07	4.891544
21.12462	-0.001222344	0.1106222	0	-0.5294492	-2.069242E-07	1.404468
21.14118	-0.001222345	0.1032881	-7.028461E-09	-0.4427868	-2.147775E-07	2.648254
21.15864	-0.001222344	0.0947317	6.668322E-09	-0.4901155	4.025934E-07	-1.391148
21.17432	-0.001222344	0.08617529	0	-0.545745	-2.012388E-07	-1.678803
21.19089	-0.002444689	0.07517419	-0.07378937	-0.6641039	-2.288487	-3.670758
21.20745	-0.002444689	0.07028481	0	-0.2951233	2.227096	11.1365
21.22456	-0.002444689	0.06539543	1.361177E-08	-0.2858436	4.042418E-07	0.27559
21.24087	-0.002444689	0.06050605	0	-0.2996775	-4.072871E-07	-0.413935
21.25716	-0.002444689	0.05439433	0	-0.3753429	0	-2.321132
21.27372	-0.002444689	0.04828261	0	-0.3689468	0	0.1947182
21.29029	-0.002444689	0.04583792	-1.405369E-08	-0.1475617	-4.241655E-07	6.6818
21.30686	-0.002444689	0.04339323	1.405369E-08	-0.1475619	8.482821E-07	-6.745769E-06
21.32342	-0.002444689	0.04339323	0	0	-4.241411E-07	4.453427
21.34004	-0.002444689	0.04217089	0	-0.07357743	0	-2.217508
21.35656	-0.002444689	0.04217089	0	0	0	2.220699
21.37312	-0.002444689	0.04217089	0	0	0	0
21.38969	-0.002444689	0.04094854	0	-0.07378945	0	-2.227098
21.40626	-0.002444689	0.04094854	0	0	0	2.227098
21.42282	-0.002444689	0.04094854	0	0	0	0
21.43939	-0.002444689	0.04094854	0	0	0	0
21.45596	-0.002444689	0.0397262	0	-0.07378072	0	-2.226835
21.47252	-0.002444689	0.0397262	0	0	0	2.226707
21.48909	-0.001222344	0.03972619	0.07378086	-2.24859E-07	2.226711	-6.786257E-06
21.50566	-0.001222345	0.03850385	-7.026843E-09	-0.07378072	-2.226711	-2.2267
21.52222	0	0.03728151	0.07378086	-0.07378095	2.226711	-6.745769E-06
21.53896	0	0.03728151	0	0	-2.215361	2.215364
21.55553	0.002444689	0.03483682	0.1475447	-0.1475447	4.429958	-4.429957
21.5721	0.002444689	0.03483682	0	0	-4.452652	4.452651
21.58866	0.003667033	0.03361447	0.07378934	-0.07378945	2.227095	-2.227098
21.60523	0.004889377	0.03361447	0.07378083	0	-0.0002568037	2.227098
21.6218	0.006111722	0.03239213	0.07378089	-0.07378072	1.798872E-06	-2.226707
21.63836	0.006111722	0.03239213	0	0	-2.22684	2.226835
21.65493	0.008556412	0.03239213	0.1475617	0	4.453678	0
21.67171	0.008556412	0.03116978	0	-0.07285827	-4.4254	-2.185031
21.68826	0.009778756	0.03116979	0.07386588	2.251181E-07	2.216517	2.186288
21.70483	0.009778756	0.03116979	0	0	-2.230175	-6.796818E-06
21.72139	0.009778756	0.03116979	0	0	0	0
21.73797	0.009778756	0.03116979	0	0	0	0
21.75433	0.009778756	0.03116979	0	0	0	0
21.7709	0.009778756	0.03116979	0	0	0	0
21.78746	0.009778756	0.03116979	0	0	0	0
21.80403	0.009778756	0.03116979	0	0	0	0
21.8206	0.009778756	0.03116979	0	0	0	0
21.83717	0.009778756	0.03116979	0	0	0	0
21.85373	0.009778756	0.03116979	0	0	0	0
21.8703	0.009778756	0.03116979	0	0	0	0
21.88687	0.009778756	0.03116979	0	0	0	0
21.90343	0.009778756	0.03116979	0	0	0	0
21.92	0.009778756	0.03116979	0	0	0	0
21.93657	0.009778756	0.03116979	0	0	0	0
21.95313	0.009778756	0.03116979	0	0	0	0
21.97006	0.009778756	0.03116979	0	0	0	0
21.98627	0.009778756	0.03116979	0	0	0	0
22.00289	0.009778756	0.03116979	0	0	0	0
22.0194	0.009778756	0.03116979	0	0	0	0
22.03622	0.0110011	0.03116979	0.07268468	-1.10759E-07	2.180699	-3.323012E-06
22.05253	0.0110011	0.03116979	0	0	-2.193754	3.342907E-06
22.0691	0.0110011	0.03116979	0	0	0	0
22.08567	0.0110011	0.03116979	0	0	0	0
22.10223	0.0110011	0.02994744	-5.622121E-08	-0.07378945	-1.696857E-06	-2.227098
22.1188	0.01222345	0.02994744	0.07378095	0	2.226843	2.227098
22.13537	0.01344579	0.02994744	0.07378078	0	-4.946897E-06	0
22.15193	0.01344579	0.02994744	0	0	-2.226708	0
22.1685	0.01344579	0.02994744	0	0	0	0
22.18507	0.01344579	0.02994744	0	0	0	0
22.20179	0.01344579	0.02994744	0	0	0	0
22.21834	0.01344579	0.02994744	0	0	0	0
22.23477	0.01344579	0.02994744	0	0	0	0
22.25134	0.01466813	0.02994744	0.07378089	1.124295E-07	2.235979	3.40725E-06
22.2679	0.01466813	0.02994744	0	0	-2.226712	-3.393129E-06
22.28447	0.01589048	0.02994744	0.07378078	-1.124295E-07	2.226708	-3.393129E-06
22.30103	0.01589048	0.0287251	1.124424E-07	-0.07378934	-2.226833	-2.227091
22.3176	0.01711282	0.0287251	0.07378083	0	2.226835	2.227095
22.33417	0.01711282	0.0287251	0	0	-2.22671	0
22.3508	0.01711282	0.0287251	0	0	0	0
22.36747	0.01711282	0.0287251	0	0	0	0
22.38387	0.01711282	0.0287251	0	0	0	0
22.40044	0.01711282	0.0287251	0	0	0	0
22.417	0.01711282	0.0287251	0	0	0	0
22.43357	0.01833517	0.0287251	0.07378083	0	2.226838	0
22.45014	0.01833517	0.0287251	0	0	-2.22671	0
22.4667	0.01833517	0.0287251	0	0	0	0
22.48327	0.01833517	0.0287251	0	0	0	0
22.49983	0.01833517	0.0287251	0	0	0	0
22.5164	0.01833517	0.0287251	0	0	0	0
22.53297	0.01833517	0.0287251	0	0	0	0
22.54954	0.01833517	0.0287251	0	0	0	0
22.5661	0.01833517	0.0287251	0	0	0	0
22.58463	0.01833517	0.0287251	0	0	0	0
22.6012	0.01833517	0.0287251	0	0	0	0
22.61809	0.01833517	0.0287251	0	0	0	0
22.63466	0.01833517	0.0287251	0	0	0	0
22.65123	0.01833517	0.0287251	0	0	0	0
22.66779	0.01833517	0.0287251	0	0	0	0
22.68552	0.01833517	0.0287251	0	0	0	0
22.70209	0.01833517	0.0287251	0	0	0	0
22.71934	0.01833517	0.0287251	0	0	0	0
22.73522	0.01833517	0.0287251	0	0	0	0
22.75179	0.01833517	0.0287251	0	0	0	0
22.76958	0.01833517	0.0287251	0	0	0	0
22.78615	0.01833517	0.0287251	0	0	0	0
22.80271	0.01833517	0.0287251	0	0	0	0
22.81947	0.01833517	0.0287251	0	0	0	0
22.83585	0.01833517	0.0287251	0	0	0	0
22.85242	0.01833517	0.0287251	0	0	0	0
22.86898	0.01833517	0.0287251	0	0	0	0
22.88555	0.01833517	0.0287251	0	0	0	0
22.90237	0.01833517	0.0287251	0	0	0	0
22.91868	0.01833517	0.0287251	0	0	0	0
22.93547	0.01833517	0.0287251	0	0	0	0
22.95181	0.01833517	0.0287251	0	0	0	0
22.96838	0.01833517	0.0287251	0	0	0	0
22.98495	0.01833517	0.0287251	0	0	0	0
23.00152	0.01833517	0.0287251	0	0	0	0
23.01808	0.01833517	0.0287251	0	0	0	0
23.03465	0.01833517	0.0287251	0	0	0	0
23.05207	0.01833517	0.0287251	0	0	0	0
23.06778	0.01833517	0.0287251	0	0	0	0
23.08435	0.01833517	0.0287251	0	0	0	0
23.10092	0.01833517	0.0287251	0	0	0	0
23.11748	0.01833517	0.0287251	0	0	0	0
23.13417	0.01833517	0.0287251	0	0	0	0
23.15069	0.01833517	0.0287251	0	0	0	0
23.16721	0.01833517	0.0287251	0	0	0	0
23.18375	0.01833517	0.0287251	0	0	0	0
23.20032	0.01833517	0.0287251	0	0	0	0
23.21688	0.01833517	0.0287251	0	0	0	0
23.23345	0.01833517	0.0287251	0	0	0	0
23.25001	0.01833517	0.0287251	0	0	0	0
23.26658	0.01833517	0.0287251	0	0	0	0
23.28315	0.01833517	0.0287251	0	0	0	0
23.29972	0.01833517	0.0287251	0	0	0	0
23.31628	0.01833517	0.0287251	0	0	0	0
23.33285	0.01833517	0.0287251	0	0	0	0
23.34942	0.01833517	0.0287251	0	0	0	0
23.36598	0.01833517	0.0287251	0	0	0	0
23.38255	0.01833517	0.0287251	0	0	0	0
23.39912	0.01833517	0.0287251	0	0	0	0
23.41569	0.01833517	0.0287251	0	0	0	0
23.43229	0.01833517	0.0287251	0	0	0	0
23.44894	0.01833517	0.0287251	0	0	0	0
23.46539	0.01833517	0.0287251	0	0	0	0
23.48195	0.01833517	0.0287251	0	0	0	0
23.49852	0.01833517	0.0287251	0	0	0	0
23.51509	0.01833517	0.0287251	0	0	0	0
23.53165	0.01833517	0.0287251	0	0	0	0
23.54822	0.01833517	0.0287251	0	0	0	0
23.56479	0.01833517	0.0287251	0	0	0	0
23.58136	0.01833517	0.0287251	0	0	0	0
23.59792	0.01833517	0.0287251	0	0	0	0
23.61449	0.01833517	0.0287251	0	0	0	0
23.63106	0.01833517	0.0287251	0	0	0	0
23.64779	0.01833517	0.0287251	0	0	0	0
23.66419	0.01833517	0.0287251	0	0	0	0
23.68076	0.01833517	0.0287251	0	0	0	0
23.69737	0.01833517	0.0287251	0	0	0	0
23.71397	0.01833517	0.0287251	0	0	0	0
23.73046	0.01833517	0.0287251	0	0	0	0
23.74702	0.01833517	0.0287251	0	0	0	0
23.76359	0.01833517	0.0287251	0	0	0	0
23.78023	0.01833517	0.0287251	0	0	0	0
23.79683	0.01833517	0.0287251	0	0	0	0
23.81329	0.01833517	0.0287251	0	0	0	0
23.82986	0.01833517	0.0287251	0	0	0	0
23.84642	0.01833517	0.0287251	0	0	0	0
23.86299	0.01833517	0.0287251	0	0	0	0
23.87957	0.01833517	0.0287251	0	0	0	0
23.89639	0.01833517	0.0287251	0	0	0	0
23.91298	0.01833517	0.0287251	0	0	0	0
23.93072	0.01833517	0.0287251	0	0	0	0
23.94729	0.01833517	0.0287251	0	0	0	0
23.96386	0.01833517	0.0287251	0	0	0	0
23.98042	0.01833517	0.0287251	0	0	0	0
23.99699	0.01833517	0.0287251	0	0	0	0
24.01421	0.01833517	0.0287251	0	0	0	0
24.03095	0.01833517	0.0287251	0	0	0	0
24.04735	0.01833517	0.0287251	0	0	0	0
24.06398	0.01833517	0.0287251	0	0	0	0
24.0805	0.01833517	0.0287251	0	0	0	0
24.09705	0.01833517	0.0287251	0	0	0	0
24.11384	0.01833517	0.0287251	0	0	0	0
24.13018	0.01833517	0.0287251	0	0	0	0
24.14676	0.01833517	0.0287251	0	0	0	0
24.16331	0.01833517	0.0287251	0	0	0	0
24.18007	0.01833517	0.0287251	0	0	0	0
24.19645	0.01833517	0.0287251	0	0	0	0
24.21317	0.01833517	0.0287251	0	0	0	0
24.22993	0.01833517	0.0287251	0	0	0	0
24.24615	0.01833517	0.0287251	0	0	0	0
24.26272	0.01833517	0.0287251	0	0	0	0
24.27928	0.01833517	0.0287251	0	0	0	0
24.29585	0.01833517	0.0287251	0	0	0	0
24.31241	0.01833517	0.0287251	0	0	0	0
24.32898	0.01833517	0.0287251	0	0	0	0
24.34555	0.01833517	0.0287251	0	0	0	0
24.36212	0.01833517	0.0287251	0	0	0	0
24.37868	0.01833517	0.0287251	0	0	0	0
24.39586	0.01833517	0.0287251	0	0	0	0
24.41182	0.01833517	0.0287251	0	0	0	0
24.42838	0.01833517	0.0287251	0	0	0	0
24.44495	0.01833517	0.0287251	0	0	0	0
24.46152	0.01833517	0.0287251	0	0	0	0
24.47808	0.01833517	0.0287251	0	0	0	0
24.49498	0.01833517	0.0287251	0	0	0	0
24.51128	0.01833517	0.0287251	0	0	0	0
24.52793	0.01833517	0.0287251	0	0	0	0
24.54435	0.01833517	0.0287251	0	0	0	0
24.56092	0.01833517	0.0287251	0	0	0	0
24.57787	0.01833517	0.0287251	0	0	0	0
24.59405	0.01833517	0.0287251	0	0	0	0
24.61062	0.01833517	0.0287251	0	0	0	0
24.62719	0.01833517	0.0287251	0	0	0	0
24.64375	0.01833517	0.0287251	0	0	0	0
24.66281	0.01833517	0.0287251	0	0	0	0
24.6797	0.01833517	0.0287251	0	0	0	0
24.69613	0.01833517	0.0287251	0	0	0	0
24.71269	0.01833517	0.0287251	0	0	0	0
24.72926	0.01833517	0.0287251	0	0	0	0
24.74581	0.01833517	0.0287251	0	0	0	0
24.76221	0.01833517	0.0287251	0	0	0	0
24.77877	0.01833517	0.0287251	0	0	0	0
24.79537	0.01833517	0.0287251	0	0	0	0
24.8119	0.01833517	0.0287251	0	0	0	0
24.82876	0.01833517	0.0287251	0	0	0	0
24.84504	0.01833517	0.0287251	0	0	0	0
24.8616	0.01833517	0.03605916	0	0.4426852	0	13.47663
24.87817	0.01955751	0.04583792	0.07378934	0.5903149	2.227095	4.455727
24.89474	0.01955751	0.05194964	1.124165E-07	0.3688618	-2.226963	-6.683466
24.9113	0.01955751	0.05194964	0	0	-3.392738E-06	-11.13227
24.9279	0.01955751	0.05194964	0	0	0	0
24.94444	0.01955751	0.05194964	0	0	0	0
24.96108	0.01955751	0.05194964	0	0	0	0
24.97771	0.01955751	0.05194964	0	0	0	0
24.99414	0.02077986	0.05194964	0.07441481	0	2.250897	0
25.01071	0.02077986	0.0507273	-1.124295E-07	-0.07378095	-2.255455	-2.236239
25.02728	0.0220022	0.04828261	0.07378095	-0.1475617	2.226717	-2.226707
25.04384	0.02322455	0.04706026	0.07378083	-0.07378095	-3.372885E-06	2.226707
25.06041	0.02444689	0.04583792	0.07378095	-0.07378072	3.372885E-06	6.745769E-06
25.07698	0.02689158	0.04461557	0.1475616	-0.07378095	2.226703	-6.745769E-06
25.09362	0.03055862	0.04339323	0.2203282	-0.07344251	2.191057	0.01019053
25.11011	0.03911502	0.04094854	0.5189152	-0.1482617	9.011891	-2.258178
25.12668	0.06478425	0.03605916	1.549398	-0.2951233	31.1736	-4.442778
25.14324	0.09778756	0.03239213	1.992084	-0.2213426	13.36029	2.226707
25.15981	0.1613495	0.02505806	3.836605	-0.4426851	55.66776	-6.68013
25.17638	0.2603593	0.01894634	5.976248	-0.3689044	64.57455	2.226707
25.19295	0.2811393	0.017724	1.254133	-0.07377223	-142.5055	8.906594
25.20951	0.3165872	0.01650165	2.139891	-0.07378945	26.73222	-0.0005196491
25.22609	0.3202543	0.01650165	0.2211894	0	-57.88987	2.226329
25.24265	0.3214766	0.01650165	0.07383844	0	-4.447316	0
25.25921	0.3214766	0.01650165	0	0	-2.229347	0
25.27578	0.3214766	0.01650165	0	0	0	0
25.29235	0.3214766	0.01650165	0	0	0	0
25.30891	0.3214766	0.01650165	0	0	0	0
25.32548	0.3214766	0.01650165	0	0	0	0
25.34204	0.3214766	0.01650165	0	0	0	0
25.36283	0.3214766	0.01650165	0	0	0	0
25.37957	0.3214766	0.01650165	0	0	0	0
25.39597	0.3214766	0.01650165	0	0	0	0
25.41253	0.3214766	0.01650165	0	0	0	0
25.43309	0.3214766	0.01650165	0	0	0	0
25.44966	0.3214766	0.01650165	0	0	0	0
25.46622	0.3214766	0.01650165	0	0	0	0
25.48279	0.3214766	0.01650165	0	0	0	0
25.49936	0.3214766	0.01650165	0	0	0	0
25.51592	0.3214766	0.01650165	0	0	0	0
25.53249	0.3214766	0.01650165	0	0	0	0
25.54906	0.3214766	0.01650165	0	0	0	0
25.56563	0.3214766	0.01650165	0	0	0	0
25.58219	0.3214766	0.01650165	0	0	0	0
25.59876	0.3214766	0.01650165	0	0	0	0
25.61533	0.3214766	0.01650165	0	0	0	0
25.63189	0.3202543	0.01650165	-0.07377893	0	-2.226781	0
25.64846	0.3068085	0.01527931	-0.8116832	-0.07378934	-22.27128	-2.227095
25.66519	0.287251	0.01405696	-1.16892	-0.0730575	-10.72893	0.02197945
25.68159	0.2542476	0.01283462	-2.01224	-0.07452737	-25.45291	-0.04436341
25.69834	0.2346901	0.01161227	-1.167455	-0.07296599	25.48098	0.04709524
25.71597	0.216355	0.01038993	-1.039908	-0.06932722	3.709522	0.1058282
25.73254	0.1931304	0.007945239	-1.401676	-0.1475447	-10.57781	-2.287017
25.74911	0.1870187	0.006722894	-0.3689461	-0.07378934	31.16785	2.225943
25.76568	0.1784623	0.004278206	-0.516466	-0.1475617	-4.452415	-2.226583
25.78224	0.1723506	0.003055861	-0.3689045	-0.07378086	4.453413	2.22671
25.79902	0.1650165	0.0006111723	-0.4370498	-0.1456832	-2.043453	-2.156117
25.81538	0.1613495	0.0006111722	-0.2242335	-3.559316E-09	6.422808	4.396729
25.83195	0.1564601	-0.0006111722	-0.2951238	-0.07378086	-2.153356	-2.24116
25.84851	0.1503484	-0.001833517	-0.3689045	-0.07378086	-2.226707	-2.24859E-07
25.86508	0.141792	-0.003055861	-0.516466	-0.07378084	-4.453413	6.745769E-07
25.88165	0.1283462	-0.00550055	-0.8116823	-0.1475787	-8.910161	-2.227352
25.89821	0.1051216	-0.006722895	-1.401997	-0.07378939	-17.8178	2.227222
25.91478	0.08923115	-0.007945239	-0.9591517	-0.07378081	13.36588	0.0002588276
25.93134	0.07823005	-0.009167584	-0.6640279	-0.07378089	8.906855	-2.473449E-06
25.94791	0.06845129	-0.009167584	-0.5902467	0	2.226721	2.226712
25.96448	0.06478426	-0.009167584	-0.2213426	0	11.13355	0
25.98105	0.06356192	-0.009167584	-0.07378072	0	4.453427	0
25.99761	0.06356192	-0.009167584	0	0	2.226835	0
26.01418	0.06356192	-0.009167584	0	0	0	0
26.03075	0.06356192	-0.009167584	0	0	0	0
26.04731	0.06356192	-0.009167584	0	0	0	0
26.06388	0.06356192	-0.009167584	0	0	0	0
26.08045	0.06356192	-0.009167584	0	0	0	0
26.09701	0.06356192	-0.009167584	0	0	0	0
26.11401	0.06356192	-0.009167584	0	0	0	0
26.13015	0.06356192	-0.009167584	0	0	0	0
26.14672	0.06356192	-0.009167584	0	0	0	0
26.16328	0.06356192	-0.009167584	0	0	0	0
26.17994	0.06356192	-0.009167584	0	0	0	0
26.19641	0.06356192	-0.009167584	0	0	0	0
26.21327	0.06356192	-0.009167584	0	0	0	0
26.22955	0.06356192	-0.009167584	0	0	0	0
26.24654	0.06356192	-0.009167584	0	0	0	0
26.26297	0.06356192	-0.009167584	0	0	0	0
26.27942	0.06356192	-0.009167584	0	0	0	0
26.29582	0.06356192	-0.009167584	0	0	0	0
26.31238	0.06356192	-0.009167584	0	0	0	0
26.32914	0.06356192	-0.009167584	0	0	0	0
26.34551	0.06356192	-0.009167584	0	0	0	0
26.36221	0.06356192	-0.009167584	0	0	0	0
26.37864	0.06356192	-0.009167584	0	0	0	0
26.39521	0.06356192	-0.009167584	0	0	0	0
26.41198	0.06356192	-0.009167584	0	0	0	0
26.42842	0.06356192	-0.009167584	0	0	0	0
26.44491	0.06356192	-0.009167584	0	0	0	0
26.46148	0.06356192	-0.009167584	0	0	0	0
26.47804	0.06356192	-0.009167584	0	0	0	0
26.49463	0.06356192	-0.009167584	0	0	0	0
26.51118	0.06356192	-0.009167584	0	0	0	0
26.52774	0.06356192	-0.009167584	0	0	0	0
26.54431	0.06356192	-0.009167584	0	0	0	0
26.56088	0.06356192	-0.009167584	0	0	0	0
26.57744	0.06356192	-0.009167584	0	0	0	0
26.59401	0.06356192	-0.009167584	0	0	0	0
26.61058	0.06356192	-0.009167584	0	0	0	0
26.62714	0.06356192	-0.009167584	0	0	0	0
26.64388	0.06356192	-0.009167584	0	0	0	0
26.66028	0.06356192	-0.009167584	0	0	0	0
26.67685	0.06356192	-0.009167584	0	0	0	0
26.69341	0.06356192	-0.009167584	0	0	0	0
26.70998	0.06356192	-0.009167584	0	0	0	0
26.72655	0.06356192	-0.009167584	0	0	0	0
26.74312	0.06356192	-0.009167584	0	0	0	0
26.76193	0.06356192	-0.009167584	0	0	0	0
26.7787	0.06356192	-0.009167584	0	0	0	0
26.79507	0.06233957	-0.009167585	-0.07466636	-5.688934E-08	-2.253305	-1.716825E-06
26.81164	0.06233957	-0.009167585	0	0	2.266744	1.727064E-06
26.8282	0.06111722	-0.00794524	-0.07380667	0.07380638	-2.227746	2.227737
26.84483	0.05989488	-0.007945239	-0.07349305	5.599556E-08	0.009448129	-2.223511
26.86133	0.05989488	-0.006722894	0	0.07407077	2.218024	2.235459
26.8779	0.05989488	-0.006722894	0	0	0	-2.239715
26.89481	0.05989488	-0.006722894	0	0	0	0
26.91103	0.05989488	-0.006722894	0	0	0	0
26.92761	0.05989488	-0.006722894	0	0	0	0
26.94417	0.05989488	-0.006722894	0	0	0	0
26.96103	0.05989488	-0.006722894	0	0	0	0
26.9773	0.05989488	-0.006722894	0	0	0	0
26.99387	0.05989488	-0.006722894	0	0	0	0
27.01043	0.05989488	-0.006722894	0	0	0	0
27.027	0.05989488	-0.006722894	0	0	0	0
27.04357	0.05989488	-0.006722894	0	0	0	0
27.06025	0.05989488	-0.006722894	0	0	0	0
27.0767	0.05989488	-0.006722894	0	0	0	0
27.09346	0.05989488	-0.006722894	0	0	0	0
27.1099	0.05989488	-0.006722894	0	0	0	0
27.1264	0.05989488	-0.006722894	0	0	0	0
27.14297	0.05989488	-0.006722894	0	0	0	0
27.15971	0.05989488	-0.006722894	0	0	0	0
27.1761	0.05989488	-0.006722894	0	0	0	0
27.19271	0.05989488	-0.006722894	0	0	0	0
27.20923	0.05989488	-0.006722894	0	0	0	0
27.22626	0.05989488	-0.006722894	0	0	0	0
27.24548	0.05989488	-0.006722894	0	0	0	0
27.26205	0.05989488	-0.006722894	0	0	0	0
27.27861	0.05989488	-0.006722894	0	0	0	0
27.2952	0.05989488	-0.006722894	0	0	0	0
27.31185	0.05989488	-0.006722894	0	0	0	0
27.32843	0.05989488	-0.006722894	0	0	0	0
27.40979	0.05989488	-0.006722894	0	0	0	0
27.43031	0.05989488	-0.006722894	0	0	0	0
27.44688	0.05989488	-0.006722894	0	0	0	0
27.46345	0.05989488	-0.006722894	0	0	0	0
27.48287	0.05989488	-0.006722894	0	0	0	0
27.49944	0.05989488	-0.006722894	0	0	0	0
27.516	0.05989488	-0.006722894	0	0	0	0
27.53257	0.05989488	-0.006722894	0	0	0	0
27.54914	0.05989488	-0.006722894	0	0	0	0
27.5657	0.05989488	-0.006722894	0	0	0	0
27.58227	0.05989488	-0.006722894	0	0	0	0
27.59884	0.05989488	-0.006722894	0	0	0	0
27.61584	0.05989488	-0.006722894	0	0	0	0
27.63197	0.05989488	-0.006722894	0	0	0	0
27.64854	0.05989488	-0.006722894	0	0	0	0
27.66511	0.05989488	-0.006722894	0	0	0	0
27.68167	0.05989488	-0.006722894	0	0	0	0
27.69824	0.05989488	-0.006722894	0	0	0	0
27.71481	0.05989488	-0.006722894	0	0	0	0
27.73137	0.05989488	-0.006722894	0	0	0	0
27.74794	0.05989488	-0.006722894	0	0	0	0
27.76451	0.05989488	-0.006722894	0	0	0	0
27.78107	0.05989488	-0.006722894	0	0	0	0
27.79764	0.05989488	-0.006722894	0	0	0	0
27.81421	0.05989488	-0.006722894	0	0	0	0
27.83078	0.05989488	-0.006722894	0	0	0	0
27.84734	0.05989488	-0.006722894	0	0	0	0
27.86515	0.05989488	-0.006722894	0	0	0	0
27.88172	0.05989488	-0.006722894	0	0	0	0
27.89829	0.05989488	-0.006722894	0	0	0	0
27.91485	0.05989488	-0.006722894	0	0	0	0
27.93179	0.05989488	-0.006722894	0	0	0	0
27.94799	0.05989488	-0.006722894	0	0	0	0
27.96455	0.05989488	-0.006722894	0	0	0	0
27.98112	0.05989488	-0.006722894	0	0	0	0
27.99769	0.05989488	-0.006722894	0	0	0	0
28.01426	0.05989488	-0.006722894	0	0	0	0
28.03082	0.05989488	-0.006722894	0	0	0	0
28.04739	0.05989488	-0.006722894	0	0	0	0
28.06396	0.05989488	-0.006722894	0	0	0	0
28.08067	0.05989488	-0.006722894	0	0	0	0
28.09722	0.05989488	-0.006722894	0	0	0	0
28.11366	0.05989488	-0.006722894	0	0	0	0
28.13022	0.05989488	-0.006722894	0	0	0	0
28.14679	0.05989488	-0.006722894	0	0	0	0
28.16336	0.05989488	-0.006722894	0	0	0	0
28.17993	0.05989488	-0.006722894	0	0	0	0
28.19649	0.05989488	-0.006722894	0	0	0	0
28.21306	0.05989488	-0.006722894	0	0	0	0
28.22962	0.05989488	-0.006722894	0	0	0	0
28.24619	0.05989488	-0.006722894	0	0	0	0
28.26353	0.05989488	-0.006722894	0	0	0	0
28.27933	0.05989488	-0.006722894	0	0	0	0
28.29589	0.05989488	-0.006722894	0	0	0	0
28.31255	0.05989488	-0.006722894	0	0	0	0
28.32971	0.05989488	-0.006722894	0	0	0	0
28.34559	0.05989488	-0.006722894	0	0	0	0
28.36216	0.05989488	-0.006722894	0	0	0	0
28.37873	0.05989488	-0.006722894	0	0	0	0
28.39595	0.05989488	-0.006722894	0	0	0	0
28.41186	0.05989488	-0.006722894	0	0	0	0
28.42843	0.05989488	-0.006722894	0	0	0	0
28.4452	0.05989488	-0.006722894	0	0	0	0
28.46184	0.05989488	-0.006722894	0	0	0	0
28.47813	0.05989488	-0.006722894	0	0	0	0
28.49475	0.05989488	-0.006722894	0	0	0	0
28.51131	0.05989488	-0.006722894	0	0	0	0
28.52783	0.05989488	-0.006722894	0	0	0	0
28.5444	0.05989488	-0.006722894	0	0	0	0
28.56112	0.05989488	-0.006722894	0	0	0	0
28.57753	0.05989488	-0.006722894	0	0	0	0
28.5941	0.05989488	-0.006722894	0	0	0	0
28.61347	0.05989488	-0.006722894	0	0	0	0
28.6301	0.05989488	-0.006722894	0	0	0	0
28.6466	0.05989488	-0.006722894	0	0	0	0
28.66317	0.05989488	-0.006722894	0	0	0	0
28.68307	0.05989488	-0.006722894	0	0	0	0
28.69964	0.05989488	-0.006722894	0	0	0	0
28.71641	0.05989488	-0.006722894	0	0	0	0
28.73294	0.05989488	-0.006722894	0	0	0	0
28.74934	0.05989488	-0.006722894	0	0	0	0
28.76591	0.05989488	-0.006722894	0	0	0	0
28.78248	0.05989488	-0.006722894	0	0	0	0
28.79904	0.05989488	-0.006722894	0	0	0	0
28.81561	0.05989488	-0.006722894	0	0	0	0
28.83218	0.05989488	-0.006722894	0	0	0	0
28.84874	0.05989488	-0.006722894	0	0	0	0
28.86548	0.05989488	-0.006722894	0	0	0	0
28.882	0.05989488	-0.006722894	0	0	0	0
28.89844	0.05989488	-0.006722894	0	0	0	0
28.91501	0.05989488	-0.006722894	0	0	0	0
28.93395	0.05989488	-0.006722894	0	0	0	0
28.95052	0.05989488	-0.006722894	0	0	0	0
28.96708	0.05989488	-0.006722894	0	0	0	0
28.98365	0.05989488	-0.006722894	0	0	0	0
29.00034	0.05989488	-0.006722894	0	0	0	0
29.01678	0.05989488	-0.006722894	0	0	0	0
29.03335	0.05989488	-0.006722894	0	0	0	0
29.05024	0.05989488	-0.006722894	0	0	0	0
29.06649	0.05989488	-0.006722894	0	0	0	0
29.08305	0.05989488	-0.006722894	0	0	0	0
29.09962	0.05989488	-0.006722894	0	0	0	0
29.11619	0.05989488	-0.006722894	0	0	0	0
29.13276	0.05989488	-0.006722894	0	0	0	0
29.14932	0.05989488	-0.006722894	0	0	0	0
29.16589	0.05989488	-0.006722894	0	0	0	0
29.18246	0.05989488	-0.006722894	0	0	0	0
29.19902	0.05989488	-0.006722894	0	0	0	0
29.21559	0.05989488	-0.006722894	0	0	0	0
29.23216	0.05989488	-0.006722894	0	0	0	0
29.24892	0.05989488	-0.006722894	0	0	0	0
29.26529	0.05989488	-0.006722894	0	0	0	0
29.28186	0.05989488	-0.006722894	0	0	0	0
29.29843	0.05989488	-0.006722894	0	0	0	0
29.31499	0.05989488	-0.006722894	0	0	0	0
29.33156	0.05989488	-0.006722894	0	0	0	0
29.34812	0.05989488	-0.006722894	0	0	0	0
29.36469	0.05989488	-0.006722894	0	0	0	0
29.38126	0.05989488	-0.006722894	0	0	0	0
29.39783	0.05989488	-0.006722894	0	0	0	0
29.41466	0.05989488	-0.006722894	0	0	0	0
29.43112	0.05989488	-0.006722894	0	0	0	0
29.44776	0.05989488	-0.006722894	0	0	0	0
29.46409	0.05989488	-0.006722894	0	0	0	0
29.48066	0.05989488	-0.006722894	0	0	0	0
29.49744	0.05989488	-0.006722894	0	0	0	0
29.51379	0.05989488	-0.006722894	0	0	0	0
29.53049	0.05989488	-0.006722894	0	0	0	0
29.54693	0.05989488	-0.006722894	0	0	0	0
29.56352	0.05989488	-0.006722894	0	0	0	0
29.58006	0.05989488	-0.006722894	0	0	0	0
29.59663	0.05989488	-0.006722894	0	0	0	0
29.61367	0.05989488	-0.006722894	0	0	0	0
29.62976	0.05989488	-0.006722894	0	0	0	0
29.64633	0.05989488	-0.006722894	0	0	0	0
29.66323	0.05989488	-0.006722894	0	0	0	0
29.67952	0.06111722	0.00550055	0.07503329	0.7503343	2.260475	22.6048
29.69613	0.06233957	0.03728151	0.07359477	1.913456	-0.04372423	35.35339
29.71259	0.05867254	0.09228701	-0.2227273	3.340909	-8.959522	43.16013
29.72916	0.04889378	0.1534042	-0.5902469	3.689043	-11.12635	10.53947
29.74593	0.03544799	0.2145215	-0.8019869	3.645396	-6.352296	-1.309432
29.76229	0.02444689	0.2634152	-0.6721531	2.987345	3.918616	-19.86117
29.77886	0.02077986	0.2890845	-0.221368	1.549579	13.68824	-43.65825
29.7957	0.02077986	0.3013079	-1.105835E-07	0.7256929	6.625972	-24.66052
29.81199	0.02077986	0.3037526	0	0.1500666	3.337415E-06	-17.37243
29.82871	0.02077986	0.3049749	0	0.07309905	0	-2.331474
29.84513	0.02077986	0.3049749	0	0	0	-2.206261
29.86169	0.02077986	0.3049749	0	0	0	0
29.87826	0.02077986	0.3049749	0	0	0	0
29.89517	0.02077986	0.3049749	0	0	0	0
29.91139	0.02077986	0.3049749	0	0	0	0
29.93388	0.02077986	0.3049749	0	0	0	0
29.95044	0.02077986	0.3049749	0	0	0	0
29.96889	0.02077986	0.3049749	0	0	0	0
29.98546	0.02077986	0.3049749	0	0	0	0
30.00203	0.02077986	0.3049749	0	0	0	0
30.02335	0.02077986	0.3049749	0	0	0	0
30.04012	0.02077986	0.3049749	0	0	0	0
30.05651	0.02077986	0.3049749	0	0	0	0
30.07305	0.02077986	0.3049749	0	0	0	0
30.08966	0.02077986	0.3049749	0	0	0	0
30.10619	0.02077986	0.3049749	0	0	0	0
30.12275	0.0220022	0.2988632	0.07379794	-0.3689886	2.229922	-11.14958
30.13932	0.02566924	0.2793057	0.2213426	-1.180493	4.45342	-24.49408
30.15589	0.02933627	0.2536365	0.2213424	-1.549399	-6.745769E-06	-11.13359
30.17245	0.03055861	0.2230779	0.07378956	-1.844733	-4.45341	-8.913725
30.18946	0.0330033	0.170517	0.1437389	-3.090391	2.08349	-37.10279
30.20558	0.0330033	0.1350691	0	-2.198362	-4.338298	26.92303
30.22215	0.03178095	0.1032881	-0.07378095	-1.918302	-2.256853	8.566639
30.23872	0.03178095	0.08373059	0	-1.18063	2.226841	22.26427
30.25533	0.03055861	0.07395184	-0.07357754	-0.5886203	-2.217638	17.84326
30.27185	0.03055861	0.06906246	1.12728E-07	-0.2959069	2.22045	8.833599
30.28842	0.03055861	0.06539543	0	-0.2213681	-3.406844E-06	2.252697
30.30499	0.03055861	0.06417309	0	-0.07378072	0	4.454453
30.32155	0.03055861	0.06295075	1.124295E-07	-0.07378072	3.393129E-06	0
30.33812	0.03055861	0.0617284	0	-0.07379794	-3.393519E-06	-0.0005197089
30.35468	0.03055861	0.06050605	-1.124295E-07	-0.07378095	-3.393519E-06	0.0005129623
30.37125	0.03055861	0.05928371	0	-0.07378095	3.393129E-06	0
30.388	0.03055861	0.05806136	0	-0.0729578	0	0.02470329
30.40438	0.03055861	0.05683902	0	-0.07463135	0	-0.05051073
30.4211	0.03055861	0.05439433	1.114289E-07	-0.1462484	3.367E-06	-2.164022
30.43761	0.03055861	0.05194964	-1.128322E-07	-0.1480904	-6.749949E-06	-0.05544323
30.45412	0.03055861	0.04828261	1.128061E-07	-0.2220839	6.833378E-06	-2.240866
30.47065	0.03055861	0.04706026	-1.12689E-07	-0.07395123	-6.824705E-06	4.483297
30.48768	0.03055861	0.04583792	-1.093453E-07	-0.07175695	9.962277E-08	0.06537669
30.50378	0.03055861	0.04461557	1.156927E-07	-0.07592221	6.79166E-06	-0.1257078
30.52037	0.03055861	0.04461557	0	0	-3.539288E-06	2.322623
30.53691	0.03055861	0.04461557	0	0	0	0
30.55348	0.03055861	0.04461557	0	0	0	0
30.57079	0.03055861	0.04461557	0	0	0	0
30.58661	0.03055861	0.04461557	0	0	0	0
30.60318	0.03055861	0.04461557	0	0	0	0
30.61975	0.03055861	0.04461557	0	0	0	0
30.63632	0.03055861	0.04461557	0	0	0	0
30.65311	0.03055861	0.04461557	0	0	0	0
30.66945	0.03055861	0.04461557	0	0	0	0
30.68602	0.03055862	0.04339323	2.24859E-07	-0.07378072	6.833856E-06	-2.242325
30.70259	0.03055862	0.04339323	0	0	-6.786257E-06	2.226707
30.71915	0.03055862	0.04339323	0	0	0	0
30.73572	0.03055862	0.04339323	0	0	0	0
30.75229	0.03055862	0.04339323	0	0	0	0
30.76921	0.03055861	0.04217089	-2.201945E-07	-0.07225043	-6.575833E-06	-2.157669
30.78589	0.03055861	0.04217089	0	0	6.552692E-06	2.150076
30.80199	0.03055861	0.04217089	0	0	0	0
30.81855	0.03055861	0.0397262	0	-0.1475617	0	-4.517653
30.83512	0.03055861	0.0397262	0	0	0	4.45342
30.85169	0.03055861	0.03850385	0	-0.07378095	0	-2.226713
30.86826	0.03055861	0.03605916	1.124295E-07	-0.1475617	3.393129E-06	-2.226707
30.88482	0.03055861	0.03483682	-1.124295E-07	-0.07378095	-6.786257E-06	2.226707
30.90139	0.03055861	0.03361448	1.124295E-07	-0.07378072	6.786257E-06	6.745769E-06
30.91796	0.03055861	0.03239213	-1.124295E-07	-0.07378095	-6.786257E-06	-6.745769E-06
30.93452	0.03055861	0.03239213	0	0	3.393129E-06	2.226713
30.95109	0.03055861	0.03239213	0	0	0	0
30.96766	0.03055861	0.03116979	0	-0.07378083	0	-2.22671
30.98443	0.03055861	0.03116979	0	0	0	2.212952
31.00099	0.03178095	0.02994744	0.07383172	-0.07383206	2.215239	-2.215249
31.02083	0.03178096	0.0287251	1.877644E-07	-0.06160925	-2.02856	0.3358284
31.0374	0.03178096	0.0287251	0	0	-5.157303E-06	1.692214
31.05396	0.03178096	0.0287251	0	0	0	0
31.07053	0.03178096	0.0287251	0	0	0	0
31.0871	0.03178096	0.0287251	0	0	0	0
31.10373	0.03178096	0.0287251	0	0	0	0
31.12023	0.03178096	0.02750275	0	-0.07407089	0	-2.235592
31.1368	0.03178096	0.02750275	0	0	0	2.239977
31.15348	0.03178096	0.02750275	0	0	0	0
31.17002	0.03178096	0.02628041	0	-0.07390836	0	-2.22454
31.18649	0.0330033	0.02505806	0.07419071	-0.07419083	2.24723	-0.008555882
31.20306	0.0330033	0.02261337	0	-0.1475619	-2.245284	-2.220479
31.22009	0.0330033	0.02139103	0	-0.07178073	0	2.255658
31.23619	0.0330033	0.02139103	0	0	0	2.166471
31.25276	0.0330033	0.02139103	0	0	0	0
31.26933	0.0330033	0.02139103	0	0	0	0
31.2859	0.0330033	0.02139103	0	0	0	0
31.30246	0.0330033	0.02139103	0	0	0	0
31.31903	0.0330033	0.02139103	0	0	0	0
31.3356	0.0330033	0.02139103	0	0	0	0
31.35216	0.0330033	0.02139103	0	0	0	0
31.36873	0.0330033	0.02139103	0	0	0	0
31.3853	0.0330033	0.02139103	0	0	0	0
31.40187	0.0330033	0.02139103	0	0	0	0
31.41843	0.0330033	0.02139103	0	0	0	0
31.435	0.0330033	0.02139103	0	0	0	0
31.45157	0.0330033	0.02139103	0	0	0	0
31.46813	0.0330033	0.02139103	0	0	0	0
31.48496	0.0330033	0.02139103	0	0	0	0
31.50127	0.0330033	0.02139103	0	0	0	0
31.51799	0.0330033	0.02139103	0	0	0	0
31.5344	0.0330033	0.02139103	0	0	0	0
31.55097	0.0330033	0.02139103	0	0	0	0
31.56753	0.0330033	0.02139103	0	0	0	0
31.5841	0.0330033	0.02139103	0	0	0	0
31.60067	0.0330033	0.02139103	0	0	0	0
31.61723	0.0330033	0.02139103	0	0	0	0
31.63407	0.0330033	0.02139103	0	0	0	0
31.65037	0.0330033	0.02139103	0	0	0	0
31.66693	0.0330033	0.02139103	0	0	0	0
31.68357	0.0330033	0.02139103	0	0	0	0
31.70007	0.0330033	0.02139103	0	0	0	0
31.71663	0.0330033	0.02139103	0	0	0	0
31.73335	0.0330033	0.02139103	0	0	0	0
31.74977	0.0330033	0.02139103	0	0	0	0
31.76633	0.0330033	0.02139103	0	0	0	0
31.7829	0.0330033	0.02139103	0	0	0	0
31.79962	0.0330033	0.02139103	0	0	0	0
31.81716	0.0330033	0.02139103	0	0	0	0
31.83373	0.0330033	0.02139103	0	0	0	0
31.8503	0.0330033	0.02139103	0	0	0	0
31.86723	0.0330033	0.02139103	0	0	0	0
31.88343	0.0330033	0.02139103	0	0	0	0
31.9	0.0330033	0.02139103	0	0	0	0
31.91656	0.0330033	0.02139103	0	0	0	0
31.93313	0.0330033	0.02139103	0	0	0	0
31.9497	0.0330033	0.02139103	0	0	0	0
31.96627	0.0330033	0.02139103	0	0	0	0
31.98284	0.0330033	0.02139103	0	0	0	0
32.00515	0.0330033	0.02139103	0	0	0	0
32.02172	0.0330033	0.02139103	0	0	0	0
32.03829	0.0330033	0.02139103	0	0	0	0
32.0582	0.0330033	0.02139103	0	0	0	0
32.07985	0.0330033	0.02139103	0	0	0	0
32.09642	0.0330033	0.02139103	0	0	0	0
32.11298	0.0330033	0.02139103	0	0	0	0
32.1298	0.0330033	0.02139103	0	0	0	0
32.22007	0.0330033	0.02139103	0	0	0	0
32.24561	0.0330033	0.02139103	0	0	0	0
32.26984	0.0330033	0.02139103	0	0	0	0
32.28642	0.0330033	0.02139103	0	0	0	0
32.30298	0.0330033	0.02139103	0	0	0	0
32.31955	0.0330033	0.02139103	0	0	0	0
32.33621	0.0330033	0.02139103	0	0	0	0
32.35268	0.0330033	0.02139103	0	0	0	0
32.36925	0.0330033	0.02139103	0	0	0	0
32.38598	0.0330033	0.02139103	0	0	0	0
32.40238	0.0330033	0.02139103	0	0	0	0
32.41914	0.0330033	0.02139103	0	0	0	0
32.43551	0.0330033	0.02139103	0	0	0	0
32.45208	0.0330033	0.02139103	0	0	0	0
32.46865	0.0330033	0.02139103	0	0	0	0
32.4855	0.0330033	0.02139103	0	0	0	0
32.50178	0.0330033	0.02139103	0	0	0	0
32.51835	0.0330033	0.02139103	0	0	0	0
32.53492	0.0330033	0.02139103	0	0	0	0
32.55148	0.0330033	0.02139103	0	0	0	0
32.56805	0.0330033	0.02139103	0	0	0	0
32.58462	0.0330033	0.02139103	0	0	0	0
32.60118	0.0330033	0.02139103	0	0	0	0
32.61775	0.0330033	0.02139103	0	0	0	0
32.63432	0.0330033	0.02139103	0	0	0	0
32.65089	0.0330033	0.02139103	0	0	0	0
32.66745	0.0330033	0.02139103	0	0	0	0
32.68402	0.0330033	0.02139103	0	0	0	0
32.70059	0.0330033	0.02139103	0	0	0	0
32.71716	0.0330033	0.02139103	0	0	0	0
32.73372	0.0330033	0.02139103	0	0	0	0
32.75029	0.0330033	0.02139103	0	0	0	0
32.76686	0.0330033	0.02139103	0	0	0	0
32.78344	0.0330033	0.02139103	0	0	0	0
32.79999	0.0330033	0.02139103	0	0	0	0
32.81656	0.0330033	0.02139103	0	0	0	0
32.83313	0.0330033	0.02139103	0	0	0	0
32.85004	0.0330033	0.02139103	0	0	0	0
32.86626	0.0330033	0.02139103	0	0	0	0
32.88282	0.0330033	0.02139103	0	0	0	0
32.89992	0.0330033	0.02139103	0	0	0	0
32.91596	0.0330033	0.02139103	0	0	0	0
32.93253	0.0330033	0.02139103	0	0	0	0
32.94909	0.0330033	0.02139103	0	0	0	0
32.96566	0.0330033	0.02139103	0	0	0	0
32.98223	0.0330033	0.02139103	0	0	0	0
32.99879	0.0330033	0.02139103	0	0	0	0
33.01536	0.0330033	0.02139103	0	0	0	0
33.03193	0.0330033	0.02139103	0	0	0	0
33.04857	0.0330033	0.02139103	0	0	0	0
33.06506	0.0330033	0.02139103	0	0	0	0
33.08163	0.0330033	0.02139103	0	0	0	0
33.09819	0.0330033	0.02139103	0	0	0	0
33.11476	0.0330033	0.02139103	0	0	0	0
33.13136	0.0330033	0.02139103	0	0	0	0
33.1479	0.0330033	0.02139103	0	0	0	0
33.16936	0.0330033	0.02139103	0	0	0	0
33.18617	0.0330033	0.02139103	0	0	0	0
33.20267	0.0330033	0.02139103	0	0	0	0
33.22216	0.0330033	0.02139103	0	0	0	0
33.24343	0.0330033	0.02139103	0	0	0	0
33.26	0.0330033	0.02139103	0	0	0	0
33.27691	0.0330033	0.02139103	0	0	0	0
33.29313	0.0330033	0.02139103	0	0	0	0
33.30972	0.0330033	0.02139103	0	0	0	0
33.32647	0.0330033	0.02139103	0	0	0	0
33.34283	0.0330033	0.02139103	0	0	0	0
33.35958	0.0330033	0.02139103	0	0	0	0
33.37597	0.0330033	0.02139103	0	0	0	0
33.39259	0.0330033	0.02139103	0	0	0	0
33.4091	0.0330033	0.02139103	0	0	0	0
33.42567	0.0330033	0.02139103	0	0	0	0
33.44223	0.0330033	0.02139103	0	0	0	0
33.45892	0.0330033	0.02139103	0	0	0	0
33.47537	0.0330033	0.02139103	0	0	0	0
33.49194	0.0330033	0.02139103	0	0	0	0
33.50857	0.0330033	0.02139103	0	0	0	0
33.52507	0.0330033	0.02139103	0	0	0	0
33.54163	0.0330033	0.02139103	0	0	0	0
33.55863	0.0330033	0.02139103	0	0	0	0
33.57476	0.0330033	0.02139103	0	0	0	0
33.59169	0.0330033	0.02139103	0	0	0	0
33.60789	0.0330033	0.02139103	0	0	0	0
33.62446	0.0330033	0.02139103	0	0	0	0
33.64125	0.0330033	0.02139103	0	0	0	0
33.6576	0.0330033	0.02139103	0	0	0	0
33.67416	0.0330033	0.02139103	0	0	0	0
33.69081	0.0330033	0.02139103	0	0	0	0
33.7073	0.0330033	0.02139103	0	0	0	0
33.72422	0.0330033	0.02139103	0	0	0	0
33.74118	0.0330033	0.02139103	0	0	0	0
33.757	0.0330033	0.02139103	0	0	0	0
33.77356	0.0330033	0.02139103	0	0	0	0
33.79015	0.0330033	0.02139103	0	0	0	0
33.8067	0.0330033	0.02139103	0	0	0	0
33.82327	0.0330033	0.02139103	0	0	0	0
33.83983	0.0330033	0.02139103	0	0	0	0
33.8564	0.0330033	0.02139103	0	0	0	0
33.87313	0.0330033	0.02139103	0	0	0	0
33.88965	0.0330033	0.02139103	0	0	0	0
33.90616	0.0330033	0.02139103	0	0	0	0
33.92267	0.0330033	0.02139103	0	0	0	0
33.93968	0.0330033	0.02139103	0	0	0	0
33.9558	0.0330033	0.02139103	0	0	0	0
33.97237	0.0330033	0.02139103	0	0	0	0
33.98972	0.0330033	0.02139103	0	0	0	0
34.0055	0.0330033	0.02139103	0	0	0	0
34.02207	0.0330033	0.02139103	0	0	0	0
34.03864	0.0330033	0.02139103	0	0	0	0
34.0552	0.0330033	0.02139103	0	0	0	0
34.07177	0.0330033	0.02139103	0	0	0	0
34.08834	0.0330033	0.02139103	0	0	0	0
34.10528	0.0330033	0.02139103	0	0	0	0
34.12147	0.0330033	0.02139103	0	0	0	0
34.13804	0.0330033	0.02139103	0	0	0	0
34.15503	0.0330033	0.02139103	0	0	0	0
34.22571	0.03422565	0.02139103	0.0172944	-2.635369E-08	0.1972599	-3.005901E-07
34.24591	0.220022	0.004278206	9.200114	-0.8473789	101.0503	-9.324797
34.26273	0.2664711	0.009167585	2.761078	0.2906398	-173.9442	30.74245
34.27904	0.2738052	0.01283462	0.4496207	0.2248107	-69.75993	-1.986723
34.29561	0.2762499	0.01527931	0.1475275	0.1475277	-9.186998	-2.350265
34.31218	0.2774722	0.01650165	0.07379772	0.07379783	-2.225169	-2.225172
34.33263	0.2823616	0.017724	0.239082	0.05977069	4.465453	-0.3789684
34.34919	0.3092532	0.02261337	1.62318	0.2951235	37.39003	6.357823
34.36576	0.322699	0.02383572	0.8115898	0.07378072	-24.49383	-6.680137
34.38233	0.3447011	0.02383572	1.328055	0	15.58694	-2.226707
34.3989	0.3605916	0.02505806	0.9591512	0.07378095	-11.13353	2.226713
34.41546	0.3679257	0.02505806	0.4426861	-1.124295E-07	-15.58695	-2.226717
34.43212	0.3764821	0.02750275	0.5137444	0.1467845	2.138878	4.418271
34.4486	0.3838162	0.02994744	0.4450412	0.1483472	-2.073464	0.04716057
34.46517	0.3899279	0.02994744	0.3688205	0	-2.306188	-4.488495
34.48173	0.3911502	0.02994744	0.07381472	0	-8.904317	0
34.49829	0.3911502	0.02994744	0	0	-2.228246	0
34.51486	0.3911502	0.02994744	0	0	0	0
34.53143	0.3911502	0.02994744	0	0	0	0
34.54839	0.3911502	0.02994744	0	0	0	0
34.5742	0.3911502	0.02994744	0	0	0	0
34.59077	0.3911502	0.02994744	0	0	0	0
34.60734	0.3911502	0.02994744	0	0	0	0
34.62399	0.3911502	0.02994744	0	0	0	0
34.64724	0.3911502	0.02994744	0	0	0	0
34.66381	0.3911502	0.02994744	0	0	0	0
34.68038	0.3911502	0.02994744	0	0	0	0
34.69695	0.3911502	0.02994744	0	0	0	0
34.71351	0.3862609	0.02994744	-0.2951229	0	-8.906827	0
34.73014	0.3764821	0.0287251	-0.588216	-0.07352689	-8.830318	-2.21522
34.74664	0.361814	0.02628041	-0.8886443	-0.1481073	-9.067989	-2.251101
34.76348	0.3373671	0.02383572	-1.451881	-0.1451881	-16.89155	0.08754719
34.77999	0.3055861	0.02016868	-1.924506	-0.2220584	-14.17087	-2.304826
34.79634	0.2701381	0.01894634	-2.168608	-0.07477961	-7.428576	4.482037
34.81291	0.2383572	0.01527931	-1.918301	-0.2213425	7.605065	-4.453012
34.82984	0.1992421	0.01283462	-2.310449	-0.144403	-11.70702	2.296917
34.84604	0.1686835	0.01038993	-1.885772	-0.1508617	12.81679	-0.1949239
34.86261	0.1479037	0.009167584	-1.254274	-0.07378083	19.26938	2.35203
34.87918	0.1369026	0.009167584	-0.6640274	0	17.81368	2.22671
34.89574	0.1295685	0.007945239	-0.4426852	-0.07378089	6.680119	-2.226712
34.91231	0.1234568	0.006722895	-0.3689045	-0.07378081	2.226707	2.473449E-06
34.92888	0.1210121	0.006722895	-0.1475614	0	6.680148	2.226709
34.94572	0.1197898	0.006722895	-0.07256107	0	2.244651	0
34.96201	0.1173451	0.00550055	-0.1500846	-0.07504226	-2.339665	-2.26478
34.97858	0.1149004	0.00550055	-0.1475624	2.810737E-08	0.07676713	2.283976
34.99515	0.1087887	0.004278206	-0.3689036	-0.07378086	-6.680093	-2.226712
35.01171	0.1026769	0.004278206	-0.3689041	0	-1.349154E-05	2.226711
35.02828	0.1002323	0.004278206	-0.1475619	0	6.68012	0
35.04509	0.09778755	0.004278205	-0.1454854	-2.771176E-08	0.06222405	-8.304152E-07
35.06142	0.09656522	0.004278206	-0.07484881	2.851444E-08	2.131817	1.69691E-06
35.07811	0.09412053	0.004278206	-0.1464821	0	-2.169391	-8.6355E-07
35.09455	0.09412053	0.004278206	0	0	4.42084	0
35.11163	0.09289818	0.004278206	-0.07157285	0	-2.135001	0
35.12814	0.09289818	0.004278206	0	0	2.130879	0
35.14447	0.09289818	0.004278206	0	0	0	0
35.16104	0.09289818	0.003055861	0	-0.07378086	0	-2.242459
35.17761	0.09167584	0.003055861	-0.07378072	0	-2.226707	2.226711
35.19418	0.08556411	0.001833517	-0.3689045	-0.07378086	-8.906855	-2.226711
35.21074	0.07945239	0.001833517	-0.3689045	-7.026843E-09	0	2.226711
35.22731	0.07456302	0.001833517	-0.2951229	7.026843E-09	2.226734	4.241411E-07
35.24388	0.0660066	0.0006111722	-0.5164664	-0.07378086	-6.680161	-2.226711
35.26044	0.05745019	0.0006111722	-0.5164657	0	2.158646E-05	2.226711
35.27701	0.04767144	-0.0006111722	-0.5902469	-0.07378086	-2.226721	-2.226711
35.29359	0.0440044	-0.0006111723	-0.2212407	-3.511804E-09	11.13406	2.226198
35.31015	0.04278206	-0.0006111722	-0.07381472	3.51504E-09	4.449326	2.120706E-07
35.32671	0.04278206	-0.0006111722	0	0	2.228246	-1.061086E-07
35.34328	0.04278206	-0.0006111722	0	0	0	0
35.35985	0.04278206	-0.0006111722	0	0	0	0
35.37642	0.04278206	-0.0006111722	0	0	0	0
35.39626	0.04278206	-0.0006111722	0	0	0	0
35.41282	0.04278206	-0.0006111722	0	0	0	0
35.42939	0.04278206	-0.0006111722	0	0	0	0
35.44596	0.04278206	-0.0006111722	0	0	0	0
35.46282	0.04278206	-0.0006111722	0	0	0	0
35.47918	0.04278206	-0.0006111722	0	0	0	0
35.49566	0.04278206	-0.0006111722	0	0	0	0
35.51223	0.04278206	-0.0006111722	0	0	0	0
35.52879	0.04278206	-0.0006111722	0	0	0	0
35.54536	0.04278206	-0.0006111722	0	0	0	0
35.56193	0.0440044	-0.0006111723	0.07378072	-3.513421E-09	2.226707	-1.060353E-07
35.5785	0.0440044	-0.0006111723	0	0	-2.226707	1.060353E-07
35.59537	0.0440044	-0.0006111723	0	0	0	0
35.61163	0.0440044	-0.0006111723	0	0	0	0
35.6282	0.0440044	-0.0006111723	0	0	0	0
35.64476	0.0440044	-0.0006111723	0	0	0	0
35.66133	0.0440044	-0.0006111723	0	0	0	0
35.67791	0.0440044	-0.0006111723	0	0	0	0
35.69446	0.0440044	-0.0006111723	0	0	0	0
35.71103	0.0440044	-0.0006111723	0	0	0	0
35.7276	0.0440044	-0.0006111723	0	0	0	0
35.74416	0.0440044	-0.0006111723	0	0	0	0
35.76073	0.0440044	-0.0006111723	0	0	0	0
35.7773	0.0440044	-0.0006111723	0	0	0	0
35.79387	0.0440044	-0.0006111723	0	0	0	0
35.81081	0.0440044	-0.0006111723	0	0	0	0
35.827	0.0440044	-0.0006111723	0	0	0	0
35.84356	0.0440044	-0.0006111723	0	0	0	0
35.86013	0.0440044	-0.0006111723	0	0	0	0
35.8767	0.0440044	-0.0006111723	0	0	0	0
35.89326	0.0440044	-0.0006111723	0	0	0	0
35.90983	0.0440044	-0.0006111723	0	0	0	0
35.9264	0.0440044	-0.0006111723	0	0	0	0
35.94297	0.0440044	-0.0006111723	0	0	0	0
35.95953	0.0440044	-0.0006111723	0	0	0	0
35.9761	0.0440044	-0.0006111723	0	0	0	0
35.99266	0.0440044	-0.0006111723	0	0	0	0
36.00923	0.0440044	-0.0006111723	0	0	0	0
36.02609	0.0440044	-0.0006111723	0	0	0	0
36.04237	0.0440044	-0.0006111723	0	0	0	0
36.05893	0.0440044	-0.0006111723	0	0	0	0
36.0755	0.0440044	-0.0006111723	0	0	0	0
36.09206	0.0440044	-0.0006111723	0	0	0	0
36.10863	0.0440044	-0.0006111723	0	0	0	0
36.1252	0.0440044	-0.0006111723	0	0	0	0
36.14177	0.0440044	-0.0006111723	0	0	0	0
36.15862	0.0440044	-0.0006111723	0	0	0	0
36.1749	0.0440044	-0.0006111723	0	0	0	0
36.19146	0.0440044	-0.0006111723	0	0	0	0
36.20803	0.0440044	-0.0006111723	0	0	0	0
36.2246	0.0440044	-0.0006111723	0	0	0	0
36.24117	0.0440044	-0.0006111723	0	0	0	0
36.25773	0.0440044	-0.0006111723	0	0	0	0
36.2743	0.0440044	-0.0006111723	0	0	0	0
36.29106	0.0440044	-0.0006111723	0	0	0	0
36.30743	0.0440044	-0.0006111723	0	0	0	0
36.32416	0.0440044	-0.0006111723	0	0	0	0
36.34057	0.0440044	-0.0006111723	0	0	0	0
36.35714	0.0440044	-0.0006111723	0	0	0	0
36.3737	0.0440044	-0.0006111723	0	0	0	0
36.39027	0.0440044	-0.0006111723	0	0	0	0
36.40684	0.0440044	-0.0006111723	0	0	0	0
36.4235	0.0440044	-0.0006111723	0	0	0	0
36.45009	0.0440044	-0.0006111723	0	0	0	0
36.47477	0.0440044	-0.0006111723	0	0	0	0
36.49133	0.0440044	-0.0006111723	0	0	0	0
36.5079	0.0440044	-0.0006111723	0	0	0	0
36.53058	0.0440044	-0.0006111723	0	0	0	0
36.54715	0.0440044	-0.0006111723	0	0	0	0
36.56371	0.0440044	-0.0006111723	0	0	0	0
36.58063	0.0440044	-0.0006111723	0	0	0	0
36.59685	0.0440044	-0.0006111723	0	0	0	0
36.61352	0.0440044	-0.0006111723	0	0	0	0
36.63014	0.0440044	-0.0006111723	0	0	0	0
36.64655	0.0440044	-0.0006111723	0	0	0	0
36.66312	0.0440044	-0.0006111723	0	0	0	0
36.68013	0.0440044	-0.0006111723	0	0	0	0
36.69625	0.0440044	-0.0006111723	0	0	0	0
36.71282	0.0440044	-0.0006111723	0	0	0	0
36.72939	0.0440044	-0.0006111723	0	0	0	0
36.74623	0.0440044	-0.0006111723	0	0	0	0
36.76277	0.0440044	-0.0006111723	0	0	0	0
36.77908	0.0440044	-0.0006111723	0	0	0	0
36.79565	0.0440044	-0.0006111723	0	0	0	0
36.81222	0.0440044	-0.0006111723	0	0	0	0
36.82878	0.0440044	-0.0006111723	0	0	0	0
36.84568	0.0440044	-0.0006111723	0	0	0	0
36.86388	0.0440044	-0.0006111723	0	0	0	0
36.88045	0.0440044	-0.0006111723	0	0	0	0
36.89702	0.0440044	-0.0006111723	0	0	0	0
36.91359	0.0440044	-0.0006111723	0	0	0	0
36.93015	0.0440044	-0.0006111723	0	0	0	0
36.94672	0.0440044	-0.0006111723	0	0	0	0
36.96328	0.0440044	-0.0006111723	0	0	0	0
36.97985	0.0440044	-0.0006111723	0	0	0	0
36.99642	0.0440044	-0.0006111723	0	0	0	0
37.01299	0.0440044	-0.0006111723	0	0	0	0
37.02966	0.0440044	-0.0006111723	0	0	0	0
37.04621	0.0440044	-0.0006111723	0	0	0	0
37.06268	0.0440044	-0.0006111723	0	0	0	0
37.07925	0.0440044	-0.0006111723	0	0	0	0
37.09582	0.0440044	-0.0006111723	0	0	0	0
37.11246	0.0440044	-0.0006111723	0	0	0	0
37.12899	0.0440044	-0.0006111723	0	0	0	0
37.14552	0.0440044	-0.0006111723	0	0	0	0
37.16209	0.0440044	-0.0006111723	0	0	0	0
37.17865	0.0440044	-0.0006111723	0	0	0	0
37.19522	0.0440044	-0.0006111723	0	0	0	0
37.21179	0.0440044	-0.0006111723	0	0	0	0
37.22836	0.0440044	-0.0006111723	0	0	0	0
37.24492	0.0440044	-0.0006111723	0	0	0	0
37.26149	0.0440044	-0.0006111723	0	0	0	0
37.27806	0.0440044	-0.0006111723	0	0	0	0
37.29474	0.0440044	-0.0006111723	0	0	0	0
37.31119	0.0440044	-0.0006111723	0	0	0	0
37.32776	0.0440044	-0.0006111723	0	0	0	0
37.34433	0.0440044	-0.0006111723	0	0	0	0
37.36089	0.0440044	-0.0006111723	0	0	0	0
37.37748	0.0440044	-0.0006111723	0	0	0	0
37.39414	0.0440044	-0.0006111723	0	0	0	0
37.41059	0.0440044	-0.0006111723	0	0	0	0
37.42716	0.0440044	-0.0006111723	0	0	0	0
37.44373	0.0440044	-0.0006111723	0	0	0	0
37.46029	0.0440044	-0.0006111723	0	0	0	0
37.47686	0.0440044	-0.0006111723	0	0	0	0
37.49639	0.0440044	-0.0006111723	0	0	0	0
37.51296	0.0440044	-0.0006111723	0	0	0	0
37.52953	0.0440044	-0.0006111723	0	0	0	0
37.54625	0.0440044	-0.0006111723	0	0	0	0
37.56266	0.0440044	-0.0006111723	0	0	0	0
37.57922	0.0440044	-0.0006111723	0	0	0	0
37.59579	0.0440044	-0.0006111723	0	0	0	0
37.6127	0.0440044	-0.0006111723	0	0	0	0
37.62925	0.0440044	-0.0006111723	0	0	0	0
37.64549	0.0440044	-0.0006111723	0	0	0	0
37.66241	0.0440044	-0.0006111723	0	0	0	0
37.67867	0.0440044	-0.0006111723	0	0	0	0
37.69519	0.0440044	-0.0006111723	0	0	0	0
37.71176	0.0440044	-0.0006111723	0	0	0	0
37.72832	0.0440044	-0.0006111723	0	0	0	0
37.74489	0.0440044	-0.0006111723	0	0	0	0
37.76174	0.0440044	-0.0006111723	0	0	0	0
37.77831	0.0440044	-0.0006111723	0	0	0	0
37.79459	0.0440044	-0.0006111723	0	0	0	0
37.81116	0.0440044	-0.0006111723	0	0	0	0
37.82772	0.0440044	-0.0006111723	0	0	0	0
37.84432	0.0440044	-0.0006111723	0	0	0	0
37.86086	0.0440044	-0.0006111723	0	0	0	0
37.87783	0.0440044	-0.0006111723	0	0	0	0
37.89399	0.0440044	-0.0006111723	0	0	0	0
37.91072	0.0440044	-0.0006111723	0	0	0	0
37.92718	0.0440044	-0.0006111723	0	0	0	0
37.94369	0.0440044	-0.0006111723	0	0	0	0
37.96025	0.0440044	-0.0006111723	0	0	0	0
37.97682	0.0440044	-0.0006111723	0	0	0	0
37.99339	0.0440044	-0.0006111723	0	0	0	0
38.01023	0.0440044	-0.0006111723	0	0	0	0
38.02652	0.0440044	-0.0006111723	0	0	0	0
38.04309	0.0440044	-0.0006111723	0	0	0	0
38.06009	0.04522675	-0.0006111722	0.07192586	3.425093E-09	2.143093	1.020536E-07
38.07622	0.05133847	0.004278206	0.3787592	0.3030073	9.261314	9.145832
38.09279	0.05745019	0.01283462	0.3689043	0.516466	-0.3013412	6.527108
38.10936	0.06356191	0.02628041	0.3689041	0.8115895	-6.296051E-06	8.906845
38.12592	0.06722895	0.03850385	0.2213431	0.7378086	-4.4534	-2.226712
38.14249	0.06722895	0.04339323	0	0.2951233	-6.680147	-13.36027
38.15905	0.06722895	0.04339323	0	0	0	-8.907866
38.17562	0.06722895	0.04339323	0	0	0	0
38.19219	0.06722895	0.04339323	0	0	0	0
38.20876	0.06722895	0.04339323	0	0	0	0
38.22532	0.0660066	0.03728151	-0.07378118	-0.3689043	-2.22672	-11.13355
38.24189	0.06111722	0.01650165	-0.2951233	-1.254274	-6.68012	-26.72053
38.25846	0.05867254	0.009167584	-0.1475617	-0.4426852	4.45342	24.49381
38.27502	0.05867254	0.00550055	0	-0.2213426	4.45342	6.680134
38.29159	0.05867254	0.003055861	0	-0.1475617	0	2.226712
38.31481	0.05867254	0.003055861	0	0	0	3.70912
38.33138	0.05867254	0.003055861	0	0	0	0
38.34794	0.05867254	0.003055861	0	0	0	0
38.37177	0.05867254	0.003055861	0	0	0	0
38.38834	0.05867254	0.003055861	0	0	0	0
38.40491	0.05867254	0.003055861	0	0	0	0
38.42147	0.05867254	0.003055861	0	0	0	0
38.43804	0.05867254	0.003055861	0	0	0	0
38.45461	0.05867254	0.003055861	0	0	0	0
38.47117	0.05867254	0.003055861	0	0	0	0
38.48774	0.05867254	0.003055861	0	0	0	0
38.50431	0.05867254	0.003055861	0	0	0	0
38.52108	0.05867254	0.003055861	0	0	0	0
38.53744	0.05867254	0.003055861	0	0	0	0
38.55401	0.05867254	0.003055861	0	0	0	0
38.57535	0.05867254	0.003055861	0	0	0	0
38.59192	0.05867254	0.003055861	0	0	0	0
38.60849	0.05867254	0.003055861	0	0	0	0
38.62506	0.05867254	0.003055861	0	0	0	0
38.64162	0.05867254	0.003055861	0	0	0	0
38.65819	0.05867254	0.003055861	0	0	0	0
38.67476	0.05867254	0.003055861	0	0	0	0
38.69132	0.05867254	0.003055861	0	0	0	0
38.70789	0.05867254	0.003055861	0	0	0	0
38.72445	0.05867254	0.003055861	0	0	0	0
38.74102	0.05867254	0.003055861	0	0	0	0
38.75798	0.05867254	0.003055861	0	0	0	0
38.77415	0.05867254	0.003055861	0	0	0	0
38.79072	0.05867254	0.003055861	0	0	0	0
38.80729	0.05867254	0.003055861	0	0	0	0
38.8242	0.05867254	0.003055861	0	0	0	0
38.84042	0.05867254	0.003055861	0	0	0	0
38.85724	0.05867254	0.003055861	0	0	0	0
38.87374	0.05867254	0.003055861	0	0	0	0
38.89012	0.05867254	0.003055861	0	0	0	0
38.90684	0.05867254	0.003055861	0	0	0	0
38.92325	0.05867254	0.003055861	0	0	0	0
38.93982	0.05867254	0.003055861	0	0	0	0
38.95639	0.05867254	0.003055861	0	0	0	0
38.97295	0.05867254	0.003055861	0	0	0	0
38.9898	0.05867254	0.003055861	0	0	0	0
39.00608	0.05867254	0.003055861	0	0	0	0
39.02271	0.05867254	0.003055861	0	0	0	0
39.03922	0.05867254	0.003055861	0	0	0	0
39.05579	0.05867254	0.003055861	0	0	0	0
39.07235	0.05867254	0.003055861	0	0	0	0
39.08979	0.05867254	0.003055861	0	0	0	0
39.10549	0.05867254	0.003055861	0	0	0	0
39.12231	0.05867254	0.003055861	0	0	0	0
39.13862	0.05867254	0.003055861	0	0	0	0
39.15519	0.05867254	0.003055861	0	0	0	0
39.17176	0.05867254	0.004278206	2.24859E-07	0.07378086	6.786257E-06	2.226711
39.18834	0.06233957	0.02139103	0.2210881	1.031744	6.668607	28.89476
39.20489	0.06233957	0.05439433	-2.251701E-07	1.994839	-6.673227	29.0696
39.22231	0.05867254	0.08861998	-0.2105324	1.964969	-6.199006	-0.8795104
39.23802	0.05378316	0.1106222	-0.3111728	1.400278	-3.037682	-17.04438
39.25459	0.05256081	0.1204009	-0.07378095	0.5902472	7.354153	-25.09391
39.27115	0.05256081	0.1216233	0	0.07378072	2.226713	-15.58699
39.28772	0.05256081	0.1216233	0	0	0	-2.226707
39.30429	0.05256081	0.1216233	0	0	0	0
39.32085	0.05256081	0.1216233	0	0	0	0
39.33742	0.05133847	0.1216233	-0.07378095	-4.497179E-07	-2.226713	-1.357251E-05
39.35399	0.04278206	0.1057328	-0.5164657	-0.9591508	-13.36025	-28.94721
39.37056	0.02689158	0.07884122	-0.9591513	-1.623179	-13.36028	-20.04041
39.38712	0.007334067	0.05683902	-1.180494	-1.328055	-6.68013	8.906855
39.40369	-0.01711282	0.03850385	-1.475617	-1.106713	-8.906837	6.680118
39.42026	-0.07089598	0.01527931	-3.246358	-1.401836	-53.44107	-8.906826
39.43682	-0.1149004	0.0006111722	-2.656111	-0.8853704	17.81371	15.58696
39.45344	-0.152793	-0.004278206	-2.280904	-0.2943102	11.30814	17.81362
39.46996	-0.1870187	-0.00550055	-2.071589	-0.07398529	6.317141	6.64942
39.48653	-0.2114656	-0.00550055	-1.475617	2.810737E-08	18.01134	2.23597
39.50319	-0.2310231	-0.003055861	-1.174006	0.1467507	9.077573	4.416741
39.51966	-0.2481359	-0.0006111722	-1.038673	0.1483817	4.084356	0.04922253
39.53622	-0.2664711	0.003055861	-1.106967	0.2213936	-2.067064	2.209863
39.55279	-0.2848063	0.006722895	-1.106713	0.2213426	0.007664076	-0.001538212
39.56936	-0.3006968	0.009167585	-0.959153	0.1475618	4.453361	-2.22671
39.58614	-0.3129202	0.01038993	-0.7285805	0.07285815	6.914907	-2.240373
39.60249	-0.322699	0.01161227	-0.5978184	0.07472713	3.946408	0.05640587
39.61906	-0.3312553	0.01283462	-0.5164651	0.07378089	2.470893	-0.02873952
39.64154	-0.3422565	0.01405696	-0.489373	0.05437475	0.693828	-0.4969913
39.65811	-0.369148	0.01650165	-1.62318	0.1475617	-29.03679	2.386517
39.67467	-0.3728151	0.01650165	-0.2213422	1.124295E-07	42.30753	-4.453416
39.69124	-0.3789268	0.01650165	-0.3689036	-1.124295E-07	-4.453413	-6.786257E-06
39.70781	-0.3813715	0.017724	-0.1475972	0.07379794	6.67981	2.227486
39.72437	-0.3850385	0.017724	-0.2213422	0	-2.225883	-2.227483
39.74094	-0.3862609	0.01772399	-0.07378072	-1.124295E-07	4.453413	-3.393129E-06
39.76737	-0.3874832	0.01772399	-0.0462436	0	0.6404092	2.614684E-06
39.78394	-0.3874832	0.01772399	0	0	1.075451	0
39.80051	-0.3874832	0.01772399	0	0	0	0
39.82551	-0.3874832	0.01772399	0	0	0	0
39.84208	-0.3874832	0.01772399	0	0	0	0
39.85864	-0.3874832	0.01772399	0	0	0	0
39.87521	-0.3813715	0.017724	0.3689018	1.124295E-07	11.13348	3.393129E-06
39.89178	-0.369148	0.017724	0.7378091	0	11.13364	-3.393129E-06
39.90834	-0.3520352	0.01772399	1.03317	-1.124554E-07	8.915033	-3.394301E-06
39.92491	-0.3141426	0.01527931	2.287206	-0.1475616	37.85125	-4.453928
39.94147	-0.2848063	0.01405696	1.770741	-0.07378089	-15.58695	2.226707
39.95826	-0.2603594	0.01283462	1.456169	-0.07280855	-9.430817	0.02915079
39.97529	-0.2261337	0.01038993	2.010319	-0.1435941	16.38843	-2.093411
39.99131	-0.1919081	0.009167585	2.13671	-0.07631107	3.825062	2.036231
40.00774	-0.1650165	0.004278206	1.636366	-0.2975212	-15.41816	-6.816611
40.02431	-0.145459	0.001833517	1.180495	-0.1475617	-13.81387	4.544096
40.04145	-0.1369026	-0.0006111722	0.4992228	-0.1426353	-20.2118	0.146155
40.05746	-0.1344579	-0.001833517	0.1526592	-0.07632926	-10.45329	1.99997
40.07401	-0.1344579	-0.001833517	0	0	-4.687676	2.343828
40.09058	-0.1332355	-0.001833517	0.07376374	0	2.226963	0
40.10715	-0.1320132	-0.001833517	0.07379682	-1.405692E-08	0.0009981489	-4.242387E-07
40.12401	-0.1283462	-0.001833517	0.2174379	1.380574E-08	4.297004	8.335078E-07
40.14054	-0.113678	-0.001833517	0.8876187	0	20.07127	-4.134686E-07
40.15685	-0.09778756	-0.003055861	0.97418	-0.07493693	2.6361	-2.282094
40.17342	-0.0794524	-0.003055861	1.106713	0	4.030936	2.279181
40.18998	-0.07456302	-0.003055861	0.2951233	0	-24.49382	0
40.20655	-0.07334067	-0.003055861	0.07378118	-1.405369E-08	-6.68012	-4.241411E-07
40.22337	-0.07211833	-0.003055861	0.07269276	1.384645E-08	-0.03260453	8.357734E-07
40.23991	-0.07089598	-0.003055861	0.07388324	0	0.03568646	-4.150673E-07
40.25625	-0.06845129	-0.003055861	0.1496286	0	2.303503	0
40.27282	-0.06478426	-0.003055861	0.2213426	0	2.179387	0
40.28938	-0.06233957	-0.003055861	0.1475617	0	-2.226714	0
40.30595	-0.06111722	-0.003055861	0.07378095	0	-2.226707	0
40.32252	-0.05989488	-0.003055861	0.07378072	0	-6.745769E-06	0
40.33912	-0.05867254	-0.003055861	0.07361145	0	-0.005102696	0
40.35565	-0.05745019	-0.003055861	0.073951	0	0.0102475	0
40.37222	-0.05622785	-0.003055861	0.07378095	0	-0.005138096	0
40.38879	-0.05256082	-0.003055861	0.2213424	0	4.453413	0
40.40535	-0.05133847	-0.003055861	0.07378118	0	-4.453406	0
40.42192	-0.05011613	-0.003055861	0.07378072	-1.405369E-08	-1.37164E-05	-4.241411E-07
40.43849	-0.04889378	-0.001833517	0.07378095	0.07378088	6.745769E-06	2.226712
40.45531	-0.04644909	-0.001833517	0.1452871	-6.918517E-09	2.141296	-2.209415
40.47183	-0.0440044	-0.001833517	0.1480389	0	0.08253674	2.075112E-07
40.48819	-0.04278206	-0.001833517	0.07470965	0	-2.230543	0
40.50483	-0.04155971	-0.0006111722	0.07345935	0.07345949	-0.0378867	2.225981
40.52132	-0.04033737	-0.0006111722	0.07410515	0	0.01949033	-2.217012
40.53789	-0.03911502	-0.0006111722	0.07378095	0	-0.009805963	0
40.55446	-0.03911502	-0.0006111722	0	0	-2.226713	0
40.57103	-0.03789268	-0.0006111722	0.07378072	0	2.226707	0
40.58759	-0.03667033	-0.0006111722	0.07378095	0	6.745769E-06	0
40.60452	-0.03422564	-0.0006111722	0.1444357	0	2.109536	0
40.62072	-0.0330033	-0.001833517	0.07543072	-0.07543086	-2.082815	-2.27677
40.63741	-0.02933627	-0.003055861	0.2198239	-0.0732747	4.390652	0.06556369
40.65386	-0.02689158	-0.003055861	0.1485882	-1.415144E-08	-2.149899	2.211434
40.6705	-0.0220022	-0.004278206	0.293838	-0.07345948	4.389205	-2.219822
40.6915	-0.01955751	-0.00550055	0.1164143	-0.05820712	-4.713747	0.4052209
40.70807	-0.01589048	-0.006722894	0.2213426	-0.07378086	2.793087	-0.4145577
40.72463	-0.01466813	-0.006722895	0.07378083	-2.810737E-08	-4.453424	2.22671
40.74135	-0.01344579	-0.006722895	0.07310744	0	-0.02022982	8.443936E-07
40.75777	-0.01344579	-0.006722895	0	0	-2.206387	0
40.77433	-0.01344579	-0.006722895	0	0	0	0
40.7909	-0.01344579	-0.006722895	0	0	0	0
40.80747	-0.01344579	-0.006722895	0	0	0	0
40.82404	-0.01222344	-0.00794524	0.07378089	-0.07378086	2.226712	-2.226711
40.84062	-0.0110011	-0.00794524	0.07372991	0	-0.001538179	2.225942
40.85732	-0.009778757	-0.009167585	0.07320771	-0.07320777	-0.01569307	-2.200043
40.87374	-0.008556412	-0.009167585	0.07443216	0	0.0369708	2.210433
40.89031	-0.007334067	-0.01038993	0.07376391	-0.0737638	-0.0202541	-2.235719
40.90687	-0.006111722	-0.01038993	0.07379783	0	0.001023783	2.226196
40.92344	-0.004889378	-0.01161227	0.07378086	-0.07378089	-0.0005120628	-2.226968
40.94054	-0.003667033	-0.01161227	0.07147676	0	-0.06843506	2.191391
40.95657	-0.002444689	-0.01161227	0.07623845	0	0.143708	0
41.03794	-0.002444689	-0.01161227	0	0	-0.7827609	0
41.05845	-0.001222344	-0.01161227	0.05958169	4.539617E-08	0.5848273	4.455886E-07
41.07528	0.002444689	-0.01161227	0.2179304	-5.534813E-08	4.24049	-2.697877E-06
41.09159	0.004889378	-0.01161227	0.1499089	0	-2.052893	1.67041E-06
41.10828	0.007334067	-0.01161227	0.1464489	5.579082E-08	-0.1048443	1.690583E-06
41.12481	0.007334067	-0.01161227	0	0	-4.407659	-1.679131E-06
41.14129	0.008556411	-0.01161227	0.07419083	-5.652712E-08	2.247623	-1.712498E-06
41.15829	0.008556412	-0.01038993	5.478919E-08	0.07190982	-2.216372	2.148233
41.17442	0.009778756	-0.01038993	0.07576973	0	2.286997	-2.170493
41.19111	0.009778756	-0.01038993	0	0	-2.308529	0
41.20768	0.0110011	-0.01038993	0.07378089	5.621474E-08	2.218539	1.690337E-06
41.22431	0.0110011	-0.01038993	0	0	-2.222362	-1.69325E-06
41.24083	0.01222344	-0.009167584	0.07400235	0.07400235	2.232367	2.232367
41.25738	0.01222344	-0.009167584	0	0	-2.237775	-2.237775
41.27394	0.01222344	-0.009167584	0	0	0	0
41.29051	0.01222344	-0.009167584	0	0	0	0
41.30708	0.01344579	-0.009167583	0.07379783	5.622769E-08	2.227479	1.69715E-06
41.3239	0.01344579	-0.009167583	0	0	-2.210427	-1.684158E-06
41.34034	0.01344579	-0.009167583	0	0	0	0
41.35711	0.01344579	-0.009167583	0	0	0	0
41.37334	0.01344579	-0.009167583	0	0	0	0
41.38991	0.01344579	-0.009167583	0	0	0	0
41.40686	0.01344579	-0.009167583	0	0	0	0
41.42304	0.01344579	-0.007945239	0	0.07553753	0	2.279989
41.44005	0.01344579	-0.007945239	0	0	0	-2.275797
41.45617	0.01466813	-0.007945239	0.07582358	0	2.288624	0
41.47274	0.01466813	-0.007945239	0	0	-2.319605	0
41.49016	0.01466813	-0.007945239	0	0	0	0
41.50587	0.01466813	-0.007945239	0	0	0	0
41.52286	0.01466813	-0.007945239	0	0	0	0
41.53901	0.01466813	-0.007945239	0	0	0	0
41.55558	0.01466813	-0.007945239	0	0	0	0
41.57215	0.01466813	-0.007945239	0	0	0	0
41.58894	0.01466813	-0.007945239	0	0	0	0
41.60527	0.01466813	-0.007945239	0	0	0	0
41.62184	0.01466813	-0.007945239	0	0	0	0
41.63841	0.01466813	-0.007945239	0	0	0	0
41.66001	0.01466813	-0.007945239	0	0	0	0
41.67685	0.01466813	-0.007945239	0	0	0	0
41.69315	0.01466813	-0.007945239	0	0	0	0
41.70971	0.01466813	-0.007945239	0	0	0	0
41.72628	0.01466813	-0.007945239	0	0	0	0
41.75243	0.01466813	-0.007945239	0	0	0	0
41.769	0.01466813	-0.007945239	0	0	0	0
41.79087	0.01466813	-0.007945239	0	0	0	0
41.81604	0.01466813	-0.007945239	0	0	0	0
41.83261	0.01466813	-0.007945239	0	0	0	0
41.84917	0.01466813	-0.007945239	0	0	0	0
41.86574	0.01466813	-0.007945239	0	0	0	0
41.88231	0.01466813	-0.007945239	0	0	0	0
41.89917	0.01466813	-0.007945239	0	0	0	0
41.91549	0.01466813	-0.007945239	0	0	0	0
41.93201	0.01466813	-0.007945239	0	0	0	0
41.94857	0.01466813	-0.007945239	0	0	0	0
41.96515	0.01466813	-0.007945239	0	0	0	0
41.98171	0.01466813	-0.007945239	0	0	0	0
41.99867	0.01466813	-0.007945239	0	0	0	0
42.01484	0.01466813	-0.007945239	0	0	0	0
42.03141	0.01466813	-0.007945239	0	0	0	0
42.04798	0.01466813	-0.007945239	0	0	0	0
42.06454	0.01466813	-0.007945239	0	0	0	0
42.08111	0.01466813	-0.007945239	0	0	0	0
42.09785	0.01466813	-0.007945239	0	0	0	0
42.11425	0.01466813	-0.007945239	0	0	0	0
42.13085	0.01466813	-0.007945239	0	0	0	0
42.14738	0.01466813	-0.007945239	0	0	0	0
42.16394	0.01466813	-0.007945239	0	0	0	0
42.18052	0.01466813	-0.007945239	0	0	0	0
42.19708	0.01466813	-0.007945239	0	0	0	0
42.21365	0.01466813	-0.007945239	0	0	0	0
42.23021	0.01466813	-0.007945239	0	0	0	0
42.24678	0.01466813	-0.007945239	0	0	0	0
42.26335	0.01466813	-0.007945239	0	0	0	0
42.27991	0.01466813	-0.007945239	0	0	0	0
42.29648	0.01466813	-0.007945239	0	0	0	0
42.31305	0.01466813	-0.007945239	0	0	0	0
42.32962	0.01466813	-0.007945239	0	0	0	0
42.34618	0.01466813	-0.007945239	0	0	0	0
42.36275	0.01466813	-0.007945239	0	0	0	0
42.37932	0.01466813	-0.007945239	0	0	0	0
42.39595	0.01466813	-0.007945239	0	0	0	0
42.41246	0.01466813	-0.007945239	0	0	0	0
42.42902	0.01466813	-0.007945239	0	0	0	0
42.44559	0.01466813	-0.007945239	0	0	0	0
42.46215	0.01466813	-0.007945239	0	0	0	0
42.47872	0.01466813	-0.007945239	0	0	0	0
42.49529	0.01466813	-0.007945239	0	0	0	0
42.51227	0.01466813	-0.007945239	0	0	0	0
42.52842	0.01466813	-0.007945239	0	0	0	0
42.54499	0.01466813	-0.007945239	0	0	0	0
42.56155	0.01466813	-0.007945239	0	0	0	0
42.57827	0.01466813	-0.007945239	0	0	0	0
42.59478	0.01466813	-0.007945239	0	0	0	0
42.61126	0.01466813	-0.007945239	0	0	0	0
42.62782	0.01466813	-0.007945239	0	0	0	0
42.64438	0.01466813	-0.007945239	0	0	0	0
