Time	Pos X	Pos Y	Vel X	Vel Y	Acc X	Acc Y
0.01656632	0.04278206	-0.02139103	2.582472	-1.291236	155.8869	-77.94345
0.03356411	0.04278206	-0.02139103	0	0	-76.94148	38.47074
0.04969856	0.04278206	-0.02139103	0	0	0	0
0.06626567	0.04644909	-0.01038993	0.2213442	0.6640325	6.768612	20.30583
0.08283199	0.05378316	0.01038993	0.4427095	1.254344	6.681026	17.81618
0.09939831	0.0660066	0.04217089	0.7378489	1.918408	8.907812	20.0426
0.1159627	0.08556412	0.0947317	1.1807	3.17313	13.3668	37.87192
0.1325325	0.1124557	0.16685	1.62292	4.352375	13.34631	35.58995
0.1490992	0.1210121	0.1827405	0.5164822	0.9591823	-33.39021	-102.4002
0.1656652	0.1332356	0.2108544	0.7378675	1.697094	6.681789	22.27144
0.1825864	0.1430143	0.2279672	0.5778984	1.011323	-4.777032	-20.47864
0.2164683	0.1479037	0.2389683	0.1443067	0.32469	-8.534749	-13.51557
0.2331459	0.1576824	0.2548588	0.5863402	0.9528018	8.742835	12.42322
0.2496044	0.1576824	0.2548588	0	0	-17.69486	-28.75412
0.266725	0.1637942	0.2609706	0.3569809	0.3569826	10.63104	10.63109
0.2836628	0.1723506	0.269527	0.5051668	0.5051659	4.350943	4.350865
0.2993046	0.1747953	0.2707493	0.1562917	0.07814584	-10.70839	-13.10698
0.3158717	0.1747953	0.2707493	0	0	-4.852435	-2.426217
0.332594	0.1747953	0.2707493	0	0	0	0
0.3491864	0.1747953	0.2707493	0	0	0	0
0.3655699	0.1747953	0.2707493	0	0	0	0
0.3821374	0.1747953	0.2707493	0	0	0	0
0.3987037	0.1784623	0.2707493	0.2213554	0	6.680652	0
0.4152712	0.1796846	0.2707493	0.07377953	0	-4.453937	0
0.4318387	0.180907	0.2707493	0.07377953	0	0	0
0.4484062	0.1821293	0.2707493	0.07377953	0	0	0
0.4652978	0.1821293	0.2707493	0	0	-2.205066	0
0.4818855	0.1821293	0.2707493	0	0	0	0
0.4981052	0.1821293	0.2707493	0	0	0	0
0.5147864	0.1821293	0.2707493	0	0	0	0
0.5312386	0.1821293	0.2707493	0	0	0	0
0.5478053	0.1821293	0.2707493	0	0	0	0
0.5643716	0.1821293	0.2707493	0	0	0	0
0.5809371	0.1821293	0.2707493	0	0	0	0
0.5978492	0.1821293	0.2707493	0	0	0	0
0.6140717	0.1821293	0.2707493	0	0	0	0
0.6306381	0.1821293	0.2707493	0	0	0	0
0.6472024	0.1821293	0.269527	8.995912E-07	-0.07379347	2.715279E-05	-2.227344
0.6637715	0.180907	0.269527	-0.07377429	0	-2.226608	2.22716
0.6803374	0.180907	0.269527	0	0	2.226476	0
0.6969053	0.180907	0.2683046	8.994003E-07	-0.0737778	2.714449E-05	-2.226663
0.713472	0.1796846	0.2658599	-0.07378311	-0.1475662	-2.226798	-2.226931
0.7300387	0.1760176	0.2597482	-0.2213493	-0.3689156	-4.453702	-6.680552
0.7466046	0.1723506	0.2524141	-0.2213606	-0.4427212	-0.000339556	-2.227582
0.7631701	0.1674612	0.241413	-0.2951546	-0.6640967	-2.227312	-6.68174
0.7797368	0.1527931	0.2084097	-0.8853983	-1.992149	-17.81481	-40.08342
0.7965724	0.149126	0.198631	-0.2178151	-0.580838	19.98617	42.25194
0.8128719	0.1405696	0.1766288	-0.5249497	-1.349871	-9.269175	-23.20905
0.8294382	0.1295685	0.1534042	-0.6640633	-1.401913	-4.232772	-1.583469
0.8460041	0.1149004	0.127735	-0.8854406	-1.549521	-6.681625	-4.455101
0.8633907	0.1002322	0.1045105	-0.8436453	-1.335771	1.230991	6.29555
0.8791384	0.08556412	0.08250826	-0.9314508	-1.397177	-2.649995	-1.853265
0.895705	0.07456301	0.06295074	-0.6640498	-1.180533	8.275006	6.704296
0.9125173	0.06111723	0.04583792	-0.7997604	-1.017877	-4.065753	4.872998
0.9288353	0.05256081	0.03361448	-0.5243536	-0.7490763	8.31284	8.113442
0.9454175	0.04155971	0.01894634	-0.6634309	-0.8845748	-4.227254	-4.118475
0.9623086	0.03789268	0.01405696	-0.2170978	-0.2894634	13.334	17.77868
0.9785371	0.03422565	0.009167584	-0.2259632	-0.3012846	-0.2676805	-0.356922
0.9951046	0.03055861	0.00550055	-0.2213386	-0.2213386	0.1410114	2.437676
1.011717	0.02933627	0.001833517	-0.07357991	-0.2207398	4.453247	0.01804756
1.028238	0.02689158	0.0006111722	-0.1479717	-0.07398582	-2.245193	4.429131
1.044804	0.02689158	0.0006111722	0	0	4.472167	2.236082
1.061372	0.02689158	-0.0006111722	0	-0.0737798	0	-2.226751
1.078266	0.02689158	-0.001833517	0	-0.07235384	0	0.04261498
1.094502	0.02689158	-0.001833517	0	0	0	2.183942
1.111072	0.02689158	-0.001833517	0	0	0	0
1.127986	0.02689158	-0.001833517	0	0	0	0
1.144381	0.02689158	-0.001833517	0	0	0	0
1.160773	0.02689158	-0.001833517	0	0	0	0
1.177337	0.02689158	-0.001833517	0	0	0	0
1.193905	0.02689158	-0.001833517	0	0	0	0
1.210494	0.02689158	-0.001833517	0	0	0	0
1.227038	0.02689158	-0.001833517	0	0	0	0
1.243607	0.02689158	-0.001833517	0	0	0	0
1.26065	0.02689158	-0.001833517	0	0	0	0
1.277132	0.02689158	-0.001833517	0	0	0	0
1.293655	0.02689158	-0.001833517	0	0	0	0
1.30987	0.02689158	-0.001833517	0	0	0	0
1.326442	0.02689158	-0.001833517	0	0	0	0
1.343009	0.02689158	-0.001833517	0	0	0	0
1.359576	0.02689158	-0.001833517	0	0	0	0
1.376547	0.02689158	-0.001833517	0	0	0	0
1.392709	0.02689158	-0.001833517	0	0	0	0
1.40927	0.02689158	-0.001833517	0	0	0	0
1.425842	0.02689158	-0.001833517	0	0	0	0
1.442408	0.02689158	-0.001833517	0	0	0	0
1.458976	0.02689158	-0.001833517	0	0	0	0
1.475539	0.02689158	-0.001833517	0	0	0	0
1.492484	0.02689158	-0.001833517	0	0	0	0
1.508698	0.02689158	-0.001833517	0	0	0	0
1.525239	0.02689158	-0.001833517	0	0	0	0
1.541806	0.02689158	-0.001833517	0	0	0	0
1.558369	0.02689158	-0.001833517	0	0	0	0
1.574936	0.02689158	-0.001833517	0	0	0	0
1.591505	0.02689158	-0.001833517	0	0	0	0
1.60807	0.02689158	-0.001833517	0	0	0	0
1.624639	0.02689158	-0.001833517	0	0	0	0
1.641204	0.02689158	-0.001833517	0	0	0	0
1.657772	0.02689158	-0.001833517	0	0	0	0
1.674471	0.02689158	-0.001833517	0	0	0	0
1.690906	0.02689158	-0.001833517	0	0	0	0
1.707473	0.02689158	-0.001833517	0	0	0	0
1.724039	0.02689158	-0.001833517	0	0	0	0
1.740603	0.02689158	-0.001833517	0	0	0	0
1.757172	0.02689158	-0.001833517	0	0	0	0
1.773833	0.02689158	-0.001833517	0	0	0	0
1.790306	0.02689158	-0.001833517	0	0	0	0
1.807069	0.02689158	-0.001833517	0	0	0	0
1.823439	0.02689158	-0.001833517	0	0	0	0
1.840005	0.02689158	-0.001833517	0	0	0	0
1.856572	0.02689158	-0.001833517	0	0	0	0
1.873138	0.02689158	-0.001833517	0	0	0	0
1.889703	0.02689158	-0.001833517	0	0	0	0
1.906272	0.02689158	-0.001833517	0	0	0	0
1.922839	0.02689158	-0.001833517	0	0	0	0
1.939722	0.02689158	-0.001833517	0	0	0	0
1.955973	0.02689158	-0.001833517	0	0	0	0
1.972649	0.02689158	-0.001833517	0	0	0	0
1.989106	0.02689158	-0.001833517	0	0	0	0
2.005982	0.02689158	-0.001833517	0	0	0	0
2.022346	0.02689158	-0.001833517	0	0	0	0
2.038805	0.02689158	-0.001833517	0	0	0	0
2.05545	0.02689158	-0.001833517	0	0	0	0
2.072239	0.02689158	-0.001833517	0	0	0	0
2.088505	0.02689158	-0.001833517	0	0	0	0
2.105072	0.02689158	-0.001833517	0	0	0	0
2.121638	0.02689158	-0.001833517	0	0	0	0
2.138205	0.02689158	-0.001833517	0	0	0	0
2.154772	0.02689158	-0.001833517	0	0	0	0
2.171339	0.02689158	-0.001833517	0	0	0	0
2.188289	0.02689158	-0.001833517	0	0	0	0
2.204472	0.02689158	-0.001833517	0	0	0	0
2.221036	0.02689158	-0.001833517	0	0	0	0
2.237896	0.02689158	-0.001833517	0	0	0	0
2.254172	0.02689158	-0.001833517	0	0	0	0
2.270736	0.02689158	-0.001833517	0	0	0	0
2.287303	0.02811392	-0.003055861	0.07378201	-0.07378192	2.226954	-2.226951
2.303972	0.02811392	-0.003055861	0	0	-2.219941	2.219938
2.320436	0.03055861	-0.004278206	0.1484828	-0.07424138	4.481348	-2.240674
2.337006	0.03055861	-0.004278206	0	0	-4.4949	2.24745
2.35357	0.03055861	-0.004278206	0	0	0	0
2.37014	0.03178095	-0.004278205	0.07377212	5.620827E-08	2.226479	1.696393E-06
2.386703	0.0330033	-0.00550055	0.07379901	-0.07379895	0.0008115686	-2.227403
2.403271	0.03422565	-0.006722894	0.0737767	-0.07377659	-0.0006732907	0.0006748649
2.419838	0.03422565	-0.006722894	0	0	-2.226537	2.226534
2.43685	0.03544799	-0.00794524	0.07185249	-0.07185243	2.139812	-2.139811
2.452972	0.03789268	-0.01038993	0.1516381	-0.1516382	2.407985	-2.407991
2.469538	0.03789268	-0.01161227	-2.248654E-07	-0.07378285	-4.638871	2.381726
2.486105	0.03911502	-0.01161227	0.07378307	0	2.226848	2.226835
2.502672	0.03911502	-0.01283462	0	-0.07378195	-2.226825	-2.226792
2.519239	0.04033737	-0.01283462	0.07378307	0	2.226825	2.226792
2.535987	0.04033737	-0.01283462	0	0	-2.214714	0
2.552551	0.04033737	-0.01283462	0	0	0	0
2.569003	0.04033737	-0.01283462	0	0	0	0
2.585523	0.04033737	-0.01283462	0	0	0	0
2.602072	0.04033737	-0.01283462	0	0	0	0
2.618638	0.04033737	-0.01283462	0	0	0	0
2.63587	0.04033737	-0.01283462	0	0	0	0
2.651772	0.04033737	-0.01283462	0	0	0	0
2.66844	0.04033737	-0.01283462	0	0	0	0
2.685397	0.04033737	-0.01283462	0	0	0	0
2.701469	0.04033737	-0.01283462	0	0	0	0
2.718744	0.04033737	-0.01283462	0	0	0	0
2.735313	0.04033737	-0.01283462	0	0	0	0
2.751881	0.04033737	-0.01283462	0	0	0	0
2.768606	0.04033737	-0.01283462	0	0	0	0
2.785014	0.04033737	-0.01283462	0	0	0	0
2.801581	0.04033737	-0.01283462	0	0	0	0
2.818148	0.04033737	-0.01283462	0	0	0	0
2.834714	0.04033737	-0.01283462	0	0	0	0
2.851281	0.04033737	-0.01283462	0	0	0	0
2.868011	0.04033737	-0.01283462	0	0	0	0
2.884575	0.04033737	-0.01283462	0	0	0	0
2.901409	0.04033737	-0.01283462	0	0	0	0
2.917547	0.04033737	-0.01283462	0	0	0	0
2.934113	0.04033737	-0.01283462	0	0	0	0
2.950681	0.04033737	-0.01283462	0	0	0	0
2.967248	0.04033737	-0.01283462	0	0	0	0
2.983814	0.04033737	-0.01283462	0	0	0	0
3.000439	0.04033737	-0.01283462	0	0	0	0
3.017177	0.04033737	-0.01283462	0	0	0	0
3.033515	0.04033737	-0.01283462	0	0	0	0
3.050078	0.04033737	-0.01283462	0	0	0	0
3.066647	0.04033737	-0.01283462	0	0	0	0
3.083214	0.04033737	-0.01283462	0	0	0	0
3.099781	0.04033737	-0.01283462	0	0	0	0
3.116348	0.04033737	-0.01283462	0	0	0	0
3.133154	0.04033737	-0.01283462	0	0	0	0
3.14948	0.04033737	-0.01283462	0	0	0	0
3.166047	0.04033737	-0.01283462	0	0	0	0
3.182688	0.04033737	-0.01283462	0	0	0	0
3.199302	0.04033737	-0.01283462	0	0	0	0
3.215813	0.04033737	-0.01283462	0	0	0	0
3.232314	0.04033737	-0.01283462	0	0	0	0
3.248881	0.04033737	-0.01283462	0	0	0	0
3.266376	0.04033737	-0.01283462	0	0	0	0
3.282013	0.04033737	-0.01283462	0	0	0	0
3.29858	0.04033737	-0.01283462	0	0	0	0
3.315147	0.04033737	-0.01283462	0	0	0	0
3.331714	0.04033737	-0.01283462	0	0	0	0
3.348993	0.04033737	-0.01283462	0	0	0	0
3.364847	0.04033737	-0.01283462	0	0	0	0
3.381415	0.04033737	-0.01283462	0	0	0	0
3.397981	0.04033737	-0.01283462	0	0	0	0
3.414546	0.04033737	-0.01283462	0	0	0	0
3.431113	0.04033737	-0.01283462	0	0	0	0
3.447681	0.04033737	-0.01283462	0	0	0	0
3.464552	0.04033737	-0.01283462	0	0	0	0
3.481204	0.04033737	-0.01283462	0	0	0	0
3.497381	0.04033737	-0.01283462	0	0	0	0
3.514038	0.04033737	-0.01283462	0	0	0	0
3.530514	0.04033737	-0.01283462	0	0	0	0
3.547081	0.04033737	-0.01283462	0	0	0	0
3.563647	0.04033737	-0.01283462	0	0	0	0
3.580214	0.04033737	-0.01283462	0	0	0	0
3.596828	0.04033737	-0.01283462	0	0	0	0
3.613347	0.04033737	-0.01283462	0	0	0	0
3.629913	0.04033737	-0.01283462	0	0	0	0
3.646898	0.04033737	-0.01283462	0	0	0	0
3.663046	0.04033737	-0.01283462	0	0	0	0
3.679614	0.04033737	-0.01283462	0	0	0	0
3.696493	0.04033737	-0.01283462	0	0	0	0
3.71278	0.04033737	-0.01283462	0	0	0	0
3.729361	0.04033737	-0.01283462	0	0	0	0
3.745879	0.04033737	-0.01283462	0	0	0	0
3.76283	0.04033737	-0.01283462	0	0	0	0
3.779054	0.04033737	-0.01283462	0	0	0	0
3.795711	0.04033737	-0.01283462	0	0	0	0
3.812148	0.04033737	-0.01283462	0	0	0	0
3.829086	0.04033737	-0.01283462	0	0	0	0
3.845281	0.04033737	-0.01283462	0	0	0	0
3.861846	0.04033737	-0.01283462	0	0	0	0
3.878718	0.04033737	-0.01283462	0	0	0	0
3.895173	0.04033737	-0.01283462	0	0	0	0
3.911826	0.04033737	-0.01283462	0	0	0	0
3.92821	0.04033737	-0.01283462	0	0	0	0
3.945318	0.04033737	-0.01283462	0	0	0	0
3.961305	0.04033737	-0.01283462	0	0	0	0
3.978345	0.04033737	-0.01283462	0	0	0	0
3.99438	0.04033737	-0.01283462	0	0	0	0
4.010947	0.04033737	-0.01283462	0	0	0	0
4.027513	0.04033737	-0.01283462	0	0	0	0
4.044256	0.04033737	-0.01283462	0	0	0	0
4.060655	0.04033737	-0.01283462	0	0	0	0
4.077214	0.04033737	-0.01283462	0	0	0	0
4.094229	0.04033737	-0.01283462	0	0	0	0
4.110347	0.04033737	-0.01283462	0	0	0	0
4.127321	0.04033737	-0.01283462	0	0	0	0
4.143479	0.04033737	-0.01283462	0	0	0	0
4.160201	0.04033737	-0.01283462	0	0	0	0
4.177285	0.04033737	-0.01283462	0	0	0	0
4.193179	0.04033737	-0.01283462	0	0	0	0
4.215188	0.04033737	-0.01283462	0	0	0	0
4.231966	0.04033737	-0.01283462	0	0	0	0
4.248331	0.04033737	-0.01283462	0	0	0	0
4.264892	0.03911502	-0.01405696	-0.07380644	-0.07380638	-2.241612	-2.241611
4.281459	0.03544799	-0.01772399	-0.2213426	-0.2213425	-4.45342	-4.453418
4.298493	0.03178096	-0.02016868	-0.2152825	-0.1435217	0.1803574	2.31604
4.314962	0.03055861	-0.02016869	-0.07422101	-2.262001E-07	4.210465	4.283894
4.331159	0.03055861	-0.02016869	0	0	2.272137	6.924693E-06
4.347724	0.03055861	-0.02016869	0	0	0	0
4.366919	0.03055861	-0.02016869	0	0	0	0
4.384045	0.0330033	-0.02016868	0.1427465	1.087607E-07	3.930119	2.994417E-06
4.400445	0.03667033	-0.02016868	0.2236015	0	2.411716	-3.244076E-06
4.416622	0.05622784	-0.01772399	1.208992	0.1511241	30.24846	4.639046
4.43319	0.08556411	-0.01527931	1.770588	0.1475489	17.15038	-0.1091825
4.449872	0.1197898	-0.01527931	2.051633	0	8.452274	-4.437454
4.466322	0.1552377	-0.01283462	2.154964	0.1486183	3.118815	4.485698
4.482901	0.1894634	-0.009167584	2.06438	0.2211834	-2.742594	2.197036
4.499455	0.2187997	-0.00794524	1.772168	0.07384034	-8.819353	-4.447013
4.516022	0.2432466	-0.006722894	1.475617	0.07378089	-8.953538	-0.001794873
4.53652	0.2628041	-0.006722894	0.9541049	0	-14.07002	-1.990554
4.553455	0.2958074	-0.006722894	1.948892	0	26.57536	0
4.569655	0.3031414	-0.006722895	0.4527194	-5.748882E-08	-45.15457	-1.735016E-06
4.586461	0.3129202	-0.00794524	0.5818574	-0.07273206	3.912539	-2.203587
4.602826	0.3202543	-0.009167584	0.4481665	-0.07469452	-4.030392	-0.05916247
4.619356	0.326366	-0.01038993	0.3697337	-0.0739469	-2.384366	0.02272777
4.635924	0.3349224	-0.01038993	0.5164372	0	4.432368	2.234165
4.652491	0.3410341	-0.01405696	0.3689142	-0.221349	-4.452187	-6.68023
4.669055	0.3483682	-0.01527931	0.4427499	-0.0737914	2.228556	4.453682
4.690035	0.3544799	-0.017724	0.2913144	-0.1165254	-4.033469	-1.138217
4.706605	0.3569246	-0.01772399	0.1475342	1.124101E-07	-3.829036	3.103213
4.723172	0.3569246	-0.01772399	0	0	-4.45227	-3.392299E-06
4.739737	0.3569246	-0.01772399	0	0	0	0
4.757169	0.3569246	-0.01772399	0	0	0	0
4.77374	0.3569246	-0.01772399	0	0	0	0
4.790596	0.3569246	-0.01772399	0	0	0	0
4.806873	0.3569246	-0.01772399	0	0	0	0
4.82344	0.3569246	-0.01772399	0	0	0	0
4.842153	0.3569246	-0.01772399	0	0	0	0
4.859267	0.3569246	-0.01772399	0	0	0	0
4.875405	0.3569246	-0.01772399	0	0	0	0
4.891927	0.3569246	-0.01772399	0	0	0	0
4.908723	0.3569246	-0.01772399	0	0	0	0
4.925128	0.3569246	-0.01772399	0	0	0	0
4.941556	0.3544799	-0.017724	-0.1488103	-1.133824E-07	-4.532392	-3.453345E-06
4.958124	0.3532576	-0.017724	-0.07377828	0	2.273961	3.436228E-06
4.975078	0.3508129	-0.01894634	-0.1441956	-0.07209791	-2.100622	-2.150756
4.991573	0.3471458	-0.02016868	-0.2223037	-0.07410076	-2.335095	-0.05987635
5.010397	0.3410341	-0.02016868	-0.3246748	9.895003E-08	-2.898405	2.097997
5.026968	0.3288107	-0.02261337	-0.7376604	-0.1475321	-11.66802	-4.168203
5.043534	0.3251436	-0.02261337	-0.2213549	0	15.58101	4.452206
5.0601	0.3153649	-0.02383572	-0.5903156	-0.07378945	-11.13622	-2.227162
5.076668	0.2958074	-0.0262804	-1.180425	-0.1475531	-17.81006	-2.226255
5.093423	0.2786945	-0.02750275	-1.021321	-0.07295157	4.774512	2.238688
5.109802	0.2701381	-0.0287251	-0.5224212	-0.07463146	15.05703	-0.0506999
5.127039	0.251803	-0.02994744	-1.063698	-0.07091331	-16.10196	0.1106078
5.142934	0.2432466	-0.03116979	-0.538295	-0.07689939	15.85761	-0.1806706
5.159497	0.2359125	-0.03239213	-0.4428	-0.07380018	2.942083	0.09548305
5.176079	0.2273561	-0.03361448	-0.5160204	-0.07371707	-2.20913	0.002507319
5.192633	0.223689	-0.03361447	-0.2215207	2.250403E-07	8.887764	2.224728
5.2092	0.2151326	-0.03361447	-0.516452	0	-8.904505	-6.794371E-06
5.226035	0.2041315	-0.03361448	-0.653475	-2.212859E-07	-4.102186	-6.624843E-06
5.242344	0.1931304	-0.03361448	-0.6745512	0	-0.6359054	6.676597E-06
5.259353	0.184574	-0.03239213	-0.5030443	0.07186357	5.147568	2.156897
5.275907	0.1796846	-0.03239213	-0.2953703	0	6.187649	-2.141176
5.292034	0.1747953	-0.03116978	-0.303169	0.07579225	-0.2386293	2.319154
5.308599	0.1723506	-0.03116978	-0.1475784	0	4.759153	-2.318308
5.325165	0.1674612	-0.03116979	-0.2951569	-1.124424E-07	-4.454439	-3.39391E-06
5.341738	0.1613495	-0.02994744	-0.3687665	0.07375324	-2.221257	2.225592
5.358301	0.1589048	-0.02994744	-0.1476039	-1.124619E-07	6.674413	-2.225784
5.374869	0.1515707	-0.02994744	-0.4426598	2.24846E-07	-8.905828	1.018114E-05
5.391445	0.1479037	-0.02994744	-0.2212276	-1.123713E-07	6.680914	-1.017431E-05
5.408047	0.1442367	-0.02872509	-0.220879	0.07362637	0.01050604	2.219146
5.424881	0.1430143	-0.0287251	-0.0726104	-2.212922E-07	4.43436	-2.201996
5.441135	0.1430143	-0.0287251	0	0	2.194449	6.687948E-06
5.457843	0.1430143	-0.0287251	0	0	0	0
5.474419	0.1430143	-0.0287251	0	0	0	0
5.49083	0.1430143	-0.0287251	0	0	0	0
5.507401	0.1430143	-0.0287251	0	0	0	0
5.523968	0.1430143	-0.0287251	0	0	0	0
5.540534	0.141792	-0.0287251	-0.07378709	0	-2.227027	0
5.557101	0.1393473	-0.02750275	-0.1475581	0.07377882	-2.226478	2.226713
5.573666	0.1332356	-0.02628041	-0.3689567	0.07379135	-6.682208	0.0003780097
5.590234	0.1295685	-0.02383572	-0.2213367	0.1475575	4.455437	2.226396
5.60754	0.1234568	-0.02261337	-0.3531494	0.07062989	-3.891259	-2.270992
5.623416	0.1197898	-0.02139103	-0.2309829	0.07699421	3.681694	0.1917994
5.640057	0.1149004	-0.01894634	-0.2938126	0.1469063	-1.932214	2.150019
5.656497	0.1124557	-0.01894634	-0.1487047	0	4.386436	-4.440799
5.673573	0.1112333	-0.01772399	-0.07158241	0.07158262	2.301063	2.135779
5.690025	0.1112333	-0.01772399	0	0	2.134983	-2.134989
5.70694	0.1112333	-0.01772399	0	0	0	0
5.722767	0.1112333	-0.01772399	0	0	0	0
5.739334	0.1112333	-0.01772399	0	0	0	0
5.755901	0.1112333	-0.01772399	0	0	0	0
5.772468	0.1112333	-0.01772399	0	0	0	0
5.789034	0.1112333	-0.01772399	0	0	0	0
5.805602	0.1112333	-0.01772399	0	0	0	0
5.822248	0.110011	-0.01772399	-0.07342824	0	-2.210724	0
5.838739	0.110011	-0.01772399	0	0	2.215877	0
5.8553	0.110011	-0.01772399	0	0	0	0
5.871875	0.1087887	-0.017724	-0.07374419	-1.123745E-07	-2.225476	-3.391274E-06
5.888689	0.1087887	-0.017724	0	0	2.208663	3.365653E-06
5.905	0.1087887	-0.01650165	4.567645E-07	0.07493702	1.378915E-05	2.262255
5.921567	0.1075663	-0.01650165	-0.07378118	-1.124295E-07	-2.244044	-2.279188
5.938133	0.1075663	-0.01650165	0	0	2.226849	3.393324E-06
5.954701	0.106344	-0.01650165	-0.07377481	1.124198E-07	-2.22656	3.392884E-06
5.978301	0.106344	-0.01650165	0	0	1.836665	-2.798753E-06
5.994871	0.106344	-0.01650165	0	0	0	0
6.011438	0.106344	-0.01650165	0	0	0	0
6.028044	0.106344	-0.01650165	0	0	0	0
6.044571	0.106344	-0.01650165	0	0	0	0
6.061137	0.106344	-0.01650165	0	0	0	0
6.077703	0.1051216	-0.01650165	-0.07378922	0	-2.227187	0
6.094344	0.1038993	-0.01650165	-0.07345304	0	0.01012386	0
6.111274	0.1026769	-0.01527931	-0.07219978	0.0721995	0.03733142	2.150635
6.127465	0.1014546	-0.01527931	-0.07549514	-1.15042E-07	-0.09949432	-2.179867
6.144035	0.09900991	-0.01527931	-0.147536	5.620504E-08	-2.198975	5.227145E-06
6.160601	0.09900991	-0.01527931	0	0	4.452388	-1.696174E-06
6.177168	0.09900991	-0.01527931	0	0	0	0
6.193736	0.09778757	-0.01527931	-0.0737786	0	-2.226643	0
6.210302	0.09778757	-0.01527931	0	0	2.226675	0
6.22687	0.09534287	-0.01527931	-0.1475581	0	-4.453377	0
6.243797	0.09534287	-0.01527931	0	0	4.405321	0
6.260003	0.09534287	-0.01527931	0	0	0	0
6.276568	0.09534287	-0.01527931	0	0	0	0
6.293131	0.09412053	-0.01527931	-0.07379939	0	-2.227655	0
6.309984	0.09045348	-0.01527931	-0.2175921	0	-4.303137	0
6.326268	0.08923114	-0.01527931	-0.07506625	0	4.301192	0
6.342834	0.08678646	-0.01527931	-0.1475657	0	-2.206967	0
6.359401	0.08434176	-0.01527931	-0.1475704	0	-0.0001416673	0
6.376441	0.08067474	-0.01527931	-0.2151919	-5.465274E-08	-2.012125	-1.626231E-06
6.392535	0.07823005	-0.01405696	-0.1519034	0.07595163	1.910051	2.292226
6.409123	0.07823005	-0.01405696	0	0	4.647998	-2.323997
6.425668	0.07823005	-0.01405696	0	0	0	0
6.442235	0.07823005	-0.01405696	0	0	0	0
6.458798	0.07823005	-0.01405696	0	0	0	0
6.475368	0.07823005	-0.01405696	0	0	0	0
6.491959	0.07823005	-0.01405696	0	0	0	0
6.508505	0.07823005	-0.01405696	0	0	0	0
6.525069	0.07823005	-0.01405696	0	0	0	0
6.541861	0.07823005	-0.01405696	0	0	0	0
6.558201	0.07823005	-0.01405696	0	0	0	0
6.574767	0.07823005	-0.01405696	0	0	0	0
6.591335	0.07700771	-0.01283462	-0.07377815	0.07377871	-2.226693	2.22671
6.608554	0.07456301	-0.01283462	-0.1419763	1.081734E-07	-2.018486	-2.183653
6.624465	0.07456301	-0.01161227	0	0.07682565	4.28547	2.318933
6.641036	0.07211833	-0.01161227	-0.1475232	0	-4.541671	-2.365165
6.658154	0.07211833	-0.01161227	0	0	4.378971	0
6.674171	0.07211833	-0.01161227	0	0	0	0
6.691046	0.07211833	-0.01161227	0	0	0	0
6.707728	0.07211833	-0.01161227	0	0	0	0
6.724138	0.07211833	-0.01161227	0	0	0	0
6.740435	0.07089598	-0.01038993	-0.07500521	0.07500481	-2.293298	2.293286
6.757486	0.06967364	-0.01038993	-0.0716865	5.461912E-08	0.09951732	-2.249147
6.773568	0.06967364	-0.01038993	0	0	2.163596	-1.648479E-06
6.790662	0.06967364	-0.01038993	0	0	0	0
6.806702	0.06967364	-0.01038993	0	0	0	0
6.823467	0.06967364	-0.01038993	0	0	0	0
6.840112	0.06967364	-0.01038993	0	0	0	0
6.856682	0.06967364	-0.01038993	0	0	0	0
6.873658	0.06967364	-0.01038993	0	0	0	0
6.889816	0.06967364	-0.01038993	0	0	0	0
6.906383	0.06967364	-0.01038993	0	0	0	0
6.923283	0.06967364	-0.01038993	0	0	0	0
6.939516	0.06967364	-0.01038993	0	0	0	0
6.958927	0.06967364	-0.01038993	0	0	0	0
6.975494	0.06967364	-0.01038993	0	0	0	0
6.992064	0.06967364	-0.01038993	0	0	0	0
7.00863	0.06967364	-0.01038993	0	0	0	0
7.025214	0.06967364	-0.01038993	0	0	0	0
7.041764	0.06967364	-0.01038993	0	0	0	0
7.058586	0.06967364	-0.01038993	0	0	0	0
7.074898	0.06967364	-0.01038993	0	0	0	0
7.091465	0.06967364	-0.01038993	0	0	0	0
7.108029	0.06967364	-0.01038993	0	0	0	0
7.124812	0.06967364	-0.01038993	0	0	0	0
7.141164	0.06967364	-0.01038993	0	0	0	0
7.158359	0.06967364	-0.01038993	0	0	0	0
7.174295	0.06967364	-0.01038993	0	0	0	0
7.190868	0.06967364	-0.01038993	0	0	0	0
7.207435	0.06967364	-0.01038993	0	0	0	0
7.224006	0.06967364	-0.01038993	0	0	0	0
7.240567	0.06967364	-0.01038993	0	0	0	0
7.257135	0.06967364	-0.01038993	0	0	0	0
7.273695	0.06967364	-0.01038993	0	0	0	0
7.290267	0.06967364	-0.01038993	0	0	0	0
7.30683	0.06967364	-0.01038993	0	0	0	0
7.323397	0.06967364	-0.01038993	0	0	0	0
7.340331	0.06967364	-0.01038993	0	0	0	0
7.356531	0.06967364	-0.01038993	0	0	0	0
7.373098	0.06967364	-0.01038993	0	0	0	0
7.389665	0.06967364	-0.01038993	0	0	0	0
7.406269	0.06967364	-0.01038993	0	0	0	0
7.423439	0.06967364	-0.01038993	0	0	0	0
7.439364	0.06967364	-0.01038993	0	0	0	0
7.45593	0.06967364	-0.01038993	0	0	0	0
7.472497	0.06967364	-0.01038993	0	0	0	0
7.489288	0.06967364	-0.01038993	0	0	0	0
7.505631	0.06967364	-0.01038993	0	0	0	0
7.522197	0.06967364	-0.01038993	0	0	0	0
7.538761	0.06967364	-0.01038993	0	0	0	0
7.55533	0.06967364	-0.01038993	0	0	0	0
7.571898	0.06967364	-0.01038993	0	0	0	0
7.588464	0.06967364	-0.01038993	0	0	0	0
7.605414	0.06967364	-0.01038993	0	0	0	0
7.621598	0.06967364	-0.01038993	0	0	0	0
7.638165	0.06967364	-0.01038993	0	0	0	0
7.65473	0.06967364	-0.01038993	0	0	0	0
7.671298	0.06967364	-0.01038993	0	0	0	0
7.687864	0.06967364	-0.01038993	0	0	0	0
7.704431	0.06967364	-0.01038993	0	0	0	0
7.721294	0.06967364	-0.01038993	0	0	0	0
7.737699	0.06967364	-0.01038993	0	0	0	0
7.754348	0.06967364	-0.01038993	0	0	0	0
7.770694	0.06967364	-0.01038993	0	0	0	0
7.787264	0.06967364	-0.01038993	0	0	0	0
7.803831	0.06967364	-0.01038993	0	0	0	0
7.820397	0.06967364	-0.01038993	0	0	0	0
7.836964	0.06967364	-0.01038993	0	0	0	0
7.853531	0.06967364	-0.01038993	0	0	0	0
7.870098	0.06967364	-0.01038993	0	0	0	0
7.88688	0.06967364	-0.01038993	0	0	0	0
7.903232	0.06967364	-0.01038993	0	0	0	0
7.919797	0.06967364	-0.01038993	0	0	0	0
7.936594	0.06967364	-0.01038993	0	0	0	0
7.952931	0.06967364	-0.01038993	0	0	0	0
7.969496	0.06967364	-0.01038993	0	0	0	0
7.986965	0.06967364	-0.01038993	0	0	0	0
8.002632	0.06967364	-0.01038993	0	0	0	0
8.019403	0.06967364	-0.01038993	0	0	0	0
8.036006	0.06967364	-0.01038993	0	0	0	0
8.052329	0.06967364	-0.01038993	0	0	0	0
8.0697	0.06967364	-0.01038993	0	0	0	0
8.091784	0.06967364	-0.01038993	0	0	0	0
8.108355	0.06967364	-0.01038993	0	0	0	0
8.124921	0.06967364	-0.01038993	0	0	0	0
8.141487	0.06967364	-0.01038993	0	0	0	0
8.158054	0.06967364	-0.01038993	0	0	0	0
8.174619	0.06967364	-0.01038993	0	0	0	0
8.191746	0.06967364	-0.01038993	0	0	0	0
8.207754	0.06967364	-0.01038993	0	0	0	0
8.22432	0.06967364	-0.01038993	0	0	0	0
8.240887	0.06967364	-0.01038993	0	0	0	0
8.257453	0.06967364	-0.01038993	0	0	0	0
8.274271	0.06967364	-0.01038993	0	0	0	0
8.290917	0.06967364	-0.01038993	0	0	0	0
8.307161	0.06967364	-0.01038993	0	0	0	0
8.324086	0.06967364	-0.01038993	0	0	0	0
8.340827	0.06967364	-0.01038993	0	0	0	0
8.357059	0.06967364	-0.01038993	0	0	0	0
8.374013	0.06967364	-0.01038993	0	0	0	0
8.390148	0.06967364	-0.01038993	0	0	0	0
8.406887	0.06967364	-0.01038993	0	0	0	0
8.42349	0.06967364	-0.01038993	0	0	0	0
8.439869	0.06967364	-0.01038993	0	0	0	0
8.456257	0.06967364	-0.01038993	0	0	0	0
8.47288	0.06967364	-0.01038993	0	0	0	0
8.489443	0.06967364	-0.01038993	0	0	0	0
8.505956	0.06967364	-0.01038993	0	0	0	0
8.522522	0.06967364	-0.01038993	0	0	0	0
8.53952	0.06967364	-0.01038993	0	0	0	0
8.555655	0.06967364	-0.01038993	0	0	0	0
8.572512	0.06967364	-0.01038993	0	0	0	0
8.589067	0.06967364	-0.01038993	0	0	0	0
8.606396	0.06967364	-0.01038993	0	0	0	0
8.623143	0.06967364	-0.01038993	0	0	0	0
8.640203	0.06967364	-0.01038993	0	0	0	0
8.656272	0.06967364	-0.01038993	0	0	0	0
8.672666	0.06967364	-0.01038993	0	0	0	0
8.689232	0.06967364	-0.01038993	0	0	0	0
8.705799	0.06967364	-0.01038993	0	0	0	0
8.722365	0.06967364	-0.01038993	0	0	0	0
8.738932	0.06967364	-0.01038993	0	0	0	0
8.755842	0.06967364	-0.01038993	0	0	0	0
8.772575	0.06967364	-0.01038993	0	0	0	0
8.78863	0.06967364	-0.01038993	0	0	0	0
8.805404	0.06967364	-0.01038993	0	0	0	0
8.822086	0.06967364	-0.01038993	0	0	0	0
8.838332	0.06967364	-0.01038993	0	0	0	0
8.854899	0.06967364	-0.01038993	0	0	0	0
8.87164	0.06967364	-0.01038993	0	0	0	0
8.888033	0.06967364	-0.01038993	0	0	0	0
8.904599	0.06967364	-0.01038993	0	0	0	0
8.921164	0.06967364	-0.01038993	0	0	0	0
8.938128	0.06967364	-0.01038993	0	0	0	0
8.954563	0.06967364	-0.01038993	0	0	0	0
8.971187	0.06967364	-0.01038993	0	0	0	0
8.987432	0.07089598	-0.01038993	0.07524031	-5.732683E-08	2.289073	-1.744082E-06
9.004212	0.07089598	-0.01038993	0	0	-2.278232	1.735822E-06
9.020566	0.07211833	-0.01038993	0.07474496	0	2.255872	0
9.037334	0.0770077	-0.01527931	0.2915814	-0.2915819	6.546585	-8.803252
9.053699	0.08678646	-0.02261337	0.5975397	-0.4481542	9.234107	-4.725499
9.070267	0.1014546	-0.03605916	0.8853705	-0.8115895	8.74008	-11.03584
9.086831	0.1222344	-0.05439433	1.25449	-1.106904	11.14102	-8.913379
9.1034	0.1589048	-0.08861997	2.213171	-2.065626	28.93388	-28.93512
9.120453	0.1711282	-0.09962107	0.7168066	-0.6451257	-44.50579	42.2494
9.136533	0.1980198	-0.1204009	1.672372	-1.292287	28.84067	-19.5325
9.153102	0.2310231	-0.1436255	1.991854	-1.401676	9.785344	-3.350427
9.169668	0.2444689	-0.1570713	0.8116374	-0.8116365	-35.61798	17.8069
9.186234	0.2530253	-0.1644053	0.5164957	-0.4427098	-8.907907	11.13487
9.2028	0.2579147	-0.1680724	0.2951569	-0.2213686	-6.680596	6.680669
9.219859	0.259137	-0.1705171	0.07165243	-0.1433049	-6.647041	2.321621
9.235932	0.259137	-0.1705171	0	0	-2.162599	4.325199
9.252875	0.2603594	-0.1705171	0.07214448	0	2.185123	0
9.269068	0.2603594	-0.1717394	0	-0.07548847	-2.177262	-2.278181
9.286107	0.2603594	-0.1717394	0	0	0	2.271578
9.302201	0.2603594	-0.1717394	0	0	0	0
9.318765	0.2603594	-0.1717394	0	0	0	0
9.335361	0.2603594	-0.1729617	0	-0.07365353	0	-2.221206
9.351899	0.2603594	-0.1729617	0	0	0	2.222868
9.368468	0.2603594	-0.1729617	0	0	0	0
9.385409	0.2603594	-0.1729617	0	0	0	0
9.401932	0.2603594	-0.1729617	0	0	0	0
9.423629	0.2603594	-0.1729617	0	0	0	0
9.440202	0.2603594	-0.1729617	0	0	0	0
9.45691	0.2603594	-0.1729617	0	0	0	0
9.474303	0.2603594	-0.1729617	0	0	0	0
9.490926	0.2603594	-0.1729617	0	0	0	0
9.50744	0.2603594	-0.1729617	0	0	0	0
9.524892	0.2603594	-0.1729617	0	0	0	0
9.540573	0.2603594	-0.1729617	0	0	0	0
9.557144	0.2603594	-0.1729617	0	0	0	0
9.579949	0.2603594	-0.1729617	0	0	0	0
9.59652	0.2603594	-0.1729617	0	0	0	0
9.613946	0.2603594	-0.1729617	0	0	0	0
9.629653	0.2603594	-0.1729617	0	0	0	0
9.64622	0.2603594	-0.1729617	0	0	0	0
9.662787	0.2603594	-0.1729617	0	0	0	0
9.679354	0.2603594	-0.1729617	0	0	0	0
9.695947	0.2603594	-0.1729617	0	0	0	0
9.712565	0.2603594	-0.1729617	0	0	0	0
9.729113	0.2603594	-0.1729617	0	0	0	0
9.796257	0.2603594	-0.1729617	0	0	0	0
9.812828	0.2493583	-0.170517	-0.6638755	0.1475284	-7.930144	1.76226
9.8297	0.2444689	-0.1680724	-0.2898013	0.1449006	11.18559	-0.07857458
9.846479	0.2408019	-0.16685	-0.2185369	0.07284474	2.117729	-2.141249
9.862525	0.2383572	-0.1656277	-0.1523588	0.07617942	2.016057	0.1015884
9.880466	0.2346902	-0.1644053	-0.2043991	0.06813304	-1.531223	-0.2367551
9.897035	0.2261337	-0.1607383	-0.5164074	0.2213176	-9.041188	4.438889
9.913603	0.2224667	-0.1595159	-0.2213312	0.07377738	8.904648	-4.452388
9.93022	0.2065762	-0.1509595	-0.9562888	0.5149246	-22.14728	13.29357
9.946733	0.1955751	-0.1448478	-0.666174	0.3700967	8.756689	-4.371421
9.963302	0.1857964	-0.1387361	-0.5902127	0.3688833	2.296151	-0.03667769
9.979869	0.1760176	-0.131402	-0.5902467	0.4426852	-0.001025327	2.227284
9.996568	0.1625718	-0.1228456	-0.8051926	0.5123951	-6.461416	2.095526
10.013	0.1527931	-0.1179562	-0.5950085	0.2975042	6.343551	-6.485607
10.02984	0.145459	-0.1142892	-0.4355646	0.2177818	4.792028	-2.396027
10.04641	0.1393473	-0.1093998	-0.3688621	0.2950903	1.99665	2.314125
10.06297	0.1393473	-0.1093998	0	0	11.13228	-8.905843
10.07954	0.1369026	-0.1069551	-0.147553	0.147553	-4.453285	4.453285
10.09611	0.1332355	-0.1045105	-0.2213558	0.1475699	-2.227375	0.0005126785
10.11339	0.1283462	-0.09962107	-0.2829089	0.2829098	-1.818473	3.998368
10.12924	0.1210121	-0.09350935	-0.462771	0.3856422	-5.428874	3.100828
10.14611	0.110011	-0.0837306	-0.6522755	0.5798001	-5.792785	5.935031
10.16238	0.106344	-0.08128591	-0.2253774	0.1502518	12.88307	-12.96305
10.17894	0.1002323	-0.07639653	-0.3689253	0.2951403	-4.37154	4.412368
10.19587	0.0990099	-0.07517418	-0.07223029	0.07223029	8.859416	-6.656171
10.21243	0.0990099	-0.07395185	0	0.07377603	2.156699	0.04615355
10.22911	0.0990099	-0.0727295	0	0.07329597	0	-0.01444013
10.24637	0.09656522	-0.07150715	-0.1416499	0.07082536	-4.174085	-0.07280286
10.26213	0.09534287	-0.06906246	-0.07753894	0.1550779	1.941409	2.551338
10.2787	0.09045349	-0.06539543	-0.2951408	0.2213554	-6.730541	2.049998
10.29527	0.08678646	-0.0617284	-0.2213554	0.2213554	2.226976	0
10.31186	0.08434177	-0.0592837	-0.147324	0.1473244	2.232536	-2.232523
10.32841	0.08311942	-0.05806137	-0.07384919	0.07384852	2.216708	-2.216742
10.34632	0.08311942	-0.05683902	0	0.06823844	2.14274	-0.1627767
10.3629	0.08311942	-0.05683902	0	0	0	-1.978849
10.37955	0.08189708	-0.05683902	-0.07339205	0	-2.208873	0
10.39654	0.08067474	-0.05439433	-0.07192989	0.1438602	0.04345378	4.275384
10.41311	0.0770077	-0.0507273	-0.2213171	0.2213169	-4.450995	2.307824
10.42983	0.0770077	-0.0507273	0	0	6.648937	-6.64893
10.44625	0.07578535	-0.04828261	-0.07443244	0.1488642	-2.246052	4.492084
10.46281	0.07334067	-0.04706026	-0.1476124	0.07380644	-2.218666	-2.275596
10.47938	0.07334067	-0.04583792	0	0.0737805	4.455722	-0.0007830941
10.49594	0.07211833	-0.04583792	-0.07379772	2.249107E-07	-2.227476	-2.226949
10.51252	0.07211833	-0.04583792	0	0	2.22722	-6.78782E-06
10.52908	0.07211833	-0.04583792	0	0	0	0
10.54565	0.07211833	-0.04583792	0	0	0	0
10.56272	0.07211833	-0.04583792	0	0	0	0
10.57878	0.07211833	-0.04461558	0	0.07611609	0	2.297254
10.59592	0.07211833	-0.04461558	0	0	0	-2.293162
10.61192	0.07089598	-0.04461558	-0.07638372	0	-2.305132	0
10.62849	0.07089598	-0.04461558	0	0	2.345019	0
10.64519	0.07089598	-0.04339323	-4.460972E-07	0.07318715	-1.340767E-05	2.199676
10.66212	0.06967364	-0.04339323	-0.07221314	0	-2.147368	-2.176345
10.67874	0.06845129	-0.04217088	-0.07352767	0.073527	-0.03917997	2.191485
10.69526	0.06845129	-0.04217088	0	0	2.218878	-2.218858
10.71242	0.06845129	-0.04094854	4.341484E-07	0.07122638	1.28926E-05	2.115159
10.72839	0.06845129	-0.04094854	0	0	-1.3103E-05	-2.149678
10.74496	0.06845129	-0.04094854	0	0	0	0
10.76152	0.06845129	-0.04094854	0	0	0	0
10.77809	0.06845129	-0.04094854	0	0	0	0
10.79465	0.06845129	-0.04094854	0	0	0	0
10.81145	0.06845129	-0.04094854	0	0	0	0
10.82801	0.06845129	-0.04094854	0	0	0	0
10.84458	0.06845129	-0.0397262	0	0.07376798	0	2.227027
10.86137	0.06845129	-0.0397262	0	0	0	-2.211302
10.87801	0.06722895	-0.03972619	-0.07345935	2.238795E-07	-2.197464	6.697136E-06
10.89429	0.06722895	-0.03850385	0	0.07506406	2.2312	2.279933
10.9109	0.06600661	-0.03850385	-0.07356898	0	-2.236214	-2.281658
10.92741	0.0660066	-0.03728151	-4.514852E-07	0.07407089	2.221453	2.236623
10.94398	0.06356191	-0.03483682	-0.1475449	0.1475447	-4.461375	2.221664
10.96054	0.06233957	-0.03361448	-0.0737805	0.07378072	2.226086	-2.226073
10.97711	0.06233957	-0.03239213	2.249107E-07	0.07379794	2.226963	0.0005197089
10.99367	0.06111722	-0.03116979	-0.07378967	0.07378934	-2.227368	-0.000259757
11.01024	0.05989488	-0.02994744	-0.07376374	0.07376385	0.0007824642	-0.0007689734
11.02681	0.05867254	-0.02994744	-0.07378519	1.12436E-07	-0.0006473131	-2.226002
11.0438	0.05867254	-0.02994744	0	0	2.198931	-3.350793E-06
11.05994	0.05867254	-0.02994744	0	0	0	0
11.07651	0.05867254	-0.02994744	0	0	0	0
11.09308	0.05867254	-0.02994744	0	0	0	0
11.10964	0.05867254	-0.0287251	0	0.07378922	0	2.226963
11.12623	0.05867254	-0.0287251	0	0	0	-2.225618
11.14326	0.05867253	-0.02750275	-2.188008E-07	0.07179312	-6.509E-06	2.13574
11.15983	0.05745019	-0.02750275	-0.07377625	0	-2.196099	-2.137073
11.17639	0.05745019	-0.02750275	0	0	2.226379	0
11.19296	0.05745019	-0.02750275	0	0	0	0
11.20953	0.05745019	-0.02628041	-2.248978E-07	0.07379358	-6.788015E-06	2.227287
11.22609	0.05622785	-0.02628041	-0.07378497	0	-2.227084	-2.227351
11.24266	0.05622784	-0.02505806	-2.24846E-07	0.07377659	2.226828	2.226582
11.25923	0.05622784	-0.02261337	0	0.1475703	6.785866E-06	2.227098
11.27579	0.0550055	-0.02261337	-0.07377648	0	-2.226578	-4.45368
11.29256	0.05500551	-0.02139103	2.222365E-07	0.07292033	2.213461	2.187768
11.30912	0.05500551	-0.02139103	0	0	-6.667959E-06	-2.187894
11.32569	0.05500551	-0.02139103	0	0	0	0
11.34226	0.05500551	-0.02139103	0	0	0	0
11.35887	0.05500551	-0.02139103	0	0	0	0
11.37577	0.05500551	-0.02139103	0	0	0	0
11.3928	0.05500551	-0.02139103	0	0	0	0
11.40857	0.05500551	-0.02139103	0	0	0	0
11.4251	0.05500551	-0.02139103	0	0	0	0
11.44166	0.05500551	-0.02139103	0	0	0	0
11.45848	0.05500551	-0.02139103	0	0	0	0
11.47479	0.05500551	-0.02139103	0	0	0	0
11.49136	0.05500551	-0.02139103	0	0	0	0
11.50793	0.05500551	-0.02139103	0	0	0	0
11.52449	0.05500551	-0.02139103	0	0	0	0
11.54106	0.05500551	-0.02139103	0	0	0	0
11.55763	0.05500551	-0.02139103	0	0	0	0
11.57436	0.05500551	-0.02139103	0	0	0	0
11.59076	0.05500551	-0.02139103	0	0	0	0
11.60733	0.05500551	-0.02139103	0	0	0	0
11.62389	0.05500551	-0.02139103	0	0	0	0
11.64046	0.05500551	-0.02139103	0	0	0	0
11.65708	0.05500551	-0.02139103	0	0	0	0
11.6736	0.05500551	-0.02139103	0	0	0	0
11.69027	0.05500551	-0.02139103	0	0	0	0
11.70673	0.05500551	-0.02139103	0	0	0	0
11.72329	0.05500551	-0.02139103	0	0	0	0
11.73986	0.05500551	-0.02139103	0	0	0	0
11.75643	0.05500551	-0.02139103	0	0	0	0
11.773	0.05500551	-0.02139103	0	0	0	0
11.78956	0.05500551	-0.02139103	0	0	0	0
11.80613	0.05500551	-0.02139103	0	0	0	0
11.82284	0.05500551	-0.02139103	0	0	0	0
11.83936	0.05500551	-0.02139103	0	0	0	0
11.85591	0.05500551	-0.02139103	0	0	0	0
11.87315	0.05500551	-0.02139103	0	0	0	0
11.88896	0.05500551	-0.02139103	0	0	0	0
11.90553	0.05500551	-0.02139103	0	0	0	0
11.9221	0.05500551	-0.02139103	0	0	0	0
11.93866	0.05500551	-0.02139103	0	0	0	0
12.00805	0.05500551	-0.02139103	0	0	0	0
12.02462	0.05500551	-0.02139103	0	0	0	0
12.04119	0.05500551	-0.02139103	0	0	0	0
12.05857	0.05622784	-0.02139103	0.07033115	0	2.071735	0
12.07465	0.05622784	-0.02261337	0	-0.07603493	-2.102208	-2.272695
12.09089	0.05745019	-0.02383572	0.0752496	-0.07524926	2.328266	0.02430888
12.10745	0.05745019	-0.02383572	0	0	-2.293615	2.293604
12.12402	0.05745019	-0.02383572	0	0	0	0
12.14059	0.05745019	-0.02383572	0	0	0	0
12.15716	0.05867253	-0.02505806	0.07379324	-0.07379358	2.227277	-2.227287
12.17372	0.05989488	-0.02505806	0.07378118	-1.124295E-07	-0.0003640781	2.227284
12.19029	0.06111722	-0.02628041	0.07379347	-0.07379358	0.0003710493	-2.227284
12.20686	0.06356192	-0.02750275	0.1475449	-0.07377234	2.225887	0.0006410914
12.22342	0.06478426	-0.02750275	0.07378497	0	-2.226015	2.22639
12.23999	0.06478426	-0.0287251	0	-0.07378083	-2.226899	-2.226774
12.25669	0.06478426	-0.0287251	0	0	0	2.217837
12.27383	0.06478426	-0.0287251	0	0	0	0
12.29044	0.06478426	-0.0287251	0	0	0	0
12.30696	0.06478426	-0.0287251	0	0	0	0
12.32353	0.06478426	-0.0287251	0	0	0	0
12.3401	0.06478426	-0.0287251	0	0	0	0
12.35666	0.06478426	-0.0287251	0	0	0	0
12.37323	0.06478426	-0.0287251	0	0	0	0
12.3898	0.06478426	-0.0287251	0	0	0	0
12.40636	0.06478426	-0.0287251	0	0	0	0
12.42293	0.06478426	-0.0287251	0	0	0	0
12.43974	0.06478426	-0.0287251	0	0	0	0
12.45606	0.06478426	-0.0287251	0	0	0	0
12.47282	0.06478426	-0.0287251	0	0	0	0
12.48992	0.06478426	-0.0287251	0	0	0	0
12.50576	0.06478426	-0.0287251	0	0	0	0
12.52233	0.06478426	-0.0287251	0	0	0	0
12.539	0.06478426	-0.0287251	0	0	0	0
12.55552	0.06478426	-0.0287251	0	0	0	0
12.57203	0.06478426	-0.0287251	0	0	0	0
12.5886	0.06478426	-0.0287251	0	0	0	0
12.60517	0.06478426	-0.0287251	0	0	0	0
12.62192	0.06478426	-0.0287251	0	0	0	0
12.63851	0.06478426	-0.0287251	0	0	0	0
12.65486	0.06478426	-0.0287251	0	0	0	0
12.67143	0.06478426	-0.0287251	0	0	0	0
12.688	0.06478426	-0.0287251	0	0	0	0
12.70456	0.06478426	-0.0287251	0	0	0	0
12.72113	0.06478426	-0.0287251	0	0	0	0
12.7377	0.06478426	-0.0287251	0	0	0	0
12.75497	0.06478426	-0.0287251	0	0	0	0
12.77154	0.06478426	-0.0287251	0	0	0	0
12.78857	0.06478426	-0.0287251	0	0	0	0
12.80467	0.06478426	-0.0287251	0	0	0	0
12.82169	0.06478426	-0.0287251	0	0	0	0
12.83781	0.06478426	-0.0287251	0	0	0	0
12.85437	0.06478426	-0.0287251	0	0	0	0
12.87096	0.06478426	-0.0287251	0	0	0	0
12.88824	0.06478426	-0.0287251	0	0	0	0
12.90407	0.06478426	-0.0287251	0	0	0	0
12.92063	0.06478426	-0.0287251	0	0	0	0
12.93728	0.06478426	-0.0287251	0	0	0	0
12.95377	0.06478426	-0.0287251	0	0	0	0
12.97034	0.06478426	-0.0287251	0	0	0	0
12.98691	0.06478426	-0.0287251	0	0	0	0
13.00347	0.06478426	-0.0287251	0	0	0	0
13.02004	0.06478426	-0.0287251	0	0	0	0
13.03743	0.06478426	-0.0287251	0	0	0	0
13.05317	0.06478426	-0.0287251	0	0	0	0
13.06986	0.06478426	-0.0287251	0	0	0	0
13.0936	0.06478426	-0.0287251	0	0	0	0
13.11017	0.06478426	-0.0287251	0	0	0	0
13.12673	0.06478426	-0.0287251	0	0	0	0
13.1433	0.06478426	-0.0287251	0	0	0	0
13.15987	0.06478426	-0.0287251	0	0	0	0
13.17644	0.06478426	-0.0287251	0	0	0	0
13.193	0.06478426	-0.0287251	0	0	0	0
13.20957	0.06478426	-0.0287251	0	0	0	0
13.22614	0.06478426	-0.0287251	0	0	0	0
13.2427	0.06478426	-0.0287251	0	0	0	0
13.25927	0.06478426	-0.0287251	0	0	0	0
13.27584	0.06478426	-0.0287251	0	0	0	0
13.29282	0.06478426	-0.0287251	0	0	0	0
13.30897	0.06478426	-0.0287251	0	0	0	0
13.32554	0.06478426	-0.0287251	0	0	0	0
13.3421	0.06478426	-0.0287251	0	0	0	0
13.35869	0.06478426	-0.0287251	0	0	0	0
13.37546	0.06478426	-0.0287251	0	0	0	0
13.39205	0.06478426	-0.0287251	0	0	0	0
13.40837	0.06478426	-0.0287251	0	0	0	0
13.42494	0.06478426	-0.0287251	0	0	0	0
13.4415	0.06478426	-0.0287251	0	0	0	0
13.45807	0.06478426	-0.0287251	0	0	0	0
13.47464	0.06478426	-0.0287251	0	0	0	0
13.4912	0.06478426	-0.0287251	0	0	0	0
13.50797	0.06478426	-0.0287251	0	0	0	0
13.52447	0.06478426	-0.0287251	0	0	0	0
13.54109	0.06478426	-0.0287251	0	0	0	0
13.55747	0.06478426	-0.0287251	0	0	0	0
13.57413	0.06478426	-0.0287251	0	0	0	0
13.5907	0.06478426	-0.0287251	0	0	0	0
13.60727	0.06478426	-0.0287251	0	0	0	0
13.62384	0.06478426	-0.0287251	0	0	0	0
13.6404	0.06478426	-0.0287251	0	0	0	0
13.65697	0.06478426	-0.0287251	0	0	0	0
13.67354	0.06478426	-0.0287251	0	0	0	0
13.6901	0.06478426	-0.0287251	0	0	0	0
13.70667	0.06478426	-0.0287251	0	0	0	0
13.72327	0.06478426	-0.0287251	0	0	0	0
13.7398	0.06478426	-0.0287251	0	0	0	0
13.75671	0.05745019	-0.0287251	-0.4336977	0	-12.96957	0
13.7732	0.04889378	-0.0287251	-0.5188854	-1.129562E-07	-2.550487	-3.381867E-06
13.7895	0.04033737	-0.0287251	-0.5248346	0	-0.1814165	3.444516E-06
13.80607	0.03422565	-0.0287251	-0.3689043	1.124295E-07	4.743806	3.420398E-06
13.82264	0.03178096	-0.02750275	-0.1475617	0.07378095	6.680134	2.22671
13.8392	0.03178096	-0.02750275	0	0	4.453548	-2.226778
13.85577	0.03178096	-0.02750275	0	0	0	0
13.87234	0.02933627	-0.02750275	-0.1475618	-1.124295E-07	-4.45368	-3.393324E-06
13.8889	0.02689158	-0.02505806	-0.1475788	0.1475788	-0.000512708	4.454196
13.90562	0.02444689	-0.02261337	-0.1462318	0.1462318	0.04047009	-0.04047009
13.92305	0.01711282	-0.01894634	-0.4208572	0.2104285	-8.043058	1.880153
13.93889	0.01466813	-0.01894634	-0.154257	0	8.012113	-6.323988
13.95547	0.009778756	-0.01527931	-0.2949028	0.2211771	-4.3372	6.820604
13.97267	0.001222344	-0.01161227	-0.4976453	0.2132766	-6.003021	-0.2339267
13.98924	-0.01955751	-0.004278205	-1.25413	0.4426342	-22.40578	6.793177
14.00642	-0.01955751	-0.004278205	0	0	37.15987	-13.11525
14.02237	-0.02811392	-0.0006111722	-0.536221	0.2298089	-16.18178	6.935049
14.03894	-0.03055861	-0.0006111723	-0.1475958	-3.51423E-09	11.95024	-7.066631
14.0555	-0.03055861	-0.0006111723	0	0	4.455347	1.060811E-07
14.07207	-0.03055861	-0.0006111723	0	0	0	0
14.08864	-0.03055861	-0.0006111723	0	0	0	0
14.10521	-0.03055861	-0.0006111723	0	0	0	0
14.12177	-0.03055861	-0.0006111723	0	0	0	0
14.13834	-0.03055861	-0.0006111723	0	0	0	0
14.15491	-0.03055861	-0.0006111723	0	0	0	0
14.17147	-0.03055861	-0.0006111723	0	0	0	0
14.18807	-0.03055861	-0.0006111723	0	0	0	0
14.20461	-0.03055861	-0.0006111723	0	0	0	0
14.22118	-0.03055861	-0.0006111723	0	0	0	0
14.23774	-0.03055861	-0.0006111723	0	0	0	0
14.2543	-0.03055861	-0.0006111723	0	0	0	0
14.27087	-0.03055861	-0.0006111723	0	0	0	0
14.28744	-0.03055861	-0.0006111723	0	0	0	0
14.30456	-0.03055861	-0.0006111723	0	0	0	0
14.3206	-0.03178096	-0.0006111722	-0.07623391	3.630236E-09	-2.299156	1.094851E-07
14.33714	-0.0330033	-0.0006111722	-0.07389131	0	0.07191049	-1.114371E-07
14.3537	-0.0330033	-0.0006111722	0	0	2.231907	0
14.3706	-0.0330033	-0.0006111722	0	0	0	0
14.38717	-0.0330033	-0.0006111722	0	0	0	0
14.40389	-0.0330033	-0.0006111722	0	0	0	0
14.42031	-0.0330033	-0.0006111722	0	0	0	0
14.43688	-0.0330033	-0.0006111722	0	0	0	0
14.45344	-0.0330033	-0.0006111722	0	0	0	0
14.47001	-0.0330033	-0.0006111722	0	0	0	0
14.48674	-0.0330033	-0.0006111722	0	0	0	0
14.50314	-0.0330033	-0.0006111722	0	0	0	0
14.51971	-0.0330033	-0.0006111722	0	0	0	0
14.53628	-0.0330033	-0.0006111722	0	0	0	0
14.55284	-0.0330033	-0.0006111722	0	0	0	0
14.56965	-0.0330033	-0.0006111722	0	0	0	0
14.58598	-0.0330033	-0.0006111722	0	0	0	0
14.60283	-0.0330033	-0.0006111722	0	0	0	0
14.61912	-0.0330033	-0.0006111722	0	0	0	0
14.63659	-0.0330033	-0.0006111722	0	0	0	0
14.65224	-0.0330033	-0.0006111722	0	0	0	0
14.6691	-0.0330033	-0.0006111722	0	0	0	0
14.68538	-0.0330033	-0.0006111722	0	0	0	0
14.70194	-0.0330033	-0.0006111722	0	0	0	0
14.7185	-0.0330033	-0.0006111722	0	0	0	0
14.73568	-0.0330033	-0.0006111722	0	0	0	0
14.75182	-0.0330033	-0.0006111722	0	0	0	0
14.76826	-0.0330033	-0.0006111722	0	0	0	0
14.78506	-0.0330033	-0.0006111722	0	0	0	0
14.80152	-0.03422564	-0.0006111722	-0.0742681	0	-2.233252	0
14.81796	-0.03789268	-0.0006111722	-0.2230505	0	-4.522413	0
14.83448	-0.04644909	0.0006111722	-0.5179567	0.07399382	-8.947413	2.244962
14.85104	-0.06356192	0.006722895	-1.032992	0.3689256	-15.56663	8.914143
14.86821	-0.08923116	0.01650165	-1.495508	0.5697172	-13.7121	5.952819
14.88477	-0.1295685	0.03239213	-2.434908	0.9592063	-27.85017	11.54709
14.90134	-0.1564601	0.04217088	-1.622898	0.5901448	24.50509	-11.13766
14.91861	-0.1699059	0.04706026	-0.7785597	0.2831126	24.95077	-9.073007
14.93448	-0.1919081	0.05317198	-1.386977	0.3852712	-18.36259	3.083241
14.95104	-0.2090209	0.05806136	-1.032992	0.2951406	10.91543	-2.779263
14.96762	-0.216355	0.06050605	-0.4423542	0.1474515	17.81934	-4.455724
14.98418	-0.2212444	0.06417309	-0.2953609	0.2215211	4.436395	2.235489
15.00074	-0.2273561	0.06906246	-0.3689682	0.2951743	-2.222561	2.223946
15.01731	-0.2334678	0.07395184	-0.3688833	0.2951064	0.002564439	-0.002051731
15.03388	-0.2383572	0.07884122	-0.295122	0.2951233	2.226056	0.0005126637
15.05065	-0.2444689	0.08495295	-0.3643757	0.3643744	-2.077168	2.077088
15.0676	-0.2505806	0.09350935	-0.3606403	0.5048977	0.1107785	4.167354
15.08379	-0.2542476	0.09839872	-0.2264921	0.3019899	4.048251	-6.123239
15.10035	-0.2603594	0.1045105	-0.3689267	0.3689262	-4.348244	2.043431
15.1171	-0.2676935	0.1142892	-0.4378719	0.5838282	-2.069453	6.450479
15.13366	-0.2762499	0.124068	-0.5167643	0.5905867	-2.36864	0.2029152
15.15005	-0.287251	0.1350691	-0.6710569	0.6710583	-4.682435	2.442134
15.16662	-0.2982521	0.1448478	-0.6640666	0.5902807	0.212087	-2.450783
15.18319	-0.3178096	0.1619606	-1.180561	1.032991	-15.58874	13.36181
15.20005	-0.3239213	0.16685	-0.362477	0.2899825	24.47358	-22.22765
15.21725	-0.3373671	0.1778511	-0.7817543	0.6396165	-12.30979	10.26509
15.23457	-0.3398118	0.1802958	-0.1410885	0.1410885	18.55559	-14.43886
15.2507	-0.3398118	0.1802958	0	0	4.217757	-4.217757
15.26695	-0.3410341	0.1802958	-0.075205	0	-2.322773	0
15.28352	-0.3410341	0.1802958	0	0	2.291456	0
15.30008	-0.3410341	0.1802958	0	0	0	0
15.31665	-0.3410341	0.1815182	0	0.07378072	0	2.226771
15.33381	-0.3410341	0.1815182	0	0	0	-2.187359
15.35038	-0.3410341	0.1815182	0	0	0	0
15.36835	-0.3410341	0.1815182	0	0	0	0
15.38492	-0.3410341	0.1815182	0	0	0	0
15.40149	-0.3410341	0.1815182	0	0	0	0
15.4181	-0.3410341	0.1815182	0	0	0	0
15.43462	-0.3410341	0.1815182	0	0	0	0
15.45119	-0.3410341	0.1815182	0	0	0	0
15.46776	-0.3410341	0.1815182	0	0	0	0
15.48432	-0.3410341	0.1815182	0	0	0	0
15.50128	-0.3410341	0.1802958	0	-0.07209172	0	-2.150602
15.51746	-0.3385894	0.1802958	0.1511194	9.211224E-07	4.561054	2.175886
15.53464	-0.3373671	0.1790735	0.0711293	-0.07112844	-2.397612	-2.132022
15.55136	-0.3349224	0.1790735	0.146238	0	2.215455	2.09805
15.56778	-0.3337001	0.1778511	0.07444495	-0.07444495	-2.166594	-2.246624
15.5844	-0.330033	0.1754064	0.2206056	-0.1470713	4.423488	-2.198005
15.60098	-0.3239213	0.1692947	0.3685872	-0.3685854	4.456728	-6.671291
15.61748	-0.3104755	0.159516	0.815156	-0.5928403	13.50118	-6.779931
15.63478	-0.2933627	0.1485149	0.9891458	-0.6358801	5.148335	-1.27354
15.65061	-0.2750275	0.1387361	1.157902	-0.617547	5.09294	0.5532774
15.66718	-0.2566923	0.1265126	1.106776	-0.7378524	-1.577914	-3.713006
15.68374	-0.2395795	0.1167339	1.03317	-0.5903822	-2.221768	4.451301
15.70116	-0.2224667	0.1069551	0.982539	-0.5614507	-1.490003	0.851418
15.71852	-0.2004645	0.09350935	1.26687	-0.7741989	8.174112	-6.116213
15.73531	-0.1870187	0.08495294	0.8008485	-0.5096301	-13.64359	7.745714
15.75187	-0.1796847	0.08128591	0.4428628	-0.2214319	-10.73421	8.64163
15.76829	-0.1527931	0.06906246	1.637888	-0.7444941	36.23592	-15.86046
15.78484	-0.1369026	0.06295075	0.9602568	-0.3693293	-20.55507	11.38015
15.80136	-0.1222345	0.05683902	0.8878744	-0.3699478	-2.18885	-0.01870404
15.81793	-0.110011	0.04950495	0.7378091	-0.4426852	-4.535378	-2.198321
15.8345	-0.1002322	0.04461557	0.5902811	-0.2951408	-4.45253	4.453029
15.8524	-0.09412052	0.04094854	0.3412824	-0.2047694	-7.222719	2.621407
15.86935	-0.08678646	0.03728151	0.4327947	-0.2163973	2.625592	-0.3336183
15.88554	-0.08434177	0.03605916	0.1510036	-0.07550181	-8.504226	4.252113
15.90222	-0.07945239	0.03361447	0.293183	-0.1465915	4.325968	-2.162984
15.91889	-0.07578535	0.03116978	0.2199876	-0.1466584	-2.195014	-0.00200552
15.93524	-0.07211833	0.02994744	0.2242074	-0.0747359	0.127774	2.177833
15.95181	-0.07089598	0.0287251	0.07378967	-0.07378934	-4.569072	0.02875281
15.96837	-0.06967364	0.02750275	0.07378497	-0.07378497	-0.0001418983	0.0001317787
15.98528	-0.06722895	0.02750275	0.1445656	-1.101469E-07	2.114317	2.204057
16.0015	-0.06722895	0.02628041	0	-0.07535101	-4.36325	-2.274226
16.01903	-0.0660066	0.02628041	0.06973485	0	2.066185	2.232587
16.0356	-0.0660066	0.02628041	0	0	-2.04515	0
16.05217	-0.0660066	0.02628041	0	0	0	0
16.06874	-0.06478426	0.02505806	0.07378072	-0.07378083	2.226835	-2.226838
16.0853	-0.06356192	0.02505806	0.07378072	0	0	2.22671
16.10187	-0.06233957	0.02261337	0.07378095	-0.1475617	6.745769E-06	-4.45342
16.11884	-0.05989488	0.02261337	0.1440459	0	2.095035	4.399728
16.135	-0.05867254	0.02139103	0.07563548	-0.07563559	-2.06475	-2.282818
16.15192	-0.05745019	0.02139103	0.07223436	-1.100724E-07	-0.1028057	2.286237
16.16814	-0.05622784	0.02139103	0.07537772	0	0.09485573	3.32161E-06
16.18574	-0.05622785	0.02016868	-2.11652E-07	-0.06944738	-2.228976	-2.053606
16.20232	-0.0550055	0.02016868	0.07374721	0	2.15788	2.032058
16.21928	-0.05378316	0.02016868	0.07207123	0	-0.04997698	0
16.23546	-0.05256081	0.01894634	0.07551093	-0.07551093	0.1037686	-2.278007
16.25201	-0.05133847	0.017724	0.07388302	-0.0738828	-0.04973464	0.04974147
16.26858	-0.05011613	0.017724	0.07378072	0	-0.003089448	2.231328
16.28532	-0.05011613	0.017724	0	0	-2.215103	0
16.30171	-0.04889378	0.017724	0.07457078	0	2.25068	0
16.31832	-0.04889378	0.01650165	2.242909E-07	-0.07359455	-2.259649	-2.230074
16.33499	-0.04767143	0.01650165	0.07332487	0	2.203303	2.211413
16.35266	-0.04767143	0.01650165	0	0	-2.134793	0
16.36923	-0.04644909	0.01650165	0.07377223	0	2.154157	0
16.38612	-0.04644909	0.01527931	2.205924E-07	-0.07238089	-2.204993	-2.163413
16.40237	-0.0440044	0.01527931	0.1504718	5.732346E-08	4.541241	2.184461
16.41945	-0.0440044	0.01527931	0	0	-4.514997	-1.720025E-06
16.4355	-0.0440044	0.01527931	0	0	0	0
16.45207	-0.04278206	0.01527931	0.07377245	0	2.261607	0
16.46866	-0.04278206	0.01527931	0	0	-2.224536	0
16.48533	-0.04278206	0.01527931	0	0	0	0
16.5038	-0.04278206	0.01527931	0	0	0	0
16.52037	-0.04278206	0.01527931	0	0	0	0
16.53743	-0.04155971	0.01527931	0.07164464	0	2.130234	0
16.61836	-0.03911502	0.01527931	0.03020718	0	-0.422866	0
16.63806	-0.03055861	0.01527931	0.4343975	0	4.016682	0
16.65463	-0.03055861	0.01527931	0	0	-11.97861	0
16.6731	-0.03055861	0.01527931	0	0	0	0
16.68967	-0.03055861	0.01527931	0	0	0	0
16.70624	-0.03055861	0.01527931	0	0	0	0
16.7228	-0.03055861	0.01527931	0	0	0	0
16.73953	-0.03055861	0.01527931	0	0	0	0
16.75593	-0.03055861	0.01527931	0	0	0	0
16.7725	-0.03055861	0.01527931	0	0	0	0
16.78914	-0.03055861	0.01527931	0	0	0	0
16.80618	-0.03055861	0.01527931	0	0	0	0
16.82343	-0.03055861	0.01527931	0	0	0	0
16.84	-0.02566924	0.01527931	0.2950555	0	8.724006	0
16.85694	-0.02444689	0.01650165	0.07216907	0.0721689	-6.651679	2.153762
16.87313	-0.02322455	0.01650165	0.07547525	0	0.09978668	-2.178187
16.88986	-0.0220022	0.01650165	0.07306582	1.113399E-07	-0.07318007	3.381658E-06
16.90626	-0.02077986	0.01650165	0.07451876	-1.135538E-07	0.04385227	-6.787696E-06
16.92283	-0.02077986	0.01650165	0	0	-2.26017	3.44411E-06
16.9394	-0.02077986	0.01650165	0	0	0	0
16.95633	-0.02077986	0.01650165	0	0	0	0
16.97287	-0.02077986	0.01650165	0	0	0	0
16.99043	-0.02077986	0.01650165	0	0	0	0
17.007	-0.02077986	0.01650165	0	0	0	0
17.02357	-0.02077986	0.01650165	0	0	0	0
17.04032	-0.02077986	0.01650165	0	0	0	0
17.0567	-0.02077986	0.01650165	0	0	0	0
17.07327	-0.02077986	0.01650165	0	0	0	0
17.09029	-0.01833517	0.01650165	0.1435941	0	4.274622	0
17.1064	-0.01344579	0.01650165	0.3035815	0	4.828985	0
17.12296	-0.009778756	0.01527931	0.2213171	-0.07377234	-2.51767	-2.257776
17.13953	-0.006111722	0.01405696	0.2213171	-0.07377234	-8.993323E-07	0
17.15649	-0.003667034	0.01405696	0.1441918	0	-2.300631	2.200612
17.17404	-0.003667034	0.01283462	1.326563E-08	-0.06964359	-4.178763	-2.018313
17.18962	-0.003667034	0.01283462	0	0	-4.003575E-07	2.101848
17.20644	-0.003667034	0.01283462	0	0	0	0
17.22276	-0.003667034	0.01283462	0	0	0	0
17.23932	-0.003667034	0.01283462	0	0	0	0
17.25648	-0.003667034	0.01283462	0	0	0	0
17.27262	-0.003667034	0.01283462	0	0	0	0
17.28916	-0.003667034	0.01283462	0	0	0	0
17.30565	-0.003667034	0.01283462	0	0	0	0
17.32298	-0.003667034	0.01283462	0	0	0	0
17.33955	-0.003667034	0.01283462	0	0	0	0
17.35612	-0.003667034	0.01283462	0	0	0	0
17.37269	-0.003667034	0.01283462	0	0	0	0
17.38925	-0.003667034	0.01283462	0	0	0	0
17.40582	-0.003667034	0.01283462	0	0	0	0
17.42239	-0.003667034	0.01283462	0	0	0	0
17.43896	-0.003667034	0.01283462	0	0	0	0
17.45552	-0.001222344	0.01161227	0.1475957	-0.07379794	4.454448	-2.227226
17.47209	0.002444689	0.01038993	0.2213426	-0.07378078	2.225941	0.0005179098
17.48988	0.003667034	0.007945239	0.06871761	-0.1374353	-4.442563	-1.852837
17.50644	0.004889378	0.00794524	0.07378085	5.621474E-08	0.1473792	4.000428
17.52301	0.004889378	0.00794524	0	0	-2.226711	-1.696564E-06
17.53958	0.004889378	0.00794524	0	0	0	0
17.55614	0.004889378	0.00794524	0	0	0	0
17.57271	0.004889378	0.00794524	0	0	0	0
17.58928	0.004889378	0.00794524	0	0	0	0
17.60584	0.004889378	0.00794524	0	0	0	0
17.62241	0.004889378	0.00794524	0	0	0	0
17.63907	0.004889378	0.00794524	0	0	0	0
17.6557	0.004889378	0.00794524	0	0	0	0
17.67551	0.004889378	0.00794524	0	0	0	0
17.69208	0.004889378	0.00794524	0	0	0	0
17.7088	0.004889378	0.00794524	0	0	0	0
17.72521	0.004889378	0.00794524	0	0	0	0
17.74203	0.004889378	0.00794524	0	0	0	0
17.75834	0.004889378	0.00794524	0	0	0	0
17.77491	0.004889378	0.00794524	0	0	0	0
17.79178	0.004889378	0.00794524	0	0	0	0
17.80854	0.004889378	0.00794524	0	0	0	0
17.82512	0.004889378	0.00794524	0	0	0	0
17.84168	0.004889378	0.00794524	0	0	0	0
17.85825	0.004889378	0.00794524	0	0	0	0
17.87553	0.004889378	0.00794524	0	0	0	0
17.89148	0.004889378	0.00794524	0	0	0	0
17.90824	0.004889378	0.00794524	0	0	0	0
17.92451	0.004889378	0.00794524	0	0	0	0
17.94141	0.004889378	0.00794524	0	0	0	0
17.95798	0.004889378	0.00794524	0	0	0	0
17.97455	0.004889378	0.00794524	0	0	0	0
17.99112	0.004889378	0.00794524	0	0	0	0
18.00768	0.004889378	0.00794524	0	0	0	0
18.02424	0.004889378	0.00794524	0	0	0	0
18.04081	0.004889378	0.00794524	0	0	0	0
18.0575	0.004889378	0.00794524	0	0	0	0
18.07395	0.004889378	0.00794524	0	0	0	0
18.09051	0.004889378	0.00794524	0	0	0	0
18.10722	0.004889378	0.00794524	0	0	0	0
18.12408	0.004889378	0.00794524	0	0	0	0
18.14065	0.004889378	0.00794524	0	0	0	0
18.15742	0.004889378	0.00794524	0	0	0	0
18.17378	0.004889378	0.00794524	0	0	0	0
18.19035	0.004889378	0.00794524	0	0	0	0
18.20692	0.004889378	0.00794524	0	0	0	0
18.22348	0.004889378	0.00794524	0	0	0	0
18.24042	0.004889378	0.00794524	0	0	0	0
18.25661	0.004889378	0.00794524	0	0	0	0
18.27318	0.004889378	0.00794524	0	0	0	0
18.28995	0.004889378	0.00794524	0	0	0	0
18.30652	0.004889378	0.00794524	0	0	0	0
18.32309	0.004889378	0.00794524	0	0	0	0
18.33966	0.004889378	0.00794524	0	0	0	0
18.35622	0.004889378	0.00794524	0	0	0	0
18.37279	0.004889378	0.00794524	0	0	0	0
18.38936	0.004889378	0.00794524	0	0	0	0
18.40625	0.004889378	0.00794524	0	0	0	0
18.42273	0.004889378	0.00794524	0	0	0	0
18.44133	0.004889378	0.00794524	0	0	0	0
18.45849	0.004889378	0.00794524	0	0	0	0
18.47506	0.004889378	0.00794524	0	0	0	0
18.49163	0.004889378	0.00794524	0	0	0	0
18.50855	0.004889378	0.00794524	0	0	0	0
18.52546	0.004889378	0.00794524	0	0	0	0
18.54133	0.004889378	0.00794524	0	0	0	0
18.5579	0.004889378	0.006722895	0	-0.07378083	0	-2.274499
18.57446	0.004889378	0.006722895	0	0	0	2.226838
18.59103	0.004889378	0.006722895	0	0	0	0
18.6084	0.004889378	0.006722895	0	0	0	0
18.62566	0.004889378	0.006722895	0	0	0	0
18.64223	0.004889378	0.006722895	0	0	0	0
18.65893	0.004889378	0.006722895	0	0	0	0
18.67537	0.004889378	0.006722895	0	0	0	0
18.69193	0.004889378	0.006722895	0	0	0	0
18.7085	0.004889378	0.006722895	0	0	0	0
18.72546	0.004889378	0.006722895	0	0	0	0
18.74164	0.004889378	0.006722895	0	0	0	0
18.75866	0.004889378	0.006722895	0	0	0	0
18.77633	0.004889378	0.006722895	0	0	0	0
18.7929	0.004889378	0.006722895	0	0	0	0
18.80974	0.004889378	0.006722895	0	0	0	0
18.82603	0.004889378	0.006722895	0	0	0	0
18.84273	0.004889378	0.006722895	0	0	0	0
18.85919	0.004889378	0.006722895	0	0	0	0
18.87573	0.004889378	0.006722895	0	0	0	0
18.8923	0.004889378	0.006722895	0	0	0	0
18.90886	0.004889378	0.006722895	0	0	0	0
18.92564	0.004889378	0.006722895	0	0	0	0
18.94232	0.004889378	0.00550055	2.792093E-08	-0.0732915	8.344416E-07	-2.190381
18.95878	0.006111722	0.00550055	0.07426821	-2.829304E-08	2.241289	2.211813
18.97539	0.006111722	0.00550055	0	0	-2.246073	8.556588E-07
18.99192	0.006111722	0.00550055	0	0	0	0
19.00848	0.007334067	0.00550055	0.07382336	2.812356E-08	2.23069	8.49798E-07
19.02505	0.008556412	0.003055861	0.07378936	-0.1475787	-0.001026611	-4.455474
19.04161	0.01222344	0.0006111722	0.2213681	-0.1475787	4.454447	-4.497697E-07
19.05873	0.01711282	-0.0006111722	0.2856522	-0.07141303	1.908567	2.261326
19.07476	0.0220022	-0.003055861	0.3050265	-0.1525132	0.584516	-2.446764
19.09201	0.02566923	-0.004278206	0.2125103	-0.0708368	-2.779502	2.453841
19.10858	0.02811392	-0.00550055	0.1475448	-0.07377234	-1.920642	-0.08678642
19.12523	0.02811392	-0.00550055	0	0	-4.442426	2.221211
19.14172	0.02811392	-0.00550055	0	0	0	0
19.15876	0.02811392	-0.00550055	0	0	0	0
19.1749	0.02811392	-0.00550055	0	0	0	0
19.19142	0.02811392	-0.00550055	0	0	0	0
19.20799	0.02811392	-0.00550055	0	0	0	0
19.22455	0.02811392	-0.00550055	0	0	0	0
19.24112	0.02811392	-0.00550055	0	0	0	0
19.25953	0.02811392	-0.00550055	0	0	0	0
19.27609	0.03055861	-0.006722895	0.1475617	-0.07378089	4.218825	-2.109414
19.29309	0.03055861	-0.006722895	0	0	-4.396227	2.198116
19.31203	0.03055861	-0.006722895	0	0	0	0
19.3286	0.03055861	-0.006722895	0	0	0	0
19.34517	0.03055861	-0.006722895	0	0	0	0
19.36174	0.03055861	-0.006722895	0	0	0	0
19.37831	0.03055861	-0.006722895	0	0	0	0
19.39544	0.03055861	-0.006722895	0	0	0	0
19.41296	0.03055861	-0.006722895	0	0	0	0
19.42953	0.03055861	-0.006722895	0	0	0	0
19.4461	0.03055861	-0.006722895	0	0	0	0
19.46286	0.03055861	-0.006722895	0	0	0	0
19.47959	0.03055861	-0.006722895	0	0	0	0
19.4958	0.03055861	-0.006722895	0	0	0	0
19.51236	0.03055861	-0.006722895	0	0	0	0
19.52893	0.03055861	-0.006722895	0	0	0	0
19.5455	0.03055861	-0.006722895	0	0	0	0
19.56279	0.03055861	-0.006722895	0	0	0	0
19.57982	0.03055861	-0.006722895	0	0	0	0
19.59592	0.03055861	-0.006722895	0	0	0	0
19.61249	0.03055861	-0.006722895	0	0	0	0
19.6298	0.03055861	-0.006722895	0	0	0	0
19.64563	0.03055861	-0.006722895	0	0	0	0
19.66219	0.03055861	-0.006722895	0	0	0	0
19.67876	0.03055861	-0.006722895	0	0	0	0
19.69544	0.03055861	-0.006722895	0	0	0	0
19.71189	0.03055861	-0.006722895	0	0	0	0
19.72863	0.03055861	-0.006722895	0	0	0	0
19.74524	0.03055861	-0.006722895	0	0	0	0
19.76182	0.03055861	-0.006722895	0	0	0	0
19.77833	0.03055861	-0.006722895	0	0	0	0
19.7949	0.03055861	-0.006722895	0	0	0	0
19.81154	0.03055861	-0.006722895	0	0	0	0
19.82803	0.03055861	-0.006722895	0	0	0	0
19.84494	0.03055861	-0.006722895	0	0	0	0
19.86116	0.03055861	-0.006722895	0	0	0	0
19.87773	0.03055861	-0.006722895	0	0	0	0
19.89468	0.03055861	-0.006722895	0	0	0	0
19.91125	0.03055861	-0.006722895	0	0	0	0
19.92782	0.03055861	-0.006722895	0	0	0	0
19.94439	0.03055861	-0.006722895	0	0	0	0
19.96149	0.03055861	-0.006722895	0	0	0	0
19.97752	0.03055861	-0.006722895	0	0	0	0
19.99455	0.03055861	-0.006722895	0	0	0	0
20.01065	0.03055861	-0.006722895	0	0	0	0
20.02721	0.03055861	-0.006722895	0	0	0	0
20.04381	0.03055861	-0.006722895	0	0	0	0
20.06123	0.03055861	-0.006722895	0	0	0	0
20.07812	0.03055861	-0.006722895	0	0	0	0
20.09437	0.03055861	-0.006722895	0	0	0	0
20.11094	0.03055861	-0.006722895	0	0	0	0
20.12789	0.03055861	-0.006722895	0	0	0	0
20.14407	0.03055861	-0.006722895	0	0	0	0
20.16063	0.03911502	-0.001833517	0.5165254	0.2951574	15.77308	9.013192
20.1772	0.05989488	0.00550055	1.25413	0.4426342	22.26096	4.450858
20.19377	0.0880088	0.01527931	1.696959	0.5902469	13.36384	4.454702
20.21869	0.1234568	0.02383572	1.422173	0.3432831	-6.622561	-5.952015
20.23527	0.1833517	0.02994744	3.614429	0.3688194	52.8302	0.6153877
20.25183	0.1955751	0.03116978	0.737978	0.07379783	-86.81148	-8.903769
20.2684	0.2273561	0.03605916	1.918303	0.2951236	35.62639	6.680394
20.28499	0.2469136	0.04094854	1.178458	0.2946146	-22.30931	-0.01534821
20.30153	0.2640264	0.04583792	1.0346	0.2955998	-4.341417	0.02973184
20.3181	0.2774722	0.04828261	0.8115898	0.1475619	-6.735877	-4.471396
20.33467	0.2933627	0.05439433	0.9591512	0.3689041	4.453413	6.68012
20.35132	0.3092531	0.06050605	0.9540966	0.3669609	-0.1521451	-0.05849014
20.37035	0.322699	0.06539543	0.7067152	0.2569868	-6.933185	-3.082168
20.38722	0.3398118	0.0727295	1.01402	0.43458	8.559531	4.946608
20.40349	0.3471459	0.07517419	0.4508879	0.1502958	-16.99144	-8.57774
20.42024	0.365481	0.08128591	1.094738	0.364913	19.50215	6.500733
20.43683	0.3972619	0.08617529	1.915656	0.2947162	24.6237	-2.105574
20.45339	0.4131525	0.08984232	0.9594844	0.2214191	-28.84237	-2.210965
20.46976	0.4204865	0.09106467	0.4481534	0.07469269	-15.52944	-4.456172
20.48632	0.4217088	0.09106466	0.07377043	-4.496662E-07	-11.36761	-2.267951
20.50289	0.4217088	0.09106466	0	0	-2.226652	1.357251E-05
20.52075	0.4217088	0.09106466	0	0	0	0
20.53733	0.4217088	0.09106466	0	0	0	0
20.5539	0.4217088	0.09106466	0	0	0	0
20.57045	0.4217088	0.09106466	0	0	0	0
20.58701	0.4217088	0.09106466	0	0	0	0
20.60358	0.4217088	0.09106466	0	0	0	0
20.62015	0.4217088	0.09106466	0	0	0	0
20.63671	0.4217088	0.09106466	0	0	0	0
20.65328	0.4217088	0.09106466	0	0	0	0
20.67041	0.4217088	0.09106466	0	0	0	0
20.68703	0.4217088	0.09106466	0	0	0	0
20.70355	0.4204865	0.09106467	-0.07400043	4.510681E-07	-2.233337	1.361326E-05
20.72012	0.4204865	0.09106467	0	0	2.236556	-1.363288E-05
20.73676	0.4204865	0.09106467	0	0	0	0
20.75325	0.4204865	0.09106467	0	0	0	0
20.76982	0.4204865	0.09106467	0	0	0	0
20.78638	0.4204865	0.09106467	0	0	0	0
20.80295	0.4204865	0.09106467	0	0	0	0
20.81952	0.4204865	0.09106467	0	0	0	0
20.83733	0.4204865	0.09106467	0	0	0	0
20.8543	0.4204865	0.09106467	0	0	0	0
20.87047	0.4192642	0.09106467	-0.07559978	0	-2.281475	0
20.88704	0.4180418	0.09106466	-0.07379102	-4.497697E-07	0.05525653	-1.374017E-05
20.90371	0.4155971	0.09228701	-0.1465809	0.07329178	-2.189618	2.20473
20.92017	0.4107077	0.09350935	-0.2970742	0.0742681	-4.541635	0.0294636
20.93674	0.3997067	0.09839874	-0.6640265	0.2951238	-11.1111	6.68738
20.95331	0.3850385	0.1069551	-0.8853723	0.5164655	-6.680229	6.680108
20.96988	0.365481	0.1204009	-1.180356	0.8114963	-8.902103	8.903534
20.9874	0.3471458	0.1326244	-1.046361	0.6975728	3.930381	-3.341654
21.00397	0.330033	0.1436255	-1.032811	0.6639519	0.3974558	-0.9861845
21.02053	0.3275883	0.1460702	-0.1475802	0.1475784	26.71633	-15.58418
21.0371	0.322699	0.1485149	-0.2951569	0.1475784	-4.454384	0
21.05367	0.3153649	0.1534042	-0.4426861	0.2951238	-4.452699	4.453184
21.07023	0.294585	0.1741841	-1.254274	1.254274	-24.49377	28.94721
21.08761	0.2738051	0.198631	-1.195899	1.406939	1.719786	4.497651
21.10418	0.2505806	0.2304119	-1.401674	1.918081	-6.061998	15.05791
21.12074	0.2285784	0.2585258	-1.328055	1.69696	2.221709	-6.673045
21.13731	0.2126879	0.2829728	-0.9592617	1.475788	11.13084	-6.675375
21.15513	0.2029092	0.3000856	-0.548681	0.9601934	11.93979	-14.99362
21.1717	0.1919081	0.3208655	-0.6639519	1.254132	-3.351736	8.54685
21.18827	0.1894634	0.3257548	-0.1475614	0.2951211	15.5838	-28.94133
21.205	0.1857964	0.3343112	-0.2191481	0.5113452	-2.149722	6.493138
21.2214	0.184574	0.3367559	-0.07453678	0.1490717	4.364628	-10.93406
21.23797	0.184574	0.3367559	0	0	2.260978	-4.5219
21.25454	0.184574	0.3367559	0	0	0	0
21.27122	0.184574	0.3367559	0	0	0	0
21.28767	0.184574	0.3367559	0	0	0	0
21.30507	0.184574	0.3367559	0	0	0	0
21.32163	0.184574	0.3367559	0	0	0	0
21.3382	0.184574	0.3367559	0	0	0	0
21.35477	0.184574	0.3367559	0	0	0	0
21.37144	0.184574	0.3367559	0	0	0	0
21.38813	0.184574	0.3367559	0	0	0	0
21.40447	0.184574	0.3367559	0	0	0	0
21.4211	0.184574	0.3367559	0	0	0	0
21.4376	0.184574	0.3367559	0	0	0	0
21.45441	0.184574	0.3367559	0	0	0	0
21.47191	0.184574	0.3367559	0	0	0	0
21.48848	0.184574	0.3367559	0	0	0	0
21.50504	0.184574	0.3367559	0	0	0	0
21.52161	0.184574	0.3367559	0	0	0	0
21.53829	0.184574	0.3367559	0	0	0	0
21.55499	0.184574	0.3367559	0	0	0	0
21.57131	0.184574	0.3367559	0	0	0	0
21.58791	0.184574	0.3367559	0	0	0	0
21.60445	0.184574	0.3367559	0	0	0	0
21.62129	0.184574	0.3367559	0	0	0	0
21.63786	0.184574	0.3367559	0	0	0	0
21.65461	0.184574	0.3367559	0	0	0	0
21.67099	0.184574	0.3367559	0	0	0	0
21.68756	0.184574	0.3367559	0	0	0	0
21.70412	0.184574	0.3367559	0	0	0	0
21.72138	0.184574	0.3367559	0	0	0	0
21.73726	0.184574	0.3367559	0	0	0	0
21.75382	0.184574	0.3367559	0	0	0	0
21.77039	0.184574	0.3367559	0	0	0	0
21.78695	0.184574	0.3367559	0	0	0	0
21.80352	0.184574	0.3367559	0	0	0	0
21.82009	0.184574	0.3367559	0	0	0	0
21.83682	0.184574	0.3367559	0	0	0	0
21.85339	0.184574	0.3367559	0	0	0	0
21.86979	0.184574	0.3367559	0	0	0	0
21.88636	0.184574	0.3367559	0	0	0	0
21.90293	0.184574	0.3367559	0	0	0	0
21.91981	0.184574	0.3367559	0	0	0	0
21.93607	0.184574	0.3367559	0	0	0	0
21.95364	0.184574	0.3367559	0	0	0	0
21.97217	0.184574	0.3367559	0	0	0	0
21.98874	0.184574	0.3367559	0	0	0	0
22.00531	0.184574	0.3367559	0	0	0	0
22.02187	0.184574	0.3367559	0	0	0	0
22.03882	0.184574	0.3367559	0	0	0	0
22.05501	0.184574	0.3367559	0	0	0	0
22.07188	0.184574	0.3367559	0	0	0	0
22.08847	0.184574	0.3367559	0	0	0	0
22.10583	0.184574	0.3367559	0	0	0	0
22.1224	0.184574	0.3367559	0	0	0	0
22.13903	0.184574	0.3367559	0	0	0	0
22.15603	0.184574	0.3367559	0	0	0	0
22.1721	0.184574	0.3367559	0	0	0	0
22.18867	0.184574	0.3367559	0	0	0	0
22.20524	0.184574	0.3367559	0	0	0	0
22.22196	0.184574	0.3367559	0	0	0	0
22.23837	0.184574	0.3367559	0	0	0	0
22.25494	0.184574	0.3367559	0	0	0	0
22.27151	0.184574	0.3367559	0	0	0	0
22.28807	0.184574	0.3367559	0	0	0	0
22.30464	0.184574	0.3367559	0	0	0	0
22.32121	0.184574	0.3367559	0	0	0	0
22.33777	0.184574	0.3367559	0	0	0	0
22.35439	0.184574	0.3367559	0	0	0	0
22.37091	0.184574	0.3367559	0	0	0	0
22.38747	0.184574	0.3367559	0	0	0	0
22.40404	0.184574	0.3367559	0	0	0	0
22.42074	0.184574	0.3367559	0	0	0	0
22.43731	0.184574	0.3367559	0	0	0	0
22.45387	0.184574	0.3367559	0	0	0	0
22.47044	0.184574	0.3367559	0	0	0	0
22.48701	0.184574	0.3367559	0	0	0	0
22.50358	0.184574	0.3367559	0	0	0	0
22.52014	0.184574	0.3367559	0	0	0	0
22.53687	0.184574	0.3367559	0	0	0	0
22.55328	0.184574	0.3367559	0	0	0	0
22.56984	0.184574	0.3367559	0	0	0	0
22.58647	0.184574	0.3367559	0	0	0	0
22.60304	0.184574	0.3367559	0	0	0	0
22.61961	0.184574	0.3367559	0	0	0	0
22.63678	0.184574	0.3367559	0	0	0	0
22.65274	0.184574	0.3367559	0	0	0	0
22.6696	0.184574	0.3367559	0	0	0	0
22.68588	0.184574	0.3367559	0	0	0	0
22.70245	0.184574	0.3367559	0	0	0	0
22.71912	0.184574	0.3367559	0	0	0	0
22.73597	0.184574	0.3367559	0	0	0	0
22.75314	0.184574	0.3367559	0	0	0	0
22.77011	0.184574	0.3367559	0	0	0	0
22.78627	0.184574	0.3367559	0	0	0	0
22.80302	0.184574	0.3367559	0	0	0	0
22.81941	0.184574	0.3367559	0	0	0	0
22.83597	0.184574	0.3367559	0	0	0	0
22.85254	0.184574	0.3367559	0	0	0	0
22.87054	0.184574	0.3367559	0	0	0	0
22.88711	0.184574	0.3367559	0	0	0	0
22.90409	0.184574	0.3367559	0	0	0	0
22.92066	0.188241	0.3257548	0.2213176	-0.6639519	6.596223	-19.78864
22.93798	0.1931304	0.3171984	0.2822237	-0.4938914	1.79698	5.017482
22.95379	0.2041315	0.2964185	0.6959158	-1.314506	12.48597	-24.76762
22.97041	0.220022	0.2756387	0.956179	-1.250389	8.026168	1.977277
22.98693	0.2371348	0.2536365	1.036273	-1.33235	2.417393	-2.473721
23.00349	0.2481359	0.2389683	0.6640274	-0.8853705	-11.25254	13.51164
23.02026	0.25547	0.2304119	0.4373978	-0.5102964	-6.798602	11.25175
23.03662	0.2652487	0.2206332	0.5976076	-0.5976084	4.835696	-2.635386
23.05424	0.2738052	0.2120768	0.4857115	-0.4857123	-3.293055	3.293056
23.07081	0.294585	0.1937416	1.25413	-1.106584	22.47796	-18.16191
23.08738	0.3019191	0.1864075	0.4426844	-0.4426852	-24.48806	20.03536
23.10418	0.3190319	0.1741841	1.018395	-0.7274235	17.25185	-8.532515
23.12051	0.330033	0.1656277	0.6736452	-0.5239457	-10.40458	6.140972
23.14423	0.3373671	0.1619606	0.3092204	-0.1546109	-9.099564	9.222167
23.1608	0.3447012	0.1558489	0.4426352	-0.3688621	3.311606	-5.31812
23.17736	0.3471458	0.1546266	0.1475597	-0.07378072	-8.904884	8.90506
23.19393	0.3508129	0.1509595	0.2213185	-0.2213176	2.225918	-4.452415
23.21122	0.3581469	0.1424031	0.4243633	-0.4950914	5.998083	-8.087466
23.22779	0.3752598	0.1265127	1.032813	-0.9590399	17.97402	-13.70535
23.24437	0.3789268	0.1228456	0.2210894	-0.2210885	-24.48237	22.25732
23.26142	0.3850385	0.1191786	0.3584608	-0.215078	4.084047	0.1786938
23.27751	0.3850385	0.1191786	0	0	-10.8165	6.489945
23.29405	0.3850385	0.1191786	0	0	0	0
23.31372	0.3850385	0.1191786	0	0	0	0
23.33029	0.3850385	0.1191786	0	0	0	0
23.34685	0.3850385	0.1191786	0	0	0	0
23.36676	0.3850385	0.1191786	0	0	0	0
23.39026	0.3850385	0.1191786	0	0	0	0
23.40683	0.3850385	0.1191786	0	0	0	0
23.42404	0.3850385	0.1191786	0	0	0	0
23.43997	0.3850385	0.1191786	0	0	0	0
23.45653	0.3850385	0.1191786	0	0	0	0
23.4731	0.3850385	0.1191786	0	0	0	0
23.48969	0.3850385	0.1191786	0	0	0	0
23.50623	0.3850385	0.1191786	0	0	0	0
23.52465	0.3850385	0.1191786	0	0	0	0
23.54122	0.3850385	0.1191786	0	0	0	0
23.55779	0.3850385	0.1191786	0	0	0	0
23.57436	0.3850385	0.1191786	0	0	0	0
23.59092	0.3850385	0.1191786	0	0	0	0
23.60749	0.3850385	0.1191786	0	0	0	0
23.62485	0.3850385	0.1191786	0	0	0	0
23.64062	0.3850385	0.1191786	0	0	0	0
23.65759	0.3850385	0.1191786	0	0	0	0
23.67788	0.3850385	0.1191786	0	0	0	0
23.69445	0.3850385	0.1191786	0	0	0	0
23.71102	0.3850385	0.1191786	0	0	0	0
23.72778	0.3850385	0.1191786	0	0	0	0
23.74529	0.3838162	0.1179563	-0.06980868	-0.06980997	-2.03672	-2.036757
23.76186	0.3752598	0.1167339	-0.5164074	-0.07377268	-13.10496	-0.1162817
23.77893	0.3703704	0.1155116	-0.2864176	-0.0716044	6.836815	0.06445567
23.795	0.3593693	0.1130669	-0.6847601	-0.1521689	-12.02131	-2.431302
23.81156	0.3471458	0.1069551	-0.7378109	-0.368905	-1.625687	-6.641657
23.83165	0.3324777	0.1008434	-0.7301161	-0.3042154	0.2099111	1.76471
23.84822	0.294585	0.08128591	-2.286945	-1.180358	-42.46756	-23.89964
23.86479	0.2811392	0.07395185	-0.8117767	-0.4427868	44.52322	22.26122
23.88135	0.2566923	0.0617284	-1.475616	-0.7378088	-20.03703	-8.904809
23.89797	0.2310231	0.04461557	-1.54513	-1.030086	-2.095018	-8.808778
23.91449	0.2090209	0.03361447	-1.331581	-0.6657906	6.444544	10.99383
23.93106	0.188241	0.02139103	-1.254275	-0.7378085	2.336186	-2.176384
23.94762	0.1686835	0.00794524	-1.180493	-0.8115894	2.226733	-2.226714
23.96419	0.1503484	-0.001833517	-1.106968	-0.5903829	2.219243	6.676795
23.98428	0.1356802	-0.01038993	-0.7301869	-0.4259422	10.28008	4.486588
24.00084	0.1038993	-0.02750275	-1.918081	-1.032813	-32.40535	-16.55524
24.01741	0.09778756	-0.03116979	-0.3688621	-0.2213171	46.75013	24.48818
24.03398	0.08800881	-0.03605916	-0.5902467	-0.2951235	-6.681016	-2.227351
24.05054	0.08311942	-0.03972619	-0.2951918	-0.2213934	8.9058	2.225435
24.06711	0.0770077	-0.04339323	-0.3689466	-0.2213681	-2.226308	0.0007628534
24.08382	0.07334067	-0.04583792	-0.2194728	-0.1463156	4.492249	2.255611
24.10025	0.07211833	-0.04583792	-0.07440606	2.267648E-07	4.377872	4.415566
24.11681	0.07211833	-0.04583792	0	0	2.255055	-6.872654E-06
24.13609	0.07211833	-0.04583792	0	0	0	0
24.15266	0.07211833	-0.04583792	0	0	0	0
24.16933	0.07211833	-0.04583792	0	0	0	0
24.18579	0.07211833	-0.04583792	0	0	0	0
24.20236	0.07211833	-0.04583792	0	0	0	0
24.21893	0.06845129	-0.04583792	-0.2213426	2.24859E-07	-6.679749	6.785866E-06
24.23549	0.06478426	-0.04461557	-0.2213936	0.07379772	-0.001538662	2.227469
24.25206	0.06233957	-0.04339323	-0.1475447	0.07377245	2.228893	-0.0007625407
24.26902	0.05867253	-0.04217088	-0.2162393	0.07207978	-2.048913	-0.05048636
24.28761	0.05745019	-0.04094854	-0.06572897	0.06572916	4.233184	-0.1786144
24.30419	0.05745019	-0.04094854	0	0	1.869016	-1.869021
24.32108	0.05745019	-0.04094854	0	0	0	0
24.33732	0.05745019	-0.04094854	0	0	0	0
24.35389	0.05745019	-0.04094854	0	0	0	0
24.37051	0.05745019	-0.04094854	0	0	0	0
24.38702	0.05745019	-0.04094854	0	0	0	0
24.40362	0.05745019	-0.04094854	0	0	0	0
24.42015	0.05745019	-0.04094854	0	0	0	0
24.4393	0.05622785	-0.04094854	-0.06384353	-1.945731E-07	-1.78968	-5.454331E-06
24.45587	0.05622785	-0.04094854	0	0	1.787482	5.447632E-06
24.47243	0.05622785	-0.04094854	0	0	0	0
24.489	0.05622785	-0.04094854	0	0	0	0
24.50557	0.05622785	-0.04094854	0	0	0	0
24.52213	0.05622785	-0.04094854	0	0	0	0
24.53918	0.05622785	-0.04094854	0	0	0	0
24.55527	0.05622785	-0.04094854	0	0	0	0
24.57183	0.05622785	-0.04094854	0	0	0	0
24.59056	0.05622785	-0.04094854	0	0	0	0
24.60939	0.05622785	-0.04094854	0	0	0	0
24.62596	0.05622785	-0.04094854	0	0	0	0
24.64253	0.05622785	-0.04094854	0	0	0	0
24.65909	0.05622785	-0.04094854	0	0	0	0
24.67589	0.05622785	-0.04094854	0	0	0	0
24.69223	0.05622785	-0.04094854	0	0	0	0
24.70879	0.05622785	-0.04094854	0	0	0	0
24.72536	0.05622785	-0.04094854	0	0	0	0
24.74347	0.05622785	-0.04094854	0	0	0	0
24.76035	0.05622785	-0.04094854	0	0	0	0
24.7766	0.05622784	-0.03972619	-2.292131E-07	0.07520987	-6.917665E-06	2.269838
24.79317	0.05622784	-0.03972619	0	0	6.984E-06	-2.291604
24.80974	0.05622784	-0.03972619	0	0	0	0
24.8263	0.05622784	-0.03972619	0	0	0	0
24.84287	0.05622784	-0.03972619	0	0	0	0
24.85944	0.05622784	-0.03972619	0	0	0	0
24.876	0.05622784	-0.03972619	0	0	0	0
24.89447	0.05622784	-0.03972619	0	0	0	0
24.91104	0.0550055	-0.03972619	-0.07377223	0	-2.105607	0
24.92783	0.0550055	-0.03972619	0	0	2.211555	0
24.94417	0.05378316	-0.03850386	-0.07477939	0.07477916	-2.256846	2.25684
24.96074	0.05133847	-0.03605916	-0.1475617	0.1475619	-2.211339	2.211353
24.97731	0.05133847	-0.03483682	-2.24859E-07	0.07378095	4.453413	-2.226713
24.99387	0.05011613	-0.03361447	-0.07378922	0.07378945	-2.227084	0.0002565788
25.01044	0.04889378	-0.03361448	-0.07378072	-2.24859E-07	0.000256354	-2.227105
25.02743	0.04767144	-0.03239213	-0.07194223	0.07194223	0.05478586	2.143831
25.04652	0.04644909	-0.02994744	-0.0640351	0.1280697	0.2191589	1.555665
25.06309	0.04522675	-0.0287251	-0.07378072	0.07378083	-0.2733236	-1.522575
25.07997	0.04522675	-0.0287251	0	0	2.205631	-2.205634
25.09622	0.0440044	-0.0262804	-0.07521824	0.1504368	-2.270091	4.540192
25.11279	0.0440044	-0.02505806	0	0.07378934	2.292125	-2.335679
25.12935	0.0440044	-0.02505806	0	0	0	-2.227095
25.14592	0.0440044	-0.02505806	0	0	0	0
25.16249	0.0440044	-0.02505806	0	0	0	0
25.17906	0.0440044	-0.02383572	-2.24859E-07	0.07378072	-6.786257E-06	2.226707
25.19767	0.0440044	-0.02383572	0	0	6.390787E-06	-2.096945
25.21424	0.0440044	-0.02383572	0	0	0	0
25.23153	0.0440044	-0.02261337	2.155291E-07	0.07071953	6.366518E-06	2.088985
25.24738	0.04278206	-0.02139103	-0.07712857	0.07712857	-2.327886	0.1934366
25.26394	0.04278206	-0.02139103	0	0	2.379381	-2.379381
25.28051	0.04278206	-0.02139103	0	0	0	0
25.29708	0.04278206	-0.02016868	0	0.07378934	0	2.227095
25.31375	0.04278206	-0.02016868	0	0	0	-2.220193
25.33021	0.04278206	-0.01894634	0	0.07424251	0	2.240644
25.34939	0.04278206	-0.01894634	0	0	0	-2.083081
25.36596	0.04278206	-0.01772399	0	0.07377234	0	2.063815
25.38252	0.04278206	-0.01772399	0	0	0	-2.226326
25.39909	0.04278206	-0.01772399	0	0	0	0
25.41566	0.04278206	-0.01772399	0	0	0	0
25.43222	0.04278206	-0.01772399	0	0	0	0
25.44879	0.04278206	-0.01772399	0	0	0	0
25.46536	0.04278206	-0.01772399	0	0	0	0
25.48192	0.04278206	-0.01772399	0	0	0	0
25.50086	0.04278206	-0.01650165	0	0.0645443	0	1.817878
25.51846	0.04278206	-0.01650165	0	0	0	-1.766446
25.53503	0.04278206	-0.01650165	0	0	0	0
25.5516	0.04278206	-0.01650165	0	0	0	0
25.56868	0.04278206	-0.01650165	0	0	0	0
25.5849	0.04278206	-0.01650165	0	0	0	0
25.60174	0.04278206	-0.01650165	0	0	0	0
25.61787	0.04278206	-0.01650165	0	0	0	0
25.63444	0.04278206	-0.01650165	0	0	0	0
25.65315	0.04278206	-0.01650165	0	0	0	0
25.6698	0.04278206	-0.01650165	0	0	0	0
25.68629	0.04278206	-0.01650165	0	0	0	0
25.70308	0.04278206	-0.01650165	0	0	0	0
25.71942	0.04278206	-0.01650165	0	0	0	0
25.73599	0.04278206	-0.01650165	0	0	0	0
25.75256	0.04278206	-0.01650165	0	0	0	0
25.76912	0.04278206	-0.01650165	0	0	0	0
25.78569	0.04278206	-0.01650165	0	0	0	0
25.80337	0.04278206	-0.01650165	0	0	0	0
25.81994	0.04278206	-0.01650165	0	0	0	0
25.83682	0.04278206	-0.01650165	0	0	0	0
25.85307	0.04278206	-0.01650165	0	0	0	0
25.86964	0.04278206	-0.01650165	0	0	0	0
25.8862	0.04278206	-0.01650165	0	0	0	0
25.90277	0.04278206	-0.01650165	0	0	0	0
25.91934	0.04278206	-0.01650165	0	0	0	0
25.9359	0.04278206	-0.01650165	0	0	0	0
25.95409	0.04278206	-0.01650165	0	0	0	0
25.97303	0.04278206	-0.01650165	0	0	0	0
25.9896	0.04278206	-0.01650165	0	0	0	0
26.00617	0.04278206	-0.01650165	0	0	0	0
26.0237	0.04278206	-0.01650165	0	0	0	0
26.04027	0.04278206	-0.01650165	0	0	0	0
26.05692	0.04278206	-0.01650165	0	0	0	0
26.07342	0.04278206	-0.01650165	0	0	0	0
26.08997	0.04278206	-0.01650165	0	0	0	0
26.10653	0.04278206	-0.01650165	0	0	0	0
26.1245	0.04278206	-0.01650165	0	0	0	0
26.14163	0.04278206	-0.01650165	0	0	0	0
26.1582	0.04278206	-0.01650165	0	0	0	0
26.17538	0.04278206	-0.01650165	0	0	0	0
26.19134	0.04278206	-0.01650165	0	0	0	0
26.2079	0.04278206	-0.01650165	0	0	0	0
26.22447	0.04278206	-0.01650165	0	0	0	0
26.24104	0.04278206	-0.01650165	0	0	0	0
26.2576	0.04278206	-0.01650165	0	0	0	0
26.27417	0.04278206	-0.01650165	0	0	0	0
26.29074	0.04278206	-0.01650165	0	0	0	0
26.30836	0.04278206	-0.01650165	0	0	0	0
26.3252	0.04278206	-0.01650165	0	0	0	0
26.34173	0.04278206	-0.01650165	0	0	0	0
26.35806	0.04278206	-0.01650165	0	0	0	0
26.37463	0.04278206	-0.01650165	0	0	0	0
26.39228	0.04278206	-0.01650165	0	0	0	0
26.40885	0.04278206	-0.01650165	0	0	0	0
26.4255	0.04278206	-0.01650165	0	0	0	0
26.44198	0.04278206	-0.01650165	0	0	0	0
26.45964	0.04278206	-0.01650165	0	0	0	0
26.47621	0.04278206	-0.01650165	0	0	0	0
26.49278	0.04278206	-0.01650165	0	0	0	0
26.50935	0.04278206	-0.01650165	0	0	0	0
26.52608	0.04278206	-0.01650165	0	0	0	0
26.54248	0.04278206	-0.01650165	0	0	0	0
26.55905	0.04278206	-0.01650165	0	0	0	0
26.57561	0.04278206	-0.01650165	0	0	0	0
26.59222	0.04278206	-0.01650165	0	0	0	0
26.61053	0.04278206	-0.01650165	0	0	0	0
26.62709	0.04278206	-0.01650165	0	0	0	0
26.64377	0.04278206	-0.01650165	0	0	0	0
26.66103	0.04278206	-0.01650165	0	0	0	0
26.67679	0.04278206	-0.01650165	0	0	0	0
26.69336	0.04278206	-0.01650165	0	0	0	0
26.70993	0.04278206	-0.01650165	0	0	0	0
26.7265	0.04278206	-0.01650165	0	0	0	0
26.74306	0.04278206	-0.01650165	0	0	0	0
26.76098	0.04278206	-0.01650165	0	0	0	0
26.77755	0.04278206	-0.01650165	0	0	0	0
26.79439	0.04278206	-0.01650165	0	0	0	0
26.81068	0.04278206	-0.01650165	0	0	0	0
26.82725	0.04278206	-0.01650165	0	0	0	0
26.84382	0.04278206	-0.01650165	0	0	0	0
26.86039	0.04278206	-0.01650165	0	0	0	0
26.87695	0.04278206	-0.01650165	0	0	0	0
26.8938	0.04278206	-0.01650165	0	0	0	0
26.91162	0.04278206	-0.01650165	0	0	0	0
26.92819	0.04278206	-0.01650165	0	0	0	0
26.94476	0.04278206	-0.01650165	0	0	0	0
26.96133	0.04278206	-0.01650165	0	0	0	0
26.97789	0.04278206	-0.01650165	0	0	0	0
26.99446	0.04278206	-0.01650165	0	0	0	0
27.01132	0.04278206	-0.01650165	0	0	0	0
27.02759	0.04278206	-0.01650165	0	0	0	0
27.04416	0.04278206	-0.01650165	0	0	0	0
27.06197	0.04278206	-0.01650165	0	0	0	0
27.07854	0.04278206	-0.01650165	0	0	0	0
27.09519	0.04278206	-0.01650165	0	0	0	0
27.11167	0.04278206	-0.01650165	0	0	0	0
27.12824	0.04278206	-0.01650165	0	0	0	0
27.1448	0.04278206	-0.01650165	0	0	0	0
27.16137	0.04278206	-0.01650165	0	0	0	0
27.17794	0.04278206	-0.01650165	0	0	0	0
27.1945	0.04278206	-0.01650165	0	0	0	0
27.21253	0.04278206	-0.01650165	0	0	0	0
27.2291	0.04278206	-0.01650165	0	0	0	0
27.24566	0.04278206	-0.01650165	0	0	0	0
27.2651	0.04278206	-0.01650165	0	0	0	0
27.28167	0.04278206	-0.01650165	0	0	0	0
27.29824	0.04278206	-0.01650165	0	0	0	0
27.31485	0.04278206	-0.01650165	0	0	0	0
27.33137	0.04278206	-0.01650165	0	0	0	0
27.34803	0.04278206	-0.01650165	0	0	0	0
27.36627	0.04278206	-0.01650165	0	0	0	0
27.38284	0.04278206	-0.01650165	0	0	0	0
27.40017	0.04278206	-0.01772399	0	-0.0705172	0	-2.080079
27.41597	0.04278206	-0.01772399	0	0	0	2.128336
27.43254	0.04278206	-0.01772399	0	0	0	0
27.44944	0.04278206	-0.01772399	0	0	0	0
27.46567	0.04278206	-0.01772399	0	0	0	0
27.48224	0.04278206	-0.01772399	0	0	0	0
27.49881	0.04278206	-0.01772399	0	0	0	0
27.51783	0.04278206	-0.01772399	0	0	0	0
27.5344	0.04278206	-0.01772399	0	0	0	0
27.5514	0.04278206	-0.01772399	0	0	0	0
27.56753	0.04278206	-0.01772399	0	0	0	0
27.5841	0.04278206	-0.01772399	0	0	0	0
27.6014	0.04278206	-0.01772399	0	0	0	0
27.61806	0.04278206	-0.01772399	0	0	0	0
27.6338	0.04278206	-0.01772399	0	0	0	0
27.65061	0.04278206	-0.01772399	0	0	0	0
27.66894	0.04278206	-0.01772399	0	0	0	0
27.68551	0.04278206	-0.01772399	0	0	0	0
27.70208	0.04278206	-0.01772399	0	0	0	0
27.71864	0.04278206	-0.01772399	0	0	0	0
27.73521	0.04278206	-0.01772399	0	0	0	0
27.75178	0.04278206	-0.01772399	0	0	0	0
27.76834	0.04278206	-0.01772399	0	0	0	0
27.78491	0.04278206	-0.01772399	0	0	0	0
27.80166	0.05011613	-0.017724	0.4377962	-1.111878E-07	13.13935	-3.337022E-06
27.82066	0.0660066	-0.01161227	0.8364644	0.3217172	11.15173	8.999228
27.83723	0.1026769	0.00550055	2.213171	1.032813	38.70816	19.99351
27.85418	0.1173451	0.01772399	0.8655401	0.7212836	-40.20868	-9.294967
27.87036	0.1515707	0.04461557	2.114303	1.661239	37.68774	28.3679
27.88761	0.1943528	0.07761887	2.48066	1.913651	10.95763	7.549596
27.9035	0.2334678	0.1020658	2.462184	1.538865	-0.5576248	-11.31172
27.92006	0.2774722	0.1216233	2.65611	1.180494	5.975478	-11.04259
27.93714	0.3006968	0.1301797	1.359729	0.5009522	-38.52824	-20.19588
27.9532	0.3178096	0.1387361	1.065942	0.5329718	-8.866524	0.9663521
27.97235	0.330033	0.1448478	0.6382442	0.3191221	-12.14848	-6.074268
27.98892	0.3410341	0.1497372	0.6639537	0.2950898	0.7197345	-0.6727802
28.00548	0.3422565	0.1521819	0.07378742	0.1475784	-17.81125	-4.451902
28.02205	0.3471458	0.1558489	0.2951229	0.2213431	6.680302	2.226349
28.03864	0.3532575	0.1595159	0.3685218	0.2211122	2.214036	-0.006964771
28.05518	0.3581469	0.163183	0.2954649	0.2215982	-2.204989	0.01466884
28.07175	0.3642586	0.16685	0.3689036	0.2213422	2.217663	-0.007731054
28.08832	0.3777044	0.1778511	0.8115898	0.6640283	13.36029	13.3603
28.10489	0.3874832	0.1876299	0.5902476	0.5902467	-6.680121	-2.226735
28.12373	0.3960396	0.1949639	0.4539583	0.3891079	-3.848279	-5.679376
28.14212	0.4021513	0.1998533	0.3323976	0.2659176	-3.264667	-3.308432
28.15869	0.4021513	0.1998533	0	0	-9.509552	-7.607628
28.17992	0.4021513	0.1998533	0	0	0	0
28.19648	0.4021513	0.1998533	0	0	0	0
28.21305	0.4021513	0.1998533	0	0	0	0
28.22962	0.4021513	0.1998533	0	0	0	0
28.24619	0.4021513	0.1998533	0	0	0	0
28.26546	0.4021513	0.1998533	0	0	0	0
28.28538	0.4021513	0.1998533	0	0	0	0
28.30194	0.4021513	0.1998533	0	0	0	0
28.31862	0.4021513	0.1998533	0	0	0	0
28.33508	0.4021513	0.1998533	0	0	0	0
28.35164	0.4021513	0.1998533	0	0	0	0
28.36821	0.4021513	0.1998533	0	0	0	0
28.38478	0.3984843	0.1961863	-0.2213422	-0.2213422	-6.680505	-6.680505
28.40134	0.3923726	0.1912969	-0.3689054	-0.2951247	-4.453468	-2.226761
28.41791	0.3813715	0.1827405	-0.6641048	-0.5165254	-8.909646	-6.682272
28.43453	0.3715927	0.1729617	-0.5884861	-0.5884852	2.278897	-2.168628
28.4551	0.3593693	0.1619606	-0.5942136	-0.534793	-0.1540173	1.443821
28.47167	0.3349224	0.1411808	-1.475446	-1.25413	-23.72739	-19.36831
28.48823	0.326366	0.1350691	-0.5164669	-0.3689054	28.9404	26.71459
28.5048	0.2933627	0.1106222	-1.992083	-1.475617	-44.53419	-33.40061
28.52137	0.2689158	0.09717638	-1.475616	-0.8115898	15.587	20.04037
28.53794	0.2493583	0.08617529	-1.180493	-0.6640274	8.906829	4.453442
28.5545	0.2346901	0.07761887	-0.8854733	-0.5165254	8.904235	4.451874
28.57107	0.220022	0.06906246	-0.8853705	-0.516466	0.003103232	0.001795377
28.58764	0.2090209	0.06295075	-0.6640274	-0.3689041	6.680148	4.453426
28.60742	0.1992421	0.05806137	-0.4942534	-0.2471265	4.670259	3.349941
28.62399	0.1857964	0.04828261	-0.8115898	-0.5902469	-8.729506	-9.43879
28.64055	0.180907	0.04461557	-0.2951229	-0.2213426	15.587	11.13355
28.65712	0.1723506	0.03850385	-0.5165254	-0.3689468	-6.682327	-4.454958
28.67369	0.1601271	0.03116979	-0.7378082	-0.4426851	-6.67871	-2.225556
28.69025	0.1527931	0.02505806	-0.4426852	-0.3689044	8.906827	2.226707
28.70682	0.1442367	0.01894634	-0.516466	-0.3689043	-2.226707	3.597743E-06
28.72339	0.1369026	0.01405696	-0.4426861	-0.2951234	2.226679	2.226712
28.73996	0.1259015	0.006722895	-0.6640265	-0.4426851	-6.680065	-4.453421
28.75999	0.1149004	0.0006111722	-0.5491526	-0.3050846	3.138621	3.759566
28.77656	0.09778756	-0.009167584	-1.032932	-0.5902469	-13.21797	-7.791296
28.79312	0.08678646	-0.01527931	-0.6640279	-0.3689043	11.13355	6.680132
28.81003	0.0770077	-0.02139103	-0.5782633	-0.3614146	2.561834	0.2237218
28.82626	0.06967364	-0.0262804	-0.4521063	-0.3014041	3.807646	1.811223
28.84282	0.06356192	-0.0287251	-0.3689041	-0.1475619	2.537486	4.691853
28.85939	0.05745019	-0.03116979	-0.3688196	-0.1475277	0.002549607	0.001031534
28.87596	0.05133847	-0.03239213	-0.3689893	-0.07379761	-0.005120488	2.225179
28.89252	0.0440044	-0.03239213	-0.442685	-2.24859E-07	-2.224399	2.227466
28.91256	0.03667033	-0.03361447	-0.365997	-0.06099937	2.094969	-1.666378
28.92913	0.03055861	-0.03728151	-0.3689042	-0.2213428	-0.07941949	-4.380271
28.94578	0.03055861	-0.0397262	-1.118628E-07	-0.146818	11.10542	2.243484
28.96231	0.03789268	-0.05317198	0.4438093	-0.8136501	13.37725	-20.09958
28.97883	0.03789268	-0.05317198	0	0	-13.42898	24.61978
28.9954	0.03789268	-0.05317198	0	0	0	0
29.01196	0.03789268	-0.05317198	0	0	0	0
29.03155	0.03789268	-0.05317198	0	0	0	0
29.04812	0.03789268	-0.05317198	0	0	0	0
29.06905	0.03789268	-0.05317198	0	0	0	0
29.08606	0.03789268	-0.05317198	0	0	0	0
29.10218	0.03789268	-0.05317198	0	0	0	0
29.11875	0.03789268	-0.05317198	0	0	0	0
29.13545	0.03789268	-0.05317198	0	0	0	0
29.15194	0.03789268	-0.05317198	0	0	0	0
29.16845	0.03789268	-0.05317198	0	0	0	0
29.18507	0.03789268	-0.05317198	0	0	0	0
29.20158	0.03789268	-0.05317198	0	0	0	0
29.22105	0.03789268	-0.05317198	0	0	0	0
29.23762	0.02322454	-0.0507273	-0.8852686	0.1475447	-24.56914	4.094855
29.25418	0.0220022	-0.04706027	-0.07378072	0.2213424	24.48934	2.227091
29.27075	0.02077986	-0.04583792	-0.07377234	0.07377245	0.0002529518	-4.453413
29.28732	0.02322455	-0.04706026	0.1475787	-0.07378922	6.680387	-4.45342
29.30388	0.02444689	-0.04706027	0.07378083	-2.24859E-07	-2.227351	2.227084
29.32045	0.02444689	-0.04461557	-1.124295E-07	0.1475621	-2.226713	4.453441
29.33761	0.02444689	-0.04339323	1.085431E-07	0.07123034	6.551676E-06	-2.263182
29.35363	0.02322454	-0.04217088	-0.07632937	0.07632937	-2.300847	0.1537032
29.37467	0.02322454	-0.04217088	0	0	2.059628	-2.059628
29.39124	0.02322454	-0.04217088	0	0	0	0
29.408	0.02322454	-0.04217088	0	0	0	0
29.42445	0.02322454	-0.04217088	0	0	0	0
29.44094	0.02322454	-0.04217088	0	0	0	0
29.45751	0.02322454	-0.04217088	0	0	0	0
29.47408	0.02322454	-0.04217088	0	0	0	0
29.49064	0.0220022	-0.04217089	-0.07378072	-2.24859E-07	-2.226707	-6.786257E-06
29.50721	0.0220022	-0.04217089	0	0	2.226963	6.787038E-06
29.52678	0.008556412	-0.04217088	-0.6870155	1.903445E-07	-19.01262	5.267635E-06
29.54335	0.008556412	-0.04217088	0	0	19.0086	-5.266523E-06
29.55991	0.008556412	-0.04217088	0	0	0	0
29.57648	0.008556412	-0.04217088	0	0	0	0
29.59332	0.008556412	-0.04217088	0	0	0	0
29.60993	0.008556412	-0.04217088	0	0	0	0
29.62618	0.008556412	-0.04217088	0	0	0	0
29.64281	0.008556412	-0.04217088	0	0	0	0
29.65931	0.008556412	-0.04217088	0	0	0	0
29.67985	0.008556412	-0.04217088	0	0	0	0
29.69642	0.008556412	-0.04217088	0	0	0	0
29.71299	0.008556412	-0.04217088	0	0	0	0
29.72963	0.008556412	-0.04217088	0	0	0	0
29.74612	0.008556412	-0.04217088	0	0	0	0
29.76269	0.008556412	-0.04217088	0	0	0	0
29.77926	0.008556412	-0.04217088	0	0	0	0
29.79582	0.008556412	-0.04217088	0	0	0	0
29.81239	0.008556412	-0.04217088	0	0	0	0
29.83616	0.008556412	-0.04217088	0	0	0	0
29.85316	0.008556412	-0.04217088	0	0	0	0
29.8693	0.008556412	-0.04217088	0	0	0	0
29.88586	0.008556412	-0.04217088	0	0	0	0
29.90375	0.008556412	-0.04217088	0	0	0	0
29.92032	0.008556412	-0.04217088	0	0	0	0
29.93696	0.008556412	-0.04217088	0	0	0	0
29.95345	0.008556412	-0.04217088	0	0	0	0
29.97031	0.008556412	-0.04217088	0	0	0	0
29.98919	0.008556412	-0.04217088	0	0	0	0
30.00576	0.008556412	-0.04217088	0	0	0	0
30.02232	0.008556412	-0.04217088	0	0	0	0
30.03889	0.008556412	-0.04217088	0	0	0	0
30.05546	0.008556412	-0.04217088	0	0	0	0
30.07202	0.008556412	-0.04217088	0	0	0	0
30.08892	0.008556412	-0.04217088	0	0	0	0
30.10516	0.008556412	-0.04217088	0	0	0	0
30.12173	0.008556412	-0.04217088	0	0	0	0
30.14035	0.008556412	-0.04217088	0	0	0	0
30.15691	0.008556412	-0.04217088	0	0	0	0
30.17348	0.008556412	-0.04217088	0	0	0	0
30.2323	0.008556412	-0.04217088	0	0	0	0
30.24887	0.01344579	-0.03728151	0.2950894	0.2950894	3.914278	3.914277
30.26544	0.01466813	-0.03728151	0.07378089	0	-6.67872	-8.905302
30.282	0.01833517	-0.03361448	0.2213426	0.2213424	4.45342	6.680127
30.30281	0.0220022	-0.03239213	0.1762542	0.0587515	-1.206455	-4.350539
30.31938	0.02444689	-0.03116979	0.1475449	0.07377234	-0.7681528	0.4019009
30.33613	0.02444689	-0.02994744	0	0.07295769	-4.427681	-0.02444698
30.35251	0.02444689	-0.02994744	0	0	0	-2.201867
30.36909	0.02566923	-0.02994744	0.07374676	0	2.23779	0
30.38564	0.02566923	-0.02994744	0	0	-2.22581	0
30.40221	0.02566923	-0.02994744	0	0	0	0
30.41878	0.02566923	-0.02994744	0	0	0	0
30.43534	0.02566923	-0.02994744	0	0	0	0
30.45539	0.02566923	-0.02994744	0	0	0	0
30.47202	0.02566923	-0.02994744	0	0	0	0
30.48853	0.02566923	-0.02994744	0	0	0	0
30.50509	0.02566923	-0.02994744	0	0	0	0
30.52166	0.02566923	-0.02994744	0	0	0	0
30.53823	0.02566923	-0.02994744	0	0	0	0
30.5548	0.02566923	-0.02994744	0	0	0	0
30.57136	0.02566923	-0.02994744	0	0	0	0
30.58793	0.02566923	-0.02994744	0	0	0	0
30.60657	0.02566923	-0.02994744	0	0	0	0
30.62314	0.02566923	-0.02994744	0	0	0	0
30.63993	0.02566923	-0.02994744	0	0	0	0
30.65631	0.02566923	-0.02994744	0	0	0	0
30.67291	0.02566923	-0.02994744	0	0	0	0
30.68956	0.02566923	-0.02994744	0	0	0	0
30.70598	0.02566923	-0.02994744	0	0	0	0
30.72564	0.02566923	-0.02994744	0	0	0	0
30.74221	0.02566923	-0.02994744	0	0	0	0
30.76247	0.02566923	-0.02994744	0	0	0	0
30.77904	0.02566923	-0.02994744	0	0	0	0
30.79999	0.02566923	-0.02994744	0	0	0	0
30.81656	0.02566923	-0.02994744	0	0	0	0
30.83313	0.02566923	-0.02994744	0	0	0	0
30.85245	0.02566923	-0.02994744	0	0	0	0
30.86919	0.02566923	-0.02994744	0	0	0	0
30.88571	0.02566923	-0.02994744	0	0	0	0
30.90216	0.02566923	-0.02994744	0	0	0	0
30.92962	0.02566923	-0.02994744	0	0	0	0
30.94619	0.02566923	-0.02994744	0	0	0	0
30.96315	0.02566923	-0.02994744	0	0	0	0
30.97933	0.02566923	-0.02994744	0	0	0	0
30.99594	0.02566923	-0.02994744	0	0	0	0
31.01246	0.02566923	-0.02994744	0	0	0	0
31.02903	0.02566923	-0.02994744	0	0	0	0
31.04618	0.02566923	-0.02994744	0	0	0	0
31.06216	0.02566923	-0.02994744	0	0	0	0
31.0822	0.02566923	-0.02994744	0	0	0	0
31.09921	0.02566923	-0.02994744	0	0	0	0
31.11534	0.02566923	-0.02994744	0	0	0	0
31.13191	0.02566923	-0.02994744	0	0	0	0
31.14874	0.02566923	-0.02994744	0	0	0	0
31.16504	0.02566923	-0.02994744	0	0	0	0
31.18193	0.02566923	-0.02994744	0	0	0	0
31.19817	0.02566923	-0.02994744	0	0	0	0
31.21517	0.02566923	-0.02994744	0	0	0	0
31.23422	0.02566923	-0.02994744	0	0	0	0
31.25079	0.02566923	-0.02994744	0	0	0	0
31.26735	0.02566923	-0.02994744	0	0	0	0
31.28392	0.02566923	-0.02994744	0	0	0	0
31.30049	0.02566923	-0.02994744	0	0	0	0
31.31705	0.02566923	-0.02994744	0	0	0	0
31.3338	0.02566923	-0.02994744	0	0	0	0
31.35019	0.02566923	-0.02994744	0	0	0	0
31.36675	0.02566923	-0.02994744	0	0	0	0
31.38567	0.02566923	-0.02994744	0	0	0	0
31.40224	0.02566923	-0.02994744	0	0	0	0
31.4188	0.02566923	-0.02994744	0	0	0	0
31.43543	0.02566923	-0.02994744	0	0	0	0
31.45194	0.02566923	-0.02994744	0	0	0	0
31.4685	0.02566923	-0.02994744	0	0	0	0
31.48507	0.02566923	-0.02994744	0	0	0	0
31.50164	0.02566923	-0.02994744	0	0	0	0
31.51824	0.02566923	-0.02994744	0	0	0	0
31.53689	0.02566923	-0.02994744	0	0	0	0
31.55346	0.02566923	-0.02994744	0	0	0	0
31.57003	0.02566923	-0.02994744	0	0	0	0
31.58659	0.02566923	-0.02994744	0	0	0	0
31.60316	0.02566923	-0.02994744	0	0	0	0
31.61973	0.02566923	-0.02994744	0	0	0	0
31.6363	0.02566923	-0.02994744	0	0	0	0
31.65286	0.02566923	-0.02994744	0	0	0	0
31.66943	0.02566923	-0.02994744	0	0	0	0
31.68804	0.02566923	-0.02994744	0	0	0	0
31.70748	0.02566923	-0.02994744	0	0	0	0
31.72405	0.02566923	-0.02994744	0	0	0	0
31.74062	0.02566923	-0.02994744	0	0	0	0
31.75718	0.02566923	-0.02994744	0	0	0	0
31.77375	0.02566923	-0.02994744	0	0	0	0
31.79032	0.02566923	-0.02994744	0	0	0	0
31.80688	0.02566923	-0.02994744	0	0	0	0
31.82372	0.02566923	-0.02994744	0	0	0	0
31.84286	0.02566923	-0.02994744	0	0	0	0
31.85943	0.02566923	-0.02994744	0	0	0	0
31.87599	0.02566923	-0.02994744	0	0	0	0
31.89256	0.02566923	-0.02994744	0	0	0	0
31.90925	0.02566923	-0.02994744	0	0	0	0
31.92585	0.02566923	-0.02994744	0	0	0	0
31.94226	0.02566923	-0.02994744	0	0	0	0
31.95883	0.02566923	-0.02994744	0	0	0	0
31.97563	0.02566923	-0.02994744	0	0	0	0
31.99443	0.02566923	-0.02994744	0	0	0	0
32.011	0.02566923	-0.02994744	0	0	0	0
32.02756	0.02566923	-0.02994744	0	0	0	0
32.04413	0.02566923	-0.02994744	0	0	0	0
32.0607	0.02566923	-0.02994744	0	0	0	0
32.07726	0.02566923	-0.02994744	0	0	0	0
32.09383	0.02566923	-0.02994744	0	0	0	0
32.1104	0.02566923	-0.02994744	0	0	0	0
32.12728	0.02566923	-0.02994744	0	0	0	0
32.14615	0.02566923	-0.02994744	0	0	0	0
32.16272	0.02566923	-0.02994744	0	0	0	0
32.17928	0.02566923	-0.02994744	0	0	0	0
32.19585	0.02566923	-0.02994744	0	0	0	0
32.21242	0.02566923	-0.02994744	0	0	0	0
32.22898	0.02566923	-0.02994744	0	0	0	0
32.24602	0.02566923	-0.02994744	0	0	0	0
32.26212	0.02566923	-0.02994744	0	0	0	0
32.27868	0.02566923	-0.02994744	0	0	0	0
32.29743	0.02566923	-0.02994744	0	0	0	0
32.314	0.02566923	-0.02994744	0	0	0	0
32.33057	0.02566923	-0.02994744	0	0	0	0
32.34713	0.02566923	-0.02994744	0	0	0	0
32.3637	0.02566923	-0.02994744	0	0	0	0
32.38026	0.02566923	-0.02994744	0	0	0	0
32.39683	0.02566923	-0.02994744	0	0	0	0
32.4134	0.02566923	-0.02994744	0	0	0	0
32.42997	0.02566923	-0.02994744	0	0	0	0
32.44963	0.02566923	-0.02994744	0	0	0	0
32.46619	0.02566923	-0.02994744	0	0	0	0
32.4831	0.02566923	-0.02994744	0	0	0	0
32.49941	0.02566923	-0.02994744	0	0	0	0
32.51646	0.02566923	-0.02994744	0	0	0	0
32.53263	0.02566923	-0.02994744	0	0	0	0
32.54903	0.02566923	-0.02994744	0	0	0	0
32.5656	0.02566923	-0.02994744	0	0	0	0
32.58216	0.02566923	-0.02994744	0	0	0	0
32.60119	0.02566923	-0.03239213	0	-0.1284804	0	-3.609514
32.62053	0.02566924	-0.03605916	9.634594E-08	-0.1896784	2.511586E-06	-1.595334
32.63709	0.02689158	-0.03850385	0.07378083	-0.1475619	2.055167	1.173158
32.65366	0.02811392	-0.04094854	0.07378083	-0.1475617	0	6.745769E-06
32.67023	0.02811392	-0.04461557	0	-0.2213426	-2.22671	-2.226714
32.68679	0.03055861	-0.04706026	0.1475617	-0.1475617	4.45342	2.226714
32.70366	0.03055861	-0.04950495	1.104209E-07	-0.1449257	-4.413278	0.07883762
32.71994	0.0330033	-0.05439433	0.1501898	-0.3003798	4.531169	-4.689995
32.73649	0.03422565	-0.05806137	0.07384896	-0.2215467	-2.325388	2.401305
32.7566	0.03667034	-0.06295075	0.1215594	-0.2431187	1.301323	-0.588385
32.77317	0.03789268	-0.06539543	0.07378072	-0.1475614	-1.302642	2.605279
32.79003	0.03789268	-0.06661777	-2.209417E-07	-0.0724954	-2.207147	2.245591
32.80659	0.03911502	-0.06906246	0.07381494	-0.1476299	2.208675	-2.248152
32.82287	0.03911502	-0.06906246	0	0	-2.247665	4.495329
32.83944	0.04033737	-0.07028481	0.07378095	-0.07378118	2.246108	-2.246115
32.85615	0.04033737	-0.07028481	0	0	-2.217268	2.217275
32.87257	0.04033737	-0.07028481	0	0	0	0
32.88914	0.04033737	-0.07028481	0	0	0	0
32.90923	0.04033737	-0.07028481	0	0	0	0
32.9258	0.04033737	-0.07028481	0	0	0	0
32.94237	0.04033737	-0.07028481	0	0	0	0
32.95893	0.04033737	-0.07028481	0	0	0	0
32.97553	0.04033737	-0.07028481	0	0	0	0
32.99207	0.04033737	-0.07028481	0	0	0	0
33.00863	0.04033737	-0.07028481	0	0	0	0
33.02548	0.04033737	-0.07028481	0	0	0	0
33.04177	0.04033737	-0.07028481	0	0	0	0
33.06116	0.04033737	-0.07028481	0	0	0	0
33.07773	0.04033737	-0.07028481	0	0	0	0
33.0943	0.04033737	-0.07028481	0	0	0	0
33.11087	0.04033737	-0.07028481	0	0	0	0
33.12743	0.04033737	-0.07028481	0	0	0	0
33.14437	0.04033737	-0.07028481	0	0	0	0
33.16057	0.04033737	-0.07028481	0	0	0	0
33.17714	0.04033737	-0.07028481	0	0	0	0
33.1937	0.03789268	-0.07028481	-0.1475619	4.497179E-07	-4.453427	1.357251E-05
33.21393	0.03055861	-0.07028481	-0.3626144	0	-5.844969	-1.2223E-05
33.2305	0	-0.07028481	-1.844097	0	-40.26143	0
33.24706	-0.03544799	-0.07639652	-2.140138	-0.368989	-8.934532	-11.13611
33.26363	-0.08067474	-0.08617529	-2.729892	-0.5902472	-17.80087	-6.678352
33.2802	-0.1369026	-0.1008434	-3.39392	-0.8853705	-20.0404	-8.90684
33.29676	-0.1833517	-0.1142892	-2.803672	-0.8115893	17.81371	2.226721
33.31333	-0.220022	-0.124068	-2.213427	-0.5902472	17.81363	6.680119
33.3299	-0.2408019	-0.131402	-1.254273	-0.4426848	28.94732	4.453441
33.34647	-0.2505806	-0.1350691	-0.5902485	-0.2213431	20.0403	6.680107
33.36643	-0.2530253	-0.1362914	-0.1224635	-0.0612325	12.80566	4.383043
33.383	-0.2530253	-0.1362914	0	0	3.352451	1.676246
33.40036	-0.2530253	-0.1362914	0	0	0	0
33.41613	-0.2530253	-0.1362914	0	0	0	0
33.4327	-0.2530253	-0.1362914	0	0	0	0
33.45664	-0.2530253	-0.1362914	0	0	0	0
33.47995	-0.2530253	-0.1375138	0	-0.0524349	0	-1.109671
33.49652	-0.2530253	-0.1375138	0	0	0	1.314855
33.52663	-0.2530253	-0.1375138	0	0	0	0
33.54728	-0.2530253	-0.1375138	0	0	0	0
33.56467	-0.2530253	-0.1375138	0	0	0	0
33.58041	-0.2530253	-0.1375138	0	0	0	0
33.59735	-0.2530253	-0.1375138	0	0	0	0
33.61354	-0.2530253	-0.1375138	0	0	0	0
33.63021	-0.2542477	-0.1375138	-0.07334344	0	-2.231752	0
33.64668	-0.25547	-0.1387361	-0.07422327	-0.07422508	-0.02655337	-2.240118
33.66809	-0.25547	-0.1387361	0	0	1.959237	1.959285
33.68466	-0.25547	-0.1387361	0	0	0	0
33.70123	-0.25547	-0.1387361	0	0	0	0
33.71798	-0.25547	-0.1387361	0	0	0	0
33.73436	-0.25547	-0.1387361	0	0	0	0
33.75096	-0.25547	-0.1387361	0	0	0	0
33.7675	-0.25547	-0.1387361	0	0	0	0
33.78407	-0.25547	-0.1387361	0	0	0	0
33.80063	-0.25547	-0.1387361	0	0	0	0
33.82131	-0.25547	-0.1387361	0	0	0	0
33.83788	-0.25547	-0.1387361	0	0	0	0
33.85474	-0.25547	-0.1387361	0	0	0	0
33.87101	-0.25547	-0.1387361	0	0	0	0
33.88784	-0.25547	-0.1387361	0	0	0	0
33.90414	-0.25547	-0.1387361	0	0	0	0
33.92071	-0.25547	-0.1387361	0	0	0	0
33.93728	-0.25547	-0.1387361	0	0	0	0
33.95385	-0.25547	-0.1387361	0	0	0	0
33.97394	-0.2542477	-0.1387361	0.06083575	0	1.659493	0
33.99051	-0.2542477	-0.1387361	0	0	-1.659493	0
34.00707	-0.2530253	-0.1387361	0.07378072	0	2.226707	0
34.02364	-0.2505806	-0.1387361	0.1475632	0	2.226761	0
34.04021	-0.2481359	-0.1387361	0.1475606	0	-8.139895E-05	0
34.05677	-0.2456912	-0.1387361	0.1475624	0	5.441587E-05	0
34.07342	-0.2420242	-0.1399584	0.2203284	-0.07344251	2.19104	-2.211407
34.08994	-0.2395795	-0.1399584	0.1479694	0	-2.181791	2.21446
34.10648	-0.2371348	-0.1399585	0.1478347	-9.010957E-07	-0.004075284	-2.725789E-05
34.12747	-0.2346901	-0.1399585	0.1164352	0	-0.8365872	2.400822E-05
34.14404	-0.2322454	-0.1399584	0.1475624	1.798872E-06	0.828658	4.788905E-05
34.16061	-0.2310231	-0.1399585	0.07377983	-1.798872E-06	-2.226761	-0.0001085801
34.17717	-0.2298008	-0.1399584	0.07378072	8.994359E-07	2.698308E-05	8.143509E-05
34.19374	-0.2285784	-0.1399584	0.07379772	0	0.0005129623	-2.714815E-05
34.2103	-0.2273561	-0.1387361	0.07378162	0.07378072	-0.0004857513	2.226963
34.22712	-0.2224667	-0.1375138	0.290837	0.07270925	6.502831	-0.03210045
34.24344	-0.2187997	-0.1362914	0.2246536	0.07488424	-1.997418	0.06564128
34.26014	-0.2139103	-0.1350691	0.2927644	0.07319088	2.062473	-0.05127692
34.28231	-0.2102433	-0.1338467	0.1653688	0.05512362	-3.277008	-0.4647458
34.29889	-0.2053539	-0.1326244	0.295055	0.07376284	3.347095	0.4810633
34.36646	-0.2029092	-0.131402	0.03617835	0.01808907	-3.076569	-0.6616442
34.38303	-0.1699059	-0.0971764	1.992083	2.065864	23.24562	24.33749
34.3997	-0.1589048	-0.0837306	0.6596237	0.8062064	-40.07989	-37.89005
34.41616	-0.1479037	-0.07150715	0.6686462	0.742941	0.2723302	-1.909573
34.44128	-0.1356802	-0.05928371	0.4865327	0.4865323	-4.380214	-6.167172
34.45932	-0.1173451	-0.04217089	1.016163	0.9484193	12.2693	10.69998
34.47589	-0.09778757	-0.02750275	1.180493	0.8853704	4.747958	-1.821658
34.49246	-0.09289818	-0.02261337	0.2951238	0.2951233	-26.7205	-17.81369
34.50952	-0.08434177	-0.01650165	0.5014558	0.3581827	6.135288	1.875073
34.52559	-0.0794524	-0.01405696	0.3043022	0.1521513	-5.950793	-6.218758
34.54216	-0.07578535	-0.01161227	0.2213431	0.1475617	-2.542049	-0.1406332
34.55872	-0.07456301	-0.01038993	0.07378072	0.07378083	-4.453441	-2.226712
34.57547	-0.07211833	-0.009167584	0.1459816	0.07299093	2.167301	-0.02371102
34.59612	-0.07089598	-0.009167585	0.05919632	-4.510265E-08	-2.320744	-1.951866
34.61269	-0.06233957	-0.004278206	0.5164662	0.2951235	12.28685	7.929978
34.62932	-0.05989488	-0.004278205	0.1469865	2.799778E-08	-11.12914	-8.889445
34.64582	-0.05378316	-0.0006111723	0.370354	0.2222124	6.741243	6.706382
34.66239	-0.04644909	0.001833517	0.4426852	0.1475617	2.187242	-2.257379
34.67896	-0.04155971	0.004278206	0.2951231	0.1475617	-4.453434	0
34.69552	-0.03789268	0.006722894	0.2213428	0.1475617	-2.226693	-8.994359E-07
34.71211	-0.03422565	0.00794524	0.221037	0.0736791	-0.00922319	-2.228242
34.72866	-0.0330033	0.009167584	0.07388302	0.07388291	-4.441117	0.006150792
34.74997	-0.03055861	0.009167584	0.1146852	0	1.077687	-1.951432
34.76678	-0.02933627	0.01038993	0.07274238	0.07274238	-1.100276	1.908234
34.78311	-0.02811392	0.01161227	0.07484937	0.07484943	0.06358922	0.06359102
34.79974	-0.02811392	0.01161227	0	0	-2.270723	-2.270725
34.81624	-0.02566924	0.01283462	0.1481414	0.07407083	4.470918	2.235462
34.83281	-0.02444689	0.01405696	0.07378095	0.07378083	-2.248605	-0.008769349
34.84943	-0.02444689	0.01527931	0	0.07352694	-2.222875	-0.007649309
34.86594	-0.02322455	0.01650165	0.07403655	0.07403649	2.234427	0.01537833
34.88251	-0.02322455	0.01650165	0	0	-2.238293	-2.238291
34.90354	-0.02322455	0.01650165	0	0	0	0
34.9201	-0.02322455	0.01650165	0	0	0	0
34.93671	-0.02322455	0.01650165	0	0	0	0
34.95332	-0.0220022	0.01650165	0.07359444	1.121454E-07	2.215982	3.376781E-06
34.9698	-0.02077986	0.017724	0.07413933	0.07413933	0.01646379	2.240105
34.98637	-0.01955751	0.01894634	0.07378083	0.07378083	-0.01084554	-0.01084554
35.00294	-0.01833517	0.01894634	0.07378095	-1.124295E-07	3.372885E-06	-2.226713
35.01957	-0.01711282	0.02016868	0.07347631	0.07347642	-0.00917502	2.21294
35.03611	-0.01589048	0.02016868	0.07391699	0	0.01328466	-2.214973
35.05687	-0.01589048	0.02016868	0	0	-1.982088	0
35.07344	-0.01589048	0.02016868	0	0	0	0
35.09043	-0.01466813	0.02139103	0.07194217	0.07194211	2.143579	2.143577
35.10657	-0.01466813	0.02139103	0	0	-2.171469	-2.171467
35.12313	-0.01344579	0.02261337	0.07378089	0.07378083	2.255799	2.255797
35.1397	-0.0110011	0.02383572	0.1475617	0.07378095	2.226708	3.372885E-06
35.15627	-0.008556412	0.02505806	0.1475617	0.07378072	1.798872E-06	-6.745769E-06
35.17327	-0.006111722	0.02750275	0.1437874	0.1437875	-0.112433	2.085438
35.1894	0	0.03116979	0.3789383	0.2273631	7.097686	2.522606
35.21026	0.0110011	0.03605916	0.5273125	0.234361	4.011075	0.1891782
35.22683	0.02811392	0.04461557	1.032932	0.5164662	13.50848	7.536913
35.2438	0.03055861	0.04583792	0.1440782	0.07203905	-26.50526	-13.25264
35.25997	0.03055861	0.04583792	0	0	-4.347288	-2.173642
35.27653	0.03055861	0.04583792	0	0	0	0
35.2931	0.03055861	0.04583792	0	0	0	0
35.30967	0.03055861	0.04583792	0	0	0	0
35.32655	0.03055861	0.04583792	0	0	0	0
35.34729	0.03055861	0.04583792	0	0	0	0
35.36808	0.03055861	0.04583792	0	0	0	0
35.38465	0.03055861	0.04583792	0	0	0	0
35.40122	0.03055861	0.04583792	0	0	0	0
35.41779	0.03055861	0.04706026	1.124295E-07	0.07378095	3.393129E-06	2.226713
35.43435	0.03055861	0.04828261	1.124295E-07	0.07378095	0	0
35.45092	0.03055861	0.05194964	-1.124295E-07	0.2213424	-6.786257E-06	4.453413
35.46749	0.02933627	0.05683902	-0.07378083	0.2951236	-2.226707	2.22672
35.48405	0.02933627	0.05806137	1.124295E-07	0.07378095	2.226713	-6.680134
35.50062	0.02811393	0.06050606	-0.07378083	0.1475619	-2.226713	2.226713
35.52613	0.02811392	0.0617284	-1.460608E-07	0.04792532	1.753664	-2.368223
35.54269	0.02811392	0.0617284	0	0	3.471662E-06	-1.139118
35.55926	0.02811392	0.0617284	0	0	0	0
35.57583	0.02811392	0.0617284	0	0	0	0
35.5924	0.02811392	0.0617284	0	0	0	0
35.60896	0.02811392	0.0617284	0	0	0	0
35.62553	0.02811392	0.0617284	0	0	0	0
35.6421	0.02811392	0.0617284	0	0	0	0
35.65866	0.02811392	0.0617284	0	0	0	0
35.67973	0.02811392	0.0617284	0	0	0	0
35.6963	0.02811392	0.0617284	0	0	0	0
35.71286	0.02811392	0.0617284	0	0	0	0
35.72943	0.02811392	0.0617284	0	0	0	0
35.74621	0.02811392	0.0617284	0	0	0	0
35.76283	0.02811392	0.0617284	0	0	0	0
35.77913	0.02811392	0.0617284	0	0	0	0
35.79594	0.02811392	0.0617284	0	0	0	0
35.81227	0.02811392	0.0617284	0	0	0	0
35.83284	0.02811392	0.0617284	0	0	0	0
35.84941	0.02811392	0.0617284	0	0	0	0
35.86598	0.02811392	0.0617284	0	0	0	0
35.88255	0.02811392	0.0617284	0	0	0	0
35.89911	0.02811392	0.0617284	0	0	0	0
35.91568	0.02811392	0.0617284	0	0	0	0
35.93225	0.02811392	0.0617284	0	0	0	0
35.94881	0.02811392	0.0617284	0	0	0	0
35.96973	0.02811392	0.0617284	0	0	0	0
35.99102	0.02811392	0.0617284	0	0	0	0
36.00759	0.02811392	0.0617284	0	0	0	0
36.02436	0.02811392	0.0617284	0	0	0	0
36.04072	0.02811392	0.0617284	0	0	0	0
36.05785	0.02811392	0.0617284	0	0	0	0
36.07386	0.02811392	0.0617284	0	0	0	0
36.09042	0.02811392	0.0617284	0	0	0	0
36.11205	0.02811392	0.0617284	0	0	0	0
36.12862	0.02811392	0.0617284	0	0	0	0
36.14942	0.02811392	0.0617284	0	0	0	0
36.17018	0.02811392	0.0617284	0	0	0	0
36.18717	0.02811392	0.0617284	0	0	0	0
36.20331	0.02811392	0.0617284	0	0	0	0
36.22438	0.02811392	0.0617284	0	0	0	0
36.24095	0.02811392	0.0617284	0	0	0	0
36.25751	0.02811392	0.0617284	0	0	0	0
36.27408	0.02811392	0.0617284	0	0	0	0
36.29065	0.02811392	0.0617284	0	0	0	0
36.31025	0.02811392	0.0617284	0	0	0	0
36.32683	0.02811392	0.0617284	0	0	0	0
36.34338	0.02811392	0.0617284	0	0	0	0
36.35995	0.02811392	0.0617284	0	0	0	0
36.37652	0.02811392	0.0617284	0	0	0	0
36.39346	0.02811392	0.0617284	0	0	0	0
36.40965	0.02811393	0.06050606	2.299959E-07	-0.07546601	6.941289E-06	-2.277569
36.42622	0.02811392	0.05683902	-1.124295E-07	-0.2213428	-1.045113E-05	-4.452292
36.44279	0.02933627	0.0482826	0.07378083	-0.5164662	2.226713	-8.90684
36.46355	0.0330033	0.03850385	0.1766106	-0.4709611	2.754569	1.218974
36.48012	0.04155971	0.02016868	0.516466	-1.106713	9.103929	-17.0303
36.49669	0.04889378	0.009167584	0.442685	-0.6640278	-2.226713	13.36027
36.51325	0.05745019	-0.001833517	0.516466	-0.6640278	2.226713	0
36.52982	0.06478426	-0.00794524	0.4426852	-0.3689043	-2.226707	8.906843
36.54639	0.07211833	-0.01405696	0.4426852	-0.3689042	0	2.698308E-06
36.56295	0.07578536	-0.01650165	0.2213426	-0.1475617	-6.680134	6.68013
36.57952	0.0770077	-0.017724	0.07378072	-0.07378095	-4.453427	2.226708
36.59612	0.07823005	-0.017724	0.07364507	0	-0.00409024	2.224664
36.61794	0.0794524	-0.01894634	0.05601952	-0.05601926	-0.4587859	-1.458158
36.63465	0.0794524	-0.01894634	0	0	-1.453978	1.453972
36.65107	0.0794524	-0.01894634	0	0	0	0
36.66764	0.0794524	-0.01894634	0	0	0	0
36.68421	0.0794524	-0.01894634	0	0	0	0
36.70078	0.0794524	-0.01894634	0	0	0	0
36.71734	0.0794524	-0.01894634	0	0	0	0
36.73391	0.0794524	-0.01894634	0	0	0	0
36.75048	0.0794524	-0.01894634	0	0	0	0
36.77709	0.0794524	-0.01894634	0	0	0	0
36.79366	0.0794524	-0.01894634	0	0	0	0
36.81023	0.0794524	-0.01894634	0	0	0	0
36.82679	0.0794524	-0.01894634	0	0	0	0
36.84336	0.0794524	-0.01894634	0	0	0	0
36.85993	0.0794524	-0.01894634	0	0	0	0
36.8765	0.0794524	-0.01894634	0	0	0	0
36.89306	0.0794524	-0.01894634	0	0	0	0
36.90963	0.0794524	-0.01894634	0	0	0	0
36.92894	0.0794524	-0.01894634	0	0	0	0
36.94551	0.0794524	-0.01894634	0	0	0	0
36.96208	0.0794524	-0.01894634	0	0	0	0
36.97865	0.0794524	-0.01894634	0	0	0	0
36.99521	0.0794524	-0.01894634	0	0	0	0
37.08269	0.0794524	-0.01894634	0	0	0	0
37.11016	0.0794524	-0.01894634	0	0	0	0
37.12673	0.0794524	-0.01894634	0	0	0	0
37.14399	0.0794524	-0.01894634	0	0	0	0
37.15987	0.0794524	-0.01894634	0	0	0	0
37.17643	0.0794524	-0.01894634	0	0	0	0
37.19724	0.0794524	-0.01894634	0	0	0	0
37.21418	0.0794524	-0.02016868	0	-0.07216896	0	-1.911941
37.23057	0.0794524	-0.02016868	0	0	0	2.165597
37.24694	0.0794524	-0.02016868	0	0	0	0
37.26776	0.07945239	-0.02139103	-3.579119E-07	-0.05871911	-9.623021E-06	-1.578755
37.28433	0.07945239	-0.02139103	0	0	9.573923E-06	1.5707
37.3009	0.07945239	-0.02139103	0	0	0	0
37.31746	0.07945239	-0.02139103	0	0	0	0
37.33403	0.07945239	-0.02139103	0	0	0	0
37.3506	0.07945239	-0.02139103	0	0	0	0
37.36716	0.07945239	-0.02139103	0	0	0	0
37.38373	0.07945239	-0.02139103	0	0	0	0
37.4003	0.07945239	-0.02139103	0	0	0	0
37.42105	0.07945239	-0.02139103	0	0	0	0
37.43761	0.07945239	-0.02139103	0	0	0	0
37.45418	0.07945239	-0.02139103	0	0	0	0
37.47075	0.07945239	-0.02139103	0	0	0	0
37.48737	0.07945239	-0.02139103	0	0	0	0
37.50388	0.07945239	-0.02139103	0	0	0	0
37.52045	0.07945239	-0.02139103	0	0	0	0
37.53701	0.07945239	-0.02139103	0	0	0	0
37.55358	0.07945239	-0.02139103	0	0	0	0
37.57485	0.07945239	-0.02139103	0	0	0	0
37.59142	0.07945239	-0.02139103	0	0	0	0
37.60799	0.07945239	-0.02139103	0	0	0	0
37.62455	0.07945239	-0.02139103	0	0	0	0
37.64112	0.07945239	-0.02139103	0	0	0	0
37.65769	0.07945239	-0.02139103	0	0	0	0
37.67472	0.07945239	-0.02139103	0	0	0	0
37.69082	0.07945239	-0.02139103	0	0	0	0
37.70739	0.07945239	-0.02139103	0	0	0	0
37.72748	0.07945239	-0.02139103	0	0	0	0
37.74405	0.07945239	-0.02139103	0	0	0	0
37.76061	0.07945239	-0.02139103	0	0	0	0
37.77718	0.07945239	-0.02139103	0	0	0	0
37.79375	0.07945239	-0.02139103	0	0	0	0
37.81031	0.07945239	-0.02139103	0	0	0	0
37.82688	0.07945239	-0.02139103	0	0	0	0
37.84345	0.07945239	-0.02139103	0	0	0	0
37.86038	0.07945239	-0.02139103	0	0	0	0
37.88571	0.07945239	-0.02139103	0	0	0	0
37.90241	0.07945239	-0.02139103	0	0	0	0
37.91885	0.07945239	-0.02139103	0	0	0	0
37.93541	0.07945239	-0.02139103	0	0	0	0
37.95198	0.07945239	-0.02139103	0	0	0	0
37.96855	0.07945239	-0.02139103	0	0	0	0
37.98512	0.07945239	-0.02139103	0	0	0	0
38.00168	0.07945239	-0.02139103	0	0	0	0
38.01825	0.07945239	-0.02139103	0	0	0	0
38.03743	0.07945239	-0.02139103	0	0	0	0
38.05415	0.07945239	-0.02139103	0	0	0	0
38.07821	0.07945239	-0.02139103	0	0	0	0
38.09478	0.07945239	-0.02139103	0	0	0	0
38.11135	0.07945239	-0.02139103	0	0	0	0
38.12791	0.07945239	-0.02139103	0	0	0	0
38.14448	0.07945239	-0.02139103	0	0	0	0
38.16105	0.07945239	-0.02139103	0	0	0	0
38.17778	0.07945239	-0.02139103	0	0	0	0
38.19809	0.07945239	-0.02139103	0	0	0	0
38.21466	0.07945239	-0.02139103	0	0	0	0
38.23123	0.07945239	-0.02139103	0	0	0	0
38.2478	0.07945239	-0.02139103	0	0	0	0
38.26446	0.07945239	-0.02139103	0	0	0	0
38.28093	0.07945239	-0.02139103	0	0	0	0
38.2975	0.07945239	-0.02139103	0	0	0	0
38.31448	0.07945239	-0.02139103	0	0	0	0
38.33063	0.07945239	-0.02139103	0	0	0	0
38.35047	0.07945239	-0.02139103	0	0	0	0
38.36704	0.07945239	-0.02139103	0	0	0	0
38.38371	0.07823005	-0.02139103	-0.0733081	-1.117093E-07	-2.205334	-3.36056E-06
38.40017	0.0770077	-0.02139103	-0.07425949	2.263181E-07	-0.02871314	1.020169E-05
38.41674	0.07578536	-0.02139103	-0.07378072	-1.124295E-07	0.01449594	-1.025648E-05
38.43331	0.07456302	-0.02139103	-0.07378072	0	0	3.393129E-06
38.44989	0.07334067	-0.02139103	-0.07369633	0	0.002545512	0
38.46644	0.07211833	-0.02139103	-0.0738828	0	-0.005628193	0
38.48301	0.07211833	-0.02139103	0	0	2.231328	0
38.50431	0.07211833	-0.02139103	0	0	0	0
38.52087	0.07089598	-0.02139103	-0.07378072	0	-1.94834	0
38.53755	0.07089598	-0.02139103	0	0	2.219297	0
38.55401	0.07089598	-0.02139103	0	0	0	0
38.57058	0.06967364	-0.02016868	-0.07378118	0.07378083	-2.23418	2.234169
38.58714	0.06967364	-0.02016868	0	0	2.22672	-2.22671
38.60371	0.06722895	-0.02016868	-0.1475614	0	-4.453413	0
38.62028	0.06356192	-0.017724	-0.2213426	0.1475617	-2.22672	4.45342
38.63691	0.05745019	-0.01527931	-0.3675504	0.1470201	-4.404447	-0.01631315
38.65796	0.05133847	-0.01283462	-0.2902448	0.1160979	2.051342	-0.8205357
38.67453	0.04767144	-0.01161227	-0.2213424	0.07378083	1.831325	-1.124726
38.6911	0.04644909	-0.01038993	-0.07376397	0.07376385	4.453413	-0.0005123946
38.70787	0.04522675	-0.01038993	-0.07287484	5.552436E-08	0.02666515	-2.212188
38.72452	0.04278206	-0.007945239	-0.1468852	0.1468853	-2.21477	4.395558
38.7408	0.03667033	-0.003055861	-0.3754749	0.3003799	-6.943616	4.662535
38.75736	0.02444689	0.01405696	-0.7378086	1.032932	-11.03178	22.30362
38.77393	0.006111722	0.04217089	-1.106713	1.69696	-11.13356	20.0404
38.7905	-0.01222344	0.08250825	-1.106713	2.434768	0	22.2671
38.81194	-0.02811392	0.1191786	-0.7410769	1.710178	9.61956	-19.06334
38.82851	-0.04644909	0.163183	-1.106713	2.656111	-9.619563	24.88667
38.84507	-0.05622785	0.1888522	-0.5902472	1.549399	15.58697	-33.40064
38.86164	-0.06111722	0.2071874	-0.2951231	1.106713	8.90686	-13.36029
38.87821	-0.06478426	0.2206332	-0.2213426	0.8115889	2.2267	-8.906855
38.89478	-0.06722894	0.2304119	-0.1475614	0.5902467	2.22672	-6.680121
38.91134	-0.06845129	0.237746	-0.07378118	0.4426852	2.226693	-4.453413
38.92791	-0.06845129	0.2438577	4.497179E-07	0.3689036	2.226734	-2.226733
38.94448	-0.06967364	0.2524141	-0.07378118	0.5164669	-2.226734	4.453467
38.96737	-0.06967364	0.2646376	0	0.5340508	1.869989	0.4456652
38.98953	-0.07089598	0.2805281	-0.05514225	0.7168463	-1.223877	4.057129
39.00613	-0.07089598	0.2866398	4.487879E-07	0.3681407	1.422348	-8.994496
39.02267	-0.07089598	0.2890845	-4.506518E-07	0.1478697	-2.714514E-05	-6.647793
39.03924	-0.07089598	0.2903068	4.496144E-07	0.07376194	2.719514E-05	-2.238638
39.0558	-0.06967364	0.2903068	0.07379772	0	2.227206	-2.22614
39.08548	-0.06967364	0.2903068	0	0	-1.595779	0
39.10518	-0.06967364	0.2903068	0	0	0	0
39.13186	-0.06967364	0.2903068	0	0	0	0
39.15451	-0.06967364	0.2903068	0	0	0	0
39.17108	-0.06967364	0.2903068	0	0	0	0
39.18765	-0.06967364	0.2903068	0	0	0	0
39.20422	-0.06967364	0.2903068	0	0	0	0
39.22078	-0.06967364	0.2903068	0	0	0	0
39.23735	-0.06967364	0.2903068	0	0	0	0
39.25392	-0.06967364	0.2903068	0	0	0	0
39.27048	-0.06967364	0.2903068	0	0	0	0
39.2924	-0.06967364	0.2903068	0	0	0	0
39.30897	-0.06967364	0.2903068	0	0	0	0
39.32553	-0.06967364	0.2903068	0	0	0	0
39.34241	-0.06967364	0.2903068	0	0	0	0
39.35867	-0.06845129	0.2829728	0.07520058	-0.4512035	2.269819	-13.61892
39.37523	-0.0660066	0.2756387	0.1475619	-0.4426861	2.204682	0.2595041
39.3918	-0.06478425	0.2707493	0.07378118	-0.2951229	-2.226707	4.453468
39.40909	-0.06233957	0.2658599	0.1414076	-0.2828152	1.997506	0.3635352
39.4252	-0.05867254	0.2597482	0.227632	-0.3793882	2.581749	-2.891607
39.44748	-0.05500551	0.2524141	0.1645763	-0.3291522	-1.642457	1.308531
39.46405	-0.04889378	0.241413	0.3689045	-0.6640274	5.259567	-8.619945
39.48075	-0.04522675	0.2316343	0.219523	-0.5853952	-4.489737	2.363331
39.49744	-0.03911502	0.2206332	0.366206	-0.6591705	4.392516	-2.209249
39.51408	-0.03544799	0.2132991	0.2203785	-0.440757	-4.375393	6.553255
39.53057	-0.03422565	0.2096321	0.07410492	-0.2223148	-4.414546	6.592599
39.54688	-0.03178095	0.2047427	0.1499091	-0.2998182	2.31092	-2.362722
39.56357	-0.02933627	0.1998533	0.1465157	-0.2930313	-0.1028492	0.2057048
39.58002	-0.02689158	0.1912969	0.1486225	-0.5201799	0.06358292	-6.855358
39.60272	-0.01955751	0.1754064	0.3230145	-0.6998639	4.453995	-4.589156
39.61929	-0.01344579	0.1570713	0.3689042	-1.106714	1.168502	-10.35971
39.63586	-0.009778756	0.1509596	0.2213426	-0.3689036	-4.453418	22.26715
39.65242	-0.002444689	0.1326244	0.4426851	-1.106714	6.68013	-22.26715
39.66899	0.001222344	0.1204009	0.2213426	-0.7378082	-6.680132	11.13359
39.68556	0.004889378	0.1106222	0.2213426	-0.5902472	0	4.4534
39.70213	0.007334067	0.1008434	0.1475617	-0.5902467	-2.22671	1.439097E-05
39.71885	0.0110011	0.09106467	0.2193226	-0.58486	2.155819	0.1618242
39.73526	0.01222344	0.08250825	0.07446669	-0.5212674	-4.37176	1.919229
39.75772	0.01344579	0.07517418	0.05441161	-0.32647	-0.5158281	5.010298
39.7743	0.01589048	0.06784012	0.1475278	-0.4425829	2.385404	-2.974523
39.79086	0.01711282	0.0617284	0.07379794	-0.3689893	-2.22517	2.221061
39.80743	0.01833517	0.05683902	0.07378083	-0.2951236	-0.0005163357	2.229527
39.82399	0.01955751	0.05194964	0.07378095	-0.2951233	3.372885E-06	7.195487E-06
39.84056	0.01955751	0.04706026	-1.124295E-07	-0.2951236	-2.226717	-7.195487E-06
39.8573	0.02077986	0.04461557	0.07304084	-0.1460817	2.19327	4.475422
39.87369	0.02077986	0.04217089	0	-0.1491066	-2.204631	-0.09130371
39.89344	0.02077986	0.04094854	9.433563E-08	-0.061907	2.610251E-06	2.412799
39.91453	0.0220022	0.03850385	0.05795445	-0.1159089	1.419186	-1.322398
39.9313	0.0220022	0.03605916	0	-0.1457826	-1.530722	-0.7890389
39.94766	0.0220022	0.03605916	0	0	0	4.399728
39.96423	0.0220022	0.03483682	0	-0.07378095	0	-2.240384
39.9808	0.0220022	0.03239213	-1.124295E-07	-0.1475617	-3.393129E-06	-2.226707
39.99736	0.0220022	0.03116978	0	-0.07378095	3.393129E-06	2.226707
40.01401	0.0220022	0.0287251	1.119141E-07	-0.1468851	3.369815E-06	-2.201221
40.03051	0.02322455	0.02628041	0.07408801	-0.1481759	2.235463	-0.0389465
40.04707	0.02322455	0.02383572	-1.124813E-07	-0.1476297	-2.241144	0.01652381
40.06873	0.02322455	0.02261337	0	-0.05643363	2.943038E-06	2.386116
40.08532	0.02322454	0.02139103	-1.122744E-07	-0.07367916	-2.93528E-06	-0.4508637
40.10186	0.02322455	0.01894634	1.12585E-07	-0.1477658	6.78627E-06	-2.23594
40.11885	0.02322455	0.01894634	0	0	-3.356857E-06	4.405815
40.13589	0.02322455	0.01772399	0	-0.07176498	0	-2.109054
40.15156	0.02322455	0.01772399	0	0	0	2.19442
40.16813	0.02322455	0.01650165	0	-0.07378083	0	-2.288629
40.18469	0.02322455	0.01405696	0	-0.1475617	0	-2.226712
40.20164	0.02444689	0.01283462	0.07212012	-0.07212023	2.151816	2.250915
40.22504	0.02444689	0.01161227	1.592048E-07	-0.05223833	-1.787446	0.4927597
40.24161	0.02566923	0.009167584	0.07378072	-0.1475618	1.846056	-2.385079
40.25817	0.02566923	0.007945239	-1.124295E-07	-0.07378089	-2.22671	2.226712
40.27515	0.02566923	0.007945239	0	0	3.352219E-06	2.199866
40.29131	0.02566923	0.006722894	1.152694E-07	-0.07564452	3.479238E-06	-2.283219
40.30787	0.02566923	0.006722894	0	0	-3.522227E-06	2.31143
40.32444	0.02566923	0.006722894	0	0	0	0
40.34101	0.02566923	0.006722894	0	0	0	0
40.35757	0.02566923	0.006722894	0	0	0	0
40.37997	0.02566923	0.006722894	0	0	0	0
40.39654	0.02566924	0.00550055	1.124295E-07	-0.07378083	2.885521E-06	-1.893597
40.41339	0.02566924	0.00550055	0	0	-3.364465E-06	2.2079
40.42983	0.02566923	0.004278206	-1.132903E-07	-0.07434577	-3.403045E-06	-2.233219
40.44624	0.02566923	0.004278206	0	0	3.448087E-06	2.262777
40.46287	0.02566923	0.004278206	0	0	0	0
40.47938	0.02566923	0.004278206	0	0	0	0
40.49604	0.02566923	0.004278206	0	0	0	0
40.51261	0.02566923	0.004278206	0	0	0	0
40.53466	0.02566923	0.004278206	0	0	0	0
40.55123	0.02566923	0.004278206	0	0	0	0
40.5678	0.02566923	0.004278206	0	0	0	0
40.58437	0.02566923	0.004278206	0	0	0	0
40.60093	0.02566923	0.004278206	0	0	0	0
40.6175	0.02566923	0.004278206	0	0	0	0
40.63489	0.02566923	0.004278206	0	0	0	0
40.65063	0.02566923	0.004278206	0	0	0	0
40.6672	0.02566923	0.004278206	0	0	0	0
40.68774	0.02566923	0.004278206	0	0	0	0
40.70431	0.02566923	0.004278206	0	0	0	0
40.72087	0.02566923	0.004278206	0	0	0	0
40.73744	0.02566923	0.004278206	0	0	0	0
40.75426	0.02566923	0.004278206	0	0	0	0
40.77509	0.02566923	0.004278206	0	0	0	0
40.79176	0.02566923	0.004278206	0	0	0	0
40.80822	0.02566923	0.004278206	0	0	0	0
40.82529	0.02566923	0.004278206	0	0	0	0
40.84685	0.02566923	0.004278206	0	0	0	0
40.86342	0.02566923	0.004278206	0	0	0	0
40.87998	0.02566923	0.004278206	0	0	0	0
40.89655	0.02566923	0.004278206	0	0	0	0
40.91312	0.02566923	0.004278206	0	0	0	0
40.93023	0.02566923	0.004278206	0	0	0	0
40.94625	0.02566923	0.004278206	0	0	0	0
40.963	0.02566923	0.004278206	0	0	0	0
40.97938	0.02566923	0.004278206	0	0	0	0
41	0.02566923	0.004278206	0	0	0	0
41.01657	0.02566923	0.004278206	0	0	0	0
41.0332	0.02566923	0.004278206	0	0	0	0
41.05018	0.02566923	0.004278206	0	0	0	0
41.06627	0.02566923	0.004278206	0	0	0	0
41.08519	0.02566923	0.004278206	0	0	0	0
41.10334	0.02566923	0.004278206	0	0	0	0
41.11991	0.02566923	0.004278206	0	0	0	0
41.13648	0.02566923	0.004278206	0	0	0	0
41.15763	0.02566923	0.004278206	0	0	0	0
41.1745	0.02566923	0.004278206	0	0	0	0
41.19077	0.02566923	0.004278206	0	0	0	0
41.20733	0.02566923	0.004278206	0	0	0	0
41.2239	0.02566923	0.004278206	0	0	0	0
41.24047	0.02566923	0.004278206	0	0	0	0
41.25704	0.02566923	0.004278206	0	0	0	0
41.2736	0.02566923	0.004278206	0	0	0	0
41.29017	0.02566923	0.004278206	0	0	0	0
