Time	Pos X	Pos Y	Vel X	Vel Y	Acc X	Acc Y
0.01705582	-0.1653706	-0.5230817	0.002168815	0.006860153	-2.845105E-05	-8.999318E-05
0.04289377	-0.1653706	-0.5230817	0	0	2.845339E-05	9.000058E-05
0.05946325	-0.1653706	-0.5230817	0	0	0	0
0.07603075	-0.1653706	-0.5230817	0	0	0	0
0.09259629	-0.1653706	-0.5230817	0	0	0	0
0.1091638	-0.1653706	-0.5230817	0	0	0	0
0.1257301	-0.1653706	-0.5230817	0	0	0	0
0.1427125	-0.1653706	-0.5230817	0	0	0	0
0.1588635	-0.1653706	-0.5230817	0	0	0	0
0.1754283	-0.1653706	-0.5230817	0	0	0	0
0.1919966	-0.1653706	-0.5230817	0	0	0	0
0.2085637	-0.1653706	-0.5230817	0	0	0	0
0.2268677	-0.1653706	-0.5230817	0	0	0	0
0.2438383	-0.1653706	-0.5230817	0	0	0	0
0.2600039	-0.1653706	-0.5230817	0	0	0	0
0.2765694	-0.1653706	-0.5230817	0	0	0	0
0.293519	-0.1653706	-0.5230817	0	0	0	0
0.3097052	-0.1653706	-0.5230817	0	0	0	0
0.3262704	-0.1653706	-0.5230817	0	0	0	0
0.3428406	-0.1653706	-0.5230817	0	0	0	0
0.3594046	-0.1653706	-0.5230817	0	0	0	0
0.3759701	-0.1653706	-0.5230817	0	0	0	0
0.3927693	-0.1653706	-0.5230817	0	0	0	0
0.4091043	-0.1653706	-0.5230817	0	0	0	0
0.4256714	-0.1653706	-0.5230817	0	0	0	0
0.4422397	-0.1653706	-0.5230817	0	0	0	0
0.4588068	-0.1653706	-0.5230817	0	0	0	0
0.4755954	-0.165345	-0.5231064	0.001524858	-0.001473379	0.0457151	-0.04417175
0.4921984	-0.165345	-0.5231064	0	0	-0.04566593	0.04412424
0.5087403	-0.165345	-0.5231064	0	0	0	0
0.5252427	-0.165345	-0.5231064	0	0	0	0
0.5416393	-0.165345	-0.5231064	0	0	0	0
0.5582068	-0.165345	-0.5231064	0	0	0	0
0.5747712	-0.165345	-0.5231064	0	0	0	0
0.5913647	-0.165345	-0.5231064	0	0	0	0
0.6079042	-0.165345	-0.5231064	0	0	0	0
0.6244709	-0.165345	-0.5231064	0	0	0	0
0.6410384	-0.165345	-0.5231064	0	0	0	0
0.6577544	-0.165345	-0.5231064	0	0	0	0
0.6747087	-0.165345	-0.5231064	0	0	0	0
0.6907382	-0.165345	-0.5231064	0	0	0	0
0.7073053	-0.165345	-0.5231064	0	0	0	0
0.724247	-0.165345	-0.5231064	0	0	0	0
0.7456353	-0.165345	-0.5231064	0	0	0	0
0.7622742	-0.165345	-0.5231064	0	0	0	0
0.7787924	-0.165345	-0.5231064	0	0	0	0
0.7953382	-0.165345	-0.5231064	0	0	0	0
0.8119751	-0.165345	-0.5231064	0	0	0	0
0.828472	-0.1649865	-0.5227597	0.02172915	0.02101737	0.6558002	0.6343182
0.8450383	-0.1649865	-0.5227597	0	0	-0.6572011	-0.6356732
0.8616516	-0.1649865	-0.5227597	0	0	0	0
0.8781993	-0.1641158	-0.5219179	0.05261864	0.05087078	1.586761	1.534052
0.8948197	-0.1641158	-0.5219179	0	0	-1.586421	-1.533724
0.9113497	-0.1641158	-0.5219179	0	0	0	0
0.9281051	-0.1615534	-0.5194947	0.1529309	0.1446201	4.594536	4.344852
0.9444389	-0.1615534	-0.5194947	0	0	-4.621774	-4.370609
0.9610068	-0.1615534	-0.5194947	0	0	0	0
0.9775723	-0.1602714	-0.5183095	0.07739014	0.071545	2.335715	2.159302
0.9941394	-0.1602714	-0.5183095	0	0	-2.335769	-2.159353
1.011024	-0.1602714	-0.5183095	0	0	0	0
1.027272	-0.1603227	-0.5184576	-0.00315657	-0.009112052	-0.09527062	-0.2750171
1.043838	-0.1603227	-0.5184576	0	0	0.09619436	0.2776837
1.060405	-0.1603227	-0.5184576	0	0	0	0
1.077315	-0.1535964	-0.5248913	0.3977742	-0.3804715	11.88208	-11.36522
1.093538	-0.1535964	-0.5248913	0	0	-12.00537	11.48315
1.110106	-0.1535964	-0.5248913	0	0	0	0
1.126672	-0.119818	-0.5577622	2.038983	-1.984209	61.53797	-59.88483
1.143239	-0.119818	-0.5577622	0	0	-61.5393	59.88612
1.160338	-0.119818	-0.5577622	0	0	0	0
1.176402	-0.1012057	-0.5760823	1.158626	-1.140435	34.93686	-34.38834
1.192938	-0.1012057	-0.5760823	0	0	-35.54063	34.98263
1.209999	-0.1012057	-0.5760823	0	0	0	0
1.227525	-0.0960196	-0.5812387	0.2959089	-0.2942123	8.55543	-8.506376
1.244095	-0.0960196	-0.5812387	0	0	-8.678668	8.628907
1.260698	-0.0960196	-0.5812387	0	0	0	0
1.277228	-0.0960196	-0.5812387	0	0	0	0
1.293795	-0.0960196	-0.5812387	0	0	0	0
1.310363	-0.0960196	-0.5812387	0	0	0	0
1.326928	-0.09607175	-0.5811348	-0.003147893	0.006271499	-0.0950077	0.1892824
1.343496	-0.09607175	-0.5811348	0	0	0.0950077	-0.1892824
1.360062	-0.09607175	-0.5811348	0	0	0	0
1.376628	-0.0961239	-0.5810829	-0.003147825	0.003133883	-0.09500907	0.09458825
1.393195	-0.0961239	-0.5810829	0	0	0.09500462	-0.09458382
1.410052	-0.0961239	-0.5810829	0	0	0	0
1.426328	-0.09630641	-0.5809011	-0.01121332	0.01116572	-0.3384334	0.3369966
1.442898	-0.09630641	-0.5809011	0	0	0.3413948	-0.3399454
1.459464	-0.09630641	-0.5809011	0	0	0	0
1.479544	-0.09651498	-0.5805897	-0.01038779	0.01551322	-0.2834629	0.4233263
1.496362	-0.09651498	-0.5805897	0	0	0.2815315	-0.4204418
1.512683	-0.09656712	-0.5804859	-0.00319464	0.006358238	-0.09640125	0.1918658
1.529246	-0.09656712	-0.5804859	0	0	0.09714877	-0.1933535
1.545811	-0.09656712	-0.5804859	0	0	0	0
1.562379	-0.09664534	-0.580408	-0.004721071	0.004702183	-0.1424884	0.1419183
1.579446	-0.09664534	-0.580408	0	0	0.1403648	-0.1398032
1.595627	-0.09664534	-0.580408	0	0	0	0
1.612078	-0.0933333	-0.5765996	0.2013273	0.2314983	6.169631	7.094213
1.629407	-0.0933333	-0.5765996	0	0	-5.959898	-6.853049
1.645511	-0.0933333	-0.5765996	0	0	0	0
1.661779	-0.07444113	-0.5579405	1.161342	1.147015	35.87528	35.43272
1.678347	-0.07444113	-0.5579405	0	0	-35.36773	-34.93143
1.694915	-0.07444113	-0.5579405	0	0	0	0
1.711478	-0.07048829	-0.5541006	0.2386578	0.2318392	7.20351	6.9977
1.728454	-0.07048829	-0.5541006	0	0	-7.115842	-6.912537
1.744615	-0.07048829	-0.5541006	0	0	0	0
1.761181	-0.07048829	-0.5541006	0	0	0	0
1.777748	-0.07048829	-0.5541006	0	0	0	0
1.794414	-0.07048829	-0.5541006	0	0	0	0
1.810917	-0.07048829	-0.5541006	0	0	0	0
1.827447	-0.07048829	-0.5541006	0	0	0	0
1.84408	-0.07048829	-0.5541006	0	0	0	0
1.860581	-0.07059303	-0.5539991	-0.006347575	0.006151612	-0.1915757	0.1856614
1.878044	-0.07059303	-0.5539991	0	0	0.1868891	-0.1811194
1.893714	-0.07059303	-0.5539991	0	0	0	0
1.91028	-0.07075013	-0.5538467	-0.009483503	0.00919656	-0.2941954	0.2852939
1.926927	-0.07075013	-0.5538467	0	0	0.2855347	-0.2768952
1.94345	-0.07075013	-0.5538467	0	0	0	0
1.959979	-0.07116907	-0.5532884	-0.02534537	0.03377759	-0.7668393	1.021961
1.976546	-0.07116907	-0.5532884	0	0	0.765798	-1.020574
1.993113	-0.07116907	-0.5532884	0	0	0	0
2.010593	-0.07444113	-0.5490078	-0.1871901	0.2448886	-5.498048	7.192736
2.026816	-0.07444113	-0.5490078	0	0	5.554094	-7.266057
2.042813	-0.07444113	-0.5490078	0	0	0	0
2.059592	-0.07391771	-0.5478452	0.03119494	0.06928755	0.9517652	2.11398
2.076179	-0.07391771	-0.5478452	0	0	-0.9349329	-2.076594
2.092513	-0.07391771	-0.5478452	0	0	0	0
2.109134	-0.08965375	-0.5326794	-0.9467639	0.9124554	-28.72884	27.68778
2.126132	-0.08965375	-0.5326794	0	0	28.16123	-27.14074
2.142214	-0.08965375	-0.5326794	0	0	0	0
2.158777	-0.1045386	-0.5184576	-0.8986303	0.8586018	-27.52736	26.30118
2.175347	-0.1045386	-0.5184576	0	0	27.12169	-25.91359
2.191912	-0.1045386	-0.5184576	0	0	0	0
2.208928	-0.1072188	-0.5158192	-0.1575145	0.1550546	-4.690516	4.617264
2.225047	-0.1072188	-0.5158192	0	0	4.75373	-4.679491
2.241882	-0.1072188	-0.5158192	0	0	0	0
2.258359	-0.1072188	-0.5158192	0	0	0	0
2.274746	-0.1072188	-0.5158192	0	0	0	0
2.291894	-0.1072188	-0.5158192	0	0	0	0
2.308416	-0.1072448	-0.5157946	-0.001574293	0.001489963	-0.04675627	0.04425171
2.327786	-0.1072448	-0.5157946	0	0	0.04386192	-0.0415124
2.344412	-0.1072448	-0.5157946	0	0	0	0
2.360921	-0.1074529	-0.5155482	-0.01260542	0.01492144	-0.3804296	0.4503267
2.377489	-0.1074529	-0.5155482	0	0	0.381085	-0.4511025
2.394184	-0.1074529	-0.5155482	0	0	0	0
2.410998	-0.1087534	-0.5138254	-0.07734599	0.1024645	-2.308231	3.05784
2.427491	-0.1087534	-0.5138254	0	0	2.322209	-3.076358
2.443757	-0.1087534	-0.5138254	0	0	0	0
2.460321	-0.1080772	-0.5126454	0.04082372	0.07124248	1.243497	2.170058
2.47689	-0.1080772	-0.5126454	0	0	-1.232133	-2.150226
2.494	-0.1080772	-0.5126454	0	0	0	0
2.510022	-0.0933333	-0.4987612	0.9202725	0.8666087	27.77608	26.15637
2.526986	-0.0933333	-0.4987612	0	0	-27.89894	-26.27208
2.543156	-0.0933333	-0.4987612	0	0	0	0
2.560205	-0.08761721	-0.493398	0.335287	0.3145855	10.09342	9.470222
2.576289	-0.08761721	-0.493398	0	0	-10.11942	-9.494618
2.592856	-0.08761721	-0.493398	0	0	0	0
2.610256	-0.08761721	-0.493398	0	0	0	0
2.626276	-0.08761721	-0.493398	0	0	0	0
2.642555	-0.08761721	-0.493398	0	0	0	0
2.659136	-0.08764333	-0.4934223	-0.00157497	-0.001461284	-0.04792963	-0.04446994
2.67569	-0.08764333	-0.4934223	0	0	0.04753302	0.04410196
2.692257	-0.08764333	-0.4934223	0	0	0	0
2.708822	-0.08764333	-0.4934223	0	0	0	0
2.725391	-0.08764333	-0.4934223	0	0	0	0
2.741956	-0.08764333	-0.4934223	0	0	0	0
2.758593	-0.08764333	-0.4934223	0	0	0	0
2.77509	-0.08764333	-0.4934223	0	0	0	0
2.792148	-0.08764333	-0.4934223	0	0	0	0
2.808222	-0.08764333	-0.4934223	0	0	0	0
2.824862	-0.08764333	-0.4934223	0	0	0	0
2.841358	-0.08764333	-0.4934223	0	0	0	0
2.857923	-0.08764333	-0.4934223	0	0	0	0
2.874488	-0.08764333	-0.4934223	0	0	0	0
2.891413	-0.08764333	-0.4934223	0	0	0	0
2.907619	-0.08764333	-0.4934707	0	-0.002988319	0	-0.09019673
2.92419	-0.08764333	-0.4934707	0	0	0	0.09117234
2.940758	-0.08764333	-0.4934707	0	0	0	0
2.957353	-0.08764333	-0.4934707	0	0	0	0
2.97389	-0.08764333	-0.4934707	0	0	0	0
2.990456	-0.08764333	-0.4934707	0	0	0	0
3.007047	-0.08764333	-0.4934707	0	0	0	0
3.02359	-0.08764333	-0.4934707	0	0	0	0
3.040157	-0.08764333	-0.4934707	0	0	0	0
3.056723	-0.08761721	-0.4934949	0.00157642	-0.00146263	0.04757851	-0.04414417
3.073291	-0.08761721	-0.4934949	0	0	-0.04757782	0.04414354
3.089857	-0.08761721	-0.4934949	0	0	0	0
3.113017	-0.08764333	-0.4935192	-0.001127526	-0.001046138	-0.02838204	-0.02633335
3.129588	-0.08764333	-0.4935192	0	0	0.02837898	0.02633051
3.146156	-0.08764333	-0.4935192	0	0	0	0
3.162725	-0.08764333	-0.4935192	0	0	0	0
3.17976	-0.08764333	-0.4935192	0	0	0	0
3.195858	-0.08764333	-0.4935192	0	0	0	0
3.212424	-0.08764333	-0.4935192	0	0	0	0
3.228995	-0.08764333	-0.4935192	0	0	0	0
3.245556	-0.08766944	-0.4935434	-0.001576829	-0.00146121	-0.04759255	-0.04410288
3.262124	-0.08766944	-0.4935434	0	0	0.04759597	0.04410606
3.278694	-0.08766944	-0.4935434	0	0	0	0
3.295256	-0.08766944	-0.4935434	0	0	0	0
3.312183	-0.08766944	-0.4935434	0	0	0	0
3.328389	-0.08766944	-0.4935434	0	0	0	0
3.345396	-0.08764333	-0.4935676	0.001535557	-0.001424716	0.04623407	-0.04289677
3.362027	-0.08764333	-0.4935676	0	0	-0.04565011	0.04235496
3.378088	-0.08764333	-0.4935676	0	0	0	0
3.394654	-0.08764333	-0.4935676	0	0	0	0
3.411305	-0.08764333	-0.4935676	0	0	0	0
3.427787	-0.08764333	-0.4935676	0	0	0	0
3.444973	-0.08764333	-0.493616	0	-0.002819627	0	-0.08374788
3.460921	-0.08764333	-0.493616	0	0	0	0.08509774
3.477847	-0.08764333	-0.493616	0	0	0	0
3.494053	-0.08764333	-0.493616	0	0	0	0
3.511465	-0.08764333	-0.493616	0	0	0	0
3.527188	-0.08764333	-0.493616	0	0	0	0
3.544022	-0.08766944	-0.4936402	-0.00155128	-0.001437535	-0.04764847	-0.0441547
3.560322	-0.08766944	-0.4936402	0	0	0.04681841	0.04338551
3.577188	-0.08766944	-0.4936402	0	0	0	0
3.593453	-0.08766944	-0.4936402	0	0	0	0
3.610022	-0.08766944	-0.4936402	0	0	0	0
3.626992	-0.08766944	-0.4936402	0	0	0	0
3.643156	-0.08766944	-0.4936402	0	0	0	0
3.659721	-0.08766944	-0.4936402	0	0	0	0
3.676865	-0.08766944	-0.4936402	0	0	0	0
3.692853	-0.08766944	-0.4936402	0	0	0	0
3.709704	-0.08766944	-0.4936402	0	0	0	0
3.725988	-0.08766944	-0.4936402	0	0	0	0
3.742555	-0.08769555	-0.4936645	-0.001576307	-0.001462525	-0.0479839	-0.0445203
3.759122	-0.08769555	-0.4936645	0	0	0.04757406	0.04414004
3.775689	-0.08769555	-0.4936645	0	0	0	0
3.792256	-0.08769555	-0.4936645	0	0	0	0
3.808927	-0.08769555	-0.4936645	0	0	0	0
3.825388	-0.08769555	-0.4936645	0	0	0	0
3.841955	-0.08769555	-0.4937129	0	-0.002925008	0	-0.08856175
3.858748	-0.08769555	-0.4937129	0	0	0	0.08768007
3.875356	-0.08769555	-0.4937129	0	0	0	0
3.891809	-0.08769555	-0.4937129	0	0	0	0
3.908219	-0.08769555	-0.4937129	0	0	0	0
3.924823	-0.08769555	-0.4937129	0	0	0	0
3.941425	-0.08769555	-0.4937129	0	0	0	0
3.958455	-0.08769555	-0.4937129	0	0	0	0
3.974488	-0.08769555	-0.4937129	0	0	0	0
3.991054	-0.08772167	-0.4937372	-0.001576352	-0.001462567	-0.04835659	-0.04486609
4.007621	-0.08772167	-0.4937372	0	0	0.04757543	0.04414131
4.024187	-0.08772167	-0.4937372	0	0	0	0
4.040754	-0.08769555	-0.4937614	0.001576261	-0.001462483	0.0475744	-0.04414036
4.057473	-0.08769555	-0.4937614	0	0	-0.04735495	0.04393675
4.073888	-0.08769555	-0.4937614	0	0	0	0
4.090684	-0.08769555	-0.4937614	0	0	0	0
4.107021	-0.08769555	-0.4937614	0	0	0	0
4.124165	-0.08769555	-0.4937614	0	0	0	0
4.140154	-0.08772167	-0.4937856	-0.001633186	-0.001515298	-0.04929178	-0.04573377
4.156722	-0.08772167	-0.4937856	0	0	0.05016315	0.04654224
4.173289	-0.08772167	-0.4937856	0	0	0	0
4.189856	-0.08772167	-0.4937856	0	0	0	0
4.206422	-0.08772167	-0.4937856	0	0	0	0
4.22299	-0.08772167	-0.4937856	0	0	0	0
4.239555	-0.08772167	-0.4937856	0	0	0	0
4.256123	-0.08772167	-0.4937856	0	0	0	0
4.272689	-0.08772167	-0.4937856	0	0	0	0
4.289252	-0.08772167	-0.4937856	0	0	0	0
4.305821	-0.08772167	-0.4937856	0	0	0	0
4.322389	-0.08772167	-0.4937856	0	0	0	0
4.338954	-0.08772167	-0.4937856	0	0	0	0
4.355522	-0.08772167	-0.4937856	0	0	0	0
4.372384	-0.08772167	-0.4937856	0	0	0	0
4.388652	-0.08772167	-0.4937856	0	0	0	0
4.405308	-0.08772167	-0.4937856	0	0	0	0
4.421789	-0.08772167	-0.4937856	0	0	0	0
4.438356	-0.08772167	-0.4937856	0	0	0	0
4.455245	-0.08772167	-0.4937856	0	0	0	0
4.471826	-0.08772167	-0.4937856	0	0	0	0
4.488076	-0.08772167	-0.4937856	0	0	0	0
4.504622	-0.08772167	-0.4937856	0	0	0	0
4.521653	-0.08772167	-0.4937856	0	0	0	0
4.538486	-0.08772167	-0.4937856	0	0	0	0
4.554322	-0.08772167	-0.4937856	0	0	0	0
4.570889	-0.08772167	-0.4937856	0	0	0	0
4.587455	-0.08774778	-0.4938098	-0.001575948	-0.00146081	-0.04756425	-0.04408924
4.604249	-0.08774778	-0.4938098	0	0	0.04724198	0.04379051
4.620934	-0.08774778	-0.4938098	0	0	0	0
4.637156	-0.08774778	-0.4938098	0	0	0	0
4.653722	-0.08774778	-0.4938098	0	0	0	0
4.670829	-0.08774778	-0.4938098	0	0	0	0
4.69007	-0.08774778	-0.4938098	0	0	0	0
4.70664	-0.08774778	-0.4938098	0	0	0	0
4.723207	-0.08774778	-0.4938098	0	0	0	0
4.739774	-0.08774778	-0.4938098	0	0	0	0
4.756341	-0.08774778	-0.4938098	0	0	0	0
4.772908	-0.08774778	-0.4938098	0	0	0	0
4.789473	-0.08774778	-0.4938098	0	0	0	0
4.806041	-0.08774778	-0.4938098	0	0	0	0
4.822608	-0.08774778	-0.4938098	0	0	0	0
4.839171	-0.08772167	-0.493834	0.001576175	-0.00146282	0.04757452	-0.04415306
4.855741	-0.08772167	-0.493834	0	0	-0.04757178	0.04415052
4.873008	-0.08772167	-0.493834	0	0	0	0
4.888873	-0.08772167	-0.493834	0	0	0	0
4.905635	-0.08772167	-0.493834	0	0	0	0
4.922587	-0.08772167	-0.493834	0	0	0	0
4.938575	-0.08772167	-0.493834	0	0	0	0
4.955141	-0.08772167	-0.493834	0	0	0	0
4.97188	-0.08772167	-0.493834	0	0	0	0
4.988272	-0.08774778	-0.4938583	-0.001592635	-0.001478096	-0.04807065	-0.04461351
5.005009	-0.08774778	-0.4938583	0	0	0.04807411	0.04461673
5.021407	-0.08774778	-0.4938583	0	0	0	0
5.037972	-0.08774778	-0.4938583	0	0	0	0
5.054852	-0.08774778	-0.4938583	0	0	0	0
5.071107	-0.08774778	-0.4938583	0	0	0	0
5.087672	-0.08774778	-0.4938583	0	0	0	0
5.104466	-0.08774778	-0.4938583	0	0	0	0
5.120807	-0.08774778	-0.4938583	0	0	0	0
5.137372	-0.08774778	-0.4938583	0	0	0	0
5.154263	-0.08774778	-0.4938583	0	0	0	0
5.170507	-0.08774778	-0.4938583	0	0	0	0
5.187337	-0.08774778	-0.4938583	0	0	0	0
5.203655	-0.08774778	-0.4938583	0	0	0	0
5.22025	-0.08774778	-0.4938583	0	0	0	0
5.236773	-0.08774778	-0.4938583	0	0	0	0
5.253341	-0.08774778	-0.4938583	0	0	0	0
5.27026	-0.08774778	-0.4938583	0	0	0	0
5.286782	-0.08774778	-0.4938583	0	0	0	0
5.30304	-0.08774778	-0.4938583	0	0	0	0
5.319607	-0.08774778	-0.4938583	0	0	0	0
5.336174	-0.08774778	-0.4938583	0	0	0	0
5.352835	-0.08774778	-0.4938583	0	0	0	0
5.369308	-0.08774778	-0.4938583	0	0	0	0
5.386359	-0.08774778	-0.4938583	0	0	0	0
5.402441	-0.08774778	-0.4938583	0	0	0	0
5.419007	-0.08774778	-0.4938583	0	0	0	0
5.435574	-0.08774778	-0.4938583	0	0	0	0
5.45214	-0.08774778	-0.4938583	0	0	0	0
5.468907	-0.08774778	-0.4938583	0	0	0	0
5.487226	-0.08774778	-0.4938583	0	0	0	0
5.503935	-0.08774778	-0.4938583	0	0	0	0
5.520363	-0.08774778	-0.4938583	0	0	0	0
5.53693	-0.08774778	-0.4938583	0	0	0	0
5.553497	-0.08774778	-0.4938583	0	0	0	0
5.570063	-0.08774778	-0.4938583	0	0	0	0
5.58731	-0.08774778	-0.4938583	0	0	0	0
5.603197	-0.08774778	-0.4938583	0	0	0	0
5.619818	-0.08774778	-0.4938583	0	0	0	0
5.63633	-0.08777389	-0.493834	-0.001581542	0.001467382	-0.0477324	0.04428695
5.652896	-0.08777389	-0.493834	0	0	0.04781222	-0.044361
5.669463	-0.08777389	-0.493834	0	0	0	0
5.68603	-0.08777389	-0.493834	0	0	0	0
5.702597	-0.08777389	-0.493834	0	0	0	0
5.719424	-0.08777389	-0.493834	0	0	0	0
5.73573	-0.08777389	-0.493834	0	0	0	0
5.752297	-0.08777389	-0.493834	0	0	0	0
5.768938	-0.08777389	-0.493834	0	0	0	0
5.785459	-0.08777389	-0.493834	0	0	0	0
5.801997	-0.08777389	-0.493834	0	0	0	0
5.818563	-0.08777389	-0.493834	0	0	0	0
5.835131	-0.08777389	-0.493834	0	0	0	0
5.851996	-0.08777389	-0.493834	0	0	0	0
5.868264	-0.08777389	-0.493834	0	0	0	0
5.885498	-0.08777389	-0.493834	0	0	0	0
5.901397	-0.08777389	-0.493834	0	0	0	0
5.918042	-0.08777389	-0.493834	0	0	0	0
5.93453	-0.08777389	-0.493834	0	0	0	0
5.951097	-0.08777389	-0.493834	0	0	0	0
5.967664	-0.08777389	-0.493834	0	0	0	0
5.984229	-0.08777389	-0.493834	0	0	0	0
6.000797	-0.08777389	-0.493834	0	0	0	0
6.017364	-0.08777389	-0.493834	0	0	0	0
6.034155	-0.08777389	-0.493834	0	0	0	0
6.05117	-0.08777389	-0.493834	0	0	0	0
6.067175	-0.08777389	-0.493834	0	0	0	0
6.08363	-0.08777389	-0.493834	0	0	0	0
6.100198	-0.08777389	-0.493834	0	0	0	0
6.117205	-0.08777389	-0.493834	0	0	0	0
6.13333	-0.08777389	-0.493834	0	0	0	0
6.149897	-0.08777389	-0.493834	0	0	0	0
6.166846	-0.08777389	-0.493834	0	0	0	0
6.18303	-0.08777389	-0.493834	0	0	0	0
6.199862	-0.08777389	-0.493834	0	0	0	0
6.216165	-0.08777389	-0.493834	0	0	0	0
6.23273	-0.08777389	-0.493834	0	0	0	0
6.249411	-0.08777389	-0.493834	0	0	0	0
6.265922	-0.08777389	-0.493834	0	0	0	0
6.28243	-0.08777389	-0.493834	0	0	0	0
6.298996	-0.08777389	-0.493834	0	0	0	0
6.315968	-0.08777389	-0.493834	0	0	0	0
6.33298	-0.08777389	-0.493834	0	0	0	0
6.348696	-0.08777389	-0.493834	0	0	0	0
6.365985	-0.08777389	-0.493834	0	0	0	0
6.381983	-0.08777389	-0.493834	0	0	0	0
6.398396	-0.08777389	-0.493834	0	0	0	0
6.415055	-0.08777389	-0.493834	0	0	0	0
6.432031	-0.08777389	-0.493834	0	0	0	0
6.448096	-0.08777389	-0.493834	0	0	0	0
6.465062	-0.08777389	-0.493834	0	0	0	0
6.481229	-0.08777389	-0.493834	0	0	0	0
6.497796	-0.08777389	-0.493834	0	0	0	0
6.514363	-0.08777389	-0.493834	0	0	0	0
6.531109	-0.0878	-0.4938098	-0.001559386	0.001446825	-0.04680907	0.04343027
6.547497	-0.0878	-0.4938098	0	0	0.04706303	-0.0436659
6.564129	-0.0878	-0.4938098	0	0	0	0
6.580641	-0.0878	-0.4938098	0	0	0	0
6.597196	-0.0878	-0.4938098	0	0	0	0
6.613763	-0.0878	-0.4938098	0	0	0	0
6.630671	-0.0878	-0.4938098	0	0	0	0
6.647187	-0.0878	-0.4938098	0	0	0	0
6.663465	-0.0878	-0.4938098	0	0	0	0
6.680192	-0.0878	-0.4938098	0	0	0	0
6.696706	-0.0878	-0.4938098	0	0	0	0
6.713232	-0.0878	-0.4938098	0	0	0	0
6.729738	-0.0878	-0.4938098	0	0	0	0
6.746298	-0.0878	-0.4938098	0	0	0	0
6.762865	-0.0878	-0.4938098	0	0	0	0
6.779431	-0.0878	-0.4938098	0	0	0	0
6.795998	-0.0878	-0.4938098	0	0	0	0
6.812564	-0.0878	-0.4938098	0	0	0	0
6.82931	-0.0878	-0.4938098	0	0	0	0
6.845837	-0.0878	-0.4938098	0	0	0	0
6.86235	-0.0878	-0.4938098	0	0	0	0
6.878848	-0.0878	-0.4938098	0	0	0	0
6.895397	-0.0878	-0.4938098	0	0	0	0
6.911965	-0.0878	-0.4938098	0	0	0	0
6.928873	-0.0878	-0.4937614	0	0.002864223	0	0.08556082
6.945102	-0.0878	-0.4937614	0	0	0	-0.08643621
6.961668	-0.0878	-0.4937614	0	0	0	0
6.978236	-0.08782612	-0.4937372	-0.001576216	0.001462441	-0.04757029	0.04413654
6.994806	-0.08782612	-0.4937372	0	0	0.0475655	-0.0441321
7.011371	-0.08782612	-0.4937372	0	0	0	0
7.027931	-0.08787835	-0.4936887	-0.003153794	0.002926145	-0.09520908	0.08833664
7.044504	-0.08787835	-0.4936887	0	0	0.09518579	-0.08831503
7.061065	-0.08787835	-0.4936887	0	0	0	0
7.07763	-0.08790446	-0.4936645	-0.001576443	0.001462651	-0.04758878	0.0441537
7.094201	-0.08790446	-0.4936645	0	0	0.0475744	-0.04414036
7.110764	-0.08790446	-0.4936645	0	0	0	0
7.127332	-0.08795668	-0.493616	-0.003151982	0.002923083	-0.09513797	0.08822896
7.144214	-0.08795668	-0.493616	0	0	0.09422931	-0.0873863
7.160463	-0.08795668	-0.493616	0	0	0	0
7.17703	-0.0879828	-0.4935918	-0.001576307	0.001462525	-0.0480355	0.04456817
7.193917	-0.0879828	-0.4935918	0	0	0.04711805	-0.04371694
7.210164	-0.0879828	-0.4935918	0	0	0	0
7.22673	-0.08800891	-0.4935676	-0.001576397	0.001462609	-0.04804245	0.04457462
7.243513	-0.08800891	-0.4935676	0	0	0.04726965	-0.04385761
7.259863	-0.08800891	-0.4935676	0	0	0	0
7.276787	-0.08806113	-0.4934707	-0.003085556	0.00572472	-0.09273124	0.172047
7.292997	-0.08806113	-0.4934707	0	0	0.09312359	-0.1727749
7.309561	-0.08806113	-0.4934707	0	0	0	0
7.326907	-0.09035854	-0.491341	-0.1324468	0.1227802	-3.9058	3.620737
7.343001	-0.09035854	-0.491341	0	0	3.960771	-3.671696
7.359263	-0.09035854	-0.491341	0	0	0	0
7.375829	-0.1107294	-0.4725606	-1.229731	1.133718	-37.45998	34.53526
7.392426	-0.1107294	-0.4725606	0	0	37.08186	-34.18666
7.408964	-0.1107294	-0.4725606	0	0	0	0
7.425531	-0.1222297	-0.4620337	-0.6941403	0.635381	-20.9676	19.19268
7.442353	-0.1222297	-0.4620337	0	0	20.78914	-19.02933
7.459375	-0.1222297	-0.4620337	0	0	0	0
7.475393	-0.1224631	-0.4617734	-0.01456544	0.01625525	-0.440842	0.4919862
7.492226	-0.1224631	-0.4617734	0	0	0.4433824	-0.4948213
7.508362	-0.1224631	-0.4617734	0	0	0	0
7.52493	-0.1226186	-0.4615367	-0.009387592	0.01428623	-0.2870441	0.4368296
7.541496	-0.1226186	-0.4615367	0	0	0.2833262	-0.4311716
7.558337	-0.1226186	-0.4615367	0	0	0	0
7.57463	-0.1227223	-0.4613	-0.006363861	0.01452297	-0.1920617	0.4383042
7.591196	-0.1227223	-0.4613	0	0	0.1936699	-0.4419742
7.607763	-0.1227223	-0.4613	0	0	0	0
7.62469	-0.1223853	-0.4608032	0.01990913	0.02935025	0.5944175	0.8762963
7.640896	-0.1223853	-0.4608032	0	0	-0.6008761	-0.8858176
7.657657	-0.1223853	-0.4608032	0	0	0	0
7.67403	-0.1098715	-0.4494481	0.7642844	0.6935212	23.06681	20.93111
7.690924	-0.1098715	-0.4494481	0	0	-22.97391	-20.84681
7.707165	-0.1098715	-0.4494481	0	0	0	0
7.723728	-0.09208097	-0.4334632	1.074118	0.9650983	32.74398	29.42056
7.740326	-0.09208097	-0.4334632	0	0	-32.39039	-29.10285
7.756863	-0.09208097	-0.4334632	0	0	0	0
7.773427	-0.0879828	-0.4298241	0.2474092	0.2196982	7.474353	6.63719
7.79032	-0.0879828	-0.4298241	0	0	-7.394779	-6.566528
7.806563	-0.0879828	-0.4298241	0	0	0	0
7.82313	-0.0879828	-0.4298241	0	0	0	0
7.839978	-0.0879828	-0.4298241	0	0	0	0
7.856261	-0.0879828	-0.4298241	0	0	0	0
7.87283	-0.08795668	-0.4298472	0.00157608	-0.001397562	0.0479749	-0.04254095
7.889397	-0.08795668	-0.4298472	0	0	-0.04756413	0.0421767
7.906102	-0.08795668	-0.4298472	0	0	0	0
7.922694	-0.08795668	-0.4298472	0	0	0	0
7.939312	-0.08795668	-0.4298472	0	0	0	0
7.956457	-0.08795668	-0.4298472	0	0	0	0
7.972432	-0.0879828	-0.4298704	-0.001634648	-0.001447632	-0.0493558	-0.04370911
7.988797	-0.0879828	-0.4298704	0	0	0.05054489	0.04476215
8.00556	-0.0879828	-0.4298704	0	0	0	0
8.021928	-0.08795668	-0.4298935	0.001595456	-0.001414744	0.0481565	-0.04270197
8.038496	-0.08795668	-0.4298935	0	0	-0.04844096	0.04295421
8.055529	-0.08795668	-0.4298935	0	0	0	0
8.07163	-0.08795668	-0.4299398	0	-0.002876244	0	-0.08680521
8.088238	-0.08795668	-0.4299398	0	0	0	0.08793399
8.105341	-0.08795668	-0.4299398	0	0	0	0
8.121328	-0.08795668	-0.4299398	0	0	0	0
8.137898	-0.08795668	-0.4299398	0	0	0	0
8.154814	-0.08795668	-0.4299398	0	0	0	0
8.177747	-0.08795668	-0.4299398	0	0	0	0
8.19432	-0.08795668	-0.4299398	0	0	0	0
8.21092	-0.08795668	-0.4299398	0	0	0	0
8.227454	-0.08795668	-0.4299398	0	0	0	0
8.244446	-0.08795668	-0.4299398	0	0	0	0
8.260585	-0.08795668	-0.4299398	0	0	0	0
8.277154	-0.08795668	-0.4299398	0	0	0	0
8.293717	-0.08795668	-0.4299398	0	0	0	0
8.310542	-0.08795668	-0.4299398	0	0	0	0
8.327042	-0.08795668	-0.4299398	0	0	0	0
8.34372	-0.08795668	-0.4299398	0	0	0	0
8.359982	-0.08793058	-0.429963	0.001605478	-0.001424037	0.04873959	-0.04323135
8.376549	-0.08793058	-0.429963	0	0	-0.04890525	0.04337829
8.393203	-0.08793058	-0.429963	0	0	0	0
8.409813	-0.0879828	-0.4300093	-0.003143929	-0.002788224	-0.09451401	-0.08382067
8.426381	-0.0879828	-0.4300093	0	0	0.09475851	0.08403751
8.442949	-0.0879828	-0.4300093	0	0	0	0
8.459516	-0.0879828	-0.4300093	0	0	0	0
8.476085	-0.0879828	-0.4300093	0	0	0	0
8.492651	-0.0879828	-0.4300093	0	0	0	0
8.509214	-0.08800891	-0.4300325	-0.001576624	-0.001398045	-0.04758947	-0.04219916
8.525784	-0.08800891	-0.4300325	0	0	0.04758536	0.04219552
8.542347	-0.08800891	-0.4300325	0	0	0	0
8.558914	-0.08800891	-0.4300325	0	0	0	0
8.576309	-0.08800891	-0.4300325	0	0	0	0
8.592048	-0.08800891	-0.4300325	0	0	0	0
8.608614	-0.0879828	-0.4301019	0.001576352	-0.004191612	0.04879628	-0.1297521
8.625856	-0.0879828	-0.4301019	0	0	-0.04662563	0.1239803
8.641879	-0.0879828	-0.4301019	0	0	0	0
8.658314	-0.08800891	-0.4301251	-0.001588975	-0.001408997	-0.04895579	-0.04341073
8.674882	-0.08800891	-0.4301251	0	0	0.04814661	0.04269319
8.691567	-0.08800891	-0.4301251	0	0	0	0
8.708322	-0.08800891	-0.4301714	0	-0.002764259	0	-0.08266414
8.724925	-0.08800891	-0.4301714	0	0	0	0.08286738
8.741344	-0.08800891	-0.4301714	0	0	0	0
8.757714	-0.08803502	-0.4301945	-0.00159527	-0.001414579	-0.04865226	-0.04314158
8.774372	-0.08803502	-0.4301945	0	0	0.04830105	0.04283015
8.790848	-0.08803502	-0.4301945	0	0	0	0
8.807414	-0.08806113	-0.4302177	-0.001575902	-0.001397804	-0.04769398	-0.04230391
8.82398	-0.08806113	-0.4302177	0	0	0.04756356	0.04218823
8.84069	-0.08806113	-0.4302177	0	0	0	0
8.857115	-0.08806113	-0.4302177	0	0	0	0
8.873717	-0.08806113	-0.4302177	0	0	0	0
8.890248	-0.08806113	-0.4302177	0	0	0	0
8.906815	-0.08808725	-0.4302408	-0.001576352	-0.001397804	-0.04762787	-0.04223321
8.923381	-0.08808725	-0.4302408	0	0	0.04757714	0.04218823
8.939947	-0.08808725	-0.4302408	0	0	0	0
8.956511	-0.08806113	-0.430264	0.001576534	-0.001397965	0.04758536	-0.04219552
8.973141	-0.08806113	-0.430264	0	0	-0.04749513	0.04211551
8.990267	-0.08806113	-0.430264	0	0	0	0
9.006279	-0.08806113	-0.4303103	0	-0.002894208	0	-0.08733731
9.022779	-0.08806113	-0.4303103	0	0	0	0.08901786
9.039615	-0.08806113	-0.4303103	0	0	0	0
9.055923	-0.08806113	-0.4303567	0	-0.002839912	0	-0.08568653
9.072481	-0.08806113	-0.4303567	0	0	0	0.08640756
9.089047	-0.08806113	-0.4303567	0	0	0	0
9.105645	-0.08808725	-0.4303798	-0.001573363	-0.001395153	-0.04744187	-0.04206828
9.122742	-0.08808725	-0.4303798	0	0	0.04669528	0.04140626
9.138748	-0.08808725	-0.4303798	0	0	0	0
9.155779	-0.08808725	-0.4303798	0	0	0	0
9.171883	-0.08808725	-0.4303798	0	0	0	0
9.188449	-0.08808725	-0.4303798	0	0	0	0
9.205087	-0.08808725	-0.4303798	0	0	0	0
9.221584	-0.08808725	-0.4303798	0	0	0	0
9.238149	-0.08808725	-0.4303798	0	0	0	0
9.255165	-0.08808725	-0.4303798	0	0	0	0
9.271314	-0.08808725	-0.4303798	0	0	0	0
9.287848	-0.08808725	-0.4303798	0	0	0	0
9.304416	-0.08808725	-0.4303798	0	0	0	0
9.321722	-0.08808725	-0.4303798	0	0	0	0
9.33782	-0.08808725	-0.4303798	0	0	0	0
9.354913	-0.08811336	-0.430403	-0.001527803	-0.001354754	-0.04603102	-0.04081723
9.370984	-0.08811336	-0.430403	0	0	0.04606808	0.0408501
9.387508	-0.08811336	-0.430403	0	0	0	0
9.403814	-0.08811336	-0.430403	0	0	0	0
9.420382	-0.08811336	-0.430403	0	0	0	0
9.436948	-0.08811336	-0.430403	0	0	0	0
9.453513	-0.08811336	-0.430403	0	0	0	0
9.470082	-0.08811336	-0.430403	0	0	0	0
9.486876	-0.08811336	-0.430403	0	0	0	0
9.503361	-0.08813947	-0.4304261	-0.001583743	-0.001404758	-0.04759063	-0.04221224
9.519782	-0.08813947	-0.4304261	0	0	0.04812993	0.04269059
9.536426	-0.08813947	-0.4304261	0	0	0	0
9.552915	-0.08811336	-0.4304493	0.001583285	-0.001404352	0.04778639	-0.04238588
9.56948	-0.08811336	-0.4304493	0	0	-0.04789945	0.04248615
9.586049	-0.08811336	-0.4304493	0	0	0	0
9.603047	-0.08813947	-0.4304724	-0.001535851	-0.001362278	-0.04575419	-0.04058334
9.619183	-0.08813947	-0.4304724	0	0	0.0463534	0.04111483
9.635886	-0.08813947	-0.4304724	0	0	0	0
9.652502	-0.08816558	-0.4304493	-0.001571647	0.001393632	-0.04716903	0.04182635
9.669175	-0.08816558	-0.4304493	0	0	0.04721228	-0.0418647
9.68545	-0.08816558	-0.4304493	0	0	0	0
9.702015	-0.08816558	-0.4304493	0	0	0	0
9.718582	-0.08816558	-0.4304493	0	0	0	0
9.73515	-0.08816558	-0.4304493	0	0	0	0
9.751717	-0.08816558	-0.4304493	0	0	0	0
9.768283	-0.08816558	-0.4304493	0	0	0	0
9.78485	-0.08816558	-0.4304493	0	0	0	0
9.801415	-0.08816558	-0.4304493	0	0	0	0
9.818439	-0.08816558	-0.4304493	0	0	0	0
9.834979	-0.08816558	-0.4304493	0	0	0	0
9.851113	-0.08816558	-0.4304493	0	0	0	0
9.867682	-0.08816558	-0.4304493	0	0	0	0
9.88425	-0.08816558	-0.4304493	0	0	0	0
9.900816	-0.08816558	-0.430403	0	0.002795608	0	0.08437403
9.91743	-0.08816558	-0.430403	0	0	0	-0.0842552
9.933949	-0.08816558	-0.430403	0	0	0	0
9.950516	-0.0881917	-0.4304261	-0.001576352	-0.001397804	-0.04764434	-0.04224782
9.967083	-0.0881917	-0.4304261	0	0	0.04757577	0.04218702
9.983649	-0.0881917	-0.4304261	0	0	0	0
10.00022	-0.0881917	-0.4304261	0	0	0	0
10.01678	-0.0881917	-0.4304261	0	0	0	0
10.03335	-0.0881917	-0.4304261	0	0	0	0
10.04993	-0.08816558	-0.4304493	0.001575445	-0.001397	0.04753608	-0.04215182
10.067	-0.08816558	-0.4304493	0	0	-0.04682068	0.04151745
10.08305	-0.08816558	-0.4304493	0	0	0	0
10.09962	-0.08813947	-0.4304261	0.001576171	0.001397643	0.04832134	0.04284814
10.11623	-0.08813947	-0.4304261	0	0	-0.04750876	-0.04212759
10.13285	-0.08813947	-0.4304261	0	0	0	0
10.14931	-0.08813947	-0.4304261	0	0	0	0
10.16588	-0.08813947	-0.4304261	0	0	0	0
10.18245	-0.08813947	-0.4304261	0	0	0	0
10.19945	-0.08816558	-0.4304493	-0.001536375	-0.001362355	-0.04577502	-0.04059023
10.21558	-0.08816558	-0.4304493	0	0	0.04637323	0.04112069
10.23215	-0.08816558	-0.4304493	0	0	0	0
10.24872	-0.08811336	-0.4304956	0.003152255	-0.002797407	0.09513249	-0.08442347
10.26528	-0.08811336	-0.4304956	0	0	-0.09513797	0.08442833
10.28185	-0.08811336	-0.4304956	0	0	0	0
10.302	-0.08808725	-0.4305651	0.001296166	-0.003448062	0.0353048	-0.09391783
10.31857	-0.08808725	-0.4305651	0	0	-0.0352993	0.09390319
10.33513	-0.08813947	-0.4306114	-0.003152436	-0.002797568	-0.09513249	-0.08442347
10.3517	-0.08813947	-0.4306114	0	0	0.09514618	0.08443562
10.36827	-0.08813947	-0.4306114	0	0	0	0
10.38511	-0.0881917	-0.4307967	-0.003101111	-0.01100297	-0.09282495	-0.3293498
10.4014	-0.0881917	-0.4307967	0	0	0.09359442	0.3320799
10.41797	-0.0881917	-0.4307967	0	0	0	0
10.43453	-0.08829614	-0.4309357	-0.006304872	-0.008390903	-0.1902978	-0.2532598
10.4511	-0.08829614	-0.4309357	0	0	0.1902869	0.2532453
10.46767	-0.08829614	-0.4309357	0	0	0	0
10.48456	-0.08829614	-0.4310284	0	-0.005485551	0	-0.1639312
10.5008	-0.08829614	-0.4310284	0	0	0	0.1655638
10.51737	-0.08829614	-0.4310284	0	0	0	0
10.53397	-0.08824392	-0.4310748	0.003144832	-0.00279082	0.09480207	-0.08413024
10.5505	-0.08824392	-0.4310748	0	0	-0.09490848	0.08422468
10.56707	-0.08824392	-0.4310748	0	0	0	0
10.58363	-0.0882178	-0.4310979	0.001576624	-0.001398045	0.04758947	-0.04219916
10.6002	-0.0882178	-0.4310979	0	0	-0.0475881	0.04219795
10.61684	-0.0882178	-0.4310979	0	0	0	0
10.63333	-0.0882178	-0.4310979	0	0	0	0
10.64991	-0.0882178	-0.4310979	0	0	0	0
10.66648	-0.0882178	-0.4310979	0	0	0	0
10.68357	-0.0882178	-0.4310979	0	0	0	0
10.6996	-0.0882178	-0.4310979	0	0	0	0
10.71639	-0.0882178	-0.4310979	0	0	0	0
10.73273	-0.08824392	-0.4310748	-0.001597783	0.001416808	-0.04822675	0.04276426
10.7493	-0.08824392	-0.4310748	0	0	0.04854395	-0.04304553
10.76587	-0.08824392	-0.4310748	0	0	0	0
10.78243	-0.08824392	-0.4310748	0	0	0	0
10.799	-0.08824392	-0.4310748	0	0	0	0
10.81557	-0.08824392	-0.4310748	0	0	0	0
10.83213	-0.08824392	-0.4310748	0	0	0	0
10.84883	-0.08824392	-0.4310748	0	0	0	0
10.86526	-0.08824392	-0.4310748	0	0	0	0
10.88237	-0.08824392	-0.4310748	0	0	0	0
10.8984	-0.08824392	-0.4310748	0	0	0	0
10.91496	-0.08824392	-0.4310748	0	0	0	0
10.93189	-0.08824392	-0.4310748	0	0	0	0
10.9481	-0.08824392	-0.4310748	0	0	0	0
10.96491	-0.08824392	-0.4310748	0	0	0	0
10.98123	-0.08827003	-0.4310516	-0.001599744	0.001420372	-0.04828175	0.04286813
10.99793	-0.08827003	-0.4310516	0	0	0.0484379	-0.04300677
11.01436	-0.08827003	-0.4310516	0	0	0	0
11.03095	-0.08827003	-0.4310516	0	0	0	0
11.0475	-0.08827003	-0.4310516	0	0	0	0
11.06406	-0.08827003	-0.4310516	0	0	0	0
11.08063	-0.08827003	-0.4310516	0	0	0	0
11.09785	-0.08827003	-0.4310516	0	0	0	0
11.11377	-0.08827003	-0.4310516	0	0	0	0
11.13033	-0.08829614	-0.4310284	-0.001575902	0.001397804	-0.04851738	0.04303425
11.14713	-0.08829614	-0.4310284	0	0	0.0472386	-0.04189999
11.16346	-0.08829614	-0.4310284	0	0	0	0
11.18003	-0.08832225	-0.4310052	-0.001576352	0.001399603	-0.04790948	0.0425376
11.1966	-0.08832225	-0.4310052	0	0	0.04757577	-0.04224131
11.21352	-0.08832225	-0.4310052	0	0	0	0
11.22973	-0.08837447	-0.4309589	-0.003221048	0.002858456	-0.09721421	0.08627085
11.2463	-0.08837447	-0.4309589	0	0	0.09826351	-0.08720203
11.26286	-0.08837447	-0.4309589	0	0	0	0
11.27943	-0.08837447	-0.4309126	0	0.002795608	0	0.08437889
11.29606	-0.08837447	-0.4309126	0	0	0	-0.08422373
11.31256	-0.08837447	-0.4309126	0	0	0	0
11.32934	-0.08840058	-0.4308894	-0.001556105	0.00138202	-0.04675208	0.04152182
11.3457	-0.08840058	-0.4308894	0	0	0.0469647	-0.04171065
11.36246	-0.08840058	-0.4308894	0	0	0	0
11.37883	-0.08840058	-0.4308894	0	0	0	0
11.39635	-0.08840058	-0.4308894	0	0	0	0
11.41197	-0.08840058	-0.4308894	0	0	0	0
11.42853	-0.08837447	-0.4308662	0.00157681	0.001398609	0.04900285	0.04346486
11.44528	-0.08837447	-0.4308662	0	0	-0.04733482	-0.04198533
11.46166	-0.08837447	-0.4308662	0	0	0	0
11.47823	-0.08837447	-0.4308662	0	0	0	0
11.4948	-0.08837447	-0.4308662	0	0	0	0
11.51142	-0.08837447	-0.4308662	0	0	0	0
11.52793	-0.08837447	-0.4308662	0	0	0	0
11.5445	-0.08837447	-0.4308662	0	0	0	0
11.56107	-0.08837447	-0.4308662	0	0	0	0
11.57763	-0.08834836	-0.4308431	0.001576715	0.001399925	0.0475881	0.04225225
11.5942	-0.08834836	-0.4308431	0	0	-0.04758947	-0.04225347
11.61076	-0.08834836	-0.4308431	0	0	0	0
11.62751	-0.08837447	-0.4307736	-0.00155903	0.004149112	-0.04679305	0.1245323
11.6439	-0.08837447	-0.4307736	0	0	0.04705163	-0.1252204
11.66047	-0.08837447	-0.4307736	0	0	0	0
11.67703	-0.08840058	-0.4307504	-0.001576084	0.001397965	-0.04757178	0.04219552
11.6936	-0.08840058	-0.4307504	0	0	0.04756493	-0.04218945
11.71016	-0.08840058	-0.4307504	0	0	0	0
11.72673	-0.08840058	-0.4307504	0	0	0	0
11.7433	-0.08840058	-0.4307504	0	0	0	0
11.75987	-0.08840058	-0.4307504	0	0	0	0
11.77643	-0.08837447	-0.4307272	0.001575812	0.001397723	0.04755398	0.04217973
11.793	-0.08837447	-0.4307272	0	0	-0.04755946	-0.04218459
11.80956	-0.08837447	-0.4307272	0	0	0	0
11.82613	-0.08840058	-0.4307041	-0.00157563	0.001397562	-0.04755672	0.04218216
11.84302	-0.08840058	-0.4307041	0	0	0.04709312	-0.04177096
11.85926	-0.08840058	-0.4307041	0	0	0	0
11.87626	-0.08840058	-0.4307041	0	0	0	0
11.8924	-0.08840058	-0.4307041	0	0	0	0
11.90896	-0.08840058	-0.4307041	0	0	0	0
11.92557	-0.08837447	-0.4307272	0.00157183	-0.001394192	0.04738611	-0.04203083
11.94217	-0.08837447	-0.4307272	0	0	-0.04732896	0.04198014
11.95866	-0.08837447	-0.4307272	0	0	0	0
11.98005	-0.08837447	-0.4307272	0	0	0	0
11.99662	-0.08837447	-0.4307272	0	0	0	0
12.01319	-0.08837447	-0.4307272	0	0	0	0
12.02991	-0.08837447	-0.4307272	0	0	0	0
12.04697	-0.08837447	-0.4307272	0	0	0	0
12.06289	-0.08837447	-0.4307272	0	0	0	0
12.07955	-0.08837447	-0.4307272	0	0	0	0
12.09602	-0.08837447	-0.4307272	0	0	0	0
12.11259	-0.08837447	-0.4307272	0	0	0	0
12.13005	-0.08837447	-0.4307272	0	0	0	0
12.14572	-0.08837447	-0.4307272	0	0	0	0
12.16229	-0.08837447	-0.4307272	0	0	0	0
12.17921	-0.08837447	-0.4307272	0	0	0	0
12.19542	-0.08837447	-0.4307272	0	0	0	0
12.21199	-0.08837447	-0.4307272	0	0	0	0
12.22855	-0.08837447	-0.4307272	0	0	0	0
12.24539	-0.08837447	-0.4307272	0	0	0	0
12.26169	-0.08837447	-0.4307272	0	0	0	0
12.27836	-0.08837447	-0.4307272	0	0	0	0
12.29482	-0.08837447	-0.4307272	0	0	0	0
12.31139	-0.08837447	-0.4307272	0	0	0	0
12.32795	-0.08837447	-0.4307272	0	0	0	0
12.34452	-0.08837447	-0.4307272	0	0	0	0
12.36112	-0.08837447	-0.4307272	0	0	0	0
12.37765	-0.08837447	-0.4307272	0	0	0	0
12.39466	-0.08837447	-0.4307272	0	0	0	0
12.41079	-0.08837447	-0.4307272	0	0	0	0
12.42742	-0.08837447	-0.4307272	0	0	0	0
12.44392	-0.08837447	-0.4307272	0	0	0	0
12.46096	-0.08834836	-0.4307041	0.001533106	0.001359456	0.0457166	0.04053843
12.47747	-0.08834836	-0.4307041	0	0	-0.0457036	-0.0405269
12.49362	-0.08834836	-0.4307041	0	0	0	0
12.51043	-0.08834836	-0.4307041	0	0	0	0
12.52684	-0.08834836	-0.4307041	0	0	0	0
12.54346	-0.08834836	-0.4307041	0	0	0	0
12.55997	-0.08834836	-0.4307041	0	0	0	0
12.57646	-0.08834836	-0.4307041	0	0	0	0
12.59302	-0.08834836	-0.4307041	0	0	0	0
12.60959	-0.08834836	-0.4307041	0	0	0	0
12.62625	-0.08834836	-0.4307041	0	0	0	0
12.64273	-0.08834836	-0.4307041	0	0	0	0
12.65929	-0.08834836	-0.4307041	0	0	0	0
12.67586	-0.08834836	-0.4307041	0	0	0	0
12.69291	-0.08834836	-0.4307041	0	0	0	0
12.70899	-0.08834836	-0.4306577	0	0.002882363	0	0.08699989
12.72556	-0.08834836	-0.4306577	0	0	0	-0.08829096
12.74212	-0.08834836	-0.4306577	0	0	0	0
12.75869	-0.08834836	-0.4305651	0	0.005593014	0	0.1688218
12.7753	-0.08834836	-0.4305651	0	0	0	-0.1685646
12.79196	-0.08834836	-0.4305651	0	0	0	0
12.80838	-0.08837447	-0.4304956	-0.001590083	0.004229937	-0.0480621	0.1278548
12.82495	-0.08837447	-0.4304956	0	0	0.04819966	-0.1282207
12.84152	-0.08837447	-0.4304956	0	0	0	0
12.85893	-0.08834836	-0.4304724	0.001500099	0.0013319	0.04415101	0.03920056
12.87465	-0.08834836	-0.4304724	0	0	-0.04527178	-0.04019566
12.89122	-0.08834836	-0.4304724	0	0	0	0
12.90779	-0.08834836	-0.4304261	0	0.00279593	0	0.08439104
12.92435	-0.08834836	-0.4304261	0	0	0	-0.08438375
12.94092	-0.08834836	-0.4304261	0	0	0	0
12.95794	-0.08832225	-0.430403	0.001534043	0.001360675	0.04567569	0.04051371
12.97405	-0.08832225	-0.430403	0	0	-0.04630018	-0.04106762
12.99105	-0.08832225	-0.430403	0	0	0	0
13.00719	-0.08837447	-0.4303567	-0.003236469	0.002870294	-0.09767963	0.08662813
13.05995	-0.08837447	-0.4303567	0	0	0.04697205	-0.04165762
13.07653	-0.08837447	-0.4303567	0	0	0	0
13.09309	-0.08837447	-0.4303567	0	0	0	0
13.10966	-0.08837447	-0.4303567	0	0	0	0
13.12622	-0.08837447	-0.4303567	0	0	0	0
13.14291	-0.08837447	-0.4303567	0	0	0	0
13.16022	-0.08837447	-0.4303567	0	0	0	0
13.17593	-0.08837447	-0.4303567	0	0	0	0
13.19249	-0.08837447	-0.4303567	0	0	0	0
13.20906	-0.08837447	-0.4303567	0	0	0	0
13.22563	-0.08837447	-0.4303567	0	0	0	0
13.24219	-0.08837447	-0.4303567	0	0	0	0
13.25919	-0.08837447	-0.4303567	0	0	0	0
13.27533	-0.08837447	-0.4303567	0	0	0	0
13.29189	-0.08834836	-0.4303798	0.001576352	-0.001397804	0.04819726	-0.04273811
13.30846	-0.08834836	-0.4303798	0	0	-0.04757988	0.04219066
13.32502	-0.08834836	-0.4303798	0	0	0	0
13.34159	-0.08834836	-0.4303798	0	0	0	0
13.35887	-0.08834836	-0.4303798	0	0	0	0
13.37501	-0.08834836	-0.4303798	0	0	0	0
13.39129	-0.08837447	-0.4303567	-0.001603866	0.001422202	-0.04946836	0.04386524
13.40852	-0.08837447	-0.4303567	0	0	0.04784977	-0.04242998
13.42453	-0.08837447	-0.4303567	0	0	0	0
13.44099	-0.08837447	-0.4303567	0	0	0	0
13.45804	-0.08837447	-0.4303567	0	0	0	0
13.47412	-0.08837447	-0.4303567	0	0	0	0
13.49069	-0.08837447	-0.430403	0	-0.002795769	0	-0.08564097
13.50726	-0.08837447	-0.430403	0	0	0	0.08437889
13.52382	-0.08837447	-0.430403	0	0	0	0
13.54051	-0.08837447	-0.430403	0	0	0	0
13.5571	-0.08837447	-0.430403	0	0	0	0
13.57407	-0.08837447	-0.430403	0	0	0	0
13.59202	-0.08837447	-0.430403	0	0	0	0
13.60859	-0.08837447	-0.430403	0	0	0	0
13.62515	-0.08837447	-0.430403	0	0	0	0
13.64172	-0.08834836	-0.4304261	0.001576534	-0.001397965	0.04759221	-0.04220159
13.65829	-0.08834836	-0.4304261	0	0	-0.04758125	0.04219187
13.67486	-0.08834836	-0.4304261	0	0	0	0
13.69142	-0.08834836	-0.4304261	0	0	0	0
13.70799	-0.08834836	-0.4304261	0	0	0	0
13.72456	-0.08834836	-0.4304261	0	0	0	0
13.74112	-0.08834836	-0.4304724	0	-0.00279593	0	-0.08438132
13.75769	-0.08834836	-0.4304724	0	0	0	0.08439104
13.77425	-0.08834836	-0.4304724	0	0	0	0
13.79082	-0.08834836	-0.4304724	0	0	0	0
13.80739	-0.08834836	-0.4304724	0	0	0	0
13.82395	-0.08834836	-0.4304724	0	0	0	0
13.84052	-0.08834836	-0.4304724	0	0	0	0
13.85709	-0.08834836	-0.4304724	0	0	0	0
13.87365	-0.08834836	-0.4304724	0	0	0	0
13.89029	-0.08834836	-0.4304724	0	0	0	0
13.90679	-0.08834836	-0.4304724	0	0	0	0
13.92336	-0.08834836	-0.4304724	0	0	0	0
13.93992	-0.08837447	-0.4304956	-0.001576534	-0.001399764	-0.04758399	-0.04224861
13.95649	-0.08837447	-0.4304956	0	0	0.04758536	0.04224982
13.97305	-0.08837447	-0.4304956	0	0	0	0
13.98962	-0.08837447	-0.4304956	0	0	0	0
14.00657	-0.08837447	-0.4304956	0	0	0	0
14.02275	-0.08837447	-0.4304956	0	0	0	0
14.0397	-0.08837447	-0.4305419	0	-0.002732836	0	-0.08247478
14.05589	-0.08837447	-0.4305419	0	0	0	0.08247954
14.07277	-0.08837447	-0.4305419	0	0	0	0
14.08902	-0.08837447	-0.4305882	0	-0.002850247	0	-0.08602804
14.10559	-0.08837447	-0.4305882	0	0	0	0.08685305
14.12215	-0.08837447	-0.4305882	0	0	0	0
14.13872	-0.08834836	-0.4306114	0.001576261	-0.001399522	0.0475744	-0.04224009
14.15529	-0.08834836	-0.4306114	0	0	-0.04757029	0.04223645
14.17185	-0.08834836	-0.4306114	0	0	0	0
14.18873	-0.08837447	-0.4306346	-0.001547489	-0.00137221	-0.04627444	-0.04103308
14.20659	-0.08837447	-0.4306346	0	0	0.04454919	0.03950324
14.22316	-0.08837447	-0.4306346	0	0	0	0
14.23983	-0.08840058	-0.4306577	-0.001566524	-0.001389485	-0.04713262	-0.04180599
14.2563	-0.08840058	-0.4306577	0	0	0.0472805	0.04193715
14.27286	-0.08840058	-0.4306577	0	0	0	0
14.28943	-0.08840058	-0.4306577	0	0	0	0
14.30601	-0.08840058	-0.4306577	0	0	0	0
14.32256	-0.08840058	-0.4306577	0	0	0	0
14.33913	-0.0884528	-0.4307041	-0.003152073	-0.002797246	-0.09518181	-0.08446723
14.35569	-0.0884528	-0.4307041	0	0	0.09513249	0.08442347
14.37226	-0.0884528	-0.4307041	0	0	0	0
14.38883	-0.08850502	-0.4307504	-0.003152617	-0.00279593	-0.09515714	-0.08439104
14.40542	-0.08850502	-0.4307504	0	0	0.09506956	0.08431337
14.42196	-0.08850502	-0.4307504	0	0	0	0
14.43863	-0.08850502	-0.4307967	0	-0.002779804	0	-0.08370192
14.45541	-0.08850502	-0.4307967	0	0	0	0.08309583
14.47166	-0.08850502	-0.4307967	0	0	0	0
14.48823	-0.08855724	-0.4308894	-0.003152617	-0.005593658	-0.09608088	-0.1704754
14.5048	-0.08855724	-0.4308894	0	0	0.09514892	0.1688218
14.52136	-0.08855724	-0.4308894	0	0	0	0
14.53793	-0.08863557	-0.4309589	-0.004728157	-0.004195211	-0.1427084	-0.1266226
14.5545	-0.08863557	-0.4309589	0	0	0.1426961	0.1266117
14.57106	-0.08863557	-0.4309589	0	0	0	0
14.58763	-0.09025414	-0.4324425	-0.09770797	-0.08955815	-2.949087	-2.703104
14.6042	-0.09025414	-0.4324425	0	0	2.948917	2.702948
14.62076	-0.09025414	-0.4324425	0	0	0	0
14.63794	-0.09067175	-0.43286	-0.02430608	-0.02429958	-0.7202503	-0.7200575
14.65389	-0.09067175	-0.43286	0	0	0.7335802	0.7333839
14.67056	-0.09067175	-0.43286	0	0	0	0
14.68763	-0.09067175	-0.43286	0	0	0	0
14.7036	-0.09067175	-0.43286	0	0	0	0
14.72019	-0.09067175	-0.43286	0	0	0	0
14.7368	-0.09067175	-0.43286	0	0	0	0
14.75338	-0.09067175	-0.43286	0	0	0	0
14.77014	-0.09067175	-0.43286	0	0	0	0
14.78643	-0.09067175	-0.43286	0	0	0	0
14.80299	-0.09067175	-0.43286	0	0	0	0
14.81956	-0.09067175	-0.43286	0	0	0	0
14.83668	-0.09067175	-0.43286	0	0	0	0
14.85269	-0.09067175	-0.43286	0	0	0	0
14.86926	-0.09067175	-0.43286	0	0	0	0
14.88654	-0.09067175	-0.43286	0	0	0	0
14.90267	-0.09067175	-0.43286	0	0	0	0
14.91896	-0.09067175	-0.43286	0	0	0	0
14.93553	-0.09064565	-0.4328832	0.001575453	-0.001401402	0.04795303	-0.04265533
14.95209	-0.09064565	-0.4328832	0	0	-0.04754999	0.04229682
14.96873	-0.09064565	-0.4328832	0	0	0	0
14.98523	-0.09064565	-0.4328832	0	0	0	0
15.00196	-0.09064565	-0.4328832	0	0	0	0
15.01836	-0.09064565	-0.4328832	0	0	0	0
15.03525	-0.09067175	-0.43286	-0.001545296	0.001374576	-0.04641801	0.0412899
15.05149	-0.09067175	-0.43286	0	0	0.04664114	-0.04148838
15.06837	-0.09067175	-0.43286	0	0	0	0
15.08463	-0.09067175	-0.43286	0	0	0	0
15.10119	-0.09067175	-0.43286	0	0	0	0
15.1178	-0.09067175	-0.43286	0	0	0	0
15.13433	-0.09067175	-0.43286	0	0	0	0
15.15089	-0.09067175	-0.43286	0	0	0	0
15.16783	-0.09067175	-0.43286	0	0	0	0
15.18402	-0.09067175	-0.43286	0	0	0	0
15.20059	-0.09067175	-0.43286	0	0	0	0
15.21716	-0.09067175	-0.43286	0	0	0	0
15.23435	-0.09067175	-0.43286	0	0	0	0
15.25029	-0.09067175	-0.43286	0	0	0	0
15.26686	-0.09067175	-0.43286	0	0	0	0
15.28343	-0.09067175	-0.43286	0	0	0	0
15.30008	-0.09067175	-0.43286	0	0	0	0
15.3169	-0.09067175	-0.43286	0	0	0	0
15.33314	-0.09067175	-0.43286	0	0	0	0
15.34969	-0.09067175	-0.43286	0	0	0	0
15.36653	-0.09067175	-0.43286	0	0	0	0
15.38282	-0.09067175	-0.43286	0	0	0	0
15.39965	-0.09067175	-0.43286	0	0	0	0
15.41596	-0.09067175	-0.43286	0	0	0	0
15.43291	-0.09064565	-0.4328832	0.001540251	-0.001370089	0.04631425	-0.04119761
15.44909	-0.09064565	-0.4328832	0	0	-0.0464889	0.04135295
15.46594	-0.09064565	-0.4328832	0	0	0	0
15.48249	-0.09064565	-0.4328832	0	0	0	0
15.4988	-0.09064565	-0.4328832	0	0	0	0
15.51536	-0.09064565	-0.4328832	0	0	0	0
15.53193	-0.09064565	-0.4328832	0	0	0	0
15.5485	-0.09064565	-0.4328832	0	0	0	0
15.56506	-0.09064565	-0.4328832	0	0	0	0
15.58722	-0.09064565	-0.4328832	0	0	0	0
15.60379	-0.09064565	-0.4328832	0	0	0	0
15.62035	-0.09064565	-0.4328832	0	0	0	0
15.63692	-0.09064565	-0.4328832	0	0	0	0
15.65348	-0.09064565	-0.4328832	0	0	0	0
15.67039	-0.09064565	-0.4328832	0	0	0	0
15.68662	-0.09064565	-0.4328832	0	0	0	0
15.70339	-0.09064565	-0.4328832	0	0	0	0
15.71988	-0.09064565	-0.4328832	0	0	0	0
15.73658	-0.09064565	-0.4328832	0	0	0	0
15.75288	-0.09064565	-0.4328832	0	0	0	0
15.76946	-0.09061955	-0.4329064	0.001574818	-0.001399039	0.04790868	-0.04256118
15.78602	-0.09061955	-0.4329064	0	0	-0.04752674	0.04222187
15.80439	-0.09061955	-0.4329064	0	0	0	0
15.82101	-0.09061955	-0.4329064	0	0	0	0
15.83753	-0.09061955	-0.4329064	0	0	0	0
15.8541	-0.09061955	-0.4329064	0	0	0	0
15.87066	-0.09061955	-0.4329064	0	0	0	0
15.88723	-0.09061955	-0.4329064	0	0	0	0
15.904	-0.09061955	-0.4329064	0	0	0	0
15.92065	-0.09061955	-0.4329064	0	0	0	0
15.93727	-0.09061955	-0.4329064	0	0	0	0
15.9535	-0.09061955	-0.4329064	0	0	0	0
15.97006	-0.09064565	-0.4329296	-0.001575634	-0.001401563	-0.04804362	-0.04273592
15.98731	-0.09064565	-0.4329296	0	0	0.04660044	0.04145218
16.00336	-0.09064565	-0.4329296	0	0	0	0
16.01976	-0.09067175	-0.4329528	-0.001590746	-0.001413189	-0.0490161	-0.04354499
16.03697	-0.09067175	-0.4329528	0	0	0.04732502	0.04204267
16.05329	-0.09067175	-0.4329528	0	0	0	0
16.06946	-0.09069785	-0.4329296	-0.001613822	0.001433689	-0.04966584	0.04412221
16.08603	-0.09069785	-0.4329296	0	0	0.04929546	-0.04379317
16.10342	-0.09069785	-0.4329296	0	0	0	0
16.11944	-0.09069785	-0.4329296	0	0	0	0
16.13573	-0.09069785	-0.4329296	0	0	0	0
16.15294	-0.09069785	-0.4329296	0	0	0	0
16.16886	-0.09072395	-0.4329064	-0.001639811	0.001458233	-0.04948674	0.04400704
16.18548	-0.09072395	-0.4329064	0	0	0.05040354	-0.04482232
16.202	-0.09072395	-0.4329064	0	0	0	0
16.22102	-0.09069785	-0.4329296	0.001372593	-0.001220605	0.03861734	-0.03434122
16.23796	-0.09069785	-0.4329296	0	0	-0.03816878	0.03394233
16.25416	-0.09069785	-0.4329296	0	0	0	0
16.27072	-0.09069785	-0.4329296	0	0	0	0
16.28751	-0.09069785	-0.4329296	0	0	0	0
16.30385	-0.09069785	-0.4329296	0	0	0	0
16.32042	-0.09069785	-0.4329296	0	0	0	0
16.33699	-0.09069785	-0.4329296	0	0	0	0
16.35356	-0.09069785	-0.4329296	0	0	0	0
16.3711	-0.09069785	-0.4329296	0	0	0	0
16.38669	-0.09069785	-0.4329296	0	0	0	0
16.40326	-0.09069785	-0.4329296	0	0	0	0
16.41982	-0.09069785	-0.4329296	0	0	0	0
16.43639	-0.09069785	-0.4329296	0	0	0	0
16.45296	-0.09069785	-0.4329296	0	0	0	0
16.46952	-0.09069785	-0.4328832	0	0.002801488	0	0.08456369
16.48642	-0.09069785	-0.4328832	0	0	0	-0.08372972
16.50266	-0.09069785	-0.4328832	0	0	0	0
16.51922	-0.09069785	-0.4328832	0	0	0	0
16.53579	-0.09069785	-0.4328832	0	0	0	0
16.55235	-0.09069785	-0.4328832	0	0	0	0
16.56892	-0.09069785	-0.4329296	0	-0.002801166	0	-0.08454422
16.58592	-0.09069785	-0.4329296	0	0	0	0.08344892
16.60205	-0.09069785	-0.4329296	0	0	0	0
16.61862	-0.09067175	-0.4329064	0.001575362	0.001401321	0.04817963	0.0428569
16.63519	-0.09067175	-0.4329064	0	0	-0.04754452	-0.04229196
16.6519	-0.09067175	-0.4329064	0	0	0	0
16.66843	-0.09067175	-0.4329528	0	-0.002806983	0	-0.08443303
16.68537	-0.09067175	-0.4329528	0	0	0	0.08386527
16.70146	-0.09067175	-0.4329528	0	0	0	0
16.71802	-0.09067175	-0.4329528	0	0	0	0
16.73459	-0.09067175	-0.4329528	0	0	0	0
16.75116	-0.09067175	-0.4329528	0	0	0	0
16.76772	-0.09064565	-0.4329759	0.001575543	-0.001399683	0.04755273	-0.04224496
16.78429	-0.09064565	-0.4329759	0	0	-0.04755273	0.04224496
16.80094	-0.09064565	-0.4329759	0	0	0	0
16.81742	-0.09064565	-0.4329759	0	0	0	0
16.83401	-0.09064565	-0.4329759	0	0	0	0
16.85055	-0.09064565	-0.4329759	0	0	0	0
16.86712	-0.09064565	-0.4329759	0	0	0	0
16.884	-0.09064565	-0.4329759	0	0	0	0
16.9006	-0.09064565	-0.4329759	0	0	0	0
16.91699	-0.09064565	-0.4329759	0	0	0	0
16.93339	-0.09064565	-0.4329759	0	0	0	0
16.95072	-0.09064565	-0.4329759	0	0	0	0
16.96664	-0.09064565	-0.4329759	0	0	0	0
16.98309	-0.09064565	-0.4329759	0	0	0	0
16.99966	-0.09064565	-0.4329759	0	0	0	0
17.01622	-0.09061955	-0.4329992	0.001575543	-0.001401482	0.04755273	-0.04229926
17.03297	-0.09061955	-0.4329992	0	0	-0.04729408	0.04206919
17.05026	-0.09061955	-0.4329992	0	0	0	0
17.06592	-0.09056735	-0.4330456	0.003333397	-0.002963231	0.101167	-0.08993264
17.08249	-0.09056735	-0.4330456	0	0	-0.1034302	0.09194451
17.09905	-0.09056735	-0.4330456	0	0	0	0
17.11569	-0.09048904	-0.4331152	0.004705948	-0.00418386	0.1417239	-0.1260008
17.13226	-0.09048904	-0.4331152	0	0	-0.1417239	0.1260008
17.14921	-0.09048904	-0.4331152	0	0	0	0
17.16532	-0.09046295	-0.4331384	0.001620319	-0.001439461	0.04900853	-0.04353826
17.18189	-0.09046295	-0.4331384	0	0	-0.04958927	0.04405419
17.19846	-0.09046295	-0.4331384	0	0	0	0
17.21502	-0.09046295	-0.4331384	0	0	0	0
17.23159	-0.09046295	-0.4331384	0	0	0	0
17.24816	-0.09046295	-0.4331384	0	0	0	0
17.26476	-0.09048904	-0.4331152	-0.001571382	0.001395986	-0.04736714	0.04208009
17.28141	-0.09048904	-0.4331152	0	0	0.04725033	-0.04197631
17.29822	-0.09048904	-0.4331152	0	0	0	0
17.31442	-0.09051515	-0.433092	-0.001611811	0.001433334	-0.04883289	0.0434256
17.33122	-0.09051515	-0.433092	0	0	0.04884418	-0.04343564
17.34756	-0.09051515	-0.433092	0	0	0	0
17.36412	-0.09051515	-0.433092	0	0	0	0
17.38748	-0.09051515	-0.433092	0	0	0	0
17.40405	-0.09051515	-0.433092	0	0	0	0
17.42061	-0.09051515	-0.433092	0	0	0	0
17.43747	-0.09051515	-0.433092	0	0	0	0
17.45375	-0.09051515	-0.433092	0	0	0	0
17.47031	-0.09048904	-0.4331152	0.001575993	-0.001401482	0.04798062	-0.04266769
17.48716	-0.09048904	-0.4331152	0	0	-0.04717255	0.0419491
17.50359	-0.09048904	-0.4331152	0	0	0	0
17.52001	-0.09048904	-0.4331152	0	0	0	0
17.53681	-0.09048904	-0.4331152	0	0	0	0
17.5535	-0.09048904	-0.4331152	0	0	0	0
17.56971	-0.09048904	-0.4331152	0	0	0	0
17.58628	-0.09048904	-0.4331152	0	0	0	0
17.60313	-0.09048904	-0.4331152	0	0	0	0
17.61941	-0.09048904	-0.4331152	0	0	0	0
17.63598	-0.09048904	-0.4331152	0	0	0	0
17.65256	-0.09048904	-0.4331152	0	0	0	0
17.66911	-0.09048904	-0.4331152	0	0	0	0
17.68578	-0.09048904	-0.4331152	0	0	0	0
17.70275	-0.09048904	-0.4331152	0	0	0	0
17.71881	-0.09048904	-0.4331152	0	0	0	0
17.73597	-0.09048904	-0.4331152	0	0	0	0
17.75194	-0.09048904	-0.4331152	0	0	0	0
17.76851	-0.09048904	-0.4331152	0	0	0	0
17.78546	-0.09048904	-0.4331152	0	0	0	0
17.80164	-0.09048904	-0.4331152	0	0	0	0
17.81821	-0.09048904	-0.4331152	0	0	0	0
17.83512	-0.09048904	-0.4331152	0	0	0	0
17.85189	-0.09048904	-0.4331152	0	0	0	0
17.86792	-0.09046295	-0.4331384	0.001628418	-0.001446656	0.04965452	-0.04411215
17.88447	-0.09046295	-0.4331384	0	0	-0.04997716	0.04439878
17.90104	-0.09046295	-0.4331384	0	0	0	0
17.91761	-0.09046295	-0.4331384	0	0	0	0
17.93447	-0.09046295	-0.4331384	0	0	0	0
17.95074	-0.09046295	-0.4331384	0	0	0	0
17.96763	-0.09046295	-0.4331384	0	0	0	0
17.98388	-0.09046295	-0.4331384	0	0	0	0
18.00076	-0.09046295	-0.4331384	0	0	0	0
18.01701	-0.09043685	-0.4331616	0.001606056	-0.001428624	0.04847085	-0.04311595
18.03358	-0.09043685	-0.4331616	0	0	-0.04894134	0.04353446
18.05033	-0.09043685	-0.4331616	0	0	0	0
18.06671	-0.09043685	-0.4331616	0	0	0	0
18.08327	-0.09043685	-0.4331616	0	0	0	0
18.1004	-0.09043685	-0.4331616	0	0	0	0
18.11641	-0.09043685	-0.433208	0	-0.002898966	0	-0.08749601
18.13322	-0.09043685	-0.433208	0	0	0	0.08833507
18.14954	-0.09043685	-0.433208	0	0	0	0
18.16616	-0.09046295	-0.4331848	-0.00157048	0.001396979	-0.04767712	0.04240991
18.18267	-0.09046295	-0.4331848	0	0	0.04740264	-0.04216575
18.19924	-0.09046295	-0.4331848	0	0	0	0
18.21607	-0.09046295	-0.4331848	0	0	0	0
18.23237	-0.09046295	-0.4331848	0	0	0	0
18.24894	-0.09046295	-0.4331848	0	0	0	0
18.2661	-0.09046295	-0.4331848	0	0	0	0
18.28219	-0.09046295	-0.4331848	0	0	0	0
18.2987	-0.09046295	-0.4331848	0	0	0	0
18.3152	-0.09046295	-0.4331848	0	0	0	0
18.33177	-0.09046295	-0.4331848	0	0	0	0
18.3486	-0.09046295	-0.4331848	0	0	0	0
18.36521	-0.09046295	-0.4331848	0	0	0	0
18.38187	-0.09046295	-0.4331848	0	0	0	0
18.39834	-0.09046295	-0.4331848	0	0	0	0
18.4146	-0.09046295	-0.4331848	0	0	0	0
18.43158	-0.09046295	-0.4331848	0	0	0	0
18.44848	-0.09046295	-0.4331848	0	0	0	0
18.46431	-0.09046295	-0.4331848	0	0	0	0
18.48087	-0.09046295	-0.4331848	0	0	0	0
18.49771	-0.09046295	-0.4331848	0	0	0	0
18.51401	-0.09046295	-0.4331848	0	0	0	0
18.53058	-0.09046295	-0.4331848	0	0	0	0
18.54734	-0.09046295	-0.4331848	0	0	0	0
18.56371	-0.09046295	-0.4331848	0	0	0	0
18.58043	-0.09046295	-0.4331848	0	0	0	0
18.59696	-0.09046295	-0.4331848	0	0	0	0
18.61341	-0.09046295	-0.4331848	0	0	0	0
18.62997	-0.09046295	-0.4331848	0	0	0	0
18.64654	-0.09046295	-0.4331848	0	0	0	0
18.66313	-0.09046295	-0.4331848	0	0	0	0
18.67967	-0.09046295	-0.4331848	0	0	0	0
18.69662	-0.09046295	-0.4331848	0	0	0	0
18.71281	-0.09046295	-0.4331848	0	0	0	0
18.7294	-0.09046295	-0.4331848	0	0	0	0
18.74594	-0.09046295	-0.4331848	0	0	0	0
18.76274	-0.09046295	-0.4331848	0	0	0	0
18.77913	-0.09046295	-0.4331848	0	0	0	0
18.79572	-0.09046295	-0.4331848	0	0	0	0
18.81229	-0.09046295	-0.4331848	0	0	0	0
18.82878	-0.09046295	-0.4331848	0	0	0	0
18.84539	-0.09046295	-0.4331848	0	0	0	0
18.86191	-0.09046295	-0.4331848	0	0	0	0
18.87847	-0.09046295	-0.4331848	0	0	0	0
18.89515	-0.09046295	-0.4331848	0	0	0	0
18.9116	-0.09046295	-0.4331848	0	0	0	0
18.92817	-0.09046295	-0.4331848	0	0	0	0
18.94474	-0.09046295	-0.4331848	0	0	0	0
18.96328	-0.09046295	-0.4331848	0	0	0	0
18.98006	-0.09046295	-0.4331848	0	0	0	0
18.9966	-0.09046295	-0.4331848	0	0	0	0
19.01328	-0.09046295	-0.4331848	0	0	0	0
19.02958	-0.09046295	-0.4331848	0	0	0	0
19.04659	-0.09046295	-0.4331848	0	0	0	0
19.0628	-0.09046295	-0.4331848	0	0	0	0
19.07937	-0.09046295	-0.4331848	0	0	0	0
19.09593	-0.09046295	-0.4331848	0	0	0	0
19.1125	-0.09046295	-0.4331848	0	0	0	0
19.12907	-0.09046295	-0.4331848	0	0	0	0
19.14564	-0.09046295	-0.4331848	0	0	0	0
19.16243	-0.09046295	-0.4331848	0	0	0	0
19.1789	-0.09046295	-0.4331848	0	0	0	0
19.19542	-0.09046295	-0.4331848	0	0	0	0
19.2119	-0.09046295	-0.4331848	0	0	0	0
19.22847	-0.09046295	-0.4331848	0	0	0	0
19.24503	-0.09046295	-0.4331848	0	0	0	0
19.2616	-0.09046295	-0.4331848	0	0	0	0
19.27817	-0.09046295	-0.4331848	0	0	0	0
19.29473	-0.09046295	-0.4331848	0	0	0	0
19.3113	-0.09046295	-0.4331848	0	0	0	0
19.32787	-0.09046295	-0.4331848	0	0	0	0
19.34454	-0.09046295	-0.4331848	0	0	0	0
19.361	-0.09046295	-0.4331848	0	0	0	0
19.37757	-0.09046295	-0.4331848	0	0	0	0
19.39413	-0.09046295	-0.4331848	0	0	0	0
19.4107	-0.09046295	-0.4331848	0	0	0	0
19.42738	-0.09046295	-0.4331848	0	0	0	0
19.44392	-0.09046295	-0.4331848	0	0	0	0
19.46046	-0.09046295	-0.4331848	0	0	0	0
19.47697	-0.09046295	-0.4331848	0	0	0	0
19.49386	-0.09046295	-0.4331848	0	0	0	0
19.5101	-0.09043685	-0.4331616	0.00160681	0.00142746	0.04849641	0.04308331
19.52717	-0.09043685	-0.4331616	0	0	-0.04824092	-0.04285634
19.54339	-0.09043685	-0.4331616	0	0	0	0
19.5598	-0.09046295	-0.4331848	-0.001589637	-0.001412204	-0.04870712	-0.0432705
19.57637	-0.09046295	-0.4331848	0	0	0.04819172	0.04281262
19.59294	-0.09046295	-0.4331848	0	0	0	0
19.6095	-0.09046295	-0.4331848	0	0	0	0
19.62607	-0.09046295	-0.4331848	0	0	0	0
19.64264	-0.09046295	-0.4331848	0	0	0	0
19.65921	-0.09043685	-0.4331616	0.001574818	0.001399039	0.0475199	0.04221579
19.67627	-0.09043685	-0.4331616	0	0	-0.04682991	-0.04160282
19.69234	-0.09043685	-0.4331616	0	0	0	0
19.7089	-0.09043685	-0.4331616	0	0	0	0
19.72547	-0.09043685	-0.4331616	0	0	0	0
19.74286	-0.09043685	-0.4331616	0	0	0	0
19.77763	-0.09046295	-0.4331848	-0.0007506497	-0.0006668632	-0.01439332	-0.01278676
19.79428	-0.09046295	-0.4331848	0	0	0.01459672	0.01296745
19.81093	-0.09046295	-0.4331848	0	0	0	0
19.87836	-0.09046295	-0.4331848	0	0	0	0
19.89494	-0.09046295	-0.4331848	0	0	0	0
19.9115	-0.09046295	-0.4331848	0	0	0	0
19.92812	-0.09046295	-0.4331848	0	0	0	0
19.94463	-0.09046295	-0.4331848	0	0	0	0
19.9612	-0.09046295	-0.4331848	0	0	0	0
19.97813	-0.09046295	-0.4331848	0	0	0	0
19.99464	-0.09046295	-0.4331848	0	0	0	0
20.0109	-0.09046295	-0.4331848	0	0	0	0
20.02747	-0.09046295	-0.4331848	0	0	0	0
20.04404	-0.09046295	-0.4331848	0	0	0	0
20.0606	-0.09046295	-0.4331848	0	0	0	0
20.07739	-0.09046295	-0.4331848	0	0	0	0
20.09374	-0.09046295	-0.4331848	0	0	0	0
20.1103	-0.09046295	-0.4331848	0	0	0	0
20.12687	-0.09046295	-0.4331848	0	0	0	0
20.14395	-0.09046295	-0.4331848	0	0	0	0
20.16012	-0.09046295	-0.4331848	0	0	0	0
20.17657	-0.09046295	-0.4331848	0	0	0	0
20.19349	-0.09046295	-0.4331848	0	0	0	0
20.21001	-0.09046295	-0.4331848	0	0	0	0
20.22627	-0.09046295	-0.4331848	0	0	0	0
20.24304	-0.09046295	-0.4331848	0	0	0	0
20.25962	-0.09046295	-0.4331848	0	0	0	0
20.27617	-0.09046295	-0.4331848	0	0	0	0
20.29277	-0.09046295	-0.4331848	0	0	0	0
20.3091	-0.09046295	-0.4331848	0	0	0	0
20.32619	-0.09046295	-0.4331848	0	0	0	0
20.34226	-0.09046295	-0.4331848	0	0	0	0
20.35883	-0.09046295	-0.4331848	0	0	0	0
20.37544	-0.09046295	-0.4331848	0	0	0	0
20.39194	-0.09046295	-0.4331848	0	0	0	0
20.4085	-0.09046295	-0.4331848	0	0	0	0
20.42507	-0.09046295	-0.4331848	0	0	0	0
20.44189	-0.09046295	-0.4331848	0	0	0	0
20.4582	-0.09046295	-0.4331848	0	0	0	0
20.47477	-0.09046295	-0.4331848	0	0	0	0
20.49152	-0.09046295	-0.4331848	0	0	0	0
20.5079	-0.09046295	-0.4331848	0	0	0	0
20.52447	-0.09046295	-0.4331848	0	0	0	0
20.54162	-0.09046295	-0.4331848	0	0	0	0
20.55761	-0.09046295	-0.4331848	0	0	0	0
20.57417	-0.09046295	-0.4331848	0	0	0	0
20.59092	-0.09046295	-0.4331848	0	0	0	0
20.6077	-0.09046295	-0.4331848	0	0	0	0
20.62427	-0.09046295	-0.4331848	0	0	0	0
20.64113	-0.09046295	-0.4331848	0	0	0	0
20.6574	-0.09046295	-0.4331848	0	0	0	0
20.67397	-0.09046295	-0.4331848	0	0	0	0
20.69053	-0.09046295	-0.4331848	0	0	0	0
20.70723	-0.09046295	-0.4331848	0	0	0	0
20.72367	-0.09046295	-0.4331848	0	0	0	0
20.74024	-0.09046295	-0.4331848	0	0	0	0
20.75681	-0.09046295	-0.4331848	0	0	0	0
20.77337	-0.09046295	-0.4331848	0	0	0	0
20.78994	-0.09046295	-0.4331848	0	0	0	0
20.80656	-0.09046295	-0.4331848	0	0	0	0
20.82307	-0.09046295	-0.4331848	0	0	0	0
20.8403	-0.09046295	-0.4331848	0	0	0	0
20.8562	-0.09048904	-0.433208	-0.001641309	-0.001459983	-0.04953766	-0.0440649
20.87277	-0.09048904	-0.433208	0	0	0.05055035	0.04496571
20.88934	-0.09048904	-0.433208	0	0	0	0
20.9059	-0.09048904	-0.433208	0	0	0	0
20.92247	-0.09048904	-0.433208	0	0	0	0
20.93976	-0.09048904	-0.433208	0	0	0	0
20.95605	-0.09048904	-0.433208	0	0	0	0
20.97217	-0.09048904	-0.433208	0	0	0	0
20.98874	-0.09048904	-0.433208	0	0	0	0
21.0053	-0.09048904	-0.433208	0	0	0	0
21.02205	-0.09048904	-0.433208	0	0	0	0
21.03844	-0.09048904	-0.433208	0	0	0	0
21.055	-0.09048904	-0.433208	0	0	0	0
21.07195	-0.09048904	-0.433208	0	0	0	0
21.08814	-0.09048904	-0.433208	0	0	0	0
21.10471	-0.09048904	-0.433208	0	0	0	0
21.1214	-0.09048904	-0.433208	0	0	0	0
21.13798	-0.09048904	-0.433208	0	0	0	0
21.1544	-0.09051515	-0.4332312	-0.001589352	-0.001411548	-0.04816359	-0.04277543
21.17136	-0.09051515	-0.4332312	0	0	0.04760502	0.04227934
21.18754	-0.09051515	-0.4332312	0	0	0	0
21.2041	-0.09051515	-0.4332776	0	-0.002802965	0	-0.08561379
21.22067	-0.09051515	-0.4332776	0	0	0	0.08459365
21.23724	-0.09051515	-0.4332776	0	0	0	0
21.25381	-0.09051515	-0.4332776	0	0	0	0
21.27056	-0.09051515	-0.4332776	0	0	0	0
21.28694	-0.09051515	-0.4332776	0	0	0	0
21.30367	-0.09051515	-0.4332776	0	0	0	0
21.32082	-0.09051515	-0.4332776	0	0	0	0
21.33693	-0.09051515	-0.4332776	0	0	0	0
21.35408	-0.09051515	-0.4332776	0	0	0	0
21.36977	-0.09051515	-0.4332776	0	0	0	0
21.38634	-0.09051515	-0.4332776	0	0	0	0
21.4144	-0.09051515	-0.4332776	0	0	0	0
21.43097	-0.09051515	-0.4332776	0	0	0	0
21.44789	-0.09051515	-0.4332776	0	0	0	0
21.46413	-0.09051515	-0.4332776	0	0	0	0
21.48113	-0.09051515	-0.4332776	0	0	0	0
21.49735	-0.09051515	-0.4332776	0	0	0	0
21.51399	-0.09051515	-0.4332776	0	0	0	0
21.53043	-0.09051515	-0.4332776	0	0	0	0
21.54693	-0.09054125	-0.4332544	-0.001581187	0.001406503	-0.04799661	0.0426941
21.5635	-0.09054125	-0.4332544	0	0	0.04780563	-0.04252422
21.58007	-0.09054125	-0.4332544	0	0	0	0
21.59663	-0.09054125	-0.4332544	0	0	0	0
21.6132	-0.09054125	-0.4332544	0	0	0	0
21.6301	-0.09054125	-0.4332544	0	0	0	0
21.64634	-0.09054125	-0.4332544	0	0	0	0
21.6629	-0.09054125	-0.4332544	0	0	0	0
21.67954	-0.09054125	-0.4332544	0	0	0	0
21.69603	-0.09054125	-0.4332544	0	0	0	0
21.7126	-0.09054125	-0.4332544	0	0	0	0
21.72917	-0.09054125	-0.4332544	0	0	0	0
21.74576	-0.09054125	-0.4332544	0	0	0	0
21.76231	-0.09054125	-0.4332544	0	0	0	0
21.77887	-0.09054125	-0.4332544	0	0	0	0
21.79544	-0.09054125	-0.4332544	0	0	0	0
21.81201	-0.09054125	-0.4332544	0	0	0	0
21.82858	-0.09054125	-0.4332544	0	0	0	0
21.84514	-0.09054125	-0.4332544	0	0	0	0
21.86171	-0.09054125	-0.4332544	0	0	0	0
21.87832	-0.09054125	-0.4332544	0	0	0	0
21.89484	-0.09054125	-0.4332544	0	0	0	0
21.91141	-0.09054125	-0.4332544	0	0	0	0
21.92798	-0.09054125	-0.4332544	0	0	0	0
21.94454	-0.09056735	-0.4332776	-0.001575725	-0.001401644	-0.04756095	-0.04230656
21.96111	-0.09056735	-0.4332776	0	0	0.04756095	0.04230656
21.97784	-0.09056735	-0.4332776	0	0	0	0
21.99424	-0.09056735	-0.433324	0	-0.00282951	0	-0.08539969
22.01081	-0.09056735	-0.433324	0	0	0	0.08583452
22.02737	-0.09056735	-0.433324	0	0	0	0
22.04415	-0.09069785	-0.43344	-0.00777742	-0.006914644	-0.2332328	-0.2073594
22.06051	-0.09069785	-0.43344	0	0	0.2347095	0.2086724
22.07708	-0.09069785	-0.43344	0	0	0	0
22.09382	-0.09080225	-0.4335329	-0.006235139	-0.005544125	-0.1871855	-0.1664406
22.11031	-0.09080225	-0.4335329	0	0	0.1876153	0.1668227
22.12736	-0.09080225	-0.4335329	0	0	0	0
22.14334	-0.09080225	-0.4337186	0	-0.01161945	0	-0.3517692
22.15991	-0.09080225	-0.4337186	0	0	0	0.3569635
22.17648	-0.09080225	-0.4337186	0	0	0	0
22.19304	-0.0881917	-0.4362276	0.1576098	-0.1514819	4.757221	-4.572259
22.21713	-0.0881917	-0.4362276	0	0	-3.877296	3.726546
22.2337	-0.0881917	-0.4362276	0	0	0	0
22.25026	-0.0875911	-0.436809	0.03625639	-0.03509823	1.09422	-1.059267
22.26683	-0.0875911	-0.436809	0	0	-1.094283	1.059328
22.28339	-0.0875911	-0.436809	0	0	0	0
22.29996	-0.0875911	-0.436809	0	0	0	0
22.31653	-0.0875911	-0.436809	0	0	0	0
22.33375	-0.0875911	-0.436809	0	0	0	0
22.34966	-0.08761721	-0.4368323	-0.001641065	-0.001460805	-0.04953029	-0.04408973
22.36625	-0.08761721	-0.4368323	0	0	0.05049538	0.04494881
22.38287	-0.08761721	-0.4368323	0	0	0	0
22.39936	-0.08787835	-0.4371115	-0.01583875	-0.01693371	-0.4783448	-0.5114137
22.41593	-0.08787835	-0.4371115	0	0	0.4791176	0.5122399
22.4325	-0.08787835	-0.4371115	0	0	0	0
22.44906	-0.09995525	-0.4479706	-0.7292154	-0.6556832	-22.01283	-19.79311
22.46563	-0.09995525	-0.4479706	0	0	22.00903	19.7897
22.48219	-0.09995525	-0.4479706	0	0	0	0
22.49876	-0.1392508	-0.4838892	-2.372157	-2.168302	-71.60009	-65.44702
22.51533	-0.1392508	-0.4838892	0	0	71.59184	65.43948
22.5319	-0.1392508	-0.4838892	0	0	0	0
22.54846	-0.1814556	-0.5240729	-2.547484	-2.425493	-76.88322	-73.20151
22.56503	-0.1814556	-0.5240729	0	0	76.88322	73.20151
22.5816	-0.1814556	-0.5240729	0	0	0	0
22.59816	-0.2003796	-0.5426521	-1.142389	-1.121575	-34.47935	-33.85114
22.61473	-0.2003796	-0.5426521	0	0	34.47737	33.84919
22.63133	-0.2003796	-0.5426521	0	0	0	0
22.64786	-0.2003038	-0.5425264	0.004586891	0.007608758	0.1384486	0.2296592
22.66443	-0.2003038	-0.5425264	0	0	-0.1385922	-0.2298975
22.681	-0.2003038	-0.5425264	0	0	0	0
22.69756	-0.2002785	-0.5425012	0.001525619	0.001518423	0.04604592	0.04582872
22.71413	-0.2002785	-0.5425012	0	0	-0.04604327	-0.04582608
22.7311	-0.2002785	-0.5425012	0	0	0	0
22.74726	-0.2002785	-0.5425012	0	0	0	0
22.76423	-0.2002785	-0.5425012	0	0	0	0
22.78085	-0.2002785	-0.5425012	0	0	0	0
22.79696	-0.2002785	-0.5425012	0	0	0	0
22.81379	-0.2002785	-0.5425012	0	0	0	0
22.8301	-0.2002785	-0.5425012	0	0	0	0
22.84666	-0.2002785	-0.5425012	0	0	0	0
22.86323	-0.2002785	-0.5425012	0	0	0	0
22.8798	-0.2002785	-0.5425012	0	0	0	0
22.89636	-0.2002532	-0.5424761	0.001525443	0.001518248	0.04604062	0.04582345
22.91293	-0.2002532	-0.5424761	0	0	-0.04603797	-0.04582081
22.9295	-0.2002532	-0.5424761	0	0	0	0
22.94606	-0.2001269	-0.5423503	0.007629872	0.007592987	0.2302833	0.22917
22.96263	-0.2001269	-0.5423503	0	0	-0.2302965	-0.2291832
22.9793	-0.2001269	-0.5423503	0	0	0	0
23.00053	-0.2001016	-0.5423251	0.001190476	0.001184861	0.0314118	0.03126363
23.01737	-0.2001016	-0.5423251	0	0	-0.03126859	-0.0311211
23.03366	-0.2001016	-0.5423251	0	0	0	0
23.0508	-0.2001016	-0.5423251	0	0	0	0
23.0668	-0.2001016	-0.5423251	0	0	0	0
23.08336	-0.2001016	-0.5423251	0	0	0	0
23.10078	-0.2001016	-0.5423251	0	0	0	0
23.11689	-0.2001016	-0.5423251	0	0	0	0
23.13307	-0.2001016	-0.5423251	0	0	0	0
23.14964	-0.2001016	-0.5423251	0	0	0	0
23.1662	-0.2001016	-0.5423251	0	0	0	0
23.18277	-0.2000763	-0.5423	0.001526694	0.001518597	0.04608103	0.04583664
23.19982	-0.2000763	-0.5423	0	0	-0.04541175	-0.04517091
23.2159	-0.2000763	-0.5423	0	0	0	0
23.23247	-0.2000763	-0.5423	0	0	0	0
23.24903	-0.2000763	-0.5423	0	0	0	0
23.26571	-0.2000763	-0.5423	0	0	0	0
23.28218	-0.2000763	-0.5423	0	0	0	0
23.29873	-0.2000763	-0.5423	0	0	0	0
23.31533	-0.2000763	-0.5423	0	0	0	0
23.33187	-0.2000763	-0.5423	0	0	0	0
23.34843	-0.2000763	-0.5423	0	0	0	0
23.365	-0.2000763	-0.5423	0	0	0	0
23.38157	-0.2000763	-0.5423	0	0	0	0
23.39814	-0.2000763	-0.5423	0	0	0	0
23.4147	-0.2000763	-0.5423	0	0	0	0
23.43126	-0.2000763	-0.5423	0	0	0	0
23.44783	-0.2000763	-0.5423	0	0	0	0
23.4644	-0.2000763	-0.5423	0	0	0	0
23.48114	-0.2000763	-0.5423	0	0	0	0
23.49753	-0.2000763	-0.5423	0	0	0	0
23.5141	-0.2000763	-0.5423	0	0	0	0
23.53071	-0.2000763	-0.5423	0	0	0	0
23.54723	-0.2000763	-0.5423	0	0	0	0
23.56458	-0.2000763	-0.5423	0	0	0	0
23.58037	-0.2000763	-0.5423	0	0	0	0
23.59694	-0.2000763	-0.5423	0	0	0	0
23.6135	-0.2000763	-0.5423	0	0	0	0
23.63007	-0.2000763	-0.5423	0	0	0	0
23.64664	-0.2000763	-0.5423	0	0	0	0
23.6632	-0.2000763	-0.5423	0	0	0	0
23.67977	-0.2000763	-0.5423	0	0	0	0
23.69633	-0.2000763	-0.5423	0	0	0	0
23.7129	-0.2000763	-0.5423	0	0	0	0
23.72947	-0.2000763	-0.5423	0	0	0	0
23.74604	-0.2000763	-0.5423	0	0	0	0
23.76272	-0.2000763	-0.5423	0	0	0	0
23.77929	-0.2000763	-0.5423	0	0	0	0
23.79573	-0.2000763	-0.5423	0	0	0	0
23.81233	-0.2000763	-0.5423	0	0	0	0
23.82887	-0.2000763	-0.5423	0	0	0	0
23.84551	-0.2000763	-0.5423	0	0	0	0
23.86248	-0.2000763	-0.5423	0	0	0	0
23.87857	-0.2000763	-0.5423	0	0	0	0
23.89514	-0.2000763	-0.5423	0	0	0	0
23.91171	-0.2000763	-0.5423	0	0	0	0
23.92827	-0.2000763	-0.5423	0	0	0	0
23.94517	-0.2000763	-0.5423	0	0	0	0
23.96155	-0.2000763	-0.5423	0	0	0	0
23.97797	-0.2000763	-0.5423	0	0	0	0
23.99475	-0.2000763	-0.5423	0	0	0	0
24.0111	-0.2000763	-0.5423	0	0	0	0
24.02797	-0.2000763	-0.5423	0	0	0	0
24.04424	-0.2000763	-0.5423	0	0	0	0
24.06091	-0.2000763	-0.5423	0	0	0	0
24.07739	-0.2000763	-0.5423	0	0	0	0
24.09394	-0.2000763	-0.5423	0	0	0	0
24.11088	-0.2000763	-0.5423	0	0	0	0
24.12707	-0.2000763	-0.5422497	0	0.00310623	0	0.09375161
24.14384	-0.2000763	-0.5422497	0	0	0	-0.09424532
24.16021	-0.2000763	-0.5422497	0	0	0	0
24.17677	-0.2000763	-0.5421994	0	0.003036845	0	0.09220417
24.19374	-0.2000763	-0.5421994	0	0	0	-0.09055747
24.20991	-0.2000763	-0.5421994	0	0	0	0
24.22647	-0.2000763	-0.5420988	0	0.006072991	0	0.1855368
24.24304	-0.2000763	-0.5420988	0	0	0	-0.1832938
24.25961	-0.2000763	-0.5420988	0	0	0	0
24.27617	-0.2000763	-0.5420485	0	0.003032898	0	0.09153304
24.29274	-0.2000763	-0.5420485	0	0	0	-0.09153304
24.30966	-0.2000763	-0.5420485	0	0	0	0
24.32588	-0.200051	-0.5420234	0.00155809	0.001550741	0.04702055	0.04679875
24.34244	-0.200051	-0.5420234	0	0	-0.04752112	-0.04729696
24.35901	-0.200051	-0.5420234	0	0	0	0
24.37557	-0.200051	-0.5420234	0	0	0	0
24.39214	-0.200051	-0.5420234	0	0	0	0
24.40907	-0.200051	-0.5420234	0	0	0	0
24.42528	-0.200051	-0.5420234	0	0	0	0
24.44185	-0.200051	-0.5420234	0	0	0	0
24.45858	-0.200051	-0.5420234	0	0	0	0
24.47497	-0.200051	-0.5420234	0	0	0	0
24.49176	-0.200051	-0.5420234	0	0	0	0
24.50811	-0.200051	-0.5420234	0	0	0	0
24.52468	-0.200051	-0.5420234	0	0	0	0
24.54124	-0.200051	-0.5420234	0	0	0	0
24.55781	-0.200051	-0.5420234	0	0	0	0
24.57438	-0.200051	-0.5420234	0	0	0	0
24.59094	-0.200051	-0.5420234	0	0	0	0
24.60751	-0.200051	-0.5420234	0	0	0	0
24.62407	-0.200051	-0.5420234	0	0	0	0
24.64064	-0.200051	-0.5420234	0	0	0	0
24.65721	-0.200051	-0.5420234	0	0	0	0
24.67387	-0.200051	-0.5420234	0	0	0	0
24.69034	-0.200051	-0.5420234	0	0	0	0
24.70691	-0.200051	-0.5420234	0	0	0	0
24.72348	-0.200051	-0.5420234	0	0	0	0
24.74005	-0.200051	-0.5420234	0	0	0	0
24.75661	-0.200051	-0.5420234	0	0	0	0
24.77318	-0.2000258	-0.5419982	0.001525443	0.001518248	0.04603797	0.04582081
24.78975	-0.2000258	-0.5419982	0	0	-0.04603797	-0.04582081
24.80632	-0.2000258	-0.5419982	0	0	0	0
24.82288	-0.2000258	-0.5419982	0	0	0	0
24.84027	-0.2000258	-0.5419982	0	0	0	0
24.85602	-0.2000258	-0.5419982	0	0	0	0
24.87258	-0.200051	-0.5419731	-0.001525795	0.001518597	-0.04722568	0.04700292
24.88915	-0.200051	-0.5419731	0	0	0.04605122	-0.045834
24.9061	-0.200051	-0.5419731	0	0	0	0
24.92228	-0.2000258	-0.5419479	0.001562132	0.001554763	0.04714794	0.04692554
24.93885	-0.2000258	-0.5419479	0	0	-0.0476971	-0.04747211
24.95542	-0.2000258	-0.5419479	0	0	0	0
24.97461	-0.2000005	-0.5418725	0.001317612	0.003928767	0.03684703	0.109868
24.99118	-0.2000005	-0.5418725	0	0	-0.03684507	-0.1098621
25.00825	-0.2000005	-0.5418725	0	0	0	0
25.02431	-0.1999752	-0.5418473	0.001573261	0.00156584	0.04748383	0.04725985
25.04088	-0.1999752	-0.5418473	0	0	-0.04821098	-0.04798357
25.05817	-0.1999752	-0.5418473	0	0	0	0
25.07414	-0.1999499	-0.5418222	0.00158209	0.001574627	0.04756684	0.04734247
25.09058	-0.1999499	-0.5418222	0	0	-0.04880961	-0.04857938
25.10715	-0.1999499	-0.5418222	0	0	0	0
25.12372	-0.1999246	-0.5417971	0.001526343	0.00151465	0.04606511	0.04571223
25.14029	-0.1999246	-0.5417971	0	0	-0.04606511	-0.04571223
25.15685	-0.1999246	-0.5417971	0	0	0	0
25.17377	-0.1999246	-0.5417971	0	0	0	0
25.18999	-0.1999246	-0.5417971	0	0	0	0
25.20687	-0.1999246	-0.5417971	0	0	0	0
25.22312	-0.1999246	-0.5417971	0	0	0	0
25.23969	-0.1999246	-0.5417971	0	0	0	0
25.25668	-0.1999246	-0.5417971	0	0	0	0
25.27282	-0.1998741	-0.5418473	0.003132018	-0.00311355	0.09452992	-0.09397255
25.28939	-0.1998741	-0.5418473	0	0	-0.09576481	0.09520016
25.30634	-0.1998741	-0.5418473	0	0	0	0
25.32252	-0.1998741	-0.5418473	0	0	0	0
25.33909	-0.1998741	-0.5418473	0	0	0	0
25.35646	-0.1998741	-0.5418473	0	0	0	0
25.3819	-0.1998741	-0.5418473	0	0	0	0
25.39855	-0.1998741	-0.5418473	0	0	0	0
25.41503	-0.1998741	-0.5418473	0	0	0	0
25.4316	-0.1998741	-0.5418473	0	0	0	0
25.44817	-0.1998741	-0.5418473	0	0	0	0
25.46474	-0.1998741	-0.5418473	0	0	0	0
25.4813	-0.1998741	-0.5418473	0	0	0	0
25.49787	-0.1998741	-0.5418473	0	0	0	0
25.51443	-0.1998741	-0.5418473	0	0	0	0
25.531	-0.1998741	-0.5418473	0	0	0	0
25.54757	-0.1998741	-0.5418473	0	0	0	0
25.56414	-0.1998741	-0.5418473	0	0	0	0
25.58071	-0.1998741	-0.5418473	0	0	0	0
25.59733	-0.1998741	-0.5418473	0	0	0	0
25.61439	-0.1998741	-0.5418473	0	0	0	0
25.63041	-0.1998741	-0.5418473	0	0	0	0
25.64697	-0.1998741	-0.5418473	0	0	0	0
25.66354	-0.1998741	-0.5418473	0	0	0	0
25.68011	-0.1998741	-0.5418473	0	0	0	0
25.69667	-0.1998741	-0.5418473	0	0	0	0
25.71324	-0.1998741	-0.5418473	0	0	0	0
25.72981	-0.1998741	-0.5418473	0	0	0	0
25.74663	-0.1998741	-0.5418473	0	0	0	0
25.76317	-0.1998741	-0.5418473	0	0	0	0
25.77978	-0.1998741	-0.5418473	0	0	0	0
25.79608	-0.1998741	-0.5418473	0	0	0	0
25.81282	-0.1998488	-0.5418725	0.001510173	-0.001502164	0.04570868	-0.04546627
25.82921	-0.1998488	-0.5418725	0	0	-0.04557712	0.04533541
25.84578	-0.1998488	-0.5418725	0	0	0	0
25.86234	-0.1998741	-0.5418977	-0.001526518	-0.001518423	-0.04607307	-0.04582872
25.87891	-0.1998741	-0.5418977	0	0	0.04607307	0.04582872
25.89548	-0.1998741	-0.5418977	0	0	0	0
25.91204	-0.1998741	-0.5418977	0	0	0	0
25.92861	-0.1998741	-0.5418977	0	0	0	0
25.94541	-0.1998741	-0.5418977	0	0	0	0
25.96196	-0.1998741	-0.5418977	0	0	0	0
25.97831	-0.1998741	-0.5418977	0	0	0	0
25.99488	-0.1998741	-0.5418977	0	0	0	0
26.01144	-0.1998741	-0.5418977	0	0	0	0
26.02801	-0.1998741	-0.5418977	0	0	0	0
26.04458	-0.1998741	-0.5418977	0	0	0	0
26.06115	-0.1998741	-0.5418977	0	0	0	0
26.07771	-0.1998741	-0.5418977	0	0	0	0
26.09428	-0.1998741	-0.5418977	0	0	0	0
26.11085	-0.1998741	-0.5418977	0	0	0	0
26.12746	-0.1998741	-0.5418977	0	0	0	0
26.14398	-0.1998741	-0.5418977	0	0	0	0
26.16064	-0.1998741	-0.5418977	0	0	0	0
26.17711	-0.1998741	-0.5418977	0	0	0	0
26.19368	-0.1998741	-0.5418977	0	0	0	0
26.21025	-0.1998741	-0.5418977	0	0	0	0
26.22681	-0.1998741	-0.5418977	0	0	0	0
26.24338	-0.1998741	-0.5418977	0	0	0	0
26.26032	-0.1998741	-0.5418977	0	0	0	0
26.27657	-0.1998741	-0.5418977	0	0	0	0
26.29308	-0.1998741	-0.5418977	0	0	0	0
26.30965	-0.1998741	-0.5418977	0	0	0	0
26.32636	-0.1998741	-0.5418977	0	0	0	0
26.34278	-0.1998741	-0.5418977	0	0	0	0
26.35936	-0.1998741	-0.5418977	0	0	0	0
26.37591	-0.1998741	-0.5418977	0	0	0	0
26.39248	-0.1998741	-0.5418977	0	0	0	0
26.40905	-0.1998741	-0.5418977	0	0	0	0
26.42562	-0.1998741	-0.5418977	0	0	0	0
26.44218	-0.1998741	-0.5418977	0	0	0	0
26.45875	-0.1998741	-0.5418977	0	0	0	0
26.47561	-0.1998741	-0.5418977	0	0	0	0
26.49188	-0.1998741	-0.5418977	0	0	0	0
26.50871	-0.1998741	-0.5418977	0	0	0	0
26.52502	-0.1998741	-0.5418977	0	0	0	0
26.54158	-0.1998741	-0.5418977	0	0	0	0
26.55815	-0.1998741	-0.5418977	0	0	0	0
26.57502	-0.1998741	-0.5418977	0	0	0	0
26.59156	-0.1998741	-0.5418977	0	0	0	0
26.60785	-0.1998741	-0.5418977	0	0	0	0
26.62442	-0.1998741	-0.5418977	0	0	0	0
26.69656	-0.1998741	-0.5418977	0	0	0	0
26.71326	-0.1998741	-0.5418977	0	0	0	0
26.72979	-0.1998741	-0.5418977	0	0	0	0
26.74627	-0.1998741	-0.5418977	0	0	0	0
26.76283	-0.1998741	-0.5418977	0	0	0	0
26.7794	-0.1998741	-0.5418977	0	0	0	0
26.79629	-0.1998741	-0.5418977	0	0	0	0
26.81253	-0.1998741	-0.5418977	0	0	0	0
26.8291	-0.1998741	-0.5418977	0	0	0	0
26.84609	-0.1998741	-0.5418977	0	0	0	0
26.86223	-0.1998994	-0.5418725	-0.001565639	0.001558254	-0.04725379	0.04703089
26.8788	-0.1998994	-0.5418725	0	0	0.0478683	-0.0476425
26.89597	-0.1998994	-0.5418725	0	0	0	0
26.91193	-0.1998994	-0.5418725	0	0	0	0
26.92871	-0.1998994	-0.5418725	0	0	0	0
26.94506	-0.1998994	-0.5418725	0	0	0	0
26.96163	-0.1998994	-0.5418725	0	0	0	0
26.97839	-0.1998994	-0.5418725	0	0	0	0
26.99508	-0.1998994	-0.5418725	0	0	0	0
27.01133	-0.1998994	-0.5418725	0	0	0	0
27.02921	-0.1998994	-0.5418725	0	0	0	0
27.04578	-0.1998994	-0.5418725	0	0	0	0
27.06234	-0.1998994	-0.5418725	0	0	0	0
27.07891	-0.1998994	-0.5418725	0	0	0	0
27.09548	-0.1998994	-0.5418725	0	0	0	0
27.11204	-0.1998994	-0.5418725	0	0	0	0
27.12861	-0.1998994	-0.5418725	0	0	0	0
27.14534	-0.1998994	-0.5418725	0	0	0	0
27.16174	-0.1998994	-0.5418725	0	0	0	0
27.17831	-0.1998994	-0.5418725	0	0	0	0
27.19487	-0.1998994	-0.5418725	0	0	0	0
27.21144	-0.1998994	-0.5418725	0	0	0	0
27.22801	-0.1998994	-0.5418725	0	0	0	0
27.24458	-0.1998994	-0.5418725	0	0	0	0
27.26114	-0.1998994	-0.5418725	0	0	0	0
27.27771	-0.1998994	-0.5418725	0	0	0	0
27.29468	-0.1998994	-0.5418725	0	0	0	0
27.31104	-0.1998994	-0.5418725	0	0	0	0
27.32741	-0.1998994	-0.5418725	0	0	0	0
27.34398	-0.1998994	-0.5418725	0	0	0	0
27.36054	-0.1998994	-0.5418725	0	0	0	0
27.37744	-0.1998994	-0.5418725	0	0	0	0
27.39373	-0.1998994	-0.5418725	0	0	0	0
27.41025	-0.1998994	-0.5418725	0	0	0	0
27.42681	-0.1998994	-0.5418725	0	0	0	0
27.44342	-0.1998994	-0.5418725	0	0	0	0
27.45994	-0.1998994	-0.5418725	0	0	0	0
27.47651	-0.1998994	-0.5418725	0	0	0	0
27.49393	-0.1998994	-0.5418725	0	0	0	0
27.50964	-0.1998994	-0.5418725	0	0	0	0
27.52621	-0.1998994	-0.5418725	0	0	0	0
27.54298	-0.1998994	-0.5418725	0	0	0	0
27.55934	-0.1998994	-0.5418725	0	0	0	0
27.57591	-0.1998994	-0.5418725	0	0	0	0
27.59248	-0.1998994	-0.5418725	0	0	0	0
27.60904	-0.1998994	-0.5418725	0	0	0	0
27.6259	-0.1998994	-0.5418725	0	0	0	0
27.64244	-0.1998994	-0.5418725	0	0	0	0
27.65893	-0.1998994	-0.5418725	0	0	0	0
27.67543	-0.1998994	-0.5418725	0	0	0	0
27.69188	-0.1998994	-0.5418725	0	0	0	0
27.70856	-0.1998994	-0.5418725	0	0	0	0
27.72501	-0.1998994	-0.5418725	0	0	0	0
27.74158	-0.1998994	-0.5418725	0	0	0	0
27.75814	-0.1998994	-0.5418725	0	0	0	0
27.7749	-0.1998994	-0.5418725	0	0	0	0
27.79139	-0.1998994	-0.5418725	0	0	0	0
27.81178	-0.1998994	-0.5418725	0	0	0	0
27.82837	-0.1998994	-0.5418725	0	0	0	0
27.84497	-0.1998994	-0.5418725	0	0	0	0
27.86149	-0.1998994	-0.5418725	0	0	0	0
27.87886	-0.1998994	-0.5418725	0	0	0	0
27.8954	-0.1998994	-0.5418725	0	0	0	0
27.91146	-0.1998994	-0.5418725	0	0	0	0
27.92776	-0.1998994	-0.5418725	0	0	0	0
27.9445	-0.1998994	-0.5418725	0	0	0	0
27.96089	-0.1998994	-0.5418725	0	0	0	0
27.97798	-0.1998994	-0.5418725	0	0	0	0
27.99402	-0.1998994	-0.5418725	0	0	0	0
28.01059	-0.1998994	-0.5418725	0	0	0	0
28.02715	-0.1998994	-0.5418725	0	0	0	0
28.04372	-0.1998994	-0.5418725	0	0	0	0
28.06029	-0.1998994	-0.5418725	0	0	0	0
28.07686	-0.1998994	-0.5418725	0	0	0	0
28.09361	-0.1998994	-0.5418725	0	0	0	0
28.10999	-0.1998994	-0.5418725	0	0	0	0
28.12655	-0.1998994	-0.5418725	0	0	0	0
28.14312	-0.1998994	-0.5418725	0	0	0	0
28.15969	-0.1998994	-0.5418725	0	0	0	0
28.17639	-0.1998994	-0.5418725	0	0	0	0
28.19282	-0.1998994	-0.5418725	0	0	0	0
28.20947	-0.1998994	-0.5418725	0	0	0	0
28.22595	-0.1998994	-0.5418725	0	0	0	0
28.24252	-0.1998994	-0.5418725	0	0	0	0
28.25909	-0.1998994	-0.5418725	0	0	0	0
28.27565	-0.1998994	-0.5418725	0	0	0	0
28.29222	-0.1998994	-0.5418725	0	0	0	0
28.30879	-0.1998994	-0.5418725	0	0	0	0
28.32546	-0.1998994	-0.5418725	0	0	0	0
28.34205	-0.1998994	-0.5418725	0	0	0	0
28.35851	-0.1998994	-0.5418725	0	0	0	0
28.37506	-0.1998994	-0.5418725	0	0	0	0
28.39162	-0.1998994	-0.5418725	0	0	0	0
28.40819	-0.1998994	-0.5418725	0	0	0	0
28.42476	-0.1998994	-0.5418725	0	0	0	0
28.44132	-0.1998994	-0.5418725	0	0	0	0
28.45789	-0.1998994	-0.5418725	0	0	0	0
28.47446	-0.1998994	-0.5418725	0	0	0	0
28.49102	-0.1998994	-0.5418725	0	0	0	0
28.50759	-0.1998994	-0.5418725	0	0	0	0
28.52416	-0.1998994	-0.5418725	0	0	0	0
28.54119	-0.1998994	-0.5418725	0	0	0	0
28.55729	-0.1998994	-0.5418725	0	0	0	0
28.57386	-0.1998994	-0.5418725	0	0	0	0
28.59042	-0.1998994	-0.5418725	0	0	0	0
28.60699	-0.1998994	-0.5418725	0	0	0	0
28.62359	-0.1998994	-0.5418725	0	0	0	0
28.64054	-0.1998994	-0.5418725	0	0	0	0
28.65669	-0.1998994	-0.5418725	0	0	0	0
28.67356	-0.1998994	-0.5418725	0	0	0	0
28.68982	-0.1998994	-0.5418725	0	0	0	0
28.70639	-0.1998994	-0.5418725	0	0	0	0
28.72296	-0.1998994	-0.5418725	0	0	0	0
28.73952	-0.1998994	-0.5418725	0	0	0	0
28.75624	-0.1998994	-0.5418725	0	0	0	0
28.77266	-0.1998994	-0.5418725	0	0	0	0
28.78923	-0.1998994	-0.5418725	0	0	0	0
28.80579	-0.1998994	-0.5418725	0	0	0	0
28.82251	-0.1998994	-0.5418725	0	0	0	0
28.83892	-0.1998994	-0.5418725	0	0	0	0
28.85549	-0.1998994	-0.5418725	0	0	0	0
28.87206	-0.1998994	-0.5418725	0	0	0	0
28.88862	-0.1998994	-0.5418725	0	0	0	0
28.90519	-0.1998994	-0.5418725	0	0	0	0
28.92196	-0.1998994	-0.5418725	0	0	0	0
28.93878	-0.1998994	-0.5418725	0	0	0	0
28.95527	-0.1998994	-0.5418725	0	0	0	0
28.97158	-0.1998994	-0.5418725	0	0	0	0
28.98819	-0.1998994	-0.5418725	0	0	0	0
29.00459	-0.1998994	-0.5418725	0	0	0	0
29.02116	-0.1998994	-0.5418725	0	0	0	0
29.03773	-0.1998994	-0.5418725	0	0	0	0
29.0543	-0.1998994	-0.5418725	0	0	0	0
29.07087	-0.1998994	-0.5418725	0	0	0	0
29.08743	-0.1998994	-0.5418725	0	0	0	0
29.10466	-0.1998994	-0.5418725	0	0	0	0
29.12073	-0.1998994	-0.5418725	0	0	0	0
29.13713	-0.1998994	-0.5418725	0	0	0	0
29.1537	-0.1998994	-0.5418725	0	0	0	0
29.17027	-0.1998994	-0.5418725	0	0	0	0
29.18684	-0.1998994	-0.5418725	0	0	0	0
29.20358	-0.1998994	-0.5418725	0	0	0	0
29.22005	-0.1998994	-0.5418725	0	0	0	0
29.23654	-0.1998994	-0.5418725	0	0	0	0
29.2536	-0.1998994	-0.5418725	0	0	0	0
29.26967	-0.1998994	-0.5418725	0	0	0	0
29.28624	-0.1998994	-0.5418725	0	0	0	0
29.3028	-0.1998994	-0.5418725	0	0	0	0
29.31936	-0.1998994	-0.5418725	0	0	0	0
29.33593	-0.1998994	-0.5418725	0	0	0	0
29.35312	-0.1998994	-0.5418725	0	0	0	0
29.36944	-0.1998994	-0.5418725	0	0	0	0
29.38563	-0.1998994	-0.5418725	0	0	0	0
29.4022	-0.1998994	-0.5418725	0	0	0	0
29.41877	-0.1998994	-0.5418725	0	0	0	0
29.43534	-0.1998994	-0.5418725	0	0	0	0
29.45214	-0.1998994	-0.5418725	0	0	0	0
29.46864	-0.1998994	-0.5418725	0	0	0	0
29.48503	-0.1998994	-0.5418725	0	0	0	0
29.5016	-0.1998994	-0.5418725	0	0	0	0
29.51853	-0.1998994	-0.5418725	0	0	0	0
29.53509	-0.1998994	-0.5418725	0	0	0	0
29.55168	-0.1998994	-0.5418725	0	0	0	0
29.56787	-0.1998994	-0.5418725	0	0	0	0
29.58554	-0.1998994	-0.5418725	0	0	0	0
29.60211	-0.1998994	-0.5418725	0	0	0	0
29.61903	-0.1998994	-0.5418725	0	0	0	0
29.63532	-0.1998994	-0.5418725	0	0	0	0
29.65182	-0.1998994	-0.5418725	0	0	0	0
29.66882	-0.1998994	-0.5418725	0	0	0	0
29.68494	-0.1998994	-0.5418725	0	0	0	0
29.70151	-0.1998994	-0.5418725	0	0	0	0
29.71808	-0.1998994	-0.5418725	0	0	0	0
29.73501	-0.1998994	-0.5418725	0	0	0	0
29.75121	-0.1998994	-0.5418725	0	0	0	0
29.76801	-0.1998994	-0.5418725	0	0	0	0
29.78434	-0.1998994	-0.5418725	0	0	0	0
29.80116	-0.1998994	-0.5418725	0	0	0	0
29.81747	-0.1998994	-0.5418725	0	0	0	0
29.83404	-0.1998994	-0.5418725	0	0	0	0
29.85061	-0.1998994	-0.5418725	0	0	0	0
29.86738	-0.1998994	-0.5418725	0	0	0	0
29.88395	-0.1998994	-0.5418725	0	0	0	0
29.90031	-0.1998994	-0.5418725	0	0	0	0
29.91766	-0.1998994	-0.5418725	0	0	0	0
29.93418	-0.1998994	-0.5418725	0	0	0	0
29.95001	-0.1998994	-0.5418725	0	0	0	0
29.96658	-0.1998994	-0.5418725	0	0	0	0
29.98314	-0.1998994	-0.5418725	0	0	0	0
30.00015	-0.1998994	-0.5418725	0	0	0	0
30.01628	-0.1998994	-0.5418725	0	0	0	0
30.03289	-0.1998994	-0.5418725	0	0	0	0
30.04941	-0.1998994	-0.5418725	0	0	0	0
30.06637	-0.1998994	-0.5418725	0	0	0	0
30.08291	-0.1998994	-0.5418725	0	0	0	0
30.09911	-0.1998994	-0.5418725	0	0	0	0
30.11569	-0.1998994	-0.5418725	0	0	0	0
30.13276	-0.1998994	-0.5418725	0	0	0	0
30.14881	-0.1998994	-0.5418725	0	0	0	0
30.16552	-0.1998994	-0.5418725	0	0	0	0
30.18733	-0.1998994	-0.5418725	0	0	0	0
30.2039	-0.1998994	-0.5418725	0	0	0	0
30.22048	-0.1998994	-0.5418725	0	0	0	0
30.23777	-0.1998994	-0.5418725	0	0	0	0
30.2536	-0.1998994	-0.5418725	0	0	0	0
30.27031	-0.1998994	-0.5418725	0	0	0	0
30.28748	-0.1998994	-0.5418725	0	0	0	0
30.30356	-0.1998994	-0.5418725	0	0	0	0
30.31987	-0.1998994	-0.5418725	0	0	0	0
30.33644	-0.1998994	-0.5418725	0	0	0	0
30.353	-0.1998994	-0.5418725	0	0	0	0
30.36957	-0.1998994	-0.5418725	0	0	0	0
30.38614	-0.1998994	-0.5418725	0	0	0	0
30.40288	-0.1998994	-0.5418725	0	0	0	0
30.41953	-0.1998994	-0.5418725	0	0	0	0
30.43584	-0.1998994	-0.5418725	0	0	0	0
30.4524	-0.1998994	-0.5418725	0	0	0	0
30.46897	-0.1998994	-0.5418725	0	0	0	0
30.48554	-0.1998994	-0.5418725	0	0	0	0
30.50211	-0.1998994	-0.5418725	0	0	0	0
30.51867	-0.1998994	-0.5418725	0	0	0	0
30.53531	-0.1998994	-0.5418725	0	0	0	0
30.5518	-0.1998994	-0.5418725	0	0	0	0
30.56837	-0.1998994	-0.5418725	0	0	0	0
30.58503	-0.1998994	-0.5418725	0	0	0	0
30.6015	-0.1998994	-0.5418725	0	0	0	0
30.61807	-0.1998741	-0.5418977	0.001525443	-0.001518248	0.04616553	-0.04594776
30.63468	-0.1998741	-0.5418977	0	0	-0.04598503	0.04576812
30.65121	-0.1998741	-0.5418977	0	0	0	0
30.66777	-0.1998741	-0.5418977	0	0	0	0
30.68434	-0.1998741	-0.5418977	0	0	0	0
30.7009	-0.1998741	-0.5418977	0	0	0	0
30.71747	-0.1998741	-0.5418977	0	0	0	0
30.73425	-0.1998741	-0.5418977	0	0	0	0
30.7506	-0.1998741	-0.5418977	0	0	0	0
30.76731	-0.1998994	-0.5418725	-0.001513075	0.001505938	-0.04577009	0.04555419
30.78374	-0.1998994	-0.5418725	0	0	0.0456647	-0.0454493
30.80031	-0.1998994	-0.5418725	0	0	0	0
30.81687	-0.1998741	-0.5418977	0.001525619	-0.001518423	0.04604592	-0.04582872
30.83344	-0.1998741	-0.5418977	0	0	-0.04604327	0.04582608
30.85044	-0.1998741	-0.5418977	0	0	0	0
30.86657	-0.1998741	-0.5418977	0	0	0	0
30.88332	-0.1998741	-0.5418977	0	0	0	0
30.89971	-0.1998741	-0.5418977	0	0	0	0
30.91627	-0.1998741	-0.5418977	0	0	0	0
30.93284	-0.1998741	-0.5418977	0	0	0	0
30.94941	-0.1998741	-0.5418977	0	0	0	0
30.96597	-0.1998741	-0.5418977	0	0	0	0
30.98254	-0.1998741	-0.5418977	0	0	0	0
30.99961	-0.1998741	-0.5418977	0	0	0	0
31.01615	-0.1998741	-0.5418977	0	0	0	0
31.03224	-0.1998741	-0.5418977	0	0	0	0
31.04882	-0.1998741	-0.5418977	0	0	0	0
31.06537	-0.1998741	-0.5418977	0	0	0	0
31.08198	-0.1998741	-0.5418977	0	0	0	0
31.0985	-0.1998741	-0.5418977	0	0	0	0
31.11507	-0.1998741	-0.5418977	0	0	0	0
31.13163	-0.1998741	-0.5418977	0	0	0	0
31.1482	-0.1998741	-0.5418977	0	0	0	0
31.16477	-0.1998741	-0.5418977	0	0	0	0
31.18141	-0.1998741	-0.5418977	0	0	0	0
31.198	-0.1998741	-0.5418977	0	0	0	0
31.21447	-0.1998741	-0.5418977	0	0	0	0
31.23113	-0.1998741	-0.5418977	0	0	0	0
31.2476	-0.1998741	-0.5418977	0	0	0	0
31.26471	-0.1998741	-0.5418977	0	0	0	0
31.28073	-0.1998741	-0.5418977	0	0	0	0
31.2973	-0.1998741	-0.5418977	0	0	0	0
31.31387	-0.1998741	-0.5418977	0	0	0	0
31.33071	-0.1998741	-0.5418977	0	0	0	0
31.347	-0.1998741	-0.5418977	0	0	0	0
31.36357	-0.1998741	-0.5418977	0	0	0	0
31.38013	-0.1998741	-0.5418977	0	0	0	0
31.39683	-0.1998741	-0.5418977	0	0	0	0
31.41327	-0.1998741	-0.5418977	0	0	0	0
31.42984	-0.1998741	-0.5418977	0	0	0	0
31.4464	-0.1998741	-0.5418977	0	0	0	0
31.46325	-0.1998741	-0.5418977	0	0	0	0
31.47954	-0.1998741	-0.5418977	0	0	0	0
31.49681	-0.1998741	-0.5418977	0	0	0	0
31.51267	-0.1998741	-0.5418977	0	0	0	0
31.52967	-0.1998741	-0.5418977	0	0	0	0
31.54584	-0.1998741	-0.5418977	0	0	0	0
31.5624	-0.1998741	-0.5418977	0	0	0	0
31.57896	-0.1998741	-0.5418977	0	0	0	0
31.59557	-0.1998741	-0.5418977	0	0	0	0
31.61207	-0.1998741	-0.5418977	0	0	0	0
31.62864	-0.1998741	-0.5418977	0	0	0	0
31.6452	-0.1998741	-0.5418977	0	0	0	0
31.66208	-0.1998741	-0.5418977	0	0	0	0
31.67858	-0.1998741	-0.5418977	0	0	0	0
31.69547	-0.1998741	-0.5418977	0	0	0	0
31.71147	-0.1998741	-0.5418977	0	0	0	0
31.72804	-0.1998741	-0.5418977	0	0	0	0
31.74534	-0.1998741	-0.5418977	0	0	0	0
31.76117	-0.1998741	-0.5418977	0	0	0	0
31.77871	-0.1998741	-0.5418977	0	0	0	0
31.7956	-0.1998741	-0.5418977	0	0	0	0
31.81261	-0.1998994	-0.5419228	-0.001485093	-0.001478088	-0.04379909	-0.04359249
31.82841	-0.1998994	-0.5419228	0	0	0.04525787	0.04504439
31.84503	-0.1998994	-0.5419228	0	0	0	0
31.86154	-0.1998994	-0.5419228	0	0	0	0
31.87811	-0.1998994	-0.5419228	0	0	0	0
31.89468	-0.1998994	-0.5419228	0	0	0	0
31.91124	-0.1998994	-0.5419228	0	0	0	0
31.92781	-0.1998994	-0.5419228	0	0	0	0
31.94509	-0.1998994	-0.5419228	0	0	0	0
31.96109	-0.1998994	-0.5419228	0	0	0	0
31.97813	-0.1998994	-0.5419228	0	0	0	0
31.99427	-0.1998994	-0.5419228	0	0	0	0
32.01064	-0.1998994	-0.5419228	0	0	0	0
32.02721	-0.1998994	-0.5419228	0	0	0	0
32.04402	-0.1998994	-0.5419228	0	0	0	0
32.0607	-0.1998994	-0.5419228	0	0	0	0
32.07691	-0.1998994	-0.5419228	0	0	0	0
32.09348	-0.1998994	-0.5419228	0	0	0	0
32.14962	-0.1998994	-0.5419228	0	0	0	0
32.16619	-0.1998994	-0.5419228	0	0	0	0
32.18356	-0.1998994	-0.5419228	0	0	0	0
32.20013	-0.1998994	-0.5419228	0	0	0	0
32.21681	-0.1998994	-0.5419228	0	0	0	0
32.23443	-0.1998994	-0.5419228	0	0	0	0
32.251	-0.1998994	-0.5419228	0	0	0	0
32.26756	-0.1998994	-0.5419228	0	0	0	0
32.28472	-0.1999246	-0.5419479	-0.001472877	-0.001462455	-0.04367219	-0.04336319
32.3007	-0.1999246	-0.5419479	0	0	0.04445151	0.04413699
32.31726	-0.1999246	-0.5419479	0	0	0	0
32.33383	-0.1999246	-0.5419479	0	0	0	0
32.3504	-0.1999246	-0.5419479	0	0	0	0
32.36762	-0.1999246	-0.5419479	0	0	0	0
32.38353	-0.1999246	-0.5419479	0	0	0	0
32.4001	-0.1999246	-0.5419479	0	0	0	0
32.41666	-0.1999246	-0.5419479	0	0	0	0
32.43323	-0.1999246	-0.5419479	0	0	0	0
32.44979	-0.1999246	-0.5419479	0	0	0	0
32.46684	-0.1999246	-0.5419479	0	0	0	0
32.48293	-0.1999246	-0.5419479	0	0	0	0
32.4995	-0.1999246	-0.5419479	0	0	0	0
32.51614	-0.1999246	-0.5419479	0	0	0	0
32.53268	-0.1999246	-0.5419479	0	0	0	0
32.54919	-0.1999246	-0.5419479	0	0	0	0
32.56576	-0.1999246	-0.5419479	0	0	0	0
32.58232	-0.1999246	-0.5419479	0	0	0	0
32.59889	-0.1999246	-0.5419479	0	0	0	0
32.61546	-0.1999246	-0.5419479	0	0	0	0
32.63202	-0.1999499	-0.5419228	-0.001526694	0.001514999	-0.04608103	0.04572802
32.64859	-0.1999499	-0.5419228	0	0	0.04608103	-0.04572802
32.66545	-0.1999499	-0.5419228	0	0	0	0
32.68172	-0.1999499	-0.5419228	0	0	0	0
32.69861	-0.1999499	-0.5419228	0	0	0	0
32.71486	-0.1999499	-0.5419228	0	0	0	0
32.73143	-0.1999499	-0.5419228	0	0	0	0
32.74805	-0.1999499	-0.5419228	0	0	0	0
32.76526	-0.1999499	-0.5419228	0	0	0	0
32.78113	-0.1999499	-0.5419228	0	0	0	0
32.7977	-0.1999499	-0.5419228	0	0	0	0
32.81439	-0.1999499	-0.5419228	0	0	0	0
32.83083	-0.1999499	-0.5419228	0	0	0	0
32.84798	-0.1999499	-0.5419228	0	0	0	0
32.86403	-0.1999499	-0.5419228	0	0	0	0
32.88105	-0.1999499	-0.5419228	0	0	0	0
32.8971	-0.1999499	-0.5419228	0	0	0	0
32.91367	-0.1999499	-0.5419228	0	0	0	0
32.93038	-0.1999246	-0.5419479	0.001513449	-0.001501855	0.04548224	-0.04513381
32.94681	-0.1999246	-0.5419479	0	0	-0.04567072	0.04532085
32.96338	-0.1999246	-0.5419479	0	0	0	0
32.97994	-0.1999246	-0.5419479	0	0	0	0
32.99651	-0.1999246	-0.5419479	0	0	0	0
33.01307	-0.1999246	-0.5419479	0	0	0	0
33.02964	-0.1999499	-0.5419228	-0.001526343	0.00151465	-0.04606511	0.04571223
33.04621	-0.1999499	-0.5419228	0	0	0.04606511	-0.04571223
33.06305	-0.1999499	-0.5419228	0	0	0	0
33.08029	-0.1999499	-0.5419228	0	0	0	0
33.09686	-0.1999499	-0.5419228	0	0	0	0
33.1136	-0.1999499	-0.5419228	0	0	0	0
33.13009	-0.1999499	-0.5419228	0	0	0	0
33.14656	-0.1999499	-0.5419228	0	0	0	0
33.16324	-0.1999499	-0.5419228	0	0	0	0
33.1797	-0.1999499	-0.5419228	0	0	0	0
33.19626	-0.1999499	-0.5419228	0	0	0	0
33.21283	-0.1999499	-0.5419228	0	0	0	0
33.2294	-0.1999246	-0.5419479	0.001526343	-0.00151465	0.04606511	-0.04571223
33.24596	-0.1999246	-0.5419479	0	0	-0.04606511	0.04571223
33.26262	-0.1999246	-0.5419479	0	0	0	0
33.27912	-0.1999246	-0.5419479	0	0	0	0
33.29566	-0.1999246	-0.5419479	0	0	0	0
33.31223	-0.1999246	-0.5419479	0	0	0	0
33.32879	-0.1999246	-0.5419479	0	0	0	0
33.34538	-0.1999246	-0.5419479	0	0	0	0
33.36251	-0.1999246	-0.5419479	0	0	0	0
33.37855	-0.1999246	-0.5419479	0	0	0	0
33.39506	-0.1999246	-0.5419479	0	0	0	0
33.41175	-0.1999246	-0.5419479	0	0	0	0
33.42819	-0.1999246	-0.5419479	0	0	0	0
33.44476	-0.1999246	-0.5419479	0	0	0	0
33.46139	-0.1999246	-0.5419479	0	0	0	0
33.47789	-0.1999246	-0.5419479	0	0	0	0
33.49446	-0.1999246	-0.5419479	0	0	0	0
33.51147	-0.1999246	-0.5419479	0	0	0	0
33.5276	-0.1999246	-0.5419479	0	0	0	0
33.54416	-0.1999246	-0.5419479	0	0	0	0
33.56073	-0.1999246	-0.5419479	0	0	0	0
33.57729	-0.1999246	-0.5419479	0	0	0	0
33.59386	-0.1999246	-0.5419479	0	0	0	0
33.61075	-0.1999246	-0.5419479	0	0	0	0
33.62699	-0.1999246	-0.5419479	0	0	0	0
33.64355	-0.1999246	-0.5419479	0	0	0	0
33.66012	-0.1999246	-0.5419479	0	0	0	0
33.6767	-0.1999246	-0.5419479	0	0	0	0
33.69326	-0.1999246	-0.5419479	0	0	0	0
33.70982	-0.1999246	-0.5419479	0	0	0	0
33.72639	-0.1999246	-0.5419479	0	0	0	0
33.74296	-0.1999246	-0.5419479	0	0	0	0
33.76004	-0.1999246	-0.5419479	0	0	0	0
33.77609	-0.1999246	-0.5419479	0	0	0	0
33.79266	-0.1999246	-0.5419479	0	0	0	0
33.80923	-0.1999246	-0.5419479	0	0	0	0
33.82579	-0.1999246	-0.5419479	0	0	0	0
33.84245	-0.1999246	-0.5419479	0	0	0	0
33.85893	-0.1999246	-0.5419479	0	0	0	0
33.8755	-0.1999246	-0.5419479	0	0	0	0
33.89206	-0.1999246	-0.5419479	0	0	0	0
33.90905	-0.1999246	-0.5419479	0	0	0	0
33.9263	-0.1999246	-0.5419479	0	0	0	0
33.94287	-0.1999246	-0.5419479	0	0	0	0
33.95944	-0.1999246	-0.5419479	0	0	0	0
33.97607	-0.1999246	-0.5419479	0	0	0	0
33.99258	-0.1999246	-0.5419479	0	0	0	0
34.00959	-0.1999246	-0.5419479	0	0	0	0
34.02571	-0.1999246	-0.5419479	0	0	0	0
34.04265	-0.1999246	-0.5419479	0	0	0	0
34.05884	-0.1999246	-0.5419479	0	0	0	0
34.07541	-0.1999246	-0.5419479	0	0	0	0
34.09198	-0.1999246	-0.5419479	0	0	0	0
34.10867	-0.1999246	-0.5419479	0	0	0	0
34.1252	-0.1999246	-0.5419479	0	0	0	0
34.14168	-0.1999246	-0.5419479	0	0	0	0
34.15825	-0.1999246	-0.5419479	0	0	0	0
34.17522	-0.1999246	-0.5419479	0	0	0	0
34.19138	-0.1999246	-0.5419479	0	0	0	0
34.20795	-0.1999246	-0.5419479	0	0	0	0
34.22451	-0.1999246	-0.5419479	0	0	0	0
34.24132	-0.1999246	-0.5419479	0	0	0	0
34.25765	-0.1999246	-0.5419479	0	0	0	0
34.27422	-0.1999246	-0.5419479	0	0	0	0
34.29121	-0.1999246	-0.5419479	0	0	0	0
34.30768	-0.1999246	-0.5419479	0	0	0	0
34.32391	-0.1999246	-0.5419479	0	0	0	0
34.34048	-0.1999246	-0.5419479	0	0	0	0
34.35755	-0.1999246	-0.5419479	0	0	0	0
34.37367	-0.1999246	-0.5419479	0	0	0	0
34.39045	-0.1999246	-0.5419479	0	0	0	0
34.40675	-0.1999246	-0.5419479	0	0	0	0
34.42331	-0.1999246	-0.5419479	0	0	0	0
34.43988	-0.1999246	-0.5419479	0	0	0	0
34.45644	-0.1999246	-0.5419479	0	0	0	0
34.47301	-0.1999246	-0.5419479	0	0	0	0
34.48957	-0.1999246	-0.5419479	0	0	0	0
34.50614	-0.1999246	-0.5419479	0	0	0	0
34.52271	-0.1999246	-0.5419479	0	0	0	0
34.53949	-0.1999246	-0.5419479	0	0	0	0
34.55584	-0.1999246	-0.5419479	0	0	0	0
34.57241	-0.1999246	-0.5419479	0	0	0	0
34.58898	-0.1999246	-0.5419479	0	0	0	0
34.60554	-0.1999246	-0.5419479	0	0	0	0
34.62213	-0.1999246	-0.5419479	0	0	0	0
34.63868	-0.1999246	-0.5419479	0	0	0	0
34.65535	-0.1999246	-0.5419479	0	0	0	0
34.67189	-0.1999246	-0.5419479	0	0	0	0
34.68837	-0.1999246	-0.5419479	0	0	0	0
34.70494	-0.1999246	-0.5419479	0	0	0	0
34.72151	-0.1999246	-0.5419479	0	0	0	0
34.73807	-0.1999246	-0.5419479	0	0	0	0
34.75464	-0.1999246	-0.5419479	0	0	0	0
34.77141	-0.1999246	-0.5419479	0	0	0	0
34.78788	-0.1999246	-0.5419479	0	0	0	0
34.80434	-0.1999246	-0.5419479	0	0	0	0
34.82141	-0.1999246	-0.5419479	0	0	0	0
34.83749	-0.1999246	-0.5419479	0	0	0	0
34.85404	-0.1999246	-0.5419479	0	0	0	0
34.87114	-0.1999246	-0.5419479	0	0	0	0
34.88718	-0.1999246	-0.5419479	0	0	0	0
34.90374	-0.1999246	-0.5419479	0	0	0	0
34.92031	-0.1999246	-0.5419479	0	0	0	0
34.93687	-0.1999246	-0.5419479	0	0	0	0
34.95366	-0.1999246	-0.5419479	0	0	0	0
34.9734	-0.1999246	-0.5419479	0	0	0	0
34.98997	-0.1999246	-0.5419479	0	0	0	0
35.00732	-0.1999246	-0.5419479	0	0	0	0
35.02311	-0.1999499	-0.5419228	-0.001602346	0.001590071	-0.0483589	0.04798845
35.03967	-0.1999499	-0.5419228	0	0	0.04953366	-0.04915421
35.05624	-0.1999499	-0.5419228	0	0	0	0
35.07281	-0.1999499	-0.5419228	0	0	0	0
35.08967	-0.1999499	-0.5419228	0	0	0	0
35.10594	-0.1999499	-0.5419228	0	0	0	0
35.12251	-0.1999499	-0.5419228	0	0	0	0
35.13907	-0.1999499	-0.5419228	0	0	0	0
35.15651	-0.1999499	-0.5419228	0	0	0	0
35.17221	-0.1999499	-0.5419228	0	0	0	0
35.18877	-0.1999499	-0.5419228	0	0	0	0
35.20534	-0.1999499	-0.5419228	0	0	0	0
35.22191	-0.1999499	-0.5419228	0	0	0	0
35.23848	-0.1999499	-0.5419228	0	0	0	0
35.25528	-0.1999499	-0.5419228	0	0	0	0
35.27161	-0.1999499	-0.5419228	0	0	0	0
35.28818	-0.1999499	-0.5419228	0	0	0	0
35.30474	-0.1999499	-0.5419228	0	0	0	0
35.32131	-0.1999499	-0.5419228	0	0	0	0
35.33796	-0.1999499	-0.5419228	0	0	0	0
35.35445	-0.1999499	-0.5419228	0	0	0	0
35.37139	-0.1999499	-0.5419228	0	0	0	0
35.38848	-0.1999499	-0.5419228	0	0	0	0
35.40453	-0.1999499	-0.5419228	0	0	0	0
35.42142	-0.1999246	-0.5418977	0.001497381	0.00148944	0.04546322	0.04522211
35.43807	-0.1999246	-0.5418977	0	0	-0.04464113	-0.04440438
35.45474	-0.1999246	-0.5418977	0	0	0	0
35.47398	-0.1999499	-0.5418725	-0.001313956	0.001306987	-0.03658865	0.03639461
35.49055	-0.1999499	-0.5418725	0	0	0.03668608	-0.03649152
35.50727	-0.1999499	-0.5418725	0	0	0	0
35.52369	-0.1999499	-0.5418725	0	0	0	0
35.54081	-0.1999499	-0.5418725	0	0	0	0
35.55682	-0.1999499	-0.5418725	0	0	0	0
35.57338	-0.1999499	-0.5418725	0	0	0	0
35.59046	-0.1999499	-0.5418725	0	0	0	0
35.60695	-0.1999499	-0.5418725	0	0	0	0
35.62309	-0.1999499	-0.5418725	0	0	0	0
35.63965	-0.1999499	-0.5418725	0	0	0	0
35.65655	-0.1999499	-0.5418725	0	0	0	0
35.67278	-0.1999246	-0.5418977	0.00155791	-0.001549647	0.04702323	-0.04677384
35.68935	-0.1999246	-0.5418977	0	0	-0.04749903	0.04724712
35.70592	-0.1999246	-0.5418977	0	0	0	0
35.72248	-0.1999246	-0.5418977	0	0	0	0
35.73905	-0.1999246	-0.5418977	0	0	0	0
35.75585	-0.1999246	-0.5418977	0	0	0	0
35.78943	-0.1999499	-0.5418725	-0.0007530281	0.0007490344	-0.01494789	0.01486861
35.806	-0.1999499	-0.5418725	0	0	0.01501497	-0.01493534
35.82285	-0.1999499	-0.5418725	0	0	0	0
35.83921	-0.1999499	-0.5418725	0	0	0	0
35.8557	-0.1999499	-0.5418725	0	0	0	0
35.87233	-0.1999499	-0.5418725	0	0	0	0
35.88883	-0.1999499	-0.5418725	0	0	0	0
35.90542	-0.1999499	-0.5418725	0	0	0	0
35.92197	-0.1999499	-0.5418725	0	0	0	0
35.93858	-0.1999499	-0.5418725	0	0	0	0
35.95552	-0.1999499	-0.5418725	0	0	0	0
35.97171	-0.1999499	-0.5418725	0	0	0	0
35.98866	-0.1999499	-0.5418725	0	0	0	0
36.0048	-0.1999499	-0.5418725	0	0	0	0
36.02151	-0.1999499	-0.5419228	0	-0.003010157	0	-0.09164863
36.03793	-0.1999499	-0.5419228	0	0	0	0.09085719
36.05449	-0.1999499	-0.5419228	0	0	0	0
36.07106	-0.1999499	-0.5419228	0	0	0	0
36.08767	-0.1999499	-0.5419228	0	0	0	0
36.10422	-0.1999499	-0.5419228	0	0	0	0
36.12076	-0.1999752	-0.5418977	-0.001528258	0.00152105	-0.04618674	0.04596888
36.13791	-0.1999752	-0.5418977	0	0	0.04536048	-0.04514652
36.15389	-0.1999752	-0.5418977	0	0	0	0
36.17046	-0.1999499	-0.5419228	0.001525443	-0.001518248	0.04686894	-0.04664786
36.18703	-0.1999499	-0.5419228	0	0	-0.04603797	0.04582081
36.20392	-0.1999499	-0.5419228	0	0	0	0
36.22179	-0.1999499	-0.5419228	0	0	0	0
36.23841	-0.1999499	-0.5419228	0	0	0	0
36.25546	-0.1999499	-0.5419228	0	0	0	0
36.27192	-0.1999752	-0.5418977	-0.001534631	0.001527392	-0.04578809	0.04557211
36.2882	-0.1999752	-0.5418977	0	0	0.04687105	-0.04664996
36.30473	-0.1999752	-0.5418977	0	0	0	0
36.32119	-0.1999499	-0.5419228	0.001535342	-0.0015281	0.04654032	-0.04632078
36.33781	-0.1999499	-0.5419228	0	0	-0.04641151	0.04619259
36.35432	-0.1999499	-0.5419228	0	0	0	0
36.37089	-0.1999752	-0.5418977	-0.001525795	0.001518597	-0.04612291	0.04590535
36.38745	-0.1999752	-0.5418977	0	0	0.04605388	-0.04583664
36.40402	-0.1999752	-0.5418977	0	0	0	0
36.42059	-0.1999752	-0.5418977	0	0	0	0
36.43766	-0.1999752	-0.5418977	0	0	0	0
36.45372	-0.1999752	-0.5418977	0	0	0	0
36.4703	-0.1999752	-0.5418977	0	0	0	0
36.48685	-0.1999752	-0.5418977	0	0	0	0
36.50361	-0.1999752	-0.5418977	0	0	0	0
36.52016	-0.1999752	-0.5418977	0	0	0	0
36.53682	-0.1999752	-0.5418977	0	0	0	0
36.55312	-0.1999752	-0.5418977	0	0	0	0
36.58304	-0.1999499	-0.5419228	0.00084481	-0.000840825	0.01827696	-0.01819074
36.59961	-0.1999499	-0.5419228	0	0	-0.01817496	0.01808923
36.61617	-0.1999499	-0.5419228	0	0	0	0
36.63274	-0.1999499	-0.5419228	0	0	0	0
36.64931	-0.1999499	-0.5419228	0	0	0	0
36.66587	-0.1999499	-0.5419228	0	0	0	0
36.68244	-0.1999499	-0.5419228	0	0	0	0
36.69947	-0.1999499	-0.5419228	0	0	0	0
36.71557	-0.1999499	-0.5419228	0	0	0	0
36.73214	-0.1999499	-0.5419228	0	0	0	0
36.74873	-0.1999499	-0.5419228	0	0	0	0
36.76527	-0.1999499	-0.5419228	0	0	0	0
36.78184	-0.1999499	-0.5419228	0	0	0	0
36.79854	-0.1999499	-0.5419228	0	0	0	0
36.81502	-0.1999499	-0.5419228	0	0	0	0
36.83154	-0.1999499	-0.5419228	0	0	0	0
36.84896	-0.1999499	-0.5419228	0	0	0	0
36.86559	-0.1999499	-0.5419228	0	0	0	0
36.88261	-0.1999499	-0.5419228	0	0	0	0
36.89873	-0.1999499	-0.5419228	0	0	0	0
36.91529	-0.1999499	-0.5419228	0	0	0	0
36.93186	-0.1999499	-0.5419228	0	0	0	0
36.94843	-0.1999499	-0.5419228	0	0	0	0
36.965	-0.1999499	-0.5419228	0	0	0	0
36.9816	-0.1999499	-0.5419228	0	0	0	0
36.99813	-0.1999499	-0.5419228	0	0	0	0
37.01469	-0.1999499	-0.5419228	0	0	0	0
37.03126	-0.1999499	-0.5419228	0	0	0	0
37.04812	-0.1999499	-0.5419228	0	0	0	0
37.0644	-0.1999499	-0.5419228	0	0	0	0
37.08096	-0.1999499	-0.5419228	0	0	0	0
37.09753	-0.1999499	-0.5419228	0	0	0	0
37.1141	-0.1999499	-0.5419228	0	0	0	0
37.13066	-0.1999499	-0.5419228	0	0	0	0
37.14723	-0.1999499	-0.5419228	0	0	0	0
37.1638	-0.1999499	-0.5419228	0	0	0	0
37.18037	-0.1999499	-0.5419228	0	0	0	0
37.19698	-0.1999499	-0.5419228	0	0	0	0
37.2135	-0.1999246	-0.5419479	0.001530572	-0.001518847	0.04619807	-0.04584416
37.23006	-0.1999246	-0.5419479	0	0	-0.04625665	0.0459023
37.24663	-0.1999246	-0.5419479	0	0	0	0
37.26336	-0.1999246	-0.5419479	0	0	0	0
37.27998	-0.1999246	-0.5419479	0	0	0	0
37.29633	-0.1999246	-0.5419479	0	0	0	0
37.31295	-0.1999246	-0.5419479	0	0	0	0
37.32947	-0.1999246	-0.5419479	0	0	0	0
37.34603	-0.1999246	-0.5419479	0	0	0	0
37.36259	-0.1999499	-0.5419731	-0.001526694	-0.001518597	-0.04609164	-0.0458472
37.37916	-0.1999499	-0.5419731	0	0	0.04608103	0.04583664
37.39573	-0.1999499	-0.5419731	0	0	0	0
37.4123	-0.1999499	-0.5419228	0	0.003032898	0	0.09153304
37.42886	-0.1999499	-0.5419228	0	0	0	-0.09153304
37.44543	-0.1999499	-0.5419228	0	0	0	0
37.46199	-0.1999499	-0.5419228	0	0	0	0
37.47856	-0.1999499	-0.5419228	0	0	0	0
37.49513	-0.1999499	-0.5419228	0	0	0	0
37.51169	-0.1999499	-0.5419228	0	0	0	0
37.52885	-0.1999499	-0.5419228	0	0	0	0
37.54483	-0.1999499	-0.5419228	0	0	0	0
37.56141	-0.1999499	-0.5419228	0	0	0	0
37.57796	-0.1999499	-0.5419228	0	0	0	0
37.59491	-0.1999499	-0.5419228	0	0	0	0
37.6111	-0.1999246	-0.5418977	0.001562316	0.00155403	0.04715621	0.04690612
37.62767	-0.1999246	-0.5418977	0	0	-0.04769439	-0.04744144
37.64423	-0.1999246	-0.5418977	0	0	0	0
37.66112	-0.1998994	-0.5418725	0.001496837	0.001489776	0.04474704	0.04453597
37.67736	-0.1998994	-0.5418725	0	0	-0.04517983	-0.04496672
37.69393	-0.1998994	-0.5418725	0	0	0	0
37.71049	-0.1998994	-0.5418725	0	0	0	0
37.72706	-0.1998994	-0.5418725	0	0	0	0
37.74363	-0.1998994	-0.5418725	0	0	0	0
37.76019	-0.1999246	-0.5418977	-0.001525795	-0.001518597	-0.04605388	-0.04583664
37.77676	-0.1999246	-0.5418977	0	0	0.04604857	0.04583136
37.79333	-0.1999246	-0.5418977	0	0	0	0
37.8099	-0.1999246	-0.5418977	0	0	0	0
37.82647	-0.1999246	-0.5418977	0	0	0	0
37.84303	-0.1999246	-0.5418977	0	0	0	0
37.8596	-0.1998994	-0.5418725	0.001525443	0.001518248	0.04603797	0.04582081
37.87617	-0.1998994	-0.5418725	0	0	-0.04603797	-0.04582081
37.89278	-0.1998994	-0.5418725	0	0	0	0
37.9093	-0.1998994	-0.5418725	0	0	0	0
37.92587	-0.1998994	-0.5418725	0	0	0	0
37.94243	-0.1998994	-0.5418725	0	0	0	0
37.959	-0.1999246	-0.5418473	-0.001525795	0.001518597	-0.04605388	0.04583664
37.97578	-0.1999246	-0.5418473	0	0	0.04575883	-0.04554298
37.99213	-0.1999246	-0.5418473	0	0	0	0
38.0087	-0.1998994	-0.5418222	0.001525443	0.001518248	0.04633671	0.04611814
38.02563	-0.1998994	-0.5418222	0	0	-0.04553989	-0.04532508
38.04208	-0.1998994	-0.5418222	0	0	0	0
38.0588	-0.1998994	-0.5417719	0	0.003004533	0	0.09057272
38.07497	-0.1998994	-0.5417719	0	0	0	-0.09135009
38.09153	-0.1998994	-0.5417719	0	0	0	0
38.1081	-0.1992168	-0.5409929	0.04121175	0.04703693	1.243916	1.419741
38.12469	-0.1992168	-0.5409929	0	0	-1.243057	-1.418761
38.14123	-0.1992168	-0.5409929	0	0	0	0
38.15799	-0.1952438	-0.5369545	0.2371313	0.2410348	7.121381	7.238611
38.17437	-0.1952438	-0.5369545	0	0	-7.156635	-7.274446
38.1911	-0.1952438	-0.5369545	0	0	0	0
38.2075	-0.1890316	-0.530784	0.3788972	0.376356	11.43514	11.35845
38.22444	-0.1890316	-0.530784	0	0	-11.36709	-11.29085
38.24097	-0.1890316	-0.530784	0	0	0	0
38.2572	-0.1890316	-0.530784	0	0	0	0
38.27377	-0.1890316	-0.530784	0	0	0	0
38.2907	-0.1890316	-0.530784	0	0	0	0
38.3069	-0.1890316	-0.530784	0	0	0	0
38.32347	-0.1890316	-0.530784	0	0	0	0
38.34003	-0.1890316	-0.530784	0	0	0	0
38.35685	-0.189057	-0.5308089	-0.001509696	-0.001484889	-0.04521912	-0.04447608
38.37317	-0.189057	-0.5308089	0	0	0.04556272	0.04481404
38.38974	-0.189057	-0.5308089	0	0	0	0
38.4063	-0.1890824	-0.5308338	-0.001531739	-0.001503857	-0.04622798	-0.04538649
38.42287	-0.1890824	-0.5308338	0	0	0.04622798	0.04538649
38.44006	-0.1890824	-0.5308338	0	0	0	0
38.456	-0.189057	-0.5308588	0.001591851	-0.001562874	0.04804768	-0.04717306
38.47318	-0.189057	-0.5308588	0	0	-0.04806982	0.0471948
38.48914	-0.189057	-0.5308588	0	0	0	0
38.50579	-0.1890824	-0.5308837	-0.001524019	-0.001496277	-0.04673207	-0.0458814
38.52237	-0.1890824	-0.5308837	0	0	0.04585246	0.0450178
38.53917	-0.1890824	-0.5308837	0	0	0	0
38.55565	-0.1890824	-0.5308837	0	0	0	0
38.57197	-0.1890824	-0.5308837	0	0	0	0
38.58854	-0.1890824	-0.5308837	0	0	0	0
38.6051	-0.1890824	-0.5308837	0	0	0	0
38.62167	-0.1890824	-0.5308837	0	0	0	0
38.63902	-0.1890824	-0.5308837	0	0	0	0
38.6548	-0.1890824	-0.5308837	0	0	0	0
38.67137	-0.1890824	-0.5308837	0	0	0	0
38.68793	-0.1890824	-0.5308837	0	0	0	0
38.7045	-0.1891077	-0.5309086	-0.001532639	-0.001503857	-0.04625513	-0.04538649
38.72131	-0.1891077	-0.5309086	0	0	0.0459273	0.04506482
38.73763	-0.1891077	-0.5309086	0	0	0	0
38.7542	-0.1891331	-0.5308837	-0.001531739	0.001503857	-0.04656573	0.04571808
38.77077	-0.1891331	-0.5308837	0	0	0.04622798	-0.04538649
38.78733	-0.1891331	-0.5308837	0	0	0	0
38.80408	-0.1891331	-0.5308837	0	0	0	0
38.82085	-0.1891331	-0.5308837	0	0	0	0
38.83703	-0.1891331	-0.5308837	0	0	0	0
38.8536	-0.1891331	-0.5308837	0	0	0	0
38.87017	-0.1891331	-0.5308837	0	0	0	0
38.88673	-0.1891331	-0.5308837	0	0	0	0
38.9033	-0.1891331	-0.5308837	0	0	0	0
38.95293	-0.1891331	-0.5308837	0	0	0	0
38.9695	-0.1891331	-0.5308837	0	0	0	0
39.00877	-0.1891331	-0.5308837	0	0	0	0
39.02542	-0.1891331	-0.5308837	0	0	0	0
39.04191	-0.1891077	-0.5309086	0.001538826	-0.001510814	0.04644185	-0.04559647
39.05848	-0.1891077	-0.5309086	0	0	-0.0465383	0.04569115
39.07505	-0.1891077	-0.5309086	0	0	0	0
39.09161	-0.1891585	-0.5309584	-0.003065084	-0.003008406	-0.09251507	-0.09080434
39.10818	-0.1891585	-0.5309584	0	0	0.09251507	0.09080434
39.12475	-0.1891585	-0.5309584	0	0	0	0
39.14212	-0.1891839	-0.5309834	-0.001461306	-0.001437294	-0.04305155	-0.04234413
39.15802	-0.1891839	-0.5309834	0	0	0.04392028	0.04319858
39.17446	-0.1891839	-0.5309834	0	0	0	0
39.19102	-0.1891839	-0.5309834	0	0	0	0
39.20847	-0.1891839	-0.5309834	0	0	0	0
39.22415	-0.1891839	-0.5309834	0	0	0	0
39.24072	-0.1891839	-0.5309834	0	0	0	0
39.25772	-0.1891839	-0.5309834	0	0	0	0
39.27385	-0.1891839	-0.5309834	0	0	0	0
39.29106	-0.1891839	-0.5309834	0	0	0	0
39.30698	-0.1891839	-0.5309834	0	0	0	0
39.32394	-0.1891839	-0.5309834	0	0	0	0
39.34038	-0.1892093	-0.5310083	-0.001543825	-0.001515723	-0.04623082	-0.04538927
39.35668	-0.1892093	-0.5310083	0	0	0.04715188	0.04629356
39.37325	-0.1892093	-0.5310083	0	0	0	0
39.38983	-0.1892093	-0.5310083	0	0	0	0
39.40638	-0.1892093	-0.5310083	0	0	0	0
39.42295	-0.1892093	-0.5310083	0	0	0	0
39.43952	-0.1892093	-0.5310083	0	0	0	0
39.45609	-0.1892093	-0.5310083	0	0	0	0
39.47265	-0.1892093	-0.5310083	0	0	0	0
39.48922	-0.1892093	-0.5310083	0	0	0	0
39.50578	-0.1892093	-0.5310083	0	0	0	0
39.52235	-0.1892093	-0.5310083	0	0	0	0
39.53903	-0.1892093	-0.5310083	0	0	0	0
39.55553	-0.1892093	-0.5310083	0	0	0	0
39.57205	-0.1892093	-0.5310083	0	0	0	0
39.58861	-0.1892093	-0.5310083	0	0	0	0
39.60518	-0.1892093	-0.5310083	0	0	0	0
39.62175	-0.1892093	-0.5310083	0	0	0	0
39.6386	-0.1892093	-0.5310083	0	0	0	0
39.65488	-0.1892093	-0.5310083	0	0	0	0
39.6716	-0.1892093	-0.5310083	0	0	0	0
39.68812	-0.1892347	-0.5310332	-0.00153724	-0.001508372	-0.04625554	-0.04538689
39.70458	-0.1892347	-0.5310332	0	0	0.04660864	0.04573336
39.72118	-0.1892347	-0.5310332	0	0	0	0
39.73771	-0.1892347	-0.5310332	0	0	0	0
39.75428	-0.1892347	-0.5310332	0	0	0	0
39.77118	-0.1892347	-0.5310332	0	0	0	0
39.78741	-0.1892347	-0.5310332	0	0	0	0
39.80398	-0.1892347	-0.5310332	0	0	0	0
39.82055	-0.1892347	-0.5310332	0	0	0	0
39.83732	-0.1892601	-0.5310581	-0.001512928	-0.001485388	-0.04537814	-0.04455212
39.8537	-0.1892601	-0.5310581	0	0	0.04562873	0.04479815
39.87024	-0.1892601	-0.5310581	0	0	0	0
39.88691	-0.1892601	-0.5310581	0	0	0	0
39.90395	-0.1892601	-0.5310581	0	0	0	0
39.92037	-0.1892601	-0.5310581	0	0	0	0
39.93651	-0.1892601	-0.5310581	0	0	0	0
39.95308	-0.1892601	-0.5310581	0	0	0	0
39.96991	-0.1892601	-0.5310581	0	0	0	0
39.98621	-0.1892601	-0.5310581	0	0	0	0
40.00277	-0.1892601	-0.5310581	0	0	0	0
40.01934	-0.1892601	-0.5310581	0	0	0	0
40.0359	-0.1892601	-0.5310581	0	0	0	0
40.05247	-0.1892601	-0.5310581	0	0	0	0
40.06996	-0.1892601	-0.5310581	0	0	0	0
40.08561	-0.1892601	-0.5310581	0	0	0	0
40.10217	-0.1892601	-0.5310581	0	0	0	0
40.11881	-0.1892601	-0.5310581	0	0	0	0
40.1353	-0.1892601	-0.5310581	0	0	0	0
40.15187	-0.1892601	-0.5310581	0	0	0	0
40.16844	-0.1892601	-0.5310581	0	0	0	0
40.18516	-0.1892601	-0.5310581	0	0	0	0
40.20157	-0.1892601	-0.5310581	0	0	0	0
40.21814	-0.1892601	-0.5310581	0	0	0	0
40.2347	-0.1892601	-0.5310581	0	0	0	0
40.25127	-0.1892601	-0.5310581	0	0	0	0
40.26784	-0.1892601	-0.5310581	0	0	0	0
40.2844	-0.1892601	-0.5310581	0	0	0	0
40.301	-0.1892601	-0.5310581	0	0	0	0
40.31754	-0.1892601	-0.5310581	0	0	0	0
40.33431	-0.1892601	-0.5310581	0	0	0	0
40.35067	-0.1892601	-0.5310581	0	0	0	0
40.36724	-0.1892601	-0.5310581	0	0	0	0
40.38381	-0.1892601	-0.5310581	0	0	0	0
40.40096	-0.1892601	-0.5310581	0	0	0	0
40.41695	-0.1892601	-0.5310581	0	0	0	0
40.43433	-0.1892601	-0.5310581	0	0	0	0
40.45008	-0.1892601	-0.5310581	0	0	0	0
40.46666	-0.1892601	-0.5310581	0	0	0	0
40.48554	-0.1892601	-0.5310581	0	0	0	0
40.50211	-0.1892601	-0.5310581	0	0	0	0
40.51868	-0.1892601	-0.5310581	0	0	0	0
40.53524	-0.1892601	-0.5310581	0	0	0	0
40.55193	-0.1892601	-0.5310581	0	0	0	0
40.56838	-0.1892601	-0.5310581	0	0	0	0
40.58495	-0.1892601	-0.5310581	0	0	0	0
40.60151	-0.1892601	-0.5310581	0	0	0	0
40.61823	-0.1892601	-0.5310581	0	0	0	0
40.63465	-0.1892601	-0.5310581	0	0	0	0
40.65126	-0.1892601	-0.5310581	0	0	0	0
40.66803	-0.1892601	-0.5310581	0	0	0	0
40.68456	-0.1892601	-0.5310581	0	0	0	0
40.70108	-0.1892601	-0.5310581	0	0	0	0
40.71758	-0.1892601	-0.5310581	0	0	0	0
40.73409	-0.1892601	-0.5310581	0	0	0	0
40.75069	-0.1892601	-0.5310581	0	0	0	0
40.76733	-0.1892601	-0.5310581	0	0	0	0
40.78384	-0.1892601	-0.5310581	0	0	0	0
40.80032	-0.1892601	-0.5310581	0	0	0	0
40.81688	-0.1892601	-0.5310581	0	0	0	0
40.83345	-0.1892601	-0.5310581	0	0	0	0
40.85002	-0.1892601	-0.5310581	0	0	0	0
40.86659	-0.1892601	-0.5310581	0	0	0	0
40.88315	-0.1892601	-0.5310581	0	0	0	0
40.89972	-0.1892601	-0.5310581	0	0	0	0
40.91629	-0.1892601	-0.5310581	0	0	0	0
40.93294	-0.1892601	-0.5310581	0	0	0	0
40.95003	-0.1892601	-0.5310581	0	0	0	0
40.96619	-0.1892601	-0.5310581	0	0	0	0
40.98256	-0.1892854	-0.531083	-0.001551212	-0.001522081	-0.04768862	-0.04679306
40.99912	-0.1892854	-0.531083	0	0	0.04710308	0.04621851
41.01574	-0.1892854	-0.531083	0	0	0	0
41.03231	-0.1892854	-0.531083	0	0	0	0
41.04882	-0.1892854	-0.531083	0	0	0	0
41.06541	-0.1892854	-0.531083	0	0	0	0
41.08195	-0.1892854	-0.531083	0	0	0	0
41.09852	-0.1892854	-0.531083	0	0	0	0
41.11527	-0.1892854	-0.531083	0	0	0	0
41.13177	-0.1892854	-0.531083	0	0	0	0
41.14822	-0.1892854	-0.531083	0	0	0	0
41.16507	-0.1892854	-0.531083	0	0	0	0
41.18135	-0.1893108	-0.5311579	-0.001558656	-0.004594511	-0.04704575	-0.1386786
41.19792	-0.1893108	-0.5311579	0	0	0.04744453	0.1398541
41.21449	-0.1893108	-0.5311579	0	0	0	0
41.23168	-0.189387	-0.5312327	-0.004429741	-0.004350871	-0.1312124	-0.1288762
41.24825	-0.189387	-0.5312327	0	0	0.1311976	0.1288617
41.26561	-0.189387	-0.5312327	0	0	0	0
41.28138	-0.1894631	-0.5313075	-0.004826145	-0.004741145	-0.1456534	-0.143088
41.29842	-0.1894631	-0.5313075	0	0	0.1470586	0.1444685
41.31452	-0.1894631	-0.5313075	0	0	0	0
41.33109	-0.1894885	-0.5313324	-0.001531739	-0.001503857	-0.04689748	-0.0460438
41.34765	-0.1894885	-0.5313324	0	0	0.04622798	0.04538649
41.36422	-0.1894885	-0.5313324	0	0	0	0
41.38159	-0.1895139	-0.5313573	-0.001461627	-0.001434179	-0.04306584	-0.04225709
41.39816	-0.1895139	-0.5313573	0	0	0.04306584	0.04225709
41.41479	-0.1895139	-0.5313573	0	0	0	0
41.43166	-0.1895393	-0.5313822	-0.001504715	-0.001477324	-0.04492107	-0.04410337
41.44862	-0.1895393	-0.5313822	0	0	0.04447536	0.04366576
41.46443	-0.1895393	-0.5313822	0	0	0	0
41.481	-0.1895646	-0.5314072	-0.001531739	-0.001507455	-0.04731749	-0.04656731
41.49783	-0.1895646	-0.5314072	0	0	0.04585318	0.0451262
41.51413	-0.1895646	-0.5314072	0	0	0	0
41.5307	-0.1895646	-0.5314072	0	0	0	0
41.5475	-0.1895646	-0.5314072	0	0	0	0
41.56384	-0.1895646	-0.5314072	0	0	0	0
41.58052	-0.18959	-0.5314321	-0.001520883	-0.001493198	-0.04606475	-0.04522623
41.59713	-0.18959	-0.5314321	0	0	0.04568471	0.0448531
41.61369	-0.18959	-0.5314321	0	0	0	0
41.63022	-0.18959	-0.5314321	0	0	0	0
41.64666	-0.18959	-0.5314321	0	0	0	0
41.66323	-0.18959	-0.5314321	0	0	0	0
41.68024	-0.1896154	-0.531457	-0.001493102	-0.001465063	-0.04447311	-0.04363793
41.69636	-0.1896154	-0.531457	0	0	0.04506711	0.04422078
41.71293	-0.1896154	-0.531457	0	0	0	0
41.72956	-0.1896154	-0.531457	0	0	0	0
41.74606	-0.1896154	-0.531457	0	0	0	0
41.76286	-0.1896154	-0.531457	0	0	0	0
41.77919	-0.1896154	-0.531457	0	0	0	0
41.79576	-0.1896154	-0.531457	0	0	0	0
41.81246	-0.1896154	-0.531457	0	0	0	0
41.8289	-0.1896154	-0.531457	0	0	0	0
41.84561	-0.1896154	-0.531457	0	0	0	0
41.86203	-0.1896154	-0.531457	0	0	0	0
41.87859	-0.1896154	-0.531457	0	0	0	0
41.89516	-0.1896154	-0.531457	0	0	0	0
41.91173	-0.1896154	-0.531457	0	0	0	0
41.9283	-0.1896154	-0.531457	0	0	0	0
41.94535	-0.1896154	-0.531457	0	0	0	0
41.96194	-0.1896154	-0.531457	0	0	0	0
41.978	-0.1896154	-0.531457	0	0	0	0
41.99456	-0.1896154	-0.531457	0	0	0	0
42.01114	-0.1896154	-0.531457	0	0	0	0
42.02769	-0.1896154	-0.531457	0	0	0	0
42.04433	-0.1896154	-0.531457	0	0	0	0
42.06083	-0.1896154	-0.531457	0	0	0	0
42.07739	-0.1896154	-0.531457	0	0	0	0
42.09396	-0.1896154	-0.531457	0	0	0	0
42.11053	-0.1896154	-0.531457	0	0	0	0
42.12709	-0.1896154	-0.531457	0	0	0	0
42.14389	-0.1896154	-0.531457	0	0	0	0
42.16023	-0.1896154	-0.531457	0	0	0	0
42.18123	-0.1896154	-0.531457	0	0	0	0
42.1981	-0.1896154	-0.531457	0	0	0	0
42.21501	-0.1896154	-0.531457	0	0	0	0
42.23093	-0.1896154	-0.531457	0	0	0	0
42.2475	-0.1896154	-0.531457	0	0	0	0
42.26407	-0.1896154	-0.531457	0	0	0	0
42.28064	-0.1896154	-0.531457	0	0	0	0
42.2972	-0.1896154	-0.531457	0	0	0	0
42.31377	-0.1896154	-0.531457	0	0	0	0
42.33043	-0.1896154	-0.531457	0	0	0	0
42.34735	-0.1896154	-0.531457	0	0	0	0
42.36347	-0.1896154	-0.531457	0	0	0	0
42.38004	-0.1896154	-0.531457	0	0	0	0
42.39661	-0.1896154	-0.531457	0	0	0	0
42.41319	-0.1896154	-0.531457	0	0	0	0
42.42974	-0.1896154	-0.531457	0	0	0	0
42.44637	-0.1896154	-0.531457	0	0	0	0
42.46287	-0.18959	-0.5314321	0.001538306	0.001509418	0.04643151	0.04555956
42.47987	-0.18959	-0.5314321	0	0	-0.04590821	-0.04504608
42.49601	-0.18959	-0.5314321	0	0	0	0
42.51257	-0.18959	-0.5314321	0	0	0	0
42.52914	-0.18959	-0.5314321	0	0	0	0
42.54571	-0.18959	-0.5314321	0	0	0	0
42.56251	-0.18959	-0.5314321	0	0	0	0
42.57884	-0.18959	-0.5314321	0	0	0	0
42.59541	-0.18959	-0.5314321	0	0	0	0
42.61197	-0.18959	-0.5314321	0	0	0	0
42.62891	-0.18959	-0.5314321	0	0	0	0
42.6451	-0.18959	-0.5314321	0	0	0	0
42.66167	-0.18959	-0.5314321	0	0	0	0
42.6785	-0.18959	-0.5314321	0	0	0	0
42.69481	-0.18959	-0.5314321	0	0	0	0
42.71177	-0.18959	-0.5314321	0	0	0	0
42.72794	-0.18959	-0.5314321	0	0	0	0
42.74451	-0.18959	-0.5314321	0	0	0	0
42.76107	-0.18959	-0.5314321	0	0	0	0
42.77781	-0.18959	-0.5314321	0	0	0	0
42.79421	-0.18959	-0.5314321	0	0	0	0
42.81086	-0.18959	-0.5314321	0	0	0	0
42.82772	-0.18959	-0.5314321	0	0	0	0
42.84391	-0.18959	-0.5314321	0	0	0	0
42.86047	-0.18959	-0.5314321	0	0	0	0
42.87756	-0.18959	-0.5314321	0	0	0	0
42.89381	-0.18959	-0.5314321	0	0	0	0
42.91078	-0.18959	-0.5314321	0	0	0	0
42.9268	-0.18959	-0.5314321	0	0	0	0
42.94358	-0.18959	-0.5314321	0	0	0	0
42.96555	-0.18959	-0.5314321	0	0	0	0
42.98217	-0.18959	-0.5314321	0	0	0	0
42.9987	-0.18959	-0.5314321	0	0	0	0
43.01526	-0.18959	-0.5314321	0	0	0	0
43.03182	-0.18959	-0.5314321	0	0	0	0
43.04839	-0.18959	-0.5314321	0	0	0	0
43.06536	-0.18959	-0.5314321	0	0	0	0
43.08152	-0.18959	-0.5314321	0	0	0	0
43.09809	-0.18959	-0.5314321	0	0	0	0
43.11465	-0.18959	-0.5314321	0	0	0	0
43.13122	-0.18959	-0.5314321	0	0	0	0
43.14779	-0.18959	-0.5314321	0	0	0	0
43.16469	-0.18959	-0.5314321	0	0	0	0
43.18092	-0.18959	-0.5314321	0	0	0	0
43.19749	-0.18959	-0.5314321	0	0	0	0
43.21405	-0.18959	-0.5314321	0	0	0	0
43.23136	-0.18959	-0.5314321	0	0	0	0
43.24718	-0.18959	-0.5314321	0	0	0	0
43.26393	-0.18959	-0.5314321	0	0	0	0
43.28032	-0.18959	-0.5314321	0	0	0	0
43.29689	-0.18959	-0.5314321	0	0	0	0
43.31345	-0.18959	-0.5314321	0	0	0	0
43.33033	-0.18959	-0.5314321	0	0	0	0
43.34658	-0.18959	-0.5314321	0	0	0	0
43.36375	-0.18959	-0.5314321	0	0	0	0
43.37972	-0.18959	-0.5314321	0	0	0	0
43.39642	-0.18959	-0.5314321	0	0	0	0
43.41309	-0.18959	-0.5314321	0	0	0	0
43.42942	-0.18959	-0.5314321	0	0	0	0
43.44599	-0.18959	-0.5314321	0	0	0	0
43.46255	-0.18959	-0.5314321	0	0	0	0
43.47912	-0.18959	-0.5314321	0	0	0	0
43.49569	-0.18959	-0.5314321	0	0	0	0
43.51259	-0.18959	-0.5314321	0	0	0	0
43.52882	-0.18959	-0.5314321	0	0	0	0
43.54539	-0.18959	-0.5314321	0	0	0	0
43.56195	-0.18959	-0.5314321	0	0	0	0
43.57869	-0.18959	-0.5314321	0	0	0	0
43.59509	-0.1896154	-0.531457	-0.001547965	-0.001518895	-0.04671768	-0.04584035
43.61166	-0.1896154	-0.531457	0	0	0.04695011	0.04606842
43.62822	-0.1896154	-0.531457	0	0	0	0
43.64479	-0.1896154	-0.531457	0	0	0	0
43.66136	-0.1896154	-0.531457	0	0	0	0
43.67793	-0.1896154	-0.531457	0	0	0	0
43.69487	-0.1896154	-0.531457	0	0	0	0
43.71106	-0.1896154	-0.531457	0	0	0	0
43.72766	-0.1896154	-0.531457	0	0	0	0
43.74419	-0.18959	-0.5314321	0.00153653	0.001507675	0.04637792	0.04550697
43.76088	-0.18959	-0.5314321	0	0	-0.04626074	-0.04539199
43.77732	-0.18959	-0.5314321	0	0	0	0
43.79425	-0.18959	-0.5314321	0	0	0	0
43.81046	-0.18959	-0.5314321	0	0	0	0
43.8273	-0.18959	-0.5314321	0	0	0	0
43.84359	-0.18959	-0.5314321	0	0	0	0
43.86016	-0.18959	-0.5314321	0	0	0	0
43.87672	-0.18959	-0.5314321	0	0	0	0
43.8937	-0.18959	-0.5314321	0	0	0	0
43.90986	-0.18959	-0.5314321	0	0	0	0
43.92643	-0.18959	-0.5314321	0	0	0	0
43.943	-0.18959	-0.5314321	0	0	0	0
43.95956	-0.18959	-0.5314321	0	0	0	0
43.97613	-0.18959	-0.5314321	0	0	0	0
43.99269	-0.18959	-0.5314321	0	0	0	0
44.00926	-0.18959	-0.5314321	0	0	0	0
44.02583	-0.18959	-0.5314321	0	0	0	0
44.04239	-0.18959	-0.5314321	0	0	0	0
44.05896	-0.18959	-0.5314321	0	0	0	0
44.07553	-0.18959	-0.5314321	0	0	0	0
44.09209	-0.1896154	-0.531457	-0.001532992	-0.001504203	-0.04627111	-0.04540217
44.10884	-0.1896154	-0.531457	0	0	0.04602733	0.04516296
44.12531	-0.1896154	-0.531457	0	0	0	0
44.1418	-0.1896154	-0.531457	0	0	0	0
44.15847	-0.1896154	-0.531457	0	0	0	0
44.17497	-0.1896154	-0.531457	0	0	0	0
44.19204	-0.1896154	-0.531457	0	0	0	0
44.20807	-0.1896154	-0.531457	0	0	0	0
44.22463	-0.1896154	-0.531457	0	0	0	0
44.24134	-0.1896154	-0.531457	0	0	0	0
44.25777	-0.1896154	-0.531457	0	0	0	0
44.27436	-0.1896154	-0.531457	0	0	0	0
44.2909	-0.1896154	-0.531457	0	0	0	0
44.30747	-0.1896154	-0.531457	0	0	0	0
44.32404	-0.1896154	-0.531457	0	0	0	0
44.3406	-0.1896154	-0.531457	0	0	0	0
44.35717	-0.1896154	-0.531457	0	0	0	0
44.40795	-0.1896154	-0.531457	0	0	0	0
44.42452	-0.1896154	-0.531457	0	0	0	0
44.44109	-0.1896154	-0.531457	0	0	0	0
44.45765	-0.1896154	-0.531457	0	0	0	0
44.47422	-0.1896154	-0.531457	0	0	0	0
44.49078	-0.1896154	-0.531457	0	0	0	0
44.50735	-0.1896154	-0.531457	0	0	0	0
44.52391	-0.1896154	-0.531457	0	0	0	0
44.54049	-0.1896154	-0.531457	0	0	0	0
44.55705	-0.1896154	-0.531457	0	0	0	0
44.57362	-0.1896154	-0.531457	0	0	0	0
44.59503	-0.1896154	-0.531457	0	0	0	0
44.61179	-0.1896154	-0.531457	0	0	0	0
44.62816	-0.1896154	-0.531457	0	0	0	0
44.64489	-0.1896154	-0.531457	0	0	0	0
44.6613	-0.1896154	-0.531457	0	0	0	0
44.67786	-0.1896154	-0.531457	0	0	0	0
44.69444	-0.1896154	-0.531457	0	0	0	0
44.71147	-0.1896154	-0.531457	0	0	0	0
44.72837	-0.1896154	-0.531457	0	0	0	0
44.74504	-0.1896154	-0.531457	0	0	0	0
44.76151	-0.1896154	-0.531457	0	0	0	0
44.77807	-0.1896154	-0.531457	0	0	0	0
44.79464	-0.1896154	-0.531457	0	0	0	0
44.81121	-0.1896154	-0.531457	0	0	0	0
44.8281	-0.18959	-0.531482	0.001502879	-0.001478184	0.04491229	-0.0441743
44.84434	-0.18959	-0.531482	0	0	-0.04535697	0.04461167
44.86091	-0.18959	-0.531482	0	0	0	0
44.87747	-0.1895646	-0.531457	0.001532092	0.001507802	0.04624395	0.04551078
44.89404	-0.1895646	-0.531457	0	0	-0.04624395	-0.04551078
44.91079	-0.1895646	-0.531457	0	0	0	0
44.92717	-0.1895646	-0.531457	0	0	0	0
44.94384	-0.1895646	-0.531457	0	0	0	0
44.96031	-0.1895646	-0.531457	0	0	0	0
44.97688	-0.1895139	-0.531457	0.003063479	0	0.09273355	0
44.99344	-0.1895139	-0.531457	0	0	-0.09245597	0
45.01008	-0.1895139	-0.531457	0	0	0	0
45.02665	-0.1894377	-0.5313822	0.004597017	0.004515168	0.1384513	0.1359862
45.04314	-0.1894377	-0.5313822	0	0	-0.1390263	-0.136551
45.05971	-0.1894377	-0.5313822	0	0	0	0
45.0796	-0.1894124	-0.5313573	0.001276107	0.001252877	0.03500666	0.03436943
45.0966	-0.1894124	-0.5313573	0	0	-0.03459397	-0.03396425
45.11276	-0.1894124	-0.5313573	0	0	0	0
45.1293	-0.1891585	-0.531108	0.01534663	0.01507005	0.469267	0.46081
45.14587	-0.1891585	-0.531108	0	0	-0.4635356	-0.4551819
45.16243	-0.1891585	-0.531108	0	0	0	0
