Time	Pos X	Pos Y	Vel X	Vel Y	Acc X	Acc Y
0.01688449	-0.02275923	-0.3402593	0.0002898208	0.004332934	-3.69165E-06	-5.51916E-05
0.0538735	-0.02275923	-0.3402593	0	0	3.692379E-06	5.52025E-05
0.07136473	-0.02275923	-0.3402593	0	0	0	0
0.09935094	-0.02278553	-0.3402812	-0.0009398349	-0.0007816317	-0.02066596	-0.01718724
0.117169	-0.02278553	-0.3402812	0	0	0.02051849	0.0170646
0.1453151	-0.02278553	-0.3402812	0	0	0	0
0.1622233	-0.02278553	-0.3402812	0	0	0	0
0.1856817	-0.02278553	-0.3402812	0	0	0	0
0.2350312	-0.02278553	-0.3402812	0	0	0	0
0.2559162	-0.02281183	-0.340303	-0.001259395	-0.0010474	-0.01793127	-0.01491289
0.2725062	-0.02281183	-0.340303	0	0	0.0336063	0.02794932
0.2972124	-0.02281183	-0.340303	0	0	0	0
0.3158295	-0.02281183	-0.340303	0	0	0	0
0.3432772	-0.02281183	-0.340303	0	0	0	0
0.3598471	-0.02281183	-0.340303	0	0	0	0
0.3858374	-0.02281183	-0.340303	0	0	0	0
0.4024045	-0.02281183	-0.340303	0	0	0	0
0.4225845	-0.02281183	-0.340303	0	0	0	0
0.4391544	-0.02281183	-0.340303	0	0	0	0
0.460937	-0.02281183	-0.340303	0	0	0	0
0.4775072	-0.02281183	-0.340303	0	0	0	0
0.4989409	-0.02281183	-0.340303	0	0	0	0
0.5174301	-0.02281183	-0.340303	0	0	0	0
0.5377576	-0.02283813	-0.3403249	-0.001293928	-0.00107612	-0.03333427	-0.02772309
0.5543267	-0.02283813	-0.3403249	0	0	0.03506899	0.0291658
0.5762562	-0.02283813	-0.3403249	0	0	0	0
0.5928252	-0.02283813	-0.3403249	0	0	0	0
0.6133778	-0.02283813	-0.3403249	0	0	0	0
0.6299469	-0.02283813	-0.3403249	0	0	0	0
0.6525996	-0.02283813	-0.3403249	0	0	0	0
0.6691679	-0.02283813	-0.3403249	0	0	0	0
0.6889874	-0.02283813	-0.3403249	0	0	0	0
0.7061699	-0.02283813	-0.3403249	0	0	0	0
0.7221757	-0.02283813	-0.3403249	0	0	0	0
0.7439681	-0.02283813	-0.3403249	0	0	0	0
0.7605345	-0.02283813	-0.3403249	0	0	0	0
0.7809931	-0.02283813	-0.3403249	0	0	0	0
0.7975622	-0.02283813	-0.3403249	0	0	0	0
0.8186295	-0.02283813	-0.3403249	0	0	0	0
0.8351998	-0.02283813	-0.3403249	0	0	0	0
0.8554365	-0.02283813	-0.3403249	0	0	0	0
0.875076	-0.02283813	-0.3403249	0	0	0	0
0.8996456	-0.02283813	-0.3403249	0	0	0	0
0.9163564	-0.02283813	-0.3403249	0	0	0	0
0.9390138	-0.02283813	-0.3403249	0	0	0	0
0.9653708	-0.02283813	-0.3403249	0	0	0	0
0.9923635	-0.02283813	-0.3403249	0	0	0	0
1.008932	-0.02283813	-0.3403249	0	0	0	0
1.029459	-0.02283813	-0.3403249	0	0	0	0
1.046408	-0.02283813	-0.3403249	0	0	0	0
1.067526	-0.02283813	-0.3403249	0	0	0	0
1.084094	-0.02283813	-0.3403249	0	0	0	0
1.102965	-0.02283813	-0.3403249	0	0	0	0
1.120488	-0.02283813	-0.3403249	0	0	0	0
1.138669	-0.02283813	-0.3403249	0	0	0	0
1.158455	-0.02283813	-0.3403249	0	0	0	0
1.175023	-0.02283813	-0.3403249	0	0	0	0
1.191592	-0.02283813	-0.3403249	0	0	0	0
1.211296	-0.02283813	-0.3403249	0	0	0	0
1.227865	-0.02283813	-0.3403249	0	0	0	0
1.244433	-0.02283813	-0.3403249	0	0	0	0
1.269812	-0.02283813	-0.3403249	0	0	0	0
1.286572	-0.02283813	-0.3403249	0	0	0	0
1.305147	-0.02283813	-0.3403249	0	0	0	0
1.321714	-0.02283813	-0.3403249	0	0	0	0
1.338282	-0.02283813	-0.3403249	0	0	0	0
1.358696	-0.02283813	-0.3403249	0	0	0	0
1.375264	-0.02283813	-0.3403249	0	0	0	0
1.399818	-0.02283813	-0.3403249	0	0	0	0
1.416665	-0.02283813	-0.3403249	0	0	0	0
1.435733	-0.02283813	-0.3403249	0	0	0	0
1.452304	-0.02283813	-0.3403249	0	0	0	0
1.468868	-0.02283813	-0.3403249	0	0	0	0
1.488104	-0.02283813	-0.3403249	0	0	0	0
1.504729	-0.02283813	-0.3403249	0	0	0	0
1.521245	-0.02283813	-0.3403249	0	0	0	0
1.541364	-0.02283813	-0.3403249	0	0	0	0
1.557933	-0.02283813	-0.3403249	0	0	0	0
1.579248	-0.02283813	-0.3403249	0	0	0	0
1.595816	-0.02283813	-0.3403249	0	0	0	0
1.619954	-0.02283813	-0.3403249	0	0	0	0
1.640272	-0.02283813	-0.3403249	0	0	0	0
1.675682	-0.02283813	-0.3403249	0	0	0	0
1.695338	-0.02283813	-0.3403249	0	0	0	0
1.716539	-0.02283813	-0.3403249	0	0	0	0
1.733108	-0.02283813	-0.3403249	0	0	0	0
1.759232	-0.02283813	-0.3403249	0	0	0	0
1.775918	-0.02283813	-0.3403249	0	0	0	0
1.796458	-0.02283813	-0.3403249	0	0	0	0
1.813151	-0.02283813	-0.3403249	0	0	0	0
1.836197	-0.02283813	-0.3403249	0	0	0	0
1.852973	-0.02283813	-0.3403249	0	0	0	0
1.874651	-0.02286444	-0.3403468	-0.001213324	-0.001009085	-0.03155238	-0.02624114
1.89122	-0.02286444	-0.3403468	0	0	0.0317233	0.02638329
1.913775	-0.02286444	-0.3403468	0	0	0	0
1.931697	-0.02286444	-0.3403468	0	0	0	0
1.951481	-0.02286444	-0.3403468	0	0	0	0
1.968052	-0.02286444	-0.3403468	0	0	0	0
1.984618	-0.02286444	-0.3403468	0	0	0	0
2.004766	-0.02286444	-0.3403468	0	0	0	0
2.021591	-0.02286444	-0.3403468	0	0	0	0
2.041842	-0.02286444	-0.3403468	0	0	0	0
2.058411	-0.02286444	-0.3403468	0	0	0	0
2.079377	-0.02286444	-0.3403468	0	0	0	0
2.096148	-0.02286444	-0.3403468	0	0	0	0
2.115565	-0.02286444	-0.3403468	0	0	0	0
2.132133	-0.02286444	-0.3403468	0	0	0	0
2.1487	-0.02286444	-0.3403468	0	0	0	0
2.16875	-0.02286444	-0.3403468	0	0	0	0
2.185318	-0.02286444	-0.3403468	0	0	0	0
2.20558	-0.02286444	-0.3403468	0	0	0	0
2.222234	-0.02286444	-0.3403468	0	0	0	0
2.243457	-0.02286444	-0.3403468	0	0	0	0
2.260266	-0.02286444	-0.3403468	0	0	0	0
2.282701	-0.02286444	-0.3403468	0	0	0	0
2.29931	-0.02286444	-0.3403468	0	0	0	0
2.322615	-0.02286444	-0.3403468	0	0	0	0
2.339704	-0.02286444	-0.3403468	0	0	0	0
2.359561	-0.02286444	-0.3403468	0	0	0	0
2.376131	-0.02286444	-0.3403468	0	0	0	0
2.392698	-0.02286444	-0.3403468	0	0	0	0
2.412274	-0.02283813	-0.3401936	0.001343633	0.007823728	0.03717613	0.2164698
2.428882	-0.02283813	-0.3401936	0	0	-0.03713327	-0.2162202
2.445407	-0.02283813	-0.3401936	0	0	0	0
2.465449	-0.0248107	-0.3338399	-0.09842294	0.3170257	-2.691615	8.669842
2.482015	-0.0248107	-0.3338399	0	0	2.68853	-8.659904
2.507696	-0.01836636	-0.3089778	0.2509403	0.968119	5.939762	22.9154
2.524264	-0.01836636	-0.3089778	0	0	-5.939594	-22.91475
2.54404	0.005789409	-0.2746688	1.221462	1.734871	33.60831	47.73467
2.560609	0.005789409	-0.2746688	0	0	-33.60721	-47.73311
2.577488	0.005789409	-0.2746688	0	0	0	0
2.596951	0.04084569	-0.2461816	1.801214	1.463693	49.56398	40.27642
2.613518	0.04084569	-0.2461816	0	0	-49.99133	-40.62369
2.630523	0.04084569	-0.2461816	0	0	0	0
2.650137	0.08016991	-0.2148836	2.004932	1.595717	54.75228	43.57711
2.666705	0.08016991	-0.2148836	0	0	-55.41252	-44.1026
2.683274	0.08016991	-0.2148836	0	0	0	0
2.703867	0.1100535	-0.1913205	1.451142	1.144221	39.04927	30.79022
2.720435	0.1100535	-0.1913205	0	0	-39.04977	-30.79062
2.741643	0.1131982	-0.1888732	0.1482801	0.1153972	3.925247	3.054776
2.75821	0.1131982	-0.1888732	0	0	-3.925322	-3.054834
2.778533	0.1129384	-0.1891966	-0.01278412	-0.01591609	-0.3465446	-0.4314441
2.795115	0.1129384	-0.1891966	0	0	0.3464036	0.4312685
2.817752	0.1112493	-0.1911991	-0.07462043	-0.08846229	-1.902677	-2.255617
2.834319	0.1112493	-0.1911991	0	0	1.903406	2.256481
2.85368	0.1105475	-0.1947432	-0.03624918	-0.1830553	-1.008919	-5.094958
2.87025	0.1105475	-0.1947432	0	0	1.008866	5.094687
2.886816	0.1105475	-0.1947432	0	0	0	0
2.908532	0.09966865	-0.224009	-0.500961	-1.347666	-13.08602	-35.2035
2.925226	0.09966865	-0.224009	0	0	13.04232	35.08594
2.946801	0.08024835	-0.2799904	-0.900131	-2.594738	-23.52083	-67.8017
2.963879	0.08024835	-0.2799904	0	0	23.28783	67.13004
2.984334	0.06883842	-0.3232156	-0.5578027	-2.113172	-14.86183	-56.30236
3.000903	0.06883842	-0.3232156	0	0	15.06577	57.07497
3.021542	0.07090724	-0.3585151	0.100242	-1.710395	2.694127	-45.96895
3.03811	0.07090724	-0.3585151	0	0	-2.694214	45.97042
3.057163	0.07951619	-0.3900702	0.4518371	-1.656157	12.68443	-46.4933
3.073731	0.07951619	-0.3900702	0	0	-12.68451	46.49361
3.090297	0.07951619	-0.3900702	0	0	0	0
3.111893	0.09236799	-0.4239093	0.5950955	-1.566899	15.59383	-41.05889
3.128462	0.09236799	-0.4239093	0	0	-15.59257	41.05555
3.153482	0.0933333	-0.4484395	0.03858216	-0.9804376	0.927706	-23.57457
3.170051	0.0933333	-0.4484395	0	0	-0.927706	23.57457
3.190344	0.08678149	-0.5082051	-0.3228686	-2.945205	-8.758926	-79.89888
3.206913	0.08678149	-0.5082051	0	0	8.758757	79.89733
3.227883	0.07988228	-0.5708968	-0.3290133	-2.989676	-8.764515	-79.64136
3.244454	0.07988228	-0.5708968	0	0	8.764125	79.63782
3.269639	0.07344659	-0.6510515	-0.255545	-3.182742	-6.120006	-76.22297
3.286208	0.07344659	-0.6510515	0	0	6.120356	76.22733
3.308135	0.06519694	-0.699785	-0.3762225	-2.222475	-9.772843	-57.73153
3.32689	0.06519694	-0.699785	0	0	9.247869	54.63033
3.35039	0.05649246	-0.7410359	-0.3703927	-1.755306	-8.765618	-41.54063
3.36704	0.05649246	-0.7410359	0	0	9.225129	43.71826
3.388272	0.05035214	-0.7701	-0.2892058	-1.368905	-7.634513	-36.13663
3.404841	0.05035214	-0.7701	0	0	7.650741	36.21344
3.427756	0.0501684	-0.7990139	-0.00801864	-1.261796	-0.2030845	-31.95694
3.444325	0.0501684	-0.7990139	0	0	0.2030845	31.95694
3.463796	0.05197945	-0.8160649	0.09301681	-0.875747	2.580962	-24.29958
3.480627	0.05197945	-0.8160649	0	0	-2.562316	24.12403
3.49693	0.05197945	-0.8160649	0	0	0	0
3.517773	0.05777773	-0.8233097	0.2781876	-0.3475899	7.489015	-9.357373
3.534343	0.05777773	-0.8233097	0	0	-7.435753	9.290824
3.554098	0.05872189	-0.8244402	0.04779201	-0.05722535	1.315688	-1.575382
3.570688	0.05872189	-0.8244402	0	0	-1.314928	1.574473
3.587236	0.05872189	-0.8244402	0	0	0	0
3.607792	0.05874811	-0.8244735	0.001275806	-0.001617954	0.03438448	-0.04360577
3.62436	0.05874811	-0.8244735	0	0	-0.03436571	0.04358197
3.643941	0.05872189	-0.8244402	-0.001339405	0.001698609	-0.03705306	0.04699001
3.66051	0.05872189	-0.8244402	0	0	0.03705183	-0.04698846
3.677075	0.05872189	-0.8244402	0	0	0	0
3.696818	0.05869566	-0.8243404	-0.001328358	0.005056818	-0.03658577	0.1392754
3.713388	0.05869566	-0.8243404	0	0	0.03658025	-0.1392543
3.729954	0.05869566	-0.8243404	0	0	0	0
3.752162	0.05861698	-0.8242406	-0.003542734	0.004493043	-0.09137045	0.1158798
3.768825	0.05861698	-0.8242406	0	0	0.09114067	-0.1155884
3.787726	0.05851208	-0.824174	-0.00555037	0.003522593	-0.1560663	0.09904888
3.80437	0.05851208	-0.824174	0	0	0.1561511	-0.09910269
3.821374	0.05851208	-0.824174	0	0	0	0
3.840172	0.05840718	-0.824041	-0.005580782	0.007077446	-0.1558816	0.1976862
3.856886	0.05840718	-0.824041	0	0	0.1571511	-0.1992961
3.873306	0.05840718	-0.824041	0	0	0	0
3.89531	0.05830227	-0.823908	-0.004767477	0.006043319	-0.1240755	0.1572797
3.911878	0.05830227	-0.823908	0	0	0.1236007	-0.156678
3.930532	0.05817114	-0.8237418	-0.007029852	0.008911682	-0.1995907	0.2530194
3.94896	0.05817114	-0.8237418	0	0	0.1895761	-0.2403239
3.965963	0.05817114	-0.8237418	0	0	0	0
3.991757	0.05804	-0.8235756	-0.005083794	0.006444681	-0.1187876	0.1505861
4.008326	0.05804	-0.8235756	0	0	0.1200044	-0.1521285
4.03385	0.05801377	-0.8235424	-0.001027665	0.001300745	-0.0244144	0.03090203
4.050785	0.05801377	-0.8235424	0	0	0.02420369	-0.03063532
4.072601	0.05793509	-0.8234426	-0.00360657	0.004570839	-0.09306893	0.1179522
4.08917	0.05793509	-0.8234426	0	0	0.09395918	-0.1190805
4.107934	0.05788264	-0.8233762	-0.002795482	0.003541751	-0.07911888	0.1002401
4.124501	0.05788264	-0.8233762	0	0	0.07912102	-0.1002428
4.14109	0.05788264	-0.8233762	0	0	0	0
4.162226	0.05780395	-0.8232765	-0.00372268	0.004717992	-0.09867948	0.1250628
4.178795	0.05780395	-0.8232765	0	0	0.09873314	-0.1251308
4.198266	0.0577515	-0.82321	-0.002694025	0.00341321	-0.07475132	0.0947066
4.215142	0.0577515	-0.82321	0	0	0.07411978	-0.09390645
4.2314	0.0577515	-0.82321	0	0	0	0
4.251752	0.05764659	-0.8230771	-0.005154764	0.006527927	-0.1407997	0.178307
4.268321	0.05764659	-0.8230771	0	0	0.139616	-0.1768079
4.288902	0.0575679	-0.8229775	-0.00382335	0.004842222	-0.1029168	0.1303428
4.30547	0.0575679	-0.8229775	0	0	0.1029181	-0.1303445
4.32722	0.05751544	-0.8229111	-0.002411817	0.003052925	-0.06294268	0.07967405
4.34379	0.05751544	-0.8229111	0	0	0.06293955	-0.07967009
4.365073	0.05743676	-0.8228114	-0.003697084	0.004682529	-0.09766888	0.1237022
4.381755	0.05743676	-0.8228114	0	0	0.0973806	-0.1233371
4.401762	0.05741053	-0.8227782	-0.001311052	0.001659437	-0.03573439	0.04523007
4.420166	0.05741053	-0.8227782	0	0	0.03413208	-0.04320198
4.441196	0.0573843	-0.822745	-0.001247258	0.001578691	-0.03162865	0.04003331
4.45781	0.0573843	-0.822745	0	0	0.03313348	-0.04193801
4.47773	0.05735807	-0.8227118	-0.001316764	0.001666667	-0.03604279	0.04562041
4.494301	0.05735807	-0.8227118	0	0	0.03608423	-0.04567287
4.510871	0.05735807	-0.8227118	0	0	0	0
4.533833	0.05727938	-0.8226122	-0.003426993	0.004337646	-0.08668973	0.1097257
4.550404	0.05727938	-0.8226122	0	0	0.08668869	-0.1097244
4.573011	0.05699085	-0.8222471	-0.0127623	0.01615097	-0.3257485	0.4122421
4.589581	0.05699085	-0.8222471	0	0	0.3257564	-0.4122521
4.608719	0.05691216	-0.8221475	-0.004111801	0.005201066	-0.1151509	0.1456557
4.625288	0.05691216	-0.8221475	0	0	0.1151524	-0.1456576
4.642169	0.05691216	-0.8221475	0	0	0	0
4.663367	0.05334408	-0.8161308	-0.168323	0.2838404	-4.420387	7.45403
4.679936	0.05334408	-0.8161308	0	0	4.456943	-7.515674
4.699545	0.03882259	-0.7962428	-0.7405535	1.014229	-20.46992	28.03469
4.716112	0.03882259	-0.7962428	0	0	20.47074	-28.0358
4.732681	0.03882259	-0.7962428	0	0	0	0
4.763829	0.01297296	-0.7535189	-0.8298854	1.371623	-17.39178	28.74489
4.780397	0.01297296	-0.7535189	0	0	17.39196	-28.74518
4.804391	0.01347287	-0.7048683	0.02083534	2.027659	0.5136706	49.98953
4.820959	0.01347287	-0.7048683	0	0	-0.5136766	-49.99012
4.842334	0.02673047	-0.6561481	0.6202198	2.279237	16.34594	60.06945
4.858902	0.02673047	-0.6561481	0	0	-16.34573	-60.06869
4.882329	0.03937438	-0.6145602	0.5397148	1.775211	13.49449	44.38561
4.898899	0.03937438	-0.6145602	0	0	-13.49417	-44.38456
4.920048	0.05292422	-0.5646062	0.6406654	2.361932	16.98532	62.61953
4.936657	0.05292422	-0.5646062	0	0	-16.9673	-62.5531
4.957015	0.06137021	-0.5189514	0.4148909	2.242695	11.22348	60.66859
4.973581	0.06137021	-0.5189514	0	0	-11.23638	-60.73832
4.997047	0.06331001	-0.4921634	0.08266419	1.141558	2.064908	28.51553
5.013617	0.06331001	-0.4921634	0	0	-2.064785	-28.51383
5.033698	0.0616848	-0.4681786	-0.08093255	1.194401	-2.208244	32.58923
5.050268	0.0616848	-0.4681786	0	0	2.208187	-32.58838
5.071188	0.05499712	-0.4532545	-0.3196748	0.7133815	-8.526852	19.02839
5.087756	0.05499712	-0.4532545	0	0	8.527394	-19.02961
5.109152	0.0548397	-0.4531604	-0.007357376	0.004397328	-0.1937994	0.1158293
5.125779	0.0548397	-0.4531604	0	0	0.1934956	-0.1156477
5.145707	0.0548397	-0.4531604	0	0	0	0
5.162306	0.0548397	-0.4531604	0	0	0	0
5.178842	0.0548397	-0.4531604	0	0	0	0
5.199506	0.0548397	-0.4531604	0	0	0	0
5.216346	0.0548397	-0.4531604	0	0	0	0
5.234835	0.05481346	-0.4531368	-0.001419117	0.001273438	-0.04016878	0.03604525
5.251403	0.05481346	-0.4531368	0	0	0.04048021	-0.03632471
5.267969	0.05481346	-0.4531368	0	0	0	0
5.287338	0.05473475	-0.4530663	-0.004063869	0.003643615	-0.1130912	0.1013962
5.303905	0.05473475	-0.4530663	0	0	0.1130852	-0.1013908
5.320472	0.05473475	-0.4530663	0	0	0	0
5.344504	0.04670286	-0.4458858	-0.3342148	0.2987845	-8.232219	7.359515
5.361073	0.04670286	-0.4458858	0	0	8.231542	-7.35891
5.383204	0.03306689	-0.4337882	-0.6161753	0.5466616	-15.922	14.12576
5.399773	0.03306689	-0.4337882	0	0	15.92219	-14.12593
5.419225	0.02039191	-0.4226416	-0.6515839	0.573016	-18.08864	15.90752
5.435795	0.02039191	-0.4226416	0	0	18.0884	-15.90731
5.452361	0.02039191	-0.4226416	0	0	0	0
5.473871	0.001947366	-0.406577	-0.857501	0.7468535	-22.52082	19.61485
5.494642	0.001947366	-0.406577	0	0	20.28116	-17.66418
5.520415	-0.01557769	-0.3914692	-0.6799634	0.5861744	-14.60887	12.59384
5.536985	-0.01557769	-0.3914692	0	0	16.05841	-13.84343
5.557765	-0.02525778	-0.3831837	-0.465846	0.3987347	-12.47271	10.67585
5.575019	-0.02525778	-0.3831837	0	0	12.248	-10.48352
5.595447	-0.02817675	-0.380693	-0.1428925	0.1219275	-3.79201	3.235651
5.612179	-0.02817675	-0.380693	0	0	3.845389	-3.281199
5.631982	-0.02907076	-0.3799757	-0.04514479	0.0362208	-1.235666	0.9914059
5.64871	-0.02907076	-0.3799757	0	0	1.235795	-0.9915094
5.665117	-0.02907076	-0.3799757	0	0	0	0
5.69339	-0.02904446	-0.3800429	0.0009299842	-0.002378061	0.02081427	-0.05322415
5.711384	-0.02904446	-0.3800429	0	0	-0.02010036	0.05139861
5.734692	-0.02907076	-0.3801102	-0.001128105	-0.002884674	-0.02731374	-0.06984392
5.751526	-0.02907076	-0.3801102	0	0	0.02810281	0.07186165
5.772353	-0.02907076	-0.3802446	0	-0.006456487	0	-0.1714344
5.789808	-0.02907076	-0.3802446	0	0	0	0.1686563
5.809336	-0.02907076	-0.3802446	0	0	0	0
5.825903	-0.02907076	-0.3802446	0	0	0	0
5.842472	-0.02907076	-0.3802446	0	0	0	0
5.862928	-0.02907076	-0.3802446	0	0	0	0
5.880595	-0.02907076	-0.3802446	0	0	0	0
5.901348	-0.02907076	-0.3802895	0	-0.002159827	0	-0.05621732
5.917916	-0.02907076	-0.3802895	0	0	0	0.05787149
5.944731	-0.02909705	-0.3803567	-0.0009805218	-0.002508402	-0.02260121	-0.05781914
5.965255	-0.02909705	-0.3803567	0	0	0.02071279	0.05298811
5.991818	-0.02909705	-0.3805809	0	-0.008439093	0	-0.1792227
6.010889	-0.02909705	-0.3805809	0	0	0	0.1849288
6.031753	-0.02980696	-0.3815452	-0.03402558	-0.046219	-0.8520317	-1.157366
6.048487	-0.02980696	-0.3815452	0	0	0.9049805	1.22929
6.068452	-0.02978067	-0.3815677	0.001316855	-0.001124015	0.03588229	-0.0306277
6.08502	-0.02978067	-0.3815677	0	0	-0.03604575	0.03076721
6.102335	-0.02978067	-0.3815677	0	0	0	0
6.12432	-0.02978067	-0.3815677	0	0	0	0
6.140889	-0.02978067	-0.3815677	0	0	0	0
6.161767	-0.02978067	-0.3815677	0	0	0	0
6.178335	-0.02978067	-0.3815677	0	0	0	0
6.19898	-0.02980696	-0.3815452	-0.001273483	0.001086994	-0.03422159	0.02921019
6.215548	-0.02980696	-0.3815452	0	0	0.03422159	-0.02921019
6.234424	-0.02980696	-0.3815452	0	0	0	0
6.250993	-0.02980696	-0.3815452	0	0	0	0
6.275139	-0.02980696	-0.3815452	0	0	0	0
6.294676	-0.02980696	-0.3815452	0	0	0	0
6.311245	-0.02980696	-0.3815452	0	0	0	0
6.32904	-0.02980696	-0.3815452	0	0	0	0
6.349026	-0.02980696	-0.3815452	0	0	0	0
6.369002	-0.02980696	-0.3815452	0	0	0	0
6.386989	-0.02980696	-0.3815452	0	0	0	0
6.407545	-0.02980696	-0.3815452	0	0	0	0
6.424254	-0.02980696	-0.3815452	0	0	0	0
6.444957	-0.02980696	-0.3815452	0	0	0	0
6.461525	-0.02980696	-0.3815452	0	0	0	0
6.483109	-0.02980696	-0.3815452	0	0	0	0
6.50032	-0.02980696	-0.3815452	0	0	0	0
6.521329	-0.02980696	-0.3815452	0	0	0	0
6.537898	-0.02980696	-0.3815452	0	0	0	0
6.559373	-0.02978067	-0.3815677	0.001224254	-0.001044974	0.03217996	-0.02746753
6.577984	-0.02978067	-0.3815677	0	0	-0.03054084	0.02606844
6.598526	-0.02978067	-0.3815677	0	0	0	0
6.615387	-0.02978067	-0.3815677	0	0	0	0
6.63646	-0.02978067	-0.3815677	0	0	0	0
6.653028	-0.02978067	-0.3815677	0	0	0	0
6.675203	-0.02978067	-0.3815677	0	0	0	0
6.691835	-0.02978067	-0.3815677	0	0	0	0
6.712615	-0.02978067	-0.3815677	0	0	0	0
6.729471	-0.02978067	-0.3815677	0	0	0	0
6.748876	-0.02978067	-0.3815677	0	0	0	0
6.765489	-0.02978067	-0.3815677	0	0	0	0
6.78201	-0.02978067	-0.3815677	0	0	0	0
6.802143	-0.02978067	-0.3815677	0	0	0	0
6.818711	-0.02978067	-0.3815677	0	0	0	0
6.839659	-0.02978067	-0.3815677	0	0	0	0
6.856227	-0.02978067	-0.3815677	0	0	0	0
6.881429	-0.02978067	-0.3815677	0	0	0	0
6.899441	-0.02978067	-0.3815677	0	0	0	0
6.922733	-0.02978067	-0.3815677	0	0	0	0
6.939301	-0.02978067	-0.3815677	0	0	0	0
6.95856	-0.02980696	-0.3815901	-0.001365142	-0.001165231	-0.03810406	-0.0325241
6.975128	-0.02980696	-0.3815901	0	0	0.03810304	0.03252323
6.991696	-0.02980696	-0.3815901	0	0	0	0
7.011956	-0.02978067	-0.3816125	0.00129767	-0.00110764	0.03523593	-0.03007599
7.034467	-0.02978067	-0.3816125	0	0	-0.03034006	0.02589706
7.055708	-0.02978067	-0.3816125	0	0	0	0
7.072721	-0.02978067	-0.3816125	0	0	0	0
7.091948	-0.02978067	-0.3816574	0	-0.002332784	0	-0.06437192
7.108515	-0.02978067	-0.3816574	0	0	0	0.06517114
7.125082	-0.02978067	-0.3816574	0	0	0	0
7.147986	-0.02978067	-0.3816574	0	0	0	0
7.164554	-0.02978067	-0.3816574	0	0	0	0
7.18484	-0.02978067	-0.3816574	0	0	0	0
7.20141	-0.02978067	-0.3816574	0	0	0	0
7.221646	-0.02978067	-0.3816574	0	0	0	0
7.238216	-0.02978067	-0.3816574	0	0	0	0
7.256852	-0.02978067	-0.3816574	0	0	0	0
7.27342	-0.02978067	-0.3816574	0	0	0	0
7.289989	-0.02978067	-0.3816574	0	0	0	0
7.312032	-0.02978067	-0.3816574	0	0	0	0
7.329385	-0.02978067	-0.3816574	0	0	0	0
7.352901	-0.02980696	-0.3816798	-0.001117984	-0.0009542662	-0.02735514	-0.02334925
7.36947	-0.02980696	-0.3816798	0	0	0.02789044	0.02380616
7.390056	-0.02978067	-0.3817023	0.001277111	-0.001090091	0.03437283	-0.02933927
7.406626	-0.02978067	-0.3817023	0	0	-0.03437106	0.02933777
7.426759	-0.02978067	-0.3817023	0	0	0	0
7.443333	-0.02978067	-0.3817023	0	0	0	0
7.467249	-0.02978067	-0.3817023	0	0	0	0
7.487683	-0.02978067	-0.3817023	0	0	0	0
7.511699	-0.02978067	-0.3817023	0	0	0	0
7.528265	-0.02978067	-0.3817023	0	0	0	0
7.550486	-0.02978067	-0.3817023	0	0	0	0
7.569292	-0.02978067	-0.3817023	0	0	0	0
7.58984	-0.02978067	-0.3817023	0	0	0	0
7.606408	-0.02978067	-0.3817023	0	0	0	0
7.631114	-0.02978067	-0.3817023	0	0	0	0
7.648138	-0.02978067	-0.3817023	0	0	0	0
7.671135	-0.02980696	-0.3817247	-0.001143227	-0.0009758133	-0.02856539	-0.02438228
7.687703	-0.02980696	-0.3817247	0	0	0.02889485	0.02466349
7.70728	-0.02980696	-0.3817247	0	0	0	0
7.723849	-0.02980696	-0.3817247	0	0	0	0
7.740414	-0.02980696	-0.3817247	0	0	0	0
7.760878	-0.02980696	-0.3817247	0	0	0	0
7.777448	-0.02980696	-0.3817247	0	0	0	0
7.804703	-0.02980696	-0.3817247	0	0	0	0
7.821273	-0.02980696	-0.3817247	0	0	0	0
7.841998	-0.02980696	-0.3817696	0	-0.002164147	0	-0.05802728
7.858566	-0.02980696	-0.3817696	0	0	0	0.05803099
7.879912	-0.02980696	-0.3817696	0	0	0	0
7.896481	-0.02980696	-0.3817696	0	0	0	0
7.915937	-0.02980696	-0.3817696	0	0	0	0
7.932505	-0.02980696	-0.3817696	0	0	0	0
7.949343	-0.02980696	-0.3817696	0	0	0	0
7.96883	-0.02980696	-0.3817696	0	0	0	0
7.985865	-0.02980696	-0.3817696	0	0	0	0
8.002385	-0.02980696	-0.3817696	0	0	0	0
8.022934	-0.02980696	-0.3817696	0	0	0	0
8.039904	-0.02980696	-0.3817696	0	0	0	0
8.062472	-0.02983325	-0.381792	-0.001165025	-0.0009943482	-0.02946567	-0.02514893
8.079041	-0.02983325	-0.381792	0	0	0.02976795	0.02540693
8.098289	-0.02983325	-0.381792	0	0	0	0
8.114962	-0.02983325	-0.381792	0	0	0	0
8.131426	-0.02983325	-0.381792	0	0	0	0
8.155027	-0.02980696	-0.3818145	0.001114042	-0.0009508344	0.02780533	-0.02373184
8.174564	-0.02980696	-0.3818145	0	0	-0.02582477	0.02204143
8.196256	-0.02980696	-0.3818145	0	0	0	0
8.212824	-0.02980696	-0.3818145	0	0	0	0
8.232513	-0.02980696	-0.3818145	0	0	0	0
8.249082	-0.02980696	-0.3818145	0	0	0	0
8.26565	-0.02980696	-0.3818145	0	0	0	0
8.28547	-0.02983325	-0.3818369	-0.00132658	-0.001132236	-0.03645613	-0.03111529
8.302038	-0.02983325	-0.3818369	0	0	0.03645613	0.03111529
8.318604	-0.02983325	-0.3818369	0	0	0	0
8.340343	-0.02983325	-0.3818369	0	0	0	0
8.356911	-0.02983325	-0.3818369	0	0	0	0
8.379027	-0.02983325	-0.3818369	0	0	0	0
8.398211	-0.02983325	-0.3818369	0	0	0	0
8.419762	-0.02983325	-0.3818369	0	0	0	0
8.436329	-0.02983325	-0.3818369	0	0	0	0
8.457135	-0.02985954	-0.3818593	-0.001263618	-0.001078574	-0.0338105	-0.02885929
8.47496	-0.02985954	-0.3818593	0	0	0.03270958	0.02791959
8.495778	-0.02988584	-0.3818817	-0.001263013	-0.00107655	-0.03268424	-0.02785893
8.512386	-0.02988584	-0.3818817	0	0	0.03374695	0.02876475
8.532466	-0.02991213	-0.3819042	-0.001309443	-0.001117609	-0.03569145	-0.03046264
8.549032	-0.02991213	-0.3819042	0	0	0.03573232	0.03049752
8.575668	-0.02991213	-0.3819042	0	0	0	0
8.592299	-0.02991213	-0.3819042	0	0	0	0
8.612977	-0.02991213	-0.3819042	0	0	0	0
8.630949	-0.02991213	-0.3819042	0	0	0	0
8.651018	-0.02991213	-0.3819042	0	0	0	0
8.671129	-0.02991213	-0.3819042	0	0	0	0
8.693255	-0.02991213	-0.3819042	0	0	0	0
8.709883	-0.02991213	-0.3819042	0	0	0	0
8.730327	-0.02991213	-0.3819042	0	0	0	0
8.746902	-0.02991213	-0.3819042	0	0	0	0
8.766129	-0.02993842	-0.3819266	-0.00136741	-0.001167167	-0.03819279	-0.03259984
8.782928	-0.02993842	-0.3819266	0	0	0.0379562	0.0323979
8.799263	-0.02993842	-0.3819266	0	0	0	0
8.819933	-0.02993842	-0.3819266	0	0	0	0
8.836502	-0.02993842	-0.3819266	0	0	0	0
8.855815	-0.02993842	-0.3819266	0	0	0	0
8.872728	-0.02993842	-0.3819266	0	0	0	0
8.890882	-0.02993842	-0.3819266	0	0	0	0
8.914444	-0.02996471	-0.3819491	-0.001115891	-0.0009524123	-0.02674995	-0.02283107
8.931035	-0.02996471	-0.3819491	0	0	0.02779062	0.02371928
8.950829	-0.02996471	-0.3819491	0	0	0	0
8.967956	-0.02996471	-0.3819491	0	0	0	0
8.984566	-0.02996471	-0.3819491	0	0	0	0
9.006015	-0.02993842	-0.3819715	0.001225838	-0.001046252	0.03220867	-0.02749009
9.022597	-0.02993842	-0.3819715	0	0	-0.0322321	0.02751008
9.043834	-0.02996471	-0.3819939	-0.001238114	-0.001056729	-0.03273795	-0.02794182
9.060404	-0.02996471	-0.3819939	0	0	0.03274868	0.02795099
9.083015	-0.0292811	-0.3829816	0.03023274	-0.04367883	0.7716035	-1.114776
9.099737	-0.0292811	-0.3829816	0	0	-0.7686289	1.110478
9.123047	-0.02402169	-0.3884246	0.2256316	-0.2335094	5.636362	-5.833152
9.139616	-0.02402169	-0.3884246	0	0	-5.657928	5.855471
9.160017	-0.001710525	-0.4123553	1.093631	-1.173013	29.58147	-31.72866
9.176584	-0.001710525	-0.4123553	0	0	-29.583	31.7303
9.196945	-0.005736779	-0.4674892	-0.197744	-2.707829	-5.354826	-73.32691
9.213513	-0.005736779	-0.4674892	0	0	5.354688	73.32502
9.233442	-0.02817675	-0.5253875	-1.126	-2.905235	-30.85174	-79.60176
9.250012	-0.02817675	-0.5253875	0	0	30.85013	79.5976
9.26658	-0.02817675	-0.5253875	0	0	0	0
9.286698	-0.06433216	-0.6169951	-1.797103	-4.553354	-48.98615	-124.1171
9.303299	-0.06433216	-0.6169951	0	0	48.94162	124.0043
9.326706	-0.08037908	-0.6691952	-0.6855612	-2.230107	-17.13578	-55.7421
9.348742	-0.08037908	-0.6691952	0	0	15.08632	49.07527
9.368914	-0.08712102	-0.717383	-0.3342208	-2.388834	-7.918475	-56.5971
9.385483	-0.08712102	-0.717383	0	0	9.096607	65.01777
9.409448	-0.08746052	-0.7416712	-0.01416659	-1.01349	-0.3494987	-25.00345
9.426018	-0.08746052	-0.7416712	0	0	0.3494905	25.00286
9.445672	-0.08043137	-0.7612147	0.3576396	-0.9943653	9.8729	-27.45018
9.46241	-0.08043137	-0.7612147	0	0	-9.827365	27.32358
9.478806	-0.08043137	-0.7612147	0	0	0	0
9.498034	-0.0712738	-0.7721004	0.476239	-0.5661081	13.3683	-15.89097
9.514946	-0.0712738	-0.7721004	0	0	-13.17745	15.66412
9.53117	-0.0712738	-0.7721004	0	0	0	0
9.551176	-0.06991219	-0.7763035	0.06805976	-0.2100891	1.878543	-5.798748
9.567744	-0.06991219	-0.7763035	0	0	-1.86086	5.744164
9.5879	-0.06538036	-0.8105825	0.2248385	-1.700695	6.12237	-46.31006
9.605449	-0.06538036	-0.8105825	0	0	-5.963178	45.10593
9.626655	-0.05958727	-0.8583186	0.2731831	-2.251076	7.049076	-58.08561
9.643224	-0.05958727	-0.8583186	0	0	-7.231843	59.59164
9.664327	-0.05670231	-0.8905905	0.136709	-1.529264	3.628925	-40.59415
9.683408	-0.05670231	-0.8905905	0	0	-3.402075	38.05653
9.704939	-0.04785816	-0.9131551	0.4107615	-1.047997	10.11423	-25.80496
9.721508	-0.04785816	-0.9131551	0	0	-10.78107	27.5063
9.741811	-0.03514342	-0.9314948	0.6262565	-0.9033098	16.98465	-24.49859
9.75838	-0.03514342	-0.9314948	0	0	-16.98465	24.49859
9.780432	-0.03414462	-0.9329555	0.04529344	-0.06624086	1.172769	-1.715154
9.797002	-0.03414462	-0.9329555	0	0	-1.17274	1.715111
9.818572	-0.03414462	-0.9329555	0	0	0	0
9.835169	-0.03414462	-0.9329555	0	0	0	0
9.854952	-0.0341709	-0.9329171	-0.001328697	0.001943333	-0.03652293	0.05341789
9.871518	-0.0341709	-0.9329171	0	0	0.0365536	-0.05346274
9.890695	-0.0341709	-0.9329171	0	0	0	0
9.910938	-0.03422347	-0.9326862	-0.002596929	0.01140352	-0.06587823	0.2892816
9.929328	-0.03422347	-0.9326862	0	0	0.06721987	-0.295173
9.95714	-0.03424976	-0.9324939	-0.0009451188	0.006915869	-0.02045636	0.1496886
9.979813	-0.03424976	-0.9324939	0	0	0.01872091	-0.1369895
10.00642	-0.0346966	-0.9313796	-0.01679125	0.04187348	-0.3407039	0.8496367
10.02939	-0.0346966	-0.9313796	0	0	0.338718	-0.8446841
10.05581	-0.03472288	-0.9311876	-0.0009946078	0.007263245	-0.02013946	0.1470709
10.07813	-0.03472288	-0.9311876	0	0	0.02040584	-0.1490161
10.10158	-0.03477545	-0.9311109	-0.002241333	0.003273289	-0.04896878	0.07151503
10.1212	-0.03477545	-0.9311109	0	0	0.05203834	-0.07599788
10.14114	-0.03488058	-0.9309574	-0.005272476	0.007697044	-0.1332865	0.1945788
10.1598	-0.03488058	-0.9309574	0	0	0.1365725	-0.1993759
10.17722	-0.03488058	-0.9309574	0	0	0	0
10.20284	-0.03498572	-0.9308039	-0.00410402	0.00599127	-0.0953678	0.1392231
10.21944	-0.03498572	-0.9308039	0	0	0.09719654	-0.1418928
10.2434	-0.035012	-0.9306888	-0.001097059	0.004803674	-0.0270435	0.118415
10.25997	-0.035012	-0.9306888	0	0	0.02706768	-0.1185208
10.28524	-0.03530112	-0.930267	-0.01144216	0.01669183	-0.2734894	0.3989663
10.302	-0.03530112	-0.930267	0	0	0.2722482	-0.3971557
10.32418	-0.03574792	-0.9295391	-0.02014914	0.03282513	-0.5174983	0.8430609
10.34142	-0.03574792	-0.9295391	0	0	0.5111755	-0.8327603
10.36282	-0.03585305	-0.929386	-0.004912186	0.007154873	-0.1271144	0.1851491
10.37939	-0.03585305	-0.929386	0	0	0.1293683	-0.1884322
10.401	-0.03590561	-0.9293094	-0.002432893	0.003545023	-0.06373062	0.09286333
10.41757	-0.03590561	-0.9293094	0	0	0.06372903	-0.09286101
10.43841	-0.03590561	-0.9292329	0	0.003670921	0	0.09810479
10.45498	-0.03590561	-0.9292329	0	0	0	-0.09810479
10.47651	-0.0359319	-0.9291946	-0.001220811	0.001777487	-0.03204369	0.04665525
10.49495	-0.0359319	-0.9291946	0	0	0.03054434	-0.04447222
10.5167	-0.0359319	-0.9291946	0	0	0	0
10.53327	-0.0359319	-0.9291946	0	0	0	0
10.55207	-0.03595818	-0.9291564	-0.00139792	0.002035356	-0.03952184	0.05754334
10.57135	-0.03595818	-0.9291564	0	0	0.03670344	-0.0534398
10.58792	-0.03595818	-0.9291564	0	0	0	0
10.60949	-0.03601074	-0.9290798	-0.00243698	0.003548216	-0.06390315	0.09304226
10.62606	-0.03601074	-0.9290798	0	0	0.06389835	-0.09303528
10.64607	-0.03611587	-0.9289268	-0.005252257	0.007647227	-0.1435637	0.2090271
10.66481	-0.03611587	-0.9289268	0	0	0.1355132	-0.1973056
10.68585	-0.0363524	-0.9285825	-0.01124295	0.01636163	-0.2826239	0.4112965
10.70242	-0.0363524	-0.9285825	0	0	0.2989575	-0.4350664
10.72287	-0.03643124	-0.9284679	-0.003855245	0.005607629	-0.1041403	0.1514768
10.73944	-0.03643124	-0.9284679	0	0	0.1041403	-0.1514768
10.76102	-0.03645752	-0.9284296	-0.00121779	0.001773089	-0.03192045	0.04647581
10.77759	-0.03645752	-0.9284296	0	0	0.03192045	-0.04647581
10.80068	-0.03648381	-0.9283914	-0.001138503	0.001655065	-0.02871107	0.04173788
10.81919	-0.03648381	-0.9283914	0	0	0.0273677	-0.039785
10.83993	-0.03651008	-0.9283531	-0.001267465	0.001845676	-0.03229336	0.04702543
10.85649	-0.03651008	-0.9283531	0	0	0.03397933	-0.04948052
10.87913	-0.03653637	-0.9283149	-0.0011609	0.001687624	-0.02960915	0.04304344
10.8957	-0.03653637	-0.9283149	0	0	0.02960843	-0.04304239
10.92187	-0.03653637	-0.9283149	0	0	0	0
10.93844	-0.03653637	-0.9283149	0	0	0	0
10.96087	-0.03656265	-0.9282767	-0.001171609	0.001703193	-0.0300394	0.0436689
10.98013	-0.03656265	-0.9282767	0	0	0.02810104	-0.04085107
11.00559	-0.03656265	-0.9282767	0	0	0	0
11.02251	-0.03656265	-0.9282767	0	0	0	0
11.04342	-0.03661521	-0.9282767	-0.002513719	0	-0.06645216	0
11.06473	-0.03661521	-0.9282767	0	0	0.05953975	0
11.08779	-0.03661521	-0.9282767	0	0	0	0
11.10435	-0.03661521	-0.9282767	0	0	0	0
11.13076	-0.03661521	-0.9282767	0	0	0	0
11.14924	-0.03661521	-0.9282767	0	0	0	0
11.1738	-0.03664149	-0.9282385	-0.001069919	0.001555584	-0.0248602	0.03614491
11.19546	-0.03664149	-0.9282385	0	0	0.023148	-0.0336555
11.21969	-0.03666777	-0.9282003	-0.001084899	0.00157714	-0.02364382	0.03437151
11.23625	-0.03666777	-0.9282003	0	0	0.02659618	-0.03866342
11.25639	-0.03672033	-0.9281238	-0.002610148	0.003797656	-0.07111518	0.1034696
11.27296	-0.03672033	-0.9281238	0	0	0.07111333	-0.1034669
11.29471	-0.03708825	-0.9275891	-0.01691036	0.02457647	-0.4412432	0.6412754
11.31129	-0.03708825	-0.9275891	0	0	0.4411773	-0.6411797
11.33504	-0.03884887	-0.9250357	-0.07413028	0.1075128	-1.8384	2.666274
11.35244	-0.03884887	-0.9250357	0	0	1.801544	-2.612821
11.37289	-0.03884887	-0.9250357	0	0	0	0
11.39278	-0.03884887	-0.9250357	0	0	0	0
11.41768	-0.03884887	-0.9250357	0	0	0	0
11.43425	-0.03884887	-0.9250357	0	0	0	0
11.45912	-0.03884887	-0.9250357	0	0	0	0
11.47806	-0.03884887	-0.9250357	0	0	0	0
11.50034	-0.03884887	-0.9250357	0	0	0	0
11.51736	-0.03884887	-0.9250357	0	0	0	0
11.53887	-0.03884887	-0.9250357	0	0	0	0
11.55614	-0.03884887	-0.9250357	0	0	0	0
11.57753	-0.03884887	-0.9250357	0	0	0	0
11.5941	-0.03884887	-0.9250357	0	0	0	0
11.61495	-0.03887514	-0.9249976	-0.001260732	0.001824692	-0.03369974	0.04877456
11.63151	-0.03887514	-0.9249976	0	0	0.03370232	-0.04877829
11.65446	-0.03887514	-0.9249976	0	0	0	0
11.67111	-0.03887514	-0.9249976	0	0	0	0
11.6924	-0.03887514	-0.9249976	0	0	0	0
11.70899	-0.03887514	-0.9249976	0	0	0	0
11.73746	-0.03887514	-0.9249976	0	0	0	0
11.75403	-0.03887514	-0.9249976	0	0	0	0
11.77561	-0.03887514	-0.9249976	0	0	0	0
11.79217	-0.03887514	-0.9249976	0	0	0	0
11.81192	-0.03887514	-0.9249976	0	0	0	0
11.8301	-0.03887514	-0.9249976	0	0	0	0
11.84667	-0.03887514	-0.9249976	0	0	0	0
11.86705	-0.03887514	-0.9249976	0	0	0	0
11.88362	-0.03887514	-0.9249976	0	0	0	0
11.90358	-0.03887514	-0.9249976	0	0	0	0
11.92015	-0.03887514	-0.9249976	0	0	0	0
11.93671	-0.03887514	-0.9249976	0	0	0	0
11.95712	-0.03887514	-0.9249976	0	0	0	0
11.97369	-0.03887514	-0.9249976	0	0	0	0
11.99406	-0.03887514	-0.9249976	0	0	0	0
12.01063	-0.03887514	-0.9249976	0	0	0	0
12.03274	-0.03887514	-0.9249976	0	0	0	0
12.04931	-0.03887514	-0.9249976	0	0	0	0
12.06998	-0.03887514	-0.9249976	0	0	0	0
12.08676	-0.03887514	-0.9249976	0	0	0	0
12.10642	-0.03887514	-0.9249976	0	0	0	0
12.12298	-0.03887514	-0.9249976	0	0	0	0
12.13955	-0.03887514	-0.9249976	0	0	0	0
12.15963	-0.03887514	-0.9249976	0	0	0	0
12.1762	-0.03887514	-0.9249976	0	0	0	0
12.19746	-0.03887514	-0.9249976	0	0	0	0
12.21816	-0.03887514	-0.9249976	0	0	0	0
12.24231	-0.03887514	-0.9249976	0	0	0	0
12.26146	-0.03887514	-0.9249976	0	0	0	0
12.28348	-0.03887514	-0.9249976	0	0	0	0
12.30041	-0.03887514	-0.9249976	0	0	0	0
12.32327	-0.03887514	-0.9249976	0	0	0	0
12.33993	-0.03887514	-0.9249976	0	0	0	0
12.36246	-0.03887514	-0.9249976	0	0	0	0
12.38175	-0.03887514	-0.9249976	0	0	0	0
12.40343	-0.03887514	-0.9249976	0	0	0	0
12.42	-0.03887514	-0.9249976	0	0	0	0
12.44178	-0.03887514	-0.9249976	0	0	0	0
12.45984	-0.03887514	-0.9249976	0	0	0	0
12.49532	-0.03887514	-0.9249976	0	0	0	0
12.51451	-0.03887514	-0.9249976	0	0	0	0
12.54082	-0.03887514	-0.9249976	0	0	0	0
12.56104	-0.03887514	-0.9249976	0	0	0	0
12.58683	-0.03887514	-0.9249976	0	0	0	0
12.60361	-0.03887514	-0.9249976	0	0	0	0
12.62296	-0.03887514	-0.9249976	0	0	0	0
12.63953	-0.03887514	-0.9249976	0	0	0	0
12.65617	-0.03887514	-0.9249976	0	0	0	0
12.67714	-0.03887514	-0.9249976	0	0	0	0
12.69371	-0.03887514	-0.9249976	0	0	0	0
12.71364	-0.03887514	-0.9249976	0	0	0	0
12.73022	-0.03887514	-0.9249976	0	0	0	0
12.74678	-0.03887514	-0.9249976	0	0	0	0
12.76604	-0.03887514	-0.9249976	0	0	0	0
12.78261	-0.03887514	-0.9249976	0	0	0	0
12.79917	-0.03887514	-0.9249976	0	0	0	0
12.81793	-0.03887514	-0.9249976	0	0	0	0
12.83529	-0.03887514	-0.9249976	0	0	0	0
12.85106	-0.03887514	-0.9249976	0	0	0	0
12.87364	-0.03887514	-0.9249976	0	0	0	0
12.89021	-0.03887514	-0.9249976	0	0	0	0
12.9113	-0.03887514	-0.9249976	0	0	0	0
12.92787	-0.03887514	-0.9249976	0	0	0	0
12.94922	-0.03887514	-0.9249976	0	0	0	0
12.96589	-0.03887514	-0.9249976	0	0	0	0
12.98593	-0.03887514	-0.9249976	0	0	0	0
13.00249	-0.03887514	-0.9249976	0	0	0	0
13.02152	-0.03887514	-0.9249976	0	0	0	0
13.03808	-0.03887514	-0.9249976	0	0	0	0
13.05465	-0.03887514	-0.9249976	0	0	0	0
13.07819	-0.03887514	-0.9249976	0	0	0	0
13.0952	-0.03887514	-0.9249976	0	0	0	0
13.11584	-0.03887514	-0.9249976	0	0	0	0
13.13301	-0.03887514	-0.9249976	0	0	0	0
13.15358	-0.03887514	-0.9249976	0	0	0	0
13.17015	-0.03887514	-0.9249976	0	0	0	0
13.19162	-0.03887514	-0.9249976	0	0	0	0
13.20857	-0.03887514	-0.9249976	0	0	0	0
13.22787	-0.03887514	-0.9249976	0	0	0	0
13.24863	-0.03887514	-0.9249976	0	0	0	0
13.2652	-0.03887514	-0.9249976	0	0	0	0
13.286	-0.03887514	-0.9249976	0	0	0	0
13.30257	-0.03887514	-0.9249976	0	0	0	0
13.32653	-0.03887514	-0.9249976	0	0	0	0
13.34316	-0.03887514	-0.9249976	0	0	0	0
13.36401	-0.03887514	-0.9249976	0	0	0	0
13.38068	-0.03887514	-0.9249976	0	0	0	0
13.40002	-0.03887514	-0.9249976	0	0	0	0
13.41671	-0.03887514	-0.9249976	0	0	0	0
13.43723	-0.03887514	-0.9249976	0	0	0	0
13.46022	-0.03887514	-0.9249976	0	0	0	0
13.47944	-0.03887514	-0.9249976	0	0	0	0
13.49922	-0.03887514	-0.9249976	0	0	0	0
13.51579	-0.03887514	-0.9249976	0	0	0	0
13.53469	-0.03887514	-0.9249976	0	0	0	0
13.55535	-0.03887514	-0.9249976	0	0	0	0
13.57191	-0.03887514	-0.9249976	0	0	0	0
13.59293	-0.03887514	-0.9249976	0	0	0	0
13.60985	-0.03887514	-0.9249976	0	0	0	0
13.63015	-0.03887514	-0.9249976	0	0	0	0
13.64671	-0.03887514	-0.9249976	0	0	0	0
13.66918	-0.03887514	-0.9249976	0	0	0	0
13.68574	-0.03887514	-0.9249976	0	0	0	0
13.70623	-0.03898025	-0.9238574	-0.005130863	0.05566224	-0.1384768	1.502267
13.72663	-0.03898025	-0.9238574	0	0	0.125498	-1.361467
13.7486	-0.06160615	-0.8711681	-1.029641	2.397738	-24.29908	56.58559
13.76547	-0.06160615	-0.8711681	0	0	26.51091	-61.73631
13.78668	-0.09461142	-0.8000473	-1.556069	3.353067	-40.86907	88.06596
13.80325	-0.09461142	-0.8000473	0	0	41.18889	-88.75513
13.82308	-0.1201034	-0.7409452	-1.285108	2.979477	-35.30069	81.84341
13.84002	-0.1201034	-0.7409452	0	0	34.94368	-81.01569
13.85622	-0.1201034	-0.7409452	0	0	0	0
13.87745	-0.1407732	-0.7096266	-0.973582	1.475154	-26.01353	39.41522
13.89402	-0.1407732	-0.7096266	0	0	25.75755	-39.02737
13.91295	-0.1464698	-0.7031806	-0.3008332	0.3404072	-8.473366	9.58802
13.92957	-0.1464698	-0.7031806	0	0	8.461547	-9.574646
13.94609	-0.1464698	-0.7031806	0	0	0	0
13.96674	-0.1433005	-0.6558427	0.1534309	2.291661	4.12724	61.64492
13.98463	-0.1433005	-0.6558427	0	0	-3.980797	-59.45764
14.0104	-0.1320947	-0.5654772	0.4348177	3.506462	9.959792	80.31788
14.03196	-0.1320947	-0.5654772	0	0	-9.186769	-74.08406
14.05679	-0.122826	-0.4931801	0.3732619	2.911475	8.045913	62.75883
14.07336	-0.122826	-0.4931801	0	0	-9.015997	-70.32557
14.09569	-0.1124187	-0.4657792	0.4660979	1.22718	11.98301	31.54984
14.11226	-0.1124187	-0.4657792	0	0	-11.98301	-31.54984
14.13246	-0.1015964	-0.452737	0.5355906	0.6454464	14.56413	17.5514
14.14903	-0.1015964	-0.452737	0	0	-14.56375	-17.55095
14.16959	-0.08667701	-0.4379027	0.7257745	0.721635	19.54917	19.43767
14.18616	-0.08667701	-0.4379027	0	0	-19.55018	-19.43867
14.20601	-0.0601117	-0.4110744	1.338125	1.351373	36.74162	37.10538
14.22258	-0.0601117	-0.4110744	0	0	-36.7397	-37.10344
14.23914	-0.0601117	-0.4110744	0	0	0	0
14.25862	-0.05190072	-0.3610161	0.4216376	2.570514	11.69906	71.32333
14.27533	-0.05190072	-0.3610161	0	0	-11.65065	-71.02824
14.29184	-0.05190072	-0.3610161	0	0	0	0
14.31317	-0.05861698	-0.3408062	-0.3149464	0.9477033	-8.325019	25.05077
14.33063	-0.05861698	-0.3408062	0	0	8.119519	-24.4324
14.35279	-0.05890546	-0.3406093	-0.01301529	0.00888516	-0.3284364	0.224214
14.36941	-0.05890546	-0.3406093	0	0	0.3356415	-0.2291327
14.39313	-0.05890546	-0.3406093	0	0	0	0
14.4097	-0.05890546	-0.3406093	0	0	0	0
14.43414	-0.05893168	-0.3405874	-0.001072851	0.0008949823	-0.02616077	0.02182356
14.4507	-0.05893168	-0.3405874	0	0	0.02616199	-0.02182458
14.47289	-0.05890546	-0.3406093	0.001182068	-0.0009860926	0.03050523	-0.02544775
14.48945	-0.05890546	-0.3406093	0	0	-0.03050448	0.02544712
14.5092	-0.05893168	-0.3405874	-0.001327672	0.001107557	-0.03655704	0.03049623
14.52577	-0.05893168	-0.3405874	0	0	0.03655704	-0.03049623
14.54234	-0.05893168	-0.3405874	0	0	0	0
14.56253	-0.05893168	-0.3406312	0	-0.002166674	0	-0.05894209
14.57955	-0.05893168	-0.3406312	0	0	0	0.05823502
14.6001	-0.05893168	-0.3406312	0	0	0	0
14.61707	-0.05893168	-0.3406312	0	0	0	0
14.63765	-0.05893168	-0.3406312	0	0	0	0
14.65422	-0.05893168	-0.3406312	0	0	0	0
14.67616	-0.05895791	-0.3406531	-0.0011956	-0.0009985979	-0.03105084	-0.02593451
14.69272	-0.05895791	-0.3406531	0	0	0.03105084	0.02593451
14.71509	-0.05893168	-0.340675	0.001172708	-0.0009781449	0.03012133	-0.02512393
14.73167	-0.05893168	-0.340675	0	0	-0.03011248	0.02511655
14.75216	-0.05895791	-0.3406968	-0.001279903	-0.001067556	-0.03452551	-0.02879742
14.76873	-0.05895791	-0.3406968	0	0	0.03453618	0.02880631
14.79552	-0.05898413	-0.3407187	-0.0009789268	-0.0008166299	-0.02257884	-0.01883548
14.81271	-0.05898413	-0.3407187	0	0	0.02225815	0.01856796
14.83325	-0.05898413	-0.3407625	0	-0.002131605	0	-0.05649311
14.84982	-0.05898413	-0.3407625	0	0	0	0.05744411
14.86884	-0.05901036	-0.3407844	-0.001378653	-0.001149922	-0.03873484	-0.03230838
14.88541	-0.05901036	-0.3407844	0	0	0.03873484	0.03230838
14.90197	-0.05901036	-0.3407844	0	0	0	0
14.92236	-0.05903658	-0.3408062	-0.001286066	-0.001072848	-0.03480009	-0.02903056
14.93932	-0.05903658	-0.3408062	0	0	0.03443486	0.02872588
14.95807	-0.05906281	-0.3408719	-0.001399206	-0.003502786	-0.03919153	-0.09811243
14.97464	-0.05906281	-0.3408719	0	0	0.03962337	0.09919351
14.9912	-0.05906281	-0.3408719	0	0	0	0
15.01627	-0.05906281	-0.3408719	0	0	0	0
15.03289	-0.05906281	-0.3408719	0	0	0	0
15.05313	-0.05908903	-0.3408938	-0.001295275	-0.00108053	-0.03514086	-0.02931483
15.0697	-0.05908903	-0.3408938	0	0	0.03518546	0.02935204
15.09087	-0.05906281	-0.3409157	0.001239009	-0.001035001	0.03283699	-0.02743024
15.10744	-0.05906281	-0.3409157	0	0	-0.03283284	0.02742678
15.12941	-0.05906281	-0.3409157	0	0	0	0
15.14598	-0.05906281	-0.3409157	0	0	0	0
15.16687	-0.05908903	-0.3409376	-0.001254956	-0.001046896	-0.03349924	-0.02794538
15.1835	-0.05908903	-0.3409376	0	0	0.03344815	0.02790276
15.20286	-0.05911525	-0.3410032	-0.00135468	-0.003391318	-0.03764668	-0.09424505
15.21942	-0.05911525	-0.3410032	0	0	0.03770564	0.09439266
15.23599	-0.05911525	-0.3410032	0	0	0	0
15.25537	-0.05914148	-0.3410251	-0.001353154	-0.001130352	-0.03764519	-0.03144676
15.27218	-0.05914148	-0.3410251	0	0	0.03738926	0.03123297
15.29144	-0.05914148	-0.3410251	0	0	0	0
15.31351	-0.05914148	-0.3410251	0	0	0	0
15.33172	-0.05914148	-0.3410251	0	0	0	0
15.35316	-0.0591677	-0.341047	-0.001222874	-0.001019988	-0.03084175	-0.02572483
15.36974	-0.0591677	-0.341047	0	0	0.03216144	0.02682557
15.38888	-0.0591677	-0.341047	0	0	0	0
15.40545	-0.0591677	-0.341047	0	0	0	0
15.42201	-0.0591677	-0.341047	0	0	0	0
15.44643	-0.0591677	-0.341047	0	0	0	0
15.4633	-0.0591677	-0.341047	0	0	0	0
15.48326	-0.05919392	-0.3410689	-0.001314094	-0.001096229	-0.03567726	-0.0297623
15.49983	-0.05919392	-0.3410689	0	0	0.03597815	0.03001331
15.51639	-0.05919392	-0.3410689	0	0	0	0
15.53827	-0.0591677	-0.3410908	0.0011984	-0.001001079	0.03117142	-0.02603892
15.55867	-0.0591677	-0.3410908	0	0	-0.02834808	0.02368045
15.58086	-0.05919392	-0.3411126	-0.001181459	-0.0009855841	-0.02774144	-0.02314217
15.59743	-0.05919392	-0.3411126	0	0	0.030479	0.02542587
15.61715	-0.05919392	-0.3411564	0	-0.00222059	0	-0.0612011
15.63393	-0.05919392	-0.3411564	0	0	0	0.0608397
15.65028	-0.05919392	-0.3411564	0	0	0	0
15.67001	-0.05922015	-0.3411783	-0.001329213	-0.001108842	-0.03684034	-0.03073256
15.68658	-0.05922015	-0.3411783	0	0	0.03662061	0.03054926
15.70344	-0.05922015	-0.3411783	0	0	0	0
15.72554	-0.05922015	-0.3411783	0	0	0	0
15.74364	-0.05922015	-0.3411783	0	0	0	0
15.76305	-0.05919392	-0.3412002	0.001350363	-0.00112802	0.03599193	-0.03006571
15.77962	-0.05919392	-0.3412002	0	0	-0.03752374	0.0313453
15.79619	-0.05919392	-0.3412002	0	0	0	0
15.81675	-0.05922015	-0.3412221	-0.001275506	-0.00106404	-0.03435565	-0.02865981
15.83332	-0.05922015	-0.3412221	0	0	0.034353	0.0286576
15.85361	-0.05922015	-0.3412221	0	0	0	0
15.87028	-0.05922015	-0.3412221	0	0	0	0
15.89259	-0.05922015	-0.3412221	0	0	0	0
15.90916	-0.05922015	-0.3412221	0	0	0	0
15.92965	-0.05922015	-0.3412221	0	0	0	0
15.94694	-0.05922015	-0.3412221	0	0	0	0
15.97166	-0.05924637	-0.341244	-0.001060957	-0.00088614	-0.02525525	-0.02109388
15.98935	-0.05924637	-0.341244	0	0	0.02501279	0.02089136
16.01491	-0.05924637	-0.3412878	0	-0.001713367	0	-0.03961623
16.03366	-0.05924637	-0.3412878	0	0	0	0.0386689
16.05784	-0.05924637	-0.3412878	0	0	0	0
16.07569	-0.05924637	-0.3412878	0	0	0	0
16.10025	-0.05924637	-0.3412878	0	0	0	0
16.11983	-0.05924637	-0.3412878	0	0	0	0
16.14242	-0.05924637	-0.3412878	0	0	0	0
16.15899	-0.05924637	-0.3412878	0	0	0	0
16.18079	-0.05927259	-0.3413096	-0.001202909	-0.001003478	-0.03135014	-0.02615258
16.20009	-0.05927259	-0.3413096	0	0	0.02926547	0.02441352
16.22191	-0.05927259	-0.3413096	0	0	0	0
16.23903	-0.05927259	-0.3413096	0	0	0	0
16.25971	-0.05927259	-0.3413096	0	0	0	0
16.27628	-0.05927259	-0.3413096	0	0	0	0
16.29582	-0.05927259	-0.3413096	0	0	0	0
16.31241	-0.05927259	-0.3413096	0	0	0	0
16.33782	-0.05927259	-0.3413096	0	0	0	0
16.35769	-0.05927259	-0.3413096	0	0	0	0
16.37448	-0.05927259	-0.3413096	0	0	0	0
16.39105	-0.05927259	-0.3413096	0	0	0	0
16.41006	-0.05929882	-0.3413315	-0.001378803	-0.001151778	-0.03874424	-0.03236484
16.42664	-0.05929882	-0.3413315	0	0	0.03874216	0.03236311
16.4432	-0.05929882	-0.3413315	0	0	0	0
16.46454	-0.05929882	-0.3413315	0	0	0	0
16.48111	-0.05929882	-0.3413315	0	0	0	0
16.50074	-0.05929882	-0.3413315	0	0	0	0
16.51731	-0.05929882	-0.3413315	0	0	0	0
16.53387	-0.05929882	-0.3413315	0	0	0	0
16.55403	-0.05929882	-0.3413315	0	0	0	0
16.57209	-0.05929882	-0.3413315	0	0	0	0
16.5933	-0.05927259	-0.3413096	0.001236002	0.001032489	0.03147413	0.02629179
16.60987	-0.05927259	-0.3413096	0	0	-0.03271181	-0.02732567
16.63092	-0.05927259	-0.3413096	0	0	0	0
16.64749	-0.05927259	-0.3413096	0	0	0	0
16.72095	-0.05927259	-0.3413096	0	0	0	0
16.73835	-0.05927259	-0.3413096	0	0	0	0
16.75948	-0.05929882	-0.3413315	-0.001241359	-0.001036964	-0.03222406	-0.02691824
16.77625	-0.05929882	-0.3413315	0	0	0.03275932	0.02736537
16.79511	-0.05929882	-0.3413315	0	0	0	0
16.81168	-0.05929882	-0.3413315	0	0	0	0
16.82827	-0.05929882	-0.3413315	0	0	0	0
16.84898	-0.05924637	-0.3413753	0.002532568	-0.002114131	0.06790055	-0.05668186
16.86555	-0.05924637	-0.3413753	0	0	-0.06793529	0.05671086
16.88631	-0.05924637	-0.3414629	0	-0.004216999	0	-0.112952
16.90288	-0.05924637	-0.3414629	0	0	0	0.1129577
16.92251	-0.05937749	-0.3416599	-0.006680485	-0.01003857	-0.1845654	-0.277341
16.93908	-0.05937749	-0.3416599	0	0	0.1845557	0.2773264
16.95567	-0.05937749	-0.3416599	0	0	0	0
16.97608	-0.06102938	-0.3433904	-0.08092584	-0.0847768	-2.187259	-2.291342
16.99265	-0.06102938	-0.3433904	0	0	2.188274	2.292406
17.01164	-0.05908903	-0.3451446	0.102139	-0.09234124	2.87179	-2.596311
17.02842	-0.05908903	-0.3451446	0	0	-2.855405	2.581497
17.04493	-0.05908903	-0.3451446	0	0	0	0
17.06539	-0.05798755	-0.3471203	0.05383538	-0.09656416	1.456186	-2.61195
17.08323	-0.05798755	-0.3471203	0	0	-1.4055	2.521035
17.10447	-0.06464663	-0.3527529	-0.3135127	-0.2651816	-8.021616	-6.785006
17.12104	-0.06464663	-0.3527529	0	0	8.292349	7.014002
17.15242	-0.1042262	-0.3864882	-1.261312	-1.075068	-26.30641	-22.42204
17.17085	-0.1042262	-0.3864882	0	0	25.32031	21.58154
17.19339	-0.1491473	-0.4260322	-1.993532	-1.754905	-48.66079	-42.83607
17.20995	-0.1491473	-0.4260322	0	0	50.98463	44.88175
17.23406	-0.1928114	-0.4665152	-1.810978	-1.67904	-44.51982	-41.27635
17.25241	-0.1928114	-0.4665152	0	0	42.65383	39.54631
17.27727	-0.2291155	-0.5197665	-1.460429	-2.14218	-33.80212	-49.58146
17.29731	-0.2291155	-0.5197665	0	0	32.52838	47.71312
17.32244	-0.2299888	-0.5814724	-0.03475187	-2.455347	-0.7693602	-54.35812
17.33901	-0.2299888	-0.5814724	0	0	0.8333709	58.88072
17.36461	-0.2174036	-0.6261938	0.4915299	-1.746639	11.65498	-41.41566
17.38118	-0.2174036	-0.6261938	0	0	-11.6555	41.41753
17.40262	-0.2077482	-0.6654068	0.4504133	-1.829247	11.85176	-48.13311
17.41918	-0.2077482	-0.6654068	0	0	-11.85176	48.13311
17.43907	-0.2048993	-0.6948141	0.1432604	-1.478794	3.929976	-40.56686
17.45564	-0.2048993	-0.6948141	0	0	-3.929976	40.56686
17.4722	-0.2048993	-0.6948141	0	0	0	0
17.49369	-0.2059838	-0.7122933	-0.05047298	-0.8135042	-1.326369	-21.3779
17.51027	-0.2059838	-0.7122933	0	0	1.32597	21.37147
17.53062	-0.2058325	-0.7124106	0.007433956	-0.005766753	0.2012981	-0.1561532
17.54729	-0.2058325	-0.7124106	0	0	-0.200821	0.1557831
17.56986	-0.1955224	-0.7244589	0.4566587	-0.5336471	11.63648	-13.59829
17.58643	-0.1955224	-0.7244589	0	0	-11.66597	13.63274
17.6086	-0.1773536	-0.7459481	0.8196235	-0.9694114	21.16007	-25.02712
17.62534	-0.1773536	-0.7459481	0	0	-21.06568	24.91548
17.64497	-0.1614252	-0.7650874	0.8114949	-0.9750753	22.31262	-26.81038
17.66187	-0.1614252	-0.7650874	0	0	-22.21708	26.69558
17.68064	-0.1614252	-0.7650874	0	0	0	0
17.70244	-0.1577827	-0.7693822	0.1670921	-0.197018	4.118295	-4.855875
17.71901	-0.1577827	-0.7693822	0	0	-4.354959	5.134926
17.74671	-0.1577827	-0.7692574	0	0.004505164	0	0.1017578
17.76328	-0.1577827	-0.7692574	0	0	0	-0.1017622
17.78508	-0.1577827	-0.7692574	0	0	0	0
17.80165	-0.1577827	-0.7692574	0	0	0	0
17.82252	-0.1577827	-0.7692574	0	0	0	0
17.84211	-0.1577827	-0.7692574	0	0	0	0
17.86198	-0.1577827	-0.7692574	0	0	0	0
17.87855	-0.1577827	-0.7692574	0	0	0	0
17.89511	-0.1577827	-0.7692574	0	0	0	0
17.91552	-0.1577827	-0.7692574	0	0	0	0
17.93453	-0.1577827	-0.7692574	0	0	0	0
17.95547	-0.1577571	-0.7692262	0.001225797	0.00148918	0.03068813	0.03728198
17.97426	-0.1577571	-0.7692262	0	0	-0.03085461	-0.03748424
17.99823	-0.1577571	-0.7692262	0	0	0	0
18.01497	-0.1577571	-0.7692262	0	0	0	0
18.03494	-0.1577571	-0.7691638	0	0.003125896	0	0.08516263
18.05166	-0.1577571	-0.7691638	0	0	0	-0.08521134
18.06807	-0.1577571	-0.7691638	0	0	0	0
18.08905	-0.1577571	-0.7691638	0	0	0	0
18.10562	-0.1577571	-0.7691638	0	0	0	0
18.12528	-0.1577571	-0.7691638	0	0	0	0
18.14185	-0.1577571	-0.7691638	0	0	0	0
18.15842	-0.1577571	-0.7691638	0	0	0	0
18.18081	-0.1577571	-0.7691638	0	0	0	0
18.19737	-0.1577571	-0.7691638	0	0	0	0
18.21841	-0.1577314	-0.7691326	0.001220283	0.00148162	0.03244647	0.03939525
18.23498	-0.1577314	-0.7691326	0	0	-0.03244812	-0.03939725
18.25496	-0.1577314	-0.7691326	0	0	0	0
18.27153	-0.1577314	-0.7691326	0	0	0	0
18.28923	-0.1577314	-0.7691326	0	0	0	0
18.31376	-0.1577314	-0.7691326	0	0	0	0
18.33317	-0.1577314	-0.7691326	0	0	0	0
18.35509	-0.1577314	-0.7691326	0	0	0	0
18.37431	-0.1577314	-0.7691326	0	0	0	0
18.40051	-0.1577314	-0.7691326	0	0	0	0
18.41761	-0.1577314	-0.7691326	0	0	0	0
18.44123	-0.1577314	-0.7691326	0	0	0	0
18.46097	-0.1577314	-0.7691326	0	0	0	0
18.48143	-0.1577314	-0.7691326	0	0	0	0
18.498	-0.1577314	-0.7691326	0	0	0	0
18.5196	-0.1577314	-0.7691326	0	0	0	0
18.53617	-0.1577314	-0.7691326	0	0	0	0
18.55637	-0.1577314	-0.7691326	0	0	0	0
18.57299	-0.1577314	-0.7691326	0	0	0	0
18.59376	-0.1577314	-0.7691326	0	0	0	0
18.61033	-0.1577314	-0.7691326	0	0	0	0
18.63004	-0.1577314	-0.7691326	0	0	0	0
18.64661	-0.1577314	-0.7691326	0	0	0	0
18.66318	-0.1577314	-0.7691326	0	0	0	0
18.6849	-0.1577314	-0.7691326	0	0	0	0
18.70811	-0.1577314	-0.7691326	0	0	0	0
18.7288	-0.1577314	-0.7691326	0	0	0	0
18.74537	-0.1577314	-0.7691326	0	0	0	0
18.76794	-0.1577314	-0.7691326	0	0	0	0
18.78451	-0.1577314	-0.7691326	0	0	0	0
18.80491	-0.1577314	-0.7691326	0	0	0	0
18.82148	-0.1577314	-0.7691326	0	0	0	0
18.84247	-0.1577314	-0.7691326	0	0	0	0
18.85904	-0.1577314	-0.7691326	0	0	0	0
18.8799	-0.1577314	-0.7691326	0	0	0	0
18.89647	-0.1577314	-0.7691326	0	0	0	0
18.91986	-0.1577314	-0.7691326	0	0	0	0
18.93643	-0.1577314	-0.7691326	0	0	0	0
18.95543	-0.1577314	-0.7691326	0	0	0	0
18.972	-0.1577314	-0.7691326	0	0	0	0
18.98857	-0.1577314	-0.7691326	0	0	0	0
19.01288	-0.1577314	-0.7690703	0	0.002565134	0	0.0627593
19.02988	-0.1577314	-0.7690703	0	0	0	-0.06209571
19.04996	-0.1569356	-0.7675434	0.03962796	0.07603534	1.068583	2.050322
19.06653	-0.1569356	-0.7675434	0	0	-1.081263	-2.074651
19.0901	-0.1570897	-0.7672322	-0.006536448	0.01320822	-0.1628639	0.3290994
19.10666	-0.1570897	-0.7672322	0	0	0.1628716	-0.329115
19.12641	-0.1571154	-0.7662679	-0.001300448	0.0488419	-0.03581495	1.345129
19.14297	-0.1571154	-0.7662679	0	0	0.03581307	-1.345058
19.15954	-0.1571154	-0.7662679	0	0	0	0
19.18001	-0.1643463	-0.7548994	-0.3532185	0.5553317	-9.536935	14.99401
19.19658	-0.1643463	-0.7548994	0	0	9.536444	-14.99324
19.21791	-0.1718921	-0.738499	-0.3537968	0.7689618	-9.336191	20.2918
19.23457	-0.1718921	-0.738499	0	0	9.311819	-20.23883
19.25723	-0.1734755	-0.7109151	-0.06989024	1.217537	-1.777387	30.96334
19.2738	-0.1734755	-0.7109151	0	0	1.781882	-31.04163
19.2929	-0.1663945	-0.6688859	0.370616	2.199798	10.38922	61.66538
19.30947	-0.1663945	-0.6688859	0	0	-10.38811	-61.65879
19.32944	-0.1663945	-0.6688859	0	0	0	0
19.3512	-0.1437387	-0.6161918	1.041489	2.42235	24.96069	58.05491
19.36777	-0.1437387	-0.6161918	0	0	-27.17834	-63.21284
19.39046	-0.1263237	-0.5836822	0.7672637	1.432303	19.54081	36.47816
19.40779	-0.1263237	-0.5836822	0	0	-19.17018	-35.78628
19.43519	-0.1139256	-0.550222	0.452534	1.2213	10.11848	27.30778
19.45379	-0.1139256	-0.550222	0	0	-9.836982	-26.54807
19.48574	-0.1055276	-0.5048054	0.2628802	1.421661	5.200156	28.12255
19.50231	-0.1055276	-0.5048054	0	0	-5.418712	-29.3045
19.52857	-0.09281153	-0.4732286	0.4841591	1.202275	11.30383	28.06993
19.54798	-0.09281153	-0.4732286	0	0	-10.60091	-26.32443
19.57078	-0.07122143	-0.4409087	0.9467573	1.417274	22.42888	33.5755
19.59056	-0.07122143	-0.4409087	0	0	-22.23198	-33.28076
19.61456	-0.05232063	-0.4192126	0.7875282	0.9039975	17.98778	20.64804
19.63113	-0.05232063	-0.4192126	0	0	-19.41192	-22.28279
19.65313	-0.03411834	-0.4033207	0.8273292	0.7223207	21.44984	18.72733
19.6697	-0.03411834	-0.4033207	0	0	-21.4509	-18.72826
19.69041	-0.0185505	-0.3897319	0.7517063	0.6561435	20.1653	17.60173
19.70698	-0.0185505	-0.3897319	0	0	-20.16427	-17.60083
19.72743	-0.01723514	-0.3846889	0.06431333	0.2465713	1.737182	6.660195
19.74592	-0.01723514	-0.3846889	0	0	-1.651663	-6.332324
19.77051	-0.0208917	-0.3815228	-0.1486924	0.1287496	-3.451744	2.988792
19.78708	-0.0208917	-0.3815228	0	0	3.612662	-3.128128
19.80778	-0.019366	-0.3802222	0.07371031	0.06283404	1.977962	1.686106
19.82434	-0.019366	-0.3802222	0	0	-1.977962	-1.686106
19.84379	-0.006920942	-0.3696552	0.6399367	0.5433687	17.76883	15.08747
19.86036	-0.006920942	-0.3696552	0	0	-17.76789	-15.08668
19.87703	-0.006920942	-0.3696552	0	0	0	0
19.89767	0.0009210524	-0.363033	0.3799171	0.3208207	10.18229	8.598428
19.91424	0.0009210524	-0.363033	0	0	-10.21048	-8.62223
19.93532	0.0009473682	-0.3630552	0.001248151	-0.001051656	0.03315048	-0.02793163
19.95189	0.0009473682	-0.3630552	0	0	-0.03315048	0.02793163
19.9758	0.0009473682	-0.3630552	0	0	0	0
19.99237	0.0009473682	-0.3630552	0	0	0	0
20.01305	0.0009736839	-0.3631217	0.001272319	-0.003216064	0.03415399	-0.08633167
20.02962	0.0009736839	-0.3631217	0	0	-0.03415399	0.08633167
20.05651	0.0009736839	-0.3632548	0	-0.00495078	0	-0.1139336
20.08237	0.0009736839	-0.3632548	0	0	0	0.09385092
20.10929	0.0009210524	-0.3632991	-0.001955502	-0.001647651	-0.03704861	-0.03121611
20.12688	0.0009210524	-0.3632991	0	0	0.04393786	0.03702081
20.14832	0.0008157893	-0.3634322	-0.00490867	-0.00620664	-0.1257479	-0.1589987
20.16523	0.0008157893	-0.3634322	0	0	0.1279803	0.1618214
20.18567	0.0004473684	-0.3638759	-0.01803199	-0.0217163	-0.4828866	-0.5815505
20.20223	0.0004473684	-0.3638759	0	0	0.4873675	0.5869469
20.22656	0.0004210526	-0.3638981	-0.001081698	-0.0009126323	-0.02645032	-0.02231622
20.24925	0.0004210526	-0.3638981	0	0	0.02300415	0.01940868
20.2873	0.0003157895	-0.3639869	-0.002766881	-0.002332861	-0.04555465	-0.03840884
20.30614	0.0003157895	-0.3639869	0	0	0.04863521	0.04100617
20.32971	0.0002368421	-0.3640535	-0.003349883	-0.002825045	-0.07898113	-0.06660687
20.34635	0.0002368421	-0.3640535	0	0	0.0833161	0.07026266
20.36647	0.0002105263	-0.3640756	-0.001307777	-0.001101896	-0.03557393	-0.02997358
20.38325	0.0002105263	-0.3640756	0	0	0.03544153	0.02986202
20.40442	0.0001842105	-0.3640978	-0.001243202	-0.001048894	-0.03276343	-0.02764263
20.42099	0.0001842105	-0.3640978	0	0	0.0329456	0.02779632
20.44127	0.0001578947	-0.36412	-0.001297203	-0.001094455	-0.03519863	-0.02969722
20.46115	0.0001578947	-0.36412	0	0	0.03229842	0.02725031
20.48377	0.0001315789	-0.3641422	-0.001163523	-0.0009803508	-0.027381	-0.02307043
20.50046	0.0001315789	-0.3641422	0	0	0.02959544	0.02493626
20.51902	7.894737E-05	-0.3641866	-0.00283569	-0.002392483	-0.08042837	-0.06785772
20.53559	7.894737E-05	-0.3641866	0	0	0.08072533	0.06810827
20.55216	7.894737E-05	-0.3641866	0	0	0	0
20.57414	-0.0001052632	-0.3643419	-0.008379262	-0.007065548	-0.2173534	-0.1832764
20.59071	-0.0001052632	-0.3643419	0	0	0.2173319	0.1832582
20.61629	-0.0002105263	-0.3644307	-0.004114838	-0.003470539	-0.09761812	-0.08233313
20.63526	-0.0002105263	-0.3644307	0	0	0.09238043	0.07791556
20.65954	-0.0002894737	-0.3645417	-0.003251466	-0.004570895	-0.07519317	-0.1057062
20.67838	-0.0002894737	-0.3645417	0	0	0.07539271	0.1059867
20.70194	-0.000368421	-0.3646527	-0.00335151	-0.004712804	-0.07904081	-0.1111451
20.72226	-0.000368421	-0.3646527	0	0	0.07638149	0.1074056
20.74829	-0.000368421	-0.3646527	0	0	0	0
20.76654	-0.000368421	-0.3646527	0	0	0	0
20.78965	-0.0003947368	-0.3646749	-0.001138653	-0.0009606854	-0.02752592	-0.02322371
20.80785	-0.0003947368	-0.3646749	0	0	0.02756405	0.02325588
20.82835	-0.0003947368	-0.3646749	0	0	0	0
20.84492	-0.0003947368	-0.3646749	0	0	0	0
20.86568	-0.0003947368	-0.3646749	0	0	0	0
20.88449	-0.0003947368	-0.3646749	0	0	0	0
20.90793	-0.0004210526	-0.3646971	-0.001122989	-0.0009461989	-0.02658102	-0.02239642
20.9245	-0.0004210526	-0.3646971	0	0	0.02807408	0.02365443
20.95023	-0.0004736842	-0.3647415	-0.002045523	-0.001725815	-0.04836052	-0.04080196
20.9673	-0.0004736842	-0.3647415	0	0	0.04779158	0.04032194
20.98839	-0.0005526315	-0.3648525	-0.003742757	-0.005262964	-0.09806999	-0.1379034
21.00496	-0.0005526315	-0.3648525	0	0	0.09937117	0.1397331
21.02732	-0.001499999	-0.3656964	-0.04237636	-0.03774742	-1.088609	-0.9696957
21.04632	-0.001499999	-0.3656964	0	0	1.024694	0.9127626
21.06842	-0.003131569	-0.3670742	-0.07382519	-0.06234223	-1.796253	-1.516859
21.0898	-0.003131569	-0.3670742	0	0	1.697691	1.433628
21.11045	-0.003131569	-0.3670742	0	0	0	0
21.12702	-0.003131569	-0.3670742	0	0	0	0
21.14763	-0.003131569	-0.3670742	0	0	0	0
21.1673	-0.003131569	-0.3670742	0	0	0	0
21.19802	-0.003105253	-0.3670964	0.0008567891	-0.0007238558	0.01700243	-0.01436446
21.21532	-0.003105253	-0.3670964	0	0	-0.01784539	0.01507663
21.23697	-0.003105253	-0.3670964	0	0	0	0
21.25354	-0.003105253	-0.3670964	0	0	0	0
21.27526	-0.003105253	-0.3670964	0	0	0	0
21.29183	-0.003105253	-0.3670964	0	0	0	0
21.31743	-0.003105253	-0.3670964	0	0	0	0
21.33595	-0.003105253	-0.3670964	0	0	0	0
21.35702	-0.003105253	-0.3670964	0	0	0	0
21.37362	-0.003105253	-0.3670964	0	0	0	0
21.39448	-0.003105253	-0.3670964	0	0	0	0
21.41105	-0.003105253	-0.3670964	0	0	0	0
21.4306	-0.003105253	-0.3670964	0	0	0	0
21.44717	-0.003105253	-0.3670964	0	0	0	0
21.46798	-0.003105253	-0.3670964	0	0	0	0
21.49137	-0.003105253	-0.3670964	0	0	0	0
21.50794	-0.003105253	-0.3670964	0	0	0	0
21.53087	-0.003105253	-0.3670964	0	0	0	0
21.5477	-0.003105253	-0.3670964	0	0	0	0
21.56809	-0.003105253	-0.3670964	0	0	0	0
21.58478	-0.003105253	-0.3670964	0	0	0	0
21.60586	-0.003105253	-0.3670964	0	0	0	0
21.62243	-0.003105253	-0.3670964	0	0	0	0
21.64637	-0.003105253	-0.3670964	0	0	0	0
21.66293	-0.003105253	-0.3670964	0	0	0	0
21.68365	-0.003105253	-0.3670964	0	0	0	0
21.70036	-0.003105253	-0.3670964	0	0	0	0
21.7235	-0.003105253	-0.3670964	0	0	0	0
21.74256	-0.003105253	-0.3670964	0	0	0	0
21.76532	-0.003105253	-0.3670964	0	0	0	0
21.78189	-0.003105253	-0.3670964	0	0	0	0
21.80691	-0.003078938	-0.3671187	0.001051921	-0.0008887046	0.02529628	-0.0213713
21.82347	-0.003078938	-0.3671187	0	0	-0.02529512	0.02137032
21.84478	-0.003105253	-0.3671409	-0.001235073	-0.001043438	-0.03260821	-0.02754871
21.86135	-0.003105253	-0.3671409	0	0	0.03260821	0.02754871
21.89523	-0.003078938	-0.3671187	0.0007767268	0.0006562095	0.01539616	0.01300729
21.912	-0.003078938	-0.3671187	0	0	-0.01533586	-0.01295635
21.93215	-0.003078938	-0.3671187	0	0	0	0
21.94905	-0.003078938	-0.3671187	0	0	0	0
21.97251	-0.003078938	-0.3671187	0	0	0	0
21.98908	-0.003078938	-0.3671187	0	0	0	0
22.01061	-0.003078938	-0.3671187	0	0	0	0
22.02758	-0.003078938	-0.3671187	0	0	0	0
22.04795	-0.003078938	-0.3671631	0	-0.002183841	0	-0.05849699
22.06454	-0.003078938	-0.3671631	0	0	0	0.05908564
22.08571	-0.003078938	-0.3671631	0	0	0	0
22.10228	-0.003078938	-0.3671631	0	0	0	0
22.12251	-0.003078938	-0.3671631	0	0	0	0
22.13917	-0.003078938	-0.3671631	0	0	0	0
22.15955	-0.003078938	-0.3671631	0	0	0	0
22.1778	-0.003078938	-0.3671631	0	0	0	0
22.21755	-0.003052622	-0.3671854	0.0006619746	-0.0005592674	0.011414	-0.009643081
22.23412	-0.003052622	-0.3671854	0	0	-0.01175337	0.009929803
22.25738	-0.003026307	-0.3672076	0.001131448	-0.0009559005	0.02840882	-0.02400111
22.27626	-0.003026307	-0.3672076	0	0	-0.02684669	0.02268135
22.29759	-0.003026307	-0.3672076	0	0	0	0
22.31685	-0.003026307	-0.3672076	0	0	0	0
22.33897	-0.003026307	-0.3672076	0	0	0	0
22.35554	-0.003026307	-0.3672076	0	0	0	0
22.37997	-0.002999991	-0.3672298	0.001077301	-0.0009113668	0.02627907	-0.02223136
22.39722	-0.002999991	-0.3672298	0	0	-0.02584852	0.02186713
22.42412	-0.002999991	-0.3672298	0	0	0	0
22.44069	-0.002999991	-0.3672298	0	0	0	0
22.46184	-0.003026307	-0.3672521	-0.001243981	-0.001050965	-0.03297626	-0.02785965
22.47841	-0.003026307	-0.3672521	0	0	0.03297626	0.02785965
22.50092	-0.003026307	-0.3672521	0	0	0	0
22.51749	-0.003026307	-0.3672521	0	0	0	0
22.53761	-0.003026307	-0.3672521	0	0	0	0
22.55446	-0.003026307	-0.3672521	0	0	0	0
22.57467	-0.002999991	-0.3673188	0.001301604	-0.003298939	0.03511269	-0.08899377
22.59257	-0.002999991	-0.3673188	0	0	-0.0341532	0.08656193
22.61279	-0.002973675	-0.3675189	0.001301101	-0.009894556	0.03413318	-0.2595745
22.62951	-0.002973675	-0.3675189	0	0	-0.03521873	0.2678299
22.65041	-0.002631573	-0.3682084	0.01636798	-0.03299102	0.435103	-0.8769861
22.66703	-0.002631573	-0.3682084	0	0	-0.4362089	0.879215
22.69314	7.894737E-05	-0.3713038	0.1038128	-0.1185521	2.429378	-2.774301
22.72298	7.894737E-05	-0.3713038	0	0	-1.855451	2.118887
22.74797	-0.019366	-0.410183	-0.7782848	-1.556142	-14.19585	-28.3839
22.76765	-0.019366	-0.410183	0	0	17.42518	34.84079
22.79584	-0.05979705	-0.4683213	-1.434106	-2.062188	-29.95674	-43.07664
22.81374	-0.05979705	-0.4683213	0	0	31.11718	44.74529
22.83875	-0.09505478	-0.5169281	-1.409578	-1.943266	-32.85139	-45.28942
22.86114	-0.09505478	-0.5169281	0	0	29.73584	40.99428
22.88582	-0.1304394	-0.5532376	-1.433782	-1.471259	-30.46093	-31.25714
22.90239	-0.1304394	-0.5532376	0	0	34.75977	35.66835
22.92373	-0.1559086	-0.578567	-1.193208	-1.186659	-31.47122	-31.29849
22.94204	-0.1559086	-0.578567	0	0	30.09356	29.92839
22.96259	-0.1772771	-0.6010365	-1.039556	-1.093112	-26.75109	-28.12926
22.97925	-0.1772771	-0.6010365	0	0	27.93863	29.37798
22.99947	-0.2027794	-0.630388	-1.26125	-1.45162	-34.20538	-39.36825
23.01603	-0.2027794	-0.630388	0	0	34.28519	39.4601
23.03698	-0.2311361	-0.6630844	-1.353647	-1.56081	-36.08221	-41.60424
23.05355	-0.2311361	-0.6630844	0	0	36.08221	41.60424
23.07431	-0.2455235	-0.7091877	-0.6929184	-2.220412	-18.56166	-59.47963
23.09088	-0.2455235	-0.7091877	0	0	18.56071	59.47659
23.11051	-0.2350473	-0.7427613	0.5337241	-1.710448	14.74471	-47.25299
23.12708	-0.2350473	-0.7427613	0	0	-14.74471	47.25299
23.14438	-0.2350473	-0.7427613	0	0	0	0
23.16607	-0.207975	-0.776052	1.247906	-1.534544	32.00423	-39.35543
23.18289	-0.207975	-0.776052	0	0	-32.40206	39.84465
23.20159	-0.1985087	-0.7879189	0.5061767	-0.6345391	14.25025	-17.864
23.21816	-0.1985087	-0.7879189	0	0	-14.3512	17.99055
23.23473	-0.1985087	-0.7879189	0	0	0	0
23.2579	-0.1937239	-0.7939617	0.2065215	-0.2608206	5.197368	-6.563869
23.27493	-0.1937239	-0.7939617	0	0	-5.136713	6.487267
23.30163	-0.1880921	-0.8010496	0.2109643	-0.2655134	4.82406	-6.071418
23.32122	-0.1880921	-0.8010496	0	0	-4.557691	5.736174
23.34338	-0.1736031	-0.8195966	0.6539606	-0.8371185	15.66446	-20.05168
23.35994	-0.1736031	-0.8195966	0	0	-16.88817	21.61813
23.38448	-0.155549	-0.8430527	0.7358746	-0.9560561	17.90386	-23.26088
23.40104	-0.155549	-0.8430527	0	0	-17.90386	23.26088
23.42285	-0.1328446	-0.8733605	1.041259	-1.389958	27.13588	-36.2232
23.43942	-0.1328446	-0.8733605	0	0	-27.13453	36.2214
23.4627	-0.1197143	-0.8889254	0.5640346	-0.6686168	14.15454	-16.77904
23.52541	-0.1197143	-0.8889254	0	0	-6.559236	7.775436
23.54832	-0.1198699	-0.8886361	-0.006794143	0.0126275	-0.07935324	0.1474848
23.57014	-0.1198699	-0.8886361	0	0	0.151882	-0.2822857
23.5914	-0.1199218	-0.8885638	-0.002440705	0.003401494	-0.05665349	0.07895526
23.60797	-0.1199218	-0.8885638	0	0	0.06452687	-0.08992802
23.62983	-0.1200515	-0.8883832	-0.005932129	0.008262998	-0.1543496	0.2149971
23.6464	-0.1200515	-0.8883832	0	0	0.1543573	-0.2150077
23.67386	-0.1201552	-0.8882386	-0.003778448	0.005264049	-0.08582422	0.1195684
23.69043	-0.1201552	-0.8882386	0	0	0.0858205	-0.1195632
23.71286	-0.1202849	-0.888058	-0.005781157	0.008050974	-0.1482292	0.2064275
23.72945	-0.1202849	-0.888058	0	0	0.1481495	-0.2063165
23.7533	-0.1203627	-0.8879497	-0.003262184	0.00454032	-0.08066044	0.1122635
23.76987	-0.1203627	-0.8879497	0	0	0.0807023	-0.1123218
23.79119	-0.1204146	-0.8878775	-0.002432932	0.003388352	-0.06421128	0.08942726
23.80784	-0.1204146	-0.8878775	0	0	0.06408224	-0.08924755
23.83542	-0.1204665	-0.8878052	-0.001880207	0.00261857	-0.04250657	0.05919904
23.85283	-0.1204665	-0.8878052	0	0	0.04178762	-0.05819776
23.87848	-0.1204924	-0.8877692	-0.001011354	0.001406192	-0.02349213	0.03266357
23.89806	-0.1204924	-0.8877692	0	0	0.02235982	-0.03108921
23.9201	-0.1204924	-0.8877692	0	0	0	0
23.93667	-0.1204924	-0.8877692	0	0	0	0
23.96268	-0.1204924	-0.8877692	0	0	0	0
23.97925	-0.1204924	-0.8877692	0	0	0	0
24.00108	-0.1204924	-0.8877692	0	0	0	0
24.01765	-0.1204924	-0.8877692	0	0	0	0
24.04016	-0.1204924	-0.8877692	0	0	0	0
24.05702	-0.1204924	-0.8877692	0	0	0	0
24.07936	-0.1205184	-0.887733	-0.001160903	0.001616793	-0.02962076	0.04125294
24.097	-0.1205184	-0.887733	0	0	0.02903437	-0.04043626
24.12419	-0.1205184	-0.887733	0	0	0	0
24.14076	-0.1205184	-0.887733	0	0	0	0
24.16334	-0.1205184	-0.887733	0	0	0	0
24.17991	-0.1205184	-0.887733	0	0	0	0
24.20241	-0.1205184	-0.887733	0	0	0	0
24.21934	-0.1205184	-0.887733	0	0	0	0
24.24522	-0.1205184	-0.887733	0	0	0	0
24.26179	-0.1205184	-0.887733	0	0	0	0
24.28201	-0.1205184	-0.887733	0	0	0	0
24.29858	-0.1205184	-0.887733	0	0	0	0
24.32526	-0.1205184	-0.887733	0	0	0	0
24.34183	-0.1205184	-0.887733	0	0	0	0
24.37002	-0.1205184	-0.887733	0	0	0	0
24.38659	-0.1205184	-0.887733	0	0	0	0
24.41037	-0.1205184	-0.887733	0	0	0	0
24.42694	-0.1205184	-0.887733	0	0	0	0
24.44629	-0.1205184	-0.887733	0	0	0	0
24.46286	-0.1205184	-0.887733	0	0	0	0
24.47943	-0.1205184	-0.887733	0	0	0	0
24.50121	-0.1205184	-0.887733	0	0	0	0
24.51862	-0.1205184	-0.887733	0	0	0	0
24.54114	-0.1205184	-0.887733	0	0	0	0
24.55771	-0.1205184	-0.887733	0	0	0	0
24.57938	-0.1205184	-0.887733	0	0	0	0
24.59774	-0.1205184	-0.887733	0	0	0	0
24.62617	-0.1208814	-0.8871557	-0.0127698	0.02030715	-0.2728776	0.4339432
24.64307	-0.1208814	-0.8871557	0	0	0.2817308	-0.4480221
24.66356	-0.1265827	-0.8780494	-0.2782638	0.4444529	-7.443766	11.88945
24.68012	-0.1265827	-0.8780494	0	0	7.508897	-11.99348
24.70228	-0.1449242	-0.8524728	-0.8276986	1.154198	-21.3717	29.80212
24.72193	-0.1449242	-0.8524728	0	0	19.79891	-27.60891
24.74285	-0.1616559	-0.8250061	-0.7998769	1.313076	-19.71909	32.3708
24.75967	-0.1616559	-0.8250061	0	0	21.19508	-34.79378
24.78312	-0.165473	-0.7920067	-0.1627694	1.40717	-4.041776	34.94186
24.79969	-0.165473	-0.7920067	0	0	4.067203	-35.16168
24.82365	-0.1566532	-0.7605658	0.3680138	1.311908	9.078921	32.36485
24.84023	-0.1566532	-0.7605658	0	0	-9.076359	-32.35571
24.86115	-0.1430942	-0.7418225	0.6484382	0.8963645	17.29591	23.90889
24.87826	-0.1430942	-0.7418225	0	0	-17.05128	-23.57073
24.90276	-0.1299219	-0.726452	0.5377728	0.6275186	12.92331	15.08
24.92198	-0.1299219	-0.726452	0	0	-12.30085	-14.35367
24.94674	-0.1192733	-0.7137616	0.4301531	0.512631	9.780731	11.6561
24.96332	-0.1192733	-0.7137616	0	0	-10.40528	-12.4004
24.99172	-0.1149645	-0.6885204	0.1517455	0.8889383	3.373689	19.76336
25.00832	-0.1149645	-0.6885204	0	0	-3.372117	-19.75415
25.03475	-0.1285245	-0.6592903	-0.513012	1.105862	-11.92014	25.69536
25.05471	-0.1285245	-0.6592903	0	0	11.059	-23.83907
25.0775	-0.140412	-0.6440831	-0.5216791	0.6673589	-12.20482	15.61304
25.09407	-0.140412	-0.6440831	0	0	13.25467	-16.95606
25.11496	-0.1278255	-0.6239813	0.6024769	0.9622136	16.08225	25.68489
25.13153	-0.1278255	-0.6239813	0	0	-16.08307	-25.6862
25.15378	-0.1168858	-0.6008253	0.4916059	1.040579	12.66302	26.80373
25.17048	-0.1168858	-0.6008253	0	0	-12.62085	-26.71448
25.19826	-0.1097155	-0.5696617	0.258158	1.122006	5.804741	25.22857
25.21632	-0.1097155	-0.5696617	0	0	-5.631335	-24.47491
25.24136	-0.104903	-0.5429289	0.1921974	1.06762	4.458511	24.76618
25.25793	-0.104903	-0.5429289	0	0	-4.619364	-25.65969
25.28004	-0.1038357	-0.5078133	0.04826525	1.588084	1.247837	41.05791
25.29706	-0.1038357	-0.5078133	0	0	-1.233422	-40.58361
25.32152	-0.09982498	-0.4685829	0.1640113	1.604247	3.954616	38.68135
25.33809	-0.09982498	-0.4685829	0	0	-3.998008	-39.10579
25.35871	-0.09562848	-0.4240707	0.2034939	2.158455	5.471532	58.03643
25.37741	-0.09562848	-0.4240707	0	0	-5.174827	-54.88928
25.39813	-0.08678149	-0.3865107	0.4270273	1.81295	10.83299	45.99158
25.4147	-0.08678149	-0.3865107	0	0	-11.45252	-48.62183
25.43721	-0.07650826	-0.358869	0.4562583	1.227633	11.67337	31.40899
25.45426	-0.07650826	-0.358869	0	0	-11.53323	-31.03192
25.47839	-0.07001694	-0.3407406	0.2690162	0.7512832	6.533654	18.24657
25.49574	-0.07001694	-0.3407406	0	0	-6.485285	-18.11149
25.52254	-0.06928366	-0.3396906	0.02736071	0.03917982	0.6197032	0.8873988
25.54349	-0.06928366	-0.3396906	0	0	-0.5730163	-0.8205444
25.57238	-0.06938842	-0.3397781	-0.003625924	-0.003027621	-0.07275272	-0.060748
25.59378	-0.06938842	-0.3397781	0	0	0.07209058	0.06019512
25.61922	-0.06938842	-0.3398218	0	-0.001720226	0	-0.03672656
25.63579	-0.06938842	-0.3398218	0	0	0	0.04094866
25.65601	-0.06951937	-0.3400187	-0.006477005	-0.009736144	-0.1760311	-0.2646075
25.6758	-0.06951937	-0.3400187	0	0	0.1618983	0.2433632
25.69701	-0.06951937	-0.3400187	0	0	0	0
25.71358	-0.06951937	-0.3400187	0	0	0	0
25.73523	-0.06957175	-0.3400624	-0.002419679	-0.002021103	-0.06331646	-0.05288681
25.7518	-0.06957175	-0.3400624	0	0	0.06331962	0.05288945
25.77418	-0.06970268	-0.3401718	-0.005850886	-0.004886059	-0.1502301	-0.1254568
25.79074	-0.06970268	-0.3401718	0	0	0.1502301	0.1254568
25.81139	-0.06972887	-0.3401936	-0.001268286	-0.001059371	-0.03407889	-0.02846533
25.82796	-0.06972887	-0.3401936	0	0	0.03407889	0.02846533
25.84761	-0.06978125	-0.3402374	-0.002664817	-0.002227377	-0.07356808	-0.06149161
25.86418	-0.06978125	-0.3402374	0	0	0.07356421	0.06148838
25.88075	-0.06978125	-0.3402374	0	0	0	0
25.90146	-0.06996457	-0.3404343	-0.008851481	-0.00950624	-0.2374744	-0.2550408
25.91803	-0.06996457	-0.3404343	0	0	0.237438	0.2550017
25.93762	-0.07006931	-0.3405218	-0.005346376	-0.004467545	-0.1478475	-0.1235445
25.95445	-0.07006931	-0.3405218	0	0	0.1467868	0.1226582
25.97103	-0.07006931	-0.3405218	0	0	0	0
26.00449	-0.07025262	-0.3408938	-0.00547828	-0.01111644	-0.1094796	-0.2221541
26.02106	-0.07025262	-0.3408938	0	0	0.1094921	0.2221795
26.04034	-0.07030499	-0.3409376	-0.002716635	-0.002271013	-0.07577672	-0.06334671
26.0571	-0.07030499	-0.3409376	0	0	0.07537968	0.0630148
26.07347	-0.07030499	-0.3409376	0	0	0	0
26.09476	-0.07035736	-0.3410251	-0.002460748	-0.0041142	-0.06535006	-0.1092608
26.11132	-0.07035736	-0.3410251	0	0	0.06501088	0.1086937
26.13316	-0.07038355	-0.3412659	-0.001199272	-0.01102443	-0.03122587	-0.287047
26.14973	-0.07038355	-0.3412659	0	0	0.03122742	0.2870613
26.17235	-0.07054066	-0.3415285	-0.006945286	-0.01161204	-0.1772282	-0.2963132
26.19056	-0.07054066	-0.3415285	0	0	0.1701	0.2843953
26.22228	-0.07098579	-0.3419008	-0.01403084	-0.01173308	-0.2809856	-0.2349699
26.2418	-0.07098579	-0.3419008	0	0	0.2738312	0.2289871
26.27058	-0.07237338	-0.3430617	-0.04820409	-0.04033076	-0.9980186	-0.8350091
26.28725	-0.07237338	-0.3430617	0	0	1.060458	0.8872497
26.30847	-0.07308014	-0.3436973	-0.03331093	-0.02995494	-0.8792047	-0.7906271
26.32672	-0.07308014	-0.3436973	0	0	0.8440229	0.7589898
26.35041	-0.07308014	-0.3436973	0	0	0	0
26.36758	-0.07308014	-0.3436973	0	0	0	0
26.38955	-0.07305397	-0.3437192	0.001191617	-0.0009972538	0.0304474	-0.02548117
26.40612	-0.07305397	-0.3437192	0	0	-0.03092517	0.02588101
26.42707	-0.07305397	-0.3437192	0	0	0	0
26.44386	-0.07305397	-0.3437192	0	0	0	0
26.4653	-0.0730278	-0.3437411	0.001220877	-0.001023132	0.03193271	-0.02676057
26.48189	-0.0730278	-0.3437411	0	0	-0.03210569	0.02690553
26.50408	-0.07289692	-0.3438946	0.005897988	-0.006915345	0.152095	-0.1783303
26.52065	-0.07289692	-0.3438946	0	0	-0.1521699	0.178418
26.54238	-0.07166652	-0.3449253	0.05663085	-0.04743877	1.478777	-1.238748
26.55931	-0.07166652	-0.3449253	0	0	-1.464769	1.227014
26.58449	-0.07164034	-0.3449911	0.001039812	-0.002614622	0.02469027	-0.06208401
26.60106	-0.07164034	-0.3449911	0	0	-0.02490799	0.06263147
26.62538	-0.07164034	-0.3449911	0	0	0	0
26.64195	-0.07164034	-0.3449911	0	0	0	0
26.66838	-0.07166652	-0.345013	-0.0009905155	-0.0008298456	-0.02303461	-0.01929821
26.6854	-0.07166652	-0.345013	0	0	0.02279599	0.01909829
26.70489	-0.07166652	-0.345013	0	0	0	0
26.72145	-0.07166652	-0.345013	0	0	0	0
26.73822	-0.07166652	-0.345013	0	0	0	0
26.76034	-0.07169271	-0.3450788	-0.001183324	-0.002974138	-0.0304298	-0.0764815
26.78504	-0.07169271	-0.3450788	0	0	0.02527408	0.06352323
26.8099	-0.07169271	-0.3450788	0	0	0	0
26.82647	-0.07169271	-0.3450788	0	0	0	0
26.84604	-0.07169271	-0.3450788	0	0	0	0
26.8626	-0.07169271	-0.3450788	0	0	0	0
26.88175	-0.07169271	-0.3450788	0	0	0	0
26.90278	-0.07169271	-0.3450788	0	0	0	0
26.91935	-0.07169271	-0.3450788	0	0	0	0
26.94139	-0.07171889	-0.3451008	-0.00118783	-0.000995154	-0.03076142	-0.02577166
26.95995	-0.07171889	-0.3451008	0	0	0.0292584	0.02451244
26.98073	-0.07174507	-0.3451666	-0.001260011	-0.003168315	-0.03203262	-0.08054646
26.99729	-0.07174507	-0.3451666	0	0	0.03373896	0.08483706
27.0249	-0.07177125	-0.3452324	-0.000948229	-0.002383255	-0.02146382	-0.05394664
27.04292	-0.07177125	-0.3452324	0	0	0.02078453	0.05223931
27.06382	-0.07177125	-0.345364	0	-0.006296472	0	-0.1617901
27.08039	-0.07177125	-0.345364	0	0	0	0.1680153
27.101	-0.07177125	-0.3454518	0	-0.004260575	0	-0.1146051
27.11771	-0.07177125	-0.3454518	0	0	0	0.1141716
27.13944	-0.07179743	-0.3455615	-0.00120493	-0.005048773	-0.03134672	-0.1313458
27.1568	-0.07179743	-0.3455615	0	0	0.03082213	0.1291477
27.17882	-0.07184979	-0.3457371	-0.002377379	-0.007972187	-0.06035987	-0.2024079
27.19539	-0.07184979	-0.3457371	0	0	0.06160692	0.2065897
27.21449	-0.07192833	-0.3459785	-0.004113033	-0.01264264	-0.1153286	-0.354497
27.23106	-0.07192833	-0.3459785	0	0	0.1153224	0.3544781
27.24762	-0.07192833	-0.3459785	0	0	0	0
27.27001	-0.07198069	-0.3463737	-0.002339024	-0.01765118	-0.06004908	-0.4531535
27.28658	-0.07198069	-0.3463737	0	0	0.0600432	0.4531091
27.30725	-0.07192833	-0.3465054	0.002533511	-0.006374873	0.06803716	-0.1711965
27.324	-0.07192833	-0.3465054	0	0	-0.06770769	0.1703675
27.34527	-0.07192833	-0.3465493	0	-0.002063441	0	-0.05426553
27.36184	-0.07192833	-0.3465493	0	0	0	0.0545281
27.38602	-0.07192833	-0.3465493	0	0	0	0
27.4026	-0.07192833	-0.3465493	0	0	0	0
27.42572	-0.07195451	-0.3465713	-0.001132555	-0.0009501341	-0.02853363	-0.02393772
27.44324	-0.07195451	-0.3465713	0	0	0.02786675	0.02337826
27.46702	-0.07195451	-0.3466152	0	-0.001847525	0	-0.0447324
27.48617	-0.07195451	-0.3466152	0	0	0	0.04303898
27.50644	-0.07198069	-0.346725	-0.001291669	-0.005416628	-0.03276752	-0.137411
27.52301	-0.07198069	-0.346725	0	0	0.03506116	0.1470294
27.54349	-0.07205923	-0.3468787	-0.0038353	-0.007506869	-0.1035215	-0.2026236
27.56015	-0.07205923	-0.3468787	0	0	0.1032557	0.2021034
27.58801	-0.07933315	-0.3530394	-0.2611001	-0.2211388	-5.864105	-4.966604
27.60458	-0.07933315	-0.3530394	0	0	5.876945	4.977479
27.62492	-0.1058399	-0.3756786	-1.303306	-1.113145	-35.31305	-30.16066
27.64149	-0.1058399	-0.3756786	0	0	35.31305	30.16066
27.66739	-0.1281621	-0.395108	-0.8618653	-0.7501714	-20.29398	-17.66397
27.68682	-0.1281621	-0.395108	0	0	19.01151	16.54771
27.71068	-0.1436614	-0.4087898	-0.6496192	-0.5734459	-15.00518	-13.2457
27.72725	-0.1436614	-0.4087898	0	0	16.06848	14.18432
27.74874	-0.1437645	-0.4088811	-0.004796334	-0.004248003	-0.1260039	-0.1115988
27.7661	-0.1437645	-0.4088811	0	0	0.1234492	0.1093361
27.78913	-0.1437902	-0.4088583	-0.001119306	0.0009912008	-0.02771376	0.0245419
27.8057	-0.1437902	-0.4088583	0	0	0.02826505	-0.02503009
27.82648	-0.1437902	-0.4088583	0	0	0	0
27.84304	-0.1437902	-0.4088583	0	0	0	0
27.86514	-0.1437645	-0.4088355	0.001166548	0.001033036	0.03016856	0.02671574
27.88976	-0.1437645	-0.4088355	0	0	-0.02496865	-0.02211097
27.91212	-0.1437387	-0.4088126	0.001153407	0.001021399	0.02455506	0.02174472
27.93007	-0.1437387	-0.4088126	0	0	-0.02861349	-0.02533865
27.95277	-0.1437129	-0.4087898	0.001136053	0.001006031	0.02794628	0.0247478
27.96933	-0.1437129	-0.4087898	0	0	-0.02893743	-0.02562551
27.9914	-0.1437129	-0.4087898	0	0	0	0
28.00797	-0.1437129	-0.4087898	0	0	0	0
28.0291	-0.1436871	-0.408767	0.001219602	0.001080017	0.03234307	0.02864138
28.04567	-0.1436871	-0.408767	0	0	-0.03234471	-0.02864283
28.06688	-0.1436871	-0.408767	0	0	0	0
28.08352	-0.1436871	-0.408767	0	0	0	0
28.10406	-0.1436871	-0.408767	0	0	0	0
28.12062	-0.1436871	-0.408767	0	0	0	0
28.14071	-0.1436871	-0.408767	0	0	0	0
28.15728	-0.1436871	-0.408767	0	0	0	0
28.18236	-0.1436871	-0.408767	0	0	0	0
28.19911	-0.1436871	-0.408767	0	0	0	0
28.22005	-0.1436871	-0.408767	0	0	0	0
28.23664	-0.1436871	-0.408767	0	0	0	0
28.26013	-0.1436871	-0.408767	0	0	0	0
28.28265	-0.1436871	-0.408767	0	0	0	0
28.30736	-0.1436871	-0.408767	0	0	0	0
28.32757	-0.1436871	-0.408767	0	0	0	0
28.35357	-0.1436871	-0.408767	0	0	0	0
28.3741	-0.1436871	-0.408767	0	0	0	0
28.41027	-0.1436871	-0.408767	0	0	0	0
28.42684	-0.1436871	-0.408767	0	0	0	0
28.44565	-0.1436871	-0.408767	0	0	0	0
28.46229	-0.1436871	-0.408767	0	0	0	0
28.47881	-0.1436871	-0.408767	0	0	0	0
28.50239	-0.1436871	-0.408767	0	0	0	0
28.52045	-0.1436871	-0.408767	0	0	0	0
28.54268	-0.1436871	-0.408767	0	0	0	0
28.55925	-0.1436871	-0.408767	0	0	0	0
28.58062	-0.1436871	-0.408767	0	0	0	0
28.59967	-0.1436871	-0.408767	0	0	0	0
28.62143	-0.1436871	-0.408767	0	0	0	0
28.63799	-0.1436871	-0.408767	0	0	0	0
28.65775	-0.1436871	-0.408767	0	0	0	0
28.67432	-0.1436871	-0.408767	0	0	0	0
28.69096	-0.1436871	-0.408767	0	0	0	0
28.71542	-0.1436871	-0.408767	0	0	0	0
28.73449	-0.1436871	-0.408767	0	0	0	0
28.76204	-0.1436871	-0.408767	0	0	0	0
28.7786	-0.1436871	-0.408767	0	0	0	0
28.79793	-0.1436871	-0.408767	0	0	0	0
28.8145	-0.1436871	-0.408767	0	0	0	0
28.83118	-0.1436871	-0.408767	0	0	0	0
28.85194	-0.1434809	-0.4082648	0.009936524	0.02419721	0.2654168	0.6463372
28.8691	-0.1434809	-0.4082648	0	0	-0.2620523	-0.6381441
28.89052	-0.1442284	-0.4054604	-0.03490609	0.1309636	-0.9047729	3.394603
28.91073	-0.1442284	-0.4054604	0	0	0.8384881	-3.14591
28.93455	-0.1590658	-0.3839024	-0.6229236	0.9050764	-14.14612	20.55359
28.95166	-0.1590658	-0.3839024	0	0	15.22145	-22.11599
28.97151	-0.1822447	-0.3292693	-1.167715	2.75233	-31.59839	74.47812
28.98808	-0.1822447	-0.3292693	0	0	32.06341	-75.5742
29.00464	-0.1822447	-0.3292693	0	0	0	0
29.03259	-0.194484	-0.2809846	-0.4379249	1.727639	-9.83798	38.8114
29.04921	-0.194484	-0.2809846	0	0	9.82577	-38.76323
29.06998	-0.1900722	-0.2586886	0.2123786	1.07332	5.679549	28.70334
29.08655	-0.1900722	-0.2586886	0	0	-5.687382	-28.74292
29.10615	-0.1871015	-0.2180166	0.1516125	2.075716	4.192439	57.39838
29.12271	-0.1871015	-0.2180166	0	0	-4.192659	-57.40141
29.13971	-0.1871015	-0.2180166	0	0	0	0
29.16637	-0.1967376	-0.1546499	-0.3615083	2.377271	-8.281315	54.45776
29.18293	-0.1967376	-0.1546499	0	0	8.363905	-55.00088
29.21331	-0.2058073	-0.09662904	-0.2985964	1.910183	-6.360998	40.69262
29.22988	-0.2058073	-0.09662904	0	0	6.36074	-40.69096
29.25486	-0.1846869	-0.06610878	0.8454739	1.221761	20.34851	29.40483
29.27143	-0.1846869	-0.06610878	0	0	-20.34944	-29.40618
29.29525	-0.1684925	-0.05388265	0.679842	0.5132524	16.83273	12.70801
29.31194	-0.1684925	-0.05388265	0	0	-16.78201	-12.66972
29.33641	-0.1668296	-0.052638	0.06793174	0.05084593	1.650102	1.235077
29.35442	-0.1668296	-0.052638	0	0	-1.598985	-1.196817
29.3749	-0.1667784	-0.05267629	0.002498691	-0.001869108	0.06491742	-0.0485605
29.39147	-0.1667784	-0.05267629	0	0	-0.06743713	0.05044533
29.41179	-0.1667016	-0.05273373	0.003779343	-0.002827538	0.1024754	-0.07666758
29.42852	-0.1667016	-0.05273373	0	0	-0.1020164	0.07632417
29.45397	-0.1667016	-0.05273373	0	0	0	0
29.47558	-0.1667016	-0.05273373	0	0	0	0
29.49688	-0.1666504	-0.05277202	0.002402716	-0.001797316	0.05598984	-0.04188235
29.51357	-0.1666504	-0.05277202	0	0	-0.0632419	0.04730714
29.53621	-0.1666504	-0.05277202	0	0	0	0
29.55277	-0.1666504	-0.05277202	0	0	0	0
29.5763	-0.1667016	-0.05273373	-0.002175946	0.001627683	-0.05427318	0.04059823
29.59286	-0.1667016	-0.05273373	0	0	0.05427576	-0.04060017
29.61468	-0.166676	-0.05275287	0.001172763	-0.0008775231	0.03055384	-0.022862
29.63166	-0.166676	-0.05275287	0	0	-0.03022641	0.02261699
29.65248	-0.1666504	-0.05277202	0.001230123	-0.0009199074	0.03254801	-0.02433996
29.66905	-0.1666504	-0.05277202	0	0	-0.03290504	0.02460696
29.68875	-0.1666504	-0.05277202	0	0	0	0
29.70532	-0.1666504	-0.05277202	0	0	0	0
29.72347	-0.1666504	-0.05277202	0	0	0	0
29.74998	-0.1664457	-0.05292518	0.007722572	-0.005777175	0.172917	-0.1293574
29.76655	-0.1664457	-0.05292518	0	0	-0.1792638	0.1341054
29.78742	-0.1662409	-0.05311665	0.009810249	-0.009174261	0.2620438	-0.2450558
29.80399	-0.1662409	-0.05311665	0	0	-0.2620305	0.2450433
29.8263	-0.1661386	-0.05319324	0.004588792	-0.003432745	0.1180205	-0.08828781
29.84362	-0.1661386	-0.05319324	0	0	-0.1157827	0.08661374
29.86951	-0.1660874	-0.05326983	0.001977731	-0.002958539	0.0457712	-0.06847031
29.88607	-0.1660874	-0.05326983	0	0	-0.04658344	0.06968536
29.9085	-0.1660106	-0.05340388	0.003423866	-0.005976981	0.08780531	-0.1532802
29.92507	-0.1660106	-0.05340388	0	0	-0.08780101	0.1532727
29.94525	-0.1660106	-0.05344218	0	-0.001897749	0	-0.0516383
29.96182	-0.1660106	-0.05344218	0	0	0	0.0516383
29.98914	-0.165985	-0.05357623	0.0009371509	-0.004907223	0.02135412	-0.111817
30.00571	-0.165985	-0.05357623	0	0	-0.02135412	0.111817
30.02726	-0.165985	-0.05357623	0	0	0	0
30.04383	-0.165985	-0.05357623	0	0	0	0
30.068	-0.1659594	-0.05363368	0.001059259	-0.002377168	0.02600229	-0.0583538
30.08525	-0.1659594	-0.05363368	0	0	-0.02557127	0.05738652
30.10631	-0.165857	-0.05378689	0.00486185	-0.007275439	0.1268922	-0.1898858
30.12288	-0.165857	-0.05378689	0	0	-0.1292143	0.1933607
30.14357	-0.1657546	-0.05394011	0.004947701	-0.007403011	0.1327747	-0.1986646
30.16014	-0.1657546	-0.05394011	0	0	-0.1327747	0.1986646
30.18329	-0.1653962	-0.05447644	0.01548465	-0.02317209	0.3899148	-0.5834903
30.20208	-0.1653962	-0.05447644	0	0	-0.3692036	0.5524967
30.22267	-0.1643975	-0.05967252	0.04851612	-0.2524316	1.232026	-6.410291
30.23923	-0.1643975	-0.05967252	0	0	-1.305838	6.794336
30.26036	-0.159348	-0.07319602	0.2390226	-0.6401413	6.340974	-16.98216
30.27693	-0.159348	-0.07319602	0	0	-6.341295	16.98302
30.29644	-0.1508968	-0.1085797	0.4331233	-1.813418	12.00472	-50.26186
30.34299	-0.1508968	-0.1085797	0	0	-6.555845	27.44827
30.35956	-0.1508968	-0.1085797	0	0	0	0
30.3844	-0.1129384	-0.2117145	1.52827	-4.15238	36.90882	-100.283
30.40097	-0.1129384	-0.2117145	0	0	-36.91052	100.2876
30.42621	-0.09202878	-0.2525502	0.8284967	-1.618023	19.818	-38.7038
30.44278	-0.09202878	-0.2525502	0	0	-19.81709	38.70204
30.46457	-0.07166652	-0.2798635	0.9340876	-1.252959	24.34534	-32.65615
30.48114	-0.07166652	-0.2798635	0	0	-24.34534	32.65615
30.50046	-0.06357212	-0.3033789	0.4190994	-1.217539	11.67963	-33.93084
30.51703	-0.06357212	-0.3033789	0	0	-11.67963	33.93084
30.53359	-0.06357212	-0.3033789	0	0	0	0
30.55425	-0.06645463	-0.332707	-0.1395061	-1.419403	-3.747381	-38.12767
30.57082	-0.06645463	-0.332707	0	0	3.747189	38.12572
30.59367	-0.0770838	-0.3518054	-0.4652485	-0.8359571	-11.80431	-21.20994
30.61035	-0.0770838	-0.3518054	0	0	11.76956	21.14751
30.63235	-0.08701655	-0.3601968	-0.4515406	-0.3814692	-11.67344	-9.861919
30.64892	-0.08701655	-0.3601968	0	0	11.70866	9.891673
30.66933	-0.09403761	-0.3662074	-0.3439924	-0.2944847	-9.302681	-7.963832
30.68591	-0.09403761	-0.3662074	0	0	9.299323	7.960958
30.70914	-0.1004242	-0.3717497	-0.2749105	-0.2385673	-6.905202	-5.992334
30.72593	-0.1004242	-0.3717497	0	0	6.868021	5.960068
30.74597	-0.1004502	-0.371772	-0.001299853	-0.00111246	-0.03528879	-0.03020139
30.76542	-0.1004502	-0.371772	0	0	0.0329162	0.02817085
30.78745	-0.1004502	-0.371772	0	0	0	0
30.81027	-0.1004502	-0.371772	0	0	0	0
30.83332	-0.1004502	-0.371772	0	0	0	0
30.84989	-0.1004502	-0.371772	0	0	0	0
30.87225	-0.1004502	-0.371772	0	0	0	0
30.88882	-0.1004502	-0.371772	0	0	0	0
30.909	-0.1004502	-0.371772	0	0	0	0
30.92557	-0.1004502	-0.371772	0	0	0	0
30.94747	-0.1004502	-0.371772	0	0	0	0
30.96566	-0.1004502	-0.371772	0	0	0	0
30.98738	-0.1004502	-0.371772	0	0	0	0
31.00395	-0.1004502	-0.371772	0	0	0	0
31.02312	-0.1004502	-0.371772	0	0	0	0
31.03968	-0.1004502	-0.371772	0	0	0	0
31.05625	-0.1004502	-0.371772	0	0	0	0
31.07592	-0.1004502	-0.371772	0	0	0	0
31.09274	-0.1004502	-0.371772	0	0	0	0
31.10931	-0.1004502	-0.371772	0	0	0	0
31.13234	-0.1004502	-0.371772	0	0	0	0
31.14891	-0.1004502	-0.371772	0	0	0	0
31.16774	-0.1004502	-0.371772	0	0	0	0
31.18431	-0.1004502	-0.371772	0	0	0	0
31.20088	-0.1004502	-0.371772	0	0	0	0
31.22265	-0.1004763	-0.3717943	-0.001196894	-0.001024052	-0.03122288	-0.026714
31.23983	-0.1004763	-0.3717943	0	0	0.03072451	0.0262876
31.26216	-0.1004763	-0.3717943	0	0	0	0
31.28316	-0.1004763	-0.3717943	0	0	0	0
31.30723	-0.1004763	-0.3717943	0	0	0	0
31.32537	-0.1004763	-0.3717943	0	0	0	0
31.34804	-0.1004763	-0.3717943	0	0	0	0
31.3646	-0.1004763	-0.3717943	0	0	0	0
31.38486	-0.1004763	-0.3717943	0	0	0	0
31.40143	-0.1004763	-0.3717943	0	0	0	0
31.42637	-0.1005284	-0.3718388	-0.00208873	-0.001787353	-0.05031684	-0.04305677
31.44294	-0.1005284	-0.3718388	0	0	0.05031453	0.0430548
31.46338	-0.1005805	-0.3718835	-0.002549599	-0.002183183	-0.06889976	-0.05899782
31.47995	-0.1005805	-0.3718835	0	0	0.06890331	0.05900087
31.50188	-0.1020652	-0.3731549	-0.06769723	-0.05797748	-1.758464	-1.50599
31.519	-0.1020652	-0.3731549	0	0	1.733218	1.484368
31.5383	-0.1108334	-0.380693	-0.4544824	-0.3907177	-12.47864	-10.72787
31.55486	-0.1108334	-0.380693	0	0	12.67378	10.89562
31.57659	-0.1108334	-0.380693	0	0	0	0
31.60114	-0.1144191	-0.3837901	-0.1460829	-0.1261777	-3.156899	-2.726741
31.61771	-0.1144191	-0.3837901	0	0	3.553214	3.069054
31.64026	-0.1144191	-0.3837901	0	0	0	0
31.65682	-0.1144191	-0.3837901	0	0	0	0
31.68162	-0.1144191	-0.3837901	0	0	0	0
31.69819	-0.1144191	-0.3837901	0	0	0	0
31.7192	-0.1144191	-0.3837901	0	0	0	0
31.73611	-0.1144191	-0.3837901	0	0	0	0
31.76297	-0.1143931	-0.3837676	0.0009669238	0.0008365583	0.02209302	0.01911433
31.77954	-0.1143931	-0.3837676	0	0	-0.02226379	-0.01926208
31.80317	-0.1143931	-0.3837676	0	0	0	0
31.81974	-0.1143931	-0.3837676	0	0	0	0
31.83927	-0.1143931	-0.3837676	0	0	0	0
31.85584	-0.1143931	-0.3837676	0	0	0	0
31.87241	-0.1143931	-0.3837676	0	0	0	0
31.89273	-0.1143931	-0.3837676	0	0	0	0
31.91302	-0.1143931	-0.3837676	0	0	0	0
31.9353	-0.1143931	-0.3837676	0	0	0	0
31.95206	-0.1143931	-0.3837676	0	0	0	0
31.97417	-0.1144191	-0.3837901	-0.001174807	-0.001016414	-0.03022708	-0.02615171
31.99084	-0.1144191	-0.3837901	0	0	0.03029994	0.02621475
32.01426	-0.1143931	-0.3837676	0.001108982	0.0009594633	0.02766587	0.02393582
32.03092	-0.1143931	-0.3837676	0	0	-0.02766455	-0.02393468
32.05227	-0.1144191	-0.3837901	-0.001216472	-0.001052461	-0.03199788	-0.02768376
32.06948	-0.1144191	-0.3837901	0	0	0.03155148	0.02729755
32.09082	-0.1144191	-0.3837901	0	0	0	0
32.10739	-0.1144191	-0.3837901	0	0	0	0
32.12997	-0.1144191	-0.3837901	0	0	0	0
32.14737	-0.1144191	-0.3837901	0	0	0	0
32.17325	-0.1144191	-0.3837901	0	0	0	0
32.18982	-0.1144191	-0.3837901	0	0	0	0
32.21247	-0.1144191	-0.3837901	0	0	0	0
32.22906	-0.1144191	-0.3837901	0	0	0	0
32.25153	-0.1143931	-0.3837676	0.001155566	0.0009997666	0.02958249	0.02559403
32.26967	-0.1143931	-0.3837676	0	0	-0.02845432	-0.02461796
32.29345	-0.1143931	-0.3837676	0	0	0	0
32.31558	-0.1143931	-0.3837676	0	0	0	0
32.3518	-0.1143672	-0.3837452	0.0007172226	0.0006197001	0.01229181	0.01062047
32.38137	-0.1143672	-0.3837452	0	0	-0.01090262	-0.009420159
32.40608	-0.1143672	-0.3837452	0	0	0	0
32.42465	-0.1143672	-0.3837452	0	0	0	0
32.45336	-0.1143672	-0.3837452	0	0	0	0
32.47596	-0.1143672	-0.3837452	0	0	0	0
32.49969	-0.1143672	-0.3837452	0	0	0	0
32.51626	-0.1143672	-0.3837452	0	0	0	0
32.5407	-0.1143672	-0.3837452	0	0	0	0
32.55727	-0.1143672	-0.3837452	0	0	0	0
32.57941	-0.1143672	-0.3837452	0	0	0	0
32.59628	-0.1143672	-0.3837452	0	0	0	0
32.61708	-0.1143672	-0.3837452	0	0	0	0
32.63378	-0.1143672	-0.3837452	0	0	0	0
32.65395	-0.1143672	-0.3837452	0	0	0	0
32.67081	-0.1143672	-0.3837452	0	0	0	0
32.69415	-0.1143672	-0.3837452	0	0	0	0
32.71338	-0.1143672	-0.3837452	0	0	0	0
32.73729	-0.1143672	-0.3837452	0	0	0	0
32.75386	-0.1143672	-0.3837452	0	0	0	0
32.7756	-0.1143672	-0.3837452	0	0	0	0
32.79239	-0.1143672	-0.3837452	0	0	0	0
32.81273	-0.1143672	-0.3837452	0	0	0	0
32.82941	-0.1143672	-0.3837452	0	0	0	0
32.84963	-0.1143672	-0.3837452	0	0	0	0
32.86644	-0.1143672	-0.3837452	0	0	0	0
32.88815	-0.1143672	-0.3837452	0	0	0	0
32.90472	-0.1143672	-0.3837452	0	0	0	0
32.92439	-0.1143672	-0.3837452	0	0	0	0
32.941	-0.1143672	-0.3837452	0	0	0	0
32.95752	-0.1143672	-0.3837452	0	0	0	0
32.98151	-0.1143672	-0.3837452	0	0	0	0
32.99867	-0.1143672	-0.3837452	0	0	0	0
33.01841	-0.1143672	-0.3837452	0	0	0	0
33.03506	-0.1143672	-0.3837452	0	0	0	0
33.05207	-0.1143672	-0.3837452	0	0	0	0
33.07503	-0.1143672	-0.3837452	0	0	0	0
33.0916	-0.1143672	-0.3837452	0	0	0	0
33.11314	-0.1143672	-0.3837452	0	0	0	0
33.12971	-0.1143672	-0.3837452	0	0	0	0
33.15038	-0.1143672	-0.3837452	0	0	0	0
33.17222	-0.1143672	-0.3837452	0	0	0	0
33.19797	-0.1143672	-0.3837452	0	0	0	0
33.21454	-0.1143672	-0.3837452	0	0	0	0
33.23708	-0.1143672	-0.3837452	0	0	0	0
33.25365	-0.1143672	-0.3837452	0	0	0	0
33.27748	-0.1143672	-0.3837452	0	0	0	0
33.29406	-0.1143672	-0.3837452	0	0	0	0
33.31836	-0.1143672	-0.3837452	0	0	0	0
33.33527	-0.1143672	-0.3837452	0	0	0	0
33.35471	-0.1143672	-0.3837452	0	0	0	0
33.3736	-0.1143672	-0.3837452	0	0	0	0
33.39017	-0.1143672	-0.3837452	0	0	0	0
33.41167	-0.1143672	-0.3837452	0	0	0	0
33.42884	-0.1143672	-0.3837452	0	0	0	0
33.44796	-0.1143672	-0.3837452	0	0	0	0
33.46503	-0.1143672	-0.3837452	0	0	0	0
33.48188	-0.1143672	-0.3837452	0	0	0	0
33.50166	-0.1143672	-0.3837452	0	0	0	0
33.51823	-0.1143672	-0.3837452	0	0	0	0
33.53492	-0.1143672	-0.3837452	0	0	0	0
33.55506	-0.1143672	-0.3837452	0	0	0	0
33.57162	-0.1143672	-0.3837452	0	0	0	0
33.59129	-0.1143672	-0.3837452	0	0	0	0
33.60797	-0.1143672	-0.3837452	0	0	0	0
33.62448	-0.1143672	-0.3837452	0	0	0	0
33.64616	-0.1143672	-0.3837452	0	0	0	0
33.66272	-0.1143672	-0.3837452	0	0	0	0
33.68769	-0.1143672	-0.3837452	0	0	0	0
33.70426	-0.1143672	-0.3837452	0	0	0	0
33.72612	-0.1143672	-0.3837452	0	0	0	0
33.74269	-0.1143672	-0.3837452	0	0	0	0
33.76465	-0.1143672	-0.3837452	0	0	0	0
33.78122	-0.1143672	-0.3837452	0	0	0	0
33.80185	-0.1143672	-0.3837452	0	0	0	0
33.81912	-0.1143672	-0.3837452	0	0	0	0
33.8429	-0.1143672	-0.3837452	0	0	0	0
33.85946	-0.1143672	-0.3837452	0	0	0	0
33.88162	-0.1143672	-0.3837452	0	0	0	0
33.89819	-0.1143672	-0.3837452	0	0	0	0
33.92134	-0.1143672	-0.3837452	0	0	0	0
33.94056	-0.1143672	-0.3837452	0	0	0	0
33.96182	-0.1143672	-0.3837452	0	0	0	0
33.97839	-0.1143672	-0.3837452	0	0	0	0
33.99925	-0.1143672	-0.3837452	0	0	0	0
34.01582	-0.1143672	-0.3837452	0	0	0	0
34.03571	-0.1143672	-0.3837452	0	0	0	0
34.0523	-0.1143672	-0.3837452	0	0	0	0
34.07184	-0.1143672	-0.3837452	0	0	0	0
34.09159	-0.1143672	-0.3837452	0	0	0	0
34.10838	-0.1143672	-0.3837452	0	0	0	0
34.12526	-0.1143672	-0.3837452	0	0	0	0
34.14758	-0.1143672	-0.3837452	0	0	0	0
34.16414	-0.1143672	-0.3837452	0	0	0	0
34.18453	-0.1143672	-0.3837452	0	0	0	0
34.2011	-0.1143672	-0.3837452	0	0	0	0
34.22335	-0.1143412	-0.3837227	0.001167655	0.001010226	0.03008291	0.02602698
34.23991	-0.1143412	-0.3837227	0	0	-0.03008587	-0.02602954
34.26211	-0.1131722	-0.3826673	0.05266992	0.04755581	1.358833	1.226894
34.27868	-0.1131722	-0.3826673	0	0	-1.358833	-1.226894
34.29858	-0.1130423	-0.382555	0.006526387	0.005638535	0.1789408	0.1545976
34.31627	-0.1130423	-0.382555	0	0	-0.1735849	-0.1499704
34.33371	-0.1130423	-0.382555	0	0	0	0
34.35563	-0.1130683	-0.3825326	-0.001185814	0.001023988	-0.03013027	0.02601845
34.3722	-0.1130683	-0.3825326	0	0	0.03081423	-0.02660908
34.39311	-0.1130683	-0.3825775	0	-0.002146229	0	-0.05726422
34.40968	-0.1130683	-0.3825775	0	0	0	0.05726422
34.43108	-0.1126786	-0.3829142	0.01821141	-0.01573502	0.4796556	-0.4144318
34.44811	-0.1126786	-0.3829142	0	0	-0.4738474	0.4094134
34.47128	-0.09682783	-0.3966474	0.6840928	-0.5927004	17.01592	-14.74266
34.48785	-0.09682783	-0.3966474	0	0	-17.21521	14.91532
34.50824	-0.06648083	-0.4231255	1.48836	-1.298611	40.27299	-35.13865
34.5248	-0.06648083	-0.4231255	0	0	-40.27299	35.13865
34.5457	-0.05011589	-0.435019	0.783127	-0.569153	20.90338	-15.19194
34.56269	-0.05011589	-0.435019	0	0	-20.66768	15.02064
34.58442	-0.03390805	-0.4206615	0.746187	0.6610001	19.27367	17.07333
34.60098	-0.03390805	-0.4206615	0	0	-19.48874	-17.26384
34.62243	0.0009736839	-0.3877038	1.626185	1.536487	42.77489	40.41549
34.63926	0.0009736839	-0.3877038	0	0	-42.48078	-40.13759
34.6598	0.03606331	-0.357896	1.708812	1.451597	45.73301	38.84914
34.67636	0.03606331	-0.357896	0	0	-46.05745	-39.12476
34.69639	0.07705764	-0.3233456	2.046937	1.725177	55.93582	47.14321
34.71758	0.07705764	-0.3233456	0	0	-49.66608	-41.85902
34.74012	0.1047728	-0.3004469	1.229543	1.015867	28.11806	23.23157
34.75682	0.1047728	-0.3004469	0	0	-31.32944	-25.88486
34.78183	0.1213741	-0.2819158	0.6639106	0.7410839	15.91734	17.76758
34.7984	0.1213741	-0.2819158	0	0	-15.96992	-17.82627
34.8191	0.129068	-0.2462024	0.3716404	1.72509	9.971679	46.28679
34.83567	0.129068	-0.2462024	0	0	-9.970658	-46.28205
34.85818	0.1389153	-0.215211	0.4375271	1.376983	11.19632	35.237
34.87474	0.1389153	-0.215211	0	0	-11.19741	-35.24044
34.89563	0.1434551	-0.1995523	0.2174091	0.749878	5.805491	20.02404
34.9127	0.1434551	-0.1995523	0	0	-5.72789	-19.75638
34.93442	0.1412117	-0.1844708	-0.1033019	0.6944548	-2.662992	17.90217
34.95105	0.1412117	-0.1844708	0	0	2.693452	-18.10694
34.97347	0.1361007	-0.165147	-0.2279756	0.8619413	-5.837315	22.07001
34.99004	0.1361007	-0.165147	0	0	5.847596	-22.10888
35.01065	0.1317068	-0.1550482	-0.2132254	0.4900644	-5.73584	13.18291
35.06842	0.1317068	-0.1550482	0	0	2.720386	-6.25237
35.09333	0.1214519	-0.1269359	-0.4116778	1.128558	-4.978955	13.64912
35.11019	0.1214519	-0.1269359	0	0	9.855603	-27.01778
35.13026	0.1166781	-0.1233168	-0.2378666	0.1803309	-6.440997	4.883034
35.14723	0.1166781	-0.1233168	0	0	6.421761	-4.868451
35.16837	0.1166781	-0.1233168	0	0	0	0
35.18494	0.1166781	-0.1233168	0	0	0	0
35.20502	0.1166781	-0.1233168	0	0	0	0
35.22177	0.1166781	-0.1233168	0	0	0	0
35.24228	0.1166522	-0.1233364	-0.001265282	-0.0009580409	-0.03395988	-0.02571359
35.25929	0.1166522	-0.1233364	0	0	0.03372165	0.02553321
35.28469	0.1166262	-0.1233561	-0.001021725	-0.0007736252	-0.02409058	-0.0182408
35.30132	0.1166262	-0.1233561	0	0	0.02430923	0.01840635
35.32806	0.1165743	-0.1233954	-0.001941425	-0.001470067	-0.04476496	-0.03389649
35.34464	0.1165743	-0.1233954	0	0	0.04482015	0.03393829
35.36655	0.1165484	-0.1234151	-0.001184454	-0.0008968397	-0.03077584	-0.02330272
35.3852	0.1165484	-0.1234151	0	0	0.02919581	0.02210636
35.40681	0.1165484	-0.1234151	0	0	0	0
35.4234	0.1165484	-0.1234151	0	0	0	0
35.44394	0.1165484	-0.1234544	0	-0.001914658	0	-0.05157908
35.46051	0.1165484	-0.1234544	0	0	0	0.05160559
35.48044	0.1165224	-0.123474	-0.001302083	-0.0009859058	-0.03566702	-0.02700619
35.49701	0.1165224	-0.123474	0	0	0.03567074	0.02700902
35.51358	0.1165224	-0.123474	0	0	0	0
35.53804	0.1165484	-0.1234937	0.001061243	-0.000803547	0.02586689	-0.01958578
35.55985	0.1165484	-0.1234937	0	0	-0.02293285	0.01736419
35.58057	0.116756	-0.1236509	0.01002604	-0.007591649	0.2357401	-0.1785008
35.59796	0.116756	-0.1236509	0	0	-0.2630897	0.1992097
35.61674	0.1177942	-0.1244373	0.05527256	-0.04186724	1.52777	-1.157238
35.63332	0.1177942	-0.1244373	0	0	-1.563208	1.184081
35.64989	0.1177942	-0.1244373	0	0	0	0
35.67253	0.1201034	-0.126188	0.1020091	-0.07733802	2.601779	-1.972533
35.68909	0.1201034	-0.126188	0	0	-2.602032	1.972725
35.70897	0.1208036	-0.1267587	0.03522784	-0.0287103	0.9665864	-0.7877573
35.72565	0.1208036	-0.1267587	0	0	-0.9637619	0.7854553
35.74363	0.1208036	-0.1267587	0	0	0	0
35.76939	0.1336201	-0.1365601	0.4976682	-0.3805912	11.37805	-8.701351
35.78595	0.1336201	-0.1365601	0	0	-11.75957	8.993122
35.80678	0.1428622	-0.1438826	0.4438098	-0.3516333	11.86922	-9.404058
35.82335	0.1428622	-0.1438826	0	0	-11.86922	9.404058
35.84463	0.1489929	-0.1487239	0.2880159	-0.2274362	7.608752	-6.008367
35.86123	0.1489929	-0.1487239	0	0	-7.602623	6.003527
35.88772	0.1490701	-0.1489026	0.002914499	-0.006748182	0.06764218	-0.1566176
35.90429	0.1490701	-0.1489026	0	0	-0.06769013	0.1567286
35.92513	0.1510254	-0.1504127	0.09379217	-0.07243396	2.506837	-1.935984
35.9417	0.1510254	-0.1504127	0	0	-2.506837	1.935984
35.96471	0.159784	-0.1577582	0.3806405	-0.3192278	9.617601	-8.065894
35.98132	0.159784	-0.1577582	0	0	-9.60649	8.056576
36.00171	0.1607073	-0.1603915	0.04528882	-0.1291731	1.224063	-3.491282
36.01828	0.1607073	-0.1603915	0	0	-1.22558	3.495607
36.04011	0.1600405	-0.1612699	-0.03053549	-0.04022946	-0.7951421	-1.047572
36.05668	0.1600405	-0.1612699	0	0	0.7950631	1.047468
36.07762	0.1597584	-0.1615694	-0.01347685	-0.01430821	-0.3593241	-0.3814901
36.09419	0.1597584	-0.1615694	0	0	0.3593241	0.3814901
36.11457	0.1596815	-0.1616693	-0.00377609	-0.004899996	-0.1021969	-0.1326146
36.13113	0.1596815	-0.1616693	0	0	0.1022075	0.1326282
36.15433	0.1596045	-0.1617292	-0.003317197	-0.002582968	-0.08342127	-0.0649568
36.1709	0.1596045	-0.1617292	0	0	0.08342127	0.0649568
36.19537	0.1595275	-0.1617891	-0.003145585	-0.002448867	-0.07665671	-0.05967795
36.21193	0.1595275	-0.1617891	0	0	0.07665671	0.05967795
36.23201	0.1593993	-0.161889	-0.006386986	-0.004973345	-0.1742802	-0.1357065
36.24858	0.1593993	-0.161889	0	0	0.1742621	0.1356924
36.2691	0.159348	-0.1619289	-0.00250125	-0.001947676	-0.06745063	-0.05252255
36.28834	0.159348	-0.1619289	0	0	0.06291379	0.0489898
36.31087	0.159271	-0.1619889	-0.00341615	-0.002659504	-0.08177547	-0.06366295
36.33672	0.159271	-0.1619889	0	0	0.07061929	0.05497776
36.3621	0.1592197	-0.1620288	-0.002021223	-0.001573889	-0.03945577	-0.03072347
36.38664	0.1592197	-0.1620288	0	0	0.04048377	0.03152395
36.40938	0.1591941	-0.1620488	-0.001128618	-0.0008789062	-0.02387126	-0.01858964
36.42604	0.1591941	-0.1620488	0	0	0.02864921	0.02231045
36.44859	0.1591427	-0.1620887	-0.002274902	-0.001771424	-0.05801652	-0.04517639
36.46585	0.1591427	-0.1620887	0	0	0.05713824	0.04449249
36.48982	0.1591171	-0.1621087	-0.001070597	-0.0008331012	-0.02596693	-0.02020656
36.50639	0.1591171	-0.1621087	0	0	0.02641169	0.02055265
36.52669	0.1590914	-0.1621287	-0.001263916	-0.0009842693	-0.03428123	-0.02669636
36.54325	0.1590914	-0.1621287	0	0	0.03428123	0.02669636
36.56446	0.1590914	-0.1621287	0	0	0	0
36.58103	0.1590914	-0.1621287	0	0	0	0
36.60536	0.1590401	-0.1621287	-0.002108689	0	-0.0515605	0
36.62451	0.1590401	-0.1621287	0	0	0.04850225	0
36.64426	0.1589888	-0.1621686	-0.002598132	-0.002022529	-0.06679264	-0.05199509
36.66083	0.1589888	-0.1621686	0	0	0.07152747	0.05568094
36.6774	0.1589888	-0.1621686	0	0	0	0
36.69909	0.1589118	-0.1622286	-0.00354895	-0.00276289	-0.09277383	-0.07222528
36.71584	0.1589118	-0.1622286	0	0	0.09231355	0.07186694
36.7397	0.1588349	-0.1622485	-0.003225544	-0.000837455	-0.07940995	-0.02061738
36.7576	0.1588349	-0.1622485	0	0	0.07725511	0.02005791
36.78146	0.1587579	-0.1623085	-0.003225138	-0.002510938	-0.07723126	-0.06012855
36.80049	0.1587579	-0.1623085	0	0	0.07519126	0.05854031
36.82278	0.1540333	-0.1659872	-0.2119321	-0.1650157	-5.129418	-3.993894
36.83935	0.1540333	-0.1659872	0	0	5.453689	4.246379
36.86245	0.1233443	-0.1899448	-1.328202	-1.036874	-33.47886	-26.1356
36.88206	0.1233443	-0.1899448	0	0	31.09585	24.27527
36.90493	0.05518077	-0.2435237	-2.981093	-2.343242	-70.18822	-55.17036
36.92149	0.05518077	-0.2435237	0	0	75.59985	59.42408
36.94661	-0.01602494	-0.3006393	-2.834647	-2.273731	-67.99832	-54.54292
36.96318	-0.01602494	-0.3006393	0	0	67.99832	54.54292
36.9836	-0.08236586	-0.3555984	-3.248202	-2.690919	-87.81033	-72.745
37.00017	-0.08236586	-0.3555984	0	0	87.81033	72.745
37.02256	-0.1329738	-0.3991862	-2.260063	-1.946556	-58.01058	-49.96356
37.03913	-0.1329738	-0.3991862	0	0	58.01058	49.96356
37.06571	-0.1765886	-0.4382054	-1.640838	-1.467946	-38.0281	-34.02115
37.08368	-0.1765886	-0.4382054	0	0	36.82985	32.94916
37.10546	-0.2141645	-0.4731809	-1.725698	-1.606275	-43.41887	-40.41418
37.16072	-0.2141645	-0.4731809	0	0	22.40177	20.85151
37.18988	-0.2506177	-0.508499	-1.250131	-1.211204	-14.8086	-14.34749
37.20644	-0.2506177	-0.508499	0	0	27.33914	26.48786
37.2278	-0.2527652	-0.5106319	-0.1005439	-0.09986158	-2.651074	-2.633083
37.24437	-0.2527652	-0.5106319	0	0	2.651074	2.633083
37.26389	-0.2527652	-0.5106319	0	0	0	0
37.28045	-0.2527652	-0.5106319	0	0	0	0
37.29702	-0.2527652	-0.5106319	0	0	0	0
37.32071	-0.2527158	-0.5106319	0.002083669	0	0.05176472	0
37.33791	-0.2527158	-0.5106319	0	0	-0.05095348	0
37.36398	-0.2527158	-0.5106319	0	0	0	0
37.3839	-0.2527158	-0.5106319	0	0	0	0
37.40526	-0.2526911	-0.5106074	0.001154928	0.001149348	0.0279761	0.02784095
37.42183	-0.2526911	-0.5106074	0	0	-0.03044317	-0.03029611
37.44186	-0.2526665	-0.5105829	0.00123042	0.001222981	0.03361619	0.03341295
37.45844	-0.2526665	-0.5105829	0	0	-0.03361619	-0.03341295
37.4794	-0.2526418	-0.5105583	0.001176778	0.001171093	0.03134695	0.03119552
37.49638	-0.2526418	-0.5105583	0	0	-0.03100979	-0.03085998
37.52605	-0.2525678	-0.5104847	0.002495339	0.002481275	0.0534951	0.0531936
37.54329	-0.2525678	-0.5104847	0	0	-0.05320359	-0.05290373
37.56454	-0.2523211	-0.5101904	0.01160798	0.01384714	0.3015821	0.3597566
37.58111	-0.2523211	-0.5101904	0	0	-0.306905	-0.3661063
37.60284	-0.2522224	-0.5100923	0.004542661	0.00451523	0.1186205	0.1179042
37.6194	-0.2522224	-0.5100923	0	0	-0.1186205	-0.1179042
37.63969	-0.252099	-0.5099696	0.006081939	0.006046681	0.1650289	0.1640722
37.65626	-0.252099	-0.5099696	0	0	-0.1650289	-0.1640722
37.68222	-0.2512597	-0.5091361	0.03232557	0.03210403	0.7600639	0.754855
37.69879	-0.2512597	-0.5091361	0	0	-0.7600639	-0.754855
37.71989	-0.2491847	-0.5070791	0.09834413	0.0974931	2.61093	2.588336
37.73645	-0.2491847	-0.5070791	0	0	-2.61093	-2.588336
37.75775	-0.2491847	-0.5070791	0	0	0	0
37.77432	-0.2491847	-0.5070791	0	0	0	0
37.79756	-0.2491353	-0.5070301	0.002127534	0.002105733	0.05344708	0.0528994
37.81413	-0.2491353	-0.5070301	0	0	-0.05344708	-0.0528994
37.8392	-0.2489129	-0.5068099	0.00887152	0.008781188	0.2130465	0.2108772
37.85577	-0.2489129	-0.5068099	0	0	-0.2130465	-0.2108772
37.87733	-0.2477507	-0.5056606	0.05389077	0.05329858	1.41328	1.397749
37.89429	-0.2477507	-0.5056606	0	0	-1.399004	-1.383631
37.91712	-0.2335783	-0.4917279	0.6206493	0.6101502	15.59769	15.33383
37.93369	-0.2335783	-0.4917279	0	0	-15.75172	-15.48526
37.95375	-0.2136367	-0.4725367	0.9938347	0.9564386	27.12983	26.10899
37.97365	-0.2136367	-0.4725367	0	0	-24.87139	-23.93553
37.99487	-0.1934198	-0.4535133	0.9528518	0.8965974	23.17754	21.80919
38.01143	-0.1934198	-0.4535133	0	0	-25.21801	-23.72919
38.03081	-0.1757724	-0.4372278	0.9108392	0.840549	25.34186	23.38621
38.04739	-0.1757724	-0.4372278	0	0	-25.3338	-23.37877
38.06591	-0.1757724	-0.4372278	0	0	0	0
38.09394	-0.1526711	-0.416342	0.8241518	0.7451103	17.70437	16.00641
38.1105	-0.1526711	-0.416342	0	0	-18.47972	-16.7074
38.13168	-0.1353516	-0.4009567	0.8179086	0.7265653	21.67069	19.25053
38.14846	-0.1353516	-0.4009567	0	0	-21.54873	-19.14219
38.1737	-0.118443	-0.3861507	0.6698617	0.5865691	15.94047	13.95839
38.19027	-0.118443	-0.3861507	0	0	-16.02192	-14.02971
38.21167	-0.1033411	-0.3727756	0.7056829	0.6249889	18.58641	16.46107
38.22824	-0.1033411	-0.3727756	0	0	-18.58641	-16.46107
38.24985	-0.08884445	-0.3601525	0.6708214	0.5841254	17.57112	15.30026
38.26641	-0.08884445	-0.3601525	0	0	-17.57112	-15.30026
38.28888	-0.07431029	-0.3474938	0.6470861	0.5635893	16.57998	14.44058
38.30558	-0.07431029	-0.3474938	0	0	-16.52184	-14.38995
38.33324	-0.06265473	-0.3374396	0.4213813	0.3634854	9.498072	8.19308
38.34981	-0.06265473	-0.3374396	0	0	-9.527563	-8.21852
38.3709	-0.06040013	-0.3352571	0.1068769	0.1034626	2.837754	2.747099
38.38747	-0.06040013	-0.3352571	0	0	-2.837754	-2.747099
38.40797	-0.06042635	-0.3352352	-0.001278944	0.001064152	-0.0345032	0.02870855
38.42454	-0.06042635	-0.3352352	0	0	0.0345032	-0.02870855
38.44717	-0.06042635	-0.3352352	0	0	0	0
38.46725	-0.06042635	-0.3352352	0	0	0	0
38.49049	-0.06042635	-0.3352352	0	0	0	0
38.51225	-0.06042635	-0.3352352	0	0	0	0
38.53698	-0.06042635	-0.3352352	0	0	0	0
38.55537	-0.06042635	-0.3352352	0	0	0	0
38.57744	-0.06040013	-0.3353007	0.001187875	-0.002965131	0.02936021	-0.07328789
38.59506	-0.06040013	-0.3353007	0	0	-0.02992738	0.07470364
38.61616	-0.06037391	-0.3353225	0.001242817	-0.001033945	0.03209824	-0.02670369
38.63274	-0.06037391	-0.3353225	0	0	-0.03298878	0.02744456
38.65269	-0.06040013	-0.3353443	-0.001314094	-0.001093242	-0.03597345	-0.02992762
38.66926	-0.06040013	-0.3353443	0	0	0.03598097	0.02993387
38.68583	-0.06040013	-0.3353443	0	0	0	0
38.7066	-0.06040013	-0.3354315	0	-0.004198896	0	-0.1124441
38.72492	-0.06040013	-0.3354315	0	0	0	0.1074078
38.75423	-0.06042635	-0.3355843	-0.0008945785	-0.005210367	-0.01878321	-0.1094006
38.77169	-0.06042635	-0.3355843	0	0	0.01912637	0.1113993
38.79228	-0.06058366	-0.3358461	-0.007641145	-0.01271684	-0.20081	-0.3342
38.80893	-0.06058366	-0.3358461	0	0	0.2051706	0.341457
38.82909	-0.06066232	-0.3359115	-0.003903107	-0.003248923	-0.1060396	-0.08826675
38.84595	-0.06066232	-0.3359115	0	0	0.1054277	0.08775742
38.86896	-0.06066232	-0.3359115	0	0	0	0
38.88552	-0.06066232	-0.3359115	0	0	0	0
38.90571	-0.06068854	-0.3359334	-0.001299007	-0.001080845	-0.03534637	-0.02941011
38.92228	-0.06068854	-0.3359334	0	0	0.03534637	0.02941011
38.9447	-0.06068854	-0.335977	0	-0.001945484	0	-0.04989209
38.96127	-0.06068854	-0.335977	0	0	0	0.04989209
38.98376	-0.06071476	-0.3359988	-0.001165714	-0.0009699372	-0.02984518	-0.02483282
39.00033	-0.06071476	-0.3359988	0	0	0.02984227	0.02483039
39.02072	-0.06074098	-0.3360206	-0.001286124	-0.001071587	-0.03480075	-0.02899568
39.03759	-0.06074098	-0.3360206	0	0	0.03451573	0.02875821
39.05866	-0.0607672	-0.3360425	-0.001244666	-0.00103563	-0.03280533	-0.02729582
39.07523	-0.0607672	-0.3360425	0	0	0.03307468	0.02751995
39.09934	-0.0607672	-0.3360425	0	0	0	0
39.11614	-0.0607672	-0.3360425	0	0	0	0
39.13926	-0.0607672	-0.3360861	0	-0.001887376	0	-0.04727801
39.15617	-0.0607672	-0.3360861	0	0	0	0.04715185
39.1772	-0.06081963	-0.3361734	-0.002493849	-0.004151454	-0.06573629	-0.1094297
39.19376	-0.06081963	-0.3361734	0	0	0.06633662	0.1104291
39.21526	-0.06084585	-0.3361952	-0.00121949	-0.001016069	-0.03203548	-0.02669168
39.23184	-0.06084585	-0.3361952	0	0	0.03202906	0.02668633
39.25216	-0.06084585	-0.3361952	0	0	0	0
39.26872	-0.06084585	-0.3361952	0	0	0	0
39.28808	-0.06089829	-0.3362389	-0.002709124	-0.002254139	-0.07541473	-0.06274917
39.30465	-0.06089829	-0.3362389	0	0	0.07541473	0.06274917
39.32136	-0.06089829	-0.3362389	0	0	0	0
39.3452	-0.06100316	-0.3363698	-0.00439875	-0.0054925	-0.1084664	-0.1354365
39.36177	-0.06100316	-0.3363698	0	0	0.1088555	0.1359224
39.38498	-0.0610556	-0.3364135	-0.002259224	-0.001881215	-0.05679888	-0.04729541
39.40154	-0.0610556	-0.3364135	0	0	0.05679888	0.04729541
39.42266	-0.06110803	-0.3364571	-0.002483486	-0.002067807	-0.06590716	-0.05487581
39.43923	-0.06110803	-0.3364571	0	0	0.06590048	0.05487025
39.46167	-0.06123912	-0.3366099	-0.005842108	-0.006809705	-0.1497627	-0.1745671
39.4784	-0.06123912	-0.3366099	0	0	0.1491501	0.1738531
39.5042	-0.06370316	-0.3387505	-0.09549595	-0.08295988	-2.245174	-1.950443
39.5263	-0.06370316	-0.3387505	0	0	1.993604	1.731897
39.54855	-0.06448939	-0.3394938	-0.03534044	-0.03340942	-0.7969278	-0.7533832
39.56512	-0.06448939	-0.3394938	0	0	0.9104054	0.8606603
39.58634	-0.06448939	-0.3394938	0	0	0	0
39.60412	-0.06448939	-0.3394938	0	0	0	0
39.62552	-0.06448939	-0.3394938	0	0	0	0
39.64209	-0.06448939	-0.3394938	0	0	0	0
39.66217	-0.06448939	-0.3394938	0	0	0	0
39.67874	-0.06448939	-0.3394938	0	0	0	0
39.70226	-0.06448939	-0.3394938	0	0	0	0
39.71906	-0.06448939	-0.3394938	0	0	0	0
39.73888	-0.06448939	-0.3394938	0	0	0	0
39.75546	-0.06448939	-0.3394938	0	0	0	0
39.77201	-0.06448939	-0.3394938	0	0	0	0
39.79222	-0.06448939	-0.3394938	0	0	0	0
39.80879	-0.06448939	-0.3394938	0	0	0	0
39.82819	-0.06448939	-0.3394938	0	0	0	0
39.84476	-0.06448939	-0.3394938	0	0	0	0
39.86189	-0.06448939	-0.3394938	0	0	0	0
39.88407	-0.06448939	-0.3394938	0	0	0	0
39.90069	-0.06448939	-0.3394938	0	0	0	0
39.91977	-0.06448939	-0.3394938	0	0	0	0
39.93634	-0.06448939	-0.3394938	0	0	0	0
39.95291	-0.06448939	-0.3394938	0	0	0	0
39.97958	-0.06448939	-0.3394938	0	0	0	0
39.99615	-0.06448939	-0.3394938	0	0	0	0
40.01597	-0.06448939	-0.3394938	0	0	0	0
40.03254	-0.06448939	-0.3394938	0	0	0	0
40.04979	-0.06448939	-0.3394938	0	0	0	0
40.07144	-0.06448939	-0.3394938	0	0	0	0
40.08801	-0.06448939	-0.3394938	0	0	0	0
40.11183	-0.06448939	-0.3394938	0	0	0	0
40.1284	-0.06448939	-0.3394938	0	0	0	0
40.14712	-0.06448939	-0.3394938	0	0	0	0
40.16369	-0.06448939	-0.3394938	0	0	0	0
40.18026	-0.06448939	-0.3394938	0	0	0	0
40.20342	-0.06446319	-0.3395157	0.001131281	-0.0009443964	0.02847418	-0.02377032
40.21999	-0.06446319	-0.3395157	0	0	-0.02847418	0.02377032
40.24066	-0.06446319	-0.3395157	0	0	0	0
40.25744	-0.06446319	-0.3395157	0	0	0	0
40.29134	-0.06446319	-0.3395157	0	0	0	0
40.30791	-0.06446319	-0.3395157	0	0	0	0
40.3306	-0.06446319	-0.3395157	0	0	0	0
40.35091	-0.06446319	-0.3395157	0	0	0	0
40.37139	-0.06443699	-0.3395375	0.001279885	-0.001068451	0.03137698	-0.02619358
40.38848	-0.06443699	-0.3395375	0	0	-0.03407272	0.02844399
40.41015	-0.06443699	-0.3395375	0	0	0	0
40.42672	-0.06443699	-0.3395375	0	0	0	0
40.4458	-0.06443699	-0.3395375	0	0	0	0
40.46237	-0.06443699	-0.3395375	0	0	0	0
40.47894	-0.06443699	-0.3395375	0	0	0	0
40.49934	-0.06443699	-0.3395375	0	0	0	0
40.51591	-0.06443699	-0.3395375	0	0	0	0
40.53924	-0.06443699	-0.3395375	0	0	0	0
40.55958	-0.06443699	-0.3395375	0	0	0	0
40.58274	-0.06438457	-0.3395813	0.002263257	-0.001887817	0.05202555	-0.04339529
40.59931	-0.06438457	-0.3395813	0	0	-0.05697132	0.04752064
40.62565	-0.06433216	-0.339625	0.001989896	-0.001660934	0.04637619	-0.03870945
40.64222	-0.06433216	-0.339625	0	0	-0.04637619	0.03870945
40.66698	-0.06433216	-0.339625	0	0	0	0
40.68354	-0.06433216	-0.339625	0	0	0	0
40.70234	-0.06433216	-0.339625	0	0	0	0
40.71926	-0.06433216	-0.339625	0	0	0	0
40.73548	-0.06433216	-0.339625	0	0	0	0
40.75898	-0.06433216	-0.339625	0	0	0	0
40.77692	-0.06433216	-0.339625	0	0	0	0
40.80086	-0.06433216	-0.339625	0	0	0	0
40.81743	-0.06433216	-0.339625	0	0	0	0
40.84074	-0.06430595	-0.3396468	0.001124197	-0.0009369376	0.02818762	-0.02349235
40.85731	-0.06430595	-0.3396468	0	0	-0.02818762	0.02349235
40.88231	-0.06427974	-0.3396687	0.001048084	-0.0008749428	0.02521326	-0.02104809
40.8994	-0.06427974	-0.3396687	0	0	-0.02490246	0.02078863
40.91922	-0.06427974	-0.3396687	0	0	0	0
40.93592	-0.06427974	-0.3396687	0	0	0	0
40.95243	-0.06427974	-0.3396687	0	0	0	0
40.97434	-0.06422733	-0.3397562	0.002392935	-0.003993328	0.06228713	-0.1039447
40.99091	-0.06422733	-0.3397562	0	0	-0.06219449	0.1037901
41.01365	-0.06420112	-0.3397781	0.00115254	-0.0009621435	0.02932177	-0.02447789
41.03021	-0.06420112	-0.3397781	0	0	-0.02932462	0.02448026
41.05032	-0.06420112	-0.3397781	0	0	0	0
41.06689	-0.06420112	-0.3397781	0	0	0	0
41.09457	-0.06417491	-0.3397999	0.0009469534	-0.0007902943	0.02139984	-0.01785956
41.11114	-0.06417491	-0.3397999	0	0	-0.02140168	0.0178611
41.13055	-0.06417491	-0.3397999	0	0	0	0
41.15171	-0.06417491	-0.3397999	0	0	0	0
41.16828	-0.06417491	-0.3397999	0	0	0	0
41.18919	-0.0641487	-0.3398218	0.00125362	-0.001046228	0.03345166	-0.02791759
41.20576	-0.0641487	-0.3398218	0	0	-0.03345166	0.02791759
41.22753	-0.0641487	-0.3398218	0	0	0	0
41.24413	-0.0641487	-0.3398218	0	0	0	0
41.26355	-0.06417491	-0.3398437	-0.001349655	-0.001126375	-0.03746733	-0.03126892
41.28012	-0.06417491	-0.3398437	0	0	0.03750307	0.03129875
41.29669	-0.06417491	-0.3398437	0	0	0	0
41.32215	-0.0641487	-0.3398655	0.001029532	-0.0008580405	0.02449496	-0.02041479
41.34083	-0.0641487	-0.3398655	0	0	-0.02332431	0.01943913
41.36396	-0.0641487	-0.3398655	0	0	0	0
41.38298	-0.0641487	-0.3398655	0	0	0	0
41.41151	-0.0641487	-0.3398655	0	0	0	0
41.43475	-0.0641487	-0.3398655	0	0	0	0
41.45806	-0.0641487	-0.3398655	0	0	0	0
41.47463	-0.0641487	-0.3398655	0	0	0	0
41.49723	-0.0641225	-0.3398874	0.001159349	-0.000967827	0.02959839	-0.02470881
41.5138	-0.0641225	-0.3398874	0	0	-0.02959839	0.02470881
41.53593	-0.0641225	-0.3398874	0	0	0	0
41.5525	-0.0641225	-0.3398874	0	0	0	0
41.57248	-0.0641225	-0.3398874	0	0	0	0
41.58905	-0.0641225	-0.3398874	0	0	0	0
41.60562	-0.0641225	-0.3398874	0	0	0	0
41.62557	-0.0641225	-0.3399312	0	-0.002192458	0	-0.06003131
41.64214	-0.0641225	-0.3399312	0	0	0	0.06003131
41.65871	-0.0641225	-0.3399312	0	0	0	0
41.67793	-0.0641225	-0.3399749	0	-0.002276449	0	-0.06361341
41.69449	-0.0641225	-0.3399749	0	0	0	0.06361341
41.71106	-0.0641225	-0.3399749	0	0	0	0
41.73213	-0.0641225	-0.3399749	0	0	0	0
41.7487	-0.0641225	-0.3399749	0	0	0	0
41.77185	-0.0641225	-0.3399749	0	0	0	0
41.78842	-0.0641225	-0.3399749	0	0	0	0
41.80926	-0.0641225	-0.3399749	0	0	0	0
41.82887	-0.0641225	-0.3399749	0	0	0	0
41.84927	-0.0641487	-0.3399968	-0.001283952	-0.001071846	-0.03208888	-0.02678787
41.86584	-0.0641487	-0.3399968	0	0	0.03472405	0.02898772
41.89568	-0.0641487	-0.3399968	0	0	0	0
41.91225	-0.0641487	-0.3399968	0	0	0	0
41.9322	-0.0641487	-0.3399968	0	0	0	0
41.94876	-0.0641487	-0.3399968	0	0	0	0
41.96748	-0.0641487	-0.3399968	0	0	0	0
41.98944	-0.0641225	-0.3400187	0.001193388	-0.0009962431	0.02934154	-0.02449439
42.00617	-0.0641225	-0.3400187	0	0	-0.03084289	0.02574772
42.0318	-0.0641487	-0.3400405	-0.001022498	-0.0008535837	-0.02413703	-0.02014965
42.04837	-0.0641487	-0.3400405	0	0	0.02423304	0.0202298
42.06907	-0.0641487	-0.3400843	0	-0.002113276	0	-0.05670242
42.09143	-0.0641487	-0.3400843	0	0	0	0.04907278
42.11729	-0.06417491	-0.3401062	-0.001013436	-0.000845778	-0.02101456	-0.01753802
42.13386	-0.06417491	-0.3401062	0	0	0.02388439	0.01993308
42.15332	-0.06420112	-0.340128	-0.001347009	-0.001124167	-0.03738992	-0.03120432
42.16989	-0.06420112	-0.340128	0	0	0.03738596	0.03120102
42.18646	-0.06420112	-0.340128	0	0	0	0
42.20735	-0.06422733	-0.3401499	-0.001254408	-0.001047183	-0.03348973	-0.02795731
42.22437	-0.06422733	-0.3401499	0	0	0.03308871	0.02762254
42.24459	-0.06422733	-0.3401499	0	0	0	0
42.26116	-0.06422733	-0.3401499	0	0	0	0
42.28028	-0.06422733	-0.3401499	0	0	0	0
42.29685	-0.06422733	-0.3401499	0	0	0	0
42.31342	-0.06422733	-0.3401499	0	0	0	0
42.33835	-0.06422733	-0.3401499	0	0	0	0
42.35492	-0.06422733	-0.3401499	0	0	0	0
42.37645	-0.06422733	-0.3401499	0	0	0	0
42.39302	-0.06422733	-0.3401499	0	0	0	0
42.41158	-0.06425353	-0.3401718	-0.001411661	-0.001176852	-0.04018442	-0.03350035
42.42815	-0.06425353	-0.3401718	0	0	0.04018006	0.03349672
42.44499	-0.06425353	-0.3401718	0	0	0	0
42.46644	-0.06425353	-0.3401718	0	0	0	0
42.48301	-0.06425353	-0.3401718	0	0	0	0
42.5035	-0.06425353	-0.3402155	0	-0.002136367	0	-0.0576465
42.52007	-0.06425353	-0.3402155	0	0	0	0.05764057
42.54137	-0.06425353	-0.3402155	0	0	0	0
42.55794	-0.06425353	-0.3402155	0	0	0	0
42.58517	-0.06427974	-0.3402374	-0.0009623381	-0.0008031338	-0.02196718	-0.01833305
42.60174	-0.06427974	-0.3402374	0	0	0.0219691	0.01833464
42.6227	-0.06427974	-0.3402374	0	0	0	0
42.63927	-0.06427974	-0.3402374	0	0	0	0
42.66706	-0.06430595	-0.3402593	-0.0009429157	-0.0007871483	-0.02125546	-0.01774411
42.68479	-0.06430595	-0.3402593	0	0	0.02071222	0.01729061
42.70601	-0.06430595	-0.3402593	0	0	0	0
42.72258	-0.06430595	-0.3402593	0	0	0	0
42.74593	-0.06433216	-0.3402812	-0.001122544	-0.0009368363	-0.02812197	-0.02346961
42.76539	-0.06433216	-0.3402812	0	0	0.02622011	0.02188239
42.78691	-0.06435836	-0.340303	-0.001217933	-0.001016733	-0.02972201	-0.024812
42.80425	-0.06435836	-0.340303	0	0	0.03134437	0.02616636
42.82367	-0.06441078	-0.3403468	-0.002698926	-0.00225275	-0.07341573	-0.06127891
42.84083	-0.06441078	-0.3403468	0	0	0.07378323	0.06158566
42.8574	-0.06441078	-0.3403468	0	0	0	0
42.8816	-0.06600922	-0.3416818	-0.06605035	-0.05516531	-1.619862	-1.35291
42.8983	-0.06600922	-0.3416818	0	0	1.614876	1.348746
42.91739	-0.08252269	-0.3555542	-0.8650892	-0.7267311	-24.1716	-20.30571
42.93396	-0.08252269	-0.3555542	0	0	24.25951	20.37957
42.95053	-0.08252269	-0.3555542	0	0	0	0
42.9726	-0.100815	-0.3711032	-0.8287603	-0.7044725	-21.45088	-18.23393
42.98917	-0.100815	-0.3711032	0	0	21.44876	18.23213
43.01459	-0.1068286	-0.3762598	-0.236525	-0.2028167	-5.632596	-4.829868
43.03131	-0.1068286	-0.3762598	0	0	5.611695	4.811945
43.05339	-0.1068026	-0.3762375	0.001178761	0.001012682	0.03038399	0.02610309
43.06995	-0.1068026	-0.3762375	0	0	-0.03050698	-0.02620875
43.08966	-0.1068026	-0.3762375	0	0	0	0
43.10622	-0.1068026	-0.3762375	0	0	0	0
43.12296	-0.1068026	-0.3762375	0	0	0	0
43.14444	-0.1068026	-0.3762375	0	0	0	0
43.16101	-0.1068026	-0.3762375	0	0	0	0
43.18219	-0.1067245	-0.3761704	0.003685327	0.003167496	0.09762393	0.08390664
43.19875	-0.1067245	-0.3761704	0	0	-0.09763379	-0.08391511
43.21782	-0.1062042	-0.3756339	0.0272988	0.02814345	0.7661902	0.7898968
43.23438	-0.1062042	-0.3756339	0	0	-0.7661902	-0.7898968
43.25105	-0.1062042	-0.3756339	0	0	0	0
43.27309	-0.1058138	-0.375254	0.0177086	0.01723672	0.4574502	0.4452603
43.28966	-0.1058138	-0.375254	0	0	-0.4586705	-0.4464482
43.31035	-0.1057097	-0.3751646	0.005030809	0.004319632	0.1350258	0.1159379
43.32799	-0.1057097	-0.3751646	0	0	-0.1312627	-0.1127068
43.35121	-0.1018568	-0.371772	0.1659309	0.146108	4.061419	3.576222
43.36811	-0.1018568	-0.371772	0	0	-4.135951	-3.64185
43.38959	-0.08659866	-0.3586478	0.7101974	0.6108704	18.50268	15.91493
43.40616	-0.08659866	-0.3586478	0	0	-18.66406	-16.05373
43.42543	-0.07043592	-0.345035	0.8388372	0.7064984	23.40815	19.71517
43.44448	-0.07043592	-0.345035	0	0	-21.88893	-18.43563
43.46105	-0.07043592	-0.345035	0	0	0	0
43.48518	-0.06629743	-0.3417037	0.1714681	0.1380233	4.212685	3.391001
43.50222	-0.06629743	-0.3417037	0	0	-4.164676	-3.352356
43.52184	-0.068236	-0.3435877	-0.09879152	-0.09600992	-2.69486	-2.618983
43.53841	-0.068236	-0.3435877	0	0	2.729799	2.652938
43.55498	-0.068236	-0.3435877	0	0	0	0
43.57624	-0.0704621	-0.3456274	-0.1047117	-0.09594389	-2.768209	-2.536417
43.5928	-0.0704621	-0.3456274	0	0	2.768209	2.536417
43.61226	-0.07004312	-0.3460224	0.02153569	-0.02030637	0.5978453	-0.5637185
43.62931	-0.07004312	-0.3460224	0	0	-0.5899115	0.5562376
43.6454	-0.07004312	-0.3460224	0	0	0	0
43.66644	-0.06037391	-0.3541419	0.4594395	-0.3858033	12.37305	-10.38997
43.68301	-0.06037391	-0.3541419	0	0	-12.21494	10.2572
43.70621	-0.04754309	-0.3649635	0.5531197	-0.4665056	13.90992	-11.73174
43.72278	-0.04754309	-0.3649635	0	0	-13.90725	11.72949
43.74489	-0.04084569	-0.3706352	0.3029653	-0.2565668	7.832399	-6.632885
43.76146	-0.04084569	-0.3706352	0	0	-7.833944	6.634193
43.78352	-0.04079315	-0.3706798	0.002381057	-0.002018961	0.06162912	-0.05225695
43.80009	-0.04079315	-0.3706798	0	0	-0.06162912	0.05225695
43.82227	-0.039243	-0.3719949	0.06988157	-0.05928767	1.80341	-1.530016
43.83884	-0.039243	-0.3719949	0	0	-1.803232	1.529866
43.86346	-0.02123365	-0.3873435	0.7316045	-0.6235145	17.76287	-15.13852
43.8801	-0.02123365	-0.3873435	0	0	-17.73167	15.11193
43.90157	0.003447355	-0.4086528	1.150014	-0.9929096	30.18012	-26.05719
43.91851	0.003447355	-0.4086528	0	0	-29.94331	25.85273
43.9761	0.0348543	-0.4363439	0.5453857	-0.4808584	7.317514	-6.451743
43.99314	0.0348543	-0.4363439	0	0	-7.308163	6.443498
44.0147	0.03648381	-0.4378329	0.07557768	-0.06906156	1.957924	-1.789117
44.03141	0.03648381	-0.4378329	0	0	-1.97451	1.804273
44.0515	0.03648381	-0.4378329	0	0	0	0
44.06807	0.03648381	-0.4378329	0	0	0	0
44.08878	0.03664149	-0.4380191	0.007612332	-0.008990849	0.2041878	-0.2411641
44.10546	0.03664149	-0.4380191	0	0	-0.2035629	0.2404261
44.12508	0.03895397	-0.4402091	0.1178925	-0.1116479	3.248009	-3.075969
44.14165	0.03895397	-0.4402091	0	0	-3.258282	3.085697
