Time	Pos X	Pos Y	Vel X	Vel Y	Acc X	Acc Y
0.01625604	0.009778756	0.03361447	-0.0001568641	-0.0005392202	2.517001E-06	8.65219E-06
0.04120106	0.009778756	0.03361447	0	0	-2.517312E-06	-8.653261E-06
0.05777172	0.009778756	0.03361447	0	0	0	0
0.07433724	0.009778756	0.03361447	0	0	0	0
0.09090396	0.009778756	0.03361447	0	0	0	0
0.1074703	0.009778756	0.03361447	0	0	0	0
0.1241712	0.009778756	0.03361447	0	0	0	0
0.1406049	0.009778756	0.03361447	0	0	0	0
0.157354	0.009778756	0.03361447	0	0	0	0
0.1739736	0.009778756	0.03361447	0	0	0	0
0.1905024	0.009778756	0.03361447	0	0	0	0
0.2069906	0.009778756	0.03361447	0	0	0	0
0.2235099	0.009778756	0.03361447	0	0	0	0
0.2400553	0.009778756	0.03361447	0	0	0	0
0.2571009	0.009778756	0.03361447	0	0	0	0
0.2731382	0.009778756	0.03361447	0	0	0	0
0.2897069	0.009778756	0.03361447	0	0	0	0
0.306364	0.009778756	0.03361447	0	0	0	0
0.3228391	0.009778756	0.03361447	0	0	0	0
0.3394059	0.009778756	0.03361447	0	0	0	0
0.3559738	0.009778756	0.03361447	0	0	0	0
0.3725397	0.009778756	0.03361447	0	0	0	0
0.3891064	0.009778756	0.03361447	0	0	0	0
0.4056731	0.009778756	0.03361447	0	0	0	0
0.4222402	0.009778756	0.03361447	0	0	0	0
0.4388065	0.009778756	0.03361447	0	0	0	0
0.4553725	0.009778756	0.03361447	0	0	0	0
0.4719384	0.009778756	0.03361447	0	0	0	0
0.488511	0.009778756	0.03361447	0	0	0	0
0.5050718	0.009778756	0.03361447	0	0	0	0
0.5216396	0.009778756	0.03361447	0	0	0	0
0.5382068	0.009778756	0.03361447	0	0	0	0
0.5588663	0.009778756	0.03361447	0	0	0	0
0.5754378	0.009778756	0.03361447	0	0	0	0
0.5920033	0.009778756	0.03361447	0	0	0	0
0.6085692	0.009778756	0.03361447	0	0	0	0
0.6251379	0.009778756	0.03361447	0	0	0	0
0.6417042	0.009778756	0.03361447	0	0	0	0
0.6582713	0.009778756	0.03361447	0	0	0	0
0.674838	0.009778756	0.03361447	0	0	0	0
0.6914071	0.009778756	0.03361447	0	0	0	0
0.707971	0.009778756	0.03361447	0	0	0	0
0.7245377	0.009778756	0.03361447	0	0	0	0
0.7411044	0.009778756	0.03361447	0	0	0	0
0.7576711	0.009778756	0.03361447	0	0	0	0
0.7742382	0.009778756	0.03361447	0	0	0	0
0.7908124	0.009778756	0.03361447	0	0	0	0
0.8073713	0.009778756	0.03361447	0	0	0	0
0.823936	0.009778756	0.03361447	0	0	0	0
0.8405019	0.009778756	0.03361447	0	0	0	0
0.8570678	0.009778756	0.03361447	0	0	0	0
0.8736349	0.009778756	0.03361447	0	0	0	0
0.890202	0.009778756	0.03361447	0	0	0	0
0.9067692	0.009778756	0.03361447	0	0	0	0
0.9233378	0.009778756	0.03361447	0	0	0	0
0.9399049	0.009778756	0.03361447	0	0	0	0
0.9564713	0.009778756	0.03361447	0	0	0	0
0.973038	0.009778756	0.03361447	0	0	0	0
0.9896236	0.009778756	0.03361447	0	0	0	0
1.057154	0.009778756	0.03361447	0	0	0	0
1.073727	0.009778756	0.03361447	0	0	0	0
1.09029	0.009778756	0.03361447	0	0	0	0
1.106858	0.009778756	0.03361447	0	0	0	0
1.123438	0.009778756	0.03361447	0	0	0	0
1.139992	0.009778756	0.03361447	0	0	0	0
1.156558	0.009778756	0.03361447	0	0	0	0
1.173126	0.009778756	0.03361447	0	0	0	0
1.189691	0.009778756	0.03361447	0	0	0	0
1.206259	0.009778756	0.03361447	0	0	0	0
1.222822	0.009778756	0.03361447	0	0	0	0
1.239389	0.009778756	0.03361447	0	0	0	0
1.255956	0.009778756	0.03361447	0	0	0	0
1.273015	0.009778756	0.03361447	0	0	0	0
1.28909	0.009778756	0.03361447	0	0	0	0
1.305724	0.009778756	0.03361447	0	0	0	0
1.322942	0.009778756	0.03361447	0	0	0	0
1.33879	0.009778756	0.03361447	0	0	0	0
1.356083	0.009778756	0.03361447	0	0	0	0
1.371927	0.009778756	0.03361447	0	0	0	0
1.388491	0.009778756	0.03361447	0	0	0	0
1.405072	0.009778756	0.03361447	0	0	0	0
1.421624	0.009778756	0.03361447	0	0	0	0
1.438191	0.009778756	0.03361447	0	0	0	0
1.454938	0.009778756	0.03361447	0	0	0	0
1.471324	0.009778756	0.03361447	0	0	0	0
1.487891	0.009778756	0.03361447	0	0	0	0
1.504456	0.009778756	0.03361447	0	0	0	0
1.521428	0.009778756	0.03361447	0	0	0	0
1.53759	0.009778756	0.03361447	0	0	0	0
1.554548	0.009778756	0.03361447	0	0	0	0
1.570724	0.009778756	0.03361447	0	0	0	0
1.587711	0.009778756	0.03361447	0	0	0	0
1.603857	0.009778756	0.03361447	0	0	0	0
1.620541	0.009778756	0.03361447	0	0	0	0
1.63699	0.009778756	0.03361447	0	0	0	0
1.654042	0.009778756	0.03361447	0	0	0	0
1.670125	0.009778756	0.03361447	0	0	0	0
1.686692	0.009778756	0.03361447	0	0	0	0
1.703259	0.009778756	0.03361447	0	0	0	0
1.719826	0.009778756	0.03361447	0	0	0	0
1.736392	0.009778756	0.03361447	0	0	0	0
1.752959	0.009778756	0.03361447	0	0	0	0
1.769523	0.009778756	0.03361447	0	0	0	0
1.786093	0.009778756	0.03361447	0	0	0	0
1.80266	0.009778756	0.03361447	0	0	0	0
1.819259	0.009778756	0.03361447	0	0	0	0
1.835792	0.009778756	0.03361447	0	0	0	0
1.852582	0.009778756	0.03361447	0	0	0	0
1.869292	0.009778756	0.03361447	0	0	0	0
1.885492	0.009778756	0.03361447	0	0	0	0
1.902059	0.009778756	0.03361447	0	0	0	0
1.918626	0.009778756	0.03361447	0	0	0	0
1.940502	0.009778756	0.03361447	0	0	0	0
1.957074	0.009778756	0.03361447	0	0	0	0
1.973641	0.009778756	0.03361447	0	0	0	0
1.990208	0.009778756	0.03361447	0	0	0	0
2.006774	0.009778756	0.03361447	0	0	0	0
2.023339	0.009778756	0.03361447	0	0	0	0
2.039906	0.009778756	0.03361447	0	0	0	0
2.056473	0.009778756	0.03361447	0	0	0	0
2.073038	0.009778756	0.03361447	0	0	0	0
2.089605	0.009778756	0.03361447	0	0	0	0
2.106173	0.009778756	0.03361447	0	0	0	0
2.122742	0.009778756	0.03361447	0	0	0	0
2.13931	0.009778756	0.03361447	0	0	0	0
2.155978	0.009778756	0.03361447	0	0	0	0
2.172468	0.009778756	0.03361447	0	0	0	0
2.189007	0.009778756	0.03361447	0	0	0	0
2.206084	0.009778756	0.03361447	0	0	0	0
2.222287	0.009778756	0.03361447	0	0	0	0
2.239118	0.009778756	0.03361447	0	0	0	0
2.255272	0.009778756	0.03361447	0	0	0	0
2.2719	0.009778756	0.03361447	0	0	0	0
2.288405	0.009778756	0.03361447	0	0	0	0
2.304972	0.009778756	0.03361447	0	0	0	0
2.321552	0.009778756	0.03361447	0	0	0	0
2.33855	0.009778756	0.03361447	0	0	0	0
2.354673	0.009778756	0.03361447	0	0	0	0
2.371239	0.009778756	0.03361447	0	0	0	0
2.387805	0.008556412	0.03361447	-0.07378296	0	-2.226918	0
2.404372	0	0.03483682	-0.5164735	0.07378201	-13.36071	2.226794
2.420938	-0.0110011	0.03605916	-0.6641137	0.07379028	-4.456111	0.0002496114
2.437508	-0.02811392	0.03972619	-1.032739	0.2213012	-11.1248	4.451761
2.454074	-0.05867254	0.04583792	-1.844628	0.3689258	-24.50128	4.455029
2.47064	-0.09656522	0.05439433	-2.287371	0.5165032	-13.36289	4.454184
2.487759	-0.1576824	0.08006357	-3.570155	1.499465	-38.08177	29.18102
2.503774	-0.1955751	0.1008434	-2.3661	1.297539	36.33923	-6.094263
2.520342	-0.2261337	0.1167339	-1.844444	0.9591103	16.01019	-10.38675
2.536908	-0.2481359	0.1252903	-1.32815	0.5165036	15.58202	-13.35809
2.553938	-0.2615817	0.1301797	-0.7895468	0.2871073	16.03185	-6.828124
2.570041	-0.2689158	0.1338467	-0.4554407	0.2277194	10.08378	-1.792407
2.590982	-0.2738052	0.1350691	-0.2334829	0.05837142	5.991689	-4.571501
2.607553	-0.2811392	0.1375137	-0.4425824	0.1475266	-5.574195	2.376706
2.624119	-0.2811392	0.1375137	0	0	13.35601	-4.451976
2.640686	-0.2811392	0.1387361	0	0.07378375	0	2.226894
2.657253	-0.2811392	0.1387361	0	0	0	-2.226846
2.673819	-0.2823616	0.1387361	-0.07378604	0	-2.226963	0
2.690411	-0.2823616	0.1387361	0	0	2.225266	0
2.706953	-0.2823616	0.1387361	0	0	0	0
2.723519	-0.2823616	0.1387361	0	0	0	0
2.740144	-0.2823616	0.1387361	0	0	0	0
2.756652	-0.2823616	0.1387361	0	0	0	0
2.773219	-0.2823616	0.1387361	0	0	0	0
2.789786	-0.2823616	0.1387361	0	0	0	0
2.806352	-0.2835839	0.1387361	-0.07378677	0	-2.226985	0
2.823136	-0.2848063	0.1387361	-0.0728301	0	0.02868595	0
2.839485	-0.2848063	0.1387361	0	0	2.198112	0
2.856104	-0.2848063	0.1387361	0	0	0	0
2.87262	-0.2848063	0.1387361	0	0	0	0
2.889188	-0.2872509	0.1387361	-0.1475533	0	-4.459938	0
2.905753	-0.2933627	0.1387361	-0.3689426	0	-6.681735	0
2.92232	-0.2994744	0.1399584	-0.3689089	0.07378179	0.001015522	2.226867
2.938888	-0.3031414	0.1424031	-0.2213326	0.1475551	4.453798	2.22645
2.955454	-0.3043638	0.1424031	-0.07378604	0	4.453029	-4.453285
2.972022	-0.3080308	0.1424031	-0.2213408	0	-4.45334	0
2.988714	-0.3104755	0.1424031	-0.1464529	0	2.251584	0
3.005638	-0.3129202	0.1424031	-0.1444536	0	0.0594729	0
3.021724	-0.3141425	0.1424031	-0.07598861	0	2.074098	0
3.038283	-0.3141425	0.1424031	0	0	2.327744	0
3.055208	-0.3141425	0.1424031	0	0	0	0
3.071419	-0.3141425	0.1424031	0	0	0	0
3.088074	-0.3141425	0.1424031	0	0	0	0
3.104553	-0.3141425	0.1424031	0	0	0	0
3.121119	-0.3141425	0.1424031	0	0	0	0
3.137686	-0.3141425	0.1424031	0	0	0	0
3.154721	-0.3141425	0.1424031	0	0	0	0
3.170819	-0.3141425	0.1424031	0	0	0	0
3.187386	-0.3141425	0.1424031	0	0	0	0
3.204334	-0.3141425	0.1424031	0	0	0	0
3.220844	-0.3116978	0.1424031	0.1480771	0	4.425763	0
3.237086	-0.2933627	0.131402	1.128888	-0.6773327	29.94722	-20.68108
3.253653	-0.2884733	0.1289573	0.2951314	-0.1475657	-25.41279	16.14723
3.270219	-0.2762499	0.1228456	0.7378515	-0.3689258	13.3619	-6.680948
3.286941	-0.2566923	0.1167339	1.16957	-0.3654905	12.9691	0.1031972
3.30375	-0.2334678	0.1069551	1.381694	-0.5817657	6.326263	-6.450063
3.320245	-0.2029092	0.09717639	1.852573	-0.5928236	14.13882	-0.3320298
3.336486	-0.1711282	0.08739763	1.956826	-0.6021001	3.184631	-0.2833707
3.353282	-0.1442366	0.07884122	1.601038	-0.5094213	-10.76926	2.805269
3.369627	-0.1197898	0.06784011	1.495656	-0.6730453	-3.179751	-4.937118
3.386635	-0.0990099	0.06050605	1.221816	-0.4312291	-8.210435	7.250293
3.402753	-0.08189708	0.05439433	1.061702	-0.3791794	-4.833535	1.571282
3.419319	-0.06967364	0.04706026	0.7378829	-0.4427296	-9.907621	-1.944393
3.435885	-0.05867253	0.04217088	0.664047	-0.2951321	-2.228517	4.454792
3.452452	-0.05133847	0.03850386	0.4426975	-0.2213485	-6.680533	2.226856
3.469018	-0.04522675	0.03605916	0.3689258	-0.1475704	-2.226533	2.226725
3.485586	-0.04155971	0.03361447	0.2213331	-0.1475555	-4.454388	0.000448372
3.502198	-0.03911502	0.03361448	0.1471699	2.242619E-07	-2.235227	4.447226
3.518878	-0.03789268	0.03361447	0.07327898	-2.233291E-07	-2.219475	-1.344438E-05
3.53529	-0.03544799	0.03239213	0.1489572	-0.07447848	2.286852	-2.250592
3.551853	-0.0330033	0.03116979	0.1476042	-0.07380208	-0.0410325	0.02051286
3.568428	-0.02811393	0.02994744	0.2949916	-0.07374794	4.447811	0.001633696
3.584986	-0.0220022	0.02750275	0.3690904	-0.1476361	2.236371	-2.230015
3.602315	-0.01589048	0.0262804	0.3526879	-0.07053769	-0.4840241	2.275105
3.618121	-0.008556412	0.02505806	0.4640065	-0.07733438	3.359552	-0.2051217
3.634688	0.001222344	0.02261337	0.5902638	-0.1475659	3.900118	-2.169467
3.651253	0.008556412	0.02139103	0.4427616	-0.07379358	-4.452074	2.226678
3.668366	0.01466813	0.02139103	0.3571199	0	-2.542936	2.191132
3.684834	0.0220022	0.02016868	0.4453514	-0.07422519	2.627347	-2.210269
3.701442	0.02444689	0.02016868	0.1472058	-1.121583E-07	-9.014137	2.244122
3.717521	0.02689158	0.02016869	0.1520361	2.316771E-07	0.1477769	1.051904E-05
3.734087	0.02933627	0.02016868	0.1475723	-1.124376E-07	-0.1367363	-1.054089E-05
3.750653	0.03178096	0.02016868	0.1475767	-1.124408E-07	0.0001317787	-9.757964E-11
3.767836	0.03422565	0.02016869	0.1422711	2.167971E-07	-0.1572057	9.755525E-06
3.783788	0.03544799	0.02016868	0.07662597	-1.167648E-07	-1.981118	-1.006663E-05
3.800416	0.03667033	0.02016868	0.07351202	0	-0.09557904	3.583953E-06
3.816922	0.03667033	0.02016868	0	0	-2.218677	0
3.833488	0.03667033	0.02016868	0	0	0	0
3.850055	0.03667033	0.02016868	0	0	0	0
3.866621	0.03667033	0.02016868	0	0	0	0
3.885755	0.03667033	0.02016868	0	0	0	0
3.902627	0.03667033	0.02016868	0	0	0	0
3.919235	0.03667033	0.02016868	0	0	0	0
3.93623	0.03667033	0.02016868	0	0	0	0
3.952027	0.03667033	0.02016868	0	0	0	0
3.968594	0.03667033	0.02016868	0	0	0	0
3.985209	0.03667033	0.02016868	0	0	0	0
4.001728	0.03667033	0.02016868	0	0	0	0
4.018294	0.03667033	0.02016868	0	0	0	0
4.034992	0.03667033	0.02016868	0	0	0	0
4.051426	0.03544799	0.01894634	-0.07437583	-0.07437595	-2.244828	-2.244832
4.067994	0.03544799	0.01894634	0	0	2.253651	2.253654
4.084589	0.03544799	0.01894634	0	0	0	0
4.101126	0.03544799	0.01894634	0	0	0	0
4.117694	0.03422565	0.01894634	-0.07377882	0	-2.22867	0
4.13426	0.0330033	0.01894634	-0.07378497	0	-0.0001855113	0
4.150828	0.0330033	0.01894634	0	0	2.226867	0
4.167685	0.0330033	0.01894634	0	0	0	0
4.18396	0.0330033	0.01894634	0	0	0	0
4.200527	0.0330033	0.01894634	0	0	0	0
4.217091	0.0330033	0.01894634	0	0	0	0
4.233658	0.0330033	0.01894634	0	0	0	0
4.250297	0.0330033	0.01894634	0	0	0	0
4.266792	0.0330033	0.01894634	0	0	0	0
4.283545	0.0330033	0.01894634	0	0	0	0
4.299926	0.0330033	0.01894634	0	0	0	0
4.316492	0.0330033	0.01894634	0	0	0	0
4.333059	0.0330033	0.01894634	0	0	0	0
4.349744	0.0330033	0.01894634	0	0	0	0
4.366353	0.0330033	0.01894634	0	0	0	0
4.382758	0.0330033	0.01894634	0	0	0	0
4.399326	0.0330033	0.01894634	0	0	0	0
4.415893	0.0330033	0.01894634	0	0	0	0
4.432538	0.0330033	0.01894634	0	0	0	0
4.449028	0.0330033	0.01894634	0	0	0	0
4.46571	0.0330033	0.01894634	0	0	0	0
4.482161	0.0330033	0.01894634	0	0	0	0
4.498732	0.0330033	0.01894634	0	0	0	0
4.515296	0.0330033	0.01894634	0	0	0	0
4.531876	0.0330033	0.01894634	0	0	0	0
4.553362	0.0330033	0.01894634	0	0	0	0
4.569934	0.0330033	0.01894634	0	0	0	0
4.5865	0.0330033	0.01894634	0	0	0	0
4.603067	0.0330033	0.01894634	0	0	0	0
4.619634	0.0330033	0.01894634	0	0	0	0
4.636201	0.0330033	0.01894634	0	0	0	0
4.652767	0.0330033	0.01894634	0	0	0	0
4.669334	0.0330033	0.01894634	0	0	0	0
4.685902	0.0330033	0.01894634	0	0	0	0
4.702823	0.0330033	0.01894634	0	0	0	0
4.719034	0.0330033	0.01894634	0	0	0	0
4.735601	0.0330033	0.01894634	0	0	0	0
4.752167	0.0330033	0.01894634	0	0	0	0
4.769229	0.0330033	0.01894634	0	0	0	0
4.785301	0.0330033	0.01894634	0	0	0	0
4.801867	0.0330033	0.01894634	0	0	0	0
4.818435	0.0330033	0.01894634	0	0	0	0
4.835001	0.0330033	0.01894634	0	0	0	0
4.851566	0.0330033	0.01894634	0	0	0	0
4.868134	0.0330033	0.01894634	0	0	0	0
4.884701	0.0330033	0.01894634	0	0	0	0
4.901268	0.0330033	0.01894634	0	0	0	0
4.917834	0.0330033	0.01894634	0	0	0	0
4.934401	0.0330033	0.01894634	0	0	0	0
4.950969	0.0330033	0.01894634	0	0	0	0
4.967717	0.0330033	0.01894634	0	0	0	0
4.984244	0.0330033	0.01894634	0	0	0	0
5.000668	0.0330033	0.01894634	0	0	0	0
5.017235	0.0330033	0.01894634	0	0	0	0
5.041479	0.0330033	0.01894634	0	0	0	0
5.058049	0.0330033	0.01894634	0	0	0	0
5.074615	0.03422565	0.01894634	0.07378709	0	2.226803	0
5.09118	0.03422565	0.01894634	0	0	-2.227123	0
5.107749	0.03422565	0.01894634	0	0	0	0
5.12479	0.03422565	0.01894634	0	0	0	0
5.141317	0.03422565	0.01894634	0	0	0	0
5.157452	0.03422565	0.01894634	0	0	0	0
5.174886	0.03422565	0.01894634	0	0	0	0
5.201321	0.03422565	0.01894634	0	0	0	0
5.217889	0.03422565	0.01894634	0	0	0	0
5.234691	0.03422565	0.01894634	0	0	0	0
5.251024	0.03422565	0.01894634	0	0	0	0
5.26759	0.03422565	0.01894634	0	0	0	0
5.284204	0.03422565	0.01894634	0	0	0	0
5.301085	0.03422565	0.01894634	0	0	0	0
5.317292	0.03422565	0.01894634	0	0	0	0
5.334176	0.03422565	0.01894634	0	0	0	0
5.350425	0.03422565	0.01894634	0	0	0	0
5.366992	0.03422565	0.01894634	0	0	0	0
5.38399	0.03422565	0.01894634	0	0	0	0
5.400125	0.03422565	0.01894634	0	0	0	0
5.417208	0.03422565	0.01894634	0	0	0	0
5.433259	0.03422565	0.01894634	0	0	0	0
5.450157	0.03422565	0.01894634	0	0	0	0
5.466393	0.03422565	0.01894634	0	0	0	0
5.483332	0.03422565	0.01894634	0	0	0	0
5.499526	0.03422565	0.01894634	0	0	0	0
5.516094	0.03422565	0.01894634	0	0	0	0
5.532783	0.03422565	0.01894634	0	0	0	0
5.549718	0.03422565	0.01894634	0	0	0	0
5.565793	0.03422565	0.01894634	0	0	0	0
5.582952	0.03422565	0.01894634	0	0	0	0
5.598926	0.03422565	0.01894634	0	0	0	0
5.615496	0.03422565	0.01894634	0	0	0	0
5.632064	0.03422565	0.01894634	0	0	0	0
5.648629	0.03422565	0.01894634	0	0	0	0
5.665196	0.03422565	0.01894634	0	0	0	0
5.681764	0.03422565	0.01894634	0	0	0	0
5.698328	0.03422565	0.01894634	0	0	0	0
5.714927	0.03422565	0.01894634	0	0	0	0
5.731463	0.03422565	0.01894634	0	0	0	0
5.748029	0.03422565	0.01894634	0	0	0	0
5.764596	0.03422565	0.01894634	0	0	0	0
5.781157	0.03422565	0.01894634	0	0	0	0
5.798159	0.03422565	0.01894634	0	0	0	0
5.814397	0.03422565	0.01894634	0	0	0	0
5.83086	0.03422565	0.01894634	0	0	0	0
5.847426	0.03422565	0.01894634	0	0	0	0
5.871035	0.03422565	0.01894634	0	0	0	0
5.887607	0.03422565	0.01894634	0	0	0	0
5.904173	0.03422565	0.01894634	0	0	0	0
5.921288	0.03422565	0.01894634	0	0	0	0
5.937984	0.03422565	0.01894634	0	0	0	0
5.954417	0.03422565	0.01894634	0	0	0	0
5.97044	0.03422565	0.01894634	0	0	0	0
5.987007	0.03422565	0.01894634	0	0	0	0
6.003574	0.03422565	0.01894634	0	0	0	0
6.020674	0.03422565	0.01894634	0	0	0	0
6.037017	0.03422565	0.01894634	0	0	0	0
6.053487	0.03422565	0.01894634	0	0	0	0
6.070254	0.03422565	0.01894634	0	0	0	0
6.086408	0.03422565	0.01894634	0	0	0	0
6.102974	0.03422565	0.01894634	0	0	0	0
6.119541	0.03422565	0.01894634	0	0	0	0
6.136107	0.03422565	0.01894634	0	0	0	0
6.152674	0.03422565	0.01894634	0	0	0	0
6.169257	0.03422565	0.01894634	0	0	0	0
6.186285	0.03422565	0.01894634	0	0	0	0
6.202372	0.03422565	0.01894634	0	0	0	0
6.218939	0.03422565	0.01894634	0	0	0	0
6.235506	0.03422565	0.01894634	0	0	0	0
6.252073	0.03422565	0.01894634	0	0	0	0
6.26864	0.03422565	0.01894634	0	0	0	0
6.285205	0.03422565	0.01894634	0	0	0	0
6.301773	0.03422565	0.01894634	0	0	0	0
6.318702	0.03422565	0.01894634	0	0	0	0
6.334906	0.03422565	0.01894634	0	0	0	0
6.351473	0.03422565	0.01894634	0	0	0	0
6.36804	0.03422565	0.01894634	0	0	0	0
6.384605	0.03422565	0.01894634	0	0	0	0
6.401173	0.03422565	0.01894634	0	0	0	0
6.417739	0.03422565	0.01894634	0	0	0	0
6.434305	0.03422565	0.01894634	0	0	0	0
6.450872	0.03422565	0.01894634	0	0	0	0
6.545606	0.03422565	0.01894634	0	0	0	0
6.562176	0.03422565	0.01894634	0	0	0	0
6.578743	0.03422565	0.01894634	0	0	0	0
6.595455	0.03422565	0.01894634	0	0	0	0
6.611876	0.03422565	0.01894634	0	0	0	0
6.628468	0.03422565	0.01894634	0	0	0	0
6.645009	0.03422565	0.01894634	0	0	0	0
6.661576	0.03422565	0.01894634	0	0	0	0
6.678493	0.03422565	0.01894634	0	0	0	0
6.694709	0.03422565	0.01894634	0	0	0	0
6.711275	0.03422565	0.01894634	0	0	0	0
6.727882	0.03422565	0.01894634	0	0	0	0
6.744408	0.03422565	0.01894634	0	0	0	0
6.760976	0.03422565	0.01894634	0	0	0	0
6.777546	0.03422565	0.01894634	0	0	0	0
6.794107	0.03422565	0.01894634	0	0	0	0
6.810676	0.03422565	0.01894634	0	0	0	0
6.827244	0.03422565	0.01894634	0	0	0	0
6.843811	0.03422565	0.01894634	0	0	0	0
6.860378	0.03422565	0.01894634	0	0	0	0
6.876945	0.03422565	0.01894634	0	0	0	0
6.893513	0.03422565	0.01894634	0	0	0	0
6.910642	0.03422565	0.01894634	0	0	0	0
6.926645	0.03422565	0.01894634	0	0	0	0
6.943464	0.03422565	0.01894634	0	0	0	0
6.960052	0.03422565	0.01894634	0	0	0	0
6.976344	0.03422565	0.01894634	0	0	0	0
6.992997	0.03422565	0.01894634	0	0	0	0
7.009679	0.03422565	0.01894634	0	0	0	0
7.026044	0.03422565	0.01894634	0	0	0	0
7.042611	0.03422565	0.01894634	0	0	0	0
7.059178	0.03422565	0.01894634	0	0	0	0
7.076257	0.03422565	0.01894634	0	0	0	0
7.092316	0.03422565	0.01894634	0	0	0	0
7.108878	0.03422565	0.01894634	0	0	0	0
7.12555	0.03422565	0.01894634	0	0	0	0
7.142056	0.03422565	0.01894634	0	0	0	0
7.158707	0.03422565	0.01894634	0	0	0	0
7.175165	0.03422565	0.01894634	0	0	0	0
7.19171	0.03422565	0.01894634	0	0	0	0
7.208721	0.03422565	0.01894634	0	0	0	0
7.224844	0.03422565	0.01894634	0	0	0	0
7.24141	0.03422565	0.01894634	0	0	0	0
7.257974	0.03422565	0.01894634	0	0	0	0
7.274615	0.03422565	0.01894634	0	0	0	0
7.29111	0.03422565	0.01894634	0	0	0	0
7.307677	0.03422565	0.01894634	0	0	0	0
7.324244	0.03422565	0.01894634	0	0	0	0
7.340809	0.03422565	0.01894634	0	0	0	0
7.357379	0.03422565	0.01894634	0	0	0	0
7.374154	0.03422565	0.01894634	0	0	0	0
7.390512	0.03422565	0.01894634	0	0	0	0
7.407106	0.03422565	0.01894634	0	0	0	0
7.423824	0.03422565	0.01894634	0	0	0	0
7.440212	0.03422565	0.01894634	0	0	0	0
7.456778	0.03422565	0.01894634	0	0	0	0
7.473346	0.03422565	0.01894634	0	0	0	0
7.490077	0.03422565	0.01894634	0	0	0	0
7.506479	0.03422565	0.01894634	0	0	0	0
7.523257	0.03422565	0.01894634	0	0	0	0
7.539614	0.03422565	0.01894634	0	0	0	0
7.556379	0.03422565	0.01894634	0	0	0	0
7.57279	0.03544799	0.01894634	0.07448195	0	2.245027	0
7.589321	0.05133847	0.01650165	0.9612536	-0.1478853	26.91894	-4.489222
7.605932	0.0660066	0.01650165	0.8830321	0	-2.360188	4.462159
7.622443	0.09778756	0.01405696	1.924895	-0.1480689	31.45572	-4.470465
7.639108	0.145459	0.009167584	2.860494	-0.2933839	28.20111	-4.380132
7.655576	0.2126879	0.0006111722	4.082387	-0.5195765	36.87788	-6.826705
7.672144	0.2701381	-0.004278206	3.467602	-0.2951149	-18.6097	6.794505
7.688709	0.2933627	-0.004278206	1.401997	0	-62.34277	8.906971
7.705461	0.3068085	-0.003055861	0.8026722	0.07297018	-17.98877	2.190204
7.722107	0.3116978	-0.001833517	0.2937112	0.07342793	-15.2392	0.01370581
7.738411	0.3153649	-0.0006111722	0.2249221	0.07497417	-2.087653	0.04692633
7.754978	0.3153649	-0.0006111722	0	0	-6.842718	-2.28091
7.771543	0.3153649	-0.0006111722	0	0	0	0
7.788111	0.3153649	-0.0006111722	0	0	0	0
7.804677	0.3153649	-0.0006111722	0	0	0	0
7.821243	0.3153649	-0.0006111722	0	0	0	0
7.837811	0.3153649	-0.0006111722	0	0	0	0
7.85495	0.3153649	-0.0006111722	0	0	0	0
7.870944	0.3153649	-0.0006111722	0	0	0	0
7.88751	0.3153649	-0.0006111722	0	0	0	0
7.904075	0.3153649	-0.0006111722	0	0	0	0
7.920644	0.3153649	-0.0006111722	0	0	0	0
7.937211	0.3165872	-0.0006111722	0.07378285	0	2.226675	0
7.953777	0.3165872	-0.0006111722	0	0	-2.226867	0
7.970541	0.3165872	-0.0006111722	0	0	0	0
7.98691	0.3165872	-0.0006111722	0	0	0	0
8.003975	0.3165872	-0.0006111722	0	0	0	0
8.020043	0.3165872	-0.0006111722	0	0	0	0
8.03661	0.3165872	-0.0006111722	0	0	0	0
8.053176	0.3141425	-0.0006111722	-0.1475699	0	-4.453926	0
8.069742	0.3019191	-0.004278206	-0.7378497	-0.2213553	-17.8157	-6.680902
8.086311	0.2860286	-0.007945239	-0.9590426	-0.2213171	-6.675423	0.001154842
8.102878	0.2640264	-0.01038993	-1.328131	-0.1475703	-11.1388	2.225618
8.11985	0.2273561	-0.01161227	-2.160568	-0.07201892	-24.82009	2.252654
8.136011	0.2004645	-0.01161227	-1.663984	0	14.98735	2.173598
8.15258	0.1662388	-0.01161227	-2.065626	5.620827E-08	-12.27133	1.717326E-06
8.169145	0.1307909	-0.01161227	-2.140014	-5.622445E-08	-2.2451	-3.393324E-06
8.185711	0.1002323	-0.01161227	-1.844627	0	8.915813	1.697053E-06
8.202276	0.06845129	-0.01527931	-1.918523	-0.2213681	-2.230373	-6.681478
8.218843	0.0440044	-0.01527931	-1.475702	-5.621798E-08	13.36552	6.681477
8.235766	0.0330033	-0.01405696	-0.6500334	0.072226	24.65406	2.156634
8.251977	0.02689158	-0.01405696	-0.377021	-5.745161E-08	8.239528	-2.179787
8.268743	0.02689158	-0.01405696	0	0	11.43314	1.742217E-06
8.28511	0.02689158	-0.01405696	0	0	0	0
8.301968	0.02689158	-0.01405696	0	0	0	0
8.318247	0.02689158	-0.01405696	0	0	0	0
8.335172	0.02689158	-0.01405696	0	0	0	0
8.351379	0.02689158	-0.01405696	0	0	0	0
8.367946	0.02689158	-0.01405696	0	0	0	0
8.385095	0.02689158	-0.01405696	0	0	0	0
8.40108	0.02689158	-0.01405696	0	0	0	0
8.417646	0.02689158	-0.01405696	0	0	0	0
8.434529	0.02689158	-0.01405696	0	0	0	0
8.45078	0.02689158	-0.01405696	0	0	0	0
8.467681	0.02689158	-0.01405696	0	0	0	0
8.483912	0.02689158	-0.01405696	0	0	0	0
8.500478	0.02689158	-0.01405696	0	0	0	0
8.517172	0.02689158	-0.01405696	0	0	0	0
8.533612	0.02689158	-0.01405696	0	0	0	0
8.550179	0.02689158	-0.01405696	0	0	0	0
8.566743	0.02689158	-0.01405696	0	0	0	0
8.58331	0.02689158	-0.01405696	0	0	0	0
8.599877	0.02689158	-0.01405696	0	0	0	0
8.616444	0.02689158	-0.01405696	0	0	0	0
8.633013	0.02689158	-0.01405696	0	0	0	0
8.64968	0.02689158	-0.01405696	0	0	0	0
8.666148	0.02689158	-0.01405696	0	0	0	0
8.682713	0.02689158	-0.01405696	0	0	0	0
8.699869	0.02689158	-0.01405696	0	0	0	0
8.715844	0.02689158	-0.01405696	0	0	0	0
8.732413	0.02689158	-0.01405696	0	0	0	0
8.748979	0.02689158	-0.01405696	0	0	0	0
8.765562	0.02689158	-0.01405696	0	0	0	0
8.782112	0.02689158	-0.01405696	0	0	0	0
8.798677	0.02689158	-0.01405696	0	0	0	0
8.815405	0.02689158	-0.01405696	0	0	0	0
8.832058	0.02689158	-0.01405696	0	0	0	0
8.84838	0.02689158	-0.01405696	0	0	0	0
8.865242	0.02689158	-0.01405696	0	0	0	0
8.881514	0.02689158	-0.01405696	0	0	0	0
8.898088	0.02689158	-0.01405696	0	0	0	0
8.914647	0.02689158	-0.01405696	0	0	0	0
8.931213	0.02689158	-0.01405696	0	0	0	0
8.94778	0.02689158	-0.01405696	0	0	0	0
8.964362	0.02689158	-0.01405696	0	0	0	0
8.981	0.02689158	-0.01405696	0	0	0	0
8.997548	0.02689158	-0.01405696	0	0	0	0
9.01405	0.02689158	-0.01405696	0	0	0	0
9.030618	0.02689158	-0.01405696	0	0	0	0
9.047514	0.02689158	-0.01405696	0	0	0	0
9.06375	0.02689158	-0.01405696	0	0	0	0
9.080317	0.02689158	-0.01405696	0	0	0	0
9.097069	0.02689158	-0.01405696	0	0	0	0
9.113449	0.02689158	-0.01405696	0	0	0	0
9.130013	0.02689158	-0.01405696	0	0	0	0
9.14658	0.02689158	-0.01405696	0	0	0	0
9.163146	0.02689158	-0.01283462	0	0.07378514	0	2.226904
9.179713	0.02689158	-0.01283462	0	0	0	-2.226904
9.196279	0.02689158	-0.01161227	-1.124424E-07	0.07378939	-3.393715E-06	2.227096
9.213008	0.02689158	-0.01038993	0	0.07306582	3.377189E-06	-0.0217321
9.229892	0.02811392	-0.00794524	0.07239735	0.1447945	2.153836	2.133943
9.245976	0.02811392	-0.00550055	0	0.1519888	-2.195954	0.2182176
9.26296	0.02811392	-0.003055861	0	0.1439408	0	-0.2433719
9.27911	0.02811392	0.001833517	0	0.3027568	0	4.793216
9.296318	0.02811392	0.004278206	-1.082424E-07	0.1420662	-3.244906E-06	-4.81721
9.312243	0.02811392	0.006722895	1.169606E-07	0.1535087	6.796834E-06	0.3453465
9.328812	0.02811392	0.00794524	0	0.07377662	-3.599497E-06	-2.45378
9.3454	0.02811392	0.009167584	-1.122873E-07	0.07368752	-3.386595E-06	-0.002687309
9.361944	0.02811392	0.009167584	0	0	3.389032E-06	-2.224022
9.37851	0.02811392	0.009167584	0	0	0	0
9.395162	0.02811392	0.009167584	0	0	0	0
9.411646	0.02811392	0.009167584	0	0	0	0
9.428212	0.02811392	0.009167584	0	0	0	0
9.444778	0.02811392	0.009167584	0	0	0	0
9.461761	0.02811392	0.009167584	0	0	0	0
9.477909	0.02811392	0.009167584	0	0	0	0
9.494476	0.02811392	0.009167584	0	0	0	0
9.511046	0.02811392	0.009167584	0	0	0	0
9.527613	0.02811392	0.009167584	0	0	0	0
9.544177	0.02811392	0.009167584	0	0	0	0
9.561023	0.02811392	0.009167584	0	0	0	0
9.577312	0.02811392	0.009167584	0	0	0	0
9.593878	0.02811392	0.009167584	0	0	0	0
9.610445	0.02811392	0.009167584	0	0	0	0
9.627117	0.02811392	0.009167584	0	0	0	0
9.643652	0.02811392	0.009167584	0	0	0	0
9.660146	0.02811392	0.009167584	0	0	0	0
9.677253	0.02811392	0.009167584	0	0	0	0
9.693278	0.02811392	0.009167584	0	0	0	0
9.709846	0.02811392	0.009167584	0	0	0	0
9.726413	0.02811392	0.009167584	0	0	0	0
9.748918	0.02811392	0.009167584	0	0	0	0
9.765488	0.02811392	0.009167584	0	0	0	0
9.78223	0.02811392	0.009167584	0	0	0	0
9.798762	0.02811392	0.009167584	0	0	0	0
9.815231	0.02811392	0.009167584	0	0	0	0
9.831754	0.02811392	0.009167584	0	0	0	0
9.848318	0.02811392	0.009167584	0	0	0	0
9.865042	0.02811392	0.009167584	0	0	0	0
9.881455	0.02811392	0.009167584	0	0	0	0
9.898021	0.02811392	0.009167584	0	0	0	0
9.914874	0.02811392	0.009167584	0	0	0	0
9.931154	0.02811392	0.009167584	0	0	0	0
9.947721	0.02811392	0.009167584	0	0	0	0
9.964289	0.02811392	0.009167584	0	0	0	0
9.981096	0.02811392	0.009167584	0	0	0	0
9.997423	0.02811392	0.009167584	0	0	0	0
10.01399	0.02811392	0.009167584	0	0	0	0
10.03063	0.02811392	0.009167584	0	0	0	0
10.04713	0.02811392	0.009167584	0	0	0	0
10.06369	0.02811392	0.009167584	0	0	0	0
10.08026	0.02811392	0.009167584	0	0	0	0
10.09682	0.02811392	0.009167584	0	0	0	0
10.11339	0.02811392	0.009167584	0	0	0	0
10.13008	0.02811392	0.009167584	0	0	0	0
10.14653	0.02811392	0.009167584	0	0	0	0
10.16315	0.02811392	0.009167584	0	0	0	0
10.17979	0.02811392	0.009167584	0	0	0	0
10.19633	0.02811392	0.009167584	0	0	0	0
10.21279	0.02811392	0.009167584	0	0	0	0
10.22936	0.02811392	0.009167584	0	0	0	0
10.24625	0.02811392	0.009167584	0	0	0	0
10.26249	0.02811392	0.009167584	0	0	0	0
10.27906	0.02811392	0.009167584	0	0	0	0
10.29565	0.02811392	0.009167584	0	0	0	0
10.31219	0.02811392	0.009167584	0	0	0	0
10.32876	0.02811392	0.009167584	0	0	0	0
10.34534	0.02811392	0.009167584	0	0	0	0
10.36189	0.02811392	0.009167584	0	0	0	0
10.37849	0.02811392	0.009167584	0	0	0	0
10.39526	0.02811392	0.009167584	0	0	0	0
10.41159	0.02811392	0.009167584	0	0	0	0
10.4291	0.02811392	0.009167584	0	0	0	0
10.44473	0.02811392	0.009167584	0	0	0	0
10.46129	0.02811392	0.009167584	0	0	0	0
10.47786	0.02811392	0.009167584	0	0	0	0
10.49488	0.02811392	0.009167584	0	0	0	0
10.52453	0.02811392	0.009167584	0	0	0	0
10.5411	0.02811392	0.009167584	0	0	0	0
10.55767	0.02811392	0.009167584	0	0	0	0
10.57423	0.02811392	0.009167584	0	0	0	0
10.5908	0.02811392	0.009167584	0	0	0	0
10.60737	0.02811392	0.009167584	0	0	0	0
10.62462	0.02811392	0.009167584	0	0	0	0
10.6405	0.02811392	0.009167584	0	0	0	0
10.65708	0.02811392	0.009167584	0	0	0	0
10.67363	0.02811392	0.009167584	0	0	0	0
10.69067	0.02811392	0.009167584	0	0	0	0
10.70677	0.02811392	0.009167584	0	0	0	0
10.72342	0.02811392	0.009167584	0	0	0	0
10.73996	0.02811392	0.009167584	0	0	0	0
10.75656	0.02811392	0.009167584	0	0	0	0
10.77303	0.02811392	0.009167584	0	0	0	0
10.78963	0.02811392	0.009167584	0	0	0	0
10.80617	0.02811392	0.009167584	0	0	0	0
10.82307	0.02811392	0.009167584	0	0	0	0
10.83962	0.02811392	0.009167584	0	0	0	0
10.85587	0.02811392	0.009167584	0	0	0	0
10.8733	0.02811392	0.009167584	0	0	0	0
10.889	0.02811392	0.009167584	0	0	0	0
10.90557	0.02811392	0.009167584	0	0	0	0
10.92226	0.02811392	0.009167584	0	0	0	0
10.9387	0.02811392	0.009167584	0	0	0	0
10.95527	0.02811392	0.009167584	0	0	0	0
10.97255	0.02811392	0.009167584	0	0	0	0
10.98865	0.02811392	0.009167584	0	0	0	0
11.00504	0.02811392	0.009167584	0	0	0	0
11.02153	0.02811392	0.009167584	0	0	0	0
11.03811	0.02811392	0.009167584	0	0	0	0
11.05467	0.02811392	0.009167584	0	0	0	0
11.07123	0.02811392	0.009167584	0	0	0	0
11.0878	0.02811392	0.009167584	0	0	0	0
11.10437	0.02811392	0.009167584	0	0	0	0
11.12093	0.02811392	0.009167584	0	0	0	0
11.1377	0.02811392	0.009167584	0	0	0	0
11.15415	0.02811392	0.009167584	0	0	0	0
11.17063	0.02811392	0.009167584	0	0	0	0
11.19832	0.02811392	0.009167584	0	0	0	0
11.21489	0.02811392	0.009167584	0	0	0	0
11.23146	0.02811392	0.009167584	0	0	0	0
11.24802	0.02811392	0.009167584	0	0	0	0
11.26459	0.02811392	0.009167584	0	0	0	0
11.28116	0.02811392	0.009167584	0	0	0	0
11.29789	0.02811392	0.009167584	0	0	0	0
11.31446	0.02811392	0.009167584	0	0	0	0
11.33086	0.02811392	0.009167584	0	0	0	0
11.34766	0.02811392	0.009167584	0	0	0	0
11.36399	0.02811392	0.009167584	0	0	0	0
11.38057	0.02811392	0.009167584	0	0	0	0
11.39713	0.02811392	0.009167584	0	0	0	0
11.4137	0.02811392	0.009167584	0	0	0	0
11.43094	0.02811392	0.009167584	0	0	0	0
11.44683	0.02811392	0.009167584	0	0	0	0
11.4634	0.02811392	0.009167584	0	0	0	0
11.47996	0.02811392	0.009167584	0	0	0	0
11.49653	0.02811392	0.009167584	0	0	0	0
11.5131	0.02811392	0.009167584	0	0	0	0
11.52966	0.02811392	0.009167584	0	0	0	0
11.54623	0.02811392	0.009167584	0	0	0	0
11.56279	0.02811392	0.009167584	0	0	0	0
11.57936	0.02811392	0.009167584	0	0	0	0
11.59612	0.02811392	0.009167584	0	0	0	0
11.6126	0.02811392	0.009167584	0	0	0	0
11.62906	0.02811392	0.009167584	0	0	0	0
11.64563	0.02811392	0.009167584	0	0	0	0
11.66219	0.02811392	0.009167584	0	0	0	0
11.67876	0.02811392	0.009167584	0	0	0	0
11.69606	0.02811392	0.009167584	0	0	0	0
11.71189	0.02811392	0.009167584	0	0	0	0
11.72846	0.02811392	0.009167584	0	0	0	0
11.74583	0.02811392	0.009167584	0	0	0	0
11.76164	0.02811392	0.009167584	0	0	0	0
11.77816	0.02811392	0.009167584	0	0	0	0
11.79472	0.02811392	0.009167584	0	0	0	0
11.81129	0.02811392	0.009167584	0	0	0	0
11.82786	0.007334067	0.02505806	-1.254202	0.959096	-37.8519	28.94558
11.84442	-0.04767143	0.05683902	-3.320712	1.918633	-62.37098	28.96056
11.86099	-0.2004645	0.1619606	-9.221545	6.344424	-178.0926	133.5745
11.87756	-0.2456912	0.1900746	-2.730048	1.697058	195.9081	-140.2537
11.89412	-0.3165872	0.2267449	-4.279536	2.213554	-46.76633	15.58877
11.91069	-0.3532576	0.24508	-2.213555	1.106774	62.35504	-33.40461
11.96278	-0.3630363	0.2487471	-0.1877392	0.07040276	29.50799	-15.09576
11.98004	-0.3642586	0.2499694	-0.07082493	0.07082493	1.685968	0.006087957
11.99894	-0.3642586	0.2499694	0	0	1.958629	-1.958629
12.01596	-0.3642586	0.2499694	0	0	0	0
12.03208	-0.3642586	0.2499694	0	0	0	0
12.04872	-0.3642586	0.2499694	0	0	0	0
12.06521	-0.3642586	0.2499694	0	0	0	0
12.08178	-0.3642586	0.2499694	0	0	0	0
12.09834	-0.3642586	0.2499694	0	0	0	0
12.11491	-0.3642586	0.2499694	0	0	0	0
12.13148	-0.3642586	0.2499694	0	0	0	0
12.14804	-0.3642586	0.2499694	0	0	0	0
12.16461	-0.3569246	0.2450801	0.4426589	-0.2951059	13.35986	-8.90657
12.18137	-0.3410341	0.2316343	0.9480204	-0.8021699	15.16238	-15.21346
12.19774	-0.2713605	0.1790735	4.255727	-3.210462	99.82965	-72.68449
12.21463	-0.2139103	0.1350691	3.401327	-2.605271	-25.68677	18.19453
12.23088	-0.1650165	0.09595404	3.010148	-2.408119	-11.80614	5.95022
12.24745	-0.1332356	0.06906246	1.918081	-1.622992	-33.28245	23.92797
12.26401	-0.1112333	0.05317199	1.328133	-0.9592062	-17.80416	20.03251
12.28057	-0.1002322	0.04461557	0.6641808	-0.5165854	-20.04099	13.36025
12.29714	-0.09167583	0.03728151	0.5164362	-0.4426595	-4.459326	2.231278
12.31371	-0.09045349	0.03728151	0.07378922	0	-13.3595	13.35988
12.33053	-0.08923115	0.03483682	0.07268039	-0.145361	-0.0332149	-4.354294
12.34685	-0.08678646	0.03361447	0.1497427	-0.07487135	2.325076	2.12677
12.36341	-0.08434177	0.03116979	0.1476464	-0.1476465	-0.06374797	-2.213112
12.37998	-0.0794524	0.0287251	0.2951403	-0.1475703	4.452784	0.002302385
12.39654	-0.07211833	0.02261337	0.4426852	-0.3689043	4.453043	-6.680066
12.41311	-0.06845129	0.02016868	0.2212917	-0.1475278	-6.680902	6.680386
12.42968	-0.05745019	0.01283462	0.6641425	-0.4427615	13.36488	-8.909915
12.44625	-0.05011613	0.00794524	0.4426595	-0.2951064	-6.684756	4.456497
12.46281	-0.04155971	0.003055861	0.5165852	-0.2951914	2.231273	-0.002566312
12.47938	-0.03422565	-0.001833517	0.4426595	-0.2951064	-2.231273	0.002565413
12.49627	-0.03055861	-0.00550055	0.2171305	-0.2171305	-6.740902	2.330647
12.51251	-0.02689158	-0.006722894	0.2257612	-0.07525371	0.2604964	4.282218
12.52907	-0.02444689	-0.00794524	0.147587	-0.07379363	-2.382823	0.04450452
12.54565	-0.02322455	-0.009167584	0.07375972	-0.07375961	-2.227985	0.001026872
12.56235	-0.02322455	-0.009167584	0	0	-2.216567	2.216564
12.57878	-0.02322455	-0.009167584	0	0	0	0
12.59541	-0.02322455	-0.009167584	0	0	0	0
12.61191	-0.02322455	-0.009167584	0	0	0	0
12.62848	-0.02322455	-0.009167584	0	0	0	0
12.64504	-0.02322455	-0.009167584	0	0	0	0
12.66161	-0.02322455	-0.009167584	0	0	0	0
12.67818	-0.02322455	-0.009167584	0	0	0	0
12.69474	-0.02322455	-0.009167584	0	0	0	0
12.71131	-0.02322455	-0.009167584	0	0	0	0
12.72788	-0.02322455	-0.009167584	0	0	0	0
12.74444	-0.02322455	-0.009167584	0	0	0	0
12.76101	-0.02322455	-0.009167584	0	0	0	0
12.77757	-0.02322455	-0.009167584	0	0	0	0
12.79414	-0.02322455	-0.009167584	0	0	0	0
12.81071	-0.0220022	-0.009167584	0.07378519	0	2.226841	0
12.82727	-0.0220022	-0.009167584	0	0	-2.22697	0
12.84384	-0.01955751	-0.009167584	0.1475702	0	4.453933	0
12.86049	-0.01955751	-0.009167584	0	0	-4.443445	0
12.87699	-0.01833517	-0.009167583	0.07407945	5.644218E-08	2.235015	1.702889E-06
12.89354	-0.01833517	-0.009167583	0	0	-2.240818	-1.70731E-06
12.91011	-0.01833517	-0.009167583	0	0	0	0
12.92667	-0.01833517	-0.009167583	0	0	0	0
12.94324	-0.01833517	-0.009167583	0	0	0	0
12.95981	-0.01833517	-0.009167583	0	0	0	0
12.97637	-0.01833517	-0.009167583	0	0	0	0
12.99294	-0.01833517	-0.009167583	0	0	0	0
13.00951	-0.01833517	-0.009167583	0	0	0	0
13.02607	-0.01833517	-0.009167583	0	0	0	0
13.0432	-0.01833517	-0.009167583	0	0	0	0
13.05979	-0.01833517	-0.009167583	0	0	0	0
13.07635	-0.01833517	-0.009167583	0	0	0	0
13.09234	-0.01833517	-0.009167583	0	0	0	0
13.10891	-0.01833517	-0.009167583	0	0	0	0
13.12568	-0.01833517	-0.009167583	0	0	0	0
13.1421	-0.01833517	-0.009167583	0	0	0	0
13.15861	-0.01833517	-0.009167583	0	0	0	0
13.17521	-0.01833517	-0.009167583	0	0	0	0
13.19174	-0.01833517	-0.009167583	0	0	0	0
13.20866	-0.01833517	-0.009167583	0	0	0	0
13.22488	-0.01711282	-0.009167584	0.07536862	-5.742459E-08	2.27476	-1.733177E-06
13.24149	-0.01711282	-0.009167584	0	0	-2.295574	1.749035E-06
13.25801	-0.01711282	-0.009167584	0	0	0	0
13.27458	-0.01589048	-0.009167584	0.07378945	0	2.230244	0
13.29158	-0.01589048	-0.009167584	0	0	-2.19837	0
13.30771	-0.01466813	-0.009167585	0.07575618	-5.771987E-08	2.28626	-1.741939E-06
13.32428	-0.01466813	-0.009167585	0	0	-2.316529	1.765002E-06
13.34093	-0.01466813	-0.009167585	0	0	0	0
13.35741	-0.01466813	-0.009167585	0	0	0	0
13.37479	-0.01344579	-0.009167583	0.07032771	1.071674E-07	2.076826	3.164727E-06
13.39054	-0.01344579	-0.009167583	0	0	-2.122556	-3.23441E-06
13.40738	-0.01344579	-0.009167583	0	0	0	0
13.42397	-0.01344579	-0.009167583	0	0	0	0
13.44028	-0.01222344	-0.009167584	0.07494128	-5.70989E-08	2.278059	-1.735687E-06
13.45681	-0.01222344	-0.009167584	0	0	-2.281961	1.738661E-06
13.47345	-0.01222344	-0.009167584	0	0	0	0
13.49001	-0.01222344	-0.009167584	0	0	0	0
13.50651	-0.01222344	-0.009167584	0	0	0	0
13.52308	-0.01222344	-0.009167584	0	0	0	0
13.54028	-0.01222344	-0.009167584	0	0	0	0
13.55621	-0.0110011	-0.009167584	0.07673142	0	2.316092	0
13.57277	-0.009778757	-0.009167585	0.07378078	-5.621474E-08	-0.09079613	-1.729822E-06
13.58934	-0.009778757	-0.009167585	0	0	-2.226773	1.696613E-06
13.60591	-0.008556412	-0.009167585	0.07377665	0	2.226584	0
13.62279	-0.008556412	-0.009167585	0	0	-2.205634	0
13.63905	-0.007334067	-0.009167584	0.07519634	5.72932E-08	2.2693	1.729013E-06
13.65561	-0.006111722	-0.009167584	0.07378936	0	-0.04286875	-1.745642E-06
13.67218	-0.004889378	-0.009167584	0.07378508	0	-0.0001290802	0
13.68874	-0.003667033	-0.009167584	0.07379361	0	0.0002574932	0
13.70531	-0.003667033	-0.009167584	0	0	-2.227288	0
13.72235	-0.003667033	-0.009167584	0	0	0	0
13.73845	-0.003667033	-0.009167584	0	0	0	0
13.75501	-0.003667033	-0.009167584	0	0	0	0
13.77158	-0.003667033	-0.009167584	0	0	0	0
13.78829	-0.003667033	-0.009167584	0	0	0	0
13.80503	-0.002444689	-0.009167584	0.07304502	0	2.183699	0
13.82128	-0.002444689	-0.009167584	0	0	-2.214638	0
13.84342	-0.002444689	-0.009167584	0	0	0	0
13.86009	-0.002444689	-0.009167584	0	0	0	0
13.87656	-0.002444689	-0.009167584	0	0	0	0
13.89312	-0.002444689	-0.009167584	0	0	0	0
13.90969	-0.002444689	-0.009167584	0	0	0	0
13.93247	-0.002444689	-0.009167584	0	0	0	0
13.94947	-0.002444689	-0.009167584	0	0	0	0
13.96565	-0.002444689	-0.009167584	0	0	0	0
13.98218	-0.002444689	-0.009167584	0	0	0	0
13.99874	-0.002444689	-0.009167584	0	0	0	0
14.01574	-0.002444689	-0.009167584	0	0	0	0
14.03187	-0.002444689	-0.009167584	0	0	0	0
14.04906	-0.002444689	-0.009167584	0	0	0	0
14.06575	-0.002444689	-0.009167584	0	0	0	0
14.08157	-0.002444689	-0.009167584	0	0	0	0
14.09814	-0.002444689	-0.009167584	0	0	0	0
14.11519	-0.002444689	-0.009167584	0	0	0	0
14.13127	-0.002444689	-0.009167584	0	0	0	0
14.14784	-0.002444689	-0.009167584	0	0	0	0
14.16456	-0.002444689	-0.009167584	0	0	0	0
14.18097	-0.002444689	-0.009167584	0	0	0	0
14.19753	-0.002444689	-0.009167584	0	0	0	0
14.21411	-0.002444689	-0.009167584	0	0	0	0
14.23072	-0.002444689	-0.009167584	0	0	0	0
14.24723	-0.002444689	-0.009167584	0	0	0	0
14.2638	-0.002444689	-0.009167584	0	0	0	0
14.28037	-0.002444689	-0.009167584	0	0	0	0
14.29705	-0.002444689	-0.009167584	0	0	0	0
14.3135	-0.002444689	-0.009167584	0	0	0	0
14.33017	-0.002444689	-0.009167584	0	0	0	0
14.34664	-0.002444689	-0.009167584	0	0	0	0
14.36321	-0.002444689	-0.009167584	0	0	0	0
14.37977	-0.002444689	-0.009167584	0	0	0	0
14.39634	-0.002444689	-0.009167584	0	0	0	0
14.41295	-0.002444689	-0.009167584	0	0	0	0
14.42961	-0.002444689	-0.009167584	0	0	0	0
14.44624	-0.002444689	-0.009167584	0	0	0	0
14.46286	-0.002444689	-0.009167584	0	0	0	0
14.48815	-0.002444689	-0.009167584	0	0	0	0
14.50483	-0.002444689	-0.009167584	0	0	0	0
14.52129	-0.002444689	-0.009167584	0	0	0	0
14.53821	-0.002444689	-0.009167584	0	0	0	0
14.55443	-0.002444689	-0.009167584	0	0	0	0
14.57175	-0.002444689	-0.009167584	0	0	0	0
14.58844	-0.002444689	-0.009167584	0	0	0	0
14.60413	-0.002444689	-0.009167584	0	0	0	0
14.62069	-0.002444689	-0.009167584	0	0	0	0
14.63763	-0.002444689	-0.009167584	0	0	0	0
14.65382	-0.002444689	-0.009167584	0	0	0	0
14.67039	-0.002444689	-0.009167584	0	0	0	0
14.68725	-0.002444689	-0.009167584	0	0	0	0
14.70353	-0.002444689	-0.009167584	0	0	0	0
14.72009	-0.002444689	-0.009167584	0	0	0	0
14.73677	-0.002444689	-0.009167584	0	0	0	0
14.75323	-0.002444689	-0.009167584	0	0	0	0
14.76979	-0.002444689	-0.009167584	0	0	0	0
14.78636	-0.002444689	-0.009167584	0	0	0	0
14.80292	-0.001222344	-0.009167584	0.0737851	0	2.226967	0
14.81949	-0.001222344	-0.009167584	0	0	-2.226967	0
14.83655	-0.001222344	-0.009167584	0	0	0	0
14.853	-0.001222344	-0.009167584	0	0	0	0
14.86919	-0.001222344	-0.009167584	0	0	0	0
14.88576	-0.001222344	-0.009167584	0	0	0	0
14.90232	-0.001222344	-0.009167584	0	0	0	0
14.91889	0	-0.00794524	0.0737851	0.07378508	2.226967	2.226966
14.93545	0	-0.00794524	0	0	-2.226967	-2.226966
14.95202	0	-0.00794524	0	0	0	0
14.96859	0	-0.00794524	0	0	0	0
14.98515	0	-0.00794524	0	0	0	0
15.00172	0	-0.00794524	0	0	0	0
15.01829	0	-0.00794524	0	0	0	0
15.03485	0	-0.00794524	0	0	0	0
15.05142	0	-0.00794524	0	0	0	0
15.06799	0	-0.00794524	0	0	0	0
15.08455	0	-0.00794524	0	0	0	0
15.10112	0	-0.00794524	0	0	0	0
15.11769	0	-0.00794524	0	0	0	0
15.13425	0	-0.00794524	0	0	0	0
15.15126	0	-0.00794524	0	0	0	0
15.16784	0	-0.00794524	0	0	0	0
15.1844	0	-0.00794524	0	0	0	0
15.20096	0	-0.00794524	0	0	0	0
15.21753	0	-0.00794524	0	0	0	0
15.23427	0	-0.00794524	0	0	0	0
15.25066	0	-0.00794524	0	0	0	0
15.26723	0	-0.00794524	0	0	0	0
15.2838	0	-0.00794524	0	0	0	0
15.30036	0	-0.00794524	0	0	0	0
15.31693	0	-0.00794524	0	0	0	0
15.33355	0	-0.00794524	0	0	0	0
15.35015	0	-0.00794524	0	0	0	0
15.36663	0	-0.00794524	0	0	0	0
15.38323	0	-0.00794524	0	0	0	0
15.39977	0	-0.00794524	0	0	0	0
15.41633	0	-0.00794524	0	0	0	0
15.43333	0	-0.00794524	0	0	0	0
15.44947	0	-0.00794524	0	0	0	0
15.46603	0	-0.00794524	0	0	0	0
15.48294	0	-0.00794524	0	0	0	0
15.49916	0	-0.00794524	0	0	0	0
15.51573	0	-0.00794524	0	0	0	0
15.53272	0	-0.00794524	0	0	0	0
15.54887	0	-0.00794524	0	0	0	0
15.566	0	-0.00794524	0	0	0	0
15.582	0	-0.00794524	0	0	0	0
15.59856	0	-0.00794524	0	0	0	0
15.61554	0	-0.00794524	0	0	0	0
15.63208	0	-0.00794524	0	0	0	0
15.64826	0	-0.00794524	0	0	0	0
15.66483	0	-0.00794524	0	0	0	0
15.6814	0	-0.00794524	0	0	0	0
15.69832	0	-0.00794524	0	0	0	0
15.71453	0	-0.00794524	0	0	0	0
15.73162	0	-0.00794524	0	0	0	0
15.74767	0	-0.00794524	0	0	0	0
15.76448	0	-0.00794524	0	0	0	0
15.7808	0	-0.00794524	0	0	0	0
15.79737	0	-0.00794524	0	0	0	0
15.81393	0	-0.00794524	0	0	0	0
15.8305	0	-0.00794524	0	0	0	0
15.84728	0	-0.00794524	0	0	0	0
15.86363	0	-0.00794524	0	0	0	0
15.8802	0	-0.00794524	0	0	0	0
15.89677	0	-0.00794524	0	0	0	0
15.91333	0	-0.00794524	0	0	0	0
15.9299	0	-0.00794524	0	0	0	0
15.94665	0	-0.00794524	0	0	0	0
15.96333	0	-0.00794524	0	0	0	0
15.9797	0	-0.00794524	0	0	0	0
15.99624	0	-0.00794524	0	0	0	0
16.01273	0	-0.00794524	0	0	0	0
16.0293	0	-0.00794524	0	0	0	0
16.04608	0	-0.00794524	0	0	0	0
16.06244	0	-0.00794524	0	0	0	0
16.0792	0	-0.00794524	0	0	0	0
16.09602	0	-0.00794524	0	0	0	0
16.11214	0	-0.00794524	0	0	0	0
16.1287	0	-0.00794524	0	0	0	0
16.14527	0	-0.00794524	0	0	0	0
16.16184	0	-0.00794524	0	0	0	0
16.17884	0	-0.00794524	0	0	0	0
16.19497	0	-0.00794524	0	0	0	0
16.21153	0	-0.00794524	0	0	0	0
16.22828	0	-0.00794524	0	0	0	0
16.24495	0	-0.00794524	0	0	0	0
16.26223	0	-0.00794524	0	0	0	0
16.2778	0	-0.00794524	0	0	0	0
16.2948	0	-0.00794524	0	0	0	0
16.31114	0	-0.00794524	0	0	0	0
16.3275	0	-0.00794524	0	0	0	0
16.34406	0	-0.00794524	0	0	0	0
16.36069	0	-0.00794524	0	0	0	0
16.37733	0	-0.00794524	0	0	0	0
16.39391	0	-0.00794524	0	0	0	0
16.41058	0	-0.00794524	0	0	0	0
16.427	0	-0.00794524	0	0	0	0
16.44347	0	-0.00794524	0	0	0	0
16.46235	0	-0.00794524	0	0	0	0
16.47894	0.007334067	-0.00794524	0.4421253	0	12.46242	0
16.49582	0.01589048	-0.00794524	0.50701	0	1.938916	0
16.51206	0.02566923	-0.007945239	0.6020294	5.733693E-08	2.869014	1.731229E-06
16.52863	0.08434177	-0.001833517	3.542297	0.3689892	89.62482	11.24748
16.54557	0.1344579	-0.003055861	2.957596	-0.07213649	-17.44943	-13.16467
16.56209	0.1821293	-0.004278205	2.886425	-0.07401088	-2.127017	-0.05601771
16.57866	0.216355	-0.006722895	2.065389	-0.1475278	-24.81462	-2.221942
16.59489	0.2371348	-0.01038993	1.279914	-0.2258672	-23.94275	-2.38793
16.61222	0.2408019	-0.01161227	0.211622	-0.0705406	-31.82886	4.627826
16.62803	0.2408019	-0.01161227	0	0	-6.38603	2.128675
16.64489	0.2408019	-0.01161227	0	0	0	0
16.66116	0.2408019	-0.01161227	0	0	0	0
16.67773	0.2408019	-0.01161227	0	0	0	0
16.6943	0.251803	-0.01038993	0.6639501	0.07377245	20.0369	2.226329
16.71086	0.2652488	-0.006722895	0.8117785	0.2213935	4.461727	4.455469
16.72764	0.2762498	-0.004278205	0.6554226	0.1456502	-4.688603	-2.271295
16.74424	0.2921403	-0.003055861	0.9577196	0.07367057	9.05713	-2.156582
16.76078	0.326366	0.004278206	2.068245	0.4431954	33.50993	11.15036
16.77713	0.3850385	0.017724	3.589837	0.8226709	46.25992	11.53693
16.79426	0.4253759	0.02628041	2.35453	0.4994459	-36.90139	-9.655458
16.81026	0.436377	0.0287251	0.6876192	0.1528041	-50.31327	-10.46288
16.82683	0.436377	0.0287251	0	0	-21.11335	-4.691851
16.84339	0.436377	0.0287251	0	0	0	0
16.85996	0.436377	0.0287251	0	0	0	0
16.87653	0.436377	0.0287251	0	0	0	0
16.89309	0.436377	0.0287251	0	0	0	0
16.90966	0.436377	0.02628041	0	-0.1475617	0	-4.45342
16.92623	0.4339323	0.02505806	-0.1475614	-0.07378083	-4.453413	2.22671
16.94279	0.4302652	0.02505806	-0.221344	-1.124295E-07	-2.226761	2.226707
16.95936	0.4278206	0.02628041	-0.1475614	0.07378095	2.226761	2.226717
16.97595	0.4253759	0.02628041	-0.1474087	0	0.004607222	-2.22556
16.99249	0.4229312	0.02628041	-0.1477315	0	-0.00974325	0
17.00906	0.4192641	0.02750275	-0.221344	0.07378083	-2.222908	2.227993
17.02588	0.4082631	0.02750275	-0.6541606	1.10759E-07	-12.96467	-2.210041
17.04219	0.3740374	0.0287251	-2.097743	0.07491938	-43.56991	2.261198
17.05876	0.3434788	0.02750275	-1.844309	-0.07377245	7.70676	-4.521626
17.07533	0.3055861	0.0262804	-2.287471	-0.07378945	-13.37465	-0.0005129033
17.0919	0.2676935	0.02628041	-2.287204	1.124295E-07	0.008059409	2.227102
17.10847	0.2322454	0.0262804	-2.139154	-1.124036E-07	4.467653	-6.784695E-06
17.12533	0.1943528	0.02750275	-2.246599	0.07247103	-3.213279	2.167346
17.14176	0.188241	0.02750275	-0.3720312	0	56.30232	-2.176655
17.15816	0.1735729	0.02750275	-0.8942233	0	-15.90537	0
17.17473	0.1674612	0.02750275	-0.3688621	0	15.93339	0
17.19158	0.1637942	0.02750275	-0.2177334	0	4.523317	0
17.20786	0.1613495	0.02750275	-0.1501017	1.14365E-07	2.04148	3.452138E-06
17.22443	0.1601271	0.02750275	-0.07378922	-1.124424E-07	2.322906	-6.903878E-06
17.241	0.1601271	0.02750275	0	0	2.227091	3.393715E-06
17.25756	0.1589048	0.02750275	-0.07378922	0	-2.227091	0
17.27413	0.1589048	0.02750275	0	0	2.226963	0
17.29072	0.1576824	0.02750275	-0.073662	0	-2.221205	0
17.30726	0.1576824	0.02750275	0	0	2.223124	0
17.32398	0.1552377	0.02750275	-0.1462324	1.114161E-07	-4.39685	3.350011E-06
17.34089	0.1515707	0.02750275	-0.2168982	-1.101718E-07	-2.101609	-6.590044E-06
17.35696	0.1442367	0.02750275	-0.4562359	0	-7.256643	3.340373E-06
17.44259	0.1381249	0.02750275	-0.07137807	0	3.784252	0
17.45916	0.1246791	0.02872509	-0.8113096	0.07375525	-7.240201	0.7216923
17.47573	0.1246791	0.02872509	0	0	24.48396	-2.22581
17.4923	0.1197898	0.02994744	-0.2950554	0.07376397	-8.90479	2.226201
17.50903	0.1185674	0.02994744	-0.07304861	1.113145E-07	6.666027	-2.21485
17.52543	0.1173451	0.02994744	-0.07454499	-1.135934E-07	-0.04516587	-6.788517E-06
17.54199	0.1173451	0.02994744	0	0	2.261619	3.446308E-06
17.55856	0.1161227	0.02994744	-0.07378072	1.124295E-07	-2.226963	3.393519E-06
17.57545	0.1161227	0.02994744	0	0	2.204751	-3.359671E-06
17.59169	0.1161227	0.02994744	0	0	0	0
17.60826	0.1161227	0.02994744	0	0	0	0
17.62482	0.1149004	0.02994744	-0.07378072	0	-2.226707	0
17.64139	0.1149004	0.02994744	0	0	2.226707	0
17.65796	0.1149004	0.02994744	0	0	0	0
17.67453	0.1149004	0.02994744	0	0	0	0
17.69109	0.1149004	0.02994744	0	0	0	0
17.70766	0.1149004	0.02994744	0	0	0	0
17.72423	0.1149004	0.02994744	0	0	0	0
17.7408	0.1149004	0.02994744	0	0	0	0
17.75758	0.1149004	0.02994744	0	0	0	0
17.77393	0.1149004	0.02994744	0	0	0	0
17.79049	0.1149004	0.02994744	0	0	0	0
17.80706	0.1149004	0.02994744	0	0	0	0
17.82634	0.1149004	0.02994744	0	0	0	0
17.8431	0.1149004	0.02994744	0	0	0	0
17.85948	0.1149004	0.02994744	0	0	0	0
17.87604	0.1149004	0.02994744	0	0	0	0
17.89261	0.1149004	0.02994744	0	0	0	0
17.90948	0.1149004	0.02994744	0	0	0	0
17.92605	0.1149004	0.03116978	-4.496144E-07	0.07376374	-1.344325E-05	2.2055
17.94231	0.113678	0.03116979	-0.07520058	1.145931E-07	-2.290908	-2.247146
17.95887	0.113678	0.03116979	0	0	2.291454	-3.491793E-06
17.97544	0.1112334	0.03116979	-0.1475445	0	-4.453157	0
17.99201	0.1087887	0.03116978	-0.1475624	-1.124295E-07	-0.0005400801	-3.392933E-06
18.00873	0.1075663	0.03116979	-0.07309071	1.11378E-07	2.237	6.722791E-06
18.02514	0.106344	0.03116979	-0.07449254	0	-0.04230988	-3.361589E-06
18.04171	0.1038993	0.03116979	-0.1475614	0	-2.215811	0
18.05828	0.1026769	0.03116978	-0.07378118	-1.124295E-07	2.226693	-3.393129E-06
18.07484	0.1026769	0.03116978	0	0	2.226849	3.393324E-06
18.09171	0.1026769	0.03116978	0	0	0	0
18.10798	0.1026769	0.03116978	0	0	0	0
18.12454	0.1026769	0.03116978	0	0	0	0
18.14111	0.1026769	0.03116978	0	0	0	0
18.15768	0.1014546	0.03116979	-0.07378072	1.124295E-07	-2.226707	3.393129E-06
18.17424	0.1014546	0.03116979	0	0	2.226707	-3.393129E-06
18.1911	0.1002322	0.03116978	-0.07251225	-1.104959E-07	-2.169442	-3.305847E-06
18.20767	0.1002322	0.03116978	0	0	2.169195	3.305469E-06
18.22404	0.1002322	0.03116978	0	0	0	0
18.24051	0.1002322	0.03116978	0	0	0	0
18.25708	0.1002322	0.03116978	0	0	0	0
18.27364	0.1002322	0.03116978	0	0	0	0
18.29021	0.1002322	0.03116978	0	0	0	0
18.30678	0.1002322	0.03116978	0	0	0	0
18.32334	0.1002322	0.03116978	0	0	0	0
18.34028	0.1002322	0.03116978	0	0	0	0
18.35648	0.1002322	0.03116978	0	0	0	0
18.3733	0.1002322	0.03116978	0	0	0	0
18.38961	0.0990099	0.03116979	-0.07492802	1.141778E-07	-2.261462	3.44609E-06
18.40618	0.0990099	0.03116979	0	0	2.278779	-3.472477E-06
18.42274	0.0990099	0.03116979	0	0	0	0
18.43931	0.09778756	0.03116979	-0.07378072	0	-2.226835	0
18.45597	0.09656522	0.03116979	-0.07337524	0	0.01220378	0
18.47244	0.09656522	0.03116979	0	0	2.214597	0
18.48901	0.09534287	0.03116979	-0.07379772	1.124554E-07	-2.233777	3.403903E-06
18.50558	0.09534287	0.03116979	0	0	2.227348	-3.394105E-06
18.52225	0.09534287	0.03116979	0	0	0	0
18.53871	0.09534287	0.03116979	0	0	0	0
18.55527	0.09534287	0.03116979	0	0	0	0
18.57236	0.09534287	0.03116979	0	0	0	0
18.58841	0.09534287	0.03116979	0	0	0	0
18.60546	0.09412052	0.03116979	-0.07170899	-1.092718E-07	-2.166676	-3.301632E-06
18.62155	0.09412052	0.03116979	0	0	2.164057	3.297641E-06
18.63894	0.09289818	0.03116979	-0.07029279	0	-2.099565	0
18.65468	0.09167584	0.03116978	-0.07763287	-1.182995E-07	-0.2215241	-3.570286E-06
18.67124	0.09167584	0.03116978	0	0	2.402856	3.661551E-06
18.68781	0.08923115	0.02994744	-0.1475619	-0.07378072	-4.453939	-2.226963
18.70438	0.08923115	0.02994744	0	0	4.453427	2.226707
18.72183	0.08678646	0.02994744	-0.1400632	0	-4.116919	0
18.73751	0.08678646	0.02994744	0	0	4.22736	0
18.75643	0.08556412	0.02994744	-0.06460276	-9.84438E-08	-1.867169	-2.845254E-06
18.773	0.08434177	0.0287251	-0.07377268	-0.07377223	-0.2583802	-2.078672
18.78999	0.08434177	0.0287251	0	0	2.198371	2.198357
18.80614	0.08434177	0.0287251	0	0	0	0
18.8227	0.08434177	0.0287251	0	0	0	0
18.83927	0.08434177	0.0287251	0	0	0	0
18.85596	0.08434177	0.0287251	0	0	0	0
18.8724	0.08434177	0.0287251	0	0	0	0
18.88938	0.08434177	0.0287251	0	0	0	0
18.90554	0.08434177	0.0287251	0	0	0	0
18.9221	0.08434177	0.0287251	0	0	0	0
18.93928	0.08434177	0.0287251	0	0	0	0
18.95524	0.08434177	0.0287251	0	0	0	0
18.97181	0.08434177	0.0287251	0	0	0	0
18.98837	0.08434177	0.0287251	0	0	0	0
19.00497	0.08434177	0.0287251	0	0	0	0
19.02153	0.08434177	0.0287251	0	0	0	0
19.03832	0.08434177	0.0287251	0	0	0	0
19.05464	0.08434177	0.0287251	0	0	0	0
19.07121	0.08434177	0.0287251	0	0	0	0
19.08778	0.08434177	0.0287251	0	0	0	0
19.10434	0.08434177	0.0287251	0	0	0	0
19.12506	0.08434177	0.0287251	0	0	0	0
19.14163	0.08311942	0.02750275	-0.07376419	-0.07376397	-1.978396	-1.97839
19.1582	0.08311942	0.02750275	0	0	2.225951	2.225945
19.17476	0.08311942	0.02750275	0	0	0	0
19.19133	0.08311942	0.02750275	0	0	0	0
19.2079	0.08311942	0.02750275	0	0	0	0
19.22446	0.08311942	0.02750275	0	0	0	0
19.24103	0.08311942	0.02750275	0	0	0	0
19.2576	0.08311942	0.02750275	0	0	0	0
19.27416	0.08311942	0.02750275	0	0	0	0
19.29073	0.08311942	0.02750275	0	0	0	0
19.30733	0.08311942	0.02750275	0	0	0	0
19.32386	0.08189708	0.02750275	-0.07394247	1.12676E-07	-2.231717	3.400763E-06
19.34043	0.08189709	0.02628041	4.496662E-07	-0.07377245	2.233916	-2.22877
19.357	0.08067474	0.0262804	-0.07378118	-1.124295E-07	-2.226606	2.226326
19.37357	0.08067474	0.0262804	0	0	2.22672	3.393129E-06
19.39013	0.08067474	0.0262804	0	0	0	0
19.4067	0.0794524	0.02505806	-0.07378072	-0.07378072	-2.226835	-2.226835
19.42327	0.0770077	0.02383572	-0.1475624	-0.07378095	-2.226734	-6.745769E-06
19.43983	0.07578536	0.02261337	-0.07378028	-0.07378072	2.226748	6.745769E-06
19.45641	0.07578536	0.02261337	0	0	2.225924	2.225938
19.47297	0.07578536	0.02261337	0	0	0	0
19.48953	0.07578536	0.02261337	0	0	0	0
19.5061	0.07578536	0.02261337	0	0	0	0
19.52267	0.07456301	0.02261337	-0.07378118	-2.24859E-07	-2.22672	-6.786257E-06
19.53923	0.07456301	0.02261337	0	0	2.22672	6.786257E-06
19.5558	0.07334068	0.02261337	-0.07378028	2.24859E-07	-2.226693	6.786257E-06
19.57237	0.07334068	0.02261337	0	0	2.226693	-6.786257E-06
19.58894	0.07334068	0.02261337	0	0	0	0
19.6055	0.07334068	0.02261337	0	0	0	0
19.62207	0.07334068	0.02261337	0	0	0	0
19.63864	0.07334068	0.02261337	0	0	0	0
19.6552	0.07334068	0.02261337	0	0	0	0
19.67177	0.07334068	0.02261337	0	0	0	0
19.68834	0.07334068	0.02261337	0	0	0	0
19.70491	0.07334068	0.02261337	0	0	0	0
19.72147	0.07334068	0.02261337	0	0	0	0
19.73804	0.07334068	0.02261337	0	0	0	0
19.75461	0.07334068	0.02261337	0	0	0	0
19.77118	0.07334068	0.02261337	0	0	0	0
19.78774	0.07334068	0.02261337	0	0	0	0
19.80431	0.07334068	0.02261337	0	0	0	0
19.82087	0.07334068	0.02261337	0	0	0	0
19.83744	0.07334068	0.02261337	0	0	0	0
19.85401	0.07334068	0.02261337	0	0	0	0
19.87057	0.07334067	0.02139103	-4.497179E-07	-0.07378095	-1.357251E-05	-2.226713
19.88714	0.07334067	0.02139103	0	0	1.357251E-05	2.226713
19.90371	0.07334067	0.02139103	0	0	0	0
19.92028	0.07334067	0.02139103	0	0	0	0
19.93684	0.07334067	0.02139103	0	0	0	0
19.95367	0.07334067	0.02139103	0	0	0	0
19.96998	0.07334067	0.02139103	0	0	0	0
19.98654	0.07334067	0.02139103	0	0	0	0
20.00311	0.07334067	0.02139103	0	0	0	0
20.02009	0.07334067	0.02139103	0	0	0	0
20.03625	0.07334067	0.02139103	0	0	0	0
20.05281	0.07334067	0.02139103	0	0	0	0
20.06938	0.07334067	0.02139103	0	0	0	0
20.08595	0.07334067	0.02139103	0	0	0	0
20.10275	0.07334067	0.02139103	0	0	0	0
20.11908	0.07334067	0.02139103	0	0	0	0
20.13565	0.07334067	0.02139103	0	0	0	0
20.15221	0.07334067	0.02139103	0	0	0	0
20.16878	0.07334067	0.02139103	0	0	0	0
20.18563	0.07334067	0.02139103	0	0	0	0
20.20191	0.07334067	0.02139103	0	0	0	0
20.21848	0.07334067	0.02139103	0	0	0	0
20.23524	0.07334067	0.02139103	0	0	0	0
20.25161	0.07334067	0.02139103	0	0	0	0
20.2683	0.07334067	0.02139103	0	0	0	0
20.28475	0.07334067	0.02139103	0	0	0	0
20.30131	0.07334067	0.02139103	0	0	0	0
20.31788	0.07334067	0.02139103	0	0	0	0
20.3347	0.07334067	0.02139103	0	0	0	0
20.35102	0.07334067	0.02139103	0	0	0	0
20.36831	0.07334067	0.02139103	0	0	0	0
20.38483	0.07334067	0.02139103	0	0	0	0
20.40071	0.07334067	0.02139103	0	0	0	0
20.41728	0.07334067	0.02139103	0	0	0	0
20.43403	0.07334067	0.02139103	0	0	0	0
20.45041	0.07334067	0.02139103	0	0	0	0
20.46698	0.07334067	0.02139103	0	0	0	0
20.48355	0.07334067	0.02139103	0	0	0	0
20.50014	0.07334067	0.02139103	0	0	0	0
20.51669	0.07334067	0.02139103	0	0	0	0
20.53325	0.07334067	0.02139103	0	0	0	0
20.5502	0.07334067	0.02139103	0	0	0	0
20.56638	0.07334067	0.02139103	0	0	0	0
20.58295	0.07334067	0.02139103	0	0	0	0
20.59959	0.07334067	0.02139103	0	0	0	0
20.61609	0.07334067	0.02139103	0	0	0	0
20.63271	0.07334067	0.02139103	0	0	0	0
20.64922	0.07334067	0.02139103	0	0	0	0
20.66661	0.07334067	0.02139103	0	0	0	0
20.68235	0.07334067	0.02139103	0	0	0	0
20.69911	0.07334067	0.02139103	0	0	0	0
20.71548	0.07334067	0.02139103	0	0	0	0
20.73205	0.07334067	0.02139103	0	0	0	0
20.74862	0.07334067	0.02139103	0	0	0	0
20.76519	0.07334067	0.02139103	0	0	0	0
20.78175	0.07334067	0.02139103	0	0	0	0
20.79832	0.07334067	0.02139103	0	0	0	0
20.81489	0.07334067	0.02139103	0	0	0	0
20.83146	0.07334067	0.02139103	0	0	0	0
20.84816	0.07334067	0.02139103	0	0	0	0
20.86459	0.07334067	0.02139103	0	0	0	0
20.88116	0.07334067	0.02139103	0	0	0	0
20.89772	0.07334067	0.02139103	0	0	0	0
20.91429	0.07334067	0.02139103	0	0	0	0
20.93086	0.07334067	0.02139103	0	0	0	0
20.94743	0.07334067	0.02139103	0	0	0	0
20.96409	0.07334067	0.02139103	0	0	0	0
20.98056	0.07334067	0.02139103	0	0	0	0
20.99713	0.07334067	0.02139103	0	0	0	0
21.01369	0.07334067	0.02139103	0	0	0	0
21.03026	0.07334067	0.02139103	0	0	0	0
21.04683	0.07334067	0.02139103	0	0	0	0
21.06339	0.07334067	0.02139103	0	0	0	0
21.07996	0.07334067	0.02139103	0	0	0	0
21.09653	0.07211833	0.02139103	-0.07379772	0	-2.227476	0
21.1131	0.0440044	0.03972619	-1.696569	1.106458	-48.97535	33.39297
21.12966	0.02566923	0.05194964	-1.106713	0.7378088	17.79986	-11.12458
21.14623	-0.02689158	0.0812859	-3.172577	1.77074	-62.3479	31.17393
21.1628	-0.08189708	0.1142892	-3.320521	1.992313	-4.465215	6.687468
21.17936	-0.1381249	0.1399584	-3.39392	1.549398	-2.215309	-13.36797
21.19593	-0.1711282	0.1534042	-1.992083	0.8115889	42.30751	-22.26712
21.2125	-0.1906857	0.163183	-1.180494	0.5902485	24.4938	-6.680065
21.22906	-0.1955751	0.16685	-0.2951229	0.2213413	26.72056	-11.13364
21.24563	-0.2004645	0.1717394	-0.2951229	0.2951238	0	2.22676
21.2622	-0.220022	0.1839628	-1.180495	0.7378082	-26.72059	13.36024
21.27877	-0.2346901	0.1949639	-0.8853696	0.6640283	8.906906	-2.226679
21.2954	-0.2481359	0.2047427	-0.8083317	0.587877	2.320333	-2.293632
21.3119	-0.2530253	0.2071874	-0.2963169	0.1481594	15.45264	-13.2707
21.32847	-0.2542477	0.2071874	-0.07378253	0	6.729659	-4.480485
21.34503	-0.2542477	0.2071874	0	0	2.226889	0
21.3616	-0.2542477	0.2071874	0	0	0	0
21.37831	-0.2542477	0.2071874	0	0	0	0
21.39473	-0.2542477	0.2071874	0	0	0	0
21.4113	-0.2542477	0.2071874	0	0	0	0
21.42787	-0.2542477	0.2071874	0	0	0	0
21.44455	-0.2542477	0.2071874	0	0	0	0
21.461	-0.2542477	0.2071874	0	0	0	0
21.47834	-0.2542477	0.2071874	0	0	0	0
21.49439	-0.2493583	0.2035204	0.3045919	-0.2284423	9.122236	-6.841629
21.5107	-0.2469136	0.202298	0.1498911	-0.07494646	-4.780325	4.743091
21.52727	-0.2432466	0.1998533	0.2213431	-0.1475624	2.173314	-2.208716
21.54383	-0.2395795	0.1961863	0.2213431	-0.2213422	0	-2.226679
21.5604	-0.2298008	0.1851852	0.5903147	-0.6641039	11.13623	-13.36334
21.57697	-0.2114656	0.1656277	1.106713	-1.180494	15.58582	-15.58559
21.59354	-0.1833517	0.1375138	1.696569	-1.696569	17.79984	-15.57336
21.61053	-0.1466813	0.1057328	2.158022	-1.870286	13.74862	-5.175751
21.62667	-0.106344	0.07639653	2.499515	-1.817829	10.30746	1.583323
21.64333	-0.06356191	0.05194964	2.567257	-1.467004	2.065153	10.69505
21.6598	-0.04644909	0.04461557	1.039032	-0.4452996	-46.12191	30.83509
21.67637	-0.03789268	0.04094854	0.5164067	-0.2213171	-15.81841	6.779316
21.69294	-0.03422565	0.04094854	0.2213424	0	-8.904547	6.67898
21.7095	-0.02811392	0.04094854	0.3689893	0	4.456504	0
21.7263	-0.01466813	0.04217089	0.8005299	0.07277553	12.93605	2.181551
21.74907	0.002444689	0.04461557	0.7516167	0.1073738	-1.236303	0.8744851
21.76564	0.02933627	0.04583792	1.622806	0.07376374	22.14564	-0.8543678
21.78221	0.0330033	0.04461557	0.2213423	-0.07378072	-42.29138	-4.452388
21.79877	0.03667033	0.04339323	0.2213426	-0.07378095	1.034351E-05	-6.745769E-06
21.81534	0.03911502	0.04339323	0.1475787	2.248849E-07	-2.226329	2.226848
21.83191	0.04033737	0.04217088	0.07377223	-0.07377268	-2.227483	-2.226471
21.84847	0.04155971	0.04217089	0.07378118	2.24859E-07	0.0002700401	2.226343
21.86504	0.04155971	0.04217089	0	0	-2.22672	-6.786257E-06
21.88161	0.04155971	0.04217089	0	0	0	0
21.89818	0.04155971	0.04217089	0	0	0	0
21.91487	0.04155971	0.04217089	0	0	0	0
21.93131	0.04155971	0.04217089	0	0	0	0
21.94788	0.04155971	0.04217089	0	0	0	0
21.96444	0.04155971	0.04217089	0	0	0	0
21.98101	0.04155971	0.04217089	0	0	0	0
21.99758	0.04155971	0.04217089	0	0	0	0
22.01458	0.04155971	0.04217089	0	0	0	0
22.03082	0.04155971	0.04217089	0	0	0	0
22.04728	0.04155971	0.04217089	0	0	0	0
22.06385	0.04155971	0.04217089	0	0	0	0
22.08043	0.04155971	0.04217089	0	0	0	0
22.09698	0.04155971	0.04217089	0	0	0	0
22.11424	0.04155971	0.04217089	0	0	0	0
22.13011	0.04155971	0.04217089	0	0	0	0
22.14705	0.04155971	0.04217089	0	0	0	0
22.16325	0.04155971	0.04217089	0	0	0	0
22.17981	0.04155971	0.04217089	0	0	0	0
22.19638	0.04155971	0.04217089	0	0	0	0
22.21389	0.04155971	0.04217089	0	0	0	0
22.22951	0.04155971	0.04217089	0	0	0	0
22.24608	0.04155971	0.04217089	0	0	0	0
22.26265	0.04155971	0.04217089	0	0	0	0
22.27921	0.04155971	0.04217089	0	0	0	0
22.29578	0.04155971	0.04217089	0	0	0	0
22.31235	0.04155971	0.04217089	0	0	0	0
22.32891	0.04155971	0.04217089	0	0	0	0
22.34548	0.04155971	0.04217089	0	0	0	0
22.36233	0.04155971	0.04217089	0	0	0	0
22.37906	0.04155971	0.04217089	0	0	0	0
22.39864	0.04155971	0.04217089	0	0	0	0
22.41521	0.04155971	0.04217089	0	0	0	0
22.43178	0.04155971	0.04217089	0	0	0	0
22.44835	0.04155971	0.04217089	0	0	0	0
22.46537	0.04155971	0.04217089	0	0	0	0
22.48148	0.04155971	0.04217089	0	0	0	0
22.49805	0.04155971	0.04217089	0	0	0	0
22.51461	0.04155971	0.04217089	0	0	0	0
22.53118	0.04155971	0.04217089	0	0	0	0
22.54775	0.04155971	0.04217089	0	0	0	0
22.56445	0.04155971	0.04217089	0	0	0	0
22.58095	0.04155971	0.04217089	0	0	0	0
22.59745	0.04155971	0.04217089	0	0	0	0
22.61401	0.04155971	0.04217089	0	0	0	0
22.63058	0.04155971	0.04217089	0	0	0	0
22.64715	0.04155971	0.04217089	0	0	0	0
22.66372	0.04155971	0.04217089	0	0	0	0
22.68031	0.04155971	0.04217089	0	0	0	0
22.69685	0.04155971	0.04217089	0	0	0	0
22.71342	0.04155971	0.04217089	0	0	0	0
22.72998	0.04155971	0.04217089	0	0	0	0
22.74655	0.04155971	0.04217089	0	0	0	0
22.76312	0.04155971	0.04217089	0	0	0	0
22.77969	0.04155971	0.04217089	0	0	0	0
22.79625	0.04155971	0.04217089	0	0	0	0
22.81282	0.04155971	0.04217089	0	0	0	0
22.86248	0.04155971	0.04217089	0	0	0	0
22.87905	0.04155971	0.04217089	0	0	0	0
22.89562	0.04155971	0.04217089	0	0	0	0
22.91247	0.04155971	0.04217089	0	0	0	0
22.92922	0.04155971	0.04217089	0	0	0	0
22.94532	0.04155971	0.04217089	0	0	0	0
22.96188	0.04155971	0.04217089	0	0	0	0
22.97845	0.04155971	0.04217089	0	0	0	0
22.99502	0.04155971	0.04217089	0	0	0	0
23.01159	0.04155971	0.04217089	0	0	0	0
23.02845	0.04155971	0.04217089	0	0	0	0
23.04506	0.04155971	0.04217089	0	0	0	0
23.06129	0.04155971	0.04217089	0	0	0	0
23.07785	0.04155971	0.04217089	0	0	0	0
23.09763	0.04155971	0.04217089	0	0	0	0
23.1142	0.04155971	0.04217089	0	0	0	0
23.13077	0.04155971	0.04217089	0	0	0	0
23.14734	0.04155971	0.04217089	0	0	0	0
23.16406	0.04155971	0.04217089	0	0	0	0
23.18056	0.04155971	0.04217089	0	0	0	0
23.19709	0.04155971	0.04217089	0	0	0	0
23.2136	0.04155971	0.04217089	0	0	0	0
23.23017	0.04155971	0.04217089	0	0	0	0
23.24673	0.04155971	0.04217089	0	0	0	0
23.26415	0.04155971	0.04217089	0	0	0	0
23.27986	0.04155971	0.04217089	0	0	0	0
23.2966	0.04155971	0.04217089	0	0	0	0
23.31367	0.04155971	0.04217089	0	0	0	0
23.32972	0.04155971	0.04217089	0	0	0	0
23.34675	0.04155971	0.04217089	0	0	0	0
23.3627	0.04155971	0.04217089	0	0	0	0
23.37926	0.04155971	0.04217089	0	0	0	0
23.39585	0.04155971	0.04217089	0	0	0	0
23.4124	0.04155971	0.04217089	0	0	0	0
23.42932	0.04155971	0.04217089	0	0	0	0
23.44553	0.04155971	0.04217089	0	0	0	0
23.4621	0.04155971	0.04217089	0	0	0	0
23.47868	0.04155971	0.04217089	0	0	0	0
23.49529	0.04155971	0.04217089	0	0	0	0
23.51234	0.04155971	0.04217089	0	0	0	0
23.52836	0.04155971	0.04217089	0	0	0	0
23.54499	0.04155971	0.04217089	0	0	0	0
23.56151	0.04155971	0.04217089	0	0	0	0
23.57806	0.04155971	0.04217089	0	0	0	0
23.59464	0.04155971	0.04217089	0	0	0	0
23.61127	0.04155971	0.04217089	0	0	0	0
23.62786	0.04155971	0.04217089	0	0	0	0
23.64445	0.04155971	0.04217089	0	0	0	0
23.6609	0.04155971	0.04217089	0	0	0	0
23.67747	0.04155971	0.04217089	0	0	0	0
23.69411	0.04155971	0.04217089	0	0	0	0
23.7106	0.04155971	0.04217089	0	0	0	0
23.72716	0.04155971	0.04217089	0	0	0	0
23.74388	0.04155971	0.04217089	0	0	0	0
23.7603	0.04155971	0.04217089	0	0	0	0
23.77687	0.04155971	0.04217089	0	0	0	0
23.79343	0.04155971	0.04217089	0	0	0	0
23.81	0.04155971	0.04217089	0	0	0	0
23.82657	0.04155971	0.04217089	0	0	0	0
23.84314	0.04155971	0.04217089	0	0	0	0
23.8597	0.04155971	0.04217089	0	0	0	0
23.87627	0.04155971	0.04217089	0	0	0	0
23.89306	0.04155971	0.04217089	0	0	0	0
23.90963	0.04155971	0.04217089	0	0	0	0
23.92597	0.04155971	0.04217089	0	0	0	0
23.9426	0.04155971	0.04217089	0	0	0	0
23.9591	0.04155971	0.04217089	0	0	0	0
23.97567	0.04155971	0.04217089	0	0	0	0
23.99253	0.04155971	0.04217089	0	0	0	0
24.0088	0.04155971	0.04217089	0	0	0	0
24.02537	0.04155971	0.04217089	0	0	0	0
24.04213	0.04155971	0.04217089	0	0	0	0
24.0585	0.04155971	0.04217089	0	0	0	0
24.07507	0.04155971	0.04217089	0	0	0	0
24.09201	0.04155971	0.04217089	0	0	0	0
24.1082	0.04155971	0.04217089	0	0	0	0
24.12523	0.04155971	0.04217089	0	0	0	0
24.14133	0.04155971	0.04217089	0	0	0	0
24.15822	0.04155971	0.04217089	0	0	0	0
24.17447	0.04155971	0.04217089	0	0	0	0
24.19103	0.04155971	0.04217089	0	0	0	0
24.20761	0.04155971	0.04217089	0	0	0	0
24.22416	0.04155971	0.04217089	0	0	0	0
24.24073	0.04155971	0.04217089	0	0	0	0
24.2573	0.04155971	0.04217089	0	0	0	0
24.27386	0.04155971	0.04217089	0	0	0	0
24.29093	0.04155971	0.04217089	0	0	0	0
24.30722	0.04155971	0.04217089	0	0	0	0
24.32356	0.04155971	0.04217089	0	0	0	0
24.34013	0.04155971	0.04217089	0	0	0	0
24.3567	0.04155971	0.04217089	0	0	0	0
24.37326	0.04155971	0.04217089	0	0	0	0
24.38983	0.04155971	0.04217089	0	0	0	0
24.4064	0.04155971	0.04217089	0	0	0	0
24.42297	0.04155971	0.04217089	0	0	0	0
24.43954	0.04155971	0.04217089	0	0	0	0
24.4561	0.04155971	0.04217089	0	0	0	0
24.47267	0.04155971	0.04217089	0	0	0	0
24.48923	0.04155971	0.04217089	0	0	0	0
24.5058	0.04155971	0.04217089	0	0	0	0
24.52237	0.04155971	0.04217089	0	0	0	0
24.53893	0.04155971	0.04217089	0	0	0	0
24.5555	0.04155971	0.04217089	0	0	0	0
24.57207	0.04155971	0.04217089	0	0	0	0
24.58863	0.04155971	0.04217089	0	0	0	0
24.6052	0.04155971	0.04217089	0	0	0	0
24.62191	0.04155971	0.04217089	0	0	0	0
24.63833	0.04155971	0.04217089	0	0	0	0
24.6549	0.04155971	0.04217089	0	0	0	0
24.67214	0.04155971	0.04217089	0	0	0	0
24.68803	0.04155971	0.04217089	0	0	0	0
24.7046	0.04155971	0.04217089	0	0	0	0
24.72117	0.04155971	0.04217089	0	0	0	0
24.73773	0.04155971	0.04217089	0	0	0	0
24.7543	0.04155971	0.04217089	0	0	0	0
24.77114	0.04155971	0.04217089	0	0	0	0
24.78744	0.04155971	0.04217089	0	0	0	0
24.804	0.04155971	0.04217089	0	0	0	0
24.82057	0.04155971	0.04217089	0	0	0	0
24.83737	0.04155971	0.04217089	0	0	0	0
24.8537	0.04155971	0.04217089	0	0	0	0
24.87068	0.04155971	0.04217089	0	0	0	0
24.88684	0.04155971	0.04217089	0	0	0	0
24.90341	0.04155971	0.04217089	0	0	0	0
24.91997	0.04155971	0.04217089	0	0	0	0
24.93654	0.04155971	0.04217089	0	0	0	0
24.95334	0.04155971	0.04217089	0	0	0	0
24.96967	0.04155971	0.04217089	0	0	0	0
24.98624	0.04155971	0.04217089	0	0	0	0
25.00281	0.04155971	0.04217089	0	0	0	0
25.01937	0.04155971	0.04217089	0	0	0	0
25.03594	0.04155971	0.04217089	0	0	0	0
25.05771	0.04155971	0.04217089	0	0	0	0
25.07428	0.04155971	0.04217089	0	0	0	0
25.09103	0.04155971	0.04217089	0	0	0	0
25.10742	0.04155971	0.04217089	0	0	0	0
25.12398	0.04155971	0.04217089	0	0	0	0
25.14115	0.04155971	0.04217089	0	0	0	0
25.15712	0.04155971	0.04217089	0	0	0	0
25.17368	0.04155971	0.04217089	0	0	0	0
25.19025	0.04155971	0.04217089	0	0	0	0
25.20682	0.04155971	0.04217089	0	0	0	0
25.22344	0.04155971	0.04217089	0	0	0	0
25.23995	0.04155971	0.04217089	0	0	0	0
25.25652	0.04155971	0.04217089	0	0	0	0
25.27316	0.04155971	0.04217089	0	0	0	0
25.28965	0.04155971	0.04217089	0	0	0	0
25.30622	0.04155971	0.04217089	0	0	0	0
25.32324	0.04155971	0.04217089	0	0	0	0
25.33935	0.04155971	0.04217089	0	0	0	0
25.35592	0.04155971	0.04217089	0	0	0	0
25.37252	0.04155971	0.04217089	0	0	0	0
25.38905	0.04155971	0.04217089	0	0	0	0
25.40563	0.04155971	0.04217089	0	0	0	0
25.42219	0.04155971	0.04217089	0	0	0	0
25.43875	0.04155971	0.04217089	0	0	0	0
25.4554	0.04155971	0.04217089	0	0	0	0
25.47189	0.04155971	0.04217089	0	0	0	0
25.48845	0.04155971	0.04217089	0	0	0	0
25.50545	0.04155971	0.04217089	0	0	0	0
25.52159	0.04155971	0.04217089	0	0	0	0
25.53815	0.04155971	0.04217089	0	0	0	0
25.55496	0.04155971	0.04217089	0	0	0	0
25.57129	0.04155971	0.04217089	0	0	0	0
25.58785	0.04155971	0.04217089	0	0	0	0
25.60442	0.04155971	0.04217089	0	0	0	0
25.62099	0.04155971	0.04217089	0	0	0	0
25.63755	0.04155971	0.04217089	0	0	0	0
25.65423	0.04155971	0.04217089	0	0	0	0
25.67069	0.04155971	0.04217089	0	0	0	0
25.68726	0.06356192	0.0397262	1.328056	-0.1475617	40.21506	-4.468338
25.70932	0.08923115	0.03850385	1.163589	-0.05540907	-4.257743	2.385666
25.7259	0.1332356	0.03116979	2.653362	-0.4422269	38.55043	-10.00957
25.74245	0.1332356	0.03116979	0	0	-80.06941	13.3449
25.75902	0.149126	0.02750275	0.9591503	-0.2213426	28.95888	-6.682827
25.77559	0.1576824	0.02628041	0.5164669	-0.07378083	-13.36021	4.453424
25.79226	0.1711282	0.0262804	0.8066668	-1.117476E-07	8.731612	2.219934
25.80872	0.1943528	0.02505806	1.410606	-0.07424228	18.22797	-2.240762
25.82529	0.2261337	0.02383572	1.918302	-0.07378095	15.37008	0.01396646
25.8425	0.2676934	0.02016868	2.415124	-0.2130993	14.70961	-4.124856
25.85843	0.3080308	0.01405696	2.532137	-0.3836568	3.531038	-5.146843
25.87505	0.3398118	0.009167584	1.912138	-0.2941752	-19.04709	2.748984
25.89156	0.3569246	0.004278206	1.036272	-0.2960779	-26.43369	-0.05742358
25.90813	0.3605917	0.003055861	0.221344	-0.07378086	-24.63429	6.719768
25.9247	0.361814	0.003055861	0.07377893	0	-4.453522	2.226711
25.94146	0.361814	0.003055861	0	0	-2.213402	0
25.95793	0.361814	0.003055861	0	0	0	0
25.9744	0.361814	0.003055861	0	0	0	0
25.99096	0.361814	0.003055861	0	0	0	0
26.00753	0.361814	0.003055861	0	0	0	0
26.02409	0.361814	0.003055861	0	0	0	0
26.04066	0.361814	0.003055861	0	0	0	0
26.05722	0.361814	0.003055861	0	0	0	0
26.07405	0.361814	0.003055861	0	0	0	0
26.09036	0.361814	0.003055861	0	0	0	0
26.10693	0.361814	0.003055861	0	0	0	0
26.12378	0.361814	0.003055861	0	0	0	0
26.14025	0.361814	0.003055861	0	0	0	0
26.15679	0.361814	0.003055861	0	0	0	0
26.1732	0.361814	0.003055861	0	0	0	0
26.18976	0.361814	0.003055861	0	0	0	0
26.20652	0.3422565	0.001833517	-1.166924	-0.07293281	-35.01628	-2.188519
26.22317	0.3043638	0.0006111722	-2.27568	-0.07340899	-33.18532	-0.01425223
26.23946	0.2799169	0.001833517	-1.501019	0.07505101	23.51875	4.507256
26.25655	0.220022	0.01161227	-3.504315	0.572133	-60.01736	14.89224
26.2727	0.1625718	0.02016868	-3.558654	0.5300123	-1.634971	-1.267339
26.28957	0.1222344	0.0262804	-2.390731	0.3622317	35.37424	-5.081766
26.30573	0.09534287	0.02994744	-1.66418	0.2269337	21.99573	-4.096035
26.3223	0.0770077	0.03361447	-1.106458	0.2212916	17.04002	-0.1723831
26.33899	0.06845129	0.03483682	-0.5126884	0.07324129	17.85218	-4.451254
26.36611	0.0660066	0.03605916	-0.09012254	0.04506127	9.644185	-0.6431503
26.38268	0.0660066	0.03605916	0	0	2.062425	-1.031213
26.39972	0.0660066	0.03605916	0	0	0	0
26.41582	0.06478425	0.03605916	-0.07591368	0	-2.29108	0
26.4324	0.06478425	0.03605916	0	0	2.322497	0
26.44896	0.06478425	0.03605916	0	0	0	0
26.46552	0.06478425	0.03605916	0	0	0	0
26.48244	0.06478425	0.03605916	0	0	0	0
26.49866	0.06478425	0.03605916	0	0	0	0
26.51522	0.06478425	0.03605916	0	0	0	0
26.53183	0.06478425	0.03605916	0	0	0	0
26.54835	0.06478425	0.03605916	0	0	0	0
26.56533	0.06478425	0.03605916	0	0	0	0
26.58149	0.06478425	0.03605916	0	0	0	0
26.59805	0.06478425	0.03605916	0	0	0	0
26.61462	0.06478425	0.03605916	0	0	0	0
26.63119	0.06478425	0.03605916	0	0	0	0
26.64775	0.06478425	0.03605916	0	0	0	0
26.66454	0.06478425	0.03605916	0	0	0	0
26.68138	0.06478425	0.03605916	0	0	0	0
26.69746	0.06478425	0.03605916	0	0	0	0
26.71402	0.06478425	0.03605916	0	0	0	0
26.73059	0.06478425	0.03605916	0	0	0	0
26.74716	0.06478425	0.03605916	0	0	0	0
26.76372	0.06478425	0.03605916	0	0	0	0
26.78029	0.06478425	0.03605916	0	0	0	0
26.79686	0.06478425	0.03605916	0	0	0	0
26.81342	0.06478425	0.03605916	0	0	0	0
26.82999	0.06478425	0.03605916	0	0	0	0
26.84656	0.06478425	0.03605916	0	0	0	0
26.86312	0.06478425	0.03605916	0	0	0	0
26.87969	0.06478425	0.03605916	0	0	0	0
26.89626	0.06478425	0.03605916	0	0	0	0
26.91283	0.06478425	0.03605916	0	0	0	0
26.92939	0.06478425	0.03605916	0	0	0	0
26.94596	0.06478425	0.03605916	0	0	0	0
26.96253	0.06478425	0.03605916	0	0	0	0
26.97909	0.06478425	0.03605916	0	0	0	0
26.99566	0.06478425	0.03605916	0	0	0	0
27.01566	0.06478425	0.03605916	0	0	0	0
27.03223	0.06478425	0.03605916	0	0	0	0
27.04899	0.06478425	0.03605916	0	0	0	0
27.09568	0.06478425	0.03605916	0	0	0	0
27.11225	0.06478425	0.03605916	0	0	0	0
27.12882	0.06478425	0.03605916	0	0	0	0
27.14538	0.06478425	0.03605916	0	0	0	0
27.16195	0.06478425	0.03605916	0	0	0	0
27.17852	0.06478425	0.03605916	0	0	0	0
27.19508	0.06478425	0.03605916	0	0	0	0
27.21165	0.06478425	0.03605916	0	0	0	0
27.22822	0.06478425	0.03605916	0	0	0	0
27.24479	0.06478425	0.03605916	0	0	0	0
27.26135	0.06478425	0.03605916	0	0	0	0
27.27811	0.06478425	0.03605916	0	0	0	0
27.29471	0.06478425	0.03605916	0	0	0	0
27.31126	0.06478425	0.03605916	0	0	0	0
27.32762	0.06478425	0.03605916	0	0	0	0
27.34426	0.06478425	0.03605916	0	0	0	0
27.36087	0.06478425	0.03605916	0	0	0	0
27.37732	0.06478425	0.03605916	0	0	0	0
27.3939	0.06478425	0.03605916	0	0	0	0
27.41046	0.06478425	0.03605916	0	0	0	0
27.42702	0.06478425	0.03605916	0	0	0	0
27.44359	0.06478425	0.03605916	0	0	0	0
27.46016	0.06478425	0.03605916	0	0	0	0
27.47673	0.06478425	0.03605916	0	0	0	0
27.49329	0.06478425	0.03605916	0	0	0	0
27.50986	0.06478425	0.03605916	0	0	0	0
27.52642	0.06478425	0.03605916	0	0	0	0
27.54299	0.06233957	0.03605916	-0.147561	0	-4.453656	0
27.55956	0.06111722	0.03483682	-0.07378118	-0.07378095	2.226679	-2.226713
27.57613	0.05989488	0.03483682	-0.07378095	0	6.970628E-06	2.226713
27.59336	0.05867254	0.03361447	-0.07093076	-0.07093097	0.08432483	-2.098542
27.60926	0.05867254	0.03361447	0	0	2.140818	2.140824
27.62583	0.05745019	0.03361448	-0.07378072	2.24859E-07	-2.272491	6.925794E-06
27.64285	0.05745019	0.03361448	0	0	2.196488	-6.69416E-06
27.65903	0.0550055	0.03239213	-0.1511289	-0.07556436	-4.552171	-2.276082
27.67579	0.05378316	0.03239213	-0.07291585	0	2.374417	2.294006
27.69219	0.05256081	0.03239213	-0.07453609	-2.271604E-07	-0.04885677	-6.849799E-06
27.71175	0.05256081	0.03239213	0	0	2.072684	6.316827E-06
27.72832	0.05256081	0.03239213	0	0	0	0
27.74489	0.05256081	0.03239213	0	0	0	0
27.76146	0.05256081	0.03239213	0	0	0	0
27.77802	0.05256081	0.03239213	0	0	0	0
27.79459	0.05256081	0.03239213	0	0	0	0
27.81116	0.05256081	0.03239213	0	0	0	0
27.82772	0.05256081	0.03239213	0	0	0	0
27.84429	0.05256081	0.03239213	0	0	0	0
27.86086	0.05256081	0.03239213	0	0	0	0
27.88151	0.05256081	0.03239213	0	0	0	0
27.89808	0.05256081	0.03239213	0	0	0	0
27.91465	0.05256081	0.03239213	0	0	0	0
27.93129	0.05256081	0.03239213	0	0	0	0
27.94778	0.05256081	0.03239213	0	0	0	0
27.96435	0.05256081	0.03239213	0	0	0	0
27.98092	0.05256081	0.03239213	0	0	0	0
27.99789	0.05256081	0.03239213	0	0	0	0
28.01405	0.05256081	0.03239213	0	0	0	0
28.03061	0.05256081	0.03239213	0	0	0	0
28.04718	0.05256081	0.03239213	0	0	0	0
28.06406	0.05256081	0.03239213	0	0	0	0
28.08031	0.05256081	0.03239213	0	0	0	0
28.09696	0.05256081	0.03239213	0	0	0	0
28.11374	0.05256081	0.03239213	0	0	0	0
28.13001	0.05256081	0.03239213	0	0	0	0
28.14722	0.05256081	0.03239213	0	0	0	0
28.16315	0.05256081	0.03239213	0	0	0	0
28.17971	0.05256081	0.03239213	0	0	0	0
28.19628	0.05256081	0.03239213	0	0	0	0
28.2131	0.05256081	0.03239213	0	0	0	0
28.22994	0.05256081	0.03239213	0	0	0	0
28.24598	0.05256081	0.03239213	0	0	0	0
28.26255	0.05256081	0.03239213	0	0	0	0
28.31414	0.05256081	0.03239213	0	0	0	0
28.33072	0.05256081	0.03239213	0	0	0	0
28.34822	0.05256081	0.03239213	0	0	0	0
28.36385	0.05256081	0.03239213	0	0	0	0
28.3905	0.05256081	0.03239213	0	0	0	0
28.40708	0.05256081	0.03239213	0	0	0	0
28.42402	0.05256081	0.03239213	0	0	0	0
28.44058	0.05256081	0.03239213	0	0	0	0
28.45678	0.05256081	0.03239213	0	0	0	0
28.47334	0.05256081	0.03239213	0	0	0	0
28.48991	0.05256081	0.03239213	0	0	0	0
28.50662	0.05256081	0.03239213	0	0	0	0
28.52304	0.05256081	0.03239213	0	0	0	0
28.54005	0.05256081	0.03239213	0	0	0	0
28.55617	0.05256081	0.03239213	0	0	0	0
28.57274	0.05256081	0.03239213	0	0	0	0
28.58942	0.05256081	0.03239213	0	0	0	0
28.60615	0.05256081	0.03239213	0	0	0	0
28.62244	0.05256081	0.03239213	0	0	0	0
28.63915	0.05256081	0.03239213	0	0	0	0
28.65637	0.05256081	0.03239213	0	0	0	0
28.67214	0.05256081	0.03239213	0	0	0	0
28.68871	0.05256081	0.03239213	0	0	0	0
28.70538	0.05256081	0.03239213	0	0	0	0
28.72199	0.05256081	0.03239213	0	0	0	0
28.73841	0.05256081	0.03239213	0	0	0	0
28.75497	0.05256081	0.03239213	0	0	0	0
28.77154	0.05256081	0.03239213	0	0	0	0
28.78811	0.05256081	0.03239213	0	0	0	0
28.80468	0.05256081	0.03239213	0	0	0	0
28.82124	0.05256081	0.03239213	0	0	0	0
28.83811	0.05256081	0.03239213	0	0	0	0
28.85464	0.05256081	0.03239213	0	0	0	0
28.87094	0.05256081	0.03239213	0	0	0	0
28.88751	0.05256081	0.03239213	0	0	0	0
28.90408	0.05256081	0.03239213	0	0	0	0
28.92064	0.05256081	0.03239213	0	0	0	0
28.93721	0.05256081	0.03239213	0	0	0	0
28.95378	0.05256081	0.03239213	0	0	0	0
28.97035	0.05256081	0.03239213	0	0	0	0
28.98691	0.05256081	0.03239213	0	0	0	0
29.00348	0.05256081	0.03239213	0	0	0	0
29.02005	0.05256081	0.03239213	0	0	0	0
29.03662	0.05256081	0.03239213	0	0	0	0
29.05356	0.05256081	0.03239213	0	0	0	0
29.07039	0.05256081	0.03239213	0	0	0	0
29.08712	0.05256081	0.03239213	0	0	0	0
29.10337	0.05256081	0.03239213	0	0	0	0
29.11983	0.05256081	0.03239213	0	0	0	0
29.13639	0.05256081	0.03239213	0	0	0	0
29.15314	0.05256081	0.03239213	0	0	0	0
29.16971	0.05256081	0.03239213	0	0	0	0
29.18609	0.05256081	0.03239213	0	0	0	0
29.20266	0.05256081	0.03239213	0	0	0	0
29.21938	0.05256081	0.03239213	0	0	0	0
29.23579	0.05256081	0.03239213	0	0	0	0
29.25236	0.05256081	0.03239213	0	0	0	0
29.26893	0.05256081	0.03239213	0	0	0	0
29.28554	0.05256081	0.03239213	0	0	0	0
29.30206	0.05256081	0.03239213	0	0	0	0
29.31863	0.05256081	0.03239213	0	0	0	0
29.33527	0.05256081	0.03239213	0	0	0	0
29.3522	0.05256081	0.03239213	0	0	0	0
29.36833	0.05256081	0.03239213	0	0	0	0
29.38494	0.05256081	0.03239213	0	0	0	0
29.40146	0.05256081	0.03239213	0	0	0	0
29.41803	0.05256081	0.03239213	0	0	0	0
29.43474	0.05256081	0.03239213	0	0	0	0
29.45116	0.05256081	0.03239213	0	0	0	0
29.46773	0.05256081	0.03239213	0	0	0	0
29.4843	0.05256081	0.03239213	0	0	0	0
29.50086	0.05256081	0.03239213	0	0	0	0
29.51744	0.05256081	0.03239213	0	0	0	0
29.534	0.05256081	0.03239213	0	0	0	0
29.55056	0.05256081	0.03239213	0	0	0	0
29.56713	0.05256081	0.03239213	0	0	0	0
29.5837	0.05256081	0.03239213	0	0	0	0
29.60026	0.05256081	0.03239213	0	0	0	0
29.61704	0.05256081	0.03239213	0	0	0	0
29.63354	0.05256081	0.03239213	0	0	0	0
29.64996	0.05256081	0.03239213	0	0	0	0
29.66653	0.05256081	0.03239213	0	0	0	0
29.68309	0.05256081	0.03239213	0	0	0	0
29.69966	0.05256081	0.03239213	0	0	0	0
29.71623	0.05256081	0.03239213	0	0	0	0
29.7328	0.05256081	0.03239213	0	0	0	0
29.74936	0.05256081	0.03239213	0	0	0	0
29.76593	0.05256081	0.03239213	0	0	0	0
29.78258	0.05256081	0.03239213	0	0	0	0
29.79914	0.05256081	0.03239213	0	0	0	0
29.81563	0.05256081	0.03239213	0	0	0	0
29.8322	0.05256081	0.03239213	0	0	0	0
29.84887	0.05256081	0.03239213	0	0	0	0
29.86551	0.05256081	0.03239213	0	0	0	0
29.88218	0.05256081	0.03239213	0	0	0	0
29.89846	0.05256081	0.03239213	0	0	0	0
29.91503	0.05256081	0.03239213	0	0	0	0
29.93165	0.05256081	0.03239213	0	0	0	0
29.94816	0.05256081	0.03239213	0	0	0	0
29.96519	0.05256081	0.03239213	0	0	0	0
29.98129	0.05256081	0.03239213	0	0	0	0
29.99795	0.05256081	0.03239213	0	0	0	0
30.01445	0.05256081	0.03239213	0	0	0	0
30.03099	0.05256081	0.03239213	0	0	0	0
30.04756	0.05256081	0.03239213	0	0	0	0
30.06425	0.05256081	0.03239213	0	0	0	0
30.08127	0.05256081	0.03239213	0	0	0	0
30.09726	0.05256081	0.03239213	0	0	0	0
30.11418	0.05256081	0.03239213	0	0	0	0
30.13064	0.05256081	0.03239213	0	0	0	0
30.14696	0.05256081	0.03239213	0	0	0	0
30.16383	0.05256081	0.03239213	0	0	0	0
30.18009	0.05256081	0.03239213	0	0	0	0
30.19666	0.05256081	0.03239213	0	0	0	0
30.21322	0.05256081	0.03239213	0	0	0	0
30.22979	0.05256081	0.03239213	0	0	0	0
30.24636	0.05256081	0.03239213	0	0	0	0
30.26329	0.05256081	0.03239213	0	0	0	0
30.28041	0.05256081	0.03239213	0	0	0	0
30.29606	0.05256081	0.03239213	0	0	0	0
30.31272	0.05256081	0.03239213	0	0	0	0
30.32919	0.05256081	0.03239213	0	0	0	0
30.34576	0.05256081	0.03239213	0	0	0	0
30.36943	0.05256081	0.03239213	0	0	0	0
30.386	0.05256081	0.03239213	0	0	0	0
30.40257	0.05622784	0.03116978	0.2213169	-0.07377223	6.678589	-2.226194
30.41913	0.08678646	0.02628041	1.844522	-0.2951232	48.98561	-6.680003
30.43581	0.1515707	0.01527931	3.885336	-0.6597742	61.39399	-10.96982
30.45226	0.2322454	0.0006111722	4.901702	-0.8912188	30.67576	-6.985414
30.46883	0.2982521	-0.01650165	3.984627	-1.033051	-27.77011	-4.294848
30.48565	0.322699	-0.03116979	1.453857	-0.8723147	-75.8158	4.815279
30.50197	0.3275883	-0.04583792	0.299572	-0.8987175	-34.83438	-0.7967914
30.51936	0.3202542	-0.07395184	-0.4217585	-1.616737	-21.39781	-21.2996
30.5351	0.3006968	-0.1093998	-1.242126	-2.251358	-24.75874	-19.15289
30.55167	0.2750275	-0.1387361	-1.549399	-1.770741	-9.50944	14.87408
30.5685	0.2505806	-0.1644053	-1.452211	-1.52482	2.909669	7.362573
30.5849	0.2346901	-0.1815182	-0.9691926	-1.043747	14.5357	14.47716
30.60137	0.2273561	-0.1864075	-0.4452989	-0.2968669	15.94053	22.72533
30.61794	0.2261337	-0.1864075	-0.07378162	0	11.24543	8.98584
30.6345	0.2261337	-0.1864075	0	0	2.226734	0
30.65107	0.2261337	-0.1864075	0	0	0	0
30.66773	0.2261337	-0.1864075	0	0	0	0
30.68424	0.2261337	-0.1864075	0	0	0	0
30.70129	0.2261337	-0.1864075	0	0	0	0
30.71733	0.2469136	-0.163183	1.295283	1.44767	39.13452	43.7386
30.7339	0.2921404	-0.1069551	2.730523	3.394701	44.01749	59.71365
30.75047	0.3361447	-0.05806137	2.65611	2.951235	-2.246049	-13.38538
30.76703	0.3703704	-0.01772399	2.065864	2.434768	-17.81365	-15.58698
30.7836	0.3935949	0.007945239	1.401836	1.549398	-20.04041	-26.72054
30.80017	0.4082631	0.02261337	0.8854724	0.8854723	-15.58477	-20.03847
30.81708	0.4107077	0.0262804	0.1445656	0.2168488	-22.13256	-19.9733
30.8333	0.4107077	0.0262804	0	0	-4.36325	-6.544885
30.85012	0.4107077	0.0262804	0	0	0	0
30.86663	0.4107077	0.0262804	0	0	0	0
30.883	0.4107077	0.0262804	0	0	0	0
30.89957	0.4107077	0.0262804	0	0	0	0
30.91616	0.4107077	0.0262804	0	0	0	0
30.9327	0.4107077	0.0262804	0	0	0	0
30.94927	0.4107077	0.0262804	0	0	0	0
30.96583	0.4107077	0.0262804	0	0	0	0
30.9824	0.4107077	0.0262804	0	0	0	0
30.99897	0.4107077	0.0262804	0	0	0	0
31.01553	0.4107077	0.0262804	0	0	0	0
31.03231	0.4107077	0.0262804	0	0	0	0
31.04867	0.4107077	0.0262804	0	0	0	0
31.06524	0.4107077	0.0262804	0	0	0	0
31.0818	0.4021513	0.02016868	-0.5164651	-0.3689042	-15.58784	-11.13419
31.09837	0.3862608	0.01283462	-0.9592634	-0.4427361	-13.36445	-2.228382
31.11537	0.3679257	0.00550055	-1.078525	-0.4314107	-3.553088	0.3374141
31.1315	0.3410341	-0.0006111723	-1.666935	-0.3788488	-17.75929	1.586413
31.14807	0.3080308	-0.001833517	-1.991856	-0.07377236	-9.93595	9.329128
31.16494	0.2738052	-0.003055861	-2.028267	-0.0724382	-1.088742	0.03989303
31.18141	0.2261337	-0.001833517	-2.894784	0.07422524	-25.98847	4.398712
31.19793	0.2029092	-0.0006111722	-1.405884	0.07399382	45.13515	-0.00701544
31.21445	0.1906857	0.0006111722	-0.7401933	0.07401947	20.15206	0.0007765586
31.2309	0.1870187	0.001833517	-0.2228827	0.07429406	15.69195	0.008329371
31.24747	0.1857964	0.001833517	-0.07378072	7.026843E-09	4.515501	-2.24997
31.26403	0.184574	0.001833517	-0.07378072	0	0	-2.120705E-07
31.2806	0.1833517	0.003055861	-0.07378922	0.07378934	-0.000256354	2.227095
31.29716	0.1821293	0.003055861	-0.07378162	0	0.0002291445	-2.227095
31.31392	0.180907	0.003055861	-0.07296588	1.389848E-08	0.02448243	4.171277E-07
31.3303	0.180907	0.003055861	0	0	2.201988	-4.194327E-07
31.34687	0.1796846	0.003055861	-0.07378072	0	-2.23908	0
31.36364	0.1784623	0.003055861	-0.07288291	-1.388267E-08	0.02693031	-4.164149E-07
31.38	0.1772399	0.003055861	-0.07472798	0	-0.05569414	4.190522E-07
31.39664	0.1772399	0.003055861	0	0	2.264158	0
31.41336	0.1760176	0.003055861	-0.07313988	0	-2.192473	0
31.4297	0.1723506	0.003055861	-0.2244176	0	-4.576901	0
31.44656	0.1650165	0.004278206	-0.4348249	0.07247095	-6.336242	2.182404
31.46283	0.1589048	0.00550055	-0.3756952	0.07513898	1.784536	0.08052132
31.48032	0.1552377	0.005500551	-0.209729	5.326511E-08	4.917162	-2.226177
31.49597	0.1503484	0.00550055	-0.3124238	-5.951021E-08	-3.099335	-3.403566E-06
31.51253	0.1405696	0.00550055	-0.5903156	0	-8.626128	1.847276E-06
31.5291	0.1307909	0.006722895	-0.5902467	0.07378089	0.002079615	2.22684
31.54567	0.1210121	0.009167584	-0.5902472	0.1475617	-1.439097E-05	2.226709
31.56294	0.1149004	0.01038993	-0.3538709	0.07077425	6.985472	-2.269248
31.57895	0.110011	0.01038993	-0.3052438	-5.814256E-08	1.460756	-2.12606
31.59537	0.1087887	0.01161227	-0.07448434	0.07448406	7.115893	2.296855
31.61213	0.1087887	0.01161227	0	0	2.245228	-2.245219
31.62857	0.1087887	0.01161227	0	0	0	0
31.64507	0.1087887	0.01161227	0	0	0	0
31.66163	0.1087887	0.01161227	0	0	0	0
31.68021	0.1087887	0.01161227	0	0	0	0
31.69678	0.1087887	0.01161227	0	0	0	0
31.71335	0.1087887	0.01161227	0	0	0	0
31.72992	0.1087887	0.01161227	0	0	0	0
31.74658	0.1087887	0.01161227	0	0	0	0
31.76305	0.1087887	0.01161227	0	0	0	0
31.78024	0.1087887	0.01161227	0	0	0	0
31.79619	0.1087887	0.01161227	0	0	0	0
31.81275	0.1087887	0.01161227	0	0	0	0
31.82932	0.1087887	0.01161227	0	0	0	0
31.84589	0.1087887	0.01161227	0	0	0	0
31.86251	0.1087887	0.01161227	0	0	0	0
31.87902	0.1087887	0.01161227	0	0	0	0
31.89559	0.1087887	0.01161227	0	0	0	0
31.91216	0.1087887	0.01161227	0	0	0	0
31.92872	0.1087887	0.01161227	0	0	0	0
31.94545	0.1087887	0.01161227	0	0	0	0
31.96196	0.1087887	0.01161227	0	0	0	0
31.97842	0.1075663	0.01161227	-0.07425994	-5.657952E-08	-2.252319	-1.716069E-06
31.99499	0.1075663	0.01161227	0	0	2.248417	1.713096E-06
32.01155	0.1075663	0.01283462	0	0.07378945	0	2.227098
32.02812	0.106344	0.01283462	-0.07378072	-5.621474E-08	-2.226835	-2.2271
32.04469	0.106344	0.01283462	0	0	2.226707	1.696564E-06
32.06126	0.106344	0.01283462	0	0	0	0
32.07782	0.1051216	0.01283462	-0.07378072	0	-2.226707	0
32.0946	0.1051216	0.01283462	0	0	2.212443	0
32.11095	0.1038993	0.01283462	-0.0747624	0	-2.256593	0
32.12752	0.1038993	0.01283462	0	0	2.271238	0
32.14409	0.1038993	0.01283462	0	0	0	0
32.16066	0.1026769	0.01283462	-0.07378028	5.621474E-08	-2.226693	1.696564E-06
32.17722	0.1014546	0.01283462	-0.07378162	-5.621474E-08	-4.069947E-05	-3.393129E-06
32.19379	0.0990099	0.01405696	-0.1475614	0.07378083	-2.226679	2.226712
32.21036	0.09534287	0.01405696	-0.2213426	0	-2.22672	-2.22671
32.22723	0.09045349	0.01405696	-0.2897199	5.51855E-08	-2.044564	1.650114E-06
32.24373	0.0880088	0.01405696	-0.148176	-5.64487E-08	4.241041	-3.344866E-06
32.26025	0.08434177	0.01405696	-0.2219554	5.63705E-08	-2.234385	3.416691E-06
32.27663	0.08189708	0.01405696	-0.1493153	0	2.208301	-1.713694E-06
32.2933	0.0794524	0.01405696	-0.1466162	-5.585464E-08	0.08167593	-1.690172E-06
32.30979	0.0770077	0.01405696	-0.1482446	5.647481E-08	-0.0490995	3.38699E-06
32.32633	0.07578536	0.01405696	-0.07391688	5.631848E-08	2.250469	-4.733309E-09
32.3429	0.07578536	0.01405696	0	0	2.232872	-1.701262E-06
32.35946	0.07578536	0.01405696	0	0	0	0
32.37603	0.07578536	0.01405696	0	0	0	0
32.3926	0.07578536	0.01405696	0	0	0	0
32.40916	0.07456301	0.01405696	-0.07378118	-1.686442E-07	-2.22672	-5.089693E-06
32.42587	0.07456302	0.01527931	4.459189E-07	0.07315774	2.217289	2.198545
32.44239	0.07334067	0.01527931	-0.07401978	-1.127931E-07	-2.228035	-2.202077
32.45891	0.07334067	0.01527931	0	0	2.240628	3.414322E-06
32.47543	0.07334067	0.01527931	0	0	0	0
32.492	0.07211833	0.01527931	-0.07378072	1.124295E-07	-2.229787	3.397823E-06
32.50893	0.07089598	0.01650165	-0.07216929	0.0721689	0.04809606	2.154004
32.52513	0.06967364	0.01772399	-0.07546625	0.07546636	-0.09950234	0.09951764
32.5417	0.06845129	0.01772399	-0.07378072	0	0.05144366	-2.303301
32.55826	0.06722895	0.01894634	-0.07379772	0.07379794	-0.0005129623	2.227483
32.57483	0.06478426	0.02016868	-0.1475619	0.07378072	-2.226464	-0.0005197089
32.59225	0.06478426	0.02139103	0	0.07017754	4.341954	-0.1060223
32.60796	0.06478426	0.02139103	0	0	0	-2.117962
32.62453	0.06478426	0.02139103	0	0	0	0
32.6411	0.06478426	0.02139103	0	0	0	0
32.65825	0.06478426	0.02139103	0	0	0	0
32.67429	0.06478426	0.02139103	0	0	0	0
32.6908	0.06356192	0.02139103	-0.07405355	0	-2.27528	0
32.70737	0.06356192	0.02139103	0	0	2.239065	0
32.72395	0.06356192	0.02139103	0	0	0	0
32.7405	0.06356192	0.02139103	0	0	0	0
32.75707	0.06356192	0.02139103	0	0	0	0
32.77364	0.06356192	0.02139103	0	0	0	0
32.7902	0.06356192	0.02139103	0	0	0	0
32.80677	0.06356192	0.02139103	0	0	0	0
32.82334	0.06356192	0.02139103	0	0	0	0
32.8399	0.06233957	0.02139103	-0.07379772	1.124554E-07	-2.227476	3.394301E-06
32.85647	0.06233957	0.02139103	0	0	2.227476	-3.394301E-06
32.87304	0.06233957	0.02139103	0	0	0	0
32.8897	0.06233957	0.02139103	0	0	0	0
32.90661	0.06233957	0.02139103	0	0	0	0
32.92282	0.06233957	0.02139103	0	0	0	0
32.93931	0.06233957	0.02139103	0	0	0	0
32.95587	0.06233957	0.02139103	0	0	0	0
32.97244	0.06233957	0.02139103	0	0	0	0
32.98933	0.06233957	0.02139103	0	0	0	0
33.00557	0.06233957	0.02139103	0	0	0	0
33.02214	0.06233957	0.02139103	0	0	0	0
33.03871	0.06233957	0.02139103	0	0	0	0
33.05527	0.06233957	0.02139103	0	0	0	0
33.07184	0.06233957	0.02139103	0	0	0	0
33.08841	0.06233957	0.02139103	0	0	0	0
33.10504	0.06233957	0.02139103	0	0	0	0
33.12154	0.06233957	0.02139103	0	0	0	0
33.1381	0.06233957	0.02139103	0	0	0	0
33.15467	0.06233957	0.02139103	0	0	0	0
33.17123	0.06233957	0.02139103	0	0	0	0
33.1878	0.06233957	0.02139103	0	0	0	0
33.20437	0.06233957	0.02139103	0	0	0	0
33.22112	0.06233957	0.02139103	0	0	0	0
33.2375	0.06233957	0.02139103	0	0	0	0
33.25407	0.06233957	0.02139103	0	0	0	0
33.27064	0.06233957	0.02139103	0	0	0	0
33.28721	0.06233957	0.02139103	0	0	0	0
33.30379	0.06233957	0.02139103	0	0	0	0
33.32072	0.06233957	0.02139103	0	0	0	0
33.33698	0.06233957	0.02139103	0	0	0	0
33.35347	0.06233957	0.02139103	0	0	0	0
33.37004	0.06233957	0.02139103	0	0	0	0
33.38673	0.06233957	0.02139103	0	0	0	0
33.40318	0.06233957	0.02139103	0	0	0	0
33.42049	0.06233957	0.02139103	0	0	0	0
33.43631	0.06233957	0.02139103	0	0	0	0
33.45312	0.06233957	0.02139103	0	0	0	0
33.46953	0.06233957	0.02139103	0	0	0	0
33.48601	0.06233957	0.02139103	0	0	0	0
33.5027	0.06233957	0.02139103	0	0	0	0
33.51914	0.06233957	0.02139103	0	0	0	0
33.53571	0.06233957	0.02139103	0	0	0	0
33.55248	0.06233957	0.02139103	0	0	0	0
33.56884	0.06233957	0.02139103	0	0	0	0
33.58551	0.06233957	0.02139103	0	0	0	0
33.60197	0.06233957	0.02139103	0	0	0	0
33.61854	0.06233957	0.02139103	0	0	0	0
33.63511	0.06233957	0.02139103	0	0	0	0
33.65168	0.06233957	0.02139103	0	0	0	0
33.66824	0.06233957	0.02139103	0	0	0	0
33.68481	0.06233957	0.02139103	0	0	0	0
33.70137	0.06233957	0.02139103	0	0	0	0
33.71794	0.06233957	0.02139103	0	0	0	0
33.75655	0.06233957	0.02139103	0	0	0	0
33.77313	0.06233957	0.02139103	0	0	0	0
33.79012	0.06233957	0.02139103	0	0	0	0
33.80626	0.06233957	0.02139103	0	0	0	0
33.82302	0.06233957	0.02139103	0	0	0	0
33.83975	0.06233957	0.02139103	0	0	0	0
33.85596	0.06233957	0.02139103	0	0	0	0
33.87299	0.06233957	0.02139103	0	0	0	0
33.88909	0.06233957	0.02139103	0	0	0	0
33.90601	0.06233957	0.02139103	0	0	0	0
33.92223	0.06233957	0.02139103	0	0	0	0
33.93922	0.06233957	0.02139103	0	0	0	0
33.95536	0.06233957	0.02139103	0	0	0	0
33.97242	0.06233957	0.02139103	0	0	0	0
33.98867	0.06233957	0.02139103	0	0	0	0
34.0055	0.06233957	0.02139103	0	0	0	0
34.02162	0.06233957	0.02139103	0	0	0	0
34.03819	0.06233957	0.02139103	0	0	0	0
34.05553	0.06233957	0.02139103	0	0	0	0
34.07132	0.06233957	0.02139103	0	0	0	0
34.08789	0.06233957	0.02139103	0	0	0	0
34.10448	0.06233957	0.02139103	0	0	0	0
34.12102	0.06233957	0.02139103	0	0	0	0
34.13765	0.06233957	0.02139103	0	0	0	0
34.15416	0.06233957	0.02139103	0	0	0	0
34.17072	0.06233957	0.02139103	0	0	0	0
34.18729	0.06233957	0.02139103	0	0	0	0
34.20386	0.06233957	0.02139103	0	0	0	0
34.22058	0.06233957	0.02139103	0	0	0	0
34.23699	0.06233957	0.02139103	0	0	0	0
34.25355	0.06233957	0.02139103	0	0	0	0
34.27022	0.06233957	0.02139103	0	0	0	0
34.28669	0.06233957	0.02139103	0	0	0	0
34.30325	0.06233957	0.02139103	0	0	0	0
34.31982	0.06233957	0.02139103	0	0	0	0
34.33639	0.06233957	0.02139103	0	0	0	0
34.35328	0.06233957	0.02139103	0	0	0	0
34.36952	0.06233957	0.02139103	0	0	0	0
34.38609	0.06233957	0.02139103	0	0	0	0
34.40266	0.06233957	0.02139103	0	0	0	0
34.4195	0.06233957	0.02139103	0	0	0	0
34.43579	0.06233957	0.02139103	0	0	0	0
34.45236	0.06233957	0.02139103	0	0	0	0
34.46893	0.06233957	0.02139103	0	0	0	0
34.48551	0.06233957	0.02139103	0	0	0	0
34.50206	0.06233957	0.02139103	0	0	0	0
34.51883	0.06233957	0.02139103	0	0	0	0
34.53519	0.06233957	0.02139103	0	0	0	0
34.55176	0.06233957	0.02139103	0	0	0	0
34.56832	0.06233957	0.02139103	0	0	0	0
34.58512	0.06233957	0.02139103	0	0	0	0
34.60146	0.06233957	0.02139103	0	0	0	0
34.6189	0.06233957	0.02139103	0	0	0	0
34.63459	0.06233957	0.02139103	0	0	0	0
34.65115	0.06233957	0.02139103	0	0	0	0
34.66772	0.06233957	0.02139103	0	0	0	0
34.68446	0.06233957	0.02139103	0	0	0	0
34.70086	0.06233957	0.02139103	0	0	0	0
34.71761	0.06233957	0.02139103	0	0	0	0
34.73399	0.06233957	0.02139103	0	0	0	0
34.75092	0.06233957	0.02139103	0	0	0	0
34.76732	0.06233957	0.02139103	0	0	0	0
34.7838	0.06233957	0.02139103	0	0	0	0
34.80069	0.06233957	0.02139103	0	0	0	0
34.81735	0.06233957	0.02139103	0	0	0	0
34.83339	0.06233957	0.02139103	0	0	0	0
34.8503	0.06233957	0.02139103	0	0	0	0
34.86652	0.06233957	0.02139103	0	0	0	0
34.88348	0.06233957	0.02139103	0	0	0	0
34.89975	0.06233957	0.02139103	0	0	0	0
34.91625	0.06233957	0.02139103	0	0	0	0
34.93279	0.06233957	0.02139103	0	0	0	0
34.94982	0.06233957	0.02139103	0	0	0	0
34.9709	0.06233957	0.02139103	0	0	0	0
34.98822	0.06233957	0.02139103	0	0	0	0
35.00404	0.06233957	0.02139103	0	0	0	0
35.0206	0.06233957	0.02139103	0	0	0	0
35.03732	0.06233957	0.02139103	0	0	0	0
35.05402	0.06233957	0.02139103	0	0	0	0
35.07043	0.06233957	0.02139103	0	0	0	0
35.08688	0.06356192	0.02016868	0.07432839	-0.07432862	2.261985	-2.261992
35.10418	0.06356192	0.01894634	0	-0.07064157	-2.202412	0.1092503
35.12001	0.06722894	0.01650165	0.2316917	-0.1544615	6.993276	-2.529982
35.13657	0.07089598	0.01650165	0.2213426	0	-0.3194726	4.768154
35.15314	0.07700771	0.01283462	0.368905	-0.2213425	4.453441	-6.68013
35.16981	0.09045349	0.01283462	0.8067591	0	13.17503	6.660194
35.18627	0.1112334	0.009167584	1.262122	-0.2227273	13.74445	-6.722697
35.20301	0.1430143	0.007945239	1.899062	-0.0730409	19.18534	4.50872
35.2194	0.1955751	0.00794524	3.205794	5.680331E-08	39.44181	2.204634
35.23608	0.2432466	0.006722894	2.858367	-0.0732915	-10.50472	-2.216026
35.25253	0.2676935	0.004278206	1.485882	-0.1485881	-41.42645	-2.272718
35.2691	0.2713605	0.003055861	0.2213422	-0.07378086	-38.29616	2.265512
35.28573	0.2713605	0.003055861	0	0	-6.667071	2.222361
35.30223	0.2713605	0.003055861	0	0	0	0
35.3195	0.2713605	0.003055861	0	0	0	0
35.33537	0.2713605	0.003055861	0	0	0	0
35.35194	0.2713605	0.003055861	0	0	0	0
35.36861	0.2713605	0.003055861	0	0	0	0
35.38507	0.2738052	0.001833517	0.148519	-0.07425962	4.482312	-2.24116
35.40237	0.2799169	-0.0006111722	0.3533649	-0.1413455	6.068383	-1.987362
35.41821	0.2921403	-0.004278206	0.771562	-0.231469	12.61976	-2.71962
35.43477	0.3055861	-0.00794524	0.8117767	-0.2213936	1.240971	0.3109145
35.45134	0.3239213	-0.01405696	1.106713	-0.3689043	8.902211	-4.452395
35.4679	0.3520352	-0.02383572	1.697351	-0.5903828	17.82755	-6.685003
35.48447	0.3801491	-0.0287251	1.696958	-0.2951235	-0.01185233	8.911969
35.50104	0.3984843	-0.03361447	1.106713	-0.2951233	-17.81365	3.597743E-06
35.5176	0.4082631	-0.03850385	0.5902476	-0.2951236	-15.58695	-7.195487E-06
35.53417	0.4082631	-0.03850385	0	0	-17.81371	8.906847
35.55074	0.4082631	-0.03850385	0	0	0	0
35.56734	0.4082631	-0.03850385	0	0	0	0
35.58387	0.4082631	-0.03850385	0	0	0	0
35.60044	0.4082631	-0.03850385	0	0	0	0
35.617	0.4082631	-0.03850385	0	0	0	0
35.63357	0.4082631	-0.03850385	0	0	0	0
35.65014	0.4082631	-0.03850385	0	0	0	0
35.66671	0.4082631	-0.03850385	0	0	0	0
35.68338	0.4082631	-0.03850385	0	0	0	0
35.69984	0.4082631	-0.03850385	0	0	0	0
35.7168	0.4082631	-0.03850385	0	0	0	0
35.73298	0.4070407	-0.03850385	-0.07557304	0	-2.280799	0
35.75002	0.400929	-0.03850385	-0.3585044	0	-8.516335	0
35.76625	0.3874832	-0.0397262	-0.8285676	-0.07532456	-14.12636	-2.263657
35.78268	0.369148	-0.0397262	-1.115965	0	-8.800312	2.306492
35.79929	0.3483682	-0.04094854	-1.251393	-0.07361145	-4.099491	-2.228268
35.81645	0.3165872	-0.04461557	-1.851373	-0.21362	-17.76588	-4.145759
35.83281	0.298252	-0.04583792	-1.120648	-0.07470988	21.79487	4.143186
35.84908	0.2799169	-0.04828261	-1.127481	-0.1503308	-0.2094503	-2.318005
35.86552	0.2640264	-0.04828261	-0.9664932	0	4.922671	4.596796
35.88208	0.2505806	-0.04828261	-0.8115898	-2.24859E-07	4.692825	-6.812138E-06
35.89865	0.2371348	-0.04828261	-0.8115907	2.24859E-07	-2.698308E-05	1.357251E-05
35.91522	0.2273561	-0.04828261	-0.5902467	0	6.680175	-6.786257E-06
35.93221	0.216355	-0.04828261	-0.6476243	0	-1.710005	0
35.94835	0.2077986	-0.0482826	-0.529887	2.307022E-07	3.553319	6.962607E-06
35.96492	0.2004645	-0.04828261	-0.4426852	-2.24859E-07	2.665511	-1.392521E-05
35.98148	0.1931304	-0.0482826	-0.4427881	2.249107E-07	-0.00310431	1.357564E-05
35.99805	0.1870187	-0.04828261	-0.3689036	-2.24859E-07	2.230094	-1.357564E-05
36.01462	0.180907	-0.04828261	-0.3689045	0	-2.698308E-05	6.786257E-06
36.03119	0.1747953	-0.0482826	-0.3689045	2.24859E-07	0	6.786257E-06
36.04775	0.1662389	-0.0482826	-0.5164651	0	-4.453386	-6.786257E-06
36.06432	0.1527931	-0.0482826	-0.8114029	0	-8.900217	0
36.08088	0.1430143	-0.04828261	-0.5905195	-2.249626E-07	6.667041	-6.790165E-06
36.09745	0.1307909	-0.04706026	-0.7378082	0.07378095	-4.446203	2.227233
36.11402	0.1259015	-0.04583792	-0.2951238	0.07378072	13.36024	-6.745769E-06
36.13059	0.1234568	-0.04583792	-0.147527	0	4.453966	-2.22645
36.14716	0.1222344	-0.04583792	-0.07378118	2.24859E-07	2.225398	6.785476E-06
36.16372	0.1197898	-0.04583792	-0.1475619	0	-2.226707	-6.786257E-06
36.18029	0.1197898	-0.04583792	0	0	4.453427	0
36.19686	0.1185674	-0.04583792	-0.07378028	-2.24859E-07	-2.226693	-6.786257E-06
36.21342	0.1161227	-0.04461557	-0.1475624	0.07378118	-2.226748	2.226727
36.22999	0.1149004	-0.04461557	-0.07378072	-2.24859E-07	2.226734	-2.226727
36.24656	0.1124557	-0.04461557	-0.1475614	0	-2.226707	6.786257E-06
36.26312	0.1112334	-0.04461557	-0.07379772	0	2.22645	0
36.27969	0.110011	-0.04461557	-0.07378118	0	0.0004992444	0
36.29626	0.110011	-0.04461557	0	0	2.22672	0
36.31283	0.110011	-0.04461557	0	0	0	0
36.32939	0.110011	-0.04461557	0	0	0	0
36.34596	0.110011	-0.04461557	0	0	0	0
36.36253	0.110011	-0.04461557	0	0	0	0
36.37909	0.110011	-0.04461557	0	0	0	0
36.39566	0.110011	-0.04461557	0	0	0	0
36.41225	0.110011	-0.04461557	0	0	0	0
36.42879	0.110011	-0.04461557	0	0	0	0
36.44536	0.110011	-0.04461557	0	0	0	0
36.46193	0.110011	-0.04461557	0	0	0	0
36.47849	0.110011	-0.04461557	0	0	0	0
36.49506	0.110011	-0.04461557	0	0	0	0
36.51163	0.110011	-0.04461557	0	0	0	0
36.52835	0.110011	-0.04461557	0	0	0	0
36.54476	0.110011	-0.04461557	0	0	0	0
36.56135	0.110011	-0.04461557	0	0	0	0
36.5779	0.110011	-0.04461557	0	0	0	0
36.59446	0.110011	-0.04461557	0	0	0	0
36.61103	0.110011	-0.04461557	0	0	0	0
36.6276	0.110011	-0.04461557	0	0	0	0
36.64426	0.1087887	-0.04461558	-0.07335845	-2.23572E-07	-2.207355	-6.727279E-06
36.66087	0.1075663	-0.04339323	-0.07361123	0.07361145	-0.007598397	2.212689
36.6773	0.106344	-0.04339323	-0.07439788	0	-0.02381234	-2.228268
36.69429	0.106344	-0.04339323	0	0	2.225857	0
36.71043	0.1051216	-0.04339323	-0.0757338	0	-2.28565	0
36.727	0.1051216	-0.04339323	0	0	2.315507	0
36.74357	0.1051216	-0.04339323	0	0	0	0
36.76038	0.1051216	-0.04339323	0	0	0	0
36.7767	0.1051216	-0.04339323	0	0	0	0
36.79359	0.1051216	-0.04339323	0	0	0	0
36.80984	0.1051216	-0.04339323	0	0	0	0
36.8264	0.1051216	-0.04339323	0	0	0	0
36.84332	0.1051216	-0.04339323	0	0	0	0
36.85954	0.1051216	-0.04339323	0	0	0	0
36.8761	0.1051216	-0.04339323	0	0	0	0
36.89267	0.1051216	-0.04339323	0	0	0	0
36.90924	0.1051216	-0.04339323	0	0	0	0
36.9301	0.1051216	-0.04339323	0	0	0	0
36.94669	0.1051216	-0.04339323	0	0	0	0
36.96323	0.1051216	-0.04339323	0	0	0	0
36.9798	0.1051216	-0.04339323	0	0	0	0
36.99637	0.1051216	-0.04339323	0	0	0	0
37.01294	0.1051216	-0.04339323	0	0	0	0
37.02983	0.1051216	-0.04339323	0	0	0	0
37.04607	0.1051216	-0.04339323	0	0	0	0
37.06309	0.1051216	-0.04339323	0	0	0	0
37.07964	0.1051216	-0.04339323	0	0	0	0
37.09577	0.1051216	-0.04339323	0	0	0	0
37.1127	0.1051216	-0.04339323	0	0	0	0
37.1289	0.1026769	-0.04339323	-0.1508614	0	-4.553007	0
37.14547	0.1002323	-0.04217089	-0.1475619	0.07378095	0.1006818	2.251337
37.16204	0.09534287	-0.04094854	-0.2951233	0.07378095	-4.453413	0
37.17887	0.09289818	-0.0397262	-0.1451883	0.07259395	4.488359	-0.03553318
37.19517	0.09045349	-0.03850385	-0.1500144	0.07500718	-0.1456497	0.07283137
37.21174	0.08923115	-0.03850385	-0.07378072	0	2.319697	-2.282377
37.22831	0.08923115	-0.03728151	0	0.07378095	2.226707	2.226713
37.24488	0.0880088	-0.03728151	-0.07376419	0	-2.225951	-2.226457
37.26144	0.08556412	-0.03605916	-0.147561	0.07378072	-2.226936	2.22645
37.27801	0.08434177	-0.03605916	-0.07378118	0	2.226679	-2.226707
37.29458	0.08434177	-0.03605916	0	0	2.22672	0
37.3115	0.08311943	-0.03605916	-0.07221764	0	-2.156199	0
37.32771	0.08311943	-0.03605916	0	0	2.179784	0
37.34428	0.08311943	-0.03605916	0	0	0	0
37.36095	0.08189708	-0.03605916	-0.07330854	0	-2.205347	0
37.37741	0.08189708	-0.03605916	0	0	2.212456	0
37.39398	0.08189708	-0.03605916	0	0	0	0
37.41055	0.08067474	-0.03483682	-0.07378072	0.07378095	-2.226707	2.226713
37.42715	0.08067474	-0.03483682	0	0	2.22389	-2.223897
37.45143	0.08067474	-0.03483682	0	0	0	0
37.46812	0.08067474	-0.03483682	0	0	0	0
37.48457	0.08067474	-0.03483682	0	0	0	0
37.50125	0.08067474	-0.03483682	0	0	0	0
37.5177	0.08067474	-0.03483682	0	0	0	0
37.53427	0.08067474	-0.03483682	0	0	0	0
37.55083	0.08067474	-0.03483682	0	0	0	0
37.5677	0.08067474	-0.03483682	0	0	0	0
37.5845	0.08067474	-0.03483682	0	0	0	0
37.60083	0.08067474	-0.03483682	0	0	0	0
37.6174	0.08067474	-0.03483682	0	0	0	0
37.63403	0.08067474	-0.03483682	0	0	0	0
37.65054	0.08067474	-0.03483682	0	0	0	0
37.66715	0.08067474	-0.03483682	0	0	0	0
37.68367	0.08067474	-0.03483682	0	0	0	0
37.70023	0.08067474	-0.03483682	0	0	0	0
37.7168	0.08067474	-0.03483682	0	0	0	0
37.73378	0.08067474	-0.03483682	0	0	0	0
37.75003	0.08067474	-0.03483682	0	0	0	0
37.7665	0.08067474	-0.03483682	0	0	0	0
37.78307	0.08067474	-0.03483682	0	0	0	0
37.79963	0.08067474	-0.03483682	0	0	0	0
37.8164	0.08067474	-0.03483682	0	0	0	0
37.83277	0.08067474	-0.03483682	0	0	0	0
37.84981	0.08067474	-0.03483682	0	0	0	0
37.8659	0.08067474	-0.03483682	0	0	0	0
37.88267	0.08067474	-0.03483682	0	0	0	0
37.89903	0.08067474	-0.03483682	0	0	0	0
37.9156	0.08067474	-0.03483682	0	0	0	0
37.93217	0.08067474	-0.03483682	0	0	0	0
37.94873	0.08067474	-0.03483682	0	0	0	0
37.96537	0.08067474	-0.03483682	0	0	0	0
37.98204	0.08067474	-0.03483682	0	0	0	0
37.99856	0.08067474	-0.03483682	0	0	0	0
38.015	0.08067474	-0.03483682	0	0	0	0
38.03157	0.08067474	-0.03483682	0	0	0	0
38.04823	0.08067474	-0.03483682	0	0	0	0
38.0647	0.08067474	-0.03483682	0	0	0	0
38.08127	0.08067474	-0.03483682	0	0	0	0
38.09784	0.08067474	-0.03483682	0	0	0	0
38.11446	0.08067474	-0.03483682	0	0	0	0
38.13097	0.08067474	-0.03483682	0	0	0	0
38.14757	0.08067474	-0.03483682	0	0	0	0
38.1641	0.07945239	-0.03483682	-0.07393439	0	-2.231344	0
38.18091	0.0770077	-0.03483682	-0.145485	0	-2.146305	0
38.19747	0.06722895	-0.03239213	-0.5903822	0.1475954	-13.33339	4.423375
38.2145	0.04767143	-0.02994744	-1.148239	0.14353	-16.60483	-0.1210104
38.23048	0.04155971	-0.0287251	-0.3824663	0.07649324	23.19651	-2.030653
38.24694	0.03178096	-0.02505806	-0.5943523	0.2228822	-6.533126	4.513643
38.2635	0.02933627	-0.02505806	-0.1475619	1.124295E-07	13.53089	-6.749908
38.28007	0.02444689	-0.02505806	-0.2951914	0	-4.455981	-3.393519E-06
38.29663	0.0220022	-0.02383572	-0.1475616	0.07378083	4.455991	2.226966
38.3132	0.01833517	-0.02383572	-0.2213426	-1.124295E-07	-2.226717	-2.226713
38.32977	0.01711282	-0.02261337	-0.07378083	0.07378083	4.453424	2.226713
38.34634	0.01711282	-0.02261337	0	0	2.22671	-2.22671
38.36306	0.01711282	-0.02261337	0	0	0	0
38.37947	0.01711282	-0.02261337	0	0	0	0
38.39604	0.01711282	-0.02261337	0	0	0	0
38.41277	0.01711282	-0.02261337	0	0	0	0
38.42917	0.01711282	-0.02261337	0	0	0	0
38.44592	0.01711282	-0.02261337	0	0	0	0
38.46286	0.01711282	-0.02261337	0	0	0	0
38.47887	0.01711282	-0.02261337	0	0	0	0
38.49615	0.01711282	-0.02261337	0	0	0	0
38.51201	0.01711282	-0.02261337	0	0	0	0
38.52858	0.01711282	-0.02261337	0	0	0	0
38.54514	0.01589048	-0.02139103	-0.07378095	0.07378095	-2.226713	2.226713
38.56171	0.01589048	-0.02016868	1.124295E-07	0.07378083	2.226717	-3.372885E-06
38.57828	0.01466813	-0.02016868	-0.07378095	0	-2.226717	-2.22671
38.59484	0.01466813	-0.02016868	0	0	2.226713	0
38.61141	0.01466813	-0.02016868	0	0	0	0
38.62798	0.01466813	-0.02016868	0	0	0	0
38.64477	0.01466813	-0.02016868	0	0	0	0
38.66111	0.01466813	-0.02016868	0	0	0	0
38.67768	0.01466813	-0.02016868	0	0	0	0
38.69424	0.01466813	-0.02016868	0	0	0	0
38.71081	0.01466813	-0.02016868	0	0	0	0
38.72738	0.01466813	-0.02016868	0	0	0	0
38.74395	0.01466813	-0.02016868	0	0	0	0
38.76051	0.01466813	-0.02016868	0	0	0	0
38.77715	0.01466813	-0.02016868	0	0	0	0
38.79365	0.01466813	-0.02016868	0	0	0	0
38.81021	0.01466813	-0.02016868	0	0	0	0
38.82678	0.01466813	-0.02016868	0	0	0	0
38.84335	0.01466813	-0.02016868	0	0	0	0
38.85992	0.01466813	-0.02016868	0	0	0	0
38.87648	0.01466813	-0.02016868	0	0	0	0
38.89305	0.01466813	-0.01894634	5.622769E-08	0.07379783	1.69715E-06	2.227479
38.91008	0.01466813	-0.01894634	0	0	-1.67364E-06	-2.196623
38.92618	0.01466813	-0.01894634	0	0	0	0
38.94275	0.01466813	-0.01894634	0	0	0	0
38.95932	0.01466813	-0.01894634	0	0	0	0
38.97588	0.01466813	-0.01894634	0	0	0	0
38.99245	0.01466813	-0.01894634	0	0	0	0
39.00902	0.01466813	-0.01894634	0	0	0	0
39.02559	0.01466813	-0.01894634	0	0	0	0
39.04215	0.01466813	-0.01894634	0	0	0	0
39.05872	0.01466813	-0.01894634	0	0	0	0
39.07529	0.01466813	-0.01894634	0	0	0	0
39.09185	0.01466813	-0.01894634	0	0	0	0
39.10842	0.01466813	-0.01894634	0	0	0	0
39.12499	0.01466813	-0.01894634	0	0	0	0
39.14157	0.01466813	-0.01894634	0	0	0	0
39.15812	0.01466813	-0.01894634	0	0	0	0
39.17469	0.01466813	-0.01894634	0	0	0	0
39.22575	0.01466813	-0.01894634	0	0	0	0
39.24249	0.01466813	-0.01894634	0	0	0	0
39.25888	0.01466813	-0.01894634	0	0	0	0
39.27568	0.01466813	-0.01894634	0	0	0	0
39.29202	0.01466813	-0.01894634	0	0	0	0
39.30858	0.01466813	-0.01894634	0	0	0	0
39.32515	0.01466813	-0.01894634	0	0	0	0
39.34172	0.01466813	-0.01894634	0	0	0	0
39.35859	0.01466813	-0.01894634	0	0	0	0
39.37485	0.01466813	-0.01894634	0	0	0	0
39.39141	0.01466813	-0.01894634	0	0	0	0
39.40798	0.01466813	-0.01894634	0	0	0	0
39.42455	0.01466813	-0.01894634	0	0	0	0
39.44128	0.01466813	-0.01894634	0	0	0	0
39.45768	0.01466813	-0.01894634	0	0	0	0
39.47435	0.01466813	-0.01894634	0	0	0	0
39.49082	0.01466813	-0.01894634	0	0	0	0
39.50739	0.01466813	-0.01894634	0	0	0	0
39.52395	0.01466813	-0.01894634	0	0	0	0
39.54052	0.01466813	-0.01894634	0	0	0	0
39.55709	0.01466813	-0.01894634	0	0	0	0
39.57365	0.01466813	-0.01894634	0	0	0	0
39.59022	0.01466813	-0.01894634	0	0	0	0
39.60703	0.01466813	-0.01894634	0	0	0	0
39.62336	0.01466813	-0.01894634	0	0	0	0
39.63992	0.01466813	-0.01894634	0	0	0	0
39.65649	0.01466813	-0.01894634	0	0	0	0
39.67313	0.01466813	-0.01894634	0	0	0	0
39.6897	0.01466813	-0.01894634	0	0	0	0
39.70666	0.01466813	-0.01894634	0	0	0	0
39.72276	0.01466813	-0.01894634	0	0	0	0
39.73946	0.01466813	-0.01894634	0	0	0	0
39.75622	0.01466813	-0.01894634	0	0	0	0
39.77277	0.01466813	-0.01894634	0	0	0	0
39.78902	0.01466813	-0.01894634	0	0	0	0
39.80559	0.01466813	-0.01894634	0	0	0	0
39.82277	0.01466813	-0.01894634	0	0	0	0
39.83872	0.01466813	-0.01894634	0	0	0	0
39.85547	0.01466813	-0.01894634	0	0	0	0
39.87186	0.01466813	-0.01894634	0	0	0	0
39.88842	0.01466813	-0.01894634	0	0	0	0
39.90499	0.01466813	-0.01894634	0	0	0	0
39.92156	0.01466813	-0.01894634	0	0	0	0
39.93812	0.01466813	-0.01894634	0	0	0	0
39.95469	0.01466813	-0.01894634	0	0	0	0
39.97126	0.01466813	-0.01894634	0	0	0	0
39.98782	0.01466813	-0.01894634	0	0	0	0
40.00439	0.01466813	-0.01894634	0	0	0	0
40.02102	0.01466813	-0.01894634	0	0	0	0
40.03753	0.01466813	-0.01894634	0	0	0	0
40.05409	0.01466813	-0.01894634	0	0	0	0
40.07066	0.01466813	-0.01894634	0	0	0	0
40.08723	0.01466813	-0.01894634	0	0	0	0
40.1038	0.01466813	-0.01894634	0	0	0	0
40.1204	0.01466813	-0.01894634	0	0	0	0
40.13768	0.01466813	-0.01894634	0	0	0	0
40.1535	0.01466813	-0.01894634	0	0	0	0
40.17076	0.01466813	-0.01894634	0	0	0	0
40.18663	0.01466813	-0.01894634	0	0	0	0
40.20327	0.01466813	-0.01894634	0	0	0	0
40.21978	0.01466813	-0.01894634	0	0	0	0
40.23632	0.01466813	-0.01894634	0	0	0	0
40.2529	0.01466813	-0.01894634	0	0	0	0
40.26946	0.01466813	-0.01894634	0	0	0	0
40.28636	0.01466813	-0.01894634	0	0	0	0
40.30259	0.01466813	-0.01894634	0	0	0	0
40.31916	0.01466813	-0.01894634	0	0	0	0
40.33573	0.01466813	-0.01894634	0	0	0	0
40.35229	0.01466813	-0.01894634	0	0	0	0
40.36905	0.01466813	-0.01894634	0	0	0	0
40.38567	0.01466813	-0.01894634	0	0	0	0
40.40199	0.01466813	-0.01894634	0	0	0	0
40.41859	0.01711282	-0.02383572	0.1472903	-0.2945807	4.474594	-8.949191
40.43512	0.02566924	-0.04339323	0.5175387	-1.182945	11.1754	-26.81399
40.45169	0.03667033	-0.06661777	0.6640276	-1.401836	4.425632	-6.612986
40.46831	0.05011612	-0.09595405	0.8089815	-1.765051	4.367676	-10.94422
40.48482	0.07334067	-0.1558489	1.406695	-3.627792	18.04111	-56.22409
40.50173	0.0794524	-0.1729617	0.3614965	-1.012189	-31.27769	78.27219
40.51796	0.08923115	-0.2035204	0.6024539	-1.882669	7.271272	-26.26811
40.53478	0.0990099	-0.2475247	0.5812792	-2.615756	-0.6406016	-22.17822
40.55109	0.1051216	-0.2805281	0.3747725	-2.023772	-6.233103	17.86817
40.56766	0.1087887	-0.3147537	0.2213426	-2.065864	-4.667059	-1.280358
40.58422	0.113678	-0.3404229	0.2951233	-1.549397	2.226707	15.587
40.60079	0.1185674	-0.3575357	0.2951913	-1.03317	0.002051849	15.58156
40.61765	0.1197898	-0.3648698	0.0724954	-0.4349742	-6.66268	17.89699
40.63392	0.1210121	-0.3673145	0.0751129	-0.1502249	0.07899633	8.593751
40.65079	0.1210121	-0.3673145	0	0	-2.26639	4.532753
40.66705	0.1210121	-0.3673145	0	0	0	0
40.68362	0.1210121	-0.3673145	0	0	0	0
40.70021	0.1210121	-0.3673145	0	0	0	0
40.71675	0.1210121	-0.3673145	0	0	0	0
40.73332	0.1210121	-0.3673145	0	0	0	0
40.74989	0.1210121	-0.3673145	0	0	0	0
40.76646	0.1210121	-0.3673145	0	0	0	0
40.78331	0.1210121	-0.3636475	-4.420835E-07	0.2175847	-1.322789E-05	6.510503
40.79959	0.1222344	-0.3416453	0.07507771	1.351392	2.265863	34.21838
40.81616	0.1124557	-0.2658599	-0.5902467	4.574414	-20.25442	98.11819
40.8329	0.09534287	-0.1876299	-1.022107	4.672485	-12.9649	2.944214
40.84981	0.07578535	-0.1216233	-1.156527	3.903279	-3.994283	-22.85683
40.87277	0.05867253	-0.07272949	-0.7454343	2.129813	10.3115	-44.48411
40.88934	0.03422565	-0.009167584	-1.475277	3.835721	-18.464	43.15708
40.90591	0.02933627	-0.0006111723	-0.2951235	0.516466	35.61301	-100.1638
40.92247	0.02566924	0.01038993	-0.2213425	0.6640278	2.226713	4.453422
40.93904	0.02444689	0.01405696	-0.07378095	0.2213426	4.453417	-13.36027
40.95561	0.02444689	0.01405696	0	0	2.226713	-6.680132
40.97239	0.02444689	0.01405696	0	0	0	0
40.98874	0.02444689	0.01405696	0	0	0	0
41.00531	0.02444689	0.01405696	0	0	0	0
41.02187	0.02444689	0.01405696	0	0	0	0
41.03844	0.02444689	0.01405696	0	0	0	0
41.055	0.02444689	0.01405696	0	0	0	0
41.07157	0.02444689	0.01405696	0	0	0	0
41.08814	0.02444689	0.01405696	0	0	0	0
41.1047	0.02444689	0.01405696	0	0	0	0
41.12127	0.02444689	0.01405696	0	0	0	0
41.13784	0.02444689	0.01405696	0	0	0	0
41.15445	0.02444689	0.01405696	0	0	0	0
41.17108	0.02444689	0.01405696	0	0	0	0
41.18753	0.02444689	0.01405696	0	0	0	0
41.2041	0.02444689	0.01405696	0	0	0	0
41.22066	0.02444689	0.01405696	0	0	0	0
41.23723	0.02444689	0.01405696	0	0	0	0
41.25416	0.02444689	0.01405696	0	0	0	0
41.27037	0.02444689	0.01405696	0	0	0	0
41.28694	0.02444689	0.01405696	0	0	0	0
41.3035	0.02444689	0.01405696	0	0	0	0
41.32007	0.02444689	0.01405696	0	0	0	0
41.33664	0.02444689	0.01405696	0	0	0	0
41.35387	0.02444689	0.01405696	0	0	0	0
41.37	0.02444689	0.01405696	0	0	0	0
41.38634	0.02444689	0.01405696	0	0	0	0
41.4029	0.02444689	0.01405696	0	0	0	0
41.41947	0.02444689	0.01405696	0	0	0	0
41.43604	0.02444689	0.01405696	0	0	0	0
41.45274	0.02444689	0.01405696	0	0	0	0
41.46917	0.02444689	0.01405696	0	0	0	0
41.48574	0.02444689	0.01405696	0	0	0	0
41.5023	0.02444689	0.01405696	0	0	0	0
41.51887	0.02444689	0.01405696	0	0	0	0
41.54052	0.02444689	0.01405696	0	0	0	0
41.55709	0.02444689	0.01405696	0	0	0	0
41.57365	0.02444689	0.01405696	0	0	0	0
41.59022	0.02444689	0.01405696	0	0	0	0
41.60709	0.02444689	0.01405696	0	0	0	0
41.62336	0.02444689	0.01405696	0	0	0	0
41.63996	0.02444689	0.01405696	0	0	0	0
41.65649	0.02444689	0.01405696	0	0	0	0
41.67305	0.02444689	0.01405696	0	0	0	0
41.68982	0.02444689	0.01405696	0	0	0	0
41.70619	0.02444689	0.01405696	0	0	0	0
41.72336	0.02444689	0.01405696	0	0	0	0
41.73932	0.02444689	0.01405696	0	0	0	0
41.75589	0.02444689	0.01405696	0	0	0	0
41.77245	0.02444689	0.01405696	0	0	0	0
41.78902	0.02444689	0.01405696	0	0	0	0
41.80559	0.02444689	0.01405696	0	0	0	0
41.82215	0.02444689	0.01405696	0	0	0	0
41.83935	0.02444689	0.01405696	0	0	0	0
41.85529	0.02444689	0.01405696	0	0	0	0
41.87186	0.02444689	0.01405696	0	0	0	0
41.88846	0.02444689	0.01405696	0	0	0	0
41.90514	0.02444689	0.01405696	0	0	0	0
41.92155	0.02444689	0.01405696	0	0	0	0
41.93812	0.02444689	0.01405696	0	0	0	0
41.95469	0.02444689	0.01405696	0	0	0	0
41.97139	0.02444689	0.01405696	0	0	0	0
41.9879	0.02444689	0.01405696	0	0	0	0
42.00451	0.02444689	0.01405696	0	0	0	0
42.02166	0.02444689	0.01405696	0	0	0	0
42.03797	0.02444689	0.01405696	0	0	0	0
42.05409	0.02444689	0.01405696	0	0	0	0
42.07065	0.02444689	0.01405696	0	0	0	0
42.08722	0.02444689	0.01405696	0	0	0	0
42.10407	0.02444689	0.01405696	0	0	0	0
42.12035	0.02444689	0.01405696	0	0	0	0
42.13692	0.02444689	0.01405696	0	0	0	0
42.15349	0.02444689	0.01405696	0	0	0	0
42.17035	0.02444689	0.01405696	0	0	0	0
42.18663	0.02444689	0.01405696	0	0	0	0
42.20328	0.02444689	0.01405696	0	0	0	0
42.21975	0.02444689	0.01405696	0	0	0	0
42.23632	0.02444689	0.01405696	0	0	0	0
42.25329	0.02444689	0.01405696	0	0	0	0
42.26946	0.02444689	0.01405696	0	0	0	0
42.28603	0.02444689	0.01405696	0	0	0	0
42.30259	0.02444689	0.01405696	0	0	0	0
42.31916	0.02444689	0.01405696	0	0	0	0
42.33572	0.02444689	0.01405696	0	0	0	0
42.35229	0.02444689	0.01405696	0	0	0	0
42.36921	0.02444689	0.01405696	0	0	0	0
42.38543	0.02444689	0.01405696	0	0	0	0
42.40199	0.02444689	0.01405696	0	0	0	0
42.41874	0.02444689	0.01405696	0	0	0	0
42.43544	0.02444689	0.01405696	0	0	0	0
42.45172	0.02444689	0.01405696	0	0	0	0
42.46826	0.02444689	0.01405696	0	0	0	0
42.48483	0.02444689	0.01405696	0	0	0	0
42.50139	0.02444689	0.01405696	0	0	0	0
42.51796	0.02444689	0.01405696	0	0	0	0
42.53472	0.02444689	0.01405696	0	0	0	0
42.55109	0.02444689	0.01405696	0	0	0	0
42.57664	0.02444689	0.01405696	0	0	0	0
42.59321	0.02444689	0.01405696	0	0	0	0
42.60988	0.02444689	0.01405696	0	0	0	0
42.62635	0.02444689	0.01405696	0	0	0	0
42.64324	0.02444689	0.01405696	0	0	0	0
42.65948	0.02444689	0.01405696	0	0	0	0
42.67608	0.02444689	0.01405696	0	0	0	0
42.69262	0.02444689	0.01405696	0	0	0	0
42.70918	0.02444689	0.01405696	0	0	0	0
42.7261	0.02444689	0.01405696	0	0	0	0
42.74231	0.02444689	0.01405696	0	0	0	0
42.75928	0.02444689	0.01405696	0	0	0	0
42.77552	0.02444689	0.01405696	0	0	0	0
42.79201	0.02444689	0.01405696	0	0	0	0
42.80858	0.02444689	0.01405696	0	0	0	0
42.82516	0.02444689	0.01405696	0	0	0	0
42.84171	0.02444689	0.01405696	0	0	0	0
42.85879	0.02444689	0.01405696	0	0	0	0
42.87487	0.02444689	0.01405696	0	0	0	0
42.89151	0.02444689	0.01405696	0	0	0	0
42.90799	0.02444689	0.01405696	0	0	0	0
42.92455	0.02444689	0.01405696	0	0	0	0
42.94135	0.02444689	0.01405696	0	0	0	0
42.95791	0.02444689	0.01405696	0	0	0	0
42.97425	0.02444689	0.01405696	0	0	0	0
42.99107	0.02444689	0.01405696	0	0	0	0
43.00779	0.02444689	0.01405696	0	0	0	0
43.0242	0.02444689	0.01405696	0	0	0	0
43.04086	0.02444689	0.01405696	0	0	0	0
43.05708	0.02444689	0.01405696	0	0	0	0
43.07365	0.02444689	0.01405696	0	0	0	0
43.09022	0.02444689	0.01405696	0	0	0	0
43.10678	0.02444689	0.01405696	0	0	0	0
43.12335	0.02444689	0.01405696	0	0	0	0
43.1401	0.02444689	0.01405696	0	0	0	0
43.1566	0.02444689	0.01405696	0	0	0	0
43.17334	0.02444689	0.01405696	0	0	0	0
43.18962	0.02444689	0.01405696	0	0	0	0
43.20619	0.02444689	0.01405696	0	0	0	0
43.22276	0.02444689	0.01405696	0	0	0	0
43.23963	0.02444689	0.01405696	0	0	0	0
43.25589	0.02444689	0.01405696	0	0	0	0
43.27245	0.02444689	0.01405696	0	0	0	0
43.28902	0.02444689	0.01405696	0	0	0	0
43.30559	0.02444689	0.01405696	0	0	0	0
43.32215	0.02444689	0.01405696	0	0	0	0
43.33872	0.02444689	0.01405696	0	0	0	0
43.35529	0.02444689	0.01405696	0	0	0	0
43.372	0.02444689	0.01405696	0	0	0	0
43.38842	0.02444689	0.01405696	0	0	0	0
43.40499	0.02444689	0.01405696	0	0	0	0
43.42155	0.02444689	0.01405696	0	0	0	0
43.43812	0.02444689	0.01405696	0	0	0	0
43.45469	0.02444689	0.01405696	0	0	0	0
43.47128	0.02444689	0.01405696	0	0	0	0
43.48794	0.02444689	0.01405696	0	0	0	0
43.51251	0.02444689	0.01405696	0	0	0	0
43.52908	0.02444689	0.01405696	0	0	0	0
43.54565	0.02444689	0.01405696	0	0	0	0
43.5625	0.02444689	0.01405696	0	0	0	0
43.57878	0.02444689	0.01405696	0	0	0	0
43.59535	0.02444689	0.01405696	0	0	0	0
43.61192	0.02444689	0.01405696	0	0	0	0
43.62849	0.02444689	0.01405696	0	0	0	0
43.64506	0.02444689	0.01405696	0	0	0	0
43.66162	0.02444689	0.01405696	0	0	0	0
43.67877	0.02444689	0.01405696	0	0	0	0
43.69476	0.02444689	0.01405696	0	0	0	0
43.71133	0.02444689	0.01405696	0	0	0	0
43.72789	0.02444689	0.01405696	0	0	0	0
43.74446	0.02444689	0.01405696	0	0	0	0
43.76103	0.02444689	0.01405696	0	0	0	0
43.77784	0.02444689	0.01405696	0	0	0	0
43.79416	0.02444689	0.01405696	0	0	0	0
43.81073	0.02444689	0.01405696	0	0	0	0
43.82729	0.02444689	0.01405696	0	0	0	0
43.84386	0.02444689	0.01405696	0	0	0	0
43.86043	0.02444689	0.01405696	0	0	0	0
43.877	0.02444689	0.01405696	0	0	0	0
43.89356	0.02444689	0.01405696	0	0	0	0
43.91013	0.02444689	0.01405696	0	0	0	0
43.92669	0.02444689	0.01405696	0	0	0	0
43.94326	0.02444689	0.01405696	0	0	0	0
43.95983	0.02444689	0.01405696	0	0	0	0
43.97639	0.02444689	0.01405696	0	0	0	0
43.99296	0.02444689	0.01405696	0	0	0	0
44.00988	0.02444689	0.01405696	0	0	0	0
44.02609	0.02444689	0.01405696	0	0	0	0
44.04266	0.02444689	0.01405696	0	0	0	0
44.05928	0.02444689	0.01405696	0	0	0	0
44.07584	0.02444689	0.01405696	0	0	0	0
44.09249	0.02444689	0.01405696	0	0	0	0
44.10892	0.02444689	0.01405696	0	0	0	0
44.1257	0.02444689	0.01405696	0	0	0	0
44.14206	0.02444689	0.01405696	0	0	0	0
44.15865	0.02444689	0.01405696	0	0	0	0
44.17519	0.02444689	0.01405696	0	0	0	0
44.19212	0.02444689	0.01405696	0	0	0	0
44.20833	0.02444689	0.01405696	0	0	0	0
44.2249	0.02444689	0.01405696	0	0	0	0
44.24146	0.02444689	0.01405696	0	0	0	0
44.25823	0.02444689	0.01405696	0	0	0	0
44.27519	0.02444689	0.01405696	0	0	0	0
44.29116	0.02444689	0.01405696	0	0	0	0
44.30773	0.02444689	0.01405696	0	0	0	0
44.3243	0.02444689	0.01405696	0	0	0	0
44.34087	0.02444689	0.01405696	0	0	0	0
44.35743	0.02444689	0.01405696	0	0	0	0
44.37426	0.02444689	0.01405696	0	0	0	0
44.39056	0.02444689	0.01405696	0	0	0	0
44.40713	0.02444689	0.01405696	0	0	0	0
44.42407	0.02444689	0.01405696	0	0	0	0
44.44027	0.02444689	0.01405696	0	0	0	0
44.45691	0.02444689	0.01405696	0	0	0	0
44.4734	0.02444689	0.01405696	0	0	0	0
44.48996	0.02444689	0.01405696	0	0	0	0
44.5071	0.02444689	0.01405696	0	0	0	0
44.52309	0.02444689	0.01405696	0	0	0	0
44.53966	0.02444689	0.01405696	0	0	0	0
44.55641	0.02444689	0.01405696	0	0	0	0
44.5728	0.02444689	0.01405696	0	0	0	0
44.58936	0.02444689	0.01405696	0	0	0	0
44.6063	0.02444689	0.01405696	0	0	0	0
44.6225	0.02444689	0.01405696	0	0	0	0
44.63906	0.02444689	0.01405696	0	0	0	0
44.65601	0.02444689	0.01405696	0	0	0	0
44.67226	0.02444689	0.01405696	0	0	0	0
44.68876	0.02444689	0.01405696	0	0	0	0
44.70533	0.02444689	0.01405696	0	0	0	0
44.72189	0.02444689	0.01405696	0	0	0	0
44.73846	0.02444689	0.01405696	0	0	0	0
44.75605	0.02444689	0.01405696	0	0	0	0
