Time	Pos X	Pos Y	Vel X	Vel Y	Acc X	Acc Y
0.01656711	-0.08158168	-0.3427988	0.0009992121	0.004198598	-1.224083E-05	-5.143485E-05
0.0341065	-0.08158168	-0.3427988	0	0	1.224098E-05	5.143547E-05
0.05067598	-0.08158168	-0.3427988	0	0	0	0
0.06740218	-0.08158168	-0.3427988	0	0	0	0
0.08392034	-0.08158168	-0.3427988	0	0	0	0
0.1004338	-0.08158168	-0.3427988	0	0	0	0
0.1169436	-0.08158168	-0.3427988	0	0	0	0
0.1335103	-0.08158168	-0.3427988	0	0	0	0
0.150077	-0.08158168	-0.3427988	0	0	0	0
0.1666438	-0.08158168	-0.3427988	0	0	0	0
0.1832097	-0.08158168	-0.3427988	0	0	0	0
0.1998226	-0.08155555	-0.3428207	0.001573273	-0.001318536	0.047418	-0.03974029
0.2168192	-0.08155555	-0.3428207	0	0	-0.04681036	0.03923104
0.2329102	-0.08155555	-0.3428207	0	0	0	0
0.2494757	-0.08155555	-0.3428207	0	0	0	0
0.2660432	-0.08155555	-0.3428207	0	0	0	0
0.2829254	-0.08155555	-0.3428207	0	0	0	0
0.2991861	-0.08155555	-0.3428207	0	0	0	0
0.3157438	-0.08155555	-0.3428207	0	0	0	0
0.3323132	-0.08155555	-0.3428207	0	0	0	0
0.3492901	-0.08155555	-0.3428207	0	0	0	0
0.3654427	-0.08155555	-0.3428207	0	0	0	0
0.3820098	-0.08155555	-0.3428207	0	0	0	0
0.3985777	-0.08155555	-0.3428207	0	0	0	0
0.4151417	-0.08155555	-0.3428207	0	0	0	0
0.4317084	-0.08155555	-0.3428207	0	0	0	0
0.4482755	-0.08155555	-0.3428207	0	0	0	0
0.4648438	-0.08155555	-0.3428207	0	0	0	0
0.4820891	-0.08155555	-0.3428207	0	0	0	0
0.4979753	-0.08155555	-0.3428207	0	0	0	0
0.5153398	-0.08155555	-0.3428207	0	0	0	0
0.5311127	-0.08155555	-0.3428207	0	0	0	0
0.5476739	-0.08155555	-0.3428207	0	0	0	0
0.5642678	-0.08155555	-0.3428207	0	0	0	0
0.580812	-0.08155555	-0.3428207	0	0	0	0
0.5973768	-0.08155555	-0.3428207	0	0	0	0
0.6141227	-0.08155555	-0.3428207	0	0	0	0
0.6310798	-0.08155555	-0.3428207	0	0	0	0
0.6470785	-0.08155555	-0.3428207	0	0	0	0
0.6636436	-0.08155555	-0.3428207	0	0	0	0
0.68075	-0.08155555	-0.3428207	0	0	0	0
0.6968165	-0.08155555	-0.3428207	0	0	0	0
0.7133433	-0.08155555	-0.3428207	0	0	0	0
0.7299124	-0.08155555	-0.3428207	0	0	0	0
0.7466027	-0.08155555	-0.3428207	0	0	0	0
0.7630442	-0.08155555	-0.3428207	0	0	0	0
0.7796109	-0.08155555	-0.3428207	0	0	0	0
0.7961764	-0.08155555	-0.3428207	0	0	0	0
0.8127435	-0.08155555	-0.3428207	0	0	0	0
0.8295937	-0.08155555	-0.3428207	0	0	0	0
0.8458778	-0.08155555	-0.3428207	0	0	0	0
0.8628057	-0.08155555	-0.3428207	0	0	0	0
0.8790112	-0.08155555	-0.3428207	0	0	0	0
0.8955771	-0.08155555	-0.3428207	0	0	0	0
0.912143	-0.08155555	-0.3428207	0	0	0	0
0.9293007	-0.08155555	-0.3428207	0	0	0	0
0.945278	-0.08155555	-0.3428207	0	0	0	0
0.9618593	-0.08155555	-0.3428207	0	0	0	0
0.9788792	-0.08155555	-0.3428207	0	0	0	0
0.9949749	-0.08155555	-0.3428207	0	0	0	0
1.011543	-0.08155555	-0.3428207	0	0	0	0
1.028114	-0.08155555	-0.3428207	0	0	0	0
1.046051	-0.08155555	-0.3428207	0	0	0	0
1.062621	-0.08155555	-0.3428207	0	0	0	0
1.079953	-0.08155555	-0.3428207	0	0	0	0
1.095956	-0.08155555	-0.3428207	0	0	0	0
1.112318	-0.08155555	-0.3428207	0	0	0	0
1.128887	-0.08155555	-0.3428207	0	0	0	0
1.145457	-0.08155555	-0.3428207	0	0	0	0
1.162472	-0.08155555	-0.3428207	0	0	0	0
1.178589	-0.08155555	-0.3428207	0	0	0	0
1.195153	-0.08155555	-0.3428207	0	0	0	0
1.21172	-0.08155555	-0.3428207	0	0	0	0
1.228287	-0.08155555	-0.3428207	0	0	0	0
1.244853	-0.08155555	-0.3428207	0	0	0	0
1.26142	-0.08155555	-0.3428207	0	0	0	0
1.278153	-0.08155555	-0.3428207	0	0	0	0
1.294554	-0.08155555	-0.3428207	0	0	0	0
1.311121	-0.08155555	-0.3428207	0	0	0	0
1.328338	-0.08155555	-0.3428207	0	0	0	0
1.344293	-0.08155555	-0.3428207	0	0	0	0
1.360821	-0.08155555	-0.3428207	0	0	0	0
1.377447	-0.08155555	-0.3428207	0	0	0	0
1.393951	-0.08155555	-0.3428207	0	0	0	0
1.410521	-0.08155555	-0.3428207	0	0	0	0
1.427224	-0.08155555	-0.3428207	0	0	0	0
1.443652	-0.0815294	-0.3428426	0.001591424	-0.001335181	0.04803306	-0.04029904
1.460219	-0.0815294	-0.3428426	0	0	-0.04823246	0.04046633
1.476787	-0.0815294	-0.3428426	0	0	0	0
1.493389	-0.0815294	-0.3428426	0	0	0	0
1.51002	-0.0815294	-0.3428426	0	0	0	0
1.526487	-0.0815294	-0.3428426	0	0	0	0
1.543052	-0.0815294	-0.3428426	0	0	0	0
1.559621	-0.0815294	-0.3428426	0	0	0	0
1.576187	-0.0815294	-0.3428426	0	0	0	0
1.592753	-0.0815294	-0.3428426	0	0	0	0
1.60932	-0.0815294	-0.3428426	0	0	0	0
1.626173	-0.0815294	-0.3428426	0	0	0	0
1.642721	-0.0815294	-0.3428426	0	0	0	0
1.659022	-0.0815294	-0.3428426	0	0	0	0
1.675588	-0.0815294	-0.3428426	0	0	0	0
1.692277	-0.0815294	-0.3428426	0	0	0	0
1.70938	-0.0815294	-0.3428426	0	0	0	0
1.725288	-0.0815294	-0.3428426	0	0	0	0
1.74185	-0.08150326	-0.3428645	0.001578526	-0.001322561	0.04861403	-0.04073105
1.758421	-0.08150326	-0.3428645	0	0	-0.04764206	0.03991669
1.774987	-0.08150326	-0.3428645	0	0	0	0
1.791995	-0.0815294	-0.3428426	-0.001537158	0.001287901	-0.0457842	0.03836009
1.808565	-0.0815294	-0.3428426	0	0	0.04577884	-0.0383556
1.825131	-0.0815294	-0.3428426	0	0	0	0
1.841697	-0.0815294	-0.3428426	0	0	0	0
1.858533	-0.0815294	-0.3428426	0	0	0	0
1.874835	-0.0815294	-0.3428426	0	0	0	0
1.89429	-0.08150326	-0.3428645	0.001343785	-0.001125885	0.03758023	-0.03148642
1.910861	-0.08150326	-0.3428645	0	0	-0.03730018	0.03125179
1.927442	-0.08150326	-0.3428645	0	0	0	0
1.944188	-0.08150326	-0.3428207	0	0.002617904	0	0.07855235
1.96077	-0.08150326	-0.3428207	0	0	0	-0.07854954
1.977128	-0.08150326	-0.3428207	0	0	0	0
1.993695	-0.08150326	-0.3428207	0	0	0	0
2.010264	-0.08150326	-0.3428207	0	0	0	0
2.02683	-0.08150326	-0.3428207	0	0	0	0
2.043702	-0.08150326	-0.3428207	0	0	0	0
2.060018	-0.08150326	-0.3428207	0	0	0	0
2.076712	-0.08150326	-0.3428207	0	0	0	0
2.093097	-0.08150326	-0.3428207	0	0	0	0
2.109661	-0.08150326	-0.3428207	0	0	0	0
2.126228	-0.08150326	-0.3428207	0	0	0	0
2.142823	-0.08150326	-0.3428207	0	0	0	0
2.15936	-0.08150326	-0.3428207	0	0	0	0
2.176093	-0.08150326	-0.3428207	0	0	0	0
2.192493	-0.08150326	-0.3428207	0	0	0	0
2.20906	-0.08150326	-0.3428207	0	0	0	0
2.226158	-0.08150326	-0.3428207	0	0	0	0
2.242194	-0.08155555	-0.3427769	-0.003260619	0.002731895	-0.09840709	0.08244994
2.25876	-0.08155555	-0.3427769	0	0	0.1000119	-0.08379453
2.275327	-0.08155555	-0.3427769	0	0	0	0
2.291894	-0.08181695	-0.342514	-0.01577858	0.01586808	-0.4762053	0.4789064
2.308461	-0.08181695	-0.342514	0	0	0.4762053	-0.4789064
2.325027	-0.08181695	-0.342514	0	0	0	0
2.341921	-0.09135031	-0.3343194	-0.5643091	0.4850617	-16.86523	14.49681
2.35816	-0.09135031	-0.3343194	0	0	17.03162	-14.63982
2.374916	-0.09135031	-0.3343194	0	0	0	0
2.438591	-0.2079246	-0.2379288	-1.830758	1.513781	-22.76192	18.82093
2.455163	-0.2079246	-0.2379288	0	0	22.81399	-18.86399
2.471725	-0.2321333	-0.2174634	-1.461704	1.235686	-44.11527	37.29389
2.488412	-0.2321333	-0.2174634	0	0	43.96185	-37.16419
2.504863	-0.2321333	-0.2174634	0	0	0	0
2.533526	-0.2739358	-0.1679089	-1.458404	1.728857	-32.32689	38.32172
2.550098	-0.2739358	-0.1679089	0	0	32.24067	-38.21952
2.566662	-0.2774444	-0.1542518	-0.2118287	0.8245227	-6.392818	24.88343
2.583232	-0.2774444	-0.1542518	0	0	6.393187	-24.88486
2.600059	-0.2774444	-0.1542518	0	0	0	0
2.616554	-0.2732039	-0.1335583	0.2570863	1.254565	7.715244	37.64991
2.632931	-0.2732039	-0.1335583	0	0	-7.820894	-38.16547
2.649497	-0.2732039	-0.1335583	0	0	0	0
2.666129	-0.2564621	-0.1149775	1.006581	1.117153	30.32022	33.65086
2.68263	-0.2564621	-0.1149775	0	0	-30.38022	-33.71745
2.699197	-0.2564621	-0.1149775	0	0	0	0
2.715762	-0.2510375	-0.08808438	0.3274778	1.623504	9.883938	49.00061
2.732959	-0.2510375	-0.08808438	0	0	-9.699602	-48.08674
2.749023	-0.2510375	-0.08808438	0	0	0	0
2.766365	-0.2484679	-0.08018538	0.1481739	0.4554815	4.435514	13.63462
2.78203	-0.2484679	-0.08018538	0	0	-4.48918	-13.79958
2.798726	-0.2484679	-0.08018538	0	0	0	0
2.815245	-0.2480475	-0.08051405	0.02544669	-0.01989596	0.766125	-0.5990087
2.831744	-0.2480475	-0.08051405	0	0	-0.7706889	0.6025771
2.84831	-0.2480475	-0.08051405	0	0	0	0
2.865305	-0.2475034	-0.08093944	0.03201632	-0.02503042	0.9539539	-0.7458031
2.881432	-0.2475034	-0.08093944	0	0	-0.9666301	0.7557133
2.898574	-0.2475034	-0.08093944	0	0	0	0
2.914593	-0.2463157	-0.08190649	0.07414456	-0.06036932	2.235886	-1.820482
2.931132	-0.2463157	-0.08190649	0	0	-2.27736	1.854251
2.947696	-0.2463157	-0.08190649	0	0	0	0
2.964262	-0.2454244	-0.08260298	0.05379913	-0.04204311	1.623836	-1.269001
2.98083	-0.2454244	-0.08260298	0	0	-1.623708	1.2689
2.99744	-0.2454244	-0.08260298	0	0	0	0
3.013962	-0.2454244	-0.08260298	0	0	0	0
3.030531	-0.2454244	-0.08260298	0	0	0	0
3.04721	-0.2454244	-0.08260298	0	0	0	0
3.063664	-0.2454244	-0.08264168	0	-0.002351878	0	-0.07098186
3.080231	-0.2454244	-0.08264168	0	0	0	0.07122479
3.097097	-0.2454244	-0.08264168	0	0	0	0
3.113364	-0.2453749	-0.08268037	0.003044893	-0.002378937	0.09189902	-0.07179956
3.130103	-0.2453749	-0.08268037	0	0	-0.09225284	0.072076
3.146498	-0.2453749	-0.08268037	0	0	0	0
3.163063	-0.245152	-0.08285453	0.0134546	-0.01051352	0.4082079	-0.3189764
3.179869	-0.245152	-0.08285453	0	0	-0.4031829	0.3150498
3.196197	-0.245152	-0.08285453	0	0	0	0
3.212909	-0.2450777	-0.08291259	0.004445752	-0.003473857	0.1345545	-0.1051393
3.229912	-0.2450777	-0.08291259	0	0	-0.1318636	0.1030366
3.245897	-0.2450777	-0.08291259	0	0	0	0
3.262735	-0.245053	-0.08297064	0.001470838	-0.003447885	0.04481174	-0.105046
3.27903	-0.245053	-0.08297064	0	0	-0.04439158	0.1040611
3.295614	-0.245053	-0.08297064	0	0	0	0
3.312444	-0.2450282	-0.08298999	0.001471547	-0.001149701	0.04403966	-0.03440764
3.328729	-0.2450282	-0.08298999	0	0	-0.04443854	0.03471928
3.345297	-0.2450282	-0.08298999	0	0	0	0
3.361902	-0.2450282	-0.0830287	0	-0.002330984	0	-0.07026633
3.378505	-0.2450282	-0.0830287	0	0	0	0.07019419
3.394999	-0.2450282	-0.0830287	0	0	0	0
3.412792	-0.2449291	-0.08310611	0.005568378	-0.004350688	0.1624051	-0.1268904
3.429525	-0.2449291	-0.08310611	0	0	-0.1612791	0.1260107
3.445929	-0.2449291	-0.08310611	0	0	0	0
3.462494	-0.2394727	-0.08756094	0.3293927	-0.2689293	9.991199	-8.157212
3.479062	-0.2394727	-0.08756094	0	0	-9.941306	8.116477
3.495998	-0.2394727	-0.08756094	0	0	0	0
3.512265	-0.2195604	-0.1086188	1.224086	-1.294511	36.86687	-38.9879
3.528762	-0.2195604	-0.1086188	0	0	-37.36076	39.51021
3.545424	-0.2195604	-0.1086188	0	0	0	0
3.561895	-0.1946106	-0.1474531	1.514802	-2.357781	45.71879	-71.16105
3.578462	-0.1946106	-0.1474531	0	0	-45.85076	71.36646
3.595029	-0.1946106	-0.1474531	0	0	0	0
3.611595	-0.1647817	-0.2027237	1.800583	-3.336333	54.34404	-100.6951
3.628161	-0.1647817	-0.2027237	0	0	-54.34482	100.6965
3.645017	-0.1647817	-0.2027237	0	0	0	0
3.661294	-0.1271783	-0.2638398	2.310103	-3.75457	69.72207	-113.318
3.678179	-0.1271783	-0.2638398	0	0	-69.65991	113.217
3.695417	-0.1271783	-0.2638398	0	0	0	0
3.710994	-0.08889666	-0.3029077	2.457486	-2.507961	74.88915	-76.42731
3.727562	-0.08889666	-0.3029077	0	0	-76.44997	78.02018
3.744128	-0.08889666	-0.3029077	0	0	0	0
3.760695	-0.07410092	-0.3150688	0.8931242	-0.7340863	26.95571	-22.15572
3.777261	-0.07410092	-0.3150688	0	0	-26.95571	22.15572
3.793828	-0.07410092	-0.3150688	0	0	0	0
3.810395	-0.07150944	-0.3172044	0.1564267	-0.1289145	4.72107	-3.89073
3.827311	-0.07150944	-0.3172044	0	0	-4.671955	3.850253
3.843721	-0.07150944	-0.3172044	0	0	0	0
3.873598	-0.07153562	-0.3171829	-0.0008763127	0.0007221974	-0.01893194	0.01560242
3.890167	-0.07153562	-0.3171829	0	0	0.01886731	-0.01554916
3.906732	-0.0715618	-0.3171613	-0.001580536	0.001302571	-0.04770102	0.03931194
3.923301	-0.0715618	-0.3171613	0	0	0.04770274	-0.03931335
3.939938	-0.0715618	-0.3171613	0	0	0	0
3.956432	-0.07161416	-0.3171181	-0.003174552	0.002618056	-0.09581643	0.07901993
3.973005	-0.07161416	-0.3171181	0	0	0.09600227	-0.07917318
3.989568	-0.07161416	-0.3171181	0	0	0	0
4.006135	-0.07161416	-0.3171181	0	0	0	0
4.023036	-0.07161416	-0.3171181	0	0	0	0
4.039925	-0.07161416	-0.3171181	0	0	0	0
4.055972	-0.07161416	-0.3171181	0	0	0	0
4.072928	-0.07161416	-0.3171181	0	0	0	0
4.088974	-0.07161416	-0.3171181	0	0	0	0
4.105679	-0.07161416	-0.3171181	0	0	0	0
4.122103	-0.07161416	-0.3171181	0	0	0	0
4.138669	-0.07161416	-0.3171181	0	0	0	0
4.155316	-0.07161416	-0.3171181	0	0	0	0
4.171804	-0.07161416	-0.3171181	0	0	0	0
4.188369	-0.07161416	-0.3171181	0	0	0	0
4.204934	-0.07161416	-0.3171181	0	0	0	0
4.221506	-0.07161416	-0.3171181	0	0	0	0
4.238072	-0.07161416	-0.3171181	0	0	0	0
4.254635	-0.07161416	-0.3171181	0	0	0	0
4.2712	-0.07161416	-0.3171181	0	0	0	0
4.287767	-0.07161416	-0.3171181	0	0	0	0
4.304334	-0.07161416	-0.3171181	0	0	0	0
4.320901	-0.07161416	-0.3171181	0	0	0	0
4.337925	-0.07161416	-0.3171181	0	0	0	0
4.354038	-0.07161416	-0.3171181	0	0	0	0
4.370614	-0.07161416	-0.3171181	0	0	0	0
4.387171	-0.07161416	-0.3171181	0	0	0	0
4.403736	-0.07161416	-0.3171181	0	0	0	0
4.4203	-0.07161416	-0.3171181	0	0	0	0
4.436868	-0.07161416	-0.3171181	0	0	0	0
4.453432	-0.07161416	-0.3171181	0	0	0	0
4.470002	-0.07161416	-0.3171181	0	0	0	0
4.486791	-0.07161416	-0.3171181	0	0	0	0
4.503157	-0.07161416	-0.3171181	0	0	0	0
4.519701	-0.07161416	-0.3171181	0	0	0	0
4.536268	-0.07161416	-0.3171181	0	0	0	0
4.556549	-0.07158798	-0.3171397	0.00129094	-0.001065374	0.03503457	-0.028913
4.573119	-0.07158798	-0.3171397	0	0	-0.0350314	0.02891038
4.589686	-0.07161416	-0.3171613	-0.001580354	-0.001302421	-0.04769175	-0.0393043
4.606252	-0.07161416	-0.3171613	0	0	0.04769725	0.03930883
4.62282	-0.07161416	-0.3171613	0	0	0	0
4.639472	-0.07161416	-0.3171613	0	0	0	0
4.655953	-0.07161416	-0.3171613	0	0	0	0
4.67252	-0.07161416	-0.3171613	0	0	0	0
4.689087	-0.07161416	-0.3171613	0	0	0	0
4.705653	-0.07161416	-0.3171613	0	0	0	0
4.722219	-0.07161416	-0.3171613	0	0	0	0
4.739129	-0.07161416	-0.3171613	0	0	0	0
4.755563	-0.07161416	-0.3171613	0	0	0	0
4.771924	-0.07161416	-0.3171613	0	0	0	0
4.788486	-0.07161416	-0.3171613	0	0	0	0
4.805059	-0.07161416	-0.3171613	0	0	0	0
4.821626	-0.07161416	-0.3171613	0	0	0	0
4.838187	-0.07161416	-0.3171613	0	0	0	0
4.85507	-0.07161416	-0.3171613	0	0	0	0
4.871325	-0.07161416	-0.3171613	0	0	0	0
4.887891	-0.07161416	-0.3171613	0	0	0	0
4.90475	-0.07161416	-0.3171613	0	0	0	0
4.921251	-0.07161416	-0.3171613	0	0	0	0
4.937676	-0.07161416	-0.3171613	0	0	0	0
4.954532	-0.07161416	-0.3171613	0	0	0	0
4.97072	-0.07161416	-0.3171613	0	0	0	0
4.989245	-0.07161416	-0.3171613	0	0	0	0
5.006186	-0.07161416	-0.3171613	0	0	0	0
5.022382	-0.07161416	-0.3171613	0	0	0	0
5.039176	-0.07161416	-0.3171613	0	0	0	0
5.056027	-0.07161416	-0.3171613	0	0	0	0
5.072088	-0.07161416	-0.3171613	0	0	0	0
5.088838	-0.07161416	-0.3171613	0	0	0	0
5.105475	-0.07161416	-0.3171613	0	0	0	0
5.121787	-0.07161416	-0.3171613	0	0	0	0
5.13835	-0.07161416	-0.3171613	0	0	0	0
5.155066	-0.07161416	-0.3171613	0	0	0	0
5.171673	-0.07161416	-0.3171613	0	0	0	0
5.188054	-0.07161416	-0.3171613	0	0	0	0
5.204614	-0.07161416	-0.3171613	0	0	0	0
5.221356	-0.07161416	-0.3171613	0	0	0	0
5.237864	-0.07161416	-0.3171613	0	0	0	0
5.254316	-0.07161416	-0.3171613	0	0	0	0
5.270882	-0.07161416	-0.3171613	0	0	0	0
5.287449	-0.07161416	-0.3171613	0	0	0	0
5.30445	-0.07161416	-0.3171613	0	0	0	0
5.321165	-0.07161416	-0.3171613	0	0	0	0
5.337148	-0.07161416	-0.3171613	0	0	0	0
5.353926	-0.07161416	-0.3171613	0	0	0	0
5.370283	-0.07161416	-0.3171613	0	0	0	0
5.38685	-0.07161416	-0.3171613	0	0	0	0
5.403416	-0.07161416	-0.3171613	0	0	0	0
5.419982	-0.07161416	-0.3171613	0	0	0	0
5.436546	-0.07161416	-0.3171613	0	0	0	0
5.453115	-0.07161416	-0.3171613	0	0	0	0
5.469819	-0.07161416	-0.3171613	0	0	0	0
5.48901	-0.07161416	-0.3171613	0	0	0	0
5.505578	-0.07161416	-0.3171613	0	0	0	0
5.522147	-0.07161416	-0.3171613	0	0	0	0
5.538717	-0.07161416	-0.3171613	0	0	0	0
5.555429	-0.07161416	-0.3171613	0	0	0	0
5.571951	-0.07161416	-0.3171613	0	0	0	0
5.589134	-0.07161416	-0.3171613	0	0	0	0
5.604986	-0.07161416	-0.3171613	0	0	0	0
5.62155	-0.07161416	-0.3171613	0	0	0	0
5.638117	-0.07161416	-0.3171613	0	0	0	0
5.654811	-0.07161416	-0.3171613	0	0	0	0
5.671287	-0.07161416	-0.3171613	0	0	0	0
5.687818	-0.07161416	-0.3171613	0	0	0	0
5.704428	-0.07161416	-0.3171613	0	0	0	0
5.720975	-0.07161416	-0.3171613	0	0	0	0
5.737513	-0.07161416	-0.3171613	0	0	0	0
5.754788	-0.07161416	-0.3171613	0	0	0	0
5.770872	-0.07161416	-0.3171613	0	0	0	0
5.787212	-0.07161416	-0.3171613	0	0	0	0
5.803781	-0.07161416	-0.3171613	0	0	0	0
5.820842	-0.07161416	-0.3171613	0	0	0	0
5.836914	-0.07161416	-0.3171613	0	0	0	0
5.853481	-0.07161416	-0.3171613	0	0	0	0
5.8701	-0.07161416	-0.3171613	0	0	0	0
5.889955	-0.07161416	-0.3171613	0	0	0	0
5.906526	-0.07161416	-0.3171613	0	0	0	0
5.923092	-0.07161416	-0.3171613	0	0	0	0
5.939917	-0.07161416	-0.3171613	0	0	0	0
5.956225	-0.07161416	-0.3171613	0	0	0	0
5.972792	-0.07161416	-0.3171613	0	0	0	0
5.989358	-0.07161416	-0.3171613	0	0	0	0
6.006795	-0.07161416	-0.3171613	0	0	0	0
6.022493	-0.07161416	-0.3171613	0	0	0	0
6.039062	-0.07161416	-0.3171613	0	0	0	0
6.055628	-0.07161416	-0.3171613	0	0	0	0
6.072533	-0.07161416	-0.3171613	0	0	0	0
6.089045	-0.07161416	-0.3171613	0	0	0	0
6.105325	-0.07161416	-0.3171613	0	0	0	0
6.122035	-0.07161416	-0.3171613	0	0	0	0
6.138458	-0.07161416	-0.3171613	0	0	0	0
6.155029	-0.07161416	-0.3171613	0	0	0	0
6.171592	-0.07161416	-0.3171613	0	0	0	0
6.188162	-0.07161416	-0.3171613	0	0	0	0
6.204731	-0.07161416	-0.3171613	0	0	0	0
6.221299	-0.07161416	-0.3171613	0	0	0	0
6.237861	-0.07161416	-0.3171613	0	0	0	0
6.254429	-0.07161416	-0.3171613	0	0	0	0
6.270998	-0.07161416	-0.3171613	0	0	0	0
6.287646	-0.07161416	-0.3171613	0	0	0	0
6.304457	-0.07161416	-0.3171613	0	0	0	0
6.320694	-0.07161416	-0.3171613	0	0	0	0
6.337257	-0.07161416	-0.3171613	0	0	0	0
6.353856	-0.07161416	-0.3171613	0	0	0	0
6.370393	-0.07161416	-0.3171613	0	0	0	0
6.386957	-0.07161416	-0.3171613	0	0	0	0
6.403527	-0.07161416	-0.3171613	0	0	0	0
6.420516	-0.07161416	-0.3171613	0	0	0	0
6.436657	-0.07161416	-0.3171613	0	0	0	0
6.453226	-0.07161416	-0.3171613	0	0	0	0
6.469946	-0.07161416	-0.3171613	0	0	0	0
6.486357	-0.07161416	-0.3171613	0	0	0	0
6.502926	-0.07161416	-0.3171613	0	0	0	0
6.519493	-0.07161416	-0.3171613	0	0	0	0
6.53606	-0.07161416	-0.3171613	0	0	0	0
6.552624	-0.07161416	-0.3171613	0	0	0	0
6.569193	-0.07161416	-0.3171613	0	0	0	0
6.585758	-0.07161416	-0.3171613	0	0	0	0
6.602326	-0.07161416	-0.3171613	0	0	0	0
6.619118	-0.07161416	-0.3171613	0	0	0	0
6.635458	-0.07161416	-0.3171613	0	0	0	0
6.652049	-0.07161416	-0.3171613	0	0	0	0
6.668667	-0.07161416	-0.3171613	0	0	0	0
6.685161	-0.07161416	-0.3171613	0	0	0	0
6.701727	-0.07161416	-0.3171613	0	0	0	0
6.718295	-0.07161416	-0.3171613	0	0	0	0
6.734858	-0.07158798	-0.3171829	0.001580673	-0.001302683	0.04771029	-0.03931958
6.751427	-0.07158798	-0.3171829	0	0	-0.04770755	0.03931732
6.767994	-0.07158798	-0.3171829	0	0	0	0
6.784562	-0.07158798	-0.3171829	0	0	0	0
6.801127	-0.07158798	-0.3171829	0	0	0	0
6.817694	-0.07158798	-0.3171829	0	0	0	0
6.834292	-0.07161416	-0.3171613	-0.001577313	0.001299914	-0.04755959	0.03919538
6.850828	-0.07161416	-0.3171613	0	0	0.04760407	-0.03923204
6.867743	-0.07161416	-0.3171613	0	0	0	0
6.883996	-0.07161416	-0.3171613	0	0	0	0
6.900528	-0.07161416	-0.3171613	0	0	0	0
6.917262	-0.07161416	-0.3171613	0	0	0	0
6.933784	-0.07166652	-0.3170318	-0.0031691	0.007838879	-0.09529258	0.2357095
6.950474	-0.07166652	-0.3170318	0	0	0.09541982	-0.2360242
6.966797	-0.07166652	-0.3170318	0	0	0	0
6.983361	-0.07166652	-0.3169454	0	0.005212381	0	0.1584938
6.999938	-0.07166652	-0.3169454	0	0	0	-0.157276
7.016494	-0.07166652	-0.3169454	0	0	0	0
7.03306	-0.07164034	-0.316967	0.001580445	-0.001304295	0.04771716	-0.03937956
7.049629	-0.07164034	-0.316967	0	0	-0.04769725	0.03936312
7.066195	-0.07164034	-0.316967	0	0	0	0
7.082762	-0.07161416	-0.3169886	0.001580354	-0.001302421	0.04769725	-0.03930883
7.09941	-0.07161416	-0.3169886	0	0	-0.04758015	0.03921233
7.115897	-0.07161416	-0.3169886	0	0	0	0
7.132461	-0.07161416	-0.3170318	0	-0.002605216	0	-0.07882296
7.149028	-0.07161416	-0.3170318	0	0	0	0.07863237
7.165596	-0.07161416	-0.3170318	0	0	0	0
7.182161	-0.07161416	-0.3170318	0	0	0	0
7.198729	-0.07161416	-0.3170318	0	0	0	0
7.215299	-0.07161416	-0.3170318	0	0	0	0
7.246464	-0.07164034	-0.3170102	-0.0008400846	0.0006923407	-0.01759885	0.01450377
7.263034	-0.07164034	-0.3170102	0	0	0.01759885	-0.01450377
7.279601	-0.07164034	-0.3170102	0	0	0	0
7.296167	-0.07164034	-0.3170102	0	0	0	0
7.312948	-0.07164034	-0.3170102	0	0	0	0
7.329524	-0.07164034	-0.3170102	0	0	0	0
7.345868	-0.07164034	-0.3170102	0	0	0	0
7.362695	-0.07164034	-0.3170102	0	0	0	0
7.379001	-0.07169271	-0.3170102	-0.003211267	0	-0.09692182	0
7.395663	-0.07169271	-0.3170102	0	0	0.09740405	0
7.412139	-0.07169271	-0.3170102	0	0	0	0
7.428701	-0.07200687	-0.3167512	-0.01896936	0.0156376	-0.5741737	0.4733264
7.445267	-0.07200687	-0.3167512	0	0	0.5726117	-0.4720387
7.46186	-0.07200687	-0.3167512	0	0	0	0
7.478916	-0.07336807	-0.3159313	-0.07981034	0.0480702	-2.371885	1.428599
7.494967	-0.07336807	-0.3159313	0	0	2.410658	-1.451953
7.511537	-0.07336807	-0.3159313	0	0	0	0
7.528933	-0.1038878	-0.3163413	-1.754461	-0.02356364	-51.6548	-0.69376
7.544668	-0.1038878	-0.3163413	0	0	52.95584	0.7112339
7.561291	-0.1038878	-0.3163413	0	0	0	0
7.577802	-0.1951425	-0.3076677	-5.526758	0.5253054	-166.7979	15.85375
7.5945	-0.1951425	-0.3076677	0	0	166.4219	-15.81801
7.611586	-0.1951425	-0.3076677	0	0	0	0
7.627543	-0.2778338	-0.2822757	-5.181865	1.591193	-156.82	48.15467
7.644069	-0.2778338	-0.2822757	0	0	159.5226	-48.98455
7.661063	-0.2778338	-0.2822757	0	0	0	0
7.677199	-0.3129937	-0.2533633	-2.178947	1.791774	-65.76927	54.08284
7.693769	-0.3129937	-0.2533633	0	0	66.62365	-54.78542
7.710352	-0.3129937	-0.2533633	0	0	0	0
7.726902	-0.3183678	-0.2486558	-0.3247367	0.2844573	-9.800997	8.585309
7.74347	-0.3183678	-0.2486558	0	0	9.805512	-8.589265
7.760411	-0.3183678	-0.2486558	0	0	0	0
7.776958	-0.3183441	-0.2486766	0.001433635	-0.001257132	0.04281067	-0.03754001
7.793168	-0.3183441	-0.2486766	0	0	-0.04376538	0.03837718
7.809735	-0.3183441	-0.2486766	0	0	0	0
7.826302	-0.3183441	-0.2486766	0	0	0	0
7.891993	-0.3183441	-0.2486766	0	0	0	0
7.908563	-0.3183441	-0.2486766	0	0	0	0
7.925495	-0.3182254	-0.248739	0.007010547	-0.003686565	0.2092569	-0.1100398
7.941696	-0.3182254	-0.248739	0	0	-0.2115878	0.1112656
7.958264	-0.3182254	-0.248739	0	0	0	0
7.981222	-0.3182016	-0.2487599	0.001034613	-0.0009060981	0.02617584	-0.02292439
7.99823	-0.3182016	-0.2487599	0	0	-0.02588758	0.02267193
8.014356	-0.3181779	-0.2487807	0.001471067	-0.001289955	0.04439752	-0.03893149
8.031645	-0.3181779	-0.2487807	0	0	-0.04402372	0.03860371
8.04749	-0.3181779	-0.2487807	0	0	0	0
8.064068	-0.3181542	-0.2488015	0.001432794	-0.001255717	0.04419063	-0.03872918
8.080641	-0.3181542	-0.2488015	0	0	-0.04322065	0.03787907
8.097303	-0.3181542	-0.2488015	0	0	0	0
8.113757	-0.3181542	-0.2488015	0	0	0	0
8.130323	-0.3181542	-0.2488015	0	0	0	0
8.14689	-0.3181542	-0.2488015	0	0	0	0
8.163455	-0.3181304	-0.2487807	0.001433866	0.001256657	0.04327789	0.03792925
8.180022	-0.3181304	-0.2487807	0	0	-0.04327665	-0.03792816
8.196589	-0.3181304	-0.2487807	0	0	0	0
8.213155	-0.3181304	-0.2487807	0	0	0	0
8.229721	-0.3181304	-0.2487807	0	0	0	0
8.246491	-0.3181304	-0.2487807	0	0	0	0
8.262946	-0.3176793	-0.249176	0.02741756	-0.02402704	0.8252071	-0.7231601
8.279421	-0.3176793	-0.249176	0	0	-0.8326158	0.7296526
8.29665	-0.3176793	-0.249176	0	0	0	0
8.312757	-0.3143985	-0.25205	0.2036782	-0.178422	6.10974	-5.352128
8.329236	-0.3143985	-0.25205	0	0	-6.250463	5.475401
8.345924	-0.3143985	-0.25205	0	0	0	0
8.362394	-0.3144461	-0.2520083	-0.002889765	0.002531485	-0.08715058	0.07634544
8.378883	-0.3144461	-0.2520083	0	0	0.08767762	-0.07680713
8.395388	-0.3144461	-0.2520083	0	0	0	0
8.411954	-0.3144699	-0.2519874	-0.001437381	0.001257484	-0.04346407	0.03802426
8.42852	-0.3144699	-0.2519874	0	0	0.04338275	-0.03795312
8.445086	-0.3144699	-0.2519874	0	0	0	0
8.461653	-0.3144937	-0.2519666	-0.001435582	0.001259283	-0.04332845	0.03800742
8.478221	-0.3144937	-0.2519666	0	0	0.04332596	-0.03800523
8.494787	-0.3144937	-0.2519666	0	0	0	0
8.511353	-0.3145651	-0.2519041	-0.004310345	0.003772451	-0.1300939	0.1138594
8.52792	-0.3145651	-0.2519041	0	0	0.1300939	-0.1138594
8.54461	-0.3145651	-0.2519041	0	0	0	0
8.561142	-0.3145651	-0.2519041	0	0	0	0
8.577689	-0.3145651	-0.2519041	0	0	0	0
8.594712	-0.3145651	-0.2519041	0	0	0	0
8.610759	-0.3145889	-0.2518832	-0.001482081	0.001300071	-0.04481702	0.03931317
8.627694	-0.3145889	-0.2518832	0	0	0.04493624	-0.03941775
8.643887	-0.3145889	-0.2518832	0	0	0	0
8.660452	-0.3145889	-0.2518832	0	0	0	0
8.677303	-0.3145889	-0.2518832	0	0	0	0
8.693769	-0.3145889	-0.2518832	0	0	0	0
8.71015	-0.3145889	-0.2518832	0	0	0	0
8.726718	-0.3145889	-0.2518832	0	0	0	0
8.743286	-0.3145889	-0.2518832	0	0	0	0
8.759851	-0.3145889	-0.2518832	0	0	0	0
8.776419	-0.3145889	-0.2518832	0	0	0	0
8.792999	-0.3145889	-0.2518832	0	0	0	0
8.809551	-0.3145175	-0.2519457	0.004312269	-0.003777512	0.130152	-0.1140121
8.826118	-0.3145175	-0.2519457	0	0	-0.1302045	0.1140581
8.842685	-0.3145175	-0.2519457	0	0	0	0
8.859251	-0.313732	-0.2526336	0.04741739	-0.04152035	1.431142	-1.253159
8.875879	-0.313732	-0.2526336	0	0	-1.42847	1.250819
8.892385	-0.313732	-0.2526336	0	0	0	0
8.908957	-0.2875411	-0.2755125	1.580522	-1.38066	47.78278	-41.74047
8.925519	-0.2875411	-0.2755125	0	0	-47.70163	41.66959
8.942085	-0.2875411	-0.2755125	0	0	0	0
8.958652	-0.238156	-0.3184785	2.980888	-2.59343	89.96597	-78.27212
8.975783	-0.238156	-0.3184785	0	0	-88.45868	76.96075
8.991786	-0.238156	-0.3184785	0	0	0	0
9.008357	-0.1930396	-0.3577412	2.722607	-2.369358	83.58298	-72.73838
9.025831	-0.1930396	-0.3577412	0	0	-79.97031	69.59445
9.041487	-0.1930396	-0.3577412	0	0	0	0
9.058054	-0.1638084	-0.383296	1.764396	-1.542486	54.75624	-47.86946
9.07462	-0.1638084	-0.383296	0	0	-53.25112	46.55365
9.091187	-0.1638084	-0.383296	0	0	0	0
9.108103	-0.1497134	-0.3956737	0.83322	-0.7317077	24.8852	-21.8534
9.12432	-0.1497134	-0.3956737	0	0	-25.14735	22.08362
9.141227	-0.1497134	-0.3956737	0	0	0	0
9.15745	-0.1493017	-0.3960359	0.0253788	-0.02232746	0.7660439	-0.6739412
9.174019	-0.1493017	-0.3960359	0	0	-0.7739305	0.6808795
9.190586	-0.1493017	-0.3960359	0	0	0	0
9.207152	-0.1493017	-0.3959907	0	0.002732643	0	0.08247372
9.224334	-0.1493017	-0.3959907	0	0	0	-0.0809728
9.240848	-0.1493017	-0.3959907	0	0	0	0
9.256851	-0.1493274	-0.3958775	-0.001608031	0.007074593	-0.04945137	0.2175631
9.273418	-0.1493274	-0.3958775	0	0	0.04937028	-0.2172064
9.290641	-0.1493274	-0.3958775	0	0	0	0
9.306548	-0.1493017	-0.3957643	0.001617768	0.007115557	0.04883137	0.2147789
9.323117	-0.1493017	-0.3957643	0	0	-0.04981362	-0.2190991
9.339685	-0.1493017	-0.3957643	0	0	0	0
9.356272	-0.1492502	-0.395719	0.003103079	0.002729344	0.09359454	0.08232201
9.372818	-0.1492502	-0.395719	0	0	-0.0936565	-0.0823765
9.38966	-0.1492502	-0.395719	0	0	0	0
9.405952	-0.1492502	-0.3956737	0	0.00277855	0	0.08385681
9.423271	-0.1492502	-0.3956737	0	0	0	-0.08266715
9.440061	-0.1492502	-0.3956737	0	0	0	0
9.456048	-0.1491988	-0.3956285	0.003219324	0.002831588	0.0982195	0.08638994
9.472219	-0.1491988	-0.3956285	0	0	-0.1001099	-0.08805266
9.488785	-0.1491988	-0.3956285	0	0	0	0
9.505351	-0.1491216	-0.3955606	0.004660245	0.004098066	0.1406546	0.123687
9.521917	-0.1491216	-0.3955606	0	0	-0.1406546	-0.123687
9.538484	-0.1491216	-0.3955606	0	0	0	0
9.555387	-0.1490186	-0.39547	0.006089906	0.005356438	0.1819555	0.1600408
9.5718	-0.1490186	-0.39547	0	0	-0.1827889	-0.1607738
9.588186	-0.1490186	-0.39547	0	0	0	0
9.604749	-0.1489157	-0.3953795	0.006215991	0.005464746	0.1886578	0.1658572
9.621318	-0.1489157	-0.3953795	0	0	-0.1876152	-0.1649406
9.638282	-0.1489157	-0.3953795	0	0	0	0
9.654449	-0.1486583	-0.3951532	0.01591901	0.01399826	0.4804782	0.4225048
9.67108	-0.1486583	-0.3951532	0	0	-0.4853681	-0.4268047
9.687696	-0.1486583	-0.3951532	0	0	0	0
9.70415	-0.148298	-0.3948365	0.02190108	0.01925028	0.6622531	0.582097
9.72072	-0.148298	-0.3948365	0	0	-0.6631902	-0.5829207
9.737288	-0.148298	-0.3948365	0	0	0	0
9.753851	-0.1476801	-0.3941579	0.03730405	0.0409703	1.125968	1.236629
9.770418	-0.1476801	-0.3941579	0	0	-1.126	-1.236664
9.787313	-0.1476801	-0.3941579	0	0	0	0
9.803552	-0.1456456	-0.3923273	0.1252863	0.1127279	3.781257	3.402234
9.820119	-0.1456456	-0.3923273	0	0	-3.818959	-3.436157
9.83672	-0.1456456	-0.3923273	0	0	0	0
9.854006	-0.1287315	-0.3775572	0.978465	0.8544408	28.87442	25.21448
9.869822	-0.1287315	-0.3775572	0	0	-29.55906	-25.81233
9.886389	-0.1287315	-0.3775572	0	0	0	0
9.902953	-0.1124707	-0.3635875	0.9816735	0.843356	29.62952	25.45473
9.91952	-0.1124707	-0.3635875	0	0	-29.62952	-25.45473
9.936134	-0.1124707	-0.3635875	0	0	0	0
9.95265	-0.1024558	-0.3550245	0.6063877	0.5184779	18.30345	15.64995
9.969512	-0.1024558	-0.3550245	0	0	-18.16748	-15.53368
9.986044	-0.1024558	-0.3550245	0	0	0	0
10.00235	-0.1021172	-0.3547817	0.02076296	0.01488748	0.6323056	0.4533764
10.01892	-0.1021172	-0.3547817	0	0	-0.6315902	-0.4528634
10.03549	-0.1021172	-0.3547817	0	0	0	0
10.05205	-0.1021433	-0.3547596	-0.001572126	0.001333271	-0.04744959	0.04024051
10.06862	-0.1021433	-0.3547596	0	0	0.04745233	-0.04024283
10.08519	-0.1021433	-0.3547596	0	0	0	0
10.10175	-0.1021433	-0.3547596	0	0	0	0
10.11832	-0.1021433	-0.3547596	0	0	0	0
10.13506	-0.1021433	-0.3547596	0	0	0	0
10.15145	-0.1021433	-0.3547596	0	0	0	0
10.16867	-0.1021433	-0.3547596	0	0	0	0
10.18513	-0.1021433	-0.3547596	0	0	0	0
10.20115	-0.1021954	-0.3547155	-0.003250636	0.002752648	-0.1000922	0.08475836
10.21772	-0.1021954	-0.3547155	0	0	0.0997232	-0.08444591
10.23428	-0.1021954	-0.3547155	0	0	0	0
10.25124	-0.1022214	-0.3546934	-0.001535783	0.001302449	-0.04581987	0.0388584
10.26742	-0.1022214	-0.3546934	0	0	0.04635136	-0.03930914
10.28408	-0.1022214	-0.3546934	0	0	0	0
10.30055	-0.1021954	-0.3546714	0.00158123	0.001339182	0.04772712	0.04042125
10.31712	-0.1021954	-0.3546714	0	0	-0.04786214	-0.0405356
10.33368	-0.1021954	-0.3546714	0	0	0	0
10.35026	-0.1021954	-0.3546714	0	0	0	0
10.36702	-0.1021954	-0.3546714	0	0	0	0
10.38338	-0.1021954	-0.3546714	0	0	0	0
10.39997	-0.1022214	-0.3546493	-0.001569866	0.001331355	-0.04764332	0.04040481
10.41652	-0.1022214	-0.3546493	0	0	0.04738003	-0.04018152
10.43308	-0.1022214	-0.3546493	0	0	0	0
10.4497	-0.1022735	-0.3545611	-0.003134775	0.005310868	-0.09447446	0.1600566
10.4664	-0.1022735	-0.3545611	0	0	0.09408776	-0.1594014
10.48278	-0.1022735	-0.3545611	0	0	0	0
10.49935	-0.1022735	-0.3545611	0	0	0	0
10.51631	-0.1022735	-0.3545611	0	0	0	0
10.53277	-0.1022735	-0.3545611	0	0	0	0
10.54905	-0.1022995	-0.3545831	-0.001599197	-0.001354399	-0.04884732	-0.04136997
10.56572	-0.1022995	-0.3545831	0	0	0.04852784	0.0410994
10.58224	-0.1022995	-0.3545831	0	0	0	0
10.59875	-0.1022735	-0.3546052	0.001577394	-0.001337738	0.04776118	-0.04050476
10.61531	-0.1022735	-0.3546052	0	0	-0.04769232	0.04044636
10.63188	-0.1022735	-0.3546052	0	0	0	0
10.64845	-0.1022735	-0.3546052	0	0	0	0
10.66502	-0.1022735	-0.3546052	0	0	0	0
10.68158	-0.1022735	-0.3546052	0	0	0	0
10.69845	-0.1022995	-0.3546273	-0.001544208	-0.001307827	-0.04619347	-0.03912236
10.71472	-0.1022995	-0.3546273	0	0	0.04660161	0.03946803
10.73161	-0.1022995	-0.3546273	0	0	0	0
10.74815	-0.1023256	-0.3546493	-0.00157412	-0.00133316	-0.04708154	-0.03987449
10.76442	-0.1023256	-0.3546493	0	0	0.04797932	0.04063484
10.78098	-0.1023256	-0.3546493	0	0	0	0
10.79755	-0.1023516	-0.3546714	-0.001572036	-0.001333194	-0.04745096	-0.04024167
10.81442	-0.1023516	-0.3546714	0	0	0.04701651	0.03987323
10.83068	-0.1023516	-0.3546714	0	0	0	0
10.84725	-0.1023516	-0.3547155	0	-0.002664129	0	-0.08114628
10.86407	-0.1023516	-0.3547155	0	0	0	0.07980864
10.88049	-0.1023516	-0.3547155	0	0	0	0
10.89701	-0.1023516	-0.3547155	0	0	0	0
10.91352	-0.1023516	-0.3547155	0	0	0	0
10.93076	-0.1023516	-0.3547155	0	0	0	0
10.94675	-0.1023777	-0.3547376	-0.001628672	-0.001379362	-0.04900392	-0.0415026
10.96322	-0.1023777	-0.3547376	0	0	0.05018326	0.04250141
10.97978	-0.1023777	-0.3547376	0	0	0	0
10.99635	-0.1024037	-0.3547596	-0.001572304	-0.001331242	-0.04745497	-0.04017927
11.01292	-0.1024037	-0.3547596	0	0	0.04745361	0.04017811
11.02962	-0.1024037	-0.3547596	0	0	0	0
11.04605	-0.1024558	-0.3548479	-0.003169436	-0.005372171	-0.09566201	-0.1621464
11.06262	-0.1024558	-0.3548479	0	0	0.09604075	0.1627884
11.07955	-0.1024558	-0.3548479	0	0	0	0
11.09575	-0.1024818	-0.35487	-0.001607293	-0.001361255	-0.04851238	-0.0410863
11.11232	-0.1024818	-0.35487	0	0	0.04905174	0.0415431
11.12916	-0.1024818	-0.35487	0	0	0	0
11.14545	-0.1024818	-0.35487	0	0	0	0
11.1624	-0.1024818	-0.35487	0	0	0	0
11.17858	-0.1024818	-0.35487	0	0	0	0
11.19515	-0.1025339	-0.3549141	-0.003143709	-0.002664282	-0.09597956	-0.08134234
11.21203	-0.1025339	-0.3549141	0	0	0.09399003	0.07965621
11.22849	-0.1025339	-0.3549141	0	0	0	0
11.24485	-0.1025339	-0.3549141	0	0	0	0
11.26208	-0.1025339	-0.3549141	0	0	0	0
11.27799	-0.1025339	-0.3549141	0	0	0	0
11.29455	-0.1025339	-0.3549582	0	-0.002664589	0	-0.08205651
11.31875	-0.1025339	-0.3549582	0	0	0	0.06536035
11.33532	-0.1025339	-0.3549582	0	0	0	0
11.35189	-0.1025599	-0.3549803	-0.001571764	-0.001332964	-0.04743048	-0.0402243
11.3686	-0.1025599	-0.3549803	0	0	0.04722796	0.04005256
11.38513	-0.1025599	-0.3549803	0	0	0	0
11.40233	-0.1025599	-0.3549803	0	0	0	0
11.4192	-0.1025599	-0.3549803	0	0	0	0
11.43573	-0.1025599	-0.3549803	0	0	0	0
11.45203	-0.102586	-0.3550024	-0.001597326	-0.001352814	-0.04866541	-0.04121592
11.46889	-0.102586	-0.3550024	0	0	0.0481658	0.04079278
11.48516	-0.102586	-0.3550024	0	0	0	0
11.50173	-0.102586	-0.3550024	0	0	0	0
11.51844	-0.102586	-0.3550024	0	0	0	0
11.53486	-0.102586	-0.3550024	0	0	0	0
11.55143	-0.102612	-0.3550245	-0.001572036	-0.001333194	-0.04765123	-0.04041151
11.56799	-0.102612	-0.3550245	0	0	0.04744823	0.04023936
11.58472	-0.102612	-0.3550245	0	0	0	0
11.6066	-0.102612	-0.3550245	0	0	0	0
11.62317	-0.102612	-0.3550245	0	0	0	0
11.63973	-0.1026381	-0.3550465	-0.001571855	-0.001331242	-0.0474373	-0.0401758
11.6563	-0.1026381	-0.3550465	0	0	0.04744003	0.04017811
11.67287	-0.1026381	-0.3550465	0	0	0	0
11.68949	-0.1026381	-0.3550465	0	0	0	0
11.70609	-0.1026381	-0.3550465	0	0	0	0
11.7226	-0.1026381	-0.3550465	0	0	0	0
11.73959	-0.1026641	-0.3550686	-0.001532336	-0.001299526	-0.04574305	-0.03879325
11.7557	-0.1026641	-0.3550686	0	0	0.04629261	0.03925931
11.77227	-0.1026641	-0.3550686	0	0	0	0
11.78883	-0.1026641	-0.3550686	0	0	0	0
11.8054	-0.1026641	-0.3550686	0	0	0	0
11.82215	-0.1026641	-0.3550686	0	0	0	0
11.83891	-0.1026641	-0.3550686	0	0	0	0
11.8551	-0.1026641	-0.3550686	0	0	0	0
11.87167	-0.1026641	-0.3550686	0	0	0	0
11.88823	-0.1026641	-0.3550686	0	0	0	0
11.90507	-0.1026641	-0.3550686	0	0	0	0
11.92137	-0.1026641	-0.3550686	0	0	0	0
11.93793	-0.1026901	-0.3550907	-0.001571855	-0.001333041	-0.04782824	-0.04056163
11.9545	-0.1026901	-0.3550907	0	0	0.04743867	0.04023125
11.97107	-0.1026901	-0.3550907	0	0	0	0
11.99123	-0.1026901	-0.3550907	0	0	0	0
12.00816	-0.1026901	-0.3550907	0	0	0	0
12.02463	-0.1026901	-0.3550907	0	0	0	0
12.04094	-0.1026901	-0.3550907	0	0	0	0
12.05809	-0.1026901	-0.3550907	0	0	0	0
12.07407	-0.1026901	-0.3550907	0	0	0	0
12.09064	-0.1026901	-0.3550907	0	0	0	0
12.10729	-0.1026901	-0.3550907	0	0	0	0
12.12377	-0.1026901	-0.3550907	0	0	0	0
12.14054	-0.1026901	-0.3550907	0	0	0	0
12.15714	-0.1026901	-0.3550907	0	0	0	0
12.17414	-0.1026901	-0.3550907	0	0	0	0
12.19003	-0.1026901	-0.3550907	0	0	0	0
12.2066	-0.1026901	-0.3550907	0	0	0	0
12.22317	-0.1026901	-0.3550907	0	0	0	0
12.23973	-0.1026901	-0.3550907	0	0	0	0
12.2563	-0.1026901	-0.3550907	0	0	0	0
12.27287	-0.1026901	-0.3550907	0	0	0	0
12.28943	-0.1026901	-0.3550907	0	0	0	0
12.30632	-0.1026901	-0.3550907	0	0	0	0
12.32257	-0.1027162	-0.3551127	-0.001602952	-0.001357579	-0.04837858	-0.04097299
12.33914	-0.1027162	-0.3551127	0	0	0.04885102	0.04137311
12.35617	-0.1027162	-0.3551127	0	0	0	0
12.37227	-0.1027162	-0.3551127	0	0	0	0
12.38884	-0.1027162	-0.3551127	0	0	0	0
12.40557	-0.1027162	-0.3551127	0	0	0	0
12.42197	-0.1027162	-0.3551569	0	-0.002692336	0	-0.08126421
12.43875	-0.1027162	-0.3551569	0	0	0	0.08114975
12.4551	-0.1027162	-0.3551569	0	0	0	0
12.47167	-0.1027422	-0.3553555	-0.001571855	-0.01199197	-0.04775203	-0.364309
12.48823	-0.1027422	-0.3553555	0	0	0.0474414	0.3619392
12.50498	-0.1027422	-0.3553555	0	0	0	0
12.52137	-0.1029245	-0.3555984	-0.01112421	-0.01482015	-0.3357389	-0.4472859
12.53797	-0.1029245	-0.3555984	0	0	0.3372727	0.4493293
12.5545	-0.1029245	-0.3555984	0	0	0	0
12.57145	-0.1047989	-0.3572329	-0.1106278	-0.09647114	-3.304327	-2.881482
12.58764	-0.1047989	-0.3572329	0	0	3.338851	2.911588
12.60454	-0.1047989	-0.3572329	0	0	0	0
12.62099	-0.105996	-0.3584266	-0.07278681	-0.07258205	-2.182264	-2.176125
12.63733	-0.105996	-0.3584266	0	0	2.219645	2.213401
12.6539	-0.105996	-0.3584266	0	0	0	0
12.67286	-0.1009452	-0.3632991	0.2663381	-0.2569368	7.496127	-7.231525
12.68944	-0.1009452	-0.3632991	0	0	-7.495121	7.230555
12.70642	-0.1009452	-0.3632991	0	0	0	0
12.72257	-0.07035736	-0.3910178	1.893928	-1.716275	57.16215	-51.80028
12.73944	-0.07035736	-0.3910178	0	0	-57.35034	51.97081
12.7557	-0.07035736	-0.3910178	0	0	0	0
12.77227	-0.05232063	-0.4731093	1.088762	-4.955337	33.16629	-150.9514
12.78918	-0.05232063	-0.4731093	0	0	-32.52378	148.0271
12.8054	-0.05232063	-0.4731093	0	0	0	0
12.82222	-0.07208541	-0.5484516	-1.175346	-4.480358	-35.57441	-135.6078
12.83854	-0.07208541	-0.5484516	0	0	35.47202	135.2175
12.8551	-0.07208541	-0.5484516	0	0	0	0
12.8722	-0.09990314	-0.6246014	-1.627281	-4.454609	-48.34474	-132.3416
12.88824	-0.09990314	-0.6246014	0	0	49.11284	134.4442
12.9048	-0.09990314	-0.6246014	0	0	0	0
12.92139	-0.09661927	-0.7104464	0.1979984	-5.17595	5.971994	-156.1161
12.93794	-0.09661927	-0.7104464	0	0	-5.97612	156.224
12.9545	-0.09661927	-0.7104464	0	0	0	0
12.97107	-0.07253044	-0.8078711	1.454172	-5.881247	43.89079	-177.5117
12.98799	-0.07253044	-0.8078711	0	0	-43.42456	175.6261
13.00435	-0.07253044	-0.8078711	0	0	0	0
13.02077	-0.06993838	-0.893896	0.1579026	-5.240439	4.817225	-159.8731
13.03733	-0.06993838	-0.893896	0	0	-4.787556	158.8885
13.05428	-0.06993838	-0.893896	0	0	0	0
13.07047	-0.08401231	-0.9312644	-0.869321	-2.308174	-26.23616	-69.66084
13.08713	-0.08401231	-0.9312644	0	0	26.46544	70.26961
13.1036	-0.08401231	-0.9312644	0	0	0	0
13.1204	-0.083751	-0.9314948	0.01555272	-0.01371112	0.4673776	-0.4120354
13.13673	-0.083751	-0.9314948	0	0	-0.4693955	0.4138143
13.1533	-0.083751	-0.9314948	0	0	0	0
13.16987	-0.08372487	-0.9313796	0.001577342	0.006955239	0.0476084	0.2099276
13.18643	-0.08372487	-0.9313796	0	0	-0.04760566	-0.2099156
13.20365	-0.08372487	-0.9313796	0	0	0	0
13.21967	-0.08367261	-0.9313028	0.003262766	0.004792523	0.09818506	0.1442194
13.23617	-0.08367261	-0.9313028	0	0	-0.1003243	-0.1473616
13.25329	-0.08367261	-0.9313028	0	0	0	0
13.26927	-0.08362034	-0.9311492	0.00327036	0.009607351	0.09880772	0.2902679
13.28584	-0.08362034	-0.9311492	0	0	-0.1004576	-0.2951148
13.34298	-0.08362034	-0.9311492	0	0	0	0
13.35955	-0.08356807	-0.9310725	0.003154227	0.004633094	0.04279102	0.0628537
13.37612	-0.08356807	-0.9310725	0	0	-0.09518927	-0.139819
13.39269	-0.08356807	-0.9310725	0	0	0	0
13.40925	-0.08354194	-0.9310341	0.001577252	0.00231708	0.04760155	0.06992962
13.42615	-0.08354194	-0.9310341	0	0	-0.04713218	-0.06924009
13.44269	-0.08354194	-0.9310341	0	0	0	0
13.45896	-0.08351582	-0.9309957	0.001606005	0.00235932	0.04895685	0.07192064
13.47569	-0.08351582	-0.9309957	0	0	-0.04865416	-0.07147597
13.4922	-0.08351582	-0.9309957	0	0	0	0
13.5092	-0.08346355	-0.9307655	0.003073562	0.01353682	0.09172539	0.403984
13.52522	-0.08346355	-0.9307655	0	0	-0.09307909	-0.4099461
13.54179	-0.08346355	-0.9307655	0	0	0	0
13.5588	-0.08299313	-0.9300754	0.02765252	0.04056649	0.8235095	1.208096
13.57524	-0.08299313	-0.9300754	0	0	-0.8265612	-1.212573
13.59149	-0.08299313	-0.9300754	0	0	0	0
13.60805	-0.08301927	-0.9299605	-0.001577701	0.006936849	-0.04808149	0.211405
13.62462	-0.08301927	-0.9299605	0	0	0.04761786	-0.2093666
13.64138	-0.08301927	-0.9299605	0	0	0	0
13.65775	-0.08301927	-0.9298838	0	0.004681675	0	0.1413095
13.67432	-0.08301927	-0.9298838	0	0	0	-0.1421154
13.69101	-0.08301927	-0.9298838	0	0	0	0
13.70745	-0.08307154	-0.9298072	-0.003178373	0.004657687	-0.09593454	0.1405855
13.72416	-0.08307154	-0.9298072	0	0	0.09587658	-0.1405005
13.74059	-0.08307154	-0.9298072	0	0	0	0
13.75715	-0.08314994	-0.9296923	-0.004733199	0.006937648	-0.1434593	0.2102743
13.77372	-0.08314994	-0.9296923	0	0	0.1428482	-0.2093786
13.79029	-0.08314994	-0.9296923	0	0	0	0
13.80696	-0.08317608	-0.929654	-0.001567236	0.002298136	-0.04714458	0.06913105
13.8235	-0.08317608	-0.929654	0	0	0.04719061	-0.06919854
13.84089	-0.08317608	-0.929654	0	0	0	0
13.85655	-0.08322834	-0.9295774	-0.003337069	0.004890245	-0.100957	0.1479456
13.87312	-0.08322834	-0.9295774	0	0	0.1035411	-0.1517323
13.88971	-0.08322834	-0.9295774	0	0	0	0
13.90625	-0.08322834	-0.9295774	0	0	0	0
13.92282	-0.08322834	-0.9295774	0	0	0	0
13.93939	-0.08322834	-0.9295774	0	0	0	0
13.95595	-0.08325448	-0.9295391	-0.001577701	0.002309884	-0.04761786	0.06971645
13.97322	-0.08325448	-0.9295391	0	0	0.0466287	-0.06826825
13.98909	-0.08325448	-0.9295391	0	0	0	0
14.0059	-0.08325448	-0.9295391	0	0	0	0
14.02222	-0.08325448	-0.9295391	0	0	0	0
14.03888	-0.08325448	-0.9295391	0	0	0	0
14.06235	-0.08325448	-0.9295391	0	0	0	0
14.07928	-0.08325448	-0.9295391	0	0	0	0
14.09633	-0.08325448	-0.9295391	0	0	0	0
14.11232	-0.08325448	-0.9295391	0	0	0	0
14.12886	-0.08325448	-0.9295391	0	0	0	0
14.1454	-0.08328062	-0.9295008	-0.001580431	0.002317484	-0.04777725	0.07005877
14.16208	-0.08328062	-0.9295008	0	0	0.04757699	-0.06976512
14.17832	-0.08328062	-0.9295008	0	0	0	0
14.19488	-0.08343741	-0.9292712	-0.009465949	0.0138645	-0.2885649	0.4226526
14.21145	-0.08343741	-0.9292712	0	0	0.2857076	-0.4184676
14.22828	-0.08343741	-0.9292712	0	0	0	0
14.2448	-0.08461329	-0.9275509	-0.07119304	0.1041522	-2.134785	3.123096
14.26115	-0.08461329	-0.9275509	0	0	2.166129	-3.16895
14.27771	-0.08461329	-0.9275509	0	0	0	0
14.29428	-0.09818328	-0.9064183	-0.8191337	1.275643	-24.72293	38.50119
14.31086	-0.09818328	-0.9064183	0	0	24.71652	-38.49121
14.32742	-0.09818328	-0.9064183	0	0	0	0
14.34398	-0.1316809	-0.8484512	-2.022039	3.4991	-61.0393	105.6274
14.36055	-0.1316809	-0.8484512	0	0	61.02349	-105.6
14.37712	-0.1316809	-0.8484512	0	0	0	0
14.39368	-0.1609893	-0.7393439	-1.769263	6.586489	-53.40568	198.815
14.41085	-0.1609893	-0.7393439	0	0	52.44696	-195.2459
14.42696	-0.1609893	-0.7393439	0	0	0	0
14.44338	-0.1577314	-0.6096263	0.1983282	7.896589	6.095916	242.7136
14.45997	-0.1577314	-0.6096263	0	0	-6.00769	-239.2008
14.47652	-0.1577314	-0.6096263	0	0	0	0
14.49308	-0.1305946	-0.5047077	1.638076	6.333264	49.46855	191.2594
14.50996	-0.1305946	-0.5047077	0	0	-48.97488	-189.3507
14.52622	-0.1305946	-0.5047077	0	0	0	0
14.54278	-0.09979893	-0.4145077	1.859365	5.446047	56.65713	165.9478
14.55939	-0.09979893	-0.4145077	0	0	-56.06249	-164.2061
14.57592	-0.09979893	-0.4145077	0	0	0	0
14.59256	-0.08419522	-0.3701897	0.937363	2.662325	28.25389	80.24749
14.60905	-0.08419522	-0.3701897	0	0	-28.28967	-80.34912
14.62605	-0.08419522	-0.3701897	0	0	0	0
14.64218	-0.08367261	-0.3563933	0.0323992	0.8552974	0.9778941	25.81516
14.65875	-0.08367261	-0.3563933	0	0	-0.9908715	-26.15774
14.67531	-0.08367261	-0.3563933	0	0	0	0
14.69206	-0.08367261	-0.3563933	0	0	0	0
14.70846	-0.08367261	-0.3563933	0	0	0	0
14.72506	-0.08367261	-0.3563933	0	0	0	0
14.74379	-0.08369873	-0.3563271	-0.001395246	0.003539237	-0.03948881	0.1001689
14.76084	-0.08369873	-0.3563271	0	0	0.03900037	-0.09892995
14.77693	-0.08369873	-0.3563271	0	0	0	0
14.79354	-0.08369873	-0.3563712	0	-0.002659193	0	-0.08132429
14.81056	-0.08369873	-0.3563712	0	0	0	0.07906444
14.82663	-0.08369873	-0.3563712	0	0	0	0
14.84319	-0.08367261	-0.3563933	0.001577161	-0.001334763	0.0483305	-0.04090245
14.85976	-0.08367261	-0.3563933	0	0	-0.04760018	0.04028438
14.87633	-0.08367261	-0.3563933	0	0	0	0
14.89303	-0.08367261	-0.3563933	0	0	0	0
14.90946	-0.08367261	-0.3563933	0	0	0	0
14.92603	-0.08367261	-0.3563933	0	0	0	0
14.94259	-0.08362034	-0.3564817	0.003154953	-0.005332163	0.09522764	-0.1609435
14.95916	-0.08362034	-0.3564817	0	0	-0.09522215	0.1609343
14.97572	-0.08362034	-0.3564817	0	0	0	0
14.99229	-0.08362034	-0.3564817	0	0	0	0
15.00886	-0.08362034	-0.3564817	0	0	0	0
15.02636	-0.08362034	-0.3564817	0	0	0	0
15.04199	-0.08354194	-0.3566805	0.00501575	-0.01272004	0.1513887	-0.3839248
15.05856	-0.08354194	-0.3566805	0	0	-0.1557739	0.3950458
15.07524	-0.08354194	-0.3566805	0	0	0	0
15.09169	-0.08354194	-0.3567247	0	-0.002686283	0	-0.08108151
15.10856	-0.08354194	-0.3567247	0	0	0	0.08061278
15.12564	-0.08354194	-0.3567247	0	0	0	0
15.14139	-0.08354194	-0.3568572	0	-0.00841761	0	-0.2563981
15.15796	-0.08354194	-0.3568572	0	0	0	0.2604687
15.17487	-0.08354194	-0.3568572	0	0	0	0
15.19109	-0.08356807	-0.3570561	-0.001611483	-0.01226326	-0.04864026	-0.3701486
15.20807	-0.08356807	-0.3570561	0	0	0.04854105	0.3693937
15.22517	-0.08356807	-0.3570561	0	0	0	0
15.24079	-0.08356807	-0.3571003	0	-0.002829116	0	-0.08647049
15.25736	-0.08356807	-0.3571003	0	0	0	0.08788716
15.2741	-0.08356807	-0.3571003	0	0	0	0
15.29115	-0.08356807	-0.3571003	0	0	0	0
15.30706	-0.08356807	-0.3571003	0	0	0	0
15.32363	-0.08356807	-0.3571003	0	0	0	0
15.34019	-0.08364648	-0.3572108	-0.00473211	-0.006669832	-0.1427989	-0.2012728
15.35676	-0.08364648	-0.3572108	0	0	0.1428154	0.2012959
15.37333	-0.08364648	-0.3572108	0	0	0	0
15.38989	-0.08367261	-0.3572329	-0.001577433	-0.001333194	-0.04761251	-0.04024052
15.40646	-0.08367261	-0.3572329	0	0	0.04761525	0.04024283
15.42303	-0.08367261	-0.3572329	0	0	0	0
15.43959	-0.08367261	-0.3572771	0	-0.00266788	0	-0.08051216
15.45616	-0.08367261	-0.3572771	0	0	0	0.08051911
15.47328	-0.08367261	-0.3572771	0	0	0	0
15.48929	-0.083751	-0.3573434	-0.004895374	-0.004140737	-0.1477469	-0.1249713
15.50586	-0.083751	-0.3573434	0	0	0.1502553	0.127093
15.52243	-0.083751	-0.3573434	0	0	0	0
15.53899	-0.08393392	-0.3575865	-0.0110423	-0.01467689	-0.3332667	-0.4429621
15.55556	-0.08393392	-0.3575865	0	0	0.3332763	0.4429748
15.57213	-0.08393392	-0.3575865	0	0	0	0
15.58869	-0.08398618	-0.3576749	-0.00315414	-0.005335147	-0.09519213	-0.161015
15.60527	-0.08398618	-0.3576749	0	0	0.09516748	0.1609733
15.62183	-0.08398618	-0.3576749	0	0	0	0
15.63879	-0.08398618	-0.3576749	0	0	0	0
15.65496	-0.08398618	-0.3576749	0	0	0	0
15.67153	-0.08398618	-0.3576749	0	0	0	0
15.68809	-0.08401231	-0.357697	-0.001577792	-0.001334917	-0.04761923	-0.04028902
15.70466	-0.08401231	-0.357697	0	0	0.04762061	0.04029018
15.72123	-0.08401231	-0.357697	0	0	0	0
15.73779	-0.08401231	-0.357697	0	0	0	0
15.75437	-0.08401231	-0.357697	0	0	0	0
15.77093	-0.08401231	-0.357697	0	0	0	0
15.78776	-0.08401231	-0.357697	0	0	0	0
15.80447	-0.08401231	-0.357697	0	0	0	0
15.82063	-0.08401231	-0.357697	0	0	0	0
15.83753	-0.08406457	-0.3577854	-0.003091851	-0.005231549	-0.0935276	-0.1582529
15.85424	-0.08406457	-0.3577854	0	0	0.09197018	0.1556176
15.87067	-0.08406457	-0.3577854	0	0	0	0
15.88723	-0.08406457	-0.3578297	0	-0.002669526	0	-0.0809228
15.9038	-0.08406457	-0.3578297	0	0	0	0.08056876
15.92056	-0.08406457	-0.3578297	0	0	0	0
15.93693	-0.0840907	-0.3578517	-0.001595994	-0.001348882	-0.0481686	-0.0407105
15.9535	-0.0840907	-0.3578517	0	0	0.0484545	0.04095214
15.97007	-0.0840907	-0.3578517	0	0	0	0
15.98697	-0.08411683	-0.3578739	-0.0015461	-0.001308476	-0.04619866	-0.03909827
16.0032	-0.08411683	-0.3578739	0	0	0.04666273	0.03949102
16.01977	-0.08411683	-0.3578739	0	0	0	0
16.03633	-0.08414296	-0.3579402	-0.001577342	-0.004004749	-0.04760703	-0.1208705
16.0529	-0.08414296	-0.3579402	0	0	0.04760977	0.1208775
16.06947	-0.08414296	-0.3579402	0	0	0	0
16.08639	-0.08414296	-0.3579402	0	0	0	0
16.1026	-0.08414296	-0.3579402	0	0	0	0
16.11927	-0.08414296	-0.3579402	0	0	0	0
16.13573	-0.08414296	-0.3579402	0	0	0	0
16.15245	-0.08414296	-0.3579402	0	0	0	0
16.16886	-0.08414296	-0.3579402	0	0	0	0
16.18543	-0.08414296	-0.3579402	0	0	0	0
16.202	-0.08414296	-0.3579402	0	0	0	0
16.21861	-0.08414296	-0.3579402	0	0	0	0
16.23513	-0.08414296	-0.3579402	0	0	0	0
16.25185	-0.08414296	-0.3579402	0	0	0	0
16.26827	-0.08414296	-0.3579402	0	0	0	0
16.28483	-0.08414296	-0.3579402	0	0	0	0
16.3023	-0.08414296	-0.3579402	0	0	0	0
16.31797	-0.08414296	-0.3579402	0	0	0	0
16.33453	-0.08416909	-0.3579623	-0.001577706	-0.001335224	-0.048948	-0.04142505
16.3511	-0.08416909	-0.3579623	0	0	0.04761251	0.04029482
16.36767	-0.08416909	-0.3579623	0	0	0	0
16.38424	-0.08416909	-0.3579623	0	0	0	0
16.40103	-0.08416909	-0.3579623	0	0	0	0
16.41737	-0.08416909	-0.3579623	0	0	0	0
16.43393	-0.08416909	-0.3579623	0	0	0	0
16.4505	-0.08416909	-0.3579623	0	0	0	0
16.46737	-0.08416909	-0.3579623	0	0	0	0
16.48363	-0.08416909	-0.3579623	0	0	0	0
16.50044	-0.08416909	-0.3579623	0	0	0	0
16.51676	-0.08416909	-0.3579623	0	0	0	0
16.53345	-0.08416909	-0.3579623	0	0	0	0
16.5499	-0.08416909	-0.3579623	0	0	0	0
16.56651	-0.08416909	-0.3579623	0	0	0	0
16.58303	-0.08416909	-0.3579623	0	0	0	0
16.5996	-0.08416909	-0.3579623	0	0	0	0
16.61616	-0.08416909	-0.3579623	0	0	0	0
16.63273	-0.08416909	-0.3579623	0	0	0	0
16.6493	-0.08416909	-0.3579623	0	0	0	0
16.66618	-0.08416909	-0.3579623	0	0	0	0
16.68262	-0.08416909	-0.3579623	0	0	0	0
16.699	-0.08416909	-0.3579623	0	0	0	0
16.71564	-0.08416909	-0.3579623	0	0	0	0
16.73576	-0.08416909	-0.3579623	0	0	0	0
16.75233	-0.08416909	-0.3579623	0	0	0	0
16.76901	-0.08416909	-0.3579623	0	0	0	0
16.78546	-0.08416909	-0.3579623	0	0	0	0
16.80203	-0.08416909	-0.3579623	0	0	0	0
16.8187	-0.08416909	-0.3579623	0	0	0	0
16.83516	-0.08416909	-0.3579623	0	0	0	0
16.85173	-0.08416909	-0.3579623	0	0	0	0
16.86862	-0.08416909	-0.3579623	0	0	0	0
16.88486	-0.08416909	-0.3579623	0	0	0	0
16.90144	-0.08416909	-0.3579623	0	0	0	0
16.91848	-0.08416909	-0.3579623	0	0	0	0
16.93457	-0.08416909	-0.3579623	0	0	0	0
16.95113	-0.08416909	-0.3579623	0	0	0	0
16.96841	-0.08419522	-0.3579844	-0.001512389	-0.001278221	-0.04469211	-0.03777229
16.98462	-0.08419522	-0.3579844	0	0	0.04515275	0.0381616
17.00084	-0.08419522	-0.3579844	0	0	0	0
17.01741	-0.08419522	-0.3579844	0	0	0	0
17.0341	-0.08419522	-0.3579844	0	0	0	0
17.05067	-0.08419522	-0.3579844	0	0	0	0
17.0671	-0.08419522	-0.3579844	0	0	0	0
17.08367	-0.08419522	-0.3579844	0	0	0	0
17.10062	-0.08419522	-0.3579844	0	0	0	0
17.1168	-0.08419522	-0.3579844	0	0	0	0
17.13375	-0.08419522	-0.3579844	0	0	0	0
17.14993	-0.08419522	-0.3579844	0	0	0	0
17.1665	-0.08419522	-0.3579844	0	0	0	0
17.18306	-0.08419522	-0.3579844	0	0	0	0
17.20039	-0.08419522	-0.3579844	0	0	0	0
17.21636	-0.08419522	-0.3579844	0	0	0	0
17.23288	-0.08419522	-0.3579844	0	0	0	0
17.24989	-0.08419522	-0.3579844	0	0	0	0
17.26589	-0.08419522	-0.3579844	0	0	0	0
17.28246	-0.08419522	-0.3579844	0	0	0	0
17.29903	-0.08419522	-0.3579844	0	0	0	0
17.3161	-0.08419522	-0.3579844	0	0	0	0
17.33216	-0.08419522	-0.3579844	0	0	0	0
17.34873	-0.08419522	-0.3579844	0	0	0	0
17.36547	-0.08422136	-0.3580507	-0.001561432	-0.003963224	-0.04688122	-0.1189938
17.38198	-0.08422136	-0.3580507	0	0	0.04695383	0.1191781
17.39843	-0.08422136	-0.3580507	0	0	0	0
17.41675	-0.08427361	-0.358095	-0.002853112	-0.00241461	-0.08207245	-0.06945852
17.43332	-0.08427361	-0.358095	0	0	0.0817808	0.06921169
17.44988	-0.08427361	-0.358095	0	0	0	0
17.46645	-0.08427361	-0.358095	0	0	0	0
17.48302	-0.08427361	-0.358095	0	0	0	0
17.49959	-0.08427361	-0.358095	0	0	0	0
17.51639	-0.08427361	-0.358095	0	0	0	0
17.53272	-0.08427361	-0.358095	0	0	0	0
17.54929	-0.08427361	-0.358095	0	0	0	0
17.56585	-0.08429974	-0.3581171	-0.001577342	-0.001334917	-0.04760703	-0.04029018
17.58242	-0.08429974	-0.3581171	0	0	0.04760429	0.04028786
17.59904	-0.08429974	-0.3581171	0	0	0	0
17.61555	-0.08429974	-0.3581171	0	0	0	0
17.63212	-0.08429974	-0.3581171	0	0	0	0
17.64913	-0.08429974	-0.3581171	0	0	0	0
17.66525	-0.08429974	-0.3581171	0	0	0	0
17.68182	-0.08429974	-0.3581171	0	0	0	0
17.69841	-0.08429974	-0.3581171	0	0	0	0
17.71495	-0.08429974	-0.3581171	0	0	0	0
17.73174	-0.08429974	-0.3581171	0	0	0	0
17.74827	-0.08429974	-0.3581171	0	0	0	0
17.76465	-0.08429974	-0.3581171	0	0	0	0
17.78144	-0.08429974	-0.3581171	0	0	0	0
17.79779	-0.08429974	-0.3581171	0	0	0	0
17.81435	-0.08429974	-0.3581171	0	0	0	0
17.83092	-0.08429974	-0.3581171	0	0	0	0
17.84748	-0.08429974	-0.3581171	0	0	0	0
17.86435	-0.08429974	-0.3581171	0	0	0	0
17.88062	-0.08429974	-0.3581171	0	0	0	0
17.89727	-0.08429974	-0.3581171	0	0	0	0
17.91375	-0.08429974	-0.3581171	0	0	0	0
17.93032	-0.08429974	-0.3581171	0	0	0	0
17.94712	-0.08429974	-0.3581171	0	0	0	0
17.96345	-0.08429974	-0.3581171	0	0	0	0
17.98005	-0.08429974	-0.3581171	0	0	0	0
17.99658	-0.08429974	-0.3581171	0	0	0	0
18.01315	-0.08429974	-0.3581171	0	0	0	0
18.02972	-0.08429974	-0.3581171	0	0	0	0
18.04628	-0.08429974	-0.3581171	0	0	0	0
18.06285	-0.08429974	-0.3581171	0	0	0	0
18.07943	-0.08429974	-0.3581171	0	0	0	0
18.09622	-0.08429974	-0.3581171	0	0	0	0
18.11255	-0.08429974	-0.3581171	0	0	0	0
18.12954	-0.08429974	-0.3581171	0	0	0	0
18.14569	-0.08429974	-0.3581171	0	0	0	0
18.16225	-0.08429974	-0.3581613	0	-0.002669526	0	-0.08159507
18.17894	-0.08429974	-0.3581613	0	0	0	0.08028453
18.19538	-0.08429974	-0.3581613	0	0	0	0
18.21195	-0.08359421	-0.3647859	0.04259094	-0.3999082	1.290076	-12.11318
18.22852	-0.08359421	-0.3647859	0	0	-1.285323	12.06856
18.24508	-0.08359421	-0.3647859	0	0	0	0
18.26179	-0.07572336	-0.4084702	0.4710723	-2.614517	14.15831	-78.5806
18.27886	-0.07572336	-0.4084702	0	0	-13.94566	77.40034
18.29541	-0.07572336	-0.4084702	0	0	0	0
18.31168	-0.07449348	-0.5001479	0.07561122	-5.6362	2.304369	-171.7719
18.32794	-0.07449348	-0.5001479	0	0	-2.324093	173.2422
18.3448	-0.07449348	-0.5001479	0	0	0	0
18.36105	-0.08654642	-0.5941634	-0.7418661	-5.786709	-22.4102	-174.8042
18.37762	-0.08654642	-0.5941634	0	0	22.60689	176.3384
18.39418	-0.08654642	-0.5941634	0	0	0	0
18.41075	-0.1092475	-0.6316086	-1.370556	-2.260716	-41.36822	-68.23641
18.42731	-0.1092475	-0.6316086	0	0	41.36822	68.23641
18.4439	-0.1092475	-0.6316086	0	0	0	0
18.46045	-0.1202849	-0.6434244	-0.667065	-0.7141066	-20.13322	-21.55302
18.47735	-0.1202849	-0.6434244	0	0	19.94151	21.34779
18.49386	-0.1202849	-0.6434244	0	0	0	0
18.51015	-0.1255985	-0.6492293	-0.3262503	-0.3564161	-9.948187	-10.86802
18.52707	-0.1255985	-0.6492293	0	0	9.822506	10.73072
18.54329	-0.1255985	-0.6492293	0	0	0	0
18.56018	-0.1255726	-0.6492017	0.00153252	0.001633042	0.04628617	0.04932221
18.57675	-0.1255726	-0.6492017	0	0	-0.04579026	-0.04879377
18.59332	-0.1255726	-0.6492017	0	0	0	0
18.60989	-0.12521	-0.6496431	0.02189551	-0.02665102	0.6608459	-0.8043758
18.62646	-0.12521	-0.6496431	0	0	-0.6608459	0.8043758
18.64302	-0.12521	-0.6496431	0	0	0	0
18.65984	-0.1011796	-0.6754834	1.428599	-1.5362	42.78761	-46.01036
18.67616	-0.1011796	-0.6754834	0	0	-43.11768	46.36528
18.69287	-0.1011796	-0.6754834	0	0	0	0
18.70964	-0.07724076	-0.7017571	1.427045	-1.566227	42.61207	-46.76809
18.72671	-0.07724076	-0.7017571	0	0	-42.17252	46.28568
18.7429	-0.07724076	-0.7017571	0	0	0	0
18.75898	-0.07470284	-0.7046935	0.1577477	-0.182517	4.887437	-5.654857
18.77584	-0.07470284	-0.7046935	0	0	-4.787844	5.539626
18.79212	-0.07470284	-0.7046935	0	0	0	0
18.80894	-0.06873366	-0.7117066	0.3548261	-0.4168793	10.71978	-12.59449
18.82603	-0.06873366	-0.7117066	0	0	-10.46529	12.2955
18.84182	-0.06873366	-0.7117066	0	0	0	0
18.85839	-0.05373769	-0.7293448	0.9050546	-1.064525	27.9666	-32.89431
18.87495	-0.05373769	-0.7293448	0	0	-27.3146	32.12743
18.89152	-0.05373769	-0.7293448	0	0	0	0
18.90808	-0.06372937	-0.7705372	-0.6031684	-2.486662	-18.20471	-75.05192
18.92465	-0.06372937	-0.7705372	0	0	18.20471	75.05192
18.94122	-0.06372937	-0.7705372	0	0	0	0
18.95779	-0.09870452	-0.8163284	-2.111104	-2.763963	-63.71325	-83.41656
18.97435	-0.09870452	-0.8163284	0	0	63.71692	83.42136
18.99092	-0.09870452	-0.8163284	0	0	0	0
19.00751	-0.1186246	-0.8419639	-1.200584	-1.545048	-36.20661	-46.59478
19.02405	-0.1186246	-0.8419639	0	0	36.23579	46.63233
19.04062	-0.1186246	-0.8419639	0	0	0	0
19.05756	-0.1244327	-0.8494805	-0.3429177	-0.4437887	-10.23498	-13.24565
19.07376	-0.1244327	-0.8494805	0	0	10.34868	13.3928
19.0906	-0.1244327	-0.8494805	0	0	0	0
19.10688	-0.1245105	-0.8493775	-0.004773797	0.006325407	-0.1440984	0.1909341
19.12351	-0.1245105	-0.8493775	0	0	0.145042	-0.1921844
19.14002	-0.1245105	-0.8493775	0	0	0	0
19.1572	-0.1246141	-0.8492402	-0.006030626	0.007987653	-0.1790061	0.2370962
19.17359	-0.1246141	-0.8492402	0	0	0.1796264	-0.2379179
19.18972	-0.1246141	-0.8492402	0	0	0	0
19.20628	-0.12464	-0.8492745	-0.00156439	-0.002069656	-0.04785243	-0.06330779
19.22285	-0.12464	-0.8492745	0	0	0.04722153	0.06247312
19.23942	-0.12464	-0.8492745	0	0	0	0
19.25605	-0.1247695	-0.8490342	-0.007790545	0.01444569	-0.2347003	0.4351951
19.27255	-0.1247695	-0.8490342	0	0	0.2351462	-0.4360219
19.28981	-0.1247695	-0.8490342	0	0	0	0
19.30568	-0.1251322	-0.8485541	-0.02285854	0.03026205	-0.6899117	0.9133631
19.32225	-0.1251322	-0.8485541	0	0	0.7047193	-0.9329666
19.33882	-0.1251322	-0.8485541	0	0	0	0
19.35541	-0.1251581	-0.8485198	-0.001560525	0.002065136	-0.0470561	0.06227216
19.37229	-0.1251581	-0.8485198	0	0	0.04662702	-0.06170434
19.38852	-0.1251581	-0.8485198	0	0	0	0
19.40508	-0.1252618	-0.8483827	-0.006255397	0.008279361	-0.1907427	0.2524584
19.42165	-0.1252618	-0.8483827	0	0	0.1887883	-0.2498716
19.43834	-0.1252618	-0.8483827	0	0	0	0
19.45478	-0.1253654	-0.8482456	-0.006303298	0.008339134	-0.1902558	0.2517045
19.47135	-0.1253654	-0.8482456	0	0	0.1909594	-0.2526354
19.48792	-0.1253654	-0.8482456	0	0	0	0
19.50448	-0.1254172	-0.848177	-0.003128419	0.004138834	-0.09442674	0.1249247
19.52106	-0.1254172	-0.848177	0	0	0.09439413	-0.1248815
19.53826	-0.1254172	-0.848177	0	0	0	0
19.55418	-0.1254172	-0.8481085	0	0.004304923	0	0.1299752
19.57075	-0.1254172	-0.8481085	0	0	0	-0.1325009
19.58732	-0.1254172	-0.8481085	0	0	0	0
19.60388	-0.1254431	-0.8480742	-0.00156322	0.002068703	-0.04717806	0.06243357
19.62073	-0.1254431	-0.8480742	0	0	0.04678754	-0.06191676
19.63702	-0.1254431	-0.8480742	0	0	0	0
19.65359	-0.125469	-0.8481085	-0.001564119	-0.002068703	-0.04760253	-0.06295907
19.67015	-0.125469	-0.8481085	0	0	0.04720521	0.06243357
19.68673	-0.125469	-0.8481085	0	0	0	0
19.70329	-0.125469	-0.8481085	0	0	0	0
19.71985	-0.125469	-0.8481085	0	0	0	0
19.73642	-0.125469	-0.8481085	0	0	0	0
19.75303	-0.1254431	-0.8480742	0.001560167	0.002063476	0.0470291	0.06220064
19.76963	-0.1254431	-0.8480742	0	0	-0.04697508	-0.0621292
19.78612	-0.1254431	-0.8480742	0	0	0	0
19.80269	-0.1260647	-0.8469784	-0.03752267	0.06614451	-1.135181	2.001083
19.81934	-0.1260647	-0.8469784	0	0	1.129446	-1.990973
19.83646	-0.1260647	-0.8469784	0	0	0	0
19.85245	-0.1421402	-0.8227782	-1.005029	1.512979	-30.3528	45.69337
19.86896	-0.1421402	-0.8227782	0	0	30.92099	-46.54873
19.88552	-0.1421402	-0.8227782	0	0	0	0
19.90209	-0.1624248	-0.7586217	-1.224382	3.872496	-36.96044	116.8991
19.91866	-0.1624248	-0.7586217	0	0	36.95193	-116.8722
19.93559	-0.1624248	-0.7586217	0	0	0	0
19.95179	-0.1622967	-0.6702921	0.007911858	5.453382	0.2387803	164.5834
19.96853	-0.1622967	-0.6702921	0	0	-0.2402185	-165.5746
19.98492	-0.1622967	-0.6702921	0	0	0	0
20.00181	-0.1395089	-0.5736287	1.349224	5.723264	40.53531	171.9465
20.01806	-0.1395089	-0.5736287	0	0	-40.71965	-172.7284
20.03526	-0.1395089	-0.5736287	0	0	0	0
20.05119	-0.116081	-0.4935676	1.470129	5.023945	44.37114	151.6317
20.06776	-0.116081	-0.4935676	0	0	-45.23039	-154.5681
20.08432	-0.116081	-0.4935676	0	0	0	0
20.10471	-0.1009712	-0.4281119	0.7410558	3.210255	20.05299	86.86958
20.12128	-0.1009712	-0.4281119	0	0	-20.04989	-86.85613
20.13785	-0.09583709	-0.4060528	0.3098984	1.331491	9.351675	40.17984
20.15442	-0.09583709	-0.4060528	0	0	-9.352752	-40.18447
20.17133	-0.09583709	-0.4060528	0	0	0	0
20.18755	-0.07980384	-0.3791243	0.9880159	1.659413	29.81838	50.08117
20.20412	-0.07980384	-0.3791243	0	0	-30.12707	-50.59963
20.22084	-0.07980384	-0.3791243	0	0	0	0
20.23746	-0.06535416	-0.3650301	0.8695814	0.8481871	26.08336	25.44164
20.25382	-0.06535416	-0.3650301	0	0	-26.36848	-25.71974
20.27039	-0.06535416	-0.3650301	0	0	0	0
20.28702	-0.05953483	-0.3600197	0.3499665	0.3013216	10.54259	9.077184
20.30359	-0.05953483	-0.3600197	0	0	-10.54138	-9.076141
20.32009	-0.05953483	-0.3600197	0	0	0	0
20.33665	-0.05140205	-0.3530835	0.4909517	0.4187176	14.84772	12.66317
20.35337	-0.05140205	-0.3530835	0	0	-14.74988	-12.57972
20.37001	-0.05140205	-0.3530835	0	0	0	0
20.38659	-0.05032589	-0.3521799	0.06491967	0.05450682	1.954554	1.641051
20.40292	-0.05032589	-0.3521799	0	0	-1.972679	-1.656269
20.41949	-0.05032589	-0.3521799	0	0	0	0
20.43621	-0.05027339	-0.3521359	0.003140017	0.002636251	0.0943315	0.0791975
20.4533	-0.05027339	-0.3521359	0	0	-0.09287336	-0.0779733
20.46921	-0.05027339	-0.3521359	0	0	0	0
20.4864	-0.0502209	-0.3520918	0.003054088	0.002562555	0.09226283	0.07741383
20.50232	-0.0502209	-0.3520918	0	0	-0.09223626	-0.07739154
20.51889	-0.0502209	-0.3520918	0	0	0	0
20.53546	-0.0502209	-0.3521359	0	-0.002658732	0	-0.0802407
20.55202	-0.0502209	-0.3521359	0	0	0	0.08024532
20.56866	-0.0502209	-0.3521359	0	0	0	0
20.58515	-0.0501684	-0.3521799	0.00318323	-0.002672531	0.09608114	-0.08066643
20.60172	-0.0501684	-0.3521799	0	0	-0.09628068	0.08083396
20.61829	-0.0501684	-0.3521799	0	0	0	0
20.63485	-0.0500109	-0.3523562	0.009508776	-0.01064098	0.2870085	-0.3211823
20.65142	-0.0500109	-0.3523562	0	0	-0.286992	0.3211638
20.66828	-0.0500109	-0.3523562	0	0	0	0
20.68455	-0.0500109	-0.3524003	0	-0.002708871	0	-0.08175859
20.70112	-0.0500109	-0.3524003	0	0	0	0.08248989
20.71837	-0.0500109	-0.3524003	0	0	0	0
20.73425	-0.0500109	-0.3524003	0	0	0	0
20.75082	-0.0500109	-0.3524003	0	0	0	0
20.76739	-0.0500109	-0.3524003	0	0	0	0
20.78995	-0.0499584	-0.3527529	0.002327138	-0.01562896	0.059476	-0.3994384
20.80693	-0.0499584	-0.3527529	0	0	-0.05884492	0.3952001
20.82308	-0.04998465	-0.3527749	-0.001625336	-0.00136375	-0.04904991	-0.0411557
20.84005	-0.04998465	-0.3527749	0	0	0.04907816	0.0411794
20.85622	-0.04998465	-0.3527749	0	0	0	0
20.87279	-0.05003715	-0.3528631	-0.003168938	-0.005322861	-0.09680899	-0.16261
20.88965	-0.05003715	-0.3528631	0	0	0.09479835	0.1592327
20.90592	-0.05003715	-0.3528631	0	0	0	0
20.92288	-0.05045713	-0.353348	-0.02475774	-0.02858669	-0.7449173	-0.8601238
20.93905	-0.05045713	-0.353348	0	0	0.74719	0.862748
20.95611	-0.05045713	-0.353348	0	0	0	0
20.97218	-0.05056213	-0.3534362	-0.00653166	-0.00548766	-0.1971486	-0.165637
20.98875	-0.05056213	-0.3534362	0	0	0.2000976	0.1681147
21.0055	-0.05056213	-0.3534362	0	0	0	0
21.02188	-0.05061463	-0.3534803	-0.003203752	-0.002689952	-0.09670057	-0.08119226
21.03845	-0.05061463	-0.3534803	0	0	0.09720985	0.08161985
21.05502	-0.05061463	-0.3534803	0	0	0	0
21.07158	-0.05066713	-0.3535685	-0.003169807	-0.0053265	-0.09568701	-0.1607911
21.08815	-0.05066713	-0.3535685	0	0	0.09567048	0.1607634
21.10472	-0.05066713	-0.3535685	0	0	0	0
21.12138	-0.05090336	-0.3538111	-0.01417737	-0.01455722	-0.4266705	-0.438102
21.13799	-0.05090336	-0.3538111	0	0	0.4261323	0.4375495
21.15483	-0.05090336	-0.3538111	0	0	0	0
21.17098	-0.05090336	-0.3538552	0	-0.002731192	0	-0.08277058
21.18755	-0.05090336	-0.3538552	0	0	0	0.08347992
21.20412	-0.05090336	-0.3538552	0	0	0	0
21.22068	-0.05092961	-0.3538772	-0.001584356	-0.001331165	-0.04781597	-0.04017464
21.23725	-0.05092961	-0.3538772	0	0	0.04781597	0.04017464
21.25389	-0.05092961	-0.3538772	0	0	0	0
21.27094	-0.05092961	-0.3539214	0	-0.002586978	0	-0.07678452
21.28727	-0.05092961	-0.3539214	0	0	0	0.0775041
21.30443	-0.05092961	-0.3539214	0	0	0	0
21.32066	-0.05092961	-0.3539214	0	0	0	0
21.33665	-0.05092961	-0.3539214	0	0	0	0
21.35325	-0.05092961	-0.3539214	0	0	0	0
21.36986	-0.05092961	-0.3539655	0	-0.002655909	0	-0.07998054
21.38635	-0.05092961	-0.3539655	0	0	0	0.08023863
21.40292	-0.05092961	-0.3539655	0	0	0	0
21.41948	-0.05090336	-0.3539875	0.001584539	-0.001331318	0.04782423	-0.04018158
21.43611	-0.05090336	-0.3539875	0	0	-0.04773903	0.04011
21.45277	-0.05090336	-0.3539875	0	0	0	0
21.48921	-0.05090336	-0.3540316	0	-0.001210289	0	-0.02279076
21.50595	-0.05090336	-0.3540316	0	0	0	0.02275561
21.52257	-0.05090336	-0.3540316	0	0	0	0
21.53892	-0.05090336	-0.3540316	0	0	0	0
21.55548	-0.05090336	-0.3540316	0	0	0	0
21.57241	-0.05090336	-0.3540316	0	0	0	0
21.58862	-0.05090336	-0.3540316	0	0	0	0
21.60518	-0.05090336	-0.3540316	0	0	0	0
21.62251	-0.05090336	-0.3540316	0	0	0	0
21.63832	-0.05090336	-0.3540316	0	0	0	0
21.65488	-0.05090336	-0.3540316	0	0	0	0
21.67194	-0.05090336	-0.3540316	0	0	0	0
21.68802	-0.05090336	-0.3540316	0	0	0	0
21.70469	-0.05090336	-0.3540316	0	0	0	0
21.7217	-0.05090336	-0.3540316	0	0	0	0
21.73772	-0.05090336	-0.3540316	0	0	0	0
21.75428	-0.05090336	-0.3540316	0	0	0	0
21.77124	-0.05090336	-0.3540316	0	0	0	0
21.78742	-0.05090336	-0.3540316	0	0	0	0
21.80398	-0.05090336	-0.3540316	0	0	0	0
21.82055	-0.05090336	-0.3540316	0	0	0	0
21.83712	-0.05090336	-0.3540316	0	0	0	0
21.85381	-0.05090336	-0.3540316	0	0	0	0
21.87031	-0.05090336	-0.3540316	0	0	0	0
21.88731	-0.05090336	-0.3540316	0	0	0	0
21.90338	-0.05090336	-0.3540316	0	0	0	0
21.91995	-0.05090336	-0.3540316	0	0	0	0
21.93652	-0.05090336	-0.3540316	0	0	0	0
21.95308	-0.05090336	-0.3540316	0	0	0	0
21.96965	-0.05090336	-0.3540316	0	0	0	0
21.98639	-0.05090336	-0.3540316	0	0	0	0
22.00289	-0.05090336	-0.3540316	0	0	0	0
22.01935	-0.05090336	-0.3540316	0	0	0	0
22.03593	-0.05090336	-0.3540316	0	0	0	0
22.05249	-0.05090336	-0.3540316	0	0	0	0
22.06905	-0.05090336	-0.3540316	0	0	0	0
22.08562	-0.05090336	-0.3540316	0	0	0	0
22.10248	-0.05090336	-0.3540316	0	0	0	0
22.11875	-0.05090336	-0.3540316	0	0	0	0
22.13532	-0.05090336	-0.3540316	0	0	0	0
22.15203	-0.05090336	-0.3540316	0	0	0	0
22.16906	-0.05090336	-0.3540316	0	0	0	0
22.18558	-0.05090336	-0.3540316	0	0	0	0
22.20159	-0.05090336	-0.3540316	0	0	0	0
22.21815	-0.05090336	-0.3540316	0	0	0	0
22.23472	-0.05090336	-0.3540316	0	0	0	0
22.25129	-0.05090336	-0.3540316	0	0	0	0
22.26786	-0.05090336	-0.3540316	0	0	0	0
22.28458	-0.05090336	-0.3540316	0	0	0	0
22.30099	-0.05090336	-0.3540316	0	0	0	0
22.31756	-0.05090336	-0.3540316	0	0	0	0
22.33412	-0.05090336	-0.3540316	0	0	0	0
22.35069	-0.05090336	-0.3540316	0	0	0	0
22.36726	-0.05092961	-0.3540537	-0.001584356	-0.001331165	-0.04781872	-0.04017695
22.38437	-0.05092961	-0.3540537	0	0	0.04704418	0.03952619
22.40039	-0.05092961	-0.3540537	0	0	0	0
22.41696	-0.05090336	-0.3540757	0.001584174	-0.001331012	0.04860507	-0.04083764
22.43353	-0.05090336	-0.3540757	0	0	-0.04781046	0.04017002
22.45014	-0.05090336	-0.3540757	0	0	0	0
22.46666	-0.05092961	-0.3540978	-0.00158948	-0.00133547	-0.04797336	-0.04030689
22.48327	-0.05092961	-0.3540978	0	0	0.04797613	0.04030921
22.50023	-0.05092961	-0.3540978	0	0	0	0
22.51636	-0.05092961	-0.3540978	0	0	0	0
22.53292	-0.05092961	-0.3540978	0	0	0	0
22.54978	-0.05092961	-0.3540978	0	0	0	0
22.56606	-0.05092961	-0.3540978	0	0	0	0
22.58263	-0.05092961	-0.3540978	0	0	0	0
22.59919	-0.05092961	-0.3540978	0	0	0	0
22.61614	-0.05092961	-0.3540978	0	0	0	0
22.63233	-0.05092961	-0.3540978	0	0	0	0
22.64966	-0.05092961	-0.3540978	0	0	0	0
22.66616	-0.05092961	-0.3540978	0	0	0	0
22.68229	-0.05092961	-0.3540978	0	0	0	0
22.69883	-0.05092961	-0.3540978	0	0	0	0
22.71515	-0.05092961	-0.3540978	0	0	0	0
22.73173	-0.05092961	-0.3540978	0	0	0	0
22.74852	-0.05092961	-0.3540978	0	0	0	0
22.76486	-0.05092961	-0.3540978	0	0	0	0
22.78142	-0.05092961	-0.3540978	0	0	0	0
22.79886	-0.05092961	-0.3540978	0	0	0	0
22.8149	-0.05092961	-0.3540978	0	0	0	0
22.83147	-0.05092961	-0.3540978	0	0	0	0
22.84804	-0.05092961	-0.3540978	0	0	0	0
22.8646	-0.05092961	-0.3540978	0	0	0	0
22.88117	-0.05092961	-0.3540978	0	0	0	0
22.89833	-0.05092961	-0.3540978	0	0	0	0
22.91451	-0.05092961	-0.3540978	0	0	0	0
22.93102	-0.05092961	-0.3540978	0	0	0	0
22.94744	-0.05092961	-0.3540978	0	0	0	0
22.96422	-0.05092961	-0.3540978	0	0	0	0
22.98057	-0.05092961	-0.3540978	0	0	0	0
22.99739	-0.05092961	-0.3540978	0	0	0	0
23.01371	-0.05092961	-0.3540978	0	0	0	0
23.03027	-0.05092961	-0.3540978	0	0	0	0
23.04684	-0.05092961	-0.3540978	0	0	0	0
23.0634	-0.05092961	-0.3540978	0	0	0	0
23.07997	-0.05092961	-0.3540978	0	0	0	0
23.09686	-0.05092961	-0.3540978	0	0	0	0
23.11344	-0.05092961	-0.3540978	0	0	0	0
23.12967	-0.05092961	-0.3540978	0	0	0	0
23.14637	-0.05092961	-0.3540978	0	0	0	0
23.1628	-0.05090336	-0.3541199	0.001597599	-0.001344106	0.04821841	-0.04056752
23.17937	-0.05090336	-0.3541199	0	0	-0.0484135	0.04073166
23.19594	-0.05090336	-0.3541199	0	0	0	0
23.21251	-0.05092961	-0.3540978	-0.001584356	0.001332964	-0.04781872	0.04023125
23.22907	-0.05092961	-0.3540978	0	0	0.04781872	-0.04023125
23.2459	-0.05092961	-0.3540978	0	0	0	0
23.2622	-0.05090336	-0.3541199	0.001610688	-0.001355118	0.04861626	-0.04090224
23.27877	-0.05090336	-0.3541199	0	0	-0.04901128	0.04123459
23.29543	-0.05090336	-0.3541199	0	0	0	0
23.3119	-0.05092961	-0.3541419	-0.001592976	-0.001338407	-0.04807334	-0.04039089
23.32847	-0.05092961	-0.3541419	0	0	0.04820653	0.04050279
23.34504	-0.05092961	-0.3541419	0	0	0	0
23.3616	-0.05092961	-0.3541419	0	0	0	0
23.3782	-0.05092961	-0.3541419	0	0	0	0
23.39529	-0.05092961	-0.3541419	0	0	0	0
23.41154	-0.05092961	-0.3541419	0	0	0	0
23.42813	-0.05092961	-0.3541419	0	0	0	0
23.44481	-0.05092961	-0.3541419	0	0	0	0
23.461	-0.05092961	-0.3541419	0	0	0	0
23.47757	-0.05092961	-0.3541419	0	0	0	0
23.49413	-0.05092961	-0.3541419	0	0	0	0
23.5107	-0.05092961	-0.3541419	0	0	0	0
23.52727	-0.05092961	-0.3541419	0	0	0	0
23.54384	-0.05092961	-0.3541419	0	0	0	0
23.5604	-0.05092961	-0.3541419	0	0	0	0
23.57697	-0.05092961	-0.3541419	0	0	0	0
23.59354	-0.05092961	-0.3541419	0	0	0	0
23.61011	-0.0499584	-0.35487	0.05862231	-0.04394464	1.769123	-1.326175
23.62667	-0.0499584	-0.35487	0	0	-1.769225	1.326252
23.64324	-0.0499584	-0.35487	0	0	0	0
23.65992	-0.038008	-0.3646305	0.7165425	-0.5852406	21.55334	-17.60382
23.67649	-0.038008	-0.3646305	0	0	-21.5521	17.60281
23.69305	-0.038008	-0.3646305	0	0	0	0
23.70962	-0.02123365	-0.3748742	1.012619	-0.6183794	30.56265	-18.6638
23.72619	-0.02123365	-0.3748742	0	0	-30.56089	18.66273
23.74276	-0.02123365	-0.3748742	0	0	0	0
23.7594	0.007789316	-0.3685199	1.744199	0.3818722	52.52514	11.49977
23.77589	0.007789316	-0.3685199	0	0	-52.64003	-11.52493
23.79246	0.007789316	-0.3685199	0	0	0	0
23.80974	0.04709673	-0.3538331	2.274658	0.8499017	67.20252	25.1095
23.82559	0.04709673	-0.3538331	0	0	-68.65327	-25.65156
23.84216	0.04709673	-0.3538331	0	0	0	0
23.85872	0.08186923	-0.3365226	2.098872	1.044866	63.3441	31.53411
23.87562	0.08186923	-0.3365226	0	0	-62.73022	-31.22851
23.89186	0.08186923	-0.3365226	0	0	0	0
23.90842	0.1067245	-0.3166649	1.500268	1.198613	45.72831	36.53384
23.92499	0.1067245	-0.3166649	0	0	-45.2808	-36.17631
23.94156	0.1067245	-0.3166649	0	0	0	0
23.95814	0.1327928	-0.3075604	1.572039	0.549046	47.42513	16.56357
23.97469	0.1327928	-0.3075604	0	0	-47.44697	-16.5712
23.99144	0.1327928	-0.3075604	0	0	0	0
24.00782	0.1418307	-0.3040858	0.5515611	0.2120442	16.64614	6.399508
24.02439	0.1418307	-0.3040858	0	0	-16.73768	-6.434696
24.04146	0.1418307	-0.3040858	0	0	0	0
24.05752	0.1426817	-0.3046215	0.05298675	-0.03335993	1.599143	-1.006805
24.07499	0.1426817	-0.3046215	0	0	-1.580313	0.9949492
24.09066	0.1426817	-0.3046215	0	0	0	0
24.10732	0.1519512	-0.2993139	0.5564964	0.3186477	17.2173	9.858559
24.12379	0.1519512	-0.2993139	0	0	-16.79606	-9.617359
24.14036	0.1519512	-0.2993139	0	0	0	0
24.15702	0.1585526	-0.2949382	0.3960923	0.2625458	11.91841	7.9
24.17935	0.1585526	-0.2949382	0	0	-10.15931	-6.733995
24.19592	0.1585526	-0.2949382	0	0	0	0
24.26546	0.1850683	-0.3176794	0.3813007	-0.3270236	4.428109	-3.797779
24.28202	0.1850683	-0.3176794	0	0	-4.428109	3.797779
24.29859	0.1858563	-0.3184353	0.04756667	-0.04562479	1.435482	-1.376879
24.31516	0.1858563	-0.3184353	0	0	-1.435482	1.376879
24.3319	0.1858563	-0.3184353	0	0	0	0
24.34966	0.1859072	-0.3186945	0.002862653	-0.01459945	0.08298433	-0.4232177
24.36643	0.1859072	-0.3186945	0	0	-0.08291557	0.422867
24.38279	0.1859072	-0.3186945	0	0	0	0
24.39936	0.1856784	-0.318889	-0.01380883	-0.01173899	-0.4193099	-0.3564584
24.4164	0.1856784	-0.318889	0	0	0.4109322	0.3493365
24.43249	0.1856784	-0.318889	0	0	0	0
24.44918	0.1856784	-0.318889	0	0	0	0
24.46563	0.1856784	-0.318889	0	0	0	0
24.48232	0.1856784	-0.318889	0	0	0	0
24.5002	0.1856276	-0.3189754	-0.002842424	-0.004831787	-0.08220247	-0.1397346
24.51678	0.1856276	-0.3189754	0	0	0.08248913	0.1402218
24.53334	0.1856276	-0.3189754	0	0	0	0
24.55013	0.1856784	-0.3191483	0.003027743	-0.01029539	0.09076097	-0.3086192
24.56665	0.1856784	-0.3191483	0	0	-0.09090129	0.3090964
24.58304	0.1856784	-0.3191483	0	0	0	0
24.60007	0.1857293	-0.3195805	0.002985485	-0.02538756	0.08934607	-0.759769
24.61684	0.1857293	-0.3195805	0	0	-0.08833262	0.7511509
24.63335	0.1857293	-0.3195805	0	0	0	0
24.64993	0.1851446	-0.3202507	-0.03527582	-0.04043441	-1.066099	-1.222001
24.66633	0.1851446	-0.3202507	0	0	1.069552	1.225959
24.6829	0.1851446	-0.3202507	0	0	0	0
24.69974	0.1826773	-0.3225659	-0.1465452	-0.1375149	-4.387135	-4.116793
24.71642	0.1826773	-0.3225659	0	0	4.372653	4.103204
24.7326	0.1826773	-0.3225659	0	0	0	0
24.74917	0.1826773	-0.3226092	0	-0.002616162	0	-0.07988016
24.76575	0.1826773	-0.3226092	0	0	0	0.07891958
24.7823	0.1826773	-0.3226092	0	0	0	0
24.80264	0.1826519	-0.3226309	-0.001250557	-0.001063742	-0.03389959	-0.0288355
24.81982	0.1826519	-0.3226309	0	0	0.03333089	0.02835176
24.83578	0.182601	-0.3226742	-0.003189995	-0.002713737	-0.09626871	-0.08189604
24.85235	0.182601	-0.3226742	0	0	0.09808094	0.08343771
24.86891	0.182601	-0.3226742	0	0	0	0
24.89338	0.1825246	-0.3227392	-0.003120736	-0.002655945	-0.07606175	-0.06473341
24.90995	0.1825246	-0.3227392	0	0	0.07605468	0.06472739
24.92653	0.1825246	-0.3227392	0	0	0	0
24.94308	0.1825246	-0.3227392	0	0	0	0
24.95965	0.1825246	-0.3227392	0	0	0	0
24.97645	0.1824992	-0.3227175	-0.001514614	0.001289373	-0.04538717	0.03863756
24.99278	0.1824992	-0.3227175	0	0	0.04571114	-0.03891335
25.00935	0.1824992	-0.3227175	0	0	0	0
25.02605	0.1823719	-0.3226525	-0.007621516	0.003889293	-0.229121	0.1169214
25.04257	0.1823719	-0.3226525	0	0	0.2294367	-0.1170826
25.05914	0.1823719	-0.3226525	0	0	0	0
25.07561	0.182092	-0.3227175	-0.01699054	-0.003941067	-0.5141369	-0.1192574
25.09223	0.182092	-0.3227175	0	0	0.5134552	0.1190993
25.10875	0.182092	-0.3227175	0	0	0	0
25.12543	0.17018	-0.3327723	-0.7142389	-0.6028848	-21.51119	-18.15747
25.14189	0.17018	-0.3327723	0	0	21.55701	18.19615
25.15859	0.17018	-0.3327723	0	0	0	0
25.1751	0.1170156	-0.3783182	-3.219386	-2.758044	-96.92135	-83.03239
25.19166	0.1170156	-0.3783182	0	0	97.34055	83.39153
25.20824	0.1170156	-0.3783182	0	0	0	0
25.22472	0.06317896	-0.4247396	-3.267644	-2.817574	-98.84528	-85.2308
25.24128	0.06317896	-0.4247396	0	0	98.90234	85.28
25.25785	0.06317896	-0.4247396	0	0	0	0
25.27442	0.03104266	-0.4381821	-1.939975	-0.8114835	-58.55192	-24.49203
25.29098	0.03104266	-0.4381821	0	0	58.55192	24.49203
25.30795	0.03104266	-0.4381821	0	0	0	0
25.3243	0.01473578	-0.4240476	-0.9971427	0.8643027	-29.92844	25.94135
25.34068	0.01473578	-0.4240476	0	0	30.46029	-26.40235
25.35725	0.01473578	-0.4240476	0	0	0	0
25.37432	-0.002342101	-0.4091551	-1.000304	0.8723013	-29.73565	25.93055
25.39038	-0.002342101	-0.4091551	0	0	30.19099	-26.32762
25.40704	-0.002342101	-0.4091551	0	0	0	0
25.42352	-0.008420854	-0.403844	-0.3688677	0.3222873	-11.13309	9.727211
25.44059	-0.008420854	-0.403844	0	0	10.99448	-9.606104
25.45665	-0.008420854	-0.403844	0	0	0	0
25.47331	-0.008420854	-0.403844	0	0	0	0
25.48978	-0.008420854	-0.403844	0	0	0	0
25.50635	-0.008420854	-0.403844	0	0	0	0
25.52292	-0.008394539	-0.4038212	0.001588347	0.001374338	0.04793642	0.04147761
25.53948	-0.008394539	-0.4038212	0	0	-0.04793642	-0.04147761
25.55656	-0.008394539	-0.4038212	0	0	0	0
25.58305	-0.008368226	-0.4037984	0.0009932253	0.0008594312	0.02279631	0.01972549
25.59962	-0.008368226	-0.4037984	0	0	-0.02306489	-0.0199579
25.61619	-0.008368226	-0.4037984	0	0	0	0
25.63297	-0.008368226	-0.4037984	0	0	0	0
25.64932	-0.008368226	-0.4037984	0	0	0	0
25.66589	-0.008394539	-0.4037757	-0.001588474	0.001372697	-0.04824853	0.04169449
25.68246	-0.008394539	-0.4037757	0	0	0.04794024	-0.04142808
25.69903	-0.008394539	-0.4037757	0	0	0	0
25.71559	-0.008394539	-0.4037757	0	0	0	0
25.73216	-0.008394539	-0.4037757	0	0	0	0
25.749	-0.008394539	-0.4037757	0	0	0	0
25.76529	-0.008394539	-0.4037757	0	0	0	0
25.78218	-0.008394539	-0.4037757	0	0	0	0
25.79852	-0.008394539	-0.4037757	0	0	0	0
25.81499	-0.008394539	-0.4037757	0	0	0	0
25.83157	-0.008394539	-0.4037757	0	0	0	0
25.84813	-0.008394539	-0.4037757	0	0	0	0
25.86469	-0.008394539	-0.4037757	0	0	0	0
25.88126	-0.008394539	-0.4037757	0	0	0	0
25.89783	-0.008394539	-0.4037757	0	0	0	0
25.91439	-0.008394539	-0.4037757	0	0	0	0
25.93122	-0.008394539	-0.4037757	0	0	0	0
25.94793	-0.008394539	-0.4037757	0	0	0	0
25.9641	-0.008368226	-0.4037984	0.001627643	-0.001406545	0.0495042	-0.04277959
25.981	-0.008368226	-0.4037984	0	0	-0.04921584	0.0425304
25.99767	-0.008368226	-0.4037984	0	0	0	0
26.01431	-0.008368226	-0.4037984	0	0	0	0
26.03043	-0.008368226	-0.4037984	0	0	0	0
26.0475	-0.008368226	-0.4037984	0	0	0	0
26.0635	-0.008368226	-0.4037984	0	0	0	0
26.08011	-0.008368226	-0.4037984	0	0	0	0
26.09663	-0.008368226	-0.4037984	0	0	0	0
26.1132	-0.008368226	-0.4037984	0	0	0	0
26.12992	-0.008368226	-0.4037984	0	0	0	0
26.14679	-0.008368226	-0.4037984	0	0	0	0
26.1629	-0.008368226	-0.4037984	0	0	0	0
26.17951	-0.008368226	-0.4037984	0	0	0	0
26.19655	-0.008368226	-0.4037984	0	0	0	0
26.2126	-0.008368226	-0.4037984	0	0	0	0
26.22954	-0.008368226	-0.4037984	0	0	0	0
26.24604	-0.008368226	-0.4037984	0	0	0	0
26.2627	-0.008368226	-0.4037984	0	0	0	0
26.27926	-0.008368226	-0.4037984	0	0	0	0
26.29623	-0.008368226	-0.4037984	0	0	0	0
26.3124	-0.008394539	-0.4038212	-0.001627259	-0.001408056	-0.04911076	-0.04249522
26.32896	-0.008394539	-0.4038212	0	0	0.0497088	0.0430127
26.34608	-0.008394539	-0.4038212	0	0	0	0
26.3621	-0.008394539	-0.4038212	0	0	0	0
26.37867	-0.008394539	-0.4038212	0	0	0	0
26.39586	-0.008394539	-0.4038212	0	0	0	0
26.4118	-0.008394539	-0.4038212	0	0	0	0
26.42837	-0.008394539	-0.4038212	0	0	0	0
26.44557	-0.008394539	-0.4038212	0	0	0	0
26.4615	-0.008368226	-0.403844	0.001652203	-0.001429641	0.04986647	-0.04314912
26.47807	-0.008368226	-0.403844	0	0	-0.05084407	0.04399504
26.49463	-0.008368226	-0.403844	0	0	0	0
26.5112	-0.008368226	-0.403844	0	0	0	0
26.52807	-0.008368226	-0.403844	0	0	0	0
26.54433	-0.008368226	-0.403844	0	0	0	0
26.5609	-0.008341912	-0.4038667	0.001588291	-0.001372539	0.04838032	-0.04180838
26.57762	-0.008341912	-0.4038667	0	0	-0.0477232	0.04124052
26.59419	-0.008341912	-0.4038667	0	0	0	0
26.61079	-0.008341912	-0.4038667	0	0	0	0
26.62735	-0.008341912	-0.4038667	0	0	0	0
26.64383	-0.008341912	-0.4038667	0	0	0	0
26.66217	-0.008341912	-0.4038667	0	0	0	0
26.67874	-0.008341912	-0.4038667	0	0	0	0
26.6953	-0.008341912	-0.4038667	0	0	0	0
26.71187	-0.008315598	-0.4038895	0.001588165	-0.00137418	0.04793091	-0.04147283
26.72844	-0.008315598	-0.4038895	0	0	-0.04792815	0.04147044
26.74501	-0.008315598	-0.4038895	0	0	0	0
26.7616	-0.008315598	-0.4038895	0	0	0	0
26.77814	-0.008315598	-0.4038895	0	0	0	0
26.79471	-0.008315598	-0.4038895	0	0	0	0
26.81128	-0.008315598	-0.4038895	0	0	0	0
26.82784	-0.008315598	-0.4038895	0	0	0	0
26.84523	-0.008315598	-0.4038895	0	0	0	0
26.86098	-0.008289284	-0.4039122	0.001671217	-0.001444201	0.05044034	-0.04358857
26.87754	-0.008289284	-0.4039122	0	0	-0.05172063	0.04469494
26.89443	-0.008289284	-0.4039122	0	0	0	0
26.91415	-0.008289284	-0.4039122	0	0	0	0
26.93072	-0.008289284	-0.4039122	0	0	0	0
26.94729	-0.008289284	-0.4039122	0	0	0	0
26.96386	-0.008315598	-0.403935	-0.001588108	-0.00137418	-0.04793197	-0.04147522
26.98042	-0.008315598	-0.403935	0	0	0.04792645	0.04147044
26.99699	-0.008315598	-0.403935	0	0	0	0
27.01355	-0.008289284	-0.4039577	0.001588474	-0.001372697	0.04794852	-0.04143524
27.03012	-0.008289284	-0.4039577	0	0	-0.047943	0.04143047
27.04696	-0.008289284	-0.4039577	0	0	0	0
27.06325	-0.00826297	-0.4039805	0.001615502	-0.001397834	0.04875875	-0.04218913
27.07995	-0.00826297	-0.4039805	0	0	-0.04897585	0.04237698
27.09705	-0.00826297	-0.4039805	0	0	0	0
27.11318	-0.008210341	-0.404026	0.003263428	-0.002821925	0.09820779	-0.08492144
27.12952	-0.008210341	-0.404026	0	0	-0.1005097	0.0869119
27.14609	-0.008210341	-0.404026	0	0	0	0
27.16265	-0.008210341	-0.404026	0	0	0	0
27.17922	-0.008210341	-0.404026	0	0	0	0
27.19579	-0.008210341	-0.404026	0	0	0	0
27.21235	-0.008210341	-0.404026	0	0	0	0
27.22892	-0.008210341	-0.404026	0	0	0	0
27.24634	-0.008210341	-0.404026	0	0	0	0
27.26205	-0.008210341	-0.404026	0	0	0	0
27.27862	-0.008210341	-0.404026	0	0	0	0
27.29584	-0.008210341	-0.404026	0	0	0	0
27.31175	-0.008184028	-0.4040488	0.001653193	-0.001430497	0.04989922	-0.04317746
27.32832	-0.008184028	-0.4040488	0	0	-0.05088947	0.04403432
27.34489	-0.008184028	-0.4040488	0	0	0	0
27.36146	-0.008184028	-0.4040488	0	0	0	0
27.37802	-0.008184028	-0.4040488	0	0	0	0
27.39459	-0.008184028	-0.4040488	0	0	0	0
27.41165	-0.008184028	-0.4040488	0	0	0	0
27.42772	-0.008184028	-0.4040488	0	0	0	0
27.44447	-0.008184028	-0.4040488	0	0	0	0
27.46086	-0.008184028	-0.4040488	0	0	0	0
27.47742	-0.008184028	-0.4040488	0	0	0	0
27.49399	-0.008184028	-0.4040488	0	0	0	0
27.51065	-0.008157713	-0.4040715	0.001579257	-0.001364683	0.04752528	-0.04106803
27.52748	-0.008157713	-0.4040715	0	0	-0.0471491	0.04074296
27.54369	-0.008157713	-0.4040715	0	0	0	0
27.56047	-0.008157713	-0.4040715	0	0	0	0
27.57682	-0.008157713	-0.4040715	0	0	0	0
27.59339	-0.008157713	-0.4040715	0	0	0	0
27.60995	-0.0081314	-0.4040943	0.001588474	-0.001374496	0.04794576	-0.04148716
27.62652	-0.0081314	-0.4040943	0	0	-0.047943	0.04148477
27.64309	-0.0081314	-0.4040943	0	0	0	0
27.66005	-0.008157713	-0.404117	-0.00155167	-0.00134265	-0.04627806	-0.0400441
27.67647	-0.008157713	-0.404117	0	0	0.04648697	0.04022487
27.69279	-0.008157713	-0.404117	0	0	0	0
27.70947	-0.0081314	-0.4041398	0.001577215	-0.001362967	0.0477875	-0.04129608
27.72636	-0.0081314	-0.4041398	0	0	-0.04698647	0.04060386
27.74262	-0.0081314	-0.4041398	0	0	0	0
27.75905	-0.008078772	-0.4041853	0.003202447	-0.002771007	0.09794684	-0.08475125
27.77575	-0.008078772	-0.4041853	0	0	-0.09665005	0.08362917
27.79219	-0.008078772	-0.4041853	0	0	0	0
27.80883	-0.007973515	-0.4042764	0.006324154	-0.005470362	0.1911935	-0.1653814
27.82532	-0.007973515	-0.4042764	0	0	-0.1908743	0.1651053
27.84189	-0.007973515	-0.4042764	0	0	0	0
27.85845	-0.007947201	-0.4042991	0.001589079	-0.001374971	0.04795851	-0.04149671
27.87518	-0.007947201	-0.4042991	0	0	-0.04774687	0.0413136
27.89173	-0.007947201	-0.4042991	0	0	0	0
27.90819	-0.007973515	-0.4043219	-0.001598099	-0.001380965	-0.04840067	-0.04182448
27.92522	-0.007973515	-0.4043219	0	0	0.04771435	0.04123141
27.94171	-0.007973515	-0.4043219	0	0	0	0
27.95785	-0.007947201	-0.4043446	0.001630008	-0.001410385	0.04995286	-0.04322235
27.97442	-0.007947201	-0.4043446	0	0	-0.04983053	0.0431165
27.99116	-0.007947201	-0.4043446	0	0	0	0
28.00755	-0.007920887	-0.4043674	0.001605107	-0.001388889	0.04844503	-0.04191916
28.02422	-0.007920887	-0.4043674	0	0	-0.04855124	0.04201106
28.04069	-0.007920887	-0.4043674	0	0	0	0
28.05745	-0.007920887	-0.4043674	0	0	0	0
28.07404	-0.007920887	-0.4043674	0	0	0	0
28.09063	-0.007920887	-0.4043674	0	0	0	0
28.10714	-0.007920887	-0.4043674	0	0	0	0
28.12371	-0.007920887	-0.4043674	0	0	0	0
28.14028	-0.007920887	-0.4043674	0	0	0	0
28.15714	-0.007920887	-0.4043674	0	0	0	0
28.17357	-0.007920887	-0.4043674	0	0	0	0
28.19064	-0.007920887	-0.4043674	0	0	0	0
28.20654	-0.007920887	-0.4043674	0	0	0	0
28.22311	-0.007920887	-0.4043674	0	0	0	0
28.23967	-0.007920887	-0.4043674	0	0	0	0
28.25624	-0.007920887	-0.4043674	0	0	0	0
28.2728	-0.007920887	-0.4043674	0	0	0	0
28.28937	-0.007920887	-0.4043674	0	0	0	0
28.30594	-0.007920887	-0.4043674	0	0	0	0
28.32251	-0.007920887	-0.4043674	0	0	0	0
28.33973	-0.007920887	-0.4043674	0	0	0	0
28.35564	-0.007920887	-0.4043674	0	0	0	0
28.37221	-0.007920887	-0.4043674	0	0	0	0
28.3891	-0.007920887	-0.4043674	0	0	0	0
28.40565	-0.007920887	-0.4043674	0	0	0	0
28.42213	-0.007920887	-0.4043674	0	0	0	0
28.43847	-0.007920887	-0.4043674	0	0	0	0
28.45504	-0.007920887	-0.4043674	0	0	0	0
28.47161	-0.007920887	-0.4043674	0	0	0	0
28.48817	-0.007920887	-0.4043674	0	0	0	0
28.50474	-0.007920887	-0.4043674	0	0	0	0
28.52177	-0.007920887	-0.4043674	0	0	0	0
28.53793	-0.007920887	-0.4043674	0	0	0	0
28.55444	-0.007920887	-0.4043674	0	0	0	0
28.57137	-0.007920887	-0.4043674	0	0	0	0
28.58757	-0.007920887	-0.4043674	0	0	0	0
28.60414	-0.007920887	-0.4043674	0	0	0	0
28.62071	-0.007920887	-0.4043674	0	0	0	0
28.63728	-0.007920887	-0.4043674	0	0	0	0
28.65444	-0.007894573	-0.4043902	0.001532932	-0.001326389	0.04544003	-0.03931757
28.67041	-0.007894573	-0.4043902	0	0	-0.04626664	0.0400328
28.68698	-0.007894573	-0.4043902	0	0	0	0
28.70358	-0.007894573	-0.4043902	0	0	0	0
28.72011	-0.007894573	-0.4043902	0	0	0	0
28.73667	-0.007894573	-0.4043902	0	0	0	0
28.75352	-0.007894573	-0.4043902	0	0	0	0
28.77001	-0.007894573	-0.4043902	0	0	0	0
28.7865	-0.007894573	-0.4043902	0	0	0	0
28.80294	-0.007894573	-0.4043902	0	0	0	0
28.81951	-0.007894573	-0.4043902	0	0	0	0
28.83646	-0.007894573	-0.4043902	0	0	0	0
28.85264	-0.007894573	-0.4043902	0	0	0	0
28.86972	-0.007894573	-0.4043902	0	0	0	0
28.88578	-0.007894573	-0.4043902	0	0	0	0
28.90234	-0.007894573	-0.4043902	0	0	0	0
28.91891	-0.007894573	-0.4043902	0	0	0	0
28.93594	-0.007894573	-0.4043902	0	0	0	0
28.95247	-0.007894573	-0.4043902	0	0	0	0
28.96878	-0.007894573	-0.4043902	0	0	0	0
28.98526	-0.007894573	-0.4043902	0	0	0	0
29.00183	-0.007894573	-0.4043902	0	0	0	0
29.01886	-0.007894573	-0.4043902	0	0	0	0
29.03488	-0.007894573	-0.4043902	0	0	0	0
29.05144	-0.007894573	-0.4043902	0	0	0	0
29.06801	-0.007894573	-0.4043902	0	0	0	0
29.08462	-0.007894573	-0.4043902	0	0	0	0
29.10114	-0.007894573	-0.4043902	0	0	0	0
29.11771	-0.007894573	-0.4043902	0	0	0	0
29.13428	-0.007894573	-0.4043902	0	0	0	0
29.15134	-0.007894573	-0.4043902	0	0	0	0
29.16741	-0.007894573	-0.4043902	0	0	0	0
29.18398	-0.007894573	-0.4043902	0	0	0	0
29.20054	-0.007894573	-0.4043902	0	0	0	0
29.21711	-0.007894573	-0.4043902	0	0	0	0
29.23371	-0.007894573	-0.4043902	0	0	0	0
29.25024	-0.007894573	-0.4043902	0	0	0	0
29.26683	-0.007894573	-0.4043902	0	0	0	0
29.28404	-0.007894573	-0.4043902	0	0	0	0
29.30047	-0.007789316	-0.4049366	0.00640418	-0.0332446	0.1903853	-0.988305
29.31704	-0.007789316	-0.4049366	0	0	-0.1940381	1.007267
29.33361	-0.007789316	-0.4049366	0	0	0	0
29.35018	-0.02325896	-0.422296	-0.9336423	-1.047697	-28.17576	-31.61774
29.36688	-0.02325896	-0.422296	0	0	28.05786	31.48544
29.38331	-0.02325896	-0.422296	0	0	0	0
29.39988	-0.09108934	-0.5096999	-4.094721	-5.276315	-124.1148	-159.93
29.41644	-0.09108934	-0.5096999	0	0	123.5931	159.2578
29.43347	-0.09108934	-0.5096999	0	0	0	0
29.44971	-0.1534422	-0.5947937	-3.838758	-5.238808	-115.3824	-157.464
29.46629	-0.1534422	-0.5947937	0	0	116.9513	159.6051
29.48335	-0.1534422	-0.5947937	0	0	0	0
29.49927	-0.2075214	-0.6614088	-3.395986	-4.183196	-102.9652	-126.8332
29.51647	-0.2075214	-0.6614088	0	0	102.5324	126.3
29.53241	-0.2075214	-0.6614088	0	0	0	0
29.54925	-0.2396714	-0.6979035	-1.909144	-2.167145	-58.24165	-66.11241
29.56604	-0.2396714	-0.6979035	0	0	56.762	64.43279
29.58214	-0.2396714	-0.6979035	0	0	0	0
29.59867	-0.2594391	-0.7213143	-1.195937	-1.416336	-36.65257	-43.40726
29.61524	-0.2594391	-0.7213143	0	0	36.13923	42.79931
29.63222	-0.2594391	-0.7213143	0	0	0	0
29.64872	-0.2742284	-0.7394948	-0.8959856	-1.101438	-26.75749	-32.89307
29.69358	-0.2742284	-0.7394948	0	0	14.60089	17.94892
29.71029	-0.2742284	-0.7394948	0	0	0	0
29.72679	-0.269638	-0.7716312	0.2780727	-1.946704	8.372489	-58.6133
29.74328	-0.269638	-0.7716312	0	0	-8.426689	58.99274
29.75985	-0.269638	-0.7716312	0	0	0	0
29.77642	-0.2639081	-0.7785386	0.3458583	-0.4169353	10.43802	-12.58313
29.7931	-0.2639081	-0.7785386	0	0	-10.4015	12.5391
29.8097	-0.2639081	-0.7785386	0	0	0	0
29.82638	-0.2635647	-0.7780975	0.0205797	0.02644176	0.6183559	0.7944923
29.84269	-0.2635647	-0.7780975	0	0	-0.6238619	-0.8015667
29.85925	-0.2635647	-0.7780975	0	0	0	0
29.87582	-0.2631967	-0.777625	0.02221503	0.028519	0.6704894	0.8607547
29.89239	-0.2631967	-0.777625	0	0	-0.6704508	-0.8607051
29.90896	-0.2631967	-0.777625	0	0	0	0
29.92553	-0.2631721	-0.7775935	0.001480301	0.001902987	0.04466786	0.05742235
29.94292	-0.2631721	-0.7775935	0	0	-0.04358666	-0.05603243
29.95865	-0.2631721	-0.7775935	0	0	0	0
29.97522	-0.2631967	-0.777562	-0.001480642	0.001899827	-0.04584167	0.05881993
29.99179	-0.2631967	-0.777562	0	0	0.04468843	-0.0573402
30.00835	-0.2631967	-0.777562	0	0	0	0
30.02492	-0.2631967	-0.7774991	0	0.003799217	0	0.1146606
30.04149	-0.2631967	-0.7774991	0	0	0	-0.1146606
30.05806	-0.2631967	-0.7774991	0	0	0	0
30.07462	-0.2631721	-0.7774046	0.001480471	0.005702423	0.04468072	0.1720995
30.09133	-0.2631721	-0.7774046	0	0	-0.04449375	-0.1713793
30.10776	-0.2631721	-0.7774046	0	0	0	0
30.12437	-0.2630985	-0.7773102	0.004430462	0.00568247	0.1340898	0.1719824
30.14097	-0.2630985	-0.7773102	0	0	-0.1333814	-0.1710738
30.15746	-0.2630985	-0.7773102	0	0	0	0
30.17402	-0.263074	-0.7772787	0.001480812	0.001900046	0.04480449	0.05748911
30.19059	-0.263074	-0.7772787	0	0	-0.04469615	-0.05735011
30.20717	-0.263074	-0.7772787	0	0	0	0
30.22606	-0.263074	-0.7772787	0	0	0	0
30.24323	-0.263074	-0.7772787	0	0	0	0
30.25942	-0.263074	-0.7772787	0	0	0	0
30.27576	-0.263074	-0.7772787	0	0	0	0
30.29233	-0.263074	-0.7772787	0	0	0	0
30.30899	-0.263074	-0.7772787	0	0	0	0
30.32554	-0.263074	-0.7772787	0	0	0	0
30.34203	-0.263074	-0.7772787	0	0	0	0
30.35872	-0.263074	-0.7772787	0	0	0	0
30.37516	-0.263074	-0.7772787	0	0	0	0
30.39173	-0.263074	-0.7772787	0	0	0	0
30.40837	-0.263074	-0.7772787	0	0	0	0
30.42498	-0.2630249	-0.7772158	0.002955257	0.003789619	0.08887264	0.1139642
30.44143	-0.2630249	-0.7772158	0	0	-0.08940598	-0.1146481
30.45799	-0.2630249	-0.7772158	0	0	0	0
30.47456	-0.2631721	-0.7739486	-0.008888473	0.1972557	-0.2682855	5.953875
30.49113	-0.2631721	-0.7739486	0	0	0.2682701	-5.953533
30.50769	-0.2631721	-0.7739486	0	0	0	0
30.52426	-0.2581357	-0.7646217	0.3040003	0.5629677	9.175276	16.99138
30.54103	-0.2581357	-0.7646217	0	0	-9.11754	-16.88446
30.55739	-0.2581357	-0.7646217	0	0	0	0
30.57396	-0.2371617	-0.7106221	1.265993	3.259426	38.44899	98.99079
30.59053	-0.2371617	-0.7106221	0	0	-38.20774	-98.36967
30.6071	-0.2371617	-0.7106221	0	0	0	0
30.62412	-0.198888	-0.6242239	2.247584	5.073648	66.90026	151.0192
30.64023	-0.198888	-0.6242239	0	0	-67.83612	-153.1318
30.6568	-0.198888	-0.6242239	0	0	0	0
30.67336	-0.1485554	-0.5318062	3.038087	5.578344	91.68964	168.3548
30.68998	-0.1485554	-0.5318062	0	0	-91.54209	-168.0838
30.7065	-0.1485554	-0.5318062	0	0	0	0
30.72306	-0.1016224	-0.4682737	2.832878	3.834826	85.6394	115.9288
30.73963	-0.1016224	-0.4682737	0	0	-85.49643	-115.7353
30.75647	-0.1016224	-0.4682737	0	0	0	0
30.77311	-0.06490869	-0.4193506	2.205633	2.939135	65.87224	87.77858
30.78933	-0.06490869	-0.4193506	0	0	-67.11864	-89.43949
30.8059	-0.06490869	-0.4193506	0	0	0	0
30.82303	-0.04586256	-0.372218	1.111618	2.75087	32.98476	81.6259
30.83916	-0.04586256	-0.372218	0	0	-33.42171	-82.70719
30.85573	-0.04586256	-0.372218	0	0	0	0
30.87217	-0.04415549	-0.3365881	0.1038758	2.168096	3.146935	65.6828
30.88873	-0.04415549	-0.3365881	0	0	-3.147844	-65.70178
30.9053	-0.04415549	-0.3365881	0	0	0	0
30.92187	-0.04741181	-0.3253613	-0.1965746	0.6777292	-5.932632	20.45391
30.93843	-0.04741181	-0.3253613	0	0	5.933315	-20.45626
30.95517	-0.04741181	-0.3253613	0	0	0	0
30.97173	-0.04743807	-0.3253396	-0.001584988	0.001309729	-0.04759395	0.03932849
30.9883	-0.04743807	-0.3253396	0	0	0.04783504	-0.03952771
31.0047	-0.04743807	-0.3253396	0	0	0	0
31.02127	-0.04743807	-0.3253396	0	0	0	0
31.03783	-0.04743807	-0.3253396	0	0	0	0
31.0544	-0.04743807	-0.3253396	0	0	0	0
31.07136	-0.04741181	-0.3253613	0.001548265	-0.001279384	0.04618439	-0.03816372
31.08753	-0.04741181	-0.3253613	0	0	-0.04672942	0.0386141
31.10456	-0.04741181	-0.3253613	0	0	0	0
31.12067	-0.04733304	-0.3254697	0.00488975	-0.006730257	0.1475645	-0.2031079
31.13723	-0.04733304	-0.3254697	0	0	-0.149649	0.2059771
31.1538	-0.04733304	-0.3254697	0	0	0	0
31.17036	-0.04725427	-0.3255348	0.004756286	-0.003930093	0.1435698	-0.1186309
31.18693	-0.04725427	-0.3255348	0	0	-0.1435533	0.1186173
31.2035	-0.04725427	-0.3255348	0	0	0	0
31.22007	-0.04712299	-0.3256866	0.007924255	-0.009163452	0.2391545	-0.2765535
31.23673	-0.04712299	-0.3256866	0	0	-0.2384271	0.2757124
31.25377	-0.04712299	-0.3256866	0	0	0	0
31.26978	-0.04707047	-0.3257734	0.003279714	-0.005419893	0.09924477	-0.164007
31.28633	-0.04707047	-0.3257734	0	0	-0.1007214	0.1664471
31.3029	-0.04707047	-0.3257734	0	0	0	0
31.31946	-0.04707047	-0.3257734	0	0	0	0
31.33603	-0.04707047	-0.3257734	0	0	0	0
31.3526	-0.04707047	-0.3257734	0	0	0	0
31.36917	-0.04709673	-0.3258384	-0.001584988	-0.003927389	-0.0478378	-0.1185357
31.38573	-0.04709673	-0.3258384	0	0	0.0478378	0.1185357
31.4023	-0.04709673	-0.3258384	0	0	0	0
31.41887	-0.04712299	-0.3259469	-0.001585396	-0.006549401	-0.0478501	-0.1976727
31.43543	-0.04712299	-0.3259469	0	0	0.0478501	0.1976727
31.452	-0.04712299	-0.3259469	0	0	0	0
31.47171	-0.04712299	-0.3260337	0	-0.004401856	0	-0.1213375
31.48828	-0.04712299	-0.3260337	0	0	0	0.1213375
31.505	-0.04712299	-0.3260337	0	0	0	0
31.52141	-0.04712299	-0.3261639	0	-0.007929592	0	-0.2393431
31.53798	-0.04712299	-0.3261639	0	0	0	0.2403949
31.55457	-0.04712299	-0.3261639	0	0	0	0
31.57111	-0.04714924	-0.3262724	-0.001586998	-0.006558753	-0.04790122	-0.1979664
31.58768	-0.04714924	-0.3262724	0	0	0.04792606	0.198069
31.60444	-0.04714924	-0.3262724	0	0	0	0
31.62081	-0.04722801	-0.3264677	-0.004810019	-0.0119253	-0.145175	-0.359927
31.63738	-0.04722801	-0.3264677	0	0	0.1459987	0.3619691
31.66976	-0.04722801	-0.3264677	0	0	0	0
31.68633	-0.04730678	-0.3267932	-0.004754643	-0.01964908	-0.09713983	-0.4014408
31.7029	-0.04730678	-0.3267932	0	0	0.1434872	0.5929762
31.71947	-0.04730678	-0.3267932	0	0	0	0
31.73603	-0.04730678	-0.3267932	0	0	0	0
31.7526	-0.04730678	-0.3267932	0	0	0	0
31.76922	-0.04730678	-0.3267932	0	0	0	0
31.78573	-0.04733304	-0.3268583	-0.001590115	-0.003943702	-0.04799529	-0.1190349
31.8023	-0.04733304	-0.3268583	0	0	0.04806724	0.1192133
31.81886	-0.04733304	-0.3268583	0	0	0	0
31.83551	-0.04728053	-0.3270754	0.003154721	-0.01304142	0.09499095	-0.3926868
31.852	-0.04728053	-0.3270754	0	0	-0.09520967	0.393591
31.8689	-0.04728053	-0.3270754	0	0	0	0
31.88513	-0.04728053	-0.3271188	0	-0.002673012	0	-0.08067629
31.90192	-0.04728053	-0.3271188	0	0	0	0.08095592
31.91827	-0.04728053	-0.3271188	0	0	0	0
31.93496	-0.04728053	-0.3271188	0	0	0	0
31.95145	-0.04728053	-0.3271188	0	0	0	0
31.96797	-0.04728053	-0.3271188	0	0	0	0
31.98454	-0.04730678	-0.3271405	-0.001584806	-0.001311378	-0.04790676	-0.03964135
32.0011	-0.04730678	-0.3271405	0	0	0.04782954	0.03957745
32.01815	-0.04730678	-0.3271405	0	0	0	0
32.03423	-0.04733304	-0.3272925	-0.001632546	-0.009448752	-0.049276	-0.2851967
32.0508	-0.04733304	-0.3272925	0	0	0.05000141	0.2893952
32.06751	-0.04733304	-0.3272925	0	0	0	0
32.08393	-0.04741181	-0.327401	-0.004797726	-0.006612672	-0.1448123	-0.1995938
32.1005	-0.04741181	-0.327401	0	0	0.1454487	0.2004709
32.11707	-0.04741181	-0.327401	0	0	0	0
32.13363	-0.04741181	-0.327401	0	0	0	0
32.1502	-0.04741181	-0.327401	0	0	0	0
32.1669	-0.04741181	-0.327401	0	0	0	0
32.18392	-0.04741181	-0.327401	0	0	0	0
32.19994	-0.04741181	-0.327401	0	0	0	0
32.21647	-0.04741181	-0.327401	0	0	0	0
32.23303	-0.04743807	-0.3274227	-0.001585171	-0.00130988	-0.04790122	-0.03958239
32.2496	-0.04743807	-0.3274227	0	0	0.04784606	0.03953682
32.26669	-0.04743807	-0.3274227	0	0	0	0
32.28273	-0.04743807	-0.3274227	0	0	0	0
32.30005	-0.04743807	-0.3274227	0	0	0	0
32.31657	-0.04743807	-0.3274227	0	0	0	0
32.33247	-0.04743807	-0.3274227	0	0	0	0
32.349	-0.04743807	-0.3274227	0	0	0	0
32.36557	-0.04743807	-0.3274227	0	0	0	0
32.38213	-0.04743807	-0.3274227	0	0	0	0
32.39901	-0.04743807	-0.3274227	0	0	0	0
32.41527	-0.04743807	-0.3274227	0	0	0	0
32.43184	-0.04743807	-0.3274227	0	0	0	0
32.4484	-0.04743807	-0.3274227	0	0	0	0
32.46521	-0.04743807	-0.3274227	0	0	0	0
32.48154	-0.04743807	-0.3274227	0	0	0	0
32.49829	-0.04743807	-0.3274227	0	0	0	0
32.51467	-0.04743807	-0.3274227	0	0	0	0
32.53124	-0.04746433	-0.3274445	-0.001585031	-0.001311378	-0.04810771	-0.03980199
32.54781	-0.04746433	-0.3274445	0	0	0.04783082	0.03957289
32.56437	-0.04746433	-0.3274445	0	0	0	0
32.58095	-0.04746433	-0.3274445	0	0	0	0
32.59776	-0.04746433	-0.3274445	0	0	0	0
32.61433	-0.04746433	-0.3274445	0	0	0	0
32.63085	-0.04749058	-0.3275096	-0.001589564	-0.00394414	-0.04802844	-0.1191716
32.64721	-0.04749058	-0.3275096	0	0	0.04835728	0.1199875
32.66389	-0.04749058	-0.3275096	0	0	0	0
32.68047	-0.04762186	-0.3276616	-0.007920383	-0.009170023	-0.2381056	-0.2756728
32.69749	-0.04762186	-0.3276616	0	0	0.2357802	0.2729805
32.71347	-0.04762186	-0.3276616	0	0	0	0
32.73004	-0.04798944	-0.3279656	-0.02219239	-0.01835632	-0.681777	-0.5639281
32.7466	-0.04798944	-0.3279656	0	0	0.6698449	0.5540585
32.76317	-0.04798944	-0.3279656	0	0	0	0
32.77974	-0.04877707	-0.3286174	-0.04755221	-0.03934679	-1.435294	-1.187625
32.79665	-0.04877707	-0.3286174	0	0	1.420249	1.175177
32.81369	-0.04877707	-0.3286174	0	0	0	0
32.8297	-0.04998465	-0.3296171	-0.075407	-0.06242928	-2.28183	-1.889122
32.84669	-0.04998465	-0.3296171	0	0	2.284467	1.891305
32.86257	-0.04998465	-0.3296171	0	0	0	0
32.87914	-0.05024714	-0.3298345	-0.01584446	-0.01312277	-0.4883634	-0.4044744
32.8959	-0.05024714	-0.3298345	0	0	0.4754499	0.3937792
32.91242	-0.05024714	-0.3298345	0	0	0	0
32.93291	-0.05024714	-0.3298345	0	0	0	0
32.94948	-0.05024714	-0.3298345	0	0	0	0
32.96605	-0.05024714	-0.3298345	0	0	0	0
32.98261	-0.05024714	-0.3298345	0	0	0	0
32.9996	-0.05024714	-0.3298345	0	0	0	0
33.01575	-0.05024714	-0.3298345	0	0	0	0
33.03232	-0.05024714	-0.3298345	0	0	0	0
33.04888	-0.05024714	-0.3298345	0	0	0	0
33.06544	-0.05024714	-0.3298345	0	0	0	0
33.08236	-0.05024714	-0.3298345	0	0	0	0
33.09858	-0.05024714	-0.3298345	0	0	0	0
33.11515	-0.05024714	-0.3298345	0	0	0	0
33.1318	-0.05024714	-0.3298345	0	0	0	0
33.14828	-0.05024714	-0.3298345	0	0	0	0
33.16485	-0.05024714	-0.3298345	0	0	0	0
33.18142	-0.05024714	-0.3298345	0	0	0	0
33.19798	-0.05024714	-0.3298345	0	0	0	0
33.21455	-0.0502209	-0.3298563	0.001584356	-0.001313176	0.04781597	-0.03963174
33.23112	-0.0502209	-0.3298563	0	0	-0.04781597	0.03963174
33.24768	-0.0502209	-0.3298563	0	0	0	0
33.26425	-0.0502209	-0.3298563	0	0	0	0
33.28082	-0.0502209	-0.3298563	0	0	0	0
33.29741	-0.0502209	-0.3298563	0	0	0	0
33.31403	-0.0502209	-0.3298563	0	0	0	0
33.33052	-0.0502209	-0.3298563	0	0	0	0
33.34714	-0.0502209	-0.3298563	0	0	0	0
33.36365	-0.0502209	-0.3298563	0	0	0	0
33.38062	-0.0502209	-0.3298563	0	0	0	0
33.39678	-0.0502209	-0.3298563	0	0	0	0
33.41349	-0.0502209	-0.3298563	0	0	0	0
33.42992	-0.0502209	-0.3298563	0	0	0	0
33.44669	-0.0502209	-0.3298563	0	0	0	0
33.46329	-0.0502209	-0.3298563	0	0	0	0
33.4797	-0.0502209	-0.3298563	0	0	0	0
33.49631	-0.0502209	-0.3298563	0	0	0	0
33.51276	-0.0502209	-0.3298563	0	0	0	0
33.52932	-0.0502209	-0.3298563	0	0	0	0
33.54651	-0.0502209	-0.3298563	0	0	0	0
33.56256	-0.0502209	-0.3298563	0	0	0	0
33.57903	-0.0502209	-0.3298563	0	0	0	0
33.59571	-0.0502209	-0.3298563	0	0	0	0
33.61216	-0.0502209	-0.3298563	0	0	0	0
33.62872	-0.0502209	-0.3298563	0	0	0	0
33.64534	-0.0502209	-0.3298563	0	0	0	0
33.66186	-0.0502209	-0.3298563	0	0	0	0
33.67845	-0.0502209	-0.3298563	0	0	0	0
33.69506	-0.0502209	-0.3298563	0	0	0	0
33.71211	-0.0502209	-0.3298563	0	0	0	0
33.72918	-0.0502209	-0.3298563	0	0	0	0
33.7447	-0.0502209	-0.3298563	0	0	0	0
33.76126	-0.0502209	-0.3298563	0	0	0	0
33.77828	-0.0502209	-0.3298563	0	0	0	0
33.7944	-0.0502209	-0.3298563	0	0	0	0
33.81096	-0.0502209	-0.3298563	0	0	0	0
33.82753	-0.0502209	-0.3298563	0	0	0	0
33.84409	-0.0502209	-0.3298563	0	0	0	0
33.86066	-0.0502209	-0.3298563	0	0	0	0
33.87723	-0.0502209	-0.3298563	0	0	0	0
33.89407	-0.0502209	-0.3298563	0	0	0	0
33.91036	-0.0502209	-0.3298563	0	0	0	0
33.92693	-0.0502209	-0.3298563	0	0	0	0
33.9435	-0.0502209	-0.3298563	0	0	0	0
33.96006	-0.0502209	-0.3298563	0	0	0	0
33.97704	-0.0502209	-0.3298563	0	0	0	0
33.99319	-0.0502209	-0.3298563	0	0	0	0
34.00976	-0.0502209	-0.3298563	0	0	0	0
34.02648	-0.0502209	-0.3298563	0	0	0	0
34.04289	-0.0502209	-0.3298563	0	0	0	0
34.05946	-0.0502209	-0.3298563	0	0	0	0
34.0764	-0.0502209	-0.3298563	0	0	0	0
34.09259	-0.0502209	-0.3298563	0	0	0	0
34.10916	-0.0502209	-0.3298563	0	0	0	0
34.12572	-0.0502209	-0.3298563	0	0	0	0
34.14232	-0.0502209	-0.3298563	0	0	0	0
34.15886	-0.05024714	-0.329878	-0.00158728	-0.001313798	-0.04790421	-0.03965049
34.17543	-0.05024714	-0.329878	0	0	0.04794837	0.03968704
34.19226	-0.05024714	-0.329878	0	0	0	0
34.20886	-0.05024714	-0.329878	0	0	0	0
34.22513	-0.05024714	-0.329878	0	0	0	0
34.24207	-0.05024714	-0.329878	0	0	0	0
34.25826	-0.05024714	-0.329878	0	0	0	0
34.27483	-0.05024714	-0.329878	0	0	0	0
34.29139	-0.05024714	-0.329878	0	0	0	0
34.30796	-0.05024714	-0.329878	0	0	0	0
34.32453	-0.05024714	-0.329878	0	0	0	0
34.34109	-0.05024714	-0.329878	0	0	0	0
34.36635	-0.05024714	-0.329878	0	0	0	0
34.38305	-0.05024714	-0.329878	0	0	0	0
34.39955	-0.05024714	-0.329878	0	0	0	0
34.41608	-0.05024714	-0.329878	0	0	0	0
34.43262	-0.05024714	-0.329878	0	0	0	0
34.44919	-0.05024714	-0.329878	0	0	0	0
34.46581	-0.05024714	-0.329878	0	0	0	0
34.48232	-0.05024714	-0.329878	0	0	0	0
34.49939	-0.05024714	-0.329878	0	0	0	0
34.51545	-0.05024714	-0.329878	0	0	0	0
34.53202	-0.05024714	-0.329878	0	0	0	0
34.54858	-0.05045713	-0.329965	-0.01267799	-0.005252116	-0.3826667	-0.1585274
34.56515	-0.05045713	-0.329965	0	0	0.3826667	0.1585274
34.58171	-0.05045713	-0.329965	0	0	0	0
34.59828	-0.05108709	-0.3303564	-0.0380241	-0.02362818	-1.14757	-0.7130999
34.61485	-0.05108709	-0.3303564	0	0	1.14757	0.7130999
34.63161	-0.05108709	-0.3303564	0	0	0	0
34.64798	-0.05866943	-0.3360425	-0.4631095	-0.3472867	-13.97828	-10.48234
34.66463	-0.05866943	-0.3360425	0	0	14.02511	10.51746
34.68141	-0.05866943	-0.3360425	0	0	0	0
34.69768	-0.1083633	-0.3716382	-3.054385	-2.187855	-92.40493	-66.18964
34.71425	-0.1083633	-0.3716382	0	0	93.01682	66.62793
34.73082	-0.1083633	-0.3716382	0	0	0	0
34.74738	-0.1941546	-0.3827795	-5.178372	-0.672492	-156.2836	-20.29585
34.76395	-0.1941546	-0.3827795	0	0	156.2836	20.29585
34.78112	-0.1941546	-0.3827795	0	0	0	0
34.79712	-0.2643004	-0.3681639	-4.38234	0.9131036	-132.1072	27.52583
34.81371	-0.2643004	-0.3681639	0	0	134.4574	-28.01552
34.83021	-0.2643004	-0.3681639	0	0	0	0
34.84678	-0.3005096	-0.355179	-2.185593	0.7837756	-66.09068	23.70078
34.86335	-0.3005096	-0.355179	0	0	65.96133	-23.6544
34.87991	-0.3005096	-0.355179	0	0	0	0
34.89658	-0.3113015	-0.3467909	-0.6476702	0.5034072	-19.49063	15.14926
34.91305	-0.3113015	-0.3467909	0	0	19.54673	-15.19286
34.93005	-0.3113015	-0.3467909	0	0	0	0
34.94618	-0.3112777	-0.3467689	0.001477891	0.001361507	0.04460797	0.04109509
34.96275	-0.3112777	-0.3467689	0	0	-0.04519601	-0.04163682
34.9794	-0.3112777	-0.3467689	0	0	0	0
34.99588	-0.3112061	-0.3467031	0.004344097	0.003998524	0.1311202	0.1206896
35.01255	-0.3112061	-0.3467031	0	0	-0.1310448	-0.1206201
35.02901	-0.3112061	-0.3467031	0	0	0	0
35.04818	-0.3110869	-0.3465933	0.00622046	0.005727612	0.1745885	0.1607558
35.06475	-0.3110869	-0.3465933	0	0	-0.1740666	-0.1602753
35.08132	-0.3110869	-0.3465933	0	0	0	0
35.09789	-0.311063	-0.3465713	0.001439097	0.001325769	0.04343205	0.04001177
35.11445	-0.311063	-0.3465713	0	0	-0.04343205	-0.04001177
35.13134	-0.311063	-0.3465713	0	0	0	0
35.14759	-0.311063	-0.3466152	0	-0.002704468	0	-0.08162101
35.16434	-0.311063	-0.3466152	0	0	0	0.08197018
35.18073	-0.311063	-0.3466152	0	0	0	0
35.19748	-0.3110392	-0.3465933	0.001423042	0.001310977	0.0429376	0.03955627
35.2141	-0.3110392	-0.3465933	0	0	-0.04264311	-0.03928496
35.23057	-0.3110392	-0.3465933	0	0	0	0
35.24699	-0.3110392	-0.3465933	0	0	0	0
35.26356	-0.3110392	-0.3465933	0	0	0	0
35.28013	-0.3110392	-0.3465933	0	0	0	0
35.29674	-0.3109915	-0.3465493	0.002872058	0.002644231	0.0865593	0.07969294
35.31329	-0.3109915	-0.3465493	0	0	-0.08659912	-0.07972961
35.32998	-0.3109915	-0.3465493	0	0	0	0
35.34648	-0.3109915	-0.3465493	0	0	0	0
35.3633	-0.3109915	-0.3465493	0	0	0	0
35.37953	-0.3109915	-0.3465493	0	0	0	0
35.39677	-0.3109915	-0.3465493	0	0	0	0
35.41327	-0.3109915	-0.3465493	0	0	0	0
35.42928	-0.3109915	-0.3465493	0	0	0	0
35.4458	-0.3109915	-0.3465493	0	0	0	0
35.46251	-0.3109915	-0.3465493	0	0	0	0
35.47912	-0.3109915	-0.3465493	0	0	0	0
35.49549	-0.3109915	-0.3465493	0	0	0	0
35.51206	-0.3109915	-0.3465493	0	0	0	0
35.52885	-0.3109915	-0.3465493	0	0	0	0
35.5452	-0.3109676	-0.3465713	0.001458236	-0.0013434	0.04400965	-0.04054389
35.56176	-0.3109676	-0.3465713	0	0	-0.04430037	0.04081171
35.57833	-0.3109676	-0.3465713	0	0	0	0
35.59489	-0.3109676	-0.3465713	0	0	0	0
35.61147	-0.3109676	-0.3465713	0	0	0	0
35.62803	-0.3109676	-0.3465713	0	0	0	0
35.64477	-0.3106575	-0.3465054	0.01852709	0.003934737	0.5562668	0.1181385
35.66117	-0.3106575	-0.3465054	0	0	-0.5591487	-0.1187506
35.67773	-0.3106575	-0.3465054	0	0	0	0
35.69619	-0.3085328	-0.3472741	0.1151254	-0.04164944	3.287161	-1.189212
35.71276	-0.3085328	-0.3472741	0	0	-3.286803	1.189082
35.72933	-0.3085328	-0.3472741	0	0	0	0
35.74596	-0.30358	-0.3496702	0.2978554	-0.1441002	8.972765	-4.340957
35.76246	-0.30358	-0.3496702	0	0	-8.989293	4.348953
35.77951	-0.30358	-0.3496702	0	0	0	0
35.79598	-0.2610855	-0.3471423	2.58042	0.1535047	76.98209	4.57953
35.81216	-0.2610855	-0.3471423	0	0	-79.03278	-4.701522
35.82873	-0.2610855	-0.3471423	0	0	0	0
35.84529	-0.2131592	-0.322501	2.893506	1.487697	87.33623	44.90394
35.86186	-0.2131592	-0.322501	0	0	-87.33623	-44.90394
35.87843	-0.2131592	-0.322501	0	0	0	0
35.895	-0.1714322	-0.2942348	2.518645	1.706151	76.01286	51.49173
35.91156	-0.1714322	-0.2942348	0	0	-76.01286	-51.49173
35.92813	-0.1714322	-0.2942348	0	0	0	0
35.9447	-0.1506396	-0.2770744	1.255334	1.036043	37.88605	31.26785
35.96127	-0.1506396	-0.2770744	0	0	-37.89042	-31.27145
35.97783	-0.1506396	-0.2770744	0	0	0	0
35.9944	-0.1478861	-0.2771377	0.1662023	-0.003822603	5.015994	-0.1153664
36.01097	-0.1478861	-0.2771377	0	0	-5.015994	0.1153664
36.02761	-0.1478861	-0.2771377	0	0	0	0
36.04415	-0.1255985	-0.2954499	1.348073	-1.107623	40.62878	-33.38201
36.06119	-0.1255985	-0.2954499	0	0	-40.1533	32.99133
36.07724	-0.1255985	-0.2954499	0	0	0	0
36.09386	-0.1091695	-0.3090423	0.988245	-0.8176145	30.24664	-25.02425
36.11037	-0.1091695	-0.3090423	0	0	-29.82529	24.67566
36.12698	-0.1091695	-0.3090423	0	0	0	0
36.1435	-0.1087274	-0.3095796	0.02675795	-0.03251811	0.8077425	-0.9816245
36.16007	-0.1087274	-0.3095796	0	0	-0.8085805	0.9826429
36.17672	-0.1087274	-0.3095796	0	0	0	0
36.1932	-0.1083893	-0.309859	0.02051075	-0.01695209	0.6190869	-0.5116741
36.20977	-0.1083893	-0.309859	0	0	-0.6205875	0.5129143
36.22656	-0.1083893	-0.309859	0	0	0	0
36.24307	-0.1065684	-0.3113644	0.1103166	-0.09120241	3.312581	-2.738621
36.25946	-0.1065684	-0.3113644	0	0	-3.352908	2.771961
36.27603	-0.1065684	-0.3113644	0	0	0	0
36.29259	-0.0977402	-0.3186729	0.5329953	-0.4412443	16.08768	-13.31831
36.30916	-0.0977402	-0.3186729	0	0	-16.08768	13.31831
36.32597	-0.0977402	-0.3186729	0	0	0	0
36.3423	-0.0686027	-0.3428864	1.784214	-1.482698	53.84768	-44.74791
36.35886	-0.0686027	-0.3428864	0	0	-54.2348	45.06961
36.38028	-0.0686027	-0.3428864	0	0	0	0
36.39693	-0.04003124	-0.3669631	1.715885	-1.445944	45.07556	-37.98433
36.41402	-0.04003124	-0.3669631	0	0	-50.84886	42.84938
36.42999	-0.04003124	-0.3669631	0	0	0	0
36.44655	-0.03235712	-0.373512	0.4632104	-0.3952967	14.24039	-12.15253
36.46312	-0.03235712	-0.373512	0	0	-13.97972	11.93008
36.47969	-0.03235712	-0.373512	0	0	0	0
36.49626	-0.03104266	-0.3752093	0.07932311	-0.102424	2.393701	-3.090805
36.51282	-0.03104266	-0.3752093	0	0	-2.394252	3.091517
36.52938	-0.03104266	-0.3752093	0	0	0	0
36.54595	-0.03127927	-0.3754104	-0.01428203	-0.01213879	-0.4310325	-0.3663493
36.56252	-0.03127927	-0.3754104	0	0	0.4310325	0.3663493
36.57909	-0.03127927	-0.3754104	0	0	0	0
36.59565	-0.03138443	-0.3753657	-0.006347319	0.002698308	-0.1915625	0.08143508
36.61273	-0.03138443	-0.3753657	0	0	0.1886735	-0.08020696
36.62879	-0.03138443	-0.3753657	0	0	0	0
36.64536	-0.0314633	-0.3754328	-0.004760714	-0.004047461	-0.1459129	-0.1240521
36.66192	-0.0314633	-0.3754328	0	0	0.1436786	0.1221526
36.67849	-0.0314633	-0.3754328	0	0	0	0
36.69506	-0.03159475	-0.3754998	-0.007934148	-0.004045662	-0.2394531	-0.1220983
36.71183	-0.03159475	-0.3754998	0	0	0.2379464	0.1213301
36.72838	-0.03159475	-0.3754998	0	0	0	0
36.745	-0.03162104	-0.3755221	-0.001582094	-0.001345127	-0.04770375	-0.04055867
36.76133	-0.03162104	-0.3755221	0	0	0.04802414	0.04083106
36.77814	-0.03162104	-0.3755221	0	0	0	0
36.7945	-0.0316999	-0.3755892	-0.00482155	-0.004099376	-0.1453306	-0.1235629
36.81103	-0.0316999	-0.3755892	0	0	0.1466118	0.1246522
36.82759	-0.0316999	-0.3755892	0	0	0	0
36.84476	-0.03175248	-0.3756339	-0.003062254	-0.002603588	-0.09077817	-0.07718139
36.86082	-0.03175248	-0.3756339	0	0	0.09217492	0.07836893
36.87743	-0.03175248	-0.3756339	0	0	0	0
36.89397	-0.03177877	-0.3756562	-0.001589758	-0.001351644	-0.04795139	-0.04076922
36.91043	-0.03177877	-0.3756562	0	0	0.04817868	0.04096246
36.92703	-0.03177877	-0.3756562	0	0	0	0
36.94356	-0.03185764	-0.3757233	-0.004772577	-0.004057739	-0.1440699	-0.122491
36.96012	-0.03185764	-0.3757233	0	0	0.1442193	0.1226181
36.97695	-0.03185764	-0.3757233	0	0	0	0
36.99407	-0.03196279	-0.3758127	-0.00614203	-0.00522226	-0.1809504	-0.153853
37.00983	-0.03196279	-0.3758127	0	0	0.1868078	0.1588333
37.02639	-0.03196279	-0.3758127	0	0	0	0
37.04296	-0.03201537	-0.3758574	-0.00317439	-0.002698929	-0.09581432	-0.08146322
37.05953	-0.03201537	-0.3758574	0	0	0.09580329	0.08145384
37.07609	-0.03201537	-0.3758574	0	0	0	0
37.09266	-0.03212053	-0.3759468	-0.006347319	-0.005396615	-0.1915845	-0.1628889
37.10923	-0.03212053	-0.3759468	0	0	0.1915625	0.1628702
37.12696	-0.03212053	-0.3759468	0	0	0	0
37.14355	-0.03227826	-0.376081	-0.00950958	-0.008087411	-0.2770482	-0.2356153
37.1601	-0.03227826	-0.376081	0	0	0.2869667	0.2440504
37.177	-0.03227826	-0.376081	0	0	0	0
37.19324	-0.0324097	-0.3762375	-0.008096107	-0.009638965	-0.244341	-0.2909046
37.21024	-0.0324097	-0.3762375	0	0	0.2435838	0.2900031
37.22677	-0.0324097	-0.3762375	0	0	0	0
37.24294	-0.03248857	-0.3763045	-0.004879355	-0.004150563	-0.1492351	-0.126945
37.25996	-0.03248857	-0.3763045	0	0	0.1470392	0.1250771
37.27659	-0.03248857	-0.3763045	0	0	0	0
37.29268	-0.03251485	-0.3763269	-0.001633624	-0.001389136	-0.0499236	-0.04245204
37.3092	-0.03251485	-0.3763269	0	0	0.05009295	0.04259605
37.32577	-0.03251485	-0.3763269	0	0	0	0
37.34246	-0.03256743	-0.3763716	-0.003150223	-0.002680357	-0.09472495	-0.08059641
37.35926	-0.03256743	-0.3763716	0	0	0.09406677	0.08003639
37.37595	-0.03256743	-0.3763716	0	0	0	0
37.39221	-0.03262001	-0.3764163	-0.003233217	-0.002748944	-0.09812091	-0.08342431
37.4086	-0.03262001	-0.3764163	0	0	0.099015	0.08418449
37.42517	-0.03262001	-0.3764163	0	0	0	0
37.44173	-0.03275144	-0.3765281	-0.007933474	-0.006749367	-0.2394327	-0.2036963
37.45831	-0.03275144	-0.3765281	0	0	0.2394052	0.2036728
37.47487	-0.03275144	-0.3765281	0	0	0	0
37.49144	-0.03422347	-0.3777809	-0.08881123	-0.07558437	-2.68002	-2.280878
37.50808	-0.03422347	-0.3777809	0	0	2.673864	2.275639
37.52502	-0.03422347	-0.3777809	0	0	0	0
37.54113	-0.03582677	-0.3791467	-0.09947786	-0.08473928	-3.009871	-2.56393
37.5577	-0.03582677	-0.3791467	0	0	3.043595	2.592658
37.57431	-0.03582677	-0.3791467	0	0	0	0
37.59084	-0.03582677	-0.3791467	0	0	0	0
37.6074	-0.03582677	-0.3791467	0	0	0	0
37.62449	-0.03582677	-0.3791467	0	0	0	0
37.64053	-0.03582677	-0.3791467	0	0	0	0
37.6571	-0.03582677	-0.3791467	0	0	0	0
37.67369	-0.03582677	-0.3791467	0	0	0	0
37.69027	-0.03582677	-0.3791467	0	0	0	0
37.70679	-0.03582677	-0.3791467	0	0	0	0
37.72337	-0.03582677	-0.3791467	0	0	0	0
37.73993	-0.03585305	-0.3791691	-0.00158638	-0.001352752	-0.04787153	-0.04082142
37.75734	-0.03585305	-0.3791691	0	0	0.04668912	0.03981315
37.77307	-0.03585305	-0.3791691	0	0	0	0
37.78996	-0.03582677	-0.3791467	0.001555928	0.001326784	0.04770493	0.04067936
37.80684	-0.03582677	-0.3791467	0	0	-0.04606699	-0.03928264
37.82309	-0.03582677	-0.3791467	0	0	0	0
37.8398	-0.03585305	-0.3791691	-0.001572979	-0.001341324	-0.04772535	-0.04069677
37.85682	-0.03585305	-0.3791691	0	0	0.04664032	0.03977153
37.87287	-0.03585305	-0.3791691	0	0	0	0
37.88936	-0.03585305	-0.3791691	0	0	0	0
37.90593	-0.03585305	-0.3791691	0	0	0	0
37.92249	-0.03585305	-0.3791691	0	0	0	0
37.93939	-0.03585305	-0.3791691	0	0	0	0
37.95562	-0.03585305	-0.3791691	0	0	0	0
37.9726	-0.03585305	-0.3791691	0	0	0	0
37.98875	-0.03585305	-0.3791691	0	0	0	0
38.00532	-0.03585305	-0.3791691	0	0	0	0
38.02241	-0.03585305	-0.3791691	0	0	0	0
38.03846	-0.03585305	-0.3791691	0	0	0	0
38.05502	-0.03585305	-0.3791691	0	0	0	0
38.07159	-0.03585305	-0.3791691	0	0	0	0
38.08815	-0.03585305	-0.3791691	0	0	0	0
38.10472	-0.03585305	-0.3791691	0	0	0	0
38.12129	-0.03585305	-0.3791691	0	0	0	0
38.13786	-0.03585305	-0.3791691	0	0	0	0
38.15442	-0.03585305	-0.3791691	0	0	0	0
38.17099	-0.03585305	-0.3791691	0	0	0	0
38.18755	-0.03585305	-0.3791691	0	0	0	0
38.20418	-0.03585305	-0.3791691	0	0	0	0
38.22069	-0.03585305	-0.3791691	0	0	0	0
38.23725	-0.03585305	-0.3791691	0	0	0	0
38.25386	-0.03585305	-0.3791691	0	0	0	0
38.27053	-0.03585305	-0.3791691	0	0	0	0
38.28709	-0.03582677	-0.3791915	0.001587477	-0.001353687	0.04777813	-0.04074177
38.30428	-0.03582677	-0.3791915	0	0	-0.04704357	0.0401154
38.32008	-0.03582677	-0.3791915	0	0	0	0
38.33665	-0.03582677	-0.3791915	0	0	0	0
38.35322	-0.03582677	-0.3791915	0	0	0	0
38.36979	-0.03582677	-0.3791915	0	0	0	0
38.38983	-0.03582677	-0.3791915	0	0	0	0
38.40651	-0.03582677	-0.3791915	0	0	0	0
38.42296	-0.03582677	-0.3791915	0	0	0	0
38.43953	-0.03582677	-0.3791915	0	0	0	0
38.45631	-0.03582677	-0.3791915	0	0	0	0
38.47266	-0.03582677	-0.3791915	0	0	0	0
38.48923	-0.03582677	-0.3791915	0	0	0	0
38.50579	-0.03582677	-0.3791915	0	0	0	0
38.52242	-0.03582677	-0.3791915	0	0	0	0
38.53897	-0.03582677	-0.3791915	0	0	0	0
38.55549	-0.03582677	-0.3791915	0	0	0	0
38.57212	-0.03582677	-0.3791915	0	0	0	0
38.5887	-0.03582677	-0.3791915	0	0	0	0
38.60519	-0.03582677	-0.3791915	0	0	0	0
38.62205	-0.03582677	-0.3791915	0	0	0	0
38.63832	-0.03582677	-0.3791915	0	0	0	0
38.65489	-0.03582677	-0.3791915	0	0	0	0
38.67145	-0.03582677	-0.3791915	0	0	0	0
38.68839	-0.03582677	-0.3791915	0	0	0	0
38.70459	-0.03582677	-0.3791915	0	0	0	0
38.72116	-0.03582677	-0.3791915	0	0	0	0
38.73778	-0.03582677	-0.3791915	0	0	0	0
38.75468	-0.03582677	-0.3791915	0	0	0	0
38.77119	-0.03582677	-0.3791915	0	0	0	0
38.78742	-0.03582677	-0.3791915	0	0	0	0
38.80399	-0.03582677	-0.3791915	0	0	0	0
38.82055	-0.03582677	-0.3791915	0	0	0	0
38.83712	-0.03582677	-0.3791915	0	0	0	0
38.85368	-0.03582677	-0.3791915	0	0	0	0
38.87038	-0.03582677	-0.3791915	0	0	0	0
38.88682	-0.03582677	-0.3791915	0	0	0	0
38.90339	-0.03582677	-0.3791915	0	0	0	0
38.91995	-0.03582677	-0.3791915	0	0	0	0
38.93652	-0.03582677	-0.3791915	0	0	0	0
38.95329	-0.03582677	-0.3791915	0	0	0	0
38.96965	-0.03582677	-0.3791915	0	0	0	0
38.98653	-0.03582677	-0.3791915	0	0	0	0
39.00291	-0.03582677	-0.3791915	0	0	0	0
39.01995	-0.03582677	-0.3791915	0	0	0	0
39.03592	-0.03582677	-0.3791915	0	0	0	0
39.05249	-0.03582677	-0.3791915	0	0	0	0
39.06905	-0.03582677	-0.3791915	0	0	0	0
39.08562	-0.03582677	-0.3791915	0	0	0	0
39.10219	-0.03582677	-0.3791915	0	0	0	0
39.11912	-0.03582677	-0.3791915	0	0	0	0
39.13532	-0.03582677	-0.3791915	0	0	0	0
39.15189	-0.03582677	-0.3791915	0	0	0	0
39.16897	-0.03582677	-0.3791915	0	0	0	0
39.18554	-0.03582677	-0.3791915	0	0	0	0
39.20211	-0.03582677	-0.3791915	0	0	0	0
39.21867	-0.03582677	-0.3791915	0	0	0	0
39.23524	-0.03582677	-0.3791915	0	0	0	0
39.25239	-0.03582677	-0.3791915	0	0	0	0
39.26837	-0.03582677	-0.3791915	0	0	0	0
39.28494	-0.03582677	-0.3791915	0	0	0	0
39.30151	-0.03582677	-0.3791915	0	0	0	0
39.31807	-0.03582677	-0.3791915	0	0	0	0
39.33464	-0.03582677	-0.3791915	0	0	0	0
39.35128	-0.03582677	-0.3791915	0	0	0	0
39.36781	-0.03582677	-0.3791915	0	0	0	0
39.3848	-0.03582677	-0.3791915	0	0	0	0
39.40091	-0.03582677	-0.3791915	0	0	0	0
39.41747	-0.03582677	-0.3791915	0	0	0	0
39.43407	-0.03582677	-0.3791915	0	0	0	0
39.45076	-0.03582677	-0.3791915	0	0	0	0
39.46717	-0.03582677	-0.3791915	0	0	0	0
39.48402	-0.03582677	-0.3791915	0	0	0	0
39.50056	-0.03582677	-0.3791915	0	0	0	0
39.51688	-0.03582677	-0.3791915	0	0	0	0
39.53344	-0.03582677	-0.3791915	0	0	0	0
39.55005	-0.03582677	-0.3791915	0	0	0	0
39.56697	-0.03585305	-0.3791691	-0.001553822	0.001324989	-0.04635016	0.0395241
39.58314	-0.03585305	-0.3791691	0	0	0.04695933	-0.04004356
39.59977	-0.03585305	-0.3791691	0	0	0	0
39.61627	-0.03695685	-0.3781838	-0.0668873	0.0597044	-2.018895	1.80209
39.63291	-0.03695685	-0.3781838	0	0	2.01843	-1.801675
39.64941	-0.03695685	-0.3781838	0	0	0	0
39.66597	-0.05331784	-0.3643419	-0.9877788	0.835691	-29.87658	25.27649
39.68254	-0.05331784	-0.3643419	0	0	29.81466	-25.22411
39.6991	-0.05331784	-0.3643419	0	0	0	0
39.71567	-0.09750561	-0.3273142	-2.667793	2.235514	-80.52342	67.47572
39.73223	-0.09750561	-0.3273142	0	0	80.52342	-67.47572
39.7488	-0.09750561	-0.3273142	0	0	0	0
39.76537	-0.1433005	-0.2896374	-2.764183	2.274177	-83.4232	68.6348
39.78219	-0.1433005	-0.2896374	0	0	82.78464	-68.10943
39.7985	-0.1433005	-0.2896374	0	0	0	0
39.81507	-0.1753642	-0.2679119	-1.935816	1.311658	-58.88402	39.89827
39.83163	-0.1753642	-0.2679119	0	0	58.42976	-39.59047
39.8482	-0.1753642	-0.2679119	0	0	0	0
39.86477	-0.236167	-0.2794618	-3.670063	-0.6971564	-110.7627	-21.04022
39.88133	-0.236167	-0.2794618	0	0	110.7755	21.04264
39.8979	-0.236167	-0.2794618	0	0	0	0
39.91447	-0.2946165	-0.2973915	-3.528023	-1.082241	-106.4759	-32.66209
39.93103	-0.2946165	-0.2973915	0	0	106.4759	32.66209
39.9476	-0.2946165	-0.2973915	0	0	0	0
39.96416	-0.3161824	-0.3043001	-1.301719	-0.4170001	-39.29049	-12.58654
39.98093	-0.3161824	-0.3043001	0	0	39.05217	12.51019
39.99758	-0.3161824	-0.3043001	0	0	0	0
40.01387	-0.3161824	-0.3045573	0	-0.01578967	0	-0.4793476
40.03044	-0.3161824	-0.3045573	0	0	0	0.480572
40.047	-0.3161824	-0.3045573	0	0	0	0
40.06357	-0.3160636	-0.3047073	0.0071739	-0.00905552	0.2165087	-0.2732961
40.08014	-0.3160636	-0.3047073	0	0	-0.2165087	0.2732961
40.09671	-0.3160636	-0.3047073	0	0	0	0
40.11369	-0.3158496	-0.3048573	0.01259967	-0.008835565	0.3755462	-0.2633531
40.12985	-0.3158496	-0.3048573	0	0	-0.3801276	0.2665658
40.14689	-0.3158496	-0.3048573	0	0	0	0
40.16298	-0.3156831	-0.3050074	0.01034688	-0.009327943	0.3123775	-0.2816152
40.17954	-0.3156831	-0.3050074	0	0	-0.3168661	0.2856617
40.19647	-0.3156831	-0.3050074	0	0	0	0
40.21268	-0.3156593	-0.3050288	0.001467602	-0.001322313	0.04429233	-0.0399075
40.22924	-0.3156593	-0.3050288	0	0	-0.04478212	0.0403488
40.24581	-0.3156593	-0.3050288	0	0	0	0
40.26249	-0.3156593	-0.3050288	0	0	0	0
40.27894	-0.3156593	-0.3050288	0	0	0	0
40.29591	-0.3156593	-0.3050288	0	0	0	0
40.31208	-0.3156593	-0.3050288	0	0	0	0
40.32894	-0.3156593	-0.3050288	0	0	0	0
40.34566	-0.3156593	-0.3050288	0	0	0	0
40.36213	-0.3156593	-0.3050288	0	0	0	0
40.3787	-0.3156593	-0.3050288	0	0	0	0
40.39538	-0.3156593	-0.3050288	0	0	0	0
40.41976	-0.3156593	-0.3050288	0	0	0	0
40.43633	-0.3156593	-0.3050288	0	0	0	0
40.45345	-0.3156118	-0.3050717	0.002779481	-0.002506061	0.08251689	-0.07439963
40.46949	-0.3156118	-0.3050717	0	0	-0.08383663	0.07558955
40.48603	-0.3156118	-0.3050717	0	0	0	0
40.5026	-0.3155642	-0.3051146	0.002870999	-0.002588576	0.08669683	-0.07816838
40.51917	-0.3155642	-0.3051146	0	0	-0.08664693	0.07812339
40.53574	-0.3155642	-0.3051146	0	0	0	0
40.5523	-0.3155404	-0.305136	0.00143583	-0.001293687	0.04333843	-0.03904804
40.56887	-0.3155404	-0.305136	0	0	-0.04333843	0.03904804
40.58543	-0.3155404	-0.305136	0	0	0	0
40.60201	-0.3155167	-0.3051575	0.001435169	-0.001294889	0.04330851	-0.03907534
40.6189	-0.3155167	-0.3051575	0	0	-0.04288396	0.0386923
40.63514	-0.3155167	-0.3051575	0	0	0	0
40.6517	-0.3155167	-0.3051575	0	0	0	0
40.66827	-0.3155167	-0.3051575	0	0	0	0
40.68484	-0.3155167	-0.3051575	0	0	0	0
40.70142	-0.3154929	-0.3051789	0.001434509	-0.001292496	0.04327861	-0.03899414
40.71796	-0.3154929	-0.3051789	0	0	-0.04330353	0.03901659
40.73463	-0.3154929	-0.3051789	0	0	0	0
40.75109	-0.3153977	-0.3052647	0.005776581	-0.005208333	0.1743576	-0.1572059
40.76807	-0.3153977	-0.3052647	0	0	-0.1727465	0.1557533
40.78423	-0.3153977	-0.3052647	0	0	0	0
40.8008	-0.3116353	-0.3086556	0.2271004	-0.2046756	6.937769	-6.252708
40.81737	-0.3116353	-0.3086556	0	0	-6.853902	6.177123
40.83418	-0.3116353	-0.3086556	0	0	0	0
40.85049	-0.2934353	-0.325036	1.115244	-1.003746	33.66589	-30.30008
40.86706	-0.2934353	-0.325036	0	0	-33.91191	30.5215
40.88363	-0.2934353	-0.325036	0	0	0	0
40.9002	-0.2440125	-0.3693435	2.983169	-2.674404	90.03221	-80.71368
40.91676	-0.2440125	-0.3693435	0	0	-90.03221	80.71368
40.93334	-0.2440125	-0.3693435	0	0	0	0
