Time	Pos X	Pos Y	Vel X	Vel Y	Acc X	Acc Y
0.01656671	-0.0220022	0.0006111722	0.0003651349	-1.014263E-05	-6.061408E-06	1.683724E-07
0.033602	-0.0220022	0.0006111722	0	0	6.061265E-06	-1.683685E-07
0.05103797	-0.0220022	0.0006111722	0	0	0	0
0.06905975	-0.0220022	0.0006111722	0	0	0	0
0.09444886	-0.0220022	0.0006111722	0	0	0	0
0.1124521	-0.0220022	0.0006111722	0	0	0	0
0.129731	-0.0220022	0.0006111722	0	0	0	0
0.1470615	-0.0220022	0.0006111722	0	0	0	0
0.1642093	-0.0220022	0.0006111722	0	0	0	0
0.1822643	-0.0220022	0.0006111722	0	0	0	0
0.2000906	-0.0220022	0.0006111722	0	0	0	0
0.2171271	-0.0220022	0.0006111722	0	0	0	0
0.2339406	-0.0220022	0.0006111722	0	0	0	0
0.2508835	-0.0220022	0.0006111722	0	0	0	0
0.2686186	-0.0220022	0.0006111722	0	0	0	0
0.2857368	-0.0220022	0.0006111722	0	0	0	0
0.3028108	-0.0220022	0.0006111722	0	0	0	0
0.3198643	-0.0220022	0.0006111722	0	0	0	0
0.3371984	-0.0220022	0.0006111722	0	0	0	0
0.3550209	-0.0220022	0.0006111722	0	0	0	0
0.3723723	-0.0220022	0.0006111722	0	0	0	0
0.3896397	-0.0220022	0.0006111722	0	0	0	0
0.406915	-0.0220022	0.0006111722	0	0	0	0
0.4241351	-0.0220022	0.0006111722	0	0	0	0
0.4422421	-0.0220022	0.0006111722	0	0	0	0
0.4604917	-0.0220022	0.0006111722	0	0	0	0
0.4783753	-0.0220022	0.0006111722	0	0	0	0
0.4957809	-0.0220022	0.0006111722	0	0	0	0
0.5128438	-0.0220022	0.0006111722	0	0	0	0
0.529788	-0.0220022	0.0006111722	0	0	0	0
0.5467486	-0.0220022	0.0006111722	0	0	0	0
0.5639908	-0.0220022	0.0006111722	0	0	0	0
0.5817666	-0.0220022	0.0006111722	0	0	0	0
0.5993237	-0.0220022	0.0006111722	0	0	0	0
0.6165556	-0.0220022	0.0006111722	0	0	0	0
0.6337547	-0.0220022	0.0006111722	0	0	0	0
0.6506823	-0.0220022	0.0006111722	0	0	0	0
0.6682718	-0.0220022	0.0006111722	0	0	0	0
0.6857267	-0.0220022	0.0006111722	0	0	0	0
0.7035089	-0.02077986	0.0006111722	0.06874005	0	1.950788	0
0.7207352	-0.02077986	0.0006111722	0	0	-1.963525	0
0.7382387	-0.02077986	0.0006111722	0	0	0	0
0.7554706	-0.02077986	0.0006111722	0	0	0	0
0.773387	-0.02077986	0.0006111722	0	0	0	0
0.790937	-0.02077986	0.0006111722	0	0	0	0
0.8080816	-0.02077986	0.0006111722	0	0	0	0
0.8250778	-0.02077986	0.0006111722	0	0	0	0
0.8426279	-0.02077986	0.0006111722	0	0	0	0
0.8601432	-0.02077986	0.0006111722	0	0	0	0
0.8782057	-0.02077986	0.0006111722	0	0	0	0
0.8956681	-0.02077986	0.0006111722	0	0	0	0
0.912945	-0.02077986	0.0006111722	0	0	0	0
0.9300754	-0.02077986	0.0006111722	0	0	0	0
0.9477415	-0.01711282	0.0006111722	0.2075745	0	5.965379	0
0.9649493	-0.007334067	0.004278206	0.5682746	0.213103	10.34298	6.110672
0.9829577	0.01222344	0.01894634	1.086025	0.8145185	14.70206	17.07783
1.001022	0.03178096	0.03483682	1.082631	0.8796377	-0.09406698	1.805201
1.018185	0.05867254	0.0592837	1.566853	1.424411	13.74551	15.4644
1.035278	0.07211833	0.07517418	0.7866282	0.9296514	-22.77645	-14.44312
1.052695	0.0794524	0.08250825	0.421085	0.421085	-10.59238	-14.73678
1.070346	0.08067474	0.0837306	0.06925308	0.0692535	-10.03301	-10.033
1.08793	0.08067474	0.0837306	0	0	-1.965473	-1.965485
1.105294	0.08067474	0.0837306	0	0	0	0
1.122806	0.08067474	0.0837306	0	0	0	0
1.139746	0.06967364	0.07761888	-0.6494387	-0.360799	-18.85075	-10.47263
1.157036	0.03178096	0.05806137	-2.191611	-1.131154	-45.05418	-22.50574
1.174434	-0.02566924	0.0287251	-3.302024	-1.68614	-32.01114	-15.9992
1.192339	-0.07823005	0.005500551	-2.935617	-1.297133	10.37893	11.0191
1.210071	-0.1197898	-0.009167584	-2.343766	-0.8272116	16.60799	13.1865
1.227842	-0.1796846	-0.03239213	-3.37028	-1.306844	-28.91305	-13.50943
1.252325	-0.216355	-0.04828261	-1.497826	-0.649058	44.31439	15.56747
1.269613	-0.2542477	-0.06417309	-2.191853	-0.919164	-16.61529	-6.466454
1.287283	-0.2676934	-0.06784011	-0.7609	-0.2075182	40.9325	20.35668
1.304508	-0.2799169	-0.07272949	-0.7096578	-0.2838629	1.468455	-2.187821
1.322194	-0.2884733	-0.07517419	-0.48378	-0.1382232	6.470099	4.171736
1.339597	-0.2958074	-0.07639652	-0.4214476	-0.07024084	1.776425	1.937446
1.357463	-0.2994744	-0.07639653	-0.2052447	-4.170114E-07	6.130171	1.991582
1.375417	-0.3019191	-0.07639652	-0.1361691	4.149929E-07	1.928401	2.322729E-05
1.393752	-0.3055861	-0.07639653	-0.199999	-4.063534E-07	-1.758945	-2.263364E-05
1.411829	-0.3153649	-0.07639653	-0.5409344	0	-9.363087	1.115966E-05
1.429497	-0.326366	-0.07639653	-0.6226696	0	-2.28661	0
1.4469	-0.3447011	-0.07395184	-1.053577	0.1404772	-12.28693	4.005575
1.464368	-0.3642587	-0.07150716	-1.119622	0.1399524	-1.893993	-0.01505083
1.482306	-0.3740374	-0.07028481	-0.5451367	0.06814251	16.22561	-2.028177
1.500064	-0.3740374	-0.07028481	0	0	15.27153	-1.908953
1.535159	-0.3740374	-0.07028481	0	0	0	0
1.555908	-0.3740374	-0.07028481	0	0	0	0
1.577339	-0.3740374	-0.07028481	0	0	0	0
1.61176	-0.3740374	-0.07028481	0	0	0	0
1.62982	-0.3740374	-0.07028481	0	0	0	0
1.647781	-0.3740374	-0.07028481	0	0	0	0
1.665532	-0.3740374	-0.06906246	0	0.06886195	0	1.928277
1.68439	-0.3740374	-0.06906246	0	0	0	-1.880996
1.702274	-0.372815	-0.06906246	0.06835316	0	1.860362	0
1.720652	-0.3715927	-0.06906246	0.06650861	0	-0.05086802	0
1.738647	-0.3715927	-0.06906246	0	0	-1.828509	0
1.756972	-0.3703704	-0.06784012	0.06670234	0.06670234	1.836507	1.836507
1.775547	-0.369148	-0.06784011	0.06580797	4.011115E-07	-0.0242375	-1.807633
1.794577	-0.3679257	-0.06784012	0.0642309	-3.915181E-07	-0.04193784	-2.107788E-05
1.812487	-0.3679257	-0.06784012	0	0	-1.738808	1.059887E-05
1.830812	-0.3667034	-0.06784012	0.06670103	0	1.840773	0
1.848901	-0.3667034	-0.06661778	0	0.06757402	-1.83171	1.855684
1.867255	-0.3667034	-0.06661778	0	0	0	-1.854233
1.885692	-0.365481	-0.06661778	0.06630242	0	1.802162	0
1.903703	-0.3642586	-0.06539543	0.06786428	0.06786469	0.04285201	1.861965
1.921577	-0.3630363	-0.06539543	0.06838614	0	0.01454231	-1.891135
1.940448	-0.361814	-0.06417309	0.06477217	0.06477375	-0.09835254	1.762787
1.958455	-0.3593693	-0.06417309	0.1357662	0	1.925117	-1.756445
1.977626	-0.3593693	-0.06417309	0	0	-3.651819	0
1.995778	-0.3593693	-0.06417309	0	0	0	0
2.01383	-0.3581469	-0.06417309	0.06771191	0	1.870301	0
2.032188	-0.3569246	-0.06295075	0.06658355	0.06658193	-0.03098992	1.828643
2.050362	-0.3557023	-0.06295074	0.06725723	4.099651E-07	0.01844078	-1.822545
2.068799	-0.3483682	-0.06295074	0.3977987	0	9.02863	-1.119806E-05
2.086565	-0.3080308	-0.05683902	2.270389	0.3439983	51.72418	9.501826
2.10462	-0.2725828	-0.05194964	1.963338	0.2708051	-8.571669	-2.043264
2.123219	-0.2322455	-0.04583792	2.168844	0.3286127	5.606732	1.577137
2.141237	-0.1796846	-0.03728151	2.917089	0.4748748	20.43447	3.994397
2.159489	-0.1552377	-0.03239213	1.339381	0.2678764	-43.49822	-5.707054
2.178103	-0.1381249	-0.0287251	0.9193605	0.1970059	-11.39312	-1.922371
2.196055	-0.1271238	-0.0262804	0.6128089	0.1361796	-8.383564	-1.663476
2.214042	-0.113678	-0.02261337	0.7475275	0.2038711	3.748537	1.883512
2.232425	-0.1075663	-0.02261337	0.3324606	0	-11.41226	-5.605432
2.250536	-0.1038993	-0.02139103	0.202476	0.06749184	-3.561782	1.849383
2.269421	-0.09656522	-0.01894634	0.3883657	0.1294553	5.024668	1.674896
2.287502	-0.06967364	-0.01772399	1.487249	0.0676023	29.72698	-1.673247
2.306062	-0.04889378	-0.017724	1.119594	-1.003571E-07	-10.03381	-1.844963
2.324836	-0.02689158	-0.01650165	1.172008	0.06511154	1.403951	1.744066
2.343231	0.001222344	-0.017724	1.528331	-0.06644914	9.586741	-3.539597
2.361807	0.01955751	-0.01772399	0.9870402	1.002721E-07	-14.64091	1.797329
2.380588	0.03178096	-0.01772399	0.650843	0	-8.999614	-2.684169E-06
2.398437	0.03911502	-0.017724	0.4108902	-1.043545E-07	-6.550689	-2.848869E-06
2.417425	0.03911502	-0.017724	0	0	-11.15403	2.832809E-06
2.444332	0.03911502	-0.017724	0	0	0	0
2.462437	0.03911502	-0.017724	0	0	0	0
2.480922	0.03911502	-0.017724	0	0	0	0
2.49875	0.03911502	-0.017724	0	0	0	0
2.51738	0.03911502	-0.017724	0	0	0	0
2.537451	0.03911502	-0.017724	0	0	0	0
2.557109	0.03911502	-0.017724	0	0	0	0
2.576602	0.03911502	-0.017724	0	0	0	0
2.595074	0.03911502	-0.017724	0	0	0	0
2.613271	0.03911502	-0.017724	0	0	0	0
2.631223	0.03911502	-0.017724	0	0	0	0
2.64925	0.03911502	-0.017724	0	0	0	0
2.667201	0.03911502	-0.017724	0	0	0	0
2.685939	0.03911502	-0.017724	0	0	0	0
2.703948	0.03911502	-0.017724	0	0	0	0
2.721714	0.03911502	-0.017724	0	0	0	0
2.739938	0.03911502	-0.017724	0	0	0	0
2.757677	0.03911502	-0.017724	0	0	0	0
2.776091	0.03911502	-0.017724	0	0	0	0
2.794441	0.03911502	-0.017724	0	0	0	0
2.812491	0.03911502	-0.017724	0	0	0	0
2.830326	0.03911502	-0.017724	0	0	0	0
2.848038	0.03911502	-0.017724	0	0	0	0
2.865794	0.03911502	-0.017724	0	0	0	0
2.884185	0.03911502	-0.017724	0	0	0	0
2.901967	0.03911502	-0.017724	0	0	0	0
2.919904	0.03911502	-0.017724	0	0	0	0
2.938021	0.03911502	-0.017724	0	0	0	0
2.956219	0.03911502	-0.017724	0	0	0	0
2.975126	0.03911502	-0.017724	0	0	0	0
2.994015	0.03911502	-0.017724	0	0	0	0
3.012072	0.03911502	-0.017724	0	0	0	0
3.029933	0.03911502	-0.017724	0	0	0	0
3.048111	0.03911502	-0.017724	0	0	0	0
3.066082	0.03911502	-0.017724	0	0	0	0
3.08463	0.03911502	-0.017724	0	0	0	0
3.102981	0.03911502	-0.017724	0	0	0	0
3.120963	0.03911502	-0.017724	0	0	0	0
3.139083	0.03911502	-0.017724	0	0	0	0
3.157181	0.03911502	-0.017724	0	0	0	0
3.17588	0.03911502	-0.017724	0	0	0	0
3.19472	0.03911502	-0.017724	0	0	0	0
3.212914	0.03911502	-0.017724	0	0	0	0
3.230979	0.03911502	-0.017724	0	0	0	0
3.249018	0.03911502	-0.017724	0	0	0	0
3.267198	0.03911502	-0.017724	0	0	0	0
3.28561	0.03911502	-0.017724	0	0	0	0
3.303448	0.03911502	-0.017724	0	0	0	0
3.321229	0.03911502	-0.017724	0	0	0	0
3.339123	0.03789268	-0.01772399	-0.06830936	1.040917E-07	-1.914753	2.917754E-06
3.357051	0.03667033	-0.01650165	-0.06818016	0.06818016	0.003606697	1.90328
3.375404	0.03544799	-0.01650165	-0.06660202	1.0149E-07	0.04349749	-1.879216
3.394221	0.03544799	-0.01650165	0	0	1.791814	-2.730416E-06
3.412398	0.03544799	-0.01650165	0	0	0	0
3.430123	0.03544799	-0.01650165	0	0	0	0
3.44839	0.03544799	-0.01650165	0	0	0	0
3.466218	0.03544799	-0.01650165	0	0	0	0
3.4846	0.03544799	-0.01650165	0	0	0	0
3.502412	0.03544799	-0.01650165	0	0	0	0
3.520217	0.03544799	-0.01650165	0	0	0	0
3.537951	0.03544799	-0.01650165	0	0	0	0
3.55566	0.03544799	-0.01650165	0	0	0	0
3.574764	0.03544799	-0.01650165	0	0	0	0
3.593683	0.03544799	-0.01650165	0	0	0	0
3.619252	0.03544799	-0.01650165	0	0	0	0
3.636961	0.03422565	-0.01527931	-0.06902744	0.06902754	-1.595005	1.595007
3.654897	0.03422565	-0.01527931	0	0	1.936564	-1.936566
3.673704	0.03422565	-0.01527931	0	0	0	0
3.69159	0.0330033	-0.01527931	-0.06833941	-5.206875E-08	-1.862448	-1.419025E-06
3.710171	0.0330033	-0.01527931	0	0	1.874015	1.427838E-06
3.728301	0.03055861	-0.01405696	-0.1348417	0.06742089	-3.673109	1.836556
3.746793	0.03055861	-0.01283462	0	0.06609879	3.681909	-0.03610045
3.764499	0.03055861	-0.01283462	0	0	0	-1.826003
3.783226	0.03055861	-0.01283462	0	0	0	0
3.801101	0.03055861	-0.01283462	0	0	0	0
3.819323	0.03055861	-0.01283462	0	0	0	0
3.837699	0.03055861	-0.01283462	0	0	0	0
3.866405	0.02933627	-0.01283462	-0.04258272	-3.244448E-08	-0.9044476	-6.891134E-07
3.885864	0.02933627	-0.01283462	0	0	0.8840995	6.736099E-07
3.905457	0.02933627	-0.01283462	0	0	0	0
3.925949	0.02933627	-0.01283462	0	0	0	0
3.944318	0.02933627	-0.01283462	0	0	0	0
3.962322	0.02933627	-0.01283462	0	0	0	0
3.981107	0.02933627	-0.01283462	0	0	0	0
4.000069	0.02933627	-0.01283462	0	0	0	0
4.035436	0.02933627	-0.01283462	0	0	0	0
4.054958	0.02933627	-0.01283462	0	0	0	0
4.088505	0.02933627	-0.01283462	0	0	0	0
4.106484	0.02933627	-0.01283462	0	0	0	0
4.124817	0.02933627	-0.01283462	0	0	0	0
4.143164	0.02933627	-0.01283462	0	0	0	0
4.161736	0.02933627	-0.01283462	0	0	0	0
4.181704	0.02933627	-0.01283462	0	0	0	0
4.200556	0.02933627	-0.01283462	0	0	0	0
4.21857	0.02933627	-0.01283462	0	0	0	0
4.236637	0.02933627	-0.01283462	0	0	0	0
4.25464	0.02933627	-0.01283462	0	0	0	0
4.273059	0.02933627	-0.01283462	0	0	0	0
4.290937	0.02933627	-0.01283462	0	0	0	0
4.309615	0.02933627	-0.01283462	0	0	0	0
4.328035	0.02933627	-0.01283462	0	0	0	0
4.345771	0.02933627	-0.01283462	0	0	0	0
4.363689	0.02933627	-0.01283462	0	0	0	0
4.382078	0.02933627	-0.01283462	0	0	0	0
4.400301	0.02933627	-0.01283462	0	0	0	0
4.418577	0.02933627	-0.01283462	0	0	0	0
4.436557	0.02933627	-0.01283462	0	0	0	0
4.454542	0.02933627	-0.01283462	0	0	0	0
4.473031	0.02933627	-0.01283462	0	0	0	0
4.491165	0.02933627	-0.01283462	0	0	0	0
4.509673	0.02933627	-0.01283462	0	0	0	0
4.528206	0.02933627	-0.01283462	0	0	0	0
4.546196	0.02933627	-0.01283462	0	0	0	0
4.564095	0.02933627	-0.01283462	0	0	0	0
4.582928	0.02933627	-0.01283462	0	0	0	0
4.600886	0.02933627	-0.01283462	0	0	0	0
4.618924	0.02933627	-0.01283462	0	0	0	0
4.636722	0.02933627	-0.01283462	0	0	0	0
4.655025	0.02933627	-0.01283462	0	0	0	0
4.673771	0.02933627	-0.01283462	0	0	0	0
4.691875	0.02933627	-0.01283462	0	0	0	0
4.710357	0.02933627	-0.01283462	0	0	0	0
4.728684	0.02933627	-0.01283462	0	0	0	0
4.747009	0.02933627	-0.01283462	0	0	0	0
4.764989	0.02933627	-0.01283462	0	0	0	0
4.783663	0.02933627	-0.01283462	0	0	0	0
4.808493	0.02933627	-0.01283462	0	0	0	0
4.827063	0.02933627	-0.01283462	0	0	0	0
4.844878	0.02933627	-0.01283462	0	0	0	0
4.863035	0.02933627	-0.01283462	0	0	0	0
4.881459	0.02933627	-0.01283462	0	0	0	0
4.899514	0.02933627	-0.01283462	0	0	0	0
4.918031	0.02933627	-0.01283462	0	0	0	0
4.936113	0.02933627	-0.01283462	0	0	0	0
4.9544	0.02933627	-0.01283462	0	0	0	0
4.974169	0.02933627	-0.01283462	0	0	0	0
4.993701	0.02933627	-0.01283462	0	0	0	0
5.012424	0.02933627	-0.01283462	0	0	0	0
5.031379	0.02933627	-0.01283462	0	0	0	0
5.050951	0.02933627	-0.01283462	0	0	0	0
5.071489	0.02933627	-0.01283462	0	0	0	0
5.090798	0.02933627	-0.01283462	0	0	0	0
5.110116	0.02933627	-0.01283462	0	0	0	0
5.131457	0.02933627	-0.01283462	0	0	0	0
5.150251	0.02933627	-0.01283462	0	0	0	0
5.170797	0.02933627	-0.01283462	0	0	0	0
5.189232	0.02933627	-0.01283462	0	0	0	0
5.20747	0.02933627	-0.01283462	0	0	0	0
5.226247	0.02933627	-0.01283462	0	0	0	0
5.245103	0.02933627	-0.01283462	0	0	0	0
5.263579	0.02933627	-0.01283462	0	0	0	0
5.282519	0.02933627	-0.01283462	0	0	0	0
5.300467	0.02933627	-0.01283462	0	0	0	0
5.31869	0.02933627	-0.01283462	0	0	0	0
5.336985	0.02933627	-0.01283462	0	0	0	0
5.356189	0.02933627	-0.01283462	0	0	0	0
5.376242	0.02933627	-0.01283462	0	0	0	0
5.396365	0.02933627	-0.01283462	0	0	0	0
5.414846	0.02933627	-0.01283462	0	0	0	0
5.433168	0.02933627	-0.01283462	0	0	0	0
5.45111	0.02933627	-0.01283462	0	0	0	0
5.469207	0.02933627	-0.01283462	0	0	0	0
5.486979	0.02933627	-0.01283462	0	0	0	0
5.504802	0.02933627	-0.01283462	0	0	0	0
5.523077	0.02933627	-0.01283462	0	0	0	0
5.542141	0.02933627	-0.01283462	0	0	0	0
5.561318	0.02933627	-0.01283462	0	0	0	0
5.579563	0.02933627	-0.01283462	0	0	0	0
5.597591	0.02933627	-0.01283462	0	0	0	0
5.615908	0.02933627	-0.01283462	0	0	0	0
5.634011	0.02933627	-0.01283462	0	0	0	0
5.652302	0.02933627	-0.01283462	0	0	0	0
5.670735	0.02933627	-0.01283462	0	0	0	0
5.688693	0.02933627	-0.01283462	0	0	0	0
5.706886	0.02933627	-0.01283462	0	0	0	0
5.72594	0.02933627	-0.01283462	0	0	0	0
5.744417	0.02933627	-0.01283462	0	0	0	0
5.762438	0.02933627	-0.01283462	0	0	0	0
5.780842	0.02933627	-0.01283462	0	0	0	0
5.798812	0.02933627	-0.01283462	0	0	0	0
5.816738	0.02933627	-0.01283462	0	0	0	0
5.834592	0.02933627	-0.01283462	0	0	0	0
5.852694	0.02933627	-0.01283462	0	0	0	0
5.871211	0.02933627	-0.01283462	0	0	0	0
5.889234	0.02933627	-0.01283462	0	0	0	0
5.906926	0.02933627	-0.01283462	0	0	0	0
5.92507	0.02933627	-0.01283462	0	0	0	0
5.943603	0.02933627	-0.01283462	0	0	0	0
5.961944	0.02933627	-0.01283462	0	0	0	0
5.980958	0.02933627	-0.01283462	0	0	0	0
6.006802	0.02933627	-0.01283462	0	0	0	0
6.025222	0.02933627	-0.01283462	0	0	0	0
6.043711	0.02933627	-0.01283462	0	0	0	0
6.064221	0.02811392	-0.01283462	-0.05959699	0	-1.528164	0
6.083736	-0.008556412	-0.01283462	-1.879127	4.772449E-08	-45.46011	1.192374E-06
6.102118	-0.04644909	-0.01161227	-2.061393	0.06649654	-4.809569	1.754681
6.120385	-0.1087887	-0.00550055	-3.412748	0.3345832	-36.87313	7.315027
6.138459	-0.1527931	-0.0006111723	-2.434611	0.2705123	26.91537	-1.763037
6.156453	-0.1870187	0.003055861	-1.902118	0.2037982	14.76361	-1.849676
6.175841	-0.2065762	0.003055861	-1.008707	0	23.89941	-5.451756
6.194562	-0.2261337	0.00550055	-1.044704	0.130588	-0.944564	3.42667
6.212809	-0.2371348	0.006722894	-0.6029112	0.06699006	11.9509	-1.720385
6.231279	-0.251803	0.009167584	-0.7941486	0.1323579	-5.208424	1.78032
6.249936	-0.2750275	0.01161227	-1.244834	0.1310352	-12.13901	-0.03562759
6.268005	-0.2860286	0.01161227	-0.6088138	5.154044E-08	17.31776	-3.567866
6.286529	-0.2896957	0.01161227	-0.1979692	0	11.22742	-1.40848E-06
6.304869	-0.2958074	0.01283462	-0.3332342	0.06664694	-3.669317	1.807924
6.323456	-0.2994744	0.01405696	-0.1972903	0.06576299	3.681354	-0.02393736
6.342239	-0.3031414	0.01405696	-0.1952351	0	0.05499434	-1.759793
6.361008	-0.3043638	0.01405696	-0.06512309	0	3.464861	0
6.379725	-0.3092532	0.01527931	-0.261237	0.065309	-5.231713	1.742242
6.399026	-0.3165872	0.01527931	-0.3799765	4.825152E-08	-3.123265	-1.717854
6.418554	-0.3312553	0.01527931	-0.7511171	-9.53814E-08	-9.558138	-3.699038E-06
6.501836	-0.3361447	0.01527931	-0.05870929	1.118282E-08	6.734836	1.036517E-06
6.553416	-0.3361447	0.01527931	0	0	0.4353303	-8.292083E-08
6.575261	-0.3361447	0.01527931	0	0	0	0
6.596592	-0.3349224	0.01527931	0.05730401	4.366086E-08	1.327214	1.011226E-06
6.616415	-0.3324777	0.01527931	0.1233267	-4.698174E-08	1.604287	-2.202527E-06
6.6354	-0.326366	0.01527931	0.3219267	0	5.117518	1.210624E-06
6.654601	-0.3214766	0.01405696	0.254644	-0.0636611	-1.76199	-1.66715
6.674227	-0.3153649	0.01405696	0.3113991	0	1.461727	1.639591
6.693645	-0.2970297	0.01405696	0.9442717	-4.796358E-08	16.20926	-1.228453E-06
6.712688	-0.2799169	0.01283462	0.8985975	-0.06418552	-1.187538	-1.668837
6.731922	-0.2432466	0.01283462	1.906566	0	26.3331	1.676842
6.751506	-0.2175773	0.01283462	1.310745	0	-15.34934	0
6.771351	-0.188241	0.01283462	1.478234	0	4.247853	0
6.790227	-0.149126	0.01283462	2.072201	0	15.33944	0
6.810231	-0.1307909	0.01283462	0.9166061	0	-29.72256	0
6.829074	-0.1161227	0.01405696	0.7784123	0.06486774	-3.557389	1.669828
6.848636	-0.1112333	0.01405696	0.249952	0	-13.76022	-1.689047
6.867994	-0.110011	0.01405696	0.06314196	-4.81089E-08	-4.799856	-1.236099E-06
6.887406	-0.1087887	0.01405696	0.06296825	0	-0.004480456	1.240858E-06
6.906862	-0.106344	0.01405696	0.1256529	9.573673E-08	1.61276	2.463128E-06
6.927048	-0.1014546	0.01405696	0.2422168	-4.613717E-08	2.940425	-3.578891E-06
6.946232	-0.09289818	0.01405696	0.4460154	-4.854655E-08	5.176487	-6.119826E-08
6.965875	-0.07823005	0.01283462	0.7467425	-0.06222852	7.74532	-1.602714
6.985289	-0.06967364	0.01283462	0.4407352	0	-7.834935	1.593283
7.004881	-0.05989488	0.01283462	0.4991126	0	1.496617	0
7.024219	-0.05745019	0.01161227	0.1264243	-0.06321213	-9.573426	-1.623761
7.044016	-0.05378316	0.01161227	0.1852286	0	1.502621	1.615253
7.062828	-0.05011613	0.01038993	0.1949287	-0.06497626	0.2512369	-1.682908
7.082336	-0.04522675	0.01038993	0.25063	0	1.453561	1.695599
7.101189	-0.04033737	0.009167584	0.2593526	-0.06483816	0.227386	-1.690228
7.120312	-0.03667034	0.00794524	0.1917594	-0.06391984	-1.779925	0.02418187
7.139503	-0.03544799	0.00794524	0.06369124	0	-3.342524	1.66828
7.158933	-0.03544799	0.00794524	0	0	-1.649117	0
7.178343	-0.03544799	0.00794524	0	0	0	0
7.197577	-0.03544799	0.00794524	0	0	0	0
7.216452	-0.03422565	0.00794524	0.06476127	0	1.699398	0
7.235689	-0.03422565	0.00794524	0	0	-1.699228	0
7.255801	-0.0330033	0.00794524	0.06077828	0	1.544592	0
7.275704	-0.03055861	0.007945239	0.1228262	-4.679152E-08	1.550607	-1.169343E-06
7.302063	-0.02566923	0.007945239	0.1854946	0	1.354634	1.01144E-06
7.32129	-0.02077986	0.006722894	0.2543032	-0.06357584	1.509453	-1.394661
7.340437	-0.01955751	0.006722894	0.06383717	0	-4.96336	1.656724
7.360076	-0.01955751	0.006722894	0	0	-1.645864	0
7.379391	-0.01955751	0.006722894	0	0	0	0
7.39834	-0.01955751	0.006722894	0	0	0	0
7.4174	-0.01955751	0.006722894	0	0	0	0
7.436461	-0.01955751	0.006722894	0	0	0	0
7.455366	-0.01955751	0.006722894	0	0	0	0
7.47592	-0.01955751	0.006722894	0	0	0	0
7.494992	-0.01955751	0.006722894	0	0	0	0
7.514256	-0.01955751	0.006722894	0	0	0	0
7.534901	-0.01833517	0.00550055	0.05921008	-0.05921008	1.483632	-1.483632
7.555151	-0.01711282	0.00550055	0.0603603	0	0.02812602	1.447857
7.575331	-0.01711282	0.00550055	0	0	-1.492956	0
7.595077	-0.01711282	0.00550055	0	0	0	0
7.614347	-0.01711282	0.00550055	0	0	0	0
7.633296	-0.01711282	0.00550055	0	0	0	0
7.65262	-0.01711282	0.00550055	0	0	0	0
7.672375	-0.01711282	0.00550055	0	0	0	0
7.693818	-0.01711282	0.00550055	0	0	0	0
7.713808	-0.01711282	0.00550055	0	0	0	0
7.733112	-0.01711282	0.00550055	0	0	0	0
7.752014	-0.01711282	0.00550055	0	0	0	0
7.771218	-0.01711282	0.00550055	0	0	0	0
7.790329	-0.01711282	0.00550055	0	0	0	0
7.809818	-0.01711282	0.00550055	0	0	0	0
7.829438	-0.01711282	0.00550055	0	0	0	0
7.848525	-0.01711282	0.00550055	0	0	0	0
7.867909	-0.01711282	0.00550055	0	0	0	0
7.887674	-0.01711282	0.00550055	0	0	0	0
7.906919	-0.01711282	0.00550055	0	0	0	0
7.92652	-0.01711282	0.00550055	0	0	0	0
7.946132	-0.01711282	0.00550055	0	0	0	0
7.965509	-0.01711282	0.00550055	0	0	0	0
7.985793	-0.01711282	0.00550055	0	0	0	0
8.005123	-0.01711282	0.00550055	0	0	0	0
8.024321	-0.01711282	0.00550055	0	0	0	0
8.043637	-0.01711282	0.00550055	0	0	0	0
8.062883	-0.01711282	0.00550055	0	0	0	0
8.082001	-0.01711282	0.00550055	0	0	0	0
8.100658	-0.01711282	0.00550055	0	0	0	0
8.119593	-0.01711282	0.00550055	0	0	0	0
8.138689	-0.01711282	0.00550055	0	0	0	0
8.158107	-0.01589048	0.00550055	0.06294979	0	1.634459	0
8.178283	-0.01466813	0.00550055	0.06058431	0	-0.05974388	0
8.197229	-0.01466813	0.004278206	4.915501E-08	-0.06451508	-1.548575	-1.64905
8.216039	-0.01344579	0.004278206	0.06498609	0	1.721213	1.708739
8.234956	-0.0110011	0.004278206	0.1292318	0	1.702937	0
8.25396	-0.009778757	0.004278206	0.0643208	0	-1.711744	0
8.273506	-0.008556412	0.004278206	0.06253521	0	-0.04631839	0
8.292939	-0.006111722	0.004278206	0.1258008	0	1.623046	0
8.311567	-0.006111722	0.004278206	0	0	-3.305228	0
8.330455	-0.004889378	0.004278206	0.06471702	0	1.725068	0
8.349569	-0.004889378	0.004278206	0	0	-1.702989	0
8.368503	-0.003667033	0.004278206	0.06456061	0	1.696829	0
8.388224	-0.003667033	0.004278206	0	0	-1.670204	0
8.407078	-0.002444689	0.004278206	0.06483161	0	1.680657	0
8.426644	-0.002444689	0.004278206	0	0	-1.687415	0
8.445699	-0.001222344	0.004278206	0.06415021	0	1.661021	0
8.464994	-0.001222344	0.004278206	0	0	-1.672752	0
8.484545	0	0.004278206	0.06252298	0	1.609508	0
8.50346	0.001222344	0.004278206	0.06462242	0	0.05457981	0
8.522574	0.002444689	0.004278206	0.06394856	0	-0.01771913	0
8.552367	0.003667033	0.004278206	0.0410282	0	-0.4686494	0
8.57337	0.004889378	0.003055861	0.05819921	-0.05819921	0.3380416	-1.145754
8.592886	0.006111722	0.003055861	0.06263298	0	0.1094251	1.436352
8.612273	0.006111722	0.003055861	0	0	-1.609968	0
8.631354	0.008556412	0.003055861	0.1281209	1.220215E-08	3.330552	3.171996E-07
8.650494	0.009778756	0.003055861	0.0638657	-1.216506E-08	-1.681175	-6.375446E-07
8.669815	0.0110011	0.001833517	0.06326365	-0.06326362	-0.01565348	-1.644888
8.689096	0.01466813	0.001833517	0.1901851	-1.207541E-08	3.287879	1.638833
8.708784	0.01466813	0.001833517	0	0	-4.880415	3.098719E-07
8.727937	0.01589048	0.001833517	0.06382127	6.078291E-09	1.643172	1.564945E-07
8.747027	0.01589048	0.0006111722	-9.756844E-08	-0.06402843	-1.668825	-1.67424
8.765999	0.01589048	0.0006111722	0	0	2.563402E-06	1.68221
8.785405	0.01589048	0.0006111722	0	0	0	0
8.804278	0.01589048	0.0006111722	0	0	0	0
8.823255	0.01589048	0.0006111722	0	0	0	0
8.843161	0.01589048	0.0006111722	0	0	0	0
8.870967	0.01589048	0.0006111722	0	0	0	0
8.892336	0.01589048	0.0006111722	0	0	0	0
8.911824	0.01589048	0.0006111722	0	0	0	0
8.932928	0.01589048	0.0006111722	0	0	0	0
8.953678	0.01589048	0.0006111722	0	0	0	0
8.974909	0.01589048	0.0006111722	0	0	0	0
9.011187	0.01589048	0.0006111722	0	0	0	0
9.030223	0.01589048	0.0006111722	0	0	0	0
9.04971	0.01589048	0.0006111722	0	0	0	0
9.084855	0.01589048	0.0006111722	0	0	0	0
9.105145	0.01589048	0.0006111722	0	0	0	0
9.125508	0.01589048	0.0006111722	0	0	0	0
9.145873	0.01589048	0.0006111722	0	0	0	0
9.165257	0.01589048	0.0006111722	0	0	0	0
9.184901	0.01589048	0.0006111722	0	0	0	0
9.204088	0.01589048	0.0006111722	0	0	0	0
9.22328	0.01589048	0.0006111722	0	0	0	0
9.242851	0.01589048	0.0006111722	0	0	0	0
9.261816	0.01589048	0.0006111722	0	0	0	0
9.28199	0.01589048	0.0006111722	0	0	0	0
9.301177	0.01589048	0.0006111722	0	0	0	0
9.320234	0.01589048	0.0006111722	0	0	0	0
9.339611	0.01589048	0.0006111722	0	0	0	0
9.358959	0.01589048	0.0006111722	0	0	0	0
9.378232	0.01589048	0.0006111722	0	0	0	0
9.397215	0.01589048	0.0006111722	0	0	0	0
9.416313	0.01589048	0.0006111722	0	0	0	0
9.435299	0.01589048	0.0006111722	0	0	0	0
9.454333	0.01589048	0.0006111722	0	0	0	0
9.473513	0.01589048	0.0006111722	0	0	0	0
9.493354	0.01589048	0.0006111722	0	0	0	0
9.512359	0.01589048	0.0006111722	0	0	0	0
9.531047	0.01589048	0.0006111722	0	0	0	0
9.550095	0.01589048	0.0006111722	0	0	0	0
9.570808	0.01589048	0.0006111722	0	0	0	0
9.589675	0.01589048	0.0006111722	0	0	0	0
9.610476	0.01589048	0.0006111722	0	0	0	0
9.629769	0.01589048	0.0006111722	0	0	0	0
9.649035	0.01589048	0.0006111722	0	0	0	0
9.667781	0.01589048	0.0006111722	0	0	0	0
9.687528	0.01589048	0.0006111722	0	0	0	0
9.706648	0.01589048	0.0006111722	0	0	0	0
9.726042	0.01589048	0.0006111722	0	0	0	0
9.745261	0.01589048	0.0006111722	0	0	0	0
9.764433	0.01589048	0.0006111722	0	0	0	0
9.784192	0.01589048	0.0006111722	0	0	0	0
9.810616	0.01589048	0.0006111722	0	0	0	0
9.82919	0.01589048	0.0006111722	0	0	0	0
9.848086	0.01589048	0.0006111722	0	0	0	0
9.867335	0.01589048	0.0006111722	0	0	0	0
9.886809	0.01589048	0.0006111722	0	0	0	0
9.905768	0.01589048	0.0006111722	0	0	0	0
9.926426	0.01589048	0.0006111722	0	0	0	0
9.945421	0.01589048	0.0006111722	0	0	0	0
9.965295	0.01589048	0.0006111722	0	0	0	0
9.985934	0.01589048	0.0006111722	0	0	0	0
10.00499	0.01589048	0.0006111722	0	0	0	0
10.02517	0.01589048	0.0006111722	0	0	0	0
10.04427	0.01589048	0.0006111722	0	0	0	0
10.06372	0.01589048	0.0006111722	0	0	0	0
10.08293	0.01589048	0.0006111722	0	0	0	0
10.10155	0.01589048	0.0006111722	0	0	0	0
10.12037	0.01589048	0.0006111722	0	0	0	0
10.13937	0.01589048	0.0006111722	0	0	0	0
10.15847	0.01589048	0.0006111722	0	0	0	0
10.17796	0.01589048	0.0006111722	0	0	0	0
10.19711	0.01589048	0.0006111722	0	0	0	0
10.21632	0.01589048	0.0006111722	0	0	0	0
10.23544	0.01589048	0.0006111722	0	0	0	0
10.25535	0.01589048	0.0006111722	0	0	0	0
10.27547	0.01589048	0.0006111722	0	0	0	0
10.29495	0.01589048	0.0006111722	0	0	0	0
10.31432	0.01589048	0.0006111722	0	0	0	0
10.33368	0.01589048	0.0006111722	0	0	0	0
10.35267	0.01589048	0.0006111722	0	0	0	0
10.3725	0.01589048	0.0006111722	0	0	0	0
10.39189	0.01589048	0.0006111722	0	0	0	0
10.41073	0.01589048	0.0006111722	0	0	0	0
10.42966	0.01589048	0.0006111722	0	0	0	0
10.44876	0.01589048	0.0006111722	0	0	0	0
10.46823	0.01589048	0.0006111722	0	0	0	0
10.48806	0.01589048	0.0006111722	0	0	0	0
10.50707	0.01589048	-0.0006111722	0	-0.06429178	0	-1.655042
10.52655	0.01955751	-0.01650165	0.1882301	-0.8156635	4.889841	-19.51913
10.5455	0.02566923	-0.03972619	0.3225429	-1.225663	3.494981	-10.66868
10.56469	0.03667033	-0.08250825	0.5731921	-2.22908	6.571602	-26.30792
10.58429	0.07334067	-0.1754064	1.871763	-4.741801	33.48211	-64.78751
10.60355	0.09778755	-0.2255226	1.268716	-2.600869	-15.51832	55.093
10.62316	0.1246791	-0.2683046	1.371492	-2.181918	2.643631	10.77646
10.64287	0.1332356	-0.2841951	0.4342091	-0.806387	-23.84135	34.98893
10.66186	0.1393473	-0.2951962	0.3217489	-0.5791495	-2.90587	5.87161
10.68141	0.1393473	-0.2964185	0	-0.06253964	-8.348464	13.40455
10.70123	0.1393473	-0.2964185	0	0	0	1.588527
10.72059	0.1393473	-0.2964185	0	0	0	0
10.73994	0.1393473	-0.2964185	0	0	0	0
10.76021	0.1393473	-0.2964185	0	0	0	0
10.79871	0.1393473	-0.2964185	0	0	0	0
10.82155	0.1393473	-0.2964185	0	0	0	0
10.85972	0.1405696	-0.2964185	0.03202616	-7.808401E-07	0.524938	-1.279868E-05
10.89709	0.1405696	-0.2964185	0	0	-0.4239599	1.03367E-05
10.91722	0.1405696	-0.2964185	0	0	0	0
10.93695	0.1405696	-0.2964185	0	0	0	0
10.95726	0.1405696	-0.2964185	0	0	0	0
10.98591	0.1405696	-0.2964185	0	0	0	0
11.00661	0.1405696	-0.2964185	0	0	0	0
11.02712	0.1405696	-0.2964185	0	0	0	0
11.04688	0.1405696	-0.2964185	0	0	0	0
11.06689	0.1405696	-0.2964185	0	0	0	0
11.09476	0.1405696	-0.2964185	0	0	0	0
11.11609	0.1405696	-0.2964185	0	0	0	0
11.13639	0.1405696	-0.2964185	0	0	0	0
11.15662	0.1405696	-0.2964185	0	0	0	0
11.17756	0.1405696	-0.2964185	0	0	0	0
11.19775	0.1405696	-0.2964185	0	0	0	0
11.21804	0.1405696	-0.2964185	0	0	0	0
11.23817	0.1405696	-0.2964185	0	0	0	0
11.25888	0.1405696	-0.2964185	0	0	0	0
11.27954	0.1405696	-0.2964185	0	0	0	0
11.29957	0.1405696	-0.2964185	0	0	0	0
11.31946	0.1405696	-0.2964185	0	0	0	0
11.3395	0.1405696	-0.2964185	0	0	0	0
11.35982	0.1405696	-0.2964185	0	0	0	0
11.37982	0.1405696	-0.2964185	0	0	0	0
11.39962	0.1405696	-0.2964185	0	0	0	0
11.41991	0.1405696	-0.2964185	0	0	0	0
11.43997	0.1405696	-0.2964185	0	0	0	0
11.46021	0.1405696	-0.2964185	0	0	0	0
11.48092	0.1405696	-0.2964185	0	0	0	0
11.50093	0.1405696	-0.2964185	0	0	0	0
11.52094	0.1405696	-0.2964185	0	0	0	0
11.54101	0.1405696	-0.2964185	0	0	0	0
11.56122	0.1393473	-0.2964185	-0.06046699	1.474265E-06	-1.500976	3.659579E-05
11.5811	0.1393473	-0.2964185	0	0	1.508045	-3.676813E-05
11.60109	0.1393473	-0.2964185	0	0	0	0
11.62117	0.1393473	-0.2951962	0	0.06087331	0	1.519516
11.64126	0.1381249	-0.2939739	-0.06083145	0.06083145	-1.514217	-0.001041821
11.66121	0.1369026	-0.2927515	-0.06127935	0.06128084	-0.01118583	0.01122314
11.68159	0.1369026	-0.2927515	0	0	1.519451	-1.519488
11.70211	0.1369026	-0.2927515	0	0	0	0
11.72191	0.1369026	-0.2915291	0	0.06172496	0	1.530826
11.74207	0.1369026	-0.2915291	0	0	0	-1.544635
11.76197	0.1369026	-0.2915291	0	0	0	0
11.78288	0.1369026	-0.2915291	0	0	0	0
11.80367	0.1369026	-0.2915291	0	0	0	0
11.82405	0.1369026	-0.2915291	0	0	0	0
11.84428	0.1369026	-0.2915291	0	0	0	0
11.86463	0.1369026	-0.2915291	0	0	0	0
11.88598	0.1369026	-0.2915291	0	0	0	0
11.90666	0.1369026	-0.2915291	0	0	0	0
11.9273	0.1369026	-0.2915291	0	0	0	0
11.9486	0.1369026	-0.2915291	0	0	0	0
11.96904	0.1369026	-0.2915291	0	0	0	0
11.9902	0.1369026	-0.2915291	0	0	0	0
12.01049	0.1356802	-0.2915292	-0.06022548	-1.468377E-06	-1.452782	-3.542076E-05
12.03056	0.1356802	-0.2915292	0	0	1.492014	3.637729E-05
12.05047	0.1356802	-0.2903068	-7.486106E-07	0.06141002	-1.872734E-05	1.536241
12.07179	0.1344579	-0.2890845	-0.05731356	0.05731426	-1.390004	-0.0993344
12.09211	0.1332355	-0.2866398	-0.06017815	0.1203548	-0.06879534	1.513967
12.11232	0.1307909	-0.2841951	-0.120934	0.120934	-1.499132	0.01429032
12.13196	0.1283462	-0.2793057	-0.1244931	0.2489862	-0.08930831	3.213183
12.15188	0.1259015	-0.276861	-0.1227178	0.1227186	0.04487686	-3.191928
12.17241	0.1210121	-0.269527	-0.2382156	0.3573233	-2.855583	5.800403
12.19344	0.1161227	-0.2609706	-0.2324484	0.4067841	0.1387684	1.190129
12.21334	0.106344	-0.2463024	-0.4914577	0.7371864	-6.327839	8.072038
12.23324	0.1014546	-0.241413	-0.2455992	0.2455996	6.17651	-12.34975
12.25369	0.0990099	-0.234079	-0.1195693	0.3587081	3.123126	2.802925
12.27517	0.09534287	-0.2304119	-0.1706914	0.170691	-1.219247	-4.484153
12.29533	0.09167584	-0.2206332	-0.1819073	0.4850861	-0.2693404	7.549918
12.31629	0.08556411	-0.2108544	-0.2916318	0.4666112	-2.668673	-0.4493388
12.33658	0.08434177	-0.2071874	-0.06025663	0.1807706	5.610102	-6.930712
12.35661	0.08189708	-0.202298	-0.1220456	0.2440904	-1.532594	1.570564
12.38466	0.0794524	-0.1998533	-0.08713248	0.08713248	0.7260241	-3.263968
12.40494	0.07578535	-0.1912969	-0.1808216	0.4219162	-1.93825	6.926036
12.42512	0.07334068	-0.1876299	-0.1211508	0.1817275	1.474859	-5.936642
12.44506	0.07089598	-0.1815182	-0.1226239	0.306558	-0.03672213	3.111788
12.46524	0.06845129	-0.1741841	-0.1211397	0.3634199	0.03699674	1.417393
12.48611	0.06111722	-0.1619606	-0.351333	0.5855553	-5.606856	5.410588
12.50622	0.05622785	-0.1509596	-0.2431877	0.5471722	2.638956	-0.9366215
12.52658	0.04767143	-0.1338467	-0.4201578	0.8403161	-4.372859	7.243464
12.54645	0.04155971	-0.1216233	-0.3076621	0.6153246	2.796329	-5.592658
12.56681	0.02933627	-0.09962107	-0.6003941	1.080709	-7.277531	11.5698
12.58765	0.02077986	-0.08128591	-0.4105825	0.8798193	4.607219	-4.876112
12.60813	0.01466813	-0.07272949	-0.2984494	0.4178296	2.713908	-11.18134
12.62816	0.009778756	-0.0617284	-0.2440212	0.5490474	1.343412	3.23875
12.64834	0.007334067	-0.05561667	-0.1211399	0.3028498	3.055425	-6.121667
12.66875	0.002444689	-0.04706026	-0.2396636	0.4194113	-2.92062	2.872267
12.68932	0	-0.04217089	-0.1188319	0.2376638	2.94901	-4.435716
12.70966	-0.003667033	-0.03850385	-0.1802786	0.1802787	-1.501866	-1.402593
12.73003	-0.003667034	-0.03605916	-1.143195E-08	0.1200338	4.428625	-1.479943
12.75032	-0.004889377	-0.03361447	-0.06022839	0.120457	-1.481203	0.01040818
12.77077	-0.007334067	-0.03116979	-0.1195692	0.1195689	-1.456538	-0.02179874
12.79098	-0.007334067	-0.0287251	4.607296E-08	0.1209401	2.940716	0.03372266
12.81135	-0.008556411	-0.02750275	-0.06001127	0.06001136	-1.478743	-1.501348
12.83125	-0.008556411	-0.02628041	0	0.0614203	1.490228	0.03498733
12.85149	-0.008556412	-0.02505806	-4.602302E-08	0.06040448	-1.14664E-06	-0.02530853
12.87221	-0.008556412	-0.02383572	0	0.05898655	1.123653E-06	-0.03461872
12.8925	-0.009778756	-0.02139103	-0.06023123	0.1204626	-1.468461	1.498809
12.91233	-0.009778756	-0.02016868	0	0.06164193	1.50113	-1.465974
12.93226	-0.0110011	-0.01894634	-0.06133222	0.06133231	-1.542575	-0.007787296
12.95266	-0.01222344	-0.01772399	-0.05993275	0.0599327	0.03470469	-0.0347082
12.97304	-0.01222345	-0.01650165	-4.568286E-08	0.05995793	1.469588	0.0006187811
12.99344	-0.01222345	-0.01650165	0	0	1.120199E-06	-1.470241
13.01421	-0.01222345	-0.01650165	0	0	0	0
13.03466	-0.01222345	-0.01650165	0	0	0	0
13.05596	-0.01222345	-0.01650165	0	0	0	0
13.07667	-0.01222345	-0.01650165	0	0	0	0
13.10662	-0.01222345	-0.01650165	0	0	0	0
13.12825	-0.01222345	-0.01650165	0	0	0	0
13.14884	-0.01222345	-0.01650165	0	0	0	0
13.17098	-0.01222345	-0.01650165	0	0	0	0
13.19189	-0.01222345	-0.01650165	0	0	0	0
13.21244	-0.01222345	-0.01650165	0	0	0	0
13.25177	-0.01222345	-0.01650165	0	0	0	0
13.27374	-0.01222345	-0.01650165	0	0	0	0
13.29467	-0.01222345	-0.01650165	0	0	0	0
13.33144	-0.01222345	-0.01650165	0	0	0	0
13.35144	-0.01222345	-0.01650165	0	0	0	0
13.37241	-0.01222345	-0.01650165	0	0	0	0
13.39388	-0.01222345	-0.01650165	0	0	0	0
13.41498	-0.01222345	-0.01650165	0	0	0	0
13.43591	-0.01222345	-0.01650165	0	0	0	0
13.45581	-0.01222345	-0.01650165	0	0	0	0
13.47702	-0.01222345	-0.01650165	0	0	0	0
13.49688	-0.01222345	-0.01650165	0	0	0	0
13.51707	-0.01222345	-0.01650165	0	0	0	0
13.53731	-0.01222345	-0.01650165	0	0	0	0
13.55775	-0.01222345	-0.01650165	0	0	0	0
13.57826	-0.01222345	-0.01650165	0	0	0	0
13.59828	-0.01222345	-0.01650165	0	0	0	0
13.61821	-0.01222345	-0.01650165	0	0	0	0
13.63828	-0.01222345	-0.01650165	0	0	0	0
13.65897	-0.01222345	-0.01650165	0	0	0	0
13.67968	-0.01222345	-0.01650165	0	0	0	0
13.70786	-0.01222345	-0.01650165	0	0	0	0
13.72785	-0.01222345	-0.01650165	0	0	0	0
13.74816	-0.01222345	-0.01650165	0	0	0	0
13.76831	-0.01222345	-0.01650165	0	0	0	0
13.78894	-0.01222345	-0.01650165	0	0	0	0
13.80929	-0.01222345	-0.01650165	0	0	0	0
13.82941	-0.01222345	-0.01650165	0	0	0	0
13.84939	-0.01222345	-0.01650165	0	0	0	0
13.86929	-0.01222345	-0.01650165	0	0	0	0
13.89012	-0.01222345	-0.01650165	0	0	0	0
13.91004	-0.01222345	-0.01650165	0	0	0	0
13.92988	-0.01222345	-0.01650165	0	0	0	0
13.9505	-0.01222345	-0.01650165	0	0	0	0
13.97092	-0.01222345	-0.01650165	0	0	0	0
13.99134	-0.01222345	-0.01650165	0	0	0	0
14.01117	-0.01222345	-0.01650165	0	0	0	0
14.03095	-0.01222345	-0.01650165	0	0	0	0
14.05077	-0.01222345	-0.01650165	0	0	0	0
14.07146	-0.01222345	-0.01650165	0	0	0	0
14.09183	-0.01222345	-0.01650165	0	0	0	0
14.11209	-0.01222345	-0.01650165	0	0	0	0
14.13227	-0.01222345	-0.01650165	0	0	0	0
14.15229	-0.01222345	-0.01650165	0	0	0	0
14.17256	-0.01222345	-0.01650165	0	0	0	0
14.1929	-0.01222345	-0.01650165	0	0	0	0
14.21269	-0.01222345	-0.01650165	0	0	0	0
14.23264	-0.01222345	-0.01650165	0	0	0	0
14.25293	-0.01222345	-0.01650165	0	0	0	0
14.27402	-0.01222345	-0.01650165	0	0	0	0
14.29389	-0.01222345	-0.01650165	0	0	0	0
14.31372	-0.01222345	-0.01650165	0	0	0	0
14.33373	-0.01222345	-0.01650165	0	0	0	0
14.35377	-0.01222345	-0.01650165	0	0	0	0
14.37608	-0.01222345	-0.01650165	0	0	0	0
14.39612	-0.01222345	-0.01650165	0	0	0	0
14.41598	-0.01222345	-0.01650165	0	0	0	0
14.43626	-0.01222345	-0.01650165	0	0	0	0
14.45744	-0.01222345	-0.01650165	0	0	0	0
14.47784	-0.01222345	-0.01650165	0	0	0	0
14.49859	-0.01222345	-0.01650165	0	0	0	0
14.51959	-0.01222345	-0.01650165	0	0	0	0
14.53946	-0.01222345	-0.01650165	0	0	0	0
14.55991	-0.01222345	-0.01650165	0	0	0	0
14.58065	-0.01222345	-0.01650165	0	0	0	0
14.601	-0.01222345	-0.01650165	0	0	0	0
14.62081	-0.01222345	-0.01650165	0	0	0	0
14.64057	-0.01222345	-0.01650165	0	0	0	0
14.6619	-0.01222345	-0.01650165	0	0	0	0
14.68252	-0.01222345	-0.01650165	0	0	0	0
14.70254	-0.01222345	-0.01650165	0	0	0	0
14.72354	-0.01222345	-0.01650165	0	0	0	0
14.74502	-0.01222345	-0.01650165	0	0	0	0
14.76521	-0.01222345	-0.01650165	0	0	0	0
14.786	-0.01222345	-0.01650165	0	0	0	0
14.80664	-0.01222345	-0.01650165	0	0	0	0
14.82661	-0.01222345	-0.01650165	0	0	0	0
14.84633	-0.01222345	-0.01650165	0	0	0	0
14.86681	-0.01222345	-0.01650165	0	0	0	0
14.88732	-0.01222345	-0.01650165	0	0	0	0
14.90775	-0.01222345	-0.01650165	0	0	0	0
14.92791	-0.01222345	-0.01650165	0	0	0	0
14.94783	-0.01222345	-0.01650165	0	0	0	0
14.96769	-0.01222345	-0.01650165	0	0	0	0
14.98817	-0.01222345	-0.01650165	0	0	0	0
15.01516	-0.01222345	-0.01650165	0	0	0	0
15.03494	-0.01222345	-0.01650165	0	0	0	0
15.05506	-0.01222345	-0.01650165	0	0	0	0
15.07649	-0.01222345	-0.01650165	0	0	0	0
15.09632	-0.01222345	-0.01650165	0	0	0	0
15.1162	-0.01222345	-0.01650165	0	0	0	0
15.13668	-0.01222345	-0.01650165	0	0	0	0
15.15693	-0.01222345	-0.01650165	0	0	0	0
15.17787	-0.01222345	-0.01650165	0	0	0	0
15.19775	-0.01222345	-0.01650165	0	0	0	0
15.21752	-0.01222345	-0.01650165	0	0	0	0
15.23716	-0.01222345	-0.01650165	0	0	0	0
15.25736	-0.01222345	-0.01650165	0	0	0	0
15.27749	-0.01833517	0.0006111722	-0.3037253	0.8504311	-7.531727	21.08884
15.29733	-0.02933627	0.03116979	-0.5543511	1.539864	-6.270733	17.24982
15.31722	-0.06233956	0.1265126	-1.659464	4.794008	-27.81352	81.90041
15.33738	-0.09412052	0.2108544	-1.576086	4.182689	2.08173	-15.26298
15.3577	-0.1234568	0.2854174	-1.444328	3.671001	3.255207	-12.6418
15.37802	-0.1307909	0.3037526	-0.3608111	0.9020274	26.66268	-68.1376
15.39784	-0.1356802	0.3208654	-0.2466867	0.8634025	2.842675	-0.962092
15.41873	-0.1369026	0.3257548	-0.05852864	0.2341146	4.622512	-15.45982
15.43944	-0.1369026	0.3306442	0	0.2360889	1.407124	0.04746575
15.46018	-0.1381249	0.3343112	-0.05892689	0.1767807	-1.421522	-1.430722
15.48085	-0.1381249	0.3355336	0	0.05913896	1.42293	-2.840739
15.50129	-0.1381249	0.3355336	0	0	0	-1.438519
15.52097	-0.1381249	0.3355336	0	0	0	0
15.54223	-0.1381249	0.3355336	0	0	0	0
15.58232	-0.1381249	0.3355336	0	0	0	0
15.60561	-0.1381249	0.3355336	0	0	0	0
15.62775	-0.1381249	0.3355336	0	0	0	0
15.66692	-0.1381249	0.3355336	0	0	0	0
15.69052	-0.1381249	0.3355336	0	0	0	0
15.71232	-0.1381249	0.3355336	0	0	0	0
15.73318	-0.1381249	0.3355336	0	0	0	0
15.7541	-0.1381249	0.3355336	0	0	0	0
15.77658	-0.1381249	0.3355336	0	0	0	0
15.79758	-0.1381249	0.3355336	0	0	0	0
15.81852	-0.1381249	0.3355336	0	0	0	0
15.83961	-0.1381249	0.3343112	0	-0.05797009	0	-1.379338
15.86068	-0.1369026	0.3330889	0.05800682	-0.05800682	1.375935	-0.000871276
15.88214	-0.1369026	0.3330889	0	0	-1.363718	1.363718
15.90285	-0.1356802	0.3318665	0.05902186	-0.05902186	1.399505	-1.399505
15.92414	-0.1307909	0.3269772	0.2296884	-0.2296884	4.063784	-4.063784
15.9452	-0.1234568	0.3147537	0.3481999	-0.5803323	2.798395	-8.279702
15.96675	-0.1087887	0.2927515	0.6805898	-1.020885	7.799844	-10.33798
15.98854	-0.09534287	0.2719716	0.6171564	-0.9537877	-1.463664	1.548193
16.0097	-0.07089598	0.2365237	1.155276	-1.67515	12.52963	-16.79627
16.0303	-0.04767143	0.1974086	1.127649	-1.899198	-0.6616336	-5.365562
16.05127	-0.03422565	0.16685	0.6410353	-1.456899	-11.70569	10.63969
16.07414	-0.01833517	0.1265126	0.6949607	-1.764131	1.230039	-7.007962
16.09587	-0.006111722	0.09595404	0.5625037	-1.406259	-2.970172	8.024793
16.11717	0	0.07761887	0.2868668	-0.8606004	-6.404871	12.67927
16.13879	0.008556412	0.05561667	0.3958023	-1.017778	2.53793	-3.661844
16.15992	0.01222344	0.04217089	0.1735809	-0.636463	-5.198932	8.920956
16.18154	0.01466813	0.03605916	0.1130465	-0.2826162	-1.415965	8.276864
16.20243	0.01711282	0.0287251	0.1170522	-0.3511565	0.09422654	-1.612296
16.22347	0.01833517	0.02261337	0.05808051	-0.2904027	-1.406392	1.448896
16.24469	0.02077986	0.017724	0.115242	-0.2304839	1.35264	1.417887
16.2659	0.02322455	0.01161227	0.1152523	-0.2881308	0.0002421759	-1.358793
16.28733	0.02444689	0.00550055	0.0570212	-0.2851057	-1.365378	0.07093303
16.30889	0.02689158	0.0006111722	0.1134064	-0.2268132	1.311482	1.355843
16.32977	0.02933627	-0.00794524	0.1171164	-0.4099072	0.08743478	-4.315112
16.35718	0.03178096	-0.01527931	0.08917566	-0.2675268	-0.5786226	2.948544
16.37859	0.0330033	-0.01772399	0.05709215	-0.1141845	-0.6571216	3.140697
16.39949	0.0330033	-0.01894634	1.782048E-07	-0.05847275	-1.349229	1.31661
16.42038	0.0330033	-0.01894634	0	0	-4.264293E-06	1.399204
16.44138	0.0330033	-0.01894634	0	0	0	0
16.46223	0.0330033	-0.01894634	0	0	0	0
16.48342	0.0330033	-0.01894634	0	0	0	0
16.50431	0.0330033	-0.01894634	0	0	0	0
16.52574	0.0330033	-0.01894634	0	0	0	0
16.54754	0.0330033	-0.01894634	0	0	0	0
16.56932	0.0330033	-0.01894634	0	0	0	0
16.59081	0.0330033	-0.01894634	0	0	0	0
16.61157	0.0330033	-0.01894634	0	0	0	0
16.63244	0.0330033	-0.01894634	0	0	0	0
16.65513	0.0330033	-0.01894634	0	0	0	0
16.67811	0.0330033	-0.01894634	0	0	0	0
16.69921	0.0330033	-0.01894634	0	0	0	0
16.72021	0.0330033	-0.01894634	0	0	0	0
16.74127	0.0330033	-0.01894634	0	0	0	0
16.76228	0.0330033	-0.01894634	0	0	0	0
16.78366	0.0330033	-0.01894634	0	0	0	0
16.80475	0.0330033	-0.01894634	0	0	0	0
16.82615	0.0330033	-0.01894634	0	0	0	0
16.84708	0.0330033	-0.01894634	0	0	0	0
16.86805	0.0330033	-0.01894634	0	0	0	0
16.88959	0.0330033	-0.01894634	0	0	0	0
16.91041	0.0330033	-0.01894634	0	0	0	0
16.93104	0.0330033	-0.01894634	0	0	0	0
16.95229	0.0330033	-0.01894634	0	0	0	0
16.97382	0.0330033	-0.01894634	0	0	0	0
16.99466	0.0330033	-0.01894634	0	0	0	0
17.01543	0.0330033	-0.01894634	0	0	0	0
17.03622	0.0330033	-0.01894634	0	0	0	0
17.05744	0.0330033	-0.01894634	0	0	0	0
17.07926	0.0330033	-0.01894634	0	0	0	0
17.10027	0.0330033	-0.01894634	0	0	0	0
17.12151	0.0330033	-0.01894634	0	0	0	0
17.14309	0.0330033	-0.01894634	0	0	0	0
17.16408	0.0330033	-0.01894634	0	0	0	0
17.18538	0.0330033	-0.01894634	0	0	0	0
17.2069	0.0330033	-0.01894634	0	0	0	0
17.22773	0.0330033	-0.01894634	0	0	0	0
17.24882	0.0330033	-0.01894634	0	0	0	0
17.27085	0.0330033	-0.01894634	0	0	0	0
17.29301	0.0330033	-0.02016868	-1.68083E-07	-0.05515149	-3.803527E-06	-1.248015
17.31434	0.0330033	-0.02016868	0	0	3.865085E-06	1.268213
17.3355	0.03422565	-0.02139103	0.05775607	-0.05775598	1.359347	-1.359345
17.35711	0.03422565	-0.02261337	0	-0.05655316	-1.350134	0.02811784
17.37827	0.03422565	-0.02383572	0	-0.05779253	0	-0.02898118
17.39941	0.03422565	-0.02383572	0	0	0	1.366524
17.42044	0.03422565	-0.02505806	0	-0.05810675	0	-1.377682
17.44201	0.03422565	-0.02505806	0	0	0	1.363805
17.46358	0.03422565	-0.02505806	0	0	0	0
17.4849	0.03422565	-0.0262804	0	-0.05733742	0	-1.336831
17.50632	0.03422565	-0.0262804	0	0	0	1.341544
17.52887	0.03422565	-0.02750275	0	-0.05421839	0	-1.233181
17.54987	0.03422565	-0.02750275	0	0	0	1.245118
17.57081	0.03422565	-0.02750275	0	0	0	0
17.59237	0.03422565	-0.02750275	0	0	0	0
17.61284	0.03422565	-0.02750275	0	0	0	0
17.63391	0.03422565	-0.02750275	0	0	0	0
17.65583	0.03422565	-0.02750275	0	0	0	0
17.67768	0.03422565	-0.02750275	0	0	0	0
17.69843	0.03422565	-0.02750275	0	0	0	0
17.72621	0.03422565	-0.02750275	0	0	0	0
17.74713	0.03422565	-0.02750275	0	0	0	0
17.76823	0.03422565	-0.02750275	0	0	0	0
17.78979	0.03422565	-0.02750275	0	0	0	0
17.81031	0.03422565	-0.02750275	0	0	0	0
17.83103	0.03422565	-0.02750275	0	0	0	0
17.86302	0.03422565	-0.02750275	0	0	0	0
17.90308	0.03422565	-0.02750275	0	0	0	0
17.9264	0.03422565	-0.02750275	0	0	0	0
17.96723	0.03422565	-0.02750275	0	0	0	0
17.99071	0.03422565	-0.02750275	0	0	0	0
18.01243	0.03422565	-0.02750275	0	0	0	0
18.03332	0.03422565	-0.02750275	0	0	0	0
18.05407	0.03422565	-0.02750275	0	0	0	0
18.07747	0.03422565	-0.02750275	0	0	0	0
18.09834	0.03422565	-0.02750275	0	0	0	0
18.1194	0.03422565	-0.02750275	0	0	0	0
18.14199	0.03422565	-0.02750275	0	0	0	0
18.16296	0.03422565	-0.02750275	0	0	0	0
18.18546	0.03422565	-0.02750275	0	0	0	0
18.20695	0.03422565	-0.02750275	0	0	0	0
18.22793	0.03422565	-0.02750275	0	0	0	0
18.24867	0.03422565	-0.02750275	0	0	0	0
18.26956	0.03422565	-0.02750275	0	0	0	0
18.29151	0.03422565	-0.02750275	0	0	0	0
18.31275	0.03422565	-0.02750275	0	0	0	0
18.33354	0.03422565	-0.02750275	0	0	0	0
18.3545	0.03422565	-0.02750275	0	0	0	0
18.37641	0.03422565	-0.02750275	0	0	0	0
18.39717	0.03422565	-0.02750275	0	0	0	0
18.41812	0.03422565	-0.02750275	0	0	0	0
18.43936	0.03422565	-0.02750275	0	0	0	0
18.46012	0.03422565	-0.02750275	0	0	0	0
18.48186	0.03422565	-0.02750275	0	0	0	0
18.50289	0.03422565	-0.02750275	0	0	0	0
18.52443	0.03422565	-0.02750275	0	0	0	0
18.54626	0.03422565	-0.02750275	0	0	0	0
18.56784	0.03422565	-0.02750275	0	0	0	0
18.59002	0.03422565	-0.02750275	0	0	0	0
18.61175	0.03422565	-0.02750275	0	0	0	0
18.6328	0.03422565	-0.02750275	0	0	0	0
18.65393	0.03422565	-0.02750275	0	0	0	0
18.67618	0.03422565	-0.02750275	0	0	0	0
18.74446	0.03422565	-0.02750275	0	0	0	0
18.76597	0.03422565	-0.02750275	0	0	0	0
18.78844	0.03422565	-0.02750275	0	0	0	0
18.80955	0.03422565	-0.02750275	0	0	0	0
18.83069	0.03422565	-0.02750275	0	0	0	0
18.85166	0.03422565	-0.02750275	0	0	0	0
18.87411	0.03422565	-0.02750275	0	0	0	0
18.89621	0.03422565	-0.02750275	0	0	0	0
18.91828	0.03422565	-0.02750275	0	0	0	0
18.93911	0.03422565	-0.02750275	0	0	0	0
18.96064	0.03422565	-0.02750275	0	0	0	0
18.9826	0.03422565	-0.02750275	0	0	0	0
19.0033	0.03422565	-0.02750275	0	0	0	0
19.02553	0.03422565	-0.02750275	0	0	0	0
19.04696	0.03422565	-0.02750275	0	0	0	0
19.06797	0.03422565	-0.02750275	0	0	0	0
19.08973	0.03422565	-0.02750275	0	0	0	0
19.1106	0.03422565	-0.02750275	0	0	0	0
19.13962	0.03422565	-0.02750275	0	0	0	0
19.16225	0.03422565	-0.02750275	0	0	0	0
19.18467	0.03422565	-0.02750275	0	0	0	0
19.20599	0.03422565	-0.02750275	0	0	0	0
19.22677	0.03422565	-0.02750275	0	0	0	0
19.24754	0.03422565	-0.02750275	0	0	0	0
19.26835	0.03422565	-0.02750275	0	0	0	0
19.29031	0.03422565	-0.02750275	0	0	0	0
19.3113	0.03422565	-0.02750275	0	0	0	0
19.33268	0.03422565	-0.02750275	0	0	0	0
19.35454	0.03422565	-0.02750275	0	0	0	0
19.37705	0.03422565	-0.02750275	0	0	0	0
19.39834	0.03422565	-0.02750275	0	0	0	0
19.42024	0.03422565	-0.02750275	0	0	0	0
19.44193	0.03422565	-0.02750275	0	0	0	0
19.46265	0.03422565	-0.02750275	0	0	0	0
19.48443	0.03422565	-0.02750275	0	0	0	0
19.50556	0.03422565	-0.02750275	0	0	0	0
19.52708	0.03422565	-0.02750275	0	0	0	0
19.54811	0.03422565	-0.02750275	0	0	0	0
19.56893	0.03422565	-0.02750275	0	0	0	0
19.59077	0.03422565	-0.02750275	0	0	0	0
19.61161	0.03422565	-0.02750275	0	0	0	0
19.63288	0.03422565	-0.02750275	0	0	0	0
19.65383	0.03422565	-0.02750275	0	0	0	0
19.67563	0.03422565	-0.02750275	0	0	0	0
19.69666	0.03422565	-0.02750275	0	0	0	0
19.71784	0.03422565	-0.02750275	0	0	0	0
19.73927	0.03422565	-0.02750275	0	0	0	0
19.76029	0.03422565	-0.02750275	0	0	0	0
19.78189	0.03422565	-0.02750275	0	0	0	0
19.80295	0.03422565	-0.02750275	0	0	0	0
19.82459	0.03422565	-0.02750275	0	0	0	0
19.84572	0.03422565	-0.02750275	0	0	0	0
19.86691	0.03422565	-0.02750275	0	0	0	0
19.88877	0.03422565	-0.0287251	0	-0.05593614	0	-1.299422
19.90965	0.04033737	-0.03361447	0.2925769	-0.2340615	6.845222	-4.167477
19.93123	0.06967364	-0.05806136	1.359556	-1.132963	25.12482	-21.167
19.9528	0.1149004	-0.1008434	2.097279	-1.983913	17.09977	-19.72425
19.97491	0.1503484	-0.1362914	1.602843	-1.602842	-11.31947	8.724109
19.99605	0.1857964	-0.1705171	1.676888	-1.619065	1.71183	-0.3750413
20.01735	0.2016868	-0.1876299	0.7459881	-0.803371	-21.93427	19.21974
20.03857	0.2077986	-0.1949639	0.2880526	-0.3456631	-10.77024	10.76488
20.06009	0.2126879	-0.1998533	0.2272356	-0.2272363	-1.423146	2.771245
20.08255	0.2139103	-0.202298	0.05442147	-0.1088416	-3.929583	2.692151
20.10403	0.2139103	-0.2035204	0	-0.05691032	-1.238552	1.181879
20.12688	0.2139103	-0.2035204	0	0	0	1.283771
20.16912	0.2139103	-0.2035204	0	0	0	0
20.19425	0.2139103	-0.2035204	0	0	0	0
20.23522	0.2139103	-0.2035204	0	0	0	0
20.25741	0.2139103	-0.2035204	0	0	0	0
20.27962	0.2139103	-0.2035204	0	0	0	0
20.3015	0.2139103	-0.2035204	0	0	0	0
20.32362	0.2139103	-0.2035204	0	0	0	0
20.34729	0.2139103	-0.2035204	0	0	0	0
20.37031	0.2139103	-0.2035204	0	0	0	0
20.39368	0.2139103	-0.2035204	0	0	0	0
20.41569	0.2139103	-0.2035204	0	0	0	0
20.43976	0.2139103	-0.2035204	0	0	0	0
20.46252	0.2139103	-0.2035204	0	0	0	0
20.48614	0.2139103	-0.2035204	0	0	0	0
20.509	0.2139103	-0.2035204	0	0	0	0
20.53078	0.2139103	-0.2035204	0	0	0	0
20.56112	0.2139103	-0.2035204	0	0	0	0
20.58349	0.2139103	-0.2035204	0	0	0	0
20.60552	0.2139103	-0.2035204	0	0	0	0
20.62738	0.2139103	-0.2035204	0	0	0	0
20.64969	0.2126879	-0.2035204	-0.05477966	6.677921E-07	-1.240243	1.51192E-05
20.67236	0.2114656	-0.2035204	-0.05392623	0	0.01897296	-1.484609E-05
20.69528	0.2090209	-0.2010757	-0.106641	0.106641	-1.156246	2.339063
20.71731	0.2029092	-0.1974086	-0.277501	0.1665009	-3.801232	1.331741
20.73958	0.1955751	-0.1900746	-0.3292656	0.329265	-1.168549	3.674284
20.76139	0.1882411	-0.1839629	-0.3363503	0.2802926	-0.1607265	-1.111019
20.78387	0.1784623	-0.1754064	-0.4348501	0.3804939	-2.223852	2.262267
20.80697	0.1674612	-0.16685	-0.4763986	0.3705314	-0.9115527	-0.2185735
20.82903	0.1564601	-0.1582936	-0.4986801	0.3878637	-0.4934709	0.3838596
20.85106	0.1466813	-0.1521819	-0.4438482	0.277405	1.243575	-2.505177
20.87433	0.141792	-0.1485149	-0.2101006	0.1575755	5.15961	-2.645048
20.89629	0.1381249	-0.1460702	-0.1669781	0.111319	0.9533464	-1.022632
20.91811	0.1369026	-0.1460702	-0.05601918	-6.829109E-07	2.534392	-2.542631
20.94027	0.1356802	-0.1436255	-0.05516565	0.1103313	0.01940808	2.508815
20.96269	0.1344579	-0.1424031	-0.05451405	0.05451405	0.01461631	-1.252056
20.98535	0.1295685	-0.1387361	-0.2157776	0.1618332	-3.577108	2.380527
21.0082	0.1234568	-0.1326244	-0.2675378	0.2675382	-1.137498	2.323002
21.03028	0.1161227	-0.1265126	-0.3320808	0.2767341	-1.43654	0.2046758
21.05247	0.1124557	-0.1216233	-0.1652839	0.2203781	3.767595	-1.272966
21.07538	0.1112334	-0.1191786	-0.0533516	0.1067035	2.482014	-2.520648
21.09774	0.1087887	-0.1179562	-0.109325	0.05466251	-1.236358	-1.149498
21.12047	0.106344	-0.1155116	-0.1075625	0.1075628	0.0390891	1.173223
21.14277	0.1051216	-0.1130669	-0.05479806	0.1095954	1.171647	0.04513472
21.16608	0.1026769	-0.1106222	-0.104887	0.1048873	-1.098098	-0.103217
21.19012	0.1014546	-0.1093998	-0.05084603	0.05084571	1.141356	-1.141369
21.21201	0.09900991	-0.1069551	-0.1116772	0.1116772	-1.324407	1.324413
21.23392	0.09778756	-0.1045104	-0.05578545	0.1115709	1.276001	-0.002425906
21.25591	0.09534287	-0.1020658	-0.1112024	0.1112021	-1.262468	-0.008402834
21.27872	0.09412053	-0.1008434	-0.0535746	0.05357493	1.28634	-1.286325
21.30451	0.09412053	-0.1008434	0	0	1.102289	-1.102295
21.3279	0.09289818	-0.09962106	-0.05226023	0.05226023	-1.062693	1.062693
21.35025	0.09167584	-0.09839873	-0.05469917	0.05469917	-0.05332612	0.05332612
21.37318	0.09167583	-0.09717638	-3.248981E-07	0.05330311	1.208052	-0.0308327
21.39516	0.08923116	-0.09350936	-0.1112407	0.1668612	-2.477043	2.528653
21.41718	0.08434176	-0.08861998	-0.222059	0.2220587	-2.518891	1.254634
21.43953	0.07823005	-0.07884122	-0.2734278	0.437485	-1.157721	4.855154
21.46178	0.07211832	-0.07150715	-0.2746939	0.3296326	-0.0283868	-2.418138
21.48492	0.06845129	-0.06784012	-0.1584717	0.1584717	2.560573	-3.770963
21.50741	0.0660066	-0.06295075	-0.1087035	0.2174066	1.090702	1.291598
21.5303	0.06478426	-0.0617284	-0.0533916	0.05339193	1.218767	-3.613976
21.55344	0.06356192	-0.06050606	-0.05281518	0.05281502	0.01252057	-0.01253125
21.57605	0.06356191	-0.05806136	-3.296414E-07	0.1081624	1.154528	1.209889
21.5983	0.06356191	-0.05806136	0	0	7.349337E-06	-2.411475
21.62071	0.06356191	-0.05806136	0	0	0	0
21.64297	0.06233957	-0.05806136	-0.05490554	0	-1.229029	0
21.66477	0.06111723	-0.05806137	-0.05607309	-1.70892E-07	-0.02649819	-3.878474E-06
21.68778	0.05867253	-0.05683902	-0.1062349	0.05311755	-1.119403	1.185366
21.71055	0.05745019	-0.05561667	-0.05368664	0.05368681	1.14784	0.01243443
21.73267	0.05622784	-0.05561668	-0.05527066	-1.684455E-07	-0.03529154	-1.196134
21.7548	0.0550055	-0.05439433	-0.05523697	0.05523697	0.0007613121	1.248445
21.7774	0.05011612	-0.0507273	-0.2162878	0.162216	-3.600112	2.391397
21.79955	0.04033737	-0.04094854	-0.441592	0.4415921	-5.034705	6.243012
21.82167	0.03544799	-0.03728151	-0.2210244	0.1657682	4.982804	-6.231091
21.84378	0.03178096	-0.03361448	-0.165797	0.165797	1.248387	0.0006500873
21.86557	0.03178096	-0.03361448	0	0	3.776409	-3.776409
21.88811	0.03178096	-0.03361448	0	0	0	0
21.91002	0.03178096	-0.03361448	0	0	0	0
21.932	0.03178096	-0.03361448	0	0	0	0
21.95458	0.03178096	-0.03361448	0	0	0	0
21.98271	0.03178096	-0.03361448	0	0	0	0
22.00446	0.03178096	-0.03361448	0	0	0	0
22.02697	0.03178096	-0.03361448	0	0	0	0
22.0489	0.03178096	-0.03361448	0	0	0	0
22.07108	0.03178096	-0.03361448	0	0	0	0
22.09326	0.03178096	-0.03361448	0	0	0	0
22.11527	0.03178096	-0.03361448	0	0	0	0
22.13833	0.03178096	-0.03361448	0	0	0	0
22.16036	0.03178096	-0.03361448	0	0	0	0
22.1829	0.03178096	-0.03361448	0	0	0	0
22.20504	0.03178096	-0.03361448	0	0	0	0
22.22746	0.03178096	-0.03361448	0	0	0	0
22.24948	0.03178096	-0.03361448	0	0	0	0
22.27151	0.03178096	-0.03361448	0	0	0	0
22.29398	0.03178096	-0.03361448	0	0	0	0
22.31582	0.03178096	-0.03361448	0	0	0	0
22.33782	0.03178096	-0.03361448	0	0	0	0
22.35965	0.03178096	-0.03361448	0	0	0	0
22.38191	0.03178096	-0.03361448	0	0	0	0
22.40408	0.03178096	-0.03361448	0	0	0	0
22.42634	0.03178096	-0.03361448	0	0	0	0
22.44828	0.03178096	-0.03361448	0	0	0	0
22.47041	0.03178096	-0.03361448	0	0	0	0
22.50478	0.03178096	-0.03361448	0	0	0	0
22.52894	0.03178096	-0.03361448	0	0	0	0
22.57163	0.0330033	-0.03361447	0.02863664	8.72749E-08	0.4283551	1.305483E-06
22.61704	0.0330033	-0.03483681	0	-0.02691443	-0.3250454	-0.3054981
22.66095	0.0330033	-0.03483681	0	0	0	0.3013285
22.68341	0.0330033	-0.03483681	0	0	0	0
22.70547	0.0330033	-0.03483681	0	0	0	0
22.72744	0.0330033	-0.03483681	0	0	0	0
22.74978	0.0330033	-0.03483681	0	0	0	0
22.77192	0.0330033	-0.03483681	0	0	0	0
22.79407	0.0330033	-0.03483681	0	0	0	0
22.81609	0.0330033	-0.03483681	0	0	0	0
22.83801	0.0330033	-0.03483681	0	0	0	0
22.8601	0.0330033	-0.03483681	0	0	0	0
22.88261	0.0330033	-0.03483681	0	0	0	0
22.90557	0.0330033	-0.03483681	0	0	0	0
22.92737	0.0330033	-0.03483681	0	0	0	0
22.94958	0.0330033	-0.03483681	0	0	0	0
22.97156	0.0330033	-0.03483681	0	0	0	0
22.99402	0.0330033	-0.03483681	0	0	0	0
23.01625	0.0330033	-0.03483681	0	0	0	0
23.03851	0.0330033	-0.03483681	0	0	0	0
23.0602	0.0330033	-0.03483681	0	0	0	0
23.08268	0.0330033	-0.03483681	0	0	0	0
23.10465	0.0330033	-0.03483681	0	0	0	0
23.12673	0.0330033	-0.03483681	0	0	0	0
23.14871	0.0330033	-0.03483681	0	0	0	0
23.17055	0.0330033	-0.03483681	0	0	0	0
23.19307	0.0330033	-0.03483681	0	0	0	0
23.21476	0.0330033	-0.03483681	0	0	0	0
23.23684	0.0330033	-0.03483681	0	0	0	0
23.25904	0.0330033	-0.03483681	0	0	0	0
23.28206	0.0330033	-0.03483681	0	0	0	0
23.30427	0.0330033	-0.03483681	0	0	0	0
23.32641	0.0330033	-0.03483681	0	0	0	0
23.3485	0.0330033	-0.03483681	0	0	0	0
23.3712	0.0330033	-0.03483681	0	0	0	0
23.39404	0.0330033	-0.03483681	0	0	0	0
23.41574	0.0330033	-0.03483681	0	0	0	0
23.44687	0.0330033	-0.03483681	0	0	0	0
23.46881	0.0330033	-0.03483681	0	0	0	0
23.49215	0.0330033	-0.03483681	0	0	0	0
23.51471	0.0330033	-0.03483681	0	0	0	0
23.53715	0.0330033	-0.03483681	0	0	0	0
23.55906	0.0330033	-0.03483681	0	0	0	0
23.58146	0.0330033	-0.03483681	0	0	0	0
23.60372	0.0330033	-0.03483681	0	0	0	0
23.62532	0.0330033	-0.03483681	0	0	0	0
23.64734	0.0330033	-0.03483681	0	0	0	0
23.66929	0.0330033	-0.03483681	0	0	0	0
23.69231	0.0330033	-0.03483681	0	0	0	0
23.71399	0.0330033	-0.03483681	0	0	0	0
23.73597	0.0330033	-0.03483681	0	0	0	0
23.75853	0.0330033	-0.03483681	0	0	0	0
23.78192	0.0330033	-0.03483681	0	0	0	0
23.8043	0.0330033	-0.03483681	0	0	0	0
23.82706	0.0330033	-0.03483681	0	0	0	0
23.84918	0.0330033	-0.03483681	0	0	0	0
23.87189	0.0330033	-0.03483681	0	0	0	0
23.89426	0.0330033	-0.03483681	0	0	0	0
23.91612	0.0330033	-0.03483681	0	0	0	0
23.93782	0.0330033	-0.03483681	0	0	0	0
23.96004	0.0330033	-0.03483681	0	0	0	0
23.98327	0.0330033	-0.03483681	0	0	0	0
24.00533	0.0330033	-0.03483681	0	0	0	0
24.02729	0.0330033	-0.03483681	0	0	0	0
24.04906	0.0330033	-0.03483681	0	0	0	0
24.07214	0.0330033	-0.03483681	0	0	0	0
24.09548	0.0330033	-0.03483681	0	0	0	0
24.1175	0.0330033	-0.03483681	0	0	0	0
24.13993	0.0330033	-0.03483681	0	0	0	0
24.16277	0.0330033	-0.03483681	0	0	0	0
24.18567	0.0330033	-0.03483681	0	0	0	0
24.20789	0.0330033	-0.03483681	0	0	0	0
24.22978	0.0330033	-0.03483681	0	0	0	0
24.25166	0.0330033	-0.03483681	0	0	0	0
24.27443	0.0330033	-0.03483681	0	0	0	0
24.29661	0.0330033	-0.03483681	0	0	0	0
24.31857	0.0330033	-0.03483681	0	0	0	0
24.34071	0.0330033	-0.03483681	0	0	0	0
24.36258	0.0330033	-0.03483681	0	0	0	0
24.385	0.0330033	-0.03483681	0	0	0	0
24.40768	0.0330033	-0.03483681	0	0	0	0
24.42941	0.0330033	-0.03483681	0	0	0	0
24.45126	0.0330033	-0.03483681	0	0	0	0
24.47394	0.02933627	-0.03116979	-0.1617108	0.1617107	-3.631743	3.63174
24.49586	-0.007334067	-0.01161227	-1.672974	0.8922529	-33.88807	16.38144
24.5177	-0.05745019	0.004278206	-2.294784	0.7276145	-14.21008	-3.762442
24.53993	-0.08556411	0.007945239	-1.264242	0.164901	23.38055	-12.76663
24.56161	-0.1038993	0.009167584	-0.8459834	0.05639891	9.525138	-2.470957
24.58377	-0.1038993	0.009167584	0	0	19.29689	-1.28646
24.60598	-0.1038993	0.009167584	0	0	0	0
24.62812	-0.1038993	0.009167584	0	0	0	0
24.64999	-0.1038993	0.00794524	3.406811E-07	-0.05589223	7.741636E-06	-1.270095
24.67219	-0.1002323	0.004278206	0.1651699	-0.1651703	3.74779	-2.479579
24.69451	-0.0990099	0.003055861	0.05476996	-0.05476972	-2.479816	2.479828
24.71727	-0.09656521	0.001833517	0.1074279	-0.05371391	1.168244	0.02342362
24.73989	-0.09534287	0.001833517	0.05401714	-5.144568E-09	-1.176829	1.183507
24.76187	-0.09167583	0.001833517	0.1668763	0	2.530285	1.153404E-07
24.78417	-0.0770077	0.004278206	0.6577986	0.1096332	11.08843	2.476277
24.8068	-0.04889378	0.02261337	1.242292	0.8101903	13.00912	15.59236
24.82899	-0.02689158	0.04461557	0.9917029	0.9917031	-5.591389	4.05009
24.85102	0.004889378	0.08495294	1.44263	1.83103	10.19824	18.98236
24.88119	0.02322455	0.1130669	0.6076428	0.9317189	-15.99465	-17.22682
24.90448	0.03544799	0.1362914	0.5248222	0.9971619	-1.549064	1.224037
24.92681	0.04155971	0.1460702	0.2736617	0.437859	-5.505036	-12.25902
24.94893	0.0440044	0.1485149	0.1105597	0.1105597	-3.669745	-7.364135
24.97271	0.0464491	0.1485149	0.1027846	6.265036E-07	-0.1694041	-2.408877
24.99492	0.0464491	0.1485149	0	0	-2.234843	-1.362204E-05
25.01684	0.0464491	0.1485149	0	0	0	0
25.03889	0.0464491	0.1485149	0	0	0	0
25.06059	0.04644909	0.1497372	-1.71658E-07	0.05632374	-3.923202E-06	1.287265
25.08334	0.03789268	0.1179562	-0.3761865	-1.397264	-8.463716	-32.70388
25.10562	0.006111722	0.04339323	-1.426207	-3.346101	-23.31892	-43.2799
25.12774	-0.03178096	-0.03361448	-1.713531	-3.482337	-6.471649	-3.068571
25.1498	-0.05622785	-0.06295074	-1.108084	-1.329701	13.7053	48.72852
25.17286	-0.09534287	-0.09962107	-1.69638	-1.590356	-13.03839	-5.776904
25.19631	-0.1234568	-0.1301797	-1.198844	-1.303092	10.69767	6.176558
25.21861	-0.1356802	-0.1448478	-0.5479789	-0.6575733	14.2243	14.10745
25.24143	-0.1356802	-0.1460702	0	-0.05358421	12.14537	13.38678
25.26314	-0.1356802	-0.1460702	0	0	0	1.203563
25.28579	-0.1283462	-0.1460702	0.3237767	0	7.29866	0
25.30822	-0.1026769	-0.1411808	1.144199	0.217943	18.19687	4.833949
25.32986	-0.06967364	-0.1375138	1.525051	0.1694499	8.640996	-1.100241
25.35148	-0.03178096	-0.1350691	1.752684	0.1130762	5.261907	-1.303119
25.37432	-0.002444689	-0.1338467	1.284719	0.05352985	-10.52682	-1.339488
25.39636	0.09289818	-0.124068	4.325268	0.4436178	67.75143	8.692184
25.41845	0.2102433	-0.1081775	5.311458	0.7192596	22.34433	6.245276
25.44057	0.2676935	-0.1032881	2.598159	0.2211198	-61.38032	-11.26893
25.46242	0.2762498	-0.1032881	0.391551	6.818975E-07	-50.1908	-5.029504
25.48489	0.2774722	-0.1032881	0.05439442	-3.315439E-07	-7.606487	-2.286394E-05
25.50797	0.2774722	-0.1032881	0	0	-1.194235	7.279082E-06
25.53016	0.2774722	-0.1032881	0	0	0	0
25.55319	0.2786945	-0.1045105	0.05308643	-0.05308675	1.173826	-1.173833
25.57568	0.2786945	-0.1045105	0	0	-1.166446	1.166454
25.59809	0.2799169	-0.1057328	0.05452863	-0.05452763	1.21437	-1.214348
25.62043	0.2848063	-0.1057328	0.2188914	0	3.672581	1.218385
25.64212	0.2884733	-0.1057328	0.1690327	3.434368E-07	-1.132351	7.799861E-06
25.66371	0.2921403	-0.1057328	0.1698541	0	0.01897577	-7.934596E-06
25.68643	0.3068085	-0.1032881	0.6458119	0.1076354	10.74349	2.429585
25.70854	0.3410341	-0.09595405	1.547705	0.3316509	20.11964	4.997387
25.73068	0.3532575	-0.0947317	0.5520842	0.05520876	-22.49772	-6.246671
25.75411	0.3532575	-0.0947317	0	0	-12.11498	-1.211506
25.79852	0.3532575	-0.0947317	0	0	0	0
25.82409	0.3532575	-0.0947317	0	0	0	0
25.84811	0.3532575	-0.0947317	0	0	0	0
25.89146	0.3532575	-0.0947317	0	0	0	0
25.91639	0.3508129	-0.0947317	-0.0980357	-2.9878E-07	-1.435805	-4.375853E-06
25.94033	0.3385894	-0.0947317	-0.5106856	3.112798E-07	-8.443484	1.248281E-05
25.96347	0.3178096	-0.09595404	-0.8979346	-0.05281953	-8.225833	-1.121984
25.98717	0.2713605	-0.09350935	-1.959659	0.1031398	-22.66489	3.329301
26.01051	0.2151326	-0.08739763	-2.409054	0.2618538	-9.552878	3.373816
26.03314	0.1796846	-0.08250825	-1.5665	0.2160689	18.32875	-0.9959947
26.05691	0.1405696	-0.08006357	-1.645474	0.1028419	-1.702024	-2.440233
26.08072	0.1246791	-0.07761887	-0.6676166	0.1027104	20.55484	-0.002765165
26.10456	0.1222344	-0.07761887	-0.1025129	0	11.85962	-2.155545
26.12766	0.1222344	-0.07761887	0	0	2.183743	0
26.15056	0.1210121	-0.07639653	-0.05337859	0.05337826	-1.160512	1.160505
26.17454	0.1197898	-0.07639653	-0.05097077	0	0.05136054	-1.138597
26.19753	0.1197898	-0.07639653	0	0	1.085213	0
26.22074	0.1197898	-0.07639653	0	0	0	0
26.24356	0.1161227	-0.07517418	-0.1606704	0.05355702	-3.490266	1.163427
26.26765	0.110011	-0.07028481	-0.2537259	0.2029805	-1.983651	3.185239
26.29252	0.09656522	-0.0617284	-0.5406446	0.3440464	-5.860528	2.881376
26.3155	0.08311943	-0.04950495	-0.585115	0.5319229	-0.929377	3.926392
26.34638	0.07945239	-0.04706026	-0.1187368	0.07915777	8.658516	-8.405784
26.36948	0.0770077	-0.04461558	-0.1058572	0.105857	0.2386085	0.4946324
26.39318	0.07578536	-0.04217089	-0.05156992	0.1031402	1.160064	-0.05805673
26.41594	0.07334067	-0.04094854	-0.1074009	0.05370046	-1.201573	-1.064022
26.43938	0.07089598	-0.03850385	-0.1042899	0.1042897	0.0673333	1.09492
26.46218	0.06845129	-0.03728151	-0.1072568	0.0536284	-0.0641716	-1.095756
26.48589	0.06722894	-0.03605916	-0.05154949	0.05154933	1.197878	-0.04470631
26.50964	0.0660066	-0.03605916	-0.05145399	0	0.002011985	-1.085976
26.53274	0.0660066	-0.03605916	0	0	1.098132	0
26.55601	0.0660066	-0.03605916	0	0	0	0
26.57948	0.0660066	-0.03605916	0	0	0	0
26.60291	0.0660066	-0.03605916	0	0	0	0
26.62579	0.0660066	-0.03605916	0	0	0	0
26.64855	0.0660066	-0.03605916	0	0	0	0
26.67129	0.0660066	-0.03605916	0	0	0	0
26.69468	0.0660066	-0.03605916	0	0	0	0
26.7181	0.0660066	-0.03483682	0	0.05220441	0	1.115237
26.74157	0.0660066	-0.03483682	0	0	0	-1.113422
26.76453	0.0660066	-0.03483682	0	0	0	0
26.78812	0.0660066	-0.03483682	0	0	0	0
26.81228	0.0660066	-0.03483682	0	0	0	0
26.83652	0.0660066	-0.03483682	0	0	0	0
26.85983	0.0660066	-0.03483682	0	0	0	0
26.95476	0.06478426	-0.03361447	-0.01287668	0.01287672	-0.1089026	0.1089029
26.98027	0.04033737	-0.03605916	-0.9582245	-0.09582257	-7.849149	-0.9025217
27.00447	0.03911502	-0.03728151	-0.05050527	-0.05050527	18.25844	0.911541
27.02876	0.03178095	-0.03728151	-0.3019841	1.533908E-07	-5.186348	1.041593
27.0517	0.01589048	-0.03728151	-0.6924766	0	-8.267264	-3.247495E-06
27.07588	-0.001222344	-0.03239213	-0.7079655	0.2022758	-0.328717	4.292859
27.09894	-0.01589048	-0.02750275	-0.6359847	0.2119949	1.523872	0.2057582
27.12298	-0.03911502	-0.01894634	-0.9662237	0.3559771	-7.011434	3.056942
27.14665	-0.05989488	-0.01527931	-0.8778204	0.1549095	1.852988	-4.214501
27.17003	-0.07211833	-0.01527931	-0.5227675	-3.983043E-08	7.545599	-3.292145
27.19367	-0.0794524	-0.01527931	-0.310269	3.939976E-08	4.519326	1.685033E-06
27.21666	-0.08067474	-0.01527931	-0.0531657	-4.050782E-08	5.513813	-1.71369E-06
27.23993	-0.08189708	-0.01650165	-0.05253376	-0.0525338	0.01366092	-1.135646
27.26326	-0.08311943	-0.01650165	-0.05239664	0	0.002942879	1.127419
27.28769	-0.08434177	-0.01650165	-0.05002415	-7.622844E-08	0.04967124	-1.595945E-06
27.31123	-0.08556411	-0.01650165	-0.05192929	0	-0.0397123	1.588965E-06
27.33467	-0.08678646	-0.01527931	-0.0521363	0.05213646	-0.004405929	1.109671
27.35902	-0.08678646	-0.01527931	0	0	1.090977	-1.090981
27.383	-0.08678646	-0.01527931	0	0	0	0
27.40646	-0.08678646	-0.01527931	0	0	0	0
27.42991	-0.08678646	-0.01527931	0	0	0	0
27.45449	-0.08678646	-0.01527931	0	0	0	0
27.47837	-0.08678646	-0.01527931	0	0	0	0
27.50131	-0.08678646	-0.01527931	0	0	0	0
27.52524	-0.08311942	-0.001833517	0.1532182	0.5617999	3.269054	11.98653
27.54837	-0.0794524	0.01283462	0.1585501	0.6342015	0.1132945	1.538431
27.57165	-0.07823005	0.01894634	0.05251654	0.2625832	-2.285014	-8.008344
27.59501	-0.07823005	0.01894634	0	0	-1.12608	-5.630413
27.6183	-0.07823005	0.01894634	0	0	0	0
27.64141	-0.07823005	0.01894634	0	0	0	0
27.66428	-0.06478426	0.02261337	0.5878966	0.1603353	12.78526	3.486888
27.68828	-0.0440044	0.03116978	0.8657525	0.3564862	5.927832	4.184722
27.71158	-0.03789268	0.03361447	0.2623684	0.1049473	-12.75747	-5.318337
27.7352	-0.03667033	0.03361447	0.0517448	0	-4.489284	-2.236874
27.75862	-0.03544799	0.03361447	0.05218741	0	0.0094081	0
27.78216	-0.0330033	0.03239213	0.1038502	-0.05192508	1.10008	-1.105666
27.80535	-0.03178095	0.03239213	0.05272425	0	-1.094203	1.111307
27.82917	-0.03178095	0.03239213	0	0	-1.121544	0
27.85251	-0.03178095	0.03239213	0	0	0	0
27.87577	-0.03178095	0.03239213	0	0	0	0
27.89889	-0.03178095	0.03239213	0	0	0	0
27.93066	-0.02689158	0.02994744	0.1538958	-0.07694793	2.803826	-1.401914
27.95494	-0.01955751	0.0262804	0.3021264	-0.1510632	2.644826	-1.322413
27.97847	-0.01711282	0.02505806	0.1038924	-0.05194613	-4.146653	2.073329
28.00193	-0.01222345	0.02261337	0.208376	-0.104188	2.223284	-1.111644
28.02575	-0.006111722	0.01894634	0.2566523	-0.1539914	1.021126	-1.053429
28.04882	-0.006111722	0.01772399	-2.018191E-08	-0.0529768	-5.473913	2.154453
28.07155	-0.006111722	0.01772399	0	0	4.40642E-07	1.156669
28.09479	-0.006111722	0.01772399	0	0	0	0
28.11784	-0.006111722	0.01772399	0	0	0	0
28.14144	-0.006111722	0.01772399	0	0	0	0
28.17414	-0.006111722	0.01772399	0	0	0	0
28.19822	-0.006111722	0.01772399	0	0	0	0
28.22188	-0.006111722	0.01772399	0	0	0	0
28.24743	-0.006111722	0.01772399	0	0	0	0
28.27038	-0.006111722	0.01772399	0	0	0	0
28.29634	-0.006111722	0.01772399	0	0	0	0
28.34096	-0.006111722	0.01772399	0	0	0	0
28.36463	-0.006111722	0.01772399	0	0	0	0
28.41028	-0.006111722	0.01772399	0	0	0	0
28.43357	-0.006111722	0.01772399	0	0	0	0
28.45871	-0.006111722	0.01772399	0	0	0	0
28.48283	-0.006111722	0.01772399	0	0	0	0
28.50618	-0.006111722	0.01772399	0	0	0	0
28.5291	-0.006111722	0.01772399	0	0	0	0
28.55215	-0.006111722	0.01772399	0	0	0	0
28.57637	-0.006111722	0.01772399	0	0	0	0
28.59933	-0.006111722	0.01772399	0	0	0	0
28.62319	-0.006111722	0.01772399	0	0	0	0
28.64647	-0.006111722	0.01772399	0	0	0	0
28.6695	-0.006111722	0.01772399	0	0	0	0
28.69434	-0.006111722	0.01772399	0	0	0	0
28.7177	-0.006111722	0.01772399	0	0	0	0
28.74135	-0.006111722	0.01772399	0	0	0	0
28.7644	-0.006111722	0.01772399	0	0	0	0
28.78806	-0.006111722	0.01772399	0	0	0	0
28.81107	-0.006111722	0.01772399	0	0	0	0
28.83372	-0.006111722	0.01772399	0	0	0	0
28.85683	-0.006111722	0.01772399	0	0	0	0
28.88016	-0.006111722	0.01772399	0	0	0	0
28.90296	-0.006111722	0.01772399	0	0	0	0
28.92626	-0.006111722	0.01772399	0	0	0	0
28.94954	-0.004889378	0.01772399	0.05250373	0	1.127143	0
28.97355	-0.003667033	0.01772399	0.05090235	0	-0.03385973	0
28.99721	-0.003667033	0.01772399	0	0	-1.067756	0
29.02039	-0.002444689	0.01772399	0.0527327	0	1.125835	0
29.0439	-0.002444689	0.01772399	0	0	-1.129422	0
29.06729	-0.002444689	0.01772399	0	0	0	0
29.09256	-0.001222344	0.017724	0.04836318	7.369727E-08	0.9939334	1.514586E-06
29.11604	0	0.01772399	0.05205593	-7.932439E-08	0.07573987	-3.138542E-06
29.13919	0.001222344	0.017724	0.05281527	8.04815E-08	0.01628616	3.427462E-06
29.16227	0.002444689	0.01772399	0.05296368	-8.070764E-08	0.00321072	-3.48723E-06
29.18593	0.003667033	0.01772399	0.05166147	0	-0.0278611	1.726752E-06
29.2088	0.004889378	0.01650165	0.0534407	-0.05344066	0.03823544	-1.148432
29.23153	0.009778757	0.01650165	0.215108	0	3.545118	1.171872
29.2547	0.0110011	0.01650165	0.05275439	0	-3.53709	0
29.27841	0.0110011	0.01650165	0	0	-1.125198	0
29.30151	0.0110011	0.01650165	0	0	0	0
29.32478	0.0110011	0.01650165	0	0	0	0
29.34785	0.0110011	0.01650165	0	0	0	0
29.37081	0.0110011	0.01650165	0	0	0	0
29.39455	0.0110011	0.01650165	0	0	0	0
29.42469	0.0110011	0.01650165	0	0	0	0
29.44788	0.0110011	0.01650165	0	0	0	0
29.47051	0.0110011	0.01650165	0	0	0	0
29.49423	0.0110011	0.01650165	0	0	0	0
29.51847	0.0110011	0.01650165	0	0	0	0
29.54132	0.0110011	0.01650165	0	0	0	0
29.56399	0.0110011	0.01650165	0	0	0	0
29.58766	0.0110011	0.01650165	0	0	0	0
29.61146	0.0110011	0.01650165	0	0	0	0
29.63452	0.0110011	0.01650165	0	0	0	0
29.65825	0.0110011	0.01650165	0	0	0	0
29.68143	0.0110011	0.01650165	0	0	0	0
29.70415	0.0110011	0.01650165	0	0	0	0
29.72729	0.0110011	0.01650165	0	0	0	0
29.75008	0.0110011	0.01650165	0	0	0	0
29.77341	0.0110011	0.01650165	0	0	0	0
29.79613	0.0110011	0.01650165	0	0	0	0
29.8194	0.0110011	0.01650165	0	0	0	0
29.84209	0.0110011	0.01650165	0	0	0	0
29.86506	0.0110011	0.01650165	0	0	0	0
29.88856	0.0110011	0.01650165	0	0	0	0
29.91153	0.0110011	0.01650165	0	0	0	0
29.93447	0.0110011	0.01650165	0	0	0	0
29.95767	0.0110011	0.01650165	0	0	0	0
29.98099	0.0110011	0.01650165	0	0	0	0
30.00366	0.0110011	0.01650165	0	0	0	0
30.02636	0.0110011	0.01650165	0	0	0	0
30.0494	0.01222345	0.01650165	0.05304261	0	1.159603	0
30.07295	0.02077986	0.02505806	0.3632995	0.3632996	6.65837	7.79671
30.09621	0.03422565	0.04950495	0.5781569	1.051194	4.59016	14.69601
30.11927	0.05256081	0.1032881	0.7949151	2.331751	4.679392	27.64475
30.14221	0.07578536	0.1656277	1.012418	2.717543	4.727786	8.385821
30.16497	0.08800881	0.2194108	0.5372291	2.363808	-10.39973	-7.741641
30.18882	0.09289818	0.2450801	0.2049438	1.075956	-7.129073	-27.63045
30.21183	0.1002323	0.2793057	0.3187572	1.487533	2.428512	8.782085
30.23502	0.1038993	0.312309	0.1581721	1.423547	-3.476456	-1.385202
30.25826	0.1051216	0.3318665	0.05257718	0.8412324	-2.27416	-12.54111
30.28227	0.106344	0.3416453	0.05091003	0.407284	-0.03527741	-9.182466
30.30651	0.106344	0.3428676	0	0.05042837	-1.055168	-7.396233
30.35178	0.106344	0.3428676	0	0	0	-0.7255287
30.37883	0.106344	0.3428676	0	0	0	0
30.42334	0.106344	0.3428676	0	0	0	0
30.44863	0.106344	0.3428676	0	0	0	0
30.47351	0.106344	0.3428676	0	0	0	0
30.498	0.106344	0.3428676	0	0	0	0
30.52205	0.106344	0.3367559	0	-0.2540472	0	-5.232934
30.54599	0.106344	0.3208654	0	-0.6639454	0	-8.541184
30.57008	0.1051216	0.2951962	-0.05073301	-1.065394	-1.056343	-8.358811
30.59445	0.1002322	0.2683046	-0.2006454	-1.103549	-3.093406	-0.7873037
30.61849	0.09289818	0.237746	-0.3050504	-1.271044	-2.156665	-3.459913
30.64202	0.08800881	0.2084097	-0.2078185	-1.246911	2.044006	0.5073326
30.6657	0.08189708	0.1827405	-0.2580371	-1.083756	-1.063669	3.455758
30.69051	0.07578535	0.1534042	-0.2463902	-1.182673	0.2401888	-2.03992
30.71438	0.06967364	0.1265126	-0.2560573	-1.126652	-0.1986103	1.150932
30.73943	0.06478426	0.1057328	-0.1951463	-0.8293716	1.245026	6.076445
30.76329	0.06111723	0.08984232	-0.153708	-0.6660687	0.8471993	3.338704
30.78761	0.05745019	0.08006356	-0.1507791	-0.4020772	0.06079485	5.479535
30.81149	0.05622784	0.07028481	-0.05117883	-0.40943	2.066206	-0.1525337
30.83508	0.0550055	0.06417309	-0.05182866	-0.2591428	-0.01368969	3.166062
30.85921	0.05378316	0.05928371	-0.05065281	-0.2026117	0.02464246	1.184737
30.88472	0.05133847	0.05317198	-0.09581526	-0.2395384	-0.9096826	-0.7437933
30.90918	0.05011612	0.04706026	-0.04998918	-0.2499455	0.9171302	-0.2082804
30.93353	0.04889378	0.04094854	-0.05018869	-0.2509438	-0.004087679	-0.02045373
30.96432	0.04644909	0.03483682	-0.07939301	-0.1984826	-0.5295705	0.9512941
30.99001	0.04522675	0.0287251	-0.0475946	-0.2379729	0.5630559	-0.6992566
31.01409	0.04522675	0.02750275	0	-0.05074916	0.9563208	3.761896
31.03805	0.04522675	0.02628041	1.555036E-07	-0.05102391	3.236806E-06	-0.005719024
31.06203	0.0440044	0.02505806	-0.05095908	-0.05095908	-1.06291	0.001352331
31.08663	0.0440044	0.02261337	0	-0.09941206	1.04901	-0.9974211
31.11042	0.0440044	0.02139103	0	-0.05136753	0	0.9929114
31.13455	0.04278206	0.01894634	-0.05065697	-0.1013139	-1.056984	-1.042156
31.1587	0.04278206	0.01772399	0	-0.05062088	1.0493	1.050046
31.18324	0.04278206	0.01650165	0	-0.04981425	0	0.01656832
31.20765	0.04278206	0.01650165	0	0	0	1.017691
31.23166	0.04278206	0.01527931	0	-0.05091038	0	-1.051434
31.25556	0.04278206	0.01405696	0	-0.05114203	0	-0.00483511
31.27984	0.04278206	0.01283462	0	-0.05033861	0	0.01667424
31.30355	0.04278206	0.01283462	0	0	0	1.048797
31.32787	0.04278206	0.01283462	0	0	0	0
31.35264	0.04278206	0.01161227	0	-0.04934254	0	-1.005195
31.37816	0.04278206	0.01161227	0	0	0	0.9811765
31.402	0.04278206	0.01038993	0	-0.05126469	0	-1.038582
31.42632	0.04278206	0.009167584	0	-0.05025965	0	0.02086677
31.45243	0.04278206	0.007945239	0	-0.04681575	0	0.06829031
31.47755	0.04278206	0.006722894	1.483011E-07	-0.04866062	2.894839E-06	-0.03601177
31.5017	0.04278206	0.006722894	0	0	-3.010161E-06	0.9876956
31.52538	0.04278206	0.004278206	-1.573325E-07	-0.103248	-3.289763E-06	-2.158878
31.54917	0.04278206	0.003055861	0	-0.05138395	3.314615E-06	1.092651
31.57359	0.04278206	0.003055861	0	0	0	1.065791
31.59812	0.04278206	0.003055861	0	0	0	0
31.62274	0.04278206	0.003055861	0	0	0	0
31.64647	0.04278206	0.001833517	0	-0.05150784	0	-1.065326
31.67033	0.04278206	0.001833517	0	0	0	1.082146
31.69496	0.04278206	0.0006111722	1.512878E-07	-0.04964063	3.119945E-06	-1.023718
31.71969	0.04278206	0.0006111722	0	0	-3.065207E-06	1.005758
31.74376	0.04278206	0.0006111722	0	0	0	0
31.7682	0.04278206	0.0006111722	0	0	0	0
31.7927	0.04278206	0.0006111722	0	0	0	0
31.81651	0.04278206	-0.0006111722	0	-0.05134689	0	-1.062919
31.84141	0.04278206	-0.0006111722	0	0	0	1.054096
31.86536	0.04155971	-0.0006111722	-0.05104838	0	-1.044981	0
31.8904	0.04155971	-0.0006111722	0	0	1.042092	0
31.91462	0.04033737	-0.0006111722	-0.05046947	0	-1.02453	0
31.93932	0.03911502	-0.001833517	-0.04948354	-0.04948348	0.02015323	-1.011486
31.96321	0.03911502	-0.001833517	0	0	1.018356	1.018354
31.9878	0.03911502	-0.001833517	0	0	0	0
32.01164	0.03911502	-0.001833517	0	0	0	0
32.03573	0.03911502	-0.001833517	0	0	0	0
32.05954	0.03911502	-0.001833517	0	0	0	0
32.08429	0.03911502	-0.001833517	0	0	0	0
32.1096	0.03911502	-0.001833517	0	0	0	0
32.13403	0.03911502	-0.001833517	0	0	0	0
32.15823	0.03911502	-0.001833517	0	0	0	0
32.18255	0.03911502	-0.001833517	0	0	0	0
32.20672	0.03911502	-0.001833517	0	0	0	0
32.23088	0.03911502	-0.001833517	0	0	0	0
32.2551	0.03911502	-0.001833517	0	0	0	0
32.27992	0.03911502	-0.001833517	0	0	0	0
32.30399	0.03911502	-0.001833517	0	0	0	0
32.32836	0.03911502	-0.001833517	0	0	0	0
32.35309	0.03911502	-0.001833517	0	0	0	0
32.37725	0.03911502	-0.001833517	0	0	0	0
32.40137	0.03911502	-0.001833517	0	0	0	0
32.42593	0.03911502	-0.001833517	0	0	0	0
32.44991	0.03911502	-0.001833517	0	0	0	0
32.47435	0.03911502	-0.001833517	0	0	0	0
32.50581	0.03911502	-0.001833517	0	0	0	0
32.52972	0.03911502	-0.001833517	0	0	0	0
32.55375	0.03911502	-0.001833517	0	0	0	0
32.57842	0.03911502	-0.001833517	0	0	0	0
32.60251	0.03911502	-0.001833517	0	0	0	0
32.62607	0.03911502	-0.001833517	0	0	0	0
32.65138	0.03911502	-0.001833517	0	0	0	0
32.69667	0.03911502	-0.001833517	0	0	0	0
32.73196	0.03911502	-0.001833517	0	0	0	0
32.7793	0.03911502	-0.001833517	0	0	0	0
32.80582	0.03911502	-0.001833517	0	0	0	0
32.83277	0.03911502	-0.001833517	0	0	0	0
32.85714	0.03911502	-0.001833517	0	0	0	0
32.88109	0.03911502	-0.001833517	0	0	0	0
32.90505	0.03911502	-0.001833517	0	0	0	0
32.92937	0.03911502	-0.001833517	0	0	0	0
32.95345	0.03911502	-0.001833517	0	0	0	0
32.97792	0.03911502	-0.001833517	0	0	0	0
33.00197	0.03911502	-0.001833517	0	0	0	0
33.02556	0.03911502	-0.001833517	0	0	0	0
33.05022	0.03911502	-0.001833517	0	0	0	0
33.09585	0.03911502	-0.001833517	0	0	0	0
33.12202	0.03911502	-0.001833517	0	0	0	0
33.16698	0.03911502	-0.001833517	0	0	0	0
33.19127	0.03911502	-0.001833517	0	0	0	0
33.21497	0.03911502	-0.001833517	0	0	0	0
33.23964	0.03911502	-0.001833517	0	0	0	0
33.26355	0.03911502	-0.001833517	0	0	0	0
33.28968	0.03911502	-0.001833517	0	0	0	0
33.31379	0.03911502	-0.001833517	0	0	0	0
33.33841	0.03911502	-0.001833517	0	0	0	0
33.36211	0.03911502	-0.001833517	0	0	0	0
33.38641	0.03911502	-0.001833517	0	0	0	0
33.4104	0.03911502	-0.001833517	0	0	0	0
33.43446	0.03911502	-0.001833517	0	0	0	0
33.45811	0.03911502	-0.001833517	0	0	0	0
33.48233	0.03911502	-0.001833517	0	0	0	0
33.50671	0.03911502	-0.001833517	0	0	0	0
33.53047	0.03911502	-0.001833517	0	0	0	0
33.55451	0.03911502	-0.001833517	0	0	0	0
33.57873	0.03911502	-0.001833517	0	0	0	0
33.60301	0.03911502	-0.001833517	0	0	0	0
33.62708	0.03911502	-0.001833517	0	0	0	0
33.65105	0.03911502	-0.001833517	0	0	0	0
33.67534	0.03911502	-0.001833517	0	0	0	0
33.69989	0.03911502	-0.001833517	0	0	0	0
33.72399	0.03911502	-0.001833517	0	0	0	0
33.74888	0.03911502	-0.001833517	0	0	0	0
33.77324	0.03911502	-0.001833517	0	0	0	0
33.79757	0.03911502	-0.001833517	0	0	0	0
33.82195	0.03911502	-0.001833517	0	0	0	0
33.84578	0.03911502	-0.001833517	0	0	0	0
33.86993	0.03911502	-0.001833517	0	0	0	0
33.89423	0.03911502	-0.001833517	0	0	0	0
33.91854	0.03911502	-0.001833517	0	0	0	0
33.9427	0.03911502	-0.001833517	0	0	0	0
33.96706	0.03911502	-0.001833517	0	0	0	0
33.99232	0.03911502	-0.001833517	0	0	0	0
34.01674	0.03911502	-0.001833517	0	0	0	0
34.04135	0.03911502	-0.001833517	0	0	0	0
34.06667	0.03911502	-0.001833517	0	0	0	0
34.09099	0.03911502	-0.001833517	0	0	0	0
34.12199	0.03911502	-0.001833517	0	0	0	0
34.14582	0.03911502	-0.001833517	0	0	0	0
34.1697	0.03911502	-0.001833517	0	0	0	0
34.1941	0.03911502	-0.001833517	0	0	0	0
34.21793	0.03911502	-0.001833517	0	0	0	0
34.24284	0.03911502	-0.001833517	0	0	0	0
34.26711	0.03911502	-0.001833517	0	0	0	0
34.29165	0.03911502	-0.001833517	0	0	0	0
34.31554	0.03911502	-0.001833517	0	0	0	0
34.34057	0.03911502	-0.001833517	0	0	0	0
34.36811	0.03911502	-0.001833517	0	0	0	0
34.3926	0.03911502	-0.001833517	0	0	0	0
34.41687	0.03911502	-0.001833517	0	0	0	0
34.44105	0.03911502	-0.001833517	0	0	0	0
34.4649	0.03911502	-0.001833517	0	0	0	0
34.49018	0.03911502	-0.001833517	0	0	0	0
34.51467	0.03911502	-0.001833517	0	0	0	0
34.54073	0.03911502	-0.001833517	0	0	0	0
34.56493	0.03911502	-0.001833517	0	0	0	0
34.5899	0.03911502	-0.001833517	0	0	0	0
34.61354	0.03911502	-0.001833517	0	0	0	0
34.63793	0.03911502	-0.001833517	0	0	0	0
34.66163	0.03911502	-0.001833517	0	0	0	0
34.68608	0.03911502	-0.001833517	0	0	0	0
34.70981	0.03911502	-0.001833517	0	0	0	0
34.7337	0.03911502	-0.001833517	0	0	0	0
34.75801	0.03911502	-0.001833517	0	0	0	0
34.78308	0.03911502	-0.001833517	0	0	0	0
34.80697	0.03911502	-0.001833517	0	0	0	0
34.83082	0.03911502	-0.001833517	0	0	0	0
34.85507	0.03911502	-0.001833517	0	0	0	0
34.87951	0.03911502	-0.001833517	0	0	0	0
34.90353	0.03911502	-0.001833517	0	0	0	0
34.92747	0.03911502	-0.001833517	0	0	0	0
34.95161	0.03911502	-0.001833517	0	0	0	0
34.97611	0.03911502	-0.001833517	0	0	0	0
34.99984	0.03911502	-0.001833517	0	0	0	0
35.02409	0.03911502	-0.001833517	0	0	0	0
35.04811	0.03911502	-0.001833517	0	0	0	0
35.07241	0.03911502	-0.001833517	0	0	0	0
35.09762	0.03911502	-0.001833517	0	0	0	0
35.12215	0.03911502	-0.001833517	0	0	0	0
35.146	0.03911502	-0.001833517	0	0	0	0
35.16981	0.03911502	-0.001833517	0	0	0	0
35.19489	0.03911502	-0.001833517	0	0	0	0
35.21896	0.03911502	-0.001833517	0	0	0	0
35.24329	0.04033737	-0.0006111722	0.05025575	0.05025569	1.038323	1.038322
35.26817	0.04889378	0.00794524	0.343862	0.343862	5.966906	5.966908
35.29263	0.07211832	0.0262804	0.9494969	0.7496029	12.27395	8.222847
35.31719	0.1026769	0.03483681	1.244293	0.3484019	6.013932	-8.184625
35.34156	0.1442367	0.04583792	1.705217	0.4513811	9.419851	2.104576
35.36618	0.1821293	0.0507273	1.539337	0.198624	-3.386116	-5.159536
35.39112	0.2175773	0.05194964	1.421303	0.0490105	-2.381796	-3.019035
35.41502	0.2566923	0.05317199	1.636675	0.05114616	4.409794	0.04372793
35.43946	0.2896957	0.05561668	1.350338	0.100025	-5.923414	1.011151
35.46333	0.3178096	0.05806137	1.177865	0.1024229	-3.570194	0.04963674
35.4885	0.3434788	0.0617284	1.01955	0.14565	-3.227904	0.8813652
35.51255	0.3642587	0.06661777	0.8642425	0.2033509	-3.155312	1.172281
35.53683	0.3715927	0.06784012	0.3020073	0.05033485	-11.63364	-3.166173
35.56129	0.3715927	0.06784012	0	0	-6.195757	-1.032633
35.58599	0.3801491	0.06906246	0.3464105	0.04948721	7.046592	1.006656
35.61001	0.3948173	0.0727295	0.6107312	0.1526828	5.425581	2.118245
35.63432	0.4033737	0.0727295	0.3519008	0	-5.355237	-3.159028
35.66496	0.4058184	0.0727295	0.07978827	0	-4.951594	0
35.71301	0.4058184	0.07395184	0	0.025439	-1.013962	0.323283
35.74103	0.4058184	0.07395184	0	0	0	-0.3344374
35.7883	0.4058184	0.07395184	0	0	0	0
35.81342	0.4058184	0.07395184	0	0	0	0
35.83869	0.4058184	0.07395184	0	0	0	0
35.86681	0.4033737	0.07150715	-0.08693155	-0.08693181	-1.628105	-1.62811
35.89312	0.3911502	0.06784012	-0.464594	-0.1393778	-6.938253	-0.9635163
35.91803	0.3679257	0.06050605	-0.932196	-0.2943779	-9.128616	-3.025941
35.94288	0.3483682	0.05317198	-0.787056	-0.2951461	2.91664	-0.01543815
35.96838	0.330033	0.04828261	-0.7192071	-0.1917882	1.347745	2.053092
35.99373	0.3104755	0.04461557	-0.7714238	-0.144642	-1.026956	0.9272331
36.01895	0.2896957	0.04094854	-0.8238525	-0.1453857	-1.036646	-0.01470339
36.04435	0.2664711	0.0397262	-0.9145519	-0.04813439	-1.791868	1.921308
36.06942	0.2444689	0.03728151	-0.8773572	-0.09748408	0.7369329	-0.9777586
36.0949	0.2285784	0.03483682	-0.6236864	-0.09595169	5.017601	0.03031065
36.11995	0.220022	0.03239213	-0.3416089	-0.09760271	5.582857	-0.03267683
36.14506	0.216355	0.03116979	-0.1460488	-0.04868287	3.899065	0.9753607
36.1712	0.2151326	0.02994744	-0.04675133	-0.04675097	1.93735	0.03769251
36.19658	0.2090209	0.0287251	-0.2408165	-0.04816319	-3.766419	-0.02740831
36.22242	0.1992422	0.02505806	-0.3785348	-0.1419508	-2.689163	-1.831349
36.24762	0.1894634	0.02261337	-0.388048	-0.09701193	-0.1864138	0.8805848
36.27313	0.1833517	0.02016868	-0.2395199	-0.0958081	2.928602	0.0237366
36.29922	0.1747953	0.01650165	-0.3279257	-0.1405396	-1.712991	-0.8667381
36.32426	0.1650165	0.01405696	-0.3905304	-0.09763259	-1.224369	0.8391389
36.34947	0.1527931	0.01038993	-0.4849863	-0.1454958	-1.879968	-0.9526281
36.37431	0.1320132	0.004278205	-0.836376	-0.2459928	-7.020936	-2.007979
36.39965	0.106344	-0.00550055	-1.013256	-0.3860024	-3.525021	-2.790229
36.49821	0.07456301	-0.01650165	-0.3224518	-0.1116179	5.575782	2.214676
36.52394	0.05378316	-0.02383572	-0.8073682	-0.2849536	-3.901238	-1.394516
36.54932	0.05256081	-0.02505806	-0.04817057	-0.04817043	14.85328	4.632532
36.57417	0.05133847	-0.02505806	-0.04918353	-7.494724E-08	-0.02016701	0.9590316
36.59957	0.05133847	-0.02505806	0	0	0.978757	1.491457E-06
36.62426	0.05133847	-0.02505806	0	0	0	0
36.65007	0.05133847	-0.02505806	0	0	0	0
36.67528	0.05133847	-0.02505806	0	0	0	0
36.70023	0.04889378	-0.02628041	-0.09797589	-0.04898795	-1.952992	-0.9764958
36.72617	0.04522675	-0.02750275	-0.1413663	-0.04712208	-0.8526005	0.03666329
36.7532	0.04033737	-0.0287251	-0.1809318	-0.04523301	-0.7470357	0.0356676
36.77856	0.0330033	-0.0287251	-0.2891101	7.342575E-08	-2.064824	0.8633742
36.80362	0.02933627	-0.0287251	-0.146382	-7.435378E-08	2.830848	-2.931037E-06
36.83057	0.02811393	-0.02994744	-0.04535452	-0.04535459	1.942763	-0.8721694
36.85678	0.02689158	-0.02994744	-0.0466353	7.106407E-08	-0.02409221	0.8531467
36.88289	0.02689158	-0.02994744	0	0	0.8913068	-1.358196E-06
36.90811	0.02689158	-0.02994744	0	0	0	0
36.93304	0.02689158	-0.02994744	0	0	0	0
36.95795	0.02689158	-0.02994744	0	0	0	0
36.98389	0.02689158	-0.02994744	0	0	0	0
37.00919	0.02689158	-0.02994744	0	0	0	0
37.03382	0.02689158	-0.02994744	0	0	0	0
37.05849	0.02689158	-0.02994744	0	0	0	0
37.08436	0.02689158	-0.02994744	0	0	0	0
37.10926	0.02689158	-0.02994744	0	0	0	0
37.13385	0.02689158	-0.02994744	0	0	0	0
37.15872	0.02689158	-0.02994744	0	0	0	0
37.18391	0.02689158	-0.02994744	0	0	0	0
37.20929	0.02689158	-0.02994744	0	0	0	0
37.234	0.02689158	-0.02994744	0	0	0	0
37.25941	0.02689158	-0.02994744	0	0	0	0
37.28473	0.02689158	-0.02994744	0	0	0	0
37.30978	0.02689158	-0.02994744	0	0	0	0
37.33488	0.02689158	-0.02994744	0	0	0	0
37.36789	0.02689158	-0.02994744	0	0	0	0
37.39309	0.02689158	-0.02994744	0	0	0	0
37.41815	0.02689158	-0.02994744	0	0	0	0
37.44307	0.02689158	-0.02994744	0	0	0	0
37.46812	0.02689158	-0.02994744	0	0	0	0
37.49334	0.02566923	-0.02994744	-0.04846191	-7.384774E-08	-0.9638847	-1.468797E-06
37.51872	0.02566923	-0.02994744	0	0	0.9577082	1.459385E-06
37.54351	0.02566923	-0.02994744	0	0	0	0
37.56868	0.02444689	-0.02994744	-0.04856467	0	-0.972124	0
37.59433	0.02444689	-0.02994744	0	0	0.9557043	0
37.61934	0.02444689	-0.02994744	0	0	0	0
37.64402	0.02444689	-0.02994744	0	0	0	0
37.66899	0.02444689	-0.02994744	0	0	0	0
37.69415	0.02444689	-0.02994744	0	0	0	0
37.71944	0.02444689	-0.02994744	0	0	0	0
37.74429	0.02444689	-0.02994744	0	0	0	0
37.76984	0.02444689	-0.02994744	0	0	0	0
37.79515	0.02322455	-0.02994744	-0.04829392	0	-0.9495921	0
37.8212	0.02322455	-0.02994744	0	0	0.9402824	0
37.84612	0.02322455	-0.02994744	0	0	0	0
37.87177	0.02322455	-0.02994744	0	0	0	0
37.89714	0.02322455	-0.02994744	0	0	0	0
37.92273	0.02322455	-0.02994744	0	0	0	0
37.94842	0.02322455	-0.02994744	0	0	0	0
37.97503	0.02322455	-0.02994744	0	0	0	0
38.00093	0.02322454	-0.0287251	-1.43866E-07	0.04720546	-2.740018E-06	0.8990575
38.02599	0.02322454	-0.0287251	0	0	2.823509E-06	-0.9264526
38.05164	0.02322454	-0.0287251	0	0	0	0
38.07688	0.02322454	-0.0287251	0	0	0	0
38.1126	0.02322454	-0.0287251	0	0	0	0
38.13909	0.02322454	-0.0287251	0	0	0	0
38.16538	0.02322454	-0.0287251	0	0	0	0
38.1934	0.02322454	-0.0287251	0	0	0	0
38.22143	0.02322454	-0.0287251	0	0	0	0
38.26987	0.02322454	-0.0287251	0	0	0	0
38.29627	0.02322454	-0.0287251	0	0	0	0
38.34322	0.02322454	-0.0287251	0	0	0	0
38.36823	0.02322454	-0.0287251	0	0	0	0
38.39489	0.02322454	-0.0287251	0	0	0	0
38.42109	0.02322454	-0.0287251	0	0	0	0
38.44603	0.02322454	-0.0287251	0	0	0	0
38.47089	0.02322454	-0.0287251	0	0	0	0
38.49636	0.02322454	-0.0287251	0	0	0	0
38.52162	0.02322454	-0.0287251	0	0	0	0
38.54622	0.02322454	-0.0287251	0	0	0	0
38.57193	0.02322454	-0.0287251	0	0	0	0
38.59739	0.02322454	-0.0287251	0	0	0	0
38.62275	0.02322454	-0.0287251	0	0	0	0
38.64741	0.02322454	-0.0287251	0	0	0	0
38.67286	0.02322454	-0.0287251	0	0	0	0
38.69873	0.02322454	-0.0287251	0	0	0	0
38.72361	0.02322454	-0.0287251	0	0	0	0
38.74917	0.02322454	-0.0287251	0	0	0	0
38.77419	0.02322454	-0.0287251	0	0	0	0
38.79992	0.02322454	-0.0287251	0	0	0	0
38.82493	0.02322454	-0.0287251	0	0	0	0
38.85062	0.02322454	-0.0287251	0	0	0	0
38.87629	0.02322454	-0.0287251	0	0	0	0
38.9015	0.02322454	-0.0287251	0	0	0	0
38.92661	0.02322454	-0.0287251	0	0	0	0
38.9516	0.02322454	-0.0287251	0	0	0	0
38.97786	0.02322454	-0.0287251	0	0	0	0
39.01136	0.02322454	-0.0287251	0	0	0	0
39.0361	0.02322454	-0.0287251	0	0	0	0
39.0615	0.02322454	-0.0287251	0	0	0	0
39.08715	0.02322454	-0.0287251	0	0	0	0
39.11251	0.02322454	-0.0287251	0	0	0	0
39.13821	0.02322454	-0.0287251	0	0	0	0
39.16293	0.02322454	-0.0287251	0	0	0	0
39.18892	0.02322454	-0.0287251	0	0	0	0
39.21396	0.02322454	-0.0287251	0	0	0	0
39.23905	0.02322454	-0.0287251	0	0	0	0
39.26498	0.02322454	-0.0287251	0	0	0	0
39.29167	0.02322454	-0.0287251	0	0	0	0
39.31698	0.02322454	-0.0287251	0	0	0	0
39.34169	0.02322454	-0.0287251	0	0	0	0
39.36649	0.02322454	-0.0287251	0	0	0	0
39.39227	0.02322454	-0.0287251	0	0	0	0
39.41785	0.02322454	-0.0287251	0	0	0	0
39.44317	0.02322454	-0.0287251	0	0	0	0
39.46819	0.02322454	-0.0287251	0	0	0	0
39.49353	0.02322454	-0.0287251	0	0	0	0
39.51924	0.02322454	-0.0287251	0	0	0	0
39.54647	0.02322454	-0.0287251	0	0	0	0
39.5719	0.02322454	-0.0287251	0	0	0	0
39.59803	0.02322454	-0.0287251	0	0	0	0
39.62332	0.02322454	-0.0287251	0	0	0	0
39.64835	0.02322454	-0.0287251	0	0	0	0
39.67405	0.02322454	-0.0287251	0	0	0	0
39.70019	0.02322454	-0.0287251	0	0	0	0
39.7253	0.02322454	-0.0287251	0	0	0	0
39.75077	0.02322454	-0.0287251	0	0	0	0
39.77635	0.02322454	-0.0287251	0	0	0	0
39.80156	0.02322454	-0.0287251	0	0	0	0
39.82692	0.02322454	-0.0287251	0	0	0	0
39.8519	0.02322454	-0.0287251	0	0	0	0
39.87701	0.02322454	-0.0287251	0	0	0	0
39.90211	0.02322454	-0.0287251	0	0	0	0
39.92671	0.02322454	-0.0287251	0	0	0	0
39.9518	0.02322454	-0.0287251	0	0	0	0
39.97737	0.02322454	-0.0287251	0	0	0	0
40.00214	0.02322454	-0.0287251	0	0	0	0
40.02689	0.02322454	-0.0287251	0	0	0	0
40.0519	0.02322454	-0.0287251	0	0	0	0
40.07773	0.02322454	-0.0287251	0	0	0	0
40.10305	0.02322454	-0.0287251	0	0	0	0
40.1281	0.02322454	-0.0287251	0	0	0	0
40.15335	0.02322454	-0.0287251	0	0	0	0
40.17908	0.02322454	-0.0287251	0	0	0	0
40.20481	0.02322454	-0.0287251	0	0	0	0
40.23055	0.02322454	-0.0287251	0	0	0	0
40.25655	0.02322454	-0.0287251	0	0	0	0
40.28233	0.02322454	-0.0287251	0	0	0	0
40.30748	0.02322454	-0.0287251	0	0	0	0
40.3325	0.02322454	-0.0287251	0	0	0	0
40.35718	0.02444689	-0.02750275	0.04954092	0.04954092	0.9969183	0.9969183
40.38297	0.03667033	-0.02139103	0.4740093	0.2370046	8.411841	3.715034
40.40889	0.05745019	-0.01650165	0.8015472	0.1885993	6.333881	-0.9360532
40.4342	0.09167583	-0.009167584	1.352434	0.2898073	10.75292	1.975507
40.45931	0.1283462	-0.0006111722	1.460262	0.3407279	2.138649	1.009952
40.4848	0.1527931	0.00550055	0.958942	0.2397354	-9.906384	-1.995673
40.50965	0.1637942	0.00794524	0.4427869	0.09839714	-10.25364	-2.807742
40.53528	0.17724	0.01038993	0.524514	0.09536616	1.619004	-0.06004343
40.56004	0.1870187	0.01405696	0.3949224	0.148096	-2.571468	1.04631
40.58612	0.1943528	0.01405696	0.2812849	0	-2.235434	-2.913287
40.6174	0.2126879	0.01650165	0.5860813	0.07814417	5.313951	1.362399
40.64249	0.2469136	0.01894634	1.364362	0.09745451	13.80671	0.3425655
40.66811	0.2994744	0.02016868	2.051594	0.04771146	13.55354	-0.9810293
40.69379	0.3312553	0.02016868	1.237549	0	-15.86831	-0.9300471
40.71915	0.3520352	0.02016868	0.8193912	-7.344784E-08	-8.192642	-1.439007E-06
40.74479	0.3605916	0.02016868	0.3337324	7.265009E-08	-9.522966	2.864739E-06
40.77065	0.3789268	0.02139103	0.708813	0.04725412	7.282264	0.9174466
40.79645	0.4192641	0.02139103	1.563535	0	16.54314	-0.9146031
40.82273	0.4327099	0.02261337	0.511721	0.04652006	-20.19828	0.8933378
40.87432	0.4339323	0.02261337	0.02369166	0	-6.267279	-0.5974112
40.92722	0.4351546	0.02261337	0.02310736	-3.521174E-08	-0.005591847	-3.369797E-07
40.97647	0.4351546	0.02139103	6.051042E-07	-0.02481835	-0.2262042	-0.2429596
41.00327	0.43271	0.02016868	-0.09122553	-0.04561284	-1.199558	-0.2734325
41.02939	0.4229312	0.02016868	-0.3743349	0	-5.34963	0.8618995
41.05748	0.4094854	0.02016868	-0.478644	0	-1.924008	0
41.08473	0.3923726	0.01894634	-0.6280307	-0.04485933	-2.699444	-0.8106158
41.11069	0.361814	0.017724	-1.177013	-0.04708054	-10.31704	-0.04174338
41.13658	0.3373671	0.01650165	-0.9443869	-0.04721937	4.486574	-0.002677572
41.16245	0.3178096	0.01527931	-0.756067	-0.04725415	3.63875	-0.000672012
41.1892	0.3019191	0.01527931	-0.5940653	3.481755E-08	3.078937	0.8980933
41.21516	0.2774722	0.01527931	-0.9416117	0	-6.593371	-6.605305E-07
41.2412	0.259137	0.01650165	-0.7041391	0.0469426	4.56661	0.9027084
41.26712	0.2420242	0.01650165	-0.6602925	0	0.843914	-0.9035037
41.29368	0.2322454	0.01650165	-0.3681519	0	5.566833	0
41.32014	0.2249114	0.01650165	-0.2771084	0	1.716891	0
41.34612	0.2187997	0.01650165	-0.2352647	0	0.7978678	0
41.37283	0.2102433	0.01527931	-0.3204302	-0.04577574	-1.616629	-0.8689236
41.39943	0.1967975	0.01527931	-0.5053383	0	-3.468517	0.8586644
41.42539	0.1894634	0.01527931	-0.2825249	-3.587665E-08	4.238692	-6.824999E-07
41.45147	0.180907	0.01405696	-0.328069	-0.04686704	-0.875173	-0.9005939
41.47815	0.1760176	0.01283462	-0.1832865	-0.04582156	2.744314	0.01981666
41.50441	0.1686835	0.01161227	-0.2792421	-0.04654036	-1.812523	-0.01357758
41.53096	0.1576824	0.01038993	-0.4143499	-0.04603885	-2.558157	0.009495686
41.5583	0.1442367	0.00794524	-0.4918	-0.08941822	-1.437183	-0.8049579
41.58505	0.1234568	0.006722895	-0.7768563	-0.04569742	-5.270175	0.8083183
41.61123	0.110011	0.006722895	-0.5136597	0	4.973001	0.8634354
41.63698	0.0990099	0.006722894	-0.4272405	-1.808449E-08	1.664287	-3.482766E-07
41.66296	0.08923114	0.006722895	-0.3763681	1.792252E-08	0.9833991	6.960418E-07
41.68985	0.08434177	0.006722894	-0.1818299	-1.731739E-08	3.67944	-6.665175E-07
41.71574	0.08311943	0.006722894	-0.04720532	0	2.550482	3.280806E-07
41.74208	0.08189709	0.00550055	-0.0464189	-0.04641897	0.01505765	-0.8887923
41.76826	0.08189709	0.00550055	0	0	0.8838202	0.8838215
41.79438	0.08189709	0.00550055	0	0	0	0
41.82184	0.08189709	0.00550055	0	0	0	0
41.84795	0.08067474	0.00550055	-0.04681935	0	-0.8739879	0
41.87466	0.07945239	0.00550055	-0.04574981	0	0.02024661	0
41.90313	0.07823005	0.005500551	-0.04294127	1.635893E-08	0.0508946	2.964465E-07
41.93057	0.07823005	0.005500551	0	0	0.7680674	-2.926033E-07
41.95698	0.07823005	0.005500551	0	0	0	0
41.98662	0.07823005	0.005500551	0	0	0	0
42.01418	0.07823005	0.005500551	0	0	0	0
42.04065	0.07823005	0.005500551	0	0	0	0
42.06671	0.07823005	0.005500551	0	0	0	0
42.09291	0.07823005	0.005500551	0	0	0	0
42.11916	0.0770077	0.00550055	-0.04657437	-3.548556E-08	-0.8880703	-6.766312E-07
42.14567	0.0770077	0.00550055	0	0	0.8828048	6.726194E-07
42.17206	0.0770077	0.00550055	0	0	0	0
42.19861	0.0770077	0.00550055	0	0	0	0
42.22465	0.07578536	0.00550055	-0.04694941	1.788576E-08	-0.8928186	3.401266E-07
42.25097	0.07578536	0.004278206	0	-0.04643244	0.8966563	-0.8867835
42.2772	0.07578536	0.004278206	0	0	0	0.8835005
42.30521	0.07578536	0.004278206	0	0	0	0
42.33898	0.07456301	0.004278206	-0.03619061	0	-0.5858074	0
42.36501	0.07456301	0.004278206	0	0	0.6051636	0
42.39164	0.07456301	0.004278206	0	0	0	0
42.4185	0.07456302	0.003055861	2.773143E-07	-0.04549628	5.184076E-06	-0.8505011
42.44446	0.07456302	0.003055861	0	0	-5.249967E-06	0.8613113
42.47111	0.07456302	0.003055861	0	0	0	0
42.49764	0.07456302	0.003055861	0	0	0	0
42.52417	0.07456302	0.003055861	0	0	0	0
42.55045	0.07334067	0.003055861	-0.04652703	8.862372E-09	-0.881143	1.678383E-07
42.57689	0.07211833	0.003055861	-0.04621804	-8.803571E-09	0.005861	-3.350956E-07
42.6031	0.07211833	0.003055861	0	0	0.8777008	1.671837E-07
42.62928	0.07211833	0.003055861	0	0	0	0
42.65548	0.07211833	0.003055861	0	0	0	0
42.68197	0.07211833	0.003055861	0	0	0	0
42.70847	0.07211833	0.003055861	0	0	0	0
42.73478	0.07211833	0.003055861	0	0	0	0
42.76077	0.07211833	0.003055861	0	0	0	0
42.78804	0.07211833	0.003055861	0	0	0	0
42.81392	0.07089598	0.003055861	-0.04724737	0	-0.8889409	0
42.83988	0.07089598	0.003055861	0	0	0.9115111	0
42.86694	0.07089598	0.003055861	0	0	0	0
42.89309	0.07089598	0.003055861	0	0	0	0
42.91907	0.07089598	0.003055861	0	0	0	0
42.94493	0.07089598	0.003055861	0	0	0	0
42.97147	0.07089598	0.003055861	0	0	0	0
43.00112	0.07089598	0.003055861	0	0	0	0
43.02667	0.07089598	0.003055861	0	0	0	0
43.05251	0.07089598	0.003055861	0	0	0	0
43.07992	0.07089598	0.003055861	0	0	0	0
43.10667	0.07089598	0.003055861	0	0	0	0
43.13236	0.07089598	0.003055861	0	0	0	0
43.15815	0.07089598	0.003055861	0	0	0	0
43.18483	0.07089598	0.003055861	0	0	0	0
43.2111	0.07089598	0.003055861	0	0	0	0
43.23767	0.07089598	0.003055861	0	0	0	0
43.27577	0.07089598	0.003055861	0	0	0	0
43.30476	0.07089598	0.003055861	0	0	0	0
43.33259	0.07089598	0.003055861	0	0	0	0
43.38472	0.07089598	0.003055861	0	0	0	0
43.41164	0.07089598	0.003055861	0	0	0	0
43.45979	0.07089598	0.003055861	0	0	0	0
43.48737	0.07089598	0.003055861	0	0	0	0
43.5145	0.07089598	0.003055861	0	0	0	0
43.54015	0.07089598	0.003055861	0	0	0	0
43.56635	0.07089598	0.003055861	0	0	0	0
43.59286	0.07089598	0.003055861	0	0	0	0
43.61889	0.07089598	0.003055861	0	0	0	0
43.64455	0.07089598	0.003055861	0	0	0	0
43.6712	0.07089598	0.003055861	0	0	0	0
43.6977	0.07089598	0.003055861	0	0	0	0
43.7236	0.07089598	0.003055861	0	0	0	0
43.74964	0.07089598	0.003055861	0	0	0	0
43.77567	0.07089598	0.003055861	0	0	0	0
43.80231	0.07089598	0.003055861	0	0	0	0
43.82831	0.07089598	0.003055861	0	0	0	0
43.85483	0.07089598	0.003055861	0	0	0	0
43.88111	0.07089598	0.003055861	0	0	0	0
43.9068	0.07089598	0.003055861	0	0	0	0
43.93266	0.07089598	0.003055861	0	0	0	0
43.95814	0.07089598	0.003055861	0	0	0	0
43.98447	0.07089598	0.003055861	0	0	0	0
44.01644	0.07089598	0.003055861	0	0	0	0
44.04293	0.07089598	0.003055861	0	0	0	0
44.06971	0.07089598	0.003055861	0	0	0	0
44.09768	0.07089598	0.003055861	0	0	0	0
44.12375	0.07089598	0.003055861	0	0	0	0
44.14968	0.07089598	0.003055861	0	0	0	0
44.17532	0.07089598	0.003055861	0	0	0	0
44.20255	0.07089598	0.003055861	0	0	0	0
44.22871	0.07089598	0.003055861	0	0	0	0
44.25541	0.07089598	0.003055861	0	0	0	0
44.28268	0.07089598	0.003055861	0	0	0	0
44.30897	0.07089598	0.003055861	0	0	0	0
44.33494	0.07089598	0.003055861	0	0	0	0
44.36133	0.07089598	0.003055861	0	0	0	0
44.38841	0.07089598	0.003055861	0	0	0	0
44.41432	0.07089598	0.003055861	0	0	0	0
44.44051	0.07089598	0.003055861	0	0	0	0
44.46654	0.07089598	0.003055861	0	0	0	0
44.49288	0.07089598	0.003055861	0	0	0	0
44.51904	0.07089598	0.003055861	0	0	0	0
44.54451	0.07089598	0.003055861	0	0	0	0
44.57118	0.07089598	0.003055861	0	0	0	0
44.59807	0.07089598	0.003055861	0	0	0	0
44.62384	0.07089598	0.003055861	0	0	0	0
44.64963	0.07089598	0.003055861	0	0	0	0
44.67537	0.07089598	0.003055861	0	0	0	0
44.70158	0.07089598	0.003055861	0	0	0	0
44.72794	0.07089598	0.003055861	0	0	0	0
44.7542	0.07089598	0.003055861	0	0	0	0
44.78094	0.07089598	0.003055861	0	0	0	0
44.80677	0.07089598	0.003055861	0	0	0	0
44.83302	0.07089598	0.003055861	0	0	0	0
44.86034	0.07089598	0.003055861	0	0	0	0
44.8876	0.07089598	0.003055861	0	0	0	0
44.91363	0.07089598	0.003055861	0	0	0	0
44.94017	0.07089598	0.003055861	0	0	0	0
44.96603	0.07089598	0.003055861	0	0	0	0
44.99282	0.07089598	0.003055861	0	0	0	0
45.0193	0.07089598	0.003055861	0	0	0	0
45.04542	0.07089598	0.003055861	0	0	0	0
45.07199	0.07089598	0.003055861	0	0	0	0
45.09896	0.07089598	0.003055861	0	0	0	0
45.1249	0.07089598	0.003055861	0	0	0	0
45.15069	0.07089598	0.003055861	0	0	0	0
45.17695	0.07089598	0.003055861	0	0	0	0
45.20333	0.07089598	0.003055861	0	0	0	0
45.22976	0.07089598	0.003055861	0	0	0	0
45.25623	0.07089598	0.003055861	0	0	0	0
45.28304	0.07089598	0.003055861	0	0	0	0
45.30943	0.07089598	0.003055861	0	0	0	0
45.33593	0.07089598	0.003055861	0	0	0	0
45.36203	0.07089598	0.003055861	0	0	0	0
45.3887	0.07089598	0.003055861	0	0	0	0
45.41453	0.07089598	0.003055861	0	0	0	0
45.44042	0.07089598	0.003055861	0	0	0	0
45.46688	0.07089598	0.003055861	0	0	0	0
45.49332	0.07089598	0.003055861	0	0	0	0
45.51936	0.07089598	0.003055861	0	0	0	0
45.54499	0.07211833	0.003055861	0.04769038	0	0.9229787	0
45.5713	0.07211832	0.00550055	-2.831847E-07	0.09291873	-0.9181713	1.788931
45.59735	0.07211833	0.02505806	2.860045E-07	0.7507519	1.087058E-05	12.56353
45.62323	0.06967364	0.06050605	-0.09443875	1.36936	-1.818335	11.91072
45.6497	0.07089598	0.08984232	0.04619139	1.108595	2.686391	-4.981268
45.67574	0.08189708	0.1155115	0.4224217	0.9856501	7.165542	-2.341569
45.7104	0.106344	0.1570713	0.7054054	1.199189	4.662045	3.517975
45.73703	0.145459	0.2059651	1.4686	1.835751	12.45204	10.38593
45.76289	0.1833517	0.2426354	1.465094	1.417833	-0.06679398	-7.960664
45.78936	0.2090209	0.2683046	0.9700215	0.9700209	-9.46127	-8.558079
45.81593	0.2310231	0.2939739	0.8278671	0.9658446	-2.680158	-0.07874083
45.84283	0.2444689	0.3135314	0.4998194	0.7270112	-6.134227	-4.465991
45.89516	0.2444689	0.3135314	0	0	-6.308665	-9.176254
45.92576	0.2444689	0.3135314	0	0	0	0
46.02499	0.2444689	0.3135314	0	0	0	0
46.05917	0.2444689	0.3074196	-4.358681E-07	-0.1787722	-3.267004E-06	-1.339968
46.0876	0.2383572	0.2915291	-0.2150241	-0.559065	-3.4343	-6.073935
46.11464	0.2322455	0.273194	-0.2259735	-0.67792	-0.1973955	-2.142709
46.14153	0.2175773	0.241413	-0.5456461	-1.182231	-5.927724	-9.351499
46.16833	0.2016868	0.2194108	-0.5928827	-0.8209146	-0.8798975	6.730403
46.19632	0.1857964	0.1998533	-0.5675964	-0.6985811	0.4614449	2.23244
46.22311	0.1699059	0.1815182	-0.5932204	-0.6844844	-0.4677382	0.2573202
46.25012	0.1601271	0.1692947	-0.3620169	-0.452522	4.29757	4.311674
46.27752	0.1466814	0.1558489	-0.4907045	-0.490704	-2.365024	-0.7017081
46.30506	0.1393473	0.1485149	-0.2663599	-0.2663599	4.083785	4.083775
46.33236	0.1307909	0.1375138	-0.3134443	-0.4030004	-0.8586962	-2.491964
46.35916	0.1259015	0.1301797	-0.1824257	-0.2736382	2.421786	2.391167
46.38671	0.1161227	0.1204009	-0.3549495	-0.354949	-3.174206	-1.496008
46.41446	0.1026769	0.1069551	-0.4845656	-0.4845659	-2.343963	-2.343978
46.44202	0.09412053	0.09717639	-0.3104085	-0.3547527	3.14857	2.346879
46.47016	0.08067474	0.08250825	-0.4778005	-0.5212368	-3.004918	-2.988619
46.49739	0.07211833	0.07028481	-0.3142353	-0.4489076	2.954022	1.306281
46.52431	0.06478425	0.06295074	-0.2724364	-0.2724362	0.7719146	3.25896
46.55242	0.05745019	0.05194964	-0.2609009	-0.3913518	0.2096188	-2.160891
46.58007	0.05256081	0.04583792	-0.1768381	-0.2210475	1.507598	3.054268
46.60701	0.04889378	0.04094854	-0.1361408	-0.181521	0.7455841	0.7241342
46.63397	0.04767143	0.0397262	-0.04532899	-0.04532899	1.684768	2.526675
46.66084	0.04644909	0.03728151	-0.04550266	-0.09100559	-0.003226165	-0.8485469
46.68886	0.04644909	0.03605916	0	-0.04361381	0.8289838	0.8634005
46.71582	0.04522675	0.03361448	-0.04533541	-0.09067054	-0.8244471	-0.8557503
46.74276	0.0440044	0.02994744	-0.04537379	-0.1361217	-0.0007119991	-0.8432236
46.77018	0.04278206	0.02505806	-0.04458476	-0.1783388	0.01451603	-0.7766825
46.79754	0.04155971	0.02139103	-0.04467178	-0.1340152	-0.001588546	0.8091335
46.82547	0.04155971	0.01894634	1.333737E-07	-0.08752532	0.8078974	0.8407758
46.85424	0.04155971	0.01772399	-1.295176E-07	-0.04249743	-4.637019E-06	0.7942262
46.88188	0.04155971	0.01650165	1.34754E-07	-0.04421549	4.685008E-06	-0.03045776
46.9087	0.04155971	0.01405696	-1.389333E-07	-0.09117386	-5.025603E-06	-0.8622763
46.93698	0.04155971	0.01283462	0	-0.04321378	2.5215E-06	0.8704271
46.9653	0.04155971	0.01038993	0	-0.08632281	0	-0.761559
46.99271	0.04155971	0.01038993	0	0	0	1.548977
47.02049	0.04155971	0.01038993	0	0	0	0
47.04934	0.04155971	0.009167584	0	-0.04237934	0	-0.7484161
47.07688	0.04155971	0.00794524	0	-0.04437476	0	-0.03538688
47.10501	0.04155971	0.00794524	0	0	0	0.7970795
47.13228	0.04155971	0.00794524	0	0	0	0
47.15884	0.04155971	0.006722894	1.402503E-07	-0.04601902	2.605099E-06	-0.8547871
47.18688	0.04155971	0.006722894	0	0	-2.568877E-06	0.8429017
47.21358	0.04155971	0.006722894	0	0	0	0
47.2405	0.04155971	0.006722894	0	0	0	0
47.26748	0.04155971	0.006722894	0	0	0	0
47.29507	0.04155971	0.00550055	0	-0.04430114	0	-0.8117768
47.32223	0.04155971	0.00550055	0	0	0	0.8091186
47.35014	0.04155971	0.00550055	0	0	0	0
47.37888	0.04155971	0.00550055	0	0	0	0
47.40563	0.04155971	0.00550055	0	0	0	0
47.43314	0.04155971	0.00550055	0	0	0	0
47.46008	0.04155971	0.00550055	0	0	0	0
47.48845	0.04155971	0.00550055	0	0	0	0
47.52254	0.04155971	0.00550055	0	0	0	0
47.54927	0.04155971	0.00550055	0	0	0	0
47.57624	0.04155971	0.00550055	0	0	0	0
47.60424	0.04155971	0.00550055	0	0	0	0
47.63143	0.04155971	0.00550055	0	0	0	0
47.65876	0.04155971	0.00550055	0	0	0	0
47.68686	0.04155971	0.00550055	0	0	0	0
47.71355	0.04155971	0.00550055	0	0	0	0
47.74123	0.04155971	0.00550055	0	0	0	0
47.76823	0.04155971	0.00550055	0	0	0	0
47.79557	0.04155971	0.00550055	0	0	0	0
47.82224	0.04155971	0.00550055	0	0	0	0
47.84935	0.04155971	0.00550055	0	0	0	0
47.87669	0.04155971	0.00550055	0	0	0	0
47.90471	0.04155971	0.00550055	0	0	0	0
47.93245	0.04155971	0.00550055	0	0	0	0
47.95975	0.04155971	0.00550055	0	0	0	0
47.98764	0.04155971	0.00550055	0	0	0	0
48.01492	0.04155971	0.00550055	0	0	0	0
48.04196	0.04155971	0.00550055	0	0	0	0
48.06899	0.04155971	0.00550055	0	0	0	0
48.09692	0.04155971	0.00550055	0	0	0	0
48.12361	0.04155971	0.00550055	0	0	0	0
48.15036	0.04155971	0.00550055	0	0	0	0
48.17803	0.04155971	0.00550055	0	0	0	0
48.20504	0.04155971	0.00550055	0	0	0	0
48.23208	0.04155971	0.00550055	0	0	0	0
48.2588	0.04155971	0.00550055	0	0	0	0
48.28632	0.04155971	0.00550055	0	0	0	0
48.32365	0.04155971	0.00550055	0	0	0	0
48.35166	0.04155971	0.00550055	0	0	0	0
48.38126	0.04155971	0.00550055	0	0	0	0
48.4122	0.04155971	0.00550055	0	0	0	0
48.46468	0.04155971	0.00550055	0	0	0	0
48.51647	0.04155971	0.00550055	0	0	0	0
48.54455	0.04155971	0.00550055	0	0	0	0
48.57247	0.04155971	0.00550055	0	0	0	0
48.6	0.04155971	0.00550055	0	0	0	0
48.6268	0.04155971	0.00550055	0	0	0	0
48.65409	0.04155971	0.00550055	0	0	0	0
48.68195	0.04155971	0.00550055	0	0	0	0
48.70892	0.04155971	0.00550055	0	0	0	0
48.73624	0.04155971	0.00550055	0	0	0	0
48.76316	0.04155971	0.00550055	0	0	0	0
48.79056	0.04155971	0.00550055	0	0	0	0
48.81792	0.04155971	0.00550055	0	0	0	0
48.84528	0.04155971	0.00550055	0	0	0	0
48.87244	0.04155971	0.00550055	0	0	0	0
48.89996	0.04155971	0.00550055	0	0	0	0
48.92717	0.04155971	0.00550055	0	0	0	0
48.95464	0.04155971	0.00550055	0	0	0	0
48.98204	0.04155971	0.00550055	0	0	0	0
49.00905	0.04155971	0.00550055	0	0	0	0
49.03637	0.04155971	0.00550055	0	0	0	0
49.06317	0.04155971	0.00550055	0	0	0	0
49.09108	0.04155971	0.00550055	0	0	0	0
49.11885	0.04155971	0.00550055	0	0	0	0
49.14534	0.04155971	0.00550055	0	0	0	0
49.17253	0.04155971	0.00550055	0	0	0	0
49.20023	0.04155971	0.00550055	0	0	0	0
49.22679	0.04155971	0.00550055	0	0	0	0
49.25402	0.04155971	0.00550055	0	0	0	0
49.28757	0.04155971	0.00550055	0	0	0	0
49.31432	0.04155971	0.00550055	0	0	0	0
49.3415	0.04155971	0.00550055	0	0	0	0
49.36847	0.04155971	0.00550055	0	0	0	0
49.39614	0.04155971	0.00550055	0	0	0	0
49.42307	0.04155971	0.00550055	0	0	0	0
49.45027	0.04155971	0.00550055	0	0	0	0
49.47804	0.04155971	0.00550055	0	0	0	0
49.50601	0.04155971	0.00550055	0	0	0	0
49.53274	0.04155971	0.00550055	0	0	0	0
49.55984	0.04155971	0.00550055	0	0	0	0
49.58744	0.04155971	0.00550055	0	0	0	0
49.61422	0.04155971	0.00550055	0	0	0	0
49.641	0.04155971	0.00550055	0	0	0	0
49.66805	0.04155971	0.00550055	0	0	0	0
49.69588	0.04155971	0.00550055	0	0	0	0
49.72243	0.04155971	0.00550055	0	0	0	0
49.74935	0.04155971	0.00550055	0	0	0	0
49.77605	0.04155971	0.00550055	0	0	0	0
49.80463	0.04155971	0.00550055	0	0	0	0
49.83323	0.04155971	0.00550055	0	0	0	0
49.85992	0.04155971	0.00550055	0	0	0	0
49.88768	0.04155971	0.00550055	0	0	0	0
49.91476	0.04155971	0.00550055	0	0	0	0
49.94199	0.04155971	0.00550055	0	0	0	0
49.96936	0.04155971	0.00550055	0	0	0	0
49.99707	0.04155971	0.00550055	0	0	0	0
50.02383	0.04155971	0.00550055	0	0	0	0
50.05074	0.04155971	0.00550055	0	0	0	0
50.07869	0.04155971	0.00550055	0	0	0	0
50.10559	0.04155971	0.00550055	0	0	0	0
50.13274	0.04155971	0.00550055	0	0	0	0
50.15956	0.04155971	0.00550055	0	0	0	0
50.18732	0.04155971	0.00550055	0	0	0	0
50.21398	0.04155971	0.00550055	0	0	0	0
50.24064	0.04155971	0.00550055	0	0	0	0
50.26739	0.04155971	0.00550055	0	0	0	0
50.29512	0.04155971	0.00550055	0	0	0	0
50.32212	0.04155971	0.00550055	0	0	0	0
50.34907	0.04155971	0.00550055	0	0	0	0
50.37558	0.04155971	0.00550055	0	0	0	0
50.40384	0.04155971	0.00550055	0	0	0	0
50.43077	0.04155971	0.00550055	0	0	0	0
50.45774	0.04155971	0.00550055	0	0	0	0
50.48588	0.04155971	0.00550055	0	0	0	0
50.51294	0.03789268	-0.0006111722	-0.1355076	-0.225846	-2.454907	-4.091511
50.53996	0.02566923	-0.01405696	-0.4523935	-0.4976328	-5.859472	-5.025554
50.5671	0.002444689	-0.03361448	-0.8555614	-0.7204729	-7.443344	-4.114106
50.59492	-0.0330033	-0.05683902	-1.274339	-0.8349115	-7.619376	-2.082135
50.62183	-0.09656522	-0.0971764	-2.362117	-1.499036	-19.87694	-12.13553
50.64901	-0.1919081	-0.1570713	-3.507376	-2.203352	-21.17226	-13.0206
50.67592	-0.2383572	-0.1839629	-1.726407	-0.9994988	32.92688	22.25706
50.70397	-0.2566923	-0.1937416	-0.6535841	-0.3485784	19.52066	11.84389
50.73093	-0.2640264	-0.1998533	-0.2720116	-0.2266769	6.935719	2.215763
50.75898	-0.2640264	-0.1998533	0	0	4.945295	4.121089
50.81374	-0.2640264	-0.1998533	0	0	0	0
50.86923	-0.2640264	-0.1998533	0	0	0	0
50.8975	-0.2640264	-0.1998533	0	0	0	0
50.92559	-0.2640264	-0.1998533	0	0	0	0
50.95419	-0.2640264	-0.1998533	0	0	0	0
50.98326	-0.2640264	-0.1998533	0	0	0	0
51.01353	-0.2640264	-0.1998533	0	0	0	0
51.04963	-0.2628041	-0.1998533	0.03385417	8.254094E-07	0.5100383	1.243541E-05
51.07767	-0.2505806	-0.198631	0.4360181	0.04360075	6.270064	0.6797584
51.10616	-0.220022	-0.1876299	1.072392	0.3860614	11.25727	6.058035
51.13439	-0.1943528	-0.1741841	0.9094509	0.4763793	-2.872684	1.592326
51.16225	-0.1625718	-0.1521819	1.140477	0.7895614	4.118758	5.583434
51.19106	-0.1442367	-0.1387361	0.6364482	0.4667286	-8.893332	-5.696216
51.219	-0.1259015	-0.1216233	0.6563508	0.6125934	0.3507458	2.570594
51.24734	-0.1161227	-0.1130669	0.3450126	0.3018863	-5.532125	-5.52091
51.27507	-0.1038993	-0.1008434	0.440817	0.4408173	1.708589	2.477713
51.30422	-0.09900991	-0.0947317	0.1677206	0.2096507	-4.801193	-4.064043
51.33252	-0.09167583	-0.08617529	0.2591433	0.3023334	1.591256	1.613189
51.36113	-0.08434176	-0.07517419	0.2563443	0.3845164	-0.04918225	1.444049
51.38907	-0.07456302	-0.0617284	0.3500532	0.4813238	1.657238	1.712034
51.41838	-0.07089598	-0.05561668	0.1251029	0.2085047	-3.929457	-4.765635
51.44619	-0.06722894	-0.05194964	0.1318465	0.1318462	0.1180494	-1.341941
51.47397	-0.0660066	-0.0507273	0.04400298	0.04400311	-1.580159	-1.580152
51.503	-0.06478426	-0.04950495	0.0421064	0.0421064	-0.03338556	-0.03338792
51.53059	-0.06478426	-0.04706026	0	0.08862693	-0.7437463	0.8217154
51.55822	-0.06356192	-0.04706027	0.0442277	-1.347912E-07	0.8009137	-1.604936
51.58674	-0.06233957	-0.04583792	0.04286125	0.04286138	-0.02433313	0.7632557
51.615	-0.05989488	-0.04461557	0.08652104	0.04326039	0.7690084	0.007028061
51.64322	-0.05745019	-0.04217088	0.08663788	0.086638	0.002068962	0.7681155
51.67139	-0.05745019	-0.04094854	-1.32236E-07	0.04338926	-1.536439	-0.7669733
51.69965	-0.05745019	-0.04094854	0	0	2.34317E-06	-0.768841
51.72813	-0.05745019	-0.04094854	0	0	0	0
51.75707	-0.05622785	-0.04094854	0.04223974	-1.287322E-07	0.7356427	-2.241986E-06
51.78677	-0.05622785	-0.04094854	0	0	-0.7203288	2.195315E-06
51.81465	-0.05622785	-0.04094854	0	0	0	0
51.84343	-0.05622785	-0.04094854	0	0	0	0
51.8726	-0.05622785	-0.04094854	0	0	0	0
51.90216	-0.05622785	-0.04094854	0	0	0	0
51.93021	-0.05622785	-0.04094854	0	0	0	0
51.95792	-0.0550055	-0.04094854	0.04411228	2.688773E-07	0.7910097	4.821437E-06
51.98703	-0.0550055	-0.04094854	0	0	-0.7764046	-4.732414E-06
52.01632	-0.0550055	-0.04094854	0	0	0	0
52.0454	-0.0550055	-0.04094854	0	0	0	0
52.07336	-0.0550055	-0.04094854	0	0	0	0
52.10248	-0.0550055	-0.03972619	-1.279395E-07	0.04197952	-2.241285E-06	0.7354103
52.13044	-0.0550055	-0.03972619	0	0	2.241584E-06	-0.7355086
52.15815	-0.05378316	-0.03972619	0.04410608	0	0.7922532	0
52.18653	-0.05378316	-0.03972619	0	0	-0.7863799	0
52.21422	-0.05378316	-0.03972619	0	0	0	0
52.24196	-0.05378316	-0.03850386	-1.342723E-07	0.04405729	-2.42215E-06	0.7947533
52.26994	-0.05256081	-0.03850385	0.04368516	1.331373E-07	0.7839429	-0.7906161
52.29804	-0.05133847	-0.03728151	0.04350722	0.04350722	-0.00317323	0.7758586
52.32593	-0.05133847	-0.03728151	0	0	-0.7770768	-0.7770768
52.35384	-0.05133847	-0.03728151	0	0	0	0
52.38214	-0.05133847	-0.03728151	0	0	0	0
52.41043	-0.05011612	-0.03728151	0.04320219	-1.316654E-07	0.7634105	-2.326613E-06
52.43876	-0.05011613	-0.03605916	-1.315059E-07	0.04314997	-0.7630014	0.7620791
52.46652	-0.05011613	-0.03605916	0	0	2.344815E-06	-0.7693855
52.49485	-0.05011613	-0.03605916	0	0	0	0
52.52281	-0.05011613	-0.03605916	0	0	0	0
52.55067	-0.05011613	-0.03605916	0	0	0	0
52.57915	-0.04889378	-0.03605916	0.0429244	-1.308188E-07	0.7618915	-2.321983E-06
52.60699	-0.04889378	-0.03605916	0	0	-0.7622011	2.322927E-06
52.63541	-0.04889378	-0.03605916	0	0	0	0
52.66352	-0.04889378	-0.03605916	0	0	0	0
52.6916	-0.04644909	-0.03483682	0.08706159	0.04353073	1.549296	0.7746466
52.71972	-0.04522675	-0.03483682	0.0434659	1.324691E-07	-0.7756972	-0.7745391
52.74831	-0.04522675	-0.03361448	0	0.04275816	-0.7664689	0.7539863
52.77696	-0.04522675	-0.03361448	0	0	0	-0.747004
52.80552	-0.0440044	-0.03361448	0.04280386	0	0.7482013	0
52.84015	-0.04155971	-0.03116979	0.07060266	0.07060266	0.439974	1.117434
52.86778	-0.04033737	-0.02994744	0.04423394	0.04423407	-0.4235281	-0.423526
52.89632	-0.03911503	-0.02750275	0.04282102	0.08564211	-0.02515031	0.7370725
52.92401	-0.03667033	-0.02628041	0.0883094	0.04415463	0.8089895	-0.7378353
52.95237	-0.03544799	-0.02505806	0.0430976	0.0430976	-0.8066977	-0.01886025
52.98161	-0.03422565	-0.02505806	0.04180972	0	-0.02235978	-0.7482467
53.0127	-0.0330033	-0.02383572	0.03931182	0.0393117	-0.04140427	0.6516173
53.04124	-0.03178096	-0.02383572	0.04283247	-6.526952E-08	0.05904017	-0.6592467
53.06955	-0.03178096	-0.02383572	0	0	-0.7533732	1.148015E-06
53.09834	-0.03178096	-0.02383572	0	0	0	0
53.12769	-0.03178096	-0.02383572	0	0	0	0
53.15551	-0.03178096	-0.02383572	0	0	0	0
53.18421	-0.03178096	-0.02383572	0	0	0	0
53.22212	-0.03178096	-0.02383572	0	0	0	0
53.27594	-0.03178096	-0.02383572	0	0	0	0
53.30668	-0.03178096	-0.02383572	0	0	0	0
53.36175	-0.03178096	-0.02383572	0	0	0	0
53.39212	-0.03178096	-0.02383572	0	0	0	0
53.42117	-0.03178096	-0.02383572	0	0	0	0
53.4491	-0.03178096	-0.02383572	0	0	0	0
53.47702	-0.03178096	-0.02383572	0	0	0	0
53.50559	-0.03178096	-0.02383572	0	0	0	0
53.53358	-0.03178096	-0.02383572	0	0	0	0
53.56142	-0.03178096	-0.02383572	0	0	0	0
53.59034	-0.03178096	-0.02383572	0	0	0	0
53.61851	-0.03178096	-0.02383572	0	0	0	0
53.64639	-0.03178096	-0.02383572	0	0	0	0
53.67535	-0.03178096	-0.02383572	0	0	0	0
53.70377	-0.03178096	-0.02383572	0	0	0	0
53.73193	-0.03178096	-0.02383572	0	0	0	0
53.76033	-0.03178096	-0.02383572	0	0	0	0
53.78923	-0.03178096	-0.02383572	0	0	0	0
53.81848	-0.03178096	-0.02383572	0	0	0	0
53.84599	-0.03178096	-0.02383572	0	0	0	0
53.87363	-0.03178096	-0.02383572	0	0	0	0
53.90252	-0.03178096	-0.02383572	0	0	0	0
53.93058	-0.03178096	-0.02383572	0	0	0	0
53.9602	-0.03178096	-0.02383572	0	0	0	0
53.98863	-0.03178096	-0.02383572	0	0	0	0
54.01689	-0.03178096	-0.02383572	0	0	0	0
54.05014	-0.03178096	-0.02383572	0	0	0	0
54.08013	-0.03178096	-0.02383572	0	0	0	0
54.10813	-0.03178096	-0.02383572	0	0	0	0
54.13607	-0.03178096	-0.02383572	0	0	0	0
54.16509	-0.03178096	-0.02383572	0	0	0	0
54.19381	-0.03178096	-0.02383572	0	0	0	0
54.22219	-0.03178096	-0.02383572	0	0	0	0
54.25131	-0.03178096	-0.02383572	0	0	0	0
54.27946	-0.03178096	-0.02383572	0	0	0	0
54.307	-0.03178096	-0.02383572	0	0	0	0
54.3354	-0.03178096	-0.02383572	0	0	0	0
54.36338	-0.03178096	-0.02383572	0	0	0	0
54.39158	-0.03178096	-0.02383572	0	0	0	0
54.4199	-0.03178096	-0.02383572	0	0	0	0
54.44865	-0.03178096	-0.02383572	0	0	0	0
54.47658	-0.03178096	-0.02383572	0	0	0	0
54.50488	-0.03178096	-0.02383572	0	0	0	0
54.53348	-0.03178096	-0.02383572	0	0	0	0
54.56189	-0.03178096	-0.02383572	0	0	0	0
54.59011	-0.03178096	-0.02383572	0	0	0	0
54.61837	-0.03178096	-0.02383572	0	0	0	0
54.6524	-0.03178096	-0.02383572	0	0	0	0
54.6805	-0.03178096	-0.02383572	0	0	0	0
54.70821	-0.03178096	-0.02383572	0	0	0	0
54.73666	-0.03178096	-0.02383572	0	0	0	0
54.76457	-0.03178096	-0.02383572	0	0	0	0
54.79416	-0.03178096	-0.02383572	0	0	0	0
54.82225	-0.0220022	-0.004278206	0.3481992	0.6963984	6.037326	12.07465
54.85009	0	0.06050605	0.7902103	2.32673	7.903319	29.15092
54.87855	0.01589048	0.1521819	0.5583158	3.221052	-4.118548	15.88355
54.90627	0.01955751	0.2059651	0.1322998	1.940398	-7.583181	-22.79594
54.93423	0.01955751	0.2964185	6.6605E-08	3.234462	-2.37594	23.23977
54.96307	0.0220022	0.3269771	0.0847811	1.059763	1.492602	-38.28638
54.99169	0.02322455	0.3330889	0.04270694	0.2135354	-0.7322726	-14.72803
55.02038	0.02322455	0.3330889	0	0	-0.7452152	-3.726089
55.0486	0.02322455	0.3330889	0	0	0	0
55.07668	0.03667034	0.269527	0.478839	-2.263602	8.505541	-40.208
55.10532	0.0794524	0.1424031	1.493549	-4.437974	17.88837	-38.33212
55.1344	0.1332356	0.03361448	1.849283	-3.740595	6.162263	12.08048
55.16302	0.1527931	0.00550055	0.683311	-0.98226	-20.20576	47.80068
55.19146	0.1637942	-0.00550055	0.3868372	-0.3868374	-5.195805	10.43498
55.21999	0.1637942	-0.006722894	0	-0.042844	-6.790347	6.038288
55.24791	0.1637942	-0.006722894	0	0	0	0.7590253
55.27596	0.1637942	-0.006722894	0	0	0	0
55.3051	0.1637942	-0.01161227	0	-0.1677646	0	-2.933463
55.33402	0.1515707	-0.06417309	-0.4226752	-1.817505	-7.279533	-28.41268
55.3622	0.1589048	-0.1252903	0.2602656	-2.16888	11.96077	-6.15386
55.39111	0.1857964	-0.1864075	0.9301313	-2.113934	11.73335	0.9624273
55.42031	0.2139103	-0.2120768	0.9628814	-0.8791533	0.5635965	21.24929
55.44851	0.2395795	-0.2328566	0.9103132	-0.7369205	-0.9158881	2.478097
55.4767	0.2444689	-0.237746	0.1734162	-0.1734162	-13.06725	9.992512
55.54935	0.2456912	-0.2389683	0.01682419	-0.01682399	-1.552734	1.552737
55.60672	0.2456912	-0.2389683	0	0	-0.129393	0.1293914
55.66571	0.2456912	-0.2389683	0	0	0	0
55.69505	0.2456912	-0.2389683	0	0	0	0
55.72438	0.2456912	-0.2389683	0	0	0	0
55.75399	0.2456912	-0.2389683	0	0	0	0
55.78375	0.2456912	-0.2389683	0	0	0	0
55.81472	0.2456912	-0.2389683	0	0	0	0
55.8453	0.2456912	-0.2389683	0	0	0	0
55.87411	0.2395795	-0.2353013	-0.2121489	0.1272893	-3.57207	2.143242
55.90441	0.2322454	-0.2279672	-0.2420478	0.2420478	-0.5058295	1.941481
55.93329	0.212688	-0.2084098	-0.6771733	0.6771728	-7.352425	7.352417
55.96211	0.188241	-0.1864076	-0.8482607	0.7634343	-2.965063	1.494971
55.99116	0.1747953	-0.1741841	-0.4628668	0.420789	6.65977	-5.921055
56.02089	0.1625718	-0.1595159	-0.4111773	0.4934126	0.8794188	1.23558
56.04954	0.152793	-0.1485149	-0.3412921	0.383953	1.197071	-1.874945
56.07839	0.145459	-0.1411808	-0.2542084	0.2542084	1.514428	-2.25632
56.10765	0.1405696	-0.1350691	-0.167108	0.2088856	1.498906	-0.7799584
56.13693	0.1356802	-0.1289573	-0.1669784	0.2087223	0.002213779	-0.002789051
56.16697	0.1283462	-0.1204009	-0.2441369	0.2848269	-1.300664	1.282899
56.19649	0.113678	-0.1020658	-0.4969196	0.6211498	-4.24425	5.646899
56.22568	0.1014546	-0.08617529	-0.4187534	0.5443792	1.331437	-1.307663
56.25466	0.09412052	-0.07517418	-0.2530715	0.3796071	2.84822	-2.832581
56.28389	0.08434177	-0.0617284	-0.3345656	0.4600276	-1.400038	1.381595
56.31282	0.07456302	-0.04950495	-0.3379619	0.4224526	-0.05839417	-0.6460333
56.34132	0.06967364	-0.04217089	-0.1715597	0.2573393	2.897273	-2.87483
56.37106	0.06845129	-0.03850385	-0.04110733	0.1233215	2.240097	-2.301322
56.40106	0.06722895	-0.03850385	-0.04073579	0	0.006219046	-2.064235
56.42964	0.0660066	-0.03728151	-0.04276984	0.04276971	-0.0347189	0.7300314
56.45831	0.0660066	-0.03605916	0	0.04263868	0.7471085	-0.002288776
56.4883	0.0660066	-0.03605916	0	0	0	-0.7268484
56.51726	0.06478426	-0.03361447	-0.04221735	0.08443496	-0.7161732	1.432351
56.54606	0.06478426	-0.03361447	0	0	0.7309309	-1.461866
56.58128	0.06478426	-0.03361447	0	0	0	0
56.61069	0.06233957	-0.03116979	-0.08312067	0.08312061	-1.286204	1.286203
56.64052	0.06111722	-0.02994744	-0.04097591	0.04097585	0.7113969	-0.711397
56.67257	0.06111722	-0.02750275	1.162436E-07	0.07628376	0.6622046	0.5706034
56.70342	0.05989488	-0.02750275	-0.03961791	-6.037107E-08	-0.6298519	-1.212769
56.73236	0.05989488	-0.02750275	0	0	0.6626004	1.009692E-06
56.76195	0.05989488	-0.02750275	0	0	0	0
56.7915	0.05989488	-0.02750275	0	0	0	0
56.82026	0.05989488	-0.02750275	0	0	0	0
56.84911	0.05989488	-0.02750275	0	0	0	0
