Time	Pos X	Pos Y	Vel X	Vel Y	Acc X	Acc Y
0.01574681	-0.1943528	0.269527	-12.34236	17.11629	-783.8008	1086.969
0.03249827	-0.1967975	0.273194	-0.1459395	0.2189079	375.2945	-519.9472
0.04896116	-0.1967975	0.273194	0	0	4.393867	-6.590761
0.0659029	-0.1967975	0.273194	0	0	0	0
0.08276016	-0.1967975	0.273194	0	0	0	0
0.09903988	-0.1967975	0.273194	0	0	0	0
0.1156054	-0.1967975	0.273194	0	0	0	0
0.1321713	-0.1967975	0.273194	0	0	0	0
0.1492019	-0.1967975	0.273194	0	0	0	0
0.1653265	-0.1967975	0.273194	0	0	0	0
0.1818742	-0.1967975	0.273194	0	0	0	0
0.1984421	-0.1967975	0.273194	0	0	0	0
0.2150089	-0.1967975	0.2719717	8.994642E-07	-0.07378125	2.714576E-05	-2.226713
0.2315748	-0.1882411	0.2560812	0.516506	-0.9592289	15.58902	-26.72434
0.2483144	-0.1760176	0.2389684	0.7302108	-1.022293	6.416495	-1.893514
0.264917	-0.1601271	0.2132991	0.957105	-1.546092	6.805001	-15.70976
0.2812753	-0.1369026	0.1802958	1.419742	-2.017529	14.03592	-14.30289
0.2982976	-0.1087887	0.1387361	1.651598	-2.441493	6.94585	-12.70093
0.3149488	-0.08311942	0.1045104	1.541587	-2.055449	-3.267021	11.46436
0.3309723	-0.06478425	0.07884122	1.144266	-1.601972	-12.15987	13.87851
0.3475398	-0.05133847	0.05928371	0.8115757	-1.180474	-10.20805	12.93296
0.3641673	-0.0440044	0.04828261	0.4410801	-0.6616201	-11.16118	15.63048
0.380764	-0.04278206	0.04461557	0.07364992	-0.2209495	-11.0591	13.26353
0.3972395	-0.04155971	0.04339323	0.07419138	-0.07419138	0.01637215	4.437503
0.4139215	-0.04155971	0.04339323	0	0	-2.237543	2.237543
0.4305818	-0.04155971	0.04217089	0	-0.07336891	0	-2.200477
0.4469397	-0.04155971	0.03972619	2.277365E-07	-0.1494502	6.897307E-06	-2.304226
0.4635068	-0.04155971	0.03972619	0	0	-6.916824E-06	4.53911
0.4804099	-0.04155971	0.03850385	0	-0.07231493	0	-2.160579
0.4966395	-0.04155971	0.03850385	0	0	0	2.182589
0.5132065	-0.04155971	0.03850385	0	0	0	0
0.5297709	-0.04155971	0.03728151	0	-0.07379369	0	-2.2273
0.54634	-0.04033737	0.03483682	0.07377272	-0.1475452	2.226533	-2.225893
0.5629067	-0.03667033	0.03116978	0.2213496	-0.2213498	4.453701	-2.227338
0.5794711	-0.03422565	0.02750275	0.1475872	-0.2213807	-2.226382	-0.00093416
0.5960397	-0.03055861	0.02505806	0.2213235	-0.147549	2.225464	2.228341
0.6126052	-0.02933627	0.02383572	0.07378865	-0.07378843	-4.452652	2.22612
0.6291735	-0.02811392	0.02383572	0.07377606	-1.124222E-07	-0.0003800192	2.22698
0.6457394	-0.02322454	0.02139103	0.2951468	-0.1475734	6.681031	-4.453801
0.6627882	-0.01833517	0.017724	0.2867885	-0.2150914	-0.2486506	-2.008591
0.6798009	-0.0110011	0.01527931	0.4310917	-0.1436973	4.23655	2.096035
0.6954384	-0.003667033	0.01161227	0.4690064	-0.2345032	1.161237	-2.78117
0.7120059	-0.001222344	0.01038993	0.147559	-0.07377957	-9.981292	4.990644
0.7286319	-0.001222344	0.01038993	0	0	-4.445424	2.222713
0.7451406	-0.001222344	0.01038993	0	0	0	0
0.7617065	-0.001222344	0.01038993	0	0	0	0
0.7782744	-0.001222344	0.01038993	0	0	0	0
0.7948399	-0.001222344	0.01038993	0	0	0	0
0.811405	-0.001222344	0.01038993	0	0	0	0
0.8279729	-0.001222344	0.01038993	0	0	0	0
0.8445404	0	0.009167584	0.07377953	-0.07377951	2.226607	-2.226606
0.8611048	0.001222344	0.009167584	0.0737936	0	0.0004247914	2.226842
0.8776739	0.003667033	0.009167584	0.1475452	0	2.225897	0
0.8944983	0.004889378	0.00794524	0.07265273	-0.0726527	-2.242723	-2.17565
0.9108073	0.004889378	0.00794524	0	0	-2.192731	2.19273
0.9273732	0.004889378	0.00794524	0	0	0	0
0.9442565	0.004889378	0.00794524	0	0	0	0
0.9607913	0.004889378	0.00794524	0	0	0	0
0.9770734	0.004889378	0.00794524	0	0	0	0
0.9942204	0.004889378	0.00794524	0	0	0	0
1.010207	0.004889378	0.00794524	0	0	0	0
1.026772	0.004889378	0.00794524	0	0	0	0
1.044008	0.004889378	0.00794524	0	0	0	0
1.059904	0.004889378	0.00794524	0	0	0	0
1.076473	0.004889378	0.00794524	0	0	0	0
1.09304	0.004889378	0.00794524	0	0	0	0
1.109607	0.004889378	0.00794524	0	0	0	0
1.126173	0.004889378	0.00794524	0	0	0	0
1.14281	0.004889378	0.00794524	0	0	0	0
1.159307	0.004889378	0.00794524	0	0	0	0
1.175874	0.004889378	0.00794524	0	0	0	0
1.192577	0.006111723	0.00794524	0.07317799	0	2.199519	0
1.209769	0.008556412	0.006722894	0.1421992	-0.07109962	2.036279	-2.097598
1.225573	0.009778757	0.006722895	0.07734552	2.946534E-08	-1.965518	2.154815
1.24214	0.01222344	0.006722895	0.1475627	0	2.169153	-9.102444E-07
1.258706	0.01344579	0.00550055	0.07378833	-0.0737883	-2.226636	-2.227056
1.275274	0.01344579	0.00550055	0	0	-2.227	2.227
1.29184	0.01344579	0.00550055	0	0	0	0
1.308406	0.01344579	0.00550055	0	0	0	0
1.324971	0.01344579	0.00550055	0	0	0	0
1.341932	0.01466813	0.00550055	0.07206751	0	2.149635	0
1.358197	0.01466813	0.00550055	0	0	-2.16897	0
1.374674	0.01589048	0.00550055	0.0741882	0	2.265857	0
1.391431	0.01711282	0.00550055	0.07294524	0	-0.037401	0
1.407805	0.01833517	0.004278206	0.07464776	-0.07464779	0.05138636	-2.253053
1.424373	0.02077986	0.004278206	0.1475553	0	2.213158	2.265984
1.441132	0.02322455	0.003055861	0.1458771	-0.0729385	-0.05035672	-2.188603
1.457507	0.02566923	0.003055861	0.1492955	-1.421882E-08	0.1031718	2.201359
1.474074	0.02689158	0.003055861	0.07378307	1.405409E-08	-2.292314	8.582742E-07
1.490832	0.02689158	0.003055861	0	0	-2.214025	-4.217242E-07
1.507207	0.02689158	0.003055861	0	0	0	0
1.523773	0.02689158	0.003055861	0	0	0	0
1.54048	0.02689158	0.003055861	0	0	0	0
1.556907	0.02689158	0.003055861	0	0	0	0
1.573722	0.02689158	0.003055861	0	0	0	0
1.59004	0.02689158	0.003055861	0	0	0	0
1.60691	0.02689158	0.003055861	0	0	0	0
1.623174	0.02689158	0.003055861	0	0	0	0
1.640573	0.02689158	0.003055861	0	0	0	0
1.656693	0.02689158	0.003055861	0	0	0	0
1.672873	0.02689158	0.003055861	0	0	0	0
1.689647	0.02689158	0.003055861	0	0	0	0
1.706041	0.02689158	0.003055861	0	0	0	0
1.722573	0.02689158	0.003055861	0	0	0	0
1.73914	0.02689158	0.003055861	0	0	0	0
1.756049	0.02689158	0.001833517	-1.10157E-07	-0.07228958	-3.290697E-06	-2.159491
1.772273	0.02689158	0.001833517	0	0	3.324641E-06	2.181767
1.78884	0.02811392	0.001833517	0.07378307	0	2.250084	0
1.805406	0.02933627	0.0006111723	0.07378668	-0.0737867	0.0001088376	-2.227007
1.822143	0.03055861	0.0006111723	0.07302951	0	-0.02273523	2.215576
1.838538	0.03055861	-0.0006111723	0	-0.07455606	-2.204154	-2.250228
1.855166	0.03178096	-0.0006111722	0.07351318	3.500676E-09	2.226153	2.257734
1.871672	0.03178096	-0.0006111722	0	0	-2.218672	-1.056525E-07
1.888239	0.03178096	-0.0006111722	0	0	0	0
1.904806	0.03178096	-0.0006111722	0	0	0	0
1.921711	0.03178096	-0.0006111722	0	0	0	0
1.937938	0.03178096	-0.0006111722	0	0	0	0
1.954506	0.03178096	-0.0006111722	0	0	0	0
1.971072	0.03178096	-0.0006111722	0	0	0	0
1.987638	0.03178096	-0.0006111722	0	0	0	0
2.004698	0.03178096	-0.0006111722	0	0	0	0
2.021133	0.03178096	-0.0006111722	0	0	0	0
2.037344	0.03178096	-0.0006111722	0	0	0	0
2.053968	0.03178096	-0.0006111722	0	0	0	0
2.070473	0.03178096	-0.0006111722	0	0	0	0
2.08704	0.03178096	-0.0006111722	0	0	0	0
2.103605	0.03178096	-0.0006111722	0	0	0	0
2.120173	0.03178096	-0.0006111722	0	0	0	0
2.13674	0.03178096	-0.0006111722	0	0	0	0
2.153306	0.03178096	-0.0006111722	0	0	0	0
2.169873	0.03178096	-0.0006111722	0	0	0	0
2.18644	0.03178096	-0.0006111722	0	0	0	0
2.203007	0.03178096	-0.0006111722	0	0	0	0
2.220951	0.03178096	-0.0006111722	0	0	0	0
2.237521	0.03178096	-0.0006111722	0	0	0	0
2.254253	0.03178096	-0.0006111722	0	0	0	0
2.270654	0.03178096	-0.0006111722	0	0	0	0
2.287221	0.03178096	-0.0006111722	0	0	0	0
2.303787	0.03178096	-0.0006111722	0	0	0	0
2.320354	0.03178096	-0.0006111722	0	0	0	0
2.33736	0.03178096	-0.0006111722	0	0	0	0
2.353489	0.03178096	-0.0006111722	0	0	0	0
2.370189	0.03178096	-0.0006111722	0	0	0	0
2.386621	0.03178096	-0.0006111722	0	0	0	0
2.403188	0.03178096	-0.0006111722	0	0	0	0
2.419755	0.03178096	-0.0006111722	0	0	0	0
2.43655	0.03178096	-0.0006111722	0	0	0	0
2.453108	0.03178096	-0.0006111722	0	0	0	0
2.469455	0.03178096	-0.0006111722	0	0	0	0
2.486022	0.03178096	-0.0006111722	0	0	0	0
2.503107	0.03178096	-0.0006111722	0	0	0	0
2.519155	0.03178096	-0.0006111722	0	0	0	0
2.535721	0.03178096	-0.0006111722	0	0	0	0
2.552779	0.03178096	-0.0006111722	0	0	0	0
2.568855	0.03178096	-0.0006111722	0	0	0	0
2.585421	0.03178096	-0.0006111722	0	0	0	0
2.601988	0.03178096	-0.0006111722	0	0	0	0
2.618554	0.03178096	-0.0006111722	0	0	0	0
2.635121	0.03178096	-0.0006111722	0	0	0	0
2.652136	0.03178096	-0.0006111722	0	0	0	0
2.668413	0.03178096	-0.0006111722	0	0	0	0
2.684839	0.03178096	-0.0006111722	0	0	0	0
2.701583	0.03178096	-0.0006111722	0	0	0	0
2.717955	0.03178096	-0.0006111722	0	0	0	0
2.734522	0.03178096	-0.0006111722	0	0	0	0
2.751088	0.03178096	-0.0006111722	0	0	0	0
2.768209	0.03178096	-0.0006111722	0	0	0	0
2.784264	0.03178096	-0.0006111722	0	0	0	0
2.801211	0.03178096	-0.0006111722	0	0	0	0
2.817355	0.03178096	-0.0006111722	0	0	0	0
2.834219	0.03178096	-0.0006111722	0	0	0	0
2.850489	0.03178096	-0.0006111722	0	0	0	0
2.867056	0.03178096	-0.0006111722	0	0	0	0
2.883622	0.03178096	-0.0006111722	0	0	0	0
2.900256	0.03178096	-0.0006111722	0	0	0	0
2.916754	0.03178096	-0.0006111722	0	0	0	0
2.933796	0.03178096	-0.0006111722	0	0	0	0
2.949888	0.03178096	-0.0006111722	0	0	0	0
2.966454	0.03178096	-0.0006111722	0	0	0	0
2.983374	0.03178096	-0.0006111722	0	0	0	0
2.999587	0.03178096	-0.0006111722	0	0	0	0
3.016154	0.03178096	-0.0006111722	0	0	0	0
3.03272	0.03178096	-0.0006111722	0	0	0	0
3.049287	0.03178096	-0.0006111722	0	0	0	0
3.065929	0.03178096	-0.0006111722	0	0	0	0
3.08242	0.03178096	-0.0006111722	0	0	0	0
3.099454	0.03178096	-0.0006111722	0	0	0	0
3.115968	0.03178096	-0.0006111722	0	0	0	0
3.132122	0.03178096	-0.0006111722	0	0	0	0
3.148688	0.03178096	-0.0006111722	0	0	0	0
3.165458	0.03178096	-0.0006111722	0	0	0	0
3.18182	0.03178096	-0.0006111722	0	0	0	0
3.19847	0.03178096	-0.0006111722	0	0	0	0
3.214977	0.03178096	-0.0006111722	0	0	0	0
3.231768	0.03178096	-0.0006111722	0	0	0	0
3.248089	0.03178096	-0.0006111722	0	0	0	0
3.264655	0.03178096	-0.0006111722	0	0	0	0
3.281304	0.03178096	-0.0006111722	0	0	0	0
3.297916	0.03178096	-0.0006111722	0	0	0	0
3.314517	0.03178096	-0.0006111722	0	0	0	0
3.330925	0.03178096	-0.0006111722	0	0	0	0
3.347522	0.03178096	-0.0006111722	0	0	0	0
3.364062	0.03178096	-0.0006111722	0	0	0	0
3.380627	0.03178096	-0.0006111722	0	0	0	0
3.397264	0.03178096	-0.0006111722	0	0	0	0
3.413817	0.03178096	-0.0006111722	0	0	0	0
3.430328	0.03178096	-0.0006111722	0	0	0	0
3.446997	0.03178096	-0.0006111722	0	0	0	0
3.463458	0.03178096	-0.0006111722	0	0	0	0
3.480022	0.03178096	-0.0006111722	0	0	0	0
3.497293	0.03178096	-0.0006111722	0	0	0	0
3.513155	0.03178096	-0.0006111722	0	0	0	0
3.530654	0.03178096	-0.0006111722	0	0	0	0
3.546288	0.03178096	-0.0006111722	0	0	0	0
3.562856	0.03178096	-0.0006111722	0	0	0	0
3.579423	0.03178096	-0.0006111722	0	0	0	0
3.595989	0.03178096	-0.0006111722	0	0	0	0
3.612556	0.03178096	-0.0006111722	0	0	0	0
3.629122	0.03178096	-0.0006111722	0	0	0	0
3.645688	0.03178096	-0.0006111722	0	0	0	0
3.662272	0.03178096	-0.0006111722	0	0	0	0
3.678823	0.03178096	-0.0006111722	0	0	0	0
3.695389	0.03178096	-0.0006111722	0	0	0	0
3.711956	0.03178096	-0.0006111722	0	0	0	0
3.728522	0.03178096	-0.0006111722	0	0	0	0
3.745089	0.03178096	-0.0006111722	0	0	0	0
3.761656	0.03178096	-0.0006111722	0	0	0	0
3.778222	0.03178096	-0.0006111722	0	0	0	0
3.794787	0.03178096	-0.0006111722	0	0	0	0
3.811355	0.03178096	-0.0006111722	0	0	0	0
3.827922	0.03178096	-0.0006111722	0	0	0	0
3.844489	0.03178096	-0.0006111722	0	0	0	0
3.861056	0.03178096	-0.0006111722	0	0	0	0
3.877623	0.03178096	-0.0006111722	0	0	0	0
3.894189	0.03178096	-0.0006111722	0	0	0	0
3.910753	0.03178096	-0.0006111722	0	0	0	0
3.927323	0.03178096	-0.0006111722	0	0	0	0
3.943889	0.03178096	-0.0006111722	0	0	0	0
3.961149	0.03178096	-0.0006111722	0	0	0	0
3.977022	0.03178096	-0.0006111722	0	0	0	0
3.99359	0.03178096	-0.0006111722	0	0	0	0
4.010155	0.03178096	-0.0006111722	0	0	0	0
4.026721	0.03178096	-0.0006111722	0	0	0	0
4.043289	0.0220022	0.004278206	-0.5902469	0.2951234	-17.8142	8.907099
4.060009	0.009778756	0.01038993	-0.7310544	0.3655272	-4.230038	2.11502
4.076423	-0.009778756	0.02016868	-1.191537	0.5957683	-13.89758	6.948791
4.092989	-0.02933627	0.0287251	-1.180528	0.5164809	0.3337996	-2.404073
4.109554	-0.04767144	0.03728151	-1.106872	0.5165402	2.223119	0.001788233
4.126544	-0.06356192	0.04339323	-0.9353003	0.3597311	5.113226	-4.673258
4.142687	-0.07823005	0.04950495	-0.908619	0.3785912	0.8052763	0.5692227
4.159255	-0.08434177	0.05194964	-0.3689045	0.1475619	16.49971	-7.062836
4.175821	-0.08678646	0.05317198	-0.1475699	0.07378475	6.680083	-2.226663
4.192388	-0.08800881	0.05317198	-0.07378118	0	2.227013	-2.226892
4.208956	-0.08923115	0.05317198	-0.0737786	2.248525E-07	7.780008E-05	6.785964E-06
4.225605	-0.0990099	0.03483682	-0.5873391	-1.101261	-15.4608	-33.15359
4.242119	-0.1124557	0.00794524	-0.8142145	-1.628428	-6.841205	-15.89621
4.258657	-0.1271238	-0.02139103	-0.8869523	-1.773906	-2.200744	-4.401549
4.275674	-0.1430143	-0.04950495	-0.9337803	-1.652073	-1.395556	3.630855
4.291788	-0.1564601	-0.07395184	-0.8344048	-1.517099	2.999417	4.073853
4.308691	-0.1723506	-0.09839874	-0.9401289	-1.446353	-3.202144	2.142755
4.324921	-0.188241	-0.1216233	-0.9790742	-1.430955	-1.17544	0.4647365
4.341487	-0.2016868	-0.1424031	-0.8116131	-1.254311	5.10601	5.386003
4.35881	-0.2175773	-0.1644053	-0.9173288	-1.270148	-3.11944	-0.4673249
4.374621	-0.2212444	-0.1692947	-0.2319303	-0.30924	20.68596	29.00109
4.39119	-0.2298008	-0.1827405	-0.5164214	-0.8115197	-8.786115	-15.51221
4.407755	-0.2395795	-0.1925193	-0.5902986	-0.5902976	-2.229619	6.676495
4.424321	-0.2481359	-0.198631	-0.5165246	-0.3689452	2.226729	6.681103
4.440887	-0.2530253	-0.2010757	-0.2951399	-0.1475717	6.68198	6.681642
4.45749	-0.25547	-0.2035204	-0.1472412	-0.1472394	4.458843	0.01002029
4.474021	-0.2566923	-0.2035203	-0.0739446	9.014336E-07	2.212127	4.443784
4.49059	-0.2566923	-0.2035203	0	0	2.234031	-2.723432E-05
4.507156	-0.2542477	-0.2035204	0.1475657	-1.798924E-06	4.453413	-5.429006E-05
4.523724	-0.2432466	-0.2035204	0.6640083	0	15.58627	5.429162E-05
4.540448	-0.2077986	-0.2047427	2.119636	-0.07308982	43.72392	-2.195461
4.556891	-0.1283462	-0.2145215	4.831914	-0.594697	81.77668	-15.72675
4.573442	-0.02811392	-0.2328566	6.055782	-1.107765	37.09282	-15.54999
4.590058	0.05011612	-0.2597482	4.708153	-1.618429	-40.6312	-15.39659
4.606627	0.09656522	-0.2805281	2.803512	-1.254202	-57.39628	10.97597
4.623123	0.1124557	-0.2878621	0.963254	-0.4445781	-55.65602	24.48594
4.639803	0.113678	-0.2878622	0.0732813	-1.786684E-06	-26.82507	13.40018
4.656256	0.113678	-0.2878622	0	0	-2.211761	5.392534E-05
4.672823	0.113678	-0.2878622	0	0	0	0
4.689389	0.113678	-0.2890845	0	-0.0737853	0	-2.226909
4.705955	0.113678	-0.2903068	0	-0.0737889	0	-0.0001086163
4.722523	0.113678	-0.2927515	4.49705E-07	-0.1475572	1.357251E-05	-2.226396
4.739348	0.113678	-0.3000855	-8.856204E-07	-0.4358829	-3.998772E-05	-8.634215
4.755655	0.113678	-0.3025303	9.137961E-07	-0.149921	5.430962E-05	8.630841
4.772223	0.113678	-0.3037526	-4.49705E-07	-0.0737768	-4.147584E-05	2.316204
4.78879	0.113678	-0.3037526	0	0	1.357193E-05	2.226556
4.805647	0.113678	-0.3037526	0	0	0	0
4.821936	0.113678	-0.3037526	0	0	0	0
4.83849	0.113678	-0.3037526	0	0	0	0
4.855056	0.113678	-0.3037526	0	0	0	0
4.871621	0.113678	-0.3037526	0	0	0	0
4.88819	0.113678	-0.3037526	0	0	0	0
4.904963	0.113678	-0.3037526	0	0	0	0
4.921384	0.113678	-0.3037526	0	0	0	0
4.93789	0.113678	-0.3037526	0	0	0	0
4.954695	0.113678	-0.3037526	0	0	0	0
4.971212	0.113678	-0.3037526	0	0	0	0
4.987588	0.113678	-0.3037526	0	0	0	0
5.004261	0.113678	-0.3037526	0	0	0	0
5.063488	0.1124557	-0.3013079	-0.02063806	0.04127586	-0.2719109	0.5438185
5.080058	0.08678646	-0.2401907	-1.549219	3.688618	-20.16675	48.11982
5.096678	0.07211833	-0.2047427	-0.882551	2.132832	20.08684	-46.87615
5.113368	0.05867254	-0.1766288	-0.8056073	1.684451	2.309897	-13.46067
5.130037	0.04767144	-0.1485149	-0.6599816	1.68662	4.365403	0.06502737
5.146805	0.03789268	-0.1228456	-0.583164	1.530805	2.297365	-4.65994
5.162894	0.03178096	-0.09717639	-0.3798815	1.595503	6.186897	1.969099
5.179458	0.02689158	-0.07761887	-0.2951744	1.180698	2.594171	-12.7035
5.196027	0.02444689	-0.06539543	-0.147549	0.7377449	4.455536	-13.36892
5.212592	0.02322454	-0.06050605	-0.07378945	0.2951576	2.226101	-13.3575
5.229158	0.02322454	-0.06050605	0	0	2.227162	-8.908642
5.245723	0.02322454	-0.06050605	0	0	0	0
5.262293	0.02322454	-0.05928371	0	0.07376798	0	2.22629
5.278859	0.02322454	-0.05928371	0	0	0	-2.226258
5.295635	0.02322454	-0.05928371	0	0	0	0
5.311991	0.02322454	-0.05928371	0	0	0	0
5.328663	0.02322454	-0.05928371	0	0	0	0
5.345123	0.02322454	-0.05928371	0	0	0	0
5.36169	0.0220022	-0.0592837	-0.07378296	2.248654E-07	-2.23404	6.808596E-06
5.378256	0.0220022	-0.0592837	0	0	2.22687	-6.786745E-06
5.394826	0.0220022	-0.0592837	0	0	0	0
5.411721	0.0220022	-0.0592837	0	0	0	0
5.427958	0.0220022	-0.0592837	0	0	0	0
5.444524	0.0220022	-0.0592837	0	0	0	0
5.46126	0.0220022	-0.0592837	0	0	0	0
5.477656	0.0220022	-0.0592837	0	0	0	0
5.494224	0.0220022	-0.0592837	0	0	0	0
5.511017	0.0220022	-0.0592837	0	0	0	0
5.527357	0.02444689	-0.05683902	0.1496159	0.1496155	4.515676	4.515666
5.543924	0.02566923	-0.05317198	0.07377871	0.2213363	-2.304556	2.179466
5.56049	0.02811392	-0.04706026	0.1475744	0.3689362	2.227223	4.454702
5.577058	0.02933627	-0.04217089	0.07377894	0.2951148	-2.227216	-2.227996
5.593632	0.02933627	-0.03728151	0	0.294996	-2.22614	-0.003586125
5.610246	0.02933627	-0.03605916	-1.121165E-07	0.07357576	-3.378237E-06	-6.671722
5.626759	0.02933627	-0.03483682	-1.127963E-07	0.07402147	-2.052299E-08	0.01345439
5.643326	0.02933627	-0.03483682	0	0	3.409794E-06	-2.237643
5.660335	0.02933627	-0.03483682	0	0	0	0
5.676838	0.02933627	-0.03483682	0	0	0	0
5.693026	0.02933627	-0.03483682	0	0	0	0
5.709732	0.02933627	-0.03483682	0	0	0	0
5.726158	0.02933627	-0.03483682	0	0	0	0
5.742728	0.02933627	-0.03483682	0	0	0	0
5.759291	0.02933627	-0.03483682	0	0	0	0
5.775905	0.02933627	-0.03483682	0	0	0	0
5.792426	0.02933627	-0.03483682	0	0	0	0
5.808992	0.02933627	-0.03361447	1.12436E-07	0.07378519	3.398116E-06	2.229986
5.82556	0.02933627	-0.03361447	0	0	-3.393422E-06	-2.226906
5.842376	0.02933627	-0.03361447	0	0	0	0
5.912434	0.02933627	-0.03361447	0	0	0	0
5.932223	0.02933627	-0.03239213	9.412197E-08	0.0617666	1.047574E-06	0.6874599
5.948836	0.02933627	-0.03239213	0	0	-2.58561E-06	-1.696781
5.965645	0.02933627	-0.03239213	0	0	0	0
5.982744	0.02933627	-0.03116979	0	0.07148858	0	2.108317
5.999311	0.02933627	-0.03116979	0	0	0	-2.123457
6.015879	0.02933627	-0.03116979	0	0	0	0
6.032446	0.02933627	-0.03116979	0	0	0	0
6.049012	0.02933627	-0.03116979	0	0	0	0
6.065605	0.02933627	-0.03116979	0	0	0	0
6.082147	0.02933627	-0.03116979	0	0	0	0
6.098713	0.02933627	-0.03116979	0	0	0	0
6.115281	0.02933627	-0.03116979	0	0	0	0
6.131848	0.02933627	-0.03116979	0	0	0	0
6.148709	0.02933627	-0.03116979	0	0	0	0
6.164981	0.02933627	-0.02994744	-1.144689E-07	0.07511928	-3.454826E-06	2.267202
6.181548	0.02933627	-0.02994744	0	0	3.485829E-06	-2.287548
6.198115	0.02933627	-0.02994744	0	0	0	0
6.215131	0.02933627	-0.02994744	0	0	0	0
6.231248	0.02933627	-0.02994744	0	0	0	0
6.248272	0.02933627	-0.02994744	0	0	0	0
6.26438	0.02933627	-0.02994744	0	0	0	0
6.280947	0.02933627	-0.02994744	0	0	0	0
6.297515	0.02933627	-0.02994744	0	0	0	0
6.314133	0.02933627	-0.02994744	0	0	0	0
6.330648	0.02933627	-0.02994744	0	0	0	0
6.347216	0.02933627	-0.02994744	0	0	0	0
6.363781	0.02933627	-0.02994744	0	0	0	0
6.380348	0.02933627	-0.02994744	0	0	0	0
6.397262	0.02933627	-0.02994744	0	0	0	0
6.413485	0.02933627	-0.02994744	0	0	0	0
6.430063	0.02933627	-0.0287251	0	0.07373203	0	2.247881
6.446614	0.02933627	-0.0287251	0	0	0	-2.225557
6.463183	0.02933627	-0.0287251	0	0	0	0
6.479983	0.02933627	-0.0287251	0	0	0	0
6.496315	0.02933627	-0.0287251	0	0	0	0
6.512882	0.02933627	-0.0287251	0	0	0	0
6.529522	0.02933627	-0.0287251	0	0	0	0
6.546015	0.02933627	-0.02750275	0	0.07411157	0	2.236788
6.562581	0.02933627	-0.02750275	0	0	0	-2.241789
6.579146	0.02933627	-0.02750275	0	0	0	0
6.595719	0.02933627	-0.02750275	0	0	0	0
6.61228	0.02933627	-0.02750275	0	0	0	0
6.628847	0.02933627	-0.02750275	0	0	0	0
6.645647	0.02933627	-0.02750275	0	0	0	0
6.66198	0.02933627	-0.02750275	0	0	0	0
6.678709	0.02933627	-0.02750275	0	0	0	0
6.695113	0.02933627	-0.02750275	0	0	0	0
6.711846	0.02933627	-0.02750275	0	0	0	0
6.728246	0.02933627	-0.02750275	0	0	0	0
6.744813	0.02933627	-0.02750275	0	0	0	0
6.762227	0.02933627	-0.02750275	0	0	0	0
6.777946	0.02933627	-0.02628041	1.184969E-07	0.0777624	3.576449E-06	2.347009
6.794514	0.02933627	-0.02628041	0	0	-3.670152E-06	-2.408501
6.811205	0.02933627	-0.02628041	0	0	0	0
6.827647	0.02933627	-0.02628041	0	0	0	0
6.844213	0.02933627	-0.02628041	0	0	0	0
6.86078	0.02933627	-0.02628041	0	0	0	0
6.877347	0.02933627	-0.02628041	0	0	0	0
6.89417	0.02933627	-0.02628041	0	0	0	0
6.91048	0.02933627	-0.02628041	0	0	0	0
6.927427	0.02933627	-0.02628041	0	0	0	0
6.943775	0.02933627	-0.02628041	0	0	0	0
6.960348	0.02933627	-0.02628041	0	0	0	0
6.976748	0.02933627	-0.02628041	0	0	0	0
6.993316	0.02933627	-0.02628041	0	0	0	0
7.01	0.02933627	-0.02628041	0	0	0	0
7.027091	0.02933627	-0.02628041	0	0	0	0
7.043016	0.02933627	-0.02628041	0	0	0	0
7.059583	0.02933627	-0.02628041	0	0	0	0
7.076148	0.02933627	-0.02628041	0	0	0	0
7.092715	0.02933627	-0.02628041	0	0	0	0
7.109282	0.02933627	-0.02628041	0	0	0	0
7.125849	0.02933627	-0.02628041	0	0	0	0
7.142527	0.02933627	-0.02628041	0	0	0	0
7.159265	0.02933627	-0.02628041	0	0	0	0
7.17555	0.02933627	-0.02628041	0	0	0	0
7.192117	0.02933627	-0.02628041	0	0	0	0
7.208683	0.02933627	-0.02628041	0	0	0	0
7.22525	0.02933627	-0.02628041	0	0	0	0
7.242152	0.02933627	-0.02628041	0	0	0	0
7.258383	0.02933627	-0.02628041	0	0	0	0
7.27495	0.02933627	-0.02628041	0	0	0	0
7.29227	0.02933627	-0.02628041	0	0	0	0
7.308084	0.02933627	-0.02628041	0	0	0	0
7.324658	0.02933627	-0.02628041	0	0	0	0
7.34128	0.02933627	-0.02628041	0	0	0	0
7.357783	0.02933627	-0.02628041	0	0	0	0
7.37435	0.02933627	-0.02628041	0	0	0	0
7.390916	0.02933627	-0.02628041	0	0	0	0
7.407484	0.02933627	-0.02628041	0	0	0	0
7.424264	0.02933627	-0.02628041	0	0	0	0
7.440617	0.02933627	-0.02628041	0	0	0	0
7.457183	0.02933627	-0.02628041	0	0	0	0
7.473751	0.02933627	-0.02628041	0	0	0	0
7.490316	0.02933627	-0.02628041	0	0	0	0
7.506884	0.02933627	-0.02628041	0	0	0	0
7.52388	0.02933627	-0.02628041	0	0	0	0
7.540014	0.02933627	-0.02628041	0	0	0	0
7.55658	0.02933627	-0.02628041	0	0	0	0
7.573151	0.02933627	-0.02628041	0	0	0	0
7.589716	0.02933627	-0.02628041	0	0	0	0
7.606427	0.02933627	-0.02628041	0	0	0	0
7.62285	0.02933627	-0.02628041	0	0	0	0
7.639417	0.02933627	-0.02628041	0	0	0	0
7.655984	0.02933627	-0.02628041	0	0	0	0
7.67255	0.02933627	-0.02628041	0	0	0	0
7.689117	0.02933627	-0.02628041	0	0	0	0
7.705683	0.02933627	-0.02628041	0	0	0	0
7.72225	0.02933627	-0.02628041	0	0	0	0
7.73886	0.03055861	-0.02750275	0.07359232	-0.07359221	2.21818	-2.218176
7.755384	0.0330033	-0.0287251	0.1479491	-0.07397459	2.244156	-0.01154054
7.771948	0.03544799	-0.02994744	0.1475872	-0.07379358	-0.01093757	0.00547036
7.788515	0.03667033	-0.02994744	0.07378519	-2.248719E-07	-2.227604	2.227345
7.805083	0.03789268	-0.02994744	0.07377458	1.124198E-07	-0.0003204194	1.017934E-05
7.821649	0.03911502	-0.03116979	0.07378922	-0.07378934	0.0004418542	-2.227002
7.838217	0.03911502	-0.03116979	0	0	-2.227027	2.227031
7.854784	0.03911502	-0.03116979	0	0	0	0
7.87135	0.03911502	-0.03116979	0	0	0	0
7.887918	0.03911502	-0.03116979	0	0	0	0
7.904482	0.03911502	-0.03116979	0	0	0	0
7.921048	0.03911502	-0.03116979	0	0	0	0
7.937617	0.03911502	-0.03116979	0	0	0	0
7.954451	0.03911502	-0.03116979	0	0	0	0
7.970915	0.03911502	-0.03116979	0	0	0	0
7.987317	0.03911502	-0.03116979	0	0	0	0
8.00426	0.03911502	-0.03116979	0	0	0	0
8.02045	0.03911502	-0.03116979	0	0	0	0
8.0371	0.03911502	-0.03116979	0	0	0	0
8.053584	0.03911502	-0.03116979	0	0	0	0
8.070151	0.03911502	-0.03116979	0	0	0	0
8.086984	0.03911502	-0.03116979	0	0	0	0
8.103339	0.03911502	-0.03116979	0	0	0	0
8.119877	0.03911502	-0.03116979	0	0	0	0
8.136531	0.03911502	-0.03116979	0	0	0	0
8.152985	0.03911502	-0.03116979	0	0	0	0
8.169551	0.03911502	-0.03116979	0	0	0	0
8.186117	0.03911502	-0.03116979	0	0	0	0
8.203085	0.03911502	-0.03116979	0	0	0	0
8.219273	0.03911502	-0.03116979	0	0	0	0
8.236002	0.03911502	-0.03116979	0	0	0	0
8.252384	0.03911502	-0.03116979	0	0	0	0
8.26895	0.03911502	-0.03116979	0	0	0	0
8.285518	0.03911502	-0.03116979	0	0	0	0
8.302084	0.03911502	-0.03116979	0	0	0	0
8.318651	0.03911502	-0.03116979	0	0	0	0
8.335217	0.03911502	-0.03116979	0	0	0	0
8.351793	0.03911502	-0.03116979	0	0	0	0
8.368352	0.03911502	-0.03116979	0	0	0	0
8.385179	0.03911502	-0.03116979	0	0	0	0
8.402137	0.03911502	-0.03116979	0	0	0	0
8.41805	0.03911502	-0.03116979	0	0	0	0
8.434619	0.03911502	-0.03116979	0	0	0	0
8.451298	0.03911502	-0.03116979	0	0	0	0
8.467902	0.03911502	-0.03116979	0	0	0	0
8.484317	0.03911502	-0.03116979	0	0	0	0
8.500885	0.03911502	-0.03116979	0	0	0	0
8.517451	0.03911502	-0.03116979	0	0	0	0
8.534227	0.03911502	-0.03116979	0	0	0	0
8.550682	0.03911502	-0.03116979	0	0	0	0
8.567311	0.03911502	-0.03116979	0	0	0	0
8.583716	0.03911502	-0.03116979	0	0	0	0
8.600282	0.03911502	-0.03116979	0	0	0	0
8.61685	0.03911502	-0.03116979	0	0	0	0
8.633964	0.03911502	-0.03116979	0	0	0	0
8.650444	0.03911502	-0.03116979	0	0	0	0
8.666549	0.03911502	-0.03116979	0	0	0	0
8.683305	0.03911502	-0.03116979	0	0	0	0
8.699683	0.03911502	-0.03116979	0	0	0	0
8.716327	0.03911502	-0.03116979	0	0	0	0
8.732816	0.03911502	-0.03116979	0	0	0	0
8.749382	0.03911502	-0.03116979	0	0	0	0
8.765949	0.03911502	-0.03116979	0	0	0	0
8.782516	0.03911502	-0.03116979	0	0	0	0
8.799082	0.03911502	-0.03116979	0	0	0	0
8.815649	0.03911502	-0.03116979	0	0	0	0
8.832215	0.03911502	-0.03116979	0	0	0	0
8.848782	0.03911502	-0.03116979	0	0	0	0
8.865348	0.03911502	-0.03116979	0	0	0	0
8.881914	0.04278206	-0.02628041	0.2213554	0.2951403	6.680902	8.907866
8.898653	0.04644909	-0.02016868	0.2190725	0.3651212	-0.06854455	2.101202
8.915256	0.05378316	-0.01283462	0.4417446	0.4417443	6.678547	2.298137
8.931613	0.06233957	-0.0006111722	0.5230902	0.7472721	2.468013	9.26967
8.94827	0.07456301	0.01283462	0.7338378	0.8072215	6.383525	1.815862
8.964747	0.08923115	0.02994744	0.8901873	1.038552	4.718638	6.981564
8.981411	0.113678	0.05561667	1.467087	1.540442	17.40736	15.14402
8.997879	0.1259015	0.06784012	0.7422522	0.7422524	-21.87745	-24.09149
9.014746	0.1295685	0.07150716	0.2174133	0.2174129	-15.7445	-15.74452
9.031034	0.1332355	0.07517419	0.2251394	0.2251399	0.2330334	0.2330608
9.04758	0.1369026	0.08006356	0.2216228	0.2954971	-0.1071018	2.142813
9.064146	0.1430143	0.08617529	0.3689258	0.3689258	4.448555	2.217548
9.080986	0.1503484	0.09106466	0.4355153	0.2903433	1.993324	-2.352326
9.09728	0.1552377	0.09595402	0.3000814	0.30008	-4.08752	0.2938623
9.113847	0.1601271	0.09962108	0.2951229	0.221344	-0.1508946	-2.396051
9.130423	0.1650165	0.1045105	0.2949719	0.2949705	-0.004556261	2.221479
9.14698	0.1747953	0.1142892	0.5905867	0.5905858	8.921928	8.921942
9.163547	0.1955751	0.1326244	1.254346	1.106777	20.03865	15.58363
9.180113	0.220022	0.1509596	1.475702	1.106777	6.680916	0
9.19713	0.2420242	0.1644053	1.292926	0.7901211	-5.442421	-9.428882
9.213631	0.2603594	0.1741841	1.111191	0.5926356	-5.422032	-5.891953
9.229991	0.2713605	0.1802958	0.6724279	0.37357	-13.35219	-6.666481
9.246383	0.2713605	0.1802958	0	0	-20.53087	-11.40601
9.263361	0.2713605	0.1802958	0	0	0	0
9.280155	0.2713605	0.1802958	0	0	0	0
9.296498	0.2713605	0.1802958	0	0	0	0
9.313064	0.2713605	0.1802958	0	0	0	0
9.32963	0.2713605	0.1802958	0	0	0	0
9.346199	0.2713605	0.1802958	0	0	0	0
9.362764	0.2713605	0.1802958	0	0	0	0
9.379333	0.2713605	0.1802958	0	0	0	0
9.395898	0.2713605	0.1802958	0	0	0	0
9.412466	0.2713605	0.1802958	0	0	0	0
9.429034	0.2713605	0.1802958	0	0	0	0
9.445724	0.2713605	0.1802958	0	0	0	0
9.462269	0.2713605	0.1802958	0	0	0	0
9.478847	0.2713605	0.1802958	0	0	0	0
9.496184	0.2701381	0.1790735	-0.07050158	-0.07050158	-2.078741	-2.078741
9.511868	0.2640264	0.1754064	-0.3896768	-0.233805	-9.665555	-4.945301
9.528539	0.25547	0.1692947	-0.5132759	-0.3666252	-3.820168	-4.105175
9.545001	0.2420242	0.1607383	-0.8167606	-0.5197571	-9.159715	-4.621794
9.561857	0.2261337	0.1497372	-0.9427077	-0.6526441	-3.780093	-3.988383
9.578135	0.2065762	0.1350691	-1.20152	-0.9011399	-7.811201	-7.499835
9.5947	0.1870187	0.1228456	-1.180629	-0.7378935	0.6360888	4.970563
9.611266	0.1674612	0.1093998	-1.180561	-0.8116365	0.002054489	-2.22576
9.628318	0.1527931	0.09839873	-0.8602157	-0.6451617	9.528999	4.951957
9.644799	0.141792	0.08739763	-0.6674864	-0.6674855	5.747433	-0.6657223
9.661334	0.1283462	0.07028481	-0.8131813	-1.034958	-4.412828	-11.13007
9.677657	0.1197898	0.05928371	-0.5241897	-0.6739591	8.795195	10.98667
9.694152	0.113678	0.05194964	-0.3705255	-0.4446304	4.682337	6.987927
9.711028	0.110011	0.04583792	-0.21729	-0.36215	4.59188	2.471624
9.727231	0.1075663	0.04217089	-0.1508797	-0.2263193	2.00762	4.106234
9.743797	0.1038993	0.03605916	-0.2213554	-0.3689258	-2.150669	-4.351845
9.760895	0.1002322	0.03116978	-0.2144781	-0.2859707	0.2042918	2.464224
9.776929	0.09656522	0.02628041	-0.2287014	-0.3049356	-0.4292955	-0.5724117
9.793496	0.09412052	0.02139103	-0.1475619	-0.2951235	2.488838	0.3009745
9.810062	0.09045349	0.01772399	-0.2213554	-0.2213554	-2.227155	2.22639
9.826629	0.0880088	0.01527931	-0.1475704	-0.1475702	2.226963	2.22697
9.843195	0.0880088	0.01405696	0	-0.07378514	4.453939	2.226964
9.859988	0.08678646	0.01405696	-0.07278726	5.545814E-08	-2.181903	2.211818
9.87633	0.08678646	0.01283462	-4.559115E-07	-0.07479707	2.196647	-2.257317
9.892898	0.08678646	0.01283462	0	0	1.385354E-05	2.272818
9.909464	0.08678646	0.01283462	0	0	0	0
9.926171	0.08678646	0.01283462	0	0	0	0
9.942595	0.08678646	0.01283462	0	0	0	0
9.95917	0.08678646	0.01283462	0	0	0	0
9.976933	0.08556412	0.01161227	-0.068813	-0.06881347	-2.00399	-2.004004
9.993504	0.08311943	0.007945239	-0.1475364	-0.2213044	-2.292922	-4.441497
10.01032	0.08189708	0.006722895	-0.07268084	-0.07268048	2.241982	4.451399
10.02664	0.08067474	0.004278206	-0.07491489	-0.1498301	-0.06742374	-2.328379
10.04321	0.08067474	0.003055861	0	-0.07378086	2.278181	2.312675
10.05977	0.07945239	0.001833517	-0.07380242	-0.07380211	-2.227682	-0.0006411652
10.07633	0.0794524	0.0006111722	4.497438E-07	-0.0737851	2.22776	0.0005134417
10.09304	0.07823005	-0.0006111723	-0.07314911	-0.07314925	-2.198231	0.01910797
10.10964	0.07823005	-0.0006111723	0	0	2.196581	2.196585
10.12607	0.07823005	-0.001833517	-4.532664E-07	-0.07436302	-1.372345E-05	-2.251473
10.1426	0.0770077	-0.003055861	-0.07394674	-0.07394689	-2.243001	0.01262263
10.15927	0.07578536	-0.00550055	-0.07334165	-0.1466836	0.01822737	-2.191098
10.17574	0.07578536	-0.00550055	0	0	2.213519	4.427046
10.1923	0.07578536	-0.006722895	0	-0.07378086	0	-2.233461
10.20888	0.07456302	-0.006722894	-0.07372131	2.808474E-08	-2.224017	2.225815
10.22544	0.07456302	-0.006722894	0	0	2.224914	-8.475991E-07
10.242	0.07456302	-0.006722894	0	0	0	0
10.25857	0.07334067	-0.007945239	-0.07379392	-0.07379358	-2.227361	-2.227351
10.27514	0.07334067	-0.009167584	0	-0.07377665	2.227233	0.0005111339
10.29187	0.07211833	-0.01038993	-0.07304073	-0.0730409	-2.193201	0.0220925
10.30827	0.07089598	-0.01161227	-0.0745402	-0.07454037	-0.0452553	-0.04525552
10.32484	0.07089598	-0.01161227	0	0	2.261212	2.261217
10.3414	0.07089598	-0.01161227	0	0	0	0
10.35797	0.07089598	-0.01161227	0	0	0	0
10.37487	0.07089598	-0.01161227	0	0	0	0
10.39118	0.07089598	-0.01161227	0	0	0	0
10.40796	0.07089598	-0.01161227	0	0	0	0
10.42424	0.07089598	-0.01161227	0	0	0	0
10.44132	0.07089598	-0.01161227	0	0	0	0
10.45737	0.07089598	-0.01161227	0	0	0	0
10.47394	0.07089598	-0.01161227	0	0	0	0
10.4906	0.07089598	-0.01161227	0	0	0	0
10.50707	0.07089598	-0.01161227	0	0	0	0
10.52363	0.07089598	-0.01161227	0	0	0	0
10.54083	0.07089598	-0.01161227	0	0	0	0
10.55677	0.07089598	-0.01161227	0	0	0	0
10.57333	0.07089598	-0.01161227	0	0	0	0
10.5899	0.07089598	-0.01161227	0	0	0	0
10.60647	0.07089598	-0.01161227	0	0	0	0
10.62303	0.07089598	-0.01161227	0	0	0	0
10.63995	0.07089598	-0.01161227	0	0	0	0
10.65616	0.07089598	-0.01161227	0	0	0	0
10.67274	0.07089598	-0.01161227	0	0	0	0
10.6893	0.07089598	-0.01161227	0	0	0	0
10.70587	0.07089598	-0.01161227	0	0	0	0
10.72243	0.07089598	-0.01161227	0	0	0	0
10.739	0.07089598	-0.01161227	0	0	0	0
10.75556	0.07089598	-0.01405696	-4.497179E-07	-0.1475616	-1.357291E-05	-4.453545
10.77233	0.07089598	-0.01527931	4.442959E-07	-0.07289147	2.681776E-05	2.239881
10.7887	0.07089598	-0.01527931	0	0	-1.341004E-05	2.200059
10.80527	0.07089598	-0.01527931	0	0	0	0
10.82183	0.07089598	-0.01527931	0	0	0	0
10.8384	0.07089598	-0.01527931	0	0	0	0
10.85496	0.07089598	-0.01527931	0	0	0	0
10.87153	0.07089598	-0.01527931	0	0	0	0
10.8881	0.07089598	-0.01527931	0	0	0	0
10.90518	0.07089598	-0.01527931	0	0	0	0
10.92123	0.07089598	-0.01527931	0	0	0	0
10.9378	0.07089598	-0.01527931	0	0	0	0
10.95437	0.07089598	-0.01527931	0	0	0	0
10.9711	0.07089598	-0.01527931	0	0	0	0
10.9875	0.07089598	-0.01527931	0	0	0	0
11.00407	0.07089598	-0.01527931	0	0	0	0
11.02072	0.06967364	-0.01527931	-0.0734009	5.592501E-08	-2.209584	1.683508E-06
11.0372	0.06722895	-0.01038993	-0.1483299	0.2966603	-2.261362	8.953225
11.05377	0.06356191	-0.004278205	-0.2213686	0.3689468	-2.210163	2.187402
11.07033	0.06111722	-0.0006111723	-0.1475614	0.2213425	2.227632	-4.454962
11.0869	0.05989488	0.0006111723	-0.07379369	0.07379361	2.226507	-4.453421
11.10347	0.05989488	0.001833517	2.24846E-07	0.07377661	2.227233	-0.0005131577
11.12065	0.05989488	0.001833517	0	0	-6.661246E-06	-2.185692
11.1366	0.05989488	0.001833517	0	0	0	0
11.15317	0.05989488	0.001833517	0	0	0	0
11.16973	0.05989488	0.001833517	0	0	0	0
11.18666	0.05867254	0.001833517	-0.07220973	0	-2.155839	0
11.20287	0.05867254	-0.0006111723	0	-0.1508706	2.179482	-4.553677
11.21945	0.05745019	-0.003055861	-0.07370012	-0.1474005	-2.247693	0.1058307
11.236	0.05745019	-0.00550055	0	-0.1477148	2.22421	-0.009484728
11.2531	0.05745019	-0.00550055	0	0	0	4.389813
11.26913	0.05745019	-0.00550055	0	0	0	0
11.2857	0.05745019	-0.00550055	0	0	0	0
11.30227	0.05745019	-0.00550055	0	0	0	0
11.31892	0.05745019	-0.00550055	0	0	0	0
11.3355	0.05745019	-0.00550055	0	0	0	0
11.35199	0.05745019	-0.00550055	0	0	0	0
11.36853	0.05745019	-0.00550055	0	0	0	0
11.38543	0.05745019	-0.00550055	0	0	0	0
11.40186	0.05745019	-0.00550055	0	0	0	0
11.41823	0.05745019	-0.00550055	0	0	0	0
11.4348	0.05745019	-0.00550055	0	0	0	0
11.45137	0.05745019	-0.00550055	0	0	0	0
11.46799	0.05745019	-0.00550055	0	0	0	0
11.48469	0.05745019	-0.00550055	0	0	0	0
11.50107	0.05745019	-0.00550055	0	0	0	0
11.51763	0.05745019	-0.00550055	0	0	0	0
11.53422	0.05745019	-0.00550055	0	0	0	0
11.55085	0.05745019	-0.00550055	0	0	0	0
11.56733	0.05745019	-0.00550055	0	0	0	0
11.5839	0.05745019	-0.00550055	0	0	0	0
11.60055	0.05745019	-0.00550055	0	0	0	0
11.61706	0.05745019	-0.00550055	0	0	0	0
11.6336	0.05745019	-0.00550055	0	0	0	0
11.65016	0.05745019	-0.00550055	0	0	0	0
11.66683	0.05745019	-0.00550055	0	0	0	0
11.68334	0.05745019	-0.00550055	0	0	0	0
11.69987	0.05745019	-0.00550055	0	0	0	0
11.71652	0.05745019	-0.00550055	0	0	0	0
11.73309	0.05745019	-0.00550055	0	0	0	0
11.74993	0.05745019	-0.00550055	0	0	0	0
11.76644	0.05745019	-0.00550055	0	0	0	0
11.783	0.05745019	-0.00550055	0	0	0	0
11.79936	0.05745019	-0.00550055	0	0	0	0
11.81592	0.05745019	-0.00550055	0	0	0	0
11.83249	0.05745019	-0.00550055	0	0	0	0
11.84906	0.05745019	-0.00550055	0	0	0	0
11.86562	0.05745019	-0.00550055	0	0	0	0
11.88219	0.05745019	-0.00550055	0	0	0	0
11.89875	0.05745019	-0.00550055	0	0	0	0
11.91532	0.05745019	-0.00550055	0	0	0	0
11.93189	0.05745019	-0.00550055	0	0	0	0
11.94845	0.05745019	-0.00550055	0	0	0	0
11.96515	0.05745019	-0.00550055	0	0	0	0
11.98159	0.05745019	-0.00550055	0	0	0	0
11.99869	0.05745019	-0.00550055	0	0	0	0
12.01482	0.05745019	-0.00550055	0	0	0	0
12.0317	0.05745019	-0.00550055	0	0	0	0
12.04785	0.05745019	-0.00550055	0	0	0	0
12.06442	0.05745019	-0.00550055	0	0	0	0
12.08099	0.05745019	-0.00550055	0	0	0	0
12.09756	0.05745019	-0.00550055	0	0	0	0
12.11412	0.05745019	-0.00550055	0	0	0	0
12.13121	0.05745019	-0.00550055	0	0	0	0
12.14725	0.05745019	-0.004278206	-2.321694E-07	0.07617956	-7.006886E-06	2.299104
12.16395	0.05745019	-0.003055861	2.23125E-07	0.07321192	1.390571E-05	-0.09063838
12.18051	0.05745019	-0.003055861	0	0	-6.710364E-06	-2.201809
12.19695	0.05745019	-0.003055861	0	0	0	0
12.21352	0.05745019	-0.003055861	0	0	0	0
12.23009	0.05745019	-0.003055861	0	0	0	0
12.24665	0.05745019	-0.003055861	0	0	0	0
12.26322	0.05745019	-0.003055861	0	0	0	0
12.27979	0.05745019	-0.003055861	0	0	0	0
12.29635	0.05745019	-0.003055861	0	0	0	0
12.31292	0.05745019	-0.003055861	0	0	0	0
12.32983	0.05745019	-0.003055861	0	0	0	0
12.34639	0.05745019	-0.003055861	0	0	0	0
12.36262	0.05745019	-0.003055861	0	0	0	0
12.37918	0.05745019	-0.003055861	0	0	0	0
12.39575	0.05745019	-0.003055861	0	0	0	0
12.41232	0.05745019	-0.003055861	0	0	0	0
12.42888	0.05745019	-0.003055861	0	0	0	0
12.44545	0.05745019	-0.003055861	0	0	0	0
12.4621	0.05745019	-0.003055861	0	0	0	0
12.47858	0.05745019	-0.003055861	0	0	0	0
12.49516	0.05745019	-0.003055861	0	0	0	0
12.51172	0.05745019	-0.003055861	0	0	0	0
12.52829	0.05745019	-0.003055861	0	0	0	0
12.54485	0.05745019	-0.003055861	0	0	0	0
12.56142	0.05745019	-0.003055861	0	0	0	0
12.57799	0.05745019	-0.003055861	0	0	0	0
12.59455	0.05745019	-0.003055861	0	0	0	0
12.61187	0.05745019	-0.003055861	0	0	0	0
12.62769	0.05745019	-0.003055861	0	0	0	0
12.64425	0.05745019	-0.003055861	0	0	0	0
12.66104	0.05745019	-0.003055861	0	0	0	0
12.73364	0.05745019	-0.003055861	0	0	0	0
12.75025	0.05745019	-0.003055861	0	0	0	0
12.76678	0.05745019	-0.003055861	0	0	0	0
12.78334	0.05745019	-0.003055861	0	0	0	0
12.79991	0.05745019	-0.003055861	0	0	0	0
12.81648	0.05745019	-0.003055861	0	0	0	0
12.83514	0.05745019	-0.003055861	0	0	0	0
12.85171	0.05745019	-0.003055861	0	0	0	0
12.86842	0.05745019	-0.003055861	0	0	0	0
12.88484	0.05745019	-0.003055861	0	0	0	0
12.90146	0.05745019	-0.003055861	0	0	0	0
12.91798	0.05745019	-0.003055861	0	0	0	0
12.93455	0.05745019	-0.003055861	0	0	0	0
12.95268	0.05745019	-0.003055861	0	0	0	0
12.96925	0.05745019	-0.003055861	0	0	0	0
12.98582	0.05745019	-0.003055861	0	0	0	0
13.00239	0.05745019	-0.003055861	0	0	0	0
13.01895	0.05745019	-0.003055861	0	0	0	0
13.03552	0.05745019	-0.003055861	0	0	0	0
13.05209	0.05745019	-0.003055861	0	0	0	0
13.06866	0.05745019	-0.003055861	0	0	0	0
13.08522	0.05745019	-0.003055861	0	0	0	0
13.10193	0.05745019	-0.003055861	0	0	0	0
13.11843	0.05745019	-0.003055861	0	0	0	0
13.13492	0.05745019	-0.003055861	0	0	0	0
13.15149	0.05745019	-0.003055861	0	0	0	0
13.16806	0.05745019	-0.003055861	0	0	0	0
13.18525	0.05745019	-0.003055861	0	0	0	0
13.20119	0.05745019	-0.003055861	0	0	0	0
13.21775	0.05745019	-0.003055861	0	0	0	0
13.23455	0.05745019	-0.003055861	0	0	0	0
13.25089	0.05745019	-0.003055861	0	0	0	0
13.26746	0.05745019	-0.003055861	0	0	0	0
13.28409	0.05745019	-0.003055861	0	0	0	0
13.3009	0.05745019	-0.003055861	0	0	0	0
13.31719	0.05745019	-0.003055861	0	0	0	0
13.33379	0.05745019	-0.003055861	0	0	0	0
13.35029	0.05745019	-0.003055861	0	0	0	0
13.36685	0.05745019	-0.003055861	0	0	0	0
13.38396	0.05745019	-0.003055861	0	0	0	0
13.39999	0.05745019	-0.003055861	0	0	0	0
13.41655	0.05745019	-0.003055861	0	0	0	0
13.43312	0.05745019	-0.003055861	0	0	0	0
13.44969	0.05745019	-0.003055861	0	0	0	0
13.46631	0.05745019	-0.003055861	0	0	0	0
13.48282	0.05745019	-0.003055861	0	0	0	0
13.49954	0.05745019	-0.003055861	0	0	0	0
13.51595	0.05745019	-0.003055861	0	0	0	0
13.53296	0.05745019	-0.003055861	0	0	0	0
13.54909	0.05745019	-0.003055861	0	0	0	0
13.56565	0.05745019	-0.003055861	0	0	0	0
13.58222	0.05745019	-0.003055861	0	0	0	0
13.59878	0.05745019	-0.003055861	0	0	0	0
13.61535	0.05745019	-0.003055861	0	0	0	0
13.63192	0.05745019	-0.003055861	0	0	0	0
13.64849	0.05745019	-0.003055861	0	0	0	0
13.66505	0.05745019	-0.003055861	0	0	0	0
13.68162	0.05745019	-0.003055861	0	0	0	0
13.69819	0.05745019	-0.003055861	0	0	0	0
13.71475	0.05745019	-0.003055861	0	0	0	0
13.73132	0.05745019	-0.003055861	0	0	0	0
13.7479	0.05745019	-0.003055861	0	0	0	0
13.76445	0.05745019	-0.003055861	0	0	0	0
13.78102	0.05745019	-0.003055861	0	0	0	0
13.79759	0.05745019	-0.003055861	0	0	0	0
13.81415	0.05745019	-0.003055861	0	0	0	0
13.83072	0.05745019	-0.003055861	0	0	0	0
13.84729	0.05745019	-0.003055861	0	0	0	0
13.86385	0.0550055	-0.003055861	-0.1475789	0	-4.454196	0
13.88066	0.05378316	-0.001833517	-0.07269689	0.07269702	2.24335	2.177891
13.89757	0.05011613	-0.0006111722	-0.216959	0.07231964	-4.278718	-0.01119282
13.91414	0.05011613	-0.0006111722	0	0	6.481793	-2.160597
13.9307	0.05011613	-0.0006111722	0	0	0	0
13.94727	0.05011613	-0.0006111722	0	0	0	0
13.96424	0.05011613	-0.0006111722	0	0	0	0
13.98074	0.05011613	-0.0006111722	0	0	0	0
13.99697	0.05011613	-0.0006111722	0	0	0	0
14.01354	0.05011613	-0.0006111722	0	0	0	0
14.0301	0.05011613	-0.0006111722	0	0	0	0
14.04667	0.05011613	-0.0006111722	0	0	0	0
14.06328	0.05011613	-0.0006111722	0	0	0	0
14.0798	0.05011613	-0.0006111722	0	0	0	0
14.09637	0.05011613	-0.0006111722	0	0	0	0
14.11294	0.04889378	-0.003055861	-0.07378519	-0.1475702	-2.226906	-4.453806
14.12969	0.04522675	-0.006722894	-0.218948	-0.2189479	-4.357318	-2.142528
14.14607	0.04033737	-0.01283462	-0.2984042	-0.3730054	-2.398064	-4.649598
14.16264	0.0330033	-0.02261337	-0.4427362	-0.5903147	-4.38028	-6.595043
14.17992	0.02933627	-0.02505806	-0.2121704	-0.141447	6.811647	13.26098
14.19602	0.02933627	-0.02750275	1.157202E-07	-0.1518808	6.356301	-0.3125803
14.21234	0.02933627	-0.02750275	0	0	-3.569599E-06	4.685039
14.2289	0.02933627	-0.02750275	0	0	0	0
14.24547	0.02933627	-0.02750275	0	0	0	0
14.26205	0.02933627	-0.02750275	0	0	0	0
14.27861	0.02933627	-0.02750275	0	0	0	0
14.29517	0.02933627	-0.02750275	0	0	0	0
14.31174	0.02933627	-0.02750275	0	0	0	0
14.32842	0.03178096	-0.03116979	0.1465495	-0.2198242	4.407775	-6.611661
14.34496	0.03422565	-0.03483682	0.1477914	-0.2216871	0.03738033	-0.05607275
14.36152	0.03789268	-0.04217089	0.2214699	-0.4429402	2.225992	-6.684553
14.37801	0.04522675	-0.05317199	0.4448622	-0.6672929	6.760478	-6.789541
14.39457	0.06111723	-0.08984232	0.9592065	-2.213553	15.56146	-46.78202
14.41114	0.07456302	-0.1204009	0.8115895	-1.844522	-4.455216	11.1377
14.4277	0.08923115	-0.1558489	0.885523	-2.140014	2.231508	-8.918749
14.44427	0.1038993	-0.1925193	0.8853705	-2.213426	-0.004601911	-2.215775
14.46084	0.1173451	-0.2353013	0.8115422	-2.582181	-2.22808	-11.12872
14.47741	0.1259015	-0.269527	0.5164669	-2.065864	-8.905134	15.58204
14.49397	0.1307909	-0.2866398	0.2951399	-1.032993	-6.679853	31.17299
14.51104	0.1307909	-0.2915291	0	-0.2864639	-8.774997	22.19555
14.52712	0.1307909	-0.2939738	0	-0.1520516	0	4.055171
14.54369	0.1307909	-0.2939738	0	0	0	4.657017
14.56042	0.1307909	-0.2939738	0	0	0	0
14.57812	0.1307909	-0.2939738	0	0	0	0
14.59469	0.1307909	-0.2939738	0	0	0	0
14.61151	0.1307909	-0.2939738	0	0	0	0
14.628	0.1307909	-0.2939738	0	0	0	0
14.64447	0.1307909	-0.2939738	0	0	0	0
14.66095	0.1307909	-0.2939738	0	0	0	0
14.67752	0.1307909	-0.2939738	0	0	0	0
14.69409	0.1307909	-0.2939738	0	0	0	0
14.71076	0.1307909	-0.2939738	0	0	0	0
14.72722	0.1307909	-0.2939738	0	0	0	0
14.74379	0.1307909	-0.2939738	0	0	0	0
14.76036	0.1307909	-0.2939738	0	0	0	0
14.77692	0.1307909	-0.2939738	0	0	0	0
14.79349	0.1307909	-0.2939738	0	0	0	0
14.81006	0.1307909	-0.2927515	0	0.07379347	0	2.227091
14.82662	0.1307909	-0.2915291	0	0.07378497	0	-0.0002565936
14.8433	0.1307909	-0.2890845	0	0.1465994	0	2.190421
14.85985	0.1271238	-0.2805281	-0.2216101	0.5170901	-6.670351	11.15158
14.87632	0.1222344	-0.2683046	-0.2967637	0.7419089	-2.275806	6.80797
14.89289	0.1149004	-0.2450801	-0.4426593	1.401755	-4.415209	19.96879
14.90946	0.1002323	-0.2071874	-0.8854215	2.287339	-13.36259	26.72697
14.92602	0.08923115	-0.1754064	-0.6641808	1.918745	6.678017	-11.12578
14.94259	0.08189708	-0.1521819	-0.4426598	1.401756	6.686096	-15.60412
14.95916	0.08067474	-0.1485149	-0.07378497	0.221354	11.13266	-35.6246
14.97572	0.0794524	-0.1424031	-0.07378497	0.3689267	0	4.454008
14.99229	0.0770077	-0.1338467	-0.1475619	0.5164651	-2.226656	4.452846
15.00926	0.07456301	-0.1252903	-0.1440219	0.5040768	0.1055411	-0.3693402
15.02542	0.07211833	-0.1191786	-0.1512973	0.3782439	-0.2195847	-3.797863
15.04199	0.06967364	-0.1118445	-0.1475708	0.4427116	0.113873	1.970022
15.05855	0.06722895	-0.1045105	-0.1475699	0.4427103	2.743437E-05	-4.047695E-05
15.07512	0.06478426	-0.09717639	-0.1475619	0.4426852	0.0002428547	-0.0007555479
15.09169	0.06356192	-0.09228701	-0.07378497	0.2951403	2.226656	-4.453043
15.10825	0.06111723	-0.08861998	-0.1475702	0.2213554	-2.22697	-2.226963
15.12482	0.06111722	-0.08617529	-2.248719E-07	0.1475704	4.453926	-2.226963
15.14139	0.05989488	-0.08495294	-0.07378519	0.07378497	-2.226963	-2.226976
15.15795	0.05989488	-0.08495294	0	0	2.22697	-2.226963
15.17456	0.05989488	-0.0837306	0	0.07360277	0	2.218718
15.19109	0.05989487	-0.08128591	-2.254039E-07	0.1479195	-6.802704E-06	2.242884
15.20765	0.05989488	-0.07761888	4.497438E-07	0.2213549	2.040125E-05	2.219031
15.22496	0.05989488	-0.0727295	0	0.2824577	-1.327601E-05	1.803698
15.24084	0.05989488	-0.06661777	-2.346378E-07	0.3849477	-7.07019E-06	3.088265
15.25735	0.06111722	-0.0617284	0.07402384	0.2960949	2.285424	-2.743249
15.2742	0.06111722	-0.05683902	0	0.2901628	-2.218718	-0.1778018
15.29068	0.06111722	-0.05194964	-2.260692E-07	0.2967118	-6.782956E-06	0.1964946
15.30759	0.06111722	-0.04461557	2.20269E-07	0.4336486	1.336702E-05	4.10101
15.32365	0.06111722	-0.04217088	0	0.1522869	-6.681771E-06	-8.534993
15.3406	0.06111722	-0.03728151	0	0.2883833	0	4.123182
15.35676	0.06111722	-0.03483682	0	0.1513429	0	-4.139225
15.37332	0.06111723	-0.03361448	2.248719E-07	0.07378497	6.872695E-06	-2.370379
15.38989	0.06111722	-0.03239213	-2.248719E-07	0.07378519	-1.357408E-05	6.746157E-06
15.40645	0.06111722	-0.02994744	-2.248978E-07	0.1475874	-7.815175E-10	2.227611
15.42302	0.06111723	-0.0287251	4.496662E-07	0.07377223	2.035897E-05	-2.22781
15.43959	0.06111722	-0.02750275	-2.248719E-07	0.07378508	-2.035701E-05	0.0003878706
15.45615	0.06111722	-0.02750275	0	0	6.786843E-06	-2.226902
15.47366	0.06111722	-0.02628041	0	0.0698143	0	2.048798
15.48965	0.06111722	-0.02628041	0	0	0	-2.084442
15.5059	0.06111722	-0.02628041	0	0	0	0
15.52242	0.06111722	-0.02505806	0	0.07397673	0	2.257179
15.53899	0.06111722	-0.02505806	0	0	0	-2.235646
15.55555	0.06111722	-0.02505806	0	0	0	0
15.57246	0.06111722	-0.02505806	0	0	0	0
15.58869	0.06111722	-0.02505806	0	0	0	0
15.60525	0.06111722	-0.02505806	0	0	0	0
15.62197	0.06111722	-0.02505806	0	0	0	0
15.63838	0.05989488	-0.02505806	-0.07447956	0	-2.247862	0
15.65576	0.05989488	-0.02505806	0	0	2.204649	0
15.67206	0.05867253	-0.02505806	-0.07495039	1.142112E-07	-2.22537	3.391071E-06
15.68815	0.05867253	-0.02505806	0	0	2.313411	-3.525229E-06
15.70465	0.05745019	-0.02505806	-0.07408779	0	-2.273468	0
15.72163	0.05745019	-0.02505806	0	0	2.21317	0
15.73779	0.05745019	-0.02505806	0	0	0	0
15.75435	0.05745019	-0.02505806	0	0	0	0
15.77092	0.05745019	-0.02505806	0	0	0	0
15.78748	0.05745019	-0.02505806	0	0	0	0
15.80405	0.05745019	-0.02505806	0	0	0	0
15.82062	0.05745019	-0.02505806	0	0	0	0
15.83719	0.05745019	-0.02505806	0	0	0	0
15.85375	0.05745019	-0.02505806	0	0	0	0
15.87058	0.05745019	-0.02505806	0	0	0	0
15.88689	0.05745019	-0.02505806	0	0	0	0
15.90345	0.05745019	-0.02505806	0	0	0	0
15.92023	0.05745019	-0.02505806	0	0	0	0
15.93658	0.05745019	-0.02505806	0	0	0	0
15.95345	0.05745019	-0.02505806	0	0	0	0
15.96972	0.05745019	-0.02505806	0	0	0	0
15.98724	0.05745019	-0.02505806	0	0	0	0
16.00381	0.05745019	-0.02505806	0	0	0	0
16.02037	0.05745019	-0.02505806	0	0	0	0
16.03694	0.05745019	-0.02505806	0	0	0	0
16.05351	0.05745019	-0.02628041	0	-0.07378095	0	-2.226713
16.07008	0.0550055	-0.0262804	-0.1475617	1.124295E-07	-4.45342	2.226717
16.08664	0.0550055	-0.0262804	0	0	4.45342	-3.393129E-06
16.10321	0.0550055	-0.0262804	0	0	0	0
16.11978	0.0550055	-0.0262804	0	0	0	0
16.13634	0.0550055	-0.0262804	0	0	0	0
16.15291	0.0550055	-0.0262804	0	0	0	0
16.16948	0.0550055	-0.0262804	0	0	0	0
16.18605	0.0550055	-0.0262804	0	0	0	0
16.20261	0.0550055	-0.0262804	0	0	0	0
16.21918	0.0550055	-0.0262804	0	0	0	0
16.23575	0.0550055	-0.0262804	0	0	0	0
16.25231	0.0550055	-0.0262804	0	0	0	0
16.26888	0.0550055	-0.0262804	0	0	0	0
16.28546	0.0550055	-0.0262804	0	0	0	0
16.30201	0.0550055	-0.0262804	0	0	0	0
16.31858	0.0550055	-0.0262804	0	0	0	0
16.33531	0.0550055	-0.0262804	0	0	0	0
16.35172	0.0550055	-0.0262804	0	0	0	0
16.36828	0.05378316	-0.02628041	-0.07378072	-2.24859E-07	-2.237526	-6.81923E-06
16.38485	0.05378316	-0.02628041	0	0	2.226707	6.786257E-06
16.40142	0.05378316	-0.02628041	0	0	0	0
16.41798	0.05378316	-0.02628041	0	0	0	0
16.43502	0.05256081	-0.02628041	-0.07176498	1.093575E-07	-2.135872	3.254702E-06
16.45111	0.05256081	-0.02628041	0	0	2.166121	-3.300796E-06
16.46768	0.05256081	-0.02628041	0	0	0	0
16.48425	0.05256081	-0.02628041	0	0	0	0
16.50111	0.05256081	-0.02628041	0	0	0	0
16.51739	0.05256081	-0.02628041	0	0	0	0
16.53395	0.05256081	-0.02628041	0	0	0	0
16.55052	0.05256081	-0.02628041	0	0	0	0
16.56709	0.05256081	-0.02628041	0	0	0	0
16.58365	0.05256081	-0.02628041	0	0	0	0
16.60049	0.05256081	-0.02628041	0	0	0	0
16.61679	0.05256081	-0.02628041	0	0	0	0
16.6342	0.05256081	-0.02628041	0	0	0	0
16.65011	0.05256081	-0.02628041	0	0	0	0
16.66649	0.05256081	-0.02628041	0	0	0	0
16.68305	0.05256081	-0.02628041	0	0	0	0
16.69962	0.05256081	-0.02628041	0	0	0	0
16.71619	0.05256081	-0.02628041	0	0	0	0
16.73275	0.05256081	-0.02628041	0	0	0	0
16.75009	0.05256081	-0.02628041	0	0	0	0
16.76666	0.05256081	-0.02628041	0	0	0	0
16.78322	0.05256081	-0.02628041	0	0	0	0
16.79979	0.05256081	-0.02628041	0	0	0	0
16.81636	0.05256081	-0.02628041	0	0	0	0
16.83306	0.05256081	-0.02628041	0	0	0	0
16.84949	0.05256081	-0.02628041	0	0	0	0
16.86615	0.05256081	-0.02628041	0	0	0	0
16.88279	0.05256081	-0.02628041	0	0	0	0
16.89919	0.05256081	-0.02628041	0	0	0	0
16.91576	0.05256081	-0.02628041	0	0	0	0
16.93233	0.05256081	-0.02628041	0	0	0	0
16.94889	0.05256081	-0.02628041	0	0	0	0
16.96546	0.05256081	-0.02628041	0	0	0	0
16.98263	0.05256081	-0.02628041	0	0	0	0
16.99859	0.05256081	-0.02628041	0	0	0	0
17.01654	0.05256081	-0.02628041	0	0	0	0
17.03311	0.05256081	-0.02628041	0	0	0	0
17.04968	0.05256081	-0.02628041	0	0	0	0
17.06659	0.05256081	-0.02628041	0	0	0	0
17.08281	0.05256081	-0.02628041	0	0	0	0
17.09979	0.05256081	-0.02628041	0	0	0	0
17.11595	0.05256081	-0.02628041	0	0	0	0
17.13251	0.05256081	-0.02628041	0	0	0	0
17.14954	0.05256081	-0.02628041	0	0	0	0
17.16565	0.05256081	-0.02628041	0	0	0	0
17.18221	0.05256081	-0.02628041	0	0	0	0
17.19878	0.05256081	-0.02628041	0	0	0	0
17.21535	0.05256081	-0.02628041	0	0	0	0
17.2325	0.05256081	-0.02628041	0	0	0	0
17.24848	0.05256081	-0.02628041	0	0	0	0
17.26505	0.05256081	-0.02628041	0	0	0	0
17.28161	0.05256081	-0.02628041	0	0	0	0
17.29818	0.05256081	-0.02628041	0	0	0	0
17.31475	0.05256081	-0.02628041	0	0	0	0
17.33132	0.05256081	-0.02628041	0	0	0	0
17.34817	0.05256081	-0.02628041	0	0	0	0
17.36493	0.05256081	-0.02628041	0	0	0	0
17.38102	0.05256081	-0.02628041	0	0	0	0
17.39758	0.05256081	-0.02628041	0	0	0	0
17.41427	0.05256081	-0.02628041	0	0	0	0
17.43072	0.05256081	-0.02628041	0	0	0	0
17.44766	0.05256081	-0.02628041	0	0	0	0
17.46385	0.05256081	-0.02628041	0	0	0	0
17.48042	0.05256081	-0.02628041	0	0	0	0
17.49699	0.05256081	-0.02628041	0	0	0	0
17.51355	0.05256081	-0.02628041	0	0	0	0
17.53018	0.05256081	-0.02628041	0	0	0	0
17.54677	0.05256081	-0.02628041	0	0	0	0
17.56325	0.05256081	-0.02628041	0	0	0	0
17.57982	0.05256081	-0.02628041	0	0	0	0
17.59638	0.05256081	-0.02628041	0	0	0	0
17.61295	0.05256081	-0.02628041	0	0	0	0
17.62952	0.05256081	-0.02628041	0	0	0	0
17.64608	0.05256081	-0.02628041	0	0	0	0
17.66265	0.05256081	-0.02628041	0	0	0	0
17.67956	0.05256081	-0.02628041	0	0	0	0
17.69579	0.05256081	-0.02628041	0	0	0	0
17.71235	0.05256081	-0.02628041	0	0	0	0
17.72892	0.05256081	-0.02628041	0	0	0	0
17.74549	0.05256081	-0.02628041	0	0	0	0
17.76205	0.05256081	-0.02628041	0	0	0	0
17.77862	0.05256081	-0.02628041	0	0	0	0
17.79519	0.05256081	-0.02628041	0	0	0	0
17.81175	0.05256081	-0.02628041	0	0	0	0
17.82832	0.05256081	-0.02628041	0	0	0	0
17.84505	0.05256081	-0.02628041	0	0	0	0
17.86167	0.05256081	-0.02628041	0	0	0	0
17.87802	0.05256081	-0.02628041	0	0	0	0
17.89459	0.05256081	-0.02628041	0	0	0	0
17.91124	0.05256081	-0.02628041	0	0	0	0
17.92772	0.05256081	-0.02628041	0	0	0	0
17.94429	0.05256081	-0.02628041	0	0	0	0
17.96086	0.05256081	-0.02628041	0	0	0	0
17.97742	0.05256081	-0.02628041	0	0	0	0
17.99403	0.05256081	-0.02628041	0	0	0	0
18.01056	0.05256081	-0.02628041	0	0	0	0
18.02712	0.05256081	-0.02628041	0	0	0	0
18.04369	0.05256081	-0.02628041	0	0	0	0
18.06026	0.05256081	-0.02628041	0	0	0	0
18.07784	0.05256081	-0.02628041	0	0	0	0
18.09441	0.05256081	-0.02628041	0	0	0	0
18.11098	0.05256081	-0.02628041	0	0	0	0
18.12755	0.05256081	-0.02628041	0	0	0	0
18.14412	0.05256081	-0.02628041	0	0	0	0
18.16068	0.05256081	-0.02628041	0	0	0	0
18.17725	0.05256081	-0.02628041	0	0	0	0
18.19424	0.05256081	-0.02628041	0	0	0	0
18.21038	0.05256081	-0.02628041	0	0	0	0
18.22695	0.05256081	-0.02628041	0	0	0	0
18.24414	0.05256081	-0.02628041	0	0	0	0
18.26008	0.05256081	-0.02628041	0	0	0	0
18.27665	0.05256081	-0.02628041	0	0	0	0
18.29357	0.05256081	-0.02628041	0	0	0	0
18.30978	0.05256081	-0.02628041	0	0	0	0
18.32655	0.05256081	-0.02628041	0	0	0	0
18.34317	0.05256081	-0.02628041	0	0	0	0
18.35994	0.05256081	-0.02628041	0	0	0	0
18.37605	0.05256081	-0.02628041	0	0	0	0
18.39265	0.05256081	-0.02628041	0	0	0	0
18.40975	0.05256081	-0.02628041	0	0	0	0
18.42575	0.05256081	-0.02628041	0	0	0	0
18.44232	0.05256081	-0.02628041	0	0	0	0
18.45889	0.05256081	-0.02628041	0	0	0	0
18.47545	0.05256081	-0.02628041	0	0	0	0
18.49213	0.05256081	-0.02628041	0	0	0	0
18.50875	0.05256081	-0.02628041	0	0	0	0
18.52515	0.05256081	-0.02628041	0	0	0	0
18.54209	0.05256081	-0.02628041	0	0	0	0
18.55828	0.05256081	-0.02628041	0	0	0	0
18.57517	0.05256081	-0.02628041	0	0	0	0
18.59142	0.05256081	-0.02628041	0	0	0	0
18.60806	0.05256081	-0.02628041	0	0	0	0
18.62525	0.05256081	-0.02628041	0	0	0	0
18.64121	0.05256081	-0.02628041	0	0	0	0
18.65768	0.05256081	-0.02628041	0	0	0	0
18.67425	0.05256081	-0.02628041	0	0	0	0
18.6914	0.05256081	-0.02628041	0	0	0	0
18.70738	0.05256081	-0.02628041	0	0	0	0
18.72395	0.05256081	-0.02628041	0	0	0	0
18.7407	0.05256081	-0.02628041	0	0	0	0
18.75731	0.05256081	-0.02628041	0	0	0	0
18.77365	0.05256081	-0.02628041	0	0	0	0
18.79085	0.05256081	-0.02628041	0	0	0	0
18.80678	0.05256081	-0.02628041	0	0	0	0
18.82335	0.05256081	-0.02628041	0	0	0	0
18.83991	0.05256081	-0.02628041	0	0	0	0
18.857	0.05256081	-0.02628041	0	0	0	0
18.87305	0.05256081	-0.02628041	0	0	0	0
18.88962	0.05256081	-0.02628041	0	0	0	0
18.90657	0.05256081	-0.02628041	0	0	0	0
18.92275	0.05256081	-0.02628041	0	0	0	0
18.93931	0.05256081	-0.02628041	0	0	0	0
18.95588	0.05256081	-0.02628041	0	0	0	0
18.97245	0.05256081	-0.02628041	0	0	0	0
18.98901	0.05256081	-0.02628041	0	0	0	0
19.00597	0.05256081	-0.02628041	0	0	0	0
19.02215	0.05256081	-0.02628041	0	0	0	0
19.03871	0.05256081	-0.02628041	0	0	0	0
19.05528	0.05256081	-0.02628041	0	0	0	0
19.07185	0.05256081	-0.02628041	0	0	0	0
19.08842	0.05256081	-0.02628041	0	0	0	0
19.10498	0.05256081	-0.02628041	0	0	0	0
19.12223	0.05256081	-0.02628041	0	0	0	0
19.1388	0.05256081	-0.02628041	0	0	0	0
19.15537	0.05256081	-0.02628041	0	0	0	0
19.17194	0.05256081	-0.02628041	0	0	0	0
19.18902	0.05256081	-0.02628041	0	0	0	0
19.20521	0.05256081	-0.02628041	0	0	0	0
19.22164	0.05256081	-0.02628041	0	0	0	0
19.2382	0.05256081	-0.02628041	0	0	0	0
19.25477	0.05256081	-0.02628041	0	0	0	0
19.27134	0.05256081	-0.02628041	0	0	0	0
19.2879	0.05256081	-0.02628041	0	0	0	0
19.30447	0.05256081	-0.02628041	0	0	0	0
19.32137	0.05256081	-0.02628041	0	0	0	0
19.33803	0.05256081	-0.02628041	0	0	0	0
19.35417	0.05256081	-0.02628041	0	0	0	0
19.37074	0.05256081	-0.02628041	0	0	0	0
19.3873	0.05256081	-0.02628041	0	0	0	0
19.40428	0.05256081	-0.02628041	0	0	0	0
19.42074	0.05256081	-0.02628041	0	0	0	0
19.437	0.05256081	-0.02628041	0	0	0	0
19.45357	0.05256081	-0.02628041	0	0	0	0
19.47014	0.05256081	-0.02628041	0	0	0	0
19.4867	0.05256081	-0.02628041	0	0	0	0
19.54723	0.05256081	-0.02628041	0	0	0	0
19.5638	0.05256081	-0.02628041	0	0	0	0
19.58037	0.05256081	-0.02628041	0	0	0	0
19.59703	0.05256081	-0.02628041	0	0	0	0
19.6135	0.05256081	-0.02628041	0	0	0	0
19.63023	0.05256081	-0.02628041	0	0	0	0
19.64712	0.05256081	-0.02628041	0	0	0	0
19.66322	0.05256081	-0.02628041	0	0	0	0
19.67984	0.05256081	-0.02628041	0	0	0	0
19.69633	0.05256081	-0.02628041	0	0	0	0
19.7129	0.05256081	-0.02628041	0	0	0	0
19.72947	0.05256081	-0.02628041	0	0	0	0
19.74618	0.05256081	-0.02628041	0	0	0	0
19.7626	0.05256081	-0.02750275	0	-0.07444939	0	-2.246887
19.77917	0.05378316	-0.03850386	0.07378945	-0.6641045	2.237144	-17.87712
19.79573	0.05745019	-0.06417308	0.2213426	-1.549397	4.45342	-26.71973
19.8123	0.06233957	-0.09839874	0.2951231	-2.065865	2.2267	-15.58702
19.82887	0.06722894	-0.1411808	0.2951233	-2.58233	6.296051E-06	-15.58694
19.84543	0.07578536	-0.1925192	0.5164664	-3.098796	6.680148	-15.58699
19.8623	0.08434176	-0.2401907	0.5074109	-2.827006	-0.2708803	8.130085
19.87857	0.08923115	-0.2719716	0.3004859	-1.953156	-6.245008	26.37285
19.89514	0.09167584	-0.2903068	0.1475619	-1.106714	-4.656806	25.77564
19.9117	0.09412052	-0.308642	0.1475784	-1.10684	0.0004992157	-0.00379224
19.92827	0.09412052	-0.312309	0	-0.2213404	-4.454182	26.72598
19.94514	0.09656522	-0.3208655	0.1449257	-0.5072418	4.334443	-8.550754
19.9614	0.09656522	-0.3233101	0	-0.1503288	-4.374369	10.7729
19.97797	0.09656521	-0.3245324	-4.496662E-07	-0.07377223	-1.369631E-05	2.331823
19.99454	0.09656522	-0.3257548	4.497179E-07	-0.07378072	2.71419E-05	-0.0002563245
20.0111	0.09656522	-0.3257548	0	0	-1.357251E-05	2.226707
20.02767	0.09656522	-0.3257548	0	0	0	0
20.04658	0.09656522	-0.3257548	0	0	0	0
20.06315	0.09656522	-0.3257548	0	0	0	0
20.07972	0.09656522	-0.3257548	0	0	0	0
20.09708	0.09656522	-0.3257548	0	0	0	0
20.11365	0.09656522	-0.3257548	0	0	0	0
20.13021	0.09656522	-0.3257548	0	0	0	0
20.14678	0.09656522	-0.3257548	0	0	0	0
20.16339	0.09656522	-0.3257548	0	0	0	0
20.17991	0.09656522	-0.3257548	0	0	0	0
20.19648	0.09656522	-0.3257548	0	0	0	0
20.21467	0.09656522	-0.3257548	0	0	0	0
20.23124	0.09656522	-0.3233101	0	0.1475275	0	4.243999
20.24781	0.09534287	-0.3208655	-0.07379816	0.1475936	-2.227233	0.001996298
20.26437	0.09289818	-0.312309	-0.1475614	0.5164669	-2.226437	11.1339
20.28094	0.09167584	-0.3025302	-0.07378072	0.5902494	2.226707	2.226762
20.29751	0.0880088	-0.2890845	-0.2213176	0.8114945	-4.452415	6.676806
20.31407	0.08434176	-0.2707493	-0.2213936	1.106968	-0.002294143	8.917908
20.33065	0.07945239	-0.2487471	-0.2949875	1.327444	-2.220813	6.653214
20.34735	0.07334067	-0.2279672	-0.3659967	1.24439	-2.134093	-2.496081
20.36377	0.06722895	-0.2096321	-0.3720739	1.116222	-0.1834658	-3.869217
20.38034	0.06233957	-0.1912969	-0.2951236	1.106713	2.332302	-0.288227
20.39691	0.05867253	-0.1717394	-0.2213174	1.180358	2.227348	2.222504
20.41348	0.05622784	-0.1521819	-0.1475617	1.180494	2.225823	0.004101192
20.43011	0.05256081	-0.1362914	-0.2204035	0.9550819	-2.1937	-6.7885
20.44661	0.05133847	-0.1252903	-0.07410515	0.6669461	4.415548	-8.696457
20.46318	0.05133847	-0.1179562	0	0.4426848	2.241401	-6.783057
20.47974	0.05133847	-0.1155116	2.248849E-07	0.1475784	6.787429E-06	-8.90684
20.49631	0.05133847	-0.1130669	-2.248331E-07	0.1475449	-1.357251E-05	-0.001011865
20.51288	0.05133847	-0.1106222	0	0.1475789	6.785476E-06	0.001025807
20.52944	0.05133847	-0.1081775	2.24859E-07	0.1475614	6.786648E-06	-0.00052665
20.54602	0.05133847	-0.1069551	0	0.07373828	-6.784304E-06	-2.227347
20.56258	0.05133847	-0.1045105	-2.249885E-07	0.1476469	-6.790166E-06	2.230566
20.57914	0.05133847	-0.1045105	0	0	6.792512E-06	-4.457531
20.59572	0.05133847	-0.1032881	2.247555E-07	0.07374721	6.781962E-06	2.225311
20.61264	0.05133847	-0.1020658	0	0.07221764	-6.708984E-06	-0.0456578
20.62911	0.05133847	-0.1008434	-2.262656E-07	0.07424228	-6.77644E-06	0.06063591
20.64574	0.05133847	-0.09717639	0	0.2205302	6.837369E-06	4.420576
20.66198	0.05133847	-0.0947317	2.293477E-07	0.1505071	6.977153E-06	-2.130221
20.67855	0.05133847	-0.09106466	-2.24859E-07	0.2213431	-1.384345E-05	2.15896
20.69516	0.05133847	-0.08861998	2.242136E-07	0.147138	1.353356E-05	-2.236297
20.71176	0.05256081	-0.08739763	0.07362792	0.0736286	2.216602	-2.213039
20.72824	0.05256081	-0.08617529	2.2603E-07	0.07416496	-2.225547	0.01621257
20.74485	0.05256081	-0.08373059	-2.243682E-07	0.1472398	-1.361342E-05	2.208709
20.76138	0.05256081	-0.07761887	2.253519E-07	0.3697128	1.357258E-05	6.714248
20.77796	0.05256082	-0.07517419	2.246521E-07	0.1474257	-2.113508E-08	-6.71289
20.79503	0.05256082	-0.07517419	0	0	-6.676249E-06	-4.381221
20.81108	0.05256081	-0.07395184	-2.321004E-07	0.07615725	-7.008436E-06	2.299622
20.82764	0.05256081	-0.07395184	0	0	7.116226E-06	-2.33499
20.84421	0.05256081	-0.0727295	0	0.07378072	0	2.226835
20.86083	0.05256081	-0.07028481	-2.241364E-07	0.1470878	-6.753566E-06	2.20885
20.87734	0.05256081	-0.06784012	2.256122E-07	0.1480558	1.357422E-05	0.02921626
20.89391	0.05133847	-0.06417309	-0.07378095	0.2213426	-2.230443	2.2155
20.91089	0.05133847	-0.06295074	0	0.07199093	2.199367	-4.452086
20.92704	0.05133847	-0.0617284	0	0.0756712	0	0.1110771
20.94361	0.05133847	-0.0617284	0	0	0	-2.312649
20.96018	0.05133847	-0.0617284	0	0	0	0
20.97675	0.05133847	-0.0617284	0	0	0	0
20.99331	0.05133847	-0.0617284	0	0	0	0
21.00988	0.05133847	-0.0617284	0	0	0	0
21.02645	0.05133847	-0.0617284	0	0	0	0
21.04301	0.05133847	-0.0617284	0	0	0	0
21.05958	0.05133847	-0.0617284	0	0	0	0
21.07615	0.05133847	-0.0617284	0	0	0	0
21.09271	0.05133847	-0.0617284	0	0	0	0
21.10985	0.05133847	-0.0617284	0	0	0	0
21.12585	0.05133847	-0.0617284	0	0	0	0
21.14242	0.05133847	-0.0617284	0	0	0	0
21.15898	0.05133847	-0.0617284	0	0	0	0
21.17555	0.05133847	-0.0617284	0	0	0	0
21.19225	0.05133847	-0.0617284	0	0	0	0
21.20879	0.05133847	-0.0617284	0	0	0	0
21.22525	0.05133847	-0.0617284	0	0	0	0
21.24219	0.05133847	-0.0617284	0	0	0	0
21.25967	0.05133847	-0.0617284	0	0	0	0
21.27624	0.05133847	-0.0617284	0	0	0	0
21.29304	0.05133847	-0.0617284	0	0	0	0
21.30957	0.05133847	-0.0617284	0	0	0	0
21.32593	0.05133847	-0.0617284	0	0	0	0
21.3425	0.05133847	-0.0617284	0	0	0	0
21.35907	0.05133847	-0.0617284	0	0	0	0
21.37605	0.05133847	-0.0617284	0	0	0	0
21.3922	0.05133847	-0.0617284	0	0	0	0
21.40877	0.05133847	-0.0617284	0	0	0	0
21.42533	0.05133847	-0.0617284	0	0	0	0
21.4419	0.05133847	-0.0617284	0	0	0	0
21.45911	0.05133847	-0.0617284	0	0	0	0
21.47511	0.05133847	-0.0617284	0	0	0	0
21.49213	0.05133847	-0.0617284	0	0	0	0
21.50817	0.05133847	-0.0617284	0	0	0	0
21.52474	0.05133847	-0.0617284	0	0	0	0
21.54165	0.05133847	-0.0617284	0	0	0	0
21.55787	0.05133847	-0.0617284	0	0	0	0
21.57444	0.05133847	-0.0617284	0	0	0	0
21.59101	0.05133847	-0.0617284	0	0	0	0
21.60757	0.05133847	-0.0617284	0	0	0	0
21.62423	0.05133847	-0.0617284	0	0	0	0
21.64075	0.05133847	-0.0617284	0	0	0	0
21.65727	0.05133847	-0.0617284	0	0	0	0
21.67427	0.05133847	-0.0617284	0	0	0	0
21.6904	0.05133847	-0.0617284	0	0	0	0
21.70697	0.05133847	-0.0617284	0	0	0	0
21.72354	0.05133847	-0.0617284	0	0	0	0
21.74082	0.05133847	-0.0617284	0	0	0	0
21.75667	0.05133847	-0.0617284	0	0	0	0
21.77333	0.05133847	-0.0617284	0	0	0	0
21.79033	0.05133847	-0.0617284	0	0	0	0
21.80637	0.05133847	-0.0617284	0	0	0	0
21.82335	0.05133847	-0.0617284	0	0	0	0
21.8395	0.05133847	-0.0617284	0	0	0	0
21.85607	0.05133847	-0.0617284	0	0	0	0
21.87264	0.05133847	-0.05928371	2.24859E-07	0.1475614	6.786257E-06	4.453413
21.88921	0.05133847	-0.05928371	0	0	-6.786257E-06	-4.453413
21.90577	0.05133847	-0.05683902	0	0.1475787	0	4.45419
21.92296	0.05011613	-0.05561668	-0.07109622	0.07109622	-2.106045	-2.265599
21.93891	0.05011612	-0.05317198	-2.336833E-07	0.1533528	2.145681	2.482508
21.95547	0.04889378	-0.05072729	-0.07379772	0.1475959	-2.27034	-0.1771084
21.97204	0.04889378	-0.04828261	2.248331E-07	0.1475445	2.227355	-0.001552066
21.9886	0.04767144	-0.04706027	-0.07378945	0.07378922	-2.226977	-2.225938
22.00517	0.04767144	-0.04706027	0	0	2.227098	-2.227091
22.02174	0.04767144	-0.04706027	0	0	0	0
22.03831	0.04767144	-0.04706027	0	0	0	0
22.05505	0.04767144	-0.04706027	0	0	0	0
22.07144	0.04767143	-0.04583792	-2.272132E-07	0.07455366	-6.856914E-06	2.249904
22.08853	0.04767143	-0.04583792	0	0	6.786212E-06	-2.226706
22.1051	0.04767144	-0.04461557	2.248072E-07	0.07376374	6.679345E-06	2.191627
22.12167	0.04767144	-0.04461557	0	0	-6.783914E-06	-2.225938
22.1386	0.04767144	-0.04461557	0	0	0	0
22.1548	0.04767144	-0.04461557	0	0	0	0
22.17163	0.04767143	-0.04339323	-2.213674E-07	0.07263531	-6.702876E-06	2.199354
22.18793	0.04767143	-0.04339323	0	0	6.681267E-06	-2.192264
22.2045	0.04767143	-0.04339323	0	0	0	0
22.22107	0.04767143	-0.04339323	0	0	0	0
22.23763	0.04767143	-0.04339323	0	0	0	0
22.25704	0.04767143	-0.04339323	0	0	0	0
22.27372	0.04767143	-0.04339323	0	0	0	0
22.29416	0.04767143	-0.04339323	0	0	0	0
22.31073	0.04767143	-0.04339323	0	0	0	0
22.32729	0.04767143	-0.04339323	0	0	0	0
22.34386	0.04767143	-0.04339323	0	0	0	0
22.36045	0.04767143	-0.04339323	0	0	0	0
22.37699	0.04767143	-0.04339323	0	0	0	0
22.39356	0.04767143	-0.04339323	0	0	0	0
22.41013	0.04767143	-0.04339323	0	0	0	0
22.42912	0.04767143	-0.04339323	0	0	0	0
22.44569	0.04767143	-0.04339323	0	0	0	0
22.46226	0.04767143	-0.04339323	0	0	0	0
22.48049	0.04767143	-0.04339323	0	0	0	0
22.49706	0.04767143	-0.04339323	0	0	0	0
22.51363	0.04767143	-0.04339323	0	0	0	0
22.53056	0.04767143	-0.04339323	0	0	0	0
22.54676	0.04767143	-0.04339323	0	0	0	0
22.5636	0.04767143	-0.04339323	0	0	0	0
22.58011	0.04767143	-0.04339323	0	0	0	0
22.59662	0.04767143	-0.04339323	0	0	0	0
22.61312	0.04767143	-0.04339323	0	0	0	0
22.6296	0.04767143	-0.04339323	0	0	0	0
22.64616	0.04767143	-0.04339323	0	0	0	0
22.66273	0.04767143	-0.04339323	0	0	0	0
22.6793	0.04767143	-0.04339323	0	0	0	0
22.69587	0.04767143	-0.04339323	0	0	0	0
22.71243	0.04767143	-0.04339323	0	0	0	0
22.729	0.04767143	-0.04339323	0	0	0	0
22.74572	0.04767143	-0.04339323	0	0	0	0
22.76224	0.04767143	-0.04339323	0	0	0	0
22.7787	0.04767143	-0.04339323	0	0	0	0
22.79527	0.04767143	-0.04339323	0	0	0	0
22.81183	0.04767143	-0.04339323	0	0	0	0
22.8284	0.04767143	-0.04339323	0	0	0	0
22.84497	0.04767143	-0.04339323	0	0	0	0
22.86183	0.04767143	-0.04339323	0	0	0	0
22.8781	0.04767143	-0.04339323	0	0	0	0
22.89483	0.04767143	-0.04339323	0	0	0	0
22.91123	0.04767143	-0.04339323	0	0	0	0
22.92784	0.04767143	-0.04339323	0	0	0	0
22.94436	0.04767143	-0.04339323	0	0	0	0
22.96093	0.04767143	-0.04339323	0	0	0	0
22.9775	0.04767143	-0.04339323	0	0	0	0
22.99406	0.04767143	-0.04339323	0	0	0	0
23.01063	0.04767143	-0.04339323	0	0	0	0
23.0272	0.04767143	-0.04339323	0	0	0	0
23.04376	0.04767143	-0.04339323	0	0	0	0
23.06045	0.04767143	-0.04339323	0	0	0	0
23.0769	0.04767143	-0.04339323	0	0	0	0
23.09346	0.04767143	-0.04339323	0	0	0	0
23.11003	0.04767143	-0.04339323	0	0	0	0
23.1266	0.04767143	-0.04339323	0	0	0	0
23.14317	0.04767143	-0.04339323	0	0	0	0
23.15973	0.04767143	-0.04339323	0	0	0	0
23.1763	0.04767143	-0.04339323	0	0	0	0
23.19287	0.04767143	-0.04339323	0	0	0	0
23.20997	0.04767143	-0.04339323	0	0	0	0
23.226	0.04767143	-0.04339323	0	0	0	0
23.24257	0.04767143	-0.04339323	0	0	0	0
23.25913	0.04767143	-0.04339323	0	0	0	0
23.2757	0.04767143	-0.04339323	0	0	0	0
23.29227	0.04767143	-0.04339323	0	0	0	0
23.30883	0.04767143	-0.04339323	0	0	0	0
23.3254	0.04767143	-0.04339323	0	0	0	0
23.34197	0.04767143	-0.04339323	0	0	0	0
23.35853	0.04767143	-0.04339323	0	0	0	0
23.3751	0.04767143	-0.04339323	0	0	0	0
23.39167	0.04767143	-0.04339323	0	0	0	0
23.40823	0.04767143	-0.04339323	0	0	0	0
23.4248	0.04767143	-0.04339323	0	0	0	0
23.44137	0.04767143	-0.04339323	0	0	0	0
23.45811	0.04767143	-0.04339323	0	0	0	0
23.4745	0.04767143	-0.04339323	0	0	0	0
23.49107	0.04767143	-0.04339323	0	0	0	0
23.50763	0.04767143	-0.04339323	0	0	0	0
23.52474	0.04767143	-0.04339323	0	0	0	0
23.54077	0.04767143	-0.04339323	0	0	0	0
23.55733	0.04767143	-0.04339323	0	0	0	0
23.5739	0.04767143	-0.04339323	0	0	0	0
23.59047	0.04767143	-0.04339323	0	0	0	0
23.60731	0.04767143	-0.04339323	0	0	0	0
23.6236	0.04767143	-0.04339323	0	0	0	0
23.64017	0.04767143	-0.04339323	0	0	0	0
23.65697	0.04767143	-0.04339323	0	0	0	0
23.6733	0.04767143	-0.04339323	0	0	0	0
23.68987	0.04767144	-0.04461557	2.248331E-07	-0.07377245	6.834258E-06	-2.242464
23.70643	0.04767143	-0.04583792	-2.249107E-07	-0.07379772	-1.357408E-05	-0.0007625407
23.723	0.04767143	-0.04583792	0	0	6.788601E-06	2.227476
23.73976	0.04767143	-0.04583792	0	0	0	0
23.75613	0.04767143	-0.04583792	0	0	0	0
23.7727	0.04767143	-0.04583792	0	0	0	0
23.78927	0.04767143	-0.04583792	0	0	0	0
23.80583	0.04767143	-0.04583792	0	0	0	0
23.8224	0.04767143	-0.04583792	0	0	0	0
23.83897	0.04767143	-0.04583792	0	0	0	0
23.85553	0.04767143	-0.04583792	0	0	0	0
23.8721	0.04767143	-0.04583792	0	0	0	0
23.88867	0.04767143	-0.04583792	0	0	0	0
23.90523	0.04767143	-0.04583792	0	0	0	0
23.9218	0.04767143	-0.04583792	0	0	0	0
23.93854	0.04767143	-0.04583792	0	0	0	0
23.95493	0.04767143	-0.04583792	0	0	0	0
23.9715	0.04767143	-0.04583792	0	0	0	0
23.98809	0.04767143	-0.04583792	0	0	0	0
24.00463	0.04767143	-0.04583792	0	0	0	0
24.0212	0.04767143	-0.04583792	0	0	0	0
24.03789	0.04767144	-0.04706027	2.232398E-07	-0.07324989	6.713045E-06	-2.202698
24.05433	0.04767144	-0.04706027	0	0	-6.73739E-06	2.210686
24.0709	0.04767144	-0.04706027	0	0	0	0
24.08747	0.04767144	-0.04706027	0	0	0	0
24.10403	0.04767144	-0.04706027	0	0	0	0
24.12094	0.04767144	-0.04706027	0	0	0	0
24.13717	0.04767144	-0.04706027	0	0	0	0
24.15373	0.04767144	-0.04706027	0	0	0	0
24.1703	0.04767144	-0.04706027	0	0	0	0
24.18687	0.04767144	-0.04706027	0	0	0	0
24.20377	0.04767144	-0.04706027	0	0	0	0
24.22	0.04767144	-0.04706027	0	0	0	0
24.23657	0.04767144	-0.04706027	0	0	0	0
24.25314	0.04767144	-0.04706027	0	0	0	0
24.2697	0.04767144	-0.04706027	0	0	0	0
24.28627	0.04767144	-0.04706027	0	0	0	0
24.30284	0.04767144	-0.04706027	0	0	0	0
24.3194	0.05989488	-0.04583792	0.7378933	0.07378967	22.27095	2.227105
24.33597	0.08434176	-0.04094854	1.475617	0.2951233	22.26582	6.680248
24.35254	0.1234568	-0.03483682	2.360988	0.3689041	26.72056	2.226707
24.3691	0.1711282	-0.03361447	2.877784	0.07378967	15.59784	-8.907083
24.38576	0.2249114	-0.03361447	3.229255	0	10.58001	-2.221223
24.40237	0.2652488	-0.03361448	2.428061	-2.242394E-07	-24.08305	-6.740398E-06
24.42006	0.298252	-0.03239213	1.865576	0.06909556	-16.39723	2.014239
24.43696	0.3312553	-0.02994744	1.952741	0.1446475	2.519809	2.184108
24.4532	0.3410341	-0.0287251	0.602384	0.07529777	-40.75384	-2.09298
24.46976	0.3495905	-0.02872509	0.5164651	2.24859E-07	-2.619427	-2.29561
24.48633	0.3557023	-0.0287251	0.3689054	-2.24859E-07	-4.453359	-1.357251E-05
24.5029	0.3605916	-0.02872509	0.2951229	2.24859E-07	-2.226761	1.357251E-05
24.51946	0.3630363	-0.0287251	0.1475784	-2.248849E-07	-4.453157	-1.357408E-05
24.53673	0.3630363	-0.0287251	0	0	-4.361533	6.646248E-06
24.55277	0.3630363	-0.0287251	0	0	0	0
24.56939	0.3630363	-0.0287251	0	0	0	0
24.58573	0.3630363	-0.0287251	0	0	0	0
24.6066	0.3630363	-0.0287251	0	0	0	0
24.62321	0.3630363	-0.0287251	0	0	0	0
24.63974	0.3630363	-0.0287251	0	0	0	0
24.6563	0.3630363	-0.0287251	0	0	0	0
24.67287	0.3630363	-0.0287251	0	0	0	0
24.69205	0.3630363	-0.0287251	0	0	0	0
24.70862	0.3630363	-0.0287251	0	0	0	0
24.72518	0.3630363	-0.0287251	0	0	0	0
24.74175	0.3630363	-0.0287251	0	0	0	0
24.75832	0.3630363	-0.0287251	0	0	0	0
24.77488	0.3630363	-0.0287251	0	0	0	0
24.79145	0.3630363	-0.0287251	0	0	0	0
24.80802	0.3630363	-0.0287251	0	0	0	0
24.82458	0.3569246	-0.02872509	-0.3689036	2.24859E-07	-11.13353	6.786257E-06
24.84115	0.3398118	-0.0287251	-1.033051	-1.124424E-07	-20.04516	-1.018036E-05
24.85772	0.3104755	-0.0287251	-1.770741	0	-22.26481	3.393715E-06
24.87428	0.2628041	-0.02750275	-2.877454	0.07378083	-33.40065	2.22671
24.89085	0.1772399	-0.02261337	-5.16466	0.2951235	-69.02804	6.680134
24.90747	0.1344579	-0.017724	-2.574032	0.2941751	78.05949	-0.02857669
24.92398	0.106344	-0.01527931	-1.702644	0.1480561	26.30007	-4.410132
24.99078	0.09534287	-0.01527931	-0.1647033	0	18.46148	-1.77727
25.00737	0.09289818	-0.01527931	-0.1473579	5.613719E-08	0.2080203	6.732404E-07
25.02392	0.09289818	-0.01527931	0	0	4.446757	-1.694029E-06
25.04088	0.09289818	-0.01527931	0	0	0	0
25.05707	0.09289818	-0.01527931	0	0	0	0
25.07361	0.09167583	-0.01527931	-0.07386622	0	-2.256828	0
25.09019	0.09167583	-0.01527931	0	0	2.230314	0
25.10675	0.09167583	-0.01527931	0	0	0	0
25.12332	0.09167583	-0.01527931	0	0	0	0
25.13988	0.09045348	-0.01527931	-0.07378967	-5.622121E-08	-2.227105	-1.696857E-06
25.15645	0.0880088	-0.01405696	-0.1475105	0.07375542	-2.224643	2.225688
25.17302	0.08189708	-0.01405696	-0.3689466	-5.622121E-08	-6.682184	-2.225688
25.18958	0.07334066	-0.01161227	-0.5166448	0.1476128	-4.45857	4.45599
25.20645	0.06600661	-0.01038993	-0.4347265	0.07245448	2.450296	-2.248094
25.22272	0.05989488	-0.01038993	-0.3757834	0	1.778909	-2.186681
25.23928	0.0550055	-0.01038993	-0.2951236	5.621474E-08	2.456803	1.712236E-06
25.25595	0.05256082	-0.01038993	-0.1467001	0	4.466318	-1.691598E-06
25.27241	0.05133847	-0.01038993	-0.07423414	0	2.187279	0
25.28898	0.05011613	-0.01038993	-0.07377223	0	0.01398221	0
25.3057	0.05011613	-0.01038993	0	0	2.216244	0
25.32211	0.05011613	-0.01038993	0	0	0	0
25.33868	0.05011613	-0.01038993	0	0	0	0
25.35525	0.04889378	-0.01038993	-0.07379794	0	-2.227483	0
25.37181	0.04889378	-0.01038993	0	0	2.227483	0
25.38838	0.04644909	-0.01038993	-0.1475617	-5.621474E-08	-4.45342	-1.696564E-06
25.40495	0.04278206	-0.01038993	-0.2213681	0	-2.227611	1.696662E-06
25.42151	0.03789268	-0.01161227	-0.2951236	-0.07378078	-2.226073	-2.226837
25.43822	0.03789268	-0.01161227	0	0	8.868051	2.217009
25.45465	0.03789268	-0.01161227	0	0	0	0
25.47121	0.03789268	-0.01161227	0	0	0	0
25.48778	0.03789268	-0.01161227	0	0	0	0
25.50525	0.03789268	-0.01161227	0	0	0	0
25.52182	0.03789268	-0.01161227	0	0	0	0
25.53848	0.03789268	-0.01161227	0	0	0	0
25.55495	0.03789268	-0.01161227	0	0	0	0
25.57152	0.03789268	-0.01161227	0	0	0	0
25.58809	0.03789268	-0.01161227	0	0	0	0
25.60503	0.03789268	-0.01161227	0	0	0	0
25.62122	0.03789268	-0.01161227	0	0	0	0
25.63863	0.03789268	-0.01161227	0	0	0	0
25.65435	0.03789268	-0.01161227	0	0	0	0
25.67092	0.03789268	-0.01161227	0	0	0	0
25.68748	0.03789268	-0.01161227	0	0	0	0
25.70423	0.03789268	-0.01161227	0	0	0	0
25.72062	0.03789268	-0.01161227	0	0	0	0
25.73719	0.03789268	-0.01161227	0	0	0	0
25.75424	0.03789268	-0.01161227	0	0	0	0
25.77032	0.03789268	-0.01161227	0	0	0	0
25.78689	0.03789268	-0.01161227	0	0	0	0
25.80346	0.03789268	-0.01161227	0	0	0	0
25.82002	0.03789268	-0.01161227	0	0	0	0
25.8374	0.03789268	-0.01161227	0	0	0	0
25.85316	0.03789268	-0.01161227	0	0	0	0
25.86972	0.03789268	-0.01161227	0	0	0	0
25.88629	0.03789268	-0.01161227	0	0	0	0
25.90286	0.03789268	-0.01161227	0	0	0	0
25.91942	0.03789268	-0.01161227	0	0	0	0
25.93614	0.03789268	-0.01161227	0	0	0	0
25.95272	0.03789268	-0.01161227	0	0	0	0
25.96912	0.03789268	-0.01161227	0	0	0	0
25.98569	0.03789268	-0.01161227	0	0	0	0
26.00226	0.03789268	-0.01161227	0	0	0	0
26.01883	0.03789268	-0.01161227	0	0	0	0
26.03539	0.03789268	-0.01161227	0	0	0	0
26.05263	0.03789268	-0.01161227	0	0	0	0
26.06853	0.03789268	-0.01161227	0	0	0	0
26.08509	0.03789268	-0.01161227	0	0	0	0
26.10166	0.03789268	-0.01161227	0	0	0	0
26.11823	0.03789268	-0.01161227	0	0	0	0
26.13479	0.03789268	-0.01161227	0	0	0	0
26.15136	0.03789268	-0.01161227	0	0	0	0
26.16793	0.03789268	-0.01161227	0	0	0	0
26.18449	0.03789268	-0.01161227	0	0	0	0
26.20149	0.03789268	-0.01161227	0	0	0	0
26.21763	0.03789268	-0.01161227	0	0	0	0
26.23422	0.03789268	-0.01161227	0	0	0	0
26.25076	0.03789268	-0.01161227	0	0	0	0
26.26733	0.03789268	-0.01161227	0	0	0	0
26.2839	0.03789268	-0.01161227	0	0	0	0
26.30065	0.03789268	-0.01161227	0	0	0	0
26.31715	0.03789268	-0.01161227	0	0	0	0
26.33368	0.03789268	-0.01161227	0	0	0	0
26.35016	0.03789268	-0.01161227	0	0	0	0
26.36673	0.03789268	-0.01161227	0	0	0	0
26.38384	0.03789268	-0.01161227	0	0	0	0
26.39986	0.03789268	-0.01161227	0	0	0	0
26.41655	0.03789268	-0.01161227	0	0	0	0
26.43299	0.03789268	-0.01161227	0	0	0	0
26.44956	0.03789268	-0.01161227	0	0	0	0
26.46613	0.03789268	-0.01161227	0	0	0	0
26.48269	0.03789268	-0.01161227	0	0	0	0
26.49947	0.03789268	-0.01161227	0	0	0	0
26.51584	0.03789268	-0.01161227	0	0	0	0
26.53239	0.03789268	-0.01161227	0	0	0	0
26.54896	0.03789268	-0.01161227	0	0	0	0
26.56757	0.03789268	-0.01161227	0	0	0	0
26.58424	0.03789268	-0.01161227	0	0	0	0
26.6012	0.03789268	-0.01161227	0	0	0	0
26.61727	0.03789268	-0.01161227	0	0	0	0
26.63384	0.03789268	-0.01161227	0	0	0	0
26.65041	0.03789268	-0.01161227	0	0	0	0
26.66709	0.03789268	-0.01161227	0	0	0	0
26.68354	0.03789268	-0.01161227	0	0	0	0
26.70011	0.03789268	-0.01161227	0	0	0	0
26.71667	0.03789268	-0.01161227	0	0	0	0
26.73324	0.03789268	-0.01161227	0	0	0	0
26.74981	0.03789268	-0.01161227	0	0	0	0
26.76637	0.03789268	-0.01161227	0	0	0	0
26.78508	0.03789268	-0.01161227	0	0	0	0
26.80165	0.03789268	-0.01161227	0	0	0	0
26.81822	0.03789268	-0.01161227	0	0	0	0
26.83524	0.03789268	-0.01161227	0	0	0	0
26.85135	0.03789268	-0.01161227	0	0	0	0
26.86792	0.03789268	-0.01161227	0	0	0	0
26.88459	0.03789268	-0.01161227	0	0	0	0
26.90105	0.03789268	-0.01161227	0	0	0	0
26.91762	0.03789268	-0.01161227	0	0	0	0
26.93772	0.03789268	-0.01161227	0	0	0	0
26.95428	0.03789268	-0.01161227	0	0	0	0
26.97085	0.03789268	-0.01161227	0	0	0	0
26.99077	0.03789268	-0.01283462	0	-0.06137338	0	-1.682299
27.01023	0.03789268	-0.01283462	0	0	0	1.5583
27.0268	0.03789268	-0.01283462	0	0	0	0
27.04337	0.03789268	-0.01283462	0	0	0	0
27.05993	0.03789268	-0.01283462	0	0	0	0
27.0765	0.03789268	-0.01283462	0	0	0	0
27.09307	0.03789268	-0.01283462	0	0	0	0
27.10964	0.03789268	-0.01283462	0	0	0	0
27.12621	0.03789268	-0.01283462	0	0	0	0
27.14277	0.03789268	-0.01283462	0	0	0	0
27.15996	0.03789268	-0.01283462	0	0	0	0
27.1759	0.03789268	-0.01283462	0	0	0	0
27.19247	0.03789268	-0.01283462	0	0	0	0
27.20904	0.03789268	-0.01283462	0	0	0	0
27.22561	0.03789268	-0.01283462	0	0	0	0
27.24217	0.03789268	-0.01283462	0	0	0	0
27.25909	0.03789268	-0.01283462	0	0	0	0
27.27531	0.03789268	-0.01283462	0	0	0	0
27.29187	0.03789268	-0.01283462	0	0	0	0
27.30844	0.03789268	-0.01283462	0	0	0	0
27.325	0.03789268	-0.01283462	0	0	0	0
27.34157	0.03789268	-0.01283462	0	0	0	0
27.35818	0.03789268	-0.01283462	0	0	0	0
27.3747	0.03789268	-0.01283462	0	0	0	0
27.39127	0.03789268	-0.01283462	0	0	0	0
27.40784	0.03789268	-0.01283462	0	0	0	0
27.42519	0.03789268	-0.01283462	0	0	0	0
27.44097	0.03789268	-0.01283462	0	0	0	0
27.45754	0.03789268	-0.01283462	0	0	0	0
27.47411	0.03789268	-0.01283462	0	0	0	0
27.49067	0.03789268	-0.01283462	0	0	0	0
27.50724	0.03789268	-0.01283462	0	0	0	0
27.52381	0.03789268	-0.01283462	0	0	0	0
27.5407	0.03789268	-0.01283462	0	0	0	0
27.55725	0.03789268	-0.01283462	0	0	0	0
27.57351	0.03789268	-0.01283462	0	0	0	0
27.59007	0.03789268	-0.01283462	0	0	0	0
27.60817	0.03789268	-0.01283462	0	0	0	0
27.62473	0.03789268	-0.01283462	0	0	0	0
27.6413	0.03789268	-0.01283462	0	0	0	0
27.65787	0.03789268	-0.01283462	0	0	0	0
27.67443	0.03789268	-0.01283462	0	0	0	0
27.691	0.03789268	-0.01283462	0	0	0	0
27.70798	0.03789268	-0.01283462	0	0	0	0
27.72413	0.03789268	-0.01283462	0	0	0	0
27.7407	0.03789268	-0.01283462	0	0	0	0
27.75727	0.03789268	-0.01283462	0	0	0	0
27.77422	0.03789268	-0.01283462	0	0	0	0
27.7904	0.03789268	-0.01283462	0	0	0	0
27.80696	0.03789268	-0.01283462	0	0	0	0
27.82353	0.03789268	-0.01283462	0	0	0	0
27.8401	0.03789268	-0.01283462	0	0	0	0
27.85666	0.03789268	-0.01283462	0	0	0	0
27.87323	0.03789268	-0.01283462	0	0	0	0
27.8898	0.03789268	-0.01283462	0	0	0	0
27.90655	0.03789268	-0.01283462	0	0	0	0
27.92317	0.03789268	-0.01283462	0	0	0	0
27.9395	0.03789268	-0.01283462	0	0	0	0
27.95606	0.03789268	-0.01283462	0	0	0	0
27.97263	0.03789268	-0.01283462	0	0	0	0
27.9892	0.03789268	-0.01283462	0	0	0	0
28.00577	0.03789268	-0.01283462	0	0	0	0
28.02234	0.03789268	-0.01283462	0	0	0	0
28.0389	0.03789268	-0.01283462	0	0	0	0
28.05547	0.03789268	-0.01283462	0	0	0	0
28.07204	0.03789268	-0.01283462	0	0	0	0
28.08878	0.03789268	-0.01283462	0	0	0	0
28.10524	0.03789268	-0.01283462	0	0	0	0
28.12177	0.03789268	-0.01283462	0	0	0	0
28.1383	0.03789268	-0.01283462	0	0	0	0
28.15487	0.03789268	-0.01283462	0	0	0	0
28.17143	0.03789268	-0.01283462	0	0	0	0
28.188	0.03789268	-0.01283462	0	0	0	0
28.20524	0.03789268	-0.01283462	0	0	0	0
28.22113	0.03789268	-0.01283462	0	0	0	0
28.2377	0.03789268	-0.01283462	0	0	0	0
28.25431	0.03789268	-0.01283462	0	0	0	0
28.27084	0.03789268	-0.01283462	0	0	0	0
28.28741	0.03789268	-0.01283462	0	0	0	0
28.30422	0.03789268	-0.01283462	0	0	0	0
28.32054	0.03789268	-0.01283462	0	0	0	0
28.33729	0.03789268	-0.01283462	0	0	0	0
28.35367	0.03789268	-0.01283462	0	0	0	0
28.37052	0.03789268	-0.01283462	0	0	0	0
28.38682	0.03789268	-0.01283462	0	0	0	0
28.40337	0.03789268	-0.01283462	0	0	0	0
28.41994	0.03789268	-0.01283462	0	0	0	0
28.43666	0.03789268	-0.01283462	0	0	0	0
28.45307	0.03789268	-0.01283462	0	0	0	0
28.46964	0.03789268	-0.01283462	0	0	0	0
28.48621	0.03789268	-0.01283462	0	0	0	0
28.50277	0.03911502	-0.01283462	0.07378095	0	2.226713	0
28.51979	0.04155971	-0.01283462	0.1436907	0	2.081837	0
28.53591	0.0440044	-0.01405696	0.1516652	-0.07583255	0.2406863	-2.288763
28.5528	0.04522675	-0.01405696	0.07234809	0	-2.402508	2.296961
28.56904	0.04522675	-0.01527931	0	-0.07528905	-2.183721	-2.27249
28.5856	0.04889378	-0.01527931	0.2213424	5.621474E-08	6.747713	2.295219
28.60217	0.06722895	-0.01283462	1.106713	0.1475617	26.72055	4.453418
28.61874	0.1051216	-0.006722895	2.287207	0.3689043	35.62737	6.680133
28.63531	0.149126	-0.0006111722	2.65611	0.3689043	11.13352	1.798872E-06
28.65338	0.1870187	0.00550055	2.096747	0.338185	-16.14819	-0.8868334
28.66996	0.216355	0.006722895	1.768705	0.07369602	-9.46501	-7.631302
28.68651	0.220022	0.006722895	0.2215973	0	-46.6918	-2.22415
28.70309	0.220022	0.006722895	0	0	-6.69013	0
28.71988	0.220022	0.006722895	0	0	0	0
28.73627	0.220022	0.006722895	0	0	0	0
28.75278	0.220022	0.006722895	0	0	0	0
28.76948	0.220022	0.00550055	0	-0.07319102	0	-2.203582
28.78591	0.2212444	0.001833517	0.07438879	-0.2231668	2.245187	-4.526537
28.80248	0.223689	-0.004278206	0.1475614	-0.3689043	2.217418	-4.416418
28.81905	0.2285784	-0.01283462	0.2951247	-0.5164661	4.453468	-4.453424
28.83561	0.2371348	-0.02139103	0.5164651	-0.5164661	6.680065	0
28.85218	0.25547	-0.02994744	1.106714	-0.516466	17.81373	3.597743E-06
28.86875	0.2750275	-0.03605916	1.180493	-0.3689043	2.226679	4.45342
28.88548	0.290918	-0.03972619	0.9494231	-0.2190975	-6.938169	4.498135
28.90188	0.2958074	-0.04094854	0.2981781	-0.07454477	-19.65461	4.362608
28.91845	0.298252	-0.04094854	0.1475784	0	-4.568778	2.261482
28.93501	0.298252	-0.04094854	0	0	-4.454182	0
28.95158	0.298252	-0.04094854	0	0	0	0
28.96815	0.298252	-0.04094854	0	0	0	0
28.98472	0.298252	-0.04094854	0	0	0	0
29.00726	0.298252	-0.04094854	0	0	0	0
29.02383	0.298252	-0.04094854	0	0	0	0
29.0404	0.298252	-0.04094854	0	0	0	0
29.05696	0.298252	-0.04094854	0	0	0	0
29.07353	0.298252	-0.04094854	0	0	0	0
29.09431	0.298252	-0.04094854	0	0	0	0
29.11088	0.298252	-0.04094854	0	0	0	0
29.12745	0.298252	-0.04094854	0	0	0	0
29.14417	0.298252	-0.04094854	0	0	0	0
29.16118	0.298252	-0.04094854	0	0	0	0
29.17716	0.298252	-0.04094854	0	0	0	0
29.19371	0.298252	-0.04094854	0	0	0	0
29.21039	0.298252	-0.04094854	0	0	0	0
29.22685	0.298252	-0.04094854	0	0	0	0
29.24341	0.2970297	-0.04094854	-0.07378072	0	-2.234166	0
29.25998	0.2921404	-0.03972619	-0.2951211	0.07378095	-6.680066	2.226713
29.27685	0.2860286	-0.03972619	-0.3622347	0	-2.007007	-2.206392
29.29311	0.2786946	-0.03728151	-0.4510429	0.1503482	-2.680391	4.53778
29.30968	0.2713605	-0.03605916	-0.442688	0.07378118	0.2545111	-2.332415
29.32625	0.2652488	-0.03483682	-0.3689018	0.07378072	2.22687	-1.37164E-05
29.34311	0.2542476	-0.03239213	-0.6523884	0.1449746	-8.47998	2.129635
29.35968	0.2432466	-0.03116979	-0.6639501	0.07377234	-0.345827	-2.129764
29.37595	0.2298008	-0.02994744	-0.8264315	0.07513028	-4.947846	0.04135175
29.39252	0.2175773	-0.02750275	-0.7378949	0.1475787	2.696409	2.206437
29.40908	0.2053539	-0.02750275	-0.7378082	1.124295E-07	0.002617509	-4.454186
29.42565	0.1931304	-0.02750275	-0.7377232	-1.124165E-07	0.002563245	-6.785476E-06
29.44222	0.180907	-0.02750275	-0.7378091	0	-0.002590226	3.392543E-06
29.45923	0.1723506	-0.02750275	-0.5030866	1.095169E-07	6.990976	3.261854E-06
29.47535	0.1686835	-0.02750275	-0.2273904	-1.155012E-07	8.320528	-6.79106E-06
29.49192	0.1662388	-0.02750275	-0.1475784	0	2.441334	3.533015E-06
29.50848	0.1650165	-0.02750275	-0.07378832	-1.124424E-07	2.227246	-3.39391E-06
29.52507	0.1625718	-0.0262804	-0.1473588	0.07367927	-2.218956	2.222241
29.54162	0.1589048	-0.02505806	-0.2216484	0.0738828	-2.242065	0.006142472
29.55819	0.1540154	-0.02261337	-0.2951229	0.1475617	-2.218997	2.22517
29.57475	0.149126	-0.02016868	-0.2951247	0.1475618	-5.486559E-05	3.597743E-06
29.59132	0.1466813	-0.02016869	-0.1475445	-1.124165E-07	4.453724	-4.453171
29.60789	0.1466813	-0.02016869	0	0	4.453157	3.392933E-06
29.62445	0.1466813	-0.02016869	0	0	0	0
29.6411	0.1466813	-0.02016869	0	0	0	0
29.65759	0.1466813	-0.02016869	0	0	0	0
29.67415	0.145459	-0.02016868	-0.07378072	1.124295E-07	-2.232232	3.401548E-06
29.69073	0.145459	-0.02016868	0	0	2.226194	-3.392347E-06
29.70914	0.1442367	-0.02016868	-0.0663759	0	-1.89698	0
29.72571	0.1442367	-0.02016868	0	0	1.897393	0
29.74228	0.1430143	-0.02016868	-0.07378162	0	-2.226734	0
29.75885	0.1430143	-0.02016868	0	0	2.226734	0
29.77541	0.1430143	-0.02016868	0	0	0	0
29.79198	0.1381249	-0.02016868	-0.2951229	1.124295E-07	-8.907339	3.393324E-06
29.80889	0.1356802	-0.02139103	-0.1445339	-0.07226673	4.497665	-2.158405
29.8252	0.1271238	-0.02383572	-0.5248644	-0.1499616	-11.45006	-2.339046
29.84168	0.1210121	-0.02505806	-0.3707828	-0.07415649	4.6997	2.312159
29.85824	0.1173451	-0.0262804	-0.2213681	-0.07378922	4.521055	0.01111299
29.87481	0.1161227	-0.0262804	-0.07378118	0	4.454439	2.227091
29.89138	0.1161227	-0.0262804	0	0	2.22672	0
29.90794	0.1161227	-0.0262804	0	0	0	0
29.92468	0.1161227	-0.0262804	0	0	0	0
29.94108	0.1161227	-0.0262804	0	0	0	0
29.95764	0.1161227	-0.0262804	0	0	0	0
29.97422	0.1149004	-0.0262804	-0.0737298	0	-2.224401	0
29.99078	0.1149004	-0.0262804	0	0	2.22517	0
30.00734	0.1124557	-0.0262804	-0.1475789	0	-4.455735	0
30.02397	0.1087887	-0.02505806	-0.2205049	0.07350159	-2.196864	2.214204
30.04048	0.1026769	-0.02261337	-0.3703538	0.1481415	-4.522708	2.252768
30.05704	0.09778755	-0.02016868	-0.2951238	0.1475617	2.274897	-0.01753509
30.07361	0.09534287	-0.02016868	-0.1475445	1.124165E-07	4.453697	-4.45316
30.09028	0.09412052	-0.01894634	-0.07335005	0.07335005	2.232509	2.207099
30.10687	0.08923115	-0.017724	-0.2947162	0.07367904	-6.656703	0.00989322
30.1234	0.08189708	-0.01527931	-0.4435534	0.1478512	-4.493208	2.239163
30.13991	0.07456301	-0.01405696	-0.4441682	0.0740281	-0.01860463	-2.233899
30.15644	0.06845129	-0.01283462	-0.3697554	0.07395106	2.252133	-0.002331844
30.17301	0.0660066	-0.01161227	-0.1475619	0.07378089	6.713544	-0.005141473
30.18969	0.0660066	-0.01161227	0	0	4.438353	-2.219175
30.20614	0.0660066	-0.01161227	0	0	0	0
30.22271	0.0660066	-0.01161227	0	0	0	0
30.23927	0.0660066	-0.01161227	0	0	0	0
30.25584	0.0660066	-0.01161227	0	0	0	0
30.27241	0.0660066	-0.01161227	0	0	0	0
30.28897	0.0660066	-0.01161227	0	0	0	0
30.30571	0.0660066	-0.01161227	0	0	0	0
30.32211	0.0660066	-0.01161227	0	0	0	0
30.33867	0.0660066	-0.01161227	0	0	0	0
30.35524	0.0660066	-0.01161227	0	0	0	0
30.37181	0.0660066	-0.01161227	0	0	0	0
30.38838	0.0660066	-0.01161227	0	0	0	0
30.46487	0.0660066	-0.01161227	0	0	0	0
30.4824	0.06478426	-0.01161227	-0.06976479	-5.315494E-08	-0.7420292	-5.653642E-07
30.49897	0.06478426	-0.01161227	0	0	2.046371	1.559164E-06
30.51555	0.06478426	-0.01161227	0	0	0	0
30.5321	0.06478426	-0.01161227	0	0	0	0
30.54867	0.06478426	-0.01161227	0	0	0	0
30.56523	0.06478426	-0.01161227	0	0	0	0
30.5818	0.06478426	-0.01161227	0	0	0	0
30.59836	0.06478426	-0.01161227	0	0	0	0
30.61493	0.06478426	-0.01161227	0	0	0	0
30.63154	0.06478426	-0.01161227	0	0	0	0
30.6482	0.06478426	-0.01161227	0	0	0	0
30.66476	0.06478426	-0.01161227	0	0	0	0
30.6812	0.06478426	-0.01161227	0	0	0	0
30.69776	0.06478426	-0.01161227	0	0	0	0
30.71433	0.06478426	-0.01161227	0	0	0	0
30.7309	0.06478426	-0.01161227	0	0	0	0
30.74747	0.06478426	-0.01161227	0	0	0	0
30.76403	0.06478426	-0.01161227	0	0	0	0
30.7806	0.06478426	-0.01161227	0	0	0	0
30.79717	0.06478426	-0.01161227	0	0	0	0
30.81553	0.06478426	-0.01161227	0	0	0	0
30.8321	0.06478426	-0.01161227	0	0	0	0
30.84866	0.06478426	-0.01161227	0	0	0	0
30.86525	0.06478426	-0.01161227	0	0	0	0
30.8818	0.06478426	-0.01161227	0	0	0	0
30.89837	0.06478426	-0.01161227	0	0	0	0
30.91493	0.06356191	-0.01161227	-0.07378118	5.621474E-08	-2.22672	1.696564E-06
30.9315	0.06356191	-0.01161227	0	0	2.22672	-1.696564E-06
30.94807	0.06233956	-0.01038993	-0.07378095	0.07378083	-2.226713	2.22671
30.96463	0.06111723	-0.01038993	-0.07378028	0	2.023731E-05	-2.22671
30.9812	0.05989488	-0.01038993	-0.07377245	-5.620827E-08	0.0002360883	-1.696271E-06
30.99794	0.05867254	-0.01038993	-0.07301599	0	0.02270989	1.687433E-06
31.01445	0.05867254	-0.01038993	0	0	2.195916	0
31.0309	0.05867254	-0.01038993	0	0	0	0
31.04747	0.05867254	-0.01038993	0	0	0	0
31.06403	0.05867254	-0.01038993	0	0	0	0
31.08102	0.05867254	-0.01038993	0	0	0	0
31.09752	0.05867254	-0.01038993	0	0	0	0
31.11405	0.05867254	-0.01038993	0	0	0	0
31.13056	0.05867254	-0.01038993	0	0	0	0
31.14706	0.05867254	-0.01038993	0	0	0	0
31.16684	0.05867254	-0.01038993	0	0	0	0
31.18435	0.05867254	-0.01038993	0	0	0	0
31.20091	0.05867254	-0.01038993	0	0	0	0
31.2176	0.05867254	-0.01038993	0	0	0	0
31.23413	0.05867254	-0.01038993	0	0	0	0
31.25062	0.05867254	-0.01038993	0	0	0	0
31.26719	0.05867254	-0.01038993	0	0	0	0
31.28375	0.05867254	-0.01038993	0	0	0	0
31.30031	0.05867254	-0.01038993	0	0	0	0
31.31688	0.05867254	-0.01038993	0	0	0	0
31.33345	0.05867254	-0.01038993	0	0	0	0
31.35001	0.05867254	-0.01038993	0	0	0	0
31.36658	0.05867254	-0.01038993	0	0	0	0
31.38816	0.05867254	-0.01038993	0	0	0	0
31.40524	0.05867254	-0.01038993	0	0	0	0
31.4213	0.05867254	-0.01038993	0	0	0	0
31.43786	0.05867254	-0.01038993	0	0	0	0
31.45884	0.05867254	-0.01038993	0	0	0	0
31.4754	0.05867254	-0.01038993	0	0	0	0
31.49197	0.05867254	-0.01038993	0	0	0	0
31.50854	0.05867254	-0.01038993	0	0	0	0
31.52511	0.05867254	-0.01038993	0	0	0	0
31.54167	0.05867254	-0.01038993	0	0	0	0
31.55824	0.05867254	-0.01038993	0	0	0	0
31.57481	0.05867254	-0.01038993	0	0	0	0
31.59138	0.05867254	-0.01038993	0	0	0	0
31.60794	0.05867254	-0.01038993	0	0	0	0
31.62451	0.05867254	-0.01038993	0	0	0	0
31.64259	0.05867254	-0.01038993	0	0	0	0
31.65916	0.05867254	-0.01038993	0	0	0	0
31.67596	0.05867254	-0.01038993	0	0	0	0
31.69229	0.05867254	-0.01038993	0	0	0	0
31.70886	0.05867254	-0.01038993	0	0	0	0
31.72584	0.05867254	-0.01038993	0	0	0	0
31.74199	0.05867254	-0.01038993	0	0	0	0
31.75856	0.05867254	-0.01038993	0	0	0	0
31.77512	0.05867254	-0.01038993	0	0	0	0
31.79169	0.05867254	-0.01038993	0	0	0	0
31.80826	0.05867254	-0.01038993	0	0	0	0
31.82482	0.05867254	-0.01038993	0	0	0	0
31.8414	0.05867254	-0.01038993	0	0	0	0
31.86084	0.05867254	-0.01038993	0	0	0	0
31.8777	0.05867254	-0.01038993	0	0	0	0
31.89421	0.05867254	-0.01038993	0	0	0	0
31.91139	0.05867254	-0.01038993	0	0	0	0
31.92711	0.05867254	-0.01038993	0	0	0	0
31.94368	0.05867254	-0.01038993	0	0	0	0
31.96024	0.05867254	-0.01038993	0	0	0	0
31.97695	0.05867254	-0.01038993	0	0	0	0
31.99338	0.05867254	-0.01038993	0	0	0	0
32.01006	0.05867254	-0.01038993	0	0	0	0
32.02651	0.05867254	-0.01038993	0	0	0	0
32.04308	0.05867254	-0.01038993	0	0	0	0
32.0598	0.05867254	-0.01038993	0	0	0	0
32.07621	0.05867254	-0.01038993	0	0	0	0
32.09277	0.05867254	-0.01038993	0	0	0	0
32.10934	0.05867254	-0.01038993	0	0	0	0
32.12591	0.05867254	-0.01038993	0	0	0	0
32.14248	0.05867254	-0.01038993	0	0	0	0
32.15904	0.05867254	-0.01038993	0	0	0	0
32.17562	0.05867254	-0.01038993	0	0	0	0
32.19218	0.05867254	-0.01038993	0	0	0	0
32.20874	0.05867254	-0.01038993	0	0	0	0
32.22531	0.05867254	-0.01038993	0	0	0	0
32.24188	0.05867254	-0.01038993	0	0	0	0
32.25845	0.05867254	-0.01038993	0	0	0	0
32.27528	0.05867254	-0.01038993	0	0	0	0
32.29158	0.05867254	-0.01038993	0	0	0	0
32.30815	0.05867254	-0.01038993	0	0	0	0
32.32471	0.05867254	-0.01038993	0	0	0	0
32.34128	0.05867254	-0.01038993	0	0	0	0
32.35785	0.05867254	-0.01038993	0	0	0	0
32.37441	0.05867254	-0.01038993	0	0	0	0
32.39136	0.05867254	-0.01038993	0	0	0	0
32.40787	0.05867254	-0.01038993	0	0	0	0
32.42411	0.05867254	-0.01038993	0	0	0	0
32.44068	0.05867254	-0.01038993	0	0	0	0
32.45725	0.05867254	-0.01038993	0	0	0	0
32.47381	0.05867254	-0.01038993	0	0	0	0
32.49038	0.05867254	-0.01038993	0	0	0	0
32.50695	0.05867254	-0.01038993	0	0	0	0
32.52351	0.05867254	-0.01038993	0	0	0	0
32.5405	0.05867254	-0.01038993	0	0	0	0
32.55665	0.05867254	-0.01038993	0	0	0	0
32.57322	0.05867254	-0.01038993	0	0	0	0
32.59001	0.05867254	-0.01038993	0	0	0	0
32.60635	0.05867254	-0.01038993	0	0	0	0
32.62304	0.05867254	-0.01038993	0	0	0	0
32.63954	0.05867254	-0.01038993	0	0	0	0
32.65605	0.05867254	-0.01038993	0	0	0	0
32.67261	0.05867254	-0.01038993	0	0	0	0
32.68918	0.05867254	-0.01038993	0	0	0	0
32.70574	0.05867254	-0.01038993	0	0	0	0
32.72231	0.05867254	-0.01038993	0	0	0	0
32.73888	0.05867254	-0.01038993	0	0	0	0
32.75544	0.05867254	-0.01038993	0	0	0	0
32.77201	0.05867254	-0.01038993	0	0	0	0
32.78862	0.05867254	-0.01038993	0	0	0	0
32.80514	0.05867254	-0.01161227	0	-0.07400235	0	-2.233652
32.82171	0.05867254	-0.01161227	0	0	0	2.236743
32.83828	0.05867254	-0.01161227	0	0	0	0
32.85484	0.05867254	-0.01161227	0	0	0	0
32.87141	0.05867254	-0.01161227	0	0	0	0
32.88844	0.05867254	-0.01161227	0	0	0	0
32.90501	0.05867254	-0.01283462	0	-0.07376385	0	-2.195113
32.92518	0.05867254	-0.01283462	0	0	0	2.00797
32.94175	0.05867254	-0.01283462	0	0	0	0
32.95831	0.05867254	-0.01283462	0	0	0	0
32.97488	0.05867254	-0.01283462	0	0	0	0
32.99145	0.05867254	-0.01283462	0	0	0	0
33.00807	0.05867254	-0.01283462	0	0	0	0
33.02458	0.04522675	-0.007945239	-0.8142142	0.2960779	-24.57303	8.935648
33.04163	0.001222344	0.009167584	-2.580646	1.003585	-52.62638	21.07838
33.05771	-0.0550055	0.03483682	-3.496985	1.59645	-27.65835	17.89476
33.07428	-0.1185674	0.06539543	-3.836604	1.844522	-10.40302	7.5988
33.09175	-0.1699059	0.08984232	-2.939086	1.399564	26.37065	-13.07362
33.1078	-0.1992422	0.1045105	-1.827115	0.9135576	33.16983	-14.49747
33.12398	-0.2139103	0.1142892	-0.9066635	0.6044427	28.55514	-9.589662
33.14055	-0.2212444	0.1216233	-0.4426861	0.4426852	14.16926	-4.939857
33.15712	-0.2371348	0.1350691	-0.9591503	0.8115898	-15.58692	11.13356
33.17368	-0.251803	0.1472925	-0.8853696	0.7378073	2.226707	-2.22676
33.19085	-0.2628041	0.1558489	-0.6410035	0.4985587	7.244865	-7.093144
33.20682	-0.2701381	0.159516	-0.4591798	0.2295899	5.487451	-8.117495
33.22338	-0.2750275	0.1619606	-0.2951229	0.1475606	5.041798	-2.520927
33.23995	-0.2774722	0.1644053	-0.1475632	0.1475632	4.453359	8.139895E-05
33.25652	-0.2811392	0.1656277	-0.2213404	0.07377983	-2.226598	-2.226788
33.27309	-0.2835839	0.16685	-0.1475632	0.07378162	2.226598	5.419101E-05
33.28965	-0.2848063	0.1680724	-0.07377893	0.07377983	2.226815	-5.419101E-05
33.30622	-0.2848063	0.1680724	0	0	2.226652	-2.22668
33.32279	-0.2860286	0.1680724	-0.07378072	8.994359E-07	-2.226707	2.714503E-05
33.33936	-0.287251	0.1692947	-0.07378253	0.07378072	-5.441587E-05	2.226679
33.35592	-0.2872509	0.1717394	1.798872E-06	0.1475614	2.226815	2.226707
33.37249	-0.2884733	0.1741841	-0.07378072	0.1475614	-2.226761	0
33.38906	-0.2884733	0.1778511	-1.798872E-06	0.2213431	2.226652	2.226734
33.40564	-0.2884733	0.1778511	0	0	5.426507E-05	-6.677072
33.43086	-0.2884733	0.1778511	0	0	0	0
33.44743	-0.2884733	0.1778511	0	0	0	0
33.464	-0.2884733	0.1778511	0	0	0	0
33.48076	-0.2884733	0.1778511	0	0	0	0
33.50435	-0.2884733	0.1778511	0	0	0	0
33.52092	-0.2884733	0.1778511	0	0	0	0
33.53748	-0.2884733	0.1778511	0	0	0	0
33.55405	-0.2884733	0.1778511	0	0	0	0
33.57077	-0.2884733	0.1778511	0	0	0	0
33.58791	-0.2884733	0.1778511	0	0	0	0
33.60375	-0.2884733	0.1778511	0	0	0	0
33.62043	-0.2884733	0.1778511	0	0	0	0
33.63689	-0.2884733	0.1778511	0	0	0	0
33.65345	-0.2884733	0.1778511	0	0	0	0
33.67046	-0.287251	0.1778511	0.07184522	0	2.139717	0
33.68698	-0.2811392	0.1729618	0.370013	-0.2960089	8.892252	-8.827869
33.70316	-0.2701381	0.163183	0.6801574	-0.6045862	9.486871	-9.438935
33.71972	-0.2579147	0.1534042	0.7379808	-0.5903835	1.766262	0.4338313
33.73628	-0.2371348	0.1387361	1.254562	-0.8855726	15.59405	-8.910876
33.75285	-0.2298008	0.1326244	0.4426852	-0.3689054	-24.50531	15.59484
33.76942	-0.2004645	0.1130669	1.770741	-1.180493	40.0808	-24.49377
33.78598	-0.1784623	0.09839873	1.328055	-0.8853705	-13.3603	8.906826
33.80255	-0.1540154	0.08495294	1.475617	-0.8115898	4.453442	2.226707
33.81912	-0.1320132	0.07395185	1.328056	-0.664027	-4.453413	4.453454
33.83569	-0.1161227	0.06417309	0.9591508	-0.5902472	-11.13357	2.226679
33.85225	-0.1026769	0.05439433	0.8115898	-0.5902469	-4.4534	7.195487E-06
33.86882	-0.09289818	0.04706026	0.5902467	-0.4426852	-6.680148	4.45342
33.88541	-0.08556411	0.04094854	0.4420745	-0.3683954	-4.468758	2.240525
33.90269	-0.07945239	0.03728151	0.353598	-0.2121587	-2.611891	4.612219
33.91874	-0.07578536	0.03361447	0.2284975	-0.228498	-3.753071	-0.4901861
33.93509	-0.06967364	0.02994744	0.3738979	-0.2243385	4.488439	0.1284007
33.95166	-0.06600661	0.02750275	0.2213422	-0.1475616	-4.63509	2.33271
33.97303	-0.06111723	0.02383572	0.2287563	-0.1715673	0.1954127	-0.6327124
33.9896	-0.05256081	0.01650165	0.5164662	-0.4426851	7.583091	-7.145779
34.00616	-0.04767144	0.01283462	0.2951233	-0.2213425	-6.680141	6.680133
34.02273	-0.04278206	0.007945239	0.2951236	-0.2951235	7.195487E-06	-2.226715
34.0393	-0.03544799	0.004278206	0.4426852	-0.2213425	4.45342	2.226715
34.05587	-0.02933627	-0.0006111723	0.3689042	-0.2951235	-2.226717	-2.226713
34.07243	-0.0220022	-0.006722894	0.4426851	-0.3689043	2.226714	-2.22671
34.089	-0.009778756	-0.01405696	0.7378086	-0.4426851	8.906845	-2.22671
34.10557	-0.007334067	-0.01650165	0.1475617	-0.1475618	-17.81369	8.906838
34.12214	-0.001222344	-0.02016868	0.3689043	-0.2213425	6.680133	-2.226705
34.1387	0.006111722	-0.02383572	0.4426851	-0.2213425	2.22671	0
34.15527	0.009778756	-0.02628041	0.2213426	-0.1475618	-6.680131	2.226707
34.17188	0.01344579	-0.0287251	0.220834	-0.1472227	-0.01533077	0.01022246
34.1884	0.01589048	-0.02994744	0.1479364	-0.07396819	-2.200308	2.21108
34.20497	0.01833517	-0.03239213	0.1475619	-0.1475618	-0.01131754	-2.223876
34.22153	0.02077986	-0.03361448	0.1475616	-0.07378095	-9.893794E-06	2.22671
34.23842	0.02322454	-0.03605916	0.1447618	-0.1447615	-0.08368862	-2.12168
34.25467	0.02444689	-0.03850385	0.07525368	-0.1505076	-2.098	-0.1734361
34.27147	0.02566923	-0.03972619	0.07274249	-0.07274227	-0.07598903	2.353194
34.2878	0.02566924	-0.04094854	1.140844E-07	-0.07486698	-2.195622	-0.06413131
34.30436	0.02566924	-0.04094854	0	0	-3.46823E-06	2.275998
34.32093	0.02566924	-0.04094854	0	0	0	0
34.3375	0.02566924	-0.04094854	0	0	0	0
34.35406	0.02566924	-0.04094854	0	0	0	0
34.37063	0.02566924	-0.04094854	0	0	0	0
34.3872	0.02566924	-0.04094854	0	0	0	0
34.40379	0.02566924	-0.04094854	0	0	0	0
34.42033	0.02566924	-0.04094854	0	0	0	0
34.4369	0.02566924	-0.04094854	0	0	0	0
34.45347	0.02566924	-0.04094854	0	0	0	0
34.47015	0.02566924	-0.04094854	0	0	0	0
34.48669	0.02566924	-0.04094854	0	0	0	0
34.50317	0.02566924	-0.04094854	0	0	0	0
34.51974	0.02566924	-0.04094854	0	0	0	0
34.53631	0.02566924	-0.04094854	0	0	0	0
34.55288	0.02566924	-0.04094854	0	0	0	0
34.56944	0.02566924	-0.04094854	0	0	0	0
34.58601	0.02566924	-0.04094854	0	0	0	0
34.6026	0.02566924	-0.04094854	0	0	0	0
34.61914	0.02566924	-0.04094854	0	0	0	0
34.63571	0.02566924	-0.04094854	0	0	0	0
34.65228	0.02566924	-0.04094854	0	0	0	0
34.66884	0.02566924	-0.04094854	0	0	0	0
34.68541	0.02566924	-0.04094854	0	0	0	0
34.70198	0.02566924	-0.04094854	0	0	0	0
34.71854	0.02566924	-0.04094854	0	0	0	0
34.73511	0.02566924	-0.04094854	0	0	0	0
34.75168	0.02566924	-0.04094854	0	0	0	0
34.76825	0.02566924	-0.04094854	0	0	0	0
34.78481	0.02566924	-0.04094854	0	0	0	0
34.80138	0.02566924	-0.04094854	0	0	0	0
34.8183	0.02566924	-0.04094854	0	0	0	0
34.83451	0.02566924	-0.04094854	0	0	0	0
34.85193	0.02566924	-0.04094854	0	0	0	0
34.86765	0.02566924	-0.04094854	0	0	0	0
34.88421	0.02566924	-0.04094854	0	0	0	0
34.90144	0.02566924	-0.04094854	0	0	0	0
34.91747	0.02566924	-0.04094854	0	0	0	0
34.93427	0.02566924	-0.04094854	0	0	0	0
34.9506	0.02566924	-0.04094854	0	0	0	0
34.96704	0.02566924	-0.04094854	0	0	0	0
34.98361	0.02566924	-0.04094854	0	0	0	0
35.00069	0.02566924	-0.04094854	0	0	0	0
35.01675	0.02566924	-0.04094854	0	0	0	0
35.03769	0.02566924	-0.04094854	0	0	0	0
35.05426	0.02566924	-0.04094854	0	0	0	0
35.07083	0.02566924	-0.04094854	0	0	0	0
35.08739	0.02566924	-0.04094854	0	0	0	0
35.10432	0.02566924	-0.04094854	0	0	0	0
35.12053	0.02566924	-0.04094854	0	0	0	0
35.13709	0.02566924	-0.04094854	0	0	0	0
35.15366	0.02566924	-0.04094854	0	0	0	0
35.17023	0.02566924	-0.04094854	0	0	0	0
35.18679	0.02566924	-0.04094854	0	0	0	0
35.20336	0.02689158	-0.04094854	0.07378072	2.24859E-07	2.226707	6.786257E-06
35.22002	0.02689158	-0.04217089	0	-0.0733925	-2.220826	-2.209147
35.2365	0.02811392	-0.04217088	0.07417376	2.260561E-07	2.238569	2.214997
35.25306	0.02811392	-0.04217088	0	0	-2.244512	-6.840501E-06
35.26963	0.02811392	-0.04217088	0	0	0	0
35.2862	0.02811392	-0.04217088	0	0	0	0
35.30276	0.02811392	-0.04217088	0	0	0	0
35.31933	0.02811392	-0.04217088	0	0	0	0
35.33589	0.02811392	-0.04217088	0	0	0	0
35.35246	0.02811392	-0.04217088	0	0	0	0
35.36903	0.02811392	-0.04217088	0	0	0	0
35.38559	0.02811392	-0.04217088	0	0	0	0
35.40222	0.02811392	-0.04217088	0	0	0	0
35.41872	0.02811392	-0.04217088	0	0	0	0
35.43567	0.02811392	-0.04217088	0	0	0	0
35.45189	0.02811392	-0.04217088	0	0	0	0
35.46842	0.02811392	-0.04217088	0	0	0	0
35.48499	0.02811392	-0.04217088	0	0	0	0
35.50156	0.02811392	-0.04217088	0	0	0	0
35.51812	0.02811392	-0.04217088	0	0	0	0
35.53469	0.02811392	-0.04217088	0	0	0	0
35.55126	0.02811392	-0.04217088	0	0	0	0
35.57104	0.02811392	-0.04217088	0	0	0	0
35.58761	0.02811392	-0.04217088	0	0	0	0
35.60426	0.02811392	-0.04217088	0	0	0	0
35.62074	0.02811392	-0.04217088	0	0	0	0
35.63743	0.02811392	-0.04217088	0	0	0	0
35.66085	0.02811392	-0.04217088	0	0	0	0
35.67742	0.02811392	-0.04217088	0	0	0	0
35.69399	0.02811392	-0.04217088	0	0	0	0
35.71056	0.02811392	-0.04217088	0	0	0	0
35.72712	0.02811392	-0.04217088	0	0	0	0
35.7498	0.02811392	-0.04217088	0	0	0	0
35.76637	0.02811392	-0.04217088	0	0	0	0
35.78294	0.02811392	-0.04217088	0	0	0	0
35.79985	0.02811392	-0.04217088	0	0	0	0
35.81607	0.02811392	-0.04217088	0	0	0	0
35.83264	0.02811392	-0.04217088	0	0	0	0
35.92432	0.02811392	-0.04217088	0	0	0	0
35.94351	0.02811392	-0.04217088	0	0	0	0
35.96008	0.02811392	-0.04217088	0	0	0	0
35.97665	0.02811392	-0.04217088	0	0	0	0
35.99321	0.02811392	-0.04217088	0	0	0	0
36.00978	0.02811392	-0.04217088	0	0	0	0
36.02703	0.02811392	-0.04217088	0	0	0	0
36.04292	0.02811392	-0.04217088	0	0	0	0
36.05949	0.02811392	-0.04217088	0	0	0	0
36.07614	0.02811392	-0.04217088	0	0	0	0
36.09262	0.02811392	-0.04217088	0	0	0	0
36.10918	0.02811392	-0.04217088	0	0	0	0
36.12575	0.02811392	-0.04217088	0	0	0	0
36.14231	0.02811392	-0.04217088	0	0	0	0
36.16322	0.02811392	-0.04217088	0	0	0	0
36.18052	0.02811392	-0.04217088	0	0	0	0
36.19635	0.02811392	-0.04217088	0	0	0	0
36.21292	0.02811392	-0.04217088	0	0	0	0
36.22949	0.02811392	-0.04217088	0	0	0	0
36.24606	0.02811392	-0.04217088	0	0	0	0
36.26262	0.02811392	-0.04217088	0	0	0	0
36.27919	0.02811392	-0.04217088	0	0	0	0
36.29575	0.02811392	-0.04217088	0	0	0	0
36.31269	0.02811392	-0.04217088	0	0	0	0
36.32889	0.02811392	-0.04217088	0	0	0	0
36.34546	0.02811392	-0.04217088	0	0	0	0
36.36202	0.02811392	-0.04217088	0	0	0	0
36.37892	0.02811392	-0.04217088	0	0	0	0
36.39543	0.02811392	-0.04217088	0	0	0	0
36.41199	0.02811392	-0.04217088	0	0	0	0
36.42856	0.02811392	-0.04217088	0	0	0	0
36.44513	0.02811392	-0.04217088	0	0	0	0
36.4617	0.02811392	-0.04217088	0	0	0	0
36.47826	0.02811392	-0.04217088	0	0	0	0
36.4952	0.02811392	-0.04217088	0	0	0	0
36.51144	0.02811392	-0.04217088	0	0	0	0
36.52796	0.02811392	-0.04217088	0	0	0	0
36.54453	0.02811392	-0.04217088	0	0	0	0
36.5611	0.02811392	-0.04217088	0	0	0	0
36.57766	0.02811392	-0.04217088	0	0	0	0
36.59423	0.02811392	-0.04217088	0	0	0	0
36.6108	0.02811392	-0.04217088	0	0	0	0
36.62737	0.02811392	-0.04217088	0	0	0	0
36.64393	0.02811392	-0.04217088	0	0	0	0
36.6605	0.02811392	-0.04217088	0	0	0	0
36.67707	0.02811392	-0.04217088	0	0	0	0
36.69363	0.02811392	-0.04217088	0	0	0	0
36.71021	0.02811392	-0.04217088	0	0	0	0
36.72677	0.02811392	-0.04217088	0	0	0	0
36.74334	0.02811392	-0.04217088	0	0	0	0
36.76009	0.02811392	-0.04217088	0	0	0	0
36.77666	0.02811392	-0.04217088	0	0	0	0
36.79333	0.02811392	-0.04217088	0	0	0	0
36.80982	0.02811392	-0.04217088	0	0	0	0
36.82645	0.02811392	-0.04217088	0	0	0	0
36.84274	0.02811392	-0.04217088	0	0	0	0
36.8593	0.02811392	-0.04217088	0	0	0	0
36.87587	0.02811392	-0.04217088	0	0	0	0
36.89249	0.02811392	-0.04217088	0	0	0	0
36.909	0.02811392	-0.04217088	0	0	0	0
36.92556	0.02811392	-0.04217088	0	0	0	0
36.94213	0.02811392	-0.04217088	0	0	0	0
36.9587	0.02811392	-0.04217088	0	0	0	0
36.97527	0.02811392	-0.04217088	0	0	0	0
36.99183	0.02811392	-0.04217088	0	0	0	0
37.0084	0.02811392	-0.04217088	0	0	0	0
37.02528	0.02811392	-0.04217088	0	0	0	0
37.04153	0.02811392	-0.04217088	0	0	0	0
37.05828	0.02811392	-0.04217088	0	0	0	0
37.07466	0.02811392	-0.04217088	0	0	0	0
37.09123	0.02811392	-0.04217088	0	0	0	0
37.1078	0.02811392	-0.04217088	0	0	0	0
37.12436	0.02811392	-0.04217088	0	0	0	0
37.14174	0.02811392	-0.04217088	0	0	0	0
37.1575	0.02811392	-0.04217088	0	0	0	0
37.17406	0.02811392	-0.04217088	0	0	0	0
37.19063	0.02811392	-0.04217088	0	0	0	0
37.20982	0.02811392	-0.04217088	0	0	0	0
37.22638	0.02811392	-0.04217088	0	0	0	0
37.24295	0.02811392	-0.04217088	0	0	0	0
37.25952	0.02811392	-0.04217088	0	0	0	0
37.27612	0.02811392	-0.04217088	0	0	0	0
37.29265	0.02811392	-0.04217088	0	0	0	0
37.30922	0.02811392	-0.04217088	0	0	0	0
37.32579	0.02811392	-0.04217088	0	0	0	0
37.34235	0.02811392	-0.04217088	0	0	0	0
37.35892	0.02811392	-0.04217088	0	0	0	0
37.37549	0.02811392	-0.04217088	0	0	0	0
37.39226	0.02933627	-0.04094854	0.0728913	0.07289119	2.186522	2.186519
37.40876	0.03178095	-0.03728151	0.1481757	0.2222638	2.262969	4.489983
37.42527	0.03911502	-0.0287251	0.4442195	0.5182558	8.968694	8.967125
37.44187	0.05256081	-0.01527931	0.809911	0.8099113	11.04422	8.808263
37.45832	0.07211833	0.0006111722	1.188705	0.9658227	11.45974	4.716821
37.47493	0.1173451	0.02016868	2.72362	1.177782	46.43074	6.411702
37.492	0.1442367	0.03116979	1.574596	0.644153	-34.11209	-15.84231
37.50802	0.1747953	0.04094854	1.907777	0.6104885	10.067	-1.017167
37.52459	0.1992422	0.04706026	1.475618	0.3689043	-13.26244	-7.413938
37.54116	0.2175773	0.05317198	1.106712	0.3689043	-11.13362	0
37.55772	0.2285784	0.05683902	0.6640274	0.2213426	-13.36024	-4.45342
37.57429	0.2383572	0.0617284	0.5902476	0.2951236	-2.226679	2.226714
37.59086	0.251803	0.06661777	0.8115889	0.2951231	6.680094	-1.349154E-05
37.60753	0.2664711	0.07395185	0.879902	0.4399506	2.055305	4.357356
37.62405	0.2811392	0.08006356	0.8876169	0.3698404	0.2324071	-2.11204
37.64056	0.2994744	0.08617529	1.110807	0.3702686	6.756889	0.01296519
37.65712	0.3165872	0.09228701	1.03317	0.3689895	-2.347683	-0.03867949
37.67369	0.3288107	0.09717639	0.7378073	0.2951233	-8.915087	-2.229542
37.69094	0.3385894	0.1020658	0.5670085	0.2835034	-5.051204	-0.3436486
37.70683	0.3483682	0.1057328	0.6154712	0.2308022	1.462607	-1.590526
37.72339	0.3605916	0.1106222	0.7378091	0.2951238	3.76941	1.981844
37.73996	0.361814	0.1118445	0.07378072	0.07378072	-20.04041	-6.680147
37.75653	0.3630363	0.1118445	0.07378072	4.497179E-07	0	-2.226693
37.78364	0.3630363	0.1118445	0	0	-1.689186	-1.029614E-05
37.80021	0.3630363	0.1118445	0	0	0	0
37.81677	0.3630363	0.1118445	0	0	0	0
37.83334	0.3630363	0.1118445	0	0	0	0
37.84991	0.3630363	0.1118445	0	0	0	0
37.87535	0.3630363	0.1118445	0	0	0	0
37.89191	0.3630363	0.1118445	0	0	0	0
37.90858	0.3630363	0.1118445	0	0	0	0
37.92505	0.3630363	0.1118445	0	0	0	0
37.94162	0.3630363	0.1118445	0	0	0	0
37.95828	0.3630363	0.1118445	0	0	0	0
37.97475	0.3630363	0.1118445	0	0	0	0
37.99131	0.3630363	0.1118445	0	0	0	0
38.00788	0.361814	0.1118445	-0.07378072	-4.497179E-07	-2.226707	-1.357251E-05
38.02478	0.3581469	0.1118445	-0.2170443	-4.409856E-07	-4.281313	2.609597E-07
38.04132	0.3532576	0.1093998	-0.2955312	-0.1477651	-2.347122	-4.418849
38.05758	0.3447011	0.1045104	-0.5261589	-0.3006621	-7.029963	-4.660584
38.07422	0.3324777	0.1008434	-0.734762	-0.2204286	-6.340913	2.438862
38.09071	0.3178096	0.09595404	-0.8892627	-0.2964206	-4.663378	-2.293708
38.10728	0.3019191	0.08984233	-0.9591494	-0.3689036	-2.11381	-2.192338
38.12412	0.2823616	0.08373059	-1.161244	-0.3628888	-6.049075	0.1800345
38.14041	0.2444689	0.07028481	-2.326308	-0.8254642	-35.16577	-13.96216
38.15698	0.2175773	0.06050606	-1.623179	-0.5902465	21.40035	7.159053
38.17355	0.1931304	0.05317198	-1.475618	-0.4426857	4.453384	4.453394
38.19011	0.1711282	0.04583792	-1.328055	-0.442685	4.45347	1.978759E-05
38.20668	0.1527931	0.04094854	-1.106713	-0.2951233	6.680118	4.453421
38.22325	0.1332356	0.03361448	-1.180493	-0.442685	-2.226705	-4.453421
38.23981	0.1185674	0.02750275	-0.8853705	-0.3689044	8.906826	2.226704
38.25638	0.1026769	0.02016868	-0.9591517	-0.4426851	-2.226721	-2.226707
38.27703	0.08678646	0.01283462	-0.7695536	-0.3551787	5.094506	2.351301
38.2936	0.06845129	0.00550055	-1.106713	-0.4426851	-9.059475	-2.3513
38.31018	0.06111722	0.0006111723	-0.4421762	-0.2947841	20.04421	4.461093
38.32673	0.0550055	-0.001833517	-0.3694147	-0.1477659	2.1962	4.437529
38.3433	0.05133847	-0.004278206	-0.2213426	-0.1475617	4.471912	0.006164945
38.35986	0.05011612	-0.00550055	-0.07378095	-0.07378086	4.45342	2.226711
38.3768	0.04889378	-0.006722895	-0.07216885	-0.07216898	0.04811586	0.04810941
38.39299	0.04767143	-0.007945239	-0.07548425	-0.07548411	-0.1000706	-0.1000623
38.40956	0.04644909	-0.009167584	-0.07378072	-0.07378089	0.05199934	0.05198979
38.42613	0.04522675	-0.009167585	-0.07378072	-5.621474E-08	0	2.22671
38.4427	0.04522675	-0.01038993	-2.24859E-07	-0.07378078	2.2267	-2.226707
38.45926	0.04522675	-0.01038993	0	0	6.786257E-06	2.226708
38.47583	0.0440044	-0.01038993	-0.07378072	-5.621474E-08	-2.226707	-1.696564E-06
38.4924	0.0440044	-0.01161227	-2.24859E-07	-0.07378083	2.2267	-2.226708
38.50896	0.04278206	-0.01161227	-0.07378072	5.621474E-08	-2.2267	2.226712
38.52553	0.04155971	-0.01283462	-0.07378095	-0.07378089	-6.745769E-06	-2.226714
38.5421	0.04155971	-0.01405696	0	-0.07378083	2.226713	1.798872E-06
38.55867	0.04155971	-0.01405696	0	0	0	2.22671
38.57589	0.04155971	-0.01405696	0	0	0	0
38.5918	0.04155971	-0.01527931	0	-0.07684188	0	-2.31936
38.60836	0.04155971	-0.01527931	0	0	0	2.366221
38.62493	0.04155971	-0.01527931	0	0	0	0
38.64159	0.04155971	-0.01527931	0	0	0	0
38.65874	0.04155971	-0.01527931	0	0	0	0
38.6753	0.04155971	-0.01527931	0	0	0	0
38.69187	0.04155971	-0.01527931	0	0	0	0
38.70844	0.04155971	-0.01527931	0	0	0	0
38.72513	0.04155971	-0.01527931	0	0	0	0
38.74157	0.04155971	-0.01527931	0	0	0	0
38.75814	0.04155971	-0.01527931	0	0	0	0
38.77471	0.04155971	-0.01527931	0	0	0	0
38.79128	0.04155971	-0.01527931	0	0	0	0
38.80864	0.04155971	-0.01527931	0	0	0	0
38.82441	0.04155971	-0.01527931	0	0	0	0
38.84097	0.04155971	-0.01527931	0	0	0	0
38.85754	0.04155971	-0.01527931	0	0	0	0
38.87411	0.04155971	-0.01527931	0	0	0	0
38.89074	0.04155971	-0.01527931	0	0	0	0
38.90728	0.04155971	-0.01527931	0	0	0	0
38.92381	0.04155971	-0.01527931	0	0	0	0
38.94037	0.04155971	-0.01527931	0	0	0	0
38.95694	0.04155971	-0.01527931	0	0	0	0
38.97351	0.04155971	-0.01527931	0	0	0	0
38.99007	0.04155971	-0.01527931	0	0	0	0
39.00664	0.04155971	-0.01527931	0	0	0	0
39.02321	0.04155971	-0.01527931	0	0	0	0
39.03978	0.04155971	-0.01527931	0	0	0	0
39.05634	0.04155971	-0.01527931	0	0	0	0
39.07291	0.04155971	-0.01527931	0	0	0	0
39.08974	0.04155971	-0.01527931	0	0	0	0
39.10604	0.04155971	-0.01527931	0	0	0	0
39.12261	0.04155971	-0.01527931	0	0	0	0
39.13918	0.04155971	-0.01527931	0	0	0	0
39.15574	0.04155971	-0.01527931	0	0	0	0
39.17263	0.04155971	-0.01527931	0	0	0	0
39.18887	0.04155971	-0.01527931	0	0	0	0
39.20544	0.04155971	-0.01527931	0	0	0	0
39.22201	0.04155971	-0.01527931	0	0	0	0
39.23905	0.04155971	-0.01527931	0	0	0	0
39.25514	0.04155971	-0.01527931	0	0	0	0
39.27171	0.04155971	-0.01527931	0	0	0	0
39.28827	0.04155971	-0.01527931	0	0	0	0
39.30484	0.04155971	-0.01527931	0	0	0	0
39.3246	0.04155971	-0.01527931	0	0	0	0
39.34116	0.04155971	-0.01527931	0	0	0	0
39.35789	0.04155971	-0.01527931	0	0	0	0
39.3743	0.04155971	-0.01527931	0	0	0	0
39.39087	0.04155971	-0.01527931	0	0	0	0
39.40743	0.04155971	-0.01527931	0	0	0	0
39.424	0.04155971	-0.01527931	0	0	0	0
39.44057	0.04155971	-0.01527931	0	0	0	0
39.45713	0.04155971	-0.01527931	0	0	0	0
39.4737	0.04155971	-0.01527931	0	0	0	0
39.49027	0.04155971	-0.01527931	0	0	0	0
39.50684	0.04155971	-0.01527931	0	0	0	0
39.5234	0.04155971	-0.01527931	0	0	0	0
39.53997	0.04155971	-0.01527931	0	0	0	0
39.55654	0.04155971	-0.01527931	0	0	0	0
39.5731	0.04155971	-0.01527931	0	0	0	0
39.58967	0.04155971	-0.01527931	0	0	0	0
39.60624	0.04155971	-0.01527931	0	0	0	0
39.62281	0.04155971	-0.01527931	0	0	0	0
39.63937	0.04155971	-0.01527931	0	0	0	0
39.65594	0.04155971	-0.01527931	0	0	0	0
39.67251	0.04155971	-0.01527931	0	0	0	0
39.68908	0.04155971	-0.01527931	0	0	0	0
39.70564	0.04155971	-0.01527931	0	0	0	0
39.72221	0.04155971	-0.01527931	0	0	0	0
39.73878	0.04155971	-0.01527931	0	0	0	0
39.75545	0.04155971	-0.01527931	0	0	0	0
39.77192	0.04155971	-0.01527931	0	0	0	0
39.78848	0.04155971	-0.01527931	0	0	0	0
39.80505	0.04155971	-0.01527931	0	0	0	0
39.82161	0.04155971	-0.01527931	0	0	0	0
39.83818	0.04155971	-0.01527931	0	0	0	0
39.85475	0.04155971	-0.01527931	0	0	0	0
39.87149	0.04155971	-0.01527931	0	0	0	0
39.88788	0.04155971	-0.01527931	0	0	0	0
39.90836	0.04155971	-0.01527931	0	0	0	0
39.92492	0.04155971	-0.01527931	0	0	0	0
39.95153	0.04155971	-0.01527931	0	0	0	0
39.96809	0.04155971	-0.01527931	0	0	0	0
39.98466	0.04155971	-0.01527931	0	0	0	0
40.00129	0.04155971	-0.01527931	0	0	0	0
40.0178	0.04155971	-0.01527931	0	0	0	0
40.04331	0.04155971	-0.01527931	0	0	0	0
40.05988	0.04155971	-0.01527931	0	0	0	0
40.07644	0.04155971	-0.01527931	0	0	0	0
40.09301	0.04155971	-0.01527931	0	0	0	0
40.10958	0.04155971	-0.01527931	0	0	0	0
40.12614	0.04155971	-0.01527931	0	0	0	0
40.14271	0.04155971	-0.01527931	0	0	0	0
40.15928	0.04155971	-0.01527931	0	0	0	0
40.17642	0.04155971	-0.01527931	0	0	0	0
40.19249	0.04155971	-0.01527931	0	0	0	0
40.20898	0.04155971	-0.01527931	0	0	0	0
40.22555	0.04155971	-0.01527931	0	0	0	0
40.24212	0.04155971	-0.01527931	0	0	0	0
40.25868	0.04155971	-0.01527931	0	0	0	0
40.27525	0.04155971	-0.01527931	0	0	0	0
40.29182	0.04155971	-0.01527931	0	0	0	0
40.30838	0.04155971	-0.01527931	0	0	0	0
40.32495	0.04155971	-0.01527931	0	0	0	0
40.34182	0.04155971	-0.01527931	0	0	0	0
40.35833	0.04155971	-0.01527931	0	0	0	0
40.37899	0.04155971	-0.01527931	0	0	0	0
40.39587	0.04155971	-0.01527931	0	0	0	0
40.41235	0.04155971	-0.01527931	0	0	0	0
40.42869	0.04155971	-0.01527931	0	0	0	0
40.44537	0.04155971	-0.01527931	0	0	0	0
40.46182	0.04155971	-0.01527931	0	0	0	0
40.47839	0.04155971	-0.01527931	0	0	0	0
40.49495	0.04155971	-0.01527931	0	0	0	0
40.51154	0.04155971	-0.01527931	0	0	0	0
40.52809	0.04155971	-0.01527931	0	0	0	0
40.54482	0.04155971	-0.01527931	0	0	0	0
40.56184	0.04155971	-0.01527931	0	0	0	0
40.57785	0.04155971	-0.01527931	0	0	0	0
40.59435	0.04155971	-0.01527931	0	0	0	0
40.61492	0.04155971	-0.01527931	0	0	0	0
40.63148	0.04155971	-0.01527931	0	0	0	0
40.64805	0.04155971	-0.01527931	0	0	0	0
40.66462	0.04155971	-0.01527931	0	0	0	0
40.68119	0.04155971	-0.01527931	0	0	0	0
40.69775	0.04155971	-0.01527931	0	0	0	0
40.71432	0.04155971	-0.01527931	0	0	0	0
40.73089	0.04155971	-0.01527931	0	0	0	0
40.74746	0.04155971	-0.01527931	0	0	0	0
40.76402	0.04155971	-0.01527931	0	0	0	0
40.78059	0.04155971	-0.01527931	0	0	0	0
40.79729	0.04155971	-0.01527931	0	0	0	0
40.81412	0.04155971	-0.01527931	0	0	0	0
40.83029	0.04155971	-0.01527931	0	0	0	0
40.84686	0.04155971	-0.01527931	0	0	0	0
40.86342	0.04155971	-0.01527931	0	0	0	0
40.88041	0.04155971	-0.01527931	0	0	0	0
40.89655	0.04155971	-0.01527931	0	0	0	0
40.91312	0.04155971	-0.01527931	0	0	0	0
40.92969	0.04155971	-0.01527931	0	0	0	0
40.94625	0.04155971	-0.01527931	0	0	0	0
40.96282	0.04155971	-0.01527931	0	0	0	0
40.97939	0.04155971	-0.01527931	0	0	0	0
40.99596	0.04155971	-0.01527931	0	0	0	0
41.01252	0.04155971	-0.01527931	0	0	0	0
41.02909	0.04155971	-0.01527931	0	0	0	0
41.04566	0.04155971	-0.01527931	0	0	0	0
41.06223	0.04155971	-0.01527931	0	0	0	0
41.07879	0.04155971	-0.01527931	0	0	0	0
41.09536	0.04155971	-0.01527931	0	0	0	0
41.11193	0.04155971	-0.01527931	0	0	0	0
41.12849	0.04155971	-0.01527931	0	0	0	0
41.14506	0.04155971	-0.01527931	0	0	0	0
41.16163	0.04155971	-0.01527931	0	0	0	0
41.1782	0.04155971	-0.01527931	0	0	0	0
41.19497	0.04155971	-0.01527931	0	0	0	0
41.21133	0.04155971	-0.01527931	0	0	0	0
41.2279	0.04155971	-0.01527931	0	0	0	0
41.24446	0.04155971	-0.01527931	0	0	0	0
41.26105	0.04155971	-0.01527931	0	0	0	0
41.2776	0.04155971	-0.01527931	0	0	0	0
41.29416	0.04155971	-0.01527931	0	0	0	0
41.34486	0.04155971	-0.01527931	0	0	0	0
41.36143	0.04155971	-0.01527931	0	0	0	0
41.37848	0.04155971	-0.01527931	0	0	0	0
41.39499	0.04155971	-0.01527931	0	0	0	0
41.41113	0.04155971	-0.01527931	0	0	0	0
41.4277	0.04155971	-0.01527931	0	0	0	0
41.44427	0.04155971	-0.01527931	0	0	0	0
41.46083	0.04155971	-0.01527931	0	0	0	0
41.48125	0.04155971	-0.01527931	0	0	0	0
41.49781	0.04155971	-0.01527931	0	0	0	0
41.51438	0.04155971	-0.01527931	0	0	0	0
41.531	0.04155971	-0.01527931	0	0	0	0
41.54752	0.04155971	-0.01527931	0	0	0	0
41.56408	0.04155971	-0.01527931	0	0	0	0
41.58065	0.04155971	-0.01527931	0	0	0	0
41.59745	0.04155971	-0.01527931	0	0	0	0
41.61396	0.04155971	-0.01527931	0	0	0	0
41.63052	0.04155971	-0.01527931	0	0	0	0
41.64692	0.04155971	-0.01527931	0	0	0	0
41.66349	0.04155971	-0.01527931	0	0	0	0
41.68005	0.04155971	-0.01527931	0	0	0	0
41.69662	0.04155971	-0.01527931	0	0	0	0
41.71319	0.04155971	-0.01527931	0	0	0	0
41.72976	0.04155971	-0.01527931	0	0	0	0
41.74632	0.04278206	-0.01527931	0.07378095	0	2.226713	0
41.76289	0.05011612	-0.01527931	0.442685	5.621474E-08	11.13355	1.696564E-06
41.77971	0.05989488	-0.01527931	0.5812795	0	4.150771	-1.683578E-06
41.79602	0.07578535	-0.01527931	0.9744077	0	11.866	0
41.81259	0.09656522	-0.01161227	1.254275	0.2213426	8.513058	6.732843
41.82968	0.1271238	-0.01038993	1.787717	0.07150863	15.84752	-4.451279
41.84573	0.1552377	-0.009167584	1.751817	0.07616596	-1.083197	0.1405261
41.86229	0.1906857	-0.00550055	2.140631	0.2214445	11.92387	4.455301
41.87886	0.2065762	-0.003055861	0.9591503	0.1475617	-35.66537	-2.230301
41.89542	0.2151326	-0.001833517	0.5164669	0.07378086	-13.36021	-2.226711
41.91199	0.2273561	0.0006111722	0.7378082	0.1475617	6.680094	2.226711
41.92856	0.2493583	0.001833517	1.328056	0.07378086	17.81371	-2.226711
41.94546	0.2750275	0.0006111722	1.518968	-0.07233191	5.704598	-4.365962
41.96169	0.3031414	-0.003055861	1.731651	-0.2258672	6.418792	-4.633704
41.97826	0.3275883	-0.007945239	1.475616	-0.2951234	-7.805319	-2.111303
41.99483	0.3434788	-0.01161227	0.9591512	-0.2213426	-15.58695	2.226708
42.01153	0.3483682	-0.01283462	0.2927635	-0.07319099	-20.03091	4.453281
42.02806	0.3483682	-0.01283462	0	0	-8.810264	2.202569
42.04457	0.3483682	-0.01283462	0	0	0	0
42.07264	0.3483682	-0.01283462	0	0	0	0
42.09011	0.3483682	-0.01283462	0	0	0	0
42.10668	0.3483682	-0.01283462	0	0	0	0
42.1339	0.3483682	-0.01283462	0	0	0	0
42.15046	0.3483682	-0.01283462	0	0	0	0
42.16703	0.3483682	-0.01283462	0	0	0	0
42.18359	0.3483682	-0.01283462	0	0	0	0
42.20018	0.3483682	-0.01283462	0	0	0	0
42.21673	0.3483682	-0.01283462	0	0	0	0
42.2333	0.3483682	-0.01283462	0	0	0	0
42.24986	0.3483682	-0.01283462	0	0	0	0
42.26643	0.3483682	-0.01283462	0	0	0	0
42.28299	0.3483682	-0.01283462	0	0	0	0
42.29956	0.3483682	-0.01283462	0	0	0	0
42.31646	0.3483682	-0.01283462	0	0	0	0
42.33269	0.3483682	-0.01283462	0	0	0	0
42.34962	0.3483682	-0.01283462	0	0	0	0
42.36615	0.3483682	-0.01283462	0	0	0	0
42.38239	0.3483682	-0.01283462	0	0	0	0
42.39916	0.3483682	-0.01283462	0	0	0	0
42.4157	0.3483682	-0.01283462	0	0	0	0
42.43221	0.3483682	-0.01283462	0	0	0	0
42.44865	0.3483682	-0.01283462	0	0	0	0
42.46522	0.3483682	-0.01283462	0	0	0	0
