Time	Pos X	Pos Y	Vel X	Vel Y	Acc X	Acc Y
0.0166283	0.0440044	-0.006722895	-0.0007104726	0.0001085444	1.1474E-05	-1.752972E-06
0.03312988	0.0440044	-0.006722895	0	0	-1.147398E-05	1.75297E-06
0.04973686	0.0440044	-0.006722895	0	0	0	0
0.06626646	0.0440044	-0.006722895	0	0	0	0
0.08306964	0.0440044	-0.006722895	0	0	0	0
0.0993991	0.0440044	-0.006722895	0	0	0	0
0.1160925	0.0440044	-0.006722895	0	0	0	0
0.1325333	0.0440044	-0.006722895	0	0	0	0
0.149106	0.0440044	-0.006722895	0	0	0	0
0.1656664	0.0440044	-0.006722895	0	0	0	0
0.1822327	0.0440044	-0.006722895	0	0	0	0
0.1988002	0.0440044	-0.006722895	0	0	0	0
0.2153661	0.0440044	-0.006722895	0	0	0	0
0.2321334	0.0440044	-0.006722895	0	0	0	0
0.2488181	0.0440044	-0.006722895	0	0	0	0
0.2653682	0.0440044	-0.006722895	0	0	0	0
0.2821517	0.0440044	-0.006722895	0	0	0	0
0.2982001	0.0440044	-0.006722895	0	0	0	0
0.3147664	0.0440044	-0.006722895	0	0	0	0
0.3313339	0.0440044	-0.006722895	0	0	0	0
0.3478998	0.0440044	-0.006722895	0	0	0	0
0.3646244	0.0440044	-0.006722895	0	0	0	0
0.3810589	0.0440044	-0.006722895	0	0	0	0
0.3976019	0.0440044	-0.006722895	0	0	0	0
0.4141678	0.0440044	-0.006722895	0	0	0	0
0.4362915	0.0440044	-0.006722895	0	0	0	0
0.4528622	0.0440044	-0.006722895	0	0	0	0
0.4694534	0.0440044	-0.006722895	0	0	0	0
0.4859944	0.0440044	-0.006722895	0	0	0	0
0.5025604	0.0440044	-0.006722895	0	0	0	0
0.5191279	0.0440044	-0.006722895	0	0	0	0
0.5357057	0.0440044	-0.006722895	0	0	0	0
0.5522633	0.0440044	-0.006722895	0	0	0	0
0.5689686	0.0440044	-0.006722895	0	0	0	0
0.5855168	0.0440044	-0.006722895	0	0	0	0
0.6019635	0.0440044	-0.006722895	0	0	0	0
0.6191338	0.0440044	-0.006722895	0	0	0	0
0.6350969	0.0440044	-0.006722895	0	0	0	0
0.6516632	0.0440044	-0.006722895	0	0	0	0
0.6682296	0.0440044	-0.006722895	0	0	0	0
0.6850715	0.0440044	-0.006722895	0	0	0	0
0.7013997	0.0440044	-0.006722895	0	0	0	0
0.7179333	0.0440044	-0.006722895	0	0	0	0
0.7345719	0.0440044	-0.006722895	0	0	0	0
0.7510695	0.0440044	-0.006722895	0	0	0	0
0.7676334	0.0440044	-0.006722895	0	0	0	0
0.7842005	0.0440044	-0.006722895	0	0	0	0
0.8009031	0.0440044	-0.006722895	0	0	0	0
0.8174055	0.0440044	-0.006722895	0	0	0	0
0.8339354	0.0440044	-0.006722895	0	0	0	0
0.8504654	0.0440044	-0.006722895	0	0	0	0
0.8670333	0.0440044	-0.006722895	0	0	0	0
0.8835953	0.0440044	-0.006722895	0	0	0	0
0.9005832	0.0440044	-0.006722895	0	0	0	0
0.9168941	0.0440044	-0.006722895	0	0	0	0
0.9335986	0.0440044	-0.006722895	0	0	0	0
0.9498626	0.0440044	-0.006722895	0	0	0	0
0.9668106	0.0440044	-0.006722895	0	0	0	0
0.9829956	0.0440044	-0.006722895	0	0	0	0
0.9995623	0.0440044	-0.006722895	0	0	0	0
1.016399	0.0440044	-0.006722895	0	0	0	0
1.032695	0.0440044	-0.006722895	0	0	0	0
1.049816	0.0440044	-0.006722895	0	0	0	0
1.065828	0.0440044	-0.006722895	0	0	0	0
1.082707	0.0440044	-0.006722895	0	0	0	0
1.098961	0.0440044	-0.006722895	0	0	0	0
1.115528	0.0440044	-0.006722895	0	0	0	0
1.132096	0.0440044	-0.006722895	0	0	0	0
1.148662	0.0440044	-0.006722895	0	0	0	0
1.165577	0.0440044	-0.006722895	0	0	0	0
1.181984	0.0440044	-0.006722895	0	0	0	0
1.198362	0.0440044	-0.006722895	0	0	0	0
1.214929	0.0440044	-0.006722895	0	0	0	0
1.231962	0.0440044	-0.006722895	0	0	0	0
1.248062	0.0440044	-0.006722895	0	0	0	0
1.264628	0.0440044	-0.006722895	0	0	0	0
1.281196	0.0440044	-0.006722895	0	0	0	0
1.297783	0.0440044	-0.006722895	0	0	0	0
1.314329	0.0440044	-0.006722895	0	0	0	0
1.330894	0.0440044	-0.006722895	0	0	0	0
1.347461	0.0440044	-0.006722895	0	0	0	0
1.364392	0.0440044	-0.006722895	0	0	0	0
1.38147	0.0440044	-0.006722895	0	0	0	0
1.397913	0.0440044	-0.006722895	0	0	0	0
1.413931	0.0440044	-0.006722895	0	0	0	0
1.430294	0.0440044	-0.006722895	0	0	0	0
1.447473	0.0440044	-0.006722895	0	0	0	0
1.463493	0.0440044	-0.006722895	0	0	0	0
1.479995	0.0440044	-0.006722895	0	0	0	0
1.496561	0.0440044	-0.006722895	0	0	0	0
1.513127	0.0440044	-0.006722895	0	0	0	0
1.530038	0.0440044	-0.006722895	0	0	0	0
1.54626	0.0440044	-0.006722895	0	0	0	0
1.562827	0.0440044	-0.006722895	0	0	0	0
1.579577	0.0440044	-0.006722895	0	0	0	0
1.596063	0.0440044	-0.006722895	0	0	0	0
1.612527	0.0440044	-0.006722895	0	0	0	0
1.629094	0.0440044	-0.006722895	0	0	0	0
1.645661	0.0440044	-0.006722895	0	0	0	0
1.662227	0.0440044	-0.006722895	0	0	0	0
1.678793	0.0440044	-0.006722895	0	0	0	0
1.69536	0.0440044	-0.006722895	0	0	0	0
1.712164	0.0440044	-0.006722895	0	0	0	0
1.728493	0.0440044	-0.006722895	0	0	0	0
1.787559	0.0440044	-0.006722895	0	0	0	0
1.80424	0.03544799	-0.009167584	-0.5129375	-0.1465536	-6.771762	-1.934789
1.820695	0.03055861	-0.01038993	-0.2971291	-0.07428219	6.512689	2.181013
1.837262	0.01344579	-0.01283462	-1.032962	-0.147566	-22.28299	-2.21923
1.853828	-0.01589048	-0.01161227	-1.770842	0.07378508	-22.27024	6.680676
1.870396	-0.05989488	-0.007945239	-2.65613	0.2213442	-26.7189	4.453488
1.886962	-0.1038993	-0.001833517	-2.656188	0.3689149	-0.001741339	4.453772
1.903529	-0.1552377	0.007945239	-3.098974	0.5902808	-13.3639	6.681124
1.920096	-0.2041315	0.02016868	-2.951256	0.7378138	4.458302	4.452701
1.936708	-0.2432466	0.02750275	-2.35455	0.4414781	17.9841	-8.931251
1.953239	-0.2603594	0.02872509	-1.035181	0.0739414	39.80744	-11.08917
1.969795	-0.2640264	0.02994744	-0.221492	0.07383089	24.59223	-0.003340092
1.986362	-0.2640264	0.02994744	0	0	6.686999	-2.229007
2.003252	-0.2664711	0.02994744	-0.144749	0	-4.326538	0
2.019496	-0.2713605	0.02994744	-0.3009922	1.146654E-07	-4.715564	3.460709E-06
2.036062	-0.2823616	0.02505806	-0.6640648	-0.2951404	-11.06576	-8.995322
2.05329	-0.2896957	0.02261337	-0.4257158	-0.141905	7.053011	4.534407
2.069196	-0.3019191	0.02016868	-0.7684875	-0.1536974	-10.34517	-0.3559035
2.085763	-0.3153649	0.01650165	-0.8115997	-0.2213458	-1.327637	-2.083231
2.102332	-0.3275883	0.01405696	-0.7377135	-0.1475426	2.22976	2.227258
2.118895	-0.3324777	0.01283462	-0.2951951	-0.07379895	13.356	2.225715
2.135462	-0.3324777	0.01283462	0	0	8.910224	2.227561
2.152028	-0.3324777	0.01283462	0	0	0	0
2.168597	-0.3337	0.01283462	-0.07377435	0	-2.226498	0
2.185389	-0.3385894	0.01038993	-0.2911733	-0.145586	-6.516614	-4.363996
2.201728	-0.3398118	0.009167584	-0.07480995	-0.07481006	6.530469	2.136223
2.218417	-0.3410341	0.009167584	-0.07324003	0	0.04753177	2.264992
2.234935	-0.3410341	0.009167584	0	0	2.205532	0
2.251427	-0.3410341	0.009167584	0	0	0	0
2.267996	-0.3410341	0.009167584	0	0	0	0
2.284562	-0.3410341	0.007945239	1.799053E-06	-0.07378833	5.429592E-05	-2.226952
2.301129	-0.3410341	0.007945239	0	0	-5.429787E-05	2.227032
2.317695	-0.3410341	0.006722894	-1.798975E-06	-0.07378508	-5.429435E-05	-2.226886
2.334366	-0.3398118	0.006722895	0.07332487	2.793371E-08	2.206209	2.220002
2.350881	-0.3385894	0.006722894	0.07401399	-2.819623E-08	0.0207656	-1.691413E-06
2.367958	-0.3385894	0.006722894	0	0	-2.203291	8.393619E-07
2.383963	-0.3337	0.006722895	0.3055003	2.909553E-08	9.234635	8.794972E-07
2.400529	-0.3190319	0.006722895	0.8853942	0	17.80382	-8.93287E-07
2.417096	-0.2958074	0.00794524	1.401918	0.07378511	15.5894	2.226935
2.433666	-0.2493583	0.007945239	2.803148	-5.620423E-08	42.28645	-2.226697
2.45034	-0.2310231	0.007945239	1.09964	0	-51.24236	1.690651E-06
2.467283	-0.1906857	0.006722894	2.380771	-0.07214458	38.10987	-2.146088
2.483485	-0.1234568	0.0006111722	4.149308	-0.3772098	53.35688	-9.20384
2.500368	-0.08678646	-0.0006111722	2.172041	-0.07240134	-59.76262	9.212792
2.516515	-0.06111722	-0.004278206	1.589684	-0.2270978	-17.63099	-4.683475
2.533064	-0.04155971	-0.004278206	1.181803	0	-12.47486	6.945684
2.550035	-0.03055861	-0.00550055	0.6482617	-0.07202904	-15.91757	-2.1489
2.566535	-0.02444689	-0.006722894	0.3703968	-0.07407936	-8.301752	-0.06125744
2.582763	-0.01955751	-0.006722894	0.3012846	0	-2.111655	2.263423
2.599403	-0.01344579	-0.006722895	0.3672974	-2.798494E-08	2.008412	-8.514305E-07
2.615898	-0.006111723	-0.006722894	0.4446175	2.823006E-08	2.333493	1.696548E-06
2.632464	0.004889378	-0.006722895	0.6640756	-5.621879E-08	6.63792	-2.554314E-06
2.649469	0.008556412	-0.007945239	0.2156509	-0.07188355	-13.35769	-2.141268
2.665597	0.01222344	-0.00794524	0.2273731	-5.774632E-08	0.3537985	2.169589
2.682165	0.01344579	-0.007945239	0.07377659	5.62115E-08	-4.697714	3.485374E-06
2.69873	0.01344579	-0.007945239	0	0	-2.22663	-1.696503E-06
2.715299	0.01466813	-0.007945239	0.07377665	0	2.226632	0
2.732132	0.01711282	-0.007945239	0.1452314	0	2.139282	0
2.74843	0.0220022	-0.007945239	0.3000019	0	4.671489	0
2.765073	0.02689158	-0.00794524	0.2937749	-5.595786E-08	-0.1890339	-1.698724E-06
2.781652	0.03178096	-0.00794524	0.2949028	0	0.03394763	1.684315E-06
2.798397	0.03544799	-0.00794524	0.219001	0	-2.277692	0
2.8147	0.03789268	-0.00794524	0.1499527	0	-2.089368	0
2.831264	0.04155971	-0.00794524	0.2213902	0	2.173551	0
2.847832	0.0440044	-0.00794524	0.1475492	0	-2.228671	0
2.864637	0.04522675	-0.007945239	0.07273608	5.541881E-08	-2.241669	1.660547E-06
2.880966	0.04522675	-0.007945239	0	0	-2.195242	-1.672591E-06
2.897532	0.04522675	-0.007945239	0	0	0	0
2.914099	0.04522675	-0.007945239	0	0	0	0
2.930663	0.04522675	-0.007945239	0	0	0	0
2.947786	0.04522675	-0.007945239	0	0	0	0
2.963829	0.04522675	-0.007945239	0	0	0	0
2.980365	0.04522675	-0.007945239	0	0	0	0
2.996933	0.04522675	-0.007945239	0	0	0	0
3.013991	0.04522675	-0.007945239	0	0	0	0
3.030583	0.04522675	-0.007945239	0	0	0	0
3.046761	0.04522675	-0.007945239	0	0	0	0
3.063199	0.04522675	-0.007945239	0	0	0	0
3.079759	0.04522675	-0.007945239	0	0	0	0
3.096329	0.04522675	-0.007945239	0	0	0	0
3.112895	0.04522675	-0.007945239	0	0	0	0
3.129475	0.04522675	-0.007945239	0	0	0	0
3.146029	0.04644909	-0.00550055	0.07383727	0.1476743	2.228445	4.456883
3.162595	0.04644909	-0.003055861	0	0.1475808	-2.229408	-0.00282234
3.179322	0.04644909	-0.0006111722	0	0.1461463	0	-0.04308892
3.19573	0.04644909	0.001833517	-2.270449E-07	0.1489962	-6.85203E-06	0.08600788
3.212629	0.04644909	0.001833517	0	0	6.816862E-06	-4.473505
3.228884	0.04644909	0.001833517	0	0	0	0
3.245453	0.04644909	0.003055861	2.248298E-07	0.07377132	6.849499E-06	2.247462
3.262037	0.04644909	0.003055861	0	0	-6.781572E-06	-2.225174
3.278614	0.04644909	0.003055861	0	0	0	0
3.295132	0.04644909	0.003055861	0	0	0	0
3.311698	0.04644909	0.003055861	0	0	0	0
3.328265	0.04644909	0.003055861	0	0	0	0
3.344831	0.04644909	0.003055861	0	0	0	0
3.361397	0.04644909	0.003055861	0	0	0	0
3.377962	0.04644909	0.003055861	0	0	0	0
3.39453	0.04644909	0.003055861	0	0	0	0
3.41138	0.04644909	0.003055861	0	0	0	0
3.427872	0.04644909	0.003055861	0	0	0	0
3.444228	0.04644909	0.003055861	0	0	0	0
3.4609	0.04644909	0.003055861	0	0	0	0
3.477362	0.04644909	0.003055861	0	0	0	0
3.493929	0.04644909	0.003055861	0	0	0	0
3.510495	0.04644909	0.003055861	0	0	0	0
3.527063	0.04644909	0.003055861	0	0	0	0
3.543629	0.04644909	0.003055861	0	0	0	0
3.560196	0.04644909	0.003055861	0	0	0	0
3.577443	0.04644909	0.003055861	0	0	0	0
3.593412	0.04644909	0.003055861	0	0	0	0
3.609899	0.04644909	0.003055861	0	0	0	0
3.626465	0.04644909	0.003055861	0	0	0	0
3.643031	0.04644909	0.003055861	0	0	0	0
3.659598	0.04644909	0.003055861	0	0	0	0
3.676232	0.04644909	0.003055861	0	0	0	0
3.693073	0.04644909	0.003055861	0	0	0	0
3.709298	0.04644909	0.003055861	0	0	0	0
3.725865	0.04644909	0.003055861	0	0	0	0
3.748195	0.04644909	0.003055861	0	0	0	0
3.765205	0.04644909	0.003055861	0	0	0	0
3.78133	0.04644909	0.003055861	0	0	0	0
3.797899	0.04644909	0.003055861	0	0	0	0
3.814465	0.04644909	0.003055861	0	0	0	0
3.831032	0.04522675	0.003055861	-0.07378519	-1.405449E-08	-2.22697	-4.241899E-07
3.847599	0.04522675	0.003055861	0	0	2.226922	4.241807E-07
3.864167	0.04522675	0.004278206	0	0.07377662	0	2.226535
3.880732	0.0440044	0.004278205	-0.07379157	-2.811142E-08	-2.22713	-2.22668
3.8973	0.04278206	0.00550055	-0.07377435	0.07377452	0.000519664	2.226584
3.913867	0.04278206	0.00550055	0	0	2.226434	-2.226439
3.930487	0.04278206	0.00550055	0	0	0	0
3.947	0.04278206	0.00550055	0	0	0	0
3.963609	0.04278206	0.00550055	0	0	0	0
3.980247	0.04278206	0.00550055	0	0	0	0
3.996701	0.04278206	0.00550055	0	0	0	0
4.013268	0.04278206	0.00550055	0	0	0	0
4.029834	0.04278206	0.00550055	0	0	0	0
4.046402	0.04278206	0.00550055	0	0	0	0
4.062965	0.04278206	0.00550055	0	0	0	0
4.080176	0.04278206	0.00550055	0	0	0	0
4.096099	0.04278206	0.00550055	0	0	0	0
4.112819	0.04278206	0.00550055	0	0	0	0
4.129236	0.04278206	0.00550055	0	0	0	0
4.14592	0.04278206	0.00550055	0	0	0	0
4.162373	0.04278206	0.00550055	0	0	0	0
4.178939	0.04278206	0.00550055	0	0	0	0
4.195506	0.04278206	0.00550055	0	0	0	0
4.212308	0.04278206	0.00550055	0	0	0	0
4.22864	0.04278206	0.00550055	0	0	0	0
4.245253	0.04278206	0.00550055	0	0	0	0
4.261774	0.04278206	0.00550055	0	0	0	0
4.279064	0.04278206	0.00550055	0	0	0	0
4.294906	0.04278206	0.00550055	0	0	0	0
4.311621	0.04278206	0.00550055	0	0	0	0
4.328039	0.04278206	0.00550055	0	0	0	0
4.344606	0.04278206	0.00550055	0	0	0	0
4.36119	0.04278206	0.00550055	0	0	0	0
4.386327	0.04278206	0.00550055	0	0	0	0
4.402896	0.04278206	0.00550055	0	0	0	0
4.419463	0.04278206	0.00550055	0	0	0	0
4.436395	0.04278206	0.00550055	0	0	0	0
4.452597	0.04278206	0.00550055	0	0	0	0
4.469446	0.04278206	0.00550055	0	0	0	0
4.485729	0.04278206	0.00550055	0	0	0	0
4.502296	0.04278206	0.00550055	0	0	0	0
4.518979	0.04278206	0.00550055	0	0	0	0
4.535485	0.04278206	0.00550055	0	0	0	0
4.552003	0.04278206	0.00550055	0	0	0	0
4.568563	0.04278206	0.00550055	0	0	0	0
4.585129	0.04278206	0.00550055	0	0	0	0
4.601696	0.04278206	0.00550055	0	0	0	0
4.618262	0.04278206	0.00550055	0	0	0	0
4.63483	0.04278206	0.00550055	0	0	0	0
4.651519	0.04278206	0.00550055	0	0	0	0
4.668025	0.04278206	0.00550055	0	0	0	0
4.684529	0.04278206	0.00550055	0	0	0	0
4.701097	0.04278206	0.00550055	0	0	0	0
4.718112	0.04278206	0.00550055	0	0	0	0
4.734472	0.04278206	0.00550055	0	0	0	0
4.750798	0.04278206	0.00550055	0	0	0	0
4.767365	0.04278206	0.00550055	0	0	0	0
4.784078	0.04278206	0.00550055	0	0	0	0
4.800498	0.04278206	0.00550055	0	0	0	0
4.817065	0.04278206	0.00550055	0	0	0	0
4.833631	0.04278206	0.00550055	0	0	0	0
4.850198	0.04278206	0.00550055	0	0	0	0
4.86677	0.04278206	0.00550055	0	0	0	0
4.883332	0.04278206	0.00550055	0	0	0	0
4.899904	0.04278206	0.00550055	0	0	0	0
4.916981	0.04278206	0.00550055	0	0	0	0
4.933033	0.04278206	0.00550055	0	0	0	0
4.949602	0.04278206	0.00550055	0	0	0	0
4.966355	0.04278206	0.00550055	0	0	0	0
4.982732	0.04278206	0.00550055	0	0	0	0
4.999467	0.04278206	0.00550055	0	0	0	0
5.015868	0.04278206	0.00550055	0	0	0	0
5.036831	0.04278206	0.00550055	0	0	0	0
5.053435	0.04278206	0.00550055	0	0	0	0
5.070674	0.04278206	0.00550055	0	0	0	0
5.086535	0.04278206	0.00550055	0	0	0	0
5.103102	0.04278206	0.00550055	0	0	0	0
5.120083	0.04278206	0.00550055	0	0	0	0
5.136235	0.04278206	0.00550055	0	0	0	0
5.152801	0.04278206	0.00550055	0	0	0	0
5.169368	0.04278206	0.00550055	0	0	0	0
5.185939	0.04278206	0.00550055	0	0	0	0
5.202592	0.04278206	0.00550055	0	0	0	0
5.219072	0.04278206	0.00550055	0	0	0	0
5.235654	0.04278206	0.00550055	0	0	0	0
5.252203	0.04278206	0.00550055	0	0	0	0
5.268769	0.04278206	0.00550055	0	0	0	0
5.285336	0.04278206	0.00550055	0	0	0	0
5.301903	0.04278206	0.00550055	0	0	0	0
5.318583	0.04278206	0.00550055	0	0	0	0
5.335418	0.04278206	0.00550055	0	0	0	0
5.351603	0.04278206	0.00550055	0	0	0	0
5.36817	0.04278206	0.00550055	0	0	0	0
5.385075	0.04278206	0.00550055	0	0	0	0
5.401304	0.04278206	0.00550055	0	0	0	0
5.417871	0.04278206	0.00550055	0	0	0	0
5.434437	0.04278206	0.00550055	0	0	0	0
5.451617	0.04278206	0.00550055	0	0	0	0
5.468059	0.04278206	0.00550055	0	0	0	0
5.484136	0.04278206	0.00550055	0	0	0	0
5.5012	0.04278206	0.00550055	0	0	0	0
5.517269	0.04278206	0.00550055	0	0	0	0
5.533834	0.0440044	0.00794524	0.07378945	0.1475787	2.261071	4.522136
5.550402	0.07211832	0.03605916	1.696911	1.696911	48.988	46.76095
5.56772	0.110011	0.08250826	2.18802	2.68209	14.49302	29.07337
5.583536	0.141792	0.1228456	2.009512	2.550534	-5.387553	-3.970462
5.600102	0.1796846	0.1766288	2.287339	3.246545	8.579791	21.49406
5.616737	0.220022	0.2316343	2.424859	3.306625	4.142019	1.809559
5.633235	0.2566923	0.2609706	2.222637	1.778111	-6.103237	-46.13198
5.649803	0.2823616	0.276861	1.549397	0.9591494	-20.36062	-24.76762
5.666369	0.3006968	0.2878621	1.106778	0.6640666	-13.35865	-8.905875
5.682939	0.3116978	0.2927515	0.6639119	0.2950719	-13.36496	-11.13564
5.699502	0.3153649	0.2951962	0.2213995	0.1475997	-13.35563	-4.450913
5.71607	0.3153649	0.2951962	0	0	-6.682524	-4.455016
5.732817	0.3153649	0.2951962	0	0	0	0
5.749207	0.3153649	0.2951962	0	0	0	0
5.76577	0.3153649	0.2951962	0	0	0	0
5.782371	0.3153649	0.2939739	1.795255E-06	-0.07363058	5.413182E-05	-2.220162
5.798905	0.3153649	0.2939739	0	0	-5.418089E-05	2.222175
5.815469	0.3153649	0.2927515	0	-0.07379739	0	-2.22968
5.832057	0.3153649	0.2915292	-1.796597E-06	-0.07368561	-5.419253E-05	0.003371764
5.848602	0.3153649	0.2903068	1.801308E-06	-0.07388247	0.0001085897	-0.00594148
5.865172	0.3153649	0.2903068	0	0	-5.439491E-05	2.231062
5.8818	0.3141425	0.2890845	-0.07351591	-0.07351413	-2.214476	-2.214422
5.898769	0.3129202	0.2866398	-0.07203297	-0.1440659	0.04413973	-2.099974
5.91487	0.3092532	0.2793057	-0.2277531	-0.4555063	-4.708792	-9.417583
5.931436	0.3019191	0.2719716	-0.4427226	-0.4427244	-6.580694	0.3912821
5.948003	0.290918	0.2609706	-0.6640092	-0.6640074	-6.678636	-6.678528
5.964572	0.2762499	0.2450801	-0.8852941	-0.9590684	-6.678006	-8.904446
5.981139	0.2395795	0.2132991	-2.213489	-1.918358	-40.08385	-28.95057
5.997705	0.2041315	0.1827405	-2.139769	-1.844628	2.224984	2.225265
6.014486	0.1662388	0.1460702	-2.25809	-2.185249	-3.548188	-10.2144
6.030863	0.1369026	0.1191786	-1.791259	-1.641988	14.07886	16.38384
6.047405	0.1124557	0.1008434	-1.477914	-1.108435	9.518693	16.2081
6.063972	0.09412052	0.08495294	-1.106745	-0.9591793	11.21078	4.508116
6.080535	0.07456301	0.06539543	-1.180766	-1.180766	-2.23424	-6.688359
6.097117	0.0660066	0.05683902	-0.5160056	-0.5160056	20.05586	20.05586
6.113668	0.06356191	0.05194964	-0.1477064	-0.2954127	11.11577	6.657795
6.130238	0.05867254	0.04583792	-0.2950807	-0.368851	-4.44962	-2.217299
6.146801	0.0550055	0.03972619	-0.2213936	-0.3689895	2.223976	-0.004179859
6.163639	0.05256081	0.03483681	-0.1451883	-0.2903765	2.281493	2.353579
6.180051	0.05133847	0.03239213	-0.07447956	-0.1489594	2.126589	4.253164
6.196502	0.04889378	0.02994744	-0.148601	-0.1486008	-2.255458	0.01091136
6.213333	0.04767143	0.02750275	-0.07262708	-0.145254	2.282747	0.1005572
6.229637	0.04644909	0.02505806	-0.07496966	-0.1499397	-0.07069824	-0.14141
6.246204	0.0440044	0.02139103	-0.1475617	-0.2213425	-2.208342	-2.172167
6.26277	0.04278206	0.02016868	-0.07378732	-0.0737872	2.22661	4.453421
6.279337	0.04278206	0.01894634	0	-0.07378307	2.227034	0.0001248039
6.295905	0.04155971	0.01772399	-0.07377882	-0.07377871	-2.226649	0.0001315425
6.312469	0.04033737	0.01527931	-0.07379347	-0.1475872	-0.0004421045	-2.227706
6.332612	0.03911502	0.01405696	-0.06068475	-0.06068461	0.3571184	2.367472
6.349182	0.03789268	0.01283462	-0.07376821	-0.07376815	-0.3563748	-0.3563769
6.365752	0.03789268	0.01283462	0	0	2.225945	2.225943
6.383269	0.03789268	0.01283462	0	0	0	0
6.398885	0.03789268	0.01283462	0	0	0	0
6.415453	0.03789268	0.01161227	0	-0.07377877	0	-2.292397
6.432059	0.03789268	0.01161227	0	0	0	2.223991
6.448712	0.03789268	0.01161227	0	0	0	0
6.465283	0.03789268	0.01161227	0	0	0	0
6.48172	0.03789268	0.01161227	0	0	0	0
6.498281	0.03789268	0.01161227	0	0	0	0
6.515068	0.03789268	0.01161227	0	0	0	0
6.531978	0.03789268	0.01161227	0	0	0	0
6.547981	0.03789268	0.01161227	0	0	0	0
6.564548	0.03789268	0.01161227	0	0	0	0
6.581115	0.03789268	0.01161227	0	0	0	0
6.597785	0.03789268	0.01161227	0	0	0	0
6.614811	0.03789268	0.01161227	0	0	0	0
6.630817	0.03789268	0.01161227	0	0	0	0
6.64738	0.03789268	0.01161227	0	0	0	0
6.663946	0.03789268	0.01161227	0	0	0	0
6.680514	0.03789268	0.01161227	0	0	0	0
6.697081	0.03789268	0.01161227	0	0	0	0
6.713648	0.03789268	0.01161227	0	0	0	0
6.730279	0.03789268	0.01161227	0	0	0	0
6.746782	0.03789268	0.01161227	0	0	0	0
6.763349	0.03789268	0.01161227	0	0	0	0
6.779916	0.03789268	0.01161227	0	0	0	0
6.796481	0.03789268	0.01161227	0	0	0	0
6.813047	0.03789268	0.01161227	0	0	0	0
6.829858	0.03789268	0.01161227	0	0	0	0
6.84637	0.03789268	0.01161227	0	0	0	0
6.862748	0.03789268	0.01161227	0	0	0	0
6.879897	0.03789268	0.01161227	0	0	0	0
6.895881	0.03789268	0.01161227	0	0	0	0
6.912447	0.03789268	0.01161227	0	0	0	0
6.929015	0.03789268	0.01161227	0	0	0	0
6.945969	0.03789268	0.01161227	0	0	0	0
6.962148	0.03789268	0.01161227	0	0	0	0
6.978716	0.03789268	0.01161227	0	0	0	0
6.995282	0.03789268	0.01161227	0	0	0	0
7.011848	0.03789268	0.01161227	0	0	0	0
7.028415	0.03789268	0.01161227	0	0	0	0
7.044982	0.03789268	0.01161227	0	0	0	0
7.061624	0.03789268	0.01161227	0	0	0	0
7.078115	0.03789268	0.01161227	0	0	0	0
7.094681	0.03789268	0.01161227	0	0	0	0
7.111247	0.03789268	0.01161227	0	0	0	0
7.127817	0.03789268	0.01161227	0	0	0	0
7.144384	0.03789268	0.01161227	0	0	0	0
7.16095	0.03789268	0.01161227	0	0	0	0
7.177517	0.03789268	0.01161227	0	0	0	0
7.23064	0.03789268	0.01161227	0	0	0	0
7.247212	0.03789268	0.01161227	0	0	0	0
7.263778	0.03789268	0.01161227	0	0	0	0
7.280345	0.03789268	0.01161227	0	0	0	0
7.296912	0.03789268	0.01161227	0	0	0	0
7.313479	0.03789268	0.01161227	0	0	0	0
7.330046	0.03789268	0.01161227	0	0	0	0
7.346611	0.03789268	0.01161227	0	0	0	0
7.363317	0.03789268	0.01161227	0	0	0	0
7.379751	0.03789268	0.01161227	0	0	0	0
7.396309	0.03789268	0.01161227	0	0	0	0
7.412879	0.03789268	0.01161227	0	0	0	0
7.429445	0.03789268	0.01161227	0	0	0	0
7.446012	0.03789268	0.01161227	0	0	0	0
7.462903	0.03789268	0.01161227	0	0	0	0
7.479146	0.03789268	0.01161227	0	0	0	0
7.495805	0.03789268	0.01161227	0	0	0	0
7.512481	0.03789268	0.01161227	0	0	0	0
7.529095	0.03789268	0.01161227	0	0	0	0
7.545412	0.03789268	0.01161227	0	0	0	0
7.562505	0.03789268	0.01161227	0	0	0	0
7.578545	0.03789268	0.01161227	0	0	0	0
7.595112	0.03789268	0.01161227	0	0	0	0
7.611679	0.03789268	0.01161227	0	0	0	0
7.628245	0.03789268	0.01161227	0	0	0	0
7.650537	0.03789268	0.01161227	0	0	0	0
7.667659	0.03789268	0.01161227	0	0	0	0
7.684194	0.03789268	0.01161227	0	0	0	0
7.700239	0.03789268	0.01161227	0	0	0	0
7.716822	0.03789268	0.01161227	0	0	0	0
7.733588	0.03789268	0.01161227	0	0	0	0
7.750257	0.03789268	0.01161227	0	0	0	0
7.766509	0.03789268	0.01161227	0	0	0	0
7.783074	0.03789268	0.01161227	0	0	0	0
7.799642	0.03789268	0.01161227	0	0	0	0
7.816208	0.03789268	0.01161227	0	0	0	0
7.832776	0.03789268	0.01161227	0	0	0	0
7.849342	0.03789268	0.01161227	0	0	0	0
7.865909	0.03789268	0.01161227	0	0	0	0
7.882474	0.03789268	0.01161227	0	0	0	0
7.899042	0.03789268	0.01161227	0	0	0	0
7.915612	0.03789268	0.01161227	0	0	0	0
7.932173	0.03789268	0.01161227	0	0	0	0
7.948742	0.03789268	0.01161227	0	0	0	0
7.965306	0.03789268	0.01161227	0	0	0	0
7.982541	0.03789268	0.01161227	0	0	0	0
7.999063	0.03789268	0.01161227	0	0	0	0
8.015079	0.03789268	0.01161227	0	0	0	0
8.031576	0.03789268	0.01161227	0	0	0	0
8.048148	0.03789268	0.01161227	0	0	0	0
8.064711	0.03789268	0.01161227	0	0	0	0
8.081633	0.03789268	0.01161227	0	0	0	0
8.098145	0.03789268	0.01161227	0	0	0	0
8.114411	0.03789268	0.01161227	0	0	0	0
8.130973	0.03789268	0.01161227	0	0	0	0
8.147673	0.03789268	0.01161227	0	0	0	0
8.164179	0.03789268	0.01161227	0	0	0	0
8.180673	0.03789268	0.01161227	0	0	0	0
8.197253	0.03789268	0.01161227	0	0	0	0
8.213806	0.03789268	0.01161227	0	0	0	0
8.230372	0.03789268	0.01161227	0	0	0	0
8.24694	0.03789268	0.01161227	0	0	0	0
8.263506	0.03789268	0.01161227	0	0	0	0
8.280072	0.03789268	0.01161227	0	0	0	0
8.296638	0.03789268	0.01161227	0	0	0	0
8.313205	0.03789268	0.01161227	0	0	0	0
8.32977	0.03789268	0.01161227	0	0	0	0
8.346416	0.03789268	0.01161227	0	0	0	0
8.363106	0.03789268	0.01161227	0	0	0	0
8.379471	0.03789268	0.01161227	0	0	0	0
8.396128	0.03789268	0.01161227	0	0	0	0
8.412643	0.03789268	0.01161227	0	0	0	0
8.429172	0.03789268	0.01161227	0	0	0	0
8.445739	0.03789268	0.01161227	0	0	0	0
8.462304	0.03789268	0.01161227	0	0	0	0
8.478871	0.03789268	0.01161227	0	0	0	0
8.495438	0.03789268	0.01161227	0	0	0	0
8.512004	0.03789268	0.01161227	0	0	0	0
8.528571	0.03789268	0.01161227	0	0	0	0
8.545137	0.03789268	0.01161227	0	0	0	0
8.562024	0.03789268	0.01161227	0	0	0	0
8.578272	0.03789268	0.01161227	0	0	0	0
8.594838	0.03789268	0.01161227	0	0	0	0
8.611403	0.03789268	0.01161227	0	0	0	0
8.628072	0.03789268	0.01161227	0	0	0	0
8.644587	0.03789268	0.01161227	0	0	0	0
8.661119	0.03789268	0.01161227	0	0	0	0
8.677672	0.03789268	0.01161227	0	0	0	0
8.694239	0.03789268	0.01161227	0	0	0	0
8.710806	0.03789268	0.01161227	0	0	0	0
8.727631	0.03789268	0.01161227	0	0	0	0
8.74394	0.03789268	0.01161227	0	0	0	0
8.760506	0.03789268	0.01161227	0	0	0	0
8.777073	0.03789268	0.01161227	0	0	0	0
8.793639	0.03789268	0.01161227	0	0	0	0
8.810205	0.03789268	0.01161227	0	0	0	0
8.826772	0.03789268	0.01161227	0	0	0	0
8.843338	0.03789268	0.01161227	0	0	0	0
8.859904	0.03789268	0.01161227	0	0	0	0
8.876471	0.03789268	0.01161227	0	0	0	0
8.893378	0.03789268	0.01161227	0	0	0	0
8.909878	0.03789268	0.01161227	0	0	0	0
8.926171	0.03789268	0.01161227	0	0	0	0
8.942738	0.03789268	0.01161227	0	0	0	0
8.959353	0.03789268	0.01161227	0	0	0	0
8.975869	0.03789268	0.01161227	0	0	0	0
8.992437	0.03789268	0.01161227	0	0	0	0
9.009005	0.03789268	0.01161227	0	0	0	0
9.025571	0.03789268	0.01161227	0	0	0	0
9.042137	0.03789268	0.01161227	0	0	0	0
9.05909	0.03789268	0.01161227	0	0	0	0
9.07527	0.03789268	0.01161227	0	0	0	0
9.091837	0.03789268	0.01161227	0	0	0	0
9.108405	0.03789268	0.01161227	0	0	0	0
9.12497	0.03789268	0.01161227	0	0	0	0
9.141649	0.03789268	0.01161227	0	0	0	0
9.158103	0.03789268	0.01161227	0	0	0	0
9.174669	0.03789268	0.01161227	0	0	0	0
9.191236	0.03789268	0.01161227	0	0	0	0
9.207802	0.03422565	0.01038993	-0.2213679	-0.07378934	-6.681281	-2.227095
9.224369	0.01222344	-0.0006111722	-1.328056	-0.6640277	-33.40182	-17.81445
9.241218	-0.0220022	-0.01161227	-2.031369	-0.65294	-21.04733	0.3318106
9.257504	-0.06845129	-0.02383572	-2.852105	-0.7505541	-24.76988	-2.946
9.274276	-0.1234568	-0.03361448	-3.27955	-0.5830312	-12.93008	5.06752
9.291266	-0.180907	-0.04461557	-3.38128	-0.6474791	-3.013078	-1.908837
9.307201	-0.223689	-0.05439433	-2.684796	-0.6136674	21.15329	1.026912
9.323769	-0.251803	-0.0592837	-1.696958	-0.2951231	30.39296	9.800707
9.340336	-0.2664711	-0.0617284	-0.8853723	-0.1475619	24.49372	4.453407
9.356901	-0.2738051	-0.06417308	-0.4427335	-0.1475784	13.35963	-0.0004992157
9.373812	-0.2774722	-0.06417309	-0.2168502	-4.405876E-07	6.747645	4.408488
9.390036	-0.2835839	-0.06661777	-0.376712	-0.1506841	-4.82464	-4.547641
9.406602	-0.2884733	-0.06784012	-0.2951399	-0.07378542	2.4877	2.345173
9.423168	-0.2970297	-0.07150715	-0.5164948	-0.2213549	-6.68089	-4.453913
9.439734	-0.3019191	-0.07395184	-0.2951417	-0.1475704	6.680835	2.22695
9.456301	-0.3068085	-0.07517418	-0.2951399	-0.07378497	5.486875E-05	2.226976
9.472867	-0.3068084	-0.07639652	1.798975E-06	-0.07378497	8.907906	0
9.489433	-0.3068084	-0.07639652	0	0	-5.429631E-05	2.226963
9.506208	-0.3068084	-0.07639652	0	0	0	0
9.522939	-0.3068084	-0.07639652	0	0	0	0
9.539133	-0.3104755	-0.08128591	-0.2264406	-0.3019193	-6.877539	-9.170006
9.555699	-0.3165872	-0.08617529	-0.3689249	-0.2951408	-4.349255	0.2069093
9.572277	-0.3202543	-0.08984232	-0.2212039	-0.2212021	4.456944	2.230831
9.588833	-0.322699	-0.09106466	-0.1476634	-0.07383172	2.219519	4.447775
9.605396	-0.322699	-0.09106466	0	0	4.458545	2.229272
9.621966	-0.322699	-0.09106466	0	0	0	0
9.638766	-0.322699	-0.09106466	0	0	0	0
9.655101	-0.322699	-0.09106466	0	0	0	0
9.671875	-0.322699	-0.09106466	0	0	0	0
9.688233	-0.322699	-0.09106466	0	0	0	0
9.704802	-0.322699	-0.09106466	0	0	0	0
9.721659	-0.322699	-0.09106466	0	0	0	0
9.738091	-0.3190319	-0.09106467	0.2231534	-4.533979E-07	6.703334	-1.361968E-05
9.754717	-0.3055861	-0.08739763	0.8087499	0.2205681	17.71412	6.672135
9.77107	-0.2848063	-0.08128591	1.270733	0.3737452	14.00879	4.644819
9.787636	-0.2395795	-0.06906246	2.73005	0.7378511	44.33066	11.06068
9.804202	-0.2016868	-0.0617284	2.287339	0.4427105	-13.36183	-8.907872
9.820769	-0.1576824	-0.05561668	2.65611	0.3689043	11.12985	-2.22754
9.837383	-0.113678	-0.04950495	2.648641	0.3678669	-0.2250956	-0.03126437
9.854053	-0.0794524	-0.04461557	2.053217	0.2933167	-17.88958	-2.239872
9.870469	-0.05378316	-0.04217089	1.563619	0.1489161	-14.79782	-4.364427
9.887033	-0.04033737	-0.03972619	0.8117297	0.1475874	-22.79772	-0.04028668
9.903603	-0.03544799	-0.0397262	0.2950896	-2.248331E-07	-15.59268	-4.454331
9.920169	-0.03544799	-0.0397262	0	0	-8.905565	6.785281E-06
9.936735	-0.03544799	-0.0397262	0	0	0	0
9.95366	-0.03544799	-0.0397262	0	0	0	0
9.969865	-0.03544799	-0.0397262	0	0	0	0
9.986434	-0.0330033	-0.03850385	0.1475445	0.07377245	4.501879	2.250946
10.003	-0.03178096	-0.03850386	0.07378519	-2.248719E-07	-2.225995	-2.2264
10.01967	-0.03055861	-0.03850385	0.07330832	2.234186E-07	-0.01434627	1.348635E-05
10.03624	-0.02811392	-0.03605916	0.1475448	0.1475447	2.233134	4.438338
10.0527	-0.02566924	-0.03605916	0.1485449	2.263574E-07	0.03028176	-4.46743
10.0693	-0.01955751	-0.03239213	0.3681627	0.2208973	6.643373	6.682074
10.08583	-0.01344579	-0.02750275	0.3697343	0.2957875	0.04743901	2.26045
10.1024	-0.0110011	-0.02628041	0.1475617	0.07378083	-6.71272	-6.707704
10.11897	-0.006111723	-0.02261337	0.2951404	0.2213554	4.454063	4.453936
10.13553	0	-0.01894634	0.3689256	0.2213553	2.226969	-3.148207E-06
10.1521	0	-0.01894634	0	0	-11.13452	-6.680707
10.16897	0.001222344	-0.01894634	0.07245865	0	2.167035	0
10.18523	0.001222344	-0.01894634	0	0	-2.186869	0
10.2018	0.001222344	-0.01894634	0	0	0	0
10.21837	0.001222344	-0.01894634	0	0	0	0
10.23493	0.001222344	-0.01894634	0	0	0	0
10.2515	0.001222344	-0.01894634	0	0	0	0
10.26807	0.001222344	-0.01894634	0	0	0	0
10.28463	0.001222344	-0.01894634	0	0	0	0
10.3012	0.001222344	-0.01894634	0	0	0	0
10.31777	0.001222344	-0.01894634	0	0	0	0
10.33433	0.001222344	-0.01894634	0	0	0	0
10.3511	0.001222344	-0.01894634	0	0	0	0
10.36747	0.001222344	-0.01894634	0	0	0	0
10.38403	0.001222344	-0.01894634	0	0	0	0
10.4006	0.001222344	-0.01894634	0	0	0	0
10.41716	0.001222344	-0.01894634	0	0	0	0
10.43373	0.001222344	-0.01894634	0	0	0	0
10.45039	0.001222344	-0.01894634	0	0	0	0
10.46686	0.001222344	-0.01894634	0	0	0	0
10.48373	0.001222344	-0.01894634	0	0	0	0
10.5	0.001222344	-0.01894634	0	0	0	0
10.51656	0.001222344	-0.01894634	0	0	0	0
10.53321	0.001222344	-0.01894634	0	0	0	0
10.5497	0.001222344	-0.01894634	0	0	0	0
10.56626	0.001222344	-0.01894634	0	0	0	0
10.58283	0.001222344	-0.01894634	0	0	0	0
10.59939	0.001222344	-0.01894634	0	0	0	0
10.61622	0.001222344	-0.01894634	0	0	0	0
10.63253	0.001222344	-0.01894634	0	0	0	0
10.6491	0.001222344	-0.01894634	0	0	0	0
10.6661	0.001222344	-0.01894634	0	0	0	0
10.68241	0.001222344	-0.01894634	0	0	0	0
10.6988	0.001222344	-0.01894634	0	0	0	0
10.71536	0.001222344	-0.01894634	0	0	0	0
10.73214	0.001222344	-0.01894634	0	0	0	0
10.7485	0.001222344	-0.01894634	0	0	0	0
10.76534	0.001222344	-0.01894634	0	0	0	0
10.78163	0.001222344	-0.01894634	0	0	0	0
10.79882	0.001222344	-0.01894634	0	0	0	0
10.81476	0.001222344	-0.01894634	0	0	0	0
10.83148	0.001222344	-0.01894634	0	0	0	0
10.8479	0.001222344	-0.01894634	0	0	0	0
10.86447	0.001222344	-0.01894634	0	0	0	0
10.88132	0.001222344	-0.01894634	0	0	0	0
10.8976	0.001222344	-0.01894634	0	0	0	0
10.91417	0.001222344	-0.01894634	0	0	0	0
10.93518	0.001222344	-0.01894634	0	0	0	0
10.95175	0.001222344	-0.01894634	0	0	0	0
10.96885	0.001222344	-0.01894634	0	0	0	0
10.98488	0.001222344	-0.01894634	0	0	0	0
11.00145	0.001222344	-0.01894634	0	0	0	0
11.01831	0.001222344	-0.01894634	0	0	0	0
11.03477	0.001222344	-0.01894634	0	0	0	0
11.05181	0.001222344	-0.01894634	0	0	0	0
11.06771	0.001222344	-0.01894634	0	0	0	0
11.08428	0.001222344	-0.01894634	0	0	0	0
11.10085	0.001222344	-0.01894634	0	0	0	0
11.11741	0.001222344	-0.01894634	0	0	0	0
11.13398	0.001222344	-0.01894634	0	0	0	0
11.15055	0.001222344	-0.01894634	0	0	0	0
11.16717	0.001222344	-0.01894634	0	0	0	0
11.18368	0.001222344	-0.01894634	0	0	0	0
11.20068	0.001222344	-0.01894634	0	0	0	0
11.21723	0.001222344	-0.01894634	0	0	0	0
11.23338	0.001222344	-0.01894634	0	0	0	0
11.25063	0.001222344	-0.01894634	0	0	0	0
11.26668	0.001222344	-0.01894634	0	0	0	0
11.28308	0.001222344	-0.01894634	0	0	0	0
11.29965	0.001222344	-0.01894634	0	0	0	0
11.31621	0.001222344	-0.01894634	0	0	0	0
11.33278	0.001222344	-0.01894634	0	0	0	0
11.34935	0.001222344	-0.01894634	0	0	0	0
11.36591	0.001222344	-0.01894634	0	0	0	0
11.38248	0.001222344	-0.01894634	0	0	0	0
11.39979	0.001222344	-0.01894634	0	0	0	0
11.41561	0.001222344	-0.01894634	0	0	0	0
11.43218	0.001222344	-0.01894634	0	0	0	0
11.44875	0.001222344	-0.01894634	0	0	0	0
11.46531	0.001222344	-0.01894634	0	0	0	0
11.48188	0.001222344	-0.01894634	0	0	0	0
11.49845	0.001222344	-0.01894634	0	0	0	0
11.5152	0.001222344	-0.01894634	0	0	0	0
11.5318	0.001222344	-0.01894634	0	0	0	0
11.54815	0.001222344	-0.01894634	0	0	0	0
11.56631	0.001222344	-0.01894634	0	0	0	0
11.58288	0.001222344	-0.01894634	0	0	0	0
11.59955	0.001222344	-0.01894634	0	0	0	0
11.61601	0.001222344	-0.01894634	0	0	0	0
11.63315	0.001222344	-0.01894634	0	0	0	0
11.64915	0.001222344	-0.01894634	0	0	0	0
11.66624	0.001222344	-0.01894634	0	0	0	0
11.68228	0.001222344	-0.01894634	0	0	0	0
11.69885	0.001222344	-0.01894634	0	0	0	0
11.71542	0.001222344	-0.01894634	0	0	0	0
11.73267	0.001222344	-0.01894634	0	0	0	0
11.74855	0.001222344	-0.01894634	0	0	0	0
11.76511	0.001222344	-0.01894634	0	0	0	0
11.78172	0.001222344	-0.01894634	0	0	0	0
11.79824	0.001222344	-0.01894634	0	0	0	0
11.81481	0.001222344	-0.01894634	0	0	0	0
11.83188	0.001222344	-0.01894634	0	0	0	0
11.84795	0.001222344	-0.01894634	0	0	0	0
11.86451	0.001222344	-0.01894634	0	0	0	0
11.88142	0.001222344	-0.01894634	0	0	0	0
11.89764	0.001222344	-0.01894634	0	0	0	0
11.91429	0.001222344	-0.01894634	0	0	0	0
11.93086	0.001222344	-0.01894634	0	0	0	0
11.94756	0.001222344	-0.01894634	0	0	0	0
11.96407	0.001222344	-0.01894634	0	0	0	0
11.98048	0.001222344	-0.01894634	0	0	0	0
11.99711	0.001222344	-0.01894634	0	0	0	0
12.01404	0.001222344	-0.01894634	0	0	0	0
12.03018	0.001222344	-0.01894634	0	0	0	0
12.04675	0.001222344	-0.01894634	0	0	0	0
12.06332	0.001222344	-0.01894634	0	0	0	0
12.08025	0.001222344	-0.01894634	0	0	0	0
12.09651	0.001222344	-0.01894634	0	0	0	0
12.11341	0.001222344	-0.01894634	0	0	0	0
12.12958	0.001222344	-0.01894634	0	0	0	0
12.14614	0.001222344	-0.01894634	0	0	0	0
12.16271	0.001222344	-0.01894634	0	0	0	0
12.17928	0.001222344	-0.01894634	0	0	0	0
12.19584	0.001222344	-0.01894634	0	0	0	0
12.21241	0.001222344	-0.01894634	0	0	0	0
12.22897	0.001222344	-0.01894634	0	0	0	0
12.24554	0.001222344	-0.01894634	0	0	0	0
12.26242	0.001222344	-0.01894634	0	0	0	0
12.27868	0.001222344	-0.01894634	0	0	0	0
12.29524	0.001222344	-0.01894634	0	0	0	0
12.31196	0.001222344	-0.01894634	0	0	0	0
12.32838	0.001222344	-0.01894634	0	0	0	0
12.34494	0.001222344	-0.01894634	0	0	0	0
12.36214	0.001222344	-0.01894634	0	0	0	0
12.37809	0.001222344	-0.01894634	0	0	0	0
12.39464	0.001222344	-0.01894634	0	0	0	0
12.41121	0.001222344	-0.01894634	0	0	0	0
12.42821	0.001222344	-0.01894634	0	0	0	0
12.44434	0.001222344	-0.01894634	0	0	0	0
12.46091	0.001222344	-0.01894634	0	0	0	0
12.47747	0.001222344	-0.01894634	0	0	0	0
12.49404	0.001222344	-0.01894634	0	0	0	0
12.51061	0.001222344	-0.01894634	0	0	0	0
12.52717	0.001222344	-0.01894634	0	0	0	0
12.54374	0.001222344	-0.01894634	0	0	0	0
12.56031	0.001222344	-0.01894634	0	0	0	0
12.57687	0.001222344	-0.01894634	0	0	0	0
12.59344	0.001222344	-0.01894634	0	0	0	0
12.61056	0.001222344	-0.01894634	0	0	0	0
12.6269	0.001222344	-0.01894634	0	0	0	0
12.6432	0.001222344	-0.01894634	0	0	0	0
12.69201	0.001222344	-0.01894634	0	0	0	0
12.70858	0.001222344	-0.01894634	0	0	0	0
12.72515	0.001222344	-0.01894634	0	0	0	0
12.74171	0.001222344	-0.01894634	0	0	0	0
12.75828	0.001222344	-0.01894634	0	0	0	0
12.77484	0.001222344	-0.01894634	0	0	0	0
12.79141	0.001222344	-0.01894634	0	0	0	0
12.80801	0.001222344	-0.01894634	0	0	0	0
12.82454	0.001222344	-0.01894634	0	0	0	0
12.84111	0.001222344	-0.01894634	0	0	0	0
12.85768	0.001222344	-0.01894634	0	0	0	0
12.87424	0.001222344	-0.01894634	0	0	0	0
12.89081	0.001222344	-0.01894634	0	0	0	0
12.91203	0.001222344	-0.01894634	0	0	0	0
12.9286	0.001222344	-0.01894634	0	0	0	0
12.94519	0.001222344	-0.01894634	0	0	0	0
12.96187	0.001222344	-0.01894634	0	0	0	0
12.9785	0.001222344	-0.01894634	0	0	0	0
12.99486	0.001222344	-0.01894634	0	0	0	0
13.01143	0.001222344	-0.01894634	0	0	0	0
13.02834	0.001222344	-0.01894634	0	0	0	0
13.04456	0	-0.01527931	-0.07535546	0.2260664	-2.274363	6.823092
13.06113	-0.002444689	-0.01283462	-0.1475617	0.1475617	-2.202197	-2.394292
13.0777	-0.006111723	-0.006722894	-0.2213426	0.3689043	-2.226712	6.680132
13.09426	-0.007334067	-0.006722894	-0.07378508	2.810899E-08	4.453423	-11.13387
13.11083	-0.007334067	-0.006722894	0	0	2.226966	-8.483798E-07
13.12748	-0.007334067	-0.006722894	0	0	0	0
13.14405	-0.009778757	-0.004278206	-0.1475618	0.1475617	-4.442299	4.442297
13.16053	-0.01955751	0.009167584	-0.5933207	0.815816	-13.48797	20.22033
13.1771	-0.03667033	0.03239213	-1.032932	1.401836	-13.30195	17.73206
13.19369	-0.05622784	0.05806136	-1.178662	1.546993	-4.394715	4.377448
13.21023	-0.07945239	0.08984232	-1.404099	1.921399	-6.803917	11.29992
13.22718	-0.1051216	0.124068	-1.51427	2.019027	-3.289466	2.914932
13.24336	-0.1271238	0.1558489	-1.359675	1.963976	4.665843	-1.661479
13.25993	-0.1430143	0.1766288	-0.9592625	1.254419	12.22734	-21.66765
13.27649	-0.1527931	0.1900746	-0.5902467	0.8115898	11.13756	-13.3654
13.29324	-0.1613495	0.2010757	-0.5110239	0.6570314	2.378284	-4.639877
13.30963	-0.1674612	0.2120768	-0.372832	0.6710969	4.170401	0.4244733
13.32647	-0.1747953	0.2218555	-0.4355144	0.5806858	-1.886166	-2.720546
13.34276	-0.1796846	0.2291896	-0.3000814	0.4501216	4.087492	-3.940547
13.35933	-0.1796846	0.2291896	0	0	9.132438	-13.69864
13.37592	-0.1796846	0.2291896	0	0	0	0
13.39246	-0.1796846	0.2291896	0	0	0	0
13.40903	-0.1796846	0.2291896	0	0	0	0
13.4256	-0.1796846	0.2291896	0	0	0	0
13.44216	-0.1796846	0.2291896	0	0	0	0
13.45915	-0.1796846	0.2291896	0	0	0	0
13.4753	-0.1796846	0.2291896	0	0	0	0
13.49186	-0.1796846	0.2291896	0	0	0	0
13.50843	-0.1796846	0.2291896	0	0	0	0
13.52503	-0.1796846	0.2291896	0	0	0	0
13.54207	-0.1796846	0.2291896	0	0	0	0
13.56509	-0.1796846	0.2291896	0	0	0	0
13.58166	-0.1735729	0.2243002	0.3688408	-0.2950729	9.31744	-7.453957
13.59823	-0.1699059	0.2206332	0.2213549	-0.2213549	-4.450877	2.224684
13.61479	-0.1637942	0.2157438	0.3688833	-0.2951059	4.452415	-2.225809
13.63146	-0.1430143	0.1925192	1.247095	-1.393814	26.42767	-33.06297
13.64867	-0.1259015	0.1717394	0.9939132	-1.206893	-7.472856	5.517107
13.6645	-0.106344	0.1485149	1.236138	-1.467915	7.331462	-7.90038
13.68117	-0.08311942	0.124068	1.392538	-1.465829	4.812405	0.06416529
13.69771	-0.06478426	0.1045105	1.108627	-1.182536	-8.547287	8.528711
13.7142	-0.04889378	0.08617529	0.9640347	-1.112348	-4.378682	2.125487
13.73076	-0.03789268	0.07395184	0.6639894	-0.7377661	-9.078115	11.33328
13.74733	-0.0330033	0.06784011	0.2951745	-0.3689682	-11.1315	11.13098
13.7639	-0.03055861	0.06417309	0.1475447	-0.2213167	-4.455606	4.456261
13.78109	-0.02811392	0.0617284	0.1421687	-0.1421688	-0.1592192	2.344093
13.79726	-0.02689158	0.05928371	0.07560425	-0.1512087	-1.995137	-0.2709542
13.8136	-0.02444689	0.05561667	0.1496202	-0.2244303	2.276929	-2.25249
13.83039	-0.0220022	0.05194964	0.1456335	-0.2184502	-0.1203501	0.1805262
13.84673	-0.02077986	0.04950495	0.07477526	-0.1495505	-2.138569	2.079456
13.86341	-0.01955751	0.04828261	0.0733124	-0.07331229	-0.04430205	2.308848
13.88008	-0.01833517	0.04706026	0.07329563	-0.07329574	-0.0005028864	0.0004961842
13.8967	-0.01833517	0.04706026	0	0	-2.201233	2.201236
13.913	-0.01833517	0.04583792	0	-0.07501134	0	-2.278867
13.92961	-0.01711282	0.04339323	0.07359866	-0.1471975	2.236792	-2.193865
13.94618	-0.01589048	0.04217089	0.07373839	-0.07373828	0.004210582	2.213628
13.96286	-0.01466813	0.03972619	0.07327898	-0.146558	-0.01381374	-2.189573
13.97927	-0.01344579	0.03972619	0.0745187	0	0.03747212	4.429885
13.99583	-0.01344579	0.03850385	-1.124554E-07	-0.07379772	-2.260433	-2.238559
14.0124	-0.01344579	0.03850385	0	0	3.394301E-06	2.227476
14.02896	-0.01344579	0.03850385	0	0	0	0
14.04599	-0.01344579	0.03850385	0	0	0	0
14.06211	-0.01344579	0.03850385	0	0	0	0
14.07898	-0.01222344	0.03728151	0.0724423	-0.07244236	2.195983	-2.195985
14.09523	-0.01222344	0.03483682	0	-0.1504279	-2.186942	-2.354285
14.11179	-0.0110011	0.03483682	0.07379358	0	2.248712	4.583989
14.12843	-0.008556412	0.03239213	0.1469695	-0.1469695	2.204204	-4.427011
14.14518	-0.008556411	0.02994744	5.560973E-08	-0.1459737	-4.402727	0.02983137
14.16149	-0.006111722	0.02994744	0.1498125	1.141444E-07	4.530737	4.414646
14.17806	-0.006111722	0.0287251	0	-0.07377245	-4.555307	-2.243182
14.19494	-0.006111722	0.0287251	0	0	0	2.205572
14.2112	-0.006111722	0.0287251	0	0	0	0
14.23086	-0.006111722	0.0287251	0	0	0	0
14.24745	-0.006111722	0.0287251	0	0	0	0
14.26399	-0.006111722	0.0287251	0	0	0	0
14.28057	-0.006111722	0.0287251	0	0	0	0
14.29713	-0.006111722	0.0287251	0	0	0	0
14.31369	-0.006111722	0.0287251	0	0	0	0
14.33026	-0.006111722	0.0287251	0	0	0	0
14.34714	-0.006111722	0.0287251	0	0	0	0
14.36372	-0.006111722	0.0287251	0	0	0	0
14.37996	-0.006111722	0.0287251	0	0	0	0
14.39653	-0.006111722	0.0287251	0	0	0	0
14.41322	-0.006111722	0.0287251	0	0	0	0
14.42973	-0.006111722	0.0287251	0	0	0	0
14.44623	-0.006111722	0.0287251	0	0	0	0
14.4628	-0.006111722	0.0287251	0	0	0	0
14.47937	-0.006111722	0.0287251	0	0	0	0
14.49593	-0.006111722	0.0287251	0	0	0	0
14.5125	-0.006111722	0.0287251	0	0	0	0
14.52906	-0.006111722	0.0287251	0	0	0	0
14.54603	-0.006111722	0.0287251	0	0	0	0
14.56258	-0.006111722	0.0287251	0	0	0	0
14.57887	-0.004889378	0.0287251	0.07502026	0	2.284499	0
14.59533	-0.002444689	0.02750275	0.1485451	-0.07427263	2.244958	-2.267792
14.6119	-0.001222344	0.02750275	0.07376812	2.248201E-07	-2.264071	2.248808
14.62874	-0.001222344	0.02628041	0	-0.07257773	-2.207834	-2.172214
14.64503	0	0.02628041	0.07504661	0	2.265237	2.190716
14.66171	0	0.02628041	0	0	-2.276575	0
14.67816	0	0.02628041	0	0	0	0
14.69473	0.001222344	0.02628041	0.07379785	0	2.234878	0
14.71145	0.001222344	0.02628041	0	0	-2.216887	0
14.72787	0.002444689	0.0262804	0.07444941	-1.134482E-07	2.246241	-3.42289E-06
14.74443	0.002444689	0.02505806	0	-0.07381047	-2.257478	-2.238101
14.761	0.002444689	0.02505806	0	0	0	2.228117
14.77756	0.002444689	0.02505806	0	0	0	0
14.79413	0.002444689	0.02505806	0	0	0	0
14.8107	0.002444689	0.02505806	0	0	0	0
14.82726	0.003667034	0.02505806	0.07378511	0	2.226839	0
14.84386	0.003667034	0.02505806	0	0	-2.224726	0
14.86085	0.003667034	0.02505806	0	0	0	0
14.87895	0.003667034	0.02505806	0	0	0	0
14.89552	0.003667034	0.02505806	0	0	0	0
14.91209	0.003667034	0.02505806	0	0	0	0
14.9288	0.003667034	0.02505806	0	0	0	0
14.94522	0.003667034	0.02505806	0	0	0	0
14.96179	0.003667034	0.02505806	0	0	0	0
14.97836	0.003667034	0.02505806	0	0	0	0
14.99492	0.003667034	0.02505806	0	0	0	0
15.01149	0.003667034	0.02505806	0	0	0	0
15.02806	0.003667034	0.02505806	0	0	0	0
15.04462	0.003667034	0.02505806	0	0	0	0
15.06142	0.003667034	0.02505806	0	0	0	0
15.07776	0.003667034	0.02383572	0	-0.07484075	0	-2.258893
15.09432	0.003667034	0.02261337	1.405449E-08	-0.07378497	4.272025E-07	0.03209156
15.11118	0.003667034	0.02261337	0	0	-4.205103E-07	2.207646
15.12746	0.003667034	0.02261337	0	0	0	0
15.14466	0.003667034	0.02261337	0	0	0	0
15.16059	0.004889378	0.02261337	0.07670381	-1.168836E-07	2.314926	-3.527554E-06
15.17716	0.004889378	0.02261337	0	0	-2.360098	3.596389E-06
15.19372	0.004889378	0.02261337	0	0	0	0
15.21029	0.004889378	0.02261337	0	0	0	0
15.22685	0.004889378	0.02261337	0	0	0	0
15.24342	0.004889378	0.02261337	0	0	0	0
15.25999	0.004889378	0.02261337	0	0	0	0
15.27656	0.004889378	0.02261337	0	0	0	0
15.29312	0.004889378	0.02261337	0	0	0	0
15.30969	0.004889378	0.02261337	0	0	0	0
15.32626	0.004889378	0.02261337	0	0	0	0
15.34461	0.004889378	0.02261337	0	0	0	0
15.36118	0.004889378	0.02261337	0	0	0	0
15.37798	0.004889378	0.02261337	0	0	0	0
15.39431	0.004889378	0.02261337	0	0	0	0
15.41088	0.004889378	0.02261337	0	0	0	0
15.42804	0.004889378	0.02261337	0	0	0	0
15.44401	0.004889378	0.02261337	0	0	0	0
15.46058	0.004889378	0.02261337	0	0	0	0
15.47714	0.004889378	0.02261337	0	0	0	0
15.49371	0.004889378	0.02261337	0	0	0	0
15.51028	0.004889378	0.02261337	0	0	0	0
15.52733	0.004889378	0.02261337	0	0	0	0
15.54341	0.004889378	0.02261337	0	0	0	0
15.56013	0.004889378	0.02261337	0	0	0	0
15.5766	0.004889378	0.02261337	0	0	0	0
15.59311	0.004889378	0.02261337	0	0	0	0
15.60968	0.004889378	0.02261337	0	0	0	0
15.62625	0.004889378	0.02261337	0	0	0	0
15.64281	0.004889378	0.02261337	0	0	0	0
15.65938	0.004889378	0.02261337	0	0	0	0
15.67601	0.004889378	0.02261337	0	0	0	0
15.69251	0.004889378	0.02261337	0	0	0	0
15.70908	0.004889378	0.02261337	0	0	0	0
15.72565	0.004889378	0.02261337	0	0	0	0
15.7425	0.004889378	0.02261337	0	0	0	0
15.75886	0.004889378	0.02261337	0	0	0	0
15.77556	0.004889378	0.02261337	0	0	0	0
15.79191	0.004889378	0.02261337	0	0	0	0
15.80874	0.004889378	0.02261337	0	0	0	0
15.82516	0.004889378	0.02261337	0	0	0	0
15.84173	0.004889378	0.02261337	0	0	0	0
15.85845	0.004889378	0.02261337	0	0	0	0
15.87493	0.004889378	0.02261337	0	0	0	0
15.89191	0.004889378	0.02261337	0	0	0	0
15.90788	0.004889378	0.02261337	0	0	0	0
15.92445	0.004889378	0.02261337	0	0	0	0
15.94101	0.004889378	0.02261337	0	0	0	0
15.95758	0.004889378	0.02261337	0	0	0	0
15.97415	0.004889378	0.02261337	0	0	0	0
15.99071	0.004889378	0.02261337	0	0	0	0
16.00728	0.004889378	0.02261337	0	0	0	0
16.02462	0.004889378	0.02261337	0	0	0	0
16.04058	0.004889378	0.02261337	0	0	0	0
16.05708	0.004889378	0.02261337	0	0	0	0
16.07354	0.004889378	0.02261337	0	0	0	0
16.09061	0.004889378	0.02261337	0	0	0	0
16.10668	0.004889378	0.02261337	0	0	0	0
16.12347	0.004889378	0.02261337	0	0	0	0
16.14007	0.004889378	0.02261337	0	0	0	0
16.1566	0.004889378	0.02261337	0	0	0	0
16.17294	0.004889378	0.02261337	0	0	0	0
16.18951	0.004889378	0.02261337	0	0	0	0
16.20608	0.004889378	0.02261337	0	0	0	0
16.22264	0.004889378	0.02261337	0	0	0	0
16.23921	0.004889378	0.02261337	0	0	0	0
16.25578	0.004889378	0.02261337	0	0	0	0
16.27302	0.004889378	0.02261337	0	0	0	0
16.28891	0.004889378	0.02261337	0	0	0	0
16.30548	0.004889378	0.02261337	0	0	0	0
16.32205	0.004889378	0.02261337	0	0	0	0
16.33862	0.004889378	0.02261337	0	0	0	0
16.35518	0.004889378	0.02261337	0	0	0	0
16.37175	0.004889378	0.02261337	0	0	0	0
16.38831	0.004889378	0.02261337	0	0	0	0
16.40495	0.004889378	0.02261337	0	0	0	0
16.42145	0.004889378	0.02261337	0	0	0	0
16.43801	0.004889378	0.02261337	0	0	0	0
16.45458	0.004889378	0.02261337	0	0	0	0
16.47184	0.004889378	0.02261337	0	0	0	0
16.48771	0.004889378	0.02261337	0	0	0	0
16.50428	0.004889378	0.02261337	0	0	0	0
16.52085	0.004889378	0.02261337	0	0	0	0
16.53741	0.004889378	0.02261337	0	0	0	0
16.55398	0.004889378	0.02261337	0	0	0	0
16.57055	0.004889378	0.02261337	0	0	0	0
16.58712	0.004889378	0.02261337	0	0	0	0
16.60376	0.004889378	0.02261337	0	0	0	0
16.62025	0.004889378	0.02261337	0	0	0	0
16.63697	0.004889378	0.02261337	0	0	0	0
16.65348	0.004889378	0.02261337	0	0	0	0
16.66999	0.004889378	0.02261337	0	0	0	0
16.68652	0.004889378	0.02261337	0	0	0	0
16.70353	0.004889378	0.02261337	0	0	0	0
16.71965	0.004889378	0.02261337	0	0	0	0
16.73622	0.004889378	0.02261337	0	0	0	0
16.75279	0.004889378	0.02261337	0	0	0	0
16.76935	0.004889378	0.02261337	0	0	0	0
16.78592	0.004889378	0.02261337	0	0	0	0
16.80248	0.004889378	0.02261337	0	0	0	0
16.81905	0.004889378	0.02261337	0	0	0	0
16.83844	0.004889378	0.02261337	0	0	0	0
16.85501	0.004889378	0.02261337	0	0	0	0
16.87158	0.004889378	0.02261337	0	0	0	0
16.88815	0.004889378	0.02261337	0	0	0	0
16.90471	0.004889378	0.02261337	0	0	0	0
16.92128	0.004889378	0.02139103	2.810737E-08	-0.07378083	8.48331E-07	-2.226838
16.93785	-0.006111722	0.01772399	-0.6641042	-0.2213681	-20.04386	-4.454449
16.9545	-0.02322455	0.009167584	-1.027491	-0.5137452	-10.93869	-8.801162
16.97102	-0.0440044	0.0006111723	-1.25804	-0.5180166	-6.950006	-0.1287625
16.98755	-0.07334067	-0.01038993	-1.774827	-0.6655602	-15.63806	-4.464697
17.00411	-0.106344	-0.02016868	-1.992083	-0.5902469	-6.564359	2.275582
17.02069	-0.1393473	-0.0287251	-1.991395	-0.5162877	0.0207554	2.231707
17.03725	-0.1650165	-0.03483682	-1.550112	-0.3690743	13.31873	4.443166
17.05396	-0.1857964	-0.0397262	-1.24368	-0.2926305	9.210999	2.297817
17.07038	-0.2029092	-0.04461558	-1.041807	-0.2976595	6.092563	-0.1517735
17.08698	-0.2346901	-0.05561667	-1.914555	-0.6627303	-26.42631	-11.05413
17.10351	-0.2542477	-0.06050606	-1.183082	-0.2957708	22.07844	11.07614
17.12008	-0.2652487	-0.06417309	-0.6640265	-0.2213424	15.68228	2.248712
17.13665	-0.2835839	-0.06906246	-1.106714	-0.2951233	-13.36035	-2.226713
17.15321	-0.3019191	-0.07395184	-1.106713	-0.2951233	5.396615E-05	0
17.16982	-0.3165872	-0.07884122	-0.8831319	-0.2943777	6.739149	0.02247363
17.18635	-0.3288107	-0.08250826	-0.739599	-0.2218795	4.331581	2.187875
17.20292	-0.3483682	-0.08984232	-1.180492	-0.4426848	-13.32227	-6.671982
17.21948	-0.3642587	-0.09717639	-0.959153	-0.4426852	6.680011	-1.349154E-05
17.23605	-0.3789268	-0.1032881	-0.8855726	-0.368989	2.220916	2.224413
17.25304	-0.3838162	-0.1069551	-0.2877034	-0.215778	17.81605	4.565573
17.26918	-0.3862609	-0.1069551	-0.1515052	4.617317E-07	4.110942	6.512957
17.28575	-0.3862609	-0.1069551	0	0	4.632706	-1.411877E-05
17.30231	-0.3862609	-0.1069551	0	0	0	0
17.31888	-0.3862609	-0.1069551	0	0	0	0
17.33545	-0.3862609	-0.1069551	0	0	0	0
17.35201	-0.3862609	-0.1069551	0	0	0	0
17.36868	-0.3862609	-0.1069551	0	0	0	0
17.38515	-0.3862609	-0.1069551	0	0	0	0
17.40171	-0.3789268	-0.1045105	0.4427371	0.147578	13.40505	4.468317
17.41828	-0.3581469	-0.0947317	1.254274	0.5902472	24.49365	13.36055
17.43485	-0.330033	-0.0837306	1.69696	0.6640274	13.36029	2.226692
17.45141	-0.2628041	-0.05928371	4.058413	1.475787	71.27287	24.50036
17.46798	-0.2114656	-0.04094854	3.099154	1.10684	-28.9538	-11.13611
17.48455	-0.1515707	-0.02016868	3.614429	1.253986	15.55014	4.440601
17.50113	-0.1369026	-0.01405696	0.884862	0.3686921	-82.34533	-26.70746
17.51768	-0.110011	-0.004278206	1.6243	0.5906548	22.31758	6.699232
17.53504	-0.09045349	0.003055861	1.12654	0.4224526	-14.67605	-4.959308
17.5513	-0.0794524	0.00794524	0.6766474	0.3007323	-13.38213	-3.620586
17.56753	-0.0660066	0.01283462	0.8282773	0.3011917	4.666732	0.01413725
17.58399	-0.06233957	0.01405696	0.2228045	0.07426826	-18.52055	-6.941262
17.60052	-0.05989488	0.01405696	0.1479537	-1.12728E-07	-2.269454	-2.251794
17.61708	-0.05256081	0.01650165	0.4426341	0.1475447	8.90475	4.458559
17.63366	-0.04767144	0.01894634	0.2949875	0.1474939	-4.4547	-0.001534895
17.65022	-0.0440044	0.02016868	0.2214959	0.07383184	-2.218238	-2.22338
17.66678	-0.03911503	0.02139103	0.2950892	0.07377234	2.22169	-0.001796241
17.68379	-0.03667033	0.02139103	0.1437876	0	-4.50688	-2.197486
17.70001	-0.0330033	0.02139103	0.226	1.147952E-07	2.474197	3.45478E-06
17.71648	-0.02933627	0.02261337	0.2226756	0.07422519	-0.1016833	2.270306
17.73305	-0.02566924	0.02383572	0.2213425	0.07378072	-0.04035301	-0.01345446
17.74972	-0.02322455	0.02383572	0.1466501	1.117348E-07	-2.247237	-2.219803
17.76618	-0.02077986	0.02383572	0.1485021	-1.131459E-07	0.05589776	-6.787306E-06
17.78275	-0.02077986	0.02383572	0	0	-4.495778	3.425399E-06
17.7996	-0.01955751	0.02383572	0.07252822	1.105209E-07	2.170044	3.306784E-06
17.81588	-0.01833517	0.02383572	0.07509507	0	0.07747666	-3.335911E-06
17.83245	-0.01833517	0.02383572	0	0	-2.286512	0
17.84901	-0.01833517	0.02383572	0	0	0	0
17.86558	-0.01711282	0.02383572	0.07378095	-1.124295E-07	2.226713	-3.393129E-06
17.88215	-0.01589048	0.02383572	0.07378083	0	-3.372885E-06	3.393129E-06
17.89878	-0.01589048	0.02383572	0	0	-2.22236	0
17.91528	-0.01589048	0.02383572	0	0	0	0
17.93229	-0.01589048	0.02383572	0	0	0	0
17.94841	-0.01589048	0.02383572	0	0	0	0
17.96498	-0.01589048	0.02383572	0	0	0	0
17.98155	-0.01589048	0.02383572	0	0	0	0
17.99812	-0.01589048	0.02383572	0	0	0	0
18.01468	-0.01589048	0.02383572	0	0	0	0
18.03125	-0.01589048	0.02383572	0	0	0	0
18.04801	-0.01589048	0.02383572	0	0	0	0
18.06439	-0.01589048	0.02383572	0	0	0	0
18.08104	-0.01589048	0.02383572	0	0	0	0
18.14894	-0.01589048	0.02383572	0	0	0	0
18.1659	-0.01589048	0.02383572	0	0	0	0
18.19479	-0.01589048	0.02383572	0	0	0	0
18.21142	-0.01589048	0.02383572	0	0	0	0
18.22794	-0.01589048	0.02383572	0	0	0	0
18.2445	-0.01589048	0.02383572	0	0	0	0
18.26106	-0.01589048	0.02383572	0	0	0	0
18.27763	-0.01589048	0.02383572	0	0	0	0
18.2942	-0.01589048	0.02383572	0	0	0	0
18.31076	-0.01589048	0.02383572	0	0	0	0
18.32733	-0.01589048	0.02383572	0	0	0	0
18.3439	-0.01589048	0.02383572	0	0	0	0
18.36046	-0.01589048	0.02383572	0	0	0	0
18.37798	-0.01589048	0.02383572	0	0	0	0
18.3936	-0.01589048	0.02383572	0	0	0	0
18.41017	-0.01589048	0.02383572	0	0	0	0
18.42673	-0.01589048	0.02383572	0	0	0	0
18.4433	-0.01589048	0.02383572	0	0	0	0
18.46014	-0.01589048	0.02383572	0	0	0	0
18.47643	-0.01589048	0.02383572	0	0	0	0
18.493	-0.01589048	0.02383572	0	0	0	0
18.50957	-0.01589048	0.02383572	0	0	0	0
18.52613	-0.01589048	0.02383572	0	0	0	0
18.5427	-0.01589048	0.02383572	0	0	0	0
18.55964	-0.01589048	0.02383572	0	0	0	0
18.57584	-0.01589048	0.02383572	0	0	0	0
18.59249	-0.01589048	0.02383572	0	0	0	0
18.60897	-0.01589048	0.02383572	0	0	0	0
18.62553	-0.01589048	0.02383572	0	0	0	0
18.64251	-0.01589048	0.02383572	0	0	0	0
18.65873	-0.01589048	0.02383572	0	0	0	0
18.67524	-0.01589048	0.02383572	0	0	0	0
18.6918	-0.01589048	0.02383572	0	0	0	0
18.70837	-0.01589048	0.02383572	0	0	0	0
18.72494	-0.01589048	0.02383572	0	0	0	0
18.7422	-0.01589048	0.02383572	0	0	0	0
18.75807	-0.01589048	0.02383572	0	0	0	0
18.77464	-0.01589048	0.02383572	0	0	0	0
18.79121	-0.01589048	0.02383572	0	0	0	0
18.80777	-0.01589048	0.02383572	0	0	0	0
18.82448	-0.01589048	0.02383572	0	0	0	0
18.8411	-0.01589048	0.02383572	0	0	0	0
18.86409	-0.01589048	0.02383572	0	0	0	0
18.88066	-0.01589048	0.02383572	0	0	0	0
18.89723	-0.01589048	0.02383572	0	0	0	0
18.91379	-0.01589048	0.02383572	0	0	0	0
18.93038	-0.01589048	0.02383572	0	0	0	0
18.94693	-0.01589048	0.02383572	0	0	0	0
18.9635	-0.01589048	0.02383572	0	0	0	0
18.98031	-0.01589048	0.02383572	0	0	0	0
18.99691	-0.01589048	0.02383572	0	0	0	0
19.01351	-0.01589048	0.02261337	0	-0.07364518	0	-2.218657
19.02983	-0.01589048	0.02139103	0	-0.07485812	0	-0.03683773
19.04633	-0.01589048	0.02016868	-1.129235E-07	-0.07410504	-3.440319E-06	0.02294335
19.06289	-0.01589048	0.02016868	0	0	3.415904E-06	2.241656
19.07946	-0.01589048	0.02016868	0	0	0	0
19.09665	-0.01589048	0.02016868	0	0	0	0
19.11259	-0.01589048	0.02016868	0	0	0	0
19.12933	-0.01589048	0.02016868	0	0	0	0
19.14573	-0.01589048	0.02016868	0	0	0	0
19.1624	-0.01589048	0.02016868	0	0	0	0
19.1789	-0.01589048	0.02016868	0	0	0	0
19.19543	-0.01589048	0.02016868	0	0	0	0
19.212	-0.01589048	0.02016868	0	0	0	0
19.22883	-0.01589048	0.02016868	0	0	0	0
19.24513	-0.01589048	0.02016868	0	0	0	0
19.27153	-0.01589048	0.02016868	0	0	0	0
19.2881	-0.01589048	0.02016868	0	0	0	0
19.30467	-0.01589048	0.02016868	0	0	0	0
19.32124	-0.01589048	0.02016868	0	0	0	0
19.3378	-0.01589048	0.02016868	0	0	0	0
19.35437	-0.01589048	0.02016868	0	0	0	0
19.37094	-0.01589048	0.02016868	0	0	0	0
19.3875	-0.01589048	0.02016868	0	0	0	0
19.40425	-0.01589048	0.02016868	0	0	0	0
19.42072	-0.01589048	0.02016868	0	0	0	0
19.43721	-0.01589048	0.02016868	0	0	0	0
19.45389	-0.01589048	0.02016868	0	0	0	0
19.47034	-0.01589048	0.02016868	0	0	0	0
19.49459	-0.01589048	0.02016868	0	0	0	0
19.51116	-0.01589048	0.02016868	0	0	0	0
19.5284	-0.01589048	0.02016868	0	0	0	0
19.5443	-0.01589048	0.02016868	0	0	0	0
19.56086	-0.01589048	0.02016868	0	0	0	0
19.57743	-0.01589048	0.02016868	0	0	0	0
19.59399	-0.01589048	0.02016868	0	0	0	0
19.61056	-0.01589048	0.02016868	0	0	0	0
19.62713	-0.01589048	0.02016868	0	0	0	0
19.6438	-0.01589048	0.02016868	0	0	0	0
19.66026	-0.01589048	0.02016868	0	0	0	0
19.67683	-0.01589048	0.02016868	0	0	0	0
19.6934	-0.01589048	0.02016868	0	0	0	0
19.70996	-0.01589048	0.02016868	0	0	0	0
19.72653	-0.01589048	0.02016868	0	0	0	0
19.74328	-0.01589048	0.02016868	0	0	0	0
19.75989	-0.01589048	0.02016868	0	0	0	0
19.77635	-0.01589048	0.02016868	0	0	0	0
19.7928	-0.01589048	0.02016868	0	0	0	0
19.80941	-0.01589048	0.02016868	0	0	0	0
19.82593	-0.01589048	0.02016868	0	0	0	0
19.8425	-0.01589048	0.02016868	0	0	0	0
19.85927	-0.01589048	0.02016868	0	0	0	0
19.87563	-0.01589048	0.02016868	0	0	0	0
19.8922	-0.01589048	0.02016868	0	0	0	0
19.9091	-0.01589048	0.02016868	0	0	0	0
19.92562	-0.01589048	0.02016868	0	0	0	0
19.9419	-0.01589048	0.02016868	0	0	0	0
19.95877	-0.01589048	0.02016868	0	0	0	0
19.97536	-0.01589048	0.02016868	0	0	0	0
19.9916	-0.01589048	0.02016868	0	0	0	0
20.00816	-0.01589048	0.02016868	0	0	0	0
20.02473	-0.01589048	0.02016868	0	0	0	0
20.04139	-0.01589048	0.02016868	0	0	0	0
20.05786	-0.01589048	0.02016868	0	0	0	0
20.07477	-0.01589048	0.02016868	0	0	0	0
20.09108	-0.01589048	0.02016868	0	0	0	0
20.10756	-0.01589048	0.02016868	0	0	0	0
20.12448	-0.01589048	0.02016868	0	0	0	0
20.1407	-0.01589048	0.02016868	0	0	0	0
20.16429	-0.01589048	0.02016868	0	0	0	0
20.18086	-0.01589048	0.02016868	0	0	0	0
20.19743	-0.01589048	0.02016868	0	0	0	0
20.21434	-0.01589048	0.02016868	0	0	0	0
20.23056	-0.01589048	0.02016868	0	0	0	0
20.24713	-0.01589048	0.02016868	0	0	0	0
20.26405	-0.01589048	0.02016868	0	0	0	0
20.28026	-0.01589048	0.02016868	0	0	0	0
20.29757	-0.01589048	0.02016868	0	0	0	0
20.3136	-0.01589048	0.02016868	0	0	0	0
20.3301	-0.01589048	0.02016868	0	0	0	0
20.34661	-0.01589048	0.02016868	0	0	0	0
20.36342	-0.01589048	0.02016868	0	0	0	0
20.37971	-0.01589048	0.02016868	0	0	0	0
20.39622	-0.01589048	0.02016868	0	0	0	0
20.41279	-0.01589048	0.02016868	0	0	0	0
20.42936	-0.01589048	0.02016868	0	0	0	0
20.44592	-0.01589048	0.02016868	0	0	0	0
20.46249	-0.01589048	0.02016868	0	0	0	0
20.47906	-0.01589048	0.02016868	0	0	0	0
20.49563	-0.01589048	0.02016868	0	0	0	0
20.51219	-0.01589048	0.02016868	0	0	0	0
20.52876	-0.01589048	0.02016868	0	0	0	0
20.54533	-0.01589048	0.02016868	0	0	0	0
20.5619	-0.01589048	0.02016868	0	0	0	0
20.57846	-0.01589048	0.02016868	0	0	0	0
20.59503	-0.01589048	0.02016868	0	0	0	0
20.6116	-0.01589048	0.02016868	0	0	0	0
20.62816	-0.01589048	0.02016868	0	0	0	0
20.64473	-0.01589048	0.02016868	0	0	0	0
20.6613	-0.01589048	0.02016868	0	0	0	0
20.6787	-0.01589048	0.02016868	0	0	0	0
20.69444	-0.01589048	0.02016868	0	0	0	0
20.711	-0.01589048	0.02016868	0	0	0	0
20.72824	-0.01589048	0.02016868	0	0	0	0
20.74413	-0.01589048	0.02016868	0	0	0	0
20.76079	-0.01589048	0.02016868	0	0	0	0
20.7782	-0.01589048	0.02016868	0	0	0	0
20.79383	-0.01589048	0.02016868	0	0	0	0
20.81043	-0.01589048	0.02016868	0	0	0	0
20.82876	-0.01589048	0.02016868	0	0	0	0
20.84533	-0.01589048	0.02016868	0	0	0	0
20.8619	-0.01589048	0.02016868	0	0	0	0
20.87864	-0.01589048	0.02016868	0	0	0	0
20.89535	-0.01589048	0.02016868	0	0	0	0
20.91238	-0.01589048	0.02016868	0	0	0	0
20.92817	-0.01589048	0.02016868	0	0	0	0
20.94484	-0.01589048	0.02016868	0	0	0	0
20.96193	-0.01589048	0.02016868	0	0	0	0
20.97786	-0.01589048	0.01894634	1.168836E-07	-0.07670381	3.53978E-06	-2.322949
20.99443	-0.01589048	0.01894634	0	0	-3.59565E-06	2.359613
21.011	-0.01711282	0.01650165	-0.07378095	-0.1475618	-2.226457	-4.452911
21.02757	-0.01711282	0.01650165	0	0	2.226713	4.453424
21.04434	-0.01711282	0.01650165	0	0	0	0
21.0607	-0.01711282	0.01650165	0	0	0	0
21.07727	-0.01711282	0.01650165	0	0	0	0
21.09383	-0.01711282	0.01650165	0	0	0	0
21.1104	-0.01955751	0.02016868	-0.1475788	0.2213681	-4.454962	6.682441
21.1272	-0.03055861	0.04217089	-0.6545329	1.309066	-15.1906	32.59227
21.1437	-0.04889378	0.08006357	-1.111576	2.297257	-13.72406	29.67335
21.1601	-0.07456301	0.1338467	-1.565074	3.279202	-13.78579	29.84995
21.17666	-0.09900991	0.1864075	-1.475958	3.173308	2.703386	-3.212348
21.1937	-0.1210121	0.2438577	-1.291045	3.371063	5.50243	5.884599
21.21029	-0.1246791	0.2573035	-0.2210377	0.8104701	31.8149	-76.13499
21.22636	-0.1295685	0.2854174	-0.3042656	1.749529	-2.548349	28.75298
21.24293	-0.1307909	0.3013079	-0.07378922	0.9592617	7.062303	-24.21552
21.25949	-0.1320132	0.3159761	-0.07378922	0.8854724	0	-2.22722
21.2761	-0.1320132	0.3294218	0	0.8099114	2.224786	-2.278208
21.29263	-0.1332355	0.3428676	-0.07393394	0.8132751	-2.231331	0.1015175
21.30962	-0.1356802	0.3550911	-0.1438687	0.7193393	-2.08602	-2.801923
21.32576	-0.1356802	0.3624251	0	0.4544583	4.342467	-7.995044
21.34233	-0.1356802	0.3624251	0	0	0	-13.89636
21.35914	-0.1356802	0.3624251	0	0	0	0
21.37546	-0.1356802	0.3624251	0	0	0	0
21.39202	-0.1356802	0.3624251	0	0	0	0
21.40859	-0.1356802	0.3624251	0	0	0	0
21.42517	-0.1356802	0.3624251	0	0	0	0
21.44193	-0.1356802	0.3624251	0	0	0	0
21.45829	-0.1356802	0.3624251	0	0	0	0
21.47486	-0.1356802	0.3624251	0	0	0	0
21.49142	-0.1356802	0.3624251	0	0	0	0
21.50799	-0.1356802	0.3624251	0	0	0	0
21.52456	-0.1332355	0.3526464	0.1475624	-0.5902476	4.453441	-17.81371
21.54112	-0.1259015	0.3330889	0.4427362	-1.180629	8.908877	-17.81878
21.55769	-0.1149004	0.3074196	0.663951	-1.54922	6.676275	-11.1241
21.57426	-0.08434177	0.237746	1.844734	-4.205992	35.63609	-80.18151
21.59083	-0.05867253	0.1839628	1.54922	-3.245985	-8.918619	28.97305
21.60739	-0.03055861	0.1338467	1.696959	-3.025014	4.458531	6.668538
21.62396	-0.009778757	0.09228701	1.254419	-2.508838	-13.35666	15.57911
21.64053	0.003667034	0.06539543	0.8114027	-1.622805	-13.36949	26.73899
21.65711	0.01344579	0.04950495	0.5897715	-0.9583787	-6.68538	20.04206
21.67374	0.01833517	0.03605916	0.2939391	-0.8083324	-8.906708	4.517484
21.69033	0.0220022	0.0287251	0.2210627	-0.4421252	-2.193605	11.02297
21.707	0.02566923	0.02016868	0.2199498	-0.5132165	-0.03346006	-2.137418
21.72346	0.02566923	0.01894634	0	-0.07429404	-6.640009	13.25052
21.74012	0.02689158	0.01527931	0.07337546	-0.2201261	2.216007	-4.404262
21.75649	0.02689158	0.01527931	0	0	-2.220996	6.662979
21.77347	0.02689158	0.01527931	0	0	0	0
21.78963	0.02689158	0.01527931	0	0	0	0
21.80619	0.02689158	0.01405696	0	-0.07378083	0	-2.254482
21.82276	0.02811392	0.01405696	0.07378072	-5.621474E-08	2.226707	2.226708
21.83933	0.02811392	0.01405696	0	0	-2.226707	1.696564E-06
21.8559	0.02811392	0.01405696	0	0	0	0
21.87246	0.02811392	0.01405696	0	0	0	0
21.88903	0.02811392	0.01405696	0	0	0	0
21.9056	0.02811392	0.01405696	0	0	0	0
21.92216	0.02811392	0.01405696	0	0	0	0
21.93873	0.02811392	0.01405696	0	0	0	0
21.9553	0.02811392	0.01405696	0	0	0	0
21.97186	0.02811392	0.01405696	0	0	0	0
21.98843	0.02811392	0.01405696	0	0	0	0
22.005	0.02811392	0.01405696	0	0	0	0
22.02156	0.02811392	0.01405696	0	0	0	0
22.03813	0.02811392	0.01405696	0	0	0	0
22.05484	0.02811392	0.01405696	0	0	0	0
22.07126	0.02811392	0.01405696	0	0	0	0
22.08783	0.02811392	0.01405696	0	0	0	0
22.10446	0.02811392	0.01405696	0	0	0	0
22.12148	0.02811392	0.01405696	0	0	0	0
22.13753	0.02811392	0.01405696	0	0	0	0
22.15409	0.02811392	0.01405696	0	0	0	0
22.17066	0.02811392	0.01405696	0	0	0	0
22.18723	0.02811392	0.01405696	0	0	0	0
22.20401	0.02811392	0.01405696	0	0	0	0
22.22036	0.02811392	0.01405696	0	0	0	0
22.23693	0.02811392	0.01405696	0	0	0	0
22.25358	0.02811392	0.01405696	0	0	0	0
22.27006	0.02811392	0.01405696	0	0	0	0
22.28662	0.02811392	0.01405696	0	0	0	0
22.30319	0.02811392	0.01405696	0	0	0	0
22.31976	0.02811392	0.01405696	0	0	0	0
22.33632	0.02811392	0.01405696	0	0	0	0
22.35312	0.02811392	0.01405696	0	0	0	0
22.36946	0.02811392	0.01405696	0	0	0	0
22.38614	0.02811392	0.01405696	0	0	0	0
22.40266	0.02811392	0.01405696	0	0	0	0
22.41916	0.02811392	0.01405696	0	0	0	0
22.43573	0.02811392	0.01405696	0	0	0	0
22.45229	0.02811392	0.01405696	0	0	0	0
22.46886	0.02811392	0.01405696	0	0	0	0
22.48543	0.02811392	0.01405696	0	0	0	0
22.50199	0.02811392	0.01405696	0	0	0	0
22.51856	0.02811392	0.01405696	0	0	0	0
22.53513	0.02811392	0.01405696	0	0	0	0
22.55188	0.02811392	0.01405696	0	0	0	0
22.56826	0.02811392	0.01283462	1.137389E-07	-0.0746401	3.432648E-06	-2.252643
22.58492	0.02811392	0.01283462	0	0	-3.443153E-06	2.259536
22.60139	0.02811392	0.01283462	0	0	0	0
22.61796	0.02811392	0.01283462	0	0	0	0
22.63453	0.02811392	0.01283462	0	0	0	0
22.65146	0.02811392	0.01283462	0	0	0	0
22.66766	0.02811392	0.01283462	0	0	0	0
22.68423	0.02811392	0.01283462	0	0	0	0
22.7008	0.02811392	0.01283462	0	0	0	0
22.71736	0.02811392	0.01283462	0	0	0	0
22.73393	0.02811392	0.01283462	0	0	0	0
22.75071	0.02811392	0.01283462	0	0	0	0
22.76728	0.02811392	0.01283462	0	0	0	0
22.78865	0.02811392	0.01283462	0	0	0	0
22.80522	0.02811392	0.01283462	0	0	0	0
22.82179	0.02811392	0.01283462	0	0	0	0
22.83836	0.02811392	0.01283462	0	0	0	0
22.85492	0.02811392	0.01283462	0	0	0	0
22.87234	0.02811392	0.01283462	0	0	0	0
22.88806	0.02811392	0.01283462	0	0	0	0
22.90462	0.02811392	0.01283462	0	0	0	0
22.92119	0.02811392	0.01283462	0	0	0	0
22.93776	0.02811392	0.01283462	0	0	0	0
22.95432	0.02811392	0.01283462	0	0	0	0
22.97089	0.02811392	0.01283462	0	0	0	0
22.98761	0.02811392	0.01283462	0	0	0	0
23.00403	0.02811392	0.01283462	0	0	0	0
23.02059	0.02811392	0.01283462	0	0	0	0
23.03716	0.02811392	0.01283462	0	0	0	0
23.05373	0.02811392	0.01283462	0	0	0	0
23.0704	0.02811392	0.01283462	0	0	0	0
23.08686	0.02811392	0.01283462	0	0	0	0
23.10342	0.02811392	0.01283462	0	0	0	0
23.12043	0.02811392	0.01283462	0	0	0	0
23.13656	0.02811392	0.01283462	0	0	0	0
23.15312	0.02811392	0.01283462	0	0	0	0
23.16997	0.02811392	0.01283462	0	0	0	0
23.18626	0.02811392	0.01283462	0	0	0	0
23.20316	0.02811392	0.01283462	0	0	0	0
23.21941	0.02811392	0.01283462	0	0	0	0
23.23596	0.02811392	0.01283462	0	0	0	0
23.25256	0.02811392	0.01283462	0	0	0	0
23.26909	0.02811392	0.01283462	0	0	0	0
23.28566	0.02811392	0.01283462	0	0	0	0
23.30222	0.02811392	0.01283462	0	0	0	0
23.31879	0.02811392	0.01283462	0	0	0	0
23.33536	0.02811392	0.01283462	0	0	0	0
23.35408	0.02811392	0.01283462	0	0	0	0
23.37065	0.02811392	0.01283462	0	0	0	0
23.38721	0.02811392	0.01283462	0	0	0	0
23.40378	0.02811392	0.01283462	0	0	0	0
23.42035	0.02811392	0.01283462	0	0	0	0
23.43727	0.02811392	0.01283462	0	0	0	0
23.45348	0.02811392	0.01283462	0	0	0	0
23.47005	0.02811392	0.01283462	0	0	0	0
23.4867	0.02811392	0.01283462	0	0	0	0
23.50318	0.02811392	0.01283462	0	0	0	0
23.51979	0.02811392	0.01283462	0	0	0	0
23.53638	0.02811392	0.01283462	0	0	0	0
23.59344	0.02811392	0.01283462	0	0	0	0
23.61001	0.02811392	0.01283462	0	0	0	0
23.62658	0.02811392	0.01283462	0	0	0	0
23.64314	0.02811392	0.01283462	0	0	0	0
23.65997	0.02811392	0.01283462	0	0	0	0
23.67628	0.02811392	0.01283462	0	0	0	0
23.69285	0.02811392	0.01283462	0	0	0	0
23.70974	0.02811392	0.01283462	0	0	0	0
23.7262	0.02811392	0.01283462	0	0	0	0
23.74254	0.02811392	0.01283462	0	0	0	0
23.75918	0.02811392	0.01283462	0	0	0	0
23.77568	0.02811392	0.01283462	0	0	0	0
23.79225	0.02811392	0.01283462	0	0	0	0
23.80881	0.02811392	0.01283462	0	0	0	0
23.82538	0.02811392	0.01283462	0	0	0	0
23.84195	0.02811392	0.01283462	0	0	0	0
23.85851	0.02811392	0.01283462	0	0	0	0
23.87508	0.02811392	0.01283462	0	0	0	0
23.89165	0.02811392	0.01283462	0	0	0	0
23.90821	0.02811392	0.01283462	0	0	0	0
23.92478	0.02811392	0.01283462	0	0	0	0
23.94135	0.02811392	0.01283462	0	0	0	0
23.95791	0.02811392	0.01283462	0	0	0	0
23.97448	0.02811392	0.01283462	0	0	0	0
23.99113	0.02811392	0.01283462	0	0	0	0
24.00762	0.02811392	0.01283462	0	0	0	0
24.02418	0.02811392	0.01283462	0	0	0	0
24.04075	0.02811392	0.01283462	0	0	0	0
24.05732	0.02811392	0.01283462	0	0	0	0
24.07388	0.02811392	0.01283462	0	0	0	0
24.09045	0.02811392	0.01283462	0	0	0	0
24.10709	0.02811392	0.01283462	0	0	0	0
24.12358	0.02811392	0.01283462	0	0	0	0
24.14015	0.02811392	0.01283462	0	0	0	0
24.15687	0.02811392	0.01283462	0	0	0	0
24.17328	0.02811392	0.01283462	0	0	0	0
24.18986	0.02811392	0.01283462	0	0	0	0
24.20642	0.02811392	0.01283462	0	0	0	0
24.22298	0.02811392	0.01283462	0	0	0	0
24.23955	0.02811392	0.01283462	0	0	0	0
24.25612	0.02811392	0.01283462	0	0	0	0
24.27268	0.02811392	0.01283462	0	0	0	0
24.28925	0.02811392	0.01283462	0	0	0	0
24.30582	0.02811392	0.01283462	0	0	0	0
24.32238	0.02811392	0.01283462	0	0	0	0
24.33902	0.02811392	0.01283462	0	0	0	0
24.35551	0.02811392	0.01283462	0	0	0	0
24.37208	0.02811392	0.01283462	0	0	0	0
24.38865	0.02811392	0.01283462	0	0	0	0
24.40522	0.02811392	0.01283462	0	0	0	0
24.42178	0.02811392	0.01283462	0	0	0	0
24.43835	0.02811392	0.01283462	0	0	0	0
24.45492	0.02811392	0.01283462	0	0	0	0
24.47149	0.02811392	0.01283462	0	0	0	0
24.48814	0.02811392	0.01283462	0	0	0	0
24.50462	0.02811392	0.01283462	0	0	0	0
24.52119	0.02811392	0.01283462	0	0	0	0
24.53817	0.02811392	0.01283462	0	0	0	0
24.55516	0.02811392	0.01283462	0	0	0	0
24.57088	0.02811392	0.01283462	0	0	0	0
24.58745	0.02811392	0.01283462	0	0	0	0
24.60402	0.02811392	0.01283462	0	0	0	0
24.62058	0.02811392	0.01283462	0	0	0	0
24.63715	0.02811392	0.01283462	0	0	0	0
24.65372	0.02811392	0.01283462	0	0	0	0
24.67029	0.02811392	0.01283462	0	0	0	0
24.68685	0.02811392	0.01283462	0	0	0	0
24.7035	0.02811392	0.01283462	0	0	0	0
24.72022	0.02811392	0.01283462	0	0	0	0
24.73655	0.02811392	0.01283462	0	0	0	0
24.75312	0.02811392	0.01283462	0	0	0	0
24.77396	0.02811392	0.01283462	0	0	0	0
24.79064	0.02811392	0.01283462	0	0	0	0
24.80709	0.02811392	0.01283462	0	0	0	0
24.82366	0.02811392	0.01283462	0	0	0	0
24.84061	0.02811392	0.01283462	0	0	0	0
24.85684	0.02811392	0.01283462	0	0	0	0
24.87344	0.02811392	0.01283462	0	0	0	0
24.89005	0.02811392	0.01283462	0	0	0	0
24.90649	0.02811392	0.01283462	0	0	0	0
24.92306	0.02811392	0.01283462	0	0	0	0
24.93966	0.02811392	0.01283462	0	0	0	0
24.95625	0.02811392	0.01283462	0	0	0	0
24.97276	0.02811392	0.01283462	0	0	0	0
24.98944	0.02811392	0.01283462	0	0	0	0
25.00589	0.02811392	0.01283462	0	0	0	0
25.02255	0.02811392	0.01283462	0	0	0	0
25.03903	0.02811392	0.01283462	0	0	0	0
25.05584	0.02811392	0.01283462	0	0	0	0
25.07216	0.02811392	0.01283462	0	0	0	0
25.08887	0.02444689	0.02261337	-0.2193477	0.5849267	-6.63942	17.7051
25.10529	0.02077986	0.04339323	-0.2234001	1.265934	-0.1223065	20.55404
25.12186	0.01589048	0.05928371	-0.2950894	0.9590408	-2.173471	-9.30438
25.13859	0.01589048	0.06417308	-1.113145E-07	0.2921962	8.860925	-20.02398
25.15509	0.01589048	0.06539542	0	0.07410492	3.35003E-06	-6.563495
25.17156	0.01589048	0.06539542	0	0	0	-2.248008
25.18812	0.01833517	0.06906246	0.1475619	0.2213431	4.466539	6.699816
25.20499	0.02811392	0.07517418	0.5798329	0.3623955	12.92986	4.219082
25.22152	0.04155971	0.08495294	0.8133686	0.5915411	6.992973	6.861517
25.23782	0.05745019	0.0947317	0.9746359	0.5997757	4.911444	0.2507878
25.25439	0.08678646	0.1093998	1.770741	0.8853705	24.21889	8.688285
25.27096	0.1222344	0.124068	2.139891	0.8854724	11.14161	0.003076248
25.28758	0.1735729	0.1460702	3.087422	1.323181	28.54562	13.18653
25.30409	0.2175773	0.1680724	2.665624	1.332813	-12.72916	0.2906773
25.32091	0.2493583	0.1802958	1.890229	0.7270101	-23.2702	-18.18059
25.33735	0.2579147	0.1851852	0.5203609	0.2973499	-41.19095	-12.91957
25.35437	0.2615817	0.1851852	0.2154873	-8.756445E-07	-9.111414	-8.886588
25.37038	0.2640264	0.1851852	0.1526401	9.303918E-07	-1.902539	5.467309E-05
25.38738	0.2640264	0.1851852	0	0	-4.62292	-2.817822E-05
25.40391	0.2640264	0.1851852	0	0	0	0
25.42006	0.2640264	0.1851852	0	0	0	0
25.43663	0.2640264	0.1851852	0	0	0	0
25.4534	0.2640264	0.1851852	0	0	0	0
25.46976	0.2640264	0.1851852	0	0	0	0
25.48633	0.2640264	0.1851852	0	0	0	0
25.50294	0.2640264	0.1851852	0	0	0	0
25.51946	0.2640264	0.1851852	0	0	0	0
25.53659	0.2628041	0.1827405	-0.07136519	-0.1427312	-2.120963	-4.241952
25.55259	0.2628041	0.1815182	0	-0.07636551	2.153805	2.002922
25.56927	0.2628041	0.1815182	0	0	0	2.336593
25.58572	0.2628041	0.1815182	0	0	0	0
25.60249	0.2628041	0.1815182	0	0	0	0
25.61886	0.2628041	0.1815182	0	0	0	0
25.63543	0.2628041	0.1815182	0	0	0	0
25.65232	0.2628041	0.1815182	0	0	0	0
25.66856	0.2628041	0.1815182	0	0	0	0
25.68513	0.2603594	0.1790735	-0.1475954	-0.1475954	-4.499506	-4.499506
25.70169	0.25547	0.1729617	-0.2951587	-0.3689479	-4.454237	-6.681584
25.71826	0.2432466	0.159516	-0.7377223	-0.8114945	-13.3566	-13.35608
25.7352	0.2139103	0.1301797	-1.731862	-1.731861	-29.66845	-27.46682
25.75139	0.1821293	0.1069551	-1.962587	-1.434199	-6.963689	8.983978
25.76796	0.1442366	0.07884122	-2.287471	-1.697156	-9.917507	-8.027085
25.78453	0.1075663	0.05317199	-2.21317	-1.549219	2.242416	4.464728
25.80109	0.08189708	0.03483682	-1.549577	-1.10684	20.02728	13.35102
25.81766	0.06478426	0.02383572	-1.032932	-0.6640276	15.59327	13.36489
25.83423	0.05867254	0.01772399	-0.3689468	-0.3689469	20.04026	8.906068
25.85079	0.05622785	0.01527931	-0.1475617	-0.1475617	6.6818	6.681804
25.86736	0.05378316	0.01405696	-0.1475787	-0.07378934	-0.0005131577	2.226582
25.88393	0.05378316	0.01405696	0	0	4.45419	2.227095
25.90081	0.05378316	0.01405696	0	0	0	0
25.91706	0.05378316	0.01283462	0	-0.07523607	0	-2.27076
25.93363	0.05378316	0.01283462	0	0	0	2.292802
25.95024	0.05378316	0.01283462	0	0	0	0
25.96683	0.05378316	0.01283462	0	0	0	0
25.98333	0.05378316	0.01283462	0	0	0	0
26.00015	0.05378316	0.01283462	0	0	0	0
26.01646	0.05378316	0.01283462	0	0	0	0
26.03303	0.05378316	0.01283462	0	0	0	0
26.04959	0.05378316	0.01283462	0	0	0	0
26.06616	0.05378316	0.01283462	0	0	0	0
26.08343	0.05256081	0.01161227	-0.0707743	-0.0707742	-2.091664	-2.091661
26.1	0.05133847	0.01038993	-0.07377245	-0.0737724	-0.08859737	-0.08859891
26.11657	0.05133847	0.01038993	0	0	2.226329	2.226327
26.13313	0.05133847	0.01038993	0	0	0	0
26.1497	0.05133847	0.01038993	0	0	0	0
26.16627	0.05133847	0.01038993	0	0	0	0
26.18305	0.05011613	0.01038993	-0.07284977	0	-2.184651	0
26.1994	0.05011613	0.01038993	0	0	2.19861	0
26.21647	0.05011613	0.01038993	0	0	0	0
26.23254	0.05011613	0.01038993	0	0	0	0
26.25005	0.05011613	0.01038993	0	0	0	0
26.26567	0.05011613	0.01038993	0	0	0	0
26.28224	0.05011613	0.01038993	0	0	0	0
26.29893	0.05011613	0.01038993	0	0	0	0
26.31537	0.05011613	0.01038993	0	0	0	0
26.33194	0.05011613	0.01038993	0	0	0	0
26.34868	0.05011613	0.01038993	0	0	0	0
26.36507	0.05011613	0.01038993	0	0	0	0
26.38178	0.05011613	0.01038993	0	0	0	0
26.3982	0.05011613	0.01038993	0	0	0	0
26.41477	0.05011613	0.01038993	0	0	0	0
26.43134	0.05011613	0.01038993	0	0	0	0
26.44798	0.05011613	0.01038993	0	0	0	0
26.46447	0.05011613	0.01038993	0	0	0	0
26.48104	0.05011613	0.01038993	0	0	0	0
26.4976	0.05011613	0.01038993	0	0	0	0
26.51417	0.04644909	0.009167584	-0.2213171	-0.07377234	-6.679365	-2.226454
26.53074	0.04522675	0.007945239	-0.07378095	-0.07378089	4.452394	-0.0002581232
26.54731	0.04522675	0.007945239	0	0	2.226713	2.226712
26.56387	0.04522675	0.007945239	0	0	0	0
26.58044	0.04522675	0.007945239	0	0	0	0
26.597	0.04522675	0.007945239	0	0	0	0
26.61375	0.04522675	0.007945239	0	0	0	0
26.63057	0.04522675	0.007945239	0	0	0	0
26.64672	0.0440044	0.00794524	-0.07568907	5.766874E-08	-2.295931	1.749307E-06
26.66327	0.04278206	0.007945239	-0.07382344	-5.624712E-08	0.05704018	-3.482897E-06
26.67984	0.04155971	0.00794524	-0.07379794	5.622769E-08	0.0007700025	3.395865E-06
26.69641	0.04033737	0.00794524	-0.07376374	0	0.001032103	-1.696955E-06
26.71297	0.03911503	0.00794524	-0.07378072	0	-0.0005123946	0
26.73638	0.03911503	0.00794524	0	0	1.845884	0
26.75295	0.03789268	0.009167584	-0.07377245	0.07377234	-1.845589	1.845586
26.76951	0.03789268	0.009167584	0	0	2.226329	-2.226326
26.78658	0.03667033	0.009167584	-0.07162062	0	-2.1294	0
26.80268	0.03544799	0.009167584	-0.07592221	0	-0.1296954	0
26.81925	0.03422565	0.009167584	-0.07376397	0	0.06606007	0
26.83581	0.03422565	0.009167584	0	0	2.226457	0
26.85241	0.03422565	0.009167584	0	0	0	0
26.86942	0.03422565	0.009167584	0	0	0	0
26.88565	0.03422565	0.009167584	0	0	0	0
26.90205	0.03422565	0.009167584	0	0	0	0
26.91861	0.03422565	0.009167584	0	0	0	0
26.93538	0.0330033	0.009167584	-0.07289971	0	-2.18715	0
26.95175	0.0330033	0.009167584	0	0	2.199864	0
26.96832	0.0330033	0.009167584	0	0	0	0
26.98521	0.0330033	0.009167584	0	0	0	0
27.00145	0.0330033	0.009167584	0	0	0	0
27.01802	0.0330033	0.009167584	0	0	0	0
27.03458	0.0330033	0.009167584	0	0	0	0
27.05115	0.0330033	0.009167584	0	0	0	0
27.06772	0.0330033	0.009167584	0	0	0	0
27.08428	0.0330033	0.009167584	0	0	0	0
27.10085	0.0330033	0.009167584	0	0	0	0
27.11742	0.0330033	0.009167584	0	0	0	0
27.13442	0.0330033	0.009167584	0	0	0	0
27.15055	0.0330033	0.009167584	0	0	0	0
27.16712	0.0330033	0.009167584	0	0	0	0
27.1838	0.0330033	0.009167584	0	0	0	0
27.20041	0.0330033	0.009167584	0	0	0	0
27.21708	0.0330033	0.009167584	0	0	0	0
27.23339	0.0330033	0.009167584	0	0	0	0
27.24996	0.0330033	0.009167584	0	0	0	0
27.26652	0.0330033	0.009167584	0	0	0	0
27.28309	0.0330033	0.009167584	0	0	0	0
27.29966	0.0330033	0.009167584	0	0	0	0
27.31622	0.0330033	0.009167584	0	0	0	0
27.33699	0.0330033	0.009167584	0	0	0	0
27.35356	0.0330033	0.009167584	0	0	0	0
27.37016	0.0330033	0.009167584	0	0	0	0
27.38669	0.0330033	0.009167584	0	0	0	0
27.40326	0.0330033	0.009167584	0	0	0	0
27.42027	0.0330033	0.009167584	0	0	0	0
27.4364	0.0330033	0.009167584	0	0	0	0
27.45296	0.0330033	0.009167584	0	0	0	0
27.46953	0.0330033	0.009167584	0	0	0	0
27.4861	0.0330033	0.009167584	0	0	0	0
27.50266	0.0330033	0.009167584	0	0	0	0
27.51923	0.0330033	0.009167584	0	0	0	0
27.5358	0.0330033	0.009167584	0	0	0	0
27.55236	0.0330033	0.009167584	0	0	0	0
27.56893	0.0330033	0.009167584	0	0	0	0
27.5855	0.0330033	0.009167584	0	0	0	0
27.60225	0.0330033	0.009167584	0	0	0	0
27.61863	0.0330033	0.009167584	0	0	0	0
27.6352	0.0330033	0.009167584	0	0	0	0
27.65229	0.0330033	0.009167584	0	0	0	0
27.66833	0.0330033	0.009167584	0	0	0	0
27.6849	0.0330033	0.009167584	0	0	0	0
27.70147	0.0330033	0.009167584	0	0	0	0
27.71803	0.0330033	0.009167584	0	0	0	0
27.7346	0.0330033	0.009167584	0	0	0	0
27.75117	0.0330033	0.009167584	0	0	0	0
27.76783	0.0330033	0.009167584	0	0	0	0
27.7843	0.0330033	0.009167584	0	0	0	0
27.80087	0.0330033	0.009167584	0	0	0	0
27.81743	0.0330033	0.009167584	0	0	0	0
27.834	0.0330033	0.009167584	0	0	0	0
27.85079	0.0330033	0.009167584	0	0	0	0
27.86714	0.0330033	0.009167584	0	0	0	0
27.88371	0.0330033	0.009167584	0	0	0	0
27.90027	0.0330033	0.009167584	0	0	0	0
27.91684	0.0330033	0.009167584	0	0	0	0
27.9334	0.0330033	0.009167584	0	0	0	0
27.95021	0.0330033	0.009167584	0	0	0	0
27.96654	0.0330033	0.009167584	0	0	0	0
27.9831	0.0330033	0.009167584	0	0	0	0
27.99997	0.0330033	0.009167584	0	0	0	0
28.01624	0.0330033	0.009167584	0	0	0	0
28.03573	0.0330033	0.009167584	0	0	0	0
28.05246	0.0330033	0.009167584	0	0	0	0
28.06887	0.0330033	0.009167584	0	0	0	0
28.08544	0.0330033	0.009167584	0	0	0	0
28.10201	0.0330033	0.009167584	0	0	0	0
28.11857	0.0330033	0.009167584	0	0	0	0
28.13514	0.0330033	0.009167584	0	0	0	0
28.15194	0.0330033	0.009167584	0	0	0	0
28.16828	0.0330033	0.009167584	0	0	0	0
28.18484	0.0330033	0.009167584	0	0	0	0
28.20179	0.0330033	0.009167584	0	0	0	0
28.21798	0.0330033	0.009167584	0	0	0	0
28.23454	0.0330033	0.009167584	0	0	0	0
28.25144	0.0330033	0.009167584	0	0	0	0
28.26768	0.0330033	0.009167584	0	0	0	0
28.28424	0.0330033	0.009167584	0	0	0	0
28.30081	0.0330033	0.009167584	0	0	0	0
28.31738	0.0330033	0.009167584	0	0	0	0
28.33394	0.0330033	0.009167584	0	0	0	0
28.35051	0.0330033	0.009167584	0	0	0	0
28.36707	0.0330033	0.009167584	0	0	0	0
28.38378	0.0330033	0.009167584	0	0	0	0
28.40021	0.0330033	0.009167584	0	0	0	0
28.41677	0.0330033	0.009167584	0	0	0	0
28.43349	0.0330033	0.009167584	0	0	0	0
28.44991	0.0330033	0.009167584	0	0	0	0
28.46648	0.0330033	0.009167584	0	0	0	0
28.48304	0.0330033	0.009167584	0	0	0	0
28.49961	0.0330033	0.009167584	0	0	0	0
28.51618	0.0330033	0.009167584	0	0	0	0
28.53288	0.0330033	0.009167584	0	0	0	0
28.54931	0.0330033	0.009167584	0	0	0	0
28.56588	0.0330033	0.009167584	0	0	0	0
28.58295	0.0330033	0.009167584	0	0	0	0
28.59901	0.0330033	0.009167584	0	0	0	0
28.61558	0.0330033	0.009167584	0	0	0	0
28.63214	0.0330033	0.009167584	0	0	0	0
28.64894	0.0330033	0.009167584	0	0	0	0
28.66528	0.0330033	0.009167584	0	0	0	0
28.68675	0.0330033	0.009167584	0	0	0	0
28.70332	0.0330033	0.009167584	0	0	0	0
28.72006	0.0330033	0.009167584	0	0	0	0
28.73646	0.0330033	0.009167584	0	0	0	0
28.75303	0.0330033	0.009167584	0	0	0	0
28.76959	0.0330033	0.009167584	0	0	0	0
28.78616	0.0330033	0.009167584	0	0	0	0
28.80272	0.0330033	0.009167584	0	0	0	0
28.81929	0.0330033	0.009167584	0	0	0	0
28.83586	0.0330033	0.009167584	0	0	0	0
28.85243	0.0330033	0.009167584	0	0	0	0
28.86938	0.0330033	0.009167584	0	0	0	0
28.88556	0.0330033	0.009167584	0	0	0	0
28.90213	0.0330033	0.009167584	0	0	0	0
28.9187	0.0330033	0.009167584	0	0	0	0
28.93526	0.0330033	0.009167584	0	0	0	0
28.95183	0.0330033	0.009167584	0	0	0	0
28.9684	0.0330033	0.01038993	2.24859E-07	0.07378089	6.786648E-06	2.22684
28.98496	0.02811392	0.02383572	-0.2951577	0.8116828	-8.908396	22.27121
29.00153	0.01344579	0.04583792	-0.8853703	1.328055	-17.81368	15.58505
29.05489	-0.04278206	0.1167339	-1.053746	1.328636	-2.407864	0.008300488
29.07146	-0.1906857	0.2927515	-8.925429	10.622	-112.5635	132.8932
29.08803	-0.1943528	0.2976409	-0.2213422	0.2951247	262.6596	-311.6297
29.10468	-0.1967975	0.3000856	-0.1468177	0.1468177	2.24347	-4.464605
29.12116	-0.1967975	0.3000856	0	0	4.431223	-4.431223
29.13774	-0.1967975	0.3000856	0	0	0	0
29.15429	-0.1967975	0.3000856	0	0	0	0
29.17086	-0.1967975	0.3000856	0	0	0	0
29.18743	-0.1967975	0.3000856	0	0	0	0
29.20436	-0.1967975	0.3000856	0	0	0	0
29.22065	-0.1967975	0.3000856	0	0	0	0
29.23713	-0.1967975	0.3000856	0	0	0	0
29.25369	-0.1967975	0.3000856	0	0	0	0
29.27026	-0.1967975	0.3000856	0	0	0	0
29.28683	-0.1967975	0.3000856	0	0	0	0
29.30339	-0.1967975	0.3000856	0	0	0	0
29.31996	-0.1967975	0.3000856	0	0	0	0
29.33688	-0.1967975	0.3000856	0	0	0	0
29.35309	-0.1967975	0.3000856	0	0	0	0
29.36992	-0.1943528	0.2939738	0.1453031	-0.3632596	4.398676	-10.99675
29.38622	-0.1711282	0.2609705	1.424135	-2.02377	38.59743	-50.11719
29.40348	-0.1711282	0.2609705	0	0	-42.43332	60.29998
29.41936	-0.1466813	0.2291896	1.53942	-2.001244	46.45979	-60.39767
29.43633	-0.1271238	0.2059651	1.152627	-1.368745	-11.77512	19.25514
29.45341	-0.110011	0.1827405	1.001793	-1.359576	-4.429777	0.26928
29.46906	-0.09534287	0.163183	0.9375014	-1.250002	-1.964399	3.347991
29.48562	-0.08434177	0.1436255	0.6640274	-1.180493	-8.489499	2.157765
29.50233	-0.07578536	0.127735	0.5120447	-0.9509403	-4.56713	6.898145
29.51876	-0.06845129	0.1130669	0.446541	-0.8930823	-1.976906	1.746156
29.53533	-0.06356192	0.1045105	0.2950894	-0.5164061	-4.590372	11.41674
29.55202	-0.05989488	0.0947317	0.2196988	-0.5858625	-2.266681	-2.088266
29.56846	-0.0550055	0.08495294	0.297383	-0.5947664	2.344649	-0.2687363
29.58503	-0.05011612	0.07395184	0.2951236	-0.6640279	-0.06844898	-2.098286
29.60159	-0.04644909	0.07028481	0.2213424	-0.2213422	-2.22672	13.36028
29.61816	-0.04522675	0.06661778	0.07378095	-0.2213426	-4.453413	-1.349154E-05
29.63472	-0.0440044	0.06539543	0.07379772	-0.07379816	0.0005062158	4.453413
29.65129	-0.04278206	0.06417309	0.07378095	-0.07378072	-0.0005062158	0.0005264555
29.66786	-0.04278206	0.06172839	0	-0.1475621	-2.226713	-2.226727
29.68443	-0.04155971	0.06050605	0.07378095	-0.0737805	2.226713	2.226734
29.70117	-0.04155971	0.06050605	0	0	-2.214856	2.214843
29.71775	-0.04033737	0.05928371	0.07373828	-0.07373828	2.212942	-2.212942
29.73413	-0.03911503	0.05683902	0.07462265	-0.1492455	0.02683419	-2.291079
29.75069	-0.03789268	0.05439433	0.07378967	-0.1475789	-0.02528354	0.05058789
29.76735	-0.03544799	0.05194964	0.1467337	-0.1467339	2.195389	0.02543144
29.78382	-0.03178095	0.04828261	0.2226244	-0.2226241	2.290517	-2.290504
29.80039	-0.03055861	0.04583792	0.07378083	-0.1475619	-4.505073	2.271922
29.81696	-0.02322455	0.04094854	0.442685	-0.2951233	11.13355	-4.453413
29.83353	-0.01711282	0.03728151	0.3688618	-0.2213171	-2.227861	2.227347
29.85034	-0.009778756	0.03361447	0.4363554	-0.2181777	2.022176	0.09406029
29.86666	-0.006111722	0.03116979	0.2246006	-0.1497336	-6.390771	2.065647
29.88323	-0.004889378	0.02994744	0.07378086	-0.07378095	-4.585005	2.309004
29.8998	-0.004889378	0.02994744	0	0	-2.226839	2.226841
29.91636	-0.004889378	0.02994744	0	0	0	0
29.93359	-0.004889378	0.02994744	0	0	0	0
29.9495	-0.004889378	0.02994744	0	0	0	0
29.96606	-0.004889378	0.02994744	0	0	0	0
29.98263	-0.004889378	0.02994744	0	0	0	0
29.9992	-0.004889378	0.02994744	0	0	0	0
30.01576	-0.004889378	0.02994744	0	0	0	0
30.03713	-0.004889378	0.02994744	0	0	0	0
30.05369	-0.004889378	0.02994744	0	0	0	0
30.07026	-0.004889378	0.02994744	0	0	0	0
30.08683	-0.004889378	0.02994744	0	0	0	0
30.10339	-0.004889378	0.02994744	0	0	0	0
30.11996	-0.004889378	0.02994744	0	0	0	0
30.13652	-0.004889378	0.02994744	0	0	0	0
30.15309	-0.004889378	0.02994744	0	0	0	0
30.16966	-0.004889378	0.02994744	0	0	0	0
30.18623	-0.004889378	0.02994744	0	0	0	0
30.20279	-0.004889378	0.02994744	0	0	0	0
30.21936	-0.004889378	0.02994744	0	0	0	0
30.23593	-0.004889378	0.02994744	0	0	0	0
30.25302	-0.004889378	0.02994744	0	0	0	0
30.26906	-0.004889378	0.02994744	0	0	0	0
30.28563	-0.004889378	0.02994744	0	0	0	0
30.3022	-0.004889378	0.02994744	0	0	0	0
30.31883	-0.003667034	0.02994744	0.07349318	1.119911E-07	2.213696	3.373296E-06
30.33549	-0.003667034	0.02994744	0	0	-2.207608	-3.364019E-06
30.35192	-0.002444689	0.02994744	0.07441484	-1.133956E-07	2.249211	-3.427414E-06
30.36847	0.002444689	0.02994744	0.2954295	0	6.702258	3.438714E-06
30.38503	0.007334067	0.02505806	0.2951235	-0.2951233	-0.009241994	-8.911457
30.40185	0.007334067	0.02505806	0	0	-8.839171	8.839168
30.41816	0.007334067	0.02505806	0	0	0	0
30.43483	0.007334067	0.02505806	0	0	0	0
30.45137	0.007334067	0.02505806	0	0	0	0
30.46874	0.007334067	0.02505806	0	0	0	0
30.48443	0.007334067	0.02505806	0	0	0	0
30.5015	0.007334067	0.02505806	0	0	0	0
30.51756	0.007334067	0.02505806	0	0	0	0
30.53426	0.007334067	0.02505806	0	0	0	0
30.5507	0.007334067	0.02505806	0	0	0	0
30.56726	0.007334067	0.02505806	0	0	0	0
30.58383	0.007334067	0.02505806	0	0	0	0
30.6004	0.007334067	0.02505806	0	0	0	0
30.61696	0.001222344	0.05561667	-0.3689893	1.844946	-11.13868	55.69341
30.63353	0	0.05683902	-0.07378086	0.07378095	8.910434	-53.46003
30.65053	0	0.05683902	0	0	2.197989	-2.197992
30.66694	0	0.05683902	0	0	0	0
30.68437	0	0.05683902	0	0	0	0
30.70094	0	0.05683902	0	0	0	0
30.71832	0	0.05683902	0	0	0	0
30.73407	0	0.05683902	0	0	0	0
30.75124	0	0.05683902	0	0	0	0
30.76722	0	0.05683902	0	0	0	0
30.78389	0	0.05683902	0	0	0	0
30.80034	0	0.05683902	0	0	0	0
30.81691	0	0.05683902	0	0	0	0
30.83348	0	0.05683902	0	0	0	0
30.85016	0	0.05683902	0	0	0	0
30.86661	0	0.05683902	0	0	0	0
30.88317	0	0.05683902	0	0	0	0
30.89974	0	0.05683902	0	0	0	0
30.91631	0	0.05561667	0	-0.07378095	0	-2.226713
30.93333	0.001222344	0.05439433	0.07178901	-0.07178888	2.136951	0.05929791
30.94944	0.001222344	0.05317198	0	-0.0758957	-2.166721	-0.123951
30.96601	0.001222344	0.05194964	0	-0.0737805	0	0.06473862
30.98284	0.001222344	0.04706026	0	-0.2904423	0	-6.486589
30.9996	0.001222344	0.04217089	0	-0.2916979	0	-0.03737528
31.01571	0.001222344	0.03972619	0	-0.1517909	0	4.256706
31.03241	0.001222345	0.03850385	6.972259E-09	-0.0732076	2.125522E-07	2.395645
31.04884	0.001222345	0.03850385	0	0	-2.104232E-07	2.20941
31.06541	0.001222345	0.03850385	0	0	0	0
31.08198	0.001222345	0.03850385	0	0	0	0
31.09854	0.002444689	0.03850385	0.07378934	0	2.227095	0
31.11522	0.002444689	0.03483682	1.395568E-08	-0.219799	-2.219301	-6.610715
31.13168	0.003667034	0.03239213	0.07430268	-0.1486053	2.242459	2.148631
31.14824	0.003667034	0.03116979	0	-0.07378083	-2.250361	2.266164
31.16481	0.003667034	0.03116979	0	0	0	2.22671
31.18138	0.003667034	0.03116979	0	0	0	0
31.19794	0.003667034	0.03116979	0	0	0	0
31.21457	0.003667034	0.03116979	0	0	0	0
31.23122	0.004889378	0.03116979	0.07343425	0	2.206849	0
31.24764	0.004889378	0.03116979	0	0	-2.220596	0
31.2651	0.004889378	0.03116979	0	0	0	0
31.28078	0.004889378	0.03116979	0	0	0	0
31.29735	0.004889378	0.03116979	0	0	0	0
31.31391	0.004889378	0.03116979	0	0	0	0
31.33085	0.004889378	0.03116979	0	0	0	0
31.34705	0.004889378	0.03116979	0	0	0	0
31.36361	0.004889378	0.03116979	0	0	0	0
31.38018	0.004889378	0.03116979	0	0	0	0
31.39674	0.004889378	0.03116979	0	0	0	0
31.41351	0.004889378	0.03116979	0	0	0	0
31.42988	0.004889378	0.03116979	0	0	0	0
31.44644	0.004889378	0.03116979	0	0	0	0
31.46301	0.004889378	0.03116979	0	0	0	0
31.47958	0.004889378	0.03116979	0	0	0	0
31.49645	0.004889378	0.03116979	0	0	0	0
31.51283	0.004889378	0.03116979	0	0	0	0
31.52969	0.004889378	0.03116979	0	0	0	0
31.54585	0.004889378	0.03116979	0	0	0	0
31.56256	0.004889378	0.03116979	0	0	0	0
31.57911	0.004889378	0.03116979	0	0	0	0
31.59602	0.004889378	0.03116979	0	0	0	0
31.61211	0.004889378	0.03116979	0	0	0	0
31.62868	0.004889378	0.03116979	0	0	0	0
31.64525	0.004889378	0.03116979	0	0	0	0
31.66181	0.004889378	0.03116979	0	0	0	0
31.67838	0.004889378	0.03116979	0	0	0	0
31.69495	0.004889378	0.03116979	0	0	0	0
31.71152	0.004889378	0.03116979	0	0	0	0
31.72873	0.004889378	0.03116979	0	0	0	0
31.74465	0.004889378	0.03116979	0	0	0	0
31.76122	0.004889378	0.03116979	0	0	0	0
31.7783	0.004889378	0.03116979	0	0	0	0
31.79435	0.004889378	0.03116979	0	0	0	0
31.81091	0.004889378	0.03116979	0	0	0	0
31.82829	0.004889378	0.03116979	0	0	0	0
31.84422	0.004889378	0.03116979	0	0	0	0
31.86061	0.004889378	0.03116979	0	0	0	0
31.87718	0.004889378	0.03116979	0	0	0	0
31.89375	0.004889378	0.03116979	0	0	0	0
31.91083	0.004889378	0.03116979	0	0	0	0
31.92696	0.004889378	0.03116979	0	0	0	0
31.94345	0.004889378	0.03116979	0	0	0	0
31.96029	0.004889378	0.03116979	0	0	0	0
31.98719	0.004889378	0.03116979	0	0	0	0
32.00376	0.004889378	0.03116979	0	0	0	0
32.02032	0.004889378	0.03116979	0	0	0	0
32.03689	0.004889378	0.03116979	0	0	0	0
32.05346	0.004889378	0.03116979	0	0	0	0
32.07003	0.004889378	0.03116979	0	0	0	0
32.08659	0.004889378	0.03116979	0	0	0	0
32.10346	0.004889378	0.03116979	0	0	0	0
32.12001	0.004889378	0.03116979	0	0	0	0
32.13629	0.004889378	0.03116979	0	0	0	0
32.15286	0.004889378	0.03116979	0	0	0	0
32.16943	0.004889378	0.03116979	0	0	0	0
32.18599	0.004889378	0.03116979	0	0	0	0
32.20266	0.004889378	0.03116979	0	0	0	0
32.21913	0.004889378	0.03116979	0	0	0	0
32.23569	0.004889378	0.03116979	0	0	0	0
32.25226	0.004889378	0.03116979	0	0	0	0
32.26883	0.004889378	0.03116979	0	0	0	0
32.2854	0.004889378	0.03116979	0	0	0	0
32.30196	0.004889378	0.03116979	0	0	0	0
32.31853	0.004889378	0.03116979	0	0	0	0
32.33522	0.004889378	0.03116979	0	0	0	0
32.35167	0.004889378	0.03116979	0	0	0	0
32.36823	0.004889378	0.03116979	0	0	0	0
32.3848	0.004889378	0.03116979	0	0	0	0
32.40169	0.004889378	0.03116979	0	0	0	0
32.41818	0.004889378	0.03116979	0	0	0	0
32.43471	0.004889378	0.03116979	0	0	0	0
32.45107	0.004889378	0.03116979	0	0	0	0
32.46763	0.004889378	0.03116979	0	0	0	0
32.4842	0.004889378	0.03116979	0	0	0	0
32.50125	0.004889378	0.03116979	0	0	0	0
32.51733	0.004889378	0.03116979	0	0	0	0
32.5346	0.004889378	0.03116979	0	0	0	0
32.55046	0.004889378	0.03116979	0	0	0	0
32.56703	0.004889378	0.03116979	0	0	0	0
32.58377	0.004889378	0.03116979	0	0	0	0
32.60017	0.004889378	0.03116979	0	0	0	0
32.61673	0.004889378	0.03116979	0	0	0	0
32.6333	0.004889378	0.03116979	0	0	0	0
32.64988	0.004889378	0.03116979	0	0	0	0
32.66652	0.004889378	0.03116979	0	0	0	0
32.683	0.004889378	0.03116979	0	0	0	0
32.70018	0.004889378	0.03116979	0	0	0	0
32.71614	0.004889378	0.03116979	0	0	0	0
32.7327	0.006111722	0.02994744	0.07378083	-0.07378083	2.268231	-2.268231
32.74927	0.02322455	0.02261337	1.032932	-0.4426851	28.94724	-11.13355
32.7661	0.04889378	0.004278205	1.525167	-1.089405	14.73859	-19.36422
32.78241	0.09534287	-0.01894634	2.848269	-1.424135	39.92672	-10.101
32.79917	0.1527931	-0.0482826	3.428232	-1.750586	17.53965	-9.87279
32.8159	0.2053539	-0.07150716	3.140757	-1.387777	-8.583129	10.83239
32.8321	0.2676934	-0.1008434	3.847879	-1.810766	21.46952	-12.84273
32.84904	0.2933627	-0.1130669	1.515549	-0.7216902	-70.38175	32.8646
32.86523	0.3068085	-0.1191786	0.8303261	-0.3774211	-20.68246	10.39126
32.8818	0.3104755	-0.1204009	0.2213422	-0.07378028	-18.5889	9.268469
32.89837	0.3129202	-0.1216233	0.1475954	-0.07379816	-2.225937	-0.0005399485
32.91517	0.3153649	-0.1228456	0.1454515	-0.07272576	-0.06424505	0.03213592
32.9315	0.3165872	-0.1228456	0.07486675	-4.563376E-07	-2.130253	2.194854
32.94807	0.3190319	-0.1228456	0.1475614	4.497179E-07	2.209959	2.754459E-05
32.96489	0.3202543	-0.124068	0.07267804	-0.07267672	-2.242943	-2.176861
32.98133	0.3214766	-0.1252903	0.07432839	-0.07432884	0.04961341	-0.04966671
32.99776	0.3214766	-0.1252903	0	0	-2.260673	2.260687
33.01463	0.3214766	-0.1252903	0	0	0	0
33.0309	0.3214766	-0.1252903	0	0	0	0
33.04747	0.3214766	-0.1252903	0	0	0	0
33.06404	0.3214766	-0.1252903	0	0	0	0
33.0806	0.3214766	-0.1252903	0	0	0	0
33.09717	0.3214766	-0.1265126	-1.798872E-06	-0.07377983	-5.430256E-05	-2.227192
33.11374	0.3214766	-0.1265126	0	0	5.429006E-05	2.22668
33.1303	0.3214766	-0.1265126	0	0	0	0
33.14687	0.3214766	-0.1265126	0	0	0	0
33.16344	0.3214766	-0.1265126	0	0	0	0
33.18056	0.3214766	-0.1265126	0	0	0	0
33.19657	0.3116979	-0.1216233	-0.6107767	0.3053888	-18.43328	9.216653
33.21313	0.2786945	-0.1069551	-1.992544	0.8855753	-42.41972	17.8115
33.22981	0.212688	-0.07884122	-3.958643	1.686088	-59.15313	24.08467
33.24627	0.1356802	-0.04094854	-4.678358	2.302049	-21.72102	18.58972
33.26333	0.06356192	-0.006722895	-4.226555	2.005823	13.47716	-8.836332
33.28345	0.0110011	0.01283462	-2.612038	0.9719213	43.41772	-27.80378
33.30035	-0.0220022	0.02628041	-1.952961	0.7956508	17.80249	-4.761283
33.31659	-0.0220022	0.02628041	0	0	58.94048	-24.01279
33.3334	-0.0220022	0.02750275	1.107967E-07	0.07270937	3.35273E-06	2.200199
33.34972	-0.0220022	0.02750275	0	0	-3.343852E-06	-2.194373
33.3666	-0.0220022	0.02750275	0	0	0	0
33.38286	-0.0220022	0.02750275	0	0	0	0
33.39959	-0.0220022	0.02750275	0	0	0	0
33.41599	-0.0220022	0.02750275	0	0	0	0
33.43256	-0.0220022	0.02750275	0	0	0	0
33.4494	-0.0220022	0.02750275	0	0	0	0
33.4658	-0.0220022	0.02750275	0	0	0	0
33.48226	-0.0220022	0.02750275	0	0	0	0
33.49883	-0.0220022	0.02750275	0	0	0	0
33.51581	-0.0220022	0.02750275	0	0	0	0
33.53196	-0.0220022	0.02750275	0	0	0	0
33.54875	-0.0220022	0.02750275	0	0	0	0
33.56509	-0.0220022	0.02750275	0	0	0	0
33.58166	-0.0220022	0.02750275	0	0	0	0
33.59823	-0.0220022	0.02750275	0	0	0	0
33.6148	-0.0220022	0.02750275	0	0	0	0
33.63173	-0.0220022	0.02750275	0	0	0	0
33.64793	-0.0220022	0.02750275	0	0	0	0
33.6645	-0.0220022	0.02750275	0	0	0	0
33.68106	-0.0220022	0.02750275	0	0	0	0
33.69763	-0.0220022	0.02750275	0	0	0	0
33.71421	-0.0220022	0.02750275	0	0	0	0
33.73082	-0.0220022	0.02750275	0	0	0	0
33.74771	-0.0220022	0.02750275	0	0	0	0
33.7639	-0.0220022	0.02750275	0	0	0	0
33.78046	-0.0220022	0.02750275	0	0	0	0
33.79716	-0.0220022	0.02750275	0	0	0	0
33.8136	-0.0220022	0.02750275	0	0	0	0
33.83017	-0.0220022	0.02750275	0	0	0	0
33.84717	-0.0220022	0.02750275	0	0	0	0
33.8633	-0.0220022	0.02750275	0	0	0	0
33.87986	-0.0220022	0.02750275	0	0	0	0
33.89643	-0.0220022	0.02750275	0	0	0	0
33.913	-0.0220022	0.02750275	0	0	0	0
33.92957	-0.0220022	0.02750275	0	0	0	0
33.94613	-0.0220022	0.02750275	0	0	0	0
33.96325	-0.0220022	0.02750275	0	0	0	0
33.97926	-0.0220022	0.02750275	0	0	0	0
33.99583	-0.0220022	0.02750275	0	0	0	0
34.0124	-0.0220022	0.02750275	0	0	0	0
34.0291	-0.0220022	0.02750275	0	0	0	0
34.04554	-0.0220022	0.02750275	0	0	0	0
34.06222	-0.0220022	0.02750275	0	0	0	0
34.07867	-0.0220022	0.02750275	0	0	0	0
34.09525	-0.0220022	0.02750275	0	0	0	0
34.1118	-0.0220022	0.02750275	0	0	0	0
34.12836	-0.0220022	0.02750275	0	0	0	0
34.14493	-0.0220022	0.02750275	0	0	0	0
34.1615	-0.0220022	0.02750275	0	0	0	0
34.17807	-0.0220022	0.02750275	0	0	0	0
34.19463	-0.0220022	0.02750275	0	0	0	0
34.2112	-0.0220022	0.02750275	0	0	0	0
34.22784	-0.0220022	0.02750275	0	0	0	0
34.24434	-0.0220022	0.02750275	0	0	0	0
34.2609	-0.0220022	0.02750275	0	0	0	0
34.27747	-0.0220022	0.02750275	0	0	0	0
34.29441	-0.0220022	0.02750275	0	0	0	0
34.3106	-0.0220022	0.02750275	0	0	0	0
34.32742	-0.0220022	0.02750275	0	0	0	0
34.34394	-0.0220022	0.02750275	0	0	0	0
34.36044	-0.0220022	0.02750275	0	0	0	0
34.37687	-0.0220022	0.02750275	0	0	0	0
34.39346	-0.0220022	0.02750275	0	0	0	0
34.41	-0.0220022	0.02750275	0	0	0	0
34.42657	-0.0220022	0.02750275	0	0	0	0
34.44313	-0.0220022	0.02750275	0	0	0	0
34.46206	-0.0220022	0.02750275	0	0	0	0
34.47898	-0.0220022	0.02750275	0	0	0	0
34.49519	-0.0220022	0.02750275	0	0	0	0
34.51176	-0.0220022	0.02750275	0	0	0	0
34.52833	-0.0220022	0.02750275	0	0	0	0
34.5449	-0.0220022	0.02750275	0	0	0	0
34.56211	-0.0220022	0.02750275	0	0	0	0
34.57803	-0.0220022	0.02750275	0	0	0	0
34.5946	-0.0220022	0.02750275	0	0	0	0
34.61116	-0.0220022	0.02750275	0	0	0	0
34.62831	-0.0220022	0.02750275	0	0	0	0
34.64429	-0.0220022	0.02750275	0	0	0	0
34.66086	-0.0220022	0.02750275	0	0	0	0
34.67746	-0.0220022	0.02750275	0	0	0	0
34.6942	-0.0220022	0.02750275	0	0	0	0
34.71062	-0.0220022	0.02750275	0	0	0	0
34.72713	-0.0220022	0.02750275	0	0	0	0
34.7439	-0.0220022	0.02750275	0	0	0	0
34.76028	-0.0220022	0.02750275	0	0	0	0
34.77683	-0.0220022	0.02750275	0	0	0	0
34.79341	-0.0220022	0.02750275	0	0	0	0
34.80996	-0.0220022	0.02750275	0	0	0	0
34.82653	-0.0220022	0.02750275	0	0	0	0
34.84309	-0.0220022	0.02750275	0	0	0	0
34.85966	-0.0220022	0.02750275	0	0	0	0
34.87623	-0.0220022	0.02750275	0	0	0	0
34.8928	-0.0220022	0.02750275	0	0	0	0
34.90936	-0.0220022	0.02750275	0	0	0	0
34.92601	-0.0220022	0.02750275	0	0	0	0
34.9425	-0.0220022	0.02750275	0	0	0	0
34.96601	-0.0220022	0.02750275	0	0	0	0
34.98258	-0.0220022	0.02750275	0	0	0	0
34.99915	-0.0220022	0.02750275	0	0	0	0
35.01576	-0.0220022	0.02750275	0	0	0	0
35.03285	-0.0220022	0.02750275	0	0	0	0
35.04885	-0.0220022	0.02750275	0	0	0	0
35.06542	-0.0220022	0.02750275	0	0	0	0
35.08199	-0.0220022	0.02750275	0	0	0	0
35.09855	-0.0220022	0.02750275	0	0	0	0
35.11563	-0.0220022	0.02750275	0	0	0	0
35.13169	-0.0220022	0.02750275	0	0	0	0
35.14825	-0.0220022	0.02750275	0	0	0	0
35.16482	-0.0220022	0.02750275	0	0	0	0
35.18159	-0.0220022	0.02750275	0	0	0	0
35.19796	-0.0220022	0.02750275	0	0	0	0
35.21463	-0.0220022	0.02750275	0	0	0	0
35.23846	-0.0220022	0.02750275	0	0	0	0
35.25503	-0.0220022	0.02750275	0	0	0	0
35.2716	-0.0220022	0.02750275	0	0	0	0
35.28817	-0.0220022	0.02750275	0	0	0	0
35.30473	-0.0220022	0.02750275	0	0	0	0
35.3213	-0.0220022	0.02750275	0	0	0	0
35.33817	-0.0220022	0.02750275	0	0	0	0
35.35443	-0.0220022	0.02750275	0	0	0	0
35.37099	-0.0220022	0.02750275	0	0	0	0
35.38773	-0.0220022	0.02750275	0	0	0	0
35.40413	-0.0220022	0.02750275	0	0	0	0
35.42075	-0.0220022	0.02750275	0	0	0	0
35.43726	-0.0220022	0.02750275	0	0	0	0
35.45383	-0.0220022	0.02750275	0	0	0	0
35.47039	-0.0220022	0.02750275	0	0	0	0
35.48696	-0.0220022	0.02750275	0	0	0	0
35.50353	-0.0220022	0.02750275	0	0	0	0
35.5201	-0.0220022	0.02750275	0	0	0	0
35.53667	-0.0220022	0.02750275	0	0	0	0
35.55356	-0.0220022	0.02750275	0	0	0	0
35.5698	-0.0220022	0.02750275	0	0	0	0
35.58636	-0.0220022	0.02750275	0	0	0	0
35.60293	-0.0220022	0.02750275	0	0	0	0
35.6195	-0.0220022	0.02750275	0	0	0	0
35.63607	-0.0220022	0.02750275	0	0	0	0
35.65263	-0.0220022	0.02750275	0	0	0	0
35.66925	-0.0220022	0.02750275	0	0	0	0
35.68577	-0.0220022	0.02750275	0	0	0	0
35.70242	-0.0220022	0.02750275	0	0	0	0
35.7189	-0.0220022	0.02750275	0	0	0	0
35.73547	-0.0220022	0.02750275	0	0	0	0
35.75204	-0.0220022	0.02750275	0	0	0	0
35.7686	-0.0220022	0.02750275	0	0	0	0
35.78517	-0.0220022	0.02750275	0	0	0	0
35.80174	-0.0220022	0.02750275	0	0	0	0
35.819	-0.0220022	0.02750275	0	0	0	0
35.83487	-0.0220022	0.02750275	0	0	0	0
35.85144	-0.0220022	0.02750275	0	0	0	0
35.86801	-0.0220022	0.02750275	0	0	0	0
35.88458	-0.0220022	0.02750275	0	0	0	0
35.90864	-0.0220022	0.02750275	0	0	0	0
35.92556	-0.0220022	0.02750275	0	0	0	0
35.94217	-0.0220022	0.02750275	0	0	0	0
35.95866	-0.0220022	0.02750275	0	0	0	0
35.9752	-0.0220022	0.02750275	0	0	0	0
35.99174	-0.0220022	0.02750275	0	0	0	0
36.00866	-0.0220022	0.02750275	0	0	0	0
36.02461	-0.0220022	0.02750275	0	0	0	0
36.04166	-0.0220022	0.02750275	0	0	0	0
36.05774	-0.0220022	0.02750275	0	0	0	0
36.07431	-0.0220022	0.02750275	0	0	0	0
36.09088	-0.0220022	0.02750275	0	0	0	0
36.10772	-0.0220022	0.02750275	0	0	0	0
36.12401	-0.0220022	0.02750275	0	0	0	0
36.14058	-0.0220022	0.02750275	0	0	0	0
36.15715	-0.0220022	0.02750275	0	0	0	0
36.17371	-0.0220022	0.02750275	0	0	0	0
36.19028	-0.0220022	0.02750275	0	0	0	0
36.20694	-0.0220022	0.02750275	0	0	0	0
36.22342	-0.0220022	0.02750275	0	0	0	0
36.23999	-0.0220022	0.02750275	0	0	0	0
36.25655	-0.0220022	0.02750275	0	0	0	0
36.27316	-0.0220022	0.02750275	0	0	0	0
36.28968	-0.0220022	0.02750275	0	0	0	0
36.30625	-0.0220022	0.02750275	0	0	0	0
36.32305	-0.0220022	0.02750275	0	0	0	0
36.33961	-0.0220022	0.02750275	0	0	0	0
36.35596	-0.0220022	0.02750275	0	0	0	0
36.37252	-0.0220022	0.02750275	0	0	0	0
36.38948	-0.0220022	0.02750275	0	0	0	0
36.40565	-0.0220022	0.02750275	0	0	0	0
36.42222	-0.0220022	0.02750275	0	0	0	0
36.43879	-0.0220022	0.02750275	0	0	0	0
36.45536	-0.0220022	0.02750275	0	0	0	0
36.47192	-0.0220022	0.02750275	0	0	0	0
36.48881	-0.0220022	0.02750275	0	0	0	0
36.50537	-0.0220022	0.02750275	0	0	0	0
36.52162	-0.0220022	0.02750275	0	0	0	0
36.53842	-0.0220022	0.02750275	0	0	0	0
36.55843	-0.0220022	0.02750275	0	0	0	0
36.575	-0.0220022	0.02750275	0	0	0	0
36.59157	-0.0220022	0.02750275	0	0	0	0
36.60814	-0.0220022	0.02750275	0	0	0	0
36.6247	-0.0220022	0.02750275	0	0	0	0
36.64127	-0.0220022	0.02750275	0	0	0	0
36.65784	-0.0220022	0.02750275	0	0	0	0
36.6744	-0.0220022	0.02750275	0	0	0	0
36.69097	-0.0220022	0.02750275	0	0	0	0
36.70754	-0.0220022	0.02750275	0	0	0	0
36.72411	-0.0220022	0.02750275	0	0	0	0
36.74067	-0.0220022	0.02750275	0	0	0	0
36.75724	-0.0220022	0.02750275	0	0	0	0
36.7738	-0.0220022	0.02750275	0	0	0	0
36.79037	-0.0220022	0.02750275	0	0	0	0
36.80694	-0.0220022	0.02750275	0	0	0	0
36.82351	-0.02566923	0.02505806	-0.2213426	-0.1475617	-6.680134	-4.45342
36.84007	-0.0330033	0.02016868	-0.4426851	-0.2951235	-6.68013	-4.453424
36.85664	-0.04522675	0.01405696	-0.7378086	-0.3689043	-8.906843	-2.22671
36.87384	-0.05989488	0.00550055	-0.8527753	-0.4974522	-3.404637	-3.80683
36.88977	-0.08556411	-0.007945239	-1.611359	-0.8440452	-22.89674	-10.4614
36.90634	-0.113678	-0.02016868	-1.69696	-0.7378086	-2.634083	3.269079
36.92291	-0.141792	-0.02994744	-1.696178	-0.5899751	0.02358138	4.460598
36.93952	-0.1637942	-0.03850385	-1.325005	-0.5152797	11.18658	2.251204
36.95604	-0.1796846	-0.04706026	-0.9615867	-0.5177772	10.96924	-0.075385
36.97276	-0.1931304	-0.05317198	-0.8045493	-0.3657045	4.724713	4.575342
36.98929	-0.2139103	-0.06295075	-1.256881	-0.5914731	-13.60596	-6.791038
37.00574	-0.2334678	-0.07150715	-1.188979	-0.5201785	2.058741	2.16163
37.02231	-0.2566923	-0.08006357	-1.401515	-0.5163475	-6.436558	0.1160196
37.03888	-0.2762499	-0.08861998	-1.180493	-0.516466	6.669668	-0.003573947
37.05545	-0.2884733	-0.09350935	-0.7376392	-0.295055	13.36383	6.681427
37.07212	-0.294585	-0.09717638	-0.3664566	-0.2198744	11.16375	2.261144
37.08858	-0.2970297	-0.09717639	-0.1485897	-4.528461E-07	6.575995	6.636574
37.10514	-0.2994744	-0.09839873	-0.1475597	-0.07378072	0.03119314	-2.23441
37.12171	-0.3055861	-0.1020658	-0.3689904	-0.2213936	-6.683562	-4.455478
37.13829	-0.3165872	-0.1045105	-0.6635699	-0.14746	-8.888381	2.230805
37.15569	-0.326366	-0.1106222	-0.5619109	-0.3511952	2.991616	-5.995502
37.17165	-0.3312553	-0.1118445	-0.3062649	-0.07656576	7.661603	8.23053
37.18798	-0.3312553	-0.1118445	0	0	9.483288	2.370807
37.20454	-0.3312553	-0.1118445	0	0	0	0
37.22566	-0.3312553	-0.1118445	0	0	0	0
37.24223	-0.3312553	-0.1118445	0	0	0	0
37.2588	-0.3312553	-0.1118445	0	0	0	0
37.27536	-0.3312553	-0.1118445	0	0	0	0
37.29193	-0.3312553	-0.1118445	0	0	0	0
37.30879	-0.3312553	-0.1118445	0	0	0	0
37.32533	-0.3312553	-0.1118445	0	0	0	0
37.34163	-0.3312553	-0.1118445	0	0	0	0
37.3582	-0.3312553	-0.1118445	0	0	0	0
37.37477	-0.3312553	-0.1118445	0	0	0	0
37.39139	-0.3312553	-0.1118445	0	0	0	0
37.4079	-0.3312553	-0.1118445	0	0	0	0
37.42488	-0.3312553	-0.1118445	0	0	0	0
37.44103	-0.3324777	-0.1130669	-0.07566411	-0.07566272	-2.28381	-2.283768
37.4576	-0.3324777	-0.1130669	0	0	2.312298	2.312256
37.47417	-0.3324777	-0.1130669	0	0	0	0
37.49077	-0.3324777	-0.1130669	0	0	0	0
37.50794	-0.3324777	-0.1130669	0	0	0	0
37.52387	-0.3324777	-0.1130669	0	0	0	0
37.54044	-0.330033	-0.1130669	0.1475632	4.497179E-07	4.541303	1.38402E-05
37.557	-0.3153649	-0.1057328	0.8853705	0.4426848	22.26707	13.36024
37.57357	-0.290918	-0.09595405	1.475616	0.5902467	17.81365	4.453426
37.59014	-0.2566923	-0.08128591	2.065864	0.8853705	17.81371	8.906855
37.6067	-0.2090209	-0.06784012	2.877454	0.8115893	24.49383	-2.226721
37.62327	-0.1601271	-0.05439433	2.951234	0.8115898	2.226708	1.439097E-05
37.63984	-0.106344	-0.03972619	3.246358	0.8853703	8.906855	2.226699
37.65641	-0.05622784	-0.03116978	3.025015	0.516466	-6.680139	-11.13355
37.6735	-0.01955751	-0.02505806	2.145738	0.3576229	-26.12458	-4.719457
37.68954	0.01344579	-0.02139103	2.05697	0.2285524	-2.679024	-3.895353
37.70613	0.02322455	-0.02016868	0.5892971	0.07366211	-44.96748	-4.745625
37.72268	0.02811392	-0.02016868	0.2955998	0	-8.863803	-2.223127
37.73959	0.03055861	-0.01894634	0.1445007	0.07225032	-4.515985	2.159388
37.75581	0.03055861	-0.01894634	0	0	-4.361041	-2.180519
37.77259	0.03178095	-0.01894634	0.07285804	0	2.208267	0
37.78901	0.03178096	-0.01772399	2.268965E-07	0.0744495	-2.19481	2.242759
37.80552	0.03178096	-0.01772399	0	0	-6.890588E-06	-2.260947
37.82243	0.0330033	-0.01772399	0.0722665	0	2.16209	0
37.83865	0.0330033	-0.01772399	0	0	-2.181007	0
37.85588	0.03422565	-0.01772399	0.07092312	0	2.119962	0
37.87619	0.03544799	-0.01650165	0.06018589	0.06018598	-0.2859886	1.603068
37.89338	0.04278206	-0.01405696	0.4267663	0.1422554	9.77687	2.188828
37.90933	0.04522675	-0.01283462	0.1532426	0.07662133	-8.254012	-1.980611
37.9259	0.05256081	-0.009167584	0.4426852	0.2213426	8.900372	4.450182
37.94308	0.05622785	-0.006722894	0.2134305	0.142287	-6.793009	-2.342483
37.95903	0.05745019	-0.006722894	0.07662139	0	-4.128907	-4.29423
37.9756	0.05745019	-0.006722894	0	0	-2.35611	0
37.99221	0.05745019	-0.006722894	0	0	0	0
38.00874	0.05745019	-0.006722894	0	0	0	0
38.02531	0.05745019	-0.006722894	0	0	0	0
38.04208	0.05745019	-0.006722894	0	0	0	0
38.05844	0.05745019	-0.006722894	0	0	0	0
38.075	0.05745019	-0.006722894	0	0	0	0
38.0916	0.0550055	-0.006722894	-0.1472908	0	-4.441155	0
38.10814	0.0550055	-0.006722894	0	0	4.445757	0
38.1247	0.0550055	-0.006722894	0	0	0	0
38.1413	0.0550055	-0.006722894	0	0	0	0
38.15784	0.0550055	-0.006722894	0	0	0	0
38.17443	0.0550055	-0.006722894	0	0	0	0
38.1911	0.0550055	-0.006722894	0	0	0	0
38.20802	0.0550055	-0.006722894	0	0	0	0
38.22411	0.0550055	-0.006722894	0	0	0	0
38.24083	0.0550055	-0.006722894	0	0	0	0
38.25724	0.0550055	-0.006722894	0	0	0	0
38.2738	0.0550055	-0.006722894	0	0	0	0
38.29044	0.0550055	-0.006722894	0	0	0	0
38.3071	0.0550055	-0.006722894	0	0	0	0
38.3235	0.0550055	-0.006722894	0	0	0	0
38.34007	0.0550055	-0.006722894	0	0	0	0
38.35664	0.0550055	-0.006722894	0	0	0	0
38.37364	0.0550055	-0.006722894	0	0	0	0
38.38977	0.0550055	-0.006722894	0	0	0	0
38.40633	0.0550055	-0.006722894	0	0	0	0
38.42318	0.0550055	-0.006722894	0	0	0	0
38.43968	0.0550055	-0.006722894	0	0	0	0
38.45604	0.0550055	-0.006722894	0	0	0	0
38.4726	0.0550055	-0.006722894	0	0	0	0
38.48917	0.0550055	-0.006722894	0	0	0	0
38.50574	0.0550055	-0.006722894	0	0	0	0
38.5223	0.0550055	-0.006722894	0	0	0	0
38.53887	0.0550055	-0.006722894	0	0	0	0
38.55544	0.0550055	-0.006722894	0	0	0	0
38.572	0.0550055	-0.006722894	0	0	0	0
38.58881	0.0550055	-0.006722894	0	0	0	0
38.60514	0.0550055	-0.006722894	0	0	0	0
38.6217	0.0550055	-0.006722894	0	0	0	0
38.63827	0.0550055	-0.006722894	0	0	0	0
38.65484	0.0550055	-0.006722894	0	0	0	0
38.67141	0.0550055	-0.006722894	0	0	0	0
38.68797	0.0550055	-0.006722894	0	0	0	0
38.70454	0.0550055	-0.006722894	0	0	0	0
38.72118	0.0550055	-0.006722894	0	0	0	0
38.73768	0.0550055	-0.006722894	0	0	0	0
38.75445	0.0550055	-0.006722894	0	0	0	0
38.77081	0.0550055	-0.006722894	0	0	0	0
38.78805	0.0550055	-0.006722894	0	0	0	0
38.80394	0.0550055	-0.006722894	0	0	0	0
38.82051	0.0550055	-0.006722894	0	0	0	0
38.8371	0.0550055	-0.006722894	0	0	0	0
38.85364	0.0550055	-0.006722894	0	0	0	0
38.87065	0.0550055	-0.006722894	0	0	0	0
38.88677	0.05378316	-0.006722894	-0.07580546	0	-2.288077	0
38.90391	0.05378316	-0.006722894	0	0	2.279154	0
38.9199	0.05378316	-0.006722894	0	0	0	0
38.93647	0.05378316	-0.006722894	0	0	0	0
38.95317	0.05378316	-0.006722894	0	0	0	0
38.96961	0.05378316	-0.006722894	0	0	0	0
38.98617	0.05378316	-0.006722894	0	0	0	0
39.00274	0.05378316	-0.006722894	0	0	0	0
39.01931	0.05378316	-0.006722894	0	0	0	0
39.03587	0.05378316	-0.006722894	0	0	0	0
39.05263	0.05378316	-0.006722894	0	0	0	0
39.069	0.05378316	-0.006722894	0	0	0	0
39.08557	0.05378316	-0.006722894	0	0	0	0
39.10219	0.05378316	-0.006722894	0	0	0	0
39.11876	0.05378316	-0.006722894	0	0	0	0
39.1353	0.05378316	-0.006722894	0	0	0	0
39.15184	0.05378316	-0.006722894	0	0	0	0
39.1684	0.05378316	-0.006722894	0	0	0	0
39.18497	0.05378316	-0.006722894	0	0	0	0
39.20154	0.05378316	-0.006722894	0	0	0	0
39.21811	0.05378316	-0.006722894	0	0	0	0
39.23467	0.05378316	-0.006722894	0	0	0	0
39.25156	0.05378316	-0.006722894	0	0	0	0
39.26876	0.05378316	-0.006722894	0	0	0	0
39.28437	0.05378316	-0.006722894	0	0	0	0
39.30115	0.05378316	-0.006722894	0	0	0	0
39.31769	0.05378316	-0.006722894	0	0	0	0
39.33939	0.05378316	-0.006722894	0	0	0	0
39.35634	0.05378316	-0.006722894	0	0	0	0
39.37293	0.05378316	-0.006722894	0	0	0	0
39.3891	0.05378316	-0.006722894	0	0	0	0
39.40603	0.05378316	-0.006722894	0	0	0	0
39.42223	0.05378316	-0.006722894	0	0	0	0
39.4388	0.05378316	-0.006722894	0	0	0	0
39.45537	0.05378316	-0.006722894	0	0	0	0
39.47194	0.05378316	-0.006722894	0	0	0	0
39.4885	0.05378316	-0.006722894	0	0	0	0
39.5055	0.05378316	-0.006722894	0	0	0	0
39.52164	0.05378316	-0.006722894	0	0	0	0
39.53857	0.05378316	-0.006722894	0	0	0	0
39.55477	0.05378316	-0.006722894	0	0	0	0
39.57134	0.05378316	-0.006722894	0	0	0	0
39.58791	0.05378316	-0.006722894	0	0	0	0
39.60448	0.05378316	-0.006722894	0	0	0	0
39.62105	0.05378316	-0.006722894	0	0	0	0
39.63761	0.05378316	-0.006722894	0	0	0	0
39.65418	0.05378316	-0.006722894	0	0	0	0
39.67084	0.05378316	-0.006722894	0	0	0	0
39.68731	0.05378316	-0.006722894	0	0	0	0
39.70388	0.05378316	-0.006722894	0	0	0	0
39.72044	0.05378316	-0.006722894	0	0	0	0
39.73701	0.05378316	-0.006722894	0	0	0	0
39.75358	0.05378316	-0.006722894	0	0	0	0
39.77015	0.05378316	-0.006722894	0	0	0	0
39.78671	0.05378316	-0.006722894	0	0	0	0
39.80328	0.05378316	-0.006722894	0	0	0	0
39.82309	0.05378316	-0.006722894	0	0	0	0
39.83966	0.05378316	-0.006722894	0	0	0	0
39.85622	0.05378316	-0.006722894	0	0	0	0
39.87279	0.05378316	-0.006722894	0	0	0	0
39.8894	0.05378316	-0.006722894	0	0	0	0
39.90616	0.05378316	-0.006722894	0	0	0	0
39.92321	0.05378316	-0.006722894	0	0	0	0
39.93979	0.05378316	-0.006722894	0	0	0	0
39.95635	0.05378316	-0.006722894	0	0	0	0
39.97292	0.05378316	-0.006722894	0	0	0	0
39.98949	0.05378316	-0.006722894	0	0	0	0
40.00605	0.05378316	-0.006722894	0	0	0	0
40.02267	0.05378316	-0.006722894	0	0	0	0
40.03918	0.05378316	-0.006722894	0	0	0	0
40.05575	0.05378316	-0.006722894	0	0	0	0
40.07232	0.05378316	-0.006722894	0	0	0	0
40.08889	0.05378316	-0.006722894	0	0	0	0
40.10564	0.05378316	-0.006722894	0	0	0	0
40.12202	0.05378316	-0.006722894	0	0	0	0
40.13917	0.05378316	-0.006722894	0	0	0	0
40.15515	0.05378316	-0.006722894	0	0	0	0
40.17179	0.05378316	-0.006722894	0	0	0	0
40.18828	0.05378316	-0.006722894	0	0	0	0
40.20485	0.05378316	-0.006722894	0	0	0	0
40.2218	0.05378316	-0.006722894	0	0	0	0
40.23798	0.05378316	-0.006722894	0	0	0	0
40.25455	0.05378316	-0.006722894	0	0	0	0
40.27128	0.05378316	-0.006722894	0	0	0	0
40.28769	0.05378316	-0.006722894	0	0	0	0
40.30425	0.05378316	-0.006722894	0	0	0	0
40.32086	0.05378316	-0.006722894	0	0	0	0
40.33738	0.05378316	-0.006722894	0	0	0	0
40.35395	0.05378316	-0.006722894	0	0	0	0
40.37051	0.05378316	-0.006722894	0	0	0	0
40.38708	0.05378316	-0.006722894	0	0	0	0
40.40364	0.05378316	-0.006722894	0	0	0	0
40.42021	0.05378316	-0.006722894	0	0	0	0
40.43678	0.05378316	-0.006722894	0	0	0	0
40.45388	0.05378316	-0.006722894	0	0	0	0
40.46991	0.05378316	-0.006722894	0	0	0	0
40.48648	0.05378316	-0.006722894	0	0	0	0
40.50305	0.05378316	-0.006722894	0	0	0	0
40.51962	0.05378316	-0.006722894	0	0	0	0
40.53618	0.05378316	-0.006722894	0	0	0	0
40.55314	0.05378316	-0.006722894	0	0	0	0
40.56932	0.05378316	-0.006722894	0	0	0	0
40.58647	0.05378316	-0.006722894	0	0	0	0
40.60259	0.05378316	-0.006722894	0	0	0	0
40.61902	0.05378316	-0.006722894	0	0	0	0
40.63559	0.05378316	-0.006722894	0	0	0	0
40.65215	0.05378316	-0.006722894	0	0	0	0
40.66872	0.05378316	-0.006722894	0	0	0	0
40.68605	0.05378316	-0.006722894	0	0	0	0
40.70256	0.05378316	-0.006722894	0	0	0	0
40.71853	0.05378316	-0.006722894	0	0	0	0
40.73518	0.05378316	-0.006722894	0	0	0	0
40.75155	0.05378316	-0.006722894	0	0	0	0
40.76812	0.05378316	-0.006722894	0	0	0	0
40.78469	0.05378316	-0.006722894	0	0	0	0
40.80125	0.05378316	-0.006722894	0	0	0	0
40.81782	0.05378316	-0.006722894	0	0	0	0
40.83438	0.05378316	-0.006722894	0	0	0	0
40.85124	0.05378316	-0.006722894	0	0	0	0
40.86752	0.05378316	-0.006722894	0	0	0	0
40.88409	0.05378316	-0.006722894	0	0	0	0
40.90071	0.05378316	-0.006722894	0	0	0	0
40.91722	0.05378316	-0.006722894	0	0	0	0
40.93379	0.05378316	-0.006722894	0	0	0	0
40.95036	0.05378316	-0.006722894	0	0	0	0
40.96692	0.05378316	-0.006722894	0	0	0	0
40.98349	0.05378316	-0.006722894	0	0	0	0
41.00005	0.05011613	-0.00794524	-0.2213934	-0.07379789	-6.681665	-2.227225
41.01662	0.03667033	-0.01405696	-0.8115895	-0.3689043	-17.81421	-8.907354
41.03318	0.01466813	-0.01894634	-1.328361	-0.2951914	-15.598	2.224915
41.04976	-0.02077986	-0.02750275	-2.139152	-0.516347	-24.46972	-6.674488
41.06632	-0.07578536	-0.0397262	-3.320904	-0.7379788	-35.66533	-6.68886
41.08326	-0.184574	-0.05806136	-6.423038	-1.082534	-92.59919	-10.28504
41.09945	-0.2395795	-0.06784012	-3.395988	-0.6037313	91.35655	14.45031
41.11676	-0.2579147	-0.07150715	-1.059624	-0.2119244	69.74084	11.69549
41.13258	-0.2835839	-0.07639653	-1.621844	-0.3089233	-16.9698	-2.927769
41.14915	-0.3092532	-0.08617529	-1.549399	-0.5902472	2.236355	-8.684335
41.16572	-0.3165872	-0.08861998	-0.4426861	-0.1475614	33.40065	13.36028
41.18249	-0.3337001	-0.0971764	-1.020478	-0.5102397	-17.33205	-10.87927
41.19894	-0.3495905	-0.1081775	-0.9655971	-0.6684912	1.65176	-4.76288
41.21555	-0.3679257	-0.1167339	-1.103918	-0.5151612	-4.183215	4.637119
41.23199	-0.3813715	-0.1265126	-0.8181816	-0.5950416	8.647448	-2.417477
41.24855	-0.3874832	-0.131402	-0.3689072	-0.2951247	13.61399	9.088131
41.26512	-0.3899279	-0.1338467	-0.1475918	-0.1475945	6.68008	4.452982
41.28168	-0.3899279	-0.1338467	0	0	4.454843	4.454925
41.29825	-0.3899279	-0.1338467	0	0	0	0
41.31482	-0.3899279	-0.1338467	0	0	0	0
41.33139	-0.3899279	-0.1338467	0	0	0	0
41.3483	-0.3899279	-0.1338467	0	0	0	0
41.36452	-0.3899279	-0.1338467	0	0	0	0
41.38108	-0.3899279	-0.1338467	0	0	0	0
41.39765	-0.3899279	-0.1338467	0	0	0	0
41.41422	-0.3899279	-0.1338467	0	0	0	0
41.43079	-0.3862609	-0.1338467	0.2213404	0	6.680066	0
41.44757	-0.3728151	-0.1326244	0.800894	0.07280838	17.37494	2.182786
41.46392	-0.3569246	-0.127735	0.9721339	0.2991176	5.168031	6.830025
41.48049	-0.3324777	-0.1204009	1.475618	0.4426857	15.29733	4.362022
41.49706	-0.2958074	-0.1106222	2.213423	0.5902467	22.26701	4.453399
41.51362	-0.2298008	-0.09350935	3.984167	1.032932	53.44115	13.36027
41.53019	-0.1906857	-0.08373059	2.360989	0.5902472	-48.98763	-13.36025
41.54676	-0.1515707	-0.07639653	2.360987	0.4426848	-5.75639E-05	-4.453441
41.56332	-0.1197898	-0.06906246	1.918302	0.4426852	-13.36024	1.349154E-05
41.57989	-0.09656522	-0.06295075	1.402159	0.368989	-15.57902	-2.224413
41.59646	-0.07823005	-0.0592837	1.106458	0.2212921	-8.924274	-4.457501
41.61303	-0.06233957	-0.05317199	0.959151	0.3689038	-4.445232	4.454418
41.62959	-0.04522675	-0.0482826	1.032932	0.2951238	2.226721	-2.226687
41.64616	-0.02933627	-0.04339323	0.9593721	0.2951913	-2.220303	0.002038356
41.66304	-0.01711282	-0.03850385	0.7238091	0.2895238	-7.042016	-0.1694285
41.67934	-0.007334067	-0.03605916	0.6001971	0.150049	-3.725468	-4.203548
41.69623	0	-0.03361448	0.4340893	0.1446964	-5.005076	-0.1612823
41.71243	0.002444689	-0.03239213	0.1509683	0.07548425	-8.55643	-2.091717
41.72899	0.004889378	-0.03116979	0.1475957	0.07379783	-0.1029586	-0.05148317
41.74556	0.007334067	-0.03116979	0.1475617	-1.124295E-07	-0.001026375	-2.227483
41.76212	0.008556411	-0.02994744	0.07378078	0.07378107	-2.226713	2.22672
41.78469	0.009778756	-0.02994744	0.05416336	0	-0.501276	-1.885297
41.80126	0.0110011	-0.02994744	0.07376385	0	0.5007946	0
41.81821	0.0110011	-0.02994744	0	0	-2.20086	0
41.8344	0.0110011	-0.02994744	0	0	0	0
41.85118	0.0110011	-0.02994744	0	0	0	0
41.86769	0.0110011	-0.02994744	0	0	0	0
41.8841	0.0110011	-0.02994744	0	0	0	0
41.90095	0.0110011	-0.02994744	0	0	0	0
41.91723	0.0110011	-0.02994744	0	0	0	0
41.9338	0.0110011	-0.02994744	0	0	0	0
41.95044	0.0110011	-0.02994744	0	0	0	0
41.96695	0.0110011	-0.02994744	0	0	0	0
41.9835	0.0110011	-0.02994744	0	0	0	0
42.00006	0.0110011	-0.02994744	0	0	0	0
42.01669	0.0110011	-0.02994744	0	0	0	0
42.0332	0.0110011	-0.02994744	0	0	0	0
42.04977	0.0110011	-0.02994744	0	0	0	0
42.06633	0.0110011	-0.02994744	0	0	0	0
42.0829	0.0110011	-0.02994744	0	0	0	0
42.09959	0.0110011	-0.02994744	0	0	0	0
42.11634	0.0110011	-0.02994744	0	0	0	0
42.1326	0.0110011	-0.02994744	0	0	0	0
42.14917	0.0110011	-0.02994744	0	0	0	0
42.16573	0.0110011	-0.02994744	0	0	0	0
42.1823	0.0110011	-0.02994744	0	0	0	0
42.19887	0.0110011	-0.02994744	0	0	0	0
42.21584	0.0110011	-0.02994744	0	0	0	0
42.232	0.0110011	-0.02994744	0	0	0	0
42.24897	0.0110011	-0.02994744	0	0	0	0
42.26514	0.0110011	-0.02994744	0	0	0	0
42.2817	0.0110011	-0.02994744	0	0	0	0
42.29832	0.0110011	-0.02994744	0	0	0	0
42.31484	0.0110011	-0.02994744	0	0	0	0
42.33141	0.0110011	-0.02994744	0	0	0	0
42.34798	0.0110011	-0.02994744	0	0	0	0
42.36462	0.0110011	-0.02994744	0	0	0	0
42.3811	0.0110011	-0.02994744	0	0	0	0
42.39788	0.0110011	-0.02994744	0	0	0	0
42.41431	0.0110011	-0.02994744	0	0	0	0
42.43214	0.0110011	-0.02994744	0	0	0	0
42.44878	0.0110011	-0.02994744	0	0	0	0
42.46527	0.0110011	-0.02994744	0	0	0	0
42.48198	0.0110011	-0.02994744	0	0	0	0
42.49855	0.0110011	-0.02994744	0	0	0	0
42.51512	0.0110011	-0.02994744	0	0	0	0
42.53154	0.0110011	-0.02994744	0	0	0	0
42.54811	0.0110011	-0.02994744	0	0	0	0
42.56527	0.0110011	-0.02994744	0	0	0	0
42.58124	0.0110011	-0.02994744	0	0	0	0
42.59781	0.0110011	-0.02994744	0	0	0	0
42.61438	0.0110011	-0.02994744	0	0	0	0
42.63094	0.0110011	-0.02994744	0	0	0	0
42.64778	0.0110011	-0.02994744	0	0	0	0
42.66407	0.0110011	-0.02994744	0	0	0	0
42.68064	0.0110011	-0.02994744	0	0	0	0
42.69728	0.0110011	-0.02994744	0	0	0	0
42.71378	0.0110011	-0.02994744	0	0	0	0
42.73036	0.0110011	-0.02994744	0	0	0	0
42.74691	0.0110011	-0.02994744	0	0	0	0
42.76371	0.0110011	-0.02994744	0	0	0	0
42.78004	0.0110011	-0.02994744	0	0	0	0
42.79661	0.0110011	-0.02994744	0	0	0	0
42.81318	0.0110011	-0.02994744	0	0	0	0
42.82974	0.0110011	-0.02994744	0	0	0	0
42.84631	0.0110011	-0.02994744	0	0	0	0
42.86305	0.0110011	-0.02994744	0	0	0	0
42.87944	0.0110011	-0.02994744	0	0	0	0
42.89601	0.0110011	-0.02994744	0	0	0	0
42.91257	0.0110011	-0.02994744	0	0	0	0
42.92914	0.0110011	-0.02994744	0	0	0	0
42.94571	0.0110011	-0.02994744	0	0	0	0
42.96235	0.0110011	-0.02994744	0	0	0	0
42.97884	0.0110011	-0.02994744	0	0	0	0
42.99541	0.0110011	-0.02994744	0	0	0	0
43.01198	0.0110011	-0.02994744	0	0	0	0
43.02855	0.0110011	-0.02994744	0	0	0	0
43.04511	0.0110011	-0.02994744	0	0	0	0
43.06168	0.0110011	-0.02994744	0	0	0	0
43.07868	0.0110011	-0.02994744	0	0	0	0
43.09481	0.0110011	-0.02994744	0	0	0	0
43.11138	0.0110011	-0.02994744	0	0	0	0
43.12794	0.0110011	-0.02994744	0	0	0	0
43.14451	0.0110011	-0.02994744	0	0	0	0
43.16108	0.0110011	-0.02994744	0	0	0	0
43.17765	0.0110011	-0.02994744	0	0	0	0
43.19421	0.0110011	-0.02994744	0	0	0	0
43.21078	0.0110011	-0.02994744	0	0	0	0
43.22741	0.0110011	-0.02994744	0	0	0	0
43.24396	0.0110011	-0.02994744	0	0	0	0
43.26095	0.0110011	-0.02994744	0	0	0	0
43.27705	0.0110011	-0.02994744	0	0	0	0
43.29361	0.0110011	-0.02994744	0	0	0	0
43.31018	0.0110011	-0.02994744	0	0	0	0
43.32675	0.0110011	-0.02994744	0	0	0	0
43.34332	0.0110011	-0.02994744	0	0	0	0
43.3599	0.0110011	-0.02994744	0	0	0	0
43.37645	0.0110011	-0.02994744	0	0	0	0
43.39325	0.0110011	-0.02994744	0	0	0	0
43.40958	0.0110011	-0.02994744	0	0	0	0
43.42615	0.0110011	-0.02994744	0	0	0	0
43.44272	0.0110011	-0.02994744	0	0	0	0
43.45929	0.0110011	-0.02994744	0	0	0	0
43.47597	0.0110011	-0.02994744	0	0	0	0
43.49268	0.0110011	-0.02994744	0	0	0	0
43.50898	0.0110011	-0.02994744	0	0	0	0
43.52589	0.0110011	-0.02994744	0	0	0	0
43.54212	0.0110011	-0.02994744	0	0	0	0
43.55873	0.0110011	-0.02994744	0	0	0	0
43.57525	0.0110011	-0.02994744	0	0	0	0
43.59182	0.0110011	-0.02994744	0	0	0	0
43.6084	0.0110011	-0.02994744	0	0	0	0
43.62495	0.0110011	-0.02994744	0	0	0	0
43.64151	0.0110011	-0.02994744	0	0	0	0
43.65882	0.0110011	-0.02994744	0	0	0	0
43.67502	0.0110011	-0.02994744	0	0	0	0
43.69121	0.0110011	-0.02994744	0	0	0	0
