Time	Pos X	Pos Y	Vel X	Vel Y	Acc X	Acc Y
0.01608432	0.03178096	-0.03361448	1.975897	-2.089891	122.8461	-129.9334
0.03264906	0.03178096	-0.03116979	0	0.147584	-60.51925	68.53105
0.04932433	0.0330033	-0.02994744	0.07330269	0.07330281	2.205255	-2.234691
0.06578367	0.0330033	-0.0287251	0	0.07426459	-2.21227	0.02902646
0.08284423	0.0330033	-0.0287251	0	0	0	-2.215538
0.0989171	0.0330033	-0.0287251	0	0	0	0
0.1156062	0.0330033	-0.0287251	0	0	0	0
0.1321504	0.0330033	-0.02994744	0	-0.07388362	0	-2.223181
0.1486169	0.03789268	-0.04217089	0.2969295	-0.7423241	8.994959	-20.24923
0.165184	0.04278206	-0.05928371	0.2951259	-1.03294	-0.05459922	-8.797582
0.1818123	0.05011612	-0.07884122	0.4410591	-1.176158	4.396186	-4.314411
0.1983829	0.06478426	-0.1142892	0.8851874	-2.139203	13.37778	-29.00829
0.2148845	0.0794524	-0.1424031	0.8888931	-1.703711	0.1120499	13.16792
0.2314504	0.09900991	-0.1692947	1.180587	-1.623308	8.821176	2.431466
0.2480199	0.1234568	-0.1900746	1.475416	-1.254104	8.897695	11.14229
0.2645846	0.1479037	-0.2108544	1.475839	-1.254463	0.01277928	-0.01085447
0.2811514	0.1723506	-0.2291896	1.475662	-1.106746	-0.005343132	4.458536
0.2977165	0.1943528	-0.2438577	1.328223	-0.885482	-4.450077	6.678271
0.3142848	0.2041315	-0.2499695	0.5902094	-0.3688824	-22.27398	15.59148
0.3308495	0.2077986	-0.2511918	0.2213747	-0.07379097	-11.13193	8.906263
0.3474154	0.2090209	-0.2524141	0.07378656	-0.07378477	-4.454732	0.0001873291
0.3639829	0.2102433	-0.2524141	0.07378043	-1.798843E-06	-0.0001850648	2.226845
0.3805501	0.2139103	-0.2536365	0.2213438	-0.07378125	4.45345	-2.226658
0.3971164	0.220022	-0.2573035	0.3689251	-0.2213563	4.454154	-4.453965
0.4142239	0.2249114	-0.2634152	0.2858033	-0.357253	-2.468441	-4.035677
0.4306986	0.2298008	-0.2683046	0.29678	-0.29678	0.3268621	1.800742
0.4468856	0.2371348	-0.2756387	0.4530861	-0.4530843	4.785611	-4.785555
0.4633828	0.2505806	-0.2878622	0.8150337	-0.7409417	11.07409	-8.807241
0.4799495	0.2628041	-0.2976409	0.7378298	-0.5902621	-2.334988	4.557219
0.4965324	0.2701381	-0.3049749	0.4422677	-0.4422677	-8.916001	4.464436
0.5130877	0.2713605	-0.3061973	0.07383218	-0.07383399	-11.11815	11.1181
0.5296662	0.2713605	-0.3061973	0	0	-2.228302	2.228356
0.5462207	0.2713605	-0.3061973	0	0	0	0
0.5628538	0.2713605	-0.3061973	0	0	0	0
0.5794272	0.2713605	-0.3061973	0	0	0	0
0.5961494	0.2713605	-0.3061973	0	0	0	0
0.6125551	0.2713605	-0.3061973	0	0	0	0
0.6293606	0.2713605	-0.3061973	0	0	0	0
0.6457998	0.2713605	-0.3061973	0	0	0	0
0.6622592	0.2713605	-0.3061973	0	0	0	0
0.678865	0.2713605	-0.3061973	0	0	0	0
0.6953914	0.2713605	-0.3061973	0	0	0	0
0.712544	0.2701381	-0.3037526	-0.07126128	0.142526	-2.115896	4.231895
0.7285738	0.2640264	-0.2988632	-0.381271	0.3050168	-9.3426	4.896899
0.7450876	0.2542476	-0.2866398	-0.5921583	0.7401951	-6.480134	13.37214
0.7618229	0.2310231	-0.2609705	-1.387761	1.533843	-23.92856	23.86976
0.7782435	0.2090209	-0.2401907	-1.339909	1.26547	1.443243	-8.094272
0.7947909	0.1796846	-0.2132991	-1.772865	1.625126	-13.1326	10.90923
0.811467	0.1356802	-0.1680724	-2.638775	2.712074	-26.06322	32.71631
0.8279247	0.08923114	-0.127735	-2.822326	2.450968	-5.539692	-7.880365
0.8444906	0.05500551	-0.09350935	-2.066027	2.066027	22.90174	-11.65652
0.8610712	0.02933627	-0.0727295	-1.548156	1.253269	15.62373	-24.52021
0.8776245	0.01711282	-0.05928371	-0.7384304	0.8122731	24.43805	-13.30955
0.8941904	0.0110011	-0.05317198	-0.3689335	0.3689337	11.15658	-13.38617
0.9109024	0.009778756	-0.05194964	-0.07314172	0.07314155	8.888527	-8.888539
0.9274727	0.009778756	-0.05194964	0	0	2.197617	-2.197612
0.9440398	0.009778756	-0.05194964	0	0	0	0
0.9607237	0.009778756	-0.05194964	0	0	0	0
0.9771728	0.009778756	-0.05194964	0	0	0	0
0.9937403	0.009778756	-0.05194964	0	0	0	0
1.010306	0.009778756	-0.05194964	0	0	0	0
1.026871	0.009778756	-0.05194964	0	0	0	0
1.043439	0.009778756	-0.05072729	0	0.07377799	0	2.22672
1.060006	0.009778756	-0.05072729	0	0	0	-2.226584
1.076742	0.008556411	-0.04950495	-0.07303674	0.07303657	-2.193089	2.193083
1.093146	0.008556412	-0.04461557	5.677648E-08	0.2980724	2.20393	6.790594
1.109864	0.006111723	-0.03850385	-0.1462244	0.3655611	-4.414715	2.037574
1.126273	0.006111722	-0.03483682	-2.837875E-08	0.2234797	4.413981	-4.288918
1.142838	0.006111723	-0.03361448	2.811223E-08	0.07379347	1.713241E-06	-4.539638
1.159407	0.006111722	-0.03239213	-2.810353E-08	0.07377087	-1.696625E-06	-0.0006822344
1.175973	0.006111722	-0.03116979	0	0.07378508	8.481326E-07	0.0004290139
1.19254	0.006111722	-0.02994744	0	0.07378508	0	0
1.209106	0.006111722	-0.02994744	0	0	0	-2.226934
1.225672	0.006111722	-0.02994744	0	0	0	0
1.24224	0.006111722	-0.0287251	0	0.07377989	0	2.226753
1.258807	0.006111722	-0.0287251	0	0	0	-2.226673
1.275482	0.006111722	-0.02750275	0	0.07330297	0	2.205108
1.292089	0.006111722	-0.02750275	0	0	0	-2.202494
1.308506	0.006111722	-0.02750275	0	0	0	0
1.32513	0.006111722	-0.02750275	0	0	0	0
1.341639	0.006111722	-0.02628041	0	0.07404082	0	2.234653
1.358206	0.006111722	-0.02628041	0	0	0	-2.238495
1.37483	0.006111722	-0.02628041	0	0	0	0
1.391339	0.006111723	-0.02505806	2.820641E-08	0.07404082	8.513081E-07	2.234653
1.407907	0.006111723	-0.02505806	0	0	-8.527624E-07	-2.23847
1.424473	0.006111723	-0.02505806	0	0	0	0
1.441039	0.006111723	-0.02505806	0	0	0	0
1.457716	0.006111723	-0.02505806	0	0	0	0
1.474173	0.006111723	-0.02505806	0	0	0	0
1.49074	0.006111723	-0.02505806	0	0	0	0
1.507306	0.006111723	-0.02505806	0	0	0	0
1.523873	0.006111723	-0.02505806	0	0	0	0
1.540439	0.006111723	-0.02505806	0	0	0	0
1.557006	0.006111723	-0.02505806	0	0	0	0
1.573833	0.006111723	-0.02505806	0	0	0	0
1.59014	0.006111723	-0.02505806	0	0	0	0
1.606706	0.006111723	-0.02505806	0	0	0	0
1.623273	0.006111723	-0.02505806	0	0	0	0
1.639839	0.006111723	-0.02505806	0	0	0	0
1.656406	0.006111723	-0.02505806	0	0	0	0
1.672974	0.006111723	-0.02505806	0	0	0	0
1.68954	0.006111723	-0.02505806	0	0	0	0
1.706107	0.006111723	-0.02505806	0	0	0	0
1.722878	0.006111723	-0.02505806	0	0	0	0
1.73924	0.006111723	-0.02505806	0	0	0	0
1.755806	0.006111723	-0.02505806	0	0	0	0
1.772583	0.006111723	-0.02505806	0	0	0	0
1.788939	0.006111723	-0.02505806	0	0	0	0
1.805951	0.006111723	-0.02505806	0	0	0	0
1.822071	0.006111723	-0.02505806	0	0	0	0
1.83864	0.006111723	-0.02505806	0	0	0	0
1.855207	0.006111723	-0.02505806	0	0	0	0
1.871772	0.006111723	-0.02505806	0	0	0	0
1.888338	0.006111723	-0.02505806	0	0	0	0
1.904907	0.006111723	-0.02505806	0	0	0	0
1.921473	0.006111723	-0.02505806	0	0	0	0
1.938124	0.006111723	-0.02505806	0	0	0	0
1.954699	0.006111723	-0.02505806	0	0	0	0
1.975448	0.006111723	-0.02505806	0	0	0	0
1.992019	0.006111723	-0.02505806	0	0	0	0
2.008586	0.006111723	-0.02505806	0	0	0	0
2.025153	0.006111723	-0.02505806	0	0	0	0
2.041951	0.006111723	-0.02505806	0	0	0	0
2.058316	0.006111723	-0.02505806	0	0	0	0
2.074853	0.006111723	-0.02505806	0	0	0	0
2.091419	0.006111723	-0.02505806	0	0	0	0
2.107983	0.006111723	-0.02505806	0	0	0	0
2.124552	0.006111723	-0.02505806	0	0	0	0
2.141119	0.006111723	-0.02505806	0	0	0	0
2.15783	0.006111723	-0.02505806	0	0	0	0
2.174249	0.006111723	-0.02505806	0	0	0	0
2.190819	0.006111723	-0.02505806	0	0	0	0
2.207386	0.007334067	-0.02505806	0.07378193	0	2.226631	0
2.224036	0.007334067	-0.02383572	-5.593222E-08	0.07341014	-2.221151	2.209957
2.240786	0.008556412	-0.02383572	0.07297955	-1.112084E-07	2.185014	-2.197908
2.257301	0.008556412	-0.02383572	0	0	-2.193892	3.343117E-06
2.274131	0.008556412	-0.02383572	0	0	0	0
2.290219	0.008556412	-0.02383572	0	0	0	0
2.306786	0.009778757	-0.02261337	0.07377983	0.07377989	2.259324	2.259326
2.32335	0.009778757	-0.02261337	0	0	-2.226888	-2.22689
2.339916	0.009778757	-0.02261337	0	0	0	0
2.356499	0.009778757	-0.02261337	0	0	0	0
2.373053	0.009778757	-0.02261337	0	0	0	0
2.389938	0.009778757	-0.02261337	0	0	0	0
2.406185	0.009778756	-0.02139103	-5.732262E-08	0.0752349	-1.730112E-06	2.270741
2.422752	0.009778756	-0.02139103	0	0	1.746906E-06	-2.292783
2.439319	0.009778756	-0.02139103	0	0	0	0
2.455885	0.009778756	-0.02139103	0	0	0	0
2.472452	0.009778756	-0.02139103	0	0	0	0
2.489018	0.009778756	-0.02139103	0	0	0	0
2.505781	0.009778756	-0.02139103	0	0	0	0
2.522153	0.009778756	-0.02139103	0	0	0	0
2.538719	0.009778756	-0.02139103	0	0	0	0
2.555285	0.009778756	-0.02139103	0	0	0	0
2.571887	0.009778756	-0.02139103	0	0	0	0
2.58895	0.009778756	-0.02139103	0	0	0	0
2.604985	0.009778756	-0.02139103	0	0	0	0
2.621551	0.009778756	-0.02139103	0	0	0	0
2.638119	0.009778756	-0.02139103	0	0	0	0
2.655047	0.009778756	-0.02139103	0	0	0	0
2.671303	0.009778756	-0.02139103	0	0	0	0
2.688315	0.009778756	-0.02139103	0	0	0	0
2.704549	0.009778756	-0.02139103	0	0	0	0
2.721215	0.009778756	-0.02139103	0	0	0	0
2.737516	0.009778756	-0.02139103	0	0	0	0
2.754461	0.009778756	-0.02139103	0	0	0	0
2.770663	0.009778756	-0.02139103	0	0	0	0
2.787219	0.009778756	-0.02139103	0	0	0	0
2.804265	0.009778756	-0.02139103	0	0	0	0
2.820743	0.009778756	-0.02139103	0	0	0	0
2.837302	0.009778756	-0.02139103	0	0	0	0
2.857342	0.009778756	-0.02139103	0	0	0	0
2.874044	0.009778756	-0.02139103	0	0	0	0
2.890758	0.009778756	-0.02139103	0	0	0	0
2.907217	0.009778756	-0.02139103	0	0	0	0
2.923613	0.009778756	-0.02139103	0	0	0	0
2.940405	0.009778756	-0.02139103	0	0	0	0
2.95677	0.009778756	-0.02139103	0	0	0	0
2.973314	0.009778756	-0.02139103	0	0	0	0
2.989877	0.009778756	-0.02139103	0	0	0	0
3.006445	0.009778756	-0.02139103	0	0	0	0
3.023013	0.009778756	-0.02139103	0	0	0	0
3.039721	0.009778756	-0.02139103	0	0	0	0
3.056146	0.009778756	-0.02139103	0	0	0	0
3.072713	0.009778756	-0.02139103	0	0	0	0
3.089629	0.009778756	-0.02139103	0	0	0	0
3.105847	0.009778756	-0.02139103	0	0	0	0
3.122411	0.009778756	-0.02139103	0	0	0	0
3.139398	0.009778756	-0.02139103	0	0	0	0
3.155547	0.009778756	-0.02139103	0	0	0	0
3.172113	0.009778756	-0.02139103	0	0	0	0
3.188779	0.009778756	-0.02139103	0	0	0	0
3.205246	0.009778756	-0.02139103	0	0	0	0
3.221828	0.009778756	-0.02139103	0	0	0	0
3.238379	0.009778756	-0.02139103	0	0	0	0
3.254947	0.009778756	-0.02139103	0	0	0	0
3.271513	0.0110011	-0.02261337	0.07378514	-0.07378519	2.226888	-2.22689
3.28808	0.0110011	-0.02261337	0	0	-2.226936	2.226938
3.304646	0.0110011	-0.02261337	0	0	0	0
3.321213	0.0110011	-0.02261337	0	0	0	0
3.33778	0.0110011	-0.02261337	0	0	0	0
3.354346	0.0110011	-0.02261337	0	0	0	0
3.371003	0.0110011	-0.02261337	0	0	0	0
3.38754	0.0110011	-0.02261337	0	0	0	0
3.404047	0.0110011	-0.02261337	0	0	0	0
3.420622	0.0110011	-0.02261337	0	0	0	0
3.437222	0.0110011	-0.02261337	0	0	0	0
3.453747	0.0110011	-0.02261337	0	0	0	0
3.470313	0.0110011	-0.02261337	0	0	0	0
3.487315	0.0110011	-0.02261337	0	0	0	0
3.503445	0.0110011	-0.02261337	0	0	0	0
3.520013	0.0110011	-0.02261337	0	0	0	0
3.536579	0.0110011	-0.02261337	0	0	0	0
3.553146	0.0110011	-0.02261337	0	0	0	0
3.569728	0.0110011	-0.02261337	0	0	0	0
3.586279	0.0110011	-0.02261337	0	0	0	0
3.602846	0.0110011	-0.02261337	0	0	0	0
3.619412	0.0110011	-0.02261337	0	0	0	0
3.636683	0.0110011	-0.02261337	0	0	0	0
3.652546	0.0110011	-0.02261337	0	0	0	0
3.669176	0.0110011	-0.02261337	0	0	0	0
3.686375	0.0110011	-0.02261337	0	0	0	0
3.702246	0.0110011	-0.02261337	0	0	0	0
3.718812	0.0110011	-0.02261337	0	0	0	0
3.735379	0.0110011	-0.02261337	0	0	0	0
3.751946	0.0110011	-0.02261337	0	0	0	0
3.768513	0.0110011	-0.02261337	0	0	0	0
3.785079	0.0110011	-0.02261337	0	0	0	0
3.801646	0.0110011	-0.02261337	0	0	0	0
3.818212	0.0110011	-0.02261337	0	0	0	0
3.83478	0.0110011	-0.02261337	0	0	0	0
3.851782	0.0110011	-0.02261337	0	0	0	0
3.868432	0.0110011	-0.02261337	0	0	0	0
3.884479	0.0110011	-0.02383572	0	-0.07617161	0	-2.329607
3.901046	0.0110011	-0.02383572	0	0	0	2.33555
3.917613	0.0110011	-0.02628041	0	-0.1475659	0	-4.453676
3.934179	0.0110011	-0.02628041	0	0	0	4.453741
3.950746	0.0110011	-0.02628041	0	0	0	0
3.967312	0.0110011	-0.02628041	0	0	0	0
3.984299	0.0110011	-0.02628041	0	0	0	0
4.00077	0.0110011	-0.02628041	0	0	0	0
4.017012	0.0110011	-0.02628041	0	0	0	0
4.033579	0.0110011	-0.02628041	0	0	0	0
4.050498	0.0110011	-0.02628041	0	0	0	0
4.066713	0.0110011	-0.02628041	0	0	0	0
4.083279	0.0110011	-0.02628041	0	0	0	0
4.099846	0.0110011	-0.02628041	0	0	0	0
4.116899	0.0110011	-0.02628041	0	0	0	0
4.132978	0.0110011	-0.02628041	0	0	0	0
4.149546	0.0110011	-0.02628041	0	0	0	0
4.166233	0.0110011	-0.02628041	0	0	0	0
4.182679	0.0110011	-0.02628041	0	0	0	0
4.199246	0.0110011	-0.02628041	0	0	0	0
4.215813	0.0110011	-0.02628041	0	0	0	0
4.232378	0.0110011	-0.02628041	0	0	0	0
4.249215	0.0110011	-0.02628041	0	0	0	0
4.265512	0.0110011	-0.02628041	0	0	0	0
4.282082	0.0110011	-0.02628041	0	0	0	0
4.298645	0.0110011	-0.02628041	0	0	0	0
4.315392	0.0110011	-0.02628041	0	0	0	0
4.331779	0.0110011	-0.02628041	0	0	0	0
4.348346	0.0110011	-0.02628041	0	0	0	0
4.364912	0.0110011	-0.02628041	0	0	0	0
4.381479	0.0110011	-0.02628041	0	0	0	0
4.398046	0.0110011	-0.02628041	0	0	0	0
4.414612	0.0110011	-0.02628041	0	0	0	0
4.431179	0.0110011	-0.02628041	0	0	0	0
4.447745	0.0110011	-0.02628041	0	0	0	0
4.464313	0.0110011	-0.02628041	0	0	0	0
4.48105	0.0110011	-0.02628041	0	0	0	0
4.497448	0.0110011	-0.02628041	0	0	0	0
4.514012	0.0110011	-0.02628041	0	0	0	0
4.530612	0.0110011	-0.02628041	0	0	0	0
4.547146	0.0110011	-0.02628041	0	0	0	0
4.563713	0.0110011	-0.02628041	0	0	0	0
4.58028	0.0110011	-0.02628041	0	0	0	0
4.596845	0.0110011	-0.02628041	0	0	0	0
4.613413	0.0110011	-0.02628041	0	0	0	0
4.630291	0.0110011	-0.02628041	0	0	0	0
4.646545	0.0110011	-0.02628041	0	0	0	0
4.663113	0.0110011	-0.02628041	0	0	0	0
4.679679	0.0110011	-0.02628041	0	0	0	0
4.696245	0.0110011	-0.02628041	0	0	0	0
4.712811	0.0110011	-0.02628041	0	0	0	0
4.729464	0.0110011	-0.02628041	0	0	0	0
4.745944	0.0110011	-0.02628041	0	0	0	0
4.762513	0.0110011	-0.02628041	0	0	0	0
4.779078	0.0110011	-0.02628041	0	0	0	0
4.795886	0.0110011	-0.02628041	0	0	0	0
4.812213	0.0110011	-0.02628041	0	0	0	0
4.828779	0.0110011	-0.02628041	0	0	0	0
4.845346	0.0110011	-0.02628041	0	0	0	0
4.862705	0.0110011	-0.02628041	0	0	0	0
4.878479	0.0110011	-0.02628041	0	0	0	0
4.895081	0.0110011	-0.02628041	0	0	0	0
4.911685	0.0110011	-0.02628041	0	0	0	0
4.928182	0.0110011	-0.02628041	0	0	0	0
4.945023	0.0110011	-0.02628041	0	0	0	0
4.961314	0.0110011	-0.02628041	0	0	0	0
4.977881	0.0110011	-0.02628041	0	0	0	0
4.994559	0.0110011	-0.02628041	0	0	0	0
5.011016	0.0110011	-0.02628041	0	0	0	0
5.027584	0.0110011	-0.02628041	0	0	0	0
5.044241	0.0110011	-0.02628041	0	0	0	0
5.061216	0.0110011	-0.02628041	0	0	0	0
5.077279	0.0110011	-0.02628041	0	0	0	0
5.094255	0.0110011	-0.02628041	0	0	0	0
5.110414	0.0110011	-0.02628041	0	0	0	0
5.126979	0.0110011	-0.02628041	0	0	0	0
5.143916	0.0110011	-0.02628041	0	0	0	0
5.160111	0.0110011	-0.02628041	0	0	0	0
5.17668	0.0110011	-0.02628041	0	0	0	0
5.193246	0.0110011	-0.02628041	0	0	0	0
5.209814	0.0110011	-0.02628041	0	0	0	0
5.22638	0.0110011	-0.02628041	0	0	0	0
5.242946	0.0110011	-0.02628041	0	0	0	0
5.259523	0.0110011	-0.02628041	0	0	0	0
5.27621	0.01222344	-0.02505806	0.07325165	0.07325165	2.202119	2.202119
5.292645	0.01466813	-0.02383572	0.1487476	0.0743739	2.279326	0.03388229
5.309212	0.01955751	-0.01650165	0.2951234	0.4426851	4.43531	11.16014
5.32591	0.02444689	-0.009167584	0.2928226	0.4392339	-0.06916562	-0.1037516
5.342347	0.02811392	-0.003055861	0.2230956	0.3718259	-2.104366	-2.034376
5.358913	0.03178096	-0.0006111722	0.221349	0.147566	-0.05292101	-6.794972
5.375825	0.03178096	-0.0006111722	0	0	-6.611723	-4.407815
5.392046	0.03178096	-0.0006111722	0	0	0	0
5.408806	0.03178096	-0.0006111722	0	0	0	0
5.42518	0.03178096	-0.0006111722	0	0	0	0
5.441747	0.03178096	-0.0006111722	0	0	0	0
5.458313	0.03178096	-0.01283462	0	-0.7378724	0	-22.27063
5.47491	0.03178096	-0.03850386	0	-1.546594	0	-24.38621
5.491766	0.0330033	-0.08006357	0.07251386	-2.465476	2.167573	-27.46707
5.508013	0.03911502	-0.1546266	0.3761802	-4.589398	9.173247	-64.16011
5.52458	0.04889378	-0.2243002	0.5902639	-4.205629	6.524248	11.69543
5.541146	0.0550055	-0.2744164	0.3689362	-3.025278	-6.680069	35.62512
5.557723	0.05989488	-0.3098643	0.2949536	-2.138414	-2.232253	26.75908
5.574279	0.06111722	-0.3379782	0.0738277	-1.698034	-6.673784	13.29108
5.590846	0.06111723	-0.3538688	2.248654E-07	-0.9591807	-2.228855	22.30601
5.607413	0.05989488	-0.3599805	-0.07378307	-0.3689142	-2.226848	17.81479
5.62398	0.05989488	-0.3612028	-2.248654E-07	-0.07378285	2.226835	8.907339
5.641384	0.05989488	-0.3612028	0	0	6.619275E-06	2.171916
5.657113	0.05989488	-0.3612028	0	0	0	0
5.67368	0.05989488	-0.3612028	0	0	0	0
5.690741	0.05989488	-0.3612028	0	0	0	0
5.706813	0.05989488	-0.3612028	0	0	0	0
5.723938	0.05989488	-0.3612028	0	0	0	0
5.739944	0.05989488	-0.3612028	0	0	0	0
5.756513	0.05989488	-0.3612028	0	0	0	0
5.773079	0.05989488	-0.3612028	0	0	0	0
5.789647	0.05989488	-0.3612028	0	0	0	0
5.806213	0.05989488	-0.3612028	0	0	0	0
5.862084	0.05989488	-0.3612028	0	0	0	0
5.878653	0.05989488	-0.3612028	0	0	0	0
5.895222	0.05989488	-0.3612028	0	0	0	0
5.911788	0.05989488	-0.3612028	0	0	0	0
5.92858	0.05989488	-0.3612028	0	0	0	0
5.944921	0.05989488	-0.3612028	0	0	0	0
5.961487	0.05989488	-0.3612028	0	0	0	0
5.978297	0.05989488	-0.3612028	0	0	0	0
5.994622	0.05989488	-0.3612028	0	0	0	0
6.01119	0.05989488	-0.3612028	0	0	0	0
6.027753	0.05867254	-0.3550911	-0.07379772	0.3689886	-2.227412	11.13706
6.044321	0.05378316	-0.34409	-0.2951148	0.6640092	-6.680037	8.904637
6.060921	0.04889378	-0.3294218	-0.2945471	0.8836411	0.01711815	6.621927
6.077493	0.04522675	-0.3037526	-0.2212789	1.548953	2.208758	20.05664
6.094086	0.04278206	-0.2964185	-0.1473285	0.4419847	2.229744	-33.37715
6.110624	0.03789268	-0.2805281	-0.2956512	0.9608659	-4.47684	15.66144
6.127318	0.03178096	-0.2634152	-0.3661012	1.025084	-2.119963	1.932431
6.143758	0.02444689	-0.241413	-0.4461006	1.338302	-2.414386	9.452934
6.160323	0.01711282	-0.2157438	-0.4427616	1.549666	0.101167	6.404039
6.177151	0.01344579	-0.202298	-0.2179057	0.7989877	6.733643	-22.48016
6.193457	0.0110011	-0.1900746	-0.1499264	0.7496327	2.05162	-1.48954
6.210309	0.008556412	-0.1778511	-0.1450731	0.7253652	0.1463702	-0.7318871
6.22659	0.006111723	-0.163183	-0.1501504	0.9009024	-0.1532372	5.297951
6.243155	0.004889378	-0.1521819	-0.07378939	0.6641039	2.324752	-7.209153
6.259723	0.003667034	-0.1387361	-0.07377873	0.8115664	0.0003217871	4.450621
6.276289	0.003667034	-0.1265127	0	0.7378719	2.226711	-2.224169
6.292856	0.002444689	-0.1142892	-0.07378297	0.7378298	-2.226903	-0.001270077
6.309422	0.002444689	-0.1008434	-1.405409E-08	0.8116136	2.226838	2.226862
6.325989	0.002444689	-0.092287	0	0.5164957	4.241716E-07	-8.907059
6.342556	0.002444689	-0.0837306	0	0.5164804	0	-0.00046233
6.359125	0.002444689	-0.07884122	0	0.2950894	0	-6.681306
6.375691	0.003667034	-0.07517418	0.07378299	0.2213494	2.226679	-2.225379
6.392259	0.003667034	-0.0727295	0	0.1475614	-2.226807	-2.226958
6.408855	0.003667034	-0.07150716	1.402905E-08	0.07365142	4.230263E-07	-2.228653
6.425392	0.004889378	-0.07150716	0.07391699	0	2.230915	-2.2229
6.442283	0.004889378	-0.07150716	0	0	-2.211217	0
6.458525	0.004889378	-0.07150716	0	0	0	0
6.475091	0.004889378	-0.07150716	0	0	0	0
6.491773	0.004889378	-0.07150716	0	0	0	0
6.508225	0.004889378	-0.07150716	0	0	0	0
6.524789	0.004889378	-0.07150716	0	0	0	0
6.541358	0.004889378	-0.07150716	0	0	0	0
6.557924	0.004889378	-0.07028481	0	0.07378755	0	2.226912
6.574489	0.004889378	-0.06906247	0	0.07379089	0	0.0001009733
6.591059	0.006111722	-0.06661777	0.0737681	0.1475369	2.226294	2.225626
6.607682	0.007334067	-0.06539543	0.07353324	0.0735331	-0.00707548	-2.229492
6.624201	0.007334067	-0.06295074	0	0.1479921	-2.218727	2.24666
6.640757	0.007334067	-0.06295074	0	0	0	-4.474395
6.65761	0.007334067	-0.06295074	0	0	0	0
6.673891	0.007334067	-0.06295074	0	0	0	0
6.690616	0.007334067	-0.06295074	0	0	0	0
6.707026	0.007334067	-0.06295074	0	0	0	0
6.723809	0.008556413	-0.06295075	0.07283136	-4.439299E-07	2.194202	-1.337435E-05
6.740159	0.008556413	-0.06295075	0	0	-2.198149	1.339841E-05
6.756744	0.008556413	-0.06295075	0	0	0	0
6.773292	0.008556413	-0.06295075	0	0	0	0
6.789857	0.008556413	-0.06295075	0	0	0	0
6.806422	0.008556413	-0.06295075	0	0	0	0
6.822992	0.009778756	-0.06295074	0.07376804	4.496403E-07	2.226292	1.356998E-05
6.839866	0.0110011	-0.06295075	0.07244026	-4.415463E-07	-0.03970176	-2.664719E-05
6.856125	0.0110011	-0.06295075	0	0	-2.186346	1.332647E-05
6.872692	0.0110011	-0.0617284	0	0.07378307	0	2.247706
6.889259	0.0110011	-0.0617284	0	0	0	-2.226841
6.905825	0.0110011	-0.0617284	0	0	0	0
6.922392	0.0110011	-0.0617284	0	0	0	0
6.938958	0.0110011	-0.0617284	0	0	0	0
6.955634	0.0110011	-0.0617284	0	0	0	0
6.972091	0.0110011	-0.0617284	0	0	0	0
6.989233	0.0110011	-0.0617284	0	0	0	0
7.005225	0.0110011	-0.05806137	0	0.2293019	0	6.920545
7.021791	0.0110011	-0.05317198	0	0.2951491	0	2.022458
7.038359	0.0110011	-0.04828261	0	0.2950979	0	-0.001545231
7.054924	0.0110011	-0.04461557	0	0.2213745	0	-2.22504
7.071489	0.0110011	-0.04094854	-5.622121E-08	0.2213681	-1.696979E-06	-0.0001925042
7.088339	0.0110011	-0.0397262	0	0.07254259	1.682498E-06	-4.453811
7.104625	0.01222344	-0.03972619	0.07505763	2.2875E-07	2.265179	-2.18927
7.121192	0.01222344	-0.03972619	0	0	-2.284708	-6.963011E-06
7.137758	0.01222344	-0.03972619	0	0	0	0
7.154325	0.01222344	-0.03972619	0	0	0	0
7.170891	0.01222344	-0.03972619	0	0	0	0
7.187457	0.01222344	-0.03972619	0	0	0	0
7.204096	0.01222344	-0.03972619	0	0	0	0
7.220852	0.01222344	-0.03850385	0	0.07294928	0	2.184449
7.237233	0.01222344	-0.03850385	0	0	0	-2.201455
7.253799	0.01344579	-0.03728151	0.07378296	0.07378307	2.239407	2.239411
7.270406	0.01344579	-0.03728151	0	0	-2.224181	-2.224185
7.286931	0.01344579	-0.03605916	0	0.07397043	0	2.232657
7.3035	0.01344579	-0.03483682	0	0.07377011	0	-0.0060531
7.320067	0.01344579	-0.03239213	5.621636E-08	0.1475659	1.696515E-06	2.227034
7.336633	0.01344579	-0.03239213	0	0	-1.696686E-06	-4.453741
7.353199	0.01344579	-0.03116979	0	0.07378934	0	2.227159
7.369766	0.01466813	-0.03116979	0.07377877	-1.124262E-07	2.226744	-2.227066
7.386333	0.01466813	-0.02994744	-5.621798E-08	0.07378519	-2.226681	2.226877
7.402898	0.01466813	-0.02994744	0	0	1.696808E-06	-2.227034
7.419467	0.01466813	-0.02872509	0	0.07377257	0	2.226461
7.436034	0.01466813	-0.02750275	0	0.07378285	0	0.0003100671
7.452641	0.01466813	-0.02750275	0	0	0	-2.224146
7.46933	0.01466813	-0.02750275	0	0	0	0
7.485924	0.01466813	-0.02628041	0	0.07365999	0	2.213094
7.502301	0.01466813	-0.02628041	0	0	0	-2.234058
7.519275	0.01466813	-0.02628041	0	0	0	0
7.53568	0.01466813	-0.02628041	0	0	0	0
7.552	0.01589048	-0.02505806	0.07489754	0.0748976	2.288671	2.288673
7.568568	0.01589048	-0.02505806	0	0	-2.277356	-2.277358
7.585778	0.01589048	-0.02383572	-1.082304E-07	0.0710252	-3.204194E-06	2.102724
7.601701	0.01711282	-0.02261337	0.07676365	0.07676341	2.316802	0.1731846
7.618267	0.01711282	-0.02139103	0	0.07378945	-2.362771	-0.09153814
7.635058	0.01833517	-0.02016868	0.07279608	0.07279608	2.182355	-0.02978006
7.651424	0.01833517	-0.02016868	0	0	-2.195474	-2.195474
7.668338	0.01833517	-0.017724	0	0.1445332	0	4.342897
7.684533	0.01955751	-0.01650165	0.07547747	0.07547759	2.279653	-2.085694
7.701101	0.01955751	-0.01405696	1.124262E-07	0.1475575	-2.303771	2.200071
7.717667	0.02077986	-0.01161227	0.07378497	0.1475702	2.226863	0.0003827155
7.734234	0.02077986	-0.01038993	1.124327E-07	0.07378296	-2.226928	-2.226998
7.751205	0.02077986	-0.009167584	0	0.07202505	-3.352412E-06	-0.05241575
7.767367	0.02077986	-0.00794524	0	0.07563113	0	0.1088364
7.783969	0.0220022	-0.006722894	0.07362615	0.0736262	2.247169	-0.06119312
7.800732	0.0220022	-0.006722894	0	0	-2.206703	-2.206705
7.817437	0.0220022	-0.00550055	0	0.0731701	0	2.186255
7.833634	0.02322455	-0.004278206	0.07546636	0.07546639	2.293621	0.06979033
7.850201	0.02322455	-0.003055861	0	0.0737851	-2.303368	-0.05131622
7.866832	0.02322455	-0.001833517	0	0.07349741	0	-0.008666017
7.883335	0.02444689	-0.0006111723	0.07406864	0.07406866	2.235428	0.01724063
7.899901	0.02444689	-0.0006111723	0	0	-2.239779	-2.23978
7.916698	0.02444689	-0.0006111723	0	0	0	0
7.933033	0.02444689	-0.0006111723	0	0	0	0
7.9496	0.02444689	-0.0006111723	0	0	0	0
7.966168	0.02444689	-0.0006111723	0	0	0	0
7.983008	0.02444689	-0.0006111723	0	0	0	0
7.999301	0.02444689	-0.0006111723	0	0	0	0
8.015965	0.02444689	-0.0006111723	0	0	0	0
8.032434	0.02444689	-0.0006111723	0	0	0	0
8.049057	0.02444689	-0.0006111723	0	0	0	0
8.065628	0.02444689	-0.0006111723	0	0	0	0
8.082194	0.02444689	-0.0006111723	0	0	0	0
8.099178	0.02444689	-0.0006111723	0	0	0	0
8.115329	0.02444689	-0.0006111723	0	0	0	0
8.131895	0.02444689	-0.0006111723	0	0	0	0
8.148461	0.02444689	-0.0006111723	0	0	0	0
8.165028	0.02444689	-0.0006111723	0	0	0	0
8.182128	0.02444689	0.0006111723	0	0.07148074	0	2.123194
8.198161	0.02444689	0.0006111723	0	0	0	-2.157355
8.215049	0.02444689	0.0006111723	0	0	0	0
8.231619	0.02444689	0.0006111723	0	0	0	0
8.248238	0.02444689	0.0006111723	0	0	0	0
8.264752	0.02444689	0.0006111723	0	0	0	0
8.281319	0.02444689	-0.0006111723	0	-0.07378511	0	-2.230434
8.297887	0.02444689	-0.0006111723	0	0	0	2.226839
8.314454	0.02444689	-0.0006111723	0	0	0	0
8.33102	0.02444689	-0.0006111723	0	0	0	0
8.347587	0.02444689	-0.0006111723	0	0	0	0
8.364233	0.02444689	-0.0006111723	0	0	0	0
8.380765	0.02444689	-0.0006111723	0	0	0	0
8.397287	0.02444689	-0.0006111723	0	0	0	0
8.413854	0.02444689	-0.0006111723	0	0	0	0
8.430422	0.02444689	-0.0006111723	0	0	0	0
8.447233	0.02444689	-0.0006111723	0	0	0	0
8.463555	0.02444689	-0.0006111723	0	0	0	0
8.480122	0.02444689	-0.0006111723	0	0	0	0
8.496688	0.02444689	-0.0006111723	0	0	0	0
8.513256	0.02444689	-0.0006111723	0	0	0	0
8.53015	0.02444689	-0.0006111723	0	0	0	0
8.546389	0.02444689	-0.0006111723	0	0	0	0
8.562955	0.02444689	-0.0006111723	0	0	0	0
8.579523	0.02444689	-0.001833517	0	-0.07377661	0	-2.226583
8.596543	0.02444689	-0.001833517	0	0	0	2.19649
8.612656	0.02444689	-0.003055861	0	-0.07586393	0	-2.28971
8.629222	0.02444689	-0.003055861	0	0	0	2.321517
8.646172	0.02444689	-0.003055861	0	0	0	0
8.662355	0.02444689	-0.003055861	0	0	0	0
8.678923	0.02444689	-0.003055861	0	0	0	0
8.695489	0.02444689	-0.003055861	0	0	0	0
8.712128	0.02444689	-0.003055861	0	0	0	0
8.729074	0.02444689	-0.003055861	0	0	0	0
8.74519	0.02444689	-0.003055861	0	0	0	0
8.761756	0.02444689	-0.003055861	0	0	0	0
8.778322	0.02444689	-0.003055861	0	0	0	0
8.794976	0.02444689	-0.003055861	0	0	0	0
8.811562	0.02444689	-0.003055861	0	0	0	0
8.828023	0.02444689	-0.003055861	0	0	0	0
8.844914	0.02444689	-0.004278206	0	-0.07236457	0	-2.169667
8.861157	0.02689158	-0.009167584	0.1505074	-0.3010148	4.542321	-6.900678
8.877724	0.02933627	-0.01894634	0.1475703	-0.5902808	-0.08951981	-8.816596
8.89429	0.03544799	-0.03605916	0.3689254	-1.032992	6.680896	-13.36181
8.910856	0.03544799	-0.03605916	0	0	-11.13483	31.17754
8.927433	0.03544799	-0.03605916	0	0	0	0
8.944139	0.03544799	-0.03605916	0	0	0	0
8.960756	0.03544799	-0.03605916	0	0	0	0
8.977123	0.03544799	-0.03605916	0	0	0	0
8.99369	0.03544799	-0.03605916	0	0	0	0
9.010603	0.03544799	-0.03605916	0	0	0	0
9.026823	0.03544799	-0.03605916	0	0	0	0
9.043392	0.03544799	-0.03605916	0	0	0	0
9.059958	0.03544799	-0.03605916	0	0	0	0
9.076524	0.03544799	-0.03605916	0	0	0	0
9.093266	0.03544799	-0.03605916	0	0	0	0
9.109661	0.03544799	-0.03605916	0	0	0	0
9.126225	0.03544799	-0.03605916	0	0	0	0
9.143041	0.03544799	-0.03605916	0	0	0	0
9.159362	0.03544799	-0.03605916	0	0	0	0
9.175931	0.03544799	-0.03605916	0	0	0	0
9.192492	0.03544799	-0.03605916	0	0	0	0
9.209057	0.03544799	-0.03605916	0	0	0	0
9.225625	0.01833517	-0.01650165	-1.032872	1.180426	-31.17305	35.62635
9.242191	0.01833517	-0.017724	0	-0.07378519	31.17215	-37.85217
9.258756	0.01833517	-0.017724	0	0	0	2.227098
9.275331	0.01955751	-0.01772399	0.07374687	1.123777E-07	2.225365	3.391079E-06
9.291891	0.01955751	-0.01772399	0	0	-2.225621	-3.391469E-06
9.308457	0.01955751	-0.01772399	0	0	0	0
9.325025	0.01955751	-0.01894634	1.124295E-07	-0.07378095	3.393226E-06	-2.226778
9.341591	0.01955751	-0.01894634	0	0	-3.393226E-06	2.226778
9.358157	0.01955751	-0.01894634	0	0	0	0
9.374724	0.01955751	-0.01894634	0	0	0	0
9.391292	0.01955751	-0.01894634	0	0	0	0
9.407857	0.01955751	-0.01894634	0	0	0	0
9.424424	0.01955751	-0.01894634	0	0	0	0
9.441056	0.01955751	-0.01894634	0	0	0	0
9.457558	0.01955751	-0.01894634	0	0	0	0
9.474124	0.01955751	-0.01894634	0	0	0	0
9.49069	0.01955751	-0.01894634	0	0	0	0
9.507269	0.01955751	-0.01894634	0	0	0	0
9.524045	0.01955751	-0.01894634	0	0	0	0
9.54039	0.01955751	-0.01894634	0	0	0	0
9.556956	0.01955751	-0.01894634	0	0	0	0
9.573524	0.01955751	-0.01894634	0	0	0	0
9.590091	0.01955751	-0.01894634	0	0	0	0
9.606657	0.01955751	-0.01894634	0	0	0	0
9.623446	0.01955751	-0.01894634	0	0	0	0
9.639791	0.01955751	-0.01894634	0	0	0	0
9.656611	0.01955751	-0.01894634	0	0	0	0
9.673291	0.01955751	-0.01894634	0	0	0	0
9.689491	0.01955751	-0.01894634	0	0	0	0
9.706056	0.01955751	-0.01894634	0	0	0	0
9.722625	0.01955751	-0.01894634	0	0	0	0
9.739192	0.01955751	-0.01894634	0	0	0	0
9.755758	0.01955751	-0.01894634	0	0	0	0
9.772333	0.01955751	-0.01894634	0	0	0	0
9.788892	0.01955751	-0.01894634	0	0	0	0
9.805542	0.01955751	-0.01894634	0	0	0	0
9.822025	0.01955751	-0.01894634	0	0	0	0
9.838593	0.01955751	-0.01894634	0	0	0	0
9.855159	0.01955751	-0.01894634	0	0	0	0
9.871725	0.01955751	-0.01894634	0	0	0	0
9.888292	0.01955751	-0.01894634	0	0	0	0
9.90488	0.01955751	-0.01894634	0	0	0	0
9.921925	0.01955751	-0.01894634	0	0	0	0
9.937991	0.01955751	-0.01894634	0	0	0	0
9.95525	0.01955751	-0.01894634	0	0	0	0
9.971125	0.01955751	-0.01894634	0	0	0	0
9.987691	0.01955751	-0.01894634	0	0	0	0
10.00446	0.01955751	-0.01894634	0	0	0	0
10.02106	0.01955751	-0.01894634	0	0	0	0
10.03739	0.01955751	-0.01894634	0	0	0	0
10.05396	0.01955751	-0.01894634	0	0	0	0
10.07052	0.01955751	-0.01894634	0	0	0	0
10.08733	0.01955751	-0.01894634	0	0	0	0
10.10366	0.01955751	-0.01894634	0	0	0	0
10.12022	0.01955751	-0.01894634	0	0	0	0
10.13685	0.01955751	-0.01894634	0	0	0	0
10.15341	0.01955751	-0.01772399	-1.124619E-07	0.07380219	-3.388838E-06	2.223898
10.17005	0.01589048	-0.01527931	-0.2203279	0.1468852	-6.635182	2.200899
10.18649	-0.009778757	0.0006111723	-1.561714	0.9667755	-40.54964	24.785
10.20306	-0.05256081	0.02750275	-2.58233	1.623179	-30.92418	19.88872
10.21962	-0.113678	0.0617284	-3.689255	2.065983	-33.40802	13.36423
10.23619	-0.1650165	0.08861997	-3.099332	1.623459	17.80597	-13.35693
10.25276	-0.1919081	0.1020658	-1.622992	0.8114963	44.55731	-24.50579
10.26932	-0.2102433	0.1081775	-1.106777	0.3689258	15.57894	-13.35642
10.28589	-0.2212444	0.1142892	-0.6641039	0.3689461	13.36106	0.0006143678
10.30246	-0.2334678	0.1216233	-0.7377232	0.4426343	-2.221837	2.223914
10.31912	-0.2420242	0.1252903	-0.513453	0.2200515	6.748289	-6.697515
10.33564	-0.2542477	0.1301797	-0.740237	0.2960944	-6.835501	2.292012
10.35216	-0.2566923	0.1326244	-0.1479514	0.1479532	17.92836	-4.484204
10.36901	-0.2652487	0.1350691	-0.5076132	0.1450318	-10.77491	-0.08752071
10.38529	-0.2713605	0.1387361	-0.3754742	0.2252854	3.988077	2.422129
10.40186	-0.2750275	0.1411808	-0.2213549	0.1475699	4.692523	-2.36623
10.41842	-0.2774722	0.1411808	-0.1475717	0	2.226909	-4.453926
10.43499	-0.2786945	0.1424031	-0.07378497	0.07378497	2.227017	2.226963
10.45177	-0.2811392	0.1424031	-0.1456912	8.880364E-07	-2.156358	-2.21267
10.46813	-0.2811392	0.1424031	0	0	4.396971	-2.680099E-05
10.48478	-0.2811392	0.1424031	0	0	0	0
10.50126	-0.2811392	0.1424031	0	0	0	0
10.51783	-0.2811392	0.1424031	0	0	0	0
10.53439	-0.2811392	0.1424031	0	0	0	0
10.55096	-0.2811392	0.1424031	0	0	0	0
10.56752	-0.2811392	0.1424031	0	0	0	0
10.58409	-0.2811392	0.1424031	0	0	0	0
10.60112	-0.2811392	0.1424031	0	0	0	0
10.61729	-0.2811392	0.1424031	0	0	0	0
10.63379	-0.2811392	0.1424031	0	0	0	0
10.65068	-0.2811392	0.1424031	0	0	0	0
10.66776	-0.2811392	0.1424031	0	0	0	0
10.68349	-0.2811392	0.1424031	0	0	0	0
10.70006	-0.2774722	0.1411808	0.2213294	-0.07377738	6.853317	-2.284467
10.71698	-0.2701381	0.1375138	0.4334542	-0.2167262	6.334299	-4.268623
10.73319	-0.2640264	0.1350691	0.3769539	-0.1507816	-1.705229	1.99027
10.74976	-0.2566923	0.1326244	0.4426352	-0.1475454	2.003543	0.09871727
10.76658	-0.2493583	0.1289573	0.436032	-0.2180165	-0.1977637	-2.110602
10.78336	-0.2395795	0.1252903	0.5826343	-0.2184881	4.362688	-0.01403483
10.79946	-0.2310231	0.1216233	0.5316435	-0.2278471	-1.550914	-0.284661
10.81602	-0.2224667	0.1191786	0.516439	-0.1475539	-0.4655063	2.458279
10.83259	-0.2151326	0.1167339	0.4427344	-0.1475784	-2.224472	-0.0007416062
10.84916	-0.2077986	0.1155116	0.4426852	-0.07378118	-0.001484155	2.227334
10.86586	-0.1967975	0.1106222	0.6585308	-0.29268	6.487159	-6.578922
10.88229	-0.1784623	0.1032881	1.115964	-0.4463859	13.80497	-4.638721
10.89886	-0.1564601	0.09595405	1.328132	-0.4427103	6.430081	0.111395
10.91548	-0.1332356	0.08617529	1.397492	-0.5884176	2.090083	-4.390759
10.93199	-0.1112334	0.07761887	1.332351	-0.5181367	-1.966068	2.121206
10.94856	-0.08923115	0.06784012	1.328209	-0.5903147	-0.1252162	-2.181979
10.9655	-0.08067474	0.0617284	0.5050406	-0.3607433	-24.56679	6.851373
10.98169	-0.06967364	0.05806136	0.6794776	-0.2264928	5.264822	4.051923
10.99826	-0.05867253	0.05194964	0.6639897	-0.3688831	-0.4727893	-4.346639
11.0155	-0.04644909	0.04706026	0.7090734	-0.2836293	1.333571	2.521795
11.03156	-0.0330033	0.0397262	0.8367814	-0.4564261	3.834259	-5.187993
11.04796	-0.02077985	0.03239213	0.7456203	-0.4473724	-2.808229	0.2789007
11.06469	-0.008556411	0.02628041	0.7305751	-0.3652874	-0.4541965	2.478046
11.08109	0.001222344	0.02139103	0.5962186	-0.2981094	-4.05512	2.027553
11.09768	0.006111723	0.01650165	0.2946486	-0.2946486	-9.139809	0.1048877
11.11422	0.0110011	0.01405696	0.295634	-0.1478169	0.02974156	4.431642
11.1308	0.01466813	0.01161227	0.2212279	-0.1474854	-2.246938	0.01001273
11.14736	0.01466813	0.01038993	1.124942E-07	-0.07382327	-6.67686	2.223191
11.16392	0.01589048	0.009167584	0.07378072	-0.07378089	2.227344	0.001279366
11.18049	0.01711282	0.007945239	0.07378519	-0.07378514	0.0001349193	-0.0001281733
11.19706	0.01833517	0.006722894	0.07376385	-0.07376385	-0.0006439405	0.0006423666
11.21376	0.01833517	0.006722894	0	0	-2.216882	2.216882
11.23048	0.01833517	0.006722894	0	0	0	0
11.24676	0.01833517	0.006722894	0	0	0	0
11.26332	0.01833517	0.006722894	0	0	0	0
11.27989	0.01833517	0.006722894	0	0	0	0
11.29649	0.01833517	0.00550055	0	-0.07364095	0	-2.220507
11.31302	0.01955751	0.00550055	0.07391699	-2.815924E-08	2.230755	2.222423
11.32959	0.01955751	0.00550055	0	0	-2.23294	8.506556E-07
11.34615	0.01955751	0.00550055	0	0	0	0
11.36272	0.01955751	0.00550055	0	0	0	0
11.37929	0.01955751	0.00550055	0	0	0	0
11.39603	0.01955751	0.00550055	0	0	0	0
11.41304	0.01955751	0.00550055	0	0	0	0
11.42899	0.01955751	0.00550055	0	0	0	0
11.44556	0.01955751	0.00550055	0	0	0	0
11.46212	0.01955751	0.00550055	0	0	0	0
11.47869	0.01955751	0.00550055	0	0	0	0
11.49526	0.01955751	0.00550055	0	0	0	0
11.51182	0.01955751	0.00550055	0	0	0	0
11.52887	0.01955751	0.00550055	0	0	0	0
11.54496	0.01955751	0.00550055	0	0	0	0
11.56152	0.01955751	0.00550055	0	0	0	0
11.5783	0.01955751	0.00550055	0	0	0	0
11.59466	0.01955751	0.00550055	0	0	0	0
11.61127	0.01955751	0.00550055	0	0	0	0
11.62779	0.01955751	0.00550055	0	0	0	0
11.64435	0.01955751	0.00550055	0	0	0	0
11.66092	0.01955751	0.00550055	0	0	0	0
11.67749	0.01955751	0.00550055	0	0	0	0
11.69408	0.01955751	0.00550055	0	0	0	0
11.71131	0.01955751	0.00550055	0	0	0	0
11.72719	0.01955751	0.00550055	0	0	0	0
11.74413	0.01955751	0.00550055	0	0	0	0
11.76032	0.01955751	0.00550055	0	0	0	0
11.77707	0.01955751	0.00550055	0	0	0	0
11.79366	0.01955751	0.00550055	0	0	0	0
11.81023	0.01955751	0.00550055	0	0	0	0
11.82659	0.01955751	0.00550055	0	0	0	0
11.84315	0.01955751	0.00550055	0	0	0	0
11.85972	0.01955751	0.00550055	0	0	0	0
11.87629	0.01955751	0.00550055	0	0	0	0
11.89285	0.01955751	0.00550055	0	0	0	0
11.9095	0.01955751	0.00550055	0	0	0	0
11.92598	0.01955751	0.00550055	0	0	0	0
11.94256	0.01955751	0.00550055	0	0	0	0
11.95912	0.01955751	0.00550055	0	0	0	0
11.97569	0.01955751	0.00550055	0	0	0	0
11.99226	0.01955751	0.00550055	0	0	0	0
12.00882	0.01955751	0.00550055	0	0	0	0
12.02539	0.01955751	0.00550055	0	0	0	0
12.04195	0.01955751	0.00550055	0	0	0	0
12.05852	0.01955751	0.00550055	0	0	0	0
12.07508	0.01955751	0.00550055	0	0	0	0
12.09166	0.01955751	0.00550055	0	0	0	0
12.10822	0.01955751	0.00550055	0	0	0	0
12.12479	0.01955751	0.00550055	0	0	0	0
12.14175	0.01955751	0.00550055	0	0	0	0
12.15835	0.01955751	0.00550055	0	0	0	0
12.17449	0.01955751	0.00550055	0	0	0	0
12.19105	0.01955751	0.00550055	0	0	0	0
12.20762	0.01955751	0.00550055	0	0	0	0
12.22419	0.01955751	0.00550055	0	0	0	0
12.24075	0.01955751	0.00550055	0	0	0	0
12.25732	0.01955751	0.00550055	0	0	0	0
12.27389	0.01955751	0.00550055	0	0	0	0
12.29045	0.01955751	0.00550055	0	0	0	0
12.30702	0.01955751	0.00550055	0	0	0	0
12.32359	0.01955751	0.00550055	0	0	0	0
12.34015	0.01955751	0.00550055	0	0	0	0
12.35672	0.01955751	0.00550055	0	0	0	0
12.37329	0.01955751	0.00550055	0	0	0	0
12.38986	0.01955751	0.00550055	0	0	0	0
12.40643	0.01955751	0.00550055	0	0	0	0
12.42299	0.01955751	0.00550055	0	0	0	0
12.43956	0.01955751	0.00550055	0	0	0	0
12.45613	0.01955751	0.00550055	0	0	0	0
12.47276	0.01955751	0.00550055	0	0	0	0
12.48926	0.01955751	0.00550055	0	0	0	0
12.50583	0.01955751	0.00550055	0	0	0	0
12.5224	0.01955751	0.00550055	0	0	0	0
12.53896	0.01955751	0.00550055	0	0	0	0
12.55588	0.01955751	0.00550055	0	0	0	0
12.5723	0.01955751	0.00550055	0	0	0	0
12.58866	0.01955751	0.00550055	0	0	0	0
12.60523	0.01955751	0.00550055	0	0	0	0
12.6222	0.01955751	0.00550055	0	0	0	0
12.68337	0.01955751	0.00550055	0	0	0	0
12.69994	0.01955751	0.00550055	0	0	0	0
12.71864	0.01955751	0.00550055	0	0	0	0
12.73546	0.01955751	0.00550055	0	0	0	0
12.75179	0.01955751	0.00550055	0	0	0	0
12.76834	0.01955751	0.00550055	0	0	0	0
12.78491	0.01955751	0.00550055	0	0	0	0
12.80609	0.01955751	0.00550055	0	0	0	0
12.82265	0.01955751	0.00550055	0	0	0	0
12.83929	0.01955751	0.00550055	0	0	0	0
12.85591	0.01955751	0.00550055	0	0	0	0
12.87235	0.01955751	0.00550055	0	0	0	0
12.88899	0.02077986	0.00550055	0.07345957	2.798494E-08	2.220529	8.459263E-07
12.90549	0.02077986	0.00550055	0	0	-2.216823	-8.445143E-07
12.92206	0.02077986	0.00550055	0	0	0	0
12.93877	0.02077986	0.00550055	0	0	0	0
12.95519	0.02077986	0.00550055	0	0	0	0
12.97176	0.02077986	0.00550055	0	0	0	0
12.98832	0.02077986	0.00550055	0	0	0	0
13.00491	0.02077986	0.00550055	0	0	0	0
13.02146	0.02077986	0.00550055	0	0	0	0
13.03847	0.02077986	0.00550055	0	0	0	0
13.05478	0.02077986	0.00550055	0	0	0	0
13.07127	0.02077986	0.00550055	0	0	0	0
13.08802	0.02077986	0.00550055	0	0	0	0
13.10434	0.02077986	0.00550055	0	0	0	0
13.12086	0.02077986	0.00550055	0	0	0	0
13.13787	0.02077986	0.00550055	0	0	0	0
13.15444	0.02077986	0.00550055	0	0	0	0
13.17156	0.02077986	0.00550055	0	0	0	0
13.19046	0.02077986	0.00550055	0	0	0	0
13.20703	0.02077986	0.00550055	0	0	0	0
13.2237	0.02077986	0.00550055	0	0	0	0
13.24025	0.02077986	0.00550055	0	0	0	0
13.25714	0.02077986	0.00550055	0	0	0	0
13.2733	0.02077986	0.00550055	0	0	0	0
13.28986	0.02077986	0.00550055	0	0	0	0
13.31038	0.02077986	0.00550055	0	0	0	0
13.32694	0.02077986	0.00550055	0	0	0	0
13.34351	0.02077986	0.00550055	0	0	0	0
13.36008	0.02077986	0.00550055	0	0	0	0
13.37664	0.02077986	0.00550055	0	0	0	0
13.39353	0.02077986	0.00550055	0	0	0	0
13.40978	0.02077986	0.00550055	0	0	0	0
13.42636	0.02077986	0.00550055	0	0	0	0
13.44291	0.02077986	0.00550055	0	0	0	0
13.46366	0.02077986	0.00550055	0	0	0	0
13.48022	0.02077986	0.00550055	0	0	0	0
13.49697	0.02077986	0.00550055	0	0	0	0
13.51336	0.02077986	0.00550055	0	0	0	0
13.52993	0.02077986	0.00550055	0	0	0	0
13.54649	0.02077986	0.00550055	0	0	0	0
13.56316	0.02077986	0.00550055	0	0	0	0
13.57963	0.02077986	0.00550055	0	0	0	0
13.59644	0.02077986	0.00550055	0	0	0	0
13.61316	0.02077986	0.00550055	0	0	0	0
13.62933	0.02077986	0.00550055	0	0	0	0
13.64589	0.02077986	0.00550055	0	0	0	0
13.66246	0.02077986	0.00550055	0	0	0	0
13.67903	0.02077986	0.00550055	0	0	0	0
13.69559	0.02077986	0.00550055	0	0	0	0
13.7122	0.02077986	0.00550055	0	0	0	0
13.72873	0.02077986	0.00550055	0	0	0	0
13.74529	0.02077986	0.00550055	0	0	0	0
13.76186	0.02077986	0.00550055	0	0	0	0
13.77843	0.02077986	0.00550055	0	0	0	0
13.79499	0.02077986	0.00550055	0	0	0	0
13.81156	0.02077986	0.00550055	0	0	0	0
13.82813	0.02077986	0.00550055	0	0	0	0
13.84469	0.02077986	0.00550055	0	0	0	0
13.86126	0.02077986	0.00550055	0	0	0	0
13.87783	0.02077986	0.00550055	0	0	0	0
13.89477	0.02077986	0.00550055	0	0	0	0
13.91096	0.02077986	0.00550055	0	0	0	0
13.92752	0.02077986	0.00550055	0	0	0	0
13.94409	0.02077986	0.00550055	0	0	0	0
13.96085	0.02077986	0.00550055	0	0	0	0
13.97722	0.02077986	0.00550055	0	0	0	0
13.99379	0.02077986	0.00550055	0	0	0	0
14.01075	0.02077986	0.00550055	0	0	0	0
14.02693	0.02077986	0.00550055	0	0	0	0
14.04349	0.02077986	0.00550055	0	0	0	0
14.06006	0.02077986	0.00550055	0	0	0	0
14.07662	0.02077986	0.00550055	0	0	0	0
14.09319	0.02077986	0.00550055	0	0	0	0
14.11029	0.02077986	0.00550055	0	0	0	0
14.12633	0.02077986	0.00550055	0	0	0	0
14.14289	0.02077986	0.00550055	0	0	0	0
14.15946	0.02077986	0.00550055	0	0	0	0
14.17602	0.02077986	0.00550055	0	0	0	0
14.19259	0.02077986	0.00550055	0	0	0	0
14.20916	0.02077986	0.00550055	0	0	0	0
14.22592	0.02077986	0.00550055	0	0	0	0
14.2426	0.02077986	0.00550055	0	0	0	0
14.25923	0.02077986	0.00550055	0	0	0	0
14.27542	0.02077986	0.00550055	0	0	0	0
14.29199	0.02077986	0.00550055	0	0	0	0
14.30855	0.02077986	0.00550055	0	0	0	0
14.32512	0.02077986	0.00550055	0	0	0	0
14.34176	0.02077986	0.00550055	0	0	0	0
14.35826	0.02077986	0.00550055	0	0	0	0
14.37482	0.02077986	0.00550055	0	0	0	0
14.39147	0.02077986	0.00550055	0	0	0	0
14.40831	0.01222344	0.00550055	-0.5081298	0	-15.1725	0
14.42452	-0.004889378	0.003055861	-1.055784	-0.1508262	-16.57162	-4.563898
14.44109	-0.02933627	0.0006111723	-1.475362	-0.1475362	-12.80034	0.1003694
14.45766	-0.06722895	-0.006722895	-2.287339	-0.4427107	-24.50408	-8.907869
14.47436	-0.1197898	-0.01894634	-3.146675	-0.7317848	-25.82924	-8.688764
14.49123	-0.1576824	-0.02628041	-2.246727	-0.4348502	26.80864	8.845412
14.5076	-0.1821293	-0.02994744	-1.493585	-0.2240379	22.66201	6.343341
14.52489	-0.2004645	-0.03483682	-1.059974	-0.2826599	12.87993	-1.741299
14.54147	-0.2261337	-0.0397262	-1.548863	-0.2950217	-14.43397	-0.3649711
14.55827	-0.2334678	-0.03972619	-0.4364554	2.216941E-07	33.32887	8.839159
14.5746	-0.259137	-0.04339323	-1.572388	-0.2246272	-34.28844	-6.780439
14.59117	-0.2738052	-0.04461557	-0.8852176	-0.07376798	20.88976	4.58607
14.60774	-0.287251	-0.04583792	-0.8112162	-0.07374676	2.232661	0.0006401957
14.6243	-0.294585	-0.04706026	-0.4429138	-0.07381919	11.11571	-0.002185917
14.64087	-0.298252	-0.04706026	-0.2213549	0	6.688585	2.228509
14.6576	-0.298252	-0.0482826	0	-0.07303657	6.646834	-2.193138
14.67408	-0.2994744	-0.04828261	-0.07416496	-2.2603E-07	-2.232712	2.198735
14.69062	-0.3019191	-0.04828261	-0.1478441	0	-2.231541	6.845833E-06
14.70713	-0.3080308	-0.04950495	-0.3700967	-0.07401956	-6.724822	-2.239652
14.72381	-0.3104755	-0.04950495	-0.1465827	0	6.734036	2.230064
14.74197	-0.3116978	-0.04950495	-0.0673207	0	2.275363	0
14.75913	-0.3141425	-0.0507273	-0.1424448	-0.07122264	-2.126998	-2.016534
14.7757	-0.3141425	-0.0507273	0	0	4.223027	2.11152
14.79226	-0.3141425	-0.0507273	0	0	0	0
14.80883	-0.3141425	-0.0507273	0	0	0	0
14.8254	-0.3141425	-0.0507273	0	0	0	0
14.84196	-0.3141425	-0.0507273	0	0	0	0
14.85853	-0.3141425	-0.0507273	0	0	0	0
14.8751	-0.3141425	-0.0507273	0	0	0	0
14.89195	-0.3129202	-0.05194964	0.07254875	-0.07254875	2.171154	-2.171154
14.90827	-0.3104755	-0.05194964	0.1497597	2.282088E-07	2.327553	2.187015
14.9248	-0.3068085	-0.05194964	0.2218914	-2.254169E-07	2.195771	-1.380889E-05
14.94165	-0.3031414	-0.05194964	0.2176093	0	-0.1282925	6.753529E-06
14.95807	-0.2970297	-0.05194964	0.3721617	2.268438E-07	4.644883	6.81751E-06
14.9745	-0.2848063	-0.05317198	0.7440174	-0.07440197	11.31939	-2.264823
14.99133	-0.2738052	-0.05439433	0.6534954	-0.07261062	-2.721385	0.05385381
15.00764	-0.2640264	-0.05439433	0.5998117	2.285025E-07	-1.620036	2.191211
15.0243	-0.2530253	-0.05439433	0.6600749	-4.470417E-07	1.827847	-2.048999E-05
15.04077	-0.2298008	-0.05439433	1.41028	2.262132E-07	22.64124	2.031887E-05
15.05733	-0.2004645	-0.0507273	1.771148	0.2213936	10.92497	6.7025
15.0739	-0.1711282	-0.04950495	1.77115	0.07379794	5.397858E-05	-4.455472
15.09051	-0.145459	-0.04950495	1.544862	-2.242008E-07	-6.820162	-2.224224
15.10757	-0.1271238	-0.04828261	1.074669	0.07164464	-13.96179	2.127406
15.1236	-0.1173451	-0.04706027	0.6103059	0.07628824	-14.03592	0.1403581
15.14017	-0.1124557	-0.04706026	0.2950898	2.248331E-07	-9.671632	-2.34071
15.15673	-0.1087887	-0.04706026	0.2213686	0	-2.224912	-6.785476E-06
15.1733	-0.1038993	-0.04583792	0.2951573	0.07378945	2.227206	2.227226
15.18987	-0.09656522	-0.04461558	0.4426593	0.07377625	4.451746	-0.0003982367
15.20643	-0.09045349	-0.04461557	0.368947	2.248849E-07	-2.224706	-2.226629
15.22322	-0.08556411	-0.04339323	0.2912344	0.0728086	-2.329947	2.182911
15.23956	-0.07945239	-0.04339323	0.3738974	0	2.494774	-2.197368
15.25613	-0.07334067	-0.04217088	0.3689253	0.07378519	-0.1510714	2.241876
15.2727	-0.06845129	-0.04094854	0.2951233	0.07378072	-2.227412	-0.0001349193
15.28928	-0.06111722	-0.04094854	0.4423033	-2.24665E-07	4.439984	-2.225752
15.30641	-0.05378316	-0.04094854	0.4280967	2.174488E-07	-0.4213963	1.311391E-05
15.32289	-0.04767143	-0.04094854	0.3708684	0	-1.70265	-6.469515E-06
15.33897	-0.04155971	-0.04094854	0.3801747	0	0.2858601	0
15.35553	-0.03544799	-0.04094854	0.3689255	0	-0.3446192	0
15.37288	-0.03055861	-0.04094854	0.2819447	0	-2.565209	0
15.38906	-0.02811392	-0.04094854	0.1510661	0	-3.903967	0
15.40523	-0.02689158	-0.04094854	0.07557773	2.303349E-07	-2.333039	7.118712E-06
15.4218	-0.02566924	-0.04094854	0.07377223	-2.248331E-07	-0.05514237	-1.390144E-05
15.43857	-0.0220022	-0.04094854	0.2187239	0	4.348368	6.744709E-06
15.45493	-0.0220022	-0.04094854	0	0	-6.60148	0
15.47169	-0.02077986	-0.0397262	0.07294097	0.07294097	2.201997	2.201997
15.48807	-0.01833517	-0.0397262	0.1492891	0	2.304258	-2.201426
15.50486	-0.01589048	-0.03850385	0.1456006	0.07280055	-0.1112153	2.19504
15.5212	-0.01222344	-0.03728151	0.2243778	0.07479248	2.37757	0.06011822
15.53817	-0.009778756	-0.03728151	0.1440622	0	-2.410954	-2.245158
15.55545	-0.007334067	-0.03728151	0.1414781	0	-0.07544883	0
15.57202	-0.006111722	-0.03605916	0.07376391	0.07376397	-2.00038	2.179099
15.58859	-0.004889378	-0.03605916	0.07378506	-2.248719E-07	0.0006383195	-2.226016
15.60515	-0.004889378	-0.03605916	0	0	-2.22703	6.787234E-06
15.62178	-0.003667034	-0.03483682	0.07351849	0.07351857	2.214967	2.21497
15.63829	-0.001222344	-0.03483682	0.1480817	0	2.250257	-2.218731
15.65485	0.001222344	-0.03483682	0.1475957	0	-0.01469504	0
15.67142	0.002444689	-0.03483682	0.07378086	0	-2.227993	0
15.68867	0.003667034	-0.03483682	0.07085638	0	-0.08647616	0
15.70455	0.003667034	-0.03483682	0	0	-2.138573	0
15.72116	0.003667034	-0.03483682	0	0	0	0
15.73783	0.003667034	-0.03483682	0	0	0	0
15.75425	0.003667034	-0.03483682	0	0	0	0
15.77082	0.003667034	-0.03483682	0	0	0	0
15.78739	0.004889378	-0.03483682	0.0737851	0	2.226967	0
15.80395	0.004889378	-0.03483682	0	0	-2.226839	0
15.82052	0.004889378	-0.03483682	0	0	0	0
15.83709	0.004889378	-0.03483682	0	0	0	0
15.85365	0.004889378	-0.03483682	0	0	0	0
15.87067	0.004889378	-0.03483682	0	0	0	0
15.88678	0.004889378	-0.03483682	0	0	0	0
15.90352	0.004889378	-0.03483682	0	0	0	0
15.91992	0.004889378	-0.03483682	0	0	0	0
15.93649	0.004889378	-0.03483682	0	0	0	0
15.95305	0.004889378	-0.03483682	0	0	0	0
15.96962	0.004889378	-0.03483682	0	0	0	0
15.98641	0.004889378	-0.03483682	0	0	0	0
16.00275	0.004889378	-0.03483682	0	0	0	0
16.01932	0.004889378	-0.03483682	0	0	0	0
16.03589	0.004889378	-0.03483682	0	0	0	0
16.05246	0.004889378	-0.03483682	0	0	0	0
16.06902	0.004889378	-0.03483682	0	0	0	0
16.08578	0.004889378	-0.03483682	0	0	0	0
16.10216	0.004889378	-0.03483682	0	0	0	0
16.11872	0.004889378	-0.03483682	0	0	0	0
16.13529	0.004889378	-0.03483682	0	0	0	0
16.15186	0.004889378	-0.03483682	0	0	0	0
16.1685	0.004889378	-0.03483682	0	0	0	0
16.18499	0.004889378	-0.03483682	0	0	0	0
16.20179	0.004889378	-0.03483682	0	0	0	0
16.21812	0.004889378	-0.03483682	0	0	0	0
16.23469	0.004889378	-0.03483682	0	0	0	0
16.25171	0.004889378	-0.03483682	0	0	0	0
16.26805	0.004889378	-0.03483682	0	0	0	0
16.28439	0.004889378	-0.03483682	0	0	0	0
16.30096	0.004889378	-0.03483682	0	0	0	0
16.31762	0.004889377	-0.03361447	-2.79529E-08	0.07337546	-8.412957E-07	2.208374
16.33409	0.004889377	-0.03361447	0	0	8.437173E-07	-2.214731
16.35066	0.004889377	-0.03361447	0	0	0	0
16.36723	0.006111723	-0.03361448	0.07378092	-2.24859E-07	2.226584	-6.785866E-06
16.38379	0.006111723	-0.03361448	0	0	-2.226713	6.786257E-06
16.40075	0.007334067	-0.03361448	0.07207157	0	2.149633	0
16.41693	0.007334067	-0.03361448	0	0	-2.175249	0
16.43349	0.008556412	-0.03239213	0.07378086	0.07378095	2.253564	2.253566
16.45006	0.008556412	-0.03239213	0	0	-2.226839	-2.226841
16.46663	0.008556412	-0.03239213	0	0	0	0
16.48338	0.008556412	-0.03239213	0	0	0	0
16.49976	0.009778756	-0.03116979	0.07459671	0.0745966	2.251333	2.25133
16.51633	0.009778756	-0.02994744	0	0.07378956	-2.263844	-0.02449184
16.53289	0.0110011	-0.02994744	0.07378934	0	2.227223	-2.22723
16.54961	0.01222344	-0.0287251	0.07309922	0.07309916	-0.02073231	2.196024
16.56603	0.01222344	-0.0287251	0	0	-2.206139	-2.206137
16.58264	0.01222344	-0.02750275	0	0.07357743	0	2.227881
16.59916	0.01344579	-0.0262804	0.07400241	0.07400258	2.233654	0.0128326
16.61573	0.01466813	-0.02383572	0.07377234	0.1475447	-0.006953427	2.222704
16.6323	0.01466813	-0.02383572	0	0	-2.225941	-4.451882
16.64886	0.01711282	-0.02139103	0.1476127	0.1476127	4.454961	4.454959
16.66543	0.01833517	-0.01894634	0.07378083	0.1475618	-2.228636	-0.001535602
16.682	0.02077986	-0.01650165	0.1475617	0.1475617	2.22671	-3.597743E-06
16.69856	0.0220022	-0.01405696	0.07378095	0.1475617	-2.226707	0
16.71513	0.02322455	-0.01405696	0.07378934	5.622121E-08	0.0002532058	-4.453675
16.73169	0.02444689	-0.01283462	0.07378922	0.07378934	-3.598158E-06	2.227221
16.74826	0.02689158	-0.01038993	0.1475448	0.1475447	2.225948	2.225943
16.76483	0.02811392	-0.01038993	0.07378095	0	-2.226069	-4.452653
16.7814	0.02811392	-0.01038993	0	0	-2.226713	0
16.79842	0.02811392	-0.01038993	0	0	0	0
16.81453	0.02811392	-0.01038993	0	0	0	0
16.8316	0.02811392	-0.01038993	0	0	0	0
16.8477	0.02811392	-0.01038993	0	0	0	0
16.86423	0.02811392	-0.01038993	0	0	0	0
16.88079	0.02811392	-0.01038993	0	0	0	0
16.89736	0.02811392	-0.01038993	0	0	0	0
16.91393	0.02811392	-0.01038993	0	0	0	0
16.93049	0.02811392	-0.01038993	0	0	0	0
16.94706	0.02811392	-0.01038993	0	0	0	0
16.96363	0.02811392	-0.01038993	0	0	0	0
16.98019	0.02811392	-0.01038993	0	0	0	0
16.99683	0.02811392	-0.01038993	0	0	0	0
17.01333	0.02811392	-0.01038993	0	0	0	0
17.03259	0.02811392	-0.01038993	0	0	0	0
17.04916	0.02811392	-0.01038993	0	0	0	0
17.06596	0.02811392	-0.01038993	0	0	0	0
17.0844	0.02811392	-0.01038993	0	0	0	0
17.10097	0.02811392	-0.01038993	0	0	0	0
17.11821	0.02811392	-0.01038993	0	0	0	0
17.1341	0.02811392	-0.01038993	0	0	0	0
17.1507	0.02811392	-0.01038993	0	0	0	0
17.16724	0.02811392	-0.01038993	0	0	0	0
17.1838	0.02811392	-0.01038993	0	0	0	0
17.20037	0.02811392	-0.01038993	0	0	0	0
17.21694	0.02811392	-0.01038993	0	0	0	0
17.23351	0.02811392	-0.01038993	0	0	0	0
17.25007	0.02811392	-0.01038993	0	0	0	0
17.26708	0.02811392	-0.01038993	0	0	0	0
17.28321	0.02811392	-0.01038993	0	0	0	0
17.29978	0.02811392	-0.01038993	0	0	0	0
17.3172	0.02811392	-0.01038993	0	0	0	0
17.33291	0.02811392	-0.01038993	0	0	0	0
17.34948	0.02811392	-0.01038993	0	0	0	0
17.36604	0.02811392	-0.01038993	0	0	0	0
17.38261	0.02811392	-0.01038993	0	0	0	0
17.39954	0.02811392	-0.01038993	0	0	0	0
17.41574	0.02811392	-0.01038993	0	0	0	0
17.43231	0.02811392	-0.01038993	0	0	0	0
17.44888	0.02811392	-0.01038993	0	0	0	0
17.46544	0.02811392	-0.01038993	0	0	0	0
17.48201	0.02811392	-0.01038993	0	0	0	0
17.49858	0.02811392	-0.01038993	0	0	0	0
17.51515	0.02811392	-0.01038993	0	0	0	0
17.53172	0.02811392	-0.01038993	0	0	0	0
17.54828	0.02811392	-0.01038993	0	0	0	0
17.56484	0.02811392	-0.01038993	0	0	0	0
17.58141	0.02811392	-0.01038993	0	0	0	0
17.59808	0.02811392	-0.01038993	0	0	0	0
17.61643	0.02811392	-0.01038993	0	0	0	0
17.633	0.02811392	-0.01038993	0	0	0	0
17.64957	0.02811392	-0.01038993	0	0	0	0
17.66614	0.02811392	-0.01038993	0	0	0	0
17.6827	0.02811392	-0.01038993	0	0	0	0
17.69927	0.02811392	-0.01038993	0	0	0	0
17.71594	0.02811392	-0.01038993	0	0	0	0
17.73307	0.02811392	-0.01038993	0	0	0	0
17.74897	0.02811392	-0.01038993	0	0	0	0
17.76554	0.02811392	-0.01038993	0	0	0	0
17.78211	0.02811392	-0.01038993	0	0	0	0
17.79867	0.02811392	-0.01038993	0	0	0	0
17.81524	0.02811392	-0.01038993	0	0	0	0
17.83181	0.02811392	-0.01038993	0	0	0	0
17.84922	0.02811392	-0.01038993	0	0	0	0
17.86494	0.02811392	-0.01038993	0	0	0	0
17.88151	0.02811392	-0.01038993	0	0	0	0
17.89808	0.02811392	-0.01038993	0	0	0	0
17.91464	0.02811392	-0.01038993	0	0	0	0
17.93121	0.02811392	-0.01038993	0	0	0	0
17.94778	0.02811392	-0.01038993	0	0	0	0
17.96434	0.02811392	-0.01161227	-1.124295E-07	-0.07378089	-3.392933E-06	-2.226584
17.98103	0.02811392	-0.01161227	0	0	3.381256E-06	2.21892
17.99748	0.02811392	-0.01161227	0	0	0	0
18.01426	0.02811392	-0.01161227	0	0	0	0
18.03061	0.02811392	-0.01161227	0	0	0	0
18.04718	0.02811392	-0.01161227	0	0	0	0
18.06375	0.02811392	-0.01161227	0	0	0	0
18.08031	0.02811392	-0.01161227	0	0	0	0
18.09688	0.02811392	-0.01161227	0	0	0	0
18.11347	0.02811392	-0.01161227	0	0	0	0
18.13001	0.02811392	-0.01161227	0	0	0	0
18.14658	0.02811392	-0.01161227	0	0	0	0
18.16314	0.02811392	-0.01161227	0	0	0	0
18.17971	0.02811392	-0.01161227	0	0	0	0
18.19635	0.02811392	-0.01161227	0	0	0	0
18.21285	0.02811392	-0.01161227	0	0	0	0
18.23011	0.02811392	-0.01161227	0	0	0	0
18.246	0.02811392	-0.01161227	0	0	0	0
18.26255	0.02811392	-0.01161227	0	0	0	0
18.27911	0.02811392	-0.01161227	0	0	0	0
18.29578	0.02811392	-0.01161227	0	0	0	0
18.31225	0.02811392	-0.01161227	0	0	0	0
18.32881	0.02811392	-0.01161227	0	0	0	0
18.34599	0.02811392	-0.01161227	0	0	0	0
18.36199	0.02811392	-0.01161227	0	0	0	0
18.37852	0.02811392	-0.01161227	0	0	0	0
18.39508	0.02811392	-0.01161227	0	0	0	0
18.41165	0.02811392	-0.01161227	0	0	0	0
18.42822	0.02811392	-0.01161227	0	0	0	0
18.44478	0.02811392	-0.01161227	0	0	0	0
18.46135	0.02811392	-0.01161227	0	0	0	0
18.47792	0.02811392	-0.01161227	0	0	0	0
18.49448	0.02811392	-0.01161227	0	0	0	0
18.51105	0.02811392	-0.01161227	0	0	0	0
18.52762	0.02811392	-0.01161227	0	0	0	0
18.54422	0.02811392	-0.01161227	0	0	0	0
18.56075	0.02811392	-0.01161227	0	0	0	0
18.57732	0.02811392	-0.01161227	0	0	0	0
18.59389	0.02811392	-0.01161227	0	0	0	0
18.61077	0.02811392	-0.01161227	0	0	0	0
18.62702	0.02811392	-0.01161227	0	0	0	0
18.64359	0.02811392	-0.01161227	0	0	0	0
18.66025	0.02811392	-0.01161227	0	0	0	0
18.6772	0.02811392	-0.01161227	0	0	0	0
18.69328	0.02811392	-0.01161227	0	0	0	0
18.71035	0.02811392	-0.01161227	0	0	0	0
18.72642	0.02933627	-0.01283462	0.07607577	-0.0760756	2.296236	-2.296231
18.74298	0.03422565	-0.01650165	0.2951233	-0.2213425	6.712099	-4.451298
18.75978	0.04278206	-0.02261337	0.5092546	-0.3637533	6.417058	-4.267748
18.77633	0.06233957	-0.03850385	1.182399	-0.9606997	20.18888	-17.90354
18.79288	0.09412052	-0.0617284	1.919629	-1.402805	22.27526	-13.35815
18.80936	0.1124557	-0.07639653	1.112348	-0.8898783	-24.43409	15.52485
18.82584	0.1271238	-0.08739763	0.8902899	-0.6677178	-6.737417	6.740515
18.84238	0.1369026	-0.09717639	0.5910633	-0.5910633	-9.061976	2.321455
18.85895	0.1442367	-0.1069551	0.4427362	-0.5903151	-4.479872	0.02259635
18.87552	0.1540154	-0.1155116	0.5901787	-0.5164065	4.449824	2.230565
18.89209	0.1625718	-0.1228456	0.5164669	-0.4426852	-2.224501	2.224785
18.90865	0.1723506	-0.1301797	0.5902458	-0.4426848	2.226652	1.349154E-05
18.92543	0.180907	-0.1375138	0.5100652	-0.4371989	-2.404766	0.1645331
18.94179	0.1894634	-0.1436255	0.5230913	-0.3736363	0.3931517	1.918434
18.95881	0.2004645	-0.1485149	0.6461	-0.2871555	3.684624	2.59046
18.97492	0.2102432	-0.1521819	0.6070909	-0.2276597	-1.177297	1.795589
18.99156	0.2187997	-0.1546266	0.5143352	-0.1469524	-2.832802	2.464837
19.0087	0.2285784	-0.1570713	0.5704151	-0.1426042	1.660194	0.1287241
19.02462	0.2408019	-0.1607383	0.767773	-0.2303316	5.968988	-2.65327
19.04119	0.2603594	-0.1644053	1.180493	-0.2213431	12.70383	0.2766743
19.05775	0.2750275	-0.1692947	0.8854724	-0.2951578	-8.904263	-2.227861
19.07441	0.2860286	-0.1717394	0.6605302	-0.1467832	-6.771229	4.466384
19.09089	0.2884733	-0.1729618	0.1483642	-0.07418303	-15.45809	2.191204
19.10745	0.2884733	-0.1729618	0	0	-4.489789	2.244922
19.12402	0.2884733	-0.1729618	0	0	0	0
19.14058	0.2884733	-0.1729618	0	0	0	0
19.15919	0.2884733	-0.1729618	0	0	0	0
19.17576	0.2884733	-0.1729618	0	0	0	0
19.19232	0.2884733	-0.1729618	0	0	0	0
19.20903	0.2884733	-0.1729618	0	0	0	0
19.22611	0.2884733	-0.1729618	0	0	0	0
19.24267	0.2884733	-0.1729618	0	0	0	0
19.25924	0.2884733	-0.1729618	0	0	0	0
19.2764	0.2884733	-0.1729618	0	0	0	0
19.29237	0.2884733	-0.1729618	0	0	0	0
19.30894	0.2884733	-0.1729618	0	0	0	0
19.32551	0.2872509	-0.1729617	-0.07378253	8.994359E-07	-2.226761	2.714503E-05
19.34228	0.2823616	-0.1705171	-0.2915316	0.1457658	-6.531451	4.372264
19.35888	0.2750275	-0.1680724	-0.4418196	0.1472732	-4.503555	0.04517104
19.37521	0.2652487	-0.163183	-0.5988659	0.2994329	-4.769315	4.620917
19.39178	0.2566923	-0.159516	-0.5164651	0.2213422	2.504885	-2.373865
19.40834	0.2493583	-0.1558489	-0.4426852	0.2213422	2.226679	0
19.42493	0.2395795	-0.1509596	-0.5895001	0.2947505	-4.428078	2.214066
19.44148	0.220022	-0.1399585	-1.181991	0.6648694	-17.88142	11.17021
19.50638	0.2029092	-0.1289573	-0.2636821	0.1695101	11.27511	-6.082082
19.53136	0.1307909	-0.08984233	-2.886098	1.565341	-29.17439	15.52862
19.54817	0.1149004	-0.07884122	-0.9454371	0.6545336	46.43204	-21.79188
19.5645	0.1112334	-0.07639653	-0.2245998	0.1497335	21.75491	-15.2349
19.58107	0.1038993	-0.07150715	-0.4426347	0.2950898	-6.627999	4.418657
19.59763	0.09900991	-0.06784012	-0.2951569	0.2213677	4.450891	-2.224939
19.6142	0.09167584	-0.06295075	-0.4427362	0.2951573	-4.454466	2.227234
19.6309	0.08556411	-0.05806137	-0.3659135	0.2927308	2.309209	-0.07293995
19.64742	0.08067474	-0.05561668	-0.2960094	0.1480047	2.10426	-4.356557
19.6639	0.0770077	-0.05194964	-0.2224953	0.2224955	2.227764	2.257364
19.68047	0.07334068	-0.04828261	-0.2213422	0.2213424	0.03489226	-0.03489226
19.69732	0.0660066	-0.04217089	-0.4351707	0.3626418	-6.398111	4.227918
19.7136	0.06111722	-0.03850385	-0.3003094	0.2252322	4.070119	-4.147029
19.73017	0.05745019	-0.03483682	-0.2213681	0.2213681	2.403345	-0.1176412
19.74758	0.05378316	-0.03239213	-0.2106475	0.1404318	0.3155549	-2.382324
19.76414	0.05133847	-0.02994744	-0.1475619	0.1475617	1.856793	0.2098538
19.78071	0.04889378	-0.02750275	-0.1475619	0.1475618	0	3.597743E-06
19.79734	0.0440044	-0.02383572	-0.2939389	0.2204542	-4.408785	2.195474
19.81384	0.04033737	-0.02139103	-0.2222379	0.1481588	2.163942	-2.18188
19.83041	0.03667033	-0.01894634	-0.2213426	0.1475617	0.02707405	-0.01805748
19.84712	0.03422565	-0.01527931	-0.1463151	0.2194728	2.254729	2.161078
19.86355	0.03178096	-0.01283462	-0.1488123	0.1488123	-0.07536119	-2.132416
19.88022	0.03055861	-0.01161227	-0.07330843	0.07330832	2.280945	-2.280948
19.89668	0.03055861	-0.01161227	0	0	2.212708	-2.212704
19.91325	0.03055861	-0.01161227	0	0	0	0
19.92981	0.02933627	-0.01161227	-0.07379772	-1.124554E-07	-2.227348	-3.394105E-06
19.94638	0.02933627	-0.01161227	0	0	2.227476	3.394301E-06
19.96295	0.02933627	-0.01161227	0	0	0	0
19.97951	0.02933627	-0.01161227	0	0	0	0
19.99608	0.02933627	-0.01161227	0	0	0	0
20.01265	0.02933627	-0.01161227	0	0	0	0
20.02921	0.02933627	-0.01161227	0	0	0	0
20.04578	0.02933627	-0.01161227	0	0	0	0
20.06235	0.02933627	-0.01161227	0	0	0	0
20.07892	0.02933627	-0.01161227	0	0	0	0
20.09548	0.02933627	-0.01161227	0	0	0	0
20.11242	0.02933627	-0.01161227	0	0	0	0
20.12861	0.02811392	-0.01161227	-0.07548425	5.751252E-08	-2.27825	1.735831E-06
20.14518	0.02811392	-0.01038993	1.124295E-07	0.07378089	2.304119	2.25212
20.16239	0.02811392	-0.01038993	0	0	-3.329122E-06	-2.184708
20.17831	0.02811392	-0.01038993	0	0	0	0
20.19488	0.02811392	-0.01038993	0	0	0	0
20.21145	0.02811392	-0.01038993	0	0	0	0
20.22802	0.02811392	-0.01038993	0	0	0	0
20.24458	0.02811392	-0.01038993	0	0	0	0
20.26115	0.02811392	-0.01038993	0	0	0	0
20.27771	0.02811392	-0.01038993	0	0	0	0
20.29428	0.02811392	-0.01038993	0	0	0	0
20.31085	0.02811392	-0.01038993	0	0	0	0
20.32742	0.02811392	-0.01038993	0	0	0	0
20.34398	0.02811392	-0.01038993	0	0	0	0
20.36057	0.02811392	-0.01038993	0	0	0	0
20.37712	0.02811392	-0.01038993	0	0	0	0
20.39369	0.02811392	-0.01038993	0	0	0	0
20.41033	0.02811392	-0.01038993	0	0	0	0
20.42682	0.02811392	-0.01038993	0	0	0	0
20.44339	0.02811392	-0.01038993	0	0	0	0
20.46	0.02811392	-0.01038993	0	0	0	0
20.47652	0.02811392	-0.01038993	0	0	0	0
20.49308	0.02811392	-0.01038993	0	0	0	0
20.50965	0.02811392	-0.01038993	0	0	0	0
20.52622	0.02811392	-0.01038993	0	0	0	0
20.54279	0.02811392	-0.01038993	0	0	0	0
20.55935	0.02811392	-0.01038993	0	0	0	0
20.57592	0.02811392	-0.01038993	0	0	0	0
20.59249	0.02811392	-0.01038993	0	0	0	0
20.60905	0.02811392	-0.01038993	0	0	0	0
20.62562	0.02811392	-0.01038993	0	0	0	0
20.64219	0.02811392	-0.01038993	0	0	0	0
20.65875	0.02811392	-0.01038993	0	0	0	0
20.67566	0.02811392	-0.01038993	0	0	0	0
20.69261	0.02811392	-0.01038993	0	0	0	0
20.70845	0.02811392	-0.01038993	0	0	0	0
20.72547	0.02811392	-0.01038993	0	0	0	0
20.74171	0.02811392	-0.01038993	0	0	0	0
20.75815	0.02811392	-0.01038993	0	0	0	0
20.77472	0.02811392	-0.01038993	0	0	0	0
20.79385	0.02811392	-0.01038993	0	0	0	0
20.81052	0.02811392	-0.01038993	0	0	0	0
20.82707	0.02811392	-0.01038993	0	0	0	0
20.84355	0.02811392	-0.01038993	0	0	0	0
20.86012	0.02811392	-0.01038993	0	0	0	0
20.87669	0.02811392	-0.01038993	0	0	0	0
20.89325	0.02811392	-0.01038993	0	0	0	0
20.90982	0.02811392	-0.01038993	0	0	0	0
20.92639	0.02811392	-0.01038993	0	0	0	0
20.94296	0.02811392	-0.01038993	0	0	0	0
20.95952	0.02811392	-0.01038993	0	0	0	0
20.97609	0.02811392	-0.01038993	0	0	0	0
20.99265	0.02933627	-0.01038993	0.07378922	0	2.227091	0
21.00922	0.03055861	-0.01038993	0.07377234	0	-0.0005093056	0
21.02602	0.0330033	-0.01161227	0.1455344	-0.07276715	2.15068	-2.180802
21.04235	0.03422565	-0.01161227	0.07484075	-5.702222E-08	-2.133785	2.196368
21.05892	0.03422565	-0.01161227	0	0	-2.274805	1.733206E-06
21.07549	0.03544799	-0.01161227	0.07378072	5.621474E-08	2.226707	1.696564E-06
21.09206	0.03789268	-0.01283462	0.1475447	-0.0737724	2.226073	-2.226329
21.10863	0.03911502	-0.01283462	0.07378095	0	-2.226066	2.226327
21.12576	0.03911502	-0.01405696	0	-0.07132564	-2.189037	-2.116189
21.14176	0.04033737	-0.01405696	0.07641127	5.821882E-08	2.306097	2.152614
21.15833	0.04278206	-0.01405696	0.1475617	-5.621474E-08	2.184929	-3.514095E-06
21.17489	0.0440044	-0.01405696	0.07379794	0	-2.22645	1.69676E-06
21.19156	0.04644909	-0.01405696	0.1466164	5.585464E-08	2.190856	1.680473E-06
21.20808	0.04644909	-0.01405696	0	0	-4.417772	-1.682984E-06
21.22459	0.04767143	-0.01405696	0.07402788	0	2.241521	0
21.24116	0.04889378	-0.01405696	0.07378072	-5.621474E-08	-0.007471719	-1.699401E-06
21.25812	0.04889378	-0.01405696	0	0	-2.200737	1.676777E-06
21.27463	0.04889378	-0.01405696	0	0	0	0
21.29086	0.05011613	-0.01405696	0.07530709	-5.737735E-08	2.299913	-1.75233E-06
21.30743	0.05011613	-0.01405696	0	0	-2.296034	1.749375E-06
21.32399	0.05011612	-0.01527931	-2.24859E-07	-0.07378078	-6.786257E-06	-2.226708
21.34056	0.05011612	-0.01527931	0	0	6.786257E-06	2.226708
21.35713	0.05011612	-0.01527931	0	0	0	0
21.37369	0.05011612	-0.01527931	0	0	0	0
21.39032	0.05011612	-0.01527931	0	0	0	0
21.40717	0.05011612	-0.01527931	0	0	0	0
21.42756	0.05011612	-0.01527931	0	0	0	0
21.44412	0.05011612	-0.01527931	0	0	0	0
21.46074	0.05011612	-0.01527931	0	0	0	0
21.47726	0.05011612	-0.01527931	0	0	0	0
21.49383	0.05011612	-0.01527931	0	0	0	0
21.5104	0.05011612	-0.01527931	0	0	0	0
21.52696	0.05011612	-0.01527931	0	0	0	0
21.54552	0.05011612	-0.01527931	0	0	0	0
21.56209	0.05011612	-0.01527931	0	0	0	0
21.57866	0.05011612	-0.01527931	0	0	0	0
21.59594	0.05011612	-0.01527931	0	0	0	0
21.61251	0.05133847	-0.017724	0.07378095	-0.1475618	2.179417	-4.35883
21.62908	0.05133847	-0.017724	0	0	-2.226713	4.453424
21.64591	0.05133847	-0.017724	0	0	0	0
21.66239	0.05133847	-0.017724	0	0	0	0
21.67878	0.05133847	-0.017724	0	0	0	0
21.69534	0.05133847	-0.017724	0	0	0	0
21.71234	0.05133847	-0.017724	0	0	0	0
21.72848	0.05133847	-0.017724	0	0	0	0
21.74505	0.05133847	-0.017724	0	0	0	0
21.76162	0.05133847	-0.017724	0	0	0	0
21.77818	0.05133847	-0.017724	0	0	0	0
21.79482	0.05133847	-0.017724	0	0	0	0
21.81148	0.05133847	-0.017724	0	0	0	0
21.82805	0.05133847	-0.017724	0	0	0	0
21.84462	0.05133847	-0.017724	0	0	0	0
21.86118	0.05133847	-0.017724	0	0	0	0
21.87775	0.05133847	-0.017724	0	0	0	0
21.89432	0.05133847	-0.017724	0	0	0	0
21.91088	0.05133847	-0.017724	0	0	0	0
21.92776	0.05133847	-0.017724	0	0	0	0
21.9448	0.05133847	-0.017724	0	0	0	0
21.96058	0.05133847	-0.017724	0	0	0	0
21.97715	0.05133847	-0.017724	0	0	0	0
21.99372	0.05133847	-0.017724	0	0	0	0
22.01056	0.05133847	-0.017724	0	0	0	0
22.02685	0.05133847	-0.017724	0	0	0	0
22.04342	0.05133847	-0.017724	0	0	0	0
22.05998	0.05133847	-0.017724	0	0	0	0
22.077	0.05133847	-0.017724	0	0	0	0
22.09318	0.05133847	-0.017724	0	0	0	0
22.10969	0.05133847	-0.017724	0	0	0	0
22.12625	0.05133847	-0.017724	0	0	0	0
22.14282	0.05133847	-0.017724	0	0	0	0
22.15939	0.05133847	-0.017724	0	0	0	0
22.17595	0.05133847	-0.017724	0	0	0	0
22.19252	0.05133847	-0.017724	0	0	0	0
22.20909	0.05133847	-0.017724	0	0	0	0
22.22565	0.05133847	-0.017724	0	0	0	0
22.24222	0.05133847	-0.017724	0	0	0	0
22.25879	0.05133847	-0.017724	0	0	0	0
22.27535	0.05133847	-0.017724	0	0	0	0
22.29234	0.05133847	-0.017724	0	0	0	0
22.30849	0.05133847	-0.017724	0	0	0	0
22.32505	0.05133847	-0.017724	0	0	0	0
22.34162	0.05133847	-0.017724	0	0	0	0
22.35819	0.05133847	-0.017724	0	0	0	0
22.37513	0.05133847	-0.017724	0	0	0	0
22.39132	0.05133847	-0.017724	0	0	0	0
22.40789	0.05133847	-0.017724	0	0	0	0
22.42467	0.05133847	-0.017724	0	0	0	0
22.44102	0.05133847	-0.017724	0	0	0	0
22.45769	0.05133847	-0.017724	0	0	0	0
22.47415	0.05133847	-0.017724	0	0	0	0
22.49072	0.05133847	-0.017724	0	0	0	0
22.50728	0.05133847	-0.017724	0	0	0	0
22.52385	0.05133847	-0.017724	0	0	0	0
22.54042	0.05133847	-0.017724	0	0	0	0
22.55698	0.05133847	-0.017724	0	0	0	0
22.57355	0.05133847	-0.017724	0	0	0	0
22.59012	0.05133847	-0.017724	0	0	0	0
22.60669	0.05133847	-0.017724	0	0	0	0
22.62325	0.05133847	-0.017724	0	0	0	0
22.63982	0.05133847	-0.017724	0	0	0	0
22.65639	0.05133847	-0.017724	0	0	0	0
22.67295	0.05133847	-0.017724	0	0	0	0
22.68952	0.05133847	-0.017724	0	0	0	0
22.70609	0.05133847	-0.017724	0	0	0	0
22.72266	0.05133847	-0.017724	0	0	0	0
22.73923	0.05133847	-0.017724	0	0	0	0
22.75579	0.05133847	-0.017724	0	0	0	0
22.77236	0.05133847	-0.017724	0	0	0	0
22.78893	0.05133847	-0.017724	0	0	0	0
22.80549	0.05133847	-0.017724	0	0	0	0
22.82206	0.05133847	-0.017724	0	0	0	0
22.83863	0.05133847	-0.017724	0	0	0	0
22.85519	0.05133847	-0.017724	0	0	0	0
22.87256	0.05133847	-0.017724	0	0	0	0
22.88913	0.05133847	-0.017724	0	0	0	0
22.90584	0.05133847	-0.017724	0	0	0	0
22.92236	0.05133847	-0.017724	0	0	0	0
22.93884	0.05133847	-0.017724	0	0	0	0
22.9554	0.05133847	-0.017724	0	0	0	0
22.97197	0.05133847	-0.017724	0	0	0	0
22.98854	0.05133847	-0.017724	0	0	0	0
23.00511	0.05133847	-0.017724	0	0	0	0
23.02167	0.05133847	-0.017724	0	0	0	0
23.03841	0.05133847	-0.017724	0	0	0	0
23.0548	0.05133847	-0.017724	0	0	0	0
23.07137	0.05133847	-0.017724	0	0	0	0
23.08794	0.05133847	-0.017724	0	0	0	0
23.10451	0.05133847	-0.017724	0	0	0	0
23.12107	0.05133847	-0.017724	0	0	0	0
23.13763	0.05133847	-0.017724	0	0	0	0
23.15423	0.05133847	-0.017724	0	0	0	0
23.17077	0.05133847	-0.017724	0	0	0	0
23.1881	0.05133847	-0.017724	0	0	0	0
23.2039	0.05133847	-0.017724	0	0	0	0
23.22077	0.05133847	-0.017724	0	0	0	0
23.23703	0.05133847	-0.017724	0	0	0	0
23.2536	0.05133847	-0.017724	0	0	0	0
23.2702	0.05133847	-0.017724	0	0	0	0
23.28693	0.05133847	-0.017724	0	0	0	0
23.3033	0.05133847	-0.017724	0	0	0	0
23.31987	0.05133847	-0.017724	0	0	0	0
23.33644	0.05133847	-0.017724	0	0	0	0
23.353	0.05133847	-0.017724	0	0	0	0
23.36957	0.05133847	-0.017724	0	0	0	0
23.38614	0.05133847	-0.017724	0	0	0	0
23.4027	0.05133847	-0.017724	0	0	0	0
23.41927	0.05133847	-0.017724	0	0	0	0
23.43584	0.05133847	-0.017724	0	0	0	0
23.4524	0.05133847	-0.017724	0	0	0	0
23.46897	0.05133847	-0.017724	0	0	0	0
23.48583	0.05133847	-0.017724	0	0	0	0
23.5021	0.05133847	-0.017724	0	0	0	0
23.51867	0.05133847	-0.017724	0	0	0	0
23.53537	0.05133847	-0.017724	0	0	0	0
23.5518	0.05133847	-0.017724	0	0	0	0
23.56837	0.05133847	-0.017724	0	0	0	0
23.58494	0.05133847	-0.017724	0	0	0	0
23.60192	0.05133847	-0.017724	0	0	0	0
23.61807	0.05133847	-0.017724	0	0	0	0
23.63464	0.05133847	-0.017724	0	0	0	0
23.6512	0.05133847	-0.017724	0	0	0	0
23.668	0.05133847	-0.017724	0	0	0	0
23.68447	0.05133847	-0.017724	0	0	0	0
23.7009	0.05133847	-0.017724	0	0	0	0
23.71747	0.05133847	-0.017724	0	0	0	0
23.73404	0.05133847	-0.017724	0	0	0	0
23.7506	0.05133847	-0.017724	0	0	0	0
23.76717	0.05133847	-0.017724	0	0	0	0
23.78374	0.05133847	-0.01650165	0	0.07378095	0	2.226713
23.8003	0.05256081	-0.01405696	0.07378095	0.1475617	2.226713	2.226708
23.81687	0.05745019	-0.00550055	0.2951236	0.516466	6.680134	11.13355
23.83344	0.06845129	0.006722894	0.6641041	0.7378935	11.1365	6.683082
23.85	0.07456301	0.01283462	0.3689041	0.3689042	-8.909667	-11.13676
23.86689	0.07578535	0.01527931	0.0723726	0.1447455	-8.863115	-6.699944
23.88314	0.07578535	0.01527931	0	0	-2.184209	-4.368429
23.89983	0.07578535	0.01527931	0	0	0	0
23.91829	0.07578535	0.01527931	0	0	0	0
23.93485	0.07578535	0.01527931	0	0	0	0
23.95143	0.07578535	0.01527931	0	0	0	0
23.96799	0.07578535	0.01527931	0	0	0	0
23.98456	0.07578535	0.01038993	0	-0.2951914	0	-8.909919
24.00112	0.07578536	0.004278206	4.497179E-07	-0.3689043	1.357408E-05	-2.224917
24.01769	0.0770077	-0.0006111722	0.07377223	-0.2950895	2.226309	2.227609
24.03426	0.07823005	-0.004278205	0.07378922	-0.221368	0.0005126785	2.224916
24.05083	0.08067473	-0.007945239	0.1475445	-0.2213171	2.225938	0.001538035
24.06742	0.08556411	-0.01527931	0.2946828	-0.4420236	4.437068	-6.655573
24.08397	0.09289818	-0.02383572	0.4429913	-0.5168231	4.474156	-2.256543
24.10075	0.110011	-0.03972619	1.019898	-0.9470485	17.30649	-12.90622
24.11709	0.1442367	-0.06661777	2.095049	-1.64611	32.46681	-21.10987
24.13366	0.1674612	-0.08128591	1.401997	-0.8854724	-21.06429	23.11844
24.15022	0.1906857	-0.0947317	1.401676	-0.8114963	-0.009688723	2.232603
24.1668	0.2139103	-0.1032881	1.401513	-0.5163471	-0.004920863	8.906083
24.18336	0.2273561	-0.1106222	0.8118711	-0.4428382	-17.79645	2.218631
24.20042	0.2371348	-0.1155116	0.5731554	-0.2865777	-7.099827	4.647464
24.21649	0.2444689	-0.1204009	0.4563461	-0.3042309	-3.525516	-0.5328043
24.23306	0.2505806	-0.1252903	0.3689045	-0.2951233	-2.679088	0.2790421
24.24962	0.25547	-0.1252903	0.2951229	0	-2.226734	8.90684
24.26619	0.259137	-0.127735	0.2213422	-0.1475614	-2.226707	-4.453413
24.28276	0.2664711	-0.1289573	0.4426844	-0.07378072	6.68012	2.226707
24.29933	0.2835839	-0.131402	1.032932	-0.1475614	17.81371	-2.226707
24.31602	0.3006967	-0.1350691	1.024908	-0.2196237	-0.2412091	-2.166364
24.33246	0.3190319	-0.1399584	1.115576	-0.2974861	2.736526	-2.350026
24.34903	0.3312553	-0.1424031	0.7378073	-0.1475614	-11.44656	4.542778
24.36562	0.3361447	-0.1436255	0.2946159	-0.07365443	-13.364	2.228594
24.38216	0.3361447	-0.1436255	0	0	-8.892038	2.223023
24.39894	0.3361447	-0.1436255	0	0	0	0
24.41529	0.3361447	-0.1436255	0	0	0	0
24.43227	0.3361447	-0.1436255	0	0	0	0
24.45288	0.3361447	-0.1436255	0	0	0	0
24.46945	0.3361447	-0.1436255	0	0	0	0
24.4867	0.3361447	-0.1436255	0	0	0	0
24.50258	0.3361447	-0.1436255	0	0	0	0
24.52212	0.3361447	-0.1436255	0	0	0	0
24.53869	0.3361447	-0.1436255	0	0	0	0
24.55526	0.3361447	-0.1436255	0	0	0	0
24.57183	0.3361447	-0.1436255	0	0	0	0
24.5884	0.3361447	-0.1436255	0	0	0	0
24.60496	0.3361447	-0.1436255	0	0	0	0
24.62152	0.3361447	-0.1436255	0	0	0	0
24.63809	0.3361447	-0.1436255	0	0	0	0
24.65489	0.3361447	-0.1436255	0	0	0	0
24.67122	0.3361447	-0.1436255	0	0	0	0
24.68779	0.3361447	-0.1436255	0	0	0	0
24.70436	0.3361447	-0.1436255	0	0	0	0
24.72093	0.3361447	-0.1436255	0	0	0	0
24.7375	0.3361447	-0.1436255	0	0	0	0
24.75406	0.3361447	-0.1436255	0	0	0	0
24.77063	0.3361447	-0.1436255	0	0	0	0
24.78719	0.3361447	-0.1436255	0	0	0	0
24.80399	0.3361447	-0.1436255	0	0	0	0
24.8205	0.3361447	-0.1436255	0	0	0	0
24.83689	0.3361447	-0.1436255	0	0	0	0
24.85346	0.3361447	-0.1436255	0	0	0	0
24.87032	0.3361447	-0.1436255	0	0	0	0
24.88687	0.3361447	-0.1436255	0	0	0	0
24.90316	0.3361447	-0.1436255	0	0	0	0
24.91973	0.3361447	-0.1436255	0	0	0	0
24.9363	0.3361447	-0.1436255	0	0	0	0
24.95514	0.3361447	-0.1436255	0	0	0	0
24.9719	0.3361447	-0.1436255	0	0	0	0
24.98851	0.3361447	-0.1436255	0	0	0	0
25.00484	0.3361447	-0.1436255	0	0	0	0
25.0214	0.3349224	-0.1436255	-0.07378253	0	-2.24277	0
25.03798	0.3337001	-0.1436255	-0.07374497	0	0.001133253	0
25.05454	0.3324777	-0.1436255	-0.07382502	8.999539E-07	-0.002416024	2.716223E-05
25.0711	0.330033	-0.1436255	-0.1475597	-8.994359E-07	-2.225956	-5.432133E-05
25.08767	0.3251436	-0.1424031	-0.2950907	0.07377313	-4.45224	2.226377
25.10433	0.3214766	-0.1411808	-0.2201761	0.07339205	2.254826	-0.01147005
25.12125	0.3165872	-0.1399585	-0.2889031	0.0722249	-2.046733	-0.03475842
25.13737	0.3092532	-0.1375138	-0.4549423	0.1516477	-5.024664	2.403488
25.15394	0.294585	-0.1326244	-0.8854724	0.2951569	-13.17161	4.390507
25.17051	0.2738051	-0.1265127	-1.254276	0.3689045	-11.13115	2.225837
25.18707	0.2542477	-0.1204009	-1.180492	0.3689045	2.226816	0
25.20364	0.2395795	-0.1142892	-0.8855753	0.3689895	8.901615	0.002564587
25.22045	0.2261337	-0.1093998	-0.7995297	0.2907385	2.577721	-2.344213
25.23677	0.2187997	-0.1081775	-0.4494658	0.07491051	10.56495	-6.513701
25.25334	0.212688	-0.1057328	-0.3689452	0.1475789	2.448722	2.209928
25.2699	0.2090209	-0.1045105	-0.2213431	0.07378072	4.454898	-2.227361
25.28673	0.2029092	-0.1020658	-0.3631352	0.1452542	-4.245568	2.140072
25.3034	0.1980198	-0.1008434	-0.2934338	0.07335845	2.08107	-2.146586
25.3196	0.1931304	-0.09962107	-0.3016883	0.0754223	-0.2511306	0.06278969
25.33631	0.1894634	-0.09717639	-0.2195225	0.1463483	2.496583	2.155066
25.35274	0.1870187	-0.09717639	-0.148813	0	2.134139	-4.417056
25.3693	0.184574	-0.0947317	-0.1475793	0.1475789	0.03739188	4.472994
25.38587	0.1821293	-0.0947317	-0.1475606	-4.497179E-07	0.000567127	-4.45421
25.40244	0.1784623	-0.09228701	-0.2213431	0.1475619	-2.226761	4.45344
25.41944	0.1747953	-0.09106466	-0.2156332	0.07187789	0.1700712	-2.254302
25.43557	0.1711282	-0.08984232	-0.2273895	0.0757965	-0.3548245	0.1182707
25.45245	0.1674612	-0.08739763	-0.2171677	0.1447783	0.3096337	2.089574
25.46898	0.1637942	-0.08617529	-0.2218786	0.07395954	-0.1409894	-2.119503
25.48527	0.1601271	-0.0837306	-0.2251526	0.1501017	-0.09977467	2.320416
25.50186	0.1552377	-0.08250825	-0.2946828	0.07367092	-2.114737	-2.324618
25.51847	0.152793	-0.08128591	-0.1471557	0.07357743	4.442912	-0.002815534
25.535	0.149126	-0.07884122	-0.2218777	0.1479195	-2.254724	2.243262
25.55158	0.1442366	-0.07761887	-0.294921	0.0737298	-2.206355	-2.240985
25.5681	0.1369026	-0.07517418	-0.4439109	0.1479708	-4.501188	2.24292
25.58467	0.1332355	-0.0727295	-0.2213431	0.1475614	6.726403	-0.01236994
25.60123	0.1307909	-0.0727295	-0.1475614	0	2.226734	-4.453413
25.61809	0.1283462	-0.07150716	-0.1450236	0.07251181	0.07592757	2.169429
25.63437	0.1283462	-0.07028481	-9.154558E-07	0.0750953	4.376794	0.07796985
25.65094	0.1271238	-0.07028481	-0.07377983	0	-2.246306	-2.286386
25.6675	0.1259015	-0.07028481	-0.07378162	0	-5.419101E-05	0
25.68407	0.1246791	-0.07028481	-0.07378028	-4.497179E-07	4.069947E-05	-1.357251E-05
25.70064	0.1234568	-0.06906246	-0.07378162	0.07378118	-4.069947E-05	2.226734
25.71778	0.1222345	-0.06906246	-0.07129286	0	0.07382337	-2.188548
25.73377	0.1210121	-0.06784012	-0.07644796	0.07644749	-0.1555813	2.30719
25.75034	0.1185674	-0.06784012	-0.1475614	0	-2.184308	-2.348146
25.7669	0.1173451	-0.06784012	-0.07378967	0	2.226565	0
25.78347	0.1173451	-0.06784012	0	0	2.227105	0
25.80004	0.1161227	-0.06661777	-0.07378072	0.07378118	-2.226707	2.22672
25.8169	0.1149004	-0.06661778	-0.0724954	-4.418835E-07	0.03845024	-2.207167
25.83317	0.1124557	-0.06539543	-0.150243	0.07512171	-2.346561	2.267321
25.84974	0.110011	-0.06417308	-0.1475624	0.07378118	0.08162899	-0.04082153
25.8663	0.106344	-0.06295075	-0.2213672	0.07378877	-2.227563	0.0002291445
25.88287	0.1051216	-0.0617284	-0.07378118	0.07378095	4.454412	-0.0002361155
25.89948	0.1051216	-0.0617284	0	0	2.224288	-2.224281
25.91649	0.1051216	-0.0617284	0	0	0	0
25.93257	0.1038993	-0.06050605	-0.0759947	0.07599447	-2.296036	2.296029
25.94914	0.1026769	-0.06050605	-0.07378072	0	0.06780546	-2.327413
25.96602	0.1026769	-0.06050605	0	0	2.205882	0
25.98253	0.1014546	-0.05928371	-0.07403643	0.07403643	-2.217321	2.217321
26.00247	0.1002323	-0.05806137	-0.06130866	0.06130884	0.3492083	-0.3492032
26.01907	0.09778756	-0.05683902	-0.1472229	0.07361168	-2.351052	0.3366683
26.0356	0.09778757	-0.05561668	4.507558E-07	0.07395077	4.44321	0.01023401
26.05223	0.09656522	-0.05561667	-0.0734935	2.239822E-07	-2.216265	-2.230035
26.06874	0.09656522	-0.05439433	0	0.07407066	2.218038	2.23545
26.0853	0.09534287	-0.05317198	-0.07378922	0.07378945	-2.231459	-0.008504211
26.10187	0.09412052	-0.05194964	-0.07378118	0.07378095	0.0002426368	-0.0002565788
26.11844	0.09289818	-0.0507273	-0.07378072	0.07378072	1.37164E-05	-6.745769E-06
26.135	0.09167583	-0.04950495	-0.07378118	0.07378095	-1.37164E-05	6.745769E-06
26.15157	0.09167583	-0.0482826	0	0.07378095	2.22672	0
26.16849	0.09167583	-0.0482826	0	0	0	-2.203125
26.1847	0.09045349	-0.04706026	-0.07540409	0.07540409	-2.275831	2.275831
26.20127	0.09045349	-0.04583792	0	0.07378095	2.300463	-0.0495197
26.21784	0.09045349	-0.04461557	0	0.07378072	0	-6.745769E-06
26.23441	0.08923115	-0.04339323	-0.07378072	0.07378072	-2.226707	0
26.25097	0.08923114	-0.04094854	-4.497179E-07	0.1475619	2.226693	2.22672
26.31936	0.08800881	-0.03605916	-0.01787353	0.07149467	-0.2103824	-0.8953803
26.35088	0.0794524	-0.01405696	-0.2714525	0.6980207	-2.538103	6.270977
26.37328	0.0770077	-0.006722895	-0.1091478	0.327443	3.010166	-6.87288
26.38985	0.07578536	-0.004278206	-0.07376374	0.1475278	0.9080044	-4.616876
26.40663	0.07578536	-0.004278206	0	0	2.211554	-4.423116
26.42298	0.07456302	-0.003055861	-0.07477939	0.07477953	-2.257236	2.257241
26.43955	0.07456302	-0.003055861	0	0	2.271755	-2.271759
26.4563	0.07456302	-0.001833517	0	0.07299926	0	2.19114
26.47268	0.07456302	-0.001833517	0	0	0	-2.203122
26.48925	0.07456301	-0.0006111722	-4.497179E-07	0.07378086	-1.364556E-05	2.238696
26.50582	0.07456301	0.0006111722	0	0.07378086	1.357251E-05	-2.24859E-07
26.52238	0.07334068	0.0006111723	-0.07379727	3.51423E-09	-2.227463	-2.226967
26.53895	0.07334067	0.001833517	-4.497179E-07	0.07378085	2.227449	2.226967
26.55581	0.07334067	0.001833517	0	0	1.345479E-05	-2.207396
26.57208	0.07334067	0.003055861	0	0.075095	0	2.266371
26.58865	0.07334067	0.003055861	0	0	0	-2.286377
26.60522	0.07334067	0.003055861	0	0	0	0
26.62178	0.07334067	0.003055861	0	0	0	0
26.63835	0.07334067	0.003055861	0	0	0	0
26.65492	0.07211833	0.003055861	-0.07378922	-1.40553E-08	-2.227091	-4.242143E-07
26.67148	0.07211833	0.003055861	0	0	2.227091	4.242143E-07
26.68805	0.07211833	0.003055861	0	0	0	0
26.70462	0.07211833	0.003055861	0	0	0	0
26.72539	0.07211833	0.003055861	0	0	0	0
26.74196	0.07211833	0.003055861	0	0	0	0
26.75853	0.07211833	0.003055861	0	0	0	0
26.77509	0.07211833	0.003055861	0	0	0	0
26.79177	0.07211833	0.003055861	0	0	0	0
26.80823	0.07211833	0.003055861	0	0	0	0
26.82524	0.07211833	0.003055861	0	0	0	0
26.84136	0.07211833	0.003055861	0	0	0	0
26.8608	0.07211833	0.003055861	0	0	0	0
26.8781	0.07211833	0.003055861	0	0	0	0
26.89415	0.07211833	0.003055861	0	0	0	0
26.9105	0.07211833	0.003055861	0	0	0	0
26.92999	0.07211833	0.003055861	0	0	0	0
26.94656	0.07211833	0.003055861	0	0	0	0
26.96313	0.07211833	0.003055861	0	0	0	0
26.9797	0.07211833	0.003055861	0	0	0	0
26.99685	0.07211833	0.003055861	0	0	0	0
27.01283	0.07211833	0.003055861	0	0	0	0
27.0294	0.07211833	0.003055861	0	0	0	0
27.04596	0.07211833	0.003055861	0	0	0	0
27.06256	0.07211833	0.003055861	0	0	0	0
27.07909	0.07211833	0.003055861	0	0	0	0
27.09835	0.07211833	0.003055861	0	0	0	0
27.11491	0.07211833	0.003055861	0	0	0	0
27.13178	0.07211833	0.003055861	0	0	0	0
27.14805	0.07211833	0.003055861	0	0	0	0
27.16461	0.07211833	0.003055861	0	0	0	0
27.18118	0.07211833	0.003055861	0	0	0	0
27.19775	0.07211833	0.003055861	0	0	0	0
27.21432	0.07211833	0.003055861	0	0	0	0
27.23088	0.07211833	0.003055861	0	0	0	0
27.24745	0.07211833	0.003055861	0	0	0	0
27.26402	0.07211833	0.003055861	0	0	0	0
27.28082	0.07211833	0.003055861	0	0	0	0
27.29733	0.07211833	0.003055861	0	0	0	0
27.31372	0.07211833	0.003055861	0	0	0	0
27.33028	0.07211833	0.003055861	0	0	0	0
27.34685	0.07211833	0.003055861	0	0	0	0
27.36376	0.07211833	0.003055861	0	0	0	0
27.38045	0.07211833	0.003055861	0	0	0	0
27.39655	0.07211833	0.003055861	0	0	0	0
27.41312	0.07211833	0.003055861	0	0	0	0
27.42999	0.07211833	0.003055861	0	0	0	0
27.44625	0.07211833	0.003055861	0	0	0	0
27.46282	0.07211833	0.003055861	0	0	0	0
27.47949	0.07211833	0.003055861	0	0	0	0
27.49602	0.07211833	0.003055861	0	0	0	0
27.51252	0.06722895	0.004278206	-0.2963516	0.07408793	-8.971798	2.24295
27.52909	0.06233957	0.006722895	-0.2951236	0.1475617	0.03713912	2.222048
27.54565	0.05867254	0.01038993	-0.2213426	0.2213426	2.226714	2.226711
27.56222	0.05256081	0.01283462	-0.3689043	0.1475617	-4.45342	-2.226711
27.57901	0.04889378	0.01650165	-0.2184506	0.2184503	4.510839	2.125352
27.59567	0.04644909	0.01650165	-0.1466833	0	2.145319	-6.530068
27.6128	0.0440044	0.017724	-0.1427306	0.0713654	0.1169635	2.111752
27.62849	0.04278206	0.01894634	-0.0779068	0.07790656	1.975261	0.1993173
27.64508	0.04278206	0.01894634	0	0	2.413472	-2.413465
27.66162	0.04278206	0.01894634	0	0	0	0
27.67819	0.04278206	0.01894634	0	0	0	0
27.69476	0.04278206	0.01894634	0	0	0	0
27.71169	0.04278206	0.01894634	0	0	0	0
27.72789	0.04278206	0.01894634	0	0	0	0
27.74446	0.04278206	0.01894634	0	0	0	0
27.7617	0.04278206	0.01894634	0	0	0	0
27.77759	0.04278206	0.01894634	0	0	0	0
27.79448	0.04278206	0.01894634	0	0	0	0
27.81072	0.04278206	0.01894634	0	0	0	0
27.82733	0.04278206	0.01894634	0	0	0	0
27.84386	0.04155971	0.01894634	-0.07397661	1.12728E-07	-2.232747	3.402333E-06
27.86081	0.04155971	0.01894634	0	0	2.209848	-3.367439E-06
27.87732	0.04155971	0.01894634	0	0	0	0
27.89356	0.04155971	0.01894634	0	0	0	0
27.91013	0.04155971	0.01894634	0	0	0	0
27.9269	0.04155971	0.01894634	0	0	0	0
27.9434	0.04155971	0.01894634	0	0	0	0
27.95983	0.04155971	0.01894634	0	0	0	0
27.97659	0.04155971	0.01894634	0	0	0	0
27.99296	0.04155971	0.01894634	0	0	0	0
28.00953	0.04155971	0.01894634	0	0	0	0
28.02609	0.04155971	0.01894634	0	0	0	0
28.04266	0.04155971	0.01894634	0	0	0	0
28.05923	0.04155971	0.01894634	0	0	0	0
28.07579	0.04155971	0.01894634	0	0	0	0
28.09236	0.04155971	0.01894634	0	0	0	0
28.10912	0.04155971	0.01894634	0	0	0	0
28.12549	0.04155971	0.01894634	0	0	0	0
28.14206	0.04155971	0.01894634	0	0	0	0
28.16061	0.04155971	0.01894634	0	0	0	0
28.17722	0.04155971	0.01894634	0	0	0	0
28.19375	0.04155971	0.01894634	0	0	0	0
28.21032	0.04155971	0.01894634	0	0	0	0
28.22688	0.04155971	0.01894634	0	0	0	0
28.24345	0.04155971	0.01894634	0	0	0	0
28.26002	0.04155971	0.01894634	0	0	0	0
28.27658	0.04155971	0.01894634	0	0	0	0
28.29315	0.04155971	0.01894634	0	0	0	0
28.30972	0.04155971	0.01894634	0	0	0	0
28.32628	0.04155971	0.01894634	0	0	0	0
28.34285	0.04155971	0.01894634	0	0	0	0
28.35942	0.04155971	0.01894634	0	0	0	0
28.37683	0.04155971	0.01894634	0	0	0	0
28.39255	0.04155971	0.01894634	0	0	0	0
28.40912	0.04155971	0.01894634	0	0	0	0
28.42569	0.04155971	0.01894634	0	0	0	0
28.44225	0.04155971	0.01894634	0	0	0	0
28.45882	0.04155971	0.01894634	0	0	0	0
28.47539	0.04155971	0.01894634	0	0	0	0
28.49195	0.04155971	0.01894634	0	0	0	0
28.56107	0.04155971	0.01894634	0	0	0	0
28.57819	0.04155971	0.01894634	0	0	0	0
28.59494	0.04155971	0.01894634	0	0	0	0
28.61195	0.04155971	0.01894634	0	0	0	0
28.62789	0.04155971	0.01894634	0	0	0	0
28.64446	0.04155971	0.01894634	0	0	0	0
28.66103	0.04155971	0.01894634	0	0	0	0
28.67759	0.04155971	0.01894634	0	0	0	0
28.69416	0.04155971	0.01894634	0	0	0	0
28.71149	0.04155971	0.01894634	0	0	0	0
28.72729	0.04155971	0.01894634	0	0	0	0
28.74386	0.04155971	0.01894634	0	0	0	0
28.76043	0.04155971	0.01894634	0	0	0	0
28.77699	0.04155971	0.01894634	0	0	0	0
28.79356	0.04155971	0.01894634	0	0	0	0
28.81013	0.04155971	0.01894634	0	0	0	0
28.82669	0.04155971	0.01894634	0	0	0	0
28.84326	0.04155971	0.01894634	0	0	0	0
28.85983	0.04155971	0.01894634	0	0	0	0
28.8764	0.04155971	0.01894634	0	0	0	0
28.89296	0.0440044	0.01650165	0.1475617	-0.1475617	4.45342	-4.45342
28.90953	0.04889378	0.003055861	0.2951233	-0.8115895	4.45342	-20.0404
28.92619	0.05867254	-0.0287251	0.5870703	-1.907978	8.787203	-32.9998
28.94266	0.0770077	-0.07395184	1.112863	-2.745061	15.86936	-25.26467
28.95923	0.09778756	-0.1204009	1.25413	-2.80335	4.275025	-1.763918
28.9758	0.1173451	-0.1607383	1.18063	-2.435049	-2.218246	11.11533
28.99274	0.1307909	-0.1912969	0.7937692	-1.804022	-11.54653	18.83413
29.00893	0.149126	-0.2304119	1.132129	-2.415209	10.21171	-18.44567
29.02577	0.1589048	-0.2536365	0.5808849	-1.379599	-16.68941	31.35402
29.04207	0.1625718	-0.2670823	0.2249682	-0.8248852	-10.74159	16.74131
29.05916	0.1637942	-0.2744163	0.07150055	-0.4290033	-4.595421	11.85425
29.0752	0.1650165	-0.2793057	0.07622019	-0.3048808	0.1424474	3.74624
29.09177	0.1662388	-0.2829728	0.07377223	-0.2213185	-0.07507677	2.562778
29.10834	0.1662388	-0.2841951	0	-0.07378072	-2.226322	4.452442
29.1249	0.1662388	-0.2841951	0	0	0	2.226707
29.14157	0.1662388	-0.2841951	0	0	0	0
29.15803	0.1662389	-0.2854174	9.053772E-07	-0.0742681	2.732906E-05	-2.241803
29.1746	0.1662389	-0.2866398	0	-0.07378072	-2.741429E-05	0.01475735
29.19117	0.1662388	-0.2903068	-8.993323E-07	-0.2213167	-2.714034E-05	-4.452388
29.21414	0.1662388	-0.2976409	0	-0.3192061	2.274196E-05	-2.475388
29.23707	0.1662389	-0.2988632	6.499584E-07	-0.05331739	1.415962E-05	5.792497
29.25856	0.1662389	-0.2988632	0	0	-1.463203E-05	1.200295
29.28105	0.1662389	-0.2988632	0	0	0	0
29.29762	0.1662389	-0.2988632	0	0	0	0
29.31418	0.1662389	-0.2988632	0	0	0	0
29.3308	0.1662389	-0.2988632	0	0	0	0
29.34732	0.1662389	-0.2988632	0	0	0	0
29.36388	0.1662389	-0.2988632	0	0	0	0
29.3808	0.1650165	-0.2976409	-0.07226738	0.0722665	-2.158421	2.158395
29.39702	0.1650165	-0.2964185	0	0.07535975	2.181034	0.09335447
29.41412	0.1625718	-0.2915292	-0.1429683	0.2859384	-4.290833	6.319986
29.43015	0.1589048	-0.2854174	-0.2286896	0.3811482	-2.587075	2.873437
29.44672	0.1540154	-0.2756387	-0.2951229	0.5902476	-2.037685	6.413638
29.46329	0.1430143	-0.2536365	-0.6640283	1.328055	-11.13359	22.26707
29.47985	0.1246791	-0.2218555	-1.106712	1.918302	-13.36023	17.81371
29.49683	0.09534287	-0.1729617	-1.728358	2.880596	-18.53405	28.69029
29.51299	0.07089598	-0.1326244	-1.512712	2.495975	6.508196	-11.60787
29.52956	0.0550055	-0.1069551	-0.959151	1.549398	16.91389	-28.92238
29.54612	0.03789268	-0.08250825	-1.033051	1.475787	-2.23044	-2.221709
29.5632	0.01711282	-0.04583792	-1.216869	2.147416	-5.46397	19.96411
29.57926	0.007334067	-0.03116979	-0.6089659	0.9134489	18.34655	-37.2412
29.59582	0.003667034	-0.02383572	-0.2213681	0.4427363	11.88102	-14.42873
29.61239	0.003667034	-0.02261337	1.405369E-08	0.07378072	6.681287	-11.13574
29.62896	0.003667034	-0.02261337	0	0	-4.241411E-07	-2.226707
29.6461	0.003667034	-0.02261337	0	0	0	0
29.66209	0.003667034	-0.02261337	0	0	0	0
29.67866	0.003667033	-0.02139103	-2.810737E-08	0.07378095	-8.632392E-07	2.265975
29.69522	0.003667033	-0.02139103	0	0	8.482821E-07	-2.226713
29.71179	0.002444689	-0.02139103	-0.07378085	0	-2.226711	0
29.72836	0.002444689	-0.02139103	0	0	2.226839	0
29.74513	0.002444689	-0.02016868	0	0.07285815	0	2.185153
29.76149	0.002444689	-0.01894634	1.423394E-08	0.07472719	4.295813E-07	0.05640745
29.77806	0.002444689	-0.01894634	0	0	-4.323188E-07	-2.269642
29.79462	0.002444689	-0.01772399	-1.405369E-08	0.07378095	-4.241411E-07	2.226713
29.81135	0.002444689	-0.01527931	0	0.146165	4.221242E-07	2.174167
29.82797	0.002444689	-0.01405696	0	0.07354376	0	-2.177798
29.84432	0.003667033	-0.01161227	0.07474463	0.1494893	2.266758	2.303177
29.86112	0.003667033	-0.01038993	0	0.07277548	-2.254759	-2.314162
29.87746	0.003667033	-0.009167584	0	0.07481442	0	0.06153558
29.89403	0.003667033	-0.009167584	0	0	0	-2.273609
29.91083	0.003667034	-0.007945239	1.385274E-08	0.07272592	4.150659E-07	2.179068
29.92716	0.003667034	-0.007945239	0	0	-4.181005E-07	-2.194999
29.94373	0.003667034	-0.007945239	0	0	0	0
29.96041	0.003667034	-0.007945239	0	0	0	0
29.97686	0.004889378	-0.00794524	0.07431128	-5.661888E-08	2.242848	-1.70886E-06
29.99343	0.004889378	-0.006722895	0	0.07378083	-2.250752	2.234687
30.00999	0.006111723	-0.006722894	0.07378089	5.621474E-08	2.226712	-2.226708
30.02722	0.006111723	-0.006722894	0	0	-2.183105	-1.66334E-06
30.04313	0.006111723	-0.006722894	0	0	0	0
30.05969	0.006111723	-0.006722894	0	0	0	0
30.07626	0.006111723	-0.006722894	0	0	0	0
30.09283	0.006111723	-0.006722894	0	0	0	0
30.1094	0.006111723	-0.006722894	0	0	0	0
30.12596	0.007334067	-0.006722894	0.07378083	2.810737E-08	2.22671	8.482821E-07
30.14253	0.007334067	-0.006722894	0	0	-2.22671	-8.482821E-07
30.15928	0.007334067	-0.00550055	0	0.07296597	0	2.18989
30.17566	0.008556412	-0.00550055	0.07461411	2.84248E-08	2.251858	-2.202116
30.19227	0.008556412	-0.00550055	0	0	-2.261753	-8.616317E-07
30.2088	0.008556412	-0.00550055	0	0	0	0
30.2257	0.008556412	-0.00550055	0	0	0	0
30.24193	0.009778756	-0.00550055	0.07530674	-2.868867E-08	2.272893	-8.658757E-07
30.2585	0.009778756	-0.00550055	0	0	-2.296023	8.746876E-07
30.27507	0.009778756	-0.00550055	0	0	0	0
30.29163	0.009778756	-0.00550055	0	0	0	0
30.31134	0.009778756	-0.00550055	0	0	0	0
30.32791	0.009778756	-0.00550055	0	0	0	0
30.34448	0.009778756	-0.00550055	0	0	0	0
30.36105	0.009778756	-0.00550055	0	0	0	0
30.37761	0.009778756	-0.00550055	0	0	0	0
30.39445	0.009778756	-0.00550055	0	0	0	0
30.41075	0.009778756	-0.00550055	0	0	0	0
30.42731	0.009778756	-0.00550055	0	0	0	0
30.44418	0.009778756	-0.00550055	0	0	0	0
30.46045	0.009778756	-0.00550055	0	0	0	0
30.47701	0.009778756	-0.00550055	0	0	0	0
30.49358	0.009778756	-0.00550055	0	0	0	0
30.51015	0.009778756	-0.00550055	0	0	0	0
30.52686	0.009778756	-0.00550055	0	0	0	0
30.54328	0.009778756	-0.00550055	0	0	0	0
30.55985	0.009778756	-0.00550055	0	0	0	0
30.57641	0.009778756	-0.00550055	0	0	0	0
30.59298	0.009778756	-0.00550055	0	0	0	0
30.60955	0.009778756	-0.00550055	0	0	0	0
30.62611	0.009778756	-0.00550055	0	0	0	0
30.64287	0.009778756	-0.00550055	0	0	0	0
30.65925	0.009778756	-0.00550055	0	0	0	0
30.67653	0.009778756	-0.00550055	0	0	0	0
30.69238	0.009778756	-0.00550055	0	0	0	0
30.70895	0.009778756	-0.00550055	0	0	0	0
30.72551	0.009778756	-0.00550055	0	0	0	0
30.74208	0.009778756	-0.00550055	0	0	0	0
30.75865	0.009778756	-0.00550055	0	0	0	0
30.77522	0.009778756	-0.00550055	0	0	0	0
30.79178	0.009778756	-0.00550055	0	0	0	0
30.80835	0.009778756	-0.00550055	0	0	0	0
30.82514	0.009778756	-0.00550055	0	0	0	0
30.84148	0.009778756	-0.00550055	0	0	0	0
30.85805	0.009778756	-0.00550055	0	0	0	0
30.87461	0.009778756	-0.00550055	0	0	0	0
30.89118	0.009778756	-0.00550055	0	0	0	0
30.90775	0.009778756	-0.00550055	0	0	0	0
30.92431	0.009778756	-0.00550055	0	0	0	0
30.94088	0.009778756	-0.00550055	0	0	0	0
30.95745	0.009778756	-0.00550055	0	0	0	0
30.97432	0.009778756	-0.00550055	0	0	0	0
30.99058	0.009778756	-0.00550055	0	0	0	0
31.00715	0.009778756	-0.00550055	0	0	0	0
31.02401	0.009778756	-0.00550055	0	0	0	0
31.0403	0.009778756	-0.00550055	0	0	0	0
31.05688	0.009778756	-0.00550055	0	0	0	0
31.07342	0.009778756	-0.00550055	0	0	0	0
31.08998	0.009778756	-0.00550055	0	0	0	0
31.10655	0.009778756	-0.00550055	0	0	0	0
31.12312	0.009778756	-0.00550055	0	0	0	0
31.13978	0.009778756	-0.00550055	0	0	0	0
31.15625	0.009778756	-0.00550055	0	0	0	0
31.17282	0.009778756	-0.00550055	0	0	0	0
31.18939	0.009778756	-0.00550055	0	0	0	0
31.2064	0.009778756	-0.00550055	0	0	0	0
31.22252	0.009778756	-0.00550055	0	0	0	0
31.23909	0.009778756	-0.00550055	0	0	0	0
31.25565	0.009778756	-0.00550055	0	0	0	0
31.27222	0.009778756	-0.00550055	0	0	0	0
31.29382	0.009778756	-0.00550055	0	0	0	0
31.31039	0.009778756	-0.00550055	0	0	0	0
31.32695	0.009778756	-0.00550055	0	0	0	0
31.34801	0.009778757	-0.006722895	4.422838E-08	-0.05804897	1.175585E-06	-1.542934
31.36642	0.009778757	-0.006722895	0	0	-1.120538E-06	1.470686
31.38783	0.009778757	-0.006722895	0	0	0	0
31.40439	0.009778757	-0.006722895	0	0	0	0
31.42096	0.009778757	-0.006722895	0	0	0	0
31.43753	0.009778757	-0.006722895	0	0	0	0
31.4541	0.009778757	-0.006722895	0	0	0	0
31.47527	0.009778757	-0.006722895	0	0	0	0
31.49184	0.009778757	-0.006722895	0	0	0	0
31.50844	0.009778757	-0.006722895	0	0	0	0
31.52497	0.009778757	-0.006722895	0	0	0	0
31.54153	0.009778757	-0.006722895	0	0	0	0
31.5581	0.009778757	-0.006722895	0	0	0	0
31.57467	0.009778757	-0.006722895	0	0	0	0
31.5916	0.009778757	-0.006722895	0	0	0	0
31.60817	0.009778757	-0.006722895	0	0	0	0
31.62437	0.009778757	-0.006722895	0	0	0	0
31.64093	0.009778757	-0.006722895	0	0	0	0
31.6575	0.009778757	-0.006722895	0	0	0	0
31.67407	0.009778756	-0.00794524	-5.620827E-08	-0.07377237	-1.696271E-06	-2.226326
31.69064	0.009778757	-0.009167585	5.622121E-08	-0.07378939	3.393129E-06	-0.0005135779
31.70724	0.0110011	-0.01161227	0.07361134	-0.1472227	2.219166	-2.2138
31.72377	0.0110011	-0.01283462	0	-0.07395117	-2.221595	2.211339
31.74128	0.0110011	-0.01283462	0	0	0	2.172815
31.76285	0.0110011	-0.01405696	0	-0.05666316	0	-1.45001
31.77974	0.0110011	-0.01405696	0	0	0	1.473237
31.79598	0.0110011	-0.01405696	0	0	0	0
31.81255	0.0110011	-0.01405696	0	0	0	0
31.83416	0.0110011	-0.01405696	0	0	0	0
31.85079	0.0110011	-0.01405696	0	0	0	0
31.86729	0.0110011	-0.01405696	0	0	0	0
31.88386	0.0110011	-0.01405696	0	0	0	0
31.9008	0.0110011	-0.01405696	0	0	0	0
31.91738	0.0110011	-0.01405696	0	0	0	0
31.93361	0.0110011	-0.01405696	0	0	0	0
31.95013	0.0110011	-0.01405696	0	0	0	0
31.9667	0.0110011	-0.01405696	0	0	0	0
31.98326	0.0110011	-0.01405696	0	0	0	0
31.99983	0.0110011	-0.01405696	0	0	0	0
32.0164	0.0110011	-0.01405696	0	0	0	0
32.03296	0.0110011	-0.01405696	0	0	0	0
32.0499	0.0110011	-0.01405696	0	0	0	0
32.0661	0.0110011	-0.01405696	0	0	0	0
32.08266	0.0110011	-0.01405696	0	0	0	0
32.09923	0.0110011	-0.01405696	0	0	0	0
32.11592	0.0110011	-0.01405696	0	0	0	0
32.1325	0.0110011	-0.01405696	0	0	0	0
32.14893	0.0110011	-0.01405696	0	0	0	0
32.1655	0.0110011	-0.01405696	0	0	0	0
32.18206	0.0110011	-0.01405696	0	0	0	0
32.19863	0.01222345	-0.01527931	0.07378089	-0.07378089	2.226968	-2.226968
32.2152	0.01222345	-0.01650165	0	-0.07378078	-2.226712	3.372885E-06
32.23177	0.01222345	-0.01650165	0	0	0	2.226708
32.24833	0.01222345	-0.01650165	0	0	0	0
32.2649	0.01222345	-0.01650165	0	0	0	0
32.28147	0.01222345	-0.01650165	0	0	0	0
32.29811	0.01222345	-0.01650165	0	0	0	0
32.31521	0.01222345	-0.01650165	0	0	0	0
32.33117	0.01222345	-0.01650165	0	0	0	0
32.34782	0.01344579	-0.017724	0.0734258	-0.07342591	2.252034	-2.252037
32.3643	0.01344579	-0.017724	0	0	-2.215995	2.215998
32.38087	0.01344579	-0.017724	0	0	0	0
32.40093	0.01344579	-0.017724	0	0	0	0
32.41844	0.01344579	-0.017724	0	0	0	0
32.43406	0.01344579	-0.017724	0	0	0	0
32.45063	0.01344579	-0.017724	0	0	0	0
32.4672	0.01344579	-0.017724	0	0	0	0
32.48376	0.01344579	-0.017724	0	0	0	0
32.50033	0.01344579	-0.017724	0	0	0	0
32.51694	0.01344579	-0.017724	0	0	0	0
32.53351	0.01344579	-0.017724	0	0	0	0
32.55003	0.01344579	-0.017724	0	0	0	0
32.5666	0.01344579	-0.017724	0	0	0	0
32.58317	0.01344579	-0.017724	0	0	0	0
32.59974	0.01344579	-0.017724	0	0	0	0
32.6163	0.01344579	-0.017724	0	0	0	0
32.63287	0.01344579	-0.017724	0	0	0	0
32.64944	0.01344579	-0.017724	0	0	0	0
32.666	0.01344579	-0.017724	0	0	0	0
32.68257	0.01344579	-0.017724	0	0	0	0
32.69914	0.01344579	-0.017724	0	0	0	0
32.71594	0.01344579	-0.017724	0	0	0	0
32.73227	0.01344579	-0.017724	0	0	0	0
32.74884	0.01344579	-0.017724	0	0	0	0
32.76541	0.01344579	-0.017724	0	0	0	0
32.78197	0.01344579	-0.017724	0	0	0	0
32.79854	0.01344579	-0.017724	0	0	0	0
32.81519	0.01344579	-0.017724	0	0	0	0
32.83167	0.01344579	-0.017724	0	0	0	0
32.84824	0.01344579	-0.017724	0	0	0	0
32.86522	0.01344579	-0.017724	0	0	0	0
32.88179	0.01344579	-0.017724	0	0	0	0
32.89796	0.01344579	-0.017724	0	0	0	0
32.91451	0.01344579	-0.017724	0	0	0	0
32.93107	0.01344579	-0.017724	0	0	0	0
32.94764	0.01344579	-0.017724	0	0	0	0
32.96421	0.01344579	-0.017724	0	0	0	0
32.98077	0.01344579	-0.017724	0	0	0	0
32.99734	0.01344579	-0.017724	0	0	0	0
33.01391	0.01344579	-0.017724	0	0	0	0
33.03048	0.01344579	-0.017724	0	0	0	0
33.04704	0.01344579	-0.017724	0	0	0	0
33.06361	0.01344579	-0.017724	0	0	0	0
33.13271	0.01344579	-0.017724	0	0	0	0
33.14928	0.01466813	-0.01894634	0.07376385	-0.07376385	0.8610567	-0.8610567
33.16584	0.01466813	-0.01894634	0	0	-2.226197	2.226197
33.18241	0.01466813	-0.01894634	0	0	0	0
33.19897	0.01466813	-0.01894634	0	0	0	0
33.21554	0.01466813	-0.01894634	0	0	0	0
33.23241	0.01466813	-0.01894634	0	0	0	0
33.24868	0.01466813	-0.01894634	0	0	0	0
33.26524	0.01466813	-0.01894634	0	0	0	0
33.28186	0.01466813	-0.01894634	0	0	0	0
33.29838	0.01466813	-0.01894634	0	0	0	0
33.31495	0.01466813	-0.01894634	0	0	0	0
33.33151	0.01466813	-0.01894634	0	0	0	0
33.34808	0.01466813	-0.01894634	0	0	0	0
33.36465	0.01466813	-0.01894634	0	0	0	0
33.38121	0.01466813	-0.01894634	0	0	0	0
33.39778	0.01466813	-0.01894634	0	0	0	0
33.41435	0.01466813	-0.01894634	0	0	0	0
33.43092	0.01466813	-0.01894634	0	0	0	0
33.44773	0.01466813	-0.01894634	0	0	0	0
33.46405	0.01466813	-0.01894634	0	0	0	0
33.48088	0.01466813	-0.01894634	0	0	0	0
33.49748	0.01466813	-0.01894634	0	0	0	0
33.51767	0.01466813	-0.01894634	0	0	0	0
33.53424	0.01466813	-0.01894634	0	0	0	0
33.5514	0.01466813	-0.01894634	0	0	0	0
33.56737	0.01466813	-0.01894634	0	0	0	0
33.58394	0.01466813	-0.01894634	0	0	0	0
33.60051	0.01466813	-0.01894634	0	0	0	0
33.61782	0.01466813	-0.01894634	0	0	0	0
33.63364	0.01466813	-0.01894634	0	0	0	0
33.65035	0.01466813	-0.01894634	0	0	0	0
33.6669	0.01466813	-0.01894634	0	0	0	0
33.68347	0.01466813	-0.01894634	0	0	0	0
33.70044	0.01466813	-0.01894634	0	0	0	0
33.71648	0.01466813	-0.01894634	0	0	0	0
33.73304	0.01466813	-0.01894634	0	0	0	0
33.74961	0.01466813	-0.01894634	0	0	0	0
33.76618	0.01466813	-0.01894634	0	0	0	0
33.78275	0.01466813	-0.01894634	0	0	0	0
33.79931	0.01466813	-0.01894634	0	0	0	0
33.81588	0.01466813	-0.01894634	0	0	0	0
33.83245	0.01466813	-0.01894634	0	0	0	0
33.84921	0.01466813	-0.01894634	0	0	0	0
33.86558	0.01466813	-0.01894634	0	0	0	0
33.88215	0.01466813	-0.01894634	0	0	0	0
33.89872	0.01466813	-0.01894634	0	0	0	0
33.91528	0.01466813	-0.01894634	0	0	0	0
33.93185	0.01466813	-0.01894634	0	0	0	0
33.94842	0.01466813	-0.01894634	0	0	0	0
33.96498	0.01466813	-0.01894634	0	0	0	0
33.98155	0.01466813	-0.01894634	0	0	0	0
33.9983	0.01466813	-0.01894634	0	0	0	0
34.01469	0.01466813	-0.01894634	0	0	0	0
34.03168	0.01466813	-0.01894634	0	0	0	0
34.04782	0.01466813	-0.01894634	0	0	0	0
34.06438	0.01466813	-0.01527931	0	0.2213425	0	6.76897
34.08138	0.01466813	-0.01527931	0	0	0	-6.595841
34.09752	0.01466813	-0.01527931	0	0	0	0
34.11414	0.01466813	-0.01527931	0	0	0	0
34.13138	0.01466813	-0.01527931	0	0	0	0
34.14744	0.01466813	-0.01527931	0	0	0	0
34.16392	0.01466813	-0.01405696	5.650096E-08	0.0741566	1.736388E-06	2.278981
34.18093	0.01466813	-0.01283462	0	0.07186145	-1.686946E-06	-0.06852622
34.19691	0.01466813	-0.01283462	0	0	0	-2.178061
34.21348	0.01466813	-0.01283462	0	0	0	0
34.23005	0.01466813	-0.01283462	0	0	0	0
34.24697	0.01466813	-0.01283462	0	0	0	0
34.26318	0.01466813	-0.01283462	0	0	0	0
34.27975	0.01466813	-0.01161227	-1.124295E-07	0.07378095	-3.430251E-06	2.251075
34.29699	0.01222344	-0.01038993	-0.1418147	0.07090732	-4.194972	-0.08500391
34.31288	0.007334067	-0.006722894	-0.3076622	0.2307467	-5.005865	4.824519
34.32944	0.004889378	-0.004278206	-0.1475617	0.1475617	4.932353	-2.562753
34.34601	0	-0.0006111722	-0.2951235	0.2213426	-4.453423	2.226712
34.36258	-0.003667033	0.003055861	-0.2213426	0.2213426	2.226712	0
34.37915	-0.009778756	0.01161227	-0.3689043	0.516466	-4.453422	8.906843
34.39571	-0.01955751	0.02383572	-0.590247	0.7378086	-6.680135	6.680134
34.41228	-0.02811392	0.03361447	-0.5164658	0.5902467	2.226719	-4.453429
34.42914	-0.03422565	0.04094854	-0.3625598	0.4350717	4.604604	-4.642568
34.44542	-0.03667033	0.04339323	-0.1501899	0.1501899	6.409337	-8.597751
34.46198	-0.03789268	0.04339323	-0.07378095	0	2.326382	-4.572751
34.47869	-0.03789268	0.04339323	0	0	2.217523	0
34.49512	-0.03789268	0.04339323	0	0	0	0
34.51168	-0.03789268	0.04339323	0	0	0	0
34.52855	-0.03911502	0.04339323	-0.07247901	2.208918E-07	-2.167953	6.607194E-06
34.54484	-0.0440044	0.03850385	-0.3000987	-0.3000987	-6.864834	-9.050752
34.56188	-0.05256081	0.02994744	-0.5021293	-0.5021294	-6.06101	-6.061014
34.58093	-0.06967364	0.02139103	-0.8982826	-0.4491412	-10.97656	1.46819
34.59791	-0.1075663	0.01527931	-2.232211	-0.3600341	-37.02682	2.473412
34.61407	-0.1210121	0.01405696	-0.8320903	-0.07564458	42.25573	8.582892
34.63129	-0.1466813	0.01405696	-1.490703	0	-19.73159	2.26626
34.64734	-0.1686835	0.01405696	-1.370335	-5.800442E-08	3.61729	-1.743152E-06
34.66376	-0.1821293	0.01405696	-0.8187536	5.671095E-08	16.98307	3.532058E-06
34.68033	-0.1894634	0.01405696	-0.4426852	-5.621474E-08	11.39964	-3.42308E-06
34.6969	-0.1955751	0.01650165	-0.3689045	0.1475617	2.226707	4.453424
34.71347	-0.2053539	0.01772399	-0.5901108	0.07376385	-6.675251	-2.226968
34.73003	-0.2212444	0.02261337	-0.9593721	0.2951914	-11.14433	6.682698
34.7466	-0.2456912	0.03116979	-1.475617	0.5164662	-15.5821	6.678854
34.76317	-0.2713605	0.03605916	-1.549397	0.2951231	-2.226679	-6.680147
34.77974	-0.2958074	0.03850385	-1.475618	0.1475617	2.226651	-4.453413
34.7963	-0.3165872	0.03850385	-1.254274	2.24859E-07	6.680175	-4.453413
34.81287	-0.3312553	0.03850385	-0.8853705	0	11.13353	-6.786257E-06
34.82961	-0.3422565	0.03972619	-0.6573684	0.07304073	6.846437	2.193263
34.84645	-0.3508129	0.0397262	-0.5080443	2.21192E-07	4.447217	-2.175316
34.86258	-0.3605916	0.04094854	-0.6061569	0.07576961	-2.975431	2.297836
34.87914	-0.3667034	0.04217089	-0.3691604	0.07383195	7.250228	-0.05927708
34.8957	-0.3740374	0.04339323	-0.4426844	0.07378072	-2.219723	-0.001546665
34.91227	-0.3752598	0.04339323	-0.07378072	0	11.13353	-2.226707
34.92884	-0.3764821	0.04339323	-0.07378072	0	0	0
34.94574	-0.3764821	0.04339323	0	0	2.204122	0
34.96197	-0.3764821	0.04339323	0	0	0	0
34.97854	-0.3764821	0.04339323	0	0	0	0
34.99531	-0.3764821	0.04339323	0	0	0	0
35.01167	-0.3764821	0.04339323	0	0	0	0
35.02834	-0.3764821	0.04339323	0	0	0	0
35.04481	-0.3728151	0.04339323	0.2226237	2.261608E-07	6.718796	6.825548E-06
35.0623	-0.3642586	0.04339323	0.4891007	-2.129443E-07	7.845389	-1.292776E-05
35.07794	-0.3447011	0.04217089	1.250459	-0.07815358	22.97784	-2.358673
35.09451	-0.3251437	0.04094854	1.180492	-0.07378095	-2.172402	0.1357645
35.11108	-0.3165872	0.04094854	0.5164686	0	-20.04025	2.226713
35.12788	-0.3153649	0.04094854	0.07272398	2.216438E-07	-13.2958	6.641055E-06
35.14445	-0.3153649	0.04094854	0	0	-2.178761	-6.640296E-06
35.16078	-0.3153649	0.04094854	0	0	0	0
35.17735	-0.3153649	0.04094854	0	0	0	0
35.19391	-0.3153649	0.04094854	0	0	0	0
35.21048	-0.3202543	0.04094854	-0.2951229	-2.24859E-07	-8.906827	-6.786257E-06
35.22705	-0.3275883	0.04094854	-0.4426844	0	-4.453413	6.786257E-06
35.24361	-0.3349224	0.03972619	-0.4426844	-0.07378095	0	-2.226713
35.26018	-0.3422565	0.03972619	-0.4426861	0	-5.396615E-05	2.226713
35.27675	-0.3508129	0.0397262	-0.5164669	2.24859E-07	-2.226707	6.786257E-06
35.29332	-0.3557023	0.0397262	-0.2951229	0	6.680174	-6.786257E-06
35.30988	-0.3593693	0.0397262	-0.221344	0	2.226652	0
35.32645	-0.3605917	0.03972619	-0.07378072	-2.24859E-07	4.453468	-6.786257E-06
35.35083	-0.3605917	0.03972619	0	0	1.801861	5.491469E-06
35.3674	-0.3605917	0.03972619	0	0	0	0
35.38396	-0.3605917	0.03972619	0	0	0	0
35.40053	-0.3605917	0.03972619	0	0	0	0
35.42537	-0.3605917	0.03972619	0	0	0	0
35.44194	-0.3605917	0.03972619	0	0	0	0
35.45851	-0.3605917	0.03972619	0	0	0	0
35.47507	-0.358147	0.0397262	0.1475614	2.24859E-07	4.453413	6.786257E-06
35.49164	-0.3532576	0.03972619	0.2951247	-2.24859E-07	4.453468	-1.357251E-05
35.50821	-0.3471458	0.0397262	0.3689054	2.24859E-07	2.226707	1.357251E-05
35.52478	-0.3385894	0.03850385	0.5164651	-0.07378118	4.453359	-2.226727
35.54134	-0.3312554	0.03728151	0.4426844	-0.0737805	-2.226707	2.046217E-05
35.55791	-0.3214766	0.03728151	0.5902494	-2.24859E-07	4.453523	2.226693
35.57534	-0.3092532	0.03605916	0.7011591	-0.07011591	3.26201	-2.062202
35.59104	-0.2835839	0.03483682	1.635246	-0.07786893	28.19406	-0.2340136
35.60761	-0.251803	0.03239213	1.918302	-0.1475619	8.772929	-2.160037
35.62836	-0.2151326	0.0287251	1.766754	-0.1766752	-4.060469	-0.7800355
35.64493	-0.1662388	0.02261337	2.951234	-0.3689045	31.73595	-5.150427
35.66234	-0.1381249	0.02261337	1.614788	1.069854E-07	-39.33325	10.85732
35.67807	-0.1222344	0.02261337	1.010576	0	-18.23516	-3.228825E-06
35.69463	-0.1112334	0.02261337	0.664027	0	-10.73194	0
35.7112	-0.1051216	0.02261337	0.3689045	1.124295E-07	-8.906813	3.393129E-06
35.72777	-0.1002323	0.02261337	0.2951233	-1.124295E-07	-2.226721	-6.786257E-06
35.74434	-0.08923115	0.02139103	0.6640279	-0.07378083	11.13356	-2.226707
35.76137	-0.08556411	0.02139103	0.2152947	0	-13.35521	2.195868
35.77747	-0.06967364	0.01894634	0.9866399	-0.1517908	23.27656	-4.580528
35.79404	-0.06111722	0.01772399	0.5165852	-0.07379783	-14.38837	2.387365
35.81086	-0.0550055	0.01650165	0.3632171	-0.07264343	-4.593229	0.03457319
35.8274	-0.04889378	0.01527931	0.3695853	-0.07391705	0.1908756	-0.03817437
35.84374	-0.04522675	0.01405696	0.2244432	-0.07481436	-4.414962	-0.02729457
35.86052	-0.03911502	0.01405696	0.3641253	0	4.217072	2.258682
35.87708	-0.02933627	0.01405696	0.5906548	0	6.794433	0
35.89363	-0.01344579	0.01405696	0.9598143	-5.62536E-08	11.14896	-1.698911E-06
35.91001	0.008556411	0.02016868	1.343836	0.3732878	11.6623	11.33633
35.92657	0.03422565	0.0287251	1.549398	0.5164661	6.240522	4.346652
35.94314	0.05867254	0.04094854	1.475617	0.7378088	-2.226715	6.680137
35.95971	0.07089598	0.04950495	0.7376385	0.5163469	-22.26968	-6.682966
35.97628	0.07578535	0.05194964	0.2951913	0.1475959	-13.35308	-11.12893
35.99284	0.0770077	0.05317199	0.07378118	0.07378095	-6.68294	-2.227996
36.00941	0.08067474	0.05317198	0.2213426	-2.24859E-07	4.453413	-2.22672
36.02598	0.08923115	0.06295074	0.516466	0.5902467	8.90684	17.81369
36.04255	0.1320132	0.1032881	2.582331	2.434769	62.34792	55.6678
36.05911	0.1711282	0.1350691	2.360987	1.918301	-6.680175	-15.58704
36.07579	0.2114656	0.1692947	2.418619	2.052162	1.733563	4.026477
36.09232	0.2676935	0.2218555	3.401752	3.179899	29.60626	33.96088
36.10881	0.3373671	0.2878621	4.223988	4.001673	24.89825	24.88429
36.12538	0.3809697	0.3238242	2.631861	2.170677	-48.15583	-55.38072
36.14195	0.3850473	0.3189649	0.2461252	-0.2933096	-72.00165	-74.36327
36.15852	0.3892449	0.3138287	0.2533639	-0.310023	0.2184626	-0.504409
36.17508	0.3924772	0.3097767	0.1951056	-0.2445782	-1.758237	1.975127
36.19165	0.3952407	0.3062431	0.1668004	-0.2132904	-0.8542541	0.9442669
36.20822	0.3970639	0.3038754	0.1100532	-0.1429096	-1.712634	2.124098
36.22533	0.3991469	0.3011341	0.1216918	-0.1601554	0.3455271	-0.5119917
36.24135	0.402297	0.2969127	0.1966651	-0.2635468	2.262698	-3.120358
36.25797	0.4053169	0.2927768	0.1817792	-0.2489559	-0.4561906	0.4471473
36.27448	0.4086136	0.2881578	0.199585	-0.2796406	0.5374424	-0.9261712
36.29105	0.4109593	0.2848024	0.1415874	-0.2025296	-1.752996	2.330703
36.30762	0.4121682	0.2830501	0.07296584	-0.1057665	-2.071002	2.920317
36.32418	0.4121682	0.2830501	0	0	-2.202113	3.192038
36.34075	0.4121682	0.2830501	0	0	0	0
36.35734	0.4124371	0.2826581	0.01621615	-0.02363874	0.4891227	-0.7130082
36.37389	0.4129718	0.2818763	0.03230331	-0.0472297	0.4854557	-0.7118947
36.39045	0.414028	0.2803228	0.06378139	-0.09381659	0.950667	-1.406967
36.40702	0.4150668	0.2787824	0.06269968	-0.09297649	-0.03265367	0.02536004
36.42404	0.4168439	0.276118	0.1044077	-0.1565319	1.241739	-1.892183
36.44015	0.4207197	0.2701759	0.2405322	-0.3687744	4.108244	-6.405492
36.45672	0.4256551	0.2623314	0.2979003	-0.4734954	1.755425	-3.204387
36.47357	0.4305685	0.2541865	0.2916059	-0.4833898	-0.1883606	-0.2960911
36.48985	0.4347787	0.2469159	0.2585372	-0.4464581	-0.9980167	1.114602
36.50642	0.4368549	0.2432239	0.1253166	-0.2228541	-4.055153	6.806368
36.52299	0.4376774	0.2417405	0.04964886	-0.08953884	-2.283657	4.023463
36.53955	0.4376774	0.2417405	0	0	-1.498406	2.702288
36.55666	0.4376774	0.2417405	0	0	0	0
36.57269	0.4376774	0.2417405	0	0	0	0
36.58926	0.4376774	0.2417405	0	0	0	0
36.60582	0.4376774	0.2417405	0	0	0	0
36.62239	0.4376774	0.2417405	0	0	0	0
36.63896	0.4376774	0.2417405	0	0	0	0
36.65553	0.4376774	0.2417405	0	0	0	0
36.67704	0.4376774	0.2417405	0	0	0	0
36.69361	0.4376774	0.2417405	0	0	0	0
36.71066	0.4376774	0.2417405	0	0	0	0
36.72674	0.4376774	0.2417405	0	0	0	0
36.74331	0.4376774	0.2417405	0	0	0	0
36.75988	0.4376774	0.2417405	0	0	0	0
36.77644	0.4376774	0.2417405	0	0	0	0
36.79301	0.4376774	0.2417405	0	0	0	0
36.80958	0.4376774	0.2417405	0	0	0	0
36.82615	0.4376774	0.2417405	0	0	0	0
36.84271	0.4376774	0.2417405	0	0	0	0
36.85928	0.4376774	0.2417405	0	0	0	0
36.87585	0.4375072	0.2420485	-0.01027695	0.01859224	-0.3101591	0.5611148
36.89241	0.4373363	0.2423572	-0.01031473	0.01863451	-0.001140091	0.00127585
36.90898	0.4369925	0.2429766	-0.02075358	0.03738685	-0.3150452	0.5659466
36.9257	0.436646	0.2435986	-0.0207246	0.0372034	0.0008705799	-0.005511098
36.94221	0.436784	0.2433511	0.00836499	-0.01499578	0.8755066	-1.571033
36.95868	0.4364349	0.2439767	-0.0211976	0.03797693	-0.8964322	1.606302
36.97525	0.4365733	0.2437288	0.008355759	-0.01495762	0.8944967	-1.602179
36.99181	0.4365733	0.2437288	0	0	-0.2521773	0.4514218
37.00838	0.4365733	0.2437288	0	0	0	0
37.02495	0.4365733	0.2437288	0	0	0	0
37.04152	0.4363977	0.2440431	-0.01059715	0.0189664	-0.3198227	0.5724072
37.05808	0.4362215	0.244358	-0.01063853	0.01900778	-0.00124867	0.001248642
37.07488	0.4362215	0.244358	0	0	0.3188323	-0.5696553
37.09121	0.4362215	0.244358	0	0	0	0
37.10778	0.4362215	0.244358	0	0	0	0
37.12435	0.4360445	0.2446736	-0.0106799	0.01904825	-0.3223201	0.5748774
37.14143	0.4353299	0.2459428	-0.04182365	0.07428765	-0.9254304	1.641428
37.15748	0.4316407	0.2523614	-0.2298791	0.3999491	-5.675526	9.828482
37.1745	0.4272439	0.2597359	-0.2583185	0.4332541	-0.8599851	1.007117
37.19062	0.4211435	0.2695147	-0.3785918	0.6068818	-3.629856	5.240096
37.20758	0.4133627	0.2813027	-0.4585611	0.6947259	-2.417373	2.655419
37.22394	0.3988367	0.3015448	-0.8880379	1.237485	-12.88745	16.28675
37.24031	0.2835839	0.2463024	-7.039337	-3.374055	-187.9401	-140.896
37.25688	0.17724	0.1925192	-6.418934	-3.246359	18.83439	3.876643
37.27345	0.09289819	0.1472925	-5.090879	-2.729891	40.08078	15.58703
37.29002	0.0440044	0.1191786	-2.949877	-1.696179	64.60071	31.19033
37.30658	0.01955751	0.1032881	-1.476297	-0.9595927	44.47272	22.23021
37.32315	0.004889378	0.09106466	-0.8853703	-0.7378091	17.83831	6.694985
37.33972	-0.003667033	0.08128591	-0.516466	-0.5902467	11.13355	4.453442
37.35629	-0.008556412	0.07395184	-0.2951235	-0.4426852	6.68013	4.453413
37.37285	-0.01344579	0.06784012	-0.2951235	-0.3689041	-1.798872E-06	2.22672
37.38942	-0.01833517	0.06050605	-0.2951232	-0.4426855	8.094923E-06	-2.226727
37.40599	-0.02566923	0.04950495	-0.4426852	-0.6640276	-4.45343	-6.680119
37.42281	-0.03544799	0.03239213	-0.5811476	-1.017008	-4.14634	-10.57023
37.43932	-0.04033737	0.02505806	-0.2961462	-0.4442195	8.549193	17.18196
37.45568	-0.04522675	0.017724	-0.2988395	-0.4482586	-0.0819356	-0.1228758
37.47225	-0.05133847	0.009167584	-0.3689041	-0.5164661	-2.127781	-2.071384
37.48882	-0.05622784	-0.0006111723	-0.2951233	-0.5902469	2.226707	-2.226708
37.50557	-0.06111723	-0.01038993	-0.2919642	-0.5839276	0.09483067	0.18969
37.52195	-0.06356192	-0.017724	-0.1492108	-0.4476326	4.308802	4.113863
37.53852	-0.06356192	-0.02016868	0	-0.1475617	4.528214	9.106483
37.55508	-0.06356192	-0.02139103	0	-0.07378083	0	2.22671
37.57165	-0.06356192	-0.02261337	0	-0.07378095	0	-3.372885E-06
37.58822	-0.06233957	-0.02505806	0.07378118	-0.1475617	2.22672	-2.226707
37.60479	-0.05378316	-0.02628041	0.5164657	-0.07378095	13.36025	2.226707
37.62135	-0.03789268	-0.0287251	0.9591514	-0.1475617	13.36028	-2.226707
37.63792	-0.0110011	-0.0287251	1.623179	1.124295E-07	20.04038	4.453424
37.65453	-0.001222344	-0.02750275	0.5887557	0.07359432	-31.17946	2.218268
37.67849	0.02077986	-0.02383572	0.9182845	0.1530475	8.122613	1.958456
37.69507	0.03178096	-0.02261337	0.6635695	0.07372991	-6.283241	-1.956586
37.7159	0.03422565	-0.02139103	0.1173307	0.05866536	-14.59964	-0.4026389
37.7331	0.03544799	-0.02139103	0.07106469	-1.082904E-07	-1.216364	-1.542353
37.74904	0.03544799	-0.02139103	0	0	-2.144737	3.26821E-06
37.76576	0.03544799	-0.02139103	0	0	0	0
37.78217	0.03544799	-0.02139103	0	0	0	0
37.79874	0.03544799	-0.02139103	0	0	0	0
37.81531	0.03544799	-0.02139103	0	0	0	0
37.83227	0.03544799	-0.02139103	0	0	0	0
37.8485	0.03544799	-0.02139103	0	0	0	0
37.86501	0.03544799	-0.02139103	0	0	0	0
37.88158	0.03544799	-0.02139103	0	0	0	0
37.90465	0.03544799	-0.02139103	0	0	0	0
37.92122	0.03544799	-0.02139103	0	0	0	0
37.93779	0.03544799	-0.02139103	0	0	0	0
37.95435	0.03544799	-0.02139103	0	0	0	0
37.97093	0.03544799	-0.02139103	0	0	0	0
37.9941	0.03544799	-0.02139103	0	0	0	0
38.01138	0.03544799	-0.02139103	0	0	0	0
38.02723	0.03544799	-0.02139103	0	0	0	0
38.0438	0.03544799	-0.02139103	0	0	0	0
38.06037	0.03544799	-0.02139103	0	0	0	0
38.07693	0.03544799	-0.02139103	0	0	0	0
38.0935	0.03544799	-0.02139103	0	0	0	0
38.11007	0.03544799	-0.02139103	0	0	0	0
38.12664	0.03544799	-0.02139103	0	0	0	0
38.1432	0.03544799	-0.02139103	0	0	0	0
38.16011	0.03544799	-0.02139103	0	0	0	0
38.17634	0.03544799	-0.02139103	0	0	0	0
38.19291	0.03544799	-0.02139103	0	0	0	0
38.20947	0.03544799	-0.02139103	0	0	0	0
38.22629	0.03544799	-0.02139103	0	0	0	0
38.24285	0.03544799	-0.02139103	0	0	0	0
38.25938	0.03544799	-0.02139103	0	0	0	0
38.27597	0.03544799	-0.02139103	0	0	0	0
38.2923	0.03544799	-0.02139103	0	0	0	0
38.30887	0.03544799	-0.02139103	0	0	0	0
38.32544	0.03544799	-0.02139103	0	0	0	0
38.34201	0.03544799	-0.02139103	0	0	0	0
38.35857	0.03544799	-0.02139103	0	0	0	0
38.37514	0.03544799	-0.02139103	0	0	0	0
38.39171	0.03544799	-0.02139103	0	0	0	0
38.40828	0.03544799	-0.02139103	0	0	0	0
38.42484	0.03544799	-0.02139103	0	0	0	0
38.44145	0.03544799	-0.02139103	0	0	0	0
38.45847	0.03544799	-0.02139103	0	0	0	0
38.47454	0.03544799	-0.02139103	0	0	0	0
38.49146	0.03544799	-0.02139103	0	0	0	0
38.50768	0.03544799	-0.02139103	0	0	0	0
38.52425	0.03544799	-0.02139103	0	0	0	0
38.59769	0.03544799	-0.02139103	0	0	0	0
38.62091	0.03544799	-0.02139103	0	0	0	0
38.63811	0.03544799	-0.02139103	0	0	0	0
38.65467	0.03544799	-0.02139103	0	0	0	0
38.67124	0.03544799	-0.02139103	0	0	0	0
38.68781	0.03544799	-0.02139103	0	0	0	0
38.70449	0.03544799	-0.02139103	0	0	0	0
38.72156	0.03544799	-0.02139103	0	0	0	0
38.73751	0.03544799	-0.02139103	0	0	0	0
38.75407	0.03544799	-0.02139103	0	0	0	0
38.77064	0.03544799	-0.02139103	0	0	0	0
38.78762	0.03544799	-0.02139103	0	0	0	0
38.80378	0.03422565	-0.02261337	-0.07566249	-0.07566226	-2.283499	-2.283492
38.82562	0.03422565	-0.02261337	0	0	1.991213	1.991207
38.84219	0.03422565	-0.02261337	0	0	0	0
38.85875	0.03422565	-0.02261337	0	0	0	0
38.87532	0.03422565	-0.02261337	0	0	0	0
38.89203	0.03422565	-0.02261337	0	0	0	0
38.90855	0.03422565	-0.02261337	0	0	0	0
38.92502	0.03422565	-0.02261337	0	0	0	0
38.94159	0.03422565	-0.02261337	0	0	0	0
38.95816	0.03422565	-0.02261337	0	0	0	0
38.97472	0.03422565	-0.02261337	0	0	0	0
38.99142	0.03422565	-0.02261337	0	0	0	0
39.00786	0.03422565	-0.02261337	0	0	0	0
39.02443	0.03422565	-0.02261337	0	0	0	0
39.04099	0.03422565	-0.02261337	0	0	0	0
39.05756	0.03422565	-0.02261337	0	0	0	0
39.07413	0.03422565	-0.02261337	0	0	0	0
39.0909	0.03422565	-0.02261337	0	0	0	0
39.10726	0.03422565	-0.02261337	0	0	0	0
39.12383	0.03422565	-0.02261337	0	0	0	0
39.1404	0.03422565	-0.02261337	0	0	0	0
39.15696	0.03422565	-0.02261337	0	0	0	0
39.17354	0.03422565	-0.02261337	0	0	0	0
39.19024	0.03422565	-0.02261337	0	0	0	0
39.20667	0.03422565	-0.02261337	0	0	0	0
39.22323	0.03422565	-0.02261337	0	0	0	0
39.2398	0.03422565	-0.02261337	0	0	0	0
39.25665	0.03422565	-0.02261337	0	0	0	0
39.27293	0.03422565	-0.02261337	0	0	0	0
39.2895	0.03422565	-0.02261337	0	0	0	0
39.30627	0.03422565	-0.02261337	0	0	0	0
39.32263	0.03422565	-0.02261337	0	0	0	0
39.3392	0.03422565	-0.02261337	0	0	0	0
39.35577	0.03422565	-0.02261337	0	0	0	0
39.37233	0.03422565	-0.02261337	0	0	0	0
39.38944	0.03422565	-0.02261337	0	0	0	0
39.40547	0.03911503	-0.02016868	0.3050266	0.1525132	9.204661	4.602327
39.42244	0.0550055	-0.004278206	0.9367198	0.93672	19.1461	23.76865
39.4386	0.06722895	0.01038993	0.7560887	0.9073062	-5.452085	-0.8878112
39.45558	0.08067474	0.0287251	0.7920747	1.080102	1.08581	5.21379
39.47211	0.09656522	0.04706027	0.961143	1.109011	5.045566	0.8627476
39.48862	0.1197898	0.06661777	1.406695	1.184585	13.48403	2.287131
39.50487	0.149126	0.08373059	1.805665	1.053304	12.17977	-4.007726
39.52143	0.1760176	0.09717639	1.623179	0.8115898	-5.561225	-7.366199
39.538	0.2016868	0.1081775	1.549399	0.6640279	-2.226679	-4.453427
39.55457	0.2273561	0.1155116	1.549398	0.4426852	-2.51842E-05	-6.680134
39.57114	0.2456912	0.1228456	1.106713	0.4426848	-13.36027	-1.349154E-05
39.5877	0.2652487	0.1289573	1.180493	0.3689036	2.226705	-2.22672
39.60427	0.2713605	0.131402	0.3689904	0.1475963	-24.49403	-6.679837
39.62083	0.2896957	0.1362914	1.106713	0.2951238	22.26707	4.4529
39.6374	0.2994744	0.1387361	0.5902458	0.1475614	-15.587	-4.45344
39.65397	0.3055861	0.1399584	0.3689036	0.07378072	-6.680119	-2.226707
39.70796	0.3092532	0.1411808	0.06791753	0.02263881	-4.265649	-0.7247958
39.72454	0.3153649	0.1436255	0.3687338	0.1474944	4.262781	1.769293
39.7411	0.3178096	0.1448478	0.1475954	0.07379772	-6.673202	-2.223915
39.75767	0.3178096	0.1448478	0	0	-4.454952	-2.227476
39.78441	0.3178096	0.1448478	0	0	0	0
39.80098	0.3178096	0.1448478	0	0	0	0
39.81755	0.3178096	0.1448478	0	0	0	0
39.83411	0.3178096	0.1448478	0	0	0	0
39.85931	0.3178096	0.1448478	0	0	0	0
39.87587	0.3178096	0.1448478	0	0	0	0
39.89244	0.3178096	0.1448478	0	0	0	0
39.91399	0.3178096	0.1448478	0	0	0	0
39.93055	0.3165872	0.1448478	-0.07378253	0	-1.935907	0
39.94712	0.3141426	0.1436255	-0.1475597	-0.07378072	-2.226598	-2.226707
39.96376	0.3116978	0.1436255	-0.1468868	-8.953128E-07	0.02025947	2.221564
39.98026	0.3092532	0.1424031	-0.1482441	-0.07412116	-0.04096346	-2.236954
39.99682	0.3043638	0.1411808	-0.2951247	-0.07378162	-4.443095	0.01027092
40.01339	0.2994744	0.1387361	-0.2951229	-0.1475614	5.486559E-05	-2.226679
40.03	0.2933627	0.1362914	-0.3678871	-0.1471549	-2.193	0.01225407
40.04652	0.2884733	0.1350691	-0.2960089	-0.07400224	2.169538	2.208004
40.06309	0.2848063	0.1326244	-0.2213422	-0.1475614	2.256825	-2.223349
40.07965	0.2835839	0.1326244	-0.07378253	-8.994359E-07	4.453359	4.453386
40.09622	0.2835839	0.1326244	0	0	2.226761	2.714503E-05
40.11279	0.2835839	0.1326244	0	0	0	0
40.12991	0.2823616	0.1326244	-0.07138108	0	-2.118673	0
40.14592	0.2811392	0.131402	-0.07634731	-0.07634731	-0.1498811	-2.304167
40.16249	0.2774722	0.1301797	-0.2213422	-0.07378072	-4.450765	0.07878412
40.17906	0.2738052	0.127735	-0.2213422	-0.1475624	0	-2.226734
40.19563	0.2676934	0.1252903	-0.3689054	-0.1475606	-4.453468	5.441587E-05
40.21219	0.2640264	0.124068	-0.2213404	-0.07378118	4.453522	2.226666
40.22876	0.2615817	0.1228456	-0.1475632	-0.07378118	2.226598	0
40.24534	0.2603594	0.1228456	-0.0737298	4.494075E-07	2.227529	2.225965
40.26189	0.259137	0.1228456	-0.07384874	-9.00265E-07	-0.003590062	-4.073789E-05
40.27847	0.259137	0.1216233	0	-0.07374586	2.229273	-2.22614
40.29502	0.2579147	0.1216233	-0.07383172	-4.500288E-07	-2.228502	2.225897
40.31197	0.25547	0.1204009	-0.1442402	-0.07212012	-2.101465	-2.152538
40.32816	0.2530253	0.1191786	-0.151041	-0.07552007	-0.205249	-0.1026108
40.34472	0.2493583	0.1179562	-0.2213422	-0.07378118	-2.146403	0.05309106
40.36129	0.2456913	0.1155116	-0.2213413	-0.147561	2.698308E-05	-2.226679
40.37786	0.2432466	0.1142892	-0.1475624	-0.07378118	2.226652	2.226679
40.39442	0.2395795	0.1130669	-0.2213431	-0.07378072	-2.226707	1.37164E-05
