Time	Pos X	Pos Y	Vel X	Vel Y	Acc X	Acc Y
0.0157476	0.02322455	-0.02628041	1.4748	-1.668852	93.65237	-105.975
0.03231352	0.02322455	-0.02628041	0	0	-45.64033	51.64563
0.04888063	0.02322455	-0.02628041	0	0	0	0
0.06544656	0.02322455	-0.02628041	0	0	0	0
0.08201367	0.02322455	-0.02628041	0	0	0	0
0.09857999	0.02322455	-0.02628041	0	0	0	0
0.1151463	0.02444689	-0.02628041	0.07378478	0	2.226951	0
0.1318741	0.02566923	-0.02994744	0.07307272	-0.2192183	-0.02138673	-6.584299
0.1482793	0.03178096	-0.0397262	0.3725468	-0.5960746	9.038534	-11.37404
0.1648772	0.04644909	-0.06539543	0.8837342	-1.546535	15.48905	-28.79909
0.1816413	0.08067474	-0.131402	2.041605	-3.937381	34.70629	-71.66376
0.1980146	0.09412054	-0.1570713	0.8212034	-1.56775	-36.82855	71.50928
0.2155315	0.1075663	-0.1888522	0.7675887	-1.814303	-1.58201	-7.275051
0.2311473	0.1173451	-0.2071874	0.6262115	-1.174147	-4.267007	19.32101
0.2477282	0.1185674	-0.2108544	0.07371979	-0.2211585	-17.1599	29.59897
0.2642787	0.1197898	-0.2194108	0.07385519	-0.5169882	0.004086733	-8.928968
0.2808478	0.1234568	-0.2353013	0.2213184	-0.9590443	4.452445	-13.34726
0.2974145	0.1234568	-0.2389683	-4.497317E-07	-0.2213489	-6.679145	22.26279
0.3139816	0.1246791	-0.2438577	0.07378171	-0.2951259	2.226792	-2.226636
0.3307765	0.1246791	-0.2450801	4.436219E-07	-0.07278149	-2.211536	6.664601
0.3471151	0.1246791	-0.2450801	0	0	-1.338894E-05	2.196617
0.3636818	0.1246791	-0.2450801	0	0	0	0
0.380335	0.1246791	-0.2450801	0	0	0	0
0.3968144	0.1246791	-0.2450801	0	0	0	0
0.4133819	0.1185674	-0.241413	-0.368899	0.2213395	-11.16287	6.697726
0.4299447	0.1002322	-0.2243002	-1.107012	1.033212	-22.27911	24.50546
0.4465134	0.03178096	-0.1790735	-4.131363	2.729651	-91.2834	51.20329
0.4630809	0	-0.1656277	-1.918271	0.8115766	66.78776	-57.88457
0.4796476	-0.06356192	-0.1460702	-3.836722	1.180529	-57.89937	11.1351
0.4962135	-0.1197898	-0.131402	-3.394188	0.8854406	13.35644	-8.906289
0.5127802	-0.1699059	-0.1228456	-3.025108	0.5164818	11.13946	-11.13581
0.5293474	-0.2371348	-0.1167339	-4.057976	0.3689067	-31.17261	-4.453907
0.5459145	-0.2774722	-0.1167339	-2.434786	0	48.98833	-11.13371
0.5624812	-0.3153649	-0.1167339	-2.28728	4.497325E-07	4.451821	1.357322E-05
0.5790491	-0.3398118	-0.1167339	-1.47556	-8.994003E-07	24.49768	-4.071676E-05
0.5956122	-0.3508129	-0.1179562	-0.6641908	-0.07379833	24.48967	-2.227439
0.6121809	-0.3557023	-0.1179562	-0.2950974	0	11.14014	2.227414
0.6295801	-0.3557023	-0.1179562	0	0	8.687534	0
0.6453155	-0.3557023	-0.1179562	0	0	0	0
0.6618819	-0.3557023	-0.1179562	0	0	0	0
0.6784474	-0.3557023	-0.1179562	0	0	0	0
0.6954076	-0.3557023	-0.1179562	0	0	0	0
0.7115812	-0.3520352	-0.1179562	0.2267318	0	6.842916	0
0.728397	-0.3361447	-0.1118445	0.9449742	0.3634518	21.77196	11.01726
0.7447134	-0.2970297	-0.09839873	2.397278	0.8240651	43.83361	13.90229
0.7612801	-0.216355	-0.06784012	4.869696	1.844581	75.18809	31.03465
0.7780461	-0.01466813	0.01161227	12.02946	4.73888	214.7967	86.83044
0.7944135	0.1393473	0.04706026	9.409903	2.165771	-79.06091	-77.65894
0.8112842	0.2432465	0.0617284	6.158571	0.8694454	-97.81955	-39.00126
0.8275453	0.3031414	0.0727295	3.683311	0.6765263	-74.70943	-5.82277
0.8441136	0.3349224	0.0837306	1.918178	0.6639849	-53.76671	-0.382017
0.8606796	0.3361447	0.0837306	0.07378656	0	-55.66425	-20.03925
0.8772475	0.3373671	0.08495294	0.0737778	0.0737778	-0.0002644394	2.226663
0.8938141	0.3385894	0.08617529	0.07378311	0.07378311	0.0001603239	0.0001603239
0.9103808	0.3410341	0.08861998	0.1475662	0.1475667	2.226851	2.226864
0.9269468	0.3434788	0.09106466	0.1475731	0.1475731	0.000208231	0.0001947387
0.9440492	0.3495905	0.09595405	0.3573612	0.2858884	6.231019	4.108171
0.9600798	0.3520352	0.09839873	0.152501	0.152501	-6.182958	-4.025814
0.9766477	0.3569246	0.1020658	0.295113	0.2213343	4.374803	2.111548
0.9935815	0.3630363	0.1045105	0.3609149	0.1443671	1.964132	-2.297409
1.009786	0.3715927	0.1081775	0.5280207	0.2262934	5.042639	2.472233
1.026349	0.3874832	0.1142892	0.9594343	0.3690134	13.16607	4.355596
1.042917	0.4168195	0.1216233	1.770625	0.4426561	24.48459	2.222798
1.059487	0.4253759	0.1252903	0.516374	0.2213028	-37.84872	-6.679639
1.076051	0.4265983	0.1265127	0.07379739	0.0737965	-13.35713	-4.451797
1.092612	0.4265983	0.1265127	0	0	-2.227843	-2.227816
1.109509	0.4265983	0.1265127	0	0	0	0
1.125966	0.4265983	0.1265127	0	0	0	0
1.142315	0.4265983	0.1265127	0	0	0	0
1.160555	0.4265983	0.1265127	0	0	0	0
1.177124	0.4265983	0.1265127	0	0	0	0
1.193692	0.4265983	0.1265127	0	0	0	0
1.210377	0.4265983	0.1265127	0	0	0	0
1.226884	0.4265983	0.1265127	0	0	0	0
1.24386	0.4265983	0.1265127	0	0	0	0
1.26043	0.4265983	0.1265127	0	0	0	0
1.276998	0.4265983	0.1265127	0	0	0	0
1.293564	0.4265983	0.1265127	0	0	0	0
1.310131	0.4265983	0.1265127	0	0	0	0
1.326697	0.4265983	0.1265127	0	0	0	0
1.343264	0.4265983	0.1265127	0	0	0	0
1.359994	0.4143748	0.124068	-0.7306243	-0.1461246	-21.943	-4.388591
1.376398	0.3935949	0.1204009	-1.266782	-0.2235495	-16.18156	-2.336732
1.392967	0.3630363	0.1130669	-1.844266	-0.4426247	-17.51376	-6.644044
1.409536	0.3178096	0.09962107	-2.729656	-0.8115197	-26.71816	-11.13203
1.426102	0.2383572	0.07639654	-4.796136	-1.401947	-62.36625	-17.81905
1.442876	0.1870187	0.06050605	-3.06061	-0.9473321	52.0556	13.63577
1.45923	0.1479037	0.04950495	-2.391672	-0.6726573	20.19215	8.291162
1.475801	0.1271238	0.04339323	-1.253985	-0.3688194	34.55311	9.22798
1.492622	0.1173451	0.04094854	-0.5813575	-0.1453394	20.14363	6.692703
1.508937	0.1124557	0.0397262	-0.2996828	-0.07492059	8.500623	2.125159
1.525837	0.1087887	0.03850385	-0.2169846	-0.0723284	2.489774	0.07804217
1.542064	0.106344	0.03605916	-0.1506535	-0.1506535	2.002313	-2.364376
1.558631	0.1014546	0.03361448	-0.2951255	-0.1475625	-4.40539	0.09425516
1.575196	0.09656522	0.03116979	-0.295168	-0.1475841	-0.001281798	-0.0006512431
1.59244	0.09534287	0.02994744	-0.07088657	-0.07088635	6.633882	2.268595
1.608332	0.09534287	0.02994744	0	0	2.139246	2.139239
1.624898	0.09534287	0.02994744	0	0	0	0
1.641464	0.09534287	0.02994744	0	0	0	0
1.658031	0.09534287	0.02994744	0	0	0	0
1.674595	0.09534287	0.02994744	0	0	0	0
1.691439	0.09534287	0.02994744	0	0	0	0
1.707729	0.09534287	0.02994744	0	0	0	0
1.724296	0.09534287	0.02994744	0	0	0	0
1.741418	0.09534287	0.02994744	0	0	0	0
1.757431	0.09534287	0.02994744	0	0	0	0
1.773995	0.09534287	0.0287251	0	-0.07379518	0	-2.265235
1.790648	0.09289818	0.0287251	-0.1467999	0	-4.419394	2.221596
1.807131	0.09167583	0.02750275	-0.07416004	-0.0741597	2.192188	-2.238056
1.823697	0.09045349	0.0262804	-0.07378497	-0.07378519	0.01134894	0.01133203
1.840264	0.08923114	0.02628041	-0.07378011	1.124279E-07	0.0001466112	2.226893
1.856831	0.08800881	0.02505806	-0.0737824	-0.07378296	-6.90322E-05	-2.226794
1.873582	0.08678646	0.02505806	-0.07297308	-1.111981E-07	0.02429116	2.214541
1.889965	0.08678646	0.02505806	0	0	2.202395	3.356062E-06
1.906531	0.08434177	0.02383572	-0.1475657	-0.07378296	-4.478532	-2.239269
1.923098	0.08189708	0.02261337	-0.1475704	-0.07378508	-0.0001416673	-6.408757E-05
1.939816	0.08067473	0.02139103	-0.07311618	-0.07311584	2.236924	0.02010687
1.95635	0.07823005	0.02139103	-0.1478519	1.126508E-07	-2.247515	2.198804
1.973494	0.07578536	0.02016868	-0.1426014	-0.07130089	0.155903	-2.117128
1.989364	0.07456302	0.02016868	-0.07702058	0	1.986464	2.159729
2.005931	0.07456302	0.02016868	0	0	2.374443	0
2.022496	0.07456302	0.02016868	0	0	0	0
2.039064	0.07456302	0.02016868	0	0	0	0
2.055631	0.07456302	0.02016868	0	0	0	0
2.07228	0.07211832	0.02016868	-0.1468354	0	-4.420624	0
2.088964	0.07089598	0.01894634	-0.07326829	-0.0732684	2.20708	-2.198117
2.105377	0.07089598	0.01894634	0	0	2.213742	2.213746
2.121897	0.06967364	0.01894634	-0.07399156	-1.127508E-07	-2.246665	-3.423542E-06
2.139274	0.06845129	0.01894634	-0.07034487	0	0.1075832	3.32633E-06
2.155076	0.06722895	0.01772399	-0.07735527	-0.07735538	-0.2112958	-2.33152
2.171737	0.06722895	0.01772399	0	0	2.382887	2.382891
2.188375	0.06722895	0.01772399	0	0	0	0
2.204729	0.06722895	0.01772399	0	0	0	0
2.221298	0.06722895	0.01772399	0	0	0	0
2.238087	0.06722895	0.01772399	0	0	0	0
2.254715	0.06722895	0.01772399	0	0	0	0
2.27146	0.06722895	0.01772399	0	0	0	0
2.287565	0.06722895	0.01772399	0	0	0	0
2.304141	0.06722895	0.01772399	0	0	0	0
2.321362	0.06722895	0.01772399	0	0	0	0
2.337266	0.06722895	0.01772399	0	0	0	0
2.353863	0.06722895	0.01772399	0	0	0	0
2.370397	0.06722895	0.01772399	0	0	0	0
2.386965	0.06722895	0.01772399	0	0	0	0
2.403529	0.0660066	0.017724	-0.07379392	1.124489E-07	-2.227233	3.39391E-06
2.420097	0.0660066	0.017724	0	0	2.227233	-3.39391E-06
2.436664	0.0660066	0.017724	0	0	0	0
2.453255	0.0660066	0.01650165	0	-0.07367492	0	-2.221931
2.469797	0.0660066	0.01650165	0	0	0	2.22361
2.486362	0.0660066	0.01650165	0	0	0	0
2.502955	0.0660066	0.01650165	0	0	0	0
2.519496	0.0660066	0.01650165	0	0	0	0
2.536165	0.0660066	0.01650165	0	0	0	0
2.552738	0.0660066	0.01650165	0	0	0	0
2.569195	0.0660066	0.01650165	0	0	0	0
2.585763	0.0660066	0.01650165	0	0	0	0
2.602331	0.0660066	0.01650165	0	0	0	0
2.618897	0.0660066	0.01650165	0	0	0	0
2.635464	0.0660066	0.01650165	0	0	0	0
2.65222	0.0660066	0.01650165	0	0	0	0
2.668809	0.0660066	0.01650165	0	0	0	0
2.685164	0.0660066	0.01650165	0	0	0	0
2.702172	0.0660066	0.01650165	0	0	0	0
2.718297	0.0660066	0.01650165	0	0	0	0
2.734864	0.0660066	0.01650165	0	0	0	0
2.751444	0.0660066	0.01650165	0	0	0	0
2.767997	0.0660066	0.01650165	0	0	0	0
2.784564	0.0660066	0.01650165	0	0	0	0
2.80127	0.0660066	0.01650165	0	0	0	0
2.817843	0.0660066	0.01650165	0	0	0	0
2.834265	0.0660066	0.01650165	0	0	0	0
2.85083	0.0660066	0.01650165	0	0	0	0
2.867398	0.0660066	0.01650165	0	0	0	0
2.884051	0.0660066	0.01650165	0	0	0	0
2.900529	0.0660066	0.01650165	0	0	0	0
2.917097	0.0660066	0.01650165	0	0	0	0
2.93382	0.06478426	0.01650165	-0.0730928	1.113812E-07	-2.195565	3.345675E-06
2.950229	0.06478426	0.01650165	0	0	2.206088	-3.361709E-06
2.966868	0.06478426	0.01650165	0	0	0	0
2.983422	0.06478426	0.01650165	0	0	0	0
3.000224	0.06478426	0.01650165	0	0	0	0
3.016497	0.06478426	0.01650165	0	0	0	0
3.033064	0.06478426	0.01650165	0	0	0	0
3.049663	0.06478426	0.01650165	0	0	0	0
3.066194	0.06478426	0.01650165	0	0	0	0
3.082948	0.06478426	0.01650165	0	0	0	0
3.09933	0.06478426	0.01650165	0	0	0	0
3.115897	0.06478426	0.01650165	0	0	0	0
3.132464	0.06478426	0.01650165	0	0	0	0
3.14903	0.06478426	0.01527931	0	-0.0737862	0	-2.226936
3.166065	0.06356192	0.01527931	-0.07175674	-5.467263E-08	-2.135581	2.195979
3.182507	0.06356192	0.01527931	0	0	2.14349	1.63316E-06
3.198731	0.06233957	0.01405696	-0.07534338	-0.0753432	-2.306496	-2.306491
3.215297	0.06233957	0.01405696	0	0	2.297725	2.29772
3.231862	0.06233957	0.01405696	0	0	0	0
3.24843	0.06233957	0.01283462	2.248396E-07	-0.07377452	6.785964E-06	-2.226616
3.265	0.06233957	0.01283462	0	0	-6.784939E-06	2.226279
3.281561	0.06233957	0.01283462	0	0	0	0
3.298131	0.06233957	0.01283462	0	0	0	0
3.314698	0.06233957	0.01283462	0	0	0	0
3.331314	0.06233957	0.01283462	0	0	0	0
3.348653	0.06111723	0.01283462	-0.07049792	0	-2.07621	0
3.364397	0.06111723	0.01283462	0	0	2.130959	0
3.380964	0.06111723	0.01283462	0	0	0	0
3.397531	0.06111723	0.01283462	0	0	0	0
3.414097	0.06111723	0.01283462	0	0	0	0
3.430664	0.06111723	0.01283462	0	0	0	0
3.44773	0.06111723	0.01283462	0	0	0	0
3.463797	0.06111723	0.01283462	0	0	0	0
3.480363	0.06111723	0.01283462	0	0	0	0
3.497624	0.06111723	0.01283462	0	0	0	0
3.513731	0.06111723	0.01283462	0	0	0	0
3.530064	0.06111723	0.01283462	0	0	0	0
3.54663	0.06111723	0.01283462	0	0	0	0
3.563196	0.06111723	0.01283462	0	0	0	0
3.579763	0.06111723	0.01283462	0	0	0	0
3.596331	0.06111723	0.01283462	0	0	0	0
3.612897	0.06111723	0.01283462	0	0	0	0
3.629464	0.06111723	0.01283462	0	0	0	0
3.646138	0.06111723	0.01283462	0	0	0	0
3.66272	0.06111723	0.01283462	0	0	0	0
3.67929	0.06111723	0.01283462	0	0	0	0
3.695856	0.06111723	0.01283462	0	0	0	0
3.712421	0.06111723	0.01283462	0	0	0	0
3.728988	0.06111723	0.01283462	0	0	0	0
3.745559	0.06111723	0.01283462	0	0	0	0
3.762123	0.06111723	0.01283462	0	0	0	0
3.77869	0.06111723	0.01283462	0	0	0	0
3.795256	0.06111723	0.01283462	0	0	0	0
3.812469	0.06111723	0.01283462	0	0	0	0
3.82839	0.06111723	0.01283462	0	0	0	0
3.844957	0.06111723	0.01283462	0	0	0	0
3.861522	0.06111723	0.01283462	0	0	0	0
3.878402	0.06111722	0.01161227	-2.206921E-07	-0.07241365	-6.598633E-06	-2.165148
3.894657	0.06111722	0.01161227	0	0	6.660357E-06	2.185401
3.911223	0.06111722	0.01161227	0	0	0	0
3.927791	0.06111722	0.01161227	0	0	0	0
3.944357	0.06111722	0.01161227	0	0	0	0
3.961228	0.06111722	0.01161227	0	0	0	0
3.97749	0.06111722	0.01161227	0	0	0	0
3.994661	0.06111722	0.01161227	0	0	0	0
4.011141	0.06111722	0.01161227	0	0	0	0
4.027188	0.06111722	0.01161227	0	0	0	0
4.043884	0.06111722	0.01161227	0	0	0	0
4.060324	0.06111722	0.01161227	0	0	0	0
4.076891	0.06111722	0.01161227	0	0	0	0
4.093457	0.06111722	0.01161227	0	0	0	0
4.110023	0.06111722	0.01161227	0	0	0	0
4.12659	0.06111722	0.01161227	0	0	0	0
4.143157	0.06111722	0.01161227	0	0	0	0
4.15998	0.06111722	0.01161227	0	0	0	0
4.176291	0.06111722	0.01161227	0	0	0	0
4.192857	0.06111722	0.01161227	0	0	0	0
4.2095	0.06111722	0.01161227	0	0	0	0
4.22599	0.06111722	0.01161227	0	0	0	0
4.242558	0.06111723	0.01038993	2.24859E-07	-0.07378089	6.802017E-06	-2.231883
4.259142	0.05989488	0.01038993	-0.07370458	5.615655E-08	-2.223264	2.225561
4.275691	0.05867254	0.01038993	-0.07386386	0	-0.004807468	-1.694881E-06
4.292259	0.05745019	0.01038993	-0.07377458	-5.620989E-08	0.002696107	-1.697297E-06
4.309664	0.05745019	0.009167584	0	-0.07022934	2.171521	-2.067167
4.325752	0.05745019	0.009167584	0	0	0	2.096834
4.34196	0.05745019	0.009167584	0	0	0	0
4.358613	0.05745019	0.009167584	0	0	0	0
4.375094	0.05745019	0.009167584	0	0	0	0
4.391657	0.05745019	0.009167584	0	0	0	0
4.408424	0.05745019	0.009167584	0	0	0	0
4.424794	0.05745019	0.009167584	0	0	0	0
4.441749	0.05745019	0.009167584	0	0	0	0
4.45793	0.05745019	0.009167584	0	0	0	0
4.47449	0.05622785	0.009167584	-0.07381047	0	-2.254369	0
4.491187	0.05622785	0.009167584	0	0	2.219396	0
4.507624	0.05622785	0.009167584	0	0	0	0
4.52436	0.05622785	0.009167584	0	0	0	0
4.540762	0.05622785	0.009167584	0	0	0	0
4.557649	0.05622785	0.009167584	0	0	0	0
4.573891	0.05622785	0.009167584	0	0	0	0
4.590851	0.05622785	0.009167584	0	0	0	0
4.607024	0.05622785	0.009167584	0	0	0	0
4.623905	0.05622785	0.009167584	0	0	0	0
4.640421	0.05622785	0.009167584	0	0	0	0
4.656724	0.05622785	0.009167584	0	0	0	0
4.673887	0.05622785	0.009167584	0	0	0	0
4.689893	0.05622785	0.009167584	0	0	0	0
4.706424	0.05622785	0.009167584	0	0	0	0
4.723369	0.05622785	0.009167584	0	0	0	0
4.739557	0.05622785	0.009167584	0	0	0	0
4.756124	0.05622785	0.009167584	0	0	0	0
4.773389	0.05622785	0.009167584	0	0	0	0
4.789965	0.05622785	0.009167584	0	0	0	0
4.805825	0.05622785	0.009167584	0	0	0	0
4.822393	0.05622785	0.009167584	0	0	0	0
4.838956	0.05622785	0.009167584	0	0	0	0
4.855778	0.05622785	0.009167584	0	0	0	0
4.872334	0.05622785	0.009167584	0	0	0	0
4.888918	0.05622785	0.009167584	0	0	0	0
4.905225	0.05622785	0.009167584	0	0	0	0
4.921792	0.05622785	0.009167584	0	0	0	0
4.938358	0.05622785	0.009167584	0	0	0	0
4.954969	0.05622785	0.009167584	0	0	0	0
4.971491	0.05622785	0.009167584	0	0	0	0
4.988164	0.05622785	0.009167584	0	0	0	0
5.004625	0.05622785	0.009167584	0	0	0	0
5.021192	0.05622785	0.009167584	0	0	0	0
5.037758	0.05622785	0.009167584	0	0	0	0
5.054325	0.05622785	0.009167584	0	0	0	0
5.070892	0.05622785	0.009167584	0	0	0	0
5.087459	0.05622785	0.009167584	0	0	0	0
5.104025	0.05622785	0.009167584	0	0	0	0
5.120686	0.05622785	0.009167584	0	0	0	0
5.13716	0.05622785	0.009167584	0	0	0	0
5.153725	0.05622785	0.009167584	0	0	0	0
5.170712	0.05622785	0.009167584	0	0	0	0
5.187332	0.05622785	0.009167584	0	0	0	0
5.203425	0.05622785	0.009167584	0	0	0	0
5.21999	0.05622785	0.009167584	0	0	0	0
5.236557	0.05622785	0.009167584	0	0	0	0
5.253312	0.05622785	0.009167584	0	0	0	0
5.269692	0.05622785	0.009167584	0	0	0	0
5.286313	0.05622785	0.009167584	0	0	0	0
5.302825	0.05622785	0.009167584	0	0	0	0
5.319586	0.05622785	0.009167584	0	0	0	0
5.335958	0.05622785	0.009167584	0	0	0	0
5.352525	0.05622785	0.009167584	0	0	0	0
5.369312	0.05622785	0.009167584	0	0	0	0
5.385912	0.05622785	0.009167584	0	0	0	0
5.402225	0.05622785	0.009167584	0	0	0	0
5.419232	0.05622785	0.009167584	0	0	0	0
5.435357	0.05622785	0.009167584	0	0	0	0
5.452299	0.05378316	0.00794524	-0.1442932	-0.07214662	-4.363696	-2.181848
5.468796	0.04767143	0.00550055	-0.3704827	-0.148193	-6.764209	-2.274172
5.485059	0.04155971	0.001833517	-0.3758049	-0.2254831	-0.1624634	-2.359305
5.504611	0.03178096	-0.001833517	-0.5001351	-0.1875507	-3.471431	1.059114
5.521181	0.01466813	-0.01161227	-1.032754	-0.5901449	-14.74487	-11.1453
5.537746	0.009778756	-0.01405696	-0.2951659	-0.147583	22.26013	13.35635
5.554312	-0.004889378	-0.02139103	-0.8854213	-0.4427107	-17.81574	-8.907868
5.570879	-0.02322455	-0.03239213	-1.106777	-0.664066	-6.680902	-6.680901
5.587449	-0.04767144	-0.04950495	-1.475363	-1.032754	-11.12331	-11.12638
5.604016	-0.0660066	-0.06295075	-1.106713	-0.8115895	11.12491	6.674175
5.620582	-0.08311942	-0.07517418	-1.033021	-0.7378719	2.224113	2.224899
5.637148	-0.09656521	-0.08617529	-0.8116127	-0.664047	6.682504	2.228168
5.653711	-0.1112333	-0.0947317	-0.8856254	-0.5166151	-2.234063	4.450208
5.670357	-0.1381249	-0.1142892	-1.615507	-1.174914	-21.97884	-19.82327
5.686895	-0.1466813	-0.1204009	-0.5173594	-0.3695427	33.09216	24.26947
5.703415	-0.1650165	-0.1326244	-1.109908	-0.7399387	-17.92443	-11.20437
5.719997	-0.184574	-0.1460702	-1.179406	-0.810843	-2.099514	-2.141991
5.738092	-0.2004645	-0.1546266	-0.8781697	-0.4728592	8.686802	9.746484
5.754663	-0.2151326	-0.1644053	-0.8851922	-0.5901287	-0.2025784	-3.382879
5.771229	-0.2212444	-0.1680724	-0.3689249	-0.2213549	15.57986	11.12881
5.787794	-0.2334678	-0.1754064	-0.7379365	-0.4427608	-11.13808	-6.682812
5.804768	-0.2420242	-0.1815182	-0.5040759	-0.3600553	6.972834	2.465962
5.821939	-0.2542477	-0.1900746	-0.7118502	-0.4982948	-6.084911	-4.048502
5.838067	-0.2579147	-0.1925193	-0.227376	-0.151584	14.54922	10.41206
5.854649	-0.2640264	-0.1974086	-0.3685854	-0.2948692	-4.317124	-4.380587
5.871204	-0.2725828	-0.2047427	-0.5168388	-0.4430031	-4.473975	-4.470369
5.887605	-0.2811392	-0.2108544	-0.5216904	-0.3726369	-0.1472112	2.135118
5.904172	-0.2848063	-0.2145215	-0.2213503	-0.2213485	9.110035	4.588939
5.920739	-0.2848063	-0.2157438	0	-0.07378465	6.680559	4.453615
5.937305	-0.2860286	-0.2157438	-0.07378285	1.798924E-06	-2.226835	2.226943
5.95421	-0.2860286	-0.2157438	0	0	2.204343	-5.37448E-05
5.970435	-0.2860286	-0.2157438	0	0	0	0
5.987394	-0.2860286	-0.2157438	0	0	0	0
6.003818	-0.2860286	-0.2157438	0	0	0	0
6.020138	-0.2860286	-0.2157438	0	0	0	0
6.036705	-0.2860286	-0.2157438	0	0	0	0
6.053461	-0.2860286	-0.2157438	0	0	0	0
6.069836	-0.2848063	-0.2157438	0.07464656	-1.819982E-06	2.253065	-5.49327E-05
6.086403	-0.2786945	-0.2157438	0.3688948	8.9941E-07	8.932104	8.254897E-05
6.103871	-0.2652487	-0.2108544	0.7697607	0.2799132	11.77798	8.224199
6.119535	-0.2359125	-0.1937416	1.872834	1.092487	33.29369	24.52564
6.136235	-0.1906857	-0.1680724	2.708223	1.537099	25.81237	13.73791
6.152827	-0.1283462	-0.131402	3.7572	2.210119	31.50857	20.21576
6.169237	-0.1161227	-0.124068	0.7448619	0.4469168	-91.2764	-53.42651
6.185803	-0.09412052	-0.1081775	1.328132	0.9592069	17.68738	15.53495
6.202371	-0.07823005	-0.09717639	0.9591236	0.6640083	-11.13686	-8.909239
6.218936	-0.06967364	-0.08984232	0.5165254	0.4427362	-13.35822	-6.678294
6.235504	-0.06478427	-0.0837306	0.2951229	0.3689041	-6.682327	-2.228386
6.252069	-0.05989488	-0.08006356	0.2951578	0.2213686	0.0010533	-4.452887
6.268634	-0.0550055	-0.07395185	0.2951576	0.3689461	-7.196315E-06	4.454412
6.285941	-0.04889378	-0.06539543	0.3531496	0.4944098	1.712111	3.704092
6.301771	-0.04522675	-0.06050605	0.2316501	0.308867	-3.666651	-5.599371
6.318493	-0.04278206	-0.05806136	0.1461902	0.1461902	-2.625277	-4.997333
6.334905	-0.04033737	-0.05561667	0.1489637	0.1489637	0.08370451	0.08370451
6.35194	-0.03911502	-0.05561668	0.07175294	-2.186783E-07	-2.308465	-4.453758
6.368157	-0.03911502	-0.05439433	0	0.0753755	-2.157838	2.266786
6.384604	-0.03911502	-0.05439433	0	0	0	-2.307614
6.401171	-0.03667033	-0.05317198	0.1475659	0.07378307	4.469822	2.234915
6.417737	-0.03544799	-0.05194964	0.07378285	0.07378285	-2.226841	-6.745963E-06
6.434303	-0.03422565	-0.04950495	0.07378945	0.1475789	0.0001992394	2.227329
6.45091	-0.0330033	-0.04706026	0.07360489	0.14721	-0.005563656	-0.01112057
6.467438	-0.03178096	-0.04583792	0.07395549	0.07395549	0.01058104	-2.210794
6.484004	-0.03178096	-0.04583792	0	0	-2.234683	-2.234683
6.50057	-0.03055861	-0.04461557	0.07378732	0.07378709	2.227066	2.227059
6.517138	-0.02933627	-0.04339323	0.07377882	0.07377882	-0.0002565715	-0.0002496006
6.533703	-0.02689158	-0.04217089	0.1475744	0.07378709	2.227219	0.0002496006
6.550271	-0.02689158	-0.04094854	0	0.07378118	-4.453997	-0.0001785457
6.566837	-0.02444689	-0.0397262	0.1475659	0.07378262	4.453612	4.362327E-05
6.583402	-0.02444689	-0.0397262	0	0	-4.453933	-2.226956
6.599968	-0.02322455	-0.03850385	0.0737872	0.07378732	2.227159	2.227162
6.616535	-0.02322455	-0.03850385	0	0	-2.227031	-2.227034
6.633104	-0.02322455	-0.03850385	0	0	0	0
6.64967	-0.02322455	-0.03850385	0	0	0	0
6.667113	-0.0220022	-0.03850385	0.07007576	0	2.060508	0
6.683683	-0.0220022	-0.03850385	0	0	-2.060247	0
6.700609	-0.02077986	-0.03728151	0.07221787	0.07221787	2.156021	2.156021
6.716815	-0.01955751	-0.03728151	0.0754285	-2.298808E-07	0.09690689	-2.179766
6.733384	-0.01955751	-0.03728151	0	0	-2.301442	7.014026E-06
6.74995	-0.01955751	-0.03728151	0	0	0	0
6.766514	-0.01955751	-0.03728151	0	0	0	0
6.783084	-0.01955751	-0.03728151	0	0	0	0
6.799648	-0.01955751	-0.03728151	0	0	0	0
6.816217	-0.01955751	-0.03728151	0	0	0	0
6.832965	-0.01955751	-0.03728151	0	0	0	0
6.84938	-0.01955751	-0.03728151	0	0	0	0
6.865915	-0.01955751	-0.03728151	0	0	0	0
6.882501	-0.01955751	-0.03728151	0	0	0	0
6.89905	-0.01955751	-0.03728151	0	0	0	0
6.915617	-0.01955751	-0.03728151	0	0	0	0
6.932184	-0.01833517	-0.03605916	0.07378095	0.07378095	2.226745	2.226745
6.948748	-0.01833517	-0.03605916	0	0	-2.226938	-2.226938
6.965318	-0.01833517	-0.03605916	0	0	0	0
6.981883	-0.01833517	-0.03605916	0	0	0	0
6.998472	-0.01833517	-0.03605916	0	0	0	0
7.015017	-0.01833517	-0.03605916	0	0	0	0
7.031584	-0.01833517	-0.03605916	0	0	0	0
7.048148	-0.01833517	-0.03605916	0	0	0	0
7.064718	-0.01833517	-0.03605916	0	0	0	0
7.081281	-0.01833517	-0.03605916	0	0	0	0
7.097851	-0.01833517	-0.03605916	0	0	0	0
7.114419	-0.01833517	-0.03605916	0	0	0	0
7.130984	-0.01833517	-0.03605916	0	0	0	0
7.148358	-0.01833517	-0.03605916	0	0	0	0
7.164958	-0.01833517	-0.03605916	0	0	0	0
7.181495	-0.01833517	-0.03605916	0	0	0	0
7.198062	-0.01833517	-0.03605916	0	0	0	0
7.214629	-0.01833517	-0.03605916	0	0	0	0
7.231195	-0.01833517	-0.03605916	0	0	0	0
7.24802	-0.01833517	-0.03605916	0	0	0	0
7.264529	-0.01833517	-0.03605916	0	0	0	0
7.280896	-0.01833517	-0.03605916	0	0	0	0
7.297554	-0.01833517	-0.03605916	0	0	0	0
7.314064	-0.01833517	-0.03605916	0	0	0	0
7.330595	-0.01711282	-0.03605916	0.07394045	0	2.237872	0
7.347162	-0.01711282	-0.03483682	0	0.07378307	-2.23397	2.229216
7.363729	-0.01711282	-0.03483682	0	0	0	-2.226841
7.380296	-0.01711282	-0.03483682	0	0	0	0
7.397125	-0.01711282	-0.03483682	0	0	0	0
7.413429	-0.01711282	-0.03483682	0	0	0	0
7.430135	-0.01466813	-0.03483682	0.146332	0	4.432958	0
7.446668	-0.01466813	-0.03361447	-5.633148E-08	0.07393416	-4.402371	2.224295
7.463178	-0.01344579	-0.03361447	0.07403874	0	2.240719	-2.237552
7.479696	-0.01344579	-0.03361447	0	0	-2.241688	0
7.496263	-0.01344579	-0.03361447	0	0	0	0
7.512829	-0.01344579	-0.03361447	0	0	0	0
7.529396	-0.01344579	-0.03239213	-5.621636E-08	0.07378285	-1.696686E-06	2.226867
7.545964	-0.01222344	-0.03239213	0.07377877	0	2.22665	-2.226771
7.562752	-0.01222344	-0.03239213	0	0	-2.211878	0
7.579254	-0.01222344	-0.03116978	0	0.07407089	0	2.224993
7.595763	-0.01222345	-0.02994744	-5.641283E-08	0.07404082	-1.708887E-06	-0.0009106872
7.61223	-0.0110011	-0.02994744	0.07422961	0	2.251011	-2.245284
7.628796	-0.0110011	-0.0287251	-5.62196E-08	0.0737872	-2.247144	2.233749
7.645361	-0.008556411	-0.02750275	0.147583	0.07379157	4.454579	0.0001317825
7.661931	-0.008556411	-0.02628041	0	0.07377011	-4.454064	-0.0006478187
7.678497	-0.008556411	-0.02628041	0	0	0	-2.226258
7.695327	-0.007334067	-0.02505806	0.07262897	0.07262903	2.174733	2.174735
7.71163	-0.007334067	-0.02383572	5.712729E-08	0.07497866	-2.192071	0.07091606
7.728197	-0.007334067	-0.02383572	0	0	-1.737986E-06	-2.281079
7.745376	-0.006111723	-0.02261337	0.07115529	0.07115532	2.108569	2.10857
7.761333	-0.006111722	-0.02016868	2.918074E-08	0.1531968	-2.147346	2.475873
7.778394	-0.004889378	-0.01894634	0.07164857	0.07164854	2.169977	-2.469803
7.794465	-0.004889378	-0.01894634	0	0	-2.162545	-2.162544
7.81103	-0.003667033	-0.01772399	0.07379148	0.07379157	2.261034	2.261037
7.827597	-0.003667033	-0.01772399	0	0	-2.227224	-2.227226
7.844162	-0.003667033	-0.01772399	0	0	0	0
7.860729	-0.003667033	-0.01772399	0	0	0	0
7.877296	-0.003667033	-0.01772399	0	0	0	0
7.893863	-0.003667033	-0.01772399	0	0	0	0
7.910429	-0.003667033	-0.01772399	0	0	0	0
7.926997	-0.003667033	-0.01772399	0	0	0	0
7.943563	-0.003667033	-0.01772399	0	0	0	0
7.960143	-0.003667033	-0.01772399	0	0	0	0
7.976696	-0.003667033	-0.01772399	0	0	0	0
7.993263	-0.003667033	-0.01772399	0	0	0	0
8.009982	-0.003667033	-0.01772399	0	0	0	0
8.026648	-0.003667033	-0.01772399	0	0	0	0
8.042964	-0.003667033	-0.01772399	0	0	0	0
8.059531	-0.003667034	-0.01650165	-1.405369E-08	0.07378072	-4.273762E-07	2.24369
8.076097	-0.003667034	-0.01650165	0	0	4.241533E-07	-2.226771
8.092665	-0.003667034	-0.01650165	0	0	0	0
8.109241	-0.003667034	-0.01650165	0	0	0	0
8.125798	-0.003667034	-0.01650165	0	0	0	0
8.142366	-0.003667034	-0.01650165	0	0	0	0
8.159005	-0.003667034	-0.01650165	0	0	0	0
8.175498	-0.003667034	-0.01650165	0	0	0	0
8.192169	-0.003667034	-0.01650165	0	0	0	0
8.20866	-0.003667034	-0.01650165	0	0	0	0
8.225266	-0.003667034	-0.01650165	0	0	0	0
8.241766	-0.003667034	-0.01650165	0	0	0	0
8.258333	-0.003667034	-0.01650165	0	0	0	0
8.275513	-0.003667034	-0.01650165	0	0	0	0
8.292111	-0.003667034	-0.01650165	0	0	0	0
8.30865	-0.003667034	-0.01650165	0	0	0	0
8.325216	-0.003667034	-0.01650165	0	0	0	0
8.341784	-0.003667034	-0.01650165	0	0	0	0
8.358364	-0.003667034	-0.01650165	0	0	0	0
8.375367	-0.003667034	-0.01650165	0	0	0	0
8.391883	-0.003667034	-0.01650165	0	0	0	0
8.408381	-0.003667034	-0.01650165	0	0	0	0
8.424617	-0.003667034	-0.01650165	0	0	0	0
8.441406	-0.003667034	-0.01650165	0	0	0	0
8.457914	-0.003667034	-0.01650165	0	0	0	0
8.474446	-0.003667034	-0.01650165	0	0	0	0
8.490952	-0.003667034	-0.01650165	0	0	0	0
8.507463	-0.003667034	-0.01650165	0	0	0	0
8.524015	-0.003667034	-0.01650165	0	0	0	0
8.540588	-0.003667034	-0.01650165	0	0	0	0
8.557152	-0.003667034	-0.01650165	0	0	0	0
8.576048	-0.003667034	-0.01650165	0	0	0	0
8.592617	-0.003667034	-0.01650165	0	0	0	0
8.609183	-0.003667034	-0.01650165	0	0	0	0
8.62575	-0.003667034	-0.01650165	0	0	0	0
8.642316	-0.003667034	-0.01650165	0	0	0	0
8.658883	-0.003667034	-0.01650165	0	0	0	0
8.675449	-0.003667034	-0.01650165	0	0	0	0
8.69209	-0.003667034	-0.01650165	0	0	0	0
8.708592	-0.003667034	-0.01650165	0	0	0	0
8.725622	-0.003667034	-0.01650165	0	0	0	0
8.741716	-0.003667034	-0.01650165	0	0	0	0
8.758283	-0.003667034	-0.01650165	0	0	0	0
8.77485	-0.003667034	-0.01650165	0	0	0	0
8.791416	-0.003667034	-0.01650165	0	0	0	0
8.807983	-0.003667034	-0.01650165	0	0	0	0
8.82455	-0.003667034	-0.01650165	0	0	0	0
8.841116	-0.003667034	-0.01650165	0	0	0	0
8.857682	-0.003667034	-0.01650165	0	0	0	0
8.874249	-0.003667034	-0.01650165	0	0	0	0
8.890816	-0.003667034	-0.01650165	0	0	0	0
8.907382	-0.003667034	-0.01650165	0	0	0	0
8.923948	-0.003667034	-0.01650165	0	0	0	0
8.940516	-0.003667034	-0.01650165	0	0	0	0
8.957289	-0.003667034	-0.01650165	0	0	0	0
8.973655	-0.003667034	-0.01650165	0	0	0	0
8.990307	-0.003667034	-0.01650165	0	0	0	0
9.006813	-0.003667034	-0.01650165	0	0	0	0
9.023348	-0.003667034	-0.01650165	0	0	0	0
9.040154	-0.003667034	-0.01650165	0	0	0	0
9.056787	-0.003667034	-0.01650165	0	0	0	0
9.073204	-0.003667034	-0.01650165	0	0	0	0
9.089732	-0.003667034	-0.01650165	0	0	0	0
9.10633	-0.003667034	-0.01650165	0	0	0	0
9.122749	-0.003667034	-0.01650165	0	0	0	0
9.139913	-0.003667034	-0.01650165	0	0	0	0
9.155903	-0.003667034	-0.01650165	0	0	0	0
9.210258	-0.003667034	-0.01650165	0	0	0	0
9.22683	-0.003667034	-0.01650165	0	0	0	0
9.243464	-0.003667034	-0.01650165	0	0	0	0
9.259964	-0.003667034	-0.01650165	0	0	0	0
9.27653	-0.003667034	-0.01650165	0	0	0	0
9.293408	-0.003667034	-0.01650165	0	0	0	0
9.309787	-0.003667034	-0.01650165	0	0	0	0
9.326358	-0.003667034	-0.01650165	0	0	0	0
9.342797	-0.003667034	-0.01650165	0	0	0	0
9.359364	-0.003667034	-0.01650165	0	0	0	0
9.375929	-0.003667034	-0.01650165	0	0	0	0
9.392497	-0.003667034	-0.01650165	0	0	0	0
9.409063	-0.003667034	-0.01650165	0	0	0	0
9.42563	-0.003667034	-0.01650165	0	0	0	0
9.442197	-0.003667034	-0.01650165	0	0	0	0
9.458763	-0.003667034	-0.01650165	0	0	0	0
9.475873	-0.003667034	-0.01650165	0	0	0	0
9.491896	-0.003667034	-0.01650165	0	0	0	0
9.508562	-0.003667034	-0.01650165	0	0	0	0
9.52503	-0.003667034	-0.01650165	0	0	0	0
9.541596	-0.003667034	-0.01650165	0	0	0	0
9.558164	-0.003667034	-0.01650165	0	0	0	0
9.574729	-0.003667034	-0.01650165	0	0	0	0
9.591297	-0.003667034	-0.01650165	0	0	0	0
9.607863	-0.003667034	-0.01650165	0	0	0	0
9.624629	-0.003667034	-0.01650165	0	0	0	0
9.641143	-0.003667034	-0.01650165	0	0	0	0
9.657559	-0.003667034	-0.01650165	0	0	0	0
9.674129	-0.003667034	-0.01650165	0	0	0	0
9.690696	-0.003667034	-0.01650165	0	0	0	0
9.707263	-0.003667034	-0.01650165	0	0	0	0
9.723829	-0.003667034	-0.01650165	0	0	0	0
9.740713	-0.003667034	-0.01650165	0	0	0	0
9.756964	-0.003667034	-0.01650165	0	0	0	0
9.773746	-0.003667034	-0.01650165	0	0	0	0
9.790104	-0.003667034	-0.01650165	0	0	0	0
9.807267	-0.003667034	-0.01650165	0	0	0	0
9.823308	-0.003667034	-0.01650165	0	0	0	0
9.83981	-0.003667034	-0.01650165	0	0	0	0
9.856368	-0.003667034	-0.01650165	0	0	0	0
9.872935	-0.003667034	-0.01650165	0	0	0	0
9.889502	-0.003667034	-0.01650165	0	0	0	0
9.906068	-0.003667034	-0.01650165	0	0	0	0
9.922635	-0.003667034	-0.01650165	0	0	0	0
9.939868	-0.003667034	-0.01650165	0	0	0	0
9.955764	-0.003667034	-0.01650165	0	0	0	0
9.972331	-0.003667034	-0.01650165	0	0	0	0
9.988897	-0.003667034	-0.01650165	0	0	0	0
10.00546	-0.003667034	-0.01650165	0	0	0	0
10.02243	-0.003667034	-0.01650165	0	0	0	0
10.0386	-0.003667034	-0.01650165	0	0	0	0
10.05516	-0.003667034	-0.01650165	0	0	0	0
10.07197	-0.003667034	-0.01650165	0	0	0	0
10.0883	-0.003667034	-0.01650165	0	0	0	0
10.10497	-0.003667034	-0.01650165	0	0	0	0
10.12143	-0.003667034	-0.01650165	0	0	0	0
10.138	-0.003667034	-0.01650165	0	0	0	0
10.15456	-0.003667034	-0.01650165	0	0	0	0
10.17113	-0.003667034	-0.01650165	0	0	0	0
10.18784	-0.003667034	-0.01650165	0	0	0	0
10.20434	-0.003667034	-0.01650165	0	0	0	0
10.22085	-0.003667034	-0.01650165	0	0	0	0
10.23776	-0.003667034	-0.01650165	0	0	0	0
10.25396	-0.003667034	-0.01650165	0	0	0	0
10.27055	-0.003667034	-0.01650165	0	0	0	0
10.28762	-0.003667034	-0.01650165	0	0	0	0
10.30435	-0.003667034	-0.01650165	0	0	0	0
10.32023	-0.003667034	-0.01650165	0	0	0	0
10.3368	-0.003667034	-0.01650165	0	0	0	0
10.35336	-0.003667034	-0.01650165	0	0	0	0
10.36993	-0.003667034	-0.01650165	0	0	0	0
10.38678	-0.003667034	-0.01650165	0	0	0	0
10.40306	-0.003667034	-0.01650165	0	0	0	0
10.41963	-0.003667034	-0.01650165	0	0	0	0
10.4362	-0.003667034	-0.01650165	0	0	0	0
10.45292	-0.003667034	-0.01650165	0	0	0	0
10.46933	-0.003667034	-0.01650165	0	0	0	0
10.48589	-0.003667034	-0.01650165	0	0	0	0
10.50246	-0.003667034	-0.01650165	0	0	0	0
10.51911	-0.003667034	-0.01650165	0	0	0	0
10.53562	-0.003667034	-0.01650165	0	0	0	0
10.55216	-0.003667034	-0.01650165	0	0	0	0
10.56873	-0.003667034	-0.01650165	0	0	0	0
10.5853	-0.003667034	-0.01650165	0	0	0	0
10.60238	-0.003667034	-0.01650165	0	0	0	0
10.61843	-0.003667034	-0.01650165	0	0	0	0
10.63522	-0.003667034	-0.01650165	0	0	0	0
10.65156	-0.003667034	-0.01650165	0	0	0	0
10.66813	-0.003667034	-0.01650165	0	0	0	0
10.68469	-0.003667034	-0.01650165	0	0	0	0
10.70133	-0.003667034	-0.01650165	0	0	0	0
10.71783	-0.003667034	-0.01650165	0	0	0	0
10.7344	-0.003667034	-0.01650165	0	0	0	0
10.75096	-0.003667034	-0.01650165	0	0	0	0
10.76753	-0.003667034	-0.01650165	0	0	0	0
10.78409	-0.003667034	-0.01650165	0	0	0	0
10.80076	-0.003667034	-0.01650165	0	0	0	0
10.81723	-0.003667034	-0.01650165	0	0	0	0
10.83396	-0.003667034	-0.01650165	0	0	0	0
10.8506	-0.003667034	-0.01650165	0	0	0	0
10.86693	-0.003667034	-0.01650165	0	0	0	0
10.88352	-0.004889378	-0.02016868	-0.07366215	-0.2209863	-2.237489	-6.712463
10.90006	-0.007334067	-0.02628041	-0.147817	-0.3695425	-2.238126	-4.483692
10.91664	-0.008556411	-0.02994744	-0.07372139	-0.2211643	2.237239	4.480126
10.93321	-0.0110011	-0.03483682	-0.1475788	-0.2951574	-2.228251	-2.232347
10.95026	-0.01344579	-0.03972619	-0.1433611	-0.2867224	0.1254579	0.2509095
10.96684	-0.01466813	-0.04339323	-0.07372583	-0.2211771	2.07049	1.948879
10.9829	-0.01711282	-0.04950495	-0.1521781	-0.3804456	-2.403246	-4.87891
10.99946	-0.0220022	-0.06417309	-0.2952936	-0.8858805	-4.38704	-15.49352
11.01606	-0.03055861	-0.08495294	-0.5156349	-1.252256	-6.646471	-11.05151
11.03259	-0.03667033	-0.1045105	-0.3695425	-1.182536	4.409332	2.10428
11.04916	-0.0440044	-0.131402	-0.442736	-1.623366	-2.211021	-13.31653
11.06613	-0.04522675	-0.1387361	-0.07201498	-0.4320903	11.05349	35.51929
11.08229	-0.04889378	-0.1582936	-0.2269069	-1.210169	-4.674647	-23.48247
11.09886	-0.05378316	-0.1778511	-0.2951743	-1.180697	-2.086073	0.9005901
11.11543	-0.06478426	-0.2132991	-0.6640279	-2.139645	-11.13298	-28.94359
11.13241	-0.07211832	-0.2365237	-0.4317252	-1.367131	6.923036	23.02229
11.14856	-0.07823005	-0.2573035	-0.3785357	-1.28702	1.605308	2.417818
11.16513	-0.08434176	-0.273194	-0.3689041	-0.9591512	0.294428	10.02261
11.18169	-0.08923115	-0.2841951	-0.2951238	-0.6640283	2.226694	8.906826
11.19826	-0.09412053	-0.2964185	-0.2951578	-0.737894	-0.001026315	-2.229398
11.21554	-0.0990099	-0.3147537	-0.282987	-1.061203	0.3596255	-9.553186
11.2316	-0.1002323	-0.3171984	-0.07608943	-0.1521779	6.205245	27.26336
11.24799	-0.1014546	-0.3196431	-0.07458358	-0.1491672	0.04640047	0.09277246
11.26464	-0.1014546	-0.3208654	0	-0.07343831	2.257825	2.292495
11.28132	-0.1014546	-0.3208654	0	0	0	2.203498
11.29769	-0.1014546	-0.3208654	0	0	0	0
11.31441	-0.1014546	-0.3208654	0	0	0	0
11.38265	-0.1014546	-0.3208654	0	0	0	0
11.40948	-0.08189708	-0.2866398	0.7287165	1.275252	7.665061	13.41384
11.42682	-0.07456302	-0.2560812	0.4230332	1.76264	-6.919803	11.03307
11.4428	-0.07089598	-0.2353013	0.2295488	1.300775	-5.808276	-13.86489
11.45919	-0.06967364	-0.2084097	0.07456622	1.64046	-4.788185	10.49455
11.47617	-0.0660066	-0.1839629	0.2159355	1.43957	4.235812	-6.019202
11.49232	-0.06111723	-0.1644053	0.3027208	1.210884	2.619259	-6.901955
11.50889	-0.05622784	-0.1436255	0.2951408	1.254347	-0.2316783	1.328431
11.52546	-0.05133847	-0.1216233	0.2951233	1.328056	-0.0005261851	2.224607
11.54212	-0.04522675	-0.09962107	0.366688	1.320076	2.153317	-0.2401037
11.55913	-0.03911502	-0.0837306	0.3593476	0.9343034	-0.2179748	-11.4557
11.57516	-0.03178096	-0.06784011	0.4577029	0.9916905	2.977624	1.737345
11.59191	-0.03055861	-0.06295075	0.07296184	0.2918469	-11.7382	-21.35177
11.60856	-0.02811392	-0.05683902	0.1467844	0.3669612	2.209717	2.248379
11.62486	-0.02566923	-0.05317198	0.1500494	0.225074	0.09909447	-4.306457
11.64142	-0.02444689	-0.0507273	0.07378508	0.1475702	-2.320966	-2.35869
11.65799	-0.02444689	-0.0507273	0	0	-2.226966	-4.453933
11.67455	-0.02444689	-0.0507273	0	0	0	0
11.69112	-0.02444689	-0.0507273	0	0	0	0
11.70769	-0.02444689	-0.0507273	0	0	0	0
11.72845	-0.02444689	-0.04828261	0	0.1177782	0	3.155484
11.74502	-0.0220022	-0.04461557	0.1475362	0.2213044	3.952553	2.773509
11.76158	-0.02077986	-0.04217089	0.07378095	0.1475617	-2.225746	-2.225368
11.77815	-0.01955751	-0.03605916	0.07378508	0.3689258	0.0001248003	6.680974
11.79471	-0.01589048	-0.02994744	0.2213554	0.3689254	4.453936	-9.894364E-06
11.81128	-0.01344579	-0.02139103	0.1475617	0.516466	-2.227162	4.45291
11.82787	-0.0110011	-0.01405696	0.1473835	0.4421507	-0.00537358	-2.241486
11.8445	-0.008556412	-0.009167585	0.1469611	0.2939221	-0.01271494	-4.461731
11.86098	-0.008556412	-0.009167585	0	0	-4.438105	-8.876207
11.87755	-0.008556412	-0.009167585	0	0	0	0
11.89412	-0.008556412	-0.009167585	0	0	0	0
11.91087	-0.008556412	-0.009167585	0	0	0	0
11.92725	-0.008556412	-0.009167585	0	0	0	0
11.94397	-0.008556412	-0.009167585	0	0	0	0
11.96038	-0.008556412	-0.009167585	0	0	0	0
11.97695	-0.008556412	-0.009167585	0	0	0	0
11.99352	-0.008556412	-0.009167585	0	0	0	0
12.01008	-0.008556412	-0.009167585	0	0	0	0
12.02665	-0.008556412	-0.009167585	0	0	0	0
12.04333	-0.008556412	-0.009167585	0	0	0	0
12.05978	-0.008556412	-0.009167585	0	0	0	0
12.07635	-0.008556412	-0.009167585	0	0	0	0
12.09304	-0.008556412	-0.009167585	0	0	0	0
12.10975	-0.008556412	-0.009167585	0	0	0	0
12.12605	-0.008556412	-0.009167585	0	0	0	0
12.14262	-0.008556412	-0.009167585	0	0	0	0
12.1594	-0.008556412	-0.009167585	0	0	0	0
12.17575	-0.008556412	-0.009167585	0	0	0	0
12.19232	-0.008556412	-0.009167585	0	0	0	0
12.20891	-0.008556412	-0.009167585	0	0	0	0
12.22545	-0.008556412	-0.009167585	0	0	0	0
12.24202	-0.008556412	-0.009167585	0	0	0	0
12.25858	-0.008556412	-0.009167585	0	0	0	0
12.27558	-0.008556412	-0.009167585	0	0	0	0
12.29172	-0.008556412	-0.009167585	0	0	0	0
12.30828	-0.008556412	-0.009167585	0	0	0	0
12.32485	-0.008556412	-0.009167585	0	0	0	0
12.34155	-0.008556412	-0.009167585	0	0	0	0
12.35798	-0.008556412	-0.009167585	0	0	0	0
12.37506	-0.008556412	-0.009167585	0	0	0	0
12.39112	-0.008556412	-0.009167585	0	0	0	0
12.40768	-0.008556412	-0.009167585	0	0	0	0
12.42425	-0.008556412	-0.009167585	0	0	0	0
12.44082	-0.008556412	-0.009167585	0	0	0	0
12.45772	-0.008556412	-0.009167585	0	0	0	0
12.47395	-0.008556412	-0.009167585	0	0	0	0
12.49085	-0.008556412	-0.009167585	0	0	0	0
12.50708	-0.008556412	-0.009167585	0	0	0	0
12.52376	-0.008556412	-0.009167585	0	0	0	0
12.54021	-0.008556412	-0.009167585	0	0	0	0
12.55678	-0.008556412	-0.009167585	0	0	0	0
12.57373	-0.008556412	-0.009167585	0	0	0	0
12.59025	-0.008556412	-0.009167585	0	0	0	0
12.60648	-0.008556412	-0.009167585	0	0	0	0
12.62305	-0.008556412	-0.009167585	0	0	0	0
12.63961	-0.008556412	-0.009167585	0	0	0	0
12.65681	-0.008556412	-0.009167585	0	0	0	0
12.67331	-0.008556412	-0.009167585	0	0	0	0
12.68932	-0.008556412	-0.009167585	0	0	0	0
12.70588	-0.008556412	-0.009167585	0	0	0	0
12.72284	-0.008556412	-0.009167585	0	0	0	0
12.73991	-0.008556412	-0.009167585	0	0	0	0
12.75592	-0.008556412	-0.009167585	0	0	0	0
12.77215	-0.008556412	-0.009167585	0	0	0	0
12.78961	-0.008556412	-0.009167585	0	0	0	0
12.80545	-0.008556412	-0.009167585	0	0	0	0
12.8221	-0.008556412	-0.009167585	0	0	0	0
12.83856	-0.008556412	-0.009167585	0	0	0	0
12.85499	-0.008556412	-0.009167585	0	0	0	0
12.8716	-0.008556412	-0.009167585	0	0	0	0
12.88811	-0.008556412	-0.009167585	0	0	0	0
12.9049	-0.008556412	-0.009167585	0	0	0	0
12.92125	-0.008556412	-0.009167585	0	0	0	0
12.93794	-0.008556412	-0.009167585	0	0	0	0
12.95438	-0.008556412	-0.009167585	0	0	0	0
12.97095	-0.008556412	-0.009167585	0	0	0	0
12.98751	-0.008556412	-0.009167585	0	0	0	0
13.00409	-0.008556412	-0.009167585	0	0	0	0
13.02065	-0.008556412	-0.009167585	0	0	0	0
13.03721	-0.008556412	-0.009167585	0	0	0	0
13.05389	-0.008556412	-0.009167585	0	0	0	0
13.07037	-0.008556412	-0.009167585	0	0	0	0
13.08691	-0.008556412	-0.009167585	0	0	0	0
13.10348	-0.008556412	-0.009167585	0	0	0	0
13.12005	-0.008556412	-0.009167585	0	0	0	0
13.13676	-0.008556412	-0.009167585	0	0	0	0
13.15318	-0.008556412	-0.009167585	0	0	0	0
13.16975	-0.008556412	-0.009167585	0	0	0	0
13.18631	-0.008556412	-0.009167585	0	0	0	0
13.20288	-0.008556412	-0.009167585	0	0	0	0
13.21944	-0.008556412	-0.009167585	0	0	0	0
13.23601	-0.008556412	-0.009167585	0	0	0	0
13.2526	-0.008556412	-0.009167585	0	0	0	0
13.26914	-0.008556412	-0.009167585	0	0	0	0
13.28571	-0.008556412	-0.009167585	0	0	0	0
13.30234	-0.008556412	-0.009167585	0	0	0	0
13.31884	-0.008556412	-0.009167585	0	0	0	0
13.33541	-0.008556412	-0.009167585	0	0	0	0
13.35204	-0.008556412	-0.009167585	0	0	0	0
13.36854	-0.008556412	-0.009167585	0	0	0	0
13.38527	-0.008556412	-0.009167585	0	0	0	0
13.40168	-0.008556412	-0.009167585	0	0	0	0
13.4184	-0.008556412	-0.009167585	0	0	0	0
13.43481	-0.008556412	-0.009167585	0	0	0	0
13.45154	-0.008556412	-0.009167585	0	0	0	0
13.46794	-0.008556412	-0.009167585	0	0	0	0
13.48451	-0.008556412	-0.009167585	0	0	0	0
13.50108	-0.008556412	-0.009167585	0	0	0	0
13.51771	-0.008556412	-0.009167585	0	0	0	0
13.53447	-0.008556412	-0.009167585	0	0	0	0
13.55078	-0.008556412	-0.009167585	0	0	0	0
13.56734	-0.008556412	-0.009167585	0	0	0	0
13.58586	-0.008556412	-0.009167585	0	0	0	0
13.60243	-0.008556412	-0.009167585	0	0	0	0
13.61962	-0.008556412	-0.009167585	0	0	0	0
13.63577	-0.008556412	-0.009167585	0	0	0	0
13.65213	-0.008556412	-0.009167585	0	0	0	0
13.66869	-0.008556412	-0.009167585	0	0	0	0
13.68526	-0.008556412	-0.009167585	0	0	0	0
13.70193	-0.008556412	-0.009167585	0	0	0	0
13.71839	-0.008556412	-0.009167585	0	0	0	0
13.73496	-0.008556412	-0.009167585	0	0	0	0
13.75153	-0.008556412	-0.009167585	0	0	0	0
13.76809	-0.008556412	-0.009167585	0	0	0	0
13.78466	-0.008556412	-0.009167585	0	0	0	0
13.80123	-0.008556412	-0.009167585	0	0	0	0
13.81804	-0.008556412	-0.009167585	0	0	0	0
13.83436	-0.008556412	-0.009167585	0	0	0	0
13.85093	-0.008556412	-0.009167585	0	0	0	0
13.86749	-0.008556412	-0.009167585	0	0	0	0
13.88406	-0.008556412	-0.009167585	0	0	0	0
13.90063	-0.008556412	-0.009167585	0	0	0	0
13.9172	-0.008556412	-0.009167585	0	0	0	0
13.93398	-0.008556412	-0.009167585	0	0	0	0
13.95033	-0.008556412	-0.009167585	0	0	0	0
13.96689	-0.008556412	-0.009167585	0	0	0	0
13.98346	-0.008556412	-0.009167585	0	0	0	0
14.00003	-0.008556412	-0.009167585	0	0	0	0
14.0166	-0.008556412	-0.009167585	0	0	0	0
14.03316	-0.008556412	-0.009167585	0	0	0	0
14.04973	-0.008556412	-0.009167585	0	0	0	0
14.0663	-0.008556412	-0.009167585	0	0	0	0
14.08289	-0.008556412	-0.009167585	0	0	0	0
14.09943	-0.008556412	-0.009167585	0	0	0	0
14.116	-0.008556412	-0.009167585	0	0	0	0
14.13256	-0.008556412	-0.009167585	0	0	0	0
14.14918	-0.008556412	-0.009167585	0	0	0	0
14.1657	-0.008556412	-0.009167585	0	0	0	0
14.18226	-0.008556412	-0.009167585	0	0	0	0
14.19883	-0.008556412	-0.009167585	0	0	0	0
14.2154	-0.008556412	-0.009167585	0	0	0	0
14.23209	-0.008556412	-0.009167585	0	0	0	0
14.24905	-0.008556412	-0.009167585	0	0	0	0
14.2651	-0.008556412	-0.009167585	0	0	0	0
14.28166	-0.008556412	-0.009167585	0	0	0	0
14.29823	-0.008556412	-0.009167585	0	0	0	0
14.3148	-0.008556412	-0.009167585	0	0	0	0
14.33136	-0.008556412	-0.009167585	0	0	0	0
14.34793	-0.008556412	-0.009167585	0	0	0	0
14.36489	-0.008556412	-0.009167585	0	0	0	0
14.38183	-0.008556412	-0.009167585	0	0	0	0
14.3984	-0.008556412	-0.009167585	0	0	0	0
14.41496	-0.008556412	-0.009167585	0	0	0	0
14.43188	-0.008556412	-0.009167585	0	0	0	0
14.4481	-0.008556412	-0.009167585	0	0	0	0
14.46467	-0.008556412	-0.009167585	0	0	0	0
14.48123	-0.008556412	-0.009167585	0	0	0	0
14.4978	-0.008556412	-0.009167585	0	0	0	0
14.51437	-0.008556412	-0.009167585	0	0	0	0
14.53114	-0.008556412	-0.009167585	0	0	0	0
14.5475	-0.008556412	-0.009167585	0	0	0	0
14.56406	-0.008556412	-0.009167585	0	0	0	0
14.58084	-0.008556412	-0.009167585	0	0	0	0
14.5972	-0.008556412	-0.009167585	0	0	0	0
14.61376	-0.008556412	-0.009167585	0	0	0	0
14.63044	-0.008556412	-0.009167585	0	0	0	0
14.64696	-0.008556412	-0.009167585	0	0	0	0
14.66346	-0.008556412	-0.009167585	0	0	0	0
14.68003	-0.008556412	-0.009167585	0	0	0	0
14.6966	-0.008556412	-0.009167585	0	0	0	0
14.71316	-0.008556412	-0.009167585	0	0	0	0
14.72973	-0.008556412	-0.009167585	0	0	0	0
14.74637	-0.008556412	-0.009167585	0	0	0	0
14.76352	-0.008556412	-0.009167585	0	0	0	0
14.7795	-0.008556412	-0.009167585	0	0	0	0
14.79607	-0.008556412	-0.009167585	0	0	0	0
14.81263	-0.008556412	-0.009167585	0	0	0	0
14.8292	-0.008556412	-0.009167585	0	0	0	0
14.84587	-0.008556412	-0.009167585	0	0	0	0
14.86234	-0.008556412	-0.009167585	0	0	0	0
14.87913	-0.008556412	-0.009167585	0	0	0	0
14.89547	-0.008556412	-0.009167585	0	0	0	0
14.91204	-0.008556412	-0.009167585	0	0	0	0
14.92864	-0.008556412	-0.009167585	0	0	0	0
14.94521	-0.008556412	-0.009167585	0	0	0	0
14.96178	-0.008556412	-0.009167585	0	0	0	0
14.97834	-0.008556412	-0.009167585	0	0	0	0
14.99491	-0.008556412	-0.009167585	0	0	0	0
15.01197	-0.008556412	-0.009167585	0	0	0	0
15.02804	-0.008556412	-0.009167585	0	0	0	0
15.04461	-0.008556412	-0.009167585	0	0	0	0
15.06118	-0.008556412	-0.009167585	0	0	0	0
15.07774	-0.008556412	-0.009167585	0	0	0	0
15.09431	-0.008556412	-0.009167585	0	0	0	0
15.11088	-0.008556412	-0.009167585	0	0	0	0
15.12744	-0.008556412	-0.009167585	0	0	0	0
15.14421	-0.008556412	-0.009167585	0	0	0	0
15.16058	-0.008556412	-0.009167585	0	0	0	0
15.17714	-0.008556412	-0.009167585	0	0	0	0
15.19371	-0.008556412	-0.009167585	0	0	0	0
15.21027	-0.008556412	-0.009167585	0	0	0	0
15.22684	-0.008556412	-0.009167585	0	0	0	0
15.24341	-0.008556412	-0.009167585	0	0	0	0
15.25997	-0.008556412	-0.009167585	0	0	0	0
15.27654	-0.008556412	-0.009167585	0	0	0	0
15.29341	-0.008556412	-0.009167585	0	0	0	0
15.31191	-0.008556412	-0.009167585	0	0	0	0
15.32848	-0.008556412	-0.009167585	0	0	0	0
15.34504	-0.008556412	-0.009167585	0	0	0	0
15.36161	-0.008556412	-0.009167585	0	0	0	0
15.37817	-0.008556412	-0.009167585	0	0	0	0
15.39474	-0.008556412	-0.009167585	0	0	0	0
15.41131	-0.008556412	-0.009167585	0	0	0	0
15.42797	-0.008556412	-0.009167585	0	0	0	0
15.44444	-0.008556412	-0.009167585	0	0	0	0
15.46102	-0.008556412	-0.009167585	0	0	0	0
15.47758	-0.008556412	-0.009167585	0	0	0	0
15.49414	-0.008556412	-0.009167585	0	0	0	0
15.51081	-0.008556412	-0.009167585	0	0	0	0
15.52741	-0.008556412	-0.009167585	0	0	0	0
15.54395	-0.008556412	-0.009167585	0	0	0	0
15.56047	-0.008556412	-0.009167585	0	0	0	0
15.57698	-0.008556412	-0.009167585	0	0	0	0
15.59354	-0.008556412	-0.009167585	0	0	0	0
15.61026	-0.008556412	-0.009167585	0	0	0	0
15.62674	-0.008556412	-0.001833517	0	0.4448619	0	13.39973
15.64324	-0.0110011	0.02139103	-0.1481502	1.407426	-4.491087	29.17959
15.65981	-0.01466813	0.06417309	-0.2213553	2.582479	-2.213794	35.53475
15.67638	-0.0220022	0.1204009	-0.4427107	3.394114	-6.680906	24.49662
15.69294	-0.03055861	0.1692947	-0.5164661	2.951235	-2.226005	-13.36652
15.70951	-0.03911502	0.2230779	-0.5164956	3.246544	-0.0008904671	8.912709
15.72608	-0.04889378	0.2707493	-0.5902129	2.877288	-2.224794	-11.14417
15.74283	-0.0550055	0.3061973	-0.3648717	2.116255	6.763244	-22.84114
15.75934	-0.05989488	0.3318665	-0.296112	1.554589	2.067199	-16.88599
15.77715	-0.0660066	0.3587581	-0.3432385	1.51025	-1.373231	-1.292014
15.79372	-0.07089598	0.3746486	-0.2950554	0.9589286	1.401603	-16.03746
15.81047	-0.07089598	0.3758709	0	0.07294928	8.853317	-26.58435
15.82685	-0.07089598	0.3758709	0	0	0	-2.201804
15.84343	-0.07089598	0.3758709	0	0	0	0
15.85998	-0.07089598	0.3770933	0	0.07382927	0	2.228172
15.87655	-0.07089598	0.3770933	0	0	0	-2.228942
15.8937	-0.07089598	0.3770933	0	0	0	0
15.91138	-0.07089598	0.3770933	0	0	0	0
15.92795	-0.07089598	0.3770933	0	0	0	0
15.94452	-0.07089598	0.3770933	0	0	0	0
15.96108	-0.07089598	0.3770933	0	0	0	0
15.97765	-0.07089598	0.3770933	0	0	0	0
16.06613	-0.07089598	0.3746486	0	-0.02763133	0	-0.2630491
16.08599	0.03544799	0.06417309	5.354866	-15.63375	49.42855	-144.0536
16.10255	0.04033737	0.03728151	0.2950896	-1.622992	-138.8963	384.6102
16.11912	0.04278206	0.02628041	0.1475787	-0.664104	-4.451889	28.93931
16.13582	0.04278206	0.006722894	2.230868E-07	-1.17119	-4.43656	-15.24422
16.15225	0.04278206	0.001833517	-2.266595E-07	-0.2974866	-1.357337E-05	26.36843
16.16885	0.04278206	-0.0006111722	2.244971E-07	-0.1473243	1.365918E-05	4.546302
16.18539	0.04278206	-0.0006111722	0	0	-6.775727E-06	4.446511
16.20195	0.04278206	-0.0006111722	0	0	0	0
16.2188	0.04278206	-0.0006111722	0	0	0	0
16.23508	0.04278206	-0.0006111722	0	0	0	0
16.25165	0.04278206	-0.0006111722	0	0	0	0
16.26836	0.04278206	-0.003055861	-2.22934E-07	-0.1462985	-6.699239E-06	-4.396317
16.28479	0.04278206	-0.004278206	0	-0.07442348	6.728162E-06	2.169192
16.30135	0.04155971	-0.004278206	-0.07378072	0	-2.236362	2.255844
16.31799	0.04155971	-0.00550055	0	-0.07349319	2.222357	-2.213696
16.33507	0.04155971	-0.00550055	0	0	0	2.180006
16.35106	0.04155971	-0.00550055	0	0	0	0
16.36762	0.04155971	-0.006722894	0	-0.07378083	0	-2.266105
16.38419	0.04155971	-0.006722894	0	0	0	2.22671
16.40076	0.04155971	-0.006722894	0	0	0	0
16.41733	0.04155971	-0.006722894	0	0	0	0
16.4339	0.04155971	-0.006722894	0	0	0	0
16.45046	0.04155971	-0.006722894	0	0	0	0
16.46709	0.04155971	-0.006722894	0	0	0	0
16.48442	0.04155971	-0.006722894	0	0	0	0
16.50016	0.04155971	-0.006722894	0	0	0	0
16.51673	0.04155971	-0.006722894	0	0	0	0
16.53329	0.04155971	-0.006722894	0	0	0	0
16.55008	0.04155971	-0.006722894	0	0	0	0
16.56643	0.04155971	-0.006722894	0	0	0	0
16.58299	0.04155971	-0.006722894	0	0	0	0
16.59956	0.04155971	-0.006722894	0	0	0	0
16.61626	0.04155971	-0.006722894	0	0	0	0
16.63269	0.04155971	-0.006722894	0	0	0	0
16.64926	0.04155971	-0.006722894	0	0	0	0
16.66582	0.04155971	-0.006722894	0	0	0	0
16.68295	0.04155971	-0.006722894	0	0	0	0
16.69896	0.04155971	-0.006722894	0	0	0	0
16.71592	0.04155971	-0.006722894	0	0	0	0
16.73209	0.04155971	-0.006722894	0	0	0	0
16.74878	0.04155971	-0.006722894	0	0	0	0
16.7654	0.04155971	-0.006722894	0	0	0	0
16.78179	0.04155971	-0.006722894	0	0	0	0
16.79836	0.04155971	-0.006722894	0	0	0	0
16.81514	0.04155971	-0.006722894	0	0	0	0
16.83171	0.04155971	-0.006722894	0	0	0	0
16.84841	0.04155971	-0.006722894	0	0	0	0
16.86485	0.04155971	-0.006722894	0	0	0	0
16.88141	0.04155971	-0.006722894	0	0	0	0
16.89823	0.04155971	-0.006722894	0	0	0	0
16.91455	0.04155971	-0.006722894	0	0	0	0
16.93111	0.04155971	-0.006722894	0	0	0	0
16.94768	0.04155971	-0.006722894	0	0	0	0
16.96428	0.04155971	-0.006722894	0	0	0	0
16.98082	0.04155971	-0.006722894	0	0	0	0
16.99738	0.04155971	-0.006722894	0	0	0	0
17.01399	0.04155971	-0.006722894	0	0	0	0
17.03052	0.04155971	-0.006722894	0	0	0	0
17.04708	0.04155971	-0.006722894	0	0	0	0
17.06365	0.04155971	-0.006722894	0	0	0	0
17.08022	0.04155971	-0.006722894	0	0	0	0
17.09678	0.04155971	-0.006722894	0	0	0	0
17.11348	0.04155971	-0.006722894	0	0	0	0
17.12992	0.04155971	-0.006722894	0	0	0	0
17.14648	0.04155971	-0.006722894	0	0	0	0
17.16344	0.04155971	-0.006722894	0	0	0	0
17.17962	0.04155971	-0.006722894	0	0	0	0
17.19618	0.04155971	-0.006722894	0	0	0	0
17.2129	0.04155971	-0.006722894	0	0	0	0
17.22974	0.04155971	-0.006722894	0	0	0	0
17.24588	0.04155971	-0.006722894	0	0	0	0
17.26265	0.04155971	-0.006722894	0	0	0	0
17.27901	0.04155971	-0.006722894	0	0	0	0
17.29558	0.04155971	-0.006722894	0	0	0	0
17.31215	0.04155971	-0.006722894	0	0	0	0
17.32871	0.04155971	-0.006722894	0	0	0	0
17.34528	0.04155971	-0.006722894	0	0	0	0
17.36185	0.04155971	-0.006722894	0	0	0	0
17.37841	0.04155971	-0.006722894	0	0	0	0
17.39498	0.04155971	-0.006722894	0	0	0	0
17.41155	0.04155971	-0.006722894	0	0	0	0
17.42811	0.04155971	-0.006722894	0	0	0	0
17.445	0.04155971	-0.006722894	0	0	0	0
17.46157	0.04155971	-0.006722894	0	0	0	0
17.47795	0.04155971	-0.006722894	0	0	0	0
17.49438	0.04155971	-0.006722894	0	0	0	0
17.51095	0.04155971	-0.006722894	0	0	0	0
17.52752	0.04155971	-0.006722894	0	0	0	0
17.54408	0.04155971	-0.006722894	0	0	0	0
17.56106	0.04155971	-0.006722894	0	0	0	0
17.5776	0.04155971	-0.006722894	0	0	0	0
17.59378	0.04155971	-0.006722894	0	0	0	0
17.61048	0.04155971	-0.006722894	0	0	0	0
17.62692	0.04155971	-0.006722894	0	0	0	0
17.64348	0.04155971	-0.006722894	0	0	0	0
17.66005	0.04155971	-0.006722894	0	0	0	0
17.67661	0.04155971	-0.006722894	0	0	0	0
17.69318	0.04155971	-0.006722894	0	0	0	0
17.70978	0.04033737	-0.006722895	-0.07363683	-2.805247E-08	-2.220064	-8.457488E-07
17.72632	0.04033737	-0.006722895	0	0	2.222492	8.466739E-07
17.74293	0.04033737	-0.006722895	0	0	0	0
17.75945	0.04033737	-0.006722895	0	0	0	0
17.77602	0.03911502	-0.006722894	-0.07378095	5.621474E-08	-2.230051	1.699107E-06
17.79258	0.03911502	-0.006722894	0	0	2.226713	-1.696564E-06
17.80915	0.03911502	-0.006722894	0	0	0	0
17.82571	0.03911502	-0.006722894	0	0	0	0
17.84228	0.03911502	-0.006722894	0	0	0	0
17.85885	0.03911502	-0.006722894	0	0	0	0
17.87542	0.03911502	-0.006722894	0	0	0	0
17.89198	0.03911502	-0.006722894	0	0	0	0
17.90855	0.03911502	-0.006722894	0	0	0	0
17.92511	0.03911502	-0.006722894	0	0	0	0
17.94168	0.03911502	-0.006722894	0	0	0	0
17.95825	0.03911502	-0.006722894	0	0	0	0
17.97481	0.03911502	-0.006722894	0	0	0	0
17.99138	0.03911502	-0.006722894	0	0	0	0
18.00795	0.03911502	-0.006722894	0	0	0	0
18.02452	0.03911502	-0.006722894	0	0	0	0
18.04123	0.03911502	-0.006722894	0	0	0	0
18.05778	0.03911502	-0.006722894	0	0	0	0
18.07421	0.03911502	-0.006722894	0	0	0	0
18.09078	0.03911502	-0.006722894	0	0	0	0
18.10735	0.03911502	-0.006722894	0	0	0	0
18.12392	0.03911502	-0.006722894	0	0	0	0
18.14048	0.03911502	-0.006722894	0	0	0	0
18.15705	0.03911502	-0.006722894	0	0	0	0
18.17362	0.03911502	-0.006722894	0	0	0	0
18.19273	0.03911502	-0.006722894	0	0	0	0
18.20938	0.03911502	-0.006722894	0	0	0	0
18.22587	0.03911502	-0.006722894	0	0	0	0
18.24243	0.03911502	-0.006722894	0	0	0	0
18.259	0.03911502	-0.006722894	0	0	0	0
18.27573	0.03911502	-0.006722894	0	0	0	0
18.29214	0.03911502	-0.006722894	0	0	0	0
18.30876	0.03911502	-0.006722894	0	0	0	0
18.32538	0.03911502	-0.006722894	0	0	0	0
18.34188	0.03911502	-0.006722894	0	0	0	0
18.35841	0.03911502	-0.006722894	0	0	0	0
18.37504	0.03911502	-0.006722894	0	0	0	0
18.39153	0.03911502	-0.006722894	0	0	0	0
18.40885	0.03911502	-0.006722894	0	0	0	0
18.42512	0.03911502	-0.006722894	0	0	0	0
18.44169	0.03911502	-0.006722894	0	0	0	0
18.45826	0.03911502	-0.006722894	0	0	0	0
18.4751	0.03911502	-0.006722894	0	0	0	0
18.49163	0.03911502	-0.006722894	0	0	0	0
18.50812	0.03911502	-0.006722894	0	0	0	0
18.52452	0.03911502	-0.006722894	0	0	0	0
18.54111	0.03911502	-0.006722894	0	0	0	0
18.5577	0.03911502	-0.006722894	0	0	0	0
18.57422	0.03911502	-0.006722894	0	0	0	0
18.59079	0.03911502	-0.006722894	0	0	0	0
18.60736	0.03911502	-0.006722894	0	0	0	0
18.62392	0.03911502	-0.006722894	0	0	0	0
18.64049	0.03911502	-0.006722894	0	0	0	0
18.6572	0.03911502	-0.006722894	0	0	0	0
18.67362	0.03911502	-0.006722894	0	0	0	0
18.69019	0.03911502	-0.006722894	0	0	0	0
18.70676	0.03911502	-0.006722894	0	0	0	0
18.72372	0.03911502	-0.006722894	0	0	0	0
18.73989	0.03911502	-0.006722894	0	0	0	0
18.75677	0.03911502	-0.006722894	0	0	0	0
18.77369	0.03911502	-0.006722894	0	0	0	0
18.79026	0.03911502	-0.006722894	0	0	0	0
18.80715	0.03911502	-0.006722894	0	0	0	0
18.82371	0.03911502	-0.006722894	0	0	0	0
18.84008	0.03911502	-0.006722894	0	0	0	0
18.85653	0.03911502	-0.006722894	0	0	0	0
18.87309	0.03911502	-0.006722894	0	0	0	0
18.88984	0.03911502	-0.006722894	0	0	0	0
18.90635	0.03911502	-0.006722894	0	0	0	0
18.92296	0.03911502	-0.006722894	0	0	0	0
18.9395	0.03911502	-0.006722894	0	0	0	0
18.95593	0.03911502	-0.006722894	0	0	0	0
18.97279	0.03911502	-0.006722894	0	0	0	0
18.98906	0.03911502	-0.006722894	0	0	0	0
19.00563	0.03911502	-0.006722894	0	0	0	0
19.02219	0.03911502	-0.006722894	0	0	0	0
19.03876	0.03911502	-0.006722894	0	0	0	0
19.05533	0.03911502	-0.006722894	0	0	0	0
19.07189	0.03911502	-0.006722894	0	0	0	0
19.08846	0.03911502	-0.006722894	0	0	0	0
19.10503	0.03911502	-0.006722894	0	0	0	0
19.12159	0.03911502	-0.006722894	0	0	0	0
19.13816	0.03911502	-0.006722894	0	0	0	0
19.15534	0.03911502	-0.006722894	0	0	0	0
19.17129	0.03911502	-0.006722894	0	0	0	0
19.18786	0.03911502	-0.006722894	0	0	0	0
19.20456	0.03911502	-0.006722894	0	0	0	0
19.22099	0.03911502	-0.006722894	0	0	0	0
19.238	0.03911502	-0.006722894	0	0	0	0
19.25413	0.03911502	-0.006722894	0	0	0	0
19.27164	0.03911502	-0.006722894	0	0	0	0
19.28746	0.03911502	-0.006722894	0	0	0	0
19.30418	0.03911502	-0.006722894	0	0	0	0
19.3204	0.03911502	-0.006722894	0	0	0	0
19.33699	0.03911502	-0.006722894	0	0	0	0
19.3539	0.03911502	-0.006722894	0	0	0	0
19.3701	0.03911502	-0.006722894	0	0	0	0
19.38667	0.03911502	-0.006722894	0	0	0	0
19.40323	0.03911502	-0.006722894	0	0	0	0
19.4198	0.03911502	-0.006722894	0	0	0	0
19.43647	0.03911502	-0.006722894	0	0	0	0
19.45307	0.03911502	-0.006722894	0	0	0	0
19.4695	0.03911502	-0.006722894	0	0	0	0
19.4865	0.03911502	-0.006722894	0	0	0	0
19.50263	0.03911502	-0.006722894	0	0	0	0
19.51959	0.03911502	-0.006722894	0	0	0	0
19.53576	0.03911502	-0.006722894	0	0	0	0
19.55272	0.03911502	-0.006722894	0	0	0	0
19.56925	0.03911502	-0.006722894	0	0	0	0
19.58546	0.03911502	-0.006722894	0	0	0	0
19.60207	0.03911502	-0.006722894	0	0	0	0
19.61859	0.03911502	-0.006722894	0	0	0	0
19.63557	0.03911502	-0.006722894	0	0	0	0
19.65172	0.03911502	-0.006722894	0	0	0	0
19.66829	0.03911502	-0.006722894	0	0	0	0
19.68486	0.03911502	-0.006722894	0	0	0	0
19.70143	0.03911502	-0.006722894	0	0	0	0
19.71799	0.03911502	-0.006722894	0	0	0	0
19.73456	0.03911502	-0.006722894	0	0	0	0
19.75113	0.03911502	-0.006722894	0	0	0	0
19.76781	0.03911502	-0.006722894	0	0	0	0
19.78426	0.03911502	-0.006722894	0	0	0	0
19.80083	0.03911502	-0.006722894	0	0	0	0
19.81807	0.03911502	-0.006722894	0	0	0	0
19.83488	0.03911502	-0.006722894	0	0	0	0
19.85121	0.03911502	-0.006722894	0	0	0	0
19.86777	0.03911502	-0.006722894	0	0	0	0
19.88434	0.03911502	-0.006722894	0	0	0	0
19.90091	0.03911502	-0.006722894	0	0	0	0
19.91747	0.03911502	-0.006722894	0	0	0	0
19.93425	0.03911502	-0.006722894	0	0	0	0
19.95061	0.03911502	-0.006722894	0	0	0	0
19.96718	0.03911502	-0.006722894	0	0	0	0
19.98374	0.03911502	-0.006722894	0	0	0	0
20.0005	0.03911502	-0.006722894	0	0	0	0
20.01688	0.03911502	-0.006722894	0	0	0	0
20.03393	0.03911502	-0.006722894	0	0	0	0
20.05001	0.03911502	-0.006722894	0	0	0	0
20.06658	0.03911502	-0.006722894	0	0	0	0
20.08405	0.03911502	-0.006722894	0	0	0	0
20.09971	0.03911502	-0.006722894	0	0	0	0
20.11628	0.03911502	-0.006722894	0	0	0	0
20.13285	0.03911502	-0.006722894	0	0	0	0
20.14952	0.03911502	-0.006722894	0	0	0	0
20.16626	0.03911502	-0.006722894	0	0	0	0
20.18255	0.03911502	-0.006722894	0	0	0	0
20.19911	0.03911502	-0.006722894	0	0	0	0
20.21611	0.03911502	-0.006722894	0	0	0	0
20.23225	0.03911502	-0.006722894	0	0	0	0
20.24911	0.03911502	-0.006722894	0	0	0	0
20.26624	0.03911502	-0.006722894	0	0	0	0
20.28195	0.03911502	-0.006722894	0	0	0	0
20.29868	0.03911502	-0.006722894	0	0	0	0
20.31508	0.03911502	-0.006722894	0	0	0	0
20.33165	0.03911502	-0.006722894	0	0	0	0
20.34822	0.03911502	-0.006722894	0	0	0	0
20.36478	0.03911502	-0.006722894	0	0	0	0
20.38135	0.03911502	-0.006722894	0	0	0	0
20.39792	0.03911502	-0.006722894	0	0	0	0
20.41448	0.03911502	-0.006722894	0	0	0	0
20.43105	0.03911502	-0.006722894	0	0	0	0
20.44798	0.03911502	-0.006722894	0	0	0	0
20.46419	0.03911502	-0.006722894	0	0	0	0
20.48076	0.03911502	-0.006722894	0	0	0	0
20.49732	0.04033737	-0.006722895	0.07382344	-5.624712E-08	2.228124	-1.697639E-06
20.51429	0.05256081	-0.01527931	0.7203106	-0.5042176	19.28237	-15.03898
20.53045	0.06967364	-0.02750275	1.058774	-0.7562671	10.21543	-7.607307
20.54702	0.106344	-0.06539543	2.213426	-2.287206	35.27799	-46.77466
20.56359	0.1320132	-0.09106467	1.549398	-1.549398	-20.0404	22.26709
20.58015	0.1576824	-0.1118445	1.549398	-1.254275	0	8.906855
20.59672	0.1784623	-0.1289573	1.254419	-1.03305	-8.902981	6.676958
20.6133	0.1894634	-0.1362914	0.6633401	-0.4422279	-17.8306	17.82284
20.62985	0.1919081	-0.1387361	0.1477145	-0.1477145	-15.56161	8.888433
20.64643	0.1919081	-0.1387361	0	0	-4.459573	4.459573
20.66298	0.1919081	-0.1387361	0	0	0	0
20.67955	0.1955751	-0.1399584	0.2213431	-0.07378072	6.68207	-2.227348
20.69612	0.1980198	-0.1424031	0.1475784	-0.1475784	-2.226349	-2.227348
20.71268	0.2029092	-0.1448478	0.2951238	-0.1475614	4.453184	0.000512708
20.72925	0.2053539	-0.1472925	0.1475624	-0.1475632	-4.453413	-5.441587E-05
20.74582	0.2090209	-0.1497372	0.2213158	-0.1475445	2.225755	0.0005670617
20.76238	0.2102433	-0.1509596	0.07379012	-0.07378922	-4.452334	2.225938
20.77895	0.2114656	-0.1509596	0.07377223	0	-0.0005398864	2.226963
20.79552	0.2114656	-0.1509596	0	0	-2.226322	0
20.81209	0.2114656	-0.1509596	0	0	0	0
20.83312	0.2126879	-0.1509596	0.05812256	0	1.545988	0
20.84969	0.2126879	-0.1509596	0	0	-1.545752	0
20.86625	0.2126879	-0.1509596	0	0	0	0
20.88302	0.2126879	-0.1509596	0	0	0	0
20.89939	0.2126879	-0.1509596	0	0	0	0
20.91595	0.2126879	-0.1509596	0	0	0	0
20.93252	0.2126879	-0.1509596	0	0	0	0
20.94921	0.2126879	-0.1509596	0	0	0	0
20.96586	0.2126879	-0.1509596	0	0	0	0
20.98222	0.2126879	-0.1509596	0	0	0	0
20.99882	0.2126879	-0.1509596	0	0	0	0
21.01547	0.2126879	-0.1509596	0	0	0	0
21.03197	0.2139103	-0.1521819	0.07406391	-0.0740621	2.233967	-2.233913
21.04851	0.2151326	-0.1521819	0.07391598	0	-0.004477203	2.241521
21.06515	0.2175773	-0.1546266	0.1469346	-0.1469355	2.201047	-4.429169
21.08165	0.2224667	-0.1558489	0.2962845	-0.07407156	4.506608	2.198659
21.09824	0.2334678	-0.159516	0.663036	-0.2210114	11.08198	-4.440021
21.11476	0.2444689	-0.1607383	0.666174	-0.07401843	0.09478705	4.440091
21.13132	0.2481359	-0.1607383	0.2213431	0	-13.4467	2.237487
21.14789	0.2493583	-0.1607383	0.07379682	-8.99643E-07	-4.453468	-2.71544E-05
21.16489	0.2505806	-0.1619606	0.07190165	-0.07190165	-0.05646493	-2.142223
21.18102	0.2505806	-0.1619606	0	0	-2.169746	2.169746
21.20013	0.2505806	-0.1619606	0	0	0	0
21.2167	0.2505806	-0.1619606	0	0	0	0
21.23336	0.2505806	-0.1619606	0	0	0	0
21.24983	0.2505806	-0.1619606	0	0	0	0
21.26643	0.2505806	-0.1619606	0	0	0	0
21.28425	0.2505806	-0.1619606	0	0	0	0
21.30081	0.2505806	-0.1619606	0	0	0	0
21.31802	0.2505806	-0.1619606	0	0	0	0
21.33395	0.2505806	-0.1619606	0	0	0	0
21.35052	0.2505806	-0.1619606	0	0	0	0
21.36719	0.2505806	-0.1619606	0	0	0	0
21.38435	0.2505806	-0.1619606	0	0	0	0
21.40058	0.2493583	-0.1619606	-0.07531456	9.181455E-07	-2.255213	2.749287E-05
21.41679	0.2456912	-0.1619606	-0.2262931	0	-4.654879	-2.830771E-05
21.434	0.2359125	-0.1582936	-0.5682016	0.2130744	-10.23223	6.37664
21.44992	0.2224667	-0.1521819	-0.844348	0.383796	-8.334113	5.152387
21.46648	0.1980198	-0.1387361	-1.475958	0.8117749	-19.44141	13.1735
21.48306	0.1430143	-0.1057328	-3.319374	1.991625	-55.6344	35.60796
21.49962	0.1271238	-0.09717639	-0.9592625	0.5165254	71.22419	-44.51604
21.51618	0.1002322	-0.08128591	-1.623552	0.9593721	-20.05177	13.36745
21.53275	0.06722895	-0.06295074	-1.991853	1.106586	-11.11598	4.443172
21.54951	0.05256081	-0.0507273	-0.8750945	0.7292448	33.50519	-11.32105
21.56588	0.04644909	-0.04583792	-0.3733746	0.2986998	15.14368	-12.99537
21.58245	0.0440044	-0.04461557	-0.1475619	0.07378095	6.856085	-6.828946
21.59902	0.0440044	-0.04217089	2.248331E-07	0.1475447	4.453177	2.226066
21.61625	0.04278206	-0.04217089	-0.07093097	0	-2.09843	-4.364965
21.63215	0.04278206	-0.04217089	0	0	2.141071	0
21.64872	0.04155971	-0.04094854	-0.07376397	0.07376397	-2.271975	2.271975
21.66528	0.04155971	-0.03972619	0	0.07379794	2.226201	0.001025357
21.68193	0.04155971	-0.03850385	0	0.0734341	0	-0.01095617
21.69846	0.04033737	-0.03483682	-0.07392564	0.2217767	-2.228002	4.470811
21.71504	0.03911502	-0.03116979	-0.07372131	0.2211643	0.006170084	-0.01849315
21.73155	0.03789268	-0.02628041	-0.07404521	0.2961805	-0.009788818	2.267127
21.74826	0.03544799	-0.01894634	-0.1462982	0.4388955	-2.175091	4.296264
21.76469	0.03422565	-0.01405696	-0.07442357	0.2976939	2.169182	-4.26147
21.78368	0.0330033	-0.009167584	-0.06436289	0.2574513	0.2840743	-1.136296
21.80025	0.03055861	-0.006722895	-0.1475617	0.1475617	-2.339759	-3.090371
21.81681	0.03055861	-0.006722895	0	0	4.453164	-4.453165
21.83338	0.03055861	-0.006722895	0	0	0	0
21.84995	0.03055861	-0.006722895	0	0	0	0
21.86651	0.03055861	-0.006722895	0	0	0	0
21.88308	0.03055861	-0.006722895	0	0	0	0
21.89964	0.03055861	-0.006722895	0	0	0	0
21.91621	0.03055861	-0.006722895	0	0	0	0
21.93278	0.03055861	-0.006722895	0	0	0	0
21.94934	0.03055861	-0.006722895	0	0	0	0
21.96602	0.03055861	-0.006722895	0	0	0	0
21.98248	0.03055861	-0.006722895	0	0	0	0
21.99966	0.03055861	-0.006722895	0	0	0	0
22.01561	0.03055861	-0.006722895	0	0	0	0
22.03218	0.03055861	-0.006722895	0	0	0	0
22.04916	0.03055861	-0.006722895	0	0	0	0
22.06531	0.03055861	-0.006722895	0	0	0	0
22.08268	0.03055861	-0.006722895	0	0	0	0
22.09844	0.03055861	-0.006722895	0	0	0	0
22.11501	0.03055861	-0.006722895	0	0	0	0
22.13157	0.03055861	-0.006722895	0	0	0	0
22.14865	0.03055861	-0.006722895	0	0	0	0
22.16471	0.03055861	-0.006722895	0	0	0	0
22.18128	0.03055861	-0.006722895	0	0	0	0
22.19784	0.03055861	-0.006722895	0	0	0	0
22.21441	0.03055861	-0.006722895	0	0	0	0
22.23098	0.03055861	-0.006722895	0	0	0	0
22.24754	0.03055861	-0.006722895	0	0	0	0
22.26411	0.03055861	-0.006722895	0	0	0	0
22.28068	0.02933627	-0.006722895	-0.07378083	0	-2.22671	0
22.29724	0.02933627	-0.006722895	0	0	2.226838	0
22.31381	0.02933627	-0.006722895	0	0	0	0
22.33038	0.02933627	-0.006722895	0	0	0	0
22.34697	0.02933627	-0.006722895	0	0	0	0
22.36351	0.02933627	-0.006722895	0	0	0	0
22.38008	0.02933627	-0.006722895	0	0	0	0
22.39664	0.02933627	-0.006722895	0	0	0	0
22.41321	0.02933627	-0.006722895	0	0	0	0
22.4299	0.02933627	-0.006722895	0	0	0	0
22.44637	0.02933627	-0.00550055	1.130804E-07	0.07420804	3.410026E-06	2.2378
22.46292	0.02933627	-0.00550055	0	0	-3.424206E-06	-2.247105
22.47948	0.02933627	-0.00550055	0	0	0	0
22.52868	0.02933627	-0.00550055	0	0	0	0
22.54525	0.02933627	-0.004278205	-2.248072E-07	0.07376391	-3.417727E-06	1.121427
22.56229	0.02933627	-0.004278205	0	0	6.689201E-06	-2.194865
22.57839	0.02933627	-0.004278205	0	0	0	0
22.59509	0.02933627	-0.004278205	0	0	0	0
22.61176	0.02933627	-0.004278205	0	0	0	0
22.62872	0.02933627	-0.004278205	0	0	0	0
22.64501	0.02933627	-0.004278205	0	0	0	0
22.66122	0.02933627	-0.004278205	0	0	0	0
22.67778	0.02933627	-0.004278205	0	0	0	0
22.69435	0.02933627	-0.004278205	0	0	0	0
22.71092	0.02933627	-0.004278205	0	0	0	0
22.72749	0.02933627	-0.004278205	0	0	0	0
22.74485	0.02933627	-0.004278205	0	0	0	0
22.76062	0.02933627	-0.004278205	0	0	0	0
22.77799	0.02933627	-0.004278205	0	0	0	0
22.79456	0.02933627	-0.004278205	0	0	0	0
22.81116	0.02933627	-0.004278205	0	0	0	0
22.828	0.02933627	-0.004278205	0	0	0	0
22.84426	0.02933627	-0.004278205	0	0	0	0
22.86096	0.02933627	-0.004278205	0	0	0	0
22.8774	0.02933627	-0.004278205	0	0	0	0
22.89397	0.02933627	-0.004278205	0	0	0	0
22.91053	0.02933627	-0.004278205	0	0	0	0
22.92711	0.02933627	-0.004278205	0	0	0	0
22.94367	0.02933627	-0.004278205	0	0	0	0
22.96023	0.02933627	-0.004278205	0	0	0	0
22.9768	0.02933627	-0.003055861	2.24859E-07	0.07378083	6.786257E-06	2.22671
22.99384	0.02933627	-0.003055861	0	0	-6.691121E-06	-2.195494
23.00993	0.02933627	-0.003055861	0	0	0	0
23.02659	0.02933627	-0.003055861	0	0	0	0
23.04307	0.02933627	-0.003055861	0	0	0	0
23.05963	0.02933627	-0.003055861	0	0	0	0
23.07619	0.02933627	-0.003055861	0	0	0	0
23.09276	0.02933627	-0.003055861	0	0	0	0
23.10956	0.02933627	-0.003055861	0	0	0	0
23.1259	0.02933627	-0.003055861	0	0	0	0
23.14288	0.02933627	-0.003055861	0	0	0	0
23.15935	0.02933627	-0.003055861	0	0	0	0
23.1756	0.02933627	-0.003055861	0	0	0	0
23.19217	0.02933627	-0.003055861	0	0	0	0
23.20902	0.02933627	-0.003055861	0	0	0	0
23.2253	0.02933627	-0.003055861	0	0	0	0
23.24187	0.02933627	-0.003055861	0	0	0	0
23.25843	0.02933627	-0.003055861	0	0	0	0
23.275	0.02933627	-0.003055861	0	0	0	0
23.29156	0.02933627	-0.003055861	0	0	0	0
23.30846	0.02933627	-0.003055861	0	0	0	0
23.3247	0.02933627	-0.003055861	0	0	0	0
23.34127	0.02933627	-0.003055861	0	0	0	0
23.35783	0.02933627	-0.003055861	0	0	0	0
23.3744	0.02933627	-0.003055861	0	0	0	0
23.3911	0.02933627	-0.003055861	0	0	0	0
23.40753	0.02933627	-0.003055861	0	0	0	0
23.4241	0.02933627	-0.003055861	0	0	0	0
23.44067	0.02933627	-0.003055861	0	0	0	0
23.45723	0.02933627	-0.003055861	0	0	0	0
23.4738	0.02933627	-0.003055861	0	0	0	0
23.49037	0.02933627	-0.003055861	0	0	0	0
23.5121	0.02933627	-0.003055861	0	0	0	0
23.52867	0.02933627	-0.003055861	0	0	0	0
23.54523	0.02933627	-0.003055861	0	0	0	0
23.56201	0.02933627	-0.003055861	0	0	0	0
23.57837	0.02933627	-0.003055861	0	0	0	0
23.59494	0.02933627	-0.003055861	0	0	0	0
23.6115	0.02933627	-0.003055861	0	0	0	0
23.62811	0.02933627	-0.003055861	0	0	0	0
23.64466	0.02933627	-0.003055861	0	0	0	0
23.6612	0.02933627	-0.003055861	0	0	0	0
23.67788	0.02933627	-0.003055861	0	0	0	0
23.69433	0.02933627	-0.003055861	0	0	0	0
23.71184	0.02933627	-0.003055861	0	0	0	0
23.72841	0.02933627	-0.003055861	0	0	0	0
23.74574	0.02933627	-0.003055861	0	0	0	0
23.7623	0.02933627	-0.003055861	0	0	0	0
23.78127	0.02933627	-0.003055861	0	0	0	0
23.79784	0.02933627	-0.003055861	0	0	0	0
23.8144	0.02933627	-0.003055861	0	0	0	0
23.83097	0.02933627	-0.003055861	0	0	0	0
23.84754	0.02933627	-0.003055861	0	0	0	0
23.86411	0.02933627	-0.003055861	0	0	0	0
23.88067	0.02933627	-0.003055861	0	0	0	0
23.89724	0.02933627	-0.003055861	0	0	0	0
23.91381	0.02933627	-0.003055861	0	0	0	0
23.93037	0.02933627	-0.003055861	0	0	0	0
23.94694	0.02933627	-0.003055861	0	0	0	0
23.96351	0.02933627	-0.003055861	0	0	0	0
23.98007	0.02933627	-0.003055861	0	0	0	0
23.99664	0.02933627	-0.003055861	0	0	0	0
24.01321	0.02933627	-0.003055861	0	0	0	0
24.03007	0.02933627	-0.003055861	0	0	0	0
24.04663	0.02933627	-0.003055861	0	0	0	0
24.06374	0.02933627	-0.003055861	0	0	0	0
24.07947	0.02933627	-0.003055861	0	0	0	0
24.09604	0.02933627	-0.003055861	0	0	0	0
24.11261	0.02933627	-0.003055861	0	0	0	0
24.12929	0.02933627	-0.003055861	0	0	0	0
24.14574	0.02933627	-0.003055861	0	0	0	0
24.16231	0.02933627	-0.003055861	0	0	0	0
24.17887	0.02933627	-0.003055861	0	0	0	0
24.19544	0.02933627	-0.003055861	0	0	0	0
24.21201	0.02933627	-0.003055861	0	0	0	0
24.22857	0.02933627	-0.003055861	0	0	0	0
24.24514	0.02933627	-0.003055861	0	0	0	0
24.26171	0.02933627	-0.003055861	0	0	0	0
24.27827	0.02933627	-0.003055861	0	0	0	0
24.29484	0.02933627	-0.003055861	0	0	0	0
24.31141	0.02933627	-0.003055861	0	0	0	0
24.32813	0.02933627	-0.003055861	0	0	0	0
24.34454	0.02933627	-0.003055861	0	0	0	0
24.36127	0.02933627	-0.003055861	0	0	0	0
24.37767	0.02933627	-0.003055861	0	0	0	0
24.39424	0.02933627	-0.003055861	0	0	0	0
24.41081	0.02933627	-0.003055861	0	0	0	0
24.42738	0.02933627	-0.003055861	0	0	0	0
24.44394	0.02933627	-0.003055861	0	0	0	0
24.46051	0.02933627	-0.003055861	0	0	0	0
24.47708	0.02933627	-0.003055861	0	0	0	0
24.49364	0.02933627	-0.003055861	0	0	0	0
24.51021	0.02933627	-0.003055861	0	0	0	0
24.52768	0.02933627	-0.003055861	0	0	0	0
24.54334	0.02933627	-0.003055861	0	0	0	0
24.56029	0.02933627	-0.003055861	0	0	0	0
24.57648	0.02933627	-0.003055861	0	0	0	0
24.59315	0.02933627	-0.003055861	0	0	0	0
24.60961	0.02933627	-0.003055861	0	0	0	0
24.62618	0.02933627	-0.003055861	0	0	0	0
24.64274	0.02933627	-0.003055861	0	0	0	0
24.65931	0.02933627	-0.003055861	0	0	0	0
24.67588	0.02933627	-0.003055861	0	0	0	0
24.69245	0.02933627	-0.003055861	0	0	0	0
24.70934	0.02933627	-0.003055861	0	0	0	0
24.72558	0.02933627	-0.003055861	0	0	0	0
24.74223	0.02933627	-0.003055861	0	0	0	0
24.75871	0.02933627	-0.003055861	0	0	0	0
24.77528	0.02933627	-0.003055861	0	0	0	0
24.79185	0.02933627	-0.003055861	0	0	0	0
24.80841	0.02933627	-0.003055861	0	0	0	0
24.82498	0.02933627	-0.003055861	0	0	0	0
24.84197	0.02933627	-0.003055861	0	0	0	0
24.85811	0.02933627	-0.003055861	0	0	0	0
24.87468	0.02933627	-0.003055861	0	0	0	0
24.89228	0.02933627	-0.003055861	0	0	0	0
24.90885	0.02933627	-0.003055861	0	0	0	0
24.92542	0.02933627	-0.003055861	0	0	0	0
24.94198	0.02933627	-0.003055861	0	0	0	0
24.95933	0.02933627	-0.003055861	0	0	0	0
24.97589	0.02933627	-0.003055861	0	0	0	0
24.99246	0.02933627	-0.003055861	0	0	0	0
25.00949	0.02933627	-0.003055861	0	0	0	0
25.02559	0.02933627	-0.003055861	0	0	0	0
25.04216	0.02933627	-0.003055861	0	0	0	0
25.05873	0.02933627	-0.003055861	0	0	0	0
25.07529	0.02933627	-0.003055861	0	0	0	0
25.09186	0.02933627	-0.003055861	0	0	0	0
25.10843	0.02933627	-0.003055861	0	0	0	0
25.12499	0.02933627	-0.003055861	0	0	0	0
25.14156	0.02933627	-0.003055861	0	0	0	0
25.15813	0.02933627	-0.003055861	0	0	0	0
25.17534	0.02933627	-0.003055861	0	0	0	0
25.19126	0.02933627	-0.003055861	0	0	0	0
25.20783	0.02933627	-0.003055861	0	0	0	0
25.2244	0.02933627	-0.003055861	0	0	0	0
25.24272	0.02933627	-0.003055861	0	0	0	0
25.25929	0.02933627	-0.003055861	0	0	0	0
25.27625	0.02933627	-0.003055861	0	0	0	0
25.29243	0.02933627	-0.003055861	0	0	0	0
25.30925	0.02933627	-0.003055861	0	0	0	0
25.32621	0.02933627	-0.003055861	0	0	0	0
25.34213	0.02933627	-0.003055861	0	0	0	0
25.35903	0.02933627	-0.003055861	0	0	0	0
25.37526	0.02933627	-0.003055861	0	0	0	0
25.39186	0.02933627	-0.003055861	0	0	0	0
25.40839	0.02933627	-0.003055861	0	0	0	0
25.42496	0.02933627	-0.003055861	0	0	0	0
25.44153	0.02933627	-0.003055861	0	0	0	0
25.45811	0.02933627	-0.003055861	0	0	0	0
25.47466	0.02933627	-0.003055861	0	0	0	0
25.4915	0.02933627	-0.003055861	0	0	0	0
25.5078	0.02933627	-0.003055861	0	0	0	0
25.52436	0.02933627	-0.003055861	0	0	0	0
25.54093	0.02933627	-0.003055861	0	0	0	0
25.55756	0.02933627	-0.003055861	0	0	0	0
25.57416	0.02933627	-0.003055861	0	0	0	0
25.59063	0.02933627	-0.003055861	0	0	0	0
25.6072	0.02933627	-0.003055861	0	0	0	0
25.62376	0.02933627	-0.003055861	0	0	0	0
25.64056	0.02933627	-0.003055861	0	0	0	0
25.6569	0.02933627	-0.003055861	0	0	0	0
25.67367	0.02933627	-0.003055861	0	0	0	0
25.69003	0.02933627	-0.003055861	0	0	0	0
25.7066	0.02933627	-0.003055861	0	0	0	0
25.72316	0.02933627	-0.003055861	0	0	0	0
25.73973	0.02933627	-0.003055861	0	0	0	0
25.7563	0.02933627	-0.003055861	0	0	0	0
25.77287	0.02933627	-0.003055861	0	0	0	0
25.78975	0.02933627	-0.003055861	0	0	0	0
25.80627	0.02933627	-0.003055861	0	0	0	0
25.82322	0.02933627	-0.003055861	0	0	0	0
25.83978	0.02933627	-0.003055861	0	0	0	0
25.85635	0.02933627	-0.003055861	0	0	0	0
25.87292	0.02933627	-0.003055861	0	0	0	0
25.88948	0.03055861	-0.01161227	0.07380611	-0.5166444	2.227601	-15.59326
25.90605	0.0330033	-0.03483681	0.1475618	-1.401836	2.226335	-26.71975
25.92289	0.03789268	-0.06295074	0.2902776	-1.669097	4.271518	-7.999172
25.93965	0.05622785	-0.1191786	1.094241	-3.355673	23.9276	-50.19594
25.95575	0.07578536	-0.1888522	1.214614	-4.327062	3.663424	-29.56334
25.97311	0.1002322	-0.2475247	1.408484	-3.380361	5.794322	28.2946
25.98889	0.1222344	-0.2976409	1.394522	-3.176414	-0.4213749	6.155142
26.00545	0.1307909	-0.3257548	0.5164664	-1.696958	-27.14672	45.74011
26.02202	0.1393473	-0.347757	0.516466	-1.328057	-1.439097E-05	11.13348
26.03868	0.1442366	-0.3599804	0.293501	-0.7337524	-6.710556	17.88672
26.05515	0.1442367	-0.3648698	9.045386E-07	-0.296799	-8.858359	13.18804
26.07172	0.145459	-0.3648698	0.07377223	0	2.232592	8.98223
26.08829	0.145459	-0.3648698	0	0	-2.226322	0
26.10852	0.145459	-0.3648698	0	0	0	0
26.12509	0.145459	-0.3648698	0	0	0	0
26.14166	0.145459	-0.3648698	0	0	0	0
26.15822	0.145459	-0.3648698	0	0	0	0
26.17479	0.145459	-0.3648698	0	0	0	0
26.19138	0.145459	-0.3648698	0	0	0	0
26.21586	0.145459	-0.3648698	0	0	0	0
26.23266	0.145459	-0.3648698	0	0	0	0
26.24899	0.145459	-0.3648698	0	0	0	0
26.26556	0.145459	-0.3648698	0	0	0	0
26.28213	0.145459	-0.3648698	0	0	0	0
26.29869	0.145459	-0.3636475	8.995394E-07	0.07378922	2.714972E-05	2.227091
26.31527	0.1430143	-0.3575358	-0.1474444	0.3686066	-4.448372	8.894533
26.33184	0.1393473	-0.3465347	-0.2213167	0.6639519	-2.228443	8.909436
26.34839	0.1320132	-0.3281995	-0.4430924	1.107733	-6.695903	13.39874
26.36496	0.1210121	-0.2988632	-0.6641048	1.770945	-6.673623	20.02615
26.38153	0.0880088	-0.2267449	-1.992084	4.353071	-40.08079	77.9332
26.39816	0.07456301	-0.198631	-0.8080542	1.689569	35.65609	-80.20921
26.41466	0.05622784	-0.1582936	-1.111576	2.445466	-9.160301	22.81303
26.43122	0.04644909	-0.1375138	-0.5903147	1.254419	15.76709	-36.02674
26.44794	0.03911502	-0.124068	-0.4388956	0.8046416	4.550455	-13.51674
26.46436	0.03422565	-0.1130669	-0.2977284	0.6698892	4.260679	-4.06707
26.48092	0.02933627	-0.09962107	-0.2951235	0.8115898	0.07896244	4.295323
26.49758	0.02811392	-0.0947317	-0.07340909	0.2936359	6.674448	-15.59239
26.51418	0.02689158	-0.09106467	-0.07363661	0.2209098	-0.006842492	-2.187197
26.53062	0.02566923	-0.08861997	-0.07432011	0.1486404	-0.02068288	-2.186885
26.54719	0.02566924	-0.08739763	2.248072E-07	0.07376329	2.250896	-2.26776
26.56376	0.02566923	-0.08495294	-1.124295E-07	0.1475619	-1.017665E-05	2.22699
26.58032	0.02566923	-0.08128591	0	0.2213936	3.393519E-06	2.228502
26.59696	0.02322455	-0.07639653	-0.1469526	0.2939052	-4.426375	2.184131
26.61346	0.02322455	-0.07272949	0	0.22229	4.435294	-2.161477
26.63002	0.02322455	-0.07028481	1.124295E-07	0.147561	3.400371E-06	-2.260139
26.64675	0.02322455	-0.06784012	-1.113653E-07	0.1461652	-6.722024E-06	-0.04192477
26.66324	0.0220022	-0.06417309	-0.07411361	0.2223409	-2.231099	2.29318
26.67976	0.02077986	-0.06050605	-0.07398526	0.2219559	0.003887519	-0.01166211
26.69678	0.02077986	-0.05806137	0	0.1436584	2.205959	-2.334533
26.71286	0.02077986	-0.05806137	0	0	0	-4.341118
26.72942	0.02077986	-0.05806137	0	0	0	0
26.74599	0.02077986	-0.05806137	0	0	0	0
26.76265	0.02077986	-0.05806137	0	0	0	0
26.78169	0.02077986	-0.05806137	0	0	0	0
26.79826	0.02077986	-0.05806137	0	0	0	0
26.81482	0.02077986	-0.05806137	0	0	0	0
26.83172	0.02077986	-0.05806137	0	0	0	0
26.84795	0.02077986	-0.05806137	0	0	0	0
26.86452	0.02077986	-0.05806137	0	0	0	0
26.88109	0.02077986	-0.05806137	0	0	0	0
26.89793	0.02077986	-0.05806137	0	0	0	0
26.91422	0.02077986	-0.05806137	0	0	0	0
26.93092	0.02077986	-0.05806137	0	0	0	0
26.94736	0.02077986	-0.05806137	0	0	0	0
26.96392	0.02077986	-0.05806137	0	0	0	0
26.98067	0.02077986	-0.05806137	0	0	0	0
26.9972	0.02077986	-0.05806137	0	0	0	0
27.01362	0.02077986	-0.05806137	0	0	0	0
27.03019	0.02077986	-0.05806137	0	0	0	0
27.04676	0.02077986	-0.05806137	0	0	0	0
27.06379	0.02077986	-0.05806137	0	0	0	0
27.07989	0.02077986	-0.05806137	0	0	0	0
27.09682	0.02077986	-0.05806137	0	0	0	0
27.11309	0.02077986	-0.05806137	0	0	0	0
27.12959	0.02077986	-0.05806137	0	0	0	0
27.14615	0.02077986	-0.05806137	0	0	0	0
27.1629	0.02077986	-0.05806137	0	0	0	0
27.17973	0.02077986	-0.05806137	0	0	0	0
27.19604	0.02077986	-0.05806137	0	0	0	0
27.2126	0.02077986	-0.05806137	0	0	0	0
27.22951	0.02077986	-0.05806137	0	0	0	0
27.24574	0.02077986	-0.05806137	0	0	0	0
27.2627	0.02077986	-0.05806137	0	0	0	0
27.27887	0.02077986	-0.05806137	0	0	0	0
27.29544	0.02077986	-0.05806137	0	0	0	0
27.3127	0.02077986	-0.05806137	0	0	0	0
27.32857	0.02077986	-0.05806137	0	0	0	0
27.34537	0.02077986	-0.05683902	-1.108974E-07	0.07277553	-3.394767E-06	2.227789
27.3617	0.02077986	-0.05439433	1.140045E-07	0.1496288	6.787553E-06	2.319438
27.37837	0.02077986	-0.05317199	0	0.07335005	-3.454383E-06	-2.311279
27.39484	0.02077986	-0.05317199	0	0	0	-2.213709
27.41141	0.02077986	-0.05317199	0	0	0	0
27.42797	0.0220022	-0.04950495	0.07378083	0.2213428	2.22671	6.68014
27.44454	0.0220022	-0.04950495	0	0	-2.22671	-6.68014
27.46111	0.0220022	-0.04828261	0	0.07378072	0	2.226707
27.47768	0.02322455	-0.04706026	0.07377234	0.07377245	2.226326	-0.0002495791
27.49424	0.02322455	-0.04583792	0	0.07379772	-2.226582	0.0007625407
27.51081	0.02322455	-0.04461557	0	0.07377245	0	-0.0007625407
27.52738	0.02322455	-0.04461557	0	0	0	-2.226201
27.54395	0.02322455	-0.04461557	0	0	0	0
27.56051	0.02322455	-0.04461557	0	0	0	0
27.57708	0.02322455	-0.04461557	0	0	0	0
27.59364	0.02322455	-0.04461557	0	0	0	0
27.61021	0.02322455	-0.04461557	0	0	0	0
27.62678	0.02322455	-0.04461557	0	0	0	0
27.64334	0.02322455	-0.04461557	0	0	0	0
27.65991	0.02322455	-0.04461557	0	0	0	0
27.67648	0.02322455	-0.04461557	0	0	0	0
27.69305	0.02322455	-0.04461557	0	0	0	0
27.70961	0.02322455	-0.04461557	0	0	0	0
27.72618	0.02322455	-0.04461557	0	0	0	0
27.74275	0.02322455	-0.04461557	0	0	0	0
27.76177	0.02322455	-0.04461557	0	0	0	0
27.77834	0.02322455	-0.04461557	0	0	0	0
27.79491	0.02322455	-0.04461557	0	0	0	0
27.81147	0.02322455	-0.04461557	0	0	0	0
27.82825	0.02322455	-0.04461557	0	0	0	0
27.84481	0.02322455	-0.04461557	0	0	0	0
27.86117	0.02322455	-0.04461557	0	0	0	0
27.87776	0.02322455	-0.04461557	0	0	0	0
27.8943	0.02322455	-0.04461557	0	0	0	0
27.91096	0.02322455	-0.04461557	0	0	0	0
27.92744	0.02322455	-0.04461557	0	0	0	0
27.944	0.02322455	-0.04461557	0	0	0	0
27.96057	0.02322455	-0.04461557	0	0	0	0
27.97714	0.02322455	-0.04461557	0	0	0	0
27.99371	0.02322455	-0.04461557	0	0	0	0
28.01027	0.02322455	-0.04339323	0	0.07378095	0	2.226713
28.02697	0.02322454	-0.04217088	-1.115689E-07	0.07321619	-3.354219E-06	-0.01697883
28.04341	0.02322455	-0.04094854	1.133166E-07	0.07436289	6.787448E-06	0.03460936
28.05997	0.02322455	-0.04094854	0	0	-3.433341E-06	-2.253096
28.07654	0.02322455	-0.04094854	0	0	0	0
28.09311	0.02322455	-0.04094854	0	0	0	0
28.10967	0.02322455	-0.04094854	0	0	0	0
28.1267	0.02322455	-0.04094854	0	0	0	0
28.14281	0.02322455	-0.04094854	0	0	0	0
28.15937	0.02322455	-0.04094854	0	0	0	0
28.17594	0.02322455	-0.04094854	0	0	0	0
28.19251	0.02322455	-0.04094854	0	0	0	0
28.20909	0.02322455	-0.04094854	0	0	0	0
28.22564	0.02322455	-0.04094854	0	0	0	0
28.24253	0.02322455	-0.04094854	0	0	0	0
28.25878	0.02322455	-0.04094854	0	0	0	0
28.27534	0.02322455	-0.04094854	0	0	0	0
28.29191	0.02322455	-0.04094854	0	0	0	0
28.30848	0.02322455	-0.04094854	0	0	0	0
28.32504	0.02322455	-0.04094854	0	0	0	0
28.34161	0.02322455	-0.04094854	0	0	0	0
28.35818	0.02322455	-0.04094854	0	0	0	0
28.37474	0.02322455	-0.04094854	0	0	0	0
28.39131	0.02322455	-0.04094854	0	0	0	0
28.41294	0.02322455	-0.04094854	0	0	0	0
28.4295	0.02322455	-0.04094854	0	0	0	0
28.44607	0.02322455	-0.04094854	0	0	0	0
28.46554	0.02322455	-0.04094854	0	0	0	0
28.48211	0.02322455	-0.04094854	0	0	0	0
28.49906	0.02322455	-0.04094854	0	0	0	0
28.51524	0.02322455	-0.04094854	0	0	0	0
28.53181	0.02322455	-0.04094854	0	0	0	0
28.54848	0.02322455	-0.04094854	0	0	0	0
28.56494	0.02322455	-0.04094854	0	0	0	0
28.58151	0.02322455	-0.04094854	0	0	0	0
28.59808	0.02322455	-0.04094854	0	0	0	0
28.6149	0.02322455	-0.04094854	0	0	0	0
28.63182	0.02322455	-0.04094854	0	0	0	0
28.64803	0.02322455	-0.04094854	0	0	0	0
28.6646	0.02322455	-0.04094854	0	0	0	0
28.68117	0.02322455	-0.04094854	0	0	0	0
28.69805	0.02322455	-0.04094854	0	0	0	0
28.7143	0.02322455	-0.04094854	0	0	0	0
28.73307	0.02322455	-0.04094854	0	0	0	0
28.74965	0.02322455	-0.04094854	0	0	0	0
28.76621	0.02322455	-0.04094854	0	0	0	0
28.7828	0.02322455	-0.04094854	0	0	0	0
28.79934	0.02322455	-0.04094854	0	0	0	0
28.81591	0.02322455	-0.04094854	0	0	0	0
28.83297	0.02322455	-0.04094854	0	0	0	0
28.84958	0.02322455	-0.04094854	0	0	0	0
28.86561	0.02322455	-0.04094854	0	0	0	0
28.88218	0.02322455	-0.04094854	0	0	0	0
28.89874	0.02322455	-0.04094854	0	0	0	0
28.91537	0.02322455	-0.04094854	0	0	0	0
28.93188	0.02322455	-0.04094854	0	0	0	0
28.94844	0.02322455	-0.04094854	0	0	0	0
28.96559	0.02322455	-0.04094854	0	0	0	0
28.98193	0.02322455	-0.04094854	0	0	0	0
28.99814	0.02322455	-0.04094854	0	0	0	0
29.01512	0.02322455	-0.04094854	0	0	0	0
29.03128	0.02322455	-0.04094854	0	0	0	0
29.04784	0.02322455	-0.04094854	0	0	0	0
29.06441	0.02322455	-0.04094854	0	0	0	0
29.08946	0.02322455	-0.04094854	0	0	0	0
29.1066	0.02322455	-0.04094854	0	0	0	0
29.12259	0.02322455	-0.04094854	0	0	0	0
29.13916	0.02322455	-0.04094854	0	0	0	0
29.15884	0.02322455	-0.04094854	0	0	0	0
29.1754	0.02322455	-0.04094854	0	0	0	0
29.19226	0.02322455	-0.04094854	0	0	0	0
29.20854	0.02322455	-0.04094854	0	0	0	0
29.2251	0.02322455	-0.04094854	0	0	0	0
29.24167	0.02322455	-0.04094854	0	0	0	0
29.25824	0.02322455	-0.04094854	0	0	0	0
29.2748	0.02322455	-0.04094854	0	0	0	0
29.29137	0.02322455	-0.04094854	0	0	0	0
29.30794	0.02322455	-0.04094854	0	0	0	0
29.3245	0.02322455	-0.04094854	0	0	0	0
29.34107	0.02322455	-0.04094854	0	0	0	0
29.35764	0.02322455	-0.04094854	0	0	0	0
29.3742	0.02322455	-0.04094854	0	0	0	0
29.39077	0.02322455	-0.04094854	0	0	0	0
29.40734	0.02322455	-0.04094854	0	0	0	0
29.42408	0.02322455	-0.04094854	0	0	0	0
29.44047	0.02322455	-0.04094854	0	0	0	0
29.45704	0.02322455	-0.04094854	0	0	0	0
29.47371	0.02322455	-0.04094854	0	0	0	0
29.49018	0.02322455	-0.04094854	0	0	0	0
29.50674	0.02322455	-0.04094854	0	0	0	0
29.52331	0.02322455	-0.04094854	0	0	0	0
29.53988	0.02322455	-0.04094854	0	0	0	0
29.55644	0.02322455	-0.04094854	0	0	0	0
29.57301	0.02322455	-0.04094854	0	0	0	0
29.58958	0.02322455	-0.04094854	0	0	0	0
29.60646	0.02322455	-0.04094854	0	0	0	0
29.69683	0.02322455	-0.04094854	0	0	0	0
29.71782	0.02322455	-0.04094854	0	0	0	0
29.73439	0.02322455	-0.04094854	0	0	0	0
29.75096	0.02322455	-0.04094854	0	0	0	0
29.76752	0.02322455	-0.04094854	0	0	0	0
29.78409	0.02322455	-0.04094854	0	0	0	0
29.80066	0.02322455	-0.04094854	0	0	0	0
29.82046	0.02322455	-0.04094854	0	0	0	0
29.83703	0.02322455	-0.04094854	0	0	0	0
29.8536	0.02322455	-0.04094854	0	0	0	0
29.87016	0.02322455	-0.04094854	0	0	0	0
29.88673	0.02322455	-0.04094854	0	0	0	0
29.9033	0.02322455	-0.04094854	0	0	0	0
29.9203	0.02322455	-0.04094854	0	0	0	0
29.93643	0.02322455	-0.04094854	0	0	0	0
29.953	0.02322455	-0.04094854	0	0	0	0
29.97033	0.02322455	-0.04094854	0	0	0	0
29.98613	0.02322455	-0.04094854	0	0	0	0
30.0027	0.02322455	-0.04094854	0	0	0	0
30.01931	0.02322455	-0.04094854	0	0	0	0
30.03583	0.02322455	-0.04094854	0	0	0	0
30.0524	0.02322455	-0.04094854	0	0	0	0
30.06897	0.02322455	-0.04094854	0	0	0	0
30.08581	0.02322455	-0.04094854	0	0	0	0
30.1021	0.02322455	-0.04094854	0	0	0	0
30.11867	0.02322455	-0.04094854	0	0	0	0
30.13523	0.02322455	-0.04094854	0	0	0	0
30.1518	0.02322455	-0.04094854	0	0	0	0
30.1684	0.02322455	-0.04094854	0	0	0	0
30.18493	0.02322455	-0.04094854	0	0	0	0
30.2015	0.02322455	-0.04094854	0	0	0	0
30.21825	0.02322455	-0.04094854	0	0	0	0
30.23463	0.02322455	-0.04094854	0	0	0	0
30.2512	0.02322455	-0.04094854	0	0	0	0
30.26777	0.02322455	-0.04094854	0	0	0	0
30.28433	0.02322455	-0.04094854	0	0	0	0
30.3009	0.02322455	-0.04094854	0	0	0	0
30.31747	0.02322455	-0.04094854	0	0	0	0
30.3343	0.02322455	-0.04094854	0	0	0	0
30.35084	0.02322455	-0.04094854	0	0	0	0
30.36717	0.02322455	-0.04094854	0	0	0	0
30.38373	0.02322455	-0.04094854	0	0	0	0
30.4003	0.02322455	-0.04094854	0	0	0	0
30.41687	0.02322455	-0.04094854	0	0	0	0
30.43375	0.02322455	-0.04094854	0	0	0	0
30.45	0.02322455	-0.04094854	0	0	0	0
30.46657	0.02322455	-0.04094854	0	0	0	0
30.48359	0.02322455	-0.04094854	0	0	0	0
30.4997	0.02322455	-0.04094854	0	0	0	0
30.51627	0.02322455	-0.04094854	0	0	0	0
30.53284	0.02322455	-0.04094854	0	0	0	0
30.54942	0.02322455	-0.04094854	0	0	0	0
30.56597	0.02322455	-0.04094854	0	0	0	0
30.58298	0.02322455	-0.04094854	0	0	0	0
30.5991	0.02322455	-0.04094854	0	0	0	0
30.6165	0.02322455	-0.04094854	0	0	0	0
30.63257	0.02322455	-0.04094854	0	0	0	0
30.6488	0.02322455	-0.04094854	0	0	0	0
30.66537	0.02322455	-0.04094854	0	0	0	0
30.68265	0.02322455	-0.04094854	0	0	0	0
30.69922	0.02322455	-0.04094854	0	0	0	0
30.71578	0.02322455	-0.04094854	0	0	0	0
30.73235	0.02322455	-0.04094854	0	0	0	0
30.74933	0.02322455	-0.04094854	0	0	0	0
30.76548	0.02322455	-0.04094854	0	0	0	0
30.78205	0.02322455	-0.04094854	0	0	0	0
30.79862	0.02322455	-0.04094854	0	0	0	0
30.81518	0.02322455	-0.04094854	0	0	0	0
30.83346	0.02322455	-0.04094854	0	0	0	0
30.85003	0.02322455	-0.04094854	0	0	0	0
30.8666	0.02322455	-0.04094854	0	0	0	0
30.88358	0.02322455	-0.04094854	0	0	0	0
30.89973	0.02322455	-0.04094854	0	0	0	0
30.9163	0.02322455	-0.04094854	0	0	0	0
30.93287	0.02322455	-0.04094854	0	0	0	0
30.94943	0.02322455	-0.04094854	0	0	0	0
30.966	0.02322455	-0.04094854	0	0	0	0
30.98256	0.02322455	-0.04094854	0	0	0	0
30.99913	0.02322455	-0.04094854	0	0	0	0
31.0157	0.02322455	-0.04094854	0	0	0	0
31.03235	0.02322455	-0.04094854	0	0	0	0
31.04894	0.02322455	-0.04094854	0	0	0	0
31.06548	0.02322455	-0.04094854	0	0	0	0
31.08198	0.01955751	-0.03361447	-0.2222896	0.444579	-6.728856	13.45771
31.09853	0.008556412	-0.01405696	-0.6647164	1.181718	-13.38792	22.30597
31.11509	-0.007334067	0.00550055	-0.9592617	1.18063	-8.894515	-0.03286992
31.13166	-0.02077986	0.02383572	-0.8115894	1.106713	4.457014	-2.230938
31.14848	-0.02811392	0.03361447	-0.4361079	0.5814771	11.24724	-15.73301
31.16499	-0.0330033	0.04094854	-0.2961123	0.4441684	4.200411	-4.119795
31.18136	-0.03544799	0.04461557	-0.1493497	0.2240247	4.463479	-6.695209
31.19793	-0.03544799	0.04950495	-2.248331E-07	0.2950896	4.534259	2.157535
31.21449	-0.03544799	0.05561667	0	0.3689466	6.785476E-06	2.229007
31.23106	-0.03544799	0.06295074	2.24859E-07	0.442685	6.786648E-06	2.22556
31.24771	-0.03422565	0.06661777	0.07341728	0.2202523	2.21026	-6.696459
31.26419	-0.0330033	0.07028481	0.07415637	0.2224696	0.02230729	0.06692233
31.28076	-0.03178096	0.0727295	0.07378095	0.1475619	-0.01135919	-2.266459
31.29733	-0.02322454	0.07884122	0.5164662	0.3689041	13.36027	6.68012
31.31389	-0.009778756	0.08861998	0.8115894	0.5902472	8.906835	6.680147
31.33046	0.008556412	0.09839873	1.106713	0.5902467	8.906847	-1.439097E-05
31.34729	0.02566923	0.1081775	1.017124	0.5812134	-2.682962	-0.2705239
31.36385	0.04889378	0.1179562	1.401836	0.5902472	11.52112	0.2705382
31.38042	0.05745019	0.1216233	0.5164662	0.2213426	-26.72053	-11.13356
31.39701	0.07211833	0.1289573	0.8844538	0.442227	11.10014	6.662853
31.41355	0.1002323	0.1472925	1.698916	1.107988	24.58192	20.09387
31.43105	0.1246791	0.1644053	1.397123	0.9779863	-8.864216	-3.8184
31.44669	0.145459	0.1839629	1.329099	1.250918	-2.053088	8.237562
31.46325	0.1625718	0.1974086	1.032934	0.8115889	-9.197177	-13.64301
31.47982	0.1747953	0.2096321	0.7378082	0.73781	-8.906906	-2.226652
31.49639	0.184574	0.2218555	0.5903147	0.7378931	-4.451618	0.00250957
31.51402	0.1919081	0.2328566	0.4158733	0.6238095	-5.100527	-3.335714
31.53059	0.1992422	0.2463024	0.4426343	0.8114954	0.7823836	5.487175
31.54757	0.2016869	0.2499695	0.1439495	0.2159247	-8.902101	-17.75059
31.56372	0.2016868	0.2524141	-9.228089E-07	0.1513951	-4.344934	-1.947732
31.58029	0.2016868	0.2536365	0	0.07378072	2.820765E-05	-2.372451
31.59686	0.2016868	0.2536365	0	0	0	-2.226707
31.6198	0.2016868	0.2536365	0	0	0	0
31.63636	0.2016868	0.2536365	0	0	0	0
31.65293	0.2016868	0.2536365	0	0	0	0
31.67192	0.2016868	0.2536365	0	0	0	0
31.69332	0.2016868	0.2536365	0	0	0	0
31.70989	0.2016868	0.2536365	0	0	0	0
31.72646	0.2016868	0.2524141	0	-0.07378922	0	-2.226963
31.74302	0.1967975	0.241413	-0.2951229	-0.6640274	-8.907339	-17.81445
31.75977	0.1857964	0.2181885	-0.6570688	-1.387145	-10.866	-21.70877
31.77616	0.1723506	0.1888522	-0.8202789	-1.789696	-4.92569	-12.14901
31.79273	0.1564601	0.1582936	-0.9591494	-1.844522	-4.213435	-1.663451
31.80929	0.141792	0.131402	-0.8854733	-1.623366	2.223677	6.674893
31.83161	0.1271238	0.1045105	-0.657293	-1.205037	5.868638	10.75912
31.84818	0.106344	0.06661778	-1.25413	-2.286943	-15.34872	-27.82315
31.86543	0.09534287	0.04583792	-0.6375313	-1.204226	18.22912	32.00945
31.88146	0.08434177	0.02750275	-0.6863908	-1.143985	-1.467991	1.809946
31.89788	0.07823005	0.01650165	-0.3722906	-0.6701226	9.681305	14.60555
31.91445	0.07456301	0.01161227	-0.2213171	-0.2950895	4.576937	11.36957
31.93101	0.07334067	0.009167584	-0.07378922	-0.1475787	4.452402	4.451885
31.94758	0.07089598	0.006722894	-0.1475614	-0.1475617	-2.226578	0.0005113587
31.96415	0.06845129	0.00550055	-0.1475619	-0.07378083	-1.349154E-05	2.226712
31.98156	0.06722894	0.003055861	-0.07019313	-0.1403857	2.276803	-1.960043
31.99813	0.0660066	0.003055861	-0.07378072	1.405369E-08	-0.1055755	4.13126
32.01469	0.0660066	0.003055861	0	0	2.226707	-4.241411E-07
32.03126	0.06478425	0.001833517	-0.07378118	-0.07378086	-2.22672	-2.226711
32.04783	0.06356191	0.001833517	-0.07378072	7.026843E-09	1.37164E-05	2.226711
32.06476	0.06356192	0.0006111722	4.400913E-07	-0.07220151	2.202629	-2.155472
32.08096	0.06233957	-0.0006111722	-0.07543118	-0.07543086	-2.276531	-0.09746175
32.09753	0.06233957	-0.0006111722	0	0	2.301959	2.30195
32.11409	0.06111722	-0.001833517	-0.07378072	-0.07378085	-2.226963	-2.226967
32.13066	0.06111722	-0.001833517	0	0	2.226707	2.226711
32.14722	0.06111722	-0.001833517	0	0	0	0
32.1638	0.06111722	-0.001833517	0	0	0	0
32.18036	0.06111722	-0.001833517	0	0	0	0
32.19693	0.06111722	-0.001833517	0	0	0	0
32.2135	0.06111722	-0.001833517	0	0	0	0
32.23013	0.06111722	-0.001833517	0	0	0	0
32.24663	0.06111722	-0.001833517	0	0	0	0
32.2632	0.06111722	-0.001833517	0	0	0	0
32.28008	0.06111722	-0.001833517	0	0	0	0
32.29664	0.06111722	-0.001833517	0	0	0	0
32.3129	0.06111722	-0.001833517	0	0	0	0
32.32946	0.06111722	-0.001833517	0	0	0	0
32.34678	0.06111722	-0.001833517	0	0	0	0
32.3626	0.06111722	-0.001833517	0	0	0	0
32.37917	0.06111722	-0.001833517	0	0	0	0
32.39573	0.06111722	-0.001833517	0	0	0	0
32.4123	0.06111722	-0.001833517	0	0	0	0
32.42887	0.06111722	-0.001833517	0	0	0	0
32.44543	0.06111722	-0.001833517	0	0	0	0
32.46208	0.06111722	-0.001833517	0	0	0	0
32.47858	0.06111722	-0.001833517	0	0	0	0
32.49513	0.06111722	-0.001833517	0	0	0	0
32.5117	0.06111722	-0.001833517	0	0	0	0
32.52827	0.06111722	-0.001833517	0	0	0	0
32.54483	0.06111722	-0.001833517	0	0	0	0
32.5614	0.06111722	-0.001833517	0	0	0	0
32.57809	0.06111722	-0.001833517	0	0	0	0
32.59465	0.06111722	-0.001833517	0	0	0	0
32.61128	0.06111722	-0.001833517	0	0	0	0
32.62949	0.06111722	-0.001833517	0	0	0	0
32.64609	0.06111722	-0.001833517	0	0	0	0
32.66266	0.06111722	-0.001833517	0	0	0	0
32.67918	0.06111722	-0.001833517	0	0	0	0
32.69575	0.06111722	-0.001833517	0	0	0	0
32.71232	0.06111722	-0.001833517	0	0	0	0
32.72889	0.06111722	-0.001833517	0	0	0	0
32.74631	0.06111722	-0.001833517	0	0	0	0
32.76202	0.06111722	-0.001833517	0	0	0	0
32.77859	0.06111722	-0.001833517	0	0	0	0
32.79515	0.06111722	-0.001833517	0	0	0	0
32.81408	0.06111722	-0.001833517	0	0	0	0
32.83065	0.06111722	-0.001833517	0	0	0	0
32.84722	0.06111722	-0.001833517	0	0	0	0
32.86409	0.06111722	-0.001833517	0	0	0	0
32.88035	0.06111722	-0.001833517	0	0	0	0
32.89692	0.06111722	-0.001833517	0	0	0	0
32.91359	0.06111722	-0.001833517	0	0	0	0
32.93017	0.06111722	-0.001833517	0	0	0	0
32.94662	0.06111722	-0.001833517	0	0	0	0
32.96318	0.06111722	-0.001833517	0	0	0	0
32.97975	0.06111722	-0.001833517	0	0	0	0
32.99632	0.06111722	-0.001833517	0	0	0	0
33.01314	0.06111722	-0.001833517	0	0	0	0
33.02945	0.06111722	-0.001833517	0	0	0	0
33.04606	0.06111722	-0.001833517	0	0	0	0
33.06258	0.05989488	-0.001833517	-0.07396808	-7.044686E-09	-2.232361	-2.12609E-07
33.07919	0.05989488	-0.001833517	0	0	2.232875	2.12658E-07
33.09573	0.05867254	-0.001833517	-0.07390006	0	-2.229795	0
33.11229	0.05867254	-0.001833517	0	0	2.232107	0
33.12933	0.05867254	-0.001833517	0	0	0	0
33.14543	0.05867254	-0.001833517	0	0	0	0
33.16213	0.05745019	-0.001833517	-0.07319111	6.970667E-09	-2.231261	2.125036E-07
33.17856	0.05745019	-0.001833517	0	0	2.208912	-2.103751E-07
33.19513	0.05745019	-0.001833517	0	0	0	0
33.2117	0.05745019	-0.001833517	0	0	0	0
33.22826	0.05745019	-0.001833517	0	0	0	0
33.24483	0.05745019	-0.001833517	0	0	0	0
33.26229	0.05745019	-0.001833517	0	0	0	0
33.27927	0.05745019	-0.001833517	0	0	0	0
33.29543	0.05745019	-0.001833517	0	0	0	0
33.31221	0.05745019	-0.001833517	0	0	0	0
33.32856	0.05745019	-0.001833517	0	0	0	0
33.34513	0.05745019	-0.001833517	0	0	0	0
33.36169	0.05622785	-0.001833517	-0.07378072	-7.026843E-09	-2.226707	-2.120705E-07
33.37826	0.05622785	-0.001833517	0	0	2.226707	2.120705E-07
33.39483	0.05622785	-0.001833517	0	0	0	0
33.4114	0.05622785	-0.001833517	0	0	0	0
33.42796	0.05622785	-0.001833517	0	0	0	0
33.44453	0.05622785	-0.001833517	0	0	0	0
33.4611	0.05622785	-0.001833517	0	0	0	0
33.47766	0.05622785	-0.001833517	0	0	0	0
33.49423	0.05622785	-0.001833517	0	0	0	0
33.5108	0.05622785	-0.001833517	0	0	0	0
33.52737	0.05622785	-0.001833517	0	0	0	0
33.54393	0.05622785	-0.001833517	0	0	0	0
33.5605	0.05622785	-0.001833517	0	0	0	0
33.57707	0.05622785	-0.001833517	0	0	0	0
33.59392	0.05622785	-0.001833517	0	0	0	0
33.6102	0.05622785	-0.001833517	0	0	0	0
33.62683	0.05622785	-0.001833517	0	0	0	0
33.64333	0.05622785	-0.001833517	0	0	0	0
33.6599	0.05622785	-0.001833517	0	0	0	0
33.67647	0.05622785	-0.001833517	0	0	0	0
33.73803	0.05622785	-0.001833517	0	0	0	0
33.7546	0.05622785	-0.001833517	0	0	0	0
33.77117	0.05622785	-0.001833517	0	0	0	0
33.78774	0.05622785	-0.001833517	0	0	0	0
33.80438	0.05622785	-0.001833517	0	0	0	0
33.82087	0.05622785	-0.001833517	0	0	0	0
33.83768	0.05622785	-0.001833517	0	0	0	0
33.854	0.05622785	-0.001833517	0	0	0	0
33.87577	0.05622785	-0.001833517	0	0	0	0
33.89234	0.05622785	-0.001833517	0	0	0	0
33.90936	0.05622785	-0.001833517	0	0	0	0
33.93852	0.05622785	-0.001833517	0	0	0	0
33.95509	0.05622785	-0.001833517	0	0	0	0
33.97166	0.05622785	-0.001833517	0	0	0	0
33.98823	0.05622785	-0.001833517	0	0	0	0
34.0048	0.05622785	-0.001833517	0	0	0	0
34.02136	0.05622785	-0.001833517	0	0	0	0
34.03793	0.05622785	-0.001833517	0	0	0	0
34.05449	0.05622785	-0.001833517	0	0	0	0
34.07106	0.05622785	-0.001833517	0	0	0	0
34.09808	0.05622785	-0.001833517	0	0	0	0
34.11465	0.05622785	-0.001833517	0	0	0	0
34.13157	0.05622785	-0.001833517	0	0	0	0
34.14779	0.05622785	-0.001833517	0	0	0	0
34.16435	0.05622785	-0.001833517	0	0	0	0
34.18582	0.05622785	-0.001833517	0	0	0	0
34.20239	0.05622785	-0.001833517	0	0	0	0
34.21896	0.05622785	-0.001833517	0	0	0	0
34.23552	0.05622785	-0.001833517	0	0	0	0
34.25286	0.05622785	-0.001833517	0	0	0	0
34.26949	0.05622785	-0.001833517	0	0	0	0
34.28602	0.05622785	-0.001833517	0	0	0	0
34.30257	0.05622785	-0.001833517	0	0	0	0
34.31913	0.05622785	-0.001833517	0	0	0	0
34.33606	0.05622785	-0.001833517	0	0	0	0
34.35227	0.05622785	-0.001833517	0	0	0	0
34.36884	0.05622785	-0.001833517	0	0	0	0
34.38541	0.05622785	-0.001833517	0	0	0	0
34.40198	0.05622785	-0.001833517	0	0	0	0
34.41854	0.05622785	-0.001833517	0	0	0	0
34.4351	0.05622785	-0.001833517	0	0	0	0
34.45167	0.05622785	-0.001833517	0	0	0	0
34.46824	0.05622785	-0.001833517	0	0	0	0
34.48481	0.05622785	-0.001833517	0	0	0	0
34.50137	0.05622785	-0.001833517	0	0	0	0
34.51794	0.05622785	-0.001833517	0	0	0	0
34.5345	0.05622785	-0.001833517	0	0	0	0
34.55107	0.05622785	-0.001833517	0	0	0	0
34.56764	0.05622785	-0.001833517	0	0	0	0
34.58421	0.05622785	-0.001833517	0	0	0	0
34.60077	0.05622785	-0.001833517	0	0	0	0
34.61734	0.05622785	-0.001833517	0	0	0	0
34.6339	0.05622785	-0.001833517	0	0	0	0
34.65059	0.05622785	-0.001833517	0	0	0	0
34.66704	0.05622785	-0.001833517	0	0	0	0
34.68361	0.05622785	-0.001833517	0	0	0	0
34.70035	0.05622785	-0.001833517	0	0	0	0
34.71692	0.05622785	-0.001833517	0	0	0	0
34.73349	0.05622785	-0.001833517	0	0	0	0
34.75005	0.05622785	-0.001833517	0	0	0	0
34.76662	0.05622785	-0.001833517	0	0	0	0
34.78349	0.05622785	-0.001833517	0	0	0	0
34.79976	0.05622785	-0.001833517	0	0	0	0
34.81632	0.05622785	-0.001833517	0	0	0	0
34.83289	0.05622785	-0.001833517	0	0	0	0
34.85118	0.05622785	-0.001833517	0	0	0	0
34.86775	0.05622785	-0.001833517	0	0	0	0
34.88432	0.05622785	-0.001833517	0	0	0	0
34.90088	0.05622785	-0.001833517	0	0	0	0
34.91745	0.05622785	-0.001833517	0	0	0	0
34.93402	0.05622785	-0.001833517	0	0	0	0
34.95058	0.05622785	-0.001833517	0	0	0	0
34.96735	0.05622785	-0.001833517	0	0	0	0
34.98394	0.05622785	-0.001833517	0	0	0	0
35.00046	0.05622785	-0.001833517	0	0	0	0
35.01685	0.05622785	-0.001833517	0	0	0	0
35.03342	0.05622785	-0.001833517	0	0	0	0
35.04998	0.05622785	-0.001833517	0	0	0	0
35.06655	0.05622785	-0.001833517	0	0	0	0
35.08312	0.05622785	-0.001833517	0	0	0	0
35.09969	0.05622785	-0.001833517	0	0	0	0
35.11625	0.05622785	-0.001833517	0	0	0	0
35.13282	0.05622785	-0.001833517	0	0	0	0
35.14939	0.05622785	-0.001833517	0	0	0	0
35.16612	0.05622785	-0.001833517	0	0	0	0
35.18252	0.05622785	-0.001833517	0	0	0	0
35.19909	0.05622785	-0.001833517	0	0	0	0
35.21566	0.05622785	-0.001833517	0	0	0	0
35.23222	0.05622785	-0.001833517	0	0	0	0
35.24887	0.05622785	-0.001833517	0	0	0	0
35.26535	0.05622785	-0.001833517	0	0	0	0
35.28192	0.05622785	-0.001833517	0	0	0	0
35.29849	0.05622785	-0.001833517	0	0	0	0
35.31506	0.05622785	-0.001833517	0	0	0	0
35.33162	0.05622785	-0.001833517	0	0	0	0
35.34819	0.05622785	-0.001833517	0	0	0	0
35.36476	0.05622785	-0.001833517	0	0	0	0
35.38132	0.05622785	-0.001833517	0	0	0	0
35.39789	0.05622785	-0.001833517	0	0	0	0
35.41446	0.05622785	-0.001833517	0	0	0	0
35.43103	0.05622785	-0.001833517	0	0	0	0
35.44759	0.05622785	-0.001833517	0	0	0	0
35.46451	0.05622785	-0.001833517	0	0	0	0
35.48072	0.05622785	-0.001833517	0	0	0	0
35.49754	0.05622785	-0.001833517	0	0	0	0
35.51416	0.05622785	-0.001833517	0	0	0	0
35.5311	0.05622785	-0.001833517	0	0	0	0
35.54758	0.05622785	-0.001833517	0	0	0	0
35.56356	0.05622785	-0.001833517	0	0	0	0
35.58016	0.05622785	-0.001833517	0	0	0	0
35.59669	0.05622785	-0.001833517	0	0	0	0
35.61326	0.05622785	-0.001833517	0	0	0	0
35.6299	0.05622785	-0.001833517	0	0	0	0
35.64695	0.05622785	-0.001833517	0	0	0	0
35.66344	0.05622785	-0.001833517	0	0	0	0
35.68152	0.05622785	-0.001833517	0	0	0	0
35.69809	0.05622785	-0.001833517	0	0	0	0
35.71466	0.05622785	-0.001833517	0	0	0	0
35.73214	0.05622785	-0.001833517	0	0	0	0
35.74871	0.05622785	-0.001833517	0	0	0	0
35.76527	0.05622785	-0.001833517	0	0	0	0
35.78184	0.05622785	-0.001833517	0	0	0	0
35.7984	0.05622785	-0.001833517	0	0	0	0
35.81497	0.05622785	-0.001833517	0	0	0	0
35.83154	0.05622785	-0.001833517	0	0	0	0
35.84811	0.05622785	-0.001833517	0	0	0	0
35.86467	0.05622785	-0.001833517	0	0	0	0
35.88359	0.05622785	-0.001833517	0	0	0	0
35.90016	0.05622785	-0.001833517	0	0	0	0
35.91673	0.05622785	-0.001833517	0	0	0	0
35.93329	0.05622785	-0.001833517	0	0	0	0
35.94986	0.05622785	-0.001833517	0	0	0	0
35.96648	0.05622785	-0.001833517	0	0	0	0
35.98299	0.05622785	-0.001833517	0	0	0	0
35.99956	0.05622785	-0.001833517	0	0	0	0
36.01613	0.05622785	-0.001833517	0	0	0	0
36.03332	0.05622785	-0.001833517	0	0	0	0
36.04936	0.05622785	-0.001833517	0	0	0	0
36.06583	0.05622785	-0.001833517	0	0	0	0
36.08239	0.05622785	-0.001833517	0	0	0	0
36.09896	0.05622785	-0.001833517	0	0	0	0
36.11553	0.05622785	-0.001833517	0	0	0	0
36.1321	0.05622785	-0.001833517	0	0	0	0
36.14882	0.05622785	-0.001833517	0	0	0	0
36.16523	0.05622785	-0.001833517	0	0	0	0
36.1818	0.05867254	0.0006111723	0.1475617	0.1475617	4.475059	4.47506
36.19849	0.06233957	0.006722895	0.2196233	0.3660387	2.166343	6.567938
36.21493	0.06967364	0.01527931	0.4462816	0.520662	6.841349	4.667077
36.23188	0.07578535	0.02383572	0.3605199	0.5047281	-2.568774	-0.477257
36.24845	0.09167583	0.03728151	0.9589304	0.8114026	17.85045	9.148028
36.2652	0.09778756	0.04094854	0.364955	0.2189729	-17.8277	-17.7813
36.28179	0.1210121	0.05683902	1.39958	0.9576075	31.03213	22.1543
36.2983	0.1381249	0.06539543	1.036512	0.5182562	-10.96751	-13.27187
36.31472	0.1503484	0.07028481	0.7446676	0.2978672	-8.86402	-6.693738
36.33128	0.1564601	0.07395184	0.3689036	0.2213422	-11.39304	-2.320215
36.34785	0.1589048	0.07517418	0.1475614	0.07378072	-6.68012	-4.453413
36.36495	0.1589048	0.07517418	0	0	-4.383269	-2.191634
36.38099	0.1589048	0.07517418	0	0	0	0
36.39778	0.1589048	0.07517418	0	0	0	0
36.41435	0.149126	0.07150715	-0.5901108	-0.2212917	-17.6874	-6.632779
36.48085	0.1234568	0.05928371	-0.3859941	-0.1838066	2.457087	0.4512322
36.49758	-0.04889378	-0.04094854	-10.30581	-5.99345	-119.1924	-69.80627
36.51458	-0.05867253	-0.04950495	-0.5752786	-0.5033687	288.5521	162.8045
36.53062	-0.0770077	-0.06050605	-1.142762	-0.6856567	-17.17412	-5.516707
36.54712	-0.1075663	-0.07639653	-1.85177	-0.9629207	-21.78415	-8.518879
36.56376	-0.1259015	-0.08128591	-1.101892	-0.2938378	22.62617	20.18831
36.58033	-0.1442367	-0.08617529	-1.106459	-0.2950554	-0.1375201	-0.03666203
36.5969	-0.1625718	-0.08739763	-1.106967	-0.07379772	-0.01532639	6.677571
36.61346	-0.1784623	-0.09106466	-0.9591521	-0.2213426	4.461565	-4.453427
36.63003	-0.1931304	-0.1020658	-0.8853705	-0.6640279	2.226733	-13.36027
36.6466	-0.2151326	-0.1326244	-1.328055	-1.84452	-13.36024	-35.62733
36.66317	-0.2371348	-0.1717394	-1.328055	-2.360989	0	-15.58704
36.67973	-0.2469136	-0.1974086	-0.5902467	-1.549397	22.26709	24.49388
36.69665	-0.2481359	-0.2071874	-0.07225198	-0.5780044	15.46926	29.00943
36.71287	-0.2481359	-0.2108544	1.837803E-06	-0.2261315	2.180624	10.61954
36.72943	-0.2481359	-0.2108544	0	0	-5.605876E-05	6.897722
36.746	-0.2481359	-0.2108544	0	0	0	0
36.76271	-0.2481359	-0.2108544	0	0	0	0
36.77968	-0.2481359	-0.2071874	-1.756013E-06	0.2160677	-5.21382E-05	6.415318
36.7957	-0.2566923	-0.1778511	-0.5340504	1.83103	-16.18657	48.94815
36.81257	-0.2713605	-0.1424031	-0.8695514	2.101421	-10.2006	8.221008
36.82884	-0.2896957	-0.1069551	-1.127219	2.179286	-7.776418	2.34996
36.84588	-0.2982521	-0.08861997	-0.5020178	1.075751	18.76921	-33.12929
36.86197	-0.3019191	-0.08250825	-0.2279538	0.3799266	8.27222	-21.00245
36.88111	-0.3031414	-0.08006356	-0.06385761	0.1277125	4.658022	-7.159329
36.89768	-0.3043638	-0.08006357	-0.07378072	-4.497179E-07	-0.2778852	-3.576454
36.92923	-0.3043638	-0.08006357	0	0	1.533432	9.346773E-06
36.94579	-0.3043638	-0.08006357	0	0	0	0
36.96282	-0.3043638	-0.08006357	0	0	0	0
36.97893	-0.3043638	-0.08006357	0	0	0	0
36.99549	-0.3043638	-0.08006357	0	0	0	0
37.0188	-0.3043638	-0.08006357	0	0	0	0
37.03713	-0.3043638	-0.08006357	0	0	0	0
37.0537	-0.3043638	-0.08006357	0	0	0	0
37.07052	-0.3043638	-0.08128591	0	-0.07265979	0	-2.176091
37.08683	-0.3043638	-0.08128591	0	0	0	2.192877
37.10352	-0.3031414	-0.08250825	0.07324107	-0.07324107	2.219363	-2.219363
37.11997	-0.3019191	-0.08373059	0.0743302	-0.07432839	0.03287011	-0.03281547
37.13654	-0.2982521	-0.08495294	0.2213404	-0.07378118	4.453182	0.01657606
37.15335	-0.2921403	-0.08739763	0.363548	-0.145419	4.260444	-2.146219
37.16967	-0.2774722	-0.092287	0.8986128	-0.299537	16.14829	-4.651291
37.18623	-0.259137	-0.09595404	1.106969	-0.2213936	6.335625	2.376153
37.20414	-0.2359125	-0.09350935	1.297288	0.1365564	5.521953	10.38566
37.2207	-0.1931304	-0.08006357	2.582329	0.8115893	37.28042	19.58342
37.23727	-0.1613495	-0.06417309	1.918302	0.9591512	-20.04036	4.453427
37.25384	-0.1393473	-0.04950495	1.328056	0.8853705	-17.81368	-2.226707
37.2704	-0.1210121	-0.03605916	1.106713	0.8115893	-6.680132	-2.226721
37.28697	-0.1075663	-0.02016868	0.8115893	0.9591512	-8.906857	4.453427
37.30355	-0.09778757	-0.01038993	0.5897031	0.5897037	-6.693455	-11.14481
37.32011	-0.08923115	-0.001833517	0.5169426	0.5169421	-2.195919	-2.195949
37.33689	-0.08434177	0.004278206	0.2913664	0.3642081	-6.767389	-4.582092
37.35324	-0.08067474	0.009167584	0.224234	0.2989786	-2.02606	-1.96863
37.37087	-0.07700771	0.01161227	0.2080262	0.1386844	-0.4769611	-4.717126
37.38744	-0.07211833	0.01650165	0.2951238	0.2951234	2.547089	4.574916
37.404	-0.07089598	0.017724	0.07378072	0.07378095	-6.680147	-6.680128
37.42062	-0.06967364	0.01894634	0.07356098	0.07356054	-0.006621855	-0.006642062
37.43713	-0.06845129	0.01894634	0.07401934	0	0.01383469	-2.220317
37.45375	-0.06722895	0.02016868	0.07357743	0.07357765	-0.01333991	2.221089
37.47027	-0.06600661	0.02016868	0.07398515	0	0.01230518	-2.220578
37.48684	-0.06478426	0.02139103	0.07378118	0.07378083	-0.00616448	2.22979
37.50396	-0.06356192	0.02261337	0.07139699	0.07139721	-0.07077342	-0.07075682
37.51997	-0.06111723	0.02261337	0.1526585	0	2.452477	-2.154772
37.53728	-0.06111723	0.02261337	0	0	-4.580349	0
37.55385	-0.05745019	0.02383572	0.2213426	0.07378072	6.532722	2.17757
37.57042	-0.05622785	0.02383572	0.07378095	0	-4.45342	-2.226707
37.58699	-0.05378316	0.02505806	0.1475617	0.07378095	2.226707	2.226713
37.60355	-0.05133847	0.02505806	0.1475619	0	6.745769E-06	-2.226713
37.62012	-0.05011612	0.02505806	0.07378095	-1.124295E-07	-2.226713	-3.393129E-06
37.63676	-0.05011612	0.02505806	0	0	-2.222109	3.386112E-06
37.65332	-0.05011612	0.02505806	0	0	0	0
37.66982	-0.05011612	0.02505806	0	0	0	0
37.68657	-0.05011612	0.02505806	0	0	0	0
37.70314	-0.05011612	0.02505806	0	0	0	0
37.71971	-0.05011612	0.02505806	0	0	0	0
37.73643	-0.05011612	0.02505806	0	0	0	0
37.75284	-0.05011612	0.02505806	0	0	0	0
37.76941	-0.05011612	0.02505806	0	0	0	0
37.78597	-0.05011612	0.02505806	0	0	0	0
37.80254	-0.05011612	0.02505806	0	0	0	0
37.81911	-0.05011612	0.02505806	0	0	0	0
37.83567	-0.05011612	0.02505806	0	0	0	0
37.85224	-0.05011612	0.02505806	0	0	0	0
37.8689	-0.05011612	0.02505806	0	0	0	0
37.88762	-0.04889378	0.02505806	0.06527393	9.946654E-08	1.844671	2.81097E-06
37.90419	-0.04644909	0.02505806	0.1475617	-1.124295E-07	2.331522	-6.003812E-06
37.92101	-0.04278206	0.02383572	0.2179798	-0.07265979	2.108956	-2.176088
37.93732	-0.03911502	0.02261337	0.2248634	-0.07495454	0.2077707	-0.06926364
37.95389	-0.03544799	0.02261337	0.2213426	0	-0.1070955	2.279982
37.97046	-0.03422565	0.02261337	0.07378072	0	-4.453427	0
37.98702	-0.03422565	0.02261337	0	0	-2.226707	0
38.00547	-0.03422565	0.02261337	0	0	0	0
38.02203	-0.03422565	0.02261337	0	0	0	0
38.03886	-0.03422565	0.02261337	0	0	0	0
38.05517	-0.03422565	0.02261337	0	0	0	0
38.07174	-0.03422565	0.02261337	0	0	0	0
38.0883	-0.03422565	0.02261337	0	0	0	0
38.10487	-0.03422565	0.02261337	0	0	0	0
38.12144	-0.03422565	0.02261337	0	0	0	0
38.13821	-0.03422565	0.02261337	0	0	0	0
38.15457	-0.03422565	0.02261337	0	0	0	0
38.17114	-0.03422565	0.02261337	0	0	0	0
38.18811	-0.03422565	0.02261337	0	0	0	0
38.20427	-0.03422565	0.02261337	0	0	0	0
38.22084	-0.03422565	0.02261337	0	0	0	0
38.23741	-0.03422565	0.02261337	0	0	0	0
38.25397	-0.03422565	0.02261337	0	0	0	0
38.27054	-0.03422565	0.02261337	0	0	0	0
38.28711	-0.03422565	0.02261337	0	0	0	0
38.30368	-0.03422565	0.02261337	0	0	0	0
38.32024	-0.03422565	0.02261337	0	0	0	0
38.33681	-0.03422565	0.02261337	0	0	0	0
38.35338	-0.03422565	0.02261337	0	0	0	0
38.36995	-0.03422565	0.02261337	0	0	0	0
38.38678	-0.03422565	0.02261337	0	0	0	0
38.40308	-0.03422565	0.02261337	0	0	0	0
38.42009	-0.03422565	0.02139103	0	-0.07184533	0	-2.15638
38.43622	-0.0330033	0.02139103	0.07580569	1.155148E-07	2.287557	2.16805
38.45279	-0.0330033	0.02139103	0	0	-2.318787	-3.533433E-06
38.46935	-0.0330033	0.02016868	0	-0.07379794	0	-2.227483
38.4867	-0.03178096	0.02016868	0.07043959	-1.073382E-07	2.076855	2.17587
38.50327	-0.03178096	0.02016868	0	0	-2.076621	3.164423E-06
38.5201	-0.03178096	0.02016868	0	0	0	0
38.5364	-0.03178096	0.02016868	0	0	0	0
38.55338	-0.03178095	0.01894634	2.194029E-07	-0.0719905	6.592752E-06	-2.163214
38.56954	-0.03178095	0.01894634	0	0	-6.621594E-06	2.172678
38.58611	-0.03178095	0.01894634	0	0	0	0
38.60267	-0.03178095	0.01894634	0	0	0	0
38.61924	-0.03055861	0.01894634	0.07378072	0	2.226707	0
38.63597	-0.03055861	0.01894634	0	0	-2.215738	0
38.65353	-0.03055861	0.01894634	0	0	0	0
38.67009	-0.03055861	0.01894634	0	0	0	0
38.68666	-0.03055861	0.01894634	0	0	0	0
38.70323	-0.03055861	0.01894634	0	0	0	0
38.7198	-0.03055861	0.01894634	0	0	0	0
38.73657	-0.03055861	0.01894634	0	0	0	0
38.75298	-0.03055861	0.01894634	0	0	0	0
38.76949	-0.03055861	0.01894634	0	0	0	0
38.78606	-0.03055861	0.01894634	0	0	0	0
38.80263	-0.02933627	0.01894634	0.07378083	-1.124295E-07	2.22671	-3.393129E-06
38.81919	-0.02811392	0.017724	0.07378083	-0.07378072	0	-2.226703
38.83576	-0.02566923	0.01650165	0.1475618	-0.07378095	2.226714	-6.745769E-06
38.85233	-0.02566924	0.01527931	-1.124295E-07	-0.07378078	-4.453427	4.946897E-06
38.86914	-0.02566924	0.01527931	0	0	3.367925E-06	2.210169
38.88787	-0.02566924	0.01527931	0	0	0	0
38.90444	-0.02444689	0.01527931	0.07378095	0	2.090266	0
38.92101	-0.02444689	0.01527931	0	0	-2.226713	0
38.93758	-0.02444689	0.01527931	0	0	0	0
38.95543	-0.02444689	0.01527931	0	0	0	0
38.97199	-0.02444689	0.01527931	0	0	0	0
38.98859	-0.02444689	0.01527931	0	0	0	0
39.00513	-0.02444689	0.01527931	0	0	0	0
39.02169	-0.02444689	0.01527931	0	0	0	0
39.03826	-0.02444689	0.01527931	0	0	0	0
39.05483	-0.02444689	0.01527931	0	0	0	0
39.0714	-0.02444689	0.01527931	0	0	0	0
39.08796	-0.02444689	0.01527931	0	0	0	0
39.10498	-0.02444689	0.01527931	0	0	0	0
39.1211	-0.02444689	0.01527931	0	0	0	0
39.13766	-0.02444689	0.01527931	0	0	0	0
39.15423	-0.02444689	0.01527931	0	0	0	0
39.17665	-0.02444689	0.01527931	0	0	0	0
39.19322	-0.02444689	0.01527931	0	0	0	0
39.20979	-0.02444689	0.01527931	0	0	0	0
39.22636	-0.02444689	0.01527931	0	0	0	0
39.24292	-0.02444689	0.01527931	0	0	0	0
39.27075	-0.02444689	0.01527931	0	0	0	0
39.28732	-0.02444689	0.01527931	0	0	0	0
39.30388	-0.02444689	0.01527931	0	0	0	0
39.32104	-0.02444689	0.01527931	0	0	0	0
39.33701	-0.02444689	0.01527931	0	0	0	0
39.35358	-0.02444689	0.01527931	0	0	0	0
39.37746	-0.02444689	0.01527931	0	0	0	0
39.39414	-0.02444689	0.01527931	0	0	0	0
39.41278	-0.02444689	0.01527931	0	0	0	0
39.42934	-0.02444689	0.01527931	0	0	0	0
39.4524	-0.02444689	0.01527931	0	0	0	0
39.46896	-0.02444689	0.01527931	0	0	0	0
39.48553	-0.02444689	0.01527931	0	0	0	0
39.5021	-0.02444689	0.01527931	0	0	0	0
39.51867	-0.02444689	0.01527931	0	0	0	0
39.53523	-0.02444689	0.01527931	0	0	0	0
39.55207	-0.02444689	0.01527931	0	0	0	0
39.56909	-0.02444689	0.01527931	0	0	0	0
39.5856	-0.02444689	0.01527931	0	0	0	0
39.6015	-0.02444689	0.01527931	0	0	0	0
39.61807	-0.02444689	0.01527931	0	0	0	0
39.63464	-0.02444689	0.01527931	0	0	0	0
39.6512	-0.02444689	0.01527931	0	0	0	0
39.66777	-0.02444689	0.01527931	0	0	0	0
39.68441	-0.02444689	0.01527931	0	0	0	0
39.70092	-0.02444689	0.01527931	0	0	0	0
39.71747	-0.02444689	0.01527931	0	0	0	0
39.73404	-0.02444689	0.01527931	0	0	0	0
39.7506	-0.02444689	0.01527931	0	0	0	0
39.76717	-0.02444689	0.01527931	0	0	0	0
39.78374	-0.02444689	0.01527931	0	0	0	0
39.8003	-0.02444689	0.01527931	0	0	0	0
39.81696	-0.02444689	0.01527931	0	0	0	0
39.83355	-0.02444689	0.01527931	0	0	0	0
39.85001	-0.02444689	0.01527931	0	0	0	0
39.86657	-0.02444689	0.01527931	0	0	0	0
39.88783	-0.02444689	0.01527931	0	0	0	0
39.90439	-0.02444689	0.01527931	0	0	0	0
39.92096	-0.02444689	0.01527931	0	0	0	0
39.93753	-0.02444689	0.01527931	0	0	0	0
39.95412	-0.02444689	0.01527931	0	0	0	0
39.97066	-0.02444689	0.01527931	0	0	0	0
39.98723	-0.02444689	0.01527931	0	0	0	0
40.0038	-0.02444689	0.01527931	0	0	0	0
40.02036	-0.02444689	0.01527931	0	0	0	0
40.03693	-0.02444689	0.01527931	0	0	0	0
40.0535	-0.02444689	0.01527931	0	0	0	0
40.07056	-0.02444689	0.01527931	0	0	0	0
40.08663	-0.02444689	0.01527931	0	0	0	0
40.10339	-0.02444689	0.01527931	0	0	0	0
40.11977	-0.02444689	0.01527931	0	0	0	0
40.13633	-0.02444689	0.01527931	0	0	0	0
40.1529	-0.02444689	0.01527931	0	0	0	0
40.16995	-0.02444689	0.01527931	0	0	0	0
40.18603	-0.02444689	0.01527931	0	0	0	0
40.2026	-0.02444689	0.01527931	0	0	0	0
40.21917	-0.02444689	0.01527931	0	0	0	0
40.23573	-0.02444689	0.01527931	0	0	0	0
40.2523	-0.02444689	0.01527931	0	0	0	0
40.26887	-0.02444689	0.01527931	0	0	0	0
40.28576	-0.02444689	0.01527931	0	0	0	0
40.302	-0.02444689	0.01527931	0	0	0	0
40.31894	-0.02444689	0.01527931	0	0	0	0
40.33514	-0.02444689	0.01527931	0	0	0	0
40.3517	-0.02444689	0.01527931	0	0	0	0
40.36827	-0.02444689	0.01527931	0	0	0	0
40.38563	-0.02444689	0.01527931	0	0	0	0
40.40141	-0.02444689	0.01527931	0	0	0	0
40.41797	-0.02444689	0.01527931	0	0	0	0
40.43454	-0.02444689	0.01527931	0	0	0	0
40.45111	-0.02444689	0.01527931	0	0	0	0
40.46801	-0.02444689	0.01527931	0	0	0	0
40.48424	-0.02444689	0.01527931	0	0	0	0
40.5008	-0.02444689	0.01527931	0	0	0	0
40.51737	-0.02444689	0.01527931	0	0	0	0
40.53394	-0.02444689	0.01527931	0	0	0	0
40.55051	-0.02444689	0.01527931	0	0	0	0
40.56707	-0.02444689	0.01527931	0	0	0	0
40.58413	-0.02444689	0.01527931	0	0	0	0
40.60021	-0.02444689	0.01527931	0	0	0	0
40.61678	-0.02444689	0.01527931	0	0	0	0
40.63408	-0.02444689	0.01527931	0	0	0	0
40.64991	-0.02444689	0.01527931	0	0	0	0
40.6666	-0.02444689	0.01527931	0	0	0	0
40.68438	-0.02444689	0.01527931	0	0	0	0
40.70095	-0.02444689	0.01527931	0	0	0	0
40.71752	-0.02444689	0.01527931	0	0	0	0
40.73409	-0.02444689	0.01527931	0	0	0	0
40.75065	-0.02444689	0.01527931	0	0	0	0
40.76722	-0.02444689	0.01527931	0	0	0	0
40.78379	-0.02444689	0.01527931	0	0	0	0
40.80035	-0.02444689	0.01527931	0	0	0	0
40.81692	-0.02444689	0.01527931	0	0	0	0
40.83349	-0.02444689	0.01527931	0	0	0	0
40.8503	-0.02444689	0.01527931	0	0	0	0
40.8668	-0.02444689	0.01527931	0	0	0	0
40.88578	-0.02444689	0.01527931	0	0	0	0
40.90235	-0.02444689	0.01527931	0	0	0	0
40.92272	-0.02444689	0.01527931	0	0	0	0
40.93929	-0.02444689	0.01527931	0	0	0	0
40.95585	-0.02444689	0.01527931	0	0	0	0
40.97314	-0.02444689	0.01527931	0	0	0	0
40.98901	-0.02444689	0.01527931	0	0	0	0
41.00555	-0.02444689	0.01527931	0	0	0	0
41.02251	-0.02444689	0.01527931	0	0	0	0
41.03868	-0.02444689	0.01527931	0	0	0	0
41.05532	-0.02444689	0.01527931	0	0	0	0
41.07182	-0.02444689	0.01527931	0	0	0	0
41.08838	-0.02444689	0.01527931	0	0	0	0
41.10495	-0.02444689	0.01527931	0	0	0	0
41.12152	-0.02444689	0.01527931	0	0	0	0
41.13811	-0.02444689	0.01527931	0	0	0	0
41.15465	-0.02444689	0.01527931	0	0	0	0
41.17122	-0.02444689	0.01527931	0	0	0	0
41.18778	-0.02444689	0.01527931	0	0	0	0
41.20435	-0.02444689	0.01527931	0	0	0	0
41.22092	-0.02444689	0.01527931	0	0	0	0
41.238	-0.02444689	0.01527931	0	0	0	0
41.25405	-0.02444689	0.01527931	0	0	0	0
41.27061	-0.02444689	0.01527931	0	0	0	0
41.28718	-0.02444689	0.01527931	0	0	0	0
41.30375	-0.02444689	0.01527931	0	0	0	0
41.32032	-0.02444689	0.01527931	0	0	0	0
41.33688	-0.02444689	0.01527931	0	0	0	0
41.35364	-0.02444689	0.01527931	0	0	0	0
41.37001	-0.02444689	0.01527931	0	0	0	0
41.3866	-0.02444689	0.01527931	0	0	0	0
41.40315	-0.02444689	0.01527931	0	0	0	0
41.41972	-0.02444689	0.01527931	0	0	0	0
41.43628	-0.02444689	0.01527931	0	0	0	0
41.45285	-0.02444689	0.01527931	0	0	0	0
41.46942	-0.02444689	0.01527931	0	0	0	0
41.48598	-0.02444689	0.01527931	0	0	0	0
41.50255	-0.02444689	0.01527931	0	0	0	0
41.51912	-0.02444689	0.01527931	0	0	0	0
41.53577	-0.02444689	0.01527931	0	0	0	0
41.55232	-0.02444689	0.01527931	0	0	0	0
41.56882	-0.02444689	0.01527931	0	0	0	0
41.58538	-0.02444689	0.01527931	0	0	0	0
41.60195	-0.02444689	0.01527931	0	0	0	0
41.61917	-0.02444689	0.01527931	0	0	0	0
41.63509	-0.02077986	0.01650165	0.2303597	0.07678647	6.95227	2.31742
41.65184	-0.01833517	0.017724	0.1458822	0.07294119	-2.585253	-0.1176764
41.66832	-0.01711282	0.01894634	0.07417365	0.07417365	-2.157461	0.03708046
41.68566	-0.01711282	0.01894634	0	0	-2.193365	-2.193365
41.70223	-0.01711282	0.01894634	0	0	0	0
41.7188	-0.01711282	0.01894634	0	0	0	0
41.73569	-0.01711282	0.01894634	0	0	0	0
41.75193	-0.01589048	0.01894634	0.07527147	0	2.271698	0
41.7685	-0.01466813	0.01161227	0.07378083	-0.4426852	-0.04543741	-13.49387
41.78506	-0.01344579	0.004278206	0.07378083	-0.4426851	0	4.497179E-06
41.80175	-0.0110011	-0.003055861	0.1464824	-0.4394472	2.186085	0.09736053
41.8182	-0.008556412	-0.009167585	0.148657	-0.3716427	0.06562914	2.046345
41.83477	-0.008556412	-0.01038993	0	-0.07378083	-4.503067	9.022729
41.85428	-0.007334067	-0.01161227	0.062633	-0.0626329	1.735793	0.3089505
41.87085	-0.006111722	-0.01405696	0.07378086	-0.1475618	0.3089487	-2.353695
41.95874	-0.003667034	-0.02016868	0.02781512	-0.0695378	-0.440041	0.7469423
41.97531	0.04644909	-0.1191786	3.025015	-5.97625	28.69291	-56.54636
41.99187	0.05011613	-0.1265126	0.2213428	-0.4426848	-84.615	167.0033
42.00872	0.05133847	-0.127735	0.07257751	-0.07257751	-4.452837	11.07803
42.02771	0.05133847	-0.127735	0	0	-2.02531	2.02531
42.04458	0.05133847	-0.127735	0	0	0	0
42.06085	0.05133847	-0.127735	0	0	0	0
42.07765	0.05133847	-0.127735	0	0	0	0
42.09418	0.05133847	-0.127735	0	0	0	0
42.11123	0.05133847	-0.127735	0	0	0	0
42.12711	0.05133847	-0.1265127	0	0.07695144	0	2.336386
42.14368	0.05133847	-0.124068	0	0.1475628	0	2.175896
42.16171	0.05133847	-0.1228456	2.066799E-07	0.06781498	5.974845E-06	-2.305405
42.17827	0.05133847	-0.1216233	-2.24859E-07	0.07378162	-1.247522E-05	0.1724878
42.195	0.05256081	-0.1191786	0.07309093	0.146181	2.195532	2.174752
42.21141	0.05256081	-0.1191786	0	0	-2.205889	-4.411751
42.22797	0.05256081	-0.1167339	0	0.1475619	0	4.474548
42.24454	0.05256081	-0.1155116	0	0.07378072	0	-2.22672
42.26111	0.05378316	-0.1118445	0.07378072	0.2213426	2.226707	4.453427
42.27779	0.05622785	-0.1057328	0.1465831	0.3664575	2.189869	4.365003
42.29478	0.06478426	-0.09106467	0.5035949	0.8633054	10.60373	14.75705
42.31321	0.08434177	-0.07395184	1.061028	0.9283993	15.73633	1.837602
42.32983	0.1466813	-0.04339323	3.750733	1.838595	76.73198	25.96608
42.34689	0.1870187	-0.03116978	2.364006	0.7163655	-41.16898	-33.31661
42.36291	0.2224667	-0.02261337	2.213548	0.5343047	-4.548675	-5.504108
42.37973	0.2493583	-0.01650165	1.598518	0.3632997	-18.72985	-5.207706
42.39604	0.2615817	-0.01527931	0.7493697	0.07493684	-25.62735	-8.702809
42.41261	0.2640264	-0.01405696	0.1475632	0.07378083	-18.30374	-0.03515965
42.42984	0.2640264	-0.01405696	0	0	-4.366007	-2.18298
42.44574	0.2640264	-0.01405696	0	0	0	0
42.46355	0.2640264	-0.01405696	0	0	0	0
42.48012	0.2640264	-0.01405696	0	0	0	0
42.49668	0.2640264	-0.01405696	0	0	0	0
42.51325	0.2640264	-0.01405696	0	0	0	0
42.53014	0.2640264	-0.01405696	0	0	0	0
42.54638	0.2640264	-0.01405696	0	0	0	0
42.56303	0.2640264	-0.01405696	0	0	0	0
42.57955	0.2640264	-0.01405696	0	0	0	0
42.59608	0.2652488	-0.01405696	0.073951	0	2.237255	0
42.61265	0.2652488	-0.01405696	0	0	-2.234418	0
