Time	Pos X	Pos Y	Vel X	Vel Y	Acc X	Acc Y
0.01822035	-0.1026901	-0.6767287	0.001243179	0.008192558	-1.505419E-05	-9.920721E-05
0.05032978	-0.1026641	-0.676757	0.0008109698	-0.0008817411	5.234412E-06	0.0001098973
0.0714279	-0.1026641	-0.676757	0	0	-0.01524163	0.01657173
0.1007204	-0.1026901	-0.6767287	-0.0008889585	0.0009665357	-0.01764137	0.01918088
0.119536	-0.1026901	-0.6767287	0	0	0.01847836	-0.02009092
0.1450088	-0.1026901	-0.6767287	0	0	0	0
0.1656431	-0.1026901	-0.6767287	0	0	0	0
0.1900259	-0.1026901	-0.6767287	0	0	0	0
0.2074895	-0.1026901	-0.6767287	0	0	0	0
0.2348532	-0.1026901	-0.6767287	0	0	0	0
0.2539795	-0.1026901	-0.6767287	0	0	0	0
0.2786348	-0.1026901	-0.6767287	0	0	0	0
0.2952019	-0.1026901	-0.6767287	0	0	0	0
0.3258661	-0.1026901	-0.6767287	0	0	0	0
0.3424324	-0.1026901	-0.6767287	0	0	0	0
0.3655884	-0.1026901	-0.6767287	0	0	0	0
0.3821571	-0.1026901	-0.6767287	0	0	0	0
0.4035355	-0.1026901	-0.6767287	0	0	0	0
0.4201042	-0.1026901	-0.6767287	0	0	0	0
0.4413483	-0.1026901	-0.6767287	0	0	0	0
0.4579158	-0.1026901	-0.6767287	0	0	0	0
0.4806044	-0.1026901	-0.6767287	0	0	0	0
0.4971727	-0.1026901	-0.6767287	0	0	0	0
0.5192056	-0.1026901	-0.6767287	0	0	0	0
0.5357735	-0.1026901	-0.6767287	0	0	0	0
0.5642291	-0.1026901	-0.6767287	0	0	0	0
0.5816974	-0.1026901	-0.6767287	0	0	0	0
0.6023368	-0.1026901	-0.6767287	0	0	0	0
0.6189063	-0.1026901	-0.6767287	0	0	0	0
0.6399681	-0.1026901	-0.6767287	0	0	0	0
0.6566205	-0.1026901	-0.6767287	0	0	0	0
0.6770345	-0.1026901	-0.6767287	0	0	0	0
0.6939529	-0.1026901	-0.6767287	0	0	0	0
0.7285801	-0.1026901	-0.6767287	0	0	0	0
0.7451476	-0.1026901	-0.6767287	0	0	0	0
0.7665158	-0.1026901	-0.6767287	0	0	0	0
0.7830825	-0.1026901	-0.6767287	0	0	0	0
0.8035533	-0.1026901	-0.6767287	0	0	0	0
0.8214902	-0.1026901	-0.6767287	0	0	0	0
0.8494358	-0.1026901	-0.6767287	0	0	0	0
0.8685088	-0.1026901	-0.6767287	0	0	0	0
0.8929489	-0.1026901	-0.6767287	0	0	0	0
0.9136349	-0.1026901	-0.6767287	0	0	0	0
0.9388598	-0.1026901	-0.6767287	0	0	0	0
0.9566171	-0.1026901	-0.6767287	0	0	0	0
0.980786	-0.1026901	-0.6767287	0	0	0	0
0.997359	-0.1026901	-0.6767287	0	0	0	0
1.019968	-0.1026901	-0.6767287	0	0	0	0
1.036536	-0.1026901	-0.6767287	0	0	0	0
1.057474	-0.1026901	-0.6767287	0	0	0	0
1.074042	-0.1026901	-0.6767287	0	0	0	0
1.099524	-0.1026901	-0.6767287	0	0	0	0
1.117741	-0.1026901	-0.6767287	0	0	0	0
1.140134	-0.1026901	-0.6767287	0	0	0	0
1.156701	-0.1026901	-0.6767287	0	0	0	0
1.185497	-0.1026901	-0.6767287	0	0	0	0
1.202569	-0.1026901	-0.6767287	0	0	0	0
1.224851	-0.1026901	-0.6767287	0	0	0	0
1.241577	-0.1026901	-0.6767287	0	0	0	0
1.264202	-0.1026901	-0.6767287	0	0	0	0
1.285522	-0.1026901	-0.6767287	0	0	0	0
1.307739	-0.1026901	-0.6767287	0	0	0	0
1.324309	-0.1026901	-0.6767287	0	0	0	0
1.343856	-0.1026901	-0.6767287	0	0	0	0
1.364346	-0.1026901	-0.6767287	0	0	0	0
1.380913	-0.1026901	-0.6767287	0	0	0	0
1.405011	-0.1026901	-0.6767287	0	0	0	0
1.421579	-0.1026901	-0.6767287	0	0	0	0
1.446978	-0.1026901	-0.6767287	0	0	0	0
1.463708	-0.1026901	-0.6767287	0	0	0	0
1.483837	-0.1026641	-0.6764739	0.001293693	0.01265932	0.03509897	0.3434577
1.500404	-0.1026641	-0.6764739	0	0	-0.03525461	-0.3449807
1.520073	-0.1026641	-0.6764172	0	0.00287891	0	0.07944852
1.536642	-0.1026641	-0.6764172	0	0	0	-0.07944486
1.55713	-0.1026641	-0.6764172	0	0	0	0
1.580084	-0.1050071	-0.6663316	-0.1020696	0.4393715	-2.349533	10.11387
1.596804	-0.1050071	-0.6663316	0	0	2.572696	-11.0745
1.618508	-0.1162109	-0.6137319	-0.5161981	2.423453	-13.4343	63.0715
1.63535	-0.1162109	-0.6137319	0	0	13.39163	-62.87117
1.658695	-0.1267381	-0.5397373	-0.4509391	3.169596	-11.22102	78.87117
1.675263	-0.1267381	-0.5397373	0	0	11.29803	-79.41251
1.699311	-0.1306981	-0.4601175	-0.1646687	3.31086	-4.054279	81.51608
1.715878	-0.1306981	-0.4601175	0	0	4.054446	-81.51942
1.737504	-0.1297149	-0.3863532	0.04546068	3.410854	1.1903	89.30659
1.754914	-0.1297149	-0.3863532	0	0	-1.164565	-87.37572
1.776492	-0.1223075	-0.3424921	0.3432892	2.032703	8.804997	52.13664
1.793059	-0.1223075	-0.3424921	0	0	-8.999542	-53.28859
1.814802	-0.1174569	-0.3309003	0.2230972	0.533145	5.8235	13.91667
1.831479	-0.1174569	-0.3309003	0	0	-5.806858	-13.8769
1.853565	-0.1172492	-0.3308567	0.009401533	0.001970108	0.2425385	0.0508244
1.871156	-0.1172492	-0.3308567	0	0	-0.2369523	-0.04965378
1.892763	-0.1172752	-0.330835	-0.00120134	0.001006863	-0.03064758	0.02568626
1.909332	-0.1172752	-0.330835	0	0	0.03146801	-0.02637387
1.931906	-0.1173011	-0.3308132	-0.001149566	0.0009637473	-0.0293682	0.02462106
1.948473	-0.1173011	-0.3308132	0	0	0.02937035	-0.02462286
1.974357	-0.1173011	-0.3308132	0	0	0	0
1.993367	-0.1173011	-0.3308132	0	0	0	0
2.018955	-0.1173271	-0.3307915	-0.00101447	0.0008502451	-0.02274706	0.0190647
2.039918	-0.1173271	-0.3307915	0	0	0.02179278	-0.01826491
2.064282	-0.1173011	-0.3308132	0.001065417	-0.0008929445	0.02350504	-0.01969998
2.082627	-0.1173011	-0.3308132	0	0	-0.0249459	0.02090759
2.107348	-0.1173011	-0.3307697	0	0.001760105	0	0.04086992
2.129308	-0.1173011	-0.3307697	0	0	0	-0.03770482
2.157997	-0.1172492	-0.3307697	0.001809377	0	0.03572407	0
2.175409	-0.1172492	-0.3307697	0	0	-0.03924865	0
2.203709	-0.1172492	-0.3308132	0	-0.001537502	0	-0.03363455
2.254797	-0.1172492	-0.3308132	0	0	0	0.01936673
2.275624	-0.1172233	-0.330835	0.001246365	-0.0010446	0.01733094	-0.01452536
2.292311	-0.1172233	-0.330835	0	0	-0.03322403	0.02784563
2.31295	-0.1171713	-0.3308785	0.002515061	-0.002108218	0.06738076	-0.05648107
2.329839	-0.1171713	-0.3308785	0	0	-0.06701946	0.05617821
2.354152	-0.1171713	-0.3308785	0	0	0	0
2.370718	-0.1171713	-0.3308785	0	0	0	0
2.392303	-0.1171973	-0.3309003	-0.001202255	-0.00100792	-0.03151265	-0.02641888
2.41352	-0.1171973	-0.3309003	0	0	0.02808901	0.02354864
2.433872	-0.1171973	-0.3309003	0	0	0	0
2.451007	-0.1171973	-0.3309003	0	0	0	0
2.474985	-0.1171713	-0.330922	0.001082247	-0.0009073102	0.02632378	-0.02206875
2.491939	-0.1171713	-0.330922	0	0	-0.02644001	0.02216618
2.522419	-0.1171713	-0.330922	0	0	0	0
2.538986	-0.1171713	-0.330922	0	0	0	0
2.560727	-0.1171713	-0.3309655	0	-0.002001294	0	-0.05224167
2.581752	-0.1171713	-0.3309655	0	0	0	0.04679654
2.602021	-0.1171454	-0.3309873	0.001280626	-0.001073315	0.03101251	-0.02599211
2.61859	-0.1171454	-0.3309873	0	0	-0.034763	0.02913547
2.639042	-0.1171713	-0.331009	-0.00126922	-0.001063755	-0.03428387	-0.0287339
2.658265	-0.1171713	-0.331009	0	0	0.03199082	0.02681205
2.683455	-0.1171454	-0.3310308	0.001030486	-0.0008648513	0.02320256	-0.0194731
2.703285	-0.1171454	-0.3310308	0	0	-0.02288947	0.01921033
2.723811	-0.1171713	-0.3310526	-0.001264621	-0.0010599	-0.03133631	-0.0262635
2.740379	-0.1171713	-0.3310526	0	0	0.03409222	0.02857327
2.761112	-0.1171713	-0.3310961	0	-0.00209869	0	-0.05626427
2.777679	-0.1171713	-0.3310961	0	0	0	0.05626571
2.79936	-0.1171713	-0.3310961	0	0	0	0
2.815926	-0.1171713	-0.3310961	0	0	0	0
2.837154	-0.1171713	-0.3310961	0	0	0	0
2.853721	-0.1171713	-0.3310961	0	0	0	0
2.879849	-0.1171973	-0.3311178	-0.0009931815	-0.0008326414	-0.02326196	-0.01950184
2.897289	-0.1171973	-0.3311178	0	0	0.0227963	0.01911146
2.918468	-0.1171973	-0.3311614	0	-0.002054463	0	-0.0531995
2.935249	-0.1171973	-0.3311614	0	0	0	0.05412069
2.956467	-0.1171973	-0.3312049	0	-0.002050746	0	-0.05396821
2.973034	-0.1171973	-0.3312049	0	0	0	0.05427504
2.993796	-0.1171973	-0.3312049	0	0	0	0
3.010363	-0.1171973	-0.3312049	0	0	0	0
3.032104	-0.1171973	-0.3312049	0	0	0	0
3.048671	-0.1171973	-0.3312049	0	0	0	0
3.070149	-0.1171973	-0.3312049	0	0	0	0
3.086856	-0.1171973	-0.3312049	0	0	0	0
3.108083	-0.1171973	-0.3312049	0	0	0	0
3.12465	-0.1171973	-0.3312049	0	0	0	0
3.147137	-0.1171973	-0.3312049	0	0	0	0
3.166469	-0.1171973	-0.3312049	0	0	0	0
3.193928	-0.1171973	-0.3312049	0	0	0	0
3.212853	-0.1171973	-0.3312049	0	0	0	0
3.251473	-0.1171973	-0.3312049	0	0	0	0
3.271057	-0.1171973	-0.3312049	0	0	0	0
3.297598	-0.1171973	-0.3312049	0	0	0	0
3.316807	-0.1171973	-0.3312049	0	0	0	0
3.341724	-0.1171973	-0.3312049	0	0	0	0
3.358544	-0.1171973	-0.3312049	0	0	0	0
3.380146	-0.1171973	-0.3312049	0	0	0	0
3.396714	-0.1171973	-0.3312049	0	0	0	0
3.419342	-0.1171973	-0.3312049	0	0	0	0
3.43591	-0.1171973	-0.3312049	0	0	0	0
3.457391	-0.1171973	-0.3312049	0	0	0	0
3.473959	-0.1171973	-0.3312049	0	0	0	0
3.496092	-0.1171454	-0.3312484	0.002345273	-0.001967242	0.06059972	-0.05083174
3.51266	-0.1171454	-0.3312484	0	0	-0.06060047	0.05083237
3.535072	-0.1170935	-0.3313355	0.002316366	-0.003884102	0.05942447	-0.09964344
3.552201	-0.1170935	-0.3313355	0	0	-0.05858137	0.09822972
3.575378	-0.1168858	-0.3315966	0.00895957	-0.01126802	0.2222922	-0.279566
3.591946	-0.1168858	-0.3315966	0	0	-0.2254272	0.2835088
3.61331	-0.1169377	-0.3317707	-0.002430029	-0.008150779	-0.06406249	-0.2148778
3.631225	-0.1169377	-0.3317707	0	0	0.06186587	0.2075099
3.651099	-0.1170156	-0.3319666	-0.003918293	-0.009856464	-0.1036884	-0.2608282
3.667666	-0.1170156	-0.3319666	0	0	0.1075241	0.2704767
3.684232	-0.1170156	-0.3319666	0	0	0	0
3.712117	-0.1170416	-0.332032	-0.0009308818	-0.002342701	-0.02094153	-0.05270244
3.728821	-0.1170416	-0.332032	0	0	0.02087703	0.05254012
3.749264	-0.1170416	-0.332032	0	0	0	0
3.765846	-0.1170416	-0.332032	0	0	0	0
3.786556	-0.1170416	-0.332032	0	0	0	0
3.803124	-0.1170416	-0.332032	0	0	0	0
3.824494	-0.1170416	-0.332032	0	0	0	0
3.841061	-0.1170416	-0.332032	0	0	0	0
3.864438	-0.1170416	-0.332032	0	0	0	0
3.881006	-0.1170416	-0.332032	0	0	0	0
3.903128	-0.1170416	-0.332032	0	0	0	0
3.919694	-0.1170416	-0.332032	0	0	0	0
3.94557	-0.1170675	-0.3320537	-0.0010029	-0.0008407891	-0.02363012	-0.01981049
3.962137	-0.1170675	-0.3320537	0	0	0.02362945	0.01980994
3.985876	-0.1170675	-0.3320973	0	-0.001834137	0	-0.04550439
4.002515	-0.1170675	-0.3320973	0	0	0	0.04542379
4.02552	-0.1170935	-0.332119	-0.001128379	-0.000947009	-0.02846313	-0.02388811
4.042825	-0.1170935	-0.332119	0	0	0.02799292	0.02349349
4.068939	-0.1170675	-0.3321408	0.0009940199	-0.0008342463	0.02289372	-0.01921391
4.085505	-0.1170675	-0.3321408	0	0	-0.02328966	0.0195462
4.109018	-0.1170935	-0.3321626	-0.001104007	-0.0009252875	-0.0275457	-0.02308652
4.125585	-0.1170935	-0.3321626	0	0	0.02754537	0.02308625
4.14767	-0.1171454	-0.3322061	-0.00235075	-0.001971554	-0.06081843	-0.05100788
4.164628	-0.1171454	-0.3322061	0	0	0.06021008	0.05049766
4.185178	-0.1172492	-0.3323368	-0.005052194	-0.006357751	-0.1346964	-0.1695038
4.204677	-0.1172492	-0.3323368	0	0	0.1261501	0.158749
4.226837	-0.1172752	-0.3323585	-0.001171379	-0.0009817529	-0.02811836	-0.02356647
4.243406	-0.1172752	-0.3323585	0	0	0.03024501	0.02534886
4.265411	-0.1172752	-0.3323585	0	0	0	0
4.28679	-0.1172752	-0.3323585	0	0	0	0
4.312774	-0.1172752	-0.3323585	0	0	0	0
4.33083	-0.1172752	-0.3323585	0	0	0	0
4.35849	-0.1173011	-0.3323803	-0.000938195	-0.0007876204	-0.02052233	-0.01722862
4.376503	-0.1173011	-0.3323803	0	0	0.0205414	0.01724463
4.403384	-0.1173271	-0.3324021	-0.000965649	-0.0008104357	-0.0215092	-0.01805193
4.426589	-0.1173271	-0.3324021	0	0	0.01927999	0.01618103
4.454901	-0.1173271	-0.3324021	0	0	0	0
4.473307	-0.1173271	-0.3324021	0	0	0	0
4.498942	-0.1173271	-0.3324021	0	0	0	0
4.518211	-0.1173271	-0.3324021	0	0	0	0
4.541286	-0.1173271	-0.3324021	0	0	0	0
4.557908	-0.1173271	-0.3324021	0	0	0	0
4.585152	-0.1173271	-0.3324021	0	0	0	0
4.601719	-0.1173271	-0.3324021	0	0	0	0
4.622249	-0.1173271	-0.3324457	0	-0.002120834	0	-0.05716999
4.638817	-0.1173271	-0.3324457	0	0	0	0.05716852
4.659475	-0.117353	-0.3324674	-0.00125655	-0.001054578	-0.03375487	-0.02832929
4.676041	-0.117353	-0.3324674	0	0	0.03375617	0.02833038
4.701987	-0.117379	-0.3324892	-0.001000163	-0.0008396431	-0.02352638	-0.01975054
4.721271	-0.117379	-0.3324892	0	0	0.0221131	0.01856409
4.745438	-0.117379	-0.3324892	0	0	0	0
4.762285	-0.117379	-0.3324892	0	0	0	0
4.786885	-0.117379	-0.3324892	0	0	0	0
4.803599	-0.117379	-0.3324892	0	0	0	0
4.827266	-0.117379	-0.3324892	0	0	0	0
4.845371	-0.117379	-0.3324892	0	0	0	0
4.870558	-0.117379	-0.3324892	0	0	0	0
4.88766	-0.117379	-0.3324892	0	0	0	0
4.922612	-0.117379	-0.3324892	0	0	0	0
4.94275	-0.117379	-0.3324892	0	0	0	0
4.966098	-0.117353	-0.332511	0.001111444	-0.000931788	0.02555888	-0.02142749
4.987144	-0.117353	-0.332511	0	0	-0.02503591	0.02098905
5.008098	-0.117353	-0.3325545	0	-0.002079304	0	-0.04950688
5.024666	-0.117353	-0.3325545	0	0	0	0.05541512
5.049616	-0.117379	-0.3325763	-0.001040094	-0.0008719708	-0.0250518	-0.02100237
5.066184	-0.117379	-0.3325763	0	0	0.02505151	0.02100213
5.094094	-0.117379	-0.3325763	0	0	0	0
5.112051	-0.117379	-0.3325763	0	0	0	0
5.135216	-0.117379	-0.3326634	0	-0.003760627	0	-0.09145164
5.153401	-0.117379	-0.3326634	0	0	0	0.09094649
5.177844	-0.1174049	-0.3327723	-0.001061988	-0.004455228	-0.02491275	-0.1045134
5.194796	-0.1174049	-0.3327723	0	0	0.02565546	0.1076292
5.218525	-0.1172752	-0.3330555	0.005468938	-0.01193383	0.1344351	-0.2933522
5.235094	-0.1172752	-0.3330555	0	0	-0.1357109	0.2961361
5.257447	-0.1151982	-0.3350608	0.09291505	-0.08970892	2.387193	-2.30482
5.274953	-0.1151982	-0.3350608	0	0	-2.331104	2.250667
5.297619	-0.1101055	-0.3413534	0.2246802	-0.2776191	5.592941	-6.910745
5.314256	-0.1101055	-0.3413534	0	0	-5.716641	7.063592
5.342152	-0.09701031	-0.3582276	0.4694228	-0.6048878	10.54106	-13.58298
5.358718	-0.09701031	-0.3582276	0	0	-10.55768	13.60439
5.380615	-0.07839166	-0.3819042	0.8503083	-1.081302	22.10738	-28.11304
5.397182	-0.07839166	-0.3819042	0	0	-22.10656	28.11199
5.417768	-0.08275792	-0.4144848	-0.2121035	-1.582696	-5.708881	-42.59913
5.434552	-0.08275792	-0.4144848	0	0	5.675882	42.35289
5.456657	-0.09555025	-0.4528781	-0.5786896	-1.736804	-14.88039	-44.66008
5.473225	-0.09555025	-0.4528781	0	0	14.9635	44.90953
5.493642	-0.1117691	-0.4816064	-0.7943706	-1.407062	-21.47823	-38.0442
5.510212	-0.1117691	-0.4816064	0	0	21.47712	38.04224
5.530805	-0.1366173	-0.5094792	-1.206626	-1.3535	-32.46866	-36.42086
5.547372	-0.1366173	-0.5094792	0	0	32.47116	36.42366
5.569077	-0.1596558	-0.5316067	-1.061452	-1.019479	-27.73483	-26.63811
5.58567	-0.1596558	-0.5316067	0	0	27.7155	26.61954
5.60711	-0.1816592	-0.5532123	-1.026278	-1.007723	-26.98354	-26.49568
5.623677	-0.1816592	-0.5532123	0	0	27.00249	26.51429
5.644889	-0.1971678	-0.5685564	-0.73112	-0.7233675	-19.35263	-19.14742
5.663247	-0.1971678	-0.5685564	0	0	18.47669	18.28077
5.684302	-0.2123798	-0.5840465	-0.7224783	-0.7356871	-18.33097	-18.66611
5.704188	-0.2123798	-0.5840465	0	0	17.64671	17.96934
5.731816	-0.2332545	-0.6059067	-0.7555677	-0.7912366	-15.90201	-16.65272
5.75118	-0.2332545	-0.6059067	0	0	16.07854	16.83758
5.775201	-0.2508647	-0.6249521	-0.7331234	-0.7928734	-16.89807	-18.27528
5.79177	-0.2508647	-0.6249521	0	0	18.06155	19.53358
5.813815	-0.2631721	-0.6385789	-0.5583103	-0.6181592	-14.45883	-16.00876
5.831155	-0.2631721	-0.6385789	0	0	14.17594	15.69555
5.853658	-0.263859	-0.6393986	-0.03052227	-0.03642754	-0.7660528	-0.9142643
5.870225	-0.263859	-0.6393986	0	0	0.7812175	0.932363
5.891074	-0.2637609	-0.639508	0.004705654	-0.005245975	0.1257659	-0.1402068
5.908101	-0.2637609	-0.639508	0	0	-0.1242395	0.1385052
5.930101	-0.2635156	-0.6398361	0.01114997	-0.01491179	0.2857009	-0.3820916
5.946668	-0.2635156	-0.6398361	0	0	-0.2891061	0.3866456
5.969212	-0.2567329	-0.6474102	0.3008577	-0.3359631	7.692378	-8.58996
5.985779	-0.2567329	-0.6474102	0	0	-7.692378	8.58996
6.008179	-0.2329058	-0.6744657	1.063695	-1.207814	27.29725	-30.99572
6.024747	-0.2329058	-0.6744657	0	0	-27.29658	30.99496
6.045214	-0.2189086	-0.7044606	0.6838816	-1.465508	18.46582	-39.5709
6.062031	-0.2189086	-0.7044606	0	0	-18.34231	39.30622
6.087953	-0.2285663	-0.732756	-0.3725718	-1.091567	-8.717391	-25.54035
6.105976	-0.2285663	-0.732756	0	0	8.478171	24.83948
6.127596	-0.2455978	-0.7631955	-0.7877542	-1.407912	-19.87106	-35.5145
6.144166	-0.2455978	-0.7631955	0	0	20.6273	36.86609
6.168073	-0.2536284	-0.7733216	-0.3359169	-0.4235704	-8.299097	-10.46465
6.18464	-0.2536284	-0.7733216	0	0	8.299586	10.46526
6.20659	-0.2547131	-0.7745759	-0.04941671	-0.05714503	-1.282984	-1.483631
6.223158	-0.2547131	-0.7745759	0	0	1.282953	1.483595
6.243923	-0.2547378	-0.7745445	-0.001186909	0.001512699	-0.03179206	0.04051854
6.260491	-0.2547378	-0.7745445	0	0	0.03179206	-0.04051854
6.283772	-0.2547871	-0.7744818	-0.002117342	0.002693403	-0.0531344	0.06759056
6.300648	-0.2547871	-0.7744818	0	0	0.05272744	-0.06707288
6.320874	-0.254861	-0.774325	-0.003655669	0.007756324	-0.09853091	0.2090555
6.337679	-0.254861	-0.774325	0	0	0.09871869	-0.2094539
6.358654	-0.254861	-0.774325	0	0	0	0
6.376922	-0.254861	-0.774325	0	0	0	0
6.398599	-0.2548364	-0.7742935	0.001137014	0.001449108	0.02846473	0.0362779
6.415168	-0.2548364	-0.7742935	0	0	-0.02972883	-0.03788899
6.435722	-0.2548364	-0.7742935	0	0	0	0
6.45232	-0.2548364	-0.7742935	0	0	0	0
6.478553	-0.2548364	-0.7742935	0	0	0	0
6.495885	-0.2548364	-0.7742935	0	0	0	0
6.518147	-0.2548364	-0.7742935	0	0	0	0
6.539155	-0.2548364	-0.7742935	0	0	0	0
6.560928	-0.2548364	-0.7742935	0	0	0	0
6.57863	-0.2548364	-0.7742935	0	0	0	0
6.600303	-0.2548364	-0.7742935	0	0	0	0
6.61738	-0.2548364	-0.7742935	0	0	0	0
6.641017	-0.2548117	-0.774325	0.001042675	-0.001328875	0.02560928	-0.03263868
6.660267	-0.2548117	-0.774325	0	0	-0.02431176	0.03098501
6.683619	-0.2548117	-0.774325	0	0	0	0
6.702148	-0.2548117	-0.774325	0	0	0	0
6.724511	-0.2548117	-0.774325	0	0	0	0
6.741078	-0.2548117	-0.774325	0	0	0	0
6.762133	-0.2547871	-0.7742935	0.001170592	0.001491904	0.03111459	0.03965511
6.779134	-0.2547871	-0.7742935	0	0	-0.03075943	-0.03920246
6.800103	-0.2547871	-0.7742935	0	0	0	0
6.817038	-0.2547871	-0.7742935	0	0	0	0
6.837943	-0.2547871	-0.7742935	0	0	0	0
6.854675	-0.2547871	-0.7742935	0	0	0	0
6.877036	-0.2547871	-0.7742935	0	0	0	0
6.893609	-0.2547871	-0.7742935	0	0	0	0
6.914196	-0.2547871	-0.7742935	0	0	0	0
6.930764	-0.2547871	-0.7742935	0	0	0	0
6.953259	-0.2547871	-0.7742935	0	0	0	0
6.969827	-0.2547871	-0.7742935	0	0	0	0
6.991286	-0.2547871	-0.7742935	0	0	0	0
7.007854	-0.2547871	-0.7742935	0	0	0	0
7.029612	-0.2547871	-0.7742935	0	0	0	0
7.046179	-0.2547871	-0.7742935	0	0	0	0
7.065539	-0.2547871	-0.7742935	0	0	0	0
7.083373	-0.2547871	-0.7742935	0	0	0	0
7.101257	-0.2547871	-0.7742935	0	0	0	0
7.124928	-0.2547871	-0.7742935	0	0	0	0
7.14214	-0.2547871	-0.7742935	0	0	0	0
7.170771	-0.2547871	-0.7742935	0	0	0	0
7.187338	-0.2547871	-0.7742935	0	0	0	0
7.208451	-0.2547871	-0.7742935	0	0	0	0
7.225325	-0.2547871	-0.7742935	0	0	0	0
7.246828	-0.2547871	-0.7742935	0	0	0	0
7.263394	-0.2547871	-0.7742935	0	0	0	0
7.287423	-0.2547871	-0.7742935	0	0	0	0
7.309338	-0.2547871	-0.7742935	0	0	0	0
7.332927	-0.2547871	-0.7742935	0	0	0	0
7.349494	-0.2547871	-0.7742935	0	0	0	0
7.370321	-0.2547871	-0.7742935	0	0	0	0
7.386889	-0.2547871	-0.7742935	0	0	0	0
7.409068	-0.2547871	-0.7742935	0	0	0	0
7.425637	-0.2547871	-0.7742935	0	0	0	0
7.448133	-0.2547871	-0.7742935	0	0	0	0
7.464701	-0.2547871	-0.7742935	0	0	0	0
7.486281	-0.2547871	-0.7742935	0	0	0	0
7.502848	-0.2547871	-0.7742935	0	0	0	0
7.525832	-0.2547871	-0.7742935	0	0	0	0
7.542398	-0.2547871	-0.7742935	0	0	0	0
7.562241	-0.2547871	-0.7742935	0	0	0	0
7.579068	-0.2547871	-0.7742935	0	0	0	0
7.595375	-0.2547871	-0.7742935	0	0	0	0
7.617786	-0.2547871	-0.7742935	0	0	0	0
7.634611	-0.2547871	-0.7742935	0	0	0	0
7.707502	-0.2547871	-0.7742935	0	0	0	0
7.724434	-0.2547871	-0.7742935	0	0	0	0
7.749142	-0.2547871	-0.7742935	0	0	0	0
7.76571	-0.2547871	-0.7742935	0	0	0	0
7.786238	-0.2547871	-0.7742935	0	0	0	0
7.802998	-0.2547871	-0.7742935	0	0	0	0
7.825843	-0.2547871	-0.7742935	0	0	0	0
7.846585	-0.2547871	-0.7742935	0	0	0	0
7.868234	-0.2547871	-0.7742935	0	0	0	0
7.884802	-0.2547871	-0.7742935	0	0	0	0
7.905066	-0.2547871	-0.7742935	0	0	0	0
7.923618	-0.2547871	-0.7742935	0	0	0	0
7.949142	-0.2547871	-0.7742935	0	0	0	0
7.96571	-0.2547871	-0.7742935	0	0	0	0
7.985633	-0.2547871	-0.7742935	0	0	0	0
8.002202	-0.2547871	-0.7742935	0	0	0	0
8.018929	-0.2547871	-0.7742935	0	0	0	0
8.040938	-0.2547871	-0.7742935	0	0	0	0
8.057506	-0.2547871	-0.7742935	0	0	0	0
8.080379	-0.2547871	-0.7742935	0	0	0	0
8.097206	-0.2547871	-0.7742935	0	0	0	0
8.120561	-0.2547871	-0.7742935	0	0	0	0
8.142953	-0.2547871	-0.7742935	0	0	0	0
8.165891	-0.2547871	-0.7742935	0	0	0	0
8.182611	-0.2547871	-0.7742935	0	0	0	0
8.203476	-0.2547871	-0.7742935	0	0	0	0
8.220302	-0.2547871	-0.7742935	0	0	0	0
8.241158	-0.2547871	-0.7742935	0	0	0	0
8.257832	-0.2547871	-0.7742935	0	0	0	0
8.280549	-0.2547871	-0.7742935	0	0	0	0
8.297115	-0.2547871	-0.7742935	0	0	0	0
8.318659	-0.2547871	-0.7742935	0	0	0	0
8.335225	-0.2547871	-0.7742935	0	0	0	0
8.357775	-0.2547624	-0.7742622	0.00109299	0.001390357	0.02794234	0.03554455
8.374664	-0.2547624	-0.7742622	0	0	-0.02771329	-0.03525318
8.395949	-0.2545652	-0.7740113	0.009263407	0.01178648	0.2426587	0.3087517
8.412519	-0.2545652	-0.7740113	0	0	-0.2447128	-0.3113653
8.437351	-0.2541709	-0.773447	0.01588123	0.02272553	0.3835872	0.5489011
8.454252	-0.2541709	-0.773447	0	0	-0.3805368	-0.5445361
8.475809	-0.251161	-0.7696317	0.1396255	0.1769847	3.630608	4.602041
8.492377	-0.251161	-0.7696317	0	0	-3.662303	-4.642217
8.51234	-0.2508647	-0.7692574	0.0148442	0.01875418	0.4063509	0.5133842
8.529014	-0.2508647	-0.7692574	0	0	-0.4051767	-0.5119008
8.546769	-0.2508647	-0.7692574	0	0	0	0
8.569294	-0.2495801	-0.7676368	0.05702639	0.0719442	1.415737	1.786087
8.585863	-0.2495801	-0.7676368	0	0	-1.4587	-1.840289
8.605438	-0.2343005	-0.7486579	0.7805657	0.9695447	21.59584	26.82431
8.622005	-0.2343005	-0.7486579	0	0	-21.59698	-26.82573
8.64187	-0.2343005	-0.7486579	0	0	0	0
8.66421	-0.2168515	-0.727614	0.7810372	0.9419475	18.50586	22.31846
8.68112	-0.2168515	-0.727614	0	0	-19.89885	-23.99843
8.703772	-0.203562	-0.7119998	0.5866914	0.6893182	14.82994	17.42407
8.72034	-0.203562	-0.7119998	0	0	-14.95904	-17.57575
8.74177	-0.1863901	-0.6921941	0.8013015	0.9242051	21.08788	24.32234
8.760543	-0.1863901	-0.6921941	0	0	-19.93134	-22.98841
8.783555	-0.1601431	-0.6627212	1.140568	1.280755	27.29595	30.6509
8.800122	-0.1601431	-0.6627212	0	0	-28.81722	-32.35915
8.822913	-0.1263237	-0.6265179	1.483898	1.588496	37.70243	40.36003
8.840182	-0.1263237	-0.6265179	0	0	-37.04184	-39.65287
8.867018	-0.0914025	-0.5901794	1.301311	1.354124	29.50511	30.70257
8.88376	-0.0914025	-0.5901794	0	0	-29.86154	-31.07346
8.903495	-0.05932504	-0.5579659	1.62546	1.632352	44.56113	44.75005
8.920062	-0.05932504	-0.5579659	0	0	-44.77654	-44.96636
8.941244	-0.05932504	-0.5579659	0	0	0	0
8.966385	-0.01544614	-0.5148588	1.745329	1.71463	37.67752	37.01479
8.990732	-0.01544614	-0.5148588	0	0	-35.26768	-34.64733
9.013785	0.0171036	-0.4787043	1.411942	1.568312	29.78751	33.08643
9.030352	0.0171036	-0.4787043	0	0	-35.6376	-39.58441
9.050816	0.04018888	-0.4573541	1.128095	1.043306	30.46418	28.17443
9.067383	0.04018888	-0.4573541	0	0	-30.4634	-28.17371
9.088036	0.05525947	-0.4430797	0.7297131	0.6911609	19.6054	18.56961
9.104916	0.05525947	-0.4430797	0	0	-19.44201	-18.41485
9.124234	0.05090336	-0.4279269	-0.2254884	0.7843646	-6.2292	21.66836
9.140944	0.05090336	-0.4279269	0	0	6.258715	-21.77103
9.157459	0.05090336	-0.4279269	0	0	0	0
9.181496	0.0240743	-0.4028203	-1.116184	1.044524	-27.52467	25.75756
9.198212	0.0240743	-0.4028203	0	0	27.38941	-25.63098
9.219898	0.01202574	-0.3916724	-0.5555774	0.5140474	-14.4672	13.38576
9.236467	0.01202574	-0.3916724	0	0	14.52274	-13.43715
9.26112	0.008631364	-0.3792363	-0.1376888	0.504456	-3.340209	12.23766
9.280004	0.008631364	-0.3792363	0	0	3.16263	-11.58705
9.302765	0.01586709	-0.3480651	0.3178953	1.36948	7.633448	32.88457
9.319333	0.01586709	-0.3480651	0	0	-8.082867	-34.82065
9.340306	0.01418326	-0.330748	-0.08028483	0.8256795	-2.138569	21.99384
9.356875	0.01418326	-0.330748	0	0	2.138514	-21.99329
9.381443	0.008657678	-0.3248409	-0.2249133	0.2404422	-5.467456	5.84495
9.399044	0.008657678	-0.3248409	0	0	5.333666	-5.701922
9.427379	0.009657594	-0.3228041	0.03528957	0.07188205	0.7682395	1.564843
9.44423	0.009657594	-0.3228041	0	0	-0.7809838	-1.590802
9.469211	0.009631281	-0.3227825	-0.001053363	0.0008673265	-0.02518082	0.02073358
9.489096	0.009631281	-0.3227825	0	0	0.02347819	-0.01933166
9.512236	0.009631281	-0.3227825	0	0	0	0
9.528805	0.009631281	-0.3227825	0	0	0	0
9.554656	0.009631281	-0.3227825	0	0	0	0
9.572965	0.009631281	-0.3227825	0	0	0	0
9.594127	0.009631281	-0.3227825	0	0	0	0
9.61078	0.009631281	-0.3227825	0	0	0	0
9.636425	0.009604968	-0.3227608	-0.001026024	0.0008436838	-0.02425686	0.01994604
9.652991	0.009604968	-0.3227608	0	0	0.02430673	-0.01998704
9.675263	0.009473401	-0.3226525	-0.005907254	0.004861319	-0.1520983	0.1251679
9.696335	0.009473401	-0.3226525	0	0	0.1362891	-0.1121579
9.721045	0.009420774	-0.3226525	-0.002129736	0	-0.04651898	0
9.742205	0.009420774	-0.3226525	0	0	0.04643	0
9.762225	0.00931552	-0.3226959	-0.005257333	-0.002162923	-0.1276682	-0.05252407
9.778794	0.00931552	-0.3226959	0	0	0.1436837	0.05911303
9.801394	0.009262893	-0.3227392	-0.002328577	-0.001916037	-0.05944901	-0.04891679
9.817963	0.009262893	-0.3227392	0	0	0.05945046	0.04891799
9.838047	0.009131325	-0.3228041	-0.006550759	-0.003234805	-0.1787258	-0.0882559
9.854963	0.009131325	-0.3228041	0	0	0.1770444	0.08742562
9.878034	0.008973443	-0.3228041	-0.006843527	0	-0.1711455	0
9.8946	0.008973443	-0.3228041	0	0	0.1726567	0
9.916402	0.008841875	-0.3227825	-0.006034687	0.0009937776	-0.1572835	0.02590106
9.932998	0.008841875	-0.3227825	0	0	0.1571624	-0.02588112
9.954651	0.008341912	-0.3224577	-0.02308958	0.01499945	-0.6036648	0.3921525
9.972381	0.008341912	-0.3224577	0	0	0.586284	-0.3808616
9.995142	0.005710464	-0.3205535	-0.1156104	0.08366023	-2.855205	2.066139
10.01171	0.005710464	-0.3205535	0	0	2.939674	-2.127264
10.03703	-0.01142056	-0.3066589	-0.6765537	0.5487364	-16.15177	13.10031
10.0536	-0.01142056	-0.3066589	0	0	16.1503	-13.09912
10.07467	-0.02949145	-0.2920624	-0.8575238	0.6926534	-22.78017	18.40038
10.0915	-0.02949145	-0.2920624	0	0	22.62541	-18.27537
10.11794	-0.03553766	-0.2872581	-0.2286633	0.1816943	-5.284671	4.199164
10.13465	-0.03553766	-0.2872581	0	0	5.299857	-4.211231
10.15485	-0.03566908	-0.2873642	-0.006504455	-0.005254307	-0.1762381	-0.1423654
10.17723	-0.03566908	-0.2873642	0	0	0.1527255	0.1233719
10.20093	-0.03572164	-0.2874067	-0.00221871	-0.001792579	-0.04815245	-0.03890418
10.21749	-0.03572164	-0.2874067	0	0	0.05511302	0.04452788
10.23876	-0.03572164	-0.2874067	0	0	0	0
10.25546	-0.03572164	-0.2874067	0	0	0	0
10.2788	-0.03569536	-0.2874279	0.001125989	-0.0009090909	0.02811625	-0.02270023
10.29656	-0.03569536	-0.2874279	0	0	-0.02739982	0.02212181
10.32044	-0.03569536	-0.2875129	0	-0.003556809	0	-0.0854312
10.33729	-0.03569536	-0.2875129	0	0	0	0.08731528
10.35663	-0.03569536	-0.2875978	0	-0.004391858	0	-0.1213395
10.3732	-0.03569536	-0.2875978	0	0	0	0.1223127
10.38977	-0.03569536	-0.2875978	0	0	0	0
10.41345	-0.0354851	-0.2878526	0.00887857	-0.01075981	0.2205866	-0.2673256
10.43002	-0.0354851	-0.2878526	0	0	-0.2205918	0.2673319
10.45079	-0.03545881	-0.2879588	0.001265438	-0.005113401	0.03389032	-0.1369445
10.46736	-0.03545881	-0.2879588	0	0	-0.03388859	0.1369376
10.48848	-0.03545881	-0.2880013	0	-0.002010894	0	-0.05335598
10.50596	-0.03545881	-0.2880013	0	0	0	0.05209574
10.52915	-0.03545881	-0.2881712	0	-0.0073246	0	-0.180067
10.55021	-0.03545881	-0.2881712	0	0	0	0.165508
10.57206	-0.03559023	-0.2886173	-0.006014967	-0.0204191	-0.1401869	-0.4758948
10.58863	-0.03559023	-0.2886173	0	0	0.1565749	0.5315273
10.61351	-0.04129231	-0.2933187	-0.2291443	-0.1889288	-5.527889	-4.557728
10.63014	-0.04129231	-0.2933187	0	0	5.519635	4.550922
10.65133	-0.06946699	-0.3164275	-1.33018	-1.091013	-35.17945	-28.85418
10.66789	-0.06946699	-0.3164275	0	0	35.23633	28.90083
10.68941	-0.09474183	-0.3374615	-1.1745	-0.9774291	-30.83583	-25.66185
10.70914	-0.09474183	-0.3374615	0	0	28.47388	23.69621
10.73769	-0.1187025	-0.357697	-0.8392198	-0.7087481	-17.38243	-14.68003
10.75426	-0.1187025	-0.357697	0	0	18.60042	15.70865
10.77581	-0.1264532	-0.3643198	-0.3596284	-0.307291	-9.434283	-8.061293
10.79261	-0.1264532	-0.3643198	0	0	9.377508	8.01278
10.81502	-0.1269193	-0.3648525	-0.02080296	-0.02377634	-0.5306256	-0.606468
10.83211	-0.1269193	-0.3648525	0	0	0.526705	0.6019871
10.85356	-0.1268935	-0.3650523	0.001206357	-0.009313328	0.03129688	-0.2416184
10.87013	-0.1268935	-0.3650523	0	0	-0.03172784	0.2449455
10.89007	-0.1266863	-0.3653632	0.01038852	-0.01558988	0.2845503	-0.4270199
10.9067	-0.1266863	-0.3653632	0	0	-0.2840606	0.4262849
10.92321	-0.1266863	-0.3653632	0	0	0	0
10.94597	-0.1261942	-0.3658741	0.02161332	-0.02243999	0.550345	-0.5713948
10.96273	-0.1261942	-0.3658741	0	0	-0.5468789	0.5677961
10.98364	-0.1237331	-0.367986	0.1177171	-0.1010098	3.125577	-2.681972
11.00025	-0.1237331	-0.367986	0	0	-3.137095	2.691855
11.02173	-0.1237072	-0.3680082	0.001206459	-0.001036487	0.03166936	-0.0272076
11.03893	-0.1237072	-0.3680082	0	0	-0.03119533	0.02680036
11.06198	-0.1237072	-0.3680527	0	-0.001930257	0	-0.04796032
11.07854	-0.1237072	-0.3680527	0	0	0	0.04872229
11.10073	-0.1237072	-0.3680972	0	-0.0020046	0	-0.05173458
11.1173	-0.1237072	-0.3680972	0	0	0	0.05172948
11.1408	-0.1236813	-0.3682974	0.00110262	-0.008520422	0.02751633	-0.2126305
11.15736	-0.1236813	-0.3682974	0	0	-0.02751895	0.2126508
11.17836	-0.1235776	-0.368609	0.004936657	-0.01483587	0.1314189	-0.3949463
11.19493	-0.1235776	-0.368609	0	0	-0.1314156	0.3949363
11.21611	-0.1234221	-0.368876	0.007341168	-0.01260777	0.1944717	-0.333987
11.23381	-0.1234221	-0.368876	0	0	-0.1888329	0.3243029
11.25733	-0.1234221	-0.368876	0	0	0	0
11.27394	-0.1234221	-0.368876	0	0	0	0
11.29501	-0.1234221	-0.368876	0	0	0	0
11.31158	-0.1234221	-0.368876	0	0	0	0
11.33955	-0.1234221	-0.368876	0	0	0	0
11.35612	-0.1234221	-0.368876	0	0	0	0
11.37715	-0.123448	-0.3688982	-0.00123262	-0.001057544	-0.03278948	-0.02813221
11.39371	-0.123448	-0.3688982	0	0	0.03279031	0.02813292
11.41397	-0.1234221	-0.3689205	0.001279279	-0.001099047	0.03474014	-0.02984575
11.43489	-0.1234221	-0.3689205	0	0	-0.03106651	0.02668968
11.46247	-0.123448	-0.3689428	-0.0009396506	-0.0008072673	-0.01937421	-0.01664467
11.47909	-0.123448	-0.3689428	0	0	0.02126184	0.01826635
11.49995	-0.123448	-0.3689873	0	-0.002134579	0	-0.05695918
11.51652	-0.123448	-0.3689873	0	0	0	0.05703174
11.5392	-0.1234221	-0.3690096	0.001142203	-0.0009812834	0.0290962	-0.02499697
11.55577	-0.1234221	-0.3690096	0	0	-0.02909762	0.02499818
11.57705	-0.1234221	-0.3690096	0	0	0	0
11.59362	-0.1234221	-0.3690096	0	0	0	0
11.61618	-0.1234221	-0.3690096	0	0	0	0
11.63716	-0.1234221	-0.3690096	0	0	0	0
11.65944	-0.1234221	-0.369054	0	-0.001996758	0	-0.04615755
11.67601	-0.1234221	-0.369054	0	0	0	0.05139809
11.70209	-0.1234221	-0.369054	0	0	0	0
11.71876	-0.1234221	-0.369054	0	0	0	0
11.73866	-0.1233962	-0.3690763	0.001302208	-0.001118424	0.03560532	-0.03058026
11.75529	-0.1233962	-0.3690763	0	0	-0.0356425	0.03061219
11.77656	-0.1233962	-0.3690763	0	0	0	0
11.79863	-0.1234221	-0.3690986	-0.001174474	-0.001008718	-0.02710164	-0.02327672
11.81542	-0.1234221	-0.3690986	0	0	0.03021927	0.02595435
11.8414	-0.1233962	-0.3691208	0.0009978592	-0.0008570288	0.02333009	-0.02003745
11.85931	-0.1233962	-0.3691208	0	0	-0.02273595	0.01952717
11.88298	-0.1233962	-0.3691208	0	0	0	0
11.89955	-0.1233962	-0.3691208	0	0	0	0
11.9211	-0.1233703	-0.3691431	0.001202402	-0.001033001	0.03154311	-0.02709914
11.93767	-0.1233703	-0.3691431	0	0	-0.03154153	0.02709779
11.96343	-0.1233703	-0.3691431	0	0	0	0
11.98026	-0.1233703	-0.3691431	0	0	0	0
12.00558	-0.1233703	-0.3691876	0	-0.001758607	0	-0.04171927
12.02228	-0.1233703	-0.3691876	0	0	0	0.04185847
12.04478	-0.1233443	-0.3692099	0.001152121	-0.0009895193	0.02939598	-0.02524725
12.06134	-0.1233443	-0.3692099	0	0	-0.02949286	0.02533046
12.0822	-0.1233184	-0.3692321	0.001242654	-0.001067582	0.03320889	-0.02853024
12.09876	-0.1233184	-0.3692321	0	0	-0.0332072	0.02852878
12.121	-0.1233443	-0.3692544	-0.001165175	-0.001001018	-0.03002419	-0.02579421
12.14202	-0.1233443	-0.3692544	0	0	0.02693625	0.02314132
12.1647	-0.1232925	-0.3692989	0.002285888	-0.001963557	0.05231753	-0.04494028
12.18144	-0.1232925	-0.3692989	0	0	-0.05798784	0.04981103
12.20534	-0.1232407	-0.3693435	0.002168598	-0.001862806	0.05335256	-0.04582936
12.22244	-0.1232407	-0.3693435	0	0	-0.05289461	0.04543599
12.24472	-0.1231629	-0.3694102	0.003490357	-0.002998041	0.0886476	-0.07614383
12.26128	-0.1231629	-0.3694102	0	0	-0.08985771	0.07718326
12.28344	-0.1191436	-0.3728648	0.1813984	-0.1559097	4.684398	-4.026184
12.30001	-0.1191436	-0.3728648	0	0	-4.684282	4.026084
12.32364	-0.104981	-0.3850711	0.5991713	-0.5164099	14.90326	-12.84472
12.34021	-0.104981	-0.3850711	0	0	-14.90361	12.84503
12.36467	-0.09153298	-0.3967606	0.5496948	-0.4778121	13.3971	-11.64518
12.38157	-0.09153298	-0.3967606	0	0	-13.28961	11.55174
12.40221	-0.0840907	-0.4032297	0.3606691	-0.3135052	9.609435	-8.352832
12.41878	-0.0840907	-0.4032297	0	0	-9.694667	8.426918
12.44024	-0.08045752	-0.4063947	0.1693037	-0.1474855	4.452108	-3.878364
12.4568	-0.08045752	-0.4063947	0	0	-4.451996	3.878266
12.47847	-0.08045752	-0.4063947	0	0	0	0
12.49504	-0.08045752	-0.4063947	0	0	0	0
12.51656	-0.08045752	-0.4063947	0	0	0	0
12.53768	-0.08045752	-0.4063947	0	0	0	0
12.56099	-0.08048366	-0.4063719	-0.001121459	0.0009779608	-0.02524224	0.02201233
12.57756	-0.08048366	-0.4063719	0	0	0.0281203	-0.02452212
12.5986	-0.08050981	-0.4063491	-0.001242495	0.001083201	-0.03303123	0.02879646
12.61517	-0.08050981	-0.4063491	0	0	0.03302956	-0.028795
12.63842	-0.08050981	-0.4063491	0	0	0	0
12.65925	-0.08050981	-0.4063491	0	0	0	0
12.683	-0.08053596	-0.4062807	-0.001100834	0.002878669	-0.02469055	0.06456554
12.70108	-0.08053596	-0.4062807	0	0	0.02631981	-0.06882603
12.72347	-0.08092812	-0.4059389	-0.01751208	0.01526435	-0.4327163	0.3771758
12.74021	-0.08092812	-0.4059389	0	0	0.4475009	-0.3900627
12.76759	-0.0813987	-0.4054376	-0.01718489	0.01830399	-0.389488	0.4148519
12.78461	-0.0813987	-0.4054376	0	0	0.3870285	-0.4122323
12.80556	-0.08325448	-0.4036847	-0.08860036	0.08369189	-2.333749	2.204459
12.82212	-0.08325448	-0.4036847	0	0	2.361871	-2.231023
12.84379	-0.08954933	-0.3981656	-0.2904952	0.254694	-7.597305	6.660996
12.86057	-0.08954933	-0.3981656	0	0	7.556595	-6.625303
12.88086	-0.092655	-0.39547	-0.1530609	0.1328507	-4.129682	3.584398
12.89743	-0.092655	-0.39547	0	0	4.152548	-3.604244
12.91789	-0.092655	-0.39547	0	0	0	0
12.93446	-0.092655	-0.39547	0	0	0	0
12.96586	-0.09257672	-0.3955379	0.002492957	-0.002162176	0.05197342	-0.04507727
12.98243	-0.09257672	-0.3955379	0	0	-0.05197239	0.04507637
13.00498	-0.09252454	-0.3955832	0.002314276	-0.002007645	0.05916314	-0.05132428
13.02154	-0.09252454	-0.3955832	0	0	-0.05916458	0.05132553
13.04552	-0.09255063	-0.3955606	-0.001088064	0.000943279	-0.0268344	0.02326363
13.06221	-0.09255063	-0.3955606	0	0	0.02675448	-0.02319435
13.08421	-0.09255063	-0.3955606	0	0	0	0
13.10078	-0.09255063	-0.3955606	0	0	0	0
13.16211	-0.09249844	-0.3954248	0.0008508591	0.002214372	0.0109226	0.0284262
13.17867	-0.09249844	-0.3954248	0	0	-0.0109226	-0.0284262
13.20204	-0.09252454	-0.3954474	-0.001116572	-0.0009692691	-0.027959	-0.02427052
13.21861	-0.09252454	-0.3954474	0	0	0.02795967	0.0242711
13.24054	-0.09247236	-0.3954927	0.00237884	-0.002063948	0.06178679	-0.05360796
13.25729	-0.09247236	-0.3954927	0	0	-0.06149584	0.05335553
13.27759	-0.09239408	-0.3955606	0.003857236	-0.003345435	0.1041297	-0.09031312
13.29415	-0.09239408	-0.3955606	0	0	-0.1046415	0.09075707
13.31536	-0.09231581	-0.3956285	0.003692057	-0.003202173	0.09775282	-0.08478238
13.33192	-0.09231581	-0.3956285	0	0	-0.09775282	0.08478238
13.35604	-0.09202878	-0.3958775	0.01190023	-0.01032358	0.2924784	-0.2537282
13.37261	-0.09202878	-0.3958775	0	0	-0.2924852	0.2537342
13.39452	-0.09182003	-0.3961039	0.009528998	-0.01033504	0.2476732	-0.2686235
13.41176	-0.09182003	-0.3961039	0	0	-0.2433719	0.2639584
13.43522	-0.09135031	-0.3966021	0.02002598	-0.02124034	0.4920048	-0.5218396
13.45438	-0.09135031	-0.3966021	0	0	-0.4699603	0.4984583
13.47531	-0.09103714	-0.3969645	0.01495913	-0.01731192	0.3731246	-0.4318101
13.49277	-0.09103714	-0.3969645	0	0	-0.3896218	0.450902
13.51657	-0.0878	-0.3998669	0.136042	-0.1219766	3.297663	-2.956718
13.53313	-0.0878	-0.3998669	0	0	-3.370436	3.021966
13.55397	-0.07993458	-0.4067594	0.377546	-0.3308423	10.09449	-8.845767
13.57056	-0.07993458	-0.4067594	0	0	-10.08652	8.83878
13.59019	-0.07211158	-0.4137288	0.3985525	-0.3550675	11.00175	-9.801382
13.60711	-0.07211158	-0.4137288	0	0	-10.90415	9.714431
13.62333	-0.07211158	-0.4137288	0	0	0	0
13.64589	-0.06655943	-0.4188679	0.2460526	-0.2277455	6.345111	-5.873014
13.66246	-0.06655943	-0.4188679	0	0	-6.287741	5.819913
13.68392	-0.06663803	-0.4189368	-0.003662684	-0.003212357	-0.0963209	-0.08447824
13.70112	-0.06663803	-0.4189368	0	0	0.09473848	0.08309037
13.72316	-0.06669043	-0.4189828	-0.002377144	-0.002086127	-0.06057097	-0.05315569
13.73999	-0.06669043	-0.4189828	0	0	0.06115349	0.05366691
13.76356	-0.06671663	-0.4190058	-0.0011116	-0.0009750212	-0.02751841	-0.02413731
13.78572	-0.06671663	-0.4190058	0	0	0.02430758	0.02132098
13.80758	-0.06674282	-0.4190288	-0.001198305	-0.001051073	-0.02721848	-0.02387423
13.8248	-0.06674282	-0.4190288	0	0	0.03066613	0.02689828
13.84766	-0.06676903	-0.4190517	-0.001146194	-0.001005079	-0.02860033	-0.02507916
13.86638	-0.06676903	-0.4190517	0	0	0.02756586	0.02417205
13.88785	-0.06676903	-0.4190517	0	0	0	0
13.90442	-0.06676903	-0.4190517	0	0	0	0
13.92405	-0.06676903	-0.4190517	0	0	0	0
13.94083	-0.06676903	-0.4190517	0	0	0	0
13.95762	-0.06676903	-0.4190517	0	0	0	0
13.97946	-0.06679522	-0.4190747	-0.001199404	-0.001053402	-0.03105042	-0.02727068
13.99603	-0.06679522	-0.4190747	0	0	0.03122697	0.02742574
14.01913	-0.06679522	-0.4190747	0	0	0	0
14.0357	-0.06679522	-0.4190747	0	0	0	0
14.05693	-0.06679522	-0.4190747	0	0	0	0
14.07411	-0.06679522	-0.4190747	0	0	0	0
14.09395	-0.06679522	-0.4190747	0	0	0	0
14.11095	-0.06679522	-0.4190747	0	0	0	0
14.12889	-0.06679522	-0.4190747	0	0	0	0
14.15156	-0.06679522	-0.4190747	0	0	0	0
14.16813	-0.06679522	-0.4190747	0	0	0	0
14.18873	-0.06682142	-0.4190977	-0.00127176	-0.001115503	-0.03421608	-0.03001205
14.2053	-0.06682142	-0.4190977	0	0	0.03421871	0.03001436
14.22834	-0.06682142	-0.4190977	0	0	0	0
14.24504	-0.06682142	-0.4190977	0	0	0	0
14.26539	-0.06682142	-0.4190977	0	0	0	0
14.28306	-0.06682142	-0.4190977	0	0	0	0
14.30423	-0.06682142	-0.4190977	0	0	0	0
14.3208	-0.06682142	-0.4190977	0	0	0	0
14.34123	-0.06682142	-0.4190977	0	0	0	0
14.3578	-0.06682142	-0.4190977	0	0	0	0
14.38143	-0.06682142	-0.4190977	0	0	0	0
14.398	-0.06682142	-0.4190977	0	0	0	0
14.41854	-0.06682142	-0.4190977	0	0	0	0
14.43576	-0.06682142	-0.4190977	0	0	0	0
14.4586	-0.06682142	-0.4190977	0	0	0	0
14.47653	-0.06682142	-0.4190977	0	0	0	0
14.49878	-0.06682142	-0.4190977	0	0	0	0
14.51736	-0.06682142	-0.4190977	0	0	0	0
14.54133	-0.06682142	-0.4190977	0	0	0	0
14.5579	-0.06682142	-0.4190977	0	0	0	0
14.58573	-0.06682142	-0.4190977	0	0	0	0
14.6023	-0.06682142	-0.4190977	0	0	0	0
14.6252	-0.06682142	-0.4190977	0	0	0	0
14.64252	-0.06682142	-0.4190977	0	0	0	0
14.66294	-0.06682142	-0.4191437	0	-0.002249965	0	-0.0596164
14.67951	-0.06682142	-0.4191437	0	0	0	0.0608229
14.70548	-0.06765972	-0.4205235	-0.03228025	-0.05313108	-0.7588793	-1.249063
14.72205	-0.06765972	-0.4205235	0	0	0.7588963	1.249091
14.74584	-0.09255063	-0.4657554	-1.04626	-1.901272	-25.92536	-47.11175
14.7624	-0.09255063	-0.4657554	0	0	25.92536	47.11175
14.78451	-0.1125227	-0.5627381	-0.9033827	-4.386755	-23.3587	-113.428
14.80144	-0.1125227	-0.5627381	0	0	23.14468	112.3887
14.82252	-0.124355	-0.691217	-0.5612031	-6.093716	-14.7655	-160.3283
14.83909	-0.124355	-0.691217	0	0	14.90499	161.843
14.86101	-0.1279291	-0.8066652	-0.1630574	-5.266979	-4.236639	-136.8493
14.87799	-0.1279291	-0.8066652	0	0	4.191461	135.39
14.89882	-0.1295855	-0.927971	-0.07952867	-5.824099	-2.103306	-154.0307
14.91551	-0.1295855	-0.927971	0	0	2.119396	155.209
14.93743	-0.1230592	-1.019826	0.2978335	-4.191877	7.714185	-108.5738
14.95399	-0.1230592	-1.019826	0	0	-7.740187	108.9398
14.97684	-0.1148347	-1.094778	0.3599825	-3.280571	9.133493	-83.23479
14.99341	-0.1148347	-1.094778	0	0	-9.133273	83.23278
15.01404	-0.1150424	-1.154459	-0.01006801	-2.892152	-0.2706248	-77.74009
15.03061	-0.1150424	-1.154459	0	0	0.2706178	77.73809
15.05279	-0.1203109	-1.212987	-0.2375564	-2.639051	-6.131141	-68.11178
15.06936	-0.1203109	-1.212987	0	0	6.131291	68.11345
15.09269	-0.1234998	-1.252854	-0.1366579	-1.708422	-3.42478	-42.8147
15.11075	-0.1234998	-1.252854	0	0	3.301452	41.27293
15.13674	-0.1268676	-1.26266	-0.1295799	-0.377298	-2.941833	-8.565736
15.15331	-0.1268676	-1.26266	0	0	3.044941	8.865957
15.17515	-0.1269193	-1.262971	-0.002370939	-0.01425702	-0.06173296	-0.371215
15.19171	-0.1269193	-1.262971	0	0	0.06173296	0.371215
15.21357	-0.1269452	-1.263049	-0.001184879	-0.00356691	-0.03083733	-0.09283137
15.23014	-0.1269452	-1.263049	0	0	0.03083503	0.09282446
15.25136	-0.1270229	-1.263127	-0.003659499	-0.003667221	-0.09682234	-0.09702664
15.26793	-0.1270229	-1.263127	0	0	0.09682966	0.09703398
15.28937	-0.1270747	-1.262971	-0.002415556	0.007268218	-0.0635623	0.191254
15.30941	-0.1270747	-1.262971	0	0	0.05823281	-0.1752179
15.32968	-0.1271006	-1.263049	-0.001278001	-0.00384724	-0.03170515	-0.09544381
15.34625	-0.1271006	-1.263049	0	0	0.03469646	0.1044487
15.36828	-0.1271265	-1.263127	-0.001175137	-0.003532174	-0.03043798	-0.09148908
15.39131	-0.1271265	-1.263127	0	0	0.02607709	0.07838131
15.41346	-0.1271265	-1.263127	0	0	0	0
15.43038	-0.1271265	-1.263127	0	0	0	0
15.45384	-0.1271006	-1.263049	0.001103778	0.003317685	0.02733638	0.08216643
15.47363	-0.1271006	-1.263049	0	0	-0.0255197	-0.07670595
15.50407	-0.1272818	-1.262504	-0.005953103	0.01789798	-0.1185078	0.3562932
15.52064	-0.1272818	-1.262504	0	0	0.1266311	-0.3807159
15.54142	-0.1273077	-1.262115	-0.001246443	0.01870381	-0.03337734	0.5008522
15.55799	-0.1273077	-1.262115	0	0	0.03337052	-0.5007499
15.57924	-0.1273077	-1.26165	0	0.0219189	0	0.5795167
15.59835	-0.1273077	-1.26165	0	0	0	-0.5430273
15.62005	-0.127722	-1.258562	-0.01909692	0.1423225	-0.467984	3.487718
15.63662	-0.127722	-1.258562	0	0	0.4991169	-3.71974
15.65847	-0.1260647	-1.252477	0.07582731	0.2784559	1.973362	7.246655
15.67539	-0.1260647	-1.252477	0	0	-1.95579	-7.182127
15.70121	-0.1251841	-1.249327	0.03410402	0.1219671	0.7979618	2.853771
15.71908	-0.1251841	-1.249327	0	0	-0.7804767	-2.791239
15.74005	-0.1281362	-1.240927	-0.1408276	0.4006926	-3.626257	10.31768
15.75662	-0.1281362	-1.240927	0	0	3.75212	-10.6758
15.77855	-0.1358941	-1.219767	-0.353654	0.9646172	-9.184266	25.05076
15.79512	-0.1358941	-1.219767	0	0	9.184721	-25.052
15.81658	-0.1476029	-1.189936	-0.5455475	1.389941	-14.34495	36.54794
15.83316	-0.1476029	-1.189936	0	0	14.341	-36.53786
15.85417	-0.1596301	-1.160467	-0.572548	1.402818	-15.23331	37.32362
15.87255	-0.1596301	-1.160467	0	0	14.53586	-35.61477
15.89512	-0.1715088	-1.09871	-0.526201	2.735726	-12.8478	66.7959
15.91169	-0.1715088	-1.09871	0	0	13.44383	-69.89466
15.93275	-0.1782968	-0.9927033	-0.3223327	5.033778	-8.566911	133.787
15.94932	-0.1782968	-0.9927033	0	0	8.566911	-133.787
15.97351	-0.1769202	-0.9094251	0.0568914	3.441456	1.395601	84.42223
15.99008	-0.1769202	-0.9094251	0	0	-1.395568	-84.42025
16.0109	-0.1689017	-0.8302504	0.3851587	3.803055	10.30223	101.7242
16.02747	-0.1689017	-0.8302504	0	0	-10.30223	-101.7242
16.04916	-0.1687738	-0.7601025	0.005894062	3.23349	0.1540472	84.51048
16.06583	-0.1687738	-0.7601025	0	0	-0.1536412	-84.28778
16.08721	-0.1757724	-0.7018151	-0.3274098	2.726811	-8.606088	71.67525
16.10875	-0.1757724	-0.7018151	0	0	7.628861	-63.53649
16.13345	-0.1864663	-0.6219615	-0.4329488	3.232918	-9.362723	69.91338
16.15001	-0.1864663	-0.6219615	0	0	10.49131	-78.34072
16.18217	-0.181812	-0.531881	0.1447595	2.801694	2.97129	57.50673
16.19874	-0.181812	-0.531881	0	0	-2.971174	-57.50448
16.21943	-0.1604765	-0.4370882	1.031151	4.581372	27.67442	122.9567
16.23645	-0.1604765	-0.4370882	0	0	-27.33994	-121.4705
16.26018	-0.1308015	-0.3407844	1.250561	4.058431	30.68537	99.58284
16.27675	-0.1308015	-0.3407844	0	0	-31.03395	-100.7141
16.29721	-0.1116651	-0.2884049	0.9350405	2.559361	25.24879	69.11012
16.31378	-0.1116651	-0.2884049	0	0	-25.24879	-69.11012
16.33563	-0.1043824	-0.2729194	0.3333843	0.7088836	8.679149	18.4547
16.35219	-0.1043824	-0.2729194	0	0	-8.679149	-18.4547
16.37337	-0.1029245	-0.27174	0.06884915	0.05569942	1.824175	1.47577
16.38994	-0.1029245	-0.27174	0	0	-1.824175	-1.47577
16.41243	-0.1004502	-0.2613462	0.1100174	0.4621587	2.816857	11.83299
16.42959	-0.1004502	-0.2613462	0	0	-2.774716	-11.65597
16.45119	-0.08931439	-0.2046776	0.5154408	2.622995	13.29657	67.66408
16.4689	-0.08931439	-0.2046776	0	0	-13.11142	-66.72189
16.49147	-0.06294306	-0.1496575	1.168442	2.437791	29.0098	60.52491
16.50804	-0.06294306	-0.1496575	0	0	-29.8538	-62.2858
16.53001	-0.03919045	-0.1245357	1.081196	1.143522	28.05533	29.67261
16.54658	-0.03919045	-0.1245357	0	0	-28.05533	-29.67261
16.56754	-0.020918	-0.09161544	0.8716245	1.570346	23.22301	41.8393
16.58411	-0.020918	-0.09161544	0	0	-23.22418	-41.84142
16.60454	-0.01444636	-0.05236999	0.3167773	1.921008	8.56228	51.92357
16.6211	-0.01444636	-0.05236999	0	0	-8.56228	-51.92357
16.64258	-0.01739298	-0.0133056	-0.1371761	1.818593	-3.605363	47.79759
16.65915	-0.01739298	-0.0133056	0	0	3.605363	-47.79759
16.68021	-0.02599414	0.02055927	-0.4083569	1.607801	-10.85187	42.72648
16.69924	-0.02599414	0.02055927	0	0	10.18538	-40.10232
16.72354	-0.03448632	0.03544066	-0.3494778	0.6124127	-8.065635	14.13394
16.74011	-0.03448632	0.03544066	0	0	8.551222	-14.98486
16.76209	-0.03511713	0.03525433	-0.02870143	-0.008478288	-0.7445727	-0.2199438
16.77866	-0.03511713	0.03525433	0	0	0.7446095	0.2199547
16.79863	-0.03537997	0.03506798	-0.01316149	-0.009331535	-0.3602219	-0.2553984
16.8152	-0.03537997	0.03506798	0	0	0.3602031	0.2553851
16.83176	-0.03537997	0.03506798	0	0	0	0
16.85232	-0.03540625	0.03504934	-0.001278465	-0.0009066139	-0.03443711	-0.02442082
16.87213	-0.03540625	0.03504934	0	0	0.03167544	0.0224624
16.89524	-0.03540625	0.03504934	0	0	0	0
16.9118	-0.03540625	0.03504934	0	0	0	0
16.93485	-0.03566908	0.0348257	-0.01140514	-0.009704357	-0.2879087	-0.2449746
16.95851	-0.03566908	0.0348257	0	0	0.2441939	0.2077787
16.98716	-0.03590561	0.03454614	-0.008257119	-0.009758993	-0.1578584	-0.186571
17.00392	-0.03590561	0.03454614	0	0	0.1818189	0.2148897
17.02566	-0.03595818	0.03432248	-0.002418693	-0.01029188	-0.06282348	-0.2673226
17.04222	-0.03595818	0.03432248	0	0	0.06314884	0.2687071
17.06431	-0.03685173	0.0336514	-0.04046282	-0.03038832	-1.046838	-0.7861944
17.08101	-0.03685173	0.0336514	0	0	1.043286	0.7835266
17.10372	-0.03932182	0.03186127	-0.1087447	-0.07880972	-2.758943	-1.999467
17.12029	-0.03932182	0.03186127	0	0	2.768186	2.006166
17.14553	-0.03932182	0.03186127	0	0	0	0
17.16302	-0.03932182	0.03186127	0	0	0	0
17.18514	-0.03932182	0.03186127	0	0	0	0
17.20171	-0.03932182	0.03186127	0	0	0	0
17.22243	-0.03932182	0.03186127	0	0	0	0
17.239	-0.03932182	0.03186127	0	0	0	0
17.26243	-0.03929555	0.03184262	0.001121044	-0.0007958412	0.02802145	-0.01989273
17.27921	-0.03929555	0.03184262	0	0	-0.02787791	0.01979083
17.30171	-0.03929555	0.03180531	0	-0.00165807	0	-0.04221778
17.31876	-0.03929555	0.03180531	0	0	0	0.0419266
17.33948	-0.03929555	0.03176801	0	-0.001800312	0	-0.047666
17.35627	-0.03929555	0.03176801	0	0	0	0.0479932
17.37711	-0.03932182	0.03163744	-0.001260559	-0.006264191	-0.03349531	-0.1664508
17.39368	-0.03932182	0.03163744	0	0	0.0336934	0.1674351
17.41417	-0.03932182	0.03152552	0	-0.005462967	0	-0.1474248
17.43076	-0.03932182	0.03152552	0	0	0	0.1473413
17.45753	-0.0393481	0.03146956	-0.0009816419	-0.002090477	-0.02263947	-0.04821238
17.47487	-0.0393481	0.03146956	0	0	0.02225378	0.04739101
17.4946	-0.0394532	0.03135764	-0.005325881	-0.005671727	-0.1436514	-0.1529796
17.51117	-0.0394532	0.03135764	0	0	0.1467158	0.1562431
17.52789	-0.0394532	0.03135764	0	0	0	0
17.54833	-0.0395583	0.03113378	-0.00514199	-0.01095252	-0.1383711	-0.2947325
17.56492	-0.0395583	0.03113378	0	0	0.1388629	0.2957801
17.58718	-0.03971595	0.03098453	-0.007082463	-0.006705143	-0.1823081	-0.1725956
17.60375	-0.03971595	0.03098453	0	0	0.1824155	0.1726973
17.62556	-0.0486458	0.02456107	-0.4094286	-0.2945117	-10.66838	-7.67402
17.64213	-0.0486458	0.02456107	0	0	10.66785	7.673638
17.66672	-0.06548518	0.01254197	-0.6847656	-0.4887512	-16.63644	-11.87425
17.68739	-0.06548518	0.01254197	0	0	15.12786	10.79751
17.71403	-0.06875985	0.01008438	-0.1229498	-0.09227222	-2.598924	-1.950458
17.73059	-0.06875985	0.01008438	0	0	2.84584	2.135765
17.7523	-0.06865509	0.01000931	0.00482567	-0.003457865	0.1260671	-0.09033421
17.77547	-0.06865509	0.01000931	0	0	-0.1075286	0.07705033
17.80219	-0.06844555	0.009821627	0.007842617	-0.007024446	0.1572086	-0.140808
17.82041	-0.06844555	0.009821627	0	0	-0.1745094	0.1563039
17.84781	-0.06831458	0.009690246	0.004779623	-0.004794782	0.1047617	-0.1050939
17.86438	-0.06831458	0.009690246	0	0	-0.1087064	0.1090511
17.89195	-0.07297544	0.006310123	-0.1690394	-0.1225898	-3.82963	-2.777303
17.90883	-0.07297544	0.006310123	0	0	3.802682	2.757759
17.9305	-0.08685984	-0.003756406	-0.6409073	-0.4646734	-16.62807	-12.05576
17.94736	-0.08685984	-0.003756406	0	0	16.63465	12.06053
17.96763	-0.08941881	-0.00575452	-0.1262357	-0.0985686	-3.399273	-2.654254
17.9842	-0.08941881	-0.00575452	0	0	3.426729	2.675693
18.00535	-0.08931439	-0.005829944	0.004938309	-0.003567039	0.1309476	-0.09458606
18.02191	-0.08931439	-0.005829944	0	0	-0.1309476	0.09458606
18.04741	-0.08813947	-0.006678587	0.0460868	-0.03328845	1.095717	-0.7914354
18.06397	-0.08813947	-0.006678587	0	0	-1.095717	0.7914354
18.08422	-0.07799933	-0.01400497	0.5007395	-0.361791	13.60057	-9.82659
18.10122	-0.07799933	-0.01400497	0	0	-13.44248	9.712374
18.12489	-0.074729	-0.01636882	0.1381845	-0.09988232	3.397988	-2.456128
18.14223	-0.074729	-0.01636882	0	0	-3.369541	2.435566
18.16487	-0.07475517	-0.01638774	-0.001156139	-0.0008359131	-0.02892075	-0.02091031
18.18284	-0.07475517	-0.01638774	0	0	0.02847513	0.02058811
18.20547	-0.074729	-0.01640666	0.001156334	-0.0008359717	0.0284826	-0.02059149
18.22206	-0.074729	-0.01640666	0	0	-0.02947981	0.02131242
18.2424	-0.07475517	-0.01642558	-0.001286575	-0.0009302209	-0.03483453	-0.0251861
18.25897	-0.07475517	-0.01642558	0	0	0.03485974	0.02520432
18.27933	-0.07480751	-0.01650125	-0.002570864	-0.003716958	-0.06961796	-0.1006537
18.29612	-0.07480751	-0.01650125	0	0	0.06919622	0.100044
18.31919	-0.07485985	-0.01657693	-0.002268635	-0.003279994	-0.05690723	-0.08227652
18.33576	-0.07485985	-0.01657693	0	0	0.05723308	0.08274764
18.35593	-0.07635129	-0.0177312	-0.07392884	-0.05721574	-2.012148	-1.557261
18.3725	-0.07635129	-0.0177312	0	0	2.012043	1.557181
18.39398	-0.09150689	-0.0287274	-0.7058002	-0.5120961	-18.55315	-13.46131
18.41419	-0.09150689	-0.0287274	0	0	16.93171	12.28487
18.43569	-0.1038097	-0.03774305	-0.5721319	-0.4192651	-13.71505	-10.05055
18.45226	-0.1038097	-0.03774305	0	0	15.02815	11.01281
18.47337	-0.1099235	-0.04268067	-0.2896626	-0.2339359	-7.688671	-6.209486
18.48993	-0.1099235	-0.04268067	0	0	7.688282	6.209172
18.51107	-0.1021693	-0.04833368	0.3668171	-0.2674193	9.727758	-7.091793
18.52817	-0.1021693	-0.04833368	0	0	-9.594781	6.994849
18.54897	-0.09148079	-0.05618187	0.5137396	-0.3772197	13.55617	-9.953786
18.6472	-0.09148079	-0.05618187	0	0	-4.315913	3.169013
18.66959	-0.07177125	-0.07067106	0.8804189	-0.6472272	7.299414	-5.366059
18.68616	-0.07177125	-0.07067106	0	0	-22.60052	16.61445
18.71059	-0.05977083	-0.07954749	0.4910769	-0.3632383	11.97571	-8.858154
18.72756	-0.05977083	-0.07954749	0	0	-11.8615	8.773679
18.74876	-0.0466766	-0.08924796	0.617647	-0.4575651	16.18396	-11.9894
18.76538	-0.0466766	-0.08924796	0	0	-16.32923	12.09701
18.78543	-0.02975437	-0.1018861	0.8441598	-0.6304476	23.02002	-17.19214
18.802	-0.02975437	-0.1018861	0	0	-23.05479	17.21811
18.82445	-0.01155212	-0.1223539	0.8106714	-0.9115732	20.77449	-23.36023
18.84102	-0.01155212	-0.1223539	0	0	-20.77449	23.36023
18.86388	-0.01734037	-0.1624084	-0.2532301	-1.752343	-6.422791	-44.44547
18.88044	-0.01734037	-0.1624084	0	0	6.423102	44.44762
18.90261	-0.03051684	-0.2069799	-0.5944128	-2.010696	-15.34585	-51.90979
18.92179	-0.03051684	-0.2069799	0	0	14.37802	48.63594
18.94915	-0.04504845	-0.2717821	-0.5311083	-2.368422	-11.41297	-50.89496
18.96836	-0.04504845	-0.2717821	0	0	11.40456	50.85744
18.98988	-0.05197945	-0.3295736	-0.3220634	-2.685405	-7.907371	-65.93263
19.00645	-0.05197945	-0.3295736	0	0	8.454113	70.49144
19.031	-0.05552182	-0.3651856	-0.1442951	-1.450619	-3.508752	-35.27398
19.04757	-0.05552182	-0.3651856	0	0	3.50924	35.27889
19.0743	-0.05922015	-0.393118	-0.1383705	-1.045075	-3.19586	-24.13746
19.09086	-0.05922015	-0.393118	0	0	3.196001	24.13853
19.11932	-0.06456801	-0.4217203	-0.1879237	-1.005081	-4.173776	-22.3228
19.13971	-0.06456801	-0.4217203	0	0	3.847176	20.57603
19.16277	-0.07137853	-0.4564814	-0.2953654	-1.507556	-6.798214	-34.69834
19.17934	-0.07137853	-0.4564814	0	0	7.453625	38.04358
19.19919	-0.07815626	-0.4921876	-0.3414186	-1.798649	-9.374269	-49.3852
19.2162	-0.07815626	-0.4921876	0	0	9.261741	48.79238
19.23233	-0.07815626	-0.4921876	0	0	0	0
19.25492	-0.09359417	-0.5641965	-0.6832033	-3.186746	-17.64422	-82.30001
19.27256	-0.09359417	-0.5641965	0	0	16.98171	79.20981
19.29509	-0.1078952	-0.625114	-0.634764	-2.703887	-15.80393	-67.31957
19.31177	-0.1078952	-0.625114	0	0	16.18673	68.95017
19.3346	-0.1182873	-0.6770685	-0.4552924	-2.276189	-11.52326	-57.60939
19.35887	-0.1182873	-0.6770685	0	0	9.667275	48.33058
19.38483	-0.1219705	-0.7242212	-0.1418529	-1.816028	-2.823743	-36.15012
19.40306	-0.1219705	-0.7242212	0	0	3.210384	41.09997
19.42948	-0.1212704	-0.768852	0.02649499	-1.68912	0.5934806	-37.83582
19.44604	-0.1212704	-0.768852	0	0	-0.6163099	39.29124
19.46883	-0.1228	-0.7970796	-0.06712656	-1.238755	-1.705697	-31.47697
19.48823	-0.1228	-0.7970796	0	0	1.591249	29.36494
19.51122	-0.1235258	-0.8298484	-0.03156793	-1.425395	-0.7447549	-33.6281
19.52779	-0.1235258	-0.8298484	0	0	0.7980465	36.03439
19.55182	-0.122489	-0.8527486	0.04314081	-0.9528795	1.062586	-23.47004
19.57451	-0.122489	-0.8527486	0	0	-0.9233807	20.39532
19.59999	-0.1117431	-0.8691934	0.4217016	-0.6453476	8.754429	-13.39727
19.61656	-0.1117431	-0.8691934	0	0	-10.02872	15.34736
19.64202	-0.08526644	-0.9060109	1.039649	-1.445696	24.73344	-34.39338
19.65967	-0.08526644	-0.9060109	0	0	-24.11625	33.53514
19.68405	-0.06650703	-0.9492758	0.7694072	-1.774488	18.30849	-42.22497
19.7027	-0.06650703	-0.9492758	0	0	-17.87843	41.23312
19.72457	-0.08649419	-1.019075	-0.9140809	-3.192148	-22.55892	-78.78011
19.74113	-0.08649419	-1.019075	0	0	23.7837	83.0573
19.76369	-0.1051112	-1.053191	-0.8252171	-1.512238	-21.09055	-38.64913
19.78032	-0.1051112	-1.053191	0	0	21.05667	38.58706
19.80181	-0.1096115	-1.061657	-0.2094334	-0.3939675	-5.494291	-10.33537
19.81838	-0.1096115	-1.061657	0	0	5.503379	10.35247
19.83844	-0.104044	-1.071959	0.2775499	-0.5135673	7.577778	-14.02162
19.85815	-0.104044	-1.071959	0	0	-6.979523	12.91463
19.88153	-0.08910552	-1.101126	0.6389866	-1.247603	14.8308	-28.95673
19.89843	-0.08910552	-1.101126	0	0	-15.86386	30.97374
19.91908	-0.08291473	-1.123003	0.2998114	-1.059498	7.98433	-28.21568
19.93564	-0.08291473	-1.123003	0	0	-8.055527	28.46728
19.96032	-0.08314994	-1.123489	-0.009530598	-0.01968854	-0.2310542	-0.4773173
19.97733	-0.08314994	-1.123489	0	0	0.2286437	0.4723375
19.99966	-0.08307154	-1.123651	0.003511187	-0.007260613	0.08926745	-0.1845918
20.01628	-0.08307154	-1.123651	0	0	-0.09012844	0.1863722
20.04152	-0.08312381	-1.123435	-0.002071053	0.008562873	-0.04946601	0.2045197
20.06189	-0.08312381	-1.123435	0	0	0.04541505	-0.1877708
20.08683	-0.08683372	-1.115403	-0.1487392	0.3220349	-3.283046	7.108113
20.1034	-0.08683372	-1.115403	0	0	3.583081	-7.75772
20.12419	-0.1031328	-1.074444	-0.7840538	1.970278	-20.98795	52.74141
20.14076	-0.1031328	-1.074444	0	0	20.98795	-52.74141
20.1633	-0.1245623	-0.9841495	-0.9504464	4.004772	-24.29821	102.3822
20.18251	-0.1245623	-0.9841495	0	0	22.76521	-95.92278
20.20519	-0.1394057	-0.8107789	-0.6543515	7.642826	-15.62172	182.4617
20.22192	-0.1394057	-0.8107789	0	0	16.60385	-193.9329
20.24558	-0.1328446	-0.6707988	0.2772329	5.914722	6.863574	146.4333
20.26996	-0.1328446	-0.6707988	0	0	-5.769914	-123.1002
20.29353	-0.1018829	-0.5448427	1.313656	5.344122	27.39595	111.4502
20.3101	-0.1018829	-0.5448427	0	0	-32.72984	-133.1492
20.33133	-0.07650826	-0.4606377	1.195184	3.96619	31.62036	104.9314
20.3479	-0.07650826	-0.4606377	0	0	-31.62036	-104.9314
20.37319	-0.06336243	-0.3802446	0.5198521	3.179145	12.42035	75.95642
20.39439	-0.06336243	-0.3802446	0	0	-11.18117	-68.37823
20.41569	-0.0671096	-0.2753438	-0.1759128	4.92463	-4.138426	115.8541
20.43226	-0.0671096	-0.2753438	0	0	4.645359	-130.0455
20.45363	-0.07504302	-0.2066334	-0.3712423	3.215284	-9.785715	84.75289
20.4702	-0.07504302	-0.2066334	0	0	9.785715	-84.75289
20.49251	-0.07376067	-0.1625482	0.0574731	1.975835	1.478241	50.8196
20.50908	-0.07376067	-0.1625482	0	0	-1.478241	-50.8196
20.53048	-0.07724076	-0.1082867	-0.1626173	2.535533	-4.283046	66.78134
20.54704	-0.07724076	-0.1082867	0	0	4.283046	-66.78134
20.56959	-0.09257672	-0.06886066	-0.6802996	1.748928	-17.39444	44.71796
20.58618	-0.09257672	-0.06886066	0	0	17.38172	-44.68528
20.60719	-0.09917358	-0.03389768	-0.3140803	1.664608	-8.353296	44.27201
20.62376	-0.09917358	-0.03389768	0	0	8.359233	-44.30348
20.64385	-0.09137641	0.01100384	0.3879993	2.23437	10.58229	60.94021
20.66042	-0.09137641	0.01100384	0	0	-10.58284	-60.94338
20.68261	-0.07980384	0.0426263	0.5215645	1.425193	13.45785	36.77404
20.70214	-0.07980384	0.0426263	0	0	-12.50229	-34.16294
20.72461	-0.07915009	0.06045736	0.02908885	0.7933986	0.6925318	18.88881
20.7413	-0.07915009	0.06045736	0	0	-0.7427524	-20.25858
20.76082	-0.07888857	0.06682065	0.01339482	0.3259276	0.3698906	9.000314
20.77741	-0.07888857	0.06682065	0	0	-0.3709849	-9.026938
20.79397	-0.07888857	0.06682065	0	0	0	0
20.8175	-0.07922854	0.066987	-0.01445012	0.007070519	-0.3604026	0.1763469
20.83723	-0.07922854	0.066987	0	0	0.3340251	-0.1634402
20.85857	-0.07912394	0.06683914	0.004902454	-0.006929779	0.1193655	-0.1687271
20.87538	-0.07912394	0.06683914	0	0	-0.1285084	0.1816509
20.89735	-0.07758082	0.0655266	0.07024128	-0.05974514	1.811266	-1.540609
20.91392	-0.07758082	0.0655266	0	0	-1.822741	1.550369
20.93812	-0.076953	0.06430613	0.02593824	-0.05042387	0.6361858	-1.236743
20.95469	-0.076953	0.06430613	0	0	-0.6361858	1.236743
20.97573	-0.06996457	0.05855011	0.3322108	-0.2736252	8.8346	-7.276613
20.99297	-0.06996457	0.05855011	0	0	-8.679197	7.148616
21.01423	-0.06365074	0.04985396	0.296991	-0.4090514	7.714085	-10.62476
21.03079	-0.06365074	0.04985396	0	0	-7.851392	10.81387
21.05817	-0.05347528	0.0426449	0.3717421	-0.2633703	8.4603	-5.993917
21.0791	-0.05347528	0.0426449	0	0	-7.695343	5.451963
21.10248	-0.04081942	0.03333446	0.5413935	-0.3982823	12.21789	-8.988233
21.11905	-0.04081942	0.03333446	0	0	-13.55392	9.971093
21.14231	-0.01563031	-0.003134599	1.082488	-1.567237	27.173	-39.34136
21.15888	-0.01563031	-0.003134599	0	0	-27.173	39.34136
21.17976	0.01115743	-0.05855966	1.283071	-2.654732	34.26541	-70.89671
21.19633	0.01115743	-0.05855966	0	0	-34.26541	70.89671
21.21729	0.03651008	-0.09454861	1.209471	-1.716886	32.22766	-45.74825
21.2365	0.03651008	-0.09454861	0	0	-30.10403	42.73369
21.2593	0.05473475	-0.1408322	0.7993786	-2.030111	19.02686	-48.32083
21.27618	0.05473475	-0.1408322	0	0	-20.14926	51.17129
21.29811	0.06807884	-0.1883274	0.6085193	-2.165886	15.68223	-55.81735
21.31467	0.06807884	-0.1883274	0	0	-15.80733	56.26261
21.33516	0.07755466	-0.2038226	0.4626184	-0.7564863	12.48624	-20.41785
21.35412	0.07755466	-0.2038226	0	0	-11.72679	19.17597
21.37519	0.07362981	-0.210877	-0.1862554	-0.3347707	-4.651843	-8.361103
21.39176	0.07362981	-0.210877	0	0	4.948137	8.893654
21.41686	0.06213046	-0.2324113	-0.4581982	-0.8580486	-10.99693	-20.59348
21.43343	0.06213046	-0.2324113	0	0	10.99743	20.59442
21.45382	0.06370316	-0.2480318	0.07710405	-0.7658142	2.085899	-20.71761
21.47039	0.06370316	-0.2480318	0	0	-2.085899	20.71761
21.49228	0.05699085	-0.2678488	-0.3066561	-0.9053534	-7.974215	-23.5426
21.50885	0.05699085	-0.2678488	0	0	7.97382	23.54143
21.53076	0.04798944	-0.3163197	-0.410841	-2.2123	-10.67706	-57.49392
21.54803	0.04798944	-0.3163197	0	0	10.48578	56.46394
21.5749	0.04767437	-0.3664518	-0.01172707	-1.865944	-0.2656913	-42.27527
21.59189	0.04767437	-0.3664518	0	0	0.2673782	42.54369
21.61472	0.04893459	-0.410343	0.05520217	-1.9226	1.386236	-48.28029
21.63129	0.04893459	-0.410343	0	0	-1.401203	48.80154
21.65247	0.03672033	-0.4444821	-0.5765544	-1.611484	-15.27209	-42.68588
21.6704	0.03672033	-0.4444821	0	0	14.74108	41.20168
21.69273	0.01839266	-0.4685116	-0.8207187	-1.076046	-20.38627	-26.72847
21.71319	0.01839266	-0.4685116	0	0	19.17783	25.14409
21.73809	0.01228886	-0.4739925	-0.2451286	-0.2201132	-5.403547	-4.852116
21.75466	0.01228886	-0.4739925	0	0	5.911046	5.307825
21.77837	0.01228886	-0.4739925	0	0	0	0
21.79542	0.01228886	-0.4739925	0	0	0	0
21.81891	0.01226254	-0.4739686	-0.001120081	0.001017477	-0.02763247	0.02510122
21.8356	0.01226254	-0.4739686	0	0	0.0278738	-0.02532044
21.85847	0.01226254	-0.4739686	0	0	0	0
21.88256	0.01226254	-0.4739686	0	0	0	0
21.90673	0.01197311	-0.4732286	-0.01197487	0.03061499	-0.2481142	0.6343294
21.92535	0.01197311	-0.4732286	0	0	0.2798682	-0.7155116
21.95664	0.01181524	-0.472656	-0.005046367	0.01830379	-0.1011256	0.366795
21.9736	0.01181524	-0.472656	0	0	0.1045875	-0.3793516
21.99406	0.01176262	-0.4725606	-0.002572525	0.004664918	-0.06874333	0.1246565
22.01063	0.01176262	-0.4725606	0	0	0.06948349	-0.1259987
22.03416	0.01042068	-0.4707728	-0.05702407	0.07596956	-1.422043	1.894498
22.05087	0.01042068	-0.4707728	0	0	1.417123	-1.887943
22.07544	-0.008473481	-0.4537251	-0.7689187	0.693774	-18.62743	16.80701
22.09238	-0.008473481	-0.4537251	0	0	18.52046	-16.7105
22.11821	-0.03643124	-0.4288752	-1.082324	0.9620099	-25.30207	22.48942
22.13726	-0.03643124	-0.4288752	0	0	24.11498	-21.43429
22.16138	-0.06228774	-0.40603	-1.072149	0.9472848	-24.83717	21.94459
22.17883	-0.06228774	-0.40603	0	0	25.79574	-22.79152
22.20041	-0.07959464	-0.3909952	-0.8017142	0.6964611	-20.53893	17.84247
22.2184	-0.07959464	-0.3909952	0	0	20.26171	-17.60165
22.24316	-0.082967	-0.3880867	-0.1361637	0.117436	-3.185303	2.747201
22.26545	-0.082967	-0.3880867	0	0	2.893992	-2.495957
22.28809	-0.082967	-0.3880867	0	0	0	0
22.30655	-0.082967	-0.3880867	0	0	0	0
22.32903	-0.08301927	-0.3880416	-0.002325915	0.002005007	-0.05681369	0.04897508
22.34587	-0.08301927	-0.3880416	0	0	0.05915062	-0.05098958
22.36821	-0.08301927	-0.3880416	0	0	0	0
22.38478	-0.08301927	-0.3880416	0	0	0	0
22.40407	-0.082967	-0.3880867	0.002708663	-0.002334948	0.0755222	-0.06510238
22.42159	-0.082967	-0.3880867	0	0	-0.07358132	0.06342928
22.43815	-0.082967	-0.3880867	0	0	0	0
22.46403	-0.08286246	-0.3881768	0.004039846	-0.003481564	0.09518439	-0.08203047
22.4806	-0.08286246	-0.3881768	0	0	-0.09518011	0.08202679
22.50254	-0.08281019	-0.3882219	0.002381702	-0.002053098	0.06183816	-0.05330633
22.52089	-0.08281019	-0.3882219	0	0	-0.05911556	0.05095936
22.54896	-0.08273178	-0.3882895	0.002792301	-0.002407275	0.06015409	-0.05185954
22.56553	-0.08273178	-0.3882895	0	0	-0.06254411	0.05392001
22.58666	-0.08254883	-0.3884472	0.008657209	-0.007462771	0.2296302	-0.1979481
22.60323	-0.08254883	-0.3884472	0	0	-0.2296302	0.1979481
22.62467	-0.082392	-0.3885823	0.007313882	-0.006304483	0.1924217	-0.1658654
22.64124	-0.082392	-0.3885823	0	0	-0.1924217	0.1658654
22.66423	-0.082392	-0.3885823	0	0	0	0
22.6817	-0.082392	-0.3885823	0	0	0	0
22.70635	-0.08241814	-0.3885598	-0.001059957	0.0009137144	-0.02516519	0.02169313
22.73507	-0.08241814	-0.3885598	0	0	0.0198593	-0.01711931
22.7615	-0.082392	-0.3885823	0.0009887528	-0.0008523342	0.01792873	-0.01545509
22.7835	-0.082392	-0.3885823	0	0	-0.02041473	0.0175981
22.80768	-0.082392	-0.3886274	0	-0.001863905	0	-0.04036611
22.82469	-0.082392	-0.3886274	0	0	0	0.04525858
22.85043	-0.08228745	-0.3887176	0.00406169	-0.003502455	0.09501585	-0.08193356
22.87432	-0.08228745	-0.3887176	0	0	-0.0818407	0.07057244
22.89746	-0.08226132	-0.3887401	0.001129503	-0.0009736647	0.0240169	-0.02070328
22.91855	-0.08226132	-0.3887401	0	0	-0.02553621	0.02201297
22.94398	-0.08226132	-0.3887401	0	0	0	0
22.96202	-0.08226132	-0.3887401	0	0	0	0
22.98791	-0.08226132	-0.3887401	0	0	0	0
23.00687	-0.08226132	-0.3887401	0	0	0	0
23.03151	-0.08226132	-0.3887401	0	0	0	0
23.0491	-0.08226132	-0.3887401	0	0	0	0
23.07342	-0.08228745	-0.3887626	-0.001074502	-0.0009262526	-0.02563938	-0.02210191
23.09285	-0.08228745	-0.3887626	0	0	0.02455641	0.02116835
23.12617	-0.08223517	-0.3888077	0.001569074	-0.001352396	0.02974461	-0.02563708
23.14515	-0.08223517	-0.3888077	0	0	-0.03000061	0.02585773
23.17254	-0.08223517	-0.3888077	0	0	0	0
23.18946	-0.08223517	-0.3888077	0	0	0	0
23.21079	-0.08223517	-0.3888077	0	0	0	0
23.22938	-0.08223517	-0.3888077	0	0	0	0
23.25363	-0.08220904	-0.3888302	0.001077798	-0.0009303229	0.02516036	-0.02171767
23.27691	-0.08220904	-0.3888302	0	0	-0.02267836	0.01957527
23.30306	-0.08220904	-0.3888302	0	0	0	0
23.32279	-0.08220904	-0.3888302	0	0	0	0
23.34945	-0.0821829	-0.3888528	0.0009804053	-0.0008451384	0.02113374	-0.01821791
23.36705	-0.0821829	-0.3888528	0	0	-0.02215103	0.01909485
23.39238	-0.08213062	-0.3889429	0.002064484	-0.003559963	0.04809528	-0.08293471
23.41467	-0.08213062	-0.3889429	0	0	-0.04335086	0.07475351
23.43882	-0.0820522	-0.3890105	0.003248008	-0.002800847	0.06993681	-0.06030846
23.45855	-0.0820522	-0.3890105	0	0	-0.07402267	0.06383181
23.48332	-0.0820522	-0.3890105	0	0	0	0
23.50093	-0.0820522	-0.3890105	0	0	0	0
23.52526	-0.0820522	-0.3890105	0	0	0	0
23.54183	-0.0820522	-0.3890105	0	0	0	0
23.56861	-0.0820522	-0.3890105	0	0	0	0
23.59177	-0.0820522	-0.3890105	0	0	0	0
23.61493	-0.0820522	-0.3890105	0	0	0	0
23.64458	-0.0820522	-0.3890105	0	0	0	0
23.66822	-0.08207835	-0.388988	-0.001106209	0.0009545739	-0.02076074	0.01791493
23.68895	-0.08207835	-0.388988	0	0	0.02493109	-0.02151363
23.71534	-0.08207835	-0.388988	0	0	0	0
23.73266	-0.08207835	-0.388988	0	0	0	0
23.7575	-0.08207835	-0.388988	0	0	0	0
23.77694	-0.08207835	-0.388988	0	0	0	0
23.79863	-0.0820522	-0.3889655	0.001205332	0.001038735	0.02930672	0.02525607
23.8152	-0.0820522	-0.3889655	0	0	-0.03150411	-0.02714974
23.83472	-0.08207835	-0.3889429	-0.001339493	0.001154354	-0.0371184	0.03198804
23.85129	-0.08207835	-0.3889429	0	0	0.0371184	-0.03198804
23.86795	-0.08207835	-0.3889429	0	0	0	0
23.88886	-0.0820522	-0.3889204	0.001250527	0.001077685	0.03328442	0.02868398
23.90557	-0.0820522	-0.3889204	0	0	-0.03324223	-0.02864762
23.92851	-0.0820522	-0.3889204	0	0	0	0
23.94508	-0.0820522	-0.3889204	0	0	0	0
23.96549	-0.0820522	-0.3889204	0	0	0	0
23.98285	-0.0820522	-0.3889204	0	0	0	0
24.00346	-0.0820522	-0.3889655	0	-0.00218669	0	-0.05759925
24.02015	-0.0820522	-0.3889655	0	0	0	0.05862423
24.04044	-0.0820522	-0.3889655	0	0	0	0
24.057	-0.0820522	-0.3889655	0	0	0	0
24.08064	-0.08202606	-0.388988	0.001105983	-0.0009533899	0.0275125	-0.02371659
24.09857	-0.08202606	-0.388988	0	0	-0.02660733	0.0229363
24.12164	-0.08202606	-0.388988	0	0	0	0
24.14211	-0.08202606	-0.388988	0	0	0	0
24.16421	-0.08202606	-0.388988	0	0	0	0
24.18077	-0.08202606	-0.388988	0	0	0	0
24.20246	-0.08199993	-0.3890105	0.001205306	-0.001040384	0.03150973	-0.02719825
24.21903	-0.08199993	-0.3890105	0	0	-0.03150816	0.02719689
24.2413	-0.08192151	-0.3890782	0.003520576	-0.00303589	0.09063567	-0.07815766
24.25787	-0.08192151	-0.3890782	0	0	-0.09064013	0.0781615
24.27927	-0.08184309	-0.3891458	0.003664633	-0.003159815	0.09651981	-0.0832238
24.29641	-0.08184309	-0.3891458	0	0	-0.09508678	0.08198818
24.32008	-0.08181695	-0.3892134	0.001104289	-0.002857049	0.02706079	-0.07001247
24.3413	-0.08181695	-0.3892134	0	0	-0.02459601	0.06363553
24.36228	-0.0817908	-0.3892359	0.00124632	-0.001074059	0.02952959	-0.02544813
24.37885	-0.0817908	-0.3892359	0	0	-0.03319604	0.02860781
24.40106	-0.08176467	-0.3892585	0.001176537	-0.00101421	0.0303371	-0.02615148
24.41763	-0.08176467	-0.3892585	0	0	-0.0303371	0.02615148
24.43876	-0.08176467	-0.3892585	0	0	0	0
24.45833	-0.08176467	-0.3892585	0	0	0	0
24.48177	-0.08176467	-0.3892585	0	0	0	0
24.49864	-0.08176467	-0.3892585	0	0	0	0
24.51819	-0.08176467	-0.3892585	0	0	0	0
24.53522	-0.08176467	-0.3892585	0	0	0	0
24.55179	-0.08176467	-0.3892585	0	0	0	0
24.5752	-0.08173853	-0.389281	0.001116162	-0.0009634377	0.0279154	-0.02409573
24.59177	-0.08173853	-0.389281	0	0	-0.02791407	0.02409458
24.61257	-0.08168624	-0.3893261	0.00251459	-0.002168467	0.06730152	-0.05803773
24.62913	-0.08168624	-0.3893261	0	0	-0.06730495	0.05804069
24.6588	-0.08168624	-0.3893261	0	0	0	0
24.67536	-0.08168624	-0.3893261	0	0	0	0
24.70173	-0.08168624	-0.3893261	0	0	0	0
24.72514	-0.08168624	-0.3893261	0	0	0	0
24.74713	-0.08166011	-0.3893487	0.001188476	-0.001024501	0.02617972	-0.0225677
24.76369	-0.08166011	-0.3893487	0	0	-0.0308223	0.02656973
24.78466	-0.08166011	-0.3893487	0	0	0	0
24.80123	-0.08166011	-0.3893487	0	0	0	0
24.8231	-0.08166011	-0.3893487	0	0	0	0
24.83966	-0.08166011	-0.3893487	0	0	0	0
24.86171	-0.08168624	-0.3893712	-0.001185802	-0.001023548	-0.03071345	-0.02651093
24.87948	-0.08168624	-0.3893712	0	0	0.02977926	0.02570456
24.9006	-0.08166011	-0.3893937	0.001237861	-0.001067073	0.03182757	-0.0274363
24.91717	-0.08166011	-0.3893937	0	0	-0.03285057	0.02831816
24.93856	-0.08166011	-0.3893937	0	0	0	0
24.95862	-0.08166011	-0.3893937	0	0	0	0
24.98131	-0.08163396	-0.3894163	0.001152239	-0.0009942943	0.02695213	-0.02325763
24.99788	-0.08163396	-0.3894163	0	0	-0.02935113	0.02532779
25.02208	-0.08163396	-0.3894614	0	-0.00186308	0	-0.0456978
25.03887	-0.08163396	-0.3894614	0	0	0	0.04545326
25.06094	-0.08160783	-0.3894839	0.001184265	-0.001020871	0.0304779	-0.02627285
25.0775	-0.08160783	-0.3894839	0	0	-0.03065092	0.026422
25.101	-0.08158168	-0.3895065	0.001112674	-0.000960153	0.02777251	-0.02396557
25.11757	-0.08158168	-0.3895065	0	0	-0.02777251	0.02396557
25.14046	-0.08158168	-0.3895516	0	-0.00196956	0	-0.04991138
25.15703	-0.08158168	-0.3895516	0	0	0	0.04991138
25.1819	-0.08158168	-0.3895967	0	-0.00181307	0	-0.04375471
25.20144	-0.08158168	-0.3895967	0	0	0	0.04082157
25.22588	-0.08155555	-0.3896192	0.001069721	-0.0009221311	0.02432415	-0.02096814
25.24244	-0.08155555	-0.3896192	0	0	-0.02609052	0.0224908
25.27967	-0.08155555	-0.3896643	0	-0.00121196	0	-0.02252849
25.29709	-0.08155555	-0.3896643	0	0	0	0.02217857
25.32268	-0.08155555	-0.3896643	0	0	0	0
25.33924	-0.08155555	-0.3896643	0	0	0	0
25.36373	-0.0815294	-0.3896869	0.001067526	-0.0009199766	0.0260007	-0.02240698
25.3803	-0.0815294	-0.3896869	0	0	-0.0260007	0.02240698
25.40265	-0.0815294	-0.3896869	0	0	0	0
25.41922	-0.0815294	-0.3896869	0	0	0	0
25.44043	-0.08150326	-0.3897094	0.001232758	-0.001063776	0.03263254	-0.02815939
25.45707	-0.08150326	-0.3897094	0	0	-0.03257005	0.02810547
25.47855	-0.08147712	-0.3897319	0.001216974	-0.001049067	0.03192618	-0.02752132
25.4952	-0.08147712	-0.3897319	0	0	-0.03192139	0.02751718
25.52349	-0.08145098	-0.3897545	0.0009239034	-0.0007972583	0.02055642	-0.01773863
25.54067	-0.08145098	-0.3897545	0	0	-0.02031843	0.01753326
25.562	-0.0813987	-0.3898447	0.002450617	-0.004228598	0.06364007	-0.1098124
25.57874	-0.0813987	-0.3898447	0	0	-0.06436054	0.1110556
25.6017	-0.08050981	-0.3906116	0.03871978	-0.03340629	0.9753202	-0.8414778
25.61827	-0.08050981	-0.3906116	0	0	-0.9796503	0.8452137
25.64001	-0.07266133	-0.3974856	0.3609533	-0.3161362	9.42166	-8.251839
25.65658	-0.07266133	-0.3974856	0	0	-9.42166	8.251839
25.67863	-0.05817114	-0.4102059	0.657069	-0.5768101	17.0137	-14.93553
25.6952	-0.05817114	-0.4102059	0	0	-17.0137	14.93553
25.7195	-0.03919045	-0.427557	0.7812331	-0.7141623	19.11833	-17.47698
25.73917	-0.03919045	-0.427557	0	0	-17.76814	16.2427
25.76306	-0.02746678	-0.4693918	0.4907842	-1.751315	11.26685	-40.20464
25.77962	-0.02746678	-0.4693918	0	0	-12.13165	43.29059
25.80176	-0.03527484	-0.5311579	-0.3527204	-2.790212	-9.113299	-72.09121
25.81833	-0.03527484	-0.5311579	0	0	9.112401	72.0841
25.84123	-0.05651869	-0.589264	-0.9278488	-2.537849	-23.50957	-64.30331
25.8578	-0.05651869	-0.589264	0	0	23.5107	64.30641
25.88022	-0.08500519	-0.6294937	-1.270102	-1.793685	-32.56868	-45.99468
25.89828	-0.08500519	-0.6294937	0	0	31.37186	44.3045
25.9192	-0.1036535	-0.6498639	-0.8913376	-0.9736416	-22.86737	-24.97889
25.93631	-0.1036535	-0.6498639	0	0	23.43736	25.60152
25.95957	-0.106022	-0.65404	-0.1018191	-0.1795235	-2.522088	-4.44685
25.97693	-0.106022	-0.65404	0	0	2.506692	4.419704
26.00015	-0.09129812	-0.6698138	0.6342062	-0.6794308	15.63119	-16.74583
26.01702	-0.09129812	-0.6698138	0	0	-15.8216	16.94982
26.0395	-0.06538036	-0.698077	1.152729	-1.257046	29.29245	-31.94331
26.05609	-0.06538036	-0.698077	0	0	-29.49977	32.16939
26.07999	-0.05560053	-0.7089245	0.4091813	-0.4538519	10.10499	-11.20815
26.10156	-0.05560053	-0.7089245	0	0	-8.998317	9.980669
26.12966	-0.05607274	-0.7083399	-0.01680862	0.02081141	-0.3384369	0.4190319
26.14873	-0.05607274	-0.7083399	0	0	0.3563942	-0.4412655
26.17199	-0.05612521	-0.708223	-0.002255108	0.005023877	-0.05326754	0.1186681
26.18877	-0.05612521	-0.708223	0	0	0.05631198	-0.1254505
26.21031	-0.05609897	-0.7080185	0.001217914	0.009494266	0.03178228	0.2477592
26.22688	-0.05609897	-0.7080185	0	0	-0.03196045	-0.2491481
26.24911	-0.05609897	-0.7079016	0	0.00525929	0	0.1355779
26.26572	-0.05609897	-0.7079016	0	0	0	-0.1353981
26.29401	-0.05609897	-0.7079016	0	0	0	0
26.31512	-0.05609897	-0.7079016	0	0	0	0
26.33592	-0.05609897	-0.7079016	0	0	0	0
26.35249	-0.05609897	-0.7079016	0	0	0	0
26.37436	-0.05607274	-0.7079308	0.001199329	-0.001335237	0.03119946	-0.03473498
26.39093	-0.05607274	-0.7079308	0	0	-0.03119946	0.03473498
26.41474	-0.0560465	-0.70796	0.001101723	-0.00122657	0.02728484	-0.03037676
26.43138	-0.0560465	-0.70796	0	0	-0.02723723	0.03032376
26.45455	-0.05578417	-0.7082522	0.01132288	-0.01261114	0.284449	-0.3168121
26.47132	-0.05578417	-0.7082522	0	0	-0.2834575	0.3157078
26.49442	-0.055653	-0.7083983	0.005679838	-0.00632846	0.1424546	-0.1587225
26.51099	-0.055653	-0.7083983	0	0	-0.1432082	0.1595622
26.53275	-0.05560053	-0.7084568	0.002410811	-0.002683814	0.06289294	-0.070015
26.54932	-0.05560053	-0.7084568	0	0	-0.06289294	0.070015
26.56954	-0.05510206	-0.7090123	0.02465256	-0.02747382	0.6701427	-0.7468345
26.58645	-0.05510206	-0.7090123	0	0	-0.6638781	0.7398529
26.60986	-0.04945963	-0.7153203	0.2410575	-0.2694956	5.978409	-6.683695
26.62643	-0.04945963	-0.7153203	0	0	-6.030325	6.741736
26.6505	-0.02394279	-0.7443382	1.059825	-1.205235	26.076	-29.65369
26.66707	-0.02394279	-0.7443382	0	0	-26.07478	29.6523
26.69309	0.01042068	-0.784929	1.320944	-1.560328	31.02011	-36.64164
26.71222	0.01042068	-0.784929	0	0	-29.25629	34.55818
26.73556	0.04334126	-0.8258389	1.410812	-1.753193	33.21828	-41.27983
26.75212	0.04334126	-0.8258389	0	0	-35.35715	43.93776
26.77376	0.06349349	-0.8533693	0.9314618	-1.272489	24.38236	-33.30924
26.79033	0.06349349	-0.8533693	0	0	-24.38236	33.30924
26.81072	0.06307412	-0.894333	-0.02056215	-2.00849	-0.5562975	-54.33857
26.82769	0.06307412	-0.894333	0	0	0.5503338	53.75604
26.85442	0.05518077	-0.9536275	-0.295283	-2.218153	-6.757161	-50.75949
26.8713	0.05518077	-0.9536275	0	0	6.771347	50.86606
26.89411	0.04339379	-1.007839	-0.5167462	-2.376665	-13.0208	-59.88642
26.91544	0.04339379	-1.007839	0	0	11.7055	53.83698
26.93773	0.03750871	-1.051551	-0.2640771	-1.961459	-6.053889	-44.96587
26.95457	0.03750871	-1.051551	0	0	6.749826	50.13501
26.97594	0.03022763	-1.09651	-0.3407162	-2.103836	-8.917401	-55.06269
26.9925	0.03022763	-1.09651	0	0	8.981066	55.4558
27.01346	0.01986581	-1.119509	-0.4943654	-1.097268	-13.17356	-29.23936
27.03056	0.01986581	-1.119509	0	0	12.99067	28.83342
27.05721	0.0177876	-1.123759	-0.07797753	-0.1594906	-1.782468	-3.645754
27.07394	0.0177876	-1.123759	0	0	1.797357	3.676208
27.10062	0.01776129	-1.123705	-0.0009863393	0.002029105	-0.02272381	0.0467476
27.11936	0.01776129	-1.123705	0	0	0.02171703	-0.04467643
27.14487	0.0177876	-1.123651	0.001031481	0.002117297	0.02331005	0.047848
27.16517	0.0177876	-1.123651	0	0	-0.02251617	-0.0462184
27.18783	0.01784021	-1.123543	0.002322162	0.004772077	0.05405024	0.111074
27.2045	0.01784021	-1.123543	0	0	-0.05904945	-0.1213475
27.22554	0.01789283	-1.123543	0.002500676	0	0.06631637	0
27.24211	0.01789283	-1.123543	0	0	-0.06649125	0
27.26929	0.01789283	-1.123435	0	0.003972569	0	0.09078812
27.28748	0.01789283	-1.123435	0	0	0	-0.08755918
27.30939	0.01794544	-1.123435	0.002401074	0	0.05988271	0
27.32596	0.01794544	-1.123435	0	0	-0.06239674	0
27.34649	0.01799806	-1.123327	0.002562705	0.005260591	0.06907947	0.1418028
27.36315	0.01799806	-1.123327	0	0	-0.06891295	-0.141461
27.3851	0.01799806	-1.123327	0	0	0	0
27.40167	0.01799806	-1.123327	0	0	0	0
27.42173	0.01799806	-1.123219	0	0.005383116	0	0.1469567
27.43862	0.01799806	-1.123219	0	0	0	-0.1456748
27.46287	0.01799806	-1.123219	0	0	0	0
27.47944	0.01799806	-1.123219	0	0	0	0
27.50027	0.01802436	-1.123165	0.001262861	0.002592245	0.03376698	0.06931268
27.51684	0.01802436	-1.123165	0	0	-0.03376526	-0.06930915
27.53814	0.01802436	-1.123165	0	0	0	0
27.5547	0.01802436	-1.123165	0	0	0	0
27.58069	0.01802436	-1.123057	0	0.004151376	0	0.09755352
27.60118	0.01802436	-1.123057	0	0	0	-0.08932231
27.62109	0.01802436	-1.123057	0	0	0	0
27.63766	0.01802436	-1.123057	0	0	0	0
27.6566	0.01802436	-1.123057	0	0	0	0
27.68064	0.01799806	-1.122895	-0.001094333	0.006733974	-0.02546019	0.1566692
27.69901	0.01799806	-1.122895	0	0	0.02580487	-0.1587902
27.73208	0.01805067	-1.122679	0.001590736	0.006523557	0.03092225	0.1268111
27.74892	0.01805067	-1.122679	0	0	-0.03186992	-0.1306975
27.77246	0.01807698	-1.12241	0.001117563	0.01144972	0.02767714	0.2835594
27.78903	0.01807698	-1.12241	0	0	-0.02786404	-0.2854743
27.8126	0.01810328	-1.122141	0.001115676	0.01142614	0.02779056	0.2846157
27.82947	0.01810328	-1.122141	0	0	-0.0275835	-0.2824951
27.84963	0.01807698	-1.121871	-0.001305071	0.01335991	-0.03524795	0.3608304
27.8662	0.01807698	-1.121871	0	0	0.03553719	-0.3637914
27.88983	0.01794544	-1.121602	-0.005566911	0.01138703	-0.138496	0.2832914
27.90639	0.01794544	-1.121602	0	0	0.1384894	-0.2832779
27.92684	0.01789283	-1.121387	-0.002573075	0.01052257	-0.06950909	0.2842569
27.94444	0.01789283	-1.121387	0	0	0.06762745	-0.276562
27.96791	0.01786652	-1.121333	-0.001120753	0.002290549	-0.02728824	0.05577056
27.98448	0.01786652	-1.121333	0	0	0.0279915	-0.05720786
28.00443	0.01786652	-1.121333	0	0	0	0
28.02172	0.01786652	-1.121333	0	0	0	0
28.03829	0.01786652	-1.121333	0	0	0	0
28.05974	0.01784021	-1.121279	-0.001226478	0.002506447	-0.03226107	0.06592916
28.07631	0.01784021	-1.121279	0	0	0.03225945	-0.06592585
28.09832	0.01784021	-1.121279	0	0	0	0
28.11813	0.01784021	-1.121279	0	0	0	0
28.14415	0.01776129	-1.121118	-0.003032683	0.006197779	-0.06616451	0.1352179
28.16592	0.01776129	-1.121118	0	0	0.06345783	-0.1296864
28.18806	0.01760344	-1.120796	-0.007129293	0.01455893	-0.162372	0.3315843
28.20474	0.01760344	-1.120796	0	0	0.1836578	-0.3750526
28.22692	0.01728775	-1.120152	-0.01423284	0.0290384	-0.3662743	0.7472872
28.24349	0.01728775	-1.120152	0	0	0.36732	-0.7494208
28.26324	0.01691944	-1.119402	-0.01864464	0.03797552	-0.5133204	1.045534
28.27981	0.01691944	-1.119402	0	0	0.5132935	-1.04548
28.29696	0.01691944	-1.119402	0	0	0	0
28.32194	0.01252566	-1.110543	-0.1758745	0.3545723	-4.174426	8.415862
28.33851	0.01252566	-1.110543	0	0	4.232872	-8.533693
28.35998	-0.001289473	-1.083215	-0.6434315	1.27283	-16.91538	33.46185
28.37672	-0.001289473	-1.083215	0	0	16.84023	-33.31318
28.40671	-0.01213098	-1.061228	-0.3614674	0.7330604	-7.735225	15.68713
28.42328	-0.01213098	-1.061228	0	0	7.763426	-15.74433
28.44379	-0.02310115	-1.040438	-0.5346777	1.013282	-14.41779	27.32354
28.46041	-0.02310115	-1.040438	0	0	14.39706	-27.28425
28.48243	-0.03482801	-1.006801	-0.5327314	1.528079	-13.78942	39.55338
28.49911	-0.03482801	-1.006801	0	0	13.76699	-39.48904
28.52801	-0.05447238	-0.9211286	-0.6797771	2.964617	-14.91334	65.03945
28.54458	-0.05447238	-0.9211286	0	0	14.95088	-65.20316
28.56409	-0.06441078	-0.8482456	-0.5094929	3.736354	-14.12293	103.5701
28.58109	-0.06441078	-0.8482456	0	0	13.95398	-102.3312
28.59766	-0.06441078	-0.8482456	0	0	0	0
28.61856	-0.06215667	-0.7848338	0.1078677	3.034504	2.879226	80.99757
28.63584	-0.06215667	-0.7848338	0	0	-2.824863	-79.46825
28.65951	-0.05305542	-0.7318571	0.3845645	2.238478	9.390021	54.65755
28.67608	-0.05305542	-0.7318571	0	0	-9.557835	-55.63437
28.70075	-0.04194906	-0.6865456	0.4502036	1.836731	10.917	44.53893
28.71867	-0.04194906	-0.6865456	0	0	-10.56942	-43.12091
28.74721	-0.0363524	-0.642026	0.1961274	1.560129	4.221324	33.57925
28.76378	-0.0363524	-0.642026	0	0	-4.348426	-34.59031
28.78512	-0.03608959	-0.6022521	0.01231139	1.863203	0.3247164	49.14252
28.80169	-0.03608959	-0.6022521	0	0	-0.3247164	-49.14252
28.82391	-0.03629984	-0.5753328	-0.009461842	1.211457	-0.2439384	31.23289
28.84336	-0.03629984	-0.5753328	0	0	0.2270877	-29.0754
28.86557	-0.03887514	-0.5485527	-0.1159469	1.205711	-2.783404	28.94412
28.88326	-0.03887514	-0.5485527	0	0	2.906088	-30.21989
28.90579	-0.04192279	-0.5259087	-0.1352618	1.004992	-3.363186	24.98839
28.92466	-0.04192279	-0.5259087	0	0	3.266821	-24.2724
28.95028	-0.04680789	-0.5137025	-0.1906504	0.4763729	-4.284612	10.70584
28.9673	-0.04680789	-0.5137025	0	0	4.471091	-11.17179
28.99136	-0.04352513	-0.5079848	0.1364447	0.2376501	3.321708	5.785527
29.01027	-0.04352513	-0.5079848	0	0	-3.175158	-5.530276
29.03438	-0.04234309	-0.5068833	0.0490366	0.04569305	1.1399	1.062176
29.05169	-0.04234309	-0.5068833	0	0	-1.183997	-1.103266
29.07339	-0.04234309	-0.5068833	0	0	0	0
29.08996	-0.04234309	-0.5068833	0	0	0	0
29.11085	-0.04236937	-0.5069078	-0.001257274	-0.001169557	-0.03356111	-0.03121964
29.13162	-0.04236937	-0.5069078	0	0	0.0301778	0.02807237
29.15518	-0.04234309	-0.5069323	0.001114897	-0.001039643	0.0251496	-0.02345204
29.17192	-0.04234309	-0.5069323	0	0	-0.02766337	0.02579614
29.19161	-0.04234309	-0.5070301	0	-0.004971178	0	-0.1364713
29.20818	-0.04234309	-0.5070301	0	0	0	0.1371175
29.22573	-0.04234309	-0.5070301	0	0	0	0
29.24805	-0.04231683	-0.5072014	0.001176748	-0.007674314	0.02951373	-0.1924776
29.26462	-0.04231683	-0.5072014	0	0	-0.03025921	0.1973393
29.28624	-0.04231683	-0.5072504	0	-0.002262855	0	-0.05924829
29.30742	-0.04231683	-0.5072504	0	0	0	0.05286226
29.32986	-0.04234309	-0.5072748	-0.001170547	-0.001089035	-0.02683444	-0.02496581
29.35313	-0.04234309	-0.5072748	0	0	0.0256094	0.02382608
29.37477	-0.04236937	-0.5072993	-0.001214161	-0.001132206	-0.0270386	-0.02521353
29.39157	-0.04236937	-0.5072993	0	0	0.03158215	0.0294504
29.41422	-0.04236937	-0.5072993	0	0	0	0
29.43079	-0.04236937	-0.5072993	0	0	0	0
29.4537	-0.04239563	-0.5073727	-0.001146382	-0.003204861	-0.02903687	-0.08117641
29.47027	-0.04239563	-0.5073727	0	0	0.02903547	0.08117248
29.49281	-0.04239563	-0.5073727	0	0	0	0
29.50938	-0.04239563	-0.5073727	0	0	0	0
29.5305	-0.04239563	-0.5073727	0	0	0	0
29.54934	-0.04239563	-0.5073727	0	0	0	0
29.57398	-0.04239563	-0.5073727	0	0	0	0
29.592	-0.04239563	-0.5073727	0	0	0	0
29.6176	-0.04239563	-0.5073727	0	0	0	0
29.63416	-0.04239563	-0.5073727	0	0	0	0
29.65622	-0.0424219	-0.5074462	-0.001191165	-0.003329586	-0.03084169	-0.08620978
29.67436	-0.0424219	-0.5074462	0	0	0.0296329	0.08283093
29.70077	-0.04244817	-0.5074706	-0.0009944746	-0.0009252239	-0.02231983	-0.02076557
29.72038	-0.04244817	-0.5074706	0	0	0.02161207	0.0201071
29.74069	-0.04244817	-0.5075196	0	-0.002412198	0	-0.06043614
29.75734	-0.04244817	-0.5075196	0	0	0	0.06525058
29.77881	-0.04247444	-0.507544	-0.001223479	-0.001138282	-0.03209043	-0.0298558
29.79571	-0.04247444	-0.507544	0	0	0.03188624	0.02966583
29.81804	-0.04250071	-0.5075685	-0.001176513	-0.0010971	-0.02998987	-0.02796559
29.83695	-0.04250071	-0.5075685	0	0	0.02853061	0.02660483
29.85796	-0.04255324	-0.5077154	-0.002500497	-0.006990468	-0.06264241	-0.1751251
29.87633	-0.04255324	-0.5077154	0	0	0.06350418	0.1775343
29.89848	-0.04250071	-0.5078623	0.002370919	-0.006630907	0.05850723	-0.163631
29.91505	-0.04250071	-0.5078623	0	0	-0.06122166	0.1712227
29.94103	-0.04250071	-0.5079113	0	-0.00188358	0	-0.04426836
29.9576	-0.04250071	-0.5079113	0	0	0	0.04427035
29.97976	-0.04250071	-0.5079113	0	0	0	0
29.99633	-0.04250071	-0.5079113	0	0	0	0
30.02013	-0.04250071	-0.5079113	0	0	0	0
30.03669	-0.04250071	-0.5079113	0	0	0	0
30.06016	-0.04250071	-0.5079113	0	0	0	0
30.07888	-0.04250071	-0.5079113	0	0	0	0
30.09991	-0.04250071	-0.5079113	0	0	0	0
30.11648	-0.04250071	-0.5079113	0	0	0	0
30.14139	-0.04250071	-0.5079113	0	0	0	0
30.1651	-0.04250071	-0.5079113	0	0	0	0
30.19069	-0.04250071	-0.5079113	0	0	0	0
30.20725	-0.04250071	-0.5079113	0	0	0	0
30.22767	-0.04250071	-0.5079113	0	0	0	0
30.24424	-0.04250071	-0.5079113	0	0	0	0
30.26663	-0.04250071	-0.5079113	0	0	0	0
30.28365	-0.04250071	-0.5079113	0	0	0	0
30.30985	-0.04250071	-0.5079113	0	0	0	0
30.32674	-0.04250071	-0.5079113	0	0	0	0
30.34736	-0.04247444	-0.5079358	0.001274139	-0.001188136	0.03397323	-0.03168008
30.36393	-0.04247444	-0.5079358	0	0	-0.03426424	0.03195145
30.38789	-0.04247444	-0.5079358	0	0	0	0
30.40518	-0.04247444	-0.5079358	0	0	0	0
30.42831	-0.04247444	-0.5079358	0	0	0	0
30.44488	-0.04247444	-0.5079358	0	0	0	0
30.46673	-0.04250071	-0.5079603	-0.001201871	-0.001120746	-0.03127643	-0.02916532
30.48685	-0.04250071	-0.5079603	0	0	0.0286356	0.02670274
30.50848	-0.04244817	-0.5080093	0.002429005	-0.002265212	0.05819047	-0.05426654
30.52558	-0.04244817	-0.5080093	0	0	-0.06270611	0.05847768
30.5494	-0.04244817	-0.5080093	0	0	0	0
30.56597	-0.04244817	-0.5080093	0	0	0	0
30.59212	-0.04244817	-0.5080093	0	0	0	0
30.60893	-0.04244817	-0.5080093	0	0	0	0
30.63486	-0.04244817	-0.5080093	0	0	0	0
30.65143	-0.04244817	-0.5080093	0	0	0	0
30.67444	-0.04244817	-0.5080582	0	-0.002126679	0	-0.05373456
30.69101	-0.04244817	-0.5080582	0	0	0	0.05373456
30.71301	-0.04244817	-0.5080582	0	0	0	0
30.73007	-0.04244817	-0.5080582	0	0	0	0
30.75514	-0.0424219	-0.5080827	0.00104766	-0.0009770825	0.02486646	-0.0231913
30.77246	-0.0424219	-0.5080827	0	0	-0.0247143	0.02304939
30.79551	-0.04236937	-0.5081806	0.002279265	-0.004248552	0.05646073	-0.1052428
30.81383	-0.04236937	-0.5081806	0	0	-0.0550992	0.1027049
30.83652	-0.04218549	-0.5083521	0.008102727	-0.007556417	0.1975798	-0.1842584
30.85688	-0.04218549	-0.5083521	0	0	-0.188205	0.1755156
30.88343	-0.04215921	-0.5084256	0.0009895422	-0.002768249	0.02109564	-0.05901515
30.9	-0.04215921	-0.5084256	0	0	-0.0229509	0.06420524
30.92381	-0.04210668	-0.5084745	0.002206065	-0.002054801	0.05462938	-0.05088361
30.94038	-0.04210668	-0.5084745	0	0	-0.0546268	0.0508812
30.96357	-0.04208041	-0.508499	0.001133057	-0.001056577	0.02850108	-0.0265773
30.98033	-0.04208041	-0.508499	0	0	-0.02836228	0.02644787
31.0123	-0.04205414	-0.5085235	0.0008216876	-0.0007663335	0.01686175	-0.01572584
31.03234	-0.04205414	-0.5085235	0	0	-0.01579704	0.01473285
31.05648	-0.04202787	-0.508597	0.001088551	-0.003045226	0.02463799	-0.06892487
31.07305	-0.04202787	-0.508597	0	0	-0.02674388	0.07481611
31.0945	-0.04202787	-0.508646	0	-0.002283536	0	-0.06005371
31.1126	-0.04202787	-0.508646	0	0	0	0.05772847
31.13453	-0.04202787	-0.508646	0	0	0	0
31.1511	-0.04202787	-0.508646	0	0	0	0
31.17477	-0.04202787	-0.508646	0	0	0	0
31.19383	-0.04202787	-0.508646	0	0	0	0
31.21746	-0.04202787	-0.508646	0	0	0	0
31.23798	-0.04202787	-0.508646	0	0	0	0
31.26781	-0.04205414	-0.5086705	-0.0008807109	-0.0008212642	-0.01749304	-0.01631228
31.29504	-0.04205414	-0.5086705	0	0	0.01543527	0.01439341
31.32063	-0.04205414	-0.5086705	0	0	0	0
31.34273	-0.04205414	-0.5086705	0	0	0	0
31.36911	-0.04205414	-0.5086705	0	0	0	0
31.38767	-0.04205414	-0.5086705	0	0	0	0
31.4095	-0.04205414	-0.5086705	0	0	0	0
31.42607	-0.04205414	-0.5086705	0	0	0	0
31.44735	-0.04205414	-0.5086705	0	0	0	0
31.46526	-0.04205414	-0.5086705	0	0	0	0
31.49334	-0.04205414	-0.5086705	0	0	0	0
31.5112	-0.04205414	-0.5086705	0	0	0	0
31.53186	-0.04205414	-0.5086705	0	0	0	0
31.54842	-0.04205414	-0.5086705	0	0	0	0
31.57251	-0.04205414	-0.5086705	0	0	0	0
31.58908	-0.04205414	-0.5086705	0	0	0	0
31.61187	-0.04202787	-0.508695	0.001152589	-0.001074791	0.02928322	-0.02730665
31.62885	-0.04202787	-0.508695	0	0	-0.0289771	0.02702119
31.65369	-0.04205414	-0.5087195	-0.001057705	-0.0009863116	-0.02529153	-0.02358439
31.67026	-0.04205414	-0.5087195	0	0	0.02554552	0.02382123
31.69435	-0.04205414	-0.5087195	0	0	0	0
31.71413	-0.04205414	-0.5087195	0	0	0	0
31.7354	-0.04205414	-0.5087195	0	0	0	0
31.75197	-0.04205414	-0.5087195	0	0	0	0
31.77531	-0.04205414	-0.5087195	0	0	0	0
31.79188	-0.04205414	-0.5087195	0	0	0	0
31.81265	-0.04208041	-0.508744	-0.001264599	-0.001179408	-0.03386699	-0.0315855
31.83576	-0.04208041	-0.508744	0	0	0.02881918	0.02687774
31.85676	-0.04205414	-0.5087686	0.001250816	-0.001169391	0.02835717	-0.0265112
31.87447	-0.04205414	-0.5087686	0	0	-0.03231756	0.03021377
31.89576	-0.04205414	-0.5087686	0	0	0	0
31.91232	-0.04205414	-0.5087686	0	0	0	0
31.94006	-0.04205414	-0.5087686	0	0	0	0
31.95753	-0.04205414	-0.5087686	0	0	0	0
31.98024	-0.04205414	-0.5087686	0	0	0	0
31.99692	-0.04205414	-0.5087686	0	0	0	0
32.01955	-0.04208041	-0.5087931	-0.001161073	-0.001082856	-0.02954028	-0.02755026
32.03644	-0.04208041	-0.5087931	0	0	0.02938343	0.02740398
32.0574	-0.04208041	-0.5087931	0	0	0	0
32.07397	-0.04208041	-0.5087931	0	0	0	0
32.09482	-0.04208041	-0.5087931	0	0	0	0
32.11139	-0.04208041	-0.5087931	0	0	0	0
32.13399	-0.04210668	-0.5088176	-0.001162315	-0.001083861	-0.02967413	-0.02767117
32.15055	-0.04210668	-0.5088176	0	0	0.02967413	0.02767117
32.17479	-0.04210668	-0.5088176	0	0	0	0
32.19136	-0.04210668	-0.5088176	0	0	0	0
32.2117	-0.04213295	-0.5088421	-0.001291098	-0.001203951	-0.03497507	-0.0326143
32.23068	-0.04213295	-0.5088421	0	0	0.03283408	0.03061783
32.25486	-0.04210668	-0.5088665	0.001086576	-0.001013234	0.02518029	-0.02348065
32.27142	-0.04210668	-0.5088665	0	0	-0.02666786	0.02486781
32.29147	-0.04213295	-0.508891	-0.001310757	-0.001222283	-0.0358036	-0.03338691
32.30812	-0.04213295	-0.508891	0	0	0.03571429	0.03330362
32.32904	-0.04213295	-0.508891	0	0	0	0
32.34561	-0.04213295	-0.508891	0	0	0	0
32.37046	-0.04213295	-0.508891	0	0	0	0
32.38703	-0.04213295	-0.508891	0	0	0	0
32.4096	-0.04213295	-0.508891	0	0	0	0
32.42617	-0.04213295	-0.508891	0	0	0	0
32.45335	-0.04215921	-0.5089155	-0.0009664199	-0.0009013158	-0.02209114	-0.02060294
32.46991	-0.04215921	-0.5089155	0	0	0.02209114	0.02060294
32.4916	-0.04215921	-0.5089155	0	0	0	0
32.50826	-0.04215921	-0.5089155	0	0	0	0
32.52795	-0.04215921	-0.5089155	0	0	0	0
32.54663	-0.04215921	-0.5089155	0	0	0	0
32.5633	-0.04215921	-0.5089155	0	0	0	0
32.58548	-0.04218549	-0.50894	-0.001184506	-0.001104554	-0.03048411	-0.02842648
32.60205	-0.04218549	-0.50894	0	0	0.03057115	0.02850764
32.6286	-0.04218549	-0.50894	0	0	0	0
32.64623	-0.04218549	-0.50894	0	0	0	0
32.66805	-0.04223802	-0.508989	-0.002407773	-0.002245411	-0.06103696	-0.05692109
32.68462	-0.04223802	-0.508989	0	0	0.06271693	0.05848778
32.7092	-0.04257951	-0.5093567	-0.01389408	-0.01495809	-0.3376517	-0.3635093
32.72577	-0.04257951	-0.5093567	0	0	0.337683	0.363543
32.74806	-0.04465451	-0.5112945	-0.09307791	-0.08692677	-2.395191	-2.236903
32.76838	-0.04465451	-0.5112945	0	0	2.184406	2.040047
32.79221	-0.04468077	-0.5113191	-0.001102268	-0.00103066	-0.02497001	-0.02334784
32.80877	-0.04468077	-0.5113191	0	0	0.02728803	0.02551528
32.82839	-0.04468077	-0.5113191	0	0	0	0
32.84496	-0.04468077	-0.5113191	0	0	0	0
32.86152	-0.04468077	-0.5113191	0	0	0	0
32.88234	-0.04468077	-0.5113191	0	0	0	0
32.89904	-0.04468077	-0.5113191	0	0	0	0
32.92016	-0.04468077	-0.5113191	0	0	0	0
32.93673	-0.04468077	-0.5113191	0	0	0	0
32.95749	-0.04468077	-0.5113191	0	0	0	0
32.9741	-0.04468077	-0.5113191	0	0	0	0
32.99353	-0.04468077	-0.5113191	0	0	0	0
33.01013	-0.04468077	-0.5113191	0	0	0	0
33.02667	-0.04468077	-0.5113191	0	0	0	0
33.0491	-0.04468077	-0.5113191	0	0	0	0
33.06567	-0.04468077	-0.5113191	0	0	0	0
33.08643	-0.04468077	-0.5113191	0	0	0	0
33.1032	-0.04468077	-0.5113191	0	0	0	0
33.13382	-0.04468077	-0.5113191	0	0	0	0
33.15038	-0.04468077	-0.5113191	0	0	0	0
33.17691	-0.04468077	-0.5113191	0	0	0	0
33.19348	-0.04468077	-0.5113191	0	0	0	0
33.21413	-0.04468077	-0.5113191	0	0	0	0
33.23307	-0.04468077	-0.5113191	0	0	0	0
33.25423	-0.04468077	-0.5113191	0	0	0	0
33.27296	-0.04468077	-0.5113191	0	0	0	0
33.29477	-0.04468077	-0.5113191	0	0	0	0
33.31134	-0.04468077	-0.5113191	0	0	0	0
33.33172	-0.04468077	-0.5113191	0	0	0	0
33.34829	-0.04468077	-0.5113191	0	0	0	0
33.36992	-0.04468077	-0.5113191	0	0	0	0
33.39055	-0.04468077	-0.5113191	0	0	0	0
33.41433	-0.04468077	-0.5113191	0	0	0	0
33.43729	-0.04468077	-0.5113191	0	0	0	0
33.46157	-0.04468077	-0.5113191	0	0	0	0
33.47814	-0.04468077	-0.5113191	0	0	0	0
33.49922	-0.04468077	-0.5113191	0	0	0	0
33.51643	-0.04468077	-0.5113191	0	0	0	0
33.53774	-0.04468077	-0.5113191	0	0	0	0
33.55431	-0.04468077	-0.5113191	0	0	0	0
33.58199	-0.04468077	-0.5113191	0	0	0	0
33.60384	-0.04468077	-0.5113191	0	0	0	0
33.62541	-0.04468077	-0.5113191	0	0	0	0
33.64207	-0.04468077	-0.5113191	0	0	0	0
33.66209	-0.04468077	-0.5113191	0	0	0	0
33.67909	-0.04468077	-0.5113191	0	0	0	0
33.7027	-0.04468077	-0.5113191	0	0	0	0
33.72059	-0.04468077	-0.5113191	0	0	0	0
33.74329	-0.04468077	-0.5113191	0	0	0	0
33.75986	-0.04468077	-0.5113191	0	0	0	0
33.78199	-0.04468077	-0.5113191	0	0	0	0
33.79856	-0.04468077	-0.5113191	0	0	0	0
33.81977	-0.04468077	-0.5113191	0	0	0	0
33.83635	-0.04468077	-0.5113191	0	0	0	0
33.85812	-0.04468077	-0.5113191	0	0	0	0
33.87683	-0.04468077	-0.5113191	0	0	0	0
33.89754	-0.04468077	-0.5113191	0	0	0	0
33.91411	-0.04468077	-0.5113191	0	0	0	0
33.93766	-0.04468077	-0.5113191	0	0	0	0
33.95423	-0.04468077	-0.5113191	0	0	0	0
33.97566	-0.04468077	-0.5113191	0	0	0	0
33.99223	-0.04468077	-0.5113191	0	0	0	0
34.01133	-0.04468077	-0.5113191	0	0	0	0
34.02789	-0.04468077	-0.5113191	0	0	0	0
34.04446	-0.04468077	-0.5113191	0	0	0	0
34.0649	-0.04468077	-0.5113191	0	0	0	0
34.08477	-0.04468077	-0.5113191	0	0	0	0
34.11285	-0.04468077	-0.5113191	0	0	0	0
34.13107	-0.04468077	-0.5113191	0	0	0	0
34.15302	-0.04468077	-0.5113191	0	0	0	0
34.16994	-0.04468077	-0.5113191	0	0	0	0
34.19204	-0.04468077	-0.5113191	0	0	0	0
34.20898	-0.04468077	-0.5113191	0	0	0	0
34.23123	-0.04468077	-0.5113191	0	0	0	0
34.25274	-0.04468077	-0.5113191	0	0	0	0
34.27379	-0.04468077	-0.5113191	0	0	0	0
34.29036	-0.04468077	-0.5113191	0	0	0	0
34.31029	-0.04468077	-0.5113191	0	0	0	0
34.32706	-0.04468077	-0.5113191	0	0	0	0
34.34343	-0.04468077	-0.5113191	0	0	0	0
34.36369	-0.04468077	-0.5113191	0	0	0	0
34.38026	-0.04468077	-0.5113191	0	0	0	0
34.40155	-0.04468077	-0.5113191	0	0	0	0
34.41812	-0.04468077	-0.5113191	0	0	0	0
34.44104	-0.04468077	-0.5113191	0	0	0	0
34.45761	-0.04468077	-0.5113191	0	0	0	0
34.47855	-0.04468077	-0.5113191	0	0	0	0
34.49512	-0.04468077	-0.5113191	0	0	0	0
34.52187	-0.04468077	-0.5113191	0	0	0	0
34.53843	-0.04468077	-0.5113191	0	0	0	0
34.56245	-0.04468077	-0.5113191	0	0	0	0
34.57915	-0.04468077	-0.5113191	0	0	0	0
34.60497	-0.04468077	-0.5113191	0	0	0	0
34.62176	-0.04468077	-0.5113191	0	0	0	0
34.64204	-0.04468077	-0.5113191	0	0	0	0
34.65861	-0.04468077	-0.5113191	0	0	0	0
34.67943	-0.04468077	-0.5113191	0	0	0	0
34.69716	-0.04468077	-0.5113191	0	0	0	0
34.72297	-0.04468077	-0.5113191	0	0	0	0
34.73954	-0.04468077	-0.5113191	0	0	0	0
34.76384	-0.04468077	-0.5113191	0	0	0	0
34.78041	-0.04468077	-0.5113191	0	0	0	0
34.80168	-0.04468077	-0.5113191	0	0	0	0
34.81824	-0.04468077	-0.5113191	0	0	0	0
34.83973	-0.04468077	-0.5113191	0	0	0	0
34.85648	-0.04468077	-0.5113191	0	0	0	0
34.87717	-0.04468077	-0.5113191	0	0	0	0
34.89373	-0.04468077	-0.5113191	0	0	0	0
34.91546	-0.04468077	-0.5113191	0	0	0	0
34.96749	-0.04468077	-0.5113191	0	0	0	0
34.99107	-0.04465451	-0.5113437	0.001113679	-0.00104133	0.01472904	-0.01377218
35.00764	-0.04465451	-0.5113437	0	0	-0.02773818	0.02593618
35.03103	-0.04465451	-0.5113437	0	0	0	0
35.0476	-0.04465451	-0.5113437	0	0	0	0
35.07718	-0.04465451	-0.5113437	0	0	0	0
35.09374	-0.04465451	-0.5113437	0	0	0	0
35.11925	-0.04465451	-0.5113437	0	0	0	0
35.13581	-0.04465451	-0.5113437	0	0	0	0
35.15908	-0.04465451	-0.5113437	0	0	0	0
35.1764	-0.04465451	-0.5113437	0	0	0	0
35.19806	-0.04462824	-0.5113682	0.001212961	-0.001134161	0.03111865	-0.02909704
35.21466	-0.04462824	-0.5113682	0	0	-0.03170193	0.02964243
35.23942	-0.04465451	-0.5113927	-0.001060827	-0.0009895031	-0.02564454	-0.02392035
35.25611	-0.04465451	-0.5113927	0	0	0.02559497	0.02387412
35.28043	-0.04462824	-0.5114173	0.001079963	-0.001009804	0.02633543	-0.02462456
35.29805	-0.04462824	-0.5114173	0	0	-0.0257486	0.02407586
35.32183	-0.04457572	-0.5115646	0.002209134	-0.006196856	0.05335955	-0.1496792
35.33889	-0.04457572	-0.5115646	0	0	-0.05410232	0.1517628
35.36458	-0.04447066	-0.5118592	0.004089093	-0.01146761	0.09565689	-0.268264
35.38234	-0.04447066	-0.5118592	0	0	-0.09409508	0.2638839
35.40496	-0.04449692	-0.5127191	-0.001161006	-0.03801117	-0.02874759	-0.9411921
35.42326	-0.04449692	-0.5127191	0	0	0.02837505	0.928995
35.45139	-0.0407406	-0.5179147	0.1335545	-0.1847281	2.877024	-3.979403
35.47031	-0.0407406	-0.5179147	0	0	-2.838537	3.926168
35.49402	-0.06110803	-0.5813166	-0.8589447	-2.673813	-20.14558	-62.71129
35.51059	-0.06110803	-0.5813166	0	0	21.32467	66.38167
35.53432	-0.1034973	-0.6716157	-1.785935	-3.804461	-44.31351	-94.39818
35.5509	-0.1034973	-0.6716157	0	0	44.30931	94.38924
35.57534	-0.1450015	-0.7425492	-1.698153	-2.902265	-41.40645	-70.76657
35.59192	-0.1450015	-0.7425492	0	0	41.3949	70.74683
35.61362	-0.177991	-0.7830894	-1.520394	-1.868382	-39.71722	-48.8077
35.63632	-0.177991	-0.7830894	0	0	34.24369	42.08139
35.65796	-0.1970666	-0.8070887	-0.881311	-1.108791	-19.87358	-25.00327
35.67563	-0.1970666	-0.8070887	0	0	22.41925	28.20601
35.70197	-0.1983316	-0.8083279	-0.04802623	-0.04704245	-1.091348	-1.068992
35.72161	-0.1983316	-0.8083279	0	0	1.044362	1.022969
35.74552	-0.198888	-0.8076755	-0.02327791	0.02729263	-0.5345274	0.6267169
35.76208	-0.198888	-0.8076755	0	0	0.5751875	-0.6743897
35.78487	-0.2006576	-0.805396	-0.07766263	0.1000413	-1.973516	2.54219
35.80144	-0.2006576	-0.805396	0	0	1.973516	-2.54219
35.82529	-0.2025269	-0.8031228	-0.07837867	0.095317	-1.939264	2.358356
35.84594	-0.2025269	-0.8031228	0	0	1.761078	-2.141663
35.87101	-0.2116252	-0.8153077	-0.3629704	-0.4861061	-7.93847	-10.63155
35.88954	-0.2116252	-0.8153077	0	0	8.326085	11.15066
35.91954	-0.2415578	-0.8559266	-0.9976657	-1.353846	-20.55747	-27.89677
35.93642	-0.2415578	-0.8559266	0	0	21.2818	28.8797
35.96124	-0.2551074	-0.8751332	-0.5459498	-0.7738842	-13.094	-18.56076
35.9797	-0.2551074	-0.8751332	0	0	12.61391	17.88023
36.00256	-0.2559942	-0.876412	-0.03878488	-0.05593093	-0.9384552	-1.353328
36.01913	-0.2559942	-0.876412	0	0	0.9835759	1.418396
36.04273	-0.2559942	-0.876412	0	0	0	0
36.0593	-0.2559942	-0.876412	0	0	0	0
36.08502	-0.2559696	-0.8764476	0.000957011	-0.001383379	0.02262986	-0.03271194
36.10199	-0.2559696	-0.8764476	0	0	-0.02241554	0.03240212
36.12584	-0.2559696	-0.8764476	0	0	0	0
36.14452	-0.2559696	-0.8764476	0	0	0	0
36.1678	-0.2559696	-0.8764476	0	0	0	0
36.18438	-0.2559696	-0.8764476	0	0	0	0
36.20451	-0.255945	-0.876412	0.001223894	0.001767025	0.03334059	0.04813623
36.2247	-0.255945	-0.876412	0	0	-0.0303535	-0.04382356
36.25135	-0.2559204	-0.8763765	0.0009234581	0.001332642	0.01971488	0.02845053
36.26792	-0.2559204	-0.8763765	0	0	-0.02136431	-0.03083082
36.29045	-0.2558957	-0.876412	0.001093776	-0.001576519	0.02797336	-0.04031952
36.30702	-0.2558957	-0.876412	0	0	-0.02797336	0.04031952
36.33398	-0.2558957	-0.876412	0	0	0	0
36.3515	-0.2558957	-0.876412	0	0	0	0
36.37303	-0.2558465	-0.8764831	0.002287126	-0.003303318	0.0585733	-0.084598
36.39053	-0.2558465	-0.8764831	0	0	-0.05860765	0.08464761
36.4114	-0.2558465	-0.8764831	0	0	0	0
36.42801	-0.2558465	-0.8764831	0	0	0	0
36.45417	-0.2558218	-0.8765187	0.0009419649	-0.001359983	0.0220218	-0.03179447
36.47074	-0.2558218	-0.8765187	0	0	-0.02204343	0.0318257
36.49249	-0.2558218	-0.8765187	0	0	0	0
36.50906	-0.2558218	-0.8765187	0	0	0	0
36.53043	-0.2558218	-0.8765187	0	0	0	0
36.547	-0.2558218	-0.8765187	0	0	0	0
36.56822	-0.2557972	-0.8764831	0.0011598	0.001676514	0.03068886	0.04436138
36.58512	-0.2557972	-0.8764831	0	0	-0.0304217	-0.0439752
36.60693	-0.2557726	-0.8765187	0.001130325	-0.001631932	0.02920441	-0.04216452
36.62416	-0.2557726	-0.8765187	0	0	-0.02895329	0.04180196
36.64637	-0.2557726	-0.8765187	0	0	0	0
36.66317	-0.2557726	-0.8765187	0	0	0	0
36.68762	-0.2557726	-0.8765187	0	0	0	0
36.71439	-0.2557726	-0.8765187	0	0	0	0
36.74386	-0.2557479	-0.8765543	0.0008352479	-0.001207368	0.01485147	-0.0214681
36.76169	-0.2557479	-0.8765543	0	0	-0.0176591	0.0255266
36.78416	-0.2557479	-0.8765543	0	0	0	0
36.8008	-0.2557479	-0.8765543	0	0	0	0
36.82326	-0.2557479	-0.8765543	0	0	0	0
36.84328	-0.2557479	-0.8765543	0	0	0	0
36.86526	-0.2557233	-0.8765898	0.001121496	-0.001616473	0.0267024	-0.03848762
36.88184	-0.2557233	-0.8765898	0	0	-0.02908234	0.04191796
36.90334	-0.2557233	-0.8765898	0	0	0	0
36.91991	-0.2557233	-0.8765898	0	0	0	0
36.94624	-0.2557233	-0.8765898	0	0	0	0
36.96289	-0.2557233	-0.8765898	0	0	0	0
36.984	-0.2557233	-0.8765898	0	0	0	0
37.00058	-0.2557233	-0.8765898	0	0	0	0
37.02307	-0.2557233	-0.8765898	0	0	0	0
37.04206	-0.2557233	-0.8765898	0	0	0	0
37.06424	-0.2557233	-0.8765898	0	0	0	0
37.08099	-0.2557233	-0.8765898	0	0	0	0
37.10135	-0.2556987	-0.8766254	0.001208903	-0.001747494	0.03257676	-0.04709037
37.11829	-0.2556987	-0.8766254	0	0	-0.03240355	0.04683999
37.14148	-0.2557233	-0.8765898	-0.001061544	0.001534484	-0.0264497	0.03823359
37.15805	-0.2557233	-0.8765898	0	0	0.02670095	-0.03859678
37.18052	-0.2556494	-0.8764831	0.003288147	0.004748514	0.08423416	0.1216451
37.20085	-0.2556494	-0.8764831	0	0	-0.07683109	-0.1109541
37.22235	-0.2555509	-0.8762698	0.004583278	0.009920503	0.109564	0.2371512
37.23892	-0.2555509	-0.8762698	0	0	-0.1203887	-0.2605812
37.26145	-0.2551567	-0.8756303	0.01749381	0.02838264	0.4474046	0.7258866
37.27802	-0.2551567	-0.8756303	0	0	-0.4474046	-0.7258866
37.29768	-0.2540476	-0.8738918	0.05640946	0.0884204	1.55706	2.440653
37.31425	-0.2540476	-0.8738918	0	0	-1.55706	-2.440653
37.33081	-0.2540476	-0.8738918	0	0	0	0
37.35112	-0.2383548	-0.8514053	0.7726847	1.107197	20.95321	30.02433
37.36769	-0.2383548	-0.8514053	0	0	-20.95321	-30.02433
37.389	-0.2131592	-0.8172514	1.182611	1.603083	31.22627	42.32862
37.40556	-0.2131592	-0.8172514	0	0	-31.22627	-42.32862
37.42689	-0.1806408	-0.7690079	1.524684	2.261986	40.23422	59.69057
37.44346	-0.1806408	-0.7690079	0	0	-40.23422	-59.69057
37.46537	-0.1707678	-0.7162038	0.4505802	2.409865	11.70982	62.6283
37.48409	-0.1707678	-0.7162038	0	0	-11.08975	-59.31196
37.5042	-0.1716621	-0.6560926	-0.04446916	2.98896	-1.145233	76.97592
37.5248	-0.1716621	-0.6560926	0	0	1.09243	-73.42685
37.54847	-0.1583473	-0.5902579	0.5624226	2.780885	12.7045	62.81709
37.56504	-0.1583473	-0.5902579	0	0	-13.97627	-69.10535
37.58724	-0.1302841	-0.5358031	1.264021	2.452749	32.6041	63.26611
37.60381	-0.1302841	-0.5358031	0	0	-32.6041	-63.26611
37.62642	-0.104044	-0.4990773	1.160569	1.624334	29.62379	41.46149
37.64337	-0.104044	-0.4990773	0	0	-29.33246	-41.05375
37.66344	-0.07909779	-0.4751629	1.243251	1.19183	33.58173	32.19278
37.6804	-0.07909779	-0.4751629	0	0	-33.57827	-32.18947
37.70627	-0.06273337	-0.4603066	0.6325323	0.5742384	14.76795	13.40694
37.72293	-0.06273337	-0.4603066	0	0	-14.86993	-13.49952
37.74435	-0.0520057	-0.4506688	0.500836	0.4499555	13.15016	11.81422
37.76092	-0.0520057	-0.4506688	0	0	-13.18449	-11.84506
37.78636	-0.04819948	-0.4472675	0.1496141	0.133697	3.561609	3.182697
37.80298	-0.04819948	-0.4472675	0	0	-3.557087	-3.178655
37.82478	-0.04822574	-0.4473378	-0.001204342	-0.003223425	-0.03134541	-0.08389611
37.84167	-0.04822574	-0.4473378	0	0	0.03113213	0.08332527
37.8633	-0.04819948	-0.4473144	0.0012139	0.001083003	0.03151907	0.02812031
37.882	-0.04819948	-0.4473144	0	0	-0.03009425	-0.02684912
37.90366	-0.04819948	-0.4473144	0	0	0	0
37.92023	-0.04819948	-0.4473144	0	0	0	0
37.94332	-0.04822574	-0.4473378	-0.001137091	-0.001014476	-0.02867272	-0.02558088
37.95988	-0.04822574	-0.4473378	0	0	0.02867272	0.02558088
37.98298	-0.04822574	-0.4473378	0	0	0	0
38.00254	-0.04822574	-0.4473378	0	0	0	0
38.0255	-0.04822574	-0.4473847	0	-0.002042051	0	-0.04803153
38.04206	-0.04822574	-0.4473847	0	0	0	0.051666
38.06348	-0.04825199	-0.4474081	-0.001225616	-0.001093611	-0.03226431	-0.02878927
38.08005	-0.04825199	-0.4474081	0	0	0.03226431	0.02878927
38.10186	-0.04827825	-0.4474784	-0.00120392	-0.003223664	-0.03137182	-0.08400241
38.11922	-0.04827825	-0.4474784	0	0	0.03073931	0.08230878
38.14655	-0.0483045	-0.4475956	-0.0009606158	-0.004286244	-0.02149549	-0.09591234
38.16702	-0.0483045	-0.4475956	0	0	0.02009574	0.08966668
38.18815	-0.04833075	-0.4477127	-0.001242433	-0.005545902	-0.0298667	-0.1333173
38.20472	-0.04833075	-0.4477127	0	0	0.03295854	0.1471185
38.22544	-0.04833075	-0.4477596	0	-0.002261513	0	-0.0606364
38.24201	-0.04833075	-0.4477596	0	0	0	0.0606364
38.26502	-0.04833075	-0.4477596	0	0	0	0
38.28159	-0.04833075	-0.4477596	0	0	0	0
38.30305	-0.04833075	-0.4478065	0	-0.002184334	0	-0.05743907
38.31997	-0.04833075	-0.4478065	0	0	0	0.05691949
38.35088	-0.04835701	-0.4478299	-0.0008494153	-0.0007578212	-0.01776096	-0.01584576
38.36744	-0.04835701	-0.4478299	0	0	0.01789082	0.01596162
38.39253	-0.04835701	-0.4478299	0	0	0	0
38.41108	-0.04835701	-0.4478299	0	0	0	0
38.43179	-0.04838326	-0.4479003	-0.001267607	-0.003396113	-0.03228363	-0.08649284
38.44836	-0.04838326	-0.4479003	0	0	0.03400486	0.09110425
38.46975	-0.04840952	-0.4479706	-0.001227539	-0.003286907	-0.03234091	-0.08659728
38.48647	-0.04840952	-0.4479706	0	0	0.03221464	0.08625918
38.50852	-0.04840952	-0.4480174	0	-0.0021254	0	-0.05481708
38.52509	-0.04840952	-0.4480174	0	0	0	0.05502823
38.54684	-0.04840952	-0.4480174	0	0	0	0
38.56354	-0.04840952	-0.4480174	0	0	0	0
38.59053	-0.04843577	-0.447994	-0.0009726977	0.0008679329	-0.02226376	0.01986583
38.60755	-0.04843577	-0.447994	0	0	0.02209974	-0.01971948
38.62826	-0.04840952	-0.4480174	0.001267607	-0.001131078	0.03359234	-0.02997427
38.64541	-0.04840952	-0.4480174	0	0	-0.03348402	0.02987761
38.67176	-0.04843577	-0.4480409	-0.0009960684	-0.0008899171	-0.02289665	-0.02045655
38.68853	-0.04843577	-0.4480409	0	0	0.0230992	0.02063751
38.71259	-0.04843577	-0.4481347	0	-0.003896342	0	-0.09543143
38.72916	-0.04843577	-0.4481347	0	0	0	0.09589735
38.75045	-0.04843577	-0.4482284	0	-0.004405293	0	-0.1163665
38.76702	-0.04843577	-0.4482284	0	0	0	0.1163665
38.78876	-0.04843577	-0.4482284	0	0	0	0
38.80736	-0.04843577	-0.4482284	0	0	0	0
38.83044	-0.04843577	-0.4482284	0	0	0	0
38.84722	-0.04843577	-0.4482284	0	0	0	0
38.87157	-0.04846203	-0.4482519	-0.001078304	-0.000963252	-0.02621935	-0.02342183
38.89096	-0.04846203	-0.4482519	0	0	0.02465511	0.02202449
38.91448	-0.04848828	-0.4482753	-0.001115913	-0.0009957232	-0.02600497	-0.02320409
38.93105	-0.04848828	-0.4482753	0	0	0.02783348	0.02483567
38.95125	-0.04848828	-0.4483691	0	-0.004643237	0	-0.1262914
38.96782	-0.04848828	-0.4483691	0	0	0	0.1262914
38.98898	-0.04848828	-0.4483691	0	0	0	0
39.00555	-0.04848828	-0.4483691	0	0	0	0
39.02739	-0.04848828	-0.448416	0	-0.002147551	0	-0.05591097
39.04396	-0.04848828	-0.448416	0	0	0	0.05591097
39.06503	-0.04848828	-0.448416	0	0	0	0
39.0816	-0.04848828	-0.448416	0	0	0	0
39.10526	-0.04851453	-0.4484395	-0.001109594	-0.0009912038	-0.0275814	-0.02463855
39.12183	-0.04851453	-0.4484395	0	0	0.0275814	0.02463855
39.15258	-0.04856704	-0.4484864	-0.001707561	-0.001524508	-0.0360873	-0.0322187
39.17296	-0.04856704	-0.4484864	0	0	0.03339502	0.02981504
39.19586	-0.04856704	-0.4485333	0	-0.002048114	0	-0.04731654
39.21243	-0.04856704	-0.4485333	0	0	0	0.05188951
39.23563	-0.04859329	-0.4485567	-0.001131695	-0.00101109	-0.02846	-0.02542701
39.25371	-0.04859329	-0.4485567	0	0	0.02741332	0.02449188
39.27603	-0.04859329	-0.4486036	0	-0.002100694	0	-0.05199551
39.29259	-0.04859329	-0.4486036	0	0	0	0.05402575
39.31281	-0.04861955	-0.4486271	-0.001298889	-0.001160302	-0.03531383	-0.03154595
39.32938	-0.04861955	-0.4486271	0	0	0.03531383	0.03154595
39.3518	-0.04861955	-0.448674	0	-0.002091661	0	-0.05364082
39.36837	-0.04861955	-0.448674	0	0	0	0.05364082
39.39015	-0.04861955	-0.4487209	0	-0.002153568	0	-0.05615687
39.40672	-0.04861955	-0.4487209	0	0	0	0.05615687
39.42741	-0.0486458	-0.4487443	-0.001268541	-0.001133353	-0.03404386	-0.0304158
39.44398	-0.0486458	-0.4487443	0	0	0.03404386	0.0304158
39.4635	-0.0486458	-0.4487443	0	0	0	0
39.4819	-0.0486458	-0.4487443	0	0	0	0
39.49846	-0.0486458	-0.4487443	0	0	0	0
39.51879	-0.04869831	-0.4487912	-0.002583455	-0.002307972	-0.07002763	-0.06256033
39.53535	-0.04869831	-0.4487912	0	0	0.07002763	0.06256033
39.55742	-0.04869831	-0.4488381	0	-0.002126383	0	-0.05504826
39.57418	-0.04869831	-0.4488381	0	0	0	0.05476163
39.59812	-0.04869831	-0.4488381	0	0	0	0
39.61469	-0.04869831	-0.4488381	0	0	0	0
39.63607	-0.04872456	-0.4488616	-0.001227584	-0.00109676	-0.03234534	-0.02889829
39.65264	-0.04872456	-0.4488616	0	0	0.03234534	0.02889829
39.67701	-0.04869831	-0.4488851	0.001077307	-0.000962498	0.02631717	-0.02351254
39.69358	-0.04869831	-0.4488851	0	0	-0.02631717	0.02351254
39.7173	-0.04872456	-0.4489085	-0.001106582	-0.0009886537	-0.02746487	-0.02453793
39.73752	-0.04872456	-0.4489085	0	0	0.0251809	0.02249737
39.75947	-0.04872456	-0.4489085	0	0	0	0
39.77604	-0.04872456	-0.4489085	0	0	0	0
39.79706	-0.04872456	-0.4489085	0	0	0	0
39.81392	-0.04872456	-0.4489085	0	0	0	0
39.83461	-0.04872456	-0.4489085	0	0	0	0
39.85118	-0.04872456	-0.4489085	0	0	0	0
39.87243	-0.04875081	-0.448932	-0.001235518	-0.001103849	-0.03267262	-0.02919069
39.89029	-0.04875081	-0.448932	0	0	0.03158916	0.0282227
39.91093	-0.04875081	-0.448932	0	0	0	0
39.94291	-0.04875081	-0.448932	0	0	0	0
39.96681	-0.04875081	-0.448932	0	0	0	0
39.98446	-0.04875081	-0.448932	0	0	0	0
40.00617	-0.04875081	-0.448932	0	0	0	0
40.02274	-0.04875081	-0.448932	0	0	0	0
40.04391	-0.04872456	-0.4489554	0.001239747	-0.001107627	0.03284741	-0.02934686
40.06048	-0.04872456	-0.4489554	0	0	-0.03284741	0.02934686
40.08508	-0.04872456	-0.4489554	0	0	0	0
40.10213	-0.04872456	-0.4489554	0	0	0	0
40.12487	-0.04872456	-0.4489554	0	0	0	0
40.14165	-0.04872456	-0.4489554	0	0	0	0
40.16226	-0.04875081	-0.4489789	-0.001273706	-0.001137967	-0.03406739	-0.03043682
40.17907	-0.04875081	-0.4489789	0	0	0.03403961	0.030412
40.20038	-0.04875081	-0.4489789	0	0	0	0
40.21722	-0.04875081	-0.4489789	0	0	0	0
40.23814	-0.04875081	-0.4489789	0	0	0	0
40.25484	-0.04875081	-0.4489789	0	0	0	0
40.2809	-0.04877707	-0.4490023	-0.00100729	-0.0008998152	-0.02355321	-0.02104015
40.29747	-0.04877707	-0.4490023	0	0	0.02362697	0.02110605
40.3182	-0.04875081	-0.4490258	0.00126662	-0.001132913	0.03396101	-0.03037602
40.33477	-0.04875081	-0.4490258	0	0	-0.03395754	0.03037292
40.3578	-0.04875081	-0.4490727	0	-0.002036918	0	-0.05143685
40.4122	-0.04875081	-0.4490727	0	0	0	0.02630763
40.43266	-0.04882957	-0.4491431	-0.003848366	-0.003438083	-0.05140515	-0.04592472
40.44923	-0.04882957	-0.4491431	0	0	0.103917	0.09283815
40.47289	-0.04882957	-0.44919	0	-0.001984307	0	-0.04933367
40.48975	-0.04882957	-0.44919	0	0	0	0.0489714
40.5133	-0.04885583	-0.4492135	-0.001114806	-0.0009958596	-0.02758279	-0.02463979
40.52995	-0.04885583	-0.4492135	0	0	0.02773462	0.02477542
40.55064	-0.04893459	-0.4492839	-0.003804922	-0.003400871	-0.1018937	-0.09107344
40.56739	-0.04893459	-0.4492839	0	0	0.1016134	0.09082293
40.58952	-0.0490921	-0.4494246	-0.007116855	-0.006359607	-0.1830495	-0.1635727
40.60609	-0.0490921	-0.4494246	0	0	0.1838976	0.1643305
40.62754	-0.04940713	-0.4497532	-0.01468647	-0.01531656	-0.3863105	-0.4028842
40.64411	-0.04940713	-0.4497532	0	0	0.3863105	0.4028842
40.6646	-0.05069337	-0.4509037	-0.0627665	-0.0561418	-1.693655	-1.514898
40.68117	-0.05069337	-0.4509037	0	0	1.693655	1.514898
40.71412	-0.05121832	-0.4513735	-0.01592919	-0.01425765	-0.3216563	-0.2879031
40.7312	-0.05121832	-0.4513735	0	0	0.3183459	0.28494
40.75282	-0.05121832	-0.4513735	0	0	0	0
40.7743	-0.05121832	-0.4513735	0	0	0	0
40.79529	-0.05119208	-0.451397	0.001250611	-0.001120331	0.02944495	-0.02637759
40.81378	-0.05119208	-0.451397	0	0	-0.03167843	0.0283784
40.83612	-0.05119208	-0.451397	0	0	0	0
40.85268	-0.05119208	-0.451397	0	0	0	0
40.87312	-0.05119208	-0.451397	0	0	0	0
40.89288	-0.05119208	-0.451397	0	0	0	0
40.91771	-0.05119208	-0.451397	0	0	0	0
40.93428	-0.05119208	-0.451397	0	0	0	0
40.95604	-0.05121832	-0.4514205	-0.001206322	-0.001079286	-0.03147507	-0.02816049
40.97261	-0.05121832	-0.4514205	0	0	0.03147507	0.02816049
40.99249	-0.05119208	-0.451444	0.001319942	-0.001180942	0.03620918	-0.03239607
41.00906	-0.05119208	-0.451444	0	0	-0.03620918	0.03239607
41.02578	-0.05119208	-0.451444	0	0	0	0
41.04776	-0.05116583	-0.4514675	0.00119401	-0.001069778	0.03084984	-0.02764005
41.06433	-0.05116583	-0.4514675	0	0	-0.03097501	0.0277522
41.08627	-0.05113958	-0.451491	0.001196463	-0.001070466	0.03107248	-0.0278003
41.10284	-0.05113958	-0.451491	0	0	-0.03107248	0.0278003
41.1264	-0.05111334	-0.4515145	0.00111361	-0.000997744	0.027747	-0.02486005
41.14476	-0.05111334	-0.4515145	0	0	-0.02656047	0.02379698
41.16739	-0.05108709	-0.451538	0.001159956	-0.001037803	0.02829926	-0.02531912
41.1848	-0.05108709	-0.451538	0	0	-0.02897061	0.02591977
41.2062	-0.05108709	-0.451585	0	-0.002196917	0	-0.05661706
41.22276	-0.05108709	-0.451585	0	0	0	0.05787445
41.2449	-0.05108709	-0.451585	0	0	0	0
41.26146	-0.05108709	-0.451585	0	0	0	0
41.28248	-0.05106084	-0.4516085	0.001248795	-0.001118705	0.03322481	-0.0297637
41.29965	-0.05106084	-0.4516085	0	0	-0.03270044	0.02929395
41.32315	-0.05100835	-0.4516555	0.002233524	-0.001999726	0.05491512	-0.04916678
41.33972	-0.05100835	-0.4516555	0	0	-0.05574114	0.04990634
41.36079	-0.0509821	-0.451679	0.001246081	-0.001116274	0.03311228	-0.02966289
41.37735	-0.0509821	-0.451679	0	0	-0.03311228	0.02966289
41.39655	-0.0509821	-0.451726	0	-0.002448879	0	-0.06848294
41.41311	-0.0509821	-0.451726	0	0	0	0.06848294
41.43162	-0.0509821	-0.451726	0	0	0	0
41.45712	-0.05092961	-0.451773	0.002058759	-0.001843254	0.04678322	-0.0418861
41.47457	-0.05092961	-0.451773	0	0	-0.0479342	0.04291661
41.49595	-0.05090336	-0.4518435	0.001227848	-0.003298425	0.03162127	-0.08494571
41.51252	-0.05090336	-0.4518435	0	0	-0.0323588	0.08692694
41.53331	-0.05090336	-0.4518435	0	0	0	0
41.55536	-0.05090336	-0.4518435	0	0	0	0
41.58253	-0.05090336	-0.4518435	0	0	0	0
41.60017	-0.05090336	-0.4518435	0	0	0	0
41.62756	-0.05090336	-0.4518435	0	0	0	0
41.64421	-0.05090336	-0.4518435	0	0	0	0
41.66455	-0.05090336	-0.4518435	0	0	0	0
41.68449	-0.05090336	-0.4518435	0	0	0	0
41.70891	-0.05090336	-0.4518435	0	0	0	0
41.72548	-0.05090336	-0.4518435	0	0	0	0
41.74931	-0.05090336	-0.4518435	0	0	0	0
41.76587	-0.05090336	-0.4518435	0	0	0	0
41.79033	-0.05090336	-0.4518435	0	0	0	0
41.81078	-0.05090336	-0.4518435	0	0	0	0
41.83464	-0.05090336	-0.4518435	0	0	0	0
41.85121	-0.05090336	-0.4518435	0	0	0	0
41.87681	-0.05087711	-0.451867	0.001025463	-0.0009186383	0.02432091	-0.02178734
41.89387	-0.05087711	-0.451867	0	0	-0.02403819	0.02153407
41.91369	-0.05087711	-0.451867	0	0	0	0
41.9304	-0.05087711	-0.451867	0	0	0	0
41.94959	-0.05087711	-0.451867	0	0	0	0
41.97161	-0.05087711	-0.451867	0	0	0	0
41.98908	-0.05087711	-0.451867	0	0	0	0
42.01413	-0.05087711	-0.451867	0	0	0	0
42.03108	-0.05087711	-0.451867	0	0	0	0
42.0513	-0.05087711	-0.451867	0	0	0	0
42.06799	-0.05087711	-0.451867	0	0	0	0
42.08831	-0.05087711	-0.451867	0	0	0	0
42.10502	-0.05087711	-0.451867	0	0	0	0
42.13258	-0.05087711	-0.451867	0	0	0	0
42.1495	-0.05087711	-0.451867	0	0	0	0
42.17144	-0.05090336	-0.4518905	-0.001196463	-0.001070466	-0.03078579	-0.0275438
42.18801	-0.05090336	-0.4518905	0	0	0.03107248	0.0278003
42.21036	-0.05087711	-0.451914	0.001174208	-0.001051888	0.03016874	-0.02702598
42.22693	-0.05087711	-0.451914	0	0	-0.03016874	0.02702598
42.2474	-0.05087711	-0.451914	0	0	0	0
42.26397	-0.05087711	-0.451914	0	0	0	0
42.28881	-0.05087711	-0.451914	0	0	0	0
42.30537	-0.05087711	-0.451914	0	0	0	0
42.32648	-0.05087711	-0.451914	0	0	0	0
42.34305	-0.05087711	-0.451914	0	0	0	0
42.36665	-0.05087711	-0.451914	0	0	0	0
42.38638	-0.05087711	-0.451914	0	0	0	0
42.40656	-0.05087711	-0.451914	0	0	0	0
42.42324	-0.05087711	-0.451914	0	0	0	0
42.44479	-0.05087711	-0.451914	0	0	0	0
42.46136	-0.05087711	-0.451914	0	0	0	0
42.48399	-0.05087711	-0.451914	0	0	0	0
42.50055	-0.05087711	-0.451914	0	0	0	0
42.52156	-0.05087711	-0.451914	0	0	0	0
42.53812	-0.05087711	-0.451914	0	0	0	0
42.55861	-0.05087711	-0.451914	0	0	0	0
42.57518	-0.05087711	-0.451914	0	0	0	0
42.59591	-0.05087711	-0.451914	0	0	0	0
42.61504	-0.05087711	-0.451914	0	0	0	0
42.63941	-0.05087711	-0.451914	0	0	0	0
42.65598	-0.05087711	-0.451914	0	0	0	0
42.67706	-0.05087711	-0.451914	0	0	0	0
42.69362	-0.05087711	-0.451914	0	0	0	0
42.71574	-0.05087711	-0.451914	0	0	0	0
42.73616	-0.05087711	-0.451914	0	0	0	0
42.76082	-0.05087711	-0.451914	0	0	0	0
42.77851	-0.05087711	-0.451914	0	0	0	0
42.79938	-0.05087711	-0.451914	0	0	0	0
42.81601	-0.05087711	-0.451914	0	0	0	0
42.83684	-0.05090336	-0.4519376	-0.001259769	-0.001128536	-0.033626	-0.03012309
42.85452	-0.05090336	-0.4519376	0	0	0.03270684	0.02929968
42.87659	-0.05090336	-0.4519376	0	0	0	0
42.89356	-0.05090336	-0.4519376	0	0	0	0
42.9136	-0.05087711	-0.451961	0.001309891	-0.001171949	0.03539272	-0.03166558
42.93016	-0.05087711	-0.451961	0	0	-0.03578367	0.03201537
42.95173	-0.05087711	-0.451961	0	0	0	0
42.9683	-0.05087711	-0.451961	0	0	0	0
42.98844	-0.05087711	-0.451961	0	0	0	0
43.005	-0.05087711	-0.451961	0	0	0	0
43.02814	-0.05087711	-0.451961	0	0	0	0
43.04471	-0.05087711	-0.451961	0	0	0	0
43.06697	-0.05087711	-0.451961	0	0	0	0
43.08354	-0.05087711	-0.451961	0	0	0	0
43.10742	-0.05087711	-0.451961	0	0	0	0
43.12731	-0.05087711	-0.451961	0	0	0	0
43.15121	-0.05087711	-0.451961	0	0	0	0
43.1782	-0.05087711	-0.451961	0	0	0	0
43.20011	-0.05090336	-0.4519846	-0.00119813	-0.001073317	-0.02450133	-0.02194896
43.22032	-0.05090336	-0.4519846	0	0	0.02844951	0.02548585
43.24404	-0.05090336	-0.4519846	0	0	0	0
43.26198	-0.05090336	-0.4519846	0	0	0	0
43.28267	-0.05090336	-0.4519846	0	0	0	0
43.29935	-0.05090336	-0.4519846	0	0	0	0
43.31972	-0.05090336	-0.4519846	0	0	0	0
43.33638	-0.05090336	-0.4519846	0	0	0	0
43.35612	-0.05090336	-0.4519846	0	0	0	0
43.3731	-0.05090336	-0.4519846	0	0	0	0
43.38992	-0.05090336	-0.4519846	0	0	0	0
43.40967	-0.05090336	-0.4519846	0	0	0	0
43.42624	-0.05090336	-0.4519846	0	0	0	0
43.44338	-0.05090336	-0.4519846	0	0	0	0
43.46333	-0.05090336	-0.4520316	0	-0.002357645	0	-0.063565
43.48019	-0.05090336	-0.4520316	0	0	0	0.06405249
43.49676	-0.05090336	-0.4520316	0	0	0	0
43.51617	-0.05127082	-0.4524077	-0.0189285	-0.01937697	-0.5260807	-0.5385449
43.53274	-0.05127082	-0.4524077	0	0	0.5260807	0.5385449
43.5493	-0.05127082	-0.4524077	0	0	0	0
43.57082	-0.05155953	-0.4526664	-0.01341908	-0.01202211	-0.3523721	-0.315689
43.58739	-0.05155953	-0.4526664	0	0	0.3523721	0.315689
43.60763	-0.05179574	-0.452784	-0.01166778	-0.005808955	-0.3169573	-0.1578013
43.62718	-0.05179574	-0.452784	0	0	0.2931977	0.1459723
43.6482	-0.05389512	-0.4544784	-0.09986242	-0.08059875	-2.461295	-1.986506
43.66477	-0.05389512	-0.4544784	0	0	2.65662	2.144152
43.68737	-0.07561869	-0.473897	-0.9612936	-0.8592932	-24.5444	-21.94006
43.70598	-0.07561869	-0.473897	0	0	23.32877	20.85341
43.72762	-0.1156656	-0.510681	-1.850205	-1.699456	-45.96476	-42.21968
43.74419	-0.1156656	-0.510681	0	0	48.4197	44.4746
43.76459	-0.1608355	-0.5542021	-2.214101	-2.133286	-59.892	-57.70592
43.78286	-0.1608355	-0.5542021	0	0	57.25127	55.16158
43.80576	-0.2022996	-0.5962394	-1.811293	-1.836332	-44.00143	-44.60971
43.82232	-0.2022996	-0.5962394	0	0	45.90289	46.53745
43.84517	-0.2342258	-0.6299543	-1.397438	-1.475729	-35.45587	-37.44227
43.86481	-0.2342258	-0.6299543	0	0	32.88716	34.72964
43.88672	-0.2572499	-0.6554542	-1.051137	-1.164166	-25.29832	-28.01865
43.90331	-0.2572499	-0.6554542	0	0	27.30914	30.2457
43.92367	-0.2732039	-0.6736748	-0.7833396	-0.8946286	-21.19828	-24.20992
43.94024	-0.2732039	-0.6736748	0	0	21.20923	24.22243
43.96948	-0.2838103	-0.6858882	-0.3627395	-0.4177002	-7.918887	-9.11872
43.98637	-0.2838103	-0.6858882	0	0	7.863226	9.054626
44.00731	-0.2837618	-0.6857167	0.002317134	0.008186828	0.06125066	0.216409
44.02388	-0.2837618	-0.6857167	0	0	-0.06178019	-0.2182799
44.04502	-0.2839073	-0.6855454	-0.006882273	0.008104254	-0.1824951	0.214898
44.06191	-0.2839073	-0.6855454	0	0	0.1809575	-0.2130874
