Time	Pos X	Pos Y	Vel X	Vel Y	Acc X	Acc Y
0.0165675	0.180907	0.414986	-0.001717551	-0.003939923	1.630918E-05	3.741195E-05
0.04468477	0.1747953	0.3929838	-0.2173645	-0.7825152	0.002047923	0.007393855
0.06125504	0.1356802	0.3110867	-2.360555	-4.942414	-47.95948	-93.08858
0.07781978	0.1356802	0.3110867	0	0	71.24052	149.1599
0.09438808	0.113678	0.2646376	-1.327971	-2.803493	-40.07996	-84.6132
0.1111478	0.106344	0.2511918	-0.4375998	-0.8022655	26.71537	60.04635
0.1275235	0.09412053	0.2255226	-0.7464393	-1.567523	-9.32053	-23.09487
0.1442205	0.08189709	0.1998533	-0.7320748	-1.537358	0.4343329	0.9121032
0.1606565	0.07823005	0.1900746	-0.2231096	-0.5949574	15.36126	28.44291
0.1772217	0.0770077	0.1790735	-0.07379008	-0.6641117	4.524672	-2.095509
0.193788	0.07578536	0.1717394	-0.07378478	-0.4427086	0.0001601141	6.682564
0.2103567	0.07334067	0.163183	-0.1475489	-0.5164214	-2.226169	-2.224618
0.226923	0.07211832	0.1570713	-0.07378522	-0.3689248	2.226155	4.451383
0.2438256	0.07211832	0.1509595	0	-0.3615838	2.204586	0.2193365
0.2600549	0.07089598	0.1485149	-0.07531741	-0.1506348	-2.273262	6.366951
0.2766212	0.07089598	0.1387361	4.49743E-07	-0.5902796	2.29659	-13.40564
0.2933407	0.07089598	0.1289573	-4.456225E-07	-0.5848715	-2.689933E-05	0.1624767
0.309755	0.0660066	0.1118445	-0.2978722	-1.042553	-8.989957	-13.81313
0.3263213	0.06111723	0.0947317	-0.2951396	-1.032989	0.08285479	0.2899931
0.342888	0.05867254	0.07639654	-0.1475662	-1.106747	4.453966	-2.226099
0.3599008	0.05745019	0.0617284	-0.07184915	-0.8621841	2.254859	7.283088
0.3760214	0.0550055	0.0507273	-0.1516495	-0.6824231	-2.408457	5.425368
0.3929225	0.0550055	0.0507273	0	0	4.592419	20.66589
0.4094427	0.0550055	0.0507273	0	0	0	0
0.425722	0.0550055	0.0507273	0	0	0	0
0.4422891	0.0550055	0.0507273	0	0	0	0
0.4588558	0.0550055	0.0507273	0	0	0	0
0.4756318	0.0550055	0.0507273	0	0	0	0
0.4921022	0.0550055	0.0507273	0	0	0	0
0.5085552	0.0550055	0.0507273	0	0	0	0
0.5251219	0.0550055	0.0507273	0	0	0	0
0.541747	0.0550055	0.0507273	0	0	0	0
0.5587053	0.0550055	0.0507273	0	0	0	0
0.5748816	0.0550055	0.0507273	0	0	0	0
0.5916888	0.0550055	0.0507273	0	0	0	0
0.6079574	0.0550055	0.0507273	0	0	0	0
0.6245241	0.0550055	0.0507273	0	0	0	0
0.6410908	0.0550055	0.0507273	0	0	0	0
0.6576575	0.0550055	0.0507273	0	0	0	0
0.6742246	0.0550055	0.0507273	0	0	0	0
0.6908521	0.0550055	0.0507273	0	0	0	0
0.7073569	0.0550055	0.0507273	0	0	0	0
0.7239224	0.0550055	0.0507273	0	0	0	0
1.550322	0.0550055	0.0507273	0	0	0	0
1.579445	0.0550055	0.0507273	0	0	0	0
1.596486	0.0550055	0.0507273	0	0	0	0
1.612784	0.0550055	0.0507273	0	0	0	0
1.629355	0.0550055	0.0507273	0	0	0	0
1.64592	0.0550055	0.0507273	0	0	0	0
1.662486	0.0550055	0.0507273	0	0	0	0
1.679054	0.0550055	0.0507273	0	0	0	0
1.695847	0.0550055	0.0507273	0	0	0	0
1.721449	0.0550055	0.0507273	0	0	0	0
1.743894	0.0550055	0.0507273	0	0	0	0
1.760462	0.0550055	0.0507273	0	0	0	0
1.77703	0.0550055	0.0507273	0	0	0	0
1.793597	0.0550055	0.0507273	0	0	0	0
1.810164	0.0550055	0.0507273	0	0	0	0
1.826732	0.0550055	0.0507273	0	0	0	0
1.843299	0.0550055	0.0507273	0	0	0	0
1.859992	0.0550055	0.0507273	0	0	0	0
1.876431	0.0550055	0.0507273	0	0	0	0
1.892998	0.0550055	0.0507273	0	0	0	0
1.909564	0.0550055	0.0507273	0	0	0	0
1.926407	0.0550055	0.0507273	0	0	0	0
1.942698	0.0550055	0.0507273	0	0	0	0
1.959659	0.0550055	0.0507273	0	0	0	0
1.975831	0.0550055	0.0507273	0	0	0	0
1.992398	0.0550055	0.0507273	0	0	0	0
2.009218	0.0550055	0.0507273	0	0	0	0
2.02568	0.0550055	0.0507273	0	0	0	0
2.042732	0.0550055	0.0507273	0	0	0	0
2.058666	0.0550055	0.0507273	0	0	0	0
2.075233	0.0550055	0.0507273	0	0	0	0
2.091799	0.0550055	0.0507273	0	0	0	0
2.108366	0.0550055	0.0507273	0	0	0	0
2.124934	0.0550055	0.0507273	0	0	0	0
2.1415	0.0550055	0.0507273	0	0	0	0
2.158183	0.0550055	0.0507273	0	0	0	0
2.174633	0.0550055	0.0507273	0	0	0	0
2.191686	0.0550055	0.0507273	0	0	0	0
2.207767	0.0550055	0.0507273	0	0	0	0
2.224648	0.0550055	0.0507273	0	0	0	0
2.241149	0.0550055	0.0507273	0	0	0	0
2.257467	0.0550055	0.0507273	0	0	0	0
2.274155	0.0550055	0.0507273	0	0	0	0
2.290597	0.0550055	0.0507273	0	0	0	0
2.307163	0.0550055	0.0507273	0	0	0	0
2.32373	0.0550055	0.0507273	0	0	0	0
2.340312	0.0550055	0.0507273	0	0	0	0
2.357285	0.0550055	0.0507273	0	0	0	0
2.373856	0.0550055	0.0507273	0	0	0	0
2.390422	0.0550055	0.0507273	0	0	0	0
2.406989	0.0550055	0.0507273	0	0	0	0
2.423556	0.0550055	0.0507273	0	0	0	0
2.440122	0.0550055	0.0507273	0	0	0	0
2.456816	0.0550055	0.0507273	0	0	0	0
2.473255	0.0550055	0.0507273	0	0	0	0
2.489823	0.0550055	0.0507273	0	0	0	0
2.506389	0.0550055	0.0507273	0	0	0	0
2.522956	0.0550055	0.0507273	0	0	0	0
2.539863	0.0550055	0.04950495	0	-0.07229832	0	-2.159853
2.556089	0.05500551	0.04828261	4.591874E-07	-0.07533429	1.38591E-05	-0.09163103
2.572656	0.05500551	0.04828261	0	0	-1.400279E-05	2.297298
2.589222	0.05500551	0.04828261	0	0	0	0
2.605789	0.05500551	0.04828261	0	0	0	0
2.622356	0.05500551	0.04828261	0	0	0	0
2.638981	0.05500551	0.04828261	0	0	0	0
2.655919	0.05500551	0.04828261	0	0	0	0
2.672055	0.05500551	0.04828261	0	0	0	0
2.688622	0.05500551	0.04828261	0	0	0	0
2.705189	0.05500551	0.04828261	0	0	0	0
2.721756	0.05500551	0.04828261	0	0	0	0
2.738322	0.05500551	0.04828261	0	0	0	0
2.75515	0.05500551	0.04828261	0	0	0	0
2.771456	0.05500551	0.04828261	0	0	0	0
2.788022	0.05500551	0.04828261	0	0	0	0
2.804589	0.05500551	0.04828261	0	0	0	0
2.821155	0.05500551	0.04828261	0	0	0	0
2.837722	0.05500551	0.04828261	0	0	0	0
2.854301	0.05500551	0.04828261	0	0	0	0
2.870856	0.05500551	0.04828261	0	0	0	0
2.887422	0.05500551	0.04828261	0	0	0	0
2.90399	0.05500551	0.04828261	0	0	0	0
2.920853	0.05378316	0.04828261	-0.07248764	0	-2.168319	0
2.937123	0.05256081	0.0482826	-0.07512588	-2.289579E-07	-0.0796244	-6.910161E-06
2.953689	0.0440044	0.04828261	-0.5165178	2.248816E-07	-13.44223	1.382132E-05
2.970256	0.03178096	0.0507273	-0.7378192	0.1475638	-6.679275	4.453734
2.986822	0.01589048	0.05317198	-0.9592065	0.1475702	-6.681721	0.0001920365
3.003389	-0.004889378	0.05683902	-1.254293	0.2213458	-8.906041	2.226634
3.019955	-0.0330033	0.0617284	-1.697057	0.2951406	-13.36314	2.22721
3.036522	-0.05256081	0.06417309	-1.180528	0.1475659	15.58957	-4.454004
3.053088	-0.06478426	0.06661778	-0.7378617	0.1475725	13.36036	0.0001992351
3.069656	-0.08067474	0.07150715	-0.9591374	0.2951187	-6.678308	4.45308
3.086222	-0.1038993	0.07639654	-1.401877	0.2951328	-13.362	0.0004254362
3.102789	-0.1222344	0.08128591	-1.106744	0.2951314	8.907381	-4.137524E-05
3.119355	-0.1222344	0.08128591	0	0	33.40305	-8.907468
3.135922	-0.1650165	0.09106467	-2.582367	0.5902556	-77.9388	17.81459
3.152489	-0.2615817	0.1093998	-5.828856	1.106745	-97.98133	15.588
3.169056	-0.2958074	0.1142892	-2.065925	0.2951318	113.5687	-24.49523
3.185829	-0.3153649	0.1167339	-1.165977	0.1457472	26.99286	-4.480615
3.202189	-0.322699	0.1167339	-0.4483055	4.554265E-07	21.66031	-4.398834
3.219056	-0.3239213	0.1167339	-0.07247081	0	11.31138	-1.370683E-05
3.235494	-0.3239213	0.1167339	0	0	2.175947	0
3.252172	-0.3239213	0.1167339	0	0	0	0
3.268456	-0.3239213	0.1167339	0	0	0	0
3.285378	-0.3239213	0.1167339	0	0	0	0
3.301589	-0.3239213	0.1167339	0	0	0	0
3.318155	-0.3190319	0.1142892	0.2951417	-0.1475704	9.004582	-4.502277
3.334721	-0.3116979	0.1118445	0.4427144	-0.1475725	4.454041	-6.431383E-05
3.351288	-0.2884733	0.1020658	1.40192	-0.5902807	28.95075	-13.36182
3.367855	-0.2505806	0.09106467	2.287173	-0.6640179	26.71757	-2.225441
3.384422	-0.2053539	0.07884122	2.729931	-0.7378197	13.36245	-2.227343
3.40128	-0.1405696	0.06784012	3.84286	-0.652561	33.296	2.55072
3.417555	-0.04889378	0.04706027	5.633032	-1.27682	54.02981	-18.841
3.434122	-0.003667034	0.03728151	2.72997	-0.5902641	-88.39628	20.90518
3.450689	0.03178096	0.02750275	2.139614	-0.5902385	-17.81711	0.0007753193
3.467412	0.05622785	0.02016868	1.4619	-0.43857	-20.35779	4.555957
3.483825	0.07823005	0.01283462	1.340557	-0.4468522	-3.662059	-0.2499523
3.50039	0.08189709	0.01038993	0.2213717	-0.1475808	-33.9375	9.074932
3.516958	0.08923115	0.007945239	0.4426657	-0.1475554	6.678953	0.0007659027
3.533524	0.08923114	0.006722895	-4.497438E-07	-0.07378506	-13.35979	2.22641
3.550091	0.08923114	0.006722895	0	0	1.357378E-05	2.226918
3.566658	0.08923114	0.006722895	0	0	0	0
3.583225	0.09045349	0.006722894	0.0737833	-5.621636E-08	2.226849	-1.696662E-06
3.599789	0.09045349	0.006722894	0	0	-2.227009	1.696784E-06
3.616355	0.09167584	0.006722894	0.07378542	2.810899E-08	2.227105	8.484287E-07
3.633367	0.09289818	0.006722894	0.07185183	0	-0.05758474	-8.371213E-07
3.649489	0.09900991	0.00550055	0.379096	-0.07581903	9.272846	-2.288272
3.666215	0.1014546	0.004278206	0.1461627	-0.07308148	-7.091325	0.08334089
3.682622	0.1038993	0.004278206	0.1489964	0	0.08552352	2.205667
3.699342	0.1038993	0.004278206	0	0	-4.497755	0
3.716151	0.1038993	0.004278206	0	0	0	0
3.732323	0.1038993	0.004278206	0	0	0	0
3.748934	0.1038993	0.004278206	0	0	0	0
3.76546	0.1038993	0.004278206	0	0	0	0
3.782023	0.1038993	0.004278206	0	0	0	0
3.798589	0.1038993	0.004278206	0	0	0	0
3.815156	0.1038993	0.004278206	0	0	0	0
3.831723	0.1038993	0.004278206	0	0	0	0
3.84829	0.1038993	0.004278206	0	0	0	0
3.864856	0.1038993	0.004278206	0	0	0	0
3.881423	0.1038993	0.004278206	0	0	0	0
3.897989	0.1038993	0.004278206	0	0	0	0
3.914556	0.1038993	0.004278206	0	0	0	0
3.931329	0.1038993	0.004278206	0	0	0	0
3.947689	0.1038993	0.004278206	0	0	0	0
3.965172	0.1038993	0.004278206	0	0	0	0
3.981742	0.1038993	0.004278206	0	0	0	0
3.99841	0.1038993	0.004278206	0	0	0	0
4.014875	0.1038993	0.004278206	0	0	0	0
4.031442	0.1038993	0.004278206	0	0	0	0
4.048008	0.1038993	0.004278206	0	0	0	0
4.064575	0.1038993	0.004278206	0	0	0	0
4.081219	0.1038993	0.004278206	0	0	0	0
4.09771	0.1038993	0.004278206	0	0	0	0
4.114524	0.1038993	0.004278206	0	0	0	0
4.130842	0.1038993	0.004278206	0	0	0	0
4.147408	0.1014546	0.004278206	-0.1475704	0	-4.487588	0
4.163976	0.09778755	0.004278205	-0.2213367	-2.810656E-08	-2.226304	-8.4827E-07
4.180711	0.09289818	0.00550055	-0.2921629	0.07304087	-2.126736	2.193237
4.197109	0.08434176	0.00550055	-0.521798	0	-6.930698	-2.204473
4.213679	0.07945239	0.00550055	-0.2950724	2.810252E-08	6.877131	8.524169E-07
4.230374	0.0770077	0.006722895	-0.1464319	0.07321611	4.468359	2.200987
4.246812	0.07578536	0.006722895	-0.07436289	0	2.175174	-2.209794
4.263378	0.07578536	0.006722895	0	0	2.253161	0
4.279943	0.07456302	0.006722894	-0.07378922	-2.811061E-08	-2.227155	-8.484531E-07
4.296618	0.07334067	0.007945239	-0.07330435	0.07330401	0.01458677	2.205275
4.313244	0.07211833	0.00794524	-0.07352045	5.601643E-08	-0.006489441	-2.201262
4.329646	0.07211833	0.00794524	0	0	2.226027	-1.696047E-06
4.346485	0.07211833	0.00794524	0	0	0	0
4.362776	0.07089598	0.00794524	-0.0750311	0	-2.264769	0
4.379342	0.06967364	0.009167583	-0.07378755	0.07378715	0.03784753	2.24571
4.396132	0.06722895	0.01038993	-0.1455961	0.07279827	-2.152749	-0.02964582
4.412476	0.06356191	0.01161227	-0.2243784	0.07479254	-2.377688	0.06018819
4.429041	0.06233957	0.01161227	-0.07378877	5.622121E-08	4.576017	-2.272745
4.445707	0.06111723	0.01283462	-0.07334188	0.07334182	0.01344779	2.20698
4.462178	0.05989488	0.01283462	-0.07421264	-5.654348E-08	-0.02627745	-2.213271
4.478745	0.05867254	0.01283462	-0.07378072	0	0.0130733	1.711461E-06
4.495311	0.0550055	0.01405696	-0.2213681	0.07378939	-4.454453	2.227096
4.511878	0.05256081	0.01527931	-0.1475576	0.07377866	2.2277	-0.0003238109
4.528446	0.05133847	0.01527931	-0.0737786	1.124262E-07	2.226592	-2.226577
4.545074	0.05133847	0.01527931	0	0	2.22258	-3.386841E-06
4.562188	0.05133847	0.01527931	0	0	0	0
4.578143	0.05133847	0.01527931	0	0	0	0
4.594763	0.05133847	0.01527931	0	0	0	0
4.611276	0.05133847	0.01527931	0	0	0	0
4.627839	0.04889378	0.01527931	-0.1476001	-1.124586E-07	-4.462415	-3.399977E-06
4.644409	0.04767144	0.01527931	-0.07376776	1.124101E-07	2.228362	6.786843E-06
4.660975	0.04767144	0.01527931	0	0	2.226251	-3.392445E-06
4.677542	0.04767144	0.01527931	0	0	0	0
4.694109	0.04767144	0.01527931	0	0	0	0
4.710678	0.04767144	0.01527931	0	0	0	0
4.727243	0.04767144	0.01527931	0	0	0	0
4.744007	0.04767144	0.01527931	0	0	0	0
4.760478	0.04767144	0.01527931	0	0	0	0
4.77729	0.04767144	0.01527931	0	0	0	0
4.79351	0.04767144	0.01527931	0	0	0	0
4.810821	0.04644909	0.01405696	-0.07061055	-0.07061055	-2.105847	-2.105847
4.826643	0.04644909	0.01405696	0	0	2.131092	2.131092
4.843209	0.04644909	0.01405696	0	0	0	0
4.859776	0.04644909	0.01405696	0	0	0	0
4.87676	0.04644909	0.01405696	0	0	0	0
4.893754	0.04644909	0.01405696	0	0	0	0
4.909475	0.04644909	0.01405696	0	0	0	0
4.926065	0.04522675	0.01405696	-0.07367704	5.613557E-08	-2.280249	1.737354E-06
4.942626	0.0440044	0.01283462	-0.07381259	-0.0738127	-0.004088859	-2.226584
4.959321	0.04278206	0.01283462	-0.07321201	-5.578126E-08	0.01805916	2.219525
4.97574	0.04155971	0.01161227	-0.0744495	-0.07444945	-0.03737009	-2.248246
4.992308	0.03911502	0.01161227	-0.1475574	0	-2.216321	2.25699
5.008875	0.03911502	0.01161227	0	0	4.453164	0
5.025863	0.03911502	0.01161227	0	0	0	0
5.04214	0.03911502	0.01161227	0	0	0	0
5.058964	0.03911502	0.01161227	0	0	0	0
5.075143	0.03911502	0.01161227	0	0	0	0
5.09171	0.03911502	0.01161227	0	0	0	0
5.108277	0.03911502	0.01161227	0	0	0	0
5.124844	0.03911502	0.01161227	0	0	0	0
5.14141	0.03911502	0.01161227	0	0	0	0
5.157997	0.03911502	0.01161227	0	0	0	0
5.174543	0.03911502	0.01161227	0	0	0	0
5.191117	0.03911502	0.01161227	0	0	0	0
5.210813	0.03911502	0.01161227	0	0	0	0
5.227384	0.03911502	0.01161227	0	0	0	0
5.244154	0.03911502	0.01161227	0	0	0	0
5.260513	0.03911502	0.01161227	0	0	0	0
5.277482	0.03911502	0.01161227	0	0	0	0
5.29365	0.03911502	0.01161227	0	0	0	0
5.310716	0.03911502	0.01161227	0	0	0	0
5.326784	0.03911502	0.01161227	0	0	0	0
5.343349	0.03911502	0.01161227	0	0	0	0
5.359917	0.03911502	0.01161227	0	0	0	0
5.376753	0.03911502	0.01161227	0	0	0	0
5.393052	0.03911502	0.01161227	0	0	0	0
5.409618	0.03911502	0.01161227	0	0	0	0
5.426186	0.03911502	0.01161227	0	0	0	0
5.442752	0.03911502	0.01161227	0	0	0	0
5.459682	0.03911502	0.01161227	0	0	0	0
5.475882	0.03911502	0.01161227	0	0	0	0
5.492452	0.03911502	0.01161227	0	0	0	0
5.509019	0.03911502	0.01161227	0	0	0	0
5.525772	0.03911502	0.01161227	0	0	0	0
5.542152	0.03911502	0.01161227	0	0	0	0
5.558719	0.03911502	0.01161227	0	0	0	0
5.575285	0.03911502	0.01161227	0	0	0	0
5.591852	0.03911502	0.01161227	0	0	0	0
5.608418	0.03911502	0.01161227	0	0	0	0
5.625587	0.03911502	0.01161227	0	0	0	0
5.64155	0.03911502	0.01161227	0	0	0	0
5.658117	0.03911502	0.01161227	0	0	0	0
5.674685	0.03911502	0.01161227	0	0	0	0
5.691284	0.03911502	0.01161227	0	0	0	0
5.707817	0.03911502	0.01161227	0	0	0	0
5.724621	0.03911502	0.01161227	0	0	0	0
5.741411	0.03911502	0.01161227	0	0	0	0
5.757518	0.03911502	0.01161227	0	0	0	0
5.774084	0.03911502	0.01161227	0	0	0	0
5.791065	0.03911502	0.01161227	0	0	0	0
5.807217	0.03911502	0.01161227	0	0	0	0
5.824021	0.03911502	0.01161227	0	0	0	0
5.841141	0.03911502	0.01161227	0	0	0	0
5.85694	0.03911502	0.01161227	0	0	0	0
5.873484	0.03911502	0.01161227	0	0	0	0
5.89005	0.03911502	0.01161227	0	0	0	0
5.906617	0.03911502	0.01161227	0	0	0	0
5.923196	0.03911502	0.01161227	0	0	0	0
5.939751	0.03911502	0.01161227	0	0	0	0
5.956317	0.03911502	0.01161227	0	0	0	0
5.972884	0.03911502	0.01161227	0	0	0	0
5.989702	0.03911502	0.01161227	0	0	0	0
6.006359	0.03911502	0.01161227	0	0	0	0
6.022584	0.03911502	0.01161227	0	0	0	0
6.039151	0.03911502	0.01161227	0	0	0	0
6.055717	0.03911502	0.01161227	0	0	0	0
6.072284	0.03911502	0.01161227	0	0	0	0
6.089118	0.03911502	0.01161227	0	0	0	0
6.105422	0.03911502	0.01161227	0	0	0	0
6.121987	0.03911502	0.01161227	0	0	0	0
6.138554	0.03911502	0.01161227	0	0	0	0
6.15575	0.03911502	0.01161227	0	0	0	0
6.171685	0.03911502	0.01161227	0	0	0	0
6.188251	0.03911502	0.01161227	0	0	0	0
6.205103	0.03911502	0.01161227	0	0	0	0
6.221385	0.03911502	0.01161227	0	0	0	0
6.238164	0.03911502	0.01161227	0	0	0	0
6.254662	0.03911502	0.01161227	0	0	0	0
6.271084	0.03911502	0.01161227	0	0	0	0
6.28765	0.03911502	0.01161227	0	0	0	0
6.304217	0.03911502	0.01161227	0	0	0	0
6.320783	0.03911502	0.01161227	0	0	0	0
6.337349	0.03911502	0.01161227	0	0	0	0
6.354557	0.03911502	0.01161227	0	0	0	0
6.370483	0.03911502	0.01161227	0	0	0	0
6.38705	0.03911502	0.01161227	0	0	0	0
6.403884	0.03911502	0.01161227	0	0	0	0
6.420184	0.03911502	0.01161227	0	0	0	0
6.436749	0.03911502	0.01161227	0	0	0	0
6.453317	0.03911502	0.01161227	0	0	0	0
6.469957	0.03911502	0.01161227	0	0	0	0
6.486449	0.03911502	0.01161227	0	0	0	0
6.503018	0.03911502	0.01161227	0	0	0	0
6.519584	0.03911502	0.01161227	0	0	0	0
6.53615	0.03911502	0.01161227	0	0	0	0
6.552878	0.03911502	0.01161227	0	0	0	0
6.569279	0.03911502	0.01161227	0	0	0	0
6.585892	0.03911502	0.01161227	0	0	0	0
6.602416	0.03911502	0.01161227	0	0	0	0
6.618982	0.03911502	0.01161227	0	0	0	0
6.635547	0.03911502	0.01161227	0	0	0	0
6.652115	0.03911502	0.01161227	0	0	0	0
6.668837	0.03911502	0.01161227	0	0	0	0
6.685249	0.03911502	0.01161227	0	0	0	0
6.701816	0.03911502	0.01161227	0	0	0	0
6.718641	0.03911502	0.01161227	0	0	0	0
6.73495	0.03911502	0.01161227	0	0	0	0
6.751557	0.03911502	0.01161227	0	0	0	0
6.768234	0.03911502	0.01161227	0	0	0	0
6.785114	0.03911502	0.01161227	0	0	0	0
6.801638	0.03911502	0.01161227	0	0	0	0
6.817782	0.03911502	0.01161227	0	0	0	0
6.834347	0.03911502	0.01161227	0	0	0	0
6.850914	0.03911502	0.01161227	0	0	0	0
6.867653	0.03911502	0.01161227	0	0	0	0
6.884047	0.03911502	0.01161227	0	0	0	0
6.900615	0.03911502	0.01161227	0	0	0	0
6.917207	0.03911502	0.01161227	0	0	0	0
6.933747	0.03911502	0.01161227	0	0	0	0
6.950314	0.03911502	0.01161227	0	0	0	0
6.96688	0.03911502	0.01161227	0	0	0	0
6.983767	0.03911502	0.01161227	0	0	0	0
7.000276	0.03911502	0.01161227	0	0	0	0
7.01658	0.03911502	0.01161227	0	0	0	0
7.033295	0.04278206	0.01038993	0.2193852	-0.0731283	6.644101	-2.214697
7.050309	0.04889378	0.00794524	0.3592167	-0.1436867	4.145726	-2.091916
7.066281	0.05378316	0.00794524	0.3061285	0	-1.609432	4.356031
7.082847	0.05622785	0.006722894	0.1475702	-0.07378514	-4.873029	-2.267665
7.099414	0.05622785	0.006722894	0	0	-4.453869	2.226936
7.115979	0.05622785	0.006722894	0	0	0	0
7.132547	0.05622785	0.006722894	0	0	0	0
7.149412	0.05622785	0.006722894	0	0	0	0
7.165681	0.05622785	0.006722894	0	0	0	0
7.182457	0.05622785	0.006722894	0	0	0	0
7.198962	0.05622785	0.006722894	0	0	0	0
7.215459	0.05622785	0.006722894	0	0	0	0
7.232985	0.05011613	0.01283462	-0.3487202	0.3487202	-10.2496	10.2496
7.249557	-0.004889378	0.08984232	-3.319088	4.646723	-87.11106	126.0462
7.26612	-0.02322455	0.1142892	-1.107	1.475999	66.75903	-95.68988
7.282687	-0.03911502	0.1350691	-0.9591787	1.25431	4.461887	-6.691557
7.299515	-0.0770077	0.1839629	-2.251756	2.905492	-38.70592	49.44426
7.315822	-0.09167583	0.205965	-0.899532	1.349298	40.81019	-46.96604
7.332387	-0.1026769	0.2255225	-0.6640857	1.180595	7.162476	-5.132071
7.348955	-0.1173451	0.2475248	-0.8853446	1.328018	-6.677798	4.449368
7.36552	-0.1307909	0.2658599	-0.8116828	1.10684	2.223214	-6.675462
7.382088	-0.1430143	0.2805281	-0.7378091	0.8853705	2.229641	-6.684352
7.398654	-0.1552378	0.2915291	-0.7378515	0.6640648	-0.001280834	-6.679213
7.41522	-0.1662389	0.2988632	-0.6640657	0.4427116	2.226989	-6.680836
7.43184	-0.17724	0.3074197	-0.6619127	0.5148221	0.06487349	2.172891
7.448355	-0.1919081	0.3159761	-0.8881825	0.5181054	-6.828737	0.09908763
7.465372	-0.2102433	0.3245324	-1.077469	0.5028179	-5.644996	-0.4559111
7.481488	-0.2249114	0.3318665	-0.9101788	0.4550903	5.049109	-1.440505
7.498054	-0.2273561	0.3330889	-0.1475699	0.07378497	23.33426	-11.66716
7.514621	-0.2273561	0.3330889	0	0	4.453862	-2.226931
7.531189	-0.2273561	0.3330889	0	0	0	0
7.547754	-0.2273561	0.3330889	0	0	0	0
7.564364	-0.2273561	0.3330889	0	0	0	0
7.580892	-0.2273561	0.3330889	0	0	0	0
7.597455	-0.2273561	0.3330889	0	0	0	0
7.614098	-0.2273561	0.3330889	0	0	0	0
7.630911	-0.223689	0.3281995	0.2181039	-0.2908058	6.519156	-8.692225
7.647153	-0.2102433	0.3147537	0.8278145	-0.8278136	18.4449	-16.2455
7.663859	-0.184574	0.2939739	1.53653	-1.243856	21.50979	-12.62706
7.680288	-0.1515707	0.2658599	2.00885	-1.711244	14.25444	-14.10558
7.697104	-0.09289818	0.2194108	3.489161	-2.762252	44.52785	-31.6144
7.713937	-0.05256081	0.1912969	2.396351	-1.670184	-32.47723	32.45519
7.72999	-0.01711282	0.1619606	2.208158	-1.827442	-5.722592	-4.78191
7.746597	0.01344579	0.1362914	1.840125	-1.545704	-11.26859	8.62637
7.763275	0.03422564	0.1204009	1.245955	-0.95279	-17.85118	17.81344
7.77969	0.04767143	0.1106222	0.8191102	-0.5957158	-12.89834	10.79003
7.796259	0.05622785	0.1032881	0.5164067	-0.4426343	-9.17721	4.641047
7.812881	0.05989488	0.09962107	0.2206187	-0.2206187	-8.911766	6.689084
7.829389	0.06233957	0.09717638	0.14809	-0.1480904	-2.189238	2.189224
7.845959	0.06356192	0.09717639	0.07376844	4.496403E-07	-2.246844	4.476994
7.86277	0.06356192	0.09717639	0	0	-2.209894	-1.346995E-05
7.879091	0.06356192	0.09595405	0	-0.07489081	0	-2.260339
7.895661	0.06356192	0.09595405	0	0	0	2.276887
7.912225	0.06478426	0.0947317	0.07379772	-0.07379816	2.227284	-2.227297
7.92879	0.06722895	0.09228701	0.1475789	-0.1475784	2.227105	-2.227077
7.945395	0.06967364	0.08739763	0.1472267	-0.2944538	-0.01061807	-4.427929
7.961925	0.07211832	0.08128591	0.1478977	-0.3697453	0.02025215	-2.2723
7.978491	0.07578536	0.07639653	0.2213558	-0.2951403	2.219556	2.254209
7.995057	0.0794524	0.06906246	0.2213554	-0.4427107	-1.349231E-05	-4.45394
8.011626	0.08067474	0.06661778	0.07377223	-0.1475445	-4.453939	8.907879
8.029215	0.08189708	0.0617284	0.06949621	-0.2779855	-0.1251843	-3.818783
8.044755	0.08311942	0.05683902	0.07865718	-0.3146294	0.2765262	-1.106107
8.061321	0.08556412	0.05439433	0.1475708	-0.1475702	2.146415	5.203301
8.077957	0.08556412	0.04950495	0	-0.2939052	-4.444614	-4.407394
8.094455	0.08800881	0.04583792	0.1481842	-0.2222767	4.472335	2.161816
8.111046	0.0880088	0.04461557	-4.490717E-07	-0.07367515	-4.478407	4.491008
8.12759	0.08800881	0.04217089	4.503401E-07	-0.1477656	2.714352E-05	-2.23599
8.144155	0.08800881	0.04094854	0	-0.07379347	-1.360186E-05	2.234219
8.160724	0.08800881	0.0397262	0	-0.07377245	0	0.0006343454
8.17729	0.0880088	0.03728151	-4.497438E-07	-0.1475704	-1.357291E-05	-2.227162
8.193856	0.0880088	0.03361448	0	-0.2213551	1.357408E-05	-2.226956
8.210423	0.0880088	0.03116978	0	-0.1475619	0	2.227149
8.22699	0.08800881	0.02750275	4.497438E-07	-0.2213553	1.357369E-05	-2.227152
8.243559	0.08800881	0.02505806	0	-0.1475447	-1.357291E-05	2.227544
8.260448	0.08800881	0.02383572	0	-0.07237271	0	2.246709
8.276687	0.08800881	0.02383572	0	0	0	2.184653
8.293253	0.08800881	0.02383572	0	0	0	0
8.309821	0.08800881	0.02383572	0	0	0	0
8.326645	0.08800881	0.02383572	0	0	0	0
8.342954	0.08678646	0.02261337	-0.07494993	-0.07495016	-2.262124	-2.26213
8.3599	0.08678646	0.02139103	0	-0.07212835	2.253755	0.08485225
8.376087	0.08556411	0.02139103	-0.07551562	0	-2.279132	2.176901
8.392656	0.08556411	0.02139103	0	0	2.305408	0
8.409223	0.08434177	0.02016868	-0.07378497	-0.07378508	-2.226771	-2.226774
8.425942	0.08434177	0.02016868	0	0	2.216691	2.216694
8.442355	0.08434177	0.02016868	0	0	0	0
8.458956	0.08434177	0.02016868	0	0	0	0
8.475489	0.08434177	0.02016868	0	0	0	0
8.492055	0.08434177	0.02016868	0	0	0	0
8.508946	0.08434177	0.02016868	0	0	0	0
8.525187	0.08434177	0.02016868	0	0	0	0
8.541755	0.08434177	0.02016868	0	0	0	0
8.558483	0.08434177	0.02016868	0	0	0	0
8.574888	0.08434177	0.02016868	0	0	0	0
8.591456	0.08434177	0.02016868	0	0	0	0
8.608023	0.08434177	0.02016868	0	0	0	0
8.624654	0.08434177	0.02016868	0	0	0	0
8.641157	0.08434177	0.02016868	0	0	0	0
8.657723	0.08434177	0.02016868	0	0	0	0
8.67429	0.08434177	0.02016868	0	0	0	0
8.690857	0.08434177	0.02016868	0	0	0	0
8.707423	0.08434177	0.02016868	0	0	0	0
8.72399	0.08434177	0.02016868	0	0	0	0
8.740646	0.08434177	0.02016868	0	0	0	0
8.757313	0.08434177	0.02016868	0	0	0	0
8.773982	0.08434177	0.02016868	0	0	0	0
8.790258	0.08434177	0.02016868	0	0	0	0
8.80687	0.08434177	0.02016868	0	0	0	0
8.823392	0.08434177	0.02016868	0	0	0	0
8.839957	0.08434177	0.02016868	0	0	0	0
8.856524	0.08434177	0.02016868	0	0	0	0
8.873092	0.08434177	0.02016868	0	0	0	0
8.889657	0.08434177	0.02016868	0	0	0	0
8.906225	0.08434177	0.02016868	0	0	0	0
8.922791	0.08434177	0.02016868	0	0	0	0
8.939358	0.08434177	0.02016868	0	0	0	0
8.955924	0.08434177	0.02016868	0	0	0	0
8.97249	0.08434177	0.02016868	0	0	0	0
8.989143	0.08311942	0.02016868	-0.0734009	0	-2.209584	0
9.005625	0.08189708	0.02016868	-0.07416496	-1.13015E-07	-0.02305929	-3.410799E-06
9.022191	0.08189708	0.02016868	0	0	2.244181	3.419756E-06
9.038758	0.08067474	0.02016868	-0.07378072	1.124295E-07	-2.226771	3.393226E-06
9.055325	0.08067474	0.02016868	0	0	2.226771	-3.393226E-06
9.071891	0.0794524	0.02016868	-0.07378497	0	-2.226963	0
9.088679	0.07823005	0.02016868	-0.07280882	0	0.02926555	0
9.105023	0.0770077	0.02016868	-0.07478812	0	-0.05973857	0
9.12159	0.07456302	0.02016868	-0.1475699	0	-2.211518	0
9.138157	0.07334067	0.02016868	-0.07378118	0	2.227013	0
9.154724	0.07334067	0.02016868	0	0	2.22672	0
9.17129	0.07334067	0.02016868	0	0	0	0
9.192704	0.07211832	0.02016868	-0.05708233	0	-1.502954	0
9.209275	0.07089598	0.02016868	-0.07376329	0	-0.4391478	0
9.226023	0.06967364	0.02016868	-0.0729871	0	0.02329595	0
9.242542	0.06845129	0.02016868	-0.07399369	-1.12754E-07	-0.03025784	-3.389363E-06
9.259051	0.06845129	0.02016868	0	0	2.240291	3.413829E-06
9.275539	0.06722895	0.02016868	-0.07413492	1.129692E-07	-2.246708	3.423608E-06
9.292108	0.06722895	0.02016868	0	0	2.242689	-3.417484E-06
9.308674	0.06722895	0.02016868	0	0	0	0
9.32524	0.06600661	0.02016868	-0.07378497	0	-2.226963	0
9.341806	0.06600661	0.02016868	0	0	2.226963	0
9.358744	0.06600661	0.02016868	0	0	0	0
9.374941	0.06600661	0.02016868	0	0	0	0
9.391507	0.06478426	0.02016868	-0.07378542	-1.12436E-07	-2.252063	-3.431746E-06
9.408288	0.06478426	0.02016868	0	0	2.212647	3.371683E-06
9.424641	0.06478426	0.02016868	0	0	0	0
9.441211	0.06478426	0.02016868	0	0	0	0
9.457966	0.06478426	0.02016868	0	0	0	0
9.474344	0.06478426	0.02016868	0	0	0	0
9.490911	0.06478426	0.02016868	0	0	0	0
9.507478	0.06478426	0.02016868	0	0	0	0
9.524044	0.06478426	0.02016868	0	0	0	0
9.54061	0.06478426	0.02016868	0	0	0	0
9.565787	0.06478426	0.02016868	0	0	0	0
9.582358	0.06478426	0.02016868	0	0	0	0
9.598924	0.06478426	0.02016868	0	0	0	0
9.615919	0.06478426	0.02016868	0	0	0	0
9.632055	0.06478426	0.01894634	0	-0.0757517	0	-2.286388
9.648933	0.06478426	0.01894634	0	0	0	2.294512
9.665191	0.06478426	0.01894634	0	0	0	0
9.681757	0.06478426	0.01894634	0	0	0	0
9.698323	0.06478426	0.01894634	0	0	0	0
9.71489	0.06478426	0.01894634	0	0	0	0
9.732079	0.06478426	0.01894634	0	0	0	0
9.748022	0.06478426	0.01894634	0	0	0	0
9.76489	0.06478426	0.01894634	0	0	0	0
9.781156	0.06478426	0.01894634	0	0	0	0
9.797725	0.06478426	0.01894634	0	0	0	0
9.817157	0.06478426	0.01894634	0	0	0	0
9.833797	0.06478426	0.01894634	0	0	0	0
9.850293	0.06478426	0.01894634	0	0	0	0
9.866915	0.06478426	0.01894634	0	0	0	0
9.883463	0.06478426	0.01894634	0	0	0	0
9.899995	0.06478426	0.01894634	0	0	0	0
9.916559	0.06478426	0.01894634	0	0	0	0
9.933125	0.06478426	0.01894634	0	0	0	0
9.949692	0.06478426	0.01894634	0	0	0	0
9.966292	0.06478426	0.01894634	0	0	0	0
9.982825	0.06478426	0.01894634	0	0	0	0
9.999416	0.06478426	0.01894634	0	0	0	0
10.01608	0.06478426	0.01894634	0	0	0	0
10.03253	0.06478426	0.01894634	0	0	0	0
10.04926	0.06478426	0.01894634	0	0	0	0
10.06566	0.06478426	0.01894634	0	0	0	0
10.08223	0.06478426	0.01894634	0	0	0	0
10.09879	0.06478426	0.01894634	0	0	0	0
10.11536	0.06478426	0.01894634	0	0	0	0
10.13216	0.06478426	0.01894634	0	0	0	0
10.14863	0.06478426	0.01894634	0	0	0	0
10.16506	0.06478426	0.01894634	0	0	0	0
10.18163	0.06478426	0.01894634	0	0	0	0
10.19819	0.06478426	0.01894634	0	0	0	0
10.21476	0.06478426	0.01894634	0	0	0	0
10.23133	0.06478426	0.017724	0	-0.07377659	0	-2.226582
10.24797	0.06478426	0.017724	0	0	0	2.221403
10.26446	0.06478426	0.01650165	0	-0.07413504	0	-2.237593
10.28133	0.06478426	0.01650165	0	0	0	2.222305
10.29759	0.06478426	0.01650165	0	0	0	0
10.31416	0.06478426	0.01650165	0	0	0	0
10.33072	0.06478426	0.01650165	0	0	0	0
10.34729	0.06478426	0.01650165	0	0	0	0
10.36386	0.06478426	0.01650165	0	0	0	0
10.38072	0.06478426	0.01650165	0	0	0	0
10.39699	0.06478426	0.01650165	0	0	0	0
10.41356	0.06478426	0.01650165	0	0	0	0
10.43055	0.06478426	0.01650165	0	0	0	0
10.48006	0.06478426	0.01650165	0	0	0	0
10.50047	0.06478426	0.01527931	0	-0.05989354	0	-0.8566527
10.52363	0.06478426	0.01527931	0	0	0	1.374755
10.5402	0.06478426	0.01527931	0	0	0	0
10.55676	0.06478426	0.01527931	0	0	0	0
10.57333	0.06478426	0.01527931	0	0	0	0
10.5899	0.06478426	0.01527931	0	0	0	0
10.60656	0.06478426	0.01527931	0	0	0	0
10.62303	0.06478426	0.01527931	0	0	0	0
10.6396	0.06478426	0.01527931	0	0	0	0
10.65616	0.06478426	0.01527931	0	0	0	0
10.67273	0.06478426	0.01527931	0	0	0	0
10.68933	0.06478426	0.01527931	0	0	0	0
10.70638	0.06478426	0.01527931	0	0	0	0
10.72243	0.06478426	0.01527931	0	0	0	0
10.739	0.06478426	0.01527931	0	0	0	0
10.75556	0.06478426	0.01527931	0	0	0	0
10.77213	0.06478426	0.01527931	0	0	0	0
10.7887	0.06478426	0.01527931	0	0	0	0
10.80589	0.06478426	0.01527931	0	0	0	0
10.82183	0.06478426	0.01527931	0	0	0	0
10.8384	0.06478426	0.01527931	0	0	0	0
10.85497	0.06478426	0.01527931	0	0	0	0
10.87166	0.06478426	0.01527931	0	0	0	0
10.88816	0.06478426	0.01527931	0	0	0	0
10.90467	0.06478426	0.01527931	0	0	0	0
10.92123	0.06478426	0.01527931	0	0	0	0
10.93783	0.06478426	0.01527931	0	0	0	0
10.95437	0.06478426	0.01527931	0	0	0	0
10.97093	0.06478426	0.01527931	0	0	0	0
10.9875	0.06478426	0.01527931	0	0	0	0
11.00407	0.06478426	0.01527931	0	0	0	0
11.02063	0.06478426	0.01527931	0	0	0	0
11.0372	0.06478426	0.01527931	0	0	0	0
11.05377	0.06478426	0.01527931	0	0	0	0
11.07033	0.06478426	0.01527931	0	0	0	0
11.0869	0.06478426	0.01527931	0	0	0	0
11.10347	0.06478426	0.01527931	0	0	0	0
11.12003	0.06478426	0.01527931	0	0	0	0
11.13679	0.06478426	0.01527931	0	0	0	0
11.15316	0.06356192	0.01527931	-0.07464439	-5.687278E-08	-2.252902	-1.716523E-06
11.16973	0.05256081	0.01527931	-0.6639899	-5.62115E-08	-17.88946	2.007283E-08
11.19199	0.01589048	0.01650165	-1.647527	0.05491767	-25.33192	1.414458
11.20902	-0.02077986	0.01650165	-2.153671	-1.093943E-07	-12.88399	-1.397943
11.22513	-0.02811392	0.01650165	-0.4552104	0	51.25373	3.301145E-06
11.24169	-0.03178096	0.01650165	-0.2213683	1.124424E-07	7.156233	3.441059E-06
11.25826	-0.0330033	0.01650165	-0.07378497	-1.12436E-07	4.454459	-6.787429E-06
11.275	-0.0330033	0.01650165	0	0	2.215294	3.375738E-06
11.29139	-0.0330033	0.01650165	0	0	0	0
11.30796	-0.0330033	0.01650165	0	0	0	0
11.32453	-0.0330033	0.01650165	0	0	0	0
11.34147	-0.0330033	0.01650165	0	0	0	0
11.35791	-0.03178096	0.01650165	0.07434995	1.132969E-07	2.227283	3.394006E-06
11.37502	-0.03178096	0.01650165	0	0	-2.216202	-3.377122E-06
11.39079	-0.03178096	0.01650165	0	0	0	0
11.40736	-0.03178096	0.01650165	0	0	0	0
11.42456	-0.03178096	0.01650165	0	0	0	0
11.44049	-0.03178096	0.01650165	0	0	0	0
11.45706	-0.03178096	0.01650165	0	0	0	0
11.47363	-0.03178096	0.01650165	0	0	0	0
11.4904	-0.03178096	0.01650165	0	0	0	0
11.50711	-0.03055861	0.01650165	0.07312847	-1.114352E-07	2.183642	-3.327494E-06
11.52333	-0.02566923	0.01650165	0.3015992	0	6.938798	3.384356E-06
11.53989	-0.01222344	0.01161227	0.8116829	-0.2951574	15.56232	-9.005061
11.55646	0.01466813	-0.001833517	1.623179	-0.8115894	24.49241	-15.58685
11.57303	0.05622785	-0.03239213	2.508549	-1.844522	26.72054	-31.17395
11.58959	0.1185674	-0.0837306	3.763041	-3.098975	37.86171	-37.86056
11.60616	0.2029092	-0.1582936	5.091172	-4.500892	40.08539	-42.31237
11.6228	0.2432466	-0.1949639	2.424441	-2.204037	-80.31337	69.17388
11.63968	0.2664711	-0.2181885	1.375237	-1.375237	-31.29574	24.72149
11.65586	0.2823616	-0.234079	0.9824514	-0.9824514	-11.88027	11.88029
11.67242	0.2958074	-0.2450801	0.8116832	-0.6641048	-5.215944	9.723583
11.68934	0.2994744	-0.2487471	0.2167158	-0.2167131	-17.76745	13.36041
11.70556	0.3006967	-0.2487471	0.07538451	-9.190096E-07	-4.265263	6.540198
11.7231	0.3006967	-0.2487471	0	0	-2.233264	2.722563E-05
11.73878	0.3006967	-0.2499694	0	-0.07796248	0	-2.3469
11.75526	0.3006967	-0.2499694	0	0	0	2.424293
11.77215	0.3006967	-0.2499694	0	0	0	0
11.78839	0.3006967	-0.2499694	0	0	0	0
11.80503	0.3006967	-0.2499694	0	0	0	0
11.82752	0.3006967	-0.2499694	0	0	0	0
11.84409	0.3006967	-0.2499694	0	0	0	0
11.86066	0.3006967	-0.2499694	0	0	0	0
11.87723	0.3006967	-0.2499694	0	0	0	0
11.89379	0.3006967	-0.2499694	0	0	0	0
11.91036	0.3006967	-0.2499694	0	0	0	0
11.92693	0.3006967	-0.2499694	0	0	0	0
11.94349	0.3006967	-0.2499694	0	0	0	0
11.96006	0.2933627	-0.2438577	-0.4427098	0.3689249	-13.36293	11.13578
11.97676	0.2835839	-0.2328566	-0.5853934	0.6585684	-4.288547	8.70563
11.99319	0.2725828	-0.2206332	-0.6696175	0.7440192	-2.541962	2.578984
12.00976	0.2493583	-0.202298	-1.401919	1.106776	-22.19417	10.99423
12.02633	0.2273561	-0.1888522	-1.328054	0.8115898	2.229316	-8.909005
12.04289	0.2053539	-0.1766288	-1.328132	0.7378506	-0.002360188	-2.225517
12.05949	0.184574	-0.163183	-1.251752	0.8099579	2.3029	2.174076
12.07608	0.1552378	-0.1411808	-1.7685	1.326376	-15.56995	15.56
12.09259	0.1393473	-0.1301797	-0.9624208	0.6662912	24.35347	-19.94263
12.10916	0.1295685	-0.1216233	-0.5903826	0.516584	11.24853	-4.52638
12.12573	0.1246791	-0.1167339	-0.2950733	0.2950724	8.91271	-6.685427
12.14229	0.1210121	-0.1142892	-0.2213545	0.1475699	2.224711	-4.451377
12.15886	0.1197898	-0.1118445	-0.07378118	0.1475624	4.453899	-0.000228913
12.17578	0.1197898	-0.1118445	0	0	2.203006	-4.406013
12.19199	0.1185674	-0.1118445	-0.07540853	-4.596399E-07	-2.275899	-1.387236E-05
12.20856	0.1185674	-0.1118445	0	0	2.300732	1.402373E-05
12.22513	0.1173451	-0.1106222	-0.07378452	0.07378497	-2.226949	2.226963
12.24169	0.1173451	-0.1106222	0	0	2.226885	-2.226899
12.25826	0.1161227	-0.1093998	-0.07380287	0.07380287	-2.227695	2.227695
12.27482	0.1149004	-0.1093998	-0.07378072	-4.497179E-07	0.000668377	-2.227709
12.29178	0.1173451	-0.1106222	0.1442087	-0.07210433	6.503313	-2.151087
12.3082	0.1173451	-0.1106222	0	0	-4.321257	2.160628
12.32455	0.1173451	-0.1106222	0	0	0	0
12.34109	0.1173451	-0.1106222	0	0	0	0
12.35766	0.1173451	-0.1106222	0	0	0	0
12.37499	0.1173451	-0.1106222	0	0	0	0
12.39079	0.1173451	-0.1106222	0	0	0	0
12.40736	0.1173451	-0.1106222	0	0	0	0
12.42392	0.1173451	-0.1106222	0	0	0	0
12.44049	0.1173451	-0.1106222	0	0	0	0
12.45706	0.1173451	-0.1106222	0	0	0	0
12.4738	0.1173451	-0.1106222	0	0	0	0
12.49019	0.1173451	-0.1106222	0	0	0	0
12.50675	0.1173451	-0.1106222	0	0	0	0
12.52332	0.1173451	-0.1106222	0	0	0	0
12.54004	0.1173451	-0.1106222	0	0	0	0
12.55646	0.1173451	-0.1106222	0	0	0	0
12.57312	0.1173451	-0.1106222	0	0	0	0
12.58959	0.1161227	-0.1106222	-0.0742131	9.046958E-07	-2.239885	2.730534E-05
12.60615	0.113678	-0.1081775	-0.1475784	0.147578	-2.220754	4.467128
12.62272	0.113678	-0.1069551	0	0.07378072	4.454182	-2.227334
12.63962	0.113678	-0.1069551	0	0	0	-2.204751
12.65586	0.1124557	-0.1057328	-0.07528055	0.075281	-2.271971	2.271985
12.67242	0.1087887	-0.1008434	-0.2213422	0.2951229	-4.452489	6.70158
12.68974	0.1026769	-0.092287	-0.3529359	0.4941103	-3.883647	5.872598
12.70556	0.1002322	-0.08739763	-0.1545641	0.3091277	5.987044	-5.582947
12.72212	0.09900991	-0.08617529	-0.07378452	0.07378452	2.494508	-7.267499
12.73893	0.09778756	-0.08495294	-0.07274684	0.07274684	0.03109728	-0.03109728
12.75534	0.09778756	-0.08495294	0	0	2.189957	-2.189957
12.77248	0.09778756	-0.08495294	0	0	0	0
12.7886	0.09778756	-0.08495294	0	0	0	0
12.80495	0.09778756	-0.08495294	0	0	0	0
12.82152	0.09778756	-0.08495294	0	0	0	0
12.83809	0.09778756	-0.08495294	0	0	0	0
12.85466	0.09778756	-0.08495294	0	0	0	0
12.87123	0.09778756	-0.08495294	0	0	0	0
12.88779	0.09778756	-0.08495294	0	0	0	0
12.90436	0.09778756	-0.08495294	0	0	0	0
12.92092	0.09778756	-0.08495294	0	0	0	0
12.93749	0.09778756	-0.08495294	0	0	0	0
12.95405	0.09778756	-0.08495294	0	0	0	0
12.97062	0.09778756	-0.08495294	0	0	0	0
12.98719	0.09778756	-0.08495294	0	0	0	0
13.00375	0.09656521	-0.08495294	-0.07378542	4.497438E-07	-2.226977	1.357408E-05
13.02032	0.09534287	-0.08250825	-0.07377648	0.147553	0.0002700556	4.453144
13.03689	0.09167583	-0.07884122	-0.2213554	0.2213554	-4.45394	2.227361
13.05346	0.08923114	-0.07395184	-0.1475704	0.2951403	2.226963	2.226963
13.07003	0.08311942	-0.06661777	-0.3687343	0.4424815	-6.673395	4.445869
13.08686	0.07578536	-0.05683902	-0.4357369	0.5809828	-2.005691	4.145969
13.10365	0.06845129	-0.04828261	-0.4369753	0.5098044	-0.03684074	-2.117454
13.11972	0.06233957	-0.04217089	-0.3801296	0.3801296	1.729845	-3.946074
13.13629	0.05867254	-0.03850385	-0.2213554	0.2213554	4.863771	-4.863771
13.15289	0.05745019	-0.03605916	-0.07362437	0.1472483	4.453916	-2.234241
13.16964	0.0550055	-0.03361448	-0.145932	0.1459318	-2.167835	-0.03947016
13.18603	0.0550055	-0.03361448	0	0	4.403983	-4.403976
13.20265	0.0550055	-0.03361448	0	0	0	0
13.21917	0.0550055	-0.03361448	0	0	0	0
13.23573	0.05256081	-0.03116979	-0.1476382	0.1476383	-4.463437	4.46344
13.25269	0.05133847	-0.02994744	-0.07207551	0.07207562	2.254401	-2.254401
13.26886	0.04889378	-0.02750275	-0.1511644	0.1511642	-2.387113	2.387106
13.28543	0.04644909	-0.02628041	-0.1475787	0.07378934	0.1095279	-2.363478
13.302	0.04522675	-0.02628041	-0.0737805	0	2.227361	-2.227095
13.31856	0.04522675	-0.02628041	0	0	2.226764	0
13.33513	0.0440044	-0.02505806	-0.07378519	0.07378519	-2.22697	2.22697
13.35176	0.04278206	-0.02383572	-0.07350592	0.07350569	0.008413116	-0.00841985
13.36826	0.03911503	-0.02139103	-0.2221865	0.1481245	-4.487319	2.252066
13.38483	0.03544799	-0.02016868	-0.2213554	0.07378508	0.02513328	-2.247904
13.40139	0.0330033	-0.01772399	-0.1475619	0.1475618	2.227155	2.22665
13.41796	0.0330033	-0.01772399	0	0	4.453555	-4.453552
13.43453	0.03178096	-0.01650165	-0.07378922	0.07378922	-2.227155	2.227155
13.45111	0.03178096	-0.01650165	0	0	2.22581	-2.22581
13.46766	0.03178096	-0.01650165	0	0	0	0
13.48473	0.03178096	-0.01650165	0	0	0	0
13.50079	0.03178096	-0.01650165	0	0	0	0
13.51736	0.03178096	-0.01650165	0	0	0	0
13.53421	0.03178096	-0.01650165	0	0	0	0
13.5505	0.03178096	-0.01650165	0	0	0	0
13.56706	0.03178096	-0.01650165	0	0	0	0
13.58363	0.03178096	-0.01650165	0	0	0	0
13.60019	0.03055861	-0.01650165	-0.07378519	1.12436E-07	-2.22697	3.393519E-06
13.61676	0.03055861	-0.01650165	0	0	2.22697	-3.393519E-06
13.63362	0.02933627	-0.01650165	-0.07252023	0	-2.169867	0
13.64989	0.02933627	-0.01650165	0	0	2.188728	0
13.66686	0.02933627	-0.01650165	0	0	0	0
13.68303	0.02933627	-0.01650165	0	0	0	0
13.7	0.02933627	-0.01650165	0	0	0	0
13.71693	0.02933627	-0.01650165	0	0	0	0
13.73273	0.02933627	-0.01650165	0	0	0	0
13.74951	0.02933627	-0.01650165	0	0	0	0
13.76617	0.02933627	-0.01650165	0	0	0	0
13.78514	0.02933627	-0.01650165	0	0	0	0
13.80171	0.02933627	-0.01650165	0	0	0	0
13.81829	0.02933627	-0.01650165	0	0	0	0
13.83484	0.02933627	-0.01650165	0	0	0	0
13.85182	0.02933627	-0.01650165	0	0	0	0
13.86846	0.02933627	-0.01650165	0	0	0	0
13.88454	0.02933627	-0.01650165	0	0	0	0
13.90111	0.02933627	-0.01650165	0	0	0	0
13.91767	0.02933627	-0.01650165	0	0	0	0
13.93424	0.02933627	-0.01650165	0	0	0	0
13.95081	0.02933627	-0.01650165	0	0	0	0
13.96737	0.02933627	-0.01650165	0	0	0	0
13.98394	0.02933627	-0.01650165	0	0	0	0
14.00051	0.02933627	-0.01650165	0	0	0	0
14.01707	0.02933627	-0.01650165	0	0	0	0
14.03396	0.02933627	-0.01650165	0	0	0	0
14.05021	0.02933627	-0.01650165	0	0	0	0
14.06677	0.02933627	-0.01650165	0	0	0	0
14.08334	0.02933627	-0.01650165	0	0	0	0
14.09991	0.02933627	-0.01650165	0	0	0	0
14.11677	0.02933627	-0.01650165	0	0	0	0
14.13304	0.02933627	-0.01650165	0	0	0	0
14.1496	0.02933627	-0.01650165	0	0	0	0
14.16649	0.02933627	-0.01650165	0	0	0	0
14.18274	0.02933627	-0.01650165	0	0	0	0
14.19937	0.02933627	-0.01650165	0	0	0	0
14.21587	0.02933627	-0.01650165	0	0	0	0
14.23278	0.02933627	-0.01650165	0	0	0	0
14.24901	0.02933627	-0.01650165	0	0	0	0
14.26577	0.02933627	-0.01650165	0	0	0	0
14.28214	0.02933627	-0.01650165	0	0	0	0
14.2987	0.02933627	-0.01650165	0	0	0	0
14.31527	0.02933627	-0.01650165	0	0	0	0
14.33184	0.02933627	-0.01650165	0	0	0	0
14.34847	0.02933627	-0.01650165	0	0	0	0
14.36497	0.02933627	-0.01650165	0	0	0	0
14.38154	0.02933627	-0.01650165	0	0	0	0
14.3981	0.02933627	-0.01650165	0	0	0	0
14.41467	0.02933627	-0.01650165	0	0	0	0
14.43273	0.02933627	-0.01650165	0	0	0	0
14.4493	0.02933627	-0.01650165	0	0	0	0
14.46587	0.02933627	-0.01650165	0	0	0	0
14.48254	0.02933627	-0.01650165	0	0	0	0
14.499	0.02933627	-0.01650165	0	0	0	0
14.51557	0.02933627	-0.01650165	0	0	0	0
14.53214	0.02933627	-0.01650165	0	0	0	0
14.5487	0.02933627	-0.01650165	0	0	0	0
14.56527	0.02933627	-0.01650165	0	0	0	0
14.58184	0.02933627	-0.01650165	0	0	0	0
14.5984	0.02933627	-0.01650165	0	0	0	0
14.61497	0.02933627	-0.01650165	0	0	0	0
14.63154	0.02933627	-0.01650165	0	0	0	0
14.6481	0.02933627	-0.01650165	0	0	0	0
14.66483	0.02933627	-0.01650165	0	0	0	0
14.68124	0.02933627	-0.01650165	0	0	0	0
14.6978	0.02933627	-0.01650165	0	0	0	0
14.71523	0.02933627	-0.01650165	0	0	0	0
14.73094	0.02933627	-0.01650165	0	0	0	0
14.74751	0.02933627	-0.01650165	0	0	0	0
14.76407	0.02933627	-0.01650165	0	0	0	0
14.78064	0.02933627	-0.01650165	0	0	0	0
14.79721	0.02933627	-0.01650165	0	0	0	0
14.81377	0.02933627	-0.01650165	0	0	0	0
14.83034	0.02933627	-0.01650165	0	0	0	0
14.84716	0.02933627	-0.01650165	0	0	0	0
14.86347	0.02933627	-0.01650165	0	0	0	0
14.88005	0.02933627	-0.01650165	0	0	0	0
14.89714	0.02933627	-0.01650165	0	0	0	0
14.91332	0.02933627	-0.01650165	0	0	0	0
14.92974	0.02933627	-0.01650165	0	0	0	0
14.94668	0.02933627	-0.01650165	0	0	0	0
14.96289	0.02933627	-0.01650165	0	0	0	0
14.9795	0.02933627	-0.01650165	0	0	0	0
14.99601	0.02933627	-0.01650165	0	0	0	0
15.01257	0.02933627	-0.01650165	0	0	0	0
15.02914	0.02933627	-0.01650165	0	0	0	0
15.04605	0.02933627	-0.01650165	0	0	0	0
15.06227	0.02933627	-0.01650165	0	0	0	0
15.07884	0.02933627	-0.01650165	0	0	0	0
15.0954	0.02933627	-0.01650165	0	0	0	0
15.11197	0.02933627	-0.01650165	0	0	0	0
15.12854	0.02933627	-0.01650165	0	0	0	0
15.14511	0.02933627	-0.01650165	0	0	0	0
15.16167	0.02933627	-0.01650165	0	0	0	0
15.17829	0.02933627	-0.01650165	0	0	0	0
15.19481	0.02933627	-0.01650165	0	0	0	0
15.21137	0.02933627	-0.01650165	0	0	0	0
15.22814	0.02933627	-0.01650165	0	0	0	0
15.24509	0.02933627	-0.01650165	0	0	0	0
15.26125	0.02933627	-0.01650165	0	0	0	0
15.27764	0.02933627	-0.01650165	0	0	0	0
15.29421	0.02933627	-0.01650165	0	0	0	0
15.31087	0.02933627	-0.01650165	0	0	0	0
15.32799	0.02933627	-0.01650165	0	0	0	0
15.344	0.02933627	-0.01650165	0	0	0	0
15.36047	0.02933627	-0.01650165	0	0	0	0
15.37705	0.02933627	-0.01650165	0	0	0	0
15.39361	0.02933627	-0.01650165	0	0	0	0
15.41033	0.02933627	-0.01650165	0	0	0	0
15.42674	0.02933627	-0.01650165	0	0	0	0
15.44339	0.02811392	-0.01650165	-0.07343011	0	-2.221368	0
15.4601	0.02566924	-0.01283462	-0.1462982	0.2194477	-2.184514	6.578825
15.47651	0.01955751	-0.006722894	-0.3722688	0.3722687	-6.821179	4.613078
15.49301	0.006111722	0.01283462	-0.8152028	1.18575	-13.45842	24.71737
15.50993	-0.01466813	0.0482826	-1.227771	2.094434	-12.34546	27.19092
15.52674	-0.03422565	0.0837306	-1.163746	2.109291	1.898131	0.4404634
15.54271	-0.07823005	0.1619606	-2.754908	4.897614	-48.54249	85.06501
15.55928	-0.1075663	0.2132991	-1.770945	3.099153	30.24005	-55.27196
15.57629	-0.1356802	0.2646376	-1.652165	3.016998	3.537028	-2.446405
15.59241	-0.1540154	0.3013079	-1.137757	2.275515	15.52622	-22.37993
15.60897	-0.1637942	0.3257548	-0.5903147	1.475784	16.75133	-24.47119
15.62581	-0.1674612	0.3416453	-0.2178559	0.9440457	11.15224	-15.92143
15.64211	-0.1686835	0.3489794	-0.07497624	0.4498574	4.311992	-14.9142
15.65888	-0.1686835	0.3538687	-8.883898E-07	0.2914985	2.26674	-4.787689
15.67524	-0.1699059	0.3563134	-0.07472271	0.1494454	-2.255304	-4.287539
15.69181	-0.1699059	0.3563134	0	0	2.269507	-4.539013
15.70837	-0.1699059	0.3563134	0	0	0	0
15.73355	-0.1699059	0.3563134	0	0	0	0
15.75012	-0.1699059	0.3563134	0	0	0	0
15.76669	-0.1699059	0.3563134	0	0	0	0
15.78326	-0.1699059	0.3563134	0	0	0	0
15.79982	-0.1699059	0.3563134	0	0	0	0
15.81675	-0.1699059	0.3563134	0	0	0	0
15.83296	-0.1699059	0.3563134	0	0	0	0
15.84952	-0.1674612	0.3538687	0.1475614	-0.1475614	4.502005	-4.502005
15.86609	-0.1576824	0.3392006	0.5902807	-0.8854197	13.36168	-22.26925
15.88266	-0.1442367	0.3184207	0.8116365	-1.254348	6.680918	-11.13492
15.89922	-0.1271238	0.2927515	1.032992	-1.549488	6.680918	-8.907853
15.91579	-0.1051216	0.2621929	1.327979	-1.844416	8.90271	-8.900928
15.93235	-0.07823005	0.2267449	1.623366	-2.13989	8.915044	-8.917699
15.94892	-0.04767143	0.1888522	1.844309	-2.286943	6.668094	-4.438054
15.96549	-0.02322455	0.1570713	1.475617	-1.918303	-11.12651	11.12492
15.98206	-0.002444689	0.131402	1.254347	-1.549487	-6.67814	11.13122
15.99862	0.007334067	0.1155116	0.5902809	-0.9592065	-20.0427	17.81573
16.01519	0.01222345	0.1069551	0.2951404	-0.5164952	-8.907869	13.36182
16.03178	0.01344579	0.1045104	0.07368752	-0.1473757	-6.679425	11.13332
16.04832	0.01466813	0.1020658	0.07387445	-0.1477486	0.005641711	-0.01125239
16.06489	0.01589048	0.1008434	0.07378934	-0.07378922	-0.002570565	2.23364
16.08146	0.01589048	0.09717639	0	-0.2213426	-2.227095	-4.453427
16.09839	0.01711282	0.09350935	0.07220137	-0.2166046	2.155467	0.141448
16.11459	0.01711282	0.09106467	1.149573E-07	-0.1508792	-2.179164	1.98371
16.13116	0.01833517	0.08739763	0.07378072	-0.2213431	2.251457	-2.150245
16.14772	0.01833517	0.08128591	1.124295E-07	-0.3689041	-2.226703	-4.4534
16.16463	0.02077986	0.07517418	0.1446311	-0.361578	4.321192	0.2188827
16.18086	0.0220022	0.06784012	0.07530674	-0.4518402	-2.092213	-2.724117
16.19761	0.02444689	0.06295075	0.1459155	-0.2918307	2.140588	4.850875
16.214	0.02444689	0.05928371	0	-0.2237642	-4.402725	2.05378
16.23056	0.02566923	0.05928371	0.07381483	-2.249626E-07	2.240375	6.791523
16.24712	0.02566923	0.05928371	0	0	-2.228506	6.791729E-06
16.26369	0.02566923	0.05928371	0	0	0	0
16.28041	0.02566923	0.05928371	0	0	0	0
16.29682	0.02566923	0.05928371	0	0	0	0
16.31339	0.02566923	0.05928371	0	0	0	0
16.33037	0.02566923	0.05928371	0	0	0	0
16.34652	0.02566923	0.05928371	0	0	0	0
16.36309	0.02566923	0.05928371	0	0	0	0
16.37977	0.02566923	0.05928371	0	0	0	0
16.39626	0.02566923	0.05928371	0	0	0	0
16.4128	0.02566923	0.05928371	0	0	0	0
16.42936	0.02566923	0.05928371	0	0	0	0
16.44593	0.02566923	0.05928371	0	0	0	0
16.46249	0.02566923	0.05928371	0	0	0	0
16.47906	0.02566923	0.05928371	0	0	0	0
16.49575	0.02566923	0.05928371	0	0	0	0
16.51219	0.02566923	0.05928371	0	0	0	0
16.52899	0.02566923	0.05928371	0	0	0	0
16.54533	0.02566923	0.05928371	0	0	0	0
16.56189	0.02566923	0.05928371	0	0	0	0
16.57869	0.02566923	0.05928371	0	0	0	0
16.59514	0.02566923	0.05928371	0	0	0	0
16.61215	0.02566923	0.05928371	0	0	0	0
16.62816	0.02566923	0.05928371	0	0	0	0
16.64473	0.02566923	0.05928371	0	0	0	0
16.66129	0.02566923	0.05928371	0	0	0	0
16.67786	0.02566923	0.05928371	0	0	0	0
16.69443	0.02566923	0.05928371	0	0	0	0
16.7113	0.02689158	0.05806137	0.07243007	-0.07242986	2.165871	-2.165865
16.72756	0.02689158	0.05683902	-1.145931E-07	-0.07520081	-2.186199	-0.08363716
16.74472	0.02689158	0.05683902	0	0	3.428625E-06	2.250008
16.76069	0.02689158	0.05683902	0	0	0	0
16.77728	0.02689158	0.05683902	0	0	0	0
16.79451	0.02689158	0.05683902	0	0	0	0
16.81054	0.02689158	0.05561667	0	-0.07628393	0	-2.29354
16.82783	0.02811392	0.05439433	0.07069623	-0.07069601	2.122133	0.1677362
16.84353	0.02811392	0.05439433	0	0	-2.142868	2.142861
16.8601	0.02811392	0.05317198	0	-0.07378095	0	-2.286468
16.87677	0.02933627	0.05317198	0.07329971	-2.23393E-07	2.204955	2.219424
16.89357	0.02933627	0.05317198	0	0	-2.190002	6.674394E-06
16.9098	0.02933627	0.05194964	1.147682E-07	-0.07531524	3.475314E-06	-2.280633
16.92679	0.02933627	0.05194964	0	0	-3.454762E-06	2.267146
16.94293	0.02933627	0.05194964	0	0	0	0
16.9596	0.02933627	0.05194964	0	0	0	0
16.97606	0.02933627	0.05194964	0	0	0	0
16.99263	0.02933627	0.05194964	0	0	0	0
17.00951	0.02933627	0.05194964	0	0	0	0
17.02577	0.02933627	0.05194964	0	0	0	0
17.04233	0.02933627	0.05194964	0	0	0	0
17.05889	0.02933627	0.05194964	0	0	0	0
17.07565	0.02933627	0.05194964	0	0	0	0
17.09203	0.02933627	0.05194964	0	0	0	0
17.10873	0.02933627	0.05194964	0	0	0	0
17.12516	0.02933627	0.05194964	0	0	0	0
17.14173	0.02933627	0.05194964	0	0	0	0
17.15891	0.02933627	0.05194964	0	0	0	0
17.17486	0.02933627	0.05194964	0	0	0	0
17.19143	0.02933627	0.05194964	0	0	0	0
17.208	0.02933627	0.05194964	0	0	0	0
17.2248	0.02933627	0.05194964	0	0	0	0
17.24113	0.02933627	0.05194964	0	0	0	0
17.25782	0.02933627	0.05194964	0	0	0	0
17.27426	0.02933627	0.05194964	0	0	0	0
17.29083	0.02933627	0.05194964	0	0	0	0
17.3074	0.02933627	0.05194964	0	0	0	0
17.32396	0.02933627	0.05194964	0	0	0	0
17.34057	0.02933627	0.05194964	0	0	0	0
17.3571	0.02933627	0.05194964	0	0	0	0
17.37367	0.02933627	0.05194964	0	0	0	0
17.39037	0.02933627	0.05194964	0	0	0	0
17.40685	0.02933627	0.05194964	0	0	0	0
17.42336	0.02933627	0.05194964	0	0	0	0
17.43993	0.02933627	0.05194964	0	0	0	0
17.4565	0.02933627	0.05194964	0	0	0	0
17.47319	0.02933627	0.05194964	0	0	0	0
17.48963	0.02933627	0.05194964	0	0	0	0
17.5062	0.02933627	0.05194964	0	0	0	0
17.52276	0.02933627	0.05194964	0	0	0	0
17.53933	0.02933627	0.05194964	0	0	0	0
17.5559	0.02933627	0.05194964	0	0	0	0
17.57247	0.02933627	0.05194964	0	0	0	0
17.58903	0.02933627	0.05194964	0	0	0	0
17.6056	0.02933627	0.05194964	0	0	0	0
17.62217	0.02933627	0.05194964	0	0	0	0
17.63873	0.02933627	0.05194964	0	0	0	0
17.6553	0.02933627	0.05194964	0	0	0	0
17.67192	0.02933627	0.05194964	0	0	0	0
17.68843	0.02933627	0.05194964	0	0	0	0
17.70531	0.02933627	0.05194964	0	0	0	0
17.72244	0.02933627	0.05194964	0	0	0	0
17.73963	0.02933627	0.05194964	0	0	0	0
17.7557	0.02933627	0.05194964	0	0	0	0
17.77325	0.02933627	0.05194964	0	0	0	0
17.78982	0.02933627	0.05194964	0	0	0	0
17.80638	0.02933627	0.05194964	0	0	0	0
17.82295	0.02933627	0.05194964	0	0	0	0
17.83952	0.02933627	0.05194964	0	0	0	0
17.85608	0.02933627	0.05194964	0	0	0	0
17.87265	0.02933627	0.05194964	0	0	0	0
17.88922	0.02933627	0.05194964	0	0	0	0
17.90579	0.02933627	0.05194964	0	0	0	0
17.92235	0.02933627	0.05194964	0	0	0	0
17.93892	0.02933627	0.05194964	0	0	0	0
17.95581	0.02933627	0.05194964	0	0	0	0
17.97214	0.02933627	0.05194964	0	0	0	0
17.98862	0.02933627	0.05194964	0	0	0	0
18.00558	0.02933627	0.05194964	0	0	0	0
18.02175	0.02933627	0.05194964	0	0	0	0
18.03832	0.02933627	0.05194964	0	0	0	0
18.05489	0.02933627	0.05194964	0	0	0	0
18.07145	0.02933627	0.05194964	0	0	0	0
18.08802	0.02933627	0.05194964	0	0	0	0
18.10489	0.02933627	0.05194964	0	0	0	0
18.12115	0.02933627	0.05194964	0	0	0	0
18.13819	0.02933627	0.05194964	0	0	0	0
18.15473	0.02933627	0.05194964	0	0	0	0
18.17085	0.02933627	0.05194964	0	0	0	0
18.18742	0.02933627	0.05194964	0	0	0	0
18.20448	0.02933627	0.05194964	0	0	0	0
18.22056	0.02933627	0.05194964	0	0	0	0
18.23712	0.02933627	0.05194964	0	0	0	0
18.25447	0.02933627	0.05194964	0	0	0	0
18.27025	0.02933627	0.05194964	0	0	0	0
18.28682	0.02933627	0.05194964	0	0	0	0
18.30339	0.02933627	0.05194964	0	0	0	0
18.31996	0.02933627	0.05194964	0	0	0	0
18.33669	0.02933627	0.05194964	0	0	0	0
18.35362	0.02933627	0.05194964	0	0	0	0
18.36965	0.02933627	0.05194964	0	0	0	0
18.38687	0.02933627	0.05194964	0	0	0	0
18.40279	0.02933627	0.05194964	0	0	0	0
18.41936	0.02933627	0.05194964	0	0	0	0
18.43599	0.02933627	0.05194964	0	0	0	0
18.45249	0.02933627	0.05194964	0	0	0	0
18.46906	0.02933627	0.05194964	0	0	0	0
18.48597	0.02933627	0.05194964	0	0	0	0
18.50219	0.02933627	0.05194964	0	0	0	0
18.51876	0.02933627	0.05194964	0	0	0	0
18.53532	0.02933627	0.05194964	0	0	0	0
18.55189	0.02933627	0.05194964	0	0	0	0
18.56846	0.02933627	0.05194964	0	0	0	0
18.58502	0.02933627	0.05194964	0	0	0	0
18.60245	0.02933627	0.05194964	0	0	0	0
18.61828	0.02933627	0.05194964	0	0	0	0
18.63479	0.02933627	0.05194964	0	0	0	0
18.65131	0.02933627	0.05194964	0	0	0	0
18.66786	0.02933627	0.05194964	0	0	0	0
18.68495	0.02933627	0.05194964	0	0	0	0
18.70116	0.02933627	0.05194964	0	0	0	0
18.71778	0.02933627	0.05194964	0	0	0	0
18.73483	0.02933627	0.05194964	0	0	0	0
18.75087	0.02933627	0.05194964	0	0	0	0
18.76731	0.02933627	0.05194964	0	0	0	0
18.78383	0.02933627	0.05194964	0	0	0	0
18.80041	0.02933627	0.05194964	0	0	0	0
18.81727	0.02933627	0.05194964	0	0	0	0
18.83442	0.03055861	0.05072729	0.07127006	-0.07127038	2.095331	-2.09534
18.85009	0.03055861	0.04950495	1.188611E-07	-0.07800115	-2.17143	-0.2050709
18.86666	0.03178096	0.04950495	0.07378083	0	2.288625	2.41954
18.88323	0.03178096	0.04950495	0	0	-2.22671	0
18.9001	0.03178096	0.04950495	0	0	0	0
18.91636	0.03178096	0.04950495	0	0	0	0
18.93293	0.03178096	0.04950495	0	0	0	0
18.9495	0.03178096	0.04950495	0	0	0	0
18.96606	0.03178096	0.04950495	0	0	0	0
18.98263	0.03178096	0.04950495	0	0	0	0
19.00074	0.03178096	0.04950495	0	0	0	0
19.01731	0.03178096	0.04950495	0	0	0	0
19.03446	0.03178096	0.04950495	0	0	0	0
19.05045	0.0330033	0.04950495	0.07644749	0	2.307323	0
19.06701	0.0330033	0.04828261	2.248849E-07	-0.07378945	-2.348277	-2.266635
19.08358	0.0330033	0.04828261	0	0	-6.787429E-06	2.227098
19.10015	0.03422565	0.04828261	0.07378072	0	2.226707	0
19.11671	0.03422565	0.04706027	0	-0.07378072	-2.226707	-2.226707
19.13354	0.03544799	0.04706026	0.07266001	-2.214427E-07	2.176098	2.209656
19.14985	0.03544799	0.04706026	0	0	-2.192883	6.683155E-06
19.16688	0.03544799	0.04706026	0	0	0	0
19.18298	0.03667033	0.04583792	0.07591321	-0.07591345	2.291329	-2.291336
19.19954	0.03667033	0.04583792	0	0	-2.323703	2.32371
19.21611	0.03667033	0.04583792	0	0	0	0
19.23268	0.03667033	0.04583792	0	0	0	0
19.24924	0.03667033	0.04461557	0	-0.07379772	0	-2.227476
19.26581	0.03667033	0.04461557	0	0	0	2.227476
19.28238	0.03667033	0.04461557	0	0	0	0
19.29894	0.03667033	0.04461557	0	0	0	0
19.31551	0.03667033	0.04461557	0	0	0	0
19.33208	0.03667033	0.04461557	0	0	0	0
19.34865	0.03667033	0.04461557	0	0	0	0
19.36531	0.03667033	0.04461557	0	0	0	0
19.38178	0.03667033	0.04461557	0	0	0	0
19.39835	0.03667033	0.04461557	0	0	0	0
19.41492	0.03667033	0.04461557	0	0	0	0
19.43148	0.03667033	0.04461557	0	0	0	0
19.44805	0.03667033	0.04461557	0	0	0	0
19.46461	0.03667033	0.04461557	0	0	0	0
19.48118	0.03667033	0.04461557	0	0	0	0
19.49806	0.03667033	0.04461557	0	0	0	0
19.51441	0.03667033	0.04461557	0	0	0	0
19.53088	0.03667033	0.04461557	0	0	0	0
19.54745	0.03667033	0.04461557	0	0	0	0
19.56401	0.03667033	0.04461557	0	0	0	0
19.58058	0.03667033	0.04461557	0	0	0	0
19.59739	0.03667033	0.04461557	0	0	0	0
19.61402	0.03667033	0.04461557	0	0	0	0
19.63074	0.03667033	0.04706026	0	0.1461983	0	4.383257
19.64685	0.03667033	0.0617284	0	0.9108523	0	23.29453
19.66368	0.03544799	0.08739763	-0.07263508	1.52534	-2.205589	18.65913
19.67998	0.0220022	0.1424031	-0.8245955	3.373344	-22.69421	55.77288
19.69655	0.01711282	0.1656277	-0.2951235	1.401837	16.10652	-59.97318
19.71353	0.008556412	0.2035204	-0.5038212	2.231208	-6.22045	24.72028
19.72968	0.006111722	0.2206332	-0.1513785	1.059649	10.63736	-35.35977
19.74625	0.003667034	0.2267449	-0.1475787	0.368947	0.116149	-21.1128
19.76281	0.003667033	0.2279672	-1.405369E-08	0.07378072	4.454189	-8.908648
19.77938	0.003667033	0.2279672	0	0	4.241411E-07	-2.226707
19.79595	0.003667033	0.2279672	0	0	0	0
19.81252	0.003667033	0.234079	0	0.3689045	0	11.13356
19.82908	0.003667033	0.2487471	0	0.8853696	0	15.58695
19.84565	0.004889378	0.2805281	0.07378086	1.918303	2.226711	31.174
19.86228	0.006111722	0.3025303	0.07348476	1.322725	-0.008918377	-17.93845
19.87878	0.007334067	0.3196431	0.07408793	1.037231	0.01820473	-8.616725
19.89535	0.009778756	0.3330889	0.1475617	0.8115898	2.222047	-6.824002
19.91192	0.009778756	0.3355336	0	0.1475614	-4.453421	-20.04041
19.92848	0.009778756	0.3355336	0	0	0	-4.453413
19.94505	0.009778756	0.3355336	0	0	0	0
19.96162	0.009778756	0.3355336	0	0	0	0
19.97818	0.009778756	0.3355336	0	0	0	0
19.99518	0.009778756	0.3355336	0	0	0	0
20.01132	0.009778756	0.3355336	0	0	0	0
20.02788	0.009778756	0.3343112	0	-0.07377893	0	-2.25587
20.04445	0.0110011	0.3208654	0.07378089	-0.8115916	2.226712	-22.26723
20.06102	0.01344579	0.2988632	0.1475617	-1.328055	2.22671	-15.58689
20.07759	0.01833517	0.273194	0.2951233	-1.549399	4.453416	-6.680175
20.09463	0.02566923	0.2426354	0.4303004	-1.792917	4.021775	-7.245134
20.11147	0.03544799	0.2096321	0.5806212	-1.959596	4.436082	-4.918823
20.12728	0.04278206	0.1790735	0.4638314	-1.932632	-3.576608	0.8257703
20.14385	0.05133846	0.1497372	0.5164657	-1.770741	1.625563	4.999842
20.16042	0.05745019	0.1289573	0.3689047	-1.254274	-4.453399	15.587
20.17698	0.05989488	0.1142892	0.1475784	-0.8854729	-6.680026	11.13108
20.19355	0.06233957	0.1057328	0.1475619	-0.5164655	-0.0004992157	11.13731
20.21054	0.06233957	0.1020658	-2.192059E-07	-0.215778	-4.39674	8.959245
20.22709	0.06233957	0.09962108	0	-0.1477656	6.535888E-06	2.027872
20.24325	0.06356192	0.09595405	0.07563593	-0.2269069	2.31265	-2.41983
20.25982	0.06356192	0.09350935	0	-0.1475619	-2.311033	2.424362
20.27638	0.06356191	0.09106466	-4.497697E-07	-0.1475789	-1.357486E-05	-0.0005131577
20.29295	0.06356191	0.08739763	0	-0.2213677	1.357564E-05	-2.227206
20.30952	0.06356191	0.08373059	0	-0.2213176	0	0.001511052
20.3264	0.06233957	0.08128591	-0.07242145	-0.1448433	-2.165243	2.286412
20.34265	0.06111722	0.07150716	-0.07519199	-0.601535	-0.08361493	-13.78298
20.35922	0.05867254	0.06539543	-0.1475447	-0.3688621	-2.204163	7.088184
20.37579	0.0574502	0.05806137	-0.07378899	-0.442736	2.225951	-2.22952
20.39235	0.05745019	0.05439433	-2.24859E-07	-0.2213424	2.227078	6.682057
20.40892	0.05745019	0.0507273	-2.24859E-07	-0.2213428	0	-1.349154E-05
20.42549	0.05745019	0.0507273	0	0	6.786257E-06	6.68014
20.44205	0.05745019	0.0507273	0	0	0	0
20.45885	0.05745019	0.0507273	0	0	0	0
20.47519	0.05745019	0.0507273	0	0	0	0
20.49176	0.05745019	0.0507273	0	0	0	0
20.50833	0.05745019	0.0507273	0	0	0	0
20.52497	0.05745019	0.0507273	0	0	0	0
20.54177	0.05745019	0.0507273	0	0	0	0
20.59946	0.05745019	0.0507273	0	0	0	0
20.61604	0.05745019	0.0507273	0	0	0	0
20.6326	0.05745019	0.0507273	0	0	0	0
20.64917	0.05745019	0.0507273	0	0	0	0
20.66573	0.05745019	0.0507273	0	0	0	0
20.6823	0.05745019	0.0507273	0	0	0	0
20.69887	0.05745019	0.0507273	0	0	0	0
20.71544	0.05745019	0.0507273	0	0	0	0
20.73244	0.05745019	0.0507273	0	0	0	0
20.74857	0.05745019	0.0507273	0	0	0	0
20.76592	0.05745019	0.0507273	0	0	0	0
20.7817	0.05745019	0.0507273	0	0	0	0
20.79863	0.05745019	0.0507273	0	0	0	0
20.81483	0.05745019	0.0507273	0	0	0	0
20.83153	0.05745019	0.0507273	0	0	0	0
20.84842	0.05745019	0.0507273	0	0	0	0
20.86453	0.05745019	0.0507273	0	0	0	0
20.8811	0.05745019	0.0507273	0	0	0	0
20.89767	0.05745019	0.0507273	0	0	0	0
20.91424	0.05745019	0.0507273	0	0	0	0
20.9308	0.05745019	0.0507273	0	0	0	0
20.94737	0.05745019	0.0507273	0	0	0	0
20.96394	0.05745019	0.0507273	0	0	0	0
20.9805	0.05745019	0.0507273	0	0	0	0
20.99706	0.05745019	0.0507273	0	0	0	0
21.01364	0.05745019	0.0507273	0	0	0	0
21.0302	0.05745019	0.0507273	0	0	0	0
21.04677	0.05745019	0.0507273	0	0	0	0
21.06334	0.05745019	0.0507273	0	0	0	0
21.0799	0.05745019	0.0507273	0	0	0	0
21.09647	0.05745019	0.0507273	0	0	0	0
21.11304	0.05745019	0.0507273	0	0	0	0
21.12961	0.05745019	0.0507273	0	0	0	0
21.14617	0.05745019	0.0507273	0	0	0	0
21.16274	0.05745019	0.0507273	0	0	0	0
21.17931	0.05745019	0.0507273	0	0	0	0
21.19588	0.05622784	0.05072729	-0.07378095	-2.24859E-07	-2.226713	-6.786257E-06
21.21244	0.05622784	0.05072729	0	0	2.226713	6.786257E-06
21.22912	0.05622784	0.05072729	0	0	0	0
21.24557	0.05622784	0.05072729	0	0	0	0
21.26214	0.05622784	0.05072729	0	0	0	0
21.27908	0.05622784	0.05072729	0	0	0	0
21.29543	0.05622784	0.05072729	0	0	0	0
21.31184	0.05622784	0.05072729	0	0	0	0
21.32841	0.05622784	0.05072729	0	0	0	0
21.34498	0.05622784	0.05072729	0	0	0	0
21.36226	0.05622784	0.05072729	0	0	0	0
21.37823	0.05622784	0.05072729	0	0	0	0
21.39492	0.05622784	0.05072729	0	0	0	0
21.41124	0.05622784	0.05072729	0	0	0	0
21.4278	0.05622784	0.05072729	0	0	0	0
21.44437	0.05622784	0.05072729	0	0	0	0
21.46094	0.05622784	0.05072729	0	0	0	0
21.4782	0.05622784	0.05072729	0	0	0	0
21.49407	0.05622784	0.05072729	0	0	0	0
21.51102	0.05622784	0.05072729	0	0	0	0
21.5272	0.05622784	0.05072729	0	0	0	0
21.544	0.05622784	0.05072729	0	0	0	0
21.56034	0.05622784	0.05072729	0	0	0	0
21.57693	0.05622784	0.05072729	0	0	0	0
21.5939	0.05622784	0.05072729	0	0	0	0
21.61004	0.05622784	0.05072729	0	0	0	0
21.62683	0.05622785	0.05194964	2.219208E-07	0.07281709	6.740653E-06	2.211756
21.64317	0.05622784	0.05317198	-2.27876E-07	0.07477044	-1.357489E-05	0.05895195
21.66082	0.05622784	0.05317198	0	0	6.704037E-06	-2.199722
21.67739	0.05622785	0.05439433	2.248331E-07	0.07377268	6.57174E-06	2.156332
21.69431	0.05622785	0.05439433	0	0	-6.711683E-06	-2.202251
21.71052	0.05622784	0.05561668	-2.299147E-07	0.07543983	-6.939238E-06	2.27691
21.72752	0.05622785	0.05683902	2.191076E-07	0.0718938	1.352272E-05	-0.1067919
21.74365	0.05622784	0.05806136	-2.309204E-07	0.07576938	-1.358187E-05	0.1169653
21.76026	0.05622784	0.05806136	0	0	7.054059E-06	-2.314571
21.77678	0.05622784	0.05928371	0	0.07395145	0	2.231988
21.79335	0.05622784	0.05928371	0	0	0	-2.234432
21.81078	0.05622784	0.05928371	0	0	0	0
21.82648	0.05622784	0.05928371	0	0	0	0
21.84332	0.05622784	0.05928371	0	0	0	0
21.85962	0.05622784	0.05928371	0	0	0	0
21.87618	0.05622784	0.05928371	0	0	0	0
21.89275	0.05622784	0.05928371	0	0	0	0
21.90932	0.05622784	0.05928371	0	0	0	0
21.9259	0.05622784	0.05928371	0	0	0	0
21.94318	0.05622784	0.05928371	0	0	0	0
21.95975	0.05622784	0.05928371	0	0	0	0
21.97673	0.05622784	0.05928371	0	0	0	0
21.9929	0.05622784	0.05928371	0	0	0	0
22.00945	0.05622784	0.05928371	0	0	0	0
22.02607	0.05622784	0.05928371	0	0	0	0
22.04258	0.05622784	0.05928371	0	0	0	0
22.05915	0.05622784	0.05928371	0	0	0	0
22.07571	0.05622784	0.05928371	0	0	0	0
22.09228	0.05622784	0.05928371	0	0	0	0
22.10885	0.05622784	0.05928371	0	0	0	0
22.12542	0.05622784	0.05928371	0	0	0	0
22.14198	0.05622784	0.05928371	0	0	0	0
22.15855	0.05622784	0.05928371	0	0	0	0
22.17512	0.05622784	0.05928371	0	0	0	0
22.19168	0.05622784	0.05928371	0	0	0	0
22.20825	0.05622784	0.05928371	0	0	0	0
22.22482	0.05622784	0.05928371	0	0	0	0
22.24138	0.05622784	0.05928371	0	0	0	0
22.25795	0.05622784	0.05928371	0	0	0	0
22.27452	0.05622784	0.05928371	0	0	0	0
22.29108	0.05622784	0.05928371	0	0	0	0
22.30765	0.05622784	0.05928371	0	0	0	0
22.32455	0.05622784	0.05928371	0	0	0	0
22.34115	0.05622784	0.05928371	0	0	0	0
22.35765	0.05622784	0.05928371	0	0	0	0
22.37392	0.05622784	0.05928371	0	0	0	0
22.39049	0.05745019	0.05683902	0.07377245	-0.1475449	2.246371	-4.492742
22.40705	0.05867253	0.05683902	0.07378922	-2.248849E-07	0.0005059327	4.452908
22.42362	0.05989488	0.05561668	0.07378095	-0.0737805	-0.0002496078	-2.226821
22.44018	0.06111723	0.05561668	0.07379816	0	0.0005197089	2.226956
22.45675	0.06233957	0.05439433	0.07377223	-0.07377245	-0.0007827791	-2.226585
22.47332	0.06233957	0.05439433	0	0	-2.226322	2.226329
22.49017	0.06356192	0.05439433	0.07252023	-2.210167E-07	2.169805	-6.612819E-06
22.50646	0.06356192	0.05439433	0	0	-2.188287	6.669147E-06
22.52373	0.06356192	0.05439433	0	0	0	0
22.53959	0.06356192	0.05439433	0	0	0	0
22.55643	0.06356192	0.05439433	0	0	0	0
22.57339	0.06356192	0.05439433	0	0	0	0
22.5894	0.06356192	0.05439433	0	0	0	0
22.60585	0.06478426	0.05439433	0.07431115	4.529511E-07	2.288963	1.395199E-05
22.62242	0.06478426	0.05439433	0	0	-2.250748	-1.371905E-05
22.63899	0.06478426	0.05439433	0	0	0	0
22.65555	0.06478426	0.05439433	0	0	0	0
22.67212	0.06478426	0.05439433	0	0	0	0
22.68869	0.06478426	0.05439433	0	0	0	0
22.70535	0.06478426	0.05439433	0	0	0	0
22.72182	0.06478426	0.05439433	0	0	0	0
22.73839	0.06478426	0.05439433	0	0	0	0
22.75501	0.06478426	0.05439433	0	0	0	0
22.77152	0.06478426	0.05439433	0	0	0	0
22.78809	0.06478426	0.05439433	0	0	0	0
22.80466	0.06478426	0.05439433	0	0	0	0
22.82165	0.06478426	0.05439433	0	0	0	0
22.83779	0.06478426	0.05439433	0	0	0	0
22.8547	0.06478426	0.05439433	0	0	0	0
22.87093	0.06478426	0.05439433	0	0	0	0
22.88749	0.06478426	0.05439433	0	0	0	0
22.90406	0.06478426	0.05439433	0	0	0	0
22.92063	0.06478426	0.05439433	0	0	0	0
22.94018	0.06478426	0.05439433	0	0	0	0
22.95675	0.06478426	0.05439433	0	0	0	0
22.97332	0.06478426	0.05439433	0	0	0	0
22.99037	0.06478426	0.05439433	0	0	0	0
23.00675	0.06478426	0.05439433	0	0	0	0
23.02302	0.06478426	0.05439433	0	0	0	0
23.03988	0.06478426	0.05439433	0	0	0	0
23.05698	0.06478426	0.05439433	0	0	0	0
23.07272	0.06478426	0.05439433	0	0	0	0
23.08928	0.06478426	0.05439433	0	0	0	0
23.10585	0.06478426	0.05439433	0	0	0	0
23.12242	0.06478426	0.05439433	0	0	0	0
23.13898	0.06478426	0.05439433	0	0	0	0
23.15555	0.06478426	0.05439433	0	0	0	0
23.17212	0.06478426	0.05439433	0	0	0	0
23.18869	0.06478426	0.05439433	0	0	0	0
23.20525	0.06478426	0.05439433	0	0	0	0
23.22182	0.06478426	0.05439433	0	0	0	0
23.23839	0.06478426	0.05439433	0	0	0	0
23.25495	0.06356192	0.05317198	-0.07378922	-0.07378967	-2.227091	-2.227105
23.27152	0.05011612	0.0507273	-0.8116832	-0.1475787	-22.27225	-2.227213
23.28808	0.0330033	0.04950495	-1.032932	-0.07378072	-6.677683	2.227355
23.30465	0.01344579	0.04828261	-1.180494	-0.07378095	-4.453424	-6.745769E-06
23.32202	-0.009778756	0.04828261	-1.336885	0	-4.607965	2.173905
23.33779	-0.02933627	0.0482826	-1.240776	-2.363414E-07	2.900591	-7.132796E-06
23.35435	-0.04033737	0.04828261	-0.6641042	2.248849E-07	17.83833	1.426724E-05
23.37092	-0.04767143	0.04828261	-0.442685	0	6.682829	-6.787429E-06
23.38762	-0.05745019	0.04828261	-0.5855284	0	-4.293721	0
23.40468	-0.07578535	0.04828261	-1.074428	0	-14.47913	0
23.42062	-0.09656522	0.04950495	-1.304278	0.07672229	-6.965766	2.32512
23.43719	-0.1014546	0.04950495	-0.2950894	-2.248331E-07	31.05079	-2.360604
23.45375	-0.106344	0.04950495	-0.2951573	0	-0.002051613	6.785476E-06
23.47032	-0.1222344	0.04950495	-0.9591512	0	-20.04053	0
23.48689	-0.1540154	0.04950495	-1.918302	0	-28.94724	0
23.50345	-0.1980198	0.04950495	-2.656111	2.24859E-07	-22.26712	6.786257E-06
23.52002	-0.2530253	0.04950495	-3.320519	-2.248849E-07	-20.05303	-1.357408E-05
23.53691	-0.3202543	0.04706026	-3.980052	-0.1447291	-19.71297	-4.325842
23.55336	-0.3887056	0.04339323	-4.160467	-0.2228822	-5.410651	-2.343826
23.56972	-0.4314876	0.03850385	-2.615453	-0.2989087	47.08942	-2.31716
23.58629	-0.4547122	0.03728151	-1.401836	-0.07378095	36.86045	6.837667
23.60285	-0.4596016	0.03728151	-0.2951927	2.249107E-07	33.4024	2.226976
23.61954	-0.4596016	0.03728151	0	0	8.87674	-6.763293E-06
23.63599	-0.4596016	0.03728151	0	0	0	0
23.65268	-0.4596016	0.03728151	0	0	0	0
23.66912	-0.4596016	0.03728151	0	0	0	0
23.68626	-0.4596016	0.03728151	0	0	0	0
23.70226	-0.4596016	0.03605916	0	-0.07642949	0	-2.306647
23.71882	-0.4473781	0.03239213	0.737894	-0.2213681	22.66368	-4.451645
23.73558	-0.4253759	0.03239213	1.312642	0	17.24567	6.642285
23.75196	-0.369148	0.03728151	3.434249	0.2986302	64.03022	9.012676
23.76852	-0.2970297	0.04339323	4.353571	0.3689468	27.91068	2.134816
23.78574	-0.2004645	0.04828261	5.607263	0.2839122	37.106	-2.5168
23.80165	-0.1014546	0.05439433	6.221948	0.3840706	18.55122	3.022785
23.81852	-0.0110011	0.06050605	5.364669	0.3624777	-26.15729	-0.6588425
23.83525	0.04767144	0.06417309	3.505163	0.2190729	-55.3427	-4.268018
23.85136	0.08800881	0.06539543	2.505141	0.07591321	-30.45067	-4.359212
23.86792	0.09534287	0.06784011	0.4427358	0.1475784	-63.13389	2.1938
23.88453	0.09656522	0.06784012	0.07357787	4.484788E-07	-11.12648	-4.448023
23.90106	0.09656522	0.06784012	0	0	-2.220585	-1.353512E-05
23.9178	0.09656522	0.06784012	0	0	0	0
23.93439	0.09656522	0.06784012	0	0	0	0
23.95076	0.09656522	0.06784012	0	0	0	0
23.96732	0.09656522	0.06784012	0	0	0	0
23.98389	0.09656522	0.06784012	0	0	0	0
24.00058	0.09656522	0.06784012	0	0	0	0
24.01702	0.09656522	0.06784012	0	0	0	0
24.03398	0.09656522	0.06784012	0	0	0	0
24.0507	0.09656522	0.06784012	0	0	0	0
24.06748	0.09656522	0.06784012	0	0	0	0
24.08329	0.09656522	0.06784012	0	0	0	0
24.09986	0.09656522	0.06784012	0	0	0	0
24.11642	0.09656522	0.06784012	0	0	0	0
24.13299	0.09656522	0.06784012	0	0	0	0
24.14991	0.09656522	0.06784012	0	0	0	0
24.16627	0.09656522	0.06784012	0	0	0	0
24.18269	0.09656522	0.06784012	0	0	0	0
24.19925	0.09656522	0.06784012	0	0	0	0
24.21582	0.09656522	0.06784012	0	0	0	0
24.23239	0.09656522	0.06784012	0	0	0	0
24.25685	0.09656522	0.06784012	0	0	0	0
24.27346	0.09656522	0.06784012	0	0	0	0
24.29002	0.09656522	0.06784012	0	0	0	0
24.30656	0.09656522	0.06784012	0	0	0	0
24.32313	0.09656522	0.06784012	0	0	0	0
24.33982	0.09656522	0.06784012	0	0	0	0
24.35644	0.09656522	0.06784012	0	0	0	0
24.37283	0.09656522	0.06784012	0	0	0	0
24.38939	0.09656522	0.06784012	0	0	0	0
24.40596	0.09656522	0.06784012	0	0	0	0
24.42253	0.09656522	0.06784012	0	0	0	0
24.43909	0.09656522	0.06784012	0	0	0	0
24.45566	0.09534287	0.06784011	-0.07378118	-4.497179E-07	-2.22672	-1.357251E-05
24.47227	0.09412052	0.06784012	-0.07358588	4.485302E-07	0.005886435	2.707334E-05
24.48879	0.09289818	0.06784011	-0.0739856	-4.50964E-07	-0.01206438	-2.714835E-05
24.50536	0.09167584	0.06661777	-0.07378028	-0.07378072	0.006205236	-2.229774
24.52193	0.0904535	0.06661778	-0.07378072	4.497179E-07	-1.349154E-05	2.22672
24.53849	0.08923115	0.06661777	-0.07378118	-4.497179E-07	-1.37164E-05	-2.714503E-05
24.55506	0.08800881	0.06661777	-0.07377223	0	0.0002700401	1.357173E-05
24.57163	0.08678646	0.06661777	-0.07379816	0	-0.0007827791	0
24.58819	0.08434177	0.06661778	-0.1475614	4.497179E-07	-2.226437	1.357408E-05
24.60476	0.08311942	0.06661777	-0.07378118	-4.497179E-07	2.226693	-2.714503E-05
24.62133	0.08189708	0.06661777	-0.07378922	0	-0.0002426368	1.35733E-05
24.63789	0.08189708	0.06661777	0	0	2.227091	0
24.65494	0.08189708	0.06661777	0	0	0	0
24.67103	0.08189708	0.06661777	0	0	0	0
24.68759	0.08189708	0.06661777	0	0	0	0
24.70416	0.08189708	0.06661777	0	0	0	0
24.72073	0.08189708	0.06661777	0	0	0	0
24.7373	0.08189708	0.06661777	0	0	0	0
24.75386	0.08189708	0.06661777	0	0	0	0
24.77043	0.08189708	0.06661777	0	0	0	0
24.78724	0.08189708	0.06661777	0	0	0	0
24.80356	0.08189708	0.06661777	0	0	0	0
24.82013	0.08189708	0.06661777	0	0	0	0
24.83722	0.08189708	0.06661777	0	0	0	0
24.85326	0.08189708	0.06661777	0	0	0	0
24.86983	0.08189708	0.06661777	0	0	0	0
24.88701	0.08189708	0.06661777	0	0	0	0
24.90296	0.08189708	0.06661777	0	0	0	0
24.91953	0.08189708	0.06661777	0	0	0	0
24.93609	0.08189708	0.06661777	0	0	0	0
24.95301	0.08189708	0.06661777	0	0	0	0
24.96923	0.08189708	0.06661777	0	0	0	0
24.98598	0.08189708	0.06661777	0	0	0	0
25.00236	0.08189708	0.06661777	0	0	0	0
25.01893	0.08189708	0.06661777	0	0	0	0
25.0355	0.08189708	0.06661777	0	0	0	0
25.05206	0.08189708	0.06661777	0	0	0	0
25.06863	0.08189708	0.06661777	0	0	0	0
25.0852	0.08189708	0.06661777	0	0	0	0
25.10176	0.08189708	0.06661777	0	0	0	0
25.11833	0.08067474	0.06539543	-0.07378072	-0.07378072	-2.226707	-2.226707
25.1349	0.0794524	0.06539543	-0.07378072	0	0	2.226707
25.15151	0.0794524	0.06539543	0	0	2.223507	0
25.16804	0.0794524	0.06539543	0	0	0	0
25.1846	0.0794524	0.06539543	0	0	0	0
25.2012	0.07823005	0.06417309	-0.07364552	-0.07364507	-2.220581	-2.220567
25.21773	0.07823005	0.06417309	0	0	2.222882	2.222868
25.2343	0.07823005	0.06417309	0	0	0	0
25.25087	0.0770077	0.06417309	-0.07378922	0	-2.227091	0
25.26743	0.0770077	0.06295074	0	-0.07378967	2.227219	-2.227233
25.284	0.0770077	0.06295074	0	0	0	2.227105
25.30057	0.0770077	0.0617284	0	-0.0737805	0	-2.2267
25.31747	0.0770077	0.0617284	0	0	0	2.20399
25.33383	0.0770077	0.0617284	0	0	0	0
25.35027	0.0770077	0.0617284	0	0	0	0
25.36707	0.0770077	0.0617284	0	0	0	0
25.3834	0.0770077	0.0617284	0	0	0	0
25.40043	0.07578536	0.0617284	-0.07177281	-2.187395E-07	-2.151494	-6.557033E-06
25.41654	0.07578536	0.0617284	0	0	2.166108	6.601571E-06
25.4331	0.07578536	0.0617284	0	0	0	0
25.44967	0.07578536	0.0617284	0	0	0	0
25.46624	0.07578536	0.0617284	0	0	0	0
25.48362	0.07456301	0.06050605	-0.07031636	-0.07031614	-2.071009	-2.071002
25.49968	0.07456301	0.06050605	0	0	2.102665	2.102659
25.51626	0.07456301	0.06050605	0	0	0	0
25.5325	0.07334068	0.06050605	-0.07525311	2.293477E-07	-2.292922	6.988101E-06
25.54907	0.07334068	0.06050605	0	0	2.293588	-6.990132E-06
25.56565	0.07334067	0.05928371	-4.494075E-07	-0.07373002	-1.355846E-05	-2.224408
25.58239	0.07334067	0.05928371	0	0	1.348783E-05	2.212821
25.59887	0.07334067	0.05928371	0	0	0	0
25.61537	0.07334067	0.05928371	0	0	0	0
25.63192	0.07334067	0.05928371	0	0	0	0
25.64848	0.07334067	0.05928371	0	0	0	0
25.66505	0.07334067	0.05928371	0	0	0	0
25.68189	0.07334067	0.05928371	0	0	0	0
25.69818	0.07334067	0.05928371	0	0	0	0
25.71475	0.07334067	0.05928371	0	0	0	0
25.73162	0.07334067	0.05928371	0	0	0	0
25.74788	0.07334067	0.05928371	0	0	0	0
25.76486	0.07334067	0.05928371	0	0	0	0
25.78102	0.07334067	0.05928371	0	0	0	0
25.79758	0.07334067	0.05928371	0	0	0	0
25.81454	0.07334067	0.05928371	0	0	0	0
25.8308	0.07334067	0.05928371	0	0	0	0
25.84771	0.07334067	0.05928371	0	0	0	0
25.86462	0.07334067	0.05928371	0	0	0	0
25.88042	0.07334067	0.05928371	0	0	0	0
25.89698	0.07334067	0.05928371	0	0	0	0
25.91355	0.07334067	0.05928371	0	0	0	0
25.93039	0.07334067	0.05928371	0	0	0	0
25.94668	0.07334067	0.05928371	0	0	0	0
25.96325	0.0770077	0.05806136	0.2213426	-0.07378095	6.736361	-2.245456
25.97982	0.0794524	0.05683902	0.1475619	-0.07378072	-2.226707	6.745769E-06
25.99638	0.08189708	0.05439433	0.1475784	-0.1475789	0.0004992157	-2.227361
26.01295	0.08434176	0.05439433	0.1475614	0	-0.000512708	4.454196
26.02952	0.08556411	0.05317198	0.07378118	-0.07378095	-2.226693	-2.226713
26.04608	0.08800881	0.05317198	0.1475789	0	2.227348	2.226841
26.06265	0.09045349	0.0507273	0.1475614	-0.1475614	-0.00052665	-4.45367
26.07922	0.09289818	0.0507273	0.1475449	0	-0.0004991582	4.453157
26.09579	0.09534287	0.0482826	0.1475614	-0.1475619	0.0004991582	-4.45317
26.11235	0.1014546	0.04583792	0.3689045	-0.1475617	6.680148	6.745769E-06
26.12892	0.1051216	0.04339323	0.2213426	-0.1475614	-4.453427	6.745769E-06
26.14549	0.110011	0.04094854	0.2951233	-0.1475619	2.226707	-1.349154E-05
26.16212	0.113678	0.03850385	0.220429	-0.1469526	-2.249617	0.01835004
26.17862	0.1173451	0.03605916	0.2223152	-0.1482101	0.05693185	-0.03795472
26.20475	0.1197898	0.03483682	0.09353563	-0.04676796	-3.020786	2.37953
26.22132	0.1210121	0.03483682	0.07376419	2.248072E-07	-0.4629507	1.095083
26.2379	0.1210121	0.03483682	0	0	-2.225695	-6.783133E-06
26.25446	0.1210121	0.03483682	0	0	0	0
26.2712	0.1210121	0.03483682	0	0	0	0
26.28759	0.1222344	0.03483682	0.07455321	-2.272132E-07	2.25015	-6.857704E-06
26.30451	0.1222344	0.03361447	0	-0.07225043	-2.237911	-2.16878
26.32072	0.1222344	0.03361447	0	0	0	2.180648
26.33764	0.1222344	0.03361447	0	0	0	0
26.35386	0.1222344	0.03361447	0	0	0	0
26.37056	0.1222344	0.03361447	0	0	0	0
26.38717	0.1222344	0.03361447	0	0	0	0
26.40377	0.1222344	0.03361447	0	0	0	0
26.42021	0.1222344	0.03361447	0	0	0	0
26.4371	0.1222344	0.03361447	0	0	0	0
26.45326	0.1222344	0.03361447	0	0	0	0
26.46983	0.1222344	0.03361447	0	0	0	0
26.487	0.1222344	0.03361447	0	0	0	0
26.50312	0.1222344	0.03361447	0	0	0	0
26.51953	0.1222344	0.03361447	0	0	0	0
26.5361	0.1222344	0.03361447	0	0	0	0
26.5535	0.1222344	0.03361447	0	0	0	0
26.56923	0.1222344	0.03361447	0	0	0	0
26.5858	0.1222344	0.03361447	0	0	0	0
26.60236	0.1222344	0.03361447	0	0	0	0
26.61893	0.1222344	0.03361447	0	0	0	0
26.63559	0.1222344	0.03361447	0	0	0	0
26.65206	0.1222344	0.03361447	0	0	0	0
26.66863	0.1222344	0.03361447	0	0	0	0
26.6852	0.1222344	0.03361447	0	0	0	0
26.70223	0.1222344	0.03361447	0	0	0	0
26.71833	0.1222344	0.03361447	0	0	0	0
26.7349	0.1222344	0.03361447	0	0	0	0
26.75205	0.1222344	0.03361447	0	0	0	0
26.76803	0.1222344	0.03361447	0	0	0	0
26.7846	0.1222344	0.03361447	0	0	0	0
26.80153	0.1222344	0.03361447	0	0	0	0
26.81773	0.1222344	0.03361447	0	0	0	0
26.8343	0.1222344	0.03361447	0	0	0	0
26.85122	0.1222344	0.03361447	0	0	0	0
26.8734	0.1222344	0.03361447	0	0	0	0
26.88997	0.1222344	0.03361447	0	0	0	0
26.90654	0.1222344	0.03361447	0	0	0	0
26.92345	0.1222344	0.03361447	0	0	0	0
26.93967	0.1222344	0.03361447	0	0	0	0
26.9567	0.1222344	0.03361447	0	0	0	0
26.9728	0.1222344	0.03361447	0	0	0	0
26.98993	0.1222344	0.03361447	0	0	0	0
27.00594	0.1222344	0.03361447	0	0	0	0
27.02253	0.1222344	0.03361447	0	0	0	0
27.03907	0.1222344	0.03361447	0	0	0	0
27.05565	0.1222344	0.03361447	0	0	0	0
27.0722	0.1222344	0.03361447	0	0	0	0
27.08877	0.1222344	0.03361447	0	0	0	0
27.10554	0.1222344	0.03361447	0	0	0	0
27.1219	0.1222344	0.03361447	0	0	0	0
27.13847	0.1222344	0.03361447	0	0	0	0
27.15504	0.1222344	0.03361447	0	0	0	0
27.1716	0.1222344	0.03361447	0	0	0	0
27.18838	0.1222344	0.03361447	0	0	0	0
27.20473	0.1222344	0.03361447	0	0	0	0
27.2213	0.1222344	0.03361447	0	0	0	0
27.23787	0.1222344	0.03361447	0	0	0	0
27.25443	0.1222344	0.03361447	0	0	0	0
27.271	0.1222344	0.03361447	0	0	0	0
27.28757	0.1222344	0.03361447	0	0	0	0
27.30458	0.1222344	0.03361447	0	0	0	0
27.3207	0.1222344	0.03361447	0	0	0	0
27.33727	0.1222344	0.03361447	0	0	0	0
27.3544	0.1222344	0.03361447	0	0	0	0
27.3704	0.1222344	0.03361447	0	0	0	0
27.38706	0.1222344	0.03361447	0	0	0	0
27.40353	0.1222344	0.03361447	0	0	0	0
27.42034	0.1222344	0.03361447	0	0	0	0
27.43688	0.1222344	0.03361447	0	0	0	0
27.45378	0.1222344	0.03361447	0	0	0	0
27.46985	0.1222344	0.03361447	0	0	0	0
27.48684	0.1222344	0.03361447	0	0	0	0
27.50293	0.1222344	0.03361447	0	0	0	0
27.52291	0.1222344	0.03361447	0	0	0	0
27.53949	0.1222344	0.03361447	0	0	0	0
27.55632	0.1222344	0.03361447	0	0	0	0
27.57262	0.1222344	0.03361447	0	0	0	0
27.58919	0.1222344	0.03361447	0	0	0	0
27.60576	0.1222344	0.03361447	0	0	0	0
27.62232	0.1222344	0.03361447	0	0	0	0
27.63889	0.1222344	0.03361447	0	0	0	0
27.65547	0.1222344	0.03361447	0	0	0	0
27.67202	0.1222344	0.03361447	0	0	0	0
27.68925	0.1222344	0.03361447	0	0	0	0
27.7053	0.1222344	0.03361447	0	0	0	0
27.72212	0.1222344	0.03361447	0	0	0	0
27.7386	0.1222344	0.03361447	0	0	0	0
27.75485	0.1222344	0.03361447	0	0	0	0
27.77142	0.1222344	0.03361447	0	0	0	0
27.78798	0.1222344	0.03361447	0	0	0	0
27.80455	0.1222344	0.03361447	0	0	0	0
27.82112	0.1222344	0.03361447	0	0	0	0
27.83768	0.1222344	0.03361447	0	0	0	0
27.85425	0.1222344	0.03361447	0	0	0	0
27.87082	0.1222344	0.03361447	0	0	0	0
27.88738	0.1222344	0.03361447	0	0	0	0
27.90395	0.1222344	0.03361447	0	0	0	0
27.92081	0.1222344	0.03361447	0	0	0	0
27.93709	0.1222344	0.03361447	0	0	0	0
27.95365	0.1222344	0.03361447	0	0	0	0
27.97022	0.1222344	0.03361447	0	0	0	0
27.98679	0.1222344	0.03361447	0	0	0	0
28.00335	0.1222344	0.03361447	0	0	0	0
28.02043	0.1222344	0.03361447	0	0	0	0
28.03684	0.1222344	0.03361447	0	0	0	0
28.05309	0.1222344	0.03361447	0	0	0	0
28.06962	0.1222344	0.03361447	0	0	0	0
28.08648	0.1222344	0.03361447	0	0	0	0
28.10275	0.1222344	0.03361447	0	0	0	0
28.11932	0.1246791	0.0397262	0.1475963	0.3689895	4.494308	11.23573
28.13589	0.1283462	0.04583792	0.2213167	0.3688618	2.225013	-0.003853405
28.15245	0.1307909	0.04950495	0.1475614	0.2213424	-2.22581	-4.451889
28.16902	0.1320132	0.05194964	0.07378072	0.1475619	-2.226707	-2.2267
28.18567	0.1332355	0.05194964	0.07342569	0	-0.01068914	-4.442686
28.20224	0.1332355	0.05194964	0	0	-2.210393	0
28.2189	0.1332356	0.05317199	8.944928E-07	0.07337546	2.691837E-05	2.208121
28.23537	0.1332356	0.05317199	0	0	-2.699585E-05	-2.214476
28.25237	0.1332356	0.05317199	0	0	0	0
28.26851	0.1332356	0.05317199	0	0	0	0
28.28509	0.1332356	0.05317199	0	0	0	0
28.30184	0.1332356	0.05317199	0	0	0	0
28.3182	0.1332356	0.05317199	0	0	0	0
28.3351	0.1405696	0.06295075	0.4341874	0.5789165	13.0572	17.4096
28.35134	0.1601271	0.0837306	1.2042	1.279463	23.24037	21.14376
28.36791	0.2077986	0.1387361	2.87679	3.319374	50.97477	62.16943
28.38462	0.2579147	0.1912969	2.998091	3.144341	3.644095	-5.258308
28.40122	0.2958074	0.2194108	2.283527	1.694229	-21.45198	-43.53389
28.41761	0.3104755	0.2267449	0.8950568	0.4475293	-42.09799	-37.79956
28.43417	0.3104755	0.2279672	-1.798872E-06	0.07377983	-27.15988	-11.34115
28.45074	0.3104755	0.2279672	0	0	5.429318E-05	-2.226808
28.46806	0.3104755	0.2279672	0	0	0	0
28.48387	0.3104755	0.2279672	0	0	0	0
28.50067	0.3104755	0.2279672	0	0	0	0
28.51701	0.3104755	0.2279672	0	0	0	0
28.53402	0.3104755	0.2279672	0	0	0	0
28.55014	0.3104755	0.2279672	0	0	0	0
28.56671	0.3104755	0.2279672	0	0	0	0
28.58327	0.3104755	0.2279672	0	0	0	0
28.59984	0.3104755	0.2279672	0	0	0	0
28.61668	0.3104755	0.2279672	0	0	0	0
28.63297	0.3104755	0.2279672	0	0	0	0
28.64987	0.3104755	0.2279672	0	0	0	0
28.66611	0.3104755	0.2206332	1.835644E-06	-0.4517354	5.540303E-05	-13.63419
28.68309	0.3104755	0.2120768	0	-0.5037071	-5.525353E-05	-1.564367
28.69924	0.3055861	0.198631	-0.302792	-0.83268	-9.138282	-9.928421
28.71581	0.2921403	0.1839629	-0.8114963	-0.8852677	-15.54874	-1.607363
28.73311	0.2835839	0.1741841	-0.494492	-0.5651335	9.358723	9.451125
28.74895	0.2762499	0.1680724	-0.4632718	-0.3860599	0.9422265	5.404452
28.76551	0.2725828	0.163183	-0.221344	-0.2951247	7.467318	2.806794
28.78208	0.2689158	0.1607383	-0.2213404	-0.1475606	0.0001088317	4.453495
28.79906	0.2652487	0.1570713	-0.215949	-0.2159481	0.160705	-2.038477
28.82556	0.259137	0.1509596	-0.2306245	-0.2306245	-0.3375095	-0.3375297
28.84213	0.2420242	0.1338467	-1.032574	-1.032575	-18.61811	-18.61813
28.8587	0.2383572	0.1301797	-0.2213686	-0.2213686	24.47942	24.47945
28.87527	0.2322454	0.124068	-0.3689054	-0.3689045	-4.452928	-4.4529
28.89184	0.223689	0.1155116	-0.5164056	-0.5164056	-4.451309	-4.451336
28.9084	0.212688	0.1057328	-0.6641803	-0.5903835	-4.460106	-2.232786
28.92497	0.1992422	0.09228701	-0.8115898	-0.8115893	-4.449338	-6.676772
28.94159	0.1857964	0.07884122	-0.8090748	-0.8090743	0.07578381	0.07578381
28.95826	0.1760176	0.06661778	-0.5864666	-0.7330823	6.686385	2.282539
28.9747	0.1686835	0.05806136	-0.4461773	-0.5205416	4.236864	6.418925
28.99123	0.1625718	0.05194964	-0.3696288	-0.3696277	2.321597	4.576985
29.00803	0.1576824	0.04583792	-0.2911334	-0.3639185	2.355169	0.1712974
29.02436	0.1515707	0.04094854	-0.3740725	-0.2992577	-2.50325	1.951581
29.04093	0.1503484	0.0397262	-0.07378922	-0.07378922	9.126132	6.852381
29.0575	0.149126	0.03850385	-0.07378162	-0.07378095	0.0002291445	0.0002496078
29.07406	0.1479037	0.03728151	-0.07378072	-0.07378095	2.720794E-05	0
29.09063	0.1430143	0.03483682	-0.2951229	-0.1475617	-6.68012	-2.226707
29.1072	0.1381249	0.03239213	-0.2951238	-0.1475617	-2.698308E-05	0
29.12452	0.1332355	0.02994744	-0.2822867	-0.1411433	0.3788115	0.1893992
29.14033	0.1259015	0.0287251	-0.4637747	-0.07729567	-5.47732	1.926926
29.15695	0.1222344	0.0262804	-0.2206829	-0.1471215	7.495741	-2.153082
29.17346	0.1173451	0.02505806	-0.2960773	-0.07401934	-2.275669	2.206482
29.19003	0.1124557	0.02505806	-0.2951238	-1.124295E-07	0.02882481	2.237511
29.2066	0.1075663	0.02261337	-0.2951229	-0.1475617	2.698308E-05	-4.453416
29.22316	0.106344	0.02261337	-0.07378967	0	6.680234	4.453676
29.24008	0.1038993	0.02261337	-0.1444846	0	-2.111215	0
29.2563	0.1026769	0.02139103	-0.07539522	-0.07539522	2.085241	-2.275563
29.27294	0.1026769	0.02139103	0	0	2.294585	2.294585
29.28943	0.1026769	0.02139103	0	0	0	0
29.30606	0.1026769	0.02139103	0	0	0	0
29.32319	0.1026769	0.02139103	0	0	0	0
29.33913	0.1026769	0.02139103	0	0	0	0
29.3557	0.1026769	0.02139103	0	0	0	0
29.37226	0.1026769	0.02139103	0	0	0	0
29.38883	0.1026769	0.02139103	0	0	0	0
29.4054	0.1026769	0.02139103	0	0	0	0
29.42208	0.1026769	0.02139103	0	0	0	0
29.43854	0.1026769	0.02139103	0	0	0	0
29.45558	0.1026769	0.02139103	0	0	0	0
29.47201	0.1026769	0.02139103	0	0	0	0
29.49272	0.1026769	0.02139103	0	0	0	0
29.50961	0.1026769	0.02139103	0	0	0	0
29.52586	0.1026769	0.02139103	0	0	0	0
29.54243	0.1026769	0.02139103	0	0	0	0
29.55899	0.1026769	0.02139103	0	0	0	0
29.57556	0.1026769	0.02139103	0	0	0	0
29.59218	0.1026769	0.02139103	0	0	0	0
29.60869	0.1026769	0.02139103	0	0	0	0
29.62567	0.1026769	0.02139103	0	0	0	0
29.64183	0.1026769	0.02139103	0	0	0	0
29.65839	0.1026769	0.02139103	0	0	0	0
29.67496	0.1026769	0.02139103	0	0	0	0
29.69153	0.1026769	0.02139103	0	0	0	0
29.7081	0.1026769	0.02139103	0	0	0	0
29.72466	0.1026769	0.02139103	0	0	0	0
29.74123	0.1026769	0.02139103	0	0	0	0
29.7578	0.1026769	0.02139103	0	0	0	0
29.77436	0.1026769	0.02139103	0	0	0	0
29.79093	0.1026769	0.02139103	0	0	0	0
29.80824	0.1026769	0.02139103	0	0	0	0
29.82406	0.1026769	0.02139103	0	0	0	0
29.84063	0.1026769	0.02139103	0	0	0	0
29.85737	0.1026769	0.02139103	0	0	0	0
29.87376	0.1026769	0.02139103	0	0	0	0
29.89033	0.1026769	0.02139103	0	0	0	0
29.90717	0.1026769	0.02139103	0	0	0	0
29.92369	0.1026769	0.02139103	0	0	0	0
29.94003	0.1026769	0.02139103	0	0	0	0
29.95669	0.1026769	0.02139103	0	0	0	0
29.97317	0.1026769	0.02139103	0	0	0	0
29.98973	0.1026769	0.02139103	0	0	0	0
30.0063	0.1026769	0.02139103	0	0	0	0
30.02287	0.1026769	0.02139103	0	0	0	0
30.03973	0.1026769	0.02139103	0	0	0	0
30.056	0.1026769	0.02139103	0	0	0	0
30.07256	0.1026769	0.02139103	0	0	0	0
30.08913	0.1026769	0.02139103	0	0	0	0
30.1057	0.1026769	0.02139103	0	0	0	0
30.12226	0.1014546	0.02139103	-0.07378922	-1.124424E-07	-2.227091	-3.393715E-06
30.13927	0.1014546	0.02139103	0	0	2.197739	3.348987E-06
30.15868	0.1014546	0.02139103	0	0	0	0
30.17525	0.1002322	0.02139103	-0.07377268	0	-2.050476	0
30.19182	0.0990099	0.02139103	-0.07378072	-1.124295E-07	-0.0002426089	-3.392933E-06
30.20839	0.09778756	0.02139103	-0.07378072	1.124295E-07	0	6.786257E-06
30.22516	0.09534287	0.02139103	-0.1457492	0	-2.158594	-3.372164E-06
30.24152	0.09412052	0.02139103	-0.07471882	0	2.143825	0
30.25809	0.08923115	0.02261337	-0.2951233	0.07378083	-6.693822	2.24077
30.27495	0.08556411	0.02383572	-0.2174375	0.07247911	2.323698	-0.03893636
30.29122	0.08189709	0.02505806	-0.2254166	0.07513909	-0.2408248	0.08028287
30.30779	0.0794524	0.02505806	-0.1475619	0	2.371089	-2.288383
30.32435	0.07823005	0.02628041	-0.07378118	0.07378083	2.226707	2.22671
30.34092	0.0770077	0.02628041	-0.07378072	0	1.37164E-05	-2.22671
30.35749	0.0770077	0.02628041	0	0	2.226707	0
30.37406	0.0770077	0.02628041	0	0	0	0
30.39081	0.0770077	0.02628041	0	0	0	0
30.40744	0.07578535	0.02628041	-0.07351036	0	-2.201817	0
30.42398	0.07578535	0.02628041	0	0	2.216251	0
30.44032	0.07578535	0.02628041	0	0	0	0
30.45689	0.07456302	0.02628041	-0.07378028	0	-2.241921	0
30.47346	0.07456302	0.02628041	0	0	2.226693	0
30.49583	0.07456302	0.02628041	0	0	0	0
30.5124	0.07456302	0.02628041	0	0	0	0
30.52897	0.07456302	0.02628041	0	0	0	0
30.54556	0.07456302	0.02628041	0	0	0	0
30.5621	0.07456302	0.02628041	0	0	0	0
30.57867	0.07456302	0.02628041	0	0	0	0
30.5954	0.07456302	0.02628041	0	0	0	0
30.61191	0.07456302	0.02628041	0	0	0	0
30.62837	0.07456302	0.02628041	0	0	0	0
30.64494	0.07456302	0.02628041	0	0	0	0
30.66153	0.07456302	0.02628041	0	0	0	0
30.67807	0.07456302	0.02628041	0	0	0	0
30.69511	0.07456302	0.02628041	0	0	0	0
30.7112	0.07456302	0.02628041	0	0	0	0
30.72816	0.07456302	0.02628041	0	0	0	0
30.74482	0.07456302	0.02628041	0	0	0	0
30.7609	0.07456302	0.02628041	0	0	0	0
30.77747	0.07456302	0.02628041	0	0	0	0
30.79848	0.07456302	0.02628041	0	0	0	0
30.81551	0.07456302	0.02628041	0	0	0	0
30.83161	0.07456302	0.02628041	0	0	0	0
30.84818	0.07456302	0.02628041	0	0	0	0
30.86474	0.07456302	0.02628041	0	0	0	0
30.88131	0.07456302	0.02628041	0	0	0	0
30.89819	0.07456302	0.02628041	0	0	0	0
30.91445	0.07456302	0.02628041	0	0	0	0
30.93119	0.07456302	0.02628041	0	0	0	0
30.94762	0.07456302	0.02628041	0	0	0	0
30.96415	0.07456302	0.02628041	0	0	0	0
30.98072	0.07456302	0.02628041	0	0	0	0
30.99728	0.07456302	0.02628041	0	0	0	0
31.01401	0.07456302	0.02628041	0	0	0	0
31.03086	0.07456302	0.02628041	0	0	0	0
31.04698	0.07456302	0.02628041	0	0	0	0
31.06355	0.07456302	0.02628041	0	0	0	0
31.08012	0.07456302	0.02628041	0	0	0	0
31.09732	0.07456302	0.02628041	0	0	0	0
31.11325	0.07456302	0.02628041	0	0	0	0
31.13001	0.07456302	0.02628041	0	0	0	0
31.14667	0.07456302	0.02628041	0	0	0	0
31.16325	0.07456302	0.02628041	0	0	0	0
31.17952	0.07456302	0.02628041	0	0	0	0
31.19618	0.07456302	0.02628041	0	0	0	0
31.21283	0.07456302	0.02628041	0	0	0	0
31.22928	0.07456302	0.02628041	0	0	0	0
31.24578	0.07456302	0.02628041	0	0	0	0
31.26235	0.07456302	0.02628041	0	0	0	0
31.27892	0.07456302	0.02628041	0	0	0	0
31.29592	0.07456302	0.02628041	0	0	0	0
31.31206	0.07456302	0.02628041	0	0	0	0
31.32873	0.07456302	0.02628041	0	0	0	0
31.34518	0.07456302	0.02628041	0	0	0	0
31.36184	0.07456302	0.02628041	0	0	0	0
31.37832	0.07456302	0.02628041	0	0	0	0
31.39519	0.07456302	0.02628041	0	0	0	0
31.41185	0.07456302	0.02628041	0	0	0	0
31.42802	0.07456302	0.02628041	0	0	0	0
31.45294	0.07456302	0.02628041	0	0	0	0
31.46951	0.07456302	0.02628041	0	0	0	0
31.48608	0.07456302	0.02628041	0	0	0	0
31.50265	0.07456302	0.02628041	0	0	0	0
31.51922	0.07456302	0.02628041	0	0	0	0
31.53578	0.07456302	0.02628041	0	0	0	0
31.55235	0.07456302	0.02628041	0	0	0	0
31.56892	0.07456302	0.02628041	0	0	0	0
31.58549	0.07456302	0.02628041	0	0	0	0
31.60205	0.07456302	0.02628041	0	0	0	0
31.61862	0.07456302	0.02628041	0	0	0	0
31.63519	0.07456302	0.02628041	0	0	0	0
31.65192	0.07456302	0.02628041	0	0	0	0
31.66832	0.07456302	0.02628041	0	0	0	0
31.68504	0.07456302	0.02628041	0	0	0	0
31.70146	0.07456302	0.02628041	0	0	0	0
31.71802	0.07456302	0.02628041	0	0	0	0
31.73459	0.07456302	0.02628041	0	0	0	0
31.75116	0.07456302	0.02628041	0	0	0	0
31.76772	0.07456302	0.02628041	0	0	0	0
31.78429	0.07456302	0.02628041	0	0	0	0
31.80086	0.07456302	0.02628041	0	0	0	0
31.81743	0.07456302	0.02628041	0	0	0	0
31.83412	0.07456302	0.02628041	0	0	0	0
31.85056	0.07456302	0.02628041	0	0	0	0
31.86729	0.07456302	0.02628041	0	0	0	0
31.88399	0.07456302	0.02628041	0	0	0	0
31.90062	0.07456302	0.02628041	0	0	0	0
31.91688	0.07456302	0.02628041	0	0	0	0
31.93339	0.07456302	0.02628041	0	0	0	0
31.94995	0.07456302	0.02628041	0	0	0	0
31.96652	0.07456302	0.02628041	0	0	0	0
31.98362	0.07456302	0.02628041	0	0	0	0
31.99965	0.07456302	0.02628041	0	0	0	0
32.01622	0.07456302	0.02628041	0	0	0	0
32.03279	0.07456302	0.02628041	0	0	0	0
32.04975	0.07456302	0.02628041	0	0	0	0
32.06592	0.07456302	0.02628041	0	0	0	0
32.08249	0.07456302	0.02628041	0	0	0	0
32.09906	0.07456302	0.02628041	0	0	0	0
32.11572	0.07456302	0.02628041	0	0	0	0
32.13229	0.07456302	0.02628041	0	0	0	0
32.14886	0.07456302	0.02628041	0	0	0	0
32.16543	0.07456302	0.02628041	0	0	0	0
32.182	0.07456302	0.02628041	0	0	0	0
32.19856	0.07456302	0.02628041	0	0	0	0
32.21513	0.07456302	0.02628041	0	0	0	0
32.2317	0.07456302	0.02628041	0	0	0	0
32.24826	0.07456302	0.02628041	0	0	0	0
32.26485	0.07456302	0.02628041	0	0	0	0
32.2814	0.07456302	0.02628041	0	0	0	0
32.29797	0.07456302	0.02628041	0	0	0	0
32.31453	0.07456302	0.02628041	0	0	0	0
32.33159	0.07456302	0.02628041	0	0	0	0
32.34767	0.07456302	0.02628041	0	0	0	0
32.36423	0.05378316	0.03116978	-1.254275	0.2951233	-38.42476	9.041114
32.38129	0.008556412	0.04461557	-2.651738	0.7883546	-41.56303	14.66957
32.39737	-0.04889378	0.06050605	-3.572159	0.9880441	-27.77517	6.025948
32.41394	-0.1038993	0.0727295	-3.320138	0.7378086	7.718856	-7.664182
32.43051	-0.149126	0.08128591	-2.729893	0.516466	17.81365	-6.680134
32.44753	-0.17724	0.08739763	-1.651333	0.3589855	32.10743	-4.688003
32.46364	-0.1992422	0.09350935	-1.366116	0.3794766	8.608851	0.6184945
32.48021	-0.2126879	0.09595404	-0.8115889	0.1475614	16.97209	-7.098094
32.49677	-0.2151326	0.09595404	-0.1475614	0	20.04039	-4.453413
32.51334	-0.2151326	0.09595404	0	0	4.453413	0
32.5302	-0.2151326	0.09595404	0	0	0	0
32.54647	-0.2151326	0.09595404	0	0	0	0
32.56304	-0.2151326	0.09595404	0	0	0	0
32.57982	-0.2151326	0.09717639	0	0.07285849	0	2.185038
32.59617	-0.1906857	0.1020658	1.494892	0.2989785	45.12112	6.825101
32.61276	-0.1711282	0.1020658	1.178866	0	-9.592911	-9.07543
32.62931	-0.1527931	0.1032881	1.108244	0.07388235	-2.131375	2.229774
32.6459	-0.1369026	0.1045105	0.9573877	0.07364596	-4.551795	-0.007132458
32.66261	-0.1234568	0.1057328	0.8051015	0.07319088	-4.573365	-0.01366673
32.67901	-0.110011	0.1057328	0.8197048	4.542151E-07	0.4411335	-2.210928
32.69558	-0.0990099	0.1057328	0.6640283	-4.497179E-07	-4.721699	-2.741648E-05
32.71214	-0.09289818	0.1057328	0.3689041	0	-8.906868	1.357251E-05
32.72889	-0.0880088	0.1069551	0.2920307	0.07300745	-2.307822	2.191762
32.74527	-0.08678646	0.1081775	0.07458746	0.07458792	-6.563205	0.04770415
32.76184	-0.08311942	0.1118445	0.2213431	0.2213431	4.453189	4.453176
32.78174	-0.07823005	0.1179562	0.2456816	0.3071018	0.6673836	2.351585
32.79835	-0.05256081	0.1680724	1.545839	3.018066	35.61425	74.25947
32.81535	-0.04033737	0.2047427	0.7189371	2.156811	-24.60468	-25.62689
32.83145	-0.01589048	0.2903068	1.518627	5.315194	24.15972	95.41904
32.84837	0.0110011	0.3563134	1.589149	3.900641	2.13574	-42.83925
32.86542	0.02811392	0.3893167	1.003585	1.935483	-17.23582	-57.84351
32.88115	0.03911502	0.4137636	0.6996293	1.554733	-9.273754	-11.61678
32.89772	0.04767144	0.4320988	0.5163473	1.106458	-5.675204	-13.88054
32.91428	0.04889378	0.4382105	0.07378072	0.3689054	-13.35515	-22.25682
32.93101	0.04889378	0.4382105	0	0	-2.215991	-11.08001
32.94741	0.04889378	0.4382105	0	0	0	0
32.96398	0.04889378	0.4382105	0	0	0	0
32.98055	0.04889378	0.4382105	0	0	0	0
32.99712	0.04889378	0.4382105	0	0	0	0
33.01369	0.04889378	0.4382105	0	0	0	0
33.03025	0.04889378	0.4382105	0	0	0	0
33.04682	0.04889378	0.4320988	2.24859E-07	-0.3689036	6.787038E-06	-11.13482
33.06339	0.04889378	0.4137636	-2.24859E-07	-1.106714	-1.357251E-05	-22.26718
33.08002	0.0550055	0.3856497	0.3674657	-1.690344	11.06848	-17.57956
33.09652	0.07456301	0.3294218	1.185407	-3.408046	24.68836	-51.84631
33.11308	0.08800881	0.3000856	0.8115898	-1.770739	-11.30525	49.51662
33.12965	0.1014546	0.2756387	0.8115893	-1.475616	-1.439097E-05	8.906826
33.14622	0.110011	0.2536365	0.5164655	-1.328057	-8.906853	4.453359
33.16278	0.1161227	0.2365237	0.368905	-1.032932	-4.453387	8.906883
33.17957	0.1185674	0.2255226	0.1456499	-0.6554253	-6.693925	11.3189
33.19592	0.1197898	0.2181885	0.07477985	-0.4486772	-2.139108	6.240386
33.21248	0.1197898	0.2108544	-4.497179E-07	-0.4426861	-2.272045	0.1820273
33.22905	0.1185674	0.2047427	-0.07378072	-0.3689036	-2.226693	2.22676
33.24562	0.113678	0.1961863	-0.2951238	-0.516466	-6.680147	-4.45344
33.26218	0.110011	0.1876299	-0.2213422	-0.516466	2.226733	0
33.27875	0.1051216	0.1802958	-0.2951238	-0.4426852	-2.226733	2.226707
33.29563	0.0990099	0.1717394	-0.3621497	-0.5070099	-2.004157	-1.923385
33.31203	0.09534287	0.163183	-0.223608	-0.5217519	4.163461	-0.4430296
33.32875	0.09045349	0.1546266	-0.29243	-0.5117526	-2.078008	0.3019195
33.34502	0.08556411	0.1460702	-0.3004502	-0.525788	-0.2430863	-0.4254014
33.3616	0.08434177	0.1411808	-0.0737298	-0.2949201	6.901231	7.027478
33.37831	0.08189708	0.1387361	-0.1463154	-0.146314	-2.180595	4.46438
33.39472	0.08189708	0.1362914	0	-0.148935	4.417332	-0.07912732
33.41149	0.08067474	0.1362914	-0.07289119	0	-2.196573	4.488149
33.4319	0.08067474	0.1350691	0	-0.0598934	1.960598	-1.610989
33.44847	0.08067474	0.1338467	0	-0.07376374	0	-0.3750802
33.46504	0.08067474	0.1326244	0	-0.07378072	0	-0.0005123946
33.48161	0.07945239	0.1326244	-0.07378118	0	-2.22672	2.226707
33.49817	0.07945239	0.1326244	0	0	2.22672	0
33.51474	0.07945239	0.1326244	0	0	0	0
33.53152	0.07945239	0.1326244	0	0	0	0
33.54787	0.07945239	0.1326244	0	0	0	0
33.56444	0.07945239	0.1326244	0	0	0	0
33.58101	0.07945239	0.131402	0	-0.07378072	0	-2.226707
33.59757	0.07945239	0.131402	0	0	0	2.226707
33.61414	0.07945239	0.131402	0	0	0	0
33.63096	0.07945239	0.131402	0	0	0	0
33.64731	0.07945239	0.131402	0	0	0	0
33.66397	0.07945239	0.131402	0	0	0	0
33.68041	0.07945239	0.131402	0	0	0	0
33.69698	0.07823005	0.1289573	-0.07378072	-0.1475614	-2.235457	-4.470914
33.71382	0.07823005	0.1289573	0	0	2.208401	4.416801
33.73011	0.07823005	0.127735	0	-0.07502451	0	-2.264244
33.74668	0.0770077	0.1265127	-0.07378118	-0.07378072	-2.245332	0.03785126
33.76324	0.0770077	0.1252903	0	-0.07378162	2.22672	-2.720794E-05
33.77982	0.07578535	0.1228456	-0.07376374	-0.1475275	-2.225938	-2.225398
33.79638	0.07456302	0.1191786	-0.07378028	-0.2213422	-0.0004989046	-2.227475
33.81295	0.07456301	0.1167339	-4.497179E-07	-0.1475624	2.22668	2.226679
33.82952	0.07334067	0.1142892	-0.07378072	-0.1475619	-2.226693	1.394126E-05
33.84608	0.07334068	0.1130669	4.498215E-07	-0.07379727	2.226976	2.226477
33.86265	0.07334067	0.1118445	-4.497179E-07	-0.07378072	-2.715128E-05	0.0004994693
33.87921	0.07334067	0.1118445	0	0	1.357408E-05	2.226963
33.89578	0.07334067	0.1118445	0	0	0	0
33.91235	0.07334067	0.1118445	0	0	0	0
33.92902	0.07334067	0.1106222	0	-0.07330854	0	-2.205347
33.94548	0.07334067	0.1106222	0	0	0	2.212456
33.96205	0.07334067	0.1106222	0	0	0	0
33.97873	0.07334067	0.1106222	0	0	0	0
33.99518	0.07334067	0.1106222	0	0	0	0
34.01175	0.07334067	0.1106222	0	0	0	0
34.02832	0.07334067	0.1093998	0	-0.07378072	0	-2.226707
34.04496	0.07334067	0.1093998	0	0	0	2.221847
34.06145	0.07334067	0.1093998	0	0	0	0
34.07922	0.07334067	0.1093998	0	0	0	0
34.09578	0.07334067	0.1093998	0	0	0	0
34.11235	0.07334067	0.1093998	0	0	0	0
34.12892	0.07334067	0.1093998	0	0	0	0
34.14549	0.07334067	0.1093998	0	0	0	0
34.16205	0.07334067	0.1093998	0	0	0	0
34.17862	0.07334067	0.1093998	0	0	0	0
34.19519	0.07334067	0.1093998	0	0	0	0
34.21175	0.07334067	0.1093998	0	0	0	0
34.22832	0.07334067	0.1093998	0	0	0	0
34.24488	0.07334067	0.1093998	0	0	0	0
34.26145	0.07334067	0.1093998	0	0	0	0
34.27802	0.07334067	0.1093998	0	0	0	0
34.29467	0.07334067	0.1093998	0	0	0	0
34.31115	0.07334067	0.1081775	0	-0.07417399	0	-2.238576
34.32772	0.07211832	0.1081775	-0.07378118	0	-2.232632	2.244519
34.34496	0.07211832	0.1081775	0	0	2.182251	0
34.36087	0.07211832	0.1081775	0	0	0	0
34.37742	0.07211832	0.1081775	0	0	0	0
34.39441	0.07211833	0.1069551	4.386088E-07	-0.07195772	1.307913E-05	-2.14575
34.41058	0.07211833	0.1069551	0	0	-1.322658E-05	2.16994
34.42712	0.07211833	0.1069551	0	0	0	0
34.44403	0.07211833	0.1069551	0	0	0	0
34.46046	0.07211833	0.1069551	0	0	0	0
34.47681	0.07211833	0.1069551	0	0	0	0
34.49338	0.07211833	0.1069551	0	0	0	0
34.51017	0.07211833	0.1069551	0	0	0	0
34.52673	0.07211833	0.1069551	0	0	0	0
34.54308	0.07211833	0.1057328	0	-0.0747624	0	-2.272028
34.55991	0.07211833	0.1057328	0	0	0	2.252703
34.5765	0.07089598	0.1032881	-0.07371283	-0.1474261	-2.205613	-4.41124
34.59278	0.06967364	0.1008434	-0.07507771	-0.1501545	-0.0415314	-0.08302107
34.60934	0.06967364	0.09839873	0	-0.1475619	2.285585	0.07892612
34.62642	0.06845129	0.09717639	-0.0716044	-0.0716044	-2.128676	2.258086
34.64248	0.06845129	0.0947317	0	-0.1521875	2.161025	-2.432001
34.65905	0.06722894	0.09350935	-0.07378118	-0.07378072	-2.261082	2.402835
34.67561	0.06722894	0.09350935	0	0	2.22672	2.226707
34.69218	0.06722894	0.09350935	0	0	0	0
34.70875	0.06722895	0.09228701	4.497179E-07	-0.07378072	1.357251E-05	-2.226707
34.72532	0.06722895	0.09228701	0	0	-1.357251E-05	2.226707
34.74474	0.06722895	0.09228701	0	0	0	0
34.76131	0.06722895	0.09228701	0	0	0	0
34.77788	0.06722895	0.09228701	0	0	0	0
34.79445	0.06722895	0.09228701	0	0	0	0
34.81102	0.06722895	0.09228701	0	0	0	0
34.82758	0.06722895	0.09228701	0	0	0	0
34.84415	0.06722895	0.09228701	0	0	0	0
34.86072	0.06722895	0.09228701	0	0	0	0
34.87729	0.06722895	0.09228701	0	0	0	0
34.89385	0.06722895	0.09228701	0	0	0	0
34.91042	0.06722895	0.09228701	0	0	0	0
34.92699	0.06722895	0.09228701	0	0	0	0
34.9438	0.06722895	0.09228701	0	0	0	0
34.96012	0.06722895	0.09228701	0	0	0	0
34.97668	0.06722895	0.09228701	0	0	0	0
34.99561	0.06722895	0.09228701	0	0	0	0
35.01218	0.06722895	0.09228701	0	0	0	0
35.02875	0.06722895	0.09228701	0	0	0	0
35.04531	0.06722895	0.09228701	0	0	0	0
35.06188	0.06722895	0.09228701	0	0	0	0
35.07845	0.06722895	0.09228701	0	0	0	0
35.09502	0.06722895	0.09228701	0	0	0	0
35.11158	0.06722895	0.09228701	0	0	0	0
35.12836	0.06722895	0.09228701	0	0	0	0
35.14477	0.06722895	0.09228701	0	0	0	0
35.16129	0.06722895	0.09228701	0	0	0	0
35.17792	0.06722895	0.09228701	0	0	0	0
35.19442	0.06722895	0.09228701	0	0	0	0
35.21103	0.06722895	0.09228701	0	0	0	0
35.22755	0.07334067	0.08984232	0.3700116	-0.1480049	11.16826	-4.467312
35.24411	0.08556412	0.08984232	0.7378091	0	11.11679	4.473493
35.26068	0.1014546	0.08984233	0.9591508	4.497179E-07	6.680107	1.357251E-05
35.27724	0.1283462	0.09106467	1.623553	0.07379772	20.054	2.227463
35.29381	0.1625718	0.09595405	2.065865	0.2951233	13.35054	6.680389
35.31038	0.1992422	0.09962108	2.213425	0.2213426	4.453388	-2.226707
35.32695	0.2346901	0.1008434	2.139645	0.07378072	-2.226708	-4.453427
35.34351	0.2640264	0.1020658	1.77074	0.07378072	-11.13356	0
35.36014	0.2774722	0.1020658	0.8087963	0	-28.98147	-2.222868
35.37664	0.2835839	0.1020658	0.3702677	0	-13.23634	0
35.39339	0.2835839	0.1020658	0	0	-11.13496	0
35.40978	0.2835839	0.1020658	0	0	0	0
35.42635	0.2835839	0.1020658	0	0	0	0
35.44292	0.2835839	0.1020658	0	0	0	0
35.45948	0.2835839	0.1020658	0	0	0	0
35.47641	0.2835839	0.1020658	0	0	0	0
35.49334	0.2835839	0.1020658	0	0	0	0
35.50921	0.2835839	0.1020658	0	0	0	0
35.52583	0.2835839	0.1020658	0	0	0	0
35.54232	0.2835839	0.1020658	0	0	0	0
35.55911	0.2835839	0.1020658	0	0	0	0
35.57545	0.2835839	0.1020658	0	0	0	0
35.59202	0.2835839	0.1020658	0	0	0	0
35.60859	0.2835839	0.1020658	0	0	0	0
35.62545	0.2835839	0.1020658	0	0	0	0
35.64172	0.2835839	0.1020658	0	0	0	0
35.65828	0.2835839	0.1020658	0	0	0	0
35.67485	0.2835839	0.1020658	0	0	0	0
35.69142	0.2835839	0.1020658	0	0	0	0
35.70815	0.2835839	0.1020658	0	0	0	0
35.7246	0.2835839	0.1020658	0	0	0	0
35.74112	0.2835839	0.1020658	0	0	0	0
35.75769	0.2835839	0.1020658	0	0	0	0
35.77425	0.2835839	0.1020658	0	0	0	0
35.79082	0.2835839	0.1020658	0	0	0	0
35.80739	0.2835839	0.1020658	0	0	0	0
35.82419	0.2835839	0.1020658	0	0	0	0
35.84061	0.2835839	0.1020658	0	0	0	0
35.85709	0.2835839	0.1020658	0	0	0	0
35.87366	0.2835839	0.1020658	0	0	0	0
35.89022	0.2835839	0.1020658	0	0	0	0
35.90679	0.2835839	0.1020658	0	0	0	0
35.92359	0.2835839	0.1020658	0	0	0	0
35.9402	0.2835839	0.1020658	0	0	0	0
35.95651	0.2835839	0.1020658	0	0	0	0
35.97306	0.2835839	0.1020658	0	0	0	0
35.98975	0.2835839	0.1020658	0	0	0	0
36.00619	0.2835839	0.1020658	0	0	0	0
36.02276	0.2835839	0.1020658	0	0	0	0
36.03992	0.2835839	0.1020658	0	0	0	0
36.0565	0.2835839	0.1020658	0	0	0	0
36.07309	0.2835839	0.1020658	0	0	0	0
36.0903	0.2835839	0.1020658	0	0	0	0
36.10668	0.2835839	0.1020658	0	0	0	0
36.12276	0.2835839	0.1020658	0	0	0	0
36.13933	0.2835839	0.1020658	0	0	0	0
36.1562	0.2835839	0.1020658	0	0	0	0
36.17246	0.2835839	0.1020658	0	0	0	0
36.18905	0.2835839	0.1020658	0	0	0	0
36.20567	0.2835839	0.1020658	0	0	0	0
36.22216	0.2835839	0.1020658	0	0	0	0
36.23926	0.2835839	0.1020658	0	0	0	0
36.25597	0.2835839	0.1020658	0	0	0	0
36.27186	0.2835839	0.1020658	0	0	0	0
36.28843	0.2835839	0.1020658	0	0	0	0
36.30531	0.2835839	0.1020658	0	0	0	0
36.32156	0.2835839	0.1020658	0	0	0	0
36.33835	0.2835839	0.1020658	0	0	0	0
36.35469	0.2835839	0.1020658	0	0	0	0
36.37156	0.2835839	0.1020658	0	0	0	0
36.38806	0.2835839	0.1020658	0	0	0	0
36.40451	0.2835839	0.1020658	0	0	0	0
36.42096	0.2835839	0.1020658	0	0	0	0
36.43753	0.2835839	0.1020658	0	0	0	0
36.4541	0.2835839	0.1020658	0	0	0	0
36.47104	0.2835839	0.1020658	0	0	0	0
36.48723	0.2835839	0.1020658	0	0	0	0
36.5038	0.2835839	0.1020658	0	0	0	0
36.52037	0.2835839	0.1008434	0	-0.07378072	0	-2.226707
36.53741	0.2835839	0.1008434	0	0	0	2.194868
36.55398	0.2835839	0.1008434	0	0	0	0
36.57052	0.2835839	0.1008434	0	0	0	0
36.58663	0.2823616	0.1008434	-0.07587726	0	-2.32396	0
36.60352	0.2811392	0.1008434	-0.07238077	0	0.1059635	0
36.61976	0.2774722	0.1008434	-0.2257607	4.586954E-07	-4.629548	1.384505E-05
36.63678	0.2701381	0.09839872	-0.4308799	-0.1436273	-6.166371	-4.317794
36.6529	0.2676935	0.09839873	-0.1517168	4.623876E-07	8.425159	4.334696
36.66946	0.2652487	0.09717639	-0.1475632	-0.07378072	0.1270942	-2.257651
36.69904	0.2640264	0.09717639	-0.04132444	0	2.302213	1.59884
36.7159	0.2640264	0.09717639	0	0	0.8898433	0
36.73243	0.2640264	0.09717639	0	0	0	0
36.74874	0.2640264	0.09717639	0	0	0	0
36.76531	0.2640264	0.09717639	0	0	0	0
36.78188	0.2628041	0.09717638	-0.07378072	-4.497179E-07	-2.226707	-1.357251E-05
36.79845	0.2628041	0.09717638	0	0	2.226707	1.357251E-05
36.81501	0.2628041	0.09717638	0	0	0	0
36.83158	0.2628041	0.09717638	0	0	0	0
36.84815	0.2628041	0.09717638	0	0	0	0
36.8649	0.2628041	0.09717638	0	0	0	0
36.88128	0.2628041	0.09717638	0	0	0	0
36.89808	0.2628041	0.09717638	0	0	0	0
36.91452	0.2628041	0.09473169	0	-0.1486917	0	-4.473619
36.93114	0.2628041	0.08128591	0	-0.8089811	0	-19.97126
36.9476	0.2652487	0.03605916	0.1484846	-2.746969	4.48799	-58.57627
36.96412	0.2725828	-0.04950495	0.4441178	-5.181363	8.964543	-73.81857
36.98068	0.290918	-0.1521819	1.106713	-6.197593	20.02944	-30.7194
36.99764	0.3080308	-0.2194108	1.009002	-3.963937	-2.914353	66.62185
37.01382	0.3116978	-0.2450801	0.2267191	-1.587038	-23.60935	71.73497
37.03038	0.3141425	-0.2573035	0.1475614	-0.7378073	-2.417652	25.93739
37.04695	0.3141425	-0.2621929	0	-0.2951247	-4.453413	13.36019
37.06352	0.3141425	-0.2621929	0	0	0	8.906881
37.08009	0.3141425	-0.2621929	0	0	0	0
37.09665	0.3141425	-0.2621929	0	0	0	0
37.11322	0.3141425	-0.2621929	0	0	0	0
37.12979	0.3141425	-0.2621929	0	0	0	0
37.14657	0.3141425	-0.2621929	0	0	0	0
37.16321	0.3141425	-0.2621929	0	0	0	0
37.17961	0.3141425	-0.2621929	0	0	0	0
37.19632	0.3141425	-0.2621929	0	0	0	0
37.21262	0.3141425	-0.2621929	0	0	0	0
37.22974	0.3141425	-0.2621929	0	0	0	0
37.24575	0.3141425	-0.2621929	0	0	0	0
37.26275	0.3141425	-0.2621929	0	0	0	0
37.27889	0.3141425	-0.2621929	0	0	0	0
37.29546	0.3129202	-0.2585258	-0.07378072	0.221344	-2.256057	6.768225
37.31202	0.3068085	-0.2524141	-0.3689036	0.3689036	-8.906827	4.453359
37.32859	0.2933627	-0.2365237	-0.811588	0.9591512	-13.36024	17.81371
37.34594	0.2774722	-0.2157438	-0.9159194	1.197738	-3.076128	7.034542
37.36251	0.2408019	-0.1741841	-2.212915	2.507972	-38.23657	38.62687
37.37908	0.2310231	-0.1656277	-0.5902485	0.516466	48.96653	-60.09687
37.39637	0.2102433	-0.1436255	-1.201436	1.272109	-18.0488	22.31467
37.41221	0.1870187	-0.1204009	-1.466323	1.466324	-7.994283	5.861408
37.42878	0.1699059	-0.1008434	-1.032933	1.180494	13.37381	-8.820313
37.44535	0.1576824	-0.08861998	-0.7378082	0.7378086	8.906881	-13.36027
37.46191	0.1503484	-0.08006357	-0.4426852	0.516466	8.906827	-6.680134
37.47848	0.145459	-0.07395184	-0.2951927	0.3689895	4.451848	-4.451361
37.49504	0.141792	-0.06906246	-0.2213413	0.2951233	2.229096	-2.229542
37.51205	0.1381249	-0.06417309	-0.2156324	0.2875102	0.1700442	-0.2267613
37.52846	0.1356802	-0.0617284	-0.1490033	0.1490026	1.994109	-4.145329
37.54475	0.1332356	-0.05806137	-0.1500842	0.2251267	-0.03305751	2.328254
37.56131	0.1307909	-0.05561668	-0.1475963	0.1475957	0.07572827	-2.359997
37.57807	0.1283462	-0.05194964	-0.1458487	0.2187736	0.0524406	2.135859
37.59444	0.1259015	-0.04706026	-0.1493506	0.2987	-0.1056977	2.412463
37.61101	0.1234568	-0.04461557	-0.1475614	0.1475617	0.05432104	-4.588836
37.62757	0.1210121	-0.04094854	-0.1475614	0.2213426	0	2.226714
37.64414	0.1161227	-0.03361448	-0.2951233	0.442685	-4.453427	6.680127
37.66071	0.1124557	-0.02750275	-0.2213431	0.3689044	2.226693	-2.226704
37.67728	0.1075663	-0.01894634	-0.2951233	0.516466	-2.226693	4.453416
37.69406	0.1038993	-0.01161227	-0.2185249	0.4370497	2.296937	-2.381433
37.71041	0.09778756	-0.001833517	-0.373723	0.5979571	-4.683887	4.856194
37.72726	0.09289818	0.01038993	-0.2902447	0.725612	2.514457	3.845107
37.74355	0.08923115	0.017724	-0.2251267	0.4502534	1.965266	-8.310341
37.76052	0.08678646	0.02383572	-0.1440138	0.3600339	2.438448	-2.712213
37.77679	0.08556411	0.0287251	-0.07511245	0.3004504	2.072289	-1.792045
37.79324	0.08311943	0.03239213	-0.1486223	0.2229339	-2.246464	-2.368906
37.80999	0.08311942	0.03361447	-4.450046E-07	0.07300745	4.477684	-4.516989
37.82638	0.08311943	0.03483682	4.544265E-07	0.07455344	2.714176E-05	0.04665264
37.84295	0.08311943	0.03483682	0	0	-1.378604E-05	-2.261745
37.85978	0.08189708	0.03605916	-0.07261084	0.07261062	-2.17388	2.173874
37.87625	0.08189708	0.03605916	0	0	2.180604	-2.180598
37.89265	0.08189708	0.03605916	0	0	0	0
37.90921	0.08189708	0.03605916	0	0	0	0
37.92578	0.08189708	0.03605916	0	0	0	0
37.94235	0.08189708	0.03605916	0	0	0	0
37.95892	0.08189708	0.03605916	0	0	0	0
37.97581	0.08189708	0.03605916	0	0	0	0
37.99232	0.08189708	0.03605916	0	0	0	0
38.00927	0.08189708	0.03605916	0	0	0	0
38.02584	0.08189708	0.03605916	0	0	0	0
38.04283	0.08189708	0.03605916	0	0	0	0
38.05897	0.08189708	0.03605916	0	0	0	0
38.07554	0.08189708	0.03605916	0	0	0	0
38.09211	0.08189708	0.03605916	0	0	0	0
38.10867	0.08189708	0.03605916	0	0	0	0
38.12585	0.08189708	0.03605916	0	0	0	0
38.14181	0.08189708	0.03605916	0	0	0	0
38.15837	0.08189708	0.03605916	0	0	0	0
38.17494	0.08189708	0.03605916	0	0	0	0
38.19151	0.08189708	0.03605916	0	0	0	0
38.20808	0.08189708	0.03605916	0	0	0	0
38.22464	0.08189708	0.03605916	0	0	0	0
38.24121	0.08189708	0.03605916	0	0	0	0
38.25806	0.08189708	0.03605916	0	0	0	0
38.27434	0.08189708	0.03605916	0	0	0	0
38.29099	0.08189708	0.03605916	0	0	0	0
38.30763	0.08189708	0.03605916	0	0	0	0
38.32404	0.08189708	0.03605916	0	0	0	0
38.34079	0.08189708	0.03605916	0	0	0	0
38.35722	0.08189708	0.03605916	0	0	0	0
38.37392	0.08189708	0.03605916	0	0	0	0
38.39031	0.08189708	0.03605916	0	0	0	0
38.40692	0.08189708	0.03605916	0	0	0	0
38.42344	0.08189708	0.03605916	0	0	0	0
38.44001	0.08189708	0.03605916	0	0	0	0
38.45675	0.08189708	0.03605916	0	0	0	0
38.47314	0.08189708	0.03605916	0	0	0	0
38.48985	0.08189708	0.03605916	0	0	0	0
38.50628	0.08189708	0.03605916	0	0	0	0
38.52296	0.08189708	0.03605916	0	0	0	0
38.53941	0.08189708	0.03605916	0	0	0	0
38.55597	0.08189708	0.03605916	0	0	0	0
38.57254	0.08189708	0.03605916	0	0	0	0
38.58911	0.08189708	0.03605916	0	0	0	0
38.60567	0.08189708	0.03605916	0	0	0	0
38.62224	0.08189708	0.03605916	0	0	0	0
38.63881	0.08189708	0.03605916	0	0	0	0
38.65545	0.08189708	0.03605916	0	0	0	0
38.67204	0.08189708	0.03605916	0	0	0	0
38.68856	0.08189708	0.03605916	0	0	0	0
38.70507	0.08189708	0.03605916	0	0	0	0
38.72165	0.08189708	0.03605916	0	0	0	0
38.73917	0.08189708	0.03605916	0	0	0	0
38.75478	0.08189708	0.03605916	0	0	0	0
38.77143	0.08189708	0.03605916	0	0	0	0
38.78791	0.08189708	0.03605916	0	0	0	0
38.8047	0.08189708	0.03605916	0	0	0	0
38.82104	0.08189708	0.03605916	0	0	0	0
38.83772	0.08189708	0.03605916	0	0	0	0
38.85432	0.08189708	0.03605916	0	0	0	0
38.87077	0.08189708	0.03605916	0	0	0	0
38.8876	0.08189708	0.03605916	0	0	0	0
38.9047	0.08189708	0.03605916	0	0	0	0
38.92044	0.08189708	0.03605916	0	0	0	0
38.93739	0.08189708	0.03605916	0	0	0	0
38.95391	0.08067474	0.03605916	-0.07396808	0	-2.210223	0
38.97041	0.0794524	0.03605916	-0.07410492	0	-0.004144298	0
38.98671	0.0794524	0.03605916	0	0	2.259119	0
39.00344	0.07823005	0.03605916	-0.07309116	0	-2.212774	0
39.02058	0.0770077	0.03605916	-0.07128581	0	0.05330124	0
39.03675	0.07456302	0.03605916	-0.1511817	0	-2.398012	0
39.0533	0.07334068	0.03605916	-0.07389984	0	2.362564	0
39.06954	0.07334068	0.03605916	0	0	2.253915	0
39.08611	0.07334068	0.03605916	0	0	0	0
39.11551	0.07334068	0.03605916	0	0	0	0
39.13208	0.07211833	0.03483682	-0.07376419	-0.07376397	-1.604717	-1.604712
39.14864	0.07211833	0.03483682	0	0	2.225951	2.225945
39.16521	0.07211833	0.03483682	0	0	0	0
39.18177	0.07211833	0.03361447	0	-0.07378095	0	-2.22697
39.1985	0.07211833	0.03361447	0	0	0	2.216252
39.21491	0.07211833	0.03361447	0	0	0	0
39.23148	0.07211833	0.03361447	0	0	0	0
39.24804	0.07211833	0.03361447	0	0	0	0
39.26461	0.07211833	0.03361447	0	0	0	0
39.28118	0.07211833	0.03361447	0	0	0	0
39.29777	0.07211833	0.03361447	0	0	0	0
39.31433	0.07211833	0.03361447	0	0	0	0
39.33088	0.07211833	0.03361447	0	0	0	0
39.34781	0.07211833	0.03361447	0	0	0	0
39.36401	0.07211833	0.03361447	0	0	0	0
39.38058	0.07211833	0.03361447	0	0	0	0
39.39753	0.07211833	0.03361447	0	0	0	0
39.41371	0.07211833	0.03361447	0	0	0	0
39.43027	0.07578536	0.02994744	0.2213426	-0.2213424	6.760298	-6.760292
39.44688	0.0794524	0.02750275	0.2208341	-0.1472228	-0.01532853	2.234361
39.46341	0.08678646	0.02505806	0.4437065	-0.1479023	6.7263	-0.02050849
39.47998	0.09656522	0.02139103	0.5902472	-0.2213425	4.427705	-2.218984
39.49654	0.1197898	0.01283462	1.401837	-0.516466	24.49382	-8.906845
39.51311	0.145459	0.006722894	1.549398	-0.3689043	4.453413	4.453422
39.52968	0.1760176	-0.0006111722	1.844522	-0.4426851	8.906855	-2.22671
39.54625	0.2041315	-0.007945239	1.696959	-0.4426851	-4.453442	0
39.56281	0.2310231	-0.01405696	1.623179	-0.3689044	-2.226708	2.226708
39.57944	0.2493583	-0.02016868	1.102398	-0.3674659	-15.68648	0.04332737
39.59603	0.25547	-0.02139103	0.3685651	-0.07371306	-22.09372	8.844096
39.61251	0.25547	-0.02261337	0	-0.07413933	-11.14513	-0.01289008
39.6297	0.25547	-0.02261337	0	0	0	2.202037
39.68446	0.25547	-0.02261337	0	0	0	0
39.70103	0.25547	-0.02261337	0	0	0	0
39.71774	0.25547	-0.02261337	0	0	0	0
39.73417	0.25547	-0.02261337	0	0	0	0
39.75073	0.25547	-0.02261337	0	0	0	0
39.7673	0.25547	-0.02261337	0	0	0	0
39.78409	0.25547	-0.02261337	0	0	0	0
39.80043	0.25547	-0.02261337	0	0	0	0
39.81709	0.25547	-0.02261337	0	0	0	0
39.83356	0.25547	-0.02261337	0	0	0	0
39.85013	0.25547	-0.02261337	0	0	0	0
39.86692	0.25547	-0.02261337	0	0	0	0
39.88326	0.25547	-0.02261337	0	0	0	0
39.89983	0.25547	-0.02261337	0	0	0	0
39.9164	0.25547	-0.02261337	0	0	0	0
39.93296	0.25547	-0.02261337	0	0	0	0
39.94953	0.25547	-0.02261337	0	0	0	0
39.96609	0.25547	-0.02261337	0	0	0	0
39.98266	0.25547	-0.02261337	0	0	0	0
40.00635	0.25547	-0.02261337	0	0	0	0
40.02292	0.25547	-0.02261337	0	0	0	0
40.03949	0.25547	-0.02261337	0	0	0	0
40.05605	0.25547	-0.02261337	0	0	0	0
40.07262	0.25547	-0.02261337	0	0	0	0
40.08919	0.25547	-0.02261337	0	0	0	0
40.10575	0.25547	-0.02261337	0	0	0	0
40.12232	0.25547	-0.02261337	0	0	0	0
40.13889	0.25547	-0.02261337	0	0	0	0
40.15546	0.25547	-0.02261337	0	0	0	0
40.17202	0.25547	-0.02261337	0	0	0	0
40.18859	0.25547	-0.02261337	0	0	0	0
40.20516	0.25547	-0.02261337	0	0	0	0
40.22173	0.25547	-0.02261337	0	0	0	0
40.23829	0.25547	-0.02261337	0	0	0	0
40.25538	0.25547	-0.02261337	0	0	0	0
40.27143	0.25547	-0.02261337	0	0	0	0
40.28799	0.25547	-0.02261337	0	0	0	0
40.30456	0.25547	-0.02261337	0	0	0	0
40.32113	0.25547	-0.02261337	0	0	0	0
40.3377	0.25547	-0.02261337	0	0	0	0
40.35426	0.25547	-0.02261337	0	0	0	0
40.37083	0.25547	-0.02261337	0	0	0	0
40.38763	0.25547	-0.02261337	0	0	0	0
40.4041	0.25547	-0.02261337	0	0	0	0
40.42053	0.25547	-0.02261337	0	0	0	0
40.4371	0.25547	-0.02261337	0	0	0	0
40.45366	0.25547	-0.02261337	0	0	0	0
40.47023	0.25547	-0.02261337	0	0	0	0
40.48679	0.25547	-0.02261337	0	0	0	0
40.50336	0.25547	-0.02261337	0	0	0	0
40.52003	0.25547	-0.02261337	0	0	0	0
40.53667	0.25547	-0.02261337	0	0	0	0
40.55306	0.25547	-0.02261337	0	0	0	0
40.56979	0.25547	-0.02261337	0	0	0	0
40.58658	0.25547	-0.02261337	0	0	0	0
40.60276	0.25547	-0.02261337	0	0	0	0
40.61971	0.25547	-0.02261337	0	0	0	0
40.63626	0.25547	-0.02261337	0	0	0	0
40.65406	0.25547	-0.02261337	0	0	0	0
40.67064	0.25547	-0.02261337	0	0	0	0
40.6872	0.25547	-0.02261337	0	0	0	0
40.70377	0.25547	-0.02261337	0	0	0	0
40.72034	0.25547	-0.02261337	0	0	0	0
40.7369	0.25547	-0.02261337	0	0	0	0
40.75347	0.25547	-0.02261337	0	0	0	0
40.77004	0.25547	-0.02261337	0	0	0	0
40.78661	0.25547	-0.02261337	0	0	0	0
40.80317	0.25547	-0.02261337	0	0	0	0
40.81974	0.25547	-0.02261337	0	0	0	0
40.83631	0.25547	-0.02261337	0	0	0	0
40.85287	0.25547	-0.02261337	0	0	0	0
40.87004	0.25547	-0.02261337	0	0	0	0
40.88611	0.25547	-0.02261337	0	0	0	0
40.90258	0.25547	-0.02261337	0	0	0	0
40.91915	0.25547	-0.02261337	0	0	0	0
40.93584	0.25547	-0.02261337	0	0	0	0
40.95228	0.25547	-0.02261337	0	0	0	0
40.96885	0.25547	-0.02261337	0	0	0	0
40.98577	0.25547	-0.02261337	0	0	0	0
41.00204	0.25547	-0.02261337	0	0	0	0
41.0195	0.25547	-0.02261337	0	0	0	0
41.03515	0.25547	-0.02261337	0	0	0	0
41.05171	0.2542477	-0.02261337	-0.07383172	1.125072E-07	-2.292377	3.4932E-06
41.06825	0.2530253	-0.02261337	-0.07389984	0	-0.00205803	-3.399388E-06
41.08482	0.2505806	-0.02139103	-0.1475614	0.07378083	-2.224905	2.228506
41.10138	0.2481359	-0.02016868	-0.1475624	0.07378083	-2.743279E-05	0
41.11826	0.2444689	-0.01894634	-0.2172413	0.0724136	-2.083249	-0.04087729
41.13451	0.2395795	-0.01650165	-0.300873	0.1504367	-2.524297	2.355013
41.15108	0.2322455	-0.01038993	-0.4426852	0.3689044	-4.321195	6.656978
41.16765	0.2139103	0.01283462	-1.106714	1.401836	-20.04041	31.17395
41.18422	0.1796846	0.06417309	-2.065864	3.098796	-28.94721	51.21435
41.20078	0.1185674	0.1656277	-3.689043	6.123812	-48.98764	91.29514
41.21734	0.03544799	0.2939739	-5.01941	7.75056	-40.15979	49.10666
41.23391	-0.03055861	0.4052072	-3.984166	6.714057	31.2509	-31.28892
41.25054	-0.06111722	0.4626574	-1.83733	3.454179	64.6651	-98.19115
41.26705	-0.06967364	0.4834372	-0.5183757	1.258914	39.80152	-66.2456
41.28361	-0.06967364	0.4846596	-4.498215E-07	0.07379951	15.67527	-35.83696
41.30018	-0.06967364	0.4846596	0	0	1.35772E-05	-2.22753
41.31675	-0.06967364	0.4846596	0	0	0	0
41.33331	-0.06967364	0.4846596	0	0	0	0
41.34988	-0.06967364	0.4846596	0	0	0	0
41.36645	-0.06967364	0.4846596	0	0	0	0
41.38301	-0.06967364	0.4846596	0	0	0	0
41.39958	-0.06722895	0.4773255	0.1475619	-0.4426861	4.453427	-13.36029
41.41639	-0.05989488	0.4602127	0.4363557	-1.018162	8.653051	-17.24284
41.43272	-0.04644909	0.4296541	0.8235356	-1.871672	11.68511	-25.75898
41.44928	-0.01466813	0.3660922	1.918302	-3.836605	33.28152	-59.73504
41.46611	0.02689158	0.2976409	2.470437	-4.068957	16.53591	-6.958735
41.48242	0.05867253	0.241413	1.94836	-3.447098	-15.75633	18.76777
41.49927	0.09656522	0.1802958	2.248379	-3.626416	9.046271	-5.406876
41.51558	0.113678	0.1485149	1.049607	-1.949273	-36.15403	50.58136
41.53263	0.1222344	0.1265127	0.5017923	-1.290323	-16.42342	19.75524
41.54886	0.1283462	0.1069551	0.376446	-1.204626	-3.765617	2.574486
41.56594	0.1344579	0.09106467	0.3578629	-0.9304427	-0.5578213	8.230323
41.58192	0.1405696	0.07761888	0.3823753	-0.8412249	0.741406	2.698501
41.59838	0.1442367	0.06906247	0.2228301	-0.5199378	-4.918134	9.903984
41.61495	0.1466813	0.06295074	0.1475614	-0.368905	-2.279222	4.57345
41.63152	0.1479037	0.05928371	0.07376374	-0.2212915	-2.226963	4.454472
41.64809	0.149126	0.05806137	0.07378162	-0.07378072	0.0005395994	4.45137
41.66523	0.149126	0.05683902	0	-0.07130167	-2.188685	0.07353956
41.68122	0.1503484	0.05561667	0.07643745	-0.07643884	2.306887	-0.1550403
41.69779	0.1527931	0.0482826	0.1475624	-0.4426852	2.18453	-11.24889
41.71486	0.1540154	0.04461557	0.0715884	-0.2147656	-2.258319	6.77489
41.73118	0.1589048	0.03361448	0.299677	-0.6742743	6.831038	-13.76184
41.74749	0.1613495	0.02994744	0.1498745	-0.2248108	-4.591353	13.77577
41.76413	0.1625718	0.0262804	0.07344251	-0.2203281	-2.319271	0.1360242
41.78062	0.1637942	0.02383572	0.07413922	-0.1482785	0.02102898	2.17471
41.79741	0.1637942	0.02139103	8.875824E-07	-0.1456171	-2.228009	0.07998207
41.81376	0.1637942	0.02016868	-9.116102E-07	-0.0747795	-5.429974E-05	2.137883
41.83032	0.1650165	0.02016868	0.07378072	0	2.241703	2.272021
41.8471	0.1650165	0.01894634	0	-0.07284159	-2.212443	-2.184281
41.86346	0.1650165	0.017724	9.11185E-07	-0.07474462	2.749962E-05	-0.05743348
41.88009	0.1662389	0.01405696	0.0734762	-0.2204291	2.227232	-4.416086
41.89691	0.1662388	0.01161227	-8.861729E-07	-0.1453858	-2.196553	2.243374
41.91315	0.1650165	0.009167584	-0.07523498	-0.150472	-2.275547	-0.1538392
41.92972	0.1637942	0.00794524	-0.07379862	-0.07379783	0.04377784	2.3369
41.95419	0.1637942	0.00794524	0	0	1.798444	1.798425
41.9712	0.1919081	0.006722895	1.653184	-0.07187759	39.85765	-1.732942
41.98733	0.1919081	0.006722895	0	0	-49.88745	2.16902
42.00389	0.1919081	0.006722895	0	0	0	0
42.02046	0.1919081	0.006722895	0	0	0	0
42.03703	0.1919081	0.006722895	0	0	0	0
42.05376	0.1919081	0.006722895	0	0	0	0
42.07017	0.1919081	0.006722895	0	0	0	0
42.08673	0.1919081	0.006722895	0	0	0	0
42.1033	0.1919081	0.006722895	0	0	0	0
42.12002	0.1919081	0.006722895	0	0	0	0
42.13652	0.1919081	0.006722895	0	0	0	0
42.153	0.1919081	0.006722895	0	0	0	0
42.16969	0.1919081	0.006722895	0	0	0	0
42.18613	0.1919081	0.006722895	0	0	0	0
42.2027	0.1919081	0.006722895	0	0	0	0
42.21927	0.1919081	0.006722895	0	0	0	0
42.23584	0.1919081	0.006722895	0	0	0	0
42.2524	0.1919081	0.006722895	0	0	0	0
42.26904	0.1919081	0.006722895	0	0	0	0
42.28611	0.1894634	0.00794524	-0.1432728	0.07163655	-4.250579	2.125293
42.3021	0.1882411	0.00794524	-0.07643745	0	2.021984	-2.167235
42.31869	0.1857964	0.007945239	-0.1473588	-5.613719E-08	-2.176747	-1.722986E-06
42.33523	0.1857964	0.007945239	0	0	4.447297	1.694224E-06
42.3518	0.1857964	0.007945239	0	0	0	0
42.36871	0.1857964	0.007945239	0	0	0	0
42.38493	0.1857964	0.007945239	0	0	0	0
42.4015	0.1857964	0.007945239	0	0	0	0
42.41832	0.1857964	0.007945239	0	0	0	0
42.43489	0.1857964	0.007945239	0	0	0	0
42.4512	0.1857964	0.007945239	0	0	0	0
42.46777	0.1857964	0.007945239	0	0	0	0
42.48437	0.1857964	0.007945239	0	0	0	0
42.5009	0.1857964	0.007945239	0	0	0	0
42.51747	0.1857964	0.007945239	0	0	0	0
42.53404	0.1857964	0.007945239	0	0	0	0
42.55091	0.1857964	0.007945239	0	0	0	0
42.56717	0.1857964	0.007945239	0	0	0	0
42.58413	0.1857964	0.007945239	0	0	0	0
42.6003	0.1857964	0.007945239	0	0	0	0
42.62316	0.1857964	0.007945239	0	0	0	0
42.63973	0.1833517	0.00550055	-0.1475275	-0.1475277	-3.741988	-3.741994
