Time	Pos X	Pos Y	Vel X	Vel Y	Acc X	Acc Y
0.01700529	-0.0840907	-0.3570561	0.001059664	0.004499421	-1.335607E-05	-5.671099E-05
0.04006416	-0.0840907	-0.3570561	0	0	1.335717E-05	5.671566E-05
0.05663482	-0.08406457	-0.357034	0.001576834	0.001332688	0.03978938	0.03362866
0.07353707	-0.08406457	-0.357034	0	0	-0.04710776	-0.03981392
0.08976746	-0.08406457	-0.357034	0	0	0	0
0.1063318	-0.08406457	-0.357034	0	0	0	0
0.1229005	-0.08406457	-0.357034	0	0	0	0
0.1394668	-0.08406457	-0.357034	0	0	0	0
0.1572273	-0.08406457	-0.357034	0	0	0	0
0.1738536	-0.08406457	-0.357034	0	0	0	0
0.1903639	-0.08406457	-0.357034	0	0	0	0
0.207383	-0.08403844	-0.3570561	0.001535285	-0.001297572	0.04578926	-0.03869957
0.2234981	-0.08403844	-0.3570561	0	0	-0.04633534	0.03916109
0.240064	-0.08403844	-0.3570561	0	0	0	0
0.2566283	-0.08403844	-0.3570561	0	0	0	0
0.2731978	-0.08403844	-0.3570561	0	0	0	0
0.2899453	-0.08403844	-0.3570561	0	0	0	0
0.3063289	-0.08403844	-0.3570561	0	0	0	0
0.3228972	-0.08403844	-0.3570561	0	0	0	0
0.339486	-0.08403844	-0.3570561	0	0	0	0
0.3560302	-0.08403844	-0.3570561	0	0	0	0
0.3725965	-0.08403844	-0.3570561	0	0	0	0
0.3891644	-0.08403844	-0.3570561	0	0	0	0
0.4057303	-0.08403844	-0.3570561	0	0	0	0
0.4222978	-0.08403844	-0.3570561	0	0	0	0
0.4388633	-0.08403844	-0.3570561	0	0	0	0
0.4555505	-0.08403844	-0.3570561	0	0	0	0
0.4719976	-0.08403844	-0.3570561	0	0	0	0
0.4885643	-0.08403844	-0.3570561	0	0	0	0
0.505131	-0.08403844	-0.3570561	0	0	0	0
0.5216981	-0.08403844	-0.3570561	0	0	0	0
0.5382652	-0.08403844	-0.3570561	0	0	0	0
0.5548311	-0.08403844	-0.3570561	0	0	0	0
0.5713966	-0.08403844	-0.3570561	0	0	0	0
0.5879638	-0.08403844	-0.3570561	0	0	0	0
0.6045297	-0.08403844	-0.3570561	0	0	0	0
0.621396	-0.08403844	-0.3570561	0	0	0	0
0.6376643	-0.08403844	-0.3570561	0	0	0	0
0.6542298	-0.08401231	-0.3570782	0.001577325	-0.001334902	0.04803975	-0.0406564
0.6707976	-0.08401231	-0.3570782	0	0	-0.04760532	0.04028873
0.6876525	-0.08401231	-0.3570782	0	0	0	0
0.7039326	-0.08401231	-0.3570782	0	0	0	0
0.7204974	-0.08401231	-0.3570782	0	0	0	0
0.7370637	-0.08401231	-0.3570782	0	0	0	0
0.7536308	-0.08401231	-0.3570782	0	0	0	0
0.7701975	-0.08401231	-0.3570782	0	0	0	0
0.7867638	-0.08401231	-0.3570782	0	0	0	0
0.8035769	-0.08401231	-0.3570782	0	0	0	0
0.8198977	-0.08401231	-0.3570782	0	0	0	0
0.8364632	-0.08401231	-0.3570782	0	0	0	0
0.8530307	-0.08401231	-0.3570782	0	0	0	0
0.8698705	-0.08401231	-0.3570782	0	0	0	0
0.8863997	-0.08401231	-0.3570782	0	0	0	0
0.90273	-0.08401231	-0.3570782	0	0	0	0
0.9198537	-0.08401231	-0.3570782	0	0	0	0
0.935865	-0.08401231	-0.3570782	0	0	0	0
0.9524313	-0.08401231	-0.3570782	0	0	0	0
0.9692479	-0.08401231	-0.3570782	0	0	0	0
0.985564	-0.08401231	-0.3570782	0	0	0	0
1.002131	-0.08401231	-0.3570782	0	0	0	0
1.019354	-0.08401231	-0.3570782	0	0	0	0
1.03591	-0.08401231	-0.3570782	0	0	0	0
1.051894	-0.08398618	-0.3571003	0.001635206	-0.001381628	0.05025259	-0.04245972
1.068793	-0.08398618	-0.3571003	0	0	-0.04972774	0.04201625
1.085074	-0.08398618	-0.3571003	0	0	0	0
1.102555	-0.08398618	-0.3571003	0	0	0	0
1.119125	-0.08398618	-0.3571003	0	0	0	0
1.135692	-0.08398618	-0.3571003	0	0	0	0
1.152283	-0.08398618	-0.3571003	0	0	0	0
1.168872	-0.08398618	-0.3571003	0	0	0	0
1.185689	-0.08398618	-0.3571003	0	0	0	0
1.202143	-0.08398618	-0.3571003	0	0	0	0
1.218526	-0.08398618	-0.3571003	0	0	0	0
1.235098	-0.08398618	-0.3571003	0	0	0	0
1.25207	-0.08398618	-0.3571003	0	0	0	0
1.268229	-0.08398618	-0.3571003	0	0	0	0
1.284795	-0.08398618	-0.3571003	0	0	0	0
1.301361	-0.08398618	-0.3571003	0	0	0	0
1.31793	-0.08398618	-0.3571003	0	0	0	0
1.335034	-0.08398618	-0.3571003	0	0	0	0
1.351064	-0.08398618	-0.3571003	0	0	0	0
1.367627	-0.08398618	-0.3571003	0	0	0	0
1.384199	-0.08398618	-0.3571003	0	0	0	0
1.400757	-0.08398618	-0.3571003	0	0	0	0
1.417329	-0.08398618	-0.3571003	0	0	0	0
1.434149	-0.08398618	-0.3571003	0	0	0	0
1.450457	-0.08398618	-0.3571003	0	0	0	0
1.467026	-0.08398618	-0.3571003	0	0	0	0
1.483591	-0.08398618	-0.3571003	0	0	0	0
1.501244	-0.08398618	-0.3571003	0	0	0	0
1.517818	-0.08398618	-0.3571003	0	0	0	0
1.534451	-0.08398618	-0.3571003	0	0	0	0
1.550949	-0.08398618	-0.3571003	0	0	0	0
1.567731	-0.08398618	-0.3571003	0	0	0	0
1.584085	-0.08398618	-0.3571003	0	0	0	0
1.600646	-0.08398618	-0.3571003	0	0	0	0
1.617218	-0.08398618	-0.3571003	0	0	0	0
1.634028	-0.08398618	-0.3571003	0	0	0	0
1.6506	-0.08398618	-0.3571003	0	0	0	0
1.666913	-0.08398618	-0.3571003	0	0	0	0
1.683481	-0.08398618	-0.3571003	0	0	0	0
1.700048	-0.08398618	-0.3571003	0	0	0	0
1.716614	-0.08398618	-0.3571003	0	0	0	0
1.733707	-0.08398618	-0.3571003	0	0	0	0
1.749751	-0.08398618	-0.3571003	0	0	0	0
1.766315	-0.08398618	-0.3571003	0	0	0	0
1.783359	-0.08398618	-0.3571003	0	0	0	0
1.799445	-0.08398618	-0.3571003	0	0	0	0
1.816183	-0.08398618	-0.3571003	0	0	0	0
1.832581	-0.08398618	-0.3571003	0	0	0	0
1.849314	-0.08396005	-0.3571224	0.001561476	-0.001321489	0.04712985	-0.03988634
1.865746	-0.08396005	-0.3571224	0	0	-0.04708207	0.03984591
1.882829	-0.08396005	-0.3571224	0	0	0	0
1.898847	-0.08396005	-0.3571224	0	0	0	0
1.915413	-0.08396005	-0.3571224	0	0	0	0
1.93198	-0.08396005	-0.3571224	0	0	0	0
1.948861	-0.08396005	-0.3571224	0	0	0	0
1.965124	-0.08396005	-0.3571224	0	0	0	0
1.981995	-0.08396005	-0.3571224	0	0	0	0
1.998248	-0.08396005	-0.3571224	0	0	0	0
2.014816	-0.08396005	-0.3571224	0	0	0	0
2.031476	-0.08396005	-0.3571224	0	0	0	0
2.047944	-0.08396005	-0.3571224	0	0	0	0
2.064513	-0.08396005	-0.3571224	0	0	0	0
2.081079	-0.08396005	-0.3571224	0	0	0	0
2.097645	-0.08396005	-0.3571224	0	0	0	0
2.114212	-0.08396005	-0.3571224	0	0	0	0
2.13078	-0.08396005	-0.3571224	0	0	0	0
2.201945	-0.08396005	-0.3571224	0	0	0	0
2.218514	-0.08396005	-0.3571224	0	0	0	0
2.237657	-0.08396005	-0.3571224	0	0	0	0
2.254227	-0.08396005	-0.3571224	0	0	0	0
2.270793	-0.08396005	-0.3571224	0	0	0	0
2.28736	-0.08396005	-0.3571224	0	0	0	0
2.303927	-0.08396005	-0.3571224	0	0	0	0
2.320496	-0.08396005	-0.3571224	0	0	0	0
2.337858	-0.08396005	-0.3571224	0	0	0	0
2.354695	-0.08396005	-0.3571224	0	0	0	0
2.370995	-0.08396005	-0.3571224	0	0	0	0
2.38756	-0.08396005	-0.3571224	0	0	0	0
2.404128	-0.08396005	-0.3571224	0	0	0	0
2.420693	-0.08396005	-0.3571224	0	0	0	0
2.437259	-0.08396005	-0.3571224	0	0	0	0
2.453828	-0.08396005	-0.3571224	0	0	0	0
2.470394	-0.08396005	-0.3571224	0	0	0	0
2.486958	-0.08396005	-0.3571224	0	0	0	0
2.503527	-0.08396005	-0.3571224	0	0	0	0
2.520548	-0.08396005	-0.3571224	0	0	0	0
2.536658	-0.08396005	-0.3571224	0	0	0	0
2.553229	-0.08396005	-0.3571224	0	0	0	0
2.569794	-0.08396005	-0.3571224	0	0	0	0
2.58666	-0.08396005	-0.3571224	0	0	0	0
2.602927	-0.08396005	-0.3571224	0	0	0	0
2.619493	-0.08396005	-0.3571224	0	0	0	0
2.636195	-0.08396005	-0.3571224	0	0	0	0
2.652627	-0.08396005	-0.3571224	0	0	0	0
2.669266	-0.08396005	-0.3571224	0	0	0	0
2.685761	-0.08396005	-0.3571224	0	0	0	0
2.702328	-0.08396005	-0.3571224	0	0	0	0
2.719039	-0.08396005	-0.3571224	0	0	0	0
2.735695	-0.08396005	-0.3571224	0	0	0	0
2.752355	-0.08396005	-0.3571224	0	0	0	0
2.768594	-0.08396005	-0.3571224	0	0	0	0
2.78516	-0.08396005	-0.3571224	0	0	0	0
2.801728	-0.08396005	-0.3571224	0	0	0	0
2.818295	-0.08396005	-0.3571224	0	0	0	0
2.835038	-0.08273178	-0.3582055	0.07335914	-0.06468936	2.202367	-1.942086
2.851623	-0.08273178	-0.3582055	0	0	-2.201091	1.94096
2.868135	-0.08273178	-0.3582055	0	0	0	0
2.884562	-0.06653323	-0.3719503	0.9861194	-0.8367442	29.93822	-25.40324
2.901167	-0.06653323	-0.3719503	0	0	-29.85351	25.33137
2.917744	-0.06653323	-0.3719503	0	0	0	0
2.934947	-0.02720381	-0.405711	2.28612	-1.962424	67.67557	-58.09327
2.951006	-0.02720381	-0.405711	0	0	-68.73114	58.99937
2.9674	-0.02720381	-0.405711	0	0	0	0
2.983965	0.02586265	-0.4524313	3.203421	-2.820323	97.19205	-85.56884
3.000586	0.02586265	-0.4524313	0	0	-96.5294	84.98544
3.017246	0.02586265	-0.4524313	0	0	0	0
3.033662	0.0649611	-0.4879838	2.381856	-2.165842	72.01202	-65.48116
3.050233	0.0649611	-0.4879838	0	0	-72.20668	65.65816
3.066799	0.0649611	-0.4879838	0	0	0	0
3.083362	0.08941881	-0.5110245	1.476695	-1.391141	44.57477	-41.99226
3.099929	0.08941881	-0.5110245	0	0	-44.57348	41.99105
3.116936	0.08941881	-0.5110245	0	0	0	0
3.133059	0.1195846	-0.5416462	1.870971	-1.89925	56.47252	-57.32607
3.149629	0.1195846	-0.5416462	0	0	-57.22948	58.09447
3.16654	0.1195846	-0.5416462	0	0	0	0
3.183136	0.1122368	-0.6038661	-0.442745	-3.749124	-13.21328	-111.8888
3.199328	0.1122368	-0.6038661	0	0	13.50344	114.3459
3.216761	0.1122368	-0.6038661	0	0	0	0
3.232459	0.08578892	-0.679167	-1.684801	-4.796858	-50.85324	-144.7861
3.24926	0.08578892	-0.679167	0	0	51.8415	147.5998
3.265844	0.08578892	-0.679167	0	0	0	0
3.282406	0.08016991	-0.7240728	-0.3392716	-2.711377	-10.23563	-81.80067
3.29899	0.08016991	-0.7240728	0	0	10.23563	81.80067
3.315436	0.08016991	-0.7240728	0	0	0	0
3.331859	0.0805621	-0.7252319	0.02388097	-0.07058085	0.7265476	-2.147331
3.348428	0.0805621	-0.7252319	0	0	-0.7238436	2.13934
3.365468	0.0805621	-0.7252319	0	0	0	0
3.381562	0.08628523	-0.731947	0.3556122	-0.4172506	10.73263	-12.59292
3.398128	0.08628523	-0.731947	0	0	-10.88839	12.77567
3.414696	0.08628523	-0.731947	0	0	0	0
3.431262	0.08633746	-0.731947	0.003153063	0	0.09516032	0
3.447829	0.08633746	-0.731947	0	0	-0.09516374	0
3.464395	0.08633746	-0.731947	0	0	0	0
3.481208	0.08631135	-0.731917	-0.001553172	0.001783157	-0.04653031	0.05342025
3.497528	0.08631135	-0.731917	0	0	0.04687618	-0.05381733
3.514095	0.08631135	-0.731917	0	0	0	0
3.53066	0.08633746	-0.7318871	0.001576466	0.001806301	0.04758159	0.05451859
3.547229	0.08633746	-0.7318871	0	0	-0.04757817	-0.05451467
3.5638	0.08633746	-0.7318871	0	0	0	0
3.584228	0.08746052	-0.7306002	0.05497774	0.06299969	1.485945	1.702763
3.600798	0.08746052	-0.7306002	0	0	-1.485973	-1.702796
3.617368	0.0882178	-0.7297332	0.04570386	0.0523224	1.379127	1.578843
3.633934	0.0882178	-0.7297332	0	0	-1.379296	-1.579036
3.650501	0.0882178	-0.7297332	0	0	0	0
3.667065	0.08840058	-0.7295241	0.01103439	0.01262666	0.3330496	0.3811091
3.683636	0.08840058	-0.7295241	0	0	-0.3330089	-0.3810625
3.700203	0.08840058	-0.7295241	0	0	0	0
3.716766	0.09591531	-0.7207813	0.4537141	0.5278614	13.69519	15.9333
3.733335	0.09591531	-0.7207813	0	0	-13.69391	-15.9318
3.750445	0.09591531	-0.7207813	0	0	0	0
3.76701	0.1282138	-0.6842037	1.949739	2.208046	57.8988	65.56939
3.783419	0.1282138	-0.6842037	0	0	-59.12959	-66.96324
3.799901	0.1282138	-0.6842037	0	0	0	0
3.816979	0.1570383	-0.6520191	1.687869	1.88463	50.29402	56.15696
3.83334	0.1570383	-0.6520191	0	0	-50.47726	-56.36156
3.84954	0.1570383	-0.6520191	0	0	0	0
3.865862	0.1707934	-0.6365049	0.8427352	0.9505105	25.91261	29.22651
3.882431	0.1707934	-0.6365049	0	0	-25.62241	-28.89919
3.898997	0.1707934	-0.6365049	0	0	0	0
3.915962	0.1797748	-0.6243587	0.5294173	0.7159722	15.78891	21.35258
3.932131	0.1797748	-0.6243587	0	0	-15.97796	-21.60824
3.948698	0.1797748	-0.6243587	0	0	0	0
3.965262	0.1803606	-0.6234154	0.03536935	0.05694936	1.067564	1.718921
3.981876	0.1803606	-0.6234154	0	0	-1.066061	-1.7165
3.998396	0.1803606	-0.6234154	0	0	0	0
4.014964	0.1801059	-0.6230383	-0.01537384	0.02276259	-0.4646352	0.6879417
4.03153	0.1801059	-0.6230383	0	0	0.4639933	-0.6869913
4.04839	0.1801059	-0.6230383	0	0	0	0
4.064662	0.17952	-0.6224191	-0.03600746	0.03805606	-1.086786	1.148617
4.081409	0.17952	-0.6224191	0	0	1.090521	-1.152565
4.097947	0.17952	-0.6224191	0	0	0	0
4.114363	0.1793926	-0.6223383	-0.007760079	0.00491983	-0.235484	0.149295
4.130999	0.1793926	-0.6223383	0	0	0.2347808	-0.1488492
4.147496	0.1793926	-0.6223383	0	0	0	0
4.164061	0.1793671	-0.6223114	-0.001538212	0.001626367	-0.04652511	0.04919147
4.18063	0.1793671	-0.6223114	0	0	0.04642334	-0.04908386
4.197198	0.1793671	-0.6223114	0	0	0	0
4.213761	0.1792652	-0.6222037	-0.006152659	0.006499021	-0.1857063	0.1961606
4.230841	0.1792652	-0.6222037	0	0	0.1828821	-0.1931774
4.246896	0.1792652	-0.6222037	0	0	0	0
4.264508	0.1791888	-0.622123	-0.004340278	0.00458225	-0.1289157	0.1361028
4.281273	0.1791888	-0.622123	0	0	0.1262532	-0.1332918
4.297645	0.1791888	-0.622123	0	0	0	0
4.31421	0.1790869	-0.6220692	-0.006153027	0.00324923	-0.1868144	0.09865112
4.331303	0.1790869	-0.6220692	0	0	0.1828127	-0.09653792
4.34745	0.1790869	-0.6220692	0	0	0	0
4.363913	0.1790104	-0.6220423	-0.004643375	0.001632875	-0.1423914	0.05007292
4.38048	0.1790104	-0.6220423	0	0	0.1405804	-0.04943606
4.397224	0.1790104	-0.6220423	0	0	0	0
4.413612	0.1790104	-0.6220423	0	0	0	0
4.430242	0.1790104	-0.6220423	0	0	0	0
4.446808	0.1790104	-0.6220423	0	0	0	0
4.4664	0.1789595	-0.6219885	-0.002601124	0.002747152	-0.07193661	0.07597516
4.482978	0.1789595	-0.6219885	0	0	0.0719129	-0.07595012
4.499538	0.1789595	-0.6219885	0	0	0	0
4.516103	0.178883	-0.6219078	-0.004614637	0.004871906	-0.1393101	0.1470767
4.532669	0.178883	-0.6219078	0	0	0.1392861	-0.1470513
4.549988	0.178883	-0.6219078	0	0	0	0
4.565946	0.1787556	-0.621827	-0.007985022	0.005061258	-0.2399559	0.1520946
4.582367	0.1787556	-0.621827	0	0	0.24661	-0.1563123
4.599363	0.1787556	-0.621827	0	0	0	0
4.615502	0.1787046	-0.6217732	-0.003157685	0.003331265	-0.09529912	0.1005378
4.632069	0.1787046	-0.6217732	0	0	0.09654821	-0.1018555
4.648635	0.1787046	-0.6217732	0	0	0	0
4.665201	0.1784498	-0.6215042	-0.01538438	0.01623802	-0.4643349	0.4900996
4.681767	0.1784498	-0.6215042	0	0	0.4643282	-0.4900926
4.698827	0.1784498	-0.6215042	0	0	0	0
4.714902	0.1765121	-0.6194621	-0.120534	0.1270319	-3.637671	3.833774
4.731469	0.1765121	-0.6194621	0	0	3.692617	-3.891682
4.748035	0.1765121	-0.6194621	0	0	0	0
4.764635	0.153545	-0.5956873	-1.38355	1.432209	-41.7154	43.18253
4.781167	0.153545	-0.5956873	0	0	41.75923	-43.22789
4.797775	0.153545	-0.5956873	0	0	0	0
4.814302	0.1219186	-0.5638638	-1.913598	1.925526	-57.75002	58.11
4.830957	0.1219186	-0.5638638	0	0	57.66951	-58.029
4.847498	0.1219186	-0.5638638	0	0	0	0
4.86422	0.09487223	-0.5375306	-1.617441	1.574787	-48.62623	47.34389
4.880568	0.09487223	-0.5375306	0	0	48.91019	-47.62037
4.897136	0.09487223	-0.5375306	0	0	0	0
4.926064	0.06755494	-0.5116137	-0.9443107	0.895901	-20.75591	19.69187
4.942635	0.06755494	-0.5116137	0	0	20.75461	-19.69063
4.959199	0.05693839	-0.5017067	-0.6409088	0.5980742	-19.34211	18.0494
4.976556	0.05693839	-0.5017067	0	0	18.89403	-17.63126
4.992335	0.05693839	-0.5017067	0	0	0	0
5.008969	0.03953202	-0.485646	-1.046434	0.9655375	-32.28437	29.78858
5.025553	0.03953202	-0.485646	0	0	31.50209	-29.06678
5.042035	0.03953202	-0.485646	0	0	0	0
5.059318	0.02068126	-0.4684878	-1.090714	0.9927818	-32.30324	29.40283
5.075168	0.02068126	-0.4684878	0	0	32.91922	-29.96351
5.091734	0.02068126	-0.4684878	0	0	0	0
5.108299	0.0001052632	-0.4500583	-1.242113	1.112532	-37.49028	33.57919
5.125117	0.0001052632	-0.4500583	0	0	37.20806	-33.32642
5.141607	0.0001052632	-0.4500583	0	0	0	0
5.158095	-0.01473578	-0.4368788	-0.9001334	0.7993572	-27.29492	24.23906
5.174568	-0.01473578	-0.4368788	0	0	27.30953	-24.25204
5.191134	-0.01473578	-0.4368788	0	0	0	0
5.2077	-0.03456518	-0.4194425	-1.197008	1.052548	-36.12838	31.76824
5.224359	-0.03456518	-0.4194425	0	0	36.02728	-31.67934
5.240834	-0.03456518	-0.4194425	0	0	0	0
5.257398	-0.05531194	-0.4013883	-1.252494	1.089941	-37.90944	32.98944
5.273967	-0.05531194	-0.4013883	0	0	37.80142	-32.89544
5.290769	-0.05531194	-0.4013883	0	0	0	0
5.3071	-0.06792168	-0.3904988	-0.7721254	0.6667932	-23.3038	20.12473
5.323666	-0.06792168	-0.3904988	0	0	23.471	-20.26912
5.340917	-0.06792168	-0.3904988	0	0	0	0
5.356799	-0.07478134	-0.3845541	-0.4319271	0.3743169	-13.03634	11.29756
5.373367	-0.07478134	-0.3845541	0	0	13.31046	-11.53512
5.390256	-0.07478134	-0.3845541	0	0	0	0
5.406499	-0.07491218	-0.3844417	-0.00805515	0.006917126	-0.2431259	0.2087773
5.423067	-0.07491218	-0.3844417	0	0	0.2455038	-0.2108193
5.439648	-0.07491218	-0.3844417	0	0	0	0
5.4562	-0.07491218	-0.3844417	0	0	0	0
5.472766	-0.07491218	-0.3844417	0	0	0	0
5.489332	-0.07491218	-0.3844417	0	0	0	0
5.505897	-0.07488602	-0.3844642	0.001579591	-0.001356505	0.04767765	-0.04094413
5.522466	-0.07488602	-0.3844642	0	0	-0.04767285	0.04094001
5.539512	-0.07488602	-0.3844642	0	0	0	0
5.555998	-0.07485985	-0.3844867	0.001587175	-0.001363018	0.04733295	-0.04064811
5.572268	-0.07485985	-0.3844867	0	0	-0.04845471	0.04161145
5.588818	-0.07485985	-0.3844867	0	0	0	0
5.605377	-0.07485985	-0.3844867	0	0	0	0
5.621865	-0.07485985	-0.3844867	0	0	0	0
5.638432	-0.07485985	-0.3844867	0	0	0	0
5.654998	-0.07485985	-0.3844867	0	0	0	0
5.671566	-0.07485985	-0.3844867	0	0	0	0
5.688131	-0.07485985	-0.3844867	0	0	0	0
5.705258	-0.07485985	-0.3844867	0	0	0	0
5.721266	-0.07485985	-0.3844867	0	0	0	0
5.737833	-0.07485985	-0.3844867	0	0	0	0
5.754702	-0.07488602	-0.3844642	-0.001551149	0.00133208	-0.04639183	0.03983991
5.771211	-0.07488602	-0.3844642	0	0	0.04647136	-0.03990821
5.787733	-0.07488602	-0.3844642	0	0	0	0
5.804268	-0.07488602	-0.3844642	0	0	0	0
5.820759	-0.07488602	-0.3844642	0	0	0	0
5.837265	-0.07488602	-0.3844642	0	0	0	0
5.8538	-0.07485985	-0.3844417	0.001582461	0.00135897	0.04789455	0.0411304
5.870367	-0.07485985	-0.3844417	0	0	-0.04780555	-0.04105397
5.886934	-0.07485985	-0.3844417	0	0	0	0
5.903501	-0.07485985	-0.3844417	0	0	0	0
5.920066	-0.07485985	-0.3844417	0	0	0	0
5.936633	-0.07485985	-0.3844417	0	0	0	0
5.953198	-0.07485985	-0.3844417	0	0	0	0
5.969767	-0.07485985	-0.3844417	0	0	0	0
5.986766	-0.07485985	-0.3844417	0	0	0	0
6.002898	-0.07483368	-0.3844193	0.001622495	0.001392953	0.04897192	0.04204364
6.019465	-0.07483368	-0.3844193	0	0	-0.04961821	-0.0425985
6.036098	-0.07483368	-0.3844193	0	0	0	0
6.053121	-0.07483368	-0.3844193	0	0	0	0
6.069166	-0.07483368	-0.3844193	0	0	0	0
6.085732	-0.07483368	-0.3844193	0	0	0	0
6.102298	-0.07483368	-0.3844193	0	0	0	0
6.118867	-0.07483368	-0.3844193	0	0	0	0
6.135434	-0.07483368	-0.3844193	0	0	0	0
6.151999	-0.07483368	-0.3844193	0	0	0	0
6.169049	-0.07483368	-0.3844193	0	0	0	0
6.185522	-0.07483368	-0.3844193	0	0	0	0
6.201759	-0.07483368	-0.3844193	0	0	0	0
6.218267	-0.07483368	-0.3844193	0	0	0	0
6.234896	-0.07483368	-0.3844193	0	0	0	0
6.254837	-0.07483368	-0.3844193	0	0	0	0
6.271429	-0.07483368	-0.3844193	0	0	0	0
6.287974	-0.07483368	-0.3844193	0	0	0	0
6.304553	-0.07483368	-0.3844193	0	0	0	0
6.321108	-0.07483368	-0.3844193	0	0	0	0
6.337722	-0.07483368	-0.3844193	0	0	0	0
6.35465	-0.07483368	-0.3844193	0	0	0	0
6.370976	-0.07483368	-0.3844193	0	0	0	0
6.387507	-0.07483368	-0.3844193	0	0	0	0
6.404042	-0.07483368	-0.3844193	0	0	0	0
6.420508	-0.07483368	-0.3844193	0	0	0	0
6.437075	-0.07483368	-0.3844193	0	0	0	0
6.45366	-0.07483368	-0.3844193	0	0	0	0
6.470227	-0.07483368	-0.3844193	0	0	0	0
6.486776	-0.07483368	-0.3844193	0	0	0	0
6.503339	-0.07483368	-0.3844193	0	0	0	0
6.519907	-0.07483368	-0.3844193	0	0	0	0
6.536474	-0.07483368	-0.3844193	0	0	0	0
6.55304	-0.07480751	-0.3844417	0.0015795	-0.001356427	0.04767216	-0.04093941
6.569608	-0.07480751	-0.3844417	0	0	-0.0476701	0.04093765
6.586174	-0.07480751	-0.3844417	0	0	0	0
6.602742	-0.07480751	-0.3844417	0	0	0	0
6.619308	-0.07480751	-0.3844417	0	0	0	0
6.635875	-0.07480751	-0.3844417	0	0	0	0
6.652441	-0.07483368	-0.3844642	-0.001579591	-0.001356505	-0.04767559	-0.04094236
6.669196	-0.07483368	-0.3844642	0	0	0.0474061	0.04071093
6.685574	-0.07483368	-0.3844642	0	0	0	0
6.70214	-0.07483368	-0.3844642	0	0	0	0
6.718708	-0.07483368	-0.3844642	0	0	0	0
6.735509	-0.07483368	-0.3844642	0	0	0	0
6.75391	-0.07483368	-0.3844642	0	0	0	0
6.770551	-0.07483368	-0.3844642	0	0	0	0
6.787046	-0.07483368	-0.3844642	0	0	0	0
6.803611	-0.07483368	-0.3844642	0	0	0	0
6.820179	-0.07483368	-0.3844642	0	0	0	0
6.836746	-0.07483368	-0.3844642	0	0	0	0
6.853776	-0.07483368	-0.3844642	0	0	0	0
6.870274	-0.07483368	-0.3844642	0	0	0	0
6.886755	-0.07483368	-0.3844642	0	0	0	0
6.905355	-0.07483368	-0.3844642	0	0	0	0
6.921926	-0.07483368	-0.3844642	0	0	0	0
6.938895	-0.07483368	-0.3844642	0	0	0	0
6.955058	-0.07483368	-0.3844642	0	0	0	0
6.971626	-0.07483368	-0.3844642	0	0	0	0
6.988192	-0.07483368	-0.3844642	0	0	0	0
7.004757	-0.07483368	-0.3844642	0	0	0	0
7.021327	-0.07483368	-0.3844642	0	0	0	0
7.037893	-0.07483368	-0.3844642	0	0	0	0
7.054596	-0.07483368	-0.3844642	0	0	0	0
7.071026	-0.07483368	-0.3844642	0	0	0	0
7.087708	-0.07483368	-0.3844642	0	0	0	0
7.104161	-0.07483368	-0.3844642	0	0	0	0
7.120726	-0.07483368	-0.3844642	0	0	0	0
7.137293	-0.07483368	-0.3844642	0	0	0	0
7.154162	-0.07483368	-0.3844642	0	0	0	0
7.170426	-0.07483368	-0.3844642	0	0	0	0
7.187184	-0.07483368	-0.3844642	0	0	0	0
7.203559	-0.07483368	-0.3844642	0	0	0	0
7.220127	-0.07483368	-0.3844642	0	0	0	0
7.236693	-0.07483368	-0.3844642	0	0	0	0
7.25326	-0.07483368	-0.3844642	0	0	0	0
7.269827	-0.07483368	-0.3844642	0	0	0	0
7.286705	-0.07483368	-0.3844642	0	0	0	0
7.30296	-0.07483368	-0.3844642	0	0	0	0
7.319646	-0.07483368	-0.3844642	0	0	0	0
7.336093	-0.07483368	-0.3844642	0	0	0	0
7.35266	-0.07483368	-0.3844642	0	0	0	0
7.369452	-0.07483368	-0.3844642	0	0	0	0
7.386443	-0.07483368	-0.3844642	0	0	0	0
7.403116	-0.07480751	-0.3844867	0.001569382	-0.001347738	0.04662	-0.04003586
7.418928	-0.07480751	-0.3844867	0	0	-0.04831095	0.041488
7.435904	-0.07480751	-0.3844867	0	0	0	0
7.452061	-0.07480751	-0.3844867	0	0	0	0
7.468626	-0.07480751	-0.3844867	0	0	0	0
7.485502	-0.07480751	-0.3844867	0	0	0	0
7.50204	-0.07480751	-0.3844867	0	0	0	0
7.518327	-0.07480751	-0.3844867	0	0	0	0
7.534893	-0.07480751	-0.3844867	0	0	0	0
7.55146	-0.07480751	-0.3844867	0	0	0	0
7.568027	-0.07480751	-0.3844867	0	0	0	0
7.584593	-0.07480751	-0.3844867	0	0	0	0
7.65669	-0.07480751	-0.3844867	0	0	0	0
7.673445	-0.07480751	-0.3844867	0	0	0	0
7.689823	-0.07478134	-0.3845091	0.001597618	-0.001371987	0.04821761	-0.04140783
7.706392	-0.07478134	-0.3845091	0	0	-0.04848976	0.04164155
7.722958	-0.07478134	-0.3845091	0	0	0	0
7.739524	-0.07478134	-0.3845091	0	0	0	0
7.756092	-0.07478134	-0.3845091	0	0	0	0
7.772657	-0.07478134	-0.3845091	0	0	0	0
7.789226	-0.07478134	-0.3845091	0	0	0	0
7.805791	-0.07478134	-0.3845091	0	0	0	0
7.822357	-0.07478134	-0.3845091	0	0	0	0
7.838923	-0.07478134	-0.3845091	0	0	0	0
7.855491	-0.07478134	-0.3845091	0	0	0	0
7.872058	-0.07478134	-0.3845091	0	0	0	0
7.888626	-0.07478134	-0.3845091	0	0	0	0
7.905191	-0.07478134	-0.3845091	0	0	0	0
7.922004	-0.07478134	-0.3845091	0	0	0	0
7.938662	-0.07478134	-0.3845091	0	0	0	0
7.955473	-0.07478134	-0.3845091	0	0	0	0
7.972183	-0.07478134	-0.3845091	0	0	0	0
7.98863	-0.07478134	-0.3845091	0	0	0	0
8.00493	-0.07478134	-0.3845091	0	0	0	0
8.021749	-0.07478134	-0.3845091	0	0	0	0
8.038062	-0.07475517	-0.3845316	0.001604426	-0.001377441	0.04842586	-0.04157483
8.05534	-0.07475517	-0.3845316	0	0	-0.04776318	0.04100591
8.071198	-0.07475517	-0.3845316	0	0	0	0
8.087763	-0.07475517	-0.3845316	0	0	0	0
8.104329	-0.07475517	-0.3845316	0	0	0	0
8.121437	-0.07475517	-0.3845316	0	0	0	0
8.137462	-0.07475517	-0.3845316	0	0	0	0
8.154031	-0.07475517	-0.3845316	0	0	0	0
8.170852	-0.07475517	-0.3845316	0	0	0	0
8.187432	-0.07475517	-0.3845316	0	0	0	0
8.20373	-0.07475517	-0.3845316	0	0	0	0
8.220296	-0.07475517	-0.3845316	0	0	0	0
8.237092	-0.07475517	-0.3845316	0	0	0	0
8.253429	-0.07475517	-0.3845316	0	0	0	0
8.269996	-0.07475517	-0.3845316	0	0	0	0
8.286573	-0.07475517	-0.3845316	0	0	0	0
8.303178	-0.07475517	-0.3845316	0	0	0	0
8.319779	-0.07475517	-0.3845316	0	0	0	0
8.336403	-0.07475517	-0.3845316	0	0	0	0
8.352829	-0.07475517	-0.3845316	0	0	0	0
8.369395	-0.07475517	-0.3845316	0	0	0	0
8.385962	-0.07475517	-0.3845316	0	0	0	0
8.402529	-0.07475517	-0.3845316	0	0	0	0
8.419096	-0.07475517	-0.3845316	0	0	0	0
8.435982	-0.07475517	-0.3845316	0	0	0	0
8.452229	-0.07475517	-0.3845316	0	0	0	0
8.468797	-0.07475517	-0.3845316	0	0	0	0
8.485361	-0.07475517	-0.3845316	0	0	0	0
8.50193	-0.07475517	-0.3845316	0	0	0	0
8.518497	-0.07475517	-0.3845316	0	0	0	0
8.535063	-0.07475517	-0.3845316	0	0	0	0
8.55163	-0.07475517	-0.3845316	0	0	0	0
8.568197	-0.07475517	-0.3845316	0	0	0	0
8.584764	-0.07475517	-0.3845316	0	0	0	0
8.601331	-0.07475517	-0.3845316	0	0	0	0
8.617897	-0.07475517	-0.3845316	0	0	0	0
8.634615	-0.07475517	-0.3845316	0	0	0	0
8.65103	-0.07475517	-0.3845316	0	0	0	0
8.667595	-0.07475517	-0.3845316	0	0	0	0
8.684389	-0.07475517	-0.3845316	0	0	0	0
8.700729	-0.07475517	-0.3845316	0	0	0	0
8.717296	-0.07475517	-0.3845316	0	0	0	0
8.733981	-0.07475517	-0.3845316	0	0	0	0
8.750429	-0.07475517	-0.3845316	0	0	0	0
8.766995	-0.07475517	-0.3845316	0	0	0	0
8.783562	-0.07475517	-0.3845316	0	0	0	0
8.800348	-0.07475517	-0.3845316	0	0	0	0
8.816694	-0.07475517	-0.3845316	0	0	0	0
8.833262	-0.07475517	-0.3845316	0	0	0	0
8.849835	-0.07475517	-0.3845316	0	0	0	0
8.866397	-0.07475517	-0.3845316	0	0	0	0
8.882962	-0.074729	-0.3845541	0.001579591	-0.001356505	0.04768314	-0.04094885
8.899529	-0.074729	-0.3845541	0	0	-0.04767628	0.04094295
8.916263	-0.074729	-0.3845541	0	0	0	0
8.932989	-0.07475517	-0.3845766	-0.001564371	-0.001343435	-0.0467526	-0.04014973
8.94923	-0.07475517	-0.3845766	0	0	0.04745181	0.04075019
8.965796	-0.07475517	-0.3845766	0	0	0	0
8.984841	-0.07475517	-0.3845766	0	0	0	0
9.001411	-0.07475517	-0.3845766	0	0	0	0
9.017979	-0.07475517	-0.3845766	0	0	0	0
9.035201	-0.074729	-0.3845991	0.001519326	-0.001306482	0.04496425	-0.03866516
9.05111	-0.074729	-0.3845991	0	0	-0.0458573	0.0394331
9.067966	-0.074729	-0.3845991	0	0	0	0
9.084615	-0.07459816	-0.3847564	0.00785904	-0.009449464	0.2345668	-0.2820358
9.101473	-0.07459816	-0.3847564	0	0	-0.2345468	0.2820117
9.11775	-0.07459816	-0.3847564	0	0	0	0
9.134775	-0.07459816	-0.3851161	0	-0.02112683	0	-0.6343955
9.151093	-0.07459816	-0.3851161	0	0	0	0.6336153
9.167451	-0.07459816	-0.3851161	0	0	0	0
9.184242	-0.07637745	-0.3871859	-0.105965	-0.1232695	-3.196651	-3.718676
9.200583	-0.07637745	-0.3871859	0	0	3.198215	3.720495
9.217333	-0.07637745	-0.3871859	0	0	0	0
9.233715	-0.07640362	-0.3876588	-0.001597247	-0.02886323	-0.04820916	-0.8711691
9.250284	-0.07640362	-0.3876588	0	0	0.04847286	0.8759344
9.266851	-0.07640362	-0.3876588	0	0	0	0
9.283418	-0.07640362	-0.3876588	0	0	0	0
9.300141	-0.07640362	-0.3876588	0	0	0	0
9.316551	-0.07640362	-0.3876588	0	0	0	0
9.333976	-0.07642978	-0.3875912	-0.001501269	0.003877388	-0.04437101	0.1145988
9.349683	-0.07642978	-0.3875912	0	0	0.0453123	-0.1170299
9.366252	-0.07642978	-0.3875912	0	0	0	0
9.382819	-0.07650826	-0.3875237	-0.004737329	0.004078042	-0.1429646	0.1230685
9.399625	-0.07650826	-0.3875237	0	0	0.1419515	-0.1221963
9.415953	-0.07650826	-0.3875237	0	0	0	0
9.432519	-0.07671756	-0.3873435	-0.01263375	0.01087301	-0.3840731	0.3305455
9.449431	-0.07671756	-0.3873435	0	0	0.3773665	-0.3247735
9.465896	-0.07671756	-0.3873435	0	0	0	0
9.482218	-0.07742387	-0.3867807	-0.04327345	0.03447999	-1.319861	1.051656
9.498787	-0.07742387	-0.3867807	0	0	1.315651	-1.048302
9.515875	-0.07742387	-0.3867807	0	0	0	0
9.531922	-0.09320287	-0.3734227	-0.9832695	0.8324048	-29.67428	25.1213
9.548487	-0.09320287	-0.3734227	0	0	30.15068	-25.52461
9.565059	-0.09320287	-0.3734227	0	0	0	0
9.581737	-0.1355582	-0.3385101	-2.539618	2.093353	-76.37981	62.95827
9.598297	-0.1355582	-0.3385101	0	0	76.40611	-62.97995
9.614777	-0.1355582	-0.3385101	0	0	0	0
9.631325	-0.1788575	-0.3192779	-2.616563	1.162195	-79.2234	35.18855
9.647892	-0.1788575	-0.3192779	0	0	79.0135	-35.09531
9.664453	-0.1788575	-0.3192779	0	0	0	0
9.68102	-0.2469096	-0.3351698	-4.107632	-0.9592376	-123.9936	-28.95568
9.697709	-0.2469096	-0.3351698	0	0	123.5135	28.84359
9.71419	-0.2469096	-0.3351698	0	0	0	0
9.731204	-0.3119691	-0.3606396	-3.823979	-1.497031	-114.1658	-44.69423
9.747286	-0.3119691	-0.3606396	0	0	115.5443	45.23386
9.763853	-0.3119691	-0.3606396	0	0	0	0
9.78042	-0.3634919	-0.3740701	-3.109924	-0.810667	-93.85768	-24.46598
9.797112	-0.3634919	-0.3740701	0	0	93.50513	24.37408
9.813553	-0.3634919	-0.3740701	0	0	0	0
9.830117	-0.3650772	-0.3738692	-0.09570571	0.01213009	-2.899755	0.3675254
9.846686	-0.3650772	-0.3738692	0	0	2.888487	-0.3660973
9.863625	-0.3650772	-0.3738692	0	0	0	0
9.879821	-0.3651001	-0.3739362	-0.001416858	-0.004134649	-0.04276086	-0.124784
9.896718	-0.3651001	-0.3739362	0	0	0.04281385	0.1249386
9.912953	-0.3651001	-0.3739362	0	0	0	0
9.92952	-0.3650772	-0.3739585	0.001385211	-0.001347432	0.04222995	-0.04107822
9.946087	-0.3650772	-0.3739585	0	0	-0.04180695	0.04066676
9.96314	-0.3650772	-0.3739585	0	0	0	0
9.979218	-0.3650083	-0.3740255	0.004285291	-0.004166667	0.1293415	-0.1257611
9.995788	-0.3650083	-0.3740255	0	0	-0.131257	0.1276236
10.01235	-0.3650083	-0.3740255	0	0	0	0
10.02892	-0.3648935	-0.3741371	0.006929653	-0.006738962	0.2091434	-0.2033881
10.04549	-0.3648935	-0.3741371	0	0	-0.2091494	0.203394
10.06205	-0.3648935	-0.3741371	0	0	0	0
10.07862	-0.3648246	-0.3741595	0.004159471	-0.00134751	0.1255439	-0.04067145
10.09531	-0.3648246	-0.3741595	0	0	-0.1250759	0.04051982
10.11176	-0.3648246	-0.3741595	0	0	0	0
10.12832	-0.3647557	-0.3742265	0.00415971	-0.004044562	0.1260118	-0.1225236
10.14489	-0.3647557	-0.3742265	0	0	-0.1255439	0.1220686
10.16237	-0.3647557	-0.3742265	0	0	0	0
10.17802	-0.3647098	-0.3742711	0.002933852	-0.002851986	0.08855402	-0.08608302
10.19459	-0.3647098	-0.3742711	0	0	-0.09105718	0.08851633
10.21151	-0.3647098	-0.3742711	0	0	0	0
10.22772	-0.3646409	-0.3742934	0.00425	-0.001378677	0.128269	-0.04160974
10.24429	-0.3646409	-0.3742934	0	0	-0.1296233	0.04204907
10.2609	-0.3646409	-0.3742934	0	0	0	0
10.27744	-0.364549	-0.3743381	0.005552954	-0.002698127	0.1675065	-0.0813898
10.29399	-0.364549	-0.3743381	0	0	-0.1678203	0.08154228
10.31105	-0.364549	-0.3743381	0	0	0	0
10.33322	-0.3643192	-0.3744274	0.01036245	-0.004029917	0.2641245	-0.102717
10.35025	-0.3643192	-0.3744274	0	0	-0.2643237	0.1027944
10.36645	-0.3640665	-0.3744944	0.01560476	-0.004136733	0.4696279	-0.1244957
10.38293	-0.3640665	-0.3744944	0	0	-0.4776197	0.1266143
10.39949	-0.3640665	-0.3744944	0	0	0	0
10.41606	-0.3638367	-0.3745838	0.0138737	-0.005393328	0.4187331	-0.1627803
10.43262	-0.3638367	-0.3745838	0	0	-0.4187331	0.1627803
10.44919	-0.3638367	-0.3745838	0	0	0	0
10.46793	-0.3636298	-0.3747848	0.01104186	-0.01073006	0.3127898	-0.3039573
10.4845	-0.3636298	-0.3747848	0	0	-0.3127644	0.3039326
10.50106	-0.3636298	-0.3747848	0	0	0	0
10.51766	-0.3633769	-0.3749859	0.01523449	-0.01211398	0.4593547	-0.3652641
10.53419	-0.3633769	-0.3749859	0	0	-0.459791	0.365611
10.55076	-0.3633769	-0.3749859	0	0	0	0
10.56764	-0.3620428	-0.3762375	0.07903779	-0.07414548	2.363124	-2.216851
10.58389	-0.3620428	-0.3762375	0	0	-2.385434	2.237779
10.60046	-0.3620428	-0.3762375	0	0	0	0
10.61707	-0.3611449	-0.3768412	0.05406259	-0.03635515	1.629642	-1.095876
10.63359	-0.3611449	-0.3768412	0	0	-1.631706	1.097264
10.65026	-0.3611449	-0.3768412	0	0	0	0
10.66673	-0.3599468	-0.3764834	0.0727833	0.02173795	2.196731	0.6560904
10.6833	-0.3599468	-0.3764834	0	0	-2.203135	-0.6580033
10.69986	-0.3599468	-0.3764834	0	0	0	0
10.71659	-0.3550047	-0.3725079	0.2953788	0.2376097	8.872414	7.137181
10.733	-0.3550047	-0.3725079	0	0	-8.914805	-7.171282
10.74956	-0.3550047	-0.3725079	0	0	0	0
10.76654	-0.3319548	-0.3752316	1.357231	-0.1603791	40.4548	-4.7804
10.78269	-0.3319548	-0.3752316	0	0	-40.96366	4.84053
10.79926	-0.3319548	-0.3752316	0	0	0	0
10.81583	-0.3212136	-0.385296	0.6482675	-0.6074145	19.56419	-18.33128
10.8324	-0.3212136	-0.385296	0	0	-19.56419	18.33128
10.84896	-0.3212136	-0.385296	0	0	0	0
10.86553	-0.3039394	-0.4012748	1.042733	-0.9645386	31.47155	-29.11151
10.88209	-0.3039394	-0.4012748	0	0	-31.47155	29.11151
10.89866	-0.3039394	-0.4012748	0	0	0	0
10.91564	-0.2753011	-0.4272335	1.686859	-1.529022	50.28715	-45.58185
10.9318	-0.2753011	-0.4272335	0	0	-50.90951	46.14598
10.94836	-0.2753011	-0.4272335	0	0	0	0
10.96504	-0.2466374	-0.4541723	1.719157	-1.615711	51.7205	-48.60835
10.98169	-0.2466374	-0.4541723	0	0	-51.57844	48.47483
10.99806	-0.2466374	-0.4541723	0	0	0	0
11.01464	-0.2291404	-0.468036	1.055939	-0.8366655	32.05466	-25.39828
11.03129	-0.2291404	-0.468036	0	0	-31.77957	25.18031
11.04854	-0.2291404	-0.468036	0	0	0	0
11.06433	-0.1964591	-0.4523842	2.068747	0.9907656	62.61152	29.98594
11.0809	-0.1964591	-0.4523842	0	0	-63.92523	-30.61511
11.09747	-0.1964591	-0.4523842	0	0	0	0
11.11439	-0.1670599	-0.4367392	1.737341	0.9245361	51.87465	27.6054
11.1306	-0.1670599	-0.4367392	0	0	-52.43456	-27.90336
11.14732	-0.1670599	-0.4367392	0	0	0	0
11.16373	-0.1486326	-0.4199944	1.123201	1.020651	33.90412	30.80861
11.1803	-0.1486326	-0.4199944	0	0	-34.06395	-30.95386
11.19702	-0.1486326	-0.4199944	0	0	0	0
11.21343	-0.13031	-0.4037074	1.116493	0.9924526	33.6997	29.95573
11.23	-0.13031	-0.4037074	0	0	-33.85367	-30.09259
11.24659	-0.13031	-0.4037074	0	0	0	0
11.26313	-0.1129124	-0.3883345	1.051754	0.9293547	31.74474	28.0504
11.2797	-0.1129124	-0.3883345	0	0	-31.76577	-28.06898
11.29626	-0.1129124	-0.3883345	0	0	0	0
11.31283	-0.0981051	-0.3753434	0.893927	0.7842834	26.98188	23.67245
11.3294	-0.0981051	-0.3753434	0	0	-26.97877	-23.66972
11.34596	-0.0981051	-0.3753434	0	0	0	0
11.36253	-0.08981039	-0.3680305	0.5006697	0.4414071	15.11154	13.32284
11.37909	-0.08981039	-0.3680305	0	0	-15.11067	-13.32208
11.39566	-0.08981039	-0.3680305	0	0	0	0
11.4132	-0.08330674	-0.3624565	0.3707896	0.3177859	10.87099	9.317005
11.42879	-0.08330674	-0.3624565	0	0	-11.19174	-9.591903
11.44555	-0.08330674	-0.3624565	0	0	0	0
11.46193	-0.08333288	-0.3624343	-0.001595613	0.001353633	-0.04815431	0.04085155
11.47849	-0.08333288	-0.3624343	0	0	0.0484303	-0.04108568
11.49506	-0.08333288	-0.3624343	0	0	0	0
11.51192	-0.08333288	-0.3624343	0	0	0	0
11.52853	-0.08333288	-0.3624343	0	0	0	0
11.54476	-0.08333288	-0.3624343	0	0	0	0
11.56133	-0.08333288	-0.3624343	0	0	0	0
11.57791	-0.08333288	-0.3624343	0	0	0	0
11.59446	-0.08333288	-0.3624343	0	0	0	0
11.61105	-0.08333288	-0.3624343	0	0	0	0
11.62759	-0.08333288	-0.3624343	0	0	0	0
11.64416	-0.08333288	-0.3624343	0	0	0	0
11.67539	-0.08335901	-0.3624122	-0.0008367724	0.0007100754	-0.01750672	0.014856
11.69196	-0.08335901	-0.3624122	0	0	0.01750742	-0.0148566
11.70852	-0.08335901	-0.3624122	0	0	0	0
11.7254	-0.08335901	-0.3624122	0	0	0	0
11.74166	-0.08335901	-0.3624122	0	0	0	0
11.75826	-0.08335901	-0.3624122	0	0	0	0
11.77479	-0.08335901	-0.3624122	0	0	0	0
11.79169	-0.08335901	-0.3624122	0	0	0	0
11.80793	-0.08335901	-0.3624122	0	0	0	0
11.82483	-0.08335901	-0.3624122	0	0	0	0
11.84106	-0.08335901	-0.3624122	0	0	0	0
11.85763	-0.08335901	-0.3624122	0	0	0	0
11.87419	-0.08335901	-0.3624122	0	0	0	0
11.89076	-0.08335901	-0.3624122	0	0	0	0
11.90732	-0.08335901	-0.3624122	0	0	0	0
11.9239	-0.08335901	-0.3624122	0	0	0	0
11.94046	-0.08335901	-0.3624122	0	0	0	0
11.95713	-0.08335901	-0.3624122	0	0	0	0
11.97359	-0.08335901	-0.3624122	0	0	0	0
11.99016	-0.08335901	-0.3624122	0	0	0	0
12.00672	-0.08338515	-0.3624343	-0.001577883	-0.001338592	-0.04762334	-0.0404011
12.02329	-0.08338515	-0.3624343	0	0	0.04762198	0.04039994
12.03986	-0.08338515	-0.3624343	0	0	0	0
12.05643	-0.08338515	-0.3624343	0	0	0	0
12.07299	-0.08338515	-0.3624343	0	0	0	0
12.08959	-0.08338515	-0.3624343	0	0	0	0
12.10612	-0.08341128	-0.3624565	-0.001580704	-0.001340985	-0.0477085	-0.04047334
12.12269	-0.08341128	-0.3624565	0	0	0.04774973	0.04050832
12.13926	-0.08341128	-0.3624565	0	0	0	0
12.15583	-0.08341128	-0.3624565	0	0	0	0
12.17239	-0.08341128	-0.3624565	0	0	0	0
12.18896	-0.08341128	-0.3624565	0	0	0	0
12.20556	-0.08341128	-0.3624565	0	0	0	0
12.22209	-0.08341128	-0.3624565	0	0	0	0
12.23919	-0.08341128	-0.3624565	0	0	0	0
12.25522	-0.08341128	-0.3624565	0	0	0	0
12.27179	-0.08341128	-0.3624565	0	0	0	0
12.28836	-0.08341128	-0.3624565	0	0	0	0
12.30492	-0.08341128	-0.3625008	0	-0.002675076	0	-0.08073861
12.32149	-0.08341128	-0.3625008	0	0	0	0.08073861
12.33822	-0.08341128	-0.3625008	0	0	0	0
12.35766	-0.08348968	-0.3625673	-0.004033519	-0.003422473	-0.1115185	-0.09462435
12.37428	-0.08348968	-0.3625673	0	0	0.1118814	0.09493223
12.3908	-0.08348968	-0.3625673	0	0	0	0
12.40736	-0.08348968	-0.362656	0	-0.005354059	0	-0.1618234
12.42393	-0.08348968	-0.362656	0	0	0	0.1615905
12.4405	-0.08348968	-0.362656	0	0	0	0
12.45706	-0.08356807	-0.3628112	-0.004732205	-0.009369063	-0.1428182	-0.2827589
12.47363	-0.08356807	-0.3628112	0	0	0.1428223	0.282767
12.4902	-0.08356807	-0.3628112	0	0	0	0
12.50676	-0.08539706	-0.3644973	-0.1104172	-0.1017905	-3.332781	-3.072398
12.52333	-0.08539706	-0.3644973	0	0	3.332685	3.07231
12.5399	-0.08539706	-0.3644973	0	0	0	0
12.55657	-0.08719937	-0.3660741	-0.1081027	-0.09457228	-3.252249	-2.845189
12.57357	-0.08719937	-0.3660741	0	0	3.210704	2.808843
12.5896	-0.08719937	-0.3660741	0	0	0	0
12.60663	-0.08712102	-0.3661407	0.004599242	-0.003913466	0.1390936	-0.1183539
12.62273	-0.08712102	-0.3661407	0	0	-0.1388094	0.118112
12.6393	-0.08712102	-0.3661407	0	0	0	0
12.65647	-0.08706878	-0.3662296	0.003041448	-0.005174496	0.09014358	-0.1533636
12.67243	-0.08706878	-0.3662296	0	0	-0.09179901	0.1561801
12.689	-0.08706878	-0.3662296	0	0	0	0
12.70556	-0.08685984	-0.3664518	0.01261217	-0.01341496	0.3806359	-0.4048643
12.72213	-0.08685984	-0.3664518	0	0	-0.3806359	0.4048643
12.7387	-0.08685984	-0.3664518	0	0	0	0
12.75526	-0.08683372	-0.3664741	0.001577528	-0.001342654	0.04761127	-0.04052254
12.77183	-0.08683372	-0.3664741	0	0	-0.04762498	0.04053421
12.78859	-0.08683372	-0.3664741	0	0	0	0
12.80496	-0.08685984	-0.3664963	-0.001595725	-0.001356321	-0.04816324	-0.04093739
12.82173	-0.08685984	-0.3664963	0	0	0.04814938	0.0409256
12.83829	-0.08685984	-0.3664963	0	0	0	0
12.85466	-0.08685984	-0.3664518	0	0.002713198	0	0.08238957
12.87123	-0.08685984	-0.3664518	0	0	0	-0.08236095
12.88796	-0.08685984	-0.3664518	0	0	0	0
12.90443	-0.08685984	-0.3664518	0	0	0	0
12.92098	-0.08685984	-0.3664518	0	0	0	0
12.93749	-0.08685984	-0.3664518	0	0	0	0
12.95421	-0.08685984	-0.3664518	0	0	0	0
12.97066	-0.08685984	-0.3664518	0	0	0	0
12.98723	-0.08685984	-0.3664518	0	0	0	0
13.00376	-0.08685984	-0.3664074	0	0.002690421	0	0.08126958
13.02057	-0.08685984	-0.3664074	0	0	0	-0.08071156
13.03706	-0.08685984	-0.3664074	0	0	0	0
13.11944	-0.08683372	-0.3663407	0.0003170762	0.0008092406	0.00320693	0.008184714
13.14486	-0.08683372	-0.3663407	0	0	-0.002941272	-0.007506704
13.16671	-0.08685984	-0.3663185	-0.001195732	0.001016338	-0.02529843	0.02150294
13.18327	-0.08685984	-0.3663185	0	0	0.03112827	-0.02645814
13.19984	-0.08683372	-0.3662963	0.001576802	0.001342036	0.04758934	0.04050388
13.21641	-0.08683372	-0.3662963	0	0	-0.04758523	-0.04050038
13.23298	-0.08683372	-0.3662963	0	0	0	0
13.24954	-0.08683372	-0.3662963	0	0	0	0
13.26636	-0.08683372	-0.3662963	0	0	0	0
13.28267	-0.08683372	-0.3662963	0	0	0	0
13.29924	-0.08683372	-0.3662963	0	0	0	0
13.31581	-0.08683372	-0.3662963	0	0	0	0
13.3328	-0.08683372	-0.3662963	0	0	0	0
13.34894	-0.08683372	-0.3662963	0	0	0	0
13.36551	-0.08683372	-0.3662963	0	0	0	0
13.38238	-0.08683372	-0.3662963	0	0	0	0
13.39885	-0.08680761	-0.3662741	0.001585479	0.001347997	0.0475515	0.04042895
13.41521	-0.08680761	-0.3662741	0	0	-0.04829466	-0.0410608
13.43258	-0.08680761	-0.3662741	0	0	0	0
13.44834	-0.08683372	-0.3662518	-0.001656853	0.001410571	-0.05000681	0.04257356
13.46509	-0.08683372	-0.3662518	0	0	0.05095575	-0.04338145
13.48147	-0.08683372	-0.3662518	0	0	0	0
13.49804	-0.08683372	-0.3662518	0	0	0	0
13.51461	-0.08683372	-0.3662518	0	0	0	0
13.53131	-0.08683372	-0.3662518	0	0	0	0
13.54781	-0.08683372	-0.3662518	0	0	0	0
13.56431	-0.08683372	-0.3662518	0	0	0	0
13.58093	-0.08683372	-0.3662518	0	0	0	0
13.59744	-0.08683372	-0.3662518	0	0	0	0
13.61443	-0.08683372	-0.3662518	0	0	0	0
13.63058	-0.08683372	-0.3662518	0	0	0	0
13.64714	-0.08683372	-0.3662518	0	0	0	0
13.66371	-0.08683372	-0.3662518	0	0	0	0
13.68028	-0.08683372	-0.3662518	0	0	0	0
13.69684	-0.08683372	-0.3662518	0	0	0	0
13.71341	-0.08683372	-0.3662518	0	0	0	0
13.72997	-0.08683372	-0.3662518	0	0	0	0
13.7477	-0.08683372	-0.3662518	0	0	0	0
13.76449	-0.08683372	-0.3662518	0	0	0	0
13.781	-0.08683372	-0.3662518	0	0	0	0
13.79761	-0.08683372	-0.3662518	0	0	0	0
13.81398	-0.08683372	-0.3662518	0	0	0	0
13.83055	-0.08683372	-0.3662518	0	0	0	0
13.84711	-0.08683372	-0.3662518	0	0	0	0
13.86368	-0.08683372	-0.3662518	0	0	0	0
13.88107	-0.08683372	-0.3662518	0	0	0	0
13.89681	-0.08683372	-0.3662518	0	0	0	0
13.91338	-0.08683372	-0.3662518	0	0	0	0
13.93038	-0.08683372	-0.3662518	0	0	0	0
13.94686	-0.08683372	-0.3662518	0	0	0	0
13.96308	-0.08683372	-0.3662518	0	0	0	0
13.97994	-0.08683372	-0.3662518	0	0	0	0
13.99649	-0.08683372	-0.3662518	0	0	0	0
14.01306	-0.08683372	-0.3662518	0	0	0	0
14.02934	-0.08683372	-0.3662518	0	0	0	0
14.04622	-0.08683372	-0.3662518	0	0	0	0
14.06253	-0.08683372	-0.3662518	0	0	0	0
14.07904	-0.08683372	-0.3662518	0	0	0	0
14.09564	-0.08683372	-0.3662518	0	0	0	0
14.11253	-0.08683372	-0.3662518	0	0	0	0
14.12874	-0.08683372	-0.3662518	0	0	0	0
14.14531	-0.08683372	-0.3662518	0	0	0	0
14.16188	-0.08683372	-0.3662518	0	0	0	0
14.17844	-0.08683372	-0.3662518	0	0	0	0
14.19501	-0.08683372	-0.3662518	0	0	0	0
14.21158	-0.08683372	-0.3662518	0	0	0	0
14.22853	-0.08683372	-0.3662518	0	0	0	0
14.24544	-0.08683372	-0.3662518	0	0	0	0
14.26128	-0.08683372	-0.3662518	0	0	0	0
14.27784	-0.08683372	-0.3662518	0	0	0	0
14.29441	-0.08683372	-0.3662518	0	0	0	0
14.31169	-0.08683372	-0.3662518	0	0	0	0
14.32795	-0.08683372	-0.3662518	0	0	0	0
14.34411	-0.08683372	-0.3662518	0	0	0	0
14.36068	-0.08683372	-0.3662518	0	0	0	0
14.37724	-0.08683372	-0.3662518	0	0	0	0
14.39417	-0.08683372	-0.3662518	0	0	0	0
14.41038	-0.08683372	-0.3662518	0	0	0	0
14.42694	-0.08683372	-0.3662518	0	0	0	0
14.44371	-0.08683372	-0.3662518	0	0	0	0
14.46008	-0.08683372	-0.3662518	0	0	0	0
14.47664	-0.08683372	-0.3662518	0	0	0	0
14.49321	-0.08683372	-0.3662518	0	0	0	0
14.50978	-0.08683372	-0.3662518	0	0	0	0
14.52634	-0.08683372	-0.3662518	0	0	0	0
14.54291	-0.08683372	-0.3662518	0	0	0	0
14.55947	-0.08683372	-0.3662518	0	0	0	0
14.57655	-0.08683372	-0.3662518	0	0	0	0
14.59261	-0.08683372	-0.3662518	0	0	0	0
14.60917	-0.08683372	-0.3662518	0	0	0	0
14.62613	-0.08683372	-0.3662518	0	0	0	0
14.64314	-0.08683372	-0.3662518	0	0	0	0
14.65887	-0.08683372	-0.3662518	0	0	0	0
14.67585	-0.08683372	-0.3662518	0	0	0	0
14.69201	-0.08683372	-0.3662518	0	0	0	0
14.70857	-0.08683372	-0.3662518	0	0	0	0
14.72565	-0.08683372	-0.3662518	0	0	0	0
14.74171	-0.08683372	-0.3662518	0	0	0	0
14.75827	-0.08683372	-0.3662518	0	0	0	0
14.77484	-0.08683372	-0.3662518	0	0	0	0
14.7914	-0.08683372	-0.3662518	0	0	0	0
14.80797	-0.08683372	-0.3662518	0	0	0	0
14.82489	-0.08683372	-0.3662518	0	0	0	0
14.84148	-0.08683372	-0.3662518	0	0	0	0
14.85767	-0.08683372	-0.3662518	0	0	0	0
14.8743	-0.08683372	-0.3662518	0	0	0	0
14.89081	-0.08683372	-0.3662518	0	0	0	0
14.90744	-0.08683372	-0.3662518	0	0	0	0
14.92394	-0.08683372	-0.3662518	0	0	0	0
14.94051	-0.08683372	-0.3662518	0	0	0	0
14.95707	-0.08683372	-0.3662518	0	0	0	0
14.97364	-0.08683372	-0.3662518	0	0	0	0
14.99021	-0.08683372	-0.3662518	0	0	0	0
15.00677	-0.08683372	-0.3662518	0	0	0	0
15.02399	-0.08683372	-0.3662518	0	0	0	0
15.03991	-0.08683372	-0.3662518	0	0	0	0
15.05647	-0.08683372	-0.3662518	0	0	0	0
15.07322	-0.08683372	-0.3662518	0	0	0	0
15.09105	-0.08683372	-0.3662518	0	0	0	0
15.10788	-0.08683372	-0.3662518	0	0	0	0
15.12453	-0.08683372	-0.3662518	0	0	0	0
15.14133	-0.08683372	-0.3662518	0	0	0	0
15.1579	-0.08683372	-0.3662518	0	0	0	0
15.17447	-0.08683372	-0.3662518	0	0	0	0
15.19103	-0.08683372	-0.3662518	0	0	0	0
15.2076	-0.08683372	-0.3662518	0	0	0	0
15.22417	-0.08683372	-0.3662518	0	0	0	0
15.24073	-0.08683372	-0.3662518	0	0	0	0
15.2573	-0.08683372	-0.3662518	0	0	0	0
15.27387	-0.08683372	-0.3662518	0	0	0	0
15.29043	-0.08683372	-0.3662518	0	0	0	0
15.307	-0.08683372	-0.3662518	0	0	0	0
15.32357	-0.08683372	-0.3662518	0	0	0	0
15.34013	-0.08683372	-0.3662518	0	0	0	0
15.3567	-0.08683372	-0.3662518	0	0	0	0
15.37327	-0.08683372	-0.3662518	0	0	0	0
15.38983	-0.08683372	-0.3662518	0	0	0	0
15.4064	-0.08683372	-0.3662518	0	0	0	0
15.42297	-0.08683372	-0.3662518	0	0	0	0
15.43953	-0.08683372	-0.3662518	0	0	0	0
15.4561	-0.08683372	-0.3662518	0	0	0	0
15.47284	-0.08683372	-0.3662518	0	0	0	0
15.48923	-0.08685984	-0.3662296	-0.001593312	0.001356088	-0.04808902	0.04092916
15.5058	-0.08685984	-0.3662296	0	0	0.04833667	-0.04113994
15.52237	-0.08685984	-0.3662296	0	0	0	0
15.53921	-0.08693819	-0.366163	-0.004651846	0.003956458	-0.1392388	0.1184245
15.55574	-0.08693819	-0.366163	0	0	0.1393741	-0.1185395
15.57207	-0.08693819	-0.366163	0	0	0	0
15.58875	-0.08693819	-0.366163	0	0	0	0
15.60537	-0.08693819	-0.366163	0	0	0	0
15.62177	-0.08693819	-0.366163	0	0	0	0
15.63838	-0.08704267	-0.3661185	-0.006290013	0.002675342	-0.1905955	0.0810663
15.6549	-0.08704267	-0.3661185	0	0	0.1898384	-0.0807443
15.67165	-0.08704267	-0.3661185	0	0	0	0
15.68809	-0.0872516	-0.3660741	-0.01270607	0.002704153	-0.382831	0.08147547
15.7046	-0.0872516	-0.3660741	0	0	0.3855898	-0.08206262
15.72124	-0.0872516	-0.3660741	0	0	0	0
15.73783	-0.08782612	-0.3663407	-0.03463036	-0.0160723	-1.042117	-0.483657
15.7544	-0.08782612	-0.3663407	0	0	1.044275	0.4846585
15.77086	-0.08782612	-0.3663407	0	0	0	0
15.78743	-0.104903	-0.379662	-1.030761	-0.8040741	-31.20813	-24.34478
15.804	-0.104903	-0.379662	0	0	31.10753	24.26631
15.82083	-0.104903	-0.379662	0	0	0	0
15.83713	-0.1707678	-0.4372278	-4.039557	-3.530568	-121.9246	-106.562
15.8537	-0.1707678	-0.4372278	0	0	122.8796	107.3966
15.87038	-0.1707678	-0.4372278	0	0	0	0
15.88683	-0.2224914	-0.4855015	-3.14412	-2.934415	-94.89793	-88.56847
15.9034	-0.2224914	-0.4855015	0	0	95.22136	88.87032
15.91997	-0.2224914	-0.4855015	0	0	0	0
15.93653	-0.265379	-0.5277969	-2.58885	-2.553104	-78.13391	-77.05505
15.9531	-0.265379	-0.5277969	0	0	78.13616	77.05727
15.97013	-0.265379	-0.5277969	0	0	0	0
15.98623	-0.2841498	-0.543256	-1.165547	-0.9599137	-35.17932	-28.97275
16.0028	-0.2841498	-0.543256	0	0	35.67218	29.37866
16.01937	-0.2841498	-0.543256	0	0	0	0
16.03645	-0.2928324	-0.5355529	-0.5082836	0.4509477	-15.10526	13.40134
16.05299	-0.2928324	-0.5355529	0	0	15.1164	-13.41122
16.06907	-0.2928324	-0.5355529	0	0	0	0
16.08568	-0.3013978	-0.5266786	-0.5156429	0.534239	-15.77554	16.34447
16.1022	-0.3013978	-0.5266786	0	0	15.56393	-16.12522
16.11877	-0.3013978	-0.5266786	0	0	0	0
16.13533	-0.309512	-0.5181368	-0.4898298	0.5156412	-14.78309	15.56208
16.15199	-0.309512	-0.5181368	0	0	14.7449	-15.52188
16.16847	-0.309512	-0.5181368	0	0	0	0
16.18503	-0.3251651	-0.5016823	-0.944932	0.9933074	-28.59382	30.05767
16.2016	-0.3251651	-0.5016823	0	0	28.51974	-29.9798
16.21817	-0.3251651	-0.5016823	0	0	0	0
16.23473	-0.3430839	-0.4827353	-1.081586	1.143645	-32.64421	34.51727
16.25133	-0.3430839	-0.4827353	0	0	32.61417	-34.48551
16.26816	-0.3430839	-0.4827353	0	0	0	0
16.28443	-0.3494639	-0.4595266	-0.3919984	1.426	-11.84144	43.07645
16.301	-0.3494639	-0.4595266	0	0	11.93565	-43.41919
16.31757	-0.3494639	-0.4595266	0	0	0	0
16.33451	-0.3531989	-0.4392302	-0.2204971	1.198192	-6.580746	35.76009
16.3507	-0.3531989	-0.4392302	0	0	6.654997	-36.16358
16.36765	-0.3531989	-0.4392302	0	0	0	0
16.38416	-0.3577782	-0.4345777	-0.2772693	0.2817029	-8.286437	8.418941
16.40115	-0.3577782	-0.4345777	0	0	8.275587	-8.407917
16.41697	-0.3577782	-0.4345777	0	0	0	0
16.43469	-0.3577782	-0.4345777	0	0	0	0
16.45126	-0.3577782	-0.4345777	0	0	0	0
16.46783	-0.3577782	-0.4345777	0	0	0	0
16.48439	-0.3577552	-0.4346009	0.001392487	-0.001401482	0.04202776	-0.04229926
16.50096	-0.3577552	-0.4346009	0	0	-0.04202776	0.04229926
16.51752	-0.3577552	-0.4346009	0	0	0	0
16.53434	-0.357709	-0.4346474	0.002747136	-0.002763087	0.08229761	-0.08277546
16.55066	-0.357709	-0.4346474	0	0	-0.08290873	0.08339013
16.56723	-0.357709	-0.4346474	0	0	0	0
16.58379	-0.3576397	-0.4346706	0.004181059	-0.001401482	0.1261919	-0.04229926
16.60069	-0.3576397	-0.4346706	0	0	-0.1249618	0.04188692
16.61711	-0.3576397	-0.4346706	0	0	0	0
16.63369	-0.3575704	-0.4346474	0.00417949	0.001400354	0.1266476	0.04243375
16.65006	-0.3575704	-0.4346474	0	0	-0.1268382	-0.04249761
16.66663	-0.3575704	-0.4346474	0	0	0	0
16.68325	-0.3575011	-0.4346241	0.004166189	0.001398291	0.1255191	0.04212774
16.69976	-0.3575011	-0.4346241	0	0	-0.1257358	-0.04220049
16.71651	-0.3575011	-0.4346241	0	0	0	0
16.73289	-0.3574781	-0.4346009	0.001409542	0.001416817	0.04254251	0.04276209
16.74946	-0.3574781	-0.4346009	0	0	-0.0427715	-0.04299226
16.76629	-0.3574781	-0.4346009	0	0	0	0
16.78259	-0.3574781	-0.4346009	0	0	0	0
16.79916	-0.3574781	-0.4346009	0	0	0	0
16.81573	-0.3574781	-0.4346009	0	0	0	0
16.83229	-0.3573857	-0.4345544	0.005576503	0.002804441	0.1683089	0.08464307
16.84935	-0.3573857	-0.4345544	0	0	-0.1658457	-0.08340432
16.86543	-0.3573857	-0.4345544	0	0	0	0
16.88503	-0.3565309	-0.4336953	0.04362467	0.04384369	1.2229	1.229039
16.90188	-0.3565309	-0.4336953	0	0	-1.196855	-1.202864
16.91816	-0.3565309	-0.4336953	0	0	0	0
16.93473	-0.3514371	-0.4285513	0.3074632	0.3104942	9.36062	9.452901
16.95129	-0.3514371	-0.4285513	0	0	-9.279257	-9.370735
16.96786	-0.3514371	-0.4285513	0	0	0	0
16.98443	-0.3514371	-0.4285513	0	0	0	0
17.00099	-0.3514371	-0.4285513	0	0	0	0
17.01756	-0.3514371	-0.4285513	0	0	0	0
17.03413	-0.3514371	-0.4285513	0	0	0	0
17.0507	-0.3514371	-0.4285513	0	0	0	0
17.06726	-0.3514371	-0.4285513	0	0	0	0
17.08383	-0.3513907	-0.4285513	0.002801166	0	0.08454422	0
17.1005	-0.3513907	-0.4285513	0	0	-0.08428705	0
17.117	-0.3513907	-0.4285513	0	0	0	0
17.13443	-0.3513211	-0.4284819	0.003992599	0.003980631	0.1176723	0.1173195
17.1501	-0.3513211	-0.4284819	0	0	-0.1206219	-0.1202603
17.16666	-0.3513211	-0.4284819	0	0	0	0
17.18349	-0.3503231	-0.4276264	0.05929991	0.05084013	1.775773	1.522439
17.19979	-0.3503231	-0.4276264	0	0	-1.789778	-1.534447
17.21664	-0.3503231	-0.4276264	0	0	0	0
17.23293	-0.3382915	-0.4156998	0.7388183	0.7323675	22.29887	22.10417
17.2495	-0.3382915	-0.4156998	0	0	-22.48787	-22.29152
17.26606	-0.3382915	-0.4156998	0	0	0	0
17.28281	-0.3332479	-0.4108686	0.3011385	0.2884548	9.039464	8.658731
17.29922	-0.3332479	-0.4108686	0	0	-9.081059	-8.698574
17.31576	-0.3332479	-0.4108686	0	0	0	0
17.33233	-0.3313902	-0.4100688	0.1121309	0.04828172	3.387041	1.458404
17.34953	-0.3313902	-0.4100688	0	0	-3.320092	-1.429577
17.36557	-0.3313902	-0.4100688	0	0	0	0
17.38269	-0.3268419	-0.4070786	0.2657591	0.1747134	8.01601	5.269826
17.39859	-0.3268419	-0.4070786	0	0	-8.048423	-5.291135
17.41564	-0.3268419	-0.4070786	0	0	0	0
17.43172	-0.3151837	-0.3959001	0.7248014	0.6949781	21.87707	20.97689
17.44829	-0.3151837	-0.3959001	0	0	-22.19783	-21.28446
17.46523	-0.3151837	-0.3959001	0	0	0	0
17.48142	-0.2983713	-0.3806482	1.038344	0.9419727	31.33908	28.43043
17.49799	-0.2983713	-0.3806482	0	0	-31.69488	-28.7532
17.51487	-0.2983713	-0.3806482	0	0	0	0
17.53112	-0.2651339	-0.3667408	2.044585	0.8555068	61.71281	25.82222
17.54769	-0.2651339	-0.3667408	0	0	-62.29017	-26.0638
17.56426	-0.2651339	-0.3667408	0	0	0	0
17.58083	-0.216224	-0.3741595	2.952209	-0.4477932	89.09783	-13.51442
17.5977	-0.216224	-0.3741595	0	0	-88.2696	13.3888
17.6141	-0.216224	-0.3741595	0	0	0	0
17.63053	-0.1725306	-0.3732442	2.660306	0.05572632	81.05336	1.697852
17.64709	-0.1725306	-0.3732442	0	0	-80.64097	-1.689214
17.66411	-0.1725306	-0.3732442	0	0	0	0
17.68023	-0.155138	-0.3649413	1.07914	0.515159	32.56852	15.54753
17.69679	-0.155138	-0.3649413	0	0	-33.01898	-15.76257
17.71336	-0.155138	-0.3649413	0	0	0	0
17.72993	-0.1529538	-0.3630552	0.1318375	0.1138488	3.978864	3.435963
17.74656	-0.1529538	-0.3630552	0	0	-3.971092	-3.429252
17.76306	-0.1529538	-0.3630552	0	0	0	0
17.77962	-0.1529538	-0.3630552	0	0	0	0
17.79619	-0.1529538	-0.3630552	0	0	0	0
17.81276	-0.1529538	-0.3630552	0	0	0	0
17.8299	-0.1527739	-0.3628999	0.0104978	0.009056484	0.3114282	0.2686701
17.8459	-0.1527739	-0.3628999	0	0	-0.3167696	-0.2732781
17.8632	-0.1527739	-0.3628999	0	0	0	0
17.87902	-0.1522083	-0.3624122	0.03574819	0.03082994	1.079193	0.9307173
17.8956	-0.1522083	-0.3624122	0	0	-1.10353	-0.9517056
17.91233	-0.1522083	-0.3624122	0	0	0	0
17.92872	-0.1371339	-0.3494942	0.9198509	0.7882569	27.76755	23.79512
17.9453	-0.1371339	-0.3494942	0	0	-27.90734	-23.91491
17.96186	-0.1371339	-0.3494942	0	0	0	0
17.97842	-0.1173011	-0.3327288	1.19752	1.012316	36.14745	30.55703
17.995	-0.1173011	-0.3327288	0	0	-36.14329	-30.55351
18.01173	-0.1173011	-0.3327288	0	0	0	0
18.02812	-0.1058919	-0.3231939	0.6959533	0.5816172	21.00996	17.5583
18.04469	-0.1058919	-0.3231939	0	0	-21.11329	-17.64466
18.06144	-0.1058919	-0.3231939	0	0	0	0
18.07782	-0.09382894	-0.3131941	0.7360876	0.610197	22.21517	18.41578
18.09439	-0.09382894	-0.3131941	0	0	-22.33603	-18.51597
18.11116	-0.09382894	-0.3131941	0	0	0	0
18.12753	-0.08834836	-0.3087201	0.3348954	0.2733883	10.10716	8.250876
18.14409	-0.08834836	-0.3087201	0	0	-10.16921	-8.30153
18.16066	-0.08834836	-0.3087201	0	0	0	0
18.17775	-0.08832225	-0.3086986	0.001527282	0.001257044	0.04537259	0.03734434
18.19379	-0.08832225	-0.3086986	0	0	-0.04609611	-0.03793984
18.21036	-0.08832225	-0.3086986	0	0	0	0
18.22693	-0.08832225	-0.3086986	0	0	0	0
18.24361	-0.08832225	-0.3086986	0	0	0	0
18.26025	-0.08832225	-0.3086986	0	0	0	0
18.27664	-0.08832225	-0.3086986	0	0	0	0
18.29349	-0.08832225	-0.3086986	0	0	0	0
18.30976	-0.08832225	-0.3086986	0	0	0	0
18.32713	-0.08832225	-0.3086986	0	0	0	0
18.34289	-0.08832225	-0.3086986	0	0	0	0
18.35989	-0.08832225	-0.3086986	0	0	0	0
18.37602	-0.08832225	-0.3087415	0	-0.002662953	0	-0.08036809
18.39259	-0.08832225	-0.3087415	0	0	0	0.08141793
18.40917	-0.08832225	-0.3087415	0	0	0	0
18.42572	-0.08832225	-0.3087415	0	0	0	0
18.44229	-0.08832225	-0.3087415	0	0	0	0
18.4591	-0.08832225	-0.3087415	0	0	0	0
18.47542	-0.08832225	-0.3087415	0	0	0	0
18.49211	-0.08832225	-0.3087415	0	0	0	0
18.54893	-0.08832225	-0.3087415	0	0	0	0
18.56588	-0.08832225	-0.3087415	0	0	0	0
18.58257	-0.08832225	-0.3087415	0	0	0	0
18.59902	-0.08832225	-0.3087415	0	0	0	0
18.61558	-0.08832225	-0.3087415	0	0	0	0
18.63215	-0.08832225	-0.3087415	0	0	0	0
18.64872	-0.08832225	-0.3087415	0	0	0	0
18.66542	-0.08832225	-0.3087415	0	0	0	0
18.68185	-0.08832225	-0.3087415	0	0	0	0
18.69865	-0.08832225	-0.3087415	0	0	0	0
18.71498	-0.08832225	-0.3087415	0	0	0	0
18.73163	-0.08832225	-0.3087415	0	0	0	0
18.74823	-0.08832225	-0.3087415	0	0	0	0
18.7648	-0.08832225	-0.3087415	0	0	0	0
18.78137	-0.08832225	-0.3087415	0	0	0	0
18.79794	-0.08832225	-0.3087415	0	0	0	0
18.8145	-0.08834836	-0.3087201	-0.001575993	0.001297136	-0.04756904	0.03915215
18.83107	-0.08834836	-0.3087201	0	0	0.04756631	-0.03914989
18.84764	-0.08834836	-0.3087201	0	0	0	0
18.8642	-0.08834836	-0.3087201	0	0	0	0
18.88077	-0.08834836	-0.3087201	0	0	0	0
18.89734	-0.08834836	-0.3087201	0	0	0	0
18.9139	-0.08834836	-0.3087201	0	0	0	0
18.93047	-0.08834836	-0.3087201	0	0	0	0
18.94769	-0.08834836	-0.3087201	0	0	0	0
18.9636	-0.08837447	-0.3087415	-0.001640868	-0.001350147	-0.04952151	-0.04074751
18.98017	-0.08837447	-0.3087415	0	0	0.05051601	0.04156581
18.99701	-0.08837447	-0.3087415	0	0	0	0
19.0133	-0.08837447	-0.3087415	0	0	0	0
19.02997	-0.08837447	-0.3087415	0	0	0	0
19.04676	-0.08837447	-0.3087415	0	0	0	0
19.063	-0.08837447	-0.3087415	0	0	0	0
19.07957	-0.08837447	-0.3087415	0	0	0	0
19.09613	-0.08837447	-0.3087415	0	0	0	0
19.11358	-0.08840058	-0.308763	-0.00149672	-0.00123018	-0.04401077	-0.03617324
19.13015	-0.08840058	-0.308763	0	0	0.04400584	0.03616918
19.14671	-0.08840058	-0.308763	0	0	0	0
19.16362	-0.08840058	-0.308763	0	0	0	0
19.17994	-0.08840058	-0.308763	0	0	0	0
19.19676	-0.08840058	-0.308763	0	0	0	0
19.21553	-0.08840058	-0.308763	0	0	0	0
19.2321	-0.08840058	-0.308763	0	0	0	0
19.2488	-0.08840058	-0.308763	0	0	0	0
19.26523	-0.08840058	-0.308763	0	0	0	0
19.2818	-0.08840058	-0.308763	0	0	0	0
19.29837	-0.08840058	-0.308763	0	0	0	0
19.31493	-0.08840058	-0.308763	0	0	0	0
19.3315	-0.08840058	-0.308763	0	0	0	0
19.34807	-0.08840058	-0.308763	0	0	0	0
19.365	-0.08840058	-0.308763	0	0	0	0
19.3812	-0.08840058	-0.308763	0	0	0	0
19.39785	-0.08840058	-0.308763	0	0	0	0
19.41491	-0.08840058	-0.308763	0	0	0	0
19.4309	-0.08840058	-0.308763	0	0	0	0
19.44747	-0.08840058	-0.308763	0	0	0	0
19.46404	-0.08840058	-0.308763	0	0	0	0
19.4806	-0.08840058	-0.308763	0	0	0	0
19.49717	-0.08840058	-0.308763	0	0	0	0
19.51382	-0.08842669	-0.3087415	-0.001568317	0.00128866	-0.04721232	0.03879357
19.5303	-0.08842669	-0.3087415	0	0	0.04733462	-0.03889407
19.54687	-0.08842669	-0.3087415	0	0	0	0
19.56365	-0.08842669	-0.3087415	0	0	0	0
19.58	-0.08842669	-0.3087415	0	0	0	0
19.59657	-0.08842669	-0.3087415	0	0	0	0
19.61313	-0.08842669	-0.3087415	0	0	0	0
19.6297	-0.08842669	-0.3087415	0	0	0	0
19.64627	-0.08842669	-0.3087415	0	0	0	0
19.66303	-0.08842669	-0.3087415	0	0	0	0
19.6794	-0.08842669	-0.3087415	0	0	0	0
19.69604	-0.08842669	-0.3087415	0	0	0	0
19.71253	-0.08842669	-0.3087415	0	0	0	0
19.7291	-0.08842669	-0.3087415	0	0	0	0
19.74623	-0.08842669	-0.3087415	0	0	0	0
19.76223	-0.0884528	-0.308763	-0.001631018	-0.001340562	-0.04922704	-0.04046059
19.77882	-0.0884528	-0.308763	0	0	0.05003645	0.04112585
19.79536	-0.0884528	-0.308763	0	0	0	0
19.81193	-0.0884528	-0.308763	0	0	0	0
19.8285	-0.0884528	-0.308763	0	0	0	0
19.84507	-0.0884528	-0.308763	0	0	0	0
19.86441	-0.0884528	-0.308763	0	0	0	0
19.88101	-0.0884528	-0.308763	0	0	0	0
19.89755	-0.0884528	-0.308763	0	0	0	0
19.91435	-0.0884528	-0.308763	0	0	0	0
19.93068	-0.0884528	-0.308763	0	0	0	0
19.94725	-0.0884528	-0.308763	0	0	0	0
19.96381	-0.0884528	-0.308763	0	0	0	0
19.98038	-0.0884528	-0.308763	0	0	0	0
19.99695	-0.0884528	-0.308763	0	0	0	0
20.01352	-0.0884528	-0.308763	0	0	0	0
20.03008	-0.0884528	-0.308763	0	0	0	0
20.04665	-0.0884528	-0.308763	0	0	0	0
20.06322	-0.0884528	-0.308763	0	0	0	0
20.07978	-0.0884528	-0.308763	0	0	0	0
20.09635	-0.0884528	-0.308763	0	0	0	0
20.11292	-0.0884528	-0.308763	0	0	0	0
20.12949	-0.0884528	-0.308763	0	0	0	0
20.14605	-0.0884528	-0.308763	0	0	0	0
20.16263	-0.0884528	-0.308763	0	0	0	0
20.17923	-0.0884528	-0.308763	0	0	0	0
20.19575	-0.0884528	-0.308763	0	0	0	0
20.21232	-0.0884528	-0.308763	0	0	0	0
20.22889	-0.0884528	-0.308763	0	0	0	0
20.24545	-0.0884528	-0.308763	0	0	0	0
20.26201	-0.0884528	-0.308763	0	0	0	0
20.27873	-0.0884528	-0.308763	0	0	0	0
20.29515	-0.0884528	-0.308763	0	0	0	0
20.31171	-0.0884528	-0.308763	0	0	0	0
20.32828	-0.0884528	-0.308763	0	0	0	0
20.34485	-0.0884528	-0.308763	0	0	0	0
20.3618	-0.0884528	-0.308763	0	0	0	0
20.37799	-0.0884528	-0.308763	0	0	0	0
20.39455	-0.0884528	-0.308763	0	0	0	0
20.41112	-0.0884528	-0.308763	0	0	0	0
20.42769	-0.0884528	-0.308763	0	0	0	0
20.44433	-0.0884528	-0.308763	0	0	0	0
20.46602	-0.0884528	-0.308763	0	0	0	0
20.48291	-0.0884528	-0.308763	0	0	0	0
20.49916	-0.0884528	-0.308763	0	0	0	0
20.51573	-0.0884528	-0.308763	0	0	0	0
20.53303	-0.0884528	-0.308763	0	0	0	0
20.54886	-0.08847892	-0.3087845	-0.001649567	-0.001357304	-0.0497869	-0.04096588
20.56543	-0.08847892	-0.3087845	0	0	0.05091236	0.04189193
20.582	-0.08847892	-0.3087845	0	0	0	0
20.59856	-0.08847892	-0.3087845	0	0	0	0
20.61513	-0.08847892	-0.3087845	0	0	0	0
20.63214	-0.08847892	-0.3087845	0	0	0	0
20.64826	-0.08847892	-0.3087845	0	0	0	0
20.66483	-0.08847892	-0.3087845	0	0	0	0
20.68158	-0.08847892	-0.3087845	0	0	0	0
20.69796	-0.08847892	-0.3087845	0	0	0	0
20.71453	-0.08847892	-0.3087845	0	0	0	0
20.7311	-0.08847892	-0.3087845	0	0	0	0
20.74767	-0.08847892	-0.3087845	0	0	0	0
20.76428	-0.08847892	-0.3087845	0	0	0	0
20.7808	-0.08847892	-0.3087845	0	0	0	0
20.79782	-0.08847892	-0.3087845	0	0	0	0
20.8142	-0.08847892	-0.3087845	0	0	0	0
20.8305	-0.08847892	-0.3087845	0	0	0	0
20.8477	-0.08847892	-0.3087845	0	0	0	0
20.86363	-0.08847892	-0.3087845	0	0	0	0
20.8802	-0.08847892	-0.3087845	0	0	0	0
20.89676	-0.08847892	-0.3087845	0	0	0	0
20.91333	-0.08847892	-0.3087845	0	0	0	0
20.9299	-0.08847892	-0.3087845	0	0	0	0
20.94647	-0.08842669	-0.3087845	0.003152073	0	0.09512976	0
20.96303	-0.08842669	-0.3087845	0	0	-0.09512976	0
20.97972	-0.08842669	-0.3087845	0	0	0	0
20.99616	-0.08829614	-0.3086771	0.007941666	0.006533531	0.2397214	0.1972164
21.01273	-0.08829614	-0.3086771	0	0	-0.2405801	-0.1979229
21.0293	-0.08829614	-0.3086771	0	0	0	0
21.04598	-0.06847174	-0.2924668	1.188258	0.9716296	35.73827	29.22291
21.06243	-0.06847174	-0.2924668	0	0	-35.86377	-29.32553
21.079	-0.06847174	-0.2924668	0	0	0	0
21.09557	-0.02896558	-0.2606553	2.384596	1.920146	71.96726	57.95013
21.11213	-0.02896558	-0.2606553	0	0	-71.97141	-57.95346
21.1287	-0.02896558	-0.2606553	0	0	0	0
21.14725	0.005999928	-0.2329067	1.884844	1.495814	53.67159	42.59382
21.16382	0.005999928	-0.2329067	0	0	-53.66867	-42.59151
21.18039	0.005999928	-0.2329067	0	0	0	0
21.19703	0.0405567	-0.2058386	2.076051	1.626154	62.50782	48.96187
21.21352	0.0405567	-0.2058386	0	0	-62.65896	-49.08025
21.23074	0.0405567	-0.2058386	0	0	0	0
21.24665	0.0753047	-0.178125	2.183361	1.741359	65.89775	52.55734
21.26322	0.0753047	-0.178125	0	0	-67.21725	-53.60972
21.28023	0.0753047	-0.178125	0	0	0	0
21.29635	0.09135031	-0.165167	0.9953288	0.8038057	30.04081	24.2603
21.31292	0.09135031	-0.165167	0	0	-30.45101	-24.59157
21.32948	0.09135031	-0.165167	0	0	0	0
21.34605	0.1032109	-0.1559246	0.7159064	0.5578688	21.6061	16.83651
21.36262	0.1032109	-0.1559246	0	0	-21.6061	-16.83651
21.37918	0.1032109	-0.1559246	0	0	0	0
21.39575	0.1225408	-0.1407134	1.166756	0.9181513	35.21277	27.70986
21.41232	0.1225408	-0.1407134	0	0	-35.21277	-27.70986
21.42892	0.1225408	-0.1407134	0	0	0	0
21.44551	0.125728	-0.1376472	0.1920717	0.18478	5.786408	5.566737
21.46202	0.125728	-0.1376472	0	0	-5.802747	-5.582455
21.47858	0.125728	-0.1376472	0	0	0	0
21.49532	0.138399	-0.1238082	0.7572364	0.8270386	22.74086	24.83712
21.51224	0.138399	-0.1238082	0	0	-22.50241	-24.57668
21.52829	0.138399	-0.1238082	0	0	0	0
21.54485	0.1522083	-0.09204259	0.8335315	1.917376	25.55468	58.78352
21.56142	0.1522083	-0.09204259	0	0	-25.15603	-57.86651
21.57799	0.1522083	-0.09204259	0	0	0	0
21.59455	0.1480663	-0.08039805	-0.2500432	0.7029469	-7.546318	21.21498
21.61113	0.1480663	-0.08039805	0	0	7.545884	-21.21376
21.62777	0.1480663	-0.08039805	0	0	0	0
21.64478	0.1453879	-0.07846536	-0.1574413	0.1136097	-4.678337	3.375891
21.66091	0.1453879	-0.07846536	0	0	4.75104	-3.428354
21.67743	0.1453879	-0.07846536	0	0	0	0
21.69396	0.1453106	-0.07852332	-0.00467776	-0.003507644	-0.1415336	-0.1061297
21.71053	0.1453106	-0.07852332	0	0	0.1413459	0.105989
21.72709	0.1453106	-0.07852332	0	0	0	0
21.74366	0.1452333	-0.07861992	-0.004664837	-0.005830372	-0.1407932	-0.1759711
21.76061	0.1452333	-0.07861992	0	0	0.1391748	0.1739483
21.77679	0.1452333	-0.07861992	0	0	0	0
21.79336	0.1451561	-0.07867789	-0.004665374	-0.003498805	-0.142466	-0.1068427
21.8103	0.1451561	-0.07867789	0	0	0.1391987	0.1043923
21.82699	0.1451561	-0.07867789	0	0	0	0
21.84305	0.1451303	-0.0786972	-0.001603491	-0.001202387	-0.04896281	-0.03671502
21.85989	0.1451303	-0.0786972	0	0	0.04873291	0.03654264
21.87694	0.1451303	-0.0786972	0	0	0	0
21.89275	0.1451045	-0.07871653	-0.001629017	-0.001221999	-0.04956903	-0.03718394
21.90932	0.1451045	-0.07871653	0	0	0.0503018	0.03773363
21.92599	0.1451045	-0.07871653	0	0	0	0
21.94246	0.1450787	-0.0787745	-0.001565033	-0.003519063	-0.04722463	-0.1061872
21.95902	0.1450787	-0.0787745	0	0	0.04738281	0.1065428
21.97559	0.1450787	-0.0787745	0	0	0	0
21.99249	0.1450015	-0.07883246	-0.004574784	-0.003430868	-0.1367059	-0.1025228
22.00872	0.1450015	-0.07883246	0	0	0.1380673	0.1035438
22.02537	0.1450015	-0.07883246	0	0	0	0
22.04186	0.1448211	-0.07896772	-0.01093714	-0.00820195	-0.3300835	-0.2475353
22.05843	0.1448211	-0.07896772	0	0	0.3308453	0.2481066
22.07552	0.1448211	-0.07896772	0	0	0	0
22.09156	0.1445634	-0.07916097	-0.01607013	-0.01205143	-0.4850253	-0.3637339
22.10813	0.1445634	-0.07916097	0	0	0.4929138	0.3696497
22.12469	0.1445634	-0.07916097	0	0	0	0
22.14126	0.1444603	-0.07923827	-0.006222297	-0.004665824	-0.1877893	-0.1408148
22.158	0.1444603	-0.07923827	0	0	0.1868321	0.1400971
22.17439	0.1444603	-0.07923827	0	0	0	0
22.19096	0.1444088	-0.07927692	-0.003111507	-0.002333405	-0.09439996	-0.07079314
22.20753	0.1444088	-0.07927692	0	0	0.09391087	0.07042636
22.22409	0.1444088	-0.07927692	0	0	0	0
22.24066	0.1380118	-0.08430625	-0.3861251	-0.3035713	-11.65328	-9.1618
22.25724	0.1380118	-0.08430625	0	0	11.64725	9.157057
22.27389	0.1380118	-0.08430625	0	0	0	0
22.29058	0.1135359	-0.1031727	-1.466389	-1.130323	-43.98479	-33.90439
22.30692	0.1135359	-0.1031727	0	0	44.39114	34.21761
22.32349	0.1135359	-0.1031727	0	0	0	0
22.34091	0.07805164	-0.1310728	-2.037678	-1.602155	-59.96463	-47.14811
22.35772	0.07805164	-0.1310728	0	0	59.53025	46.80657
22.37404	0.07805164	-0.1310728	0	0	0	0
22.39061	0.04415549	-0.1567416	-2.045976	-1.549371	-62.20962	-47.10993
22.40718	0.04415549	-0.1567416	0	0	61.75122	46.7628
22.42374	0.04415549	-0.1567416	0	0	0	0
22.44031	0.03595818	-0.1629678	-0.4949046	-0.3759024	-14.93797	-11.34606
22.45716	0.03595818	-0.1629678	0	0	14.81177	11.25021
22.47751	0.03595818	-0.1629678	0	0	0	0
22.49429	0.03443375	-0.1641671	-0.09086383	-0.07148314	-2.446906	-1.924996
22.51065	0.03443375	-0.1641671	0	0	2.741802	2.156993
22.52721	0.03443375	-0.1641671	0	0	0	0
22.54378	0.0343549	-0.1642271	-0.00475959	-0.003621129	-0.1436695	-0.1093048
22.56035	0.0343549	-0.1642271	0	0	0.1436447	0.1092859
22.57692	0.0343549	-0.1642271	0	0	0	0
22.65107	0.002526311	-0.189601	-0.4292344	-0.3421882	-4.731163	-3.77171
22.66764	0.002526311	-0.189601	0	0	4.731262	3.771789
22.68464	-0.01881357	-0.2129611	-1.255554	-1.374416	-37.40394	-40.94493
22.70153	-0.01881357	-0.2129611	0	0	37.05652	40.56462
22.71778	-0.01881357	-0.2129611	0	0	0	0
22.73434	-0.02712492	-0.2690469	-0.5017322	-3.385733	-15.28929	-103.1735
22.75142	-0.02712492	-0.2690469	0	0	14.9131	100.6349
22.76753	-0.02712492	-0.2690469	0	0	0	0
22.78408	-0.02796639	-0.3228474	-0.05084371	-3.250776	-1.556871	-99.54111
22.80061	-0.02796639	-0.3228474	0	0	1.536766	98.25567
22.81718	-0.02796639	-0.3228474	0	0	0	0
22.83379	-0.02859746	-0.3531716	-0.03798671	-1.82533	-1.144925	-55.01573
22.85035	-0.02859746	-0.3531716	0	0	1.145189	55.02839
22.86735	-0.02859746	-0.3531716	0	0	0	0
22.88376	-0.02946515	-0.354164	-0.05287911	-0.06047491	-1.582594	-1.809925
22.90001	-0.02946515	-0.354164	0	0	1.619102	1.851677
22.91658	-0.02946515	-0.354164	0	0	0	0
22.93329	-0.02946515	-0.3540757	0	0.005281464	0	0.1587188
22.94986	-0.02946515	-0.3540757	0	0	0	-0.1586824
22.9664	-0.02946515	-0.3540757	0	0	0	0
22.9833	-0.02943886	-0.3540096	0.00155536	0.003913742	0.04651512	0.1170457
22.99941	-0.02943886	-0.3540096	0	0	-0.04710899	-0.11854
23.01598	-0.02943886	-0.3540096	0	0	0	0
23.03254	-0.02938627	-0.3539214	0.00317484	0.005325887	0.0958279	0.1607541
23.04937	-0.02938627	-0.3539214	0	0	-0.0950943	-0.1595235
23.06568	-0.02938627	-0.3539214	0	0	0	0
23.08224	-0.02935998	-0.3538552	0.001587237	0.003993955	0.04827809	0.1214819
23.09881	-0.02935998	-0.3538552	0	0	-0.04790292	-0.1205378
23.11538	-0.02935998	-0.3538552	0	0	0	0
23.13194	-0.0293074	-0.3537229	0.003174475	0.00798791	0.09581135	0.2410895
23.14851	-0.0293074	-0.3537229	0	0	-0.09581135	-0.2410895
23.16508	-0.0293074	-0.3537229	0	0	0	0
23.18164	-0.0293074	-0.3536788	0	0.002662637	0	0.08036316
23.19821	-0.0293074	-0.3536788	0	0	0	-0.08036316
23.21478	-0.0293074	-0.3536788	0	0	0	0
23.2314	-0.02933369	-0.3536567	-0.001582318	0.001327192	-0.04768035	0.03999259
23.24791	-0.02933369	-0.3536567	0	0	0.04775721	-0.04005705
23.26449	-0.02933369	-0.3536567	0	0	0	0
23.28151	-0.02933369	-0.3536567	0	0	0	0
23.29762	-0.02933369	-0.3536567	0	0	0	0
23.31492	-0.02933369	-0.3536567	0	0	0	0
23.33075	-0.02933369	-0.3536567	0	0	0	0
23.34731	-0.02933369	-0.3536567	0	0	0	0
23.36409	-0.02933369	-0.3536567	0	0	0	0
23.38045	-0.0293074	-0.3536347	0.001607411	0.001348239	0.04851735	0.04069463
23.39718	-0.0293074	-0.3536347	0	0	-0.04857327	-0.04074154
23.41358	-0.0293074	-0.3536347	0	0	0	0
23.43131	-0.02933369	-0.3536126	-0.001483072	0.001243948	-0.04345107	0.03644522
23.44824	-0.02933369	-0.3536126	0	0	0.04279345	-0.03589363
23.46445	-0.02933369	-0.3536126	0	0	0	0
23.48103	-0.02933369	-0.3536126	0	0	0	0
23.49758	-0.02933369	-0.3536126	0	0	0	0
23.51415	-0.02933369	-0.3536126	0	0	0	0
23.53072	-0.02933369	-0.3536126	0	0	0	0
23.54728	-0.02933369	-0.3536126	0	0	0	0
23.56412	-0.02933369	-0.3536126	0	0	0	0
23.58042	-0.02935998	-0.3535905	-0.001613242	0.00135313	-0.04869056	0.04083991
23.59698	-0.02935998	-0.3535905	0	0	0.04908331	-0.04116934
23.61411	-0.02935998	-0.3535905	0	0	0	0
23.63124	-0.02935998	-0.3535905	0	0	0	0
23.64809	-0.02935998	-0.3535905	0	0	0	0
23.66456	-0.02935998	-0.3535905	0	0	0	0
23.68116	-0.02935998	-0.3535905	0	0	0	0
23.69751	-0.02935998	-0.3535905	0	0	0	0
23.71412	-0.02935998	-0.3535905	0	0	0	0
23.73128	-0.02935998	-0.3535905	0	0	0	0
23.74721	-0.02935998	-0.3535905	0	0	0	0
23.76384	-0.02935998	-0.3535905	0	0	0	0
23.78039	-0.02935998	-0.3535905	0	0	0	0
23.79691	-0.02935998	-0.3535905	0	0	0	0
23.81348	-0.02935998	-0.3535905	0	0	0	0
23.83005	-0.02935998	-0.3535905	0	0	0	0
23.84661	-0.02935998	-0.3535905	0	0	0	0
23.86349	-0.02935998	-0.3535905	0	0	0	0
23.88124	-0.02935998	-0.3535905	0	0	0	0
23.89802	-0.02935998	-0.3535905	0	0	0	0
23.91451	-0.02935998	-0.3535905	0	0	0	0
23.93093	-0.02935998	-0.3535905	0	0	0	0
23.9475	-0.02935998	-0.3535905	0	0	0	0
23.96407	-0.02935998	-0.3535905	0	0	0	0
23.98063	-0.02938627	-0.3535685	-0.00158742	0.001329672	-0.04791395	0.04013421
23.9972	-0.02938627	-0.3535685	0	0	0.04791119	-0.0401319
24.01377	-0.02938627	-0.3535685	0	0	0	0
24.03033	-0.02938627	-0.3535685	0	0	0	0
24.0469	-0.02938627	-0.3535685	0	0	0	0
24.06376	-0.02938627	-0.3535685	0	0	0	0
24.08416	-0.02941257	-0.3535465	-0.001289176	0.001081315	-0.03460472	0.02902521
24.10079	-0.02941257	-0.3535465	0	0	0.03481505	-0.02920163
24.11814	-0.02943886	-0.3535244	-0.001515852	0.001271443	-0.04461088	0.03741803
24.13475	-0.02943886	-0.3535244	0	0	0.04463343	-0.03743694
24.15132	-0.02943886	-0.3535244	0	0	0	0
24.16784	-0.02943886	-0.3534803	0	0.002670015	0	0.08069734
24.18498	-0.02943886	-0.3534803	0	0	0	-0.07933448
24.20098	-0.02943886	-0.3534803	0	0	0	0
24.21754	-0.02946515	-0.3534142	-0.001587237	0.003992156	-0.04873899	0.1225864
24.23411	-0.02946515	-0.3534142	0	0	0.04790292	-0.1204835
24.25068	-0.02946515	-0.3534142	0	0	0	0
24.26724	-0.02946515	-0.353326	0	0.005323474	0	0.160672
24.28381	-0.02946515	-0.353326	0	0	0	-0.160672
24.30038	-0.02946515	-0.353326	0	0	0	0
24.31728	-0.02949145	-0.3532158	-0.001555711	0.006522613	-0.0464832	0.1948896
24.33351	-0.02949145	-0.3532158	0	0	0.04695145	-0.1968528
24.35044	-0.02949145	-0.3532158	0	0	0	0
24.36665	-0.02954403	-0.3530394	-0.003245475	0.01088508	-0.09795427	0.3285313
24.38321	-0.02954403	-0.3530394	0	0	0.09903753	-0.3321644
24.4002	-0.02954403	-0.3530394	0	0	0	0
24.41635	-0.02970179	-0.352819	-0.009767354	0.01364696	-0.2947793	0.4118662
24.43291	-0.02970179	-0.352819	0	0	0.2985255	-0.4171004
24.44967	-0.02970179	-0.352819	0	0	0	0
24.46605	-0.02978067	-0.3526647	-0.00481482	0.009416114	-0.1453199	0.2841952
24.48261	-0.02978067	-0.3526647	0	0	0.1461275	-0.2857746
24.49994	-0.02978067	-0.3526647	0	0	0	0
24.51706	-0.0300173	-0.3524223	-0.01382158	0.01415929	-0.4013119	0.4111172
24.53363	-0.0300173	-0.3524223	0	0	0.4102405	-0.420264
24.55044	-0.0300173	-0.3524223	0	0	0	0
24.56676	-0.03225197	-0.3505064	-0.1369665	0.1174304	-4.133894	3.544262
24.58344	-0.03225197	-0.3505064	0	0	4.15086	-3.558808
24.60002	-0.03225197	-0.3505064	0	0	0	0
24.61646	-0.0330406	-0.3497582	-0.04796087	0.04549936	-1.452479	1.377933
24.63303	-0.0330406	-0.3497582	0	0	1.452898	-1.378331
24.65029	-0.0330406	-0.3497582	0	0	0	0
24.66616	-0.03301432	-0.3497362	0.001656002	0.001385634	0.049984	0.04182335
24.68273	-0.03301432	-0.3497362	0	0	-0.05104486	-0.042711
24.6993	-0.03301432	-0.3497362	0	0	0	0
24.71616	-0.03298803	-0.3497142	0.001558965	0.00130444	0.04663623	0.03902216
24.73245	-0.03298803	-0.3497142	0	0	-0.04701718	-0.03934091
24.74907	-0.03298803	-0.3497142	0	0	0	0
24.76556	-0.03293546	-0.3496702	0.003189223	0.002668344	0.09633411	0.08060039
24.78213	-0.03293546	-0.3496702	0	0	-0.09648421	-0.08072596
24.79869	-0.03293546	-0.3496702	0	0	0	0
24.81526	-0.03293546	-0.3496702	0	0	0	0
24.83183	-0.03293546	-0.3496702	0	0	0	0
24.84839	-0.03293546	-0.3496702	0	0	0	0
24.86496	-0.03290917	-0.3496482	0.00158683	0.001329366	0.04789062	0.04012035
24.88153	-0.03290917	-0.3496482	0	0	-0.04789338	-0.04012266
24.89809	-0.03290917	-0.3496482	0	0	0	0
24.91506	-0.03290917	-0.3496482	0	0	0	0
24.9316	-0.03290917	-0.3496482	0	0	0	0
24.94796	-0.03290917	-0.3496482	0	0	0	0
24.96436	-0.03288288	-0.3496702	0.001602471	-0.00134266	0.0489117	-0.04098157
24.98093	-0.03288288	-0.3496702	0	0	-0.04860328	0.04072316
24.9975	-0.03288288	-0.3496702	0	0	0	0
25.01406	-0.03288288	-0.3496702	0	0	0	0
25.03063	-0.03288288	-0.3496702	0	0	0	0
25.0472	-0.03288288	-0.3496702	0	0	0	0
25.06376	-0.03288288	-0.3496702	0	0	0	0
25.08033	-0.03288288	-0.3496702	0	0	0	0
25.0969	-0.03288288	-0.3496702	0	0	0	0
25.11346	-0.03288288	-0.3496702	0	0	0	0
25.13003	-0.03288288	-0.3496702	0	0	0	0
25.1466	-0.03288288	-0.3496702	0	0	0	0
25.16316	-0.03288288	-0.3496702	0	0	0	0
25.17988	-0.03288288	-0.3496702	0	0	0	0
25.1964	-0.03288288	-0.3496702	0	0	0	0
25.21291	-0.03288288	-0.3496702	0	0	0	0
25.22943	-0.03288288	-0.3496702	0	0	0	0
25.24608	-0.03288288	-0.3496702	0	0	0	0
25.26256	-0.03288288	-0.3496702	0	0	0	0
25.27913	-0.03288288	-0.3496702	0	0	0	0
25.29582	-0.03288288	-0.3496702	0	0	0	0
25.31226	-0.03288288	-0.3496702	0	0	0	0
25.32883	-0.03288288	-0.3496702	0	0	0	0
25.3454	-0.03288288	-0.3496702	0	0	0	0
25.36196	-0.03288288	-0.3496702	0	0	0	0
25.37853	-0.03288288	-0.3496702	0	0	0	0
25.39515	-0.03288288	-0.3496702	0	0	0	0
25.41166	-0.03290917	-0.3496482	-0.00159192	0.001333819	-0.048047	0.04025707
25.42823	-0.03290917	-0.3496482	0	0	0.04812457	-0.04032206
25.44513	-0.03290917	-0.3496482	0	0	0	0
25.46136	-0.03290917	-0.3496482	0	0	0	0
25.47793	-0.03290917	-0.3496482	0	0	0	0
25.4945	-0.03290917	-0.3496482	0	0	0	0
25.51109	-0.03290917	-0.3496482	0	0	0	0
25.52763	-0.03290917	-0.3496482	0	0	0	0
25.5442	-0.03290917	-0.3496482	0	0	0	0
25.56077	-0.03290917	-0.3496482	0	0	0	0
25.57733	-0.03290917	-0.3496482	0	0	0	0
25.5939	-0.03290917	-0.3496482	0	0	0	0
25.61164	-0.03290917	-0.3496482	0	0	0	0
25.62821	-0.03290917	-0.3496482	0	0	0	0
25.64506	-0.03290917	-0.3496482	0	0	0	0
25.66134	-0.03290917	-0.3496482	0	0	0	0
25.67791	-0.03290917	-0.3496482	0	0	0	0
25.69461	-0.03290917	-0.3496482	0	0	0	0
25.71105	-0.03290917	-0.3496482	0	0	0	0
25.72761	-0.03290917	-0.3496482	0	0	0	0
25.74434	-0.03290917	-0.3496482	0	0	0	0
25.76074	-0.03290917	-0.3496482	0	0	0	0
25.77731	-0.03290917	-0.3496482	0	0	0	0
25.79388	-0.03290917	-0.3496482	0	0	0	0
25.81045	-0.03290917	-0.3496482	0	0	0	0
25.82701	-0.03290917	-0.3496482	0	0	0	0
25.84404	-0.03290917	-0.3496482	0	0	0	0
25.86359	-0.03290917	-0.3496482	0	0	0	0
25.88016	-0.03290917	-0.3496482	0	0	0	0
25.89672	-0.03290917	-0.3496482	0	0	0	0
25.91339	-0.03290917	-0.3496482	0	0	0	0
25.92986	-0.03290917	-0.3496482	0	0	0	0
25.94643	-0.03290917	-0.3496482	0	0	0	0
25.96332	-0.03290917	-0.3496482	0	0	0	0
25.97956	-0.03290917	-0.3496482	0	0	0	0
25.99631	-0.03290917	-0.3496482	0	0	0	0
26.01283	-0.03290917	-0.3496482	0	0	0	0
26.02926	-0.03290917	-0.3496482	0	0	0	0
26.04583	-0.03290917	-0.3496482	0	0	0	0
26.06241	-0.03290917	-0.3496482	0	0	0	0
26.07902	-0.03290917	-0.3496482	0	0	0	0
26.09563	-0.03290917	-0.3496482	0	0	0	0
26.11209	-0.03290917	-0.3496482	0	0	0	0
26.12866	-0.03290917	-0.3496482	0	0	0	0
26.14523	-0.03290917	-0.3496482	0	0	0	0
26.16298	-0.03288288	-0.3496262	0.001481059	0.001239253	0.04315574	0.03610991
26.17955	-0.03288288	-0.3496262	0	0	-0.04315574	-0.03610991
26.19612	-0.03288288	-0.3496262	0	0	0	0
26.21351	-0.03290917	-0.3496482	-0.001511765	-0.001264946	-0.0445231	-0.03725402
26.22925	-0.03290917	-0.3496482	0	0	0.04562516	0.03817616
26.24649	-0.03290917	-0.3496482	0	0	0	0
26.2626	-0.03285659	-0.3496482	0.003263997	0	0.0978822	0
26.27895	-0.03285659	-0.3496482	0	0	-0.1005508	0
26.29552	-0.03285659	-0.3496482	0	0	0	0
26.31209	-0.03285659	-0.3496482	0	0	0	0
26.32866	-0.03285659	-0.3496482	0	0	0	0
26.34551	-0.03285659	-0.3496482	0	0	0	0
26.36198	-0.03285659	-0.3496482	0	0	0	0
26.37836	-0.03285659	-0.3496482	0	0	0	0
26.39492	-0.03285659	-0.3496482	0	0	0	0
26.41149	-0.03285659	-0.3496482	0	0	0	0
26.42818	-0.03285659	-0.3496482	0	0	0	0
26.4447	-0.03285659	-0.3496482	0	0	0	0
26.46119	-0.03285659	-0.3496482	0	0	0	0
26.47775	-0.03285659	-0.3496482	0	0	0	0
26.49432	-0.03285659	-0.3496482	0	0	0	0
26.51089	-0.03285659	-0.3496482	0	0	0	0
26.52745	-0.03285659	-0.3496482	0	0	0	0
26.54402	-0.03285659	-0.3496482	0	0	0	0
26.56059	-0.03285659	-0.3496042	0	0.002655135	0	0.08013213
26.57743	-0.03285659	-0.3496042	0	0	0	-0.07946428
26.59424	-0.03285659	-0.3496042	0	0	0	0
26.61028	-0.03338233	-0.3487245	-0.03277511	0.05483985	-0.9976542	1.669291
26.62694	-0.03338233	-0.3487245	0	0	1.002543	-1.677472
26.64343	-0.03338233	-0.3487245	0	0	0	0
26.66092	-0.06226153	-0.3210726	-1.651327	1.581153	-48.59513	46.53006
26.67748	-0.06226153	-0.3210726	0	0	48.48899	-46.42843
26.69425	-0.06226153	-0.3210726	0	0	0	0
26.76287	-0.1255726	-0.2127976	-0.9225215	1.577702	-10.80361	18.4764
26.77972	-0.1255726	-0.2127976	0	0	10.79325	-18.45868
26.7968	-0.1314223	-0.1873172	-0.3424433	1.491632	-10.09383	43.96721
26.81337	-0.1314223	-0.1873172	0	0	10.17563	-44.32355
26.82994	-0.1314223	-0.1873172	0	0	0	0
26.8465	-0.1306463	-0.1708947	0.04684442	0.9913788	1.41393	29.92332
26.86327	-0.1306463	-0.1708947	0	0	-1.405515	-29.74522
26.87964	-0.1306463	-0.1708947	0	0	0	0
26.89628	-0.1330255	-0.1595333	-0.142951	0.6826295	-4.329973	20.67678
26.91277	-0.1330255	-0.1595333	0	0	4.31427	-20.6018
26.92934	-0.1330255	-0.1595333	0	0	0	0
26.94595	-0.1438933	-0.1511482	-0.6541744	0.5047342	-19.71579	15.21189
26.96247	-0.1438933	-0.1511482	0	0	19.74302	-15.23291
26.97904	-0.1438933	-0.1511482	0	0	0	0
26.99569	-0.1544187	-0.1408124	-0.6322548	0.6208682	-19.03547	18.69265
27.01217	-0.1544187	-0.1408124	0	0	19.08149	-18.73784
27.02878	-0.1544187	-0.1408124	0	0	0	0
27.04531	-0.1451561	-0.1085211	0.5604488	1.953827	16.91535	58.97001
27.06187	-0.1451561	-0.1085211	0	0	-16.93485	-59.03798
27.07844	-0.1451561	-0.1085211	0	0	0	0
27.09501	-0.121789	-0.08680504	1.410601	1.310937	42.57447	39.56642
27.11157	-0.121789	-0.08680504	0	0	-42.57447	-39.56642
27.12814	-0.121789	-0.08680504	0	0	0	0
27.14471	-0.1209592	-0.06826387	0.05008419	1.119147	1.511544	33.77592
27.16127	-0.1209592	-0.06826387	0	0	-1.511631	-33.77787
27.17784	-0.1209592	-0.06826387	0	0	0	0
27.19507	-0.1188582	-0.04772202	0.1219361	1.192146	3.607766	35.27245
27.21195	-0.1188582	-0.04772202	0	0	-3.574882	-34.95095
27.22822	-0.1188582	-0.04772202	0	0	0	0
27.24478	-0.1072709	-0.03456361	0.6999753	0.7948841	21.32415	24.21547
27.26134	-0.1072709	-0.03456361	0	0	-21.13381	-23.99932
27.27791	-0.1072709	-0.03456361	0	0	0	0
27.29448	-0.1132762	-0.0117562	-0.3624812	1.376658	-10.94033	41.55001
27.31104	-0.1132762	-0.0117562	0	0	10.93907	-41.54523
27.3279	-0.1132762	-0.0117562	0	0	0	0
27.34518	-0.1263237	0.002851402	-0.7552099	0.8455055	-22.12492	24.77025
27.36175	-0.1263237	0.002851402	0	0	22.31067	-24.97821
27.37863	-0.1263237	0.002851402	0	0	0	0
27.39719	-0.1261683	0.003039467	0.008371166	0.01013052	0.236191	0.2858309
27.41436	-0.1261683	0.003039467	0	0	-0.2342622	-0.2834966
27.43033	-0.1261683	0.003039467	0	0	0	0
27.4481	-0.1261424	0.003058273	0.001457662	0.00105848	0.04320884	0.03137606
27.46521	-0.1261424	0.003058273	0	0	-0.04179344	-0.03034826
27.48128	-0.1261424	0.003058273	0	0	0	0
27.4978	-0.1261424	0.003058273	0	0	0	0
27.51437	-0.1261424	0.003058273	0	0	0	0
27.53102	-0.1261424	0.003058273	0	0	0	0
27.5475	-0.1261165	0.003039467	0.001571724	-0.001141306	0.04743746	-0.03444666
27.56407	-0.1261165	0.003039467	0	0	-0.04756341	0.03453812
27.58064	-0.1261165	0.003039467	0	0	0	0
27.5972	-0.1261165	0.003039467	0	0	0	0
27.61377	-0.1261165	0.003039467	0	0	0	0
27.63033	-0.1261165	0.003039467	0	0	0	0
27.6469	-0.1260906	0.003020661	0.00156358	-0.001135406	0.04719436	-0.03427056
27.66347	-0.1260906	0.003020661	0	0	-0.04719164	0.03426858
27.68023	-0.1260906	0.003020661	0	0	0	0
27.69728	-0.1260647	0.003001855	0.001518976	-0.001103016	0.04492474	-0.03262245
27.71317	-0.1260647	0.003001855	0	0	-0.04611621	0.03348765
27.72978	-0.1260647	0.003001855	0	0	0	0
27.74802	-0.1260388	0.002983049	0.001420009	-0.001031151	0.04074728	-0.02958896
27.76459	-0.1260388	0.002983049	0	0	-0.04079417	0.02962301
27.7819	-0.1260388	0.002983049	0	0	0	0
27.79795	-0.1259871	0.002945436	0.003228659	-0.002344545	0.09678371	-0.07028113
27.81429	-0.1259871	0.002945436	0	0	-0.09970826	0.07240484
27.83085	-0.1259871	0.002945436	0	0	0	0
27.84745	-0.1259871	0.002945436	0	0	0	0
27.86411	-0.1259871	0.002945436	0	0	0	0
27.88055	-0.1259871	0.002945436	0	0	0	0
27.8973	-0.1259352	0.002907823	0.003093504	-0.002245768	0.09321191	-0.06766836
27.914	-0.1259352	0.002907823	0	0	-0.09249428	0.06714739
27.93025	-0.1259352	0.002907823	0	0	0	0
27.94682	-0.1258834	0.002870209	0.003126799	-0.002270634	0.09526634	-0.06918098
27.96339	-0.1258834	0.002870209	0	0	-0.09437241	0.06853183
27.97995	-0.1258834	0.002870209	0	0	0	0
27.99652	-0.1258834	0.002870209	0	0	0	0
28.01329	-0.1258834	0.002870209	0	0	0	0
28.02965	-0.1258834	0.002870209	0	0	0	0
28.04622	-0.1257798	0.00279498	0.006255218	-0.004541848	0.1899638	-0.1379307
28.06279	-0.1257798	0.00279498	0	0	-0.1887937	0.1370811
28.07945	-0.1257798	0.00279498	0	0	0	0
28.09599	-0.125728	0.002757365	0.003130043	-0.00227306	0.09425328	-0.06844743
28.11249	-0.125728	0.002757365	0	0	-0.09473208	0.06879514
28.12949	-0.125728	0.002757365	0	0	0	0
28.14562	-0.1254172	0.002494049	0.01927484	-0.01632806	0.5817493	-0.4928101
28.16219	-0.1254172	0.002494049	0	0	-0.5895209	0.4993935
28.17876	-0.1254172	0.002494049	0	0	0	0
28.19532	-0.1212186	-0.0009686078	0.2534601	-0.2090304	7.649881	-6.308914
28.21189	-0.1212186	-0.0009686078	0	0	-7.649881	6.308914
28.22845	-0.1212186	-0.0009686078	0	0	0	0
28.24502	-0.09873058	-0.02180288	1.357221	-1.257415	40.961	-37.94885
28.26159	-0.09873058	-0.02180288	0	0	-40.95864	37.94667
28.27846	-0.09873058	-0.02180288	0	0	0	0
28.29473	-0.04943338	-0.05779242	3.031425	-2.213099	91.48859	-66.79145
28.31129	-0.04943338	-0.05779242	0	0	-92.33905	67.41234
28.32802	-0.04943338	-0.05779242	0	0	0	0
28.3447	-0.002447363	-0.09254748	2.818237	-2.08462	84.36976	-62.40742
28.36117	-0.002447363	-0.09254748	0	0	-85.03008	62.89585
28.37756	-0.002447363	-0.09254748	0	0	0	0
28.39412	0.01997103	-0.1095765	1.353333	-1.027992	41.06586	-31.19366
28.41091	0.01997103	-0.1095765	0	0	-40.57273	30.81908
28.42759	0.01997103	-0.1095765	0	0	0	0
28.44382	-0.003894717	-0.128511	-1.469986	-1.166252	-44.66768	-35.43826
28.46039	-0.003894717	-0.128511	0	0	44.81313	35.55365
28.47696	-0.003894717	-0.128511	0	0	0	0
28.49352	-0.04284219	-0.1579775	-2.350874	-1.778601	-70.94952	-53.67829
28.51009	-0.04284219	-0.1579775	0	0	70.94544	53.6752
28.52669	-0.04284219	-0.1579775	0	0	0	0
28.54322	-0.07203305	-0.1803994	-1.765419	-1.356041	-53.28658	-40.9301
28.55979	-0.07203305	-0.1803994	0	0	53.32957	40.96312
28.57636	-0.07203305	-0.1803994	0	0	0	0
28.59293	-0.08699043	-0.1919884	-0.9028295	-0.6995156	-27.24902	-21.11264
28.60954	-0.08699043	-0.1919884	0	0	27.20986	21.0823
28.62652	-0.08699043	-0.1919884	0	0	0	0
28.64263	-0.08696432	-0.1919682	0.001621052	0.001257067	0.04899396	0.03799303
28.65919	-0.08696432	-0.1919682	0	0	-0.04960881	-0.03846983
28.67576	-0.08696432	-0.1919682	0	0	0	0
28.69272	-0.08696432	-0.1919682	0	0	0	0
28.70889	-0.08696432	-0.1919682	0	0	0	0
28.72637	-0.08696432	-0.1919682	0	0	0	0
28.74203	-0.08693819	-0.1919479	0.001668126	0.00129225	0.05034414	0.03900019
28.75895	-0.08693819	-0.1919479	0	0	-0.05119583	-0.03965997
28.77516	-0.08693819	-0.1919479	0	0	0	0
28.79172	-0.08691208	-0.1919682	0.001576988	-0.001221997	0.04811987	-0.03728775
28.80833	-0.08691208	-0.1919682	0	0	-0.04754432	0.03684176
28.82496	-0.08691208	-0.1919682	0	0	0	0
28.84174	-0.08644194	-0.1923731	0.02800685	-0.02412102	0.8382517	-0.7219478
28.85799	-0.08644194	-0.1923731	0	0	-0.8477371	0.7301171
28.8753	-0.08644194	-0.1923731	0	0	0	0
28.89112	-0.06454181	-0.2093458	1.384538	-1.073028	41.79507	-32.39152
28.90769	-0.06454181	-0.2093458	0	0	-42.75011	33.13168
28.92426	-0.06454181	-0.2093458	0	0	0	0
28.94082	-0.03369777	-0.2335054	1.86175	-1.458271	56.18773	-44.0107
28.95739	-0.03369777	-0.2335054	0	0	-56.19096	44.01323
28.97396	-0.03369777	-0.2335054	0	0	0	0
28.99052	-0.01599864	-0.2474495	1.068568	-0.8418652	32.25315	-25.41047
29.00709	-0.01599864	-0.2474495	0	0	-32.25129	25.40901
29.02427	-0.01599864	-0.2474495	0	0	0	0
29.04084	-0.01481471	-0.2483854	0.07142925	-0.05646307	2.116389	-1.672953
29.05679	-0.01481471	-0.2483854	0	0	-2.196065	1.735935
29.07336	-0.01481471	-0.2483854	0	0	0	0
29.08993	-0.01481471	-0.2483854	0	0	0	0
29.10649	-0.01481471	-0.2483854	0	0	0	0
29.12306	-0.01481471	-0.2483854	0	0	0	0
29.13963	-0.01481471	-0.2483854	0	0	0	0
29.15653	-0.01481471	-0.2483854	0	0	0	0
29.1732	-0.01481471	-0.2483854	0	0	0	0
29.18933	-0.01486733	-0.2483022	-0.003262908	0.005159669	-0.09949423	0.1573312
29.20601	-0.01486733	-0.2483022	0	0	0.09945952	-0.1572763
29.22246	-0.01486733	-0.2483022	0	0	0	0
29.23903	-0.01486733	-0.2483022	0	0	0	0
29.25575	-0.01486733	-0.2483022	0	0	0	0
29.27228	-0.01486733	-0.2483022	0	0	0	0
29.28873	-0.01489364	-0.248323	-0.001599854	-0.001264933	-0.04851831	-0.03836124
29.3053	-0.01489364	-0.248323	0	0	0.04845944	0.03831469
29.32186	-0.01489364	-0.248323	0	0	0	0
29.33843	-0.01486733	-0.2483438	0.001588249	-0.001255757	0.04793622	-0.03790101
29.35521	-0.01486733	-0.2483438	0	0	-0.04762913	0.0376582
29.37156	-0.01486733	-0.2483438	0	0	0	0
29.38813	-0.01484102	-0.2483646	0.001588432	-0.001255902	0.04825285	-0.03815135
29.4047	-0.01484102	-0.2483646	0	0	-0.04794174	0.03790537
29.42126	-0.01484102	-0.2483646	0	0	0	0
29.43783	-0.01484102	-0.2483646	0	0	0	0
29.4544	-0.01484102	-0.2483646	0	0	0	0
29.47096	-0.01484102	-0.2483646	0	0	0	0
29.48788	-0.01481471	-0.2483854	0.001555474	-0.001229843	0.04646023	-0.03673401
29.50431	-0.01481471	-0.2483854	0	0	-0.04664359	0.03687898
29.5208	-0.01481471	-0.2483854	0	0	0	0
29.53723	-0.01481471	-0.2483854	0	0	0	0
29.5538	-0.01481471	-0.2483854	0	0	0	0
29.57037	-0.01481471	-0.2483854	0	0	0	0
29.58694	-0.01481471	-0.2483854	0	0	0	0
29.6035	-0.01481471	-0.2483854	0	0	0	0
29.62007	-0.01481471	-0.2483854	0	0	0	0
29.63688	-0.01481471	-0.248427	0	-0.002473914	0	-0.07410406
29.65332	-0.01481471	-0.248427	0	0	0	0.07439736
29.66987	-0.01481471	-0.248427	0	0	0	0
29.68633	-0.01481471	-0.248427	0	0	0	0
29.7029	-0.01481471	-0.248427	0	0	0	0
29.71951	-0.01481471	-0.248427	0	0	0	0
29.73603	-0.01484102	-0.2484478	-0.001592283	-0.001258946	-0.04806072	-0.03799944
29.7526	-0.01484102	-0.2484478	0	0	0.04811613	0.03804325
29.76929	-0.01484102	-0.2484478	0	0	0	0
29.78573	-0.01484102	-0.2484478	0	0	0	0
29.8023	-0.01484102	-0.2484478	0	0	0	0
29.81886	-0.01484102	-0.2484478	0	0	0	0
29.83578	-0.01484102	-0.2484478	0	0	0	0
29.852	-0.01484102	-0.2484478	0	0	0	0
29.86856	-0.01484102	-0.2484478	0	0	0	0
29.88513	-0.01481471	-0.2484686	0.001588249	-0.001255757	0.04793898	-0.03790319
29.9017	-0.01481471	-0.2484686	0	0	-0.04793346	0.03789882
29.91845	-0.01481471	-0.2484686	0	0	0	0
29.93483	-0.01486733	-0.2485102	-0.003212751	-0.002540177	-0.09697217	-0.07667152
29.95172	-0.01486733	-0.2485102	0	0	0.09657187	0.07635503
29.96878	-0.01486733	-0.2485102	0	0	0	0
29.98453	-0.01489364	-0.248531	-0.001670374	-0.001320689	-0.05090426	-0.0402477
30.0011	-0.01489364	-0.248531	0	0	0.05168537	0.04086528
30.01805	-0.01489364	-0.248531	0	0	0	0
30.03423	-0.01491995	-0.2485518	-0.001626453	-0.001285963	-0.04908926	-0.03881267
30.0512	-0.01491995	-0.2485518	0	0	0.04906949	0.03879703
30.06766	-0.01491995	-0.2485518	0	0	0	0
30.08393	-0.01491995	-0.2485934	0	-0.002555953	0	-0.07808725
30.1005	-0.01491995	-0.2485934	0	0	0	0.07781971
30.11716	-0.01491995	-0.2485934	0	0	0	0
30.13364	-0.01494626	-0.2486142	-0.001596763	-0.001263348	-0.04818208	-0.03812133
30.1502	-0.01494626	-0.2486142	0	0	0.0483295	0.03823797
30.16677	-0.01494626	-0.2486142	0	0	0	0
30.18333	-0.01497257	-0.248635	-0.001588066	-0.001255612	-0.0479307	-0.03789664
30.1999	-0.01497257	-0.248635	0	0	0.0479307	0.03789664
30.21647	-0.01497257	-0.248635	0	0	0	0
30.23303	-0.01494626	-0.2486558	0.001588066	-0.001255612	0.04792794	-0.03789446
30.2496	-0.01494626	-0.2486558	0	0	-0.0479307	0.03789664
30.26679	-0.01494626	-0.2486558	0	0	0	0
30.28273	-0.01494626	-0.2486974	0	-0.0026104	0	-0.07879109
30.2993	-0.01494626	-0.2486974	0	0	0	0.08030283
30.31586	-0.01494626	-0.2486974	0	0	0	0
30.33243	-0.01494626	-0.2486974	0	0	0	0
30.349	-0.01494626	-0.2486974	0	0	0	0
30.36637	-0.01494626	-0.2486974	0	0	0	0
30.38246	-0.01497257	-0.2487182	-0.001634741	-0.001292516	-0.04885289	-0.03862578
30.3987	-0.01497257	-0.2487182	0	0	0.05056192	0.03997703
30.41526	-0.01497257	-0.2487182	0	0	0	0
30.43183	-0.01497257	-0.2487182	0	0	0	0
30.4484	-0.01497257	-0.2487182	0	0	0	0
30.4653	-0.01497257	-0.2487182	0	0	0	0
30.48181	-0.01497257	-0.2487182	0	0	0	0
30.4981	-0.01497257	-0.2487182	0	0	0	0
30.51467	-0.01497257	-0.2487182	0	0	0	0
30.53123	-0.01497257	-0.2487182	0	0	0	0
30.5478	-0.01497257	-0.2487182	0	0	0	0
30.56437	-0.01497257	-0.2487182	0	0	0	0
30.58294	-0.01497257	-0.2487182	0	0	0	0
30.59956	-0.01497257	-0.2487182	0	0	0	0
30.61608	-0.01497257	-0.2487182	0	0	0	0
30.63264	-0.01497257	-0.2487182	0	0	0	0
30.64921	-0.01497257	-0.2487182	0	0	0	0
30.66578	-0.01497257	-0.2487182	0	0	0	0
30.68256	-0.01497257	-0.2487182	0	0	0	0
30.69963	-0.01497257	-0.2487182	0	0	0	0
30.71548	-0.01497257	-0.2487182	0	0	0	0
30.73206	-0.01497257	-0.2487182	0	0	0	0
30.74861	-0.01497257	-0.2487182	0	0	0	0
30.76518	-0.01497257	-0.2487182	0	0	0	0
30.83573	-0.01494626	-0.2486974	0.0003729202	0.0002948512	0.004280626	0.003384498
30.8523	-0.01494626	-0.2486974	0	0	-0.004280439	-0.003384349
30.87225	-0.01494626	-0.2486974	0	0	0	0
30.88881	-0.01494626	-0.2486974	0	0	0	0
30.90538	-0.01494626	-0.2486974	0	0	0	0
30.92204	-0.01494626	-0.2486974	0	0	0	0
30.93855	-0.01494626	-0.2486974	0	0	0	0
30.95529	-0.01494626	-0.2486974	0	0	0	0
30.97165	-0.01497257	-0.2487182	-0.001608248	-0.001271569	-0.04859297	-0.03842027
30.98823	-0.01497257	-0.2487182	0	0	0.04881804	0.03859822
31.00481	-0.01497257	-0.2487182	0	0	0	0
31.02135	-0.01499888	-0.2486974	-0.001591181	0.001258075	-0.04804682	0.03798845
31.03792	-0.01499888	-0.2486974	0	0	0.04806897	-0.03800596
31.05455	-0.01499888	-0.2486974	0	0	0	0
31.07412	-0.01497257	-0.2486766	0.00134457	0.001063091	0.03713935	0.02936441
31.09069	-0.01497257	-0.2486766	0	0	-0.037206	-0.0294171
31.10726	-0.01497257	-0.2486766	0	0	0	0
31.12382	-0.01497257	-0.2486766	0	0	0	0
31.14039	-0.01497257	-0.2486766	0	0	0	0
31.15696	-0.01497257	-0.2486766	0	0	0	0
31.17352	-0.01497257	-0.2486766	0	0	0	0
31.19051	-0.01497257	-0.2486766	0	0	0	0
31.20666	-0.01497257	-0.2486766	0	0	0	0
31.22325	-0.01497257	-0.2486766	0	0	0	0
31.23979	-0.01497257	-0.2486766	0	0	0	0
31.25636	-0.01497257	-0.2486766	0	0	0	0
31.27375	-0.01499888	-0.2486558	-0.00151266	0.001195992	-0.04454195	0.03521731
31.28949	-0.01499888	-0.2486558	0	0	0.04565217	-0.03609511
31.30606	-0.01499888	-0.2486558	0	0	0	0
31.3287	-0.01499888	-0.2486558	0	0	0	0
31.34602	-0.01499888	-0.2486558	0	0	0	0
31.36184	-0.01499888	-0.2486558	0	0	0	0
31.3784	-0.01499888	-0.2486558	0	0	0	0
31.39497	-0.01499888	-0.2486558	0	0	0	0
31.41153	-0.01499888	-0.2486558	0	0	0	0
31.4281	-0.01499888	-0.2486558	0	0	0	0
31.44467	-0.01499888	-0.2486558	0	0	0	0
31.46124	-0.01502519	-0.248635	-0.001588066	0.001255612	-0.0479307	0.03789664
31.4778	-0.01502519	-0.248635	0	0	0.0479307	-0.03789664
31.49437	-0.01502519	-0.248635	0	0	0	0
31.51093	-0.01502519	-0.248635	0	0	0	0
31.5275	-0.01502519	-0.248635	0	0	0	0
31.54413	-0.01502519	-0.248635	0	0	0	0
31.56063	-0.01502519	-0.248635	0	0	0	0
31.5772	-0.01502519	-0.248635	0	0	0	0
31.59409	-0.01502519	-0.248635	0	0	0	0
31.61033	-0.01502519	-0.248635	0	0	0	0
31.6269	-0.01502519	-0.248635	0	0	0	0
31.64347	-0.01502519	-0.248635	0	0	0	0
31.66003	-0.01502519	-0.248635	0	0	0	0
31.6766	-0.01502519	-0.248635	0	0	0	0
31.69325	-0.01502519	-0.248635	0	0	0	0
31.71014	-0.01502519	-0.248635	0	0	0	0
31.72661	-0.01502519	-0.248635	0	0	0	0
31.74286	-0.01502519	-0.248635	0	0	0	0
31.75962	-0.0150515	-0.2486142	-0.001569813	0.00124118	-0.04754674	0.03759306
31.776	-0.0150515	-0.2486142	0	0	0.04737977	-0.03746105
31.79256	-0.0150515	-0.2486142	0	0	0	0
31.80913	-0.0150515	-0.2486142	0	0	0	0
31.8257	-0.0150515	-0.2486142	0	0	0	0
31.84256	-0.0150515	-0.2486142	0	0	0	0
31.85883	-0.01502519	-0.2485934	0.00161692	0.001279342	0.04879875	0.0386106
31.8754	-0.01502519	-0.2485934	0	0	-0.04924093	-0.03896047
31.89222	-0.01502519	-0.2485934	0	0	0	0
31.90853	-0.0150515	-0.2485726	-0.00161295	0.001275286	-0.04868172	0.03849044
31.9251	-0.0150515	-0.2485726	0	0	0.04905732	-0.03878741
31.94172	-0.0150515	-0.2485726	0	0	0	0
31.95825	-0.0150515	-0.2485726	0	0	0	0
31.9748	-0.0150515	-0.2485726	0	0	0	0
31.99136	-0.0150515	-0.2485726	0	0	0	0
32.00793	-0.0150515	-0.2485726	0	0	0	0
32.02449	-0.0150515	-0.2485726	0	0	0	0
32.04122	-0.0150515	-0.2485726	0	0	0	0
32.05838	-0.0150515	-0.2485726	0	0	0	0
32.07452	-0.0150515	-0.2485726	0	0	0	0
32.09076	-0.0150515	-0.2485726	0	0	0	0
32.10733	-0.0150515	-0.2485726	0	0	0	0
32.12389	-0.0150515	-0.2485726	0	0	0	0
32.14046	-0.0150515	-0.2485726	0	0	0	0
32.15702	-0.0150515	-0.2485726	0	0	0	0
32.17377	-0.0150515	-0.2485726	0	0	0	0
32.19026	-0.0150515	-0.2485726	0	0	0	0
32.20681	-0.0150515	-0.2485726	0	0	0	0
32.22329	-0.0150515	-0.2485726	0	0	0	0
32.23986	-0.0150515	-0.2485726	0	0	0	0
32.25668	-0.0150515	-0.2485726	0	0	0	0
32.27299	-0.0150515	-0.2485726	0	0	0	0
32.29026	-0.0150515	-0.2485726	0	0	0	0
32.30648	-0.0150515	-0.2485726	0	0	0	0
32.3227	-0.0150515	-0.2485726	0	0	0	0
32.33926	-0.0150515	-0.2485726	0	0	0	0
32.35667	-0.01502519	-0.2485934	0.001511831	-0.001195336	0.04450504	-0.03518813
32.37239	-0.01502519	-0.2485934	0	0	-0.0456324	0.03607948
32.38968	-0.01502519	-0.2485934	0	0	0	0
32.40553	-0.01499888	-0.2486142	0.001659921	-0.001313365	0.05009652	-0.03963743
32.4221	-0.01499888	-0.2486142	0	0	-0.0512048	0.04051433
32.43866	-0.01499888	-0.2486142	0	0	0	0
32.45555	-0.01499888	-0.2486558	0	-0.002462463	0	-0.07359707
32.47179	-0.01499888	-0.2486558	0	0	0	0.07431728
32.48867	-0.01499888	-0.2486558	0	0	0	0
32.50492	-0.01491995	-0.2487182	0.004854801	-0.003838427	0.1465351	-0.1158573
32.52149	-0.01491995	-0.2487182	0	0	-0.1478974	0.1169344
32.53806	-0.01491995	-0.2487182	0	0	0	0
32.5548	-0.01060487	-0.252175	0.2577876	-0.2065096	7.73906	-6.199639
32.57129	-0.01060487	-0.252175	0	0	-7.758608	6.215299
32.58776	-0.01060487	-0.252175	0	0	0	0
32.60433	0.0248896	-0.2814713	2.14245	-1.76833	64.8459	-53.52237
32.62119	0.0248896	-0.2814713	0	0	-64.09111	52.89938
32.63757	0.0248896	-0.2814713	0	0	0	0
32.65414	0.0288867	-0.3419445	0.2412101	-3.649331	7.320189	-110.7491
32.67059	0.0288867	-0.3419445	0	0	-7.304123	110.506
32.68749	0.0288867	-0.3419445	0	0	0	0
32.70373	-0.002447363	-0.4045495	-1.92999	-3.856091	-58.24721	-116.3771
32.72029	-0.002447363	-0.4045495	0	0	58.83652	117.5545
32.73712	-0.002447363	-0.4045495	0	0	0	0
32.75343	-0.02901817	-0.4507862	-1.629328	-2.835245	-49.17321	-85.56786
32.77	-0.02901817	-0.4507862	0	0	49.56121	86.24303
32.78669	-0.02901817	-0.4507862	0	0	0	0
32.80313	-0.02680936	-0.496963	0.1343133	-2.807924	4.053582	-84.74332
32.8197	-0.02680936	-0.496963	0	0	-4.068571	85.05667
32.83627	-0.02680936	-0.496963	0	0	0	0
32.85283	-0.008157713	-0.5480978	1.126075	-3.087217	33.98893	-93.18312
32.8694	-0.008157713	-0.5480978	0	0	-33.98893	93.18312
32.88596	-0.008157713	-0.5480978	0	0	0	0
32.90266	0.01155212	-0.5984247	1.180716	-3.014825	35.49921	-90.64323
32.9191	0.01155212	-0.5984247	0	0	-35.63408	90.9876
32.93567	0.01155212	-0.5984247	0	0	0	0
32.95223	0.0208917	-0.6213429	0.563738	-1.383347	17.01365	-41.74949
32.96962	0.0208917	-0.6213429	0	0	-16.60082	40.73647
32.98536	0.0208917	-0.6213429	0	0	0	0
33.00193	0.03046426	-0.6311202	0.5778009	-0.5901595	17.88488	-18.26742
33.0185	0.03046426	-0.6311202	0	0	-17.43806	17.81105
33.0355	0.03046426	-0.6311202	0	0	0	0
33.05163	0.03992614	-0.6407115	0.5865158	-0.5945407	17.70312	-17.94534
33.06852	0.03992614	-0.6407115	0	0	-17.75833	18.0013
33.08476	0.03992614	-0.6407115	0	0	0	0
33.10133	0.05174325	-0.6523787	0.7132821	-0.7042295	21.74217	-21.46623
33.1179	0.05174325	-0.6523787	0	0	-21.5269	21.25369
33.13474	0.05174325	-0.6523787	0	0	0	0
33.15103	0.05691216	-0.6548439	0.3171814	-0.1512758	9.572554	-4.565511
33.16784	0.05691216	-0.6548439	0	0	-9.582482	4.570247
33.18417	0.05691216	-0.6548439	0	0	0	0
33.20073	0.06336243	-0.6480438	0.3894292	0.4105539	11.83886	12.48107
33.2173	0.06336243	-0.6480438	0	0	-11.753	-12.39054
33.23405	0.06336243	-0.6480438	0	0	0	0
33.25043	0.09904329	-0.6105314	2.17777	2.289552	65.72523	69.09881
33.267	0.09904329	-0.6105314	0	0	-66.09045	-69.48278
33.28379	0.09904329	-0.6105314	0	0	0	0
33.30013	0.1267122	-0.58194	1.693099	1.749551	51.10371	52.80765
33.3167	0.1267122	-0.58194	0	0	-51.44133	-53.15651
33.34022	0.1267122	-0.58194	0	0	0	0
33.3568	0.1504852	-0.5572785	1.434284	1.487888	35.77441	37.11142
33.37336	0.1504852	-0.5572785	0	0	-43.27682	-44.89422
33.38993	0.1504852	-0.5572785	0	0	0	0
33.40651	0.1652682	-0.5425012	0.8912727	0.8909305	26.88628	26.87596
33.42308	0.1652682	-0.5425012	0	0	-26.8801	-26.86977
33.43976	0.1652682	-0.5425012	0	0	0	0
33.45623	0.1762315	-0.5315069	0.6658908	0.6677696	20.092	20.14869
33.47278	0.1762315	-0.5315069	0	0	-20.16627	-20.22318
33.48935	0.1762315	-0.5315069	0	0	0	0
33.50619	0.1878381	-0.5196429	0.6893062	0.7045905	20.63463	21.09217
33.52248	0.1878381	-0.5196429	0	0	-20.8033	-21.26458
33.53905	0.1878381	-0.5196429	0	0	0	0
33.55629	0.1940279	-0.5079848	0.3591442	0.6764331	10.62493	20.01161
33.57219	0.1940279	-0.5079848	0	0	-10.83899	-20.41479
33.58875	0.1940279	-0.5079848	0	0	0	0
33.60533	0.1940533	-0.5079603	0.001528884	0.001477652	0.04612589	0.04458022
33.62189	0.1940533	-0.5079603	0	0	-0.04614182	-0.04459562
33.63845	0.1940533	-0.5079603	0	0	0	0
33.65506	0.1940533	-0.5079603	0	0	0	0
33.67159	0.1940533	-0.5079603	0	0	0	0
33.68829	0.1940533	-0.5079603	0	0	0	0
33.70493	0.1940533	-0.5079603	0	0	0	0
33.72129	0.1940533	-0.5079603	0	0	0	0
33.73804	0.1940533	-0.5079603	0	0	0	0
33.75461	0.1940533	-0.5080093	0	-0.002956664	0	-0.08874191
33.77121	0.1940533	-0.5080093	0	0	0	0.08912969
33.78756	0.1940533	-0.5080093	0	0	0	0
33.80699	0.1940279	-0.5080337	-0.001304128	-0.00125736	-0.03644662	-0.0351396
33.82357	0.1940279	-0.5080337	0	0	0.03621497	0.03491626
33.84013	0.1940279	-0.5080337	0	0	0	0
33.85677	0.1939519	-0.5081562	-0.004570134	-0.007364536	-0.1376575	-0.221828
33.87327	0.1939519	-0.5081562	0	0	0.1379269	0.2222621
33.88983	0.1939519	-0.5081562	0	0	0	0
33.9064	0.1931663	-0.5092096	-0.04741916	-0.06358652	-1.431278	-1.919266
33.92311	0.1931663	-0.5092096	0	0	1.424716	1.910467
33.93953	0.1931663	-0.5092096	0	0	0	0
33.9561	0.1911885	-0.5120558	-0.1193776	-0.1717923	-3.619074	-5.208085
33.97266	0.1911885	-0.5120558	0	0	3.603239	5.185297
33.98923	0.1911885	-0.5120558	0	0	0	0
34.0058	0.1778125	-0.5340528	-0.8073777	-1.327747	-24.36671	-40.07149
34.02236	0.1778125	-0.5340528	0	0	24.36951	40.0761
34.03893	0.1778125	-0.5340528	0	0	0	0
34.05549	0.1458001	-0.5947149	-1.932718	-3.662414	-58.33627	-110.5446
34.07214	0.1458001	-0.5947149	0	0	58.20224	110.2906
34.08863	0.1458001	-0.5947149	0	0	0	0
34.10561	0.1329221	-0.616165	-0.7584566	-1.263315	-22.66069	-37.74453
34.12178	0.1329221	-0.616165	0	0	22.87447	38.10061
34.1384	0.1329221	-0.616165	0	0	0	0
34.15513	0.1328446	-0.6161383	-0.004636723	0.001599915	-0.1390402	0.04797621
34.17149	0.1328446	-0.6161383	0	0	0.1401302	-0.04835232
34.18803	0.1328446	-0.6161383	0	0	0	0
34.20459	0.1327928	-0.6160848	-0.003121042	0.003230774	-0.09429095	0.09760608
34.22149	0.1327928	-0.6160848	0	0	0.09326978	-0.09654901
34.23773	0.1327928	-0.6160848	0	0	0	0
34.25452	0.1327928	-0.6160848	0	0	0	0
34.27086	0.1327928	-0.6160848	0	0	0	0
34.28743	0.1327928	-0.6160848	0	0	0	0
34.304	0.1328187	-0.616058	0.001560521	0.001615387	0.04709662	0.04875247
34.32056	0.1328187	-0.616058	0	0	-0.04710205	-0.04875808
34.33713	0.1328187	-0.616058	0	0	0	0
34.35378	0.1328704	-0.6160045	0.003106024	0.003215227	0.09351389	0.0968017
34.37026	0.1328704	-0.6160045	0	0	-0.09375077	-0.09704691
34.38683	0.1328704	-0.6160045	0	0	0	0
34.40339	0.1328704	-0.6160045	0	0	0	0
34.41996	0.1328704	-0.6160045	0	0	0	0
34.43715	0.1328704	-0.6160045	0	0	0	0
34.45313	0.1328704	-0.6160045	0	0	0	0
34.46966	0.1328704	-0.6160045	0	0	0	0
34.48623	0.1328704	-0.6160045	0	0	0	0
34.5028	0.1328704	-0.6160045	0	0	0	0
34.51936	0.1328704	-0.6160045	0	0	0	0
34.53593	0.1328704	-0.6160045	0	0	0	0
34.55275	0.1328446	-0.6160312	-0.001536813	-0.001590845	-0.04602607	-0.04764428
34.56907	0.1328446	-0.6160312	0	0	0.0463811	0.04801179
34.58577	0.1328446	-0.6160312	0	0	0	0
34.60229	0.1328446	-0.6160312	0	0	0	0
34.61889	0.1328446	-0.6160312	0	0	0	0
34.63538	0.1328446	-0.6160312	0	0	0	0
34.6519	0.1327928	-0.6159777	-0.00312969	0.003239725	-0.09481445	0.09814799
34.66846	0.1327928	-0.6159777	0	0	0.0945958	-0.09792165
34.68504	0.1327928	-0.6159777	0	0	0	0
34.7016	0.132767	-0.6159509	-0.001560521	0.001615387	-0.0470912	0.04874686
34.71833	0.132767	-0.6159509	0	0	0.04686462	-0.04851231
34.73474	0.132767	-0.6159509	0	0	0	0
34.7513	0.1326377	-0.6158171	-0.007804403	0.008078794	-0.2367092	0.2450315
34.76801	0.1326377	-0.6158171	0	0	0.2345652	-0.2428121
34.78444	0.1326377	-0.6158171	0	0	0	0
34.80101	0.1321723	-0.6153356	-0.02809388	0.02906617	-0.8515021	0.8809714
34.81757	0.1321723	-0.6153356	0	0	0.8479726	-0.8773198
34.83414	0.1321723	-0.6153356	0	0	0	0
34.85115	0.1302065	-0.6133047	-0.1155418	0.1193701	-3.440712	3.554715
34.91117	0.1302065	-0.6133047	0	0	1.499806	-1.5495
34.92782	0.1302065	-0.6133047	0	0	0	0
34.94487	0.09440278	-0.5770912	-2.099247	2.123274	-62.29398	63.00695
34.96087	0.09440278	-0.5770912	0	0	63.50895	-64.23582
34.97744	0.09440278	-0.5770912	0	0	0	0
34.99432	0.06113425	-0.5445655	-1.97088	1.926871	-58.925	57.60924
35.01093	0.06113425	-0.5445655	0	0	58.85116	-57.53705
35.02715	0.06113425	-0.5445655	0	0	0	0
35.04371	0.04116095	-0.5254868	-1.205591	1.151595	-36.77431	35.12725
35.06046	0.04116095	-0.5254868	0	0	36.18899	-34.56814
35.07684	0.04116095	-0.5254868	0	0	0	0
35.09341	0.0243899	-0.5096999	-1.012303	0.9528983	-30.72112	28.91833
35.10998	0.0243899	-0.5096999	0	0	30.55135	-28.75853
35.12703	0.0243899	-0.5096999	0	0	0	0
35.14311	0.01065749	-0.496963	-0.8538588	0.7919588	-25.76951	23.90136
35.15968	0.01065749	-0.496963	0	0	26.15188	-24.25602
35.17625	0.01065749	-0.496963	0	0	0	0
35.19281	0.0001842105	-0.4872845	-0.632314	0.5843325	-19.08547	17.63722
35.20938	0.0001842105	-0.4872845	0	0	19.08547	-17.63722
35.22594	0.0001842105	-0.4872845	0	0	0	0
35.24251	-0.0137886	-0.4744462	-0.8434005	0.774918	-25.45388	23.38707
35.25908	-0.0137886	-0.4744462	0	0	25.45388	-23.38707
35.2762	-0.0137886	-0.4744462	0	0	0	0
35.29221	-0.02499479	-0.464166	-0.7001041	0.6422542	-21.13161	19.3855
35.30878	-0.02499479	-0.464166	0	0	21.49292	-19.71696
35.32583	-0.02499479	-0.464166	0	0	0	0
35.34226	-0.0293074	-0.4602357	-0.262424	0.2391608	-7.836964	7.142238
35.35847	-0.0293074	-0.4602357	0	0	8.038428	-7.325843
35.37535	-0.0293074	-0.4602357	0	0	0	0
35.39308	-0.02901817	-0.4598338	0.01630874	0.02265944	0.4712565	0.654766
35.40965	-0.02901817	-0.4598338	0	0	-0.4753963	-0.6605179
35.42622	-0.02901817	-0.4598338	0	0	0	0
35.44279	-0.03359262	-0.4540782	-0.2761147	0.3474125	-8.333158	10.48493
35.45959	-0.03359262	-0.4540782	0	0	8.273151	-10.40943
35.47592	-0.03359262	-0.4540782	0	0	0	0
35.49249	-0.06283821	-0.4280888	-1.765674	1.569084	-53.68369	47.70655
35.50927	-0.06283821	-0.4280888	0	0	52.95284	-47.05707
35.52572	-0.06283821	-0.4280888	0	0	0	0
35.54224	-0.08722548	-0.406691	-1.476097	1.295152	-44.76516	39.27769
35.55884	-0.08722548	-0.406691	0	0	44.56923	-39.10578
35.57556	-0.08722548	-0.406691	0	0	0	0
35.59188	-0.1006326	-0.3949722	-0.8215511	0.7180944	-24.86316	21.73218
35.60845	-0.1006326	-0.3949722	0	0	24.98141	-21.83554
35.62503	-0.1006326	-0.3949722	0	0	0	0
35.64159	-0.1010233	-0.3946328	-0.02360675	0.02050264	-0.7123711	0.6186996
35.65815	-0.1010233	-0.3946328	0	0	0.7129456	-0.6191985
35.67471	-0.1010233	-0.3946328	0	0	0	0
35.69128	-0.1010233	-0.3946328	0	0	0	0
35.70784	-0.1010233	-0.3946328	0	0	0	0
35.72499	-0.1010233	-0.3946328	0	0	0	0
35.74098	-0.1009973	-0.3946555	0.001629235	-0.001414862	0.04917042	-0.04270063
35.75788	-0.1009973	-0.3946555	0	0	-0.04952966	0.0430126
35.77481	-0.1009973	-0.3946555	0	0	0	0
35.79068	-0.1009452	-0.3946555	0.003282752	0	0.100111	0
35.80725	-0.1009452	-0.3946555	0	0	-0.101194	0
35.82382	-0.1009452	-0.3946555	0	0	0	0
35.84267	-0.1009452	-0.3946555	0	0	0	0
35.85923	-0.1009452	-0.3946555	0	0	0	0
35.87688	-0.1009452	-0.3946555	0	0	0	0
35.89345	-0.1008931	-0.3946555	0.003144877	0	0.09190755	0
35.9105	-0.1008931	-0.3946555	0	0	-0.09354485	0
35.92659	-0.1008931	-0.3946555	0	0	0	0
35.94333	-0.100841	-0.3946102	0.00311289	0.0027033	0.09484258	0.08236329
35.95972	-0.100841	-0.3946102	0	0	-0.09394722	-0.08158574
35.97629	-0.100841	-0.3946102	0	0	0	0
35.99286	-0.100841	-0.3946102	0	0	0	0
36.00972	-0.100841	-0.3946102	0	0	0	0
36.02599	-0.100841	-0.3946102	0	0	0	0
36.04281	-0.100841	-0.3946102	0	0	0	0
36.05913	-0.100841	-0.3946102	0	0	0	0
36.0757	-0.100841	-0.3946102	0	0	0	0
36.09582	-0.100841	-0.3946102	0	0	0	0
36.11239	-0.100841	-0.3946102	0	0	0	0
36.12895	-0.100841	-0.3946102	0	0	0	0
36.14552	-0.100841	-0.3946102	0	0	0	0
36.16232	-0.100841	-0.3946102	0	0	0	0
36.17887	-0.100815	-0.3946328	0.001573301	-0.001366287	0.04717815	-0.04097049
36.19535	-0.100815	-0.3946328	0	0	-0.04762486	0.04135844
36.21188	-0.100815	-0.3946328	0	0	0	0
36.22836	-0.1007629	-0.3946781	0.003162353	-0.002745861	0.09581506	-0.08319592
36.2453	-0.1007629	-0.3946781	0	0	-0.09463377	0.08217022
36.26149	-0.1007629	-0.3946781	0	0	0	0
36.27818	-0.1007629	-0.3946781	0	0	0	0
36.29463	-0.1007629	-0.3946781	0	0	0	0
36.3112	-0.1007629	-0.3946781	0	0	0	0
36.32776	-0.1007629	-0.3946781	0	0	0	0
36.34433	-0.1007629	-0.3946781	0	0	0	0
36.36089	-0.1007629	-0.3946781	0	0	0	0
36.37819	-0.1007368	-0.3946555	0.001506315	0.001308115	0.04448754	0.03863391
36.39403	-0.1007368	-0.3946555	0	0	-0.04546067	-0.039479
36.41059	-0.1007368	-0.3946555	0	0	0	0
36.42739	-0.1006847	-0.3946102	0.003100614	0.002692253	0.09292412	0.08068572
36.44373	-0.1006847	-0.3946102	0	0	-0.09357671	-0.08125236
36.46029	-0.1006847	-0.3946102	0	0	0	0
36.47686	-0.1006326	-0.394565	0.003144877	0.002730687	0.09491259	0.08241231
36.49343	-0.1006326	-0.394565	0	0	-0.09491259	-0.08241231
36.5104	-0.1006326	-0.394565	0	0	0	0
36.52656	-0.1006066	-0.3945424	0.001611928	0.001399832	0.04865367	0.04225187
36.54313	-0.1006066	-0.3945424	0	0	-0.04925482	-0.04277393
36.55969	-0.1006066	-0.3945424	0	0	0	0
36.57647	-0.1004242	-0.3943841	0.01086673	0.009433962	0.3258576	0.2828937
36.59282	-0.1004242	-0.3943841	0	0	-0.3279963	-0.2847503
36.60939	-0.1004242	-0.3943841	0	0	0	0
36.62619	-0.09004532	-0.3857233	0.6176531	0.5154086	18.50869	15.44482
36.64291	-0.09004532	-0.3857233	0	0	-18.42864	-15.37802
36.65931	-0.09004532	-0.3857233	0	0	0	0
36.67566	-0.06949318	-0.3690318	1.256734	1.02066	38.37006	31.16235
36.69223	-0.06949318	-0.3690318	0	0	-38.17443	-31.00347
36.70879	-0.06949318	-0.3690318	0	0	0	0
36.72553	-0.06391283	-0.3650967	0.3333763	0.2350836	10.00946	7.05827
36.74193	-0.06391283	-0.3650967	0	0	-10.06132	-7.094837
36.7585	-0.06391283	-0.3650967	0	0	0	0
36.77506	-0.06365074	-0.3653632	0.01581973	-0.01608551	0.4774404	-0.4854617
36.79202	-0.06365074	-0.3653632	0	0	-0.4719525	0.4798817
36.8082	-0.06365074	-0.3653632	0	0	0	0
36.82848	-0.06349349	-0.3654965	0.007751534	-0.0065682	0.2125542	-0.1801061
36.84505	-0.06349349	-0.3654965	0	0	-0.2103103	0.1782047
36.86176	-0.06346728	-0.3655187	0.001569101	-0.001330926	0.0471547	-0.03999705
36.87819	-0.06346728	-0.3655187	0	0	-0.04736102	0.04017205
36.8951	-0.06346728	-0.3655187	0	0	0	0
36.91171	-0.06346728	-0.3655187	0	0	0	0
36.92826	-0.06346728	-0.3655187	0	0	0	0
36.94451	-0.06346728	-0.3655187	0	0	0	0
36.96102	-0.06349349	-0.3654965	-0.001587224	0.001346298	-0.04845479	0.0410998
36.97759	-0.06349349	-0.3654965	0	0	0.04797985	-0.04069696
36.99458	-0.06349349	-0.3654965	0	0	0	0
37.01547	-0.06349349	-0.3654965	0	0	0	0
37.03209	-0.06349349	-0.3654965	0	0	0	0
37.04873	-0.06349349	-0.3654965	0	0	0	0
37.06517	-0.06349349	-0.3654965	0	0	0	0
37.08211	-0.06349349	-0.3654965	0	0	0	0
37.0983	-0.06349349	-0.3654965	0	0	0	0
37.11487	-0.06349349	-0.3654965	0	0	0	0
37.13144	-0.06349349	-0.3654965	0	0	0	0
37.148	-0.06349349	-0.3654965	0	0	0	0
37.16486	-0.06349349	-0.3654965	0	0	0	0
37.18114	-0.06349349	-0.3654965	0	0	0	0
37.1977	-0.06349349	-0.3654965	0	0	0	0
37.21427	-0.06349349	-0.3654965	0	0	0	0
37.23084	-0.06349349	-0.3654965	0	0	0	0
37.24786	-0.06351969	-0.3655187	-0.001539131	-0.001305876	-0.04581807	-0.03887435
37.26467	-0.06351969	-0.3655187	0	0	0.04549773	0.03860257
37.28109	-0.06351969	-0.3655187	0	0	0	0
37.29774	-0.06351969	-0.3655187	0	0	0	0
37.31387	-0.06351969	-0.3655187	0	0	0	0
37.33024	-0.06351969	-0.3655187	0	0	0	0
37.34681	-0.06351969	-0.3655187	0	0	0	0
37.36337	-0.06351969	-0.3655187	0	0	0	0
37.37994	-0.06351969	-0.3655187	0	0	0	0
37.3965	-0.06351969	-0.3655187	0	0	0	0
37.41307	-0.06351969	-0.3655187	0	0	0	0
37.42964	-0.06351969	-0.3655187	0	0	0	0
37.44623	-0.06351969	-0.3655187	0	0	0	0
37.46277	-0.06351969	-0.3655187	0	0	0	0
37.47985	-0.06351969	-0.3655187	0	0	0	0
37.4959	-0.06351969	-0.3655187	0	0	0	0
37.51248	-0.06351969	-0.3655187	0	0	0	0
37.52986	-0.06351969	-0.3655187	0	0	0	0
37.5456	-0.06351969	-0.3655187	0	0	0	0
37.56238	-0.06351969	-0.3655187	0	0	0	0
37.57874	-0.06351969	-0.3655187	0	0	0	0
37.59531	-0.06351969	-0.3655187	0	0	0	0
37.61187	-0.06351969	-0.3655187	0	0	0	0
37.62884	-0.06351969	-0.3655187	0	0	0	0
37.64501	-0.06351969	-0.3655187	0	0	0	0
37.66158	-0.06351969	-0.3655187	0	0	0	0
37.67814	-0.06351969	-0.3655187	0	0	0	0
37.69471	-0.06351969	-0.3655187	0	0	0	0
37.71128	-0.06351969	-0.3655187	0	0	0	0
37.72784	-0.06351969	-0.3655187	0	0	0	0
37.74441	-0.06351969	-0.3655187	0	0	0	0
37.76098	-0.06351969	-0.3655187	0	0	0	0
37.77755	-0.06351969	-0.3655187	0	0	0	0
37.79411	-0.06351969	-0.3655187	0	0	0	0
37.81068	-0.06351969	-0.3655187	0	0	0	0
37.82725	-0.06351969	-0.3655187	0	0	0	0
37.84381	-0.06351969	-0.3655187	0	0	0	0
37.86038	-0.06351969	-0.3655187	0	0	0	0
37.87695	-0.06351969	-0.3655187	0	0	0	0
37.89352	-0.06354591	-0.3655409	-0.001582108	-0.001340159	-0.04774811	-0.04044609
37.91008	-0.06354591	-0.3655409	0	0	0.04774811	0.04044609
37.927	-0.06354591	-0.3655409	0	0	0	0
37.94322	-0.06354591	-0.3655409	0	0	0	0
37.95992	-0.06354591	-0.3655409	0	0	0	0
37.97635	-0.06354591	-0.3655409	0	0	0	0
37.99363	-0.06354591	-0.3655409	0	0	0	0
38.00949	-0.06354591	-0.3655409	0	0	0	0
38.02612	-0.06354591	-0.3655409	0	0	0	0
38.04262	-0.06354591	-0.3655409	0	0	0	0
38.05918	-0.06354591	-0.3655409	0	0	0	0
38.07653	-0.06354591	-0.3655409	0	0	0	0
38.09271	-0.06354591	-0.3655409	0	0	0	0
38.10893	-0.06354591	-0.3655409	0	0	0	0
38.12545	-0.06354591	-0.3655409	0	0	0	0
38.14202	-0.06357212	-0.3655631	-0.001582108	-0.001340159	-0.04781416	-0.04050205
38.15858	-0.06357212	-0.3655631	0	0	0.04774811	0.04044609
38.17572	-0.06357212	-0.3655631	0	0	0	0
38.19172	-0.06357212	-0.3655631	0	0	0	0
38.20834	-0.06357212	-0.3655631	0	0	0	0
38.22485	-0.06357212	-0.3655631	0	0	0	0
38.24142	-0.06357212	-0.3655631	0	0	0	0
38.25875	-0.06357212	-0.3655631	0	0	0	0
38.27536	-0.06357212	-0.3655631	0	0	0	0
38.29197	-0.06357212	-0.3655631	0	0	0	0
38.30783	-0.06357212	-0.3655631	0	0	0	0
38.32425	-0.06357212	-0.3655631	0	0	0	0
38.34082	-0.06357212	-0.3655631	0	0	0	0
38.35779	-0.06357212	-0.3655631	0	0	0	0
38.37395	-0.06357212	-0.3655631	0	0	0	0
38.39052	-0.06357212	-0.3655631	0	0	0	0
38.40709	-0.06357212	-0.3655631	0	0	0	0
38.42366	-0.06357212	-0.3655631	0	0	0	0
38.44022	-0.06357212	-0.3655631	0	0	0	0
38.45679	-0.06357212	-0.3655631	0	0	0	0
38.47336	-0.06357212	-0.3655631	0	0	0	0
38.48992	-0.06357212	-0.3655631	0	0	0	0
38.50649	-0.06357212	-0.3655631	0	0	0	0
38.52306	-0.06357212	-0.3655631	0	0	0	0
38.53989	-0.06357212	-0.3655631	0	0	0	0
38.55619	-0.06357212	-0.3655631	0	0	0	0
38.57275	-0.06357212	-0.3655631	0	0	0	0
38.58935	-0.06357212	-0.3655631	0	0	0	0
38.60588	-0.06357212	-0.3655631	0	0	0	0
38.62281	-0.06357212	-0.3655631	0	0	0	0
38.63902	-0.06357212	-0.3655631	0	0	0	0
38.65573	-0.06357212	-0.3655631	0	0	0	0
38.67215	-0.06357212	-0.3655631	0	0	0	0
38.68872	-0.06357212	-0.3655631	0	0	0	0
38.70543	-0.06357212	-0.3655631	0	0	0	0
38.72185	-0.06357212	-0.3655631	0	0	0	0
38.73842	-0.06357212	-0.3655631	0	0	0	0
38.75499	-0.06357212	-0.3655631	0	0	0	0
38.77177	-0.06357212	-0.3655631	0	0	0	0
38.78812	-0.06357212	-0.3655631	0	0	0	0
38.8047	-0.06357212	-0.3655631	0	0	0	0
38.82126	-0.06357212	-0.3655631	0	0	0	0
38.84023	-0.06357212	-0.3655631	0	0	0	0
38.8568	-0.06357212	-0.3655631	0	0	0	0
38.87352	-0.06357212	-0.3655631	0	0	0	0
38.88993	-0.06354591	-0.3655853	0.001596815	-0.001352617	0.04819751	-0.04082678
38.9065	-0.06354591	-0.3655853	0	0	-0.04841492	0.04101093
38.92307	-0.06354591	-0.3655853	0	0	0	0
38.94012	-0.06349349	-0.3656298	0.003073878	-0.002605914	0.09143296	-0.07751331
39.0004	-0.06349349	-0.3656298	0	0	-0.03974738	0.03369629
39.01704	-0.06349349	-0.3656298	0	0	0	0
39.03357	-0.06349349	-0.3656298	0	0	0	0
39.0501	-0.06349349	-0.3656298	0	0	0	0
39.06667	-0.06349349	-0.3656298	0	0	0	0
39.08324	-0.06354591	-0.3656298	-0.003163766	0	-0.09548264	0
39.0998	-0.06354591	-0.3656298	0	0	0.09548264	0
39.11663	-0.06354591	-0.3656298	0	0	0	0
39.13327	-0.06359833	-0.3655853	-0.003149711	0.002669823	-0.09410505	0.07976727
39.14971	-0.06359833	-0.3655853	0	0	0.0952229	-0.0807148
39.16626	-0.06359833	-0.3655853	0	0	0	0
39.18652	-0.06370316	-0.3656742	-0.005175598	-0.004387359	-0.1406106	-0.1191957
39.20309	-0.06370316	-0.3656742	0	0	0.1405378	0.119134
39.22467	-0.06375558	-0.3657186	-0.002428461	-0.002057374	-0.06364793	-0.05392205
39.24124	-0.06375558	-0.3657186	0	0	0.06365429	0.05392744
39.2578	-0.06378179	-0.3657408	-0.001582108	-0.001341958	-0.04774811	-0.04050038
39.27437	-0.06378179	-0.3657408	0	0	0.04774811	0.04050038
39.29094	-0.06378179	-0.3657408	0	0	0	0
39.30761	-0.06378179	-0.3657853	0	-0.002666157	0	-0.08022463
39.32407	-0.06378179	-0.3657853	0	0	0	0.08046477
39.34103	-0.06378179	-0.3657853	0	0	0	0
39.3572	-0.06386042	-0.3658519	-0.004860016	-0.004119017	-0.1466925	-0.1243265
39.37377	-0.06386042	-0.3658519	0	0	0.1484185	0.1257893
39.39034	-0.06386042	-0.3658519	0	0	0	0
39.40691	-0.06386042	-0.3658519	0	0	0	0
39.42347	-0.06386042	-0.3658519	0	0	0	0
39.44004	-0.06386042	-0.3658519	0	0	0	0
39.46982	-0.06388663	-0.3658297	-0.0008801196	0.0007465255	-0.0189907	0.01610809
39.48639	-0.06388663	-0.3658297	0	0	0.01898914	-0.01610676
39.50295	-0.06393904	-0.3657853	-0.003163766	0.002680319	-0.09548264	0.08089218
39.51952	-0.06393904	-0.3657853	0	0	0.09548264	-0.08089218
39.53684	-0.06393904	-0.3657853	0	0	0	0
39.55285	-0.06522314	-0.3660741	-0.0801856	-0.01803314	-2.405605	-0.5410025
39.56941	-0.06522314	-0.3660741	0	0	2.461667	0.5536104
39.58579	-0.06522314	-0.3660741	0	0	0	0
39.60261	-0.06957175	-0.367897	-0.2585532	-0.1083863	-7.788803	-3.265089
39.61892	-0.06957175	-0.367897	0	0	7.80315	3.271104
39.63572	-0.06957175	-0.367897	0	0	0	0
39.65206	-0.0919766	-0.3489884	-1.370984	1.157043	-41.37639	34.91964
39.66862	-0.0919766	-0.3489884	0	0	41.65936	-35.15845
39.68544	-0.0919766	-0.3489884	0	0	0	0
39.70176	-0.1364107	-0.3127634	-2.7228	2.219771	-82.17426	66.99282
39.71835	-0.1364107	-0.3127634	0	0	82.73624	-67.45098
39.73489	-0.1364107	-0.3127634	0	0	0	0
39.7515	-0.1809209	-0.3021798	-2.680466	0.6373585	-80.8594	19.22667
39.76803	-0.1809209	-0.3021798	0	0	80.89664	-19.23552
39.7846	-0.1809209	-0.3021798	0	0	0	0
39.80116	-0.231884	-0.3092572	-3.076852	-0.4272909	-92.87027	-12.89715
39.81773	-0.231884	-0.3092572	0	0	92.87027	12.89715
39.83429	-0.231884	-0.3092572	0	0	0	0
39.85119	-0.2563882	-0.3086771	-1.450029	0.03432738	-43.32799	1.025729
39.86742	-0.2563882	-0.3086771	0	0	43.76701	-1.036122
39.88399	-0.2563882	-0.3086771	0	0	0	0
39.90055	-0.2711776	-0.3055649	-0.8928903	0.1878958	-26.95058	5.671361
39.91721	-0.2711776	-0.3055649	0	0	26.87631	-5.655732
39.93369	-0.2711776	-0.3055649	0	0	0	0
39.95026	-0.2880492	-0.2999551	-1.018372	0.338607	-30.81612	10.24631
39.96683	-0.2880492	-0.2999551	0	0	30.73452	-10.21918
39.9836	-0.2880492	-0.2999551	0	0	0	0
39.99997	-0.2938452	-0.2948742	-0.3540914	0.3103989	-10.68527	9.36678
40.01674	-0.2938452	-0.2948742	0	0	10.68404	-9.365702
40.0331	-0.2938452	-0.2948742	0	0	0	0
40.04966	-0.2938693	-0.2948956	-0.001455622	-0.001288289	-0.04421584	-0.03913293
40.06628	-0.2938693	-0.2948956	0	0	0.04386512	0.03882253
40.08311	-0.2938693	-0.2948956	0	0	0	0
40.09966	-0.2941827	-0.2951727	-0.0189413	-0.01675265	-0.5675333	-0.5019553
40.11592	-0.2941827	-0.2951727	0	0	0.5772319	0.5105332
40.13249	-0.2941827	-0.2951727	0	0	0	0
40.14906	-0.2995009	-0.3000192	-0.3210069	-0.2925361	-9.689122	-8.829774
40.16581	-0.2995009	-0.3000192	0	0	9.63366	8.779231
40.18219	-0.2995009	-0.3000192	0	0	0	0
40.19875	-0.3297422	-0.3275747	-1.825788	-1.663636	-55.42141	-50.49933
40.21532	-0.3297422	-0.3275747	0	0	55.10239	50.20864
40.23189	-0.3297422	-0.3275747	0	0	0	0
40.24846	-0.3564615	-0.3546052	-1.613153	-1.631938	-48.69067	-49.25766
40.26503	-0.3564615	-0.3546052	0	0	48.68507	49.25199
40.28159	-0.3564615	-0.3546052	0	0	0	0
40.29816	-0.3581245	-0.3566363	-0.1003788	-0.1225985	-3.029439	-3.70003
40.31479	-0.3581245	-0.3566363	0	0	3.024217	3.693652
40.3313	-0.3581245	-0.3566363	0	0	0	0
40.34786	-0.3581245	-0.3566363	0	0	0	0
40.36464	-0.3581245	-0.3566363	0	0	0	0
40.38099	-0.3581245	-0.3566363	0	0	0	0
40.39756	-0.3581245	-0.3566363	0	0	0	0
40.41426	-0.3581245	-0.3566363	0	0	0	0
40.43082	-0.3581245	-0.3566363	0	0	0	0
40.44726	-0.3581245	-0.3566363	0	0	0	0
40.46383	-0.3581245	-0.3566363	0	0	0	0
40.48074	-0.3581245	-0.3566363	0	0	0	0
40.4972	-0.3580553	-0.3566584	0.004208681	-0.001341925	0.1261324	-0.04021693
40.51386	-0.3580553	-0.3566584	0	0	-0.1270621	0.04051336
40.53009	-0.3580553	-0.3566584	0	0	0	0
40.54666	-0.3578244	-0.3568351	0.01393406	-0.01066731	0.4248349	-0.3252351
40.56367	-0.3578244	-0.3568351	0	0	-0.4149887	0.3176972
40.57979	-0.3578244	-0.3568351	0	0	0	0
40.59636	-0.3574781	-0.3570782	0.0209113	-0.01467498	0.639796	-0.4489913
40.61292	-0.3574781	-0.3570782	0	0	-0.631177	0.4429427
40.62978	-0.3574781	-0.3570782	0	0	0	0
40.64606	-0.3551204	-0.3593336	0.1448416	-0.1385616	4.371328	-4.181796
40.66263	-0.3551204	-0.3593336	0	0	-4.409401	4.218219
40.67919	-0.3551204	-0.3593336	0	0	0	0
40.69575	-0.3549353	-0.3595106	0.01117537	-0.01068776	0.3373897	-0.3226686
40.71232	-0.3549353	-0.3595106	0	0	-0.3372732	0.3225572
40.72889	-0.3549353	-0.3595106	0	0	0	0
40.74546	-0.3549353	-0.3595106	0	0	0	0
40.76202	-0.3549353	-0.3595106	0	0	0	0
40.77859	-0.3549353	-0.3595106	0	0	0	0
40.79631	-0.3549353	-0.3595106	0	0	0	0
40.81302	-0.3549353	-0.3595106	0	0	0	0
40.82959	-0.3549353	-0.3595106	0	0	0	0
40.84602	-0.3549122	-0.3595328	0.001407592	-0.001347733	0.04266295	-0.04084868
40.86278	-0.3549122	-0.3595328	0	0	-0.04240799	0.04060455
40.87915	-0.3549122	-0.3595328	0	0	0	0
40.89572	-0.3546808	-0.3594442	0.01396966	0.005345679	0.4240952	0.1622858
40.91228	-0.3546808	-0.3594442	0	0	-0.4216536	-0.1613515
40.92885	-0.3546808	-0.3594442	0	0	0	0
40.94542	-0.3538938	-0.3587805	0.0475064	0.04006087	1.433746	1.20904
40.96199	-0.3538938	-0.3587805	0	0	-1.433746	-1.20904
40.97892	-0.3538938	-0.3587805	0	0	0	0
40.99532	-0.3527123	-0.3585372	0.0720258	0.01483285	2.160807	0.4449922
41.01232	-0.3527123	-0.3585372	0	0	-2.156119	-0.4440268
41.02827	-0.3527123	-0.3585372	0	0	0	0
41.04564	-0.3389705	-0.3701228	0.7915482	-0.6673482	23.7604	-20.03222
41.06236	-0.3389705	-0.3701228	0	0	-23.22064	19.57714
41.07877	-0.3389705	-0.3701228	0	0	0	0
41.09534	-0.3192458	-0.3888302	1.190581	-1.129181	36.10641	-34.24432
41.1119	-0.3192458	-0.3888302	0	0	-35.93182	34.07874
41.12847	-0.3192458	-0.3888302	0	0	0	0
41.14504	-0.3059267	-0.3995719	0.8039427	-0.6483673	24.26304	-19.56777
41.16161	-0.3059267	-0.3995719	0	0	-24.26304	19.56777
41.17817	-0.3059267	-0.3995719	0	0	0	0
41.19474	-0.2919154	-0.4086985	0.8457234	-0.5508829	25.52692	-16.62759
41.2113	-0.2919154	-0.4086985	0	0	-25.52398	16.62568
41.22787	-0.2919154	-0.4086985	0	0	0	0
41.24444	-0.2618468	-0.4082192	1.814948	0.02893125	54.77525	0.873147
41.26101	-0.2618468	-0.4082192	0	0	-54.77525	-0.873147
41.27773	-0.2618468	-0.4082192	0	0	0	0
41.29421	-0.2227417	-0.3943841	2.372954	0.8395363	71.45957	25.28195
41.31081	-0.2227417	-0.3943841	0	0	-71.73977	-25.38109
41.32727	-0.2227417	-0.3943841	0	0	0	0
41.34383	-0.1864663	-0.3829816	2.190093	0.6884122	66.31855	20.84592
41.3604	-0.1864663	-0.3829816	0	0	-66.10474	-20.77872
41.37697	-0.1864663	-0.3829816	0	0	0	0
41.39354	-0.165601	-0.3732219	1.259432	0.5890981	38.00975	17.77902
41.4101	-0.165601	-0.3732219	0	0	-38.00975	-17.77902
41.42668	-0.165601	-0.3732219	0	0	0	0
