Time	Pos X	Pos Y	Vel X	Vel Y	Acc X	Acc Y
0.01656632	0.05011613	0.08250825	-0.0008279879	-0.001363151	1.368325E-05	2.25273E-05
0.04957738	0.05011613	0.08250825	0	0	-1.368697E-05	-2.253342E-05
0.06614686	0.05011613	0.08250825	0	0	0	0
0.08271397	0.05011613	0.08250825	0	0	0	0
0.09928147	0.05011613	0.08250825	0	0	0	0
0.1158474	0.05011613	0.08250825	0	0	0	0
0.1324145	0.05011613	0.08250825	0	0	0	0
0.1493116	0.05011613	0.08250825	0	0	0	0
0.166354	0.05011613	0.08250825	0	0	0	0
0.1823211	0.05011613	0.08250825	0	0	0	0
0.1986798	0.05011613	0.08250825	0	0	0	0
0.2153511	0.05011613	0.08250825	0	0	0	0
0.2318693	0.05011613	0.08250825	0	0	0	0
0.2483803	0.05011613	0.08250825	0	0	0	0
0.2653501	0.05011613	0.08250825	0	0	0	0
0.2824501	0.05011613	0.08250825	0	0	0	0
0.2980817	0.05011613	0.08250825	0	0	0	0
0.3146476	0.05011613	0.08250825	0	0	0	0
0.3317524	0.05011613	0.08250825	0	0	0	0
0.347781	0.05011613	0.08250825	0	0	0	0
0.3643473	0.05011613	0.08250825	0	0	0	0
0.3809239	0.05011613	0.08250825	0	0	0	0
0.3980157	0.05011613	0.08250825	0	0	0	0
0.4140475	0.05011613	0.08250825	0	0	0	0
0.4306142	0.05011613	0.08250825	0	0	0	0
0.4471813	0.05011613	0.08250825	0	0	0	0
0.4637477	0.05011613	0.08250825	0	0	0	0
0.4805824	0.05011613	0.08250825	0	0	0	0
0.4968835	0.05011613	0.08250825	0	0	0	0
0.5137541	0.05011613	0.08250825	0	0	0	0
0.5300177	0.05011613	0.08250825	0	0	0	0
0.5465836	0.05011613	0.08250825	0	0	0	0
0.5633094	0.05011613	0.08250825	0	0	0	0
0.5803411	0.05011613	0.08250825	0	0	0	0
0.5962821	0.05011613	0.08250825	0	0	0	0
0.612927	0.05011613	0.08250825	0	0	0	0
0.6294148	0.05011613	0.08250825	0	0	0	0
0.6461208	0.05011613	0.08250825	0	0	0	0
0.6626019	0.05011613	0.08250825	0	0	0	0
0.6791161	0.05011613	0.08250825	0	0	0	0
0.6956852	0.05011613	0.08250825	0	0	0	0
0.7126976	0.05011613	0.08250825	0	0	0	0
0.7288155	0.05011613	0.08250825	0	0	0	0
0.745385	0.05011613	0.08250825	0	0	0	0
0.7619699	0.05011613	0.08250825	0	0	0	0
0.7785165	0.05011613	0.08250825	0	0	0	0
0.7950828	0.05011613	0.08250825	0	0	0	0
0.8116495	0.05011613	0.08250825	0	0	0	0
0.8284002	0.05011613	0.08250825	0	0	0	0
0.844927	0.05011613	0.08250825	0	0	0	0
0.861348	0.05011613	0.08250825	0	0	0	0
0.877914	0.05011613	0.08250825	0	0	0	0
0.8944815	0.05011613	0.08250825	0	0	0	0
0.9110482	0.05011613	0.08250825	0	0	0	0
0.9276141	0.05011613	0.08250825	0	0	0	0
0.9441812	0.05011613	0.08250825	0	0	0	0
0.9607479	0.05011613	0.08250825	0	0	0	0
0.9773146	0.05011613	0.08250825	0	0	0	0
0.9938813	0.05011613	0.08250825	0	0	0	0
1.010448	0.05011613	0.08250825	0	0	0	0
1.027014	0.05011613	0.08250825	0	0	0	0
1.043579	0.05011613	0.08250825	0	0	0	0
1.060148	0.05011613	0.08250825	0	0	0	0
1.076721	0.05011613	0.08250825	0	0	0	0
1.093281	0.05011613	0.08250825	0	0	0	0
1.109848	0.05011613	0.08250825	0	0	0	0
1.126415	0.05011613	0.08250825	0	0	0	0
1.142981	0.05011613	0.08250825	0	0	0	0
1.159741	0.05011613	0.08250825	0	0	0	0
1.176114	0.05011613	0.08250825	0	0	0	0
1.192681	0.05011613	0.08250825	0	0	0	0
1.209248	0.05011613	0.08250825	0	0	0	0
1.225814	0.05011613	0.08250825	0	0	0	0
1.242402	0.05011613	0.08250825	0	0	0	0
1.258947	0.05011613	0.08250825	0	0	0	0
1.275514	0.05011613	0.08250825	0	0	0	0
1.292081	0.05011613	0.08250825	0	0	0	0
1.309036	0.05011613	0.08250825	0	0	0	0
1.325218	0.05011613	0.08250825	0	0	0	0
1.341785	0.05011613	0.08250825	0	0	0	0
1.358351	0.05011613	0.08250825	0	0	0	0
1.374918	0.05011613	0.08250825	0	0	0	0
1.391485	0.05011613	0.08250825	0	0	0	0
1.408392	0.05011613	0.08250825	0	0	0	0
1.424618	0.05011613	0.08250825	0	0	0	0
1.441182	0.05011613	0.08250825	0	0	0	0
1.457748	0.05011613	0.08250825	0	0	0	0
1.474315	0.05011613	0.08250825	0	0	0	0
1.490882	0.05011613	0.08250825	0	0	0	0
1.507626	0.05011613	0.08250825	0	0	0	0
1.524015	0.05011613	0.08250825	0	0	0	0
1.540582	0.05011613	0.08250825	0	0	0	0
1.557148	0.05011613	0.08250825	0	0	0	0
1.617246	0.05011613	0.08250825	0	0	0	0
1.634295	0.05011613	0.08250825	0	0	0	0
1.650383	0.05011613	0.08250825	0	0	0	0
1.667299	0.05011613	0.08250825	0	0	0	0
1.683517	0.05011613	0.08250825	0	0	0	0
1.700084	0.05011613	0.08250825	0	0	0	0
1.71665	0.05011613	0.08250825	0	0	0	0
1.733373	0.04889378	0.0812859	-0.07309533	-0.07309533	-2.195783	-2.195783
1.752646	0.03422565	0.06784012	-0.7610511	-0.6976297	-19.1119	-17.35001
1.769216	-0.07089598	0.001833517	-6.34415	-3.983536	-155.7638	-91.67403
1.785974	-0.07089598	0.001833517	0	0	190.3594	119.528
1.802349	-0.1307909	-0.02750275	-3.657635	-1.791495	-110.3936	-54.07033
1.818916	-0.180907	-0.0507273	-3.024971	-1.401816	19.20493	11.82895
1.835483	-0.2273561	-0.07150716	-2.803834	-1.254347	6.674073	4.450724
1.852222	-0.25547	-0.0837306	-1.679522	-0.7302266	33.75755	15.73674
1.868616	-0.2713605	-0.08984232	-0.9692711	-0.3727963	21.43602	10.78758
1.885387	-0.2811392	-0.09350935	-0.5830674	-0.2186507	11.64476	4.647775
1.902079	-0.2823616	-0.0947317	-0.07323344	-0.0732321	15.23591	4.3457
1.918316	-0.2835839	-0.0947317	-0.0752788	0	-0.06211513	2.223967
1.934883	-0.2835839	-0.09595404	0	-0.0737808	2.294788	-2.249123
1.951452	-0.2848063	-0.0971764	-0.07377616	-0.07377525	-2.226481	0.0001675133
1.968016	-0.2896957	-0.09962108	-0.2951824	-0.1475912	-6.682438	-2.227898
1.984872	-0.2921403	-0.1020658	-0.1450298	-0.1450298	4.492853	0.07664259
2.001149	-0.2921403	-0.1020658	0	0	4.377196	4.377196
2.01772	-0.2921403	-0.1020658	0	0	0	0
2.034287	-0.2921403	-0.1020658	0	0	0	0
2.050852	-0.2921403	-0.1020658	0	0	0	0
2.067447	-0.2933627	-0.1032881	-0.07365671	-0.07365671	-2.221238	-2.221238
2.083989	-0.2933627	-0.1045105	0	-0.07389603	2.22282	-0.007222227
2.100554	-0.294585	-0.1045105	-0.07379028	0	-2.228872	2.232066
2.117119	-0.294585	-0.1045105	0	0	2.227284	0
2.133686	-0.294585	-0.1045105	0	0	0	0
2.150254	-0.294585	-0.1045105	0	0	0	0
2.16724	-0.294585	-0.1045105	0	0	0	0
2.183382	-0.294585	-0.1045105	0	0	0	0
2.199949	-0.294585	-0.1045105	0	0	0	0
2.216516	-0.294585	-0.1045105	0	0	0	0
2.233083	-0.294585	-0.1045105	0	0	0	0
2.24965	-0.294585	-0.1045105	0	0	0	0
2.266581	-0.2860286	-0.1008434	0.5053544	0.2165806	15.08598	6.465423
2.282785	-0.2383572	-0.08250825	2.942019	1.131546	73.53709	27.61311
2.299458	-0.1711282	-0.0592837	4.032125	1.392916	33.15715	7.949955
2.315916	-0.09900991	-0.02750275	4.382143	1.931113	10.56475	16.2447
2.332485	-0.03667033	-0.003055861	3.762337	1.475426	-18.76681	-13.79754
2.349266	0	0.01405696	2.185217	1.019768	-47.28928	-13.66272
2.365618	0.01711282	0.02261337	1.046532	0.523266	-34.36708	-14.98511
2.388865	0.01955751	0.02383572	0.1051626	0.05258126	-23.77273	-11.88637
2.405437	0.01955751	0.02383572	0	0	-2.641015	-1.320507
2.422004	0.01955751	0.02383572	0	0	0	0
2.438748	0.01955751	0.02383572	0	0	0	0
2.455137	0.01955751	0.02383572	0	0	0	0
2.471704	0.01955751	0.02383572	0	0	0	0
2.48827	0.01955751	0.02383572	0	0	0	0
2.505073	0.01955751	0.02383572	0	0	0	0
2.5215	0.01955751	0.02383572	0	0	0	0
2.537971	0.01955751	0.02383572	0	0	0	0
2.554608	0.01955751	0.02383572	0	0	0	0
2.571193	0.01955751	0.02383572	0	0	0	0
2.588396	0.01955751	0.02383572	0	0	0	0
2.604237	0.01955751	0.02383572	0	0	0	0
2.620804	0.01955751	0.02383572	0	0	0	0
2.637371	0.01955751	0.02383572	0	0	0	0
2.653937	0.01955751	0.02383572	0	0	0	0
2.670503	0.01955751	0.02383572	0	0	0	0
2.68707	0.01955751	0.02383572	0	0	0	0
2.703637	0.01955751	0.02383572	0	0	0	0
2.720334	0.01955751	0.02383572	0	0	0	0
2.736771	0.01955751	0.02383572	0	0	0	0
2.753472	0.01955751	0.02383572	0	0	0	0
2.769904	0.01955751	0.02383572	0	0	0	0
2.786507	0.01955751	0.02383572	0	0	0	0
2.803038	0.01955751	0.02383572	0	0	0	0
2.819859	0.01955751	0.02383572	0	0	0	0
2.836171	0.01955751	0.02383572	0	0	0	0
2.852778	0.01955751	0.02383572	0	0	0	0
2.869301	0.01955751	0.02383572	0	0	0	0
2.885868	0.01955751	0.02383572	0	0	0	0
2.902434	0.01955751	0.02383572	0	0	0	0
2.919001	0.01955751	0.02383572	0	0	0	0
2.935568	0.01955751	0.02383572	0	0	0	0
2.952135	0.01955751	0.02383572	0	0	0	0
2.968701	0.01955751	0.02383572	0	0	0	0
2.985565	0.01955751	0.02383572	0	0	0	0
3.009529	0.01955751	0.02383572	0	0	0	0
3.026372	0.01955751	0.02383572	0	0	0	0
3.042666	0.01955751	0.02383572	0	0	0	0
3.059905	0.01955751	0.02383572	0	0	0	0
3.0758	0.01955751	0.02383572	0	0	0	0
3.092367	0.01955751	0.02383572	0	0	0	0
3.108934	0.01955751	0.02383572	0	0	0	0
3.125499	0.01955751	0.02383572	0	0	0	0
3.142067	0.01955751	0.02383572	0	0	0	0
3.158632	0.01955751	0.02383572	0	0	0	0
3.1752	0.01955751	0.02383572	0	0	0	0
3.191767	0.01955751	0.02383572	0	0	0	0
3.208403	0.01955751	0.02383572	0	0	0	0
3.224916	0.01955751	0.02383572	0	0	0	0
3.241563	0.01955751	0.02383572	0	0	0	0
3.258704	0.01955751	0.02383572	0	0	0	0
3.274675	0.01955751	0.02383572	0	0	0	0
3.291168	0.01955751	0.02383572	0	0	0	0
3.307888	0.01955751	0.02383572	0	0	0	0
3.324442	0.01955751	0.02383572	0	0	0	0
3.340868	0.01955751	0.02383572	0	0	0	0
3.35766	0.01955751	0.02383572	0	0	0	0
3.374001	0.01955751	0.02383572	0	0	0	0
3.390569	0.01955751	0.02383572	0	0	0	0
3.407135	0.01955751	0.02383572	0	0	0	0
3.423702	0.01955751	0.02383572	0	0	0	0
3.440269	0.01955751	0.02383572	0	0	0	0
3.456835	0.01955751	0.02383572	0	0	0	0
3.473428	0.01955751	0.02383572	0	0	0	0
3.490602	0.01955751	0.02383572	0	0	0	0
3.506534	0.01955751	0.02383572	0	0	0	0
3.5231	0.01955751	0.02383572	0	0	0	0
3.539667	0.01955751	0.02383572	0	0	0	0
3.556235	0.01955751	0.02383572	0	0	0	0
3.572801	0.01955751	0.02383572	0	0	0	0
3.589368	0.01955751	0.02383572	0	0	0	0
3.606136	0.01955751	0.02383572	0	0	0	0
3.622501	0.01955751	0.02383572	0	0	0	0
3.639264	0.01955751	0.02383572	0	0	0	0
3.655635	0.01955751	0.02383572	0	0	0	0
3.6722	0.01955751	0.02383572	0	0	0	0
3.689013	0.01955751	0.02383572	0	0	0	0
3.705504	0.01955751	0.02383572	0	0	0	0
3.723417	0.01955751	0.02383572	0	0	0	0
3.739986	0.01955751	0.02383572	0	0	0	0
3.756831	0.01955751	0.02383572	0	0	0	0
3.773121	0.01955751	0.02383572	0	0	0	0
3.789919	0.01955751	0.02383572	0	0	0	0
3.806254	0.01955751	0.02383572	0	0	0	0
3.822874	0.01955751	0.02383572	0	0	0	0
3.839388	0.01955751	0.02383572	0	0	0	0
3.855953	0.01955751	0.02383572	0	0	0	0
3.872521	0.01955751	0.02383572	0	0	0	0
3.889087	0.01955751	0.02383572	0	0	0	0
3.905723	0.01955751	0.02383572	0	0	0	0
3.92222	0.01955751	0.02383572	0	0	0	0
3.938787	0.01955751	0.02383572	0	0	0	0
3.955354	0.01955751	0.02383572	0	0	0	0
3.972138	0.01955751	0.02383572	0	0	0	0
3.989111	0.01955751	0.02383572	0	0	0	0
4.005215	0.01955751	0.02383572	0	0	0	0
4.021656	0.01955751	0.02383572	0	0	0	0
4.038262	0.01955751	0.02383572	0	0	0	0
4.054754	0.01955751	0.02383572	0	0	0	0
4.071321	0.01955751	0.02383572	0	0	0	0
4.087942	0.01955751	0.02383572	0	0	0	0
4.112121	0.02077986	0.02383572	0.05055392	-7.703571E-08	1.239049	-1.888104E-06
4.128743	0.02566924	0.02261337	0.29415	-0.07353732	5.970338	-1.802337
4.145256	0.02566924	0.02261337	0	0	-8.877463	2.219361
4.161824	0.02689158	0.02139103	0.07377659	-0.0737767	2.230209	-2.230212
4.178487	0.02689158	0.02139103	0	0	-2.220064	2.220068
4.195035	0.02689158	0.02139103	0	0	0	0
4.211698	0.02689158	0.02139103	0	0	0	0
4.228563	0.02689158	0.02139103	0	0	0	0
4.244658	0.02689158	0.02139103	0	0	0	0
4.261225	0.02689158	0.02139103	0	0	0	0
4.277793	0.02689158	0.02139103	0	0	0	0
4.294406	0.02689158	0.02139103	0	0	0	0
4.310959	0.02689158	0.02139103	0	0	0	0
4.327493	0.02689158	0.02139103	0	0	0	0
4.347598	0.02689158	0.02139103	0	0	0	0
4.36417	0.02689158	0.02139103	0	0	0	0
4.380736	0.02689158	0.02139103	0	0	0	0
4.397617	0.02689158	0.02139103	0	0	0	0
4.414233	0.02689158	0.02139103	0	0	0	0
4.430435	0.02689158	0.02139103	0	0	0	0
4.447595	0.02689158	0.02139103	0	0	0	0
4.46357	0.02689158	0.02139103	0	0	0	0
4.480135	0.02689158	0.02139103	0	0	0	0
4.496702	0.02689158	0.02139103	0	0	0	0
4.51331	0.02689158	0.02139103	0	0	0	0
4.529836	0.02689158	0.02139103	0	0	0	0
4.546426	0.02689158	0.02139103	0	0	0	0
4.562969	0.02689158	0.02139103	0	0	0	0
4.579536	0.02689158	0.02139103	0	0	0	0
4.596103	0.02689158	0.02139103	0	0	0	0
4.61267	0.02689158	0.02139103	0	0	0	0
4.629247	0.02689158	0.02139103	0	0	0	0
4.646243	0.02689158	0.02139103	0	0	0	0
4.662836	0.02689158	0.02139103	0	0	0	0
4.678936	0.02689158	0.02139103	0	0	0	0
4.695788	0.02689158	0.02139103	0	0	0	0
4.71207	0.02689158	0.02139103	0	0	0	0
4.728851	0.02689158	0.02139103	0	0	0	0
4.745203	0.02689158	0.02139103	0	0	0	0
4.762326	0.02689158	0.02139103	0	0	0	0
4.778439	0.02689158	0.02139103	0	0	0	0
4.794903	0.02689158	0.02139103	0	0	0	0
4.81147	0.02689158	0.02139103	0	0	0	0
4.828037	0.02689158	0.02139103	0	0	0	0
4.844651	0.02689158	0.02139103	0	0	0	0
4.861168	0.02689158	0.02139103	0	0	0	0
4.877735	0.02689158	0.02139103	0	0	0	0
4.894403	0.02689158	0.02139103	0	0	0	0
4.911076	0.02689158	0.02139103	0	0	0	0
4.927437	0.02689158	0.02139103	0	0	0	0
4.944005	0.02689158	0.02139103	0	0	0	0
4.960572	0.02689158	0.02139103	0	0	0	0
4.977138	0.02689158	0.02139103	0	0	0	0
4.993706	0.02689158	0.02139103	0	0	0	0
5.015635	0.02689158	0.02139103	0	0	0	0
5.032205	0.02689158	0.02139103	0	0	0	0
5.049325	0.02689158	0.02139103	0	0	0	0
5.065338	0.02689158	0.02139103	0	0	0	0
5.081905	0.02689158	0.02139103	0	0	0	0
5.098932	0.02689158	0.02139103	0	0	0	0
5.115037	0.02689158	0.02139103	0	0	0	0
5.131607	0.02689158	0.02139103	0	0	0	0
5.148171	0.02689158	0.02139103	0	0	0	0
5.165481	0.02689158	0.02139103	0	0	0	0
5.181307	0.02689158	0.02139103	0	0	0	0
5.197874	0.02689158	0.02139103	0	0	0	0
5.214441	0.02689158	0.02139103	0	0	0	0
5.231011	0.02689158	0.02139103	0	0	0	0
5.247575	0.02689158	0.02139103	0	0	0	0
5.264503	0.02689158	0.02139103	0	0	0	0
5.280707	0.02689158	0.02139103	0	0	0	0
5.297288	0.02689158	0.02139103	0	0	0	0
5.313841	0.02689158	0.02139103	0	0	0	0
5.330408	0.02689158	0.02139103	0	0	0	0
5.346973	0.02689158	0.02139103	0	0	0	0
5.363541	0.02689158	0.02139103	0	0	0	0
5.380108	0.02689158	0.02139103	0	0	0	0
5.396674	0.02689158	0.02139103	0	0	0	0
5.413388	0.02689158	0.02139103	0	0	0	0
5.429972	0.02689158	0.02139103	0	0	0	0
5.446374	0.02689158	0.02139103	0	0	0	0
5.462941	0.02689158	0.02139103	0	0	0	0
5.479508	0.02689158	0.02139103	0	0	0	0
5.496072	0.02689158	0.02139103	0	0	0	0
5.512754	0.02689158	0.02139103	0	0	0	0
5.529205	0.02689158	0.02139103	0	0	0	0
5.545772	0.02689158	0.02139103	0	0	0	0
5.56249	0.02689158	0.02139103	0	0	0	0
5.578905	0.02689158	0.02139103	0	0	0	0
5.595472	0.02689158	0.02139103	0	0	0	0
5.612069	0.02689158	0.02139103	0	0	0	0
5.628605	0.02689158	0.02139103	0	0	0	0
5.645171	0.02689158	0.02139103	0	0	0	0
5.664298	0.02689158	0.02139103	0	0	0	0
5.680871	0.02689158	0.02139103	0	0	0	0
5.697437	0.02689158	0.02139103	0	0	0	0
5.714177	0.02689158	0.02139103	0	0	0	0
5.730853	0.02689158	0.02139103	0	0	0	0
5.747135	0.02689158	0.02139103	0	0	0	0
5.764049	0.02689158	0.02139103	0	0	0	0
5.78027	0.02689158	0.02139103	0	0	0	0
5.796837	0.02689158	0.02139103	0	0	0	0
5.813843	0.02689158	0.02139103	0	0	0	0
5.829969	0.02689158	0.02139103	0	0	0	0
5.846534	0.02689158	0.02139103	0	0	0	0
5.863112	0.02689158	0.02139103	0	0	0	0
5.880136	0.02689158	0.02139103	0	0	0	0
5.896244	0.02689158	0.02139103	0	0	0	0
5.913324	0.02689158	0.02139103	0	0	0	0
5.929366	0.02689158	0.02139103	0	0	0	0
5.946368	0.02689158	0.02139103	0	0	0	0
5.962502	0.02689158	0.02139103	0	0	0	0
5.97907	0.02689158	0.02139103	0	0	0	0
5.995638	0.02689158	0.02139103	0	0	0	0
6.012206	0.02689158	0.02139103	0	0	0	0
6.028769	0.02689158	0.02139103	0	0	0	0
6.045542	0.02689158	0.02139103	0	0	0	0
6.061903	0.02689158	0.02139103	0	0	0	0
6.078468	0.02689158	0.02139103	0	0	0	0
6.095306	0.02689158	0.02139103	0	0	0	0
6.111816	0.02689158	0.02139103	0	0	0	0
6.128169	0.02689158	0.02139103	0	0	0	0
6.145507	0.02689158	0.02139103	0	0	0	0
6.161798	0.02689158	0.02139103	0	0	0	0
6.177867	0.02689158	0.02139103	0	0	0	0
6.194435	0.02689158	0.02139103	0	0	0	0
6.21101	0.02689158	0.02139103	0	0	0	0
6.227568	0.02689158	0.02139103	0	0	0	0
6.244315	0.02689158	0.02139103	0	0	0	0
6.260699	0.02689158	0.02139103	0	0	0	0
6.277329	0.02689158	0.02139103	0	0	0	0
6.293835	0.02689158	0.02139103	0	0	0	0
6.310607	0.02689158	0.02139103	0	0	0	0
6.326964	0.02689158	0.02139103	0	0	0	0
6.343535	0.02689158	0.02139103	0	0	0	0
6.360101	0.02689158	0.02139103	0	0	0	0
6.376937	0.02689158	0.02139103	0	0	0	0
6.393234	0.02689158	0.02139103	0	0	0	0
6.409801	0.02689158	0.02139103	0	0	0	0
6.42637	0.02689158	0.02139103	0	0	0	0
6.442935	0.02689158	0.02139103	0	0	0	0
6.459501	0.02689158	0.02139103	0	0	0	0
6.476068	0.02689158	0.02139103	0	0	0	0
6.492635	0.02689158	0.02139103	0	0	0	0
6.509201	0.02689158	0.02139103	0	0	0	0
6.525768	0.02689158	0.02139103	0	0	0	0
6.542335	0.02689158	0.02139103	0	0	0	0
6.5589	0.02689158	0.02139103	0	0	0	0
6.575468	0.02689158	0.02139103	0	0	0	0
6.592038	0.02689158	0.02139103	0	0	0	0
6.608601	0.02689158	0.02139103	0	0	0	0
6.625193	0.02689158	0.02139103	0	0	0	0
6.642387	0.02689158	0.02139103	0	0	0	0
6.658301	0.02689158	0.02139103	0	0	0	0
6.674868	0.02689158	0.02139103	0	0	0	0
6.691433	0.02689158	0.02139103	0	0	0	0
6.708512	0.03789268	0.003055861	0.6441169	-1.073528	19.14469	-31.90782
6.724567	0.06111722	-0.05317198	1.446552	-3.502178	24.21753	-73.29681
6.741168	0.09289818	-0.1204009	1.9145	-4.049904	14.32995	-16.77299
6.757771	0.1246791	-0.1717394	1.914171	-3.092122	-0.009909237	28.84616
6.774469	0.1503484	-0.2145215	1.53723	-2.562051	-11.31908	15.91739
6.791569	0.1723506	-0.2450801	1.286689	-1.787069	-7.412842	22.92966
6.8074	0.1894634	-0.2683046	1.080969	-1.467029	-6.247028	9.718546
6.823968	0.2016868	-0.2903068	0.7377453	-1.32794	-10.59345	4.29292
6.840787	0.2077986	-0.2964185	0.3633823	-0.3633814	-11.21262	28.88968
6.857424	0.2077986	-0.2976409	0	-0.07347588	-10.8617	8.66544
6.873666	0.2077986	-0.2976409	0	0	0	2.234777
6.890233	0.2077986	-0.2976409	0	0	0	0
6.906798	0.2077986	-0.2976409	0	0	0	0
6.923376	0.2077986	-0.2976409	0	0	0	0
6.939932	0.2077986	-0.2976409	0	0	0	0
6.9565	0.2077986	-0.2976409	0	0	0	0
6.973063	0.2077986	-0.2976409	0	0	0	0
6.989633	0.2077986	-0.2976409	0	0	0	0
7.006202	0.2077986	-0.2976409	0	0	0	0
7.022769	0.2077986	-0.2976409	0	0	0	0
7.039335	0.2077986	-0.2976409	0	0	0	0
7.055902	0.2077986	-0.2927515	0	0.2951314	0	8.907468
7.072469	0.2004645	-0.2719716	-0.4426861	1.254276	-13.36049	28.94746
7.089408	0.1882411	-0.241413	-0.7216275	1.804071	-8.325138	16.40891
7.106314	0.1747953	-0.2035204	-0.7953145	2.24134	-2.177192	12.91976
7.122169	0.1576824	-0.16685	-1.079311	2.312811	-8.668601	2.181549
7.138736	0.1369026	-0.1326244	-1.254347	2.065983	-5.398739	-7.613085
7.155303	0.1185674	-0.1069551	-1.106745	1.549443	4.454821	-15.58988
7.171865	0.106344	-0.08739763	-0.7379993	1.180799	11.13038	-11.12729
7.188573	0.09167584	-0.06661777	-0.8779159	1.243715	-4.205383	1.891005
7.204999	0.08923115	-0.06295074	-0.1488342	0.223251	22.00436	-30.79854
7.221795	0.08678646	-0.05806136	-0.1455548	0.2911099	0.09871448	2.042636
7.238133	0.08556412	-0.05439433	-0.07481431	0.2244432	2.134981	-2.012037
7.25503	0.08311943	-0.05194964	-0.1446803	0.1446803	-2.102146	-2.399926
7.271387	0.08189707	-0.04950495	-0.07473234	0.1494631	2.103466	0.1438276
7.287834	0.08067474	-0.04706026	-0.07431932	0.1486398	0.01259081	-0.02509848
7.304594	0.0794524	-0.04461557	-0.0729306	0.1458614	0.04181961	-0.08366659
7.320967	0.0794524	-0.04461557	0	0	2.201145	-4.402297
7.337635	0.0794524	-0.04461557	0	0	0	0
7.3541	0.07945239	-0.04339323	-4.525182E-07	0.07424036	-1.365762E-05	2.240675
7.370687	0.07823005	-0.04339323	-0.07368953	0	-2.229459	-2.246138
7.387278	0.0770077	-0.04217088	-0.07367682	0.07367704	0.0003831022	2.220638
7.404157	0.07578536	-0.04094854	-0.07241758	0.07241758	0.03762323	-0.03762991
7.420367	0.07456301	-0.0397262	-0.07540677	0.07540631	-0.09033737	0.09032363
7.436934	0.07334067	-0.03850385	-0.07378497	0.07378519	0.04948072	-0.04946003
7.453645	0.07334067	-0.03850385	0	0	2.217262	-2.217269
7.470071	0.07334067	-0.03850385	0	0	0	0
7.486635	0.07334067	-0.03850385	0	0	0	0
7.503282	0.07334067	-0.03850385	0	0	0	0
7.519771	0.07334067	-0.03850385	0	0	0	0
7.536335	0.07334067	-0.03850385	0	0	0	0
7.552902	0.07334067	-0.03850385	0	0	0	0
7.569468	0.07334067	-0.03850385	0	0	0	0
7.586035	0.07334067	-0.03850385	0	0	0	0
7.603114	0.07334067	-0.03850385	0	0	0	0
7.61917	0.07334067	-0.03850385	0	0	0	0
7.639954	0.07334067	-0.03850385	0	0	0	0
7.656902	0.07334067	-0.03850385	0	0	0	0
7.673091	0.07334067	-0.03850385	0	0	0	0
7.689787	0.07334067	-0.03850385	0	0	0	0
7.706225	0.07334067	-0.03850385	0	0	0	0
7.722792	0.07334067	-0.03850385	0	0	0	0
7.739783	0.07334067	-0.03850385	0	0	0	0
7.755925	0.07334067	-0.03850385	0	0	0	0
7.772495	0.07334067	-0.03850385	0	0	0	0
7.789058	0.07334067	-0.03850385	0	0	0	0
7.805625	0.07334067	-0.03850385	0	0	0	0
7.82231	0.07334067	-0.03850385	0	0	0	0
7.838834	0.07334067	-0.03850385	0	0	0	0
7.85535	0.07334067	-0.03850385	0	0	0	0
7.871891	0.07334067	-0.03850385	0	0	0	0
7.888752	0.07334067	-0.03850385	0	0	0	0
7.905024	0.07334067	-0.03850385	0	0	0	0
7.9216	0.07334067	-0.03850385	0	0	0	0
7.938314	0.07334067	-0.03850385	0	0	0	0
7.954725	0.07334067	-0.03850385	0	0	0	0
7.971293	0.07334067	-0.03850385	0	0	0	0
7.987944	0.07334067	-0.03850385	0	0	0	0
8.004958	0.07334067	-0.03850385	0	0	0	0
8.020992	0.07334067	-0.03850385	0	0	0	0
8.037559	0.07334067	-0.03850385	0	0	0	0
8.054464	0.07334067	-0.03850385	0	0	0	0
8.070691	0.07334067	-0.03850385	0	0	0	0
8.087258	0.07334067	-0.03850385	0	0	0	0
8.103966	0.07334067	-0.03850385	0	0	0	0
8.120392	0.07334067	-0.03850385	0	0	0	0
8.136958	0.07334067	-0.03850385	0	0	0	0
8.153524	0.07334067	-0.03850385	0	0	0	0
8.170091	0.07334067	-0.03850385	0	0	0	0
8.18717	0.07334067	-0.03850385	0	0	0	0
8.203223	0.07334067	-0.03850385	0	0	0	0
8.219906	0.07334067	-0.03850385	0	0	0	0
8.236357	0.07334067	-0.03850385	0	0	0	0
8.252923	0.07334067	-0.03850385	0	0	0	0
8.269838	0.07334067	-0.03850385	0	0	0	0
8.289936	0.07334067	-0.03850385	0	0	0	0
8.306507	0.07334067	-0.03850385	0	0	0	0
8.323073	0.07334067	-0.03850385	0	0	0	0
8.33964	0.07334067	-0.03850385	0	0	0	0
8.356206	0.07334067	-0.03850385	0	0	0	0
8.372813	0.07334067	-0.03850385	0	0	0	0
8.389339	0.07334067	-0.03850385	0	0	0	0
8.405907	0.07334067	-0.03850385	0	0	0	0
8.422739	0.07334067	-0.03850385	0	0	0	0
8.439038	0.07334067	-0.03850385	0	0	0	0
8.455606	0.07334067	-0.03850385	0	0	0	0
8.472195	0.07334067	-0.03850385	0	0	0	0
8.522493	0.07334067	-0.03850385	0	0	0	0
8.539066	0.07334067	-0.03850385	0	0	0	0
8.556094	0.07334067	-0.03850385	0	0	0	0
8.572198	0.07334067	-0.03850385	0	0	0	0
8.589022	0.07334067	-0.03850385	0	0	0	0
8.605523	0.07334067	-0.03850385	0	0	0	0
8.621898	0.07334067	-0.03850385	0	0	0	0
8.638464	0.07334067	-0.03850385	0	0	0	0
8.655031	0.07334067	-0.03728151	0	0.07378095	0	2.226778
8.671616	0.07334067	-0.03728151	0	0	0	-2.22556
8.688304	0.07334067	-0.03728151	0	0	0	0
8.704731	0.07334067	-0.03728151	0	0	0	0
8.721297	0.07334067	-0.03728151	0	0	0	0
8.73808	0.07334067	-0.03728151	0	0	0	0
8.754513	0.07334067	-0.03728151	0	0	0	0
8.770997	0.07334067	-0.03728151	0	0	0	0
8.787563	0.07211833	-0.03728151	-0.07378497	0	-2.232489	0
8.804128	0.07211833	-0.03483682	0	0.1475872	2.227091	4.454702
8.820696	0.07211833	-0.03483682	0	0	0	-4.454446
8.837262	0.07211833	-0.03483682	0	0	0	0
8.853828	0.07211833	-0.03483682	0	0	0	0
8.870397	0.07211833	-0.03483682	0	0	0	0
8.886962	0.07211833	-0.03483682	0	0	0	0
8.903529	0.07211833	-0.03483682	0	0	0	0
8.920095	0.07211833	-0.03483682	0	0	0	0
8.936662	0.07211833	-0.03483682	0	0	0	0
8.953228	0.07211833	-0.03483682	0	0	0	0
8.969794	0.07211833	-0.03483682	0	0	0	0
8.986362	0.07211833	-0.03483682	0	0	0	0
9.002928	0.07211833	-0.03483682	0	0	0	0
9.019495	0.07211833	-0.03483682	0	0	0	0
9.036302	0.07211833	-0.03483682	0	0	0	0
9.053052	0.07211833	-0.03483682	0	0	0	0
9.069195	0.07211833	-0.03483682	0	0	0	0
9.085761	0.07211833	-0.03483682	0	0	0	0
9.102326	0.07211833	-0.03483682	0	0	0	0
9.118891	0.07211833	-0.03483682	0	0	0	0
9.135932	0.07211833	-0.03483682	0	0	0	0
9.152027	0.07211833	-0.03483682	0	0	0	0
9.168593	0.07211833	-0.03483682	0	0	0	0
9.18537	0.07211833	-0.03483682	0	0	0	0
9.201726	0.07211833	-0.03483682	0	0	0	0
9.218292	0.07211833	-0.03483682	0	0	0	0
9.234865	0.07211833	-0.03483682	0	0	0	0
9.251425	0.07211833	-0.03483682	0	0	0	0
9.267992	0.07211833	-0.03483682	0	0	0	0
9.28461	0.07211833	-0.03483682	0	0	0	0
9.301126	0.07211833	-0.03483682	0	0	0	0
9.31813	0.07211833	-0.03483682	0	0	0	0
9.33426	0.07211833	-0.03483682	0	0	0	0
9.350828	0.07211833	-0.03483682	0	0	0	0
9.367394	0.07211833	-0.03483682	0	0	0	0
9.383962	0.07211833	-0.03483682	0	0	0	0
9.400707	0.07211833	-0.03483682	0	0	0	0
9.417092	0.07211833	-0.03483682	0	0	0	0
9.433659	0.07211833	-0.03483682	0	0	0	0
9.450225	0.07211833	-0.03483682	0	0	0	0
9.466792	0.07211833	-0.03483682	0	0	0	0
9.483358	0.07211833	-0.03483682	0	0	0	0
9.499925	0.07211833	-0.03483682	0	0	0	0
9.516492	0.07211833	-0.03483682	0	0	0	0
9.533059	0.07211833	-0.03483682	0	0	0	0
9.549625	0.07211833	-0.03483682	0	0	0	0
9.566193	0.07211833	-0.03483682	0	0	0	0
9.582759	0.07211833	-0.03483682	0	0	0	0
9.599324	0.07211833	-0.03483682	0	0	0	0
9.615889	0.07211833	-0.03483682	0	0	0	0
9.63246	0.07211833	-0.03483682	0	0	0	0
9.649025	0.07211833	-0.03483682	0	0	0	0
9.665592	0.07211833	-0.03483682	0	0	0	0
9.682606	0.07211833	-0.03483682	0	0	0	0
9.698728	0.07211833	-0.03483682	0	0	0	0
9.715293	0.07211833	-0.03483682	0	0	0	0
9.731867	0.07211833	-0.03483682	0	0	0	0
9.846878	0.07211833	-0.03483682	0	0	0	0
9.863447	0.07211833	-0.03483682	0	0	0	0
9.880319	0.07211833	-0.03483682	0	0	0	0
9.896581	0.07211833	-0.03483682	0	0	0	0
9.913148	0.07211833	-0.03483682	0	0	0	0
9.929714	0.07211833	-0.03483682	0	0	0	0
9.946327	0.07211833	-0.03483682	0	0	0	0
9.962988	0.07211833	-0.03483682	0	0	0	0
9.979416	0.07211833	-0.03483682	0	0	0	0
9.99598	0.08556412	-0.03361447	0.81173	0.07379369	24.60357	2.23669
10.01255	0.1002323	-0.02994744	0.8853701	0.2213425	2.222655	4.453417
10.02911	0.1271238	-0.02383572	1.623273	0.3689254	22.27058	4.454189
10.04568	0.1466813	-0.01772399	1.180561	0.3689257	-13.36182	7.195901E-06
10.06225	0.1564601	-0.01527931	0.5902815	0.1475701	-17.8157	-6.680908
10.07882	0.1613495	-0.01405696	0.2950889	0.0737724	-8.908675	-2.227155
10.09538	0.1637942	-0.01405696	0.1475624	0	-4.452104	-2.226327
10.11195	0.1637942	-0.01405696	0	0	-4.453569	0
10.12876	0.1637942	-0.01405696	0	0	0	0
10.14508	0.1637942	-0.01405696	0	0	0	0
10.16165	0.1637942	-0.01405696	0	0	0	0
10.17822	0.1637942	-0.01405696	0	0	0	0
10.19478	0.1637942	-0.01405696	0	0	0	0
10.21159	0.1637942	-0.01405696	0	0	0	0
10.22791	0.1637942	-0.01405696	0	0	0	0
10.24448	0.1637942	-0.01405696	0	0	0	0
10.26105	0.1637942	-0.01405696	0	0	0	0
10.27761	0.1637942	-0.01283462	-8.995912E-07	0.07379363	-2.715362E-05	2.227417
10.29456	0.1576824	-0.005500551	-0.3606209	0.4327458	-10.76088	10.71112
10.31075	0.1552377	-0.004278206	-0.1510401	0.07551978	6.325342	-10.78141
10.32731	0.1540154	-0.003055861	-0.07378922	0.07378936	2.358729	-0.05283549
10.34467	0.1527931	-0.001833517	-0.07043959	0.07043973	0.09875544	-0.09875566
10.36045	0.1527931	-0.0006111723	0	0.07745473	2.125871	0.2117133
10.38324	0.1527931	-0.0006111723	0	0	0	-2.00794
10.4003	0.1527931	-0.0006111723	0	0	0	0
10.41638	0.1527931	-0.0006111723	0	0	0	0
10.43341	0.1527931	-0.0006111723	0	0	0	0
10.44951	0.1527931	-0.0006111723	0	0	0	0
10.46709	0.1503484	-0.0006111722	-0.1390527	3.31083E-09	-4.128766	9.830546E-08
10.48264	0.149126	0.0006111722	-0.07860026	0.07859944	1.824565	2.372272
10.49934	0.141792	0.003055861	-0.4393218	0.1464406	-11.18668	2.103885
10.51578	0.1393473	0.004278206	-0.1487085	0.07435442	8.770978	-2.175627
10.53234	0.1283462	0.009167584	-0.6640274	0.2951234	-15.61257	6.688619
10.54933	0.1222345	0.01161227	-0.3598518	0.1439409	9.066007	-4.506022
10.56548	0.113678	0.01527931	-0.5298249	0.2270676	-5.129945	2.508842
10.5821	0.1075663	0.01772399	-0.3675926	0.1470369	4.949747	-2.441758
10.59878	0.1038993	0.01894634	-0.2198237	0.07327479	4.436435	-2.214543
10.61518	0.1038993	0.02016868	0	0.07456633	6.646344	0.03904966
10.63182	0.1038993	0.02016868	0	0	0	-2.256847
10.64843	0.1038993	0.02016868	0	0	0	0
10.66498	0.1038993	0.02016868	0	0	0	0
10.68152	0.1038993	0.02016868	0	0	0	0
10.69801	0.1038993	0.02016868	0	0	0	0
10.71481	0.1038993	0.02016868	0	0	0	0
10.73134	0.1038993	0.02016868	0	0	0	0
10.74786	0.1038993	0.02016868	0	0	0	0
10.76464	0.1038993	0.02016868	0	0	0	0
10.78085	0.1038993	0.02016868	0	0	0	0
10.79766	0.1038993	0.02016868	0	0	0	0
10.81398	0.1038993	0.02016868	0	0	0	0
10.83087	0.1038993	0.02016868	0	0	0	0
10.84739	0.1038993	0.02016868	0	0	0	0
10.86369	0.1038993	0.02016868	0	0	0	0
10.88024	0.1038993	0.02016868	0	0	0	0
10.89681	0.1038993	0.02016868	0	0	0	0
10.91347	0.1038993	0.02016868	0	0	0	0
10.92994	0.1038993	0.02016868	0	0	0	0
10.94651	0.1038993	0.02016868	0	0	0	0
10.96333	0.1038993	0.02016868	0	0	0	0
10.97964	0.1038993	0.02016868	0	0	0	0
10.99638	0.1038993	0.02016868	0	0	0	0
11.01278	0.1038993	0.02016868	0	0	0	0
11.02934	0.1038993	0.02016868	0	0	0	0
11.04591	0.1038993	0.02016868	0	0	0	0
11.06248	0.1038993	0.02016868	0	0	0	0
11.07932	0.1038993	0.02016868	0	0	0	0
11.09561	0.1038993	0.02016868	0	0	0	0
11.11218	0.1038993	0.02016868	0	0	0	0
11.12882	0.1038993	0.02016868	0	0	0	0
11.14531	0.1038993	0.02016868	0	0	0	0
11.16188	0.1038993	0.02016868	0	0	0	0
11.17844	0.1038993	0.02016868	0	0	0	0
11.19529	0.1026769	0.01527931	-0.07256973	-0.2902777	-2.171967	-8.687835
11.21158	0.1002323	-0.001833517	-0.1500842	-1.050591	-2.339525	-22.94762
11.22814	0.09778757	-0.01527931	-0.1475699	-0.8116361	0.0765249	7.273005
11.24471	0.09656522	-0.02016868	-0.07378118	-0.2951235	2.227013	15.58883
11.26127	0.09656521	-0.02383572	-4.497956E-07	-0.2213809	2.226899	2.225748
11.27799	0.09412053	-0.03972619	-0.1462894	-0.9508858	-4.396283	-21.92312
11.2945	0.08800881	-0.08495294	-0.3701403	-2.739037	-6.737798	-53.82244
11.31098	0.07945239	-0.1362914	-0.5192161	-3.115294	-4.518625	-11.40472
11.32775	0.07089598	-0.1778511	-0.5100648	-2.47746	0.27519	19.18033
11.34418	0.06845129	-0.1961863	-0.1488298	-1.116223	10.88017	40.9996
11.36068	0.06722895	-0.2035204	-0.07408779	-0.4445267	2.270094	20.40102
11.37746	0.06722894	-0.2047427	-4.438668E-07	-0.07282079	2.225902	11.16764
11.39381	0.06722894	-0.2047427	0	0	1.339631E-05	2.197799
11.41038	0.06722894	-0.2047427	0	0	0	0
11.42694	0.06722894	-0.2047427	0	0	0	0
11.44351	0.06845129	-0.1961863	0.07378118	0.5164651	2.226849	15.58784
11.46008	0.08311943	-0.163183	0.8853195	1.991969	24.49157	44.5295
11.47683	0.09778756	-0.1350691	0.8753926	1.677838	-0.2978887	-9.426495
11.49321	0.1149004	-0.1118445	1.045084	1.418328	5.12189	-7.832916
11.50977	0.1320132	-0.09350935	1.032991	1.106776	-0.3671036	-9.457912
11.52634	0.149126	-0.08128591	1.032992	0.7378511	2.87836E-05	-11.13483
11.54291	0.1613495	-0.07395184	0.7378497	0.4427107	-8.907936	-8.907866
11.55947	0.1747953	-0.07028481	0.8116832	0.2213681	2.228493	-6.68071
11.57604	0.1833517	-0.07028481	0.5163777	-4.496403E-07	-8.912083	-6.680724
11.59261	0.1919081	-0.07150716	0.5164957	-0.07378497	0.003561561	-2.226693
11.60917	0.2016868	-0.07517418	0.5902807	-0.2213549	2.226962	-4.453927
11.62578	0.212688	-0.07884122	0.662617	-0.2208726	2.180856	0.01454006
11.64231	0.2298008	-0.08495295	1.035196	-0.3697132	11.24479	-4.492148
11.65892	0.2481359	-0.08984233	1.1036	-0.2942933	2.063768	2.27546
11.67544	0.2652488	-0.0947317	1.035914	-0.2959748	-2.042807	-0.05074943
11.69385	0.294585	-0.1020658	1.593436	-0.3983598	15.96101	-2.93113
11.71084	0.3031414	-0.1057328	0.5036241	-0.2158386	-30.78531	5.15591
11.72699	0.3031414	-0.1057328	0	0	-15.19809	6.513458
11.74363	0.3031414	-0.1069551	0	-0.07345935	0	-2.24048
11.76012	0.3031414	-0.1069551	0	0	0	2.217135
11.77669	0.3055861	-0.1069551	0.1475699	4.497438E-07	4.46382	1.360423E-05
11.79326	0.3055861	-0.1081775	0	-0.07378072	-4.453798	-2.226784
11.80982	0.3068085	-0.1081775	0.07378072	0	2.226707	2.226707
11.82639	0.3068085	-0.1081775	0	0	-2.226771	0
11.84296	0.3068085	-0.1081775	0	0	0	0
11.85972	0.3068085	-0.1081775	0	0	0	0
11.87609	0.3068085	-0.1081775	0	0	0	0
11.89266	0.3068085	-0.1081775	0	0	0	0
11.90932	0.3068085	-0.1081775	0	0	0	0
11.9261	0.3068085	-0.1081775	0	0	0	0
11.94252	0.3055861	-0.1081775	-0.07444063	0	-2.241912	0
11.95978	0.2884733	-0.1045105	-0.9915507	0.2124748	-27.23091	6.30882
11.97589	0.2652487	-0.09839872	-1.442184	0.3795225	-13.50722	5.007067
11.99205	0.2285784	-0.09350935	-2.268131	0.302417	-25.59379	-2.389285
12.00862	0.1760176	-0.0812859	-3.17203	0.7376816	-27.6103	13.2955
12.02519	0.1246791	-0.07028481	-3.099152	0.6641034	2.199389	-2.22053
12.04176	0.09167583	-0.0617284	-1.992198	0.5164962	33.41082	-4.455181
12.05845	0.07211833	-0.05683902	-1.171524	0.292881	24.67425	-6.723176
12.07489	0.06356192	-0.05439433	-0.5204204	0.1486917	19.64979	-4.351517
12.09146	0.06111722	-0.05317198	-0.1475704	0.07378497	11.29588	-2.269378
12.10832	0.06111722	-0.05317198	0	0	4.414297	-2.207142
12.12459	0.06111722	-0.05317198	0	0	0	0
12.14147	0.05745019	-0.05194964	-0.2171793	0.07239304	-6.550903	2.183632
12.15772	0.05867253	-0.05194964	0.07522243	2.292535E-07	8.824702	-2.184819
12.17429	0.05867253	-0.05194964	0	0	-2.29232	-6.986244E-06
12.19086	0.05867253	-0.05194964	0	0	0	0
12.20742	0.05867253	-0.05194964	0	0	0	0
12.22399	0.05867253	-0.05194964	0	0	0	0
12.24102	0.05867253	-0.05194964	0	0	0	0
12.25712	0.05867253	-0.05194964	0	0	0	0
12.27369	0.05867253	-0.05194964	0	0	0	0
12.29026	0.05867253	-0.05194964	0	0	0	0
12.30682	0.05867253	-0.05194964	0	0	0	0
12.33005	0.05867253	-0.05194964	0	0	0	0
12.34662	0.05867253	-0.05194964	0	0	0	0
12.36319	0.05867253	-0.05194964	0	0	0	0
12.37976	0.05867253	-0.05194964	0	0	0	0
12.3969	0.05867253	-0.05194964	0	0	0	0
12.41289	0.05867253	-0.05194964	0	0	0	0
12.42946	0.05867253	-0.05194964	0	0	0	0
12.44614	0.05500551	-0.04583792	-0.2198111	0.3663523	-6.61108	11.01848
12.46259	0.04644909	-0.03239213	-0.5200887	0.8172821	-9.062396	13.60909
12.47916	0.04644909	-0.03116978	0	0.07378095	15.75116	-22.51733
12.49573	0.04644909	-0.03116978	0	0	0	-2.226585
12.51238	0.04644909	-0.03116978	0	0	0	0
12.52943	0.04644909	-0.03116978	0	0	0	0
12.54542	0.04644909	-0.03116978	0	0	0	0
12.56199	0.04644909	-0.03116978	0	0	0	0
12.57856	0.04644909	-0.03116978	0	0	0	0
12.59512	0.04644909	-0.03116978	0	0	0	0
12.61181	0.04644909	-0.03116978	0	0	0	0
12.62826	0.04644909	-0.03116978	0	0	0	0
12.64482	0.04644909	-0.03116978	0	0	0	0
12.66139	0.04644909	-0.03116978	0	0	0	0
12.67796	0.04644909	-0.03116978	0	0	0	0
12.69455	0.04644909	-0.03116978	0	0	0	0
12.71109	0.04644909	-0.03116978	0	0	0	0
12.72766	0.04644909	-0.03116978	0	0	0	0
12.7443	0.04644909	-0.03116978	0	0	0	0
12.76079	0.04644909	-0.03116978	0	0	0	0
12.77737	0.04644909	-0.03116978	0	0	0	0
12.79422	0.04644909	-0.03116978	0	0	0	0
12.81049	0.04644909	-0.03116978	0	0	0	0
12.82705	0.04644909	-0.03116978	0	0	0	0
12.84362	0.04644909	-0.03116978	0	0	0	0
12.86045	0.04644909	-0.03116978	0	0	0	0
12.87675	0.04644909	-0.03116978	0	0	0	0
12.89342	0.04644909	-0.03116978	0	0	0	0
12.90988	0.04644909	-0.03116978	0	0	0	0
12.92646	0.04644909	-0.03116978	0	0	0	0
12.94302	0.04644909	-0.03116978	0	0	0	0
12.95958	0.04644909	-0.03116978	0	0	0	0
12.97615	0.04644909	-0.03116978	0	0	0	0
12.99272	0.04644909	-0.03116978	0	0	0	0
13.00953	0.04644909	-0.02750275	0	0.218091	0	6.533669
13.02585	0.04644909	-0.02383572	0	0.2246794	0	0.1988344
13.04242	0.04522675	-0.017724	-0.07378497	0.3689254	-2.243559	4.386048
13.05923	0.0440044	-0.01527931	-0.07270535	0.1454105	0.03234464	-6.696352
13.07555	0.0440044	-0.01405696	0	0.07489317	2.194315	-2.12828
13.09212	0.0440044	-0.01405696	0	0	0	-2.277124
13.10882	0.0440044	-0.01405696	0	0	0	0
13.12525	0.0440044	-0.01405696	0	0	0	0
13.14182	0.0440044	-0.01405696	0	0	0	0
13.15877	0.0440044	-0.01405696	0	0	0	0
13.17495	0.0440044	-0.01405696	0	0	0	0
13.19152	0.0440044	-0.01405696	0	0	0	0
13.20828	0.0440044	-0.01405696	0	0	0	0
13.22484	0.0440044	-0.01405696	0	0	0	0
13.24148	0.0440044	-0.01405696	0	0	0	0
13.25779	0.0440044	-0.01405696	0	0	0	0
13.27435	0.0440044	-0.01405696	0	0	0	0
13.29123	0.0440044	-0.01405696	0	0	0	0
13.30749	0.0440044	-0.01405696	0	0	0	0
13.32405	0.0440044	-0.01405696	0	0	0	0
13.34087	0.0440044	-0.01405696	0	0	0	0
13.35719	0.0440044	-0.01405696	0	0	0	0
13.37392	0.0440044	-0.01405696	0	0	0	0
13.39032	0.0440044	-0.01405696	0	0	0	0
13.40689	0.0440044	-0.01405696	0	0	0	0
13.42382	0.0440044	-0.01405696	0	0	0	0
13.44002	0.0440044	-0.01405696	0	0	0	0
13.45697	0.0440044	-0.01405696	0	0	0	0
13.47316	0.0440044	-0.01405696	0	0	0	0
13.49	0.0440044	-0.01405696	0	0	0	0
13.50632	0.0440044	-0.01405696	0	0	0	0
13.52285	0.0440044	-0.01405696	0	0	0	0
13.53942	0.0440044	-0.01405696	0	0	0	0
13.55599	0.0440044	-0.01405696	0	0	0	0
13.57259	0.04155971	-0.009167584	-0.147206	0.2944117	-4.437322	8.874634
13.58912	0.04033737	-0.00794524	-0.07395954	0.07395965	2.210583	-6.653255
13.60587	0.03789268	-0.003055861	-0.145932	0.2918641	-2.162672	6.547724
13.62258	0.03544799	0.001833517	-0.1463151	0.2926304	-0.01145088	0.02290176
13.63882	0.0330033	0.00550055	-0.1505429	0.2258141	-0.1283192	-2.027959
13.65903	0.03055861	0.009167584	-0.1209514	0.181427	0.8118104	-1.217711
13.6756	0.03055861	0.01038993	0	0.0737681	3.288307	-2.926923
13.69217	0.03055861	0.01038993	0	0	0	-2.226197
13.70919	0.03055861	0.01038993	0	0	0	0
13.7253	0.03055861	0.01038993	0	0	0	0
13.74187	0.02933627	0.01038993	-0.07377234	0	-2.257248	0
13.75844	0.02933627	0.01038993	0	0	2.22639	0
13.77501	0.02933627	0.01038993	0	0	0	0
13.79157	0.02933627	0.01038993	0	0	0	0
13.80814	0.02933627	0.01038993	0	0	0	0
13.82471	0.02933627	0.01038993	0	0	0	0
14.08804	0.02933627	0.01038993	0	0	0	0
14.10461	0.02933627	0.01038993	0	0	0	0
14.12118	0.02933627	0.01038993	0	0	0	0
14.13775	0.02933627	0.01038993	0	0	0	0
14.15431	0.02933627	0.01038993	0	0	0	0
14.17088	0.02933627	0.01038993	0	0	0	0
14.18775	0.02933627	0.01038993	0	0	0	0
14.20401	0.02933627	0.01038993	0	0	0	0
14.22089	0.02933627	0.01038993	0	0	0	0
14.23715	0.02933627	0.01038993	0	0	0	0
14.25371	0.02933627	0.01038993	0	0	0	0
14.27028	0.02933627	0.01038993	0	0	0	0
14.28711	0.02933627	0.01038993	0	0	0	0
14.30342	0.02933627	0.01038993	0	0	0	0
14.32012	0.02933627	0.01038993	0	0	0	0
14.33655	0.02933627	0.01038993	0	0	0	0
14.35312	0.02933627	0.01038993	0	0	0	0
14.36968	0.02933627	0.01038993	0	0	0	0
14.38641	0.02933627	0.01038993	0	0	0	0
14.40282	0.02933627	0.01038993	0	0	0	0
14.41938	0.02933627	0.01038993	0	0	0	0
14.43629	0.02933627	0.01038993	0	0	0	0
14.45251	0.02933627	0.01038993	0	0	0	0
14.46959	0.02933627	0.01038993	0	0	0	0
14.48565	0.02933627	0.01038993	0	0	0	0
14.50221	0.02933627	0.01038993	0	0	0	0
14.5202	0.02933627	0.01038993	0	0	0	0
14.53677	0.02933627	0.01038993	0	0	0	0
14.55352	0.02933627	0.01038993	0	0	0	0
14.56991	0.02933627	0.01038993	0	0	0	0
14.5868	0.02933627	0.01038993	0	0	0	0
14.60304	0.02933627	0.01038993	0	0	0	0
14.61988	0.02933627	0.01038993	0	0	0	0
14.63617	0.02933627	0.01038993	0	0	0	0
14.65274	0.02933627	0.01038993	0	0	0	0
14.6693	0.02933627	0.01038993	0	0	0	0
14.68587	0.02933627	0.01038993	0	0	0	0
14.70244	0.02933627	0.01038993	0	0	0	0
14.719	0.02933627	0.01038993	0	0	0	0
14.73557	0.02933627	0.01038993	0	0	0	0
14.7522	0.02933627	0.01038993	0	0	0	0
14.76878	0.02933627	0.01038993	0	0	0	0
14.78527	0.02933627	0.01038993	0	0	0	0
14.80214	0.02933627	0.01038993	0	0	0	0
14.8184	0.02933627	0.01038993	0	0	0	0
14.83497	0.02933627	0.01038993	0	0	0	0
14.85154	0.02933627	0.01038993	0	0	0	0
14.8681	0.02933627	0.01038993	0	0	0	0
14.88467	0.02933627	0.01038993	0	0	0	0
14.90131	0.02933627	0.01038993	0	0	0	0
14.9178	0.02933627	0.01038993	0	0	0	0
14.93471	0.02933627	0.01038993	0	0	0	0
14.95093	0.02933627	0.01038993	0	0	0	0
14.9675	0.02933627	0.01038993	0	0	0	0
14.98444	0.02933627	0.01038993	0	0	0	0
15.00064	0.02933627	0.01038993	0	0	0	0
15.0172	0.02933627	0.01038993	0	0	0	0
15.03411	0.02933627	0.01038993	0	0	0	0
15.0508	0.02933627	0.01038993	0	0	0	0
15.0669	0.02933627	0.01038993	0	0	0	0
15.08347	0.02933627	0.01038993	0	0	0	0
15.10003	0.02933627	0.01038993	0	0	0	0
15.11728	0.02933627	0.01038993	0	0	0	0
15.13317	0.02933627	0.01038993	0	0	0	0
15.14973	0.02933627	0.01038993	0	0	0	0
15.1663	0.02933627	0.01038993	0	0	0	0
15.1836	0.02933627	0.01038993	0	0	0	0
15.20017	0.02933627	0.01038993	0	0	0	0
15.21721	0.02933627	0.01038993	0	0	0	0
15.2333	0.02933627	0.01038993	0	0	0	0
15.24987	0.02933627	0.01038993	0	0	0	0
15.26675	0.02933627	0.01038993	0	0	0	0
15.283	0.02933627	0.01038993	0	0	0	0
15.29957	0.02933627	0.01038993	0	0	0	0
15.31629	0.02933627	0.01038993	0	0	0	0
15.3328	0.02933627	0.01038993	0	0	0	0
15.34927	0.02933627	0.01038993	0	0	0	0
15.36584	0.02933627	0.01038993	0	0	0	0
15.38241	0.02933627	0.01038993	0	0	0	0
15.39897	0.02933627	0.01038993	0	0	0	0
15.41567	0.02933627	0.01038993	0	0	0	0
15.43232	0.02933627	0.01038993	0	0	0	0
15.44867	0.02933627	0.01038993	0	0	0	0
15.46524	0.02933627	0.01038993	0	0	0	0
15.48181	0.02933627	0.01038993	0	0	0	0
15.49837	0.02933627	0.01038993	0	0	0	0
15.51494	0.02933627	0.01038993	0	0	0	0
15.53151	0.02933627	0.01038993	0	0	0	0
15.54807	0.02933627	0.01038993	0	0	0	0
15.56464	0.02933627	0.01038993	0	0	0	0
15.58142	0.02933627	0.01038993	0	0	0	0
15.59777	0.02933627	0.01038993	0	0	0	0
15.61434	0.02933627	0.01038993	0	0	0	0
15.63091	0.02933627	0.01038993	0	0	0	0
15.64809	0.02933627	0.01038993	0	0	0	0
15.66404	0.02933627	0.01038993	0	0	0	0
15.68078	0.02933627	0.01038993	0	0	0	0
15.69717	0.02933627	0.01038993	0	0	0	0
15.71374	0.02933627	0.01038993	0	0	0	0
15.73031	0.02933627	0.01038993	0	0	0	0
15.74721	0.02933627	0.01038993	0	0	0	0
15.76361	0.02933627	0.01038993	0	0	0	0
15.78001	0.02933627	0.01038993	0	0	0	0
15.79657	0.02933627	0.01038993	0	0	0	0
15.81314	0.02933627	0.01038993	0	0	0	0
15.82971	0.02933627	0.01038993	0	0	0	0
15.8566	0.02933627	0.01038993	0	0	0	0
15.87317	0.02933627	0.01038993	0	0	0	0
15.88973	0.02933627	0.01038993	0	0	0	0
15.9063	0.02933627	0.01038993	0	0	0	0
15.92287	0.02933627	0.01038993	0	0	0	0
15.93943	0.02933627	0.01038993	0	0	0	0
15.956	0.02933627	0.01038993	0	0	0	0
15.97257	0.02933627	0.01038993	0	0	0	0
15.98934	0.02933627	0.01038993	0	0	0	0
16.0057	0.02933627	0.01038993	0	0	0	0
16.02236	0.02933627	0.01038993	0	0	0	0
16.03884	0.02933627	0.01038993	0	0	0	0
16.0556	0.02933627	0.01038993	0	0	0	0
16.07197	0.02933627	0.01038993	0	0	0	0
16.08924	0.02933627	0.01038993	0	0	0	0
16.1051	0.02933627	0.01038993	0	0	0	0
16.12173	0.02933627	0.01038993	0	0	0	0
16.13833	0.02933627	0.01038993	0	0	0	0
16.15489	0.02933627	0.01038993	0	0	0	0
16.17154	0.02933627	0.01038993	0	0	0	0
16.18803	0.02933627	0.01038993	0	0	0	0
16.2045	0.02933627	0.01038993	0	0	0	0
16.22146	0.02933627	0.01038993	0	0	0	0
16.23763	0.02933627	0.01038993	0	0	0	0
16.2542	0.02933627	0.01038993	0	0	0	0
16.27077	0.02933627	0.01038993	0	0	0	0
16.28733	0.02933627	0.01038993	0	0	0	0
16.30424	0.02933627	0.01038993	0	0	0	0
16.32047	0.02933627	0.01038993	0	0	0	0
16.33718	0.02933627	0.01038993	0	0	0	0
16.3536	0.02933627	0.01038993	0	0	0	0
16.37017	0.02933627	0.01038993	0	0	0	0
16.38673	0.02933627	0.01038993	0	0	0	0
16.4033	0.02933627	0.01038993	0	0	0	0
16.41987	0.02933627	0.01038993	0	0	0	0
16.43643	0.02933627	0.01038993	0	0	0	0
16.45327	0.02933627	-0.00794524	1.106586E-07	-1.089281	3.313174E-06	-32.61362
16.46978	0.02811393	-0.06050606	-0.07403643	-3.183573	-2.220495	-62.81173
16.48613	0.0220022	-0.1387361	-0.3736797	-4.783099	-9.117252	-48.66881
16.5033	0.01344579	-0.234079	-0.4983917	-5.553508	-3.72013	-22.98112
16.51926	0.008556412	-0.3147537	-0.3063021	-5.053985	5.797944	15.07737
16.53583	0.009778756	-0.3758709	0.07377234	-3.688619	11.68319	41.97028
16.5524	0.009778756	-0.3856497	0	-0.5902476	-2.226326	93.50364
16.60298	0.008556412	-0.3978731	-0.02416426	-0.2416422	-0.3598441	5.191286
16.61955	0.008556412	-0.4052072	0	-0.4425842	0.3598237	-2.992175
16.63612	0.008556412	-0.4052072	0	0	0	13.35645
16.65301	0.008556412	-0.4052072	0	0	0	0
16.66925	0.008556412	-0.4052072	0	0	0	0
16.68608	0.008556412	-0.4052072	0	0	0	0
16.70239	0.008556412	-0.4052072	0	0	0	0
16.71895	0.008556412	-0.4052072	0	0	0	0
16.73552	0.008556412	-0.4052072	0	0	0	0
16.75209	0.008556412	-0.4052072	0	0	0	0
16.76883	0.008556412	-0.4052072	0	0	0	0
16.78522	0.008556412	-0.4052072	0	0	0	0
16.80184	0.008556412	-0.4052072	0	0	0	0
16.81836	0.009778756	-0.4003178	0.07402799	0.2961133	2.234169	8.936718
16.83492	0.01222345	-0.383205	0.1475448	1.032813	2.222324	22.26954
16.85173	0.01466813	-0.3489794	0.1454352	2.036094	-0.06320134	30.0576
16.86832	0.01466813	-0.2744163	0	4.496492	-4.355398	73.68237
16.88462	0.006111722	-0.1864075	-0.524804	5.397983	-15.95803	27.41219
16.90119	-0.003667033	-0.1289573	-0.5902468	3.4677	-1.990883	-58.72255
16.91776	-0.006111722	-0.1057328	-0.1475617	1.401837	13.36026	-62.34787
16.93432	-0.007334067	-0.09350935	-0.07378934	0.7378935	2.226583	-20.03899
16.95089	-0.007334067	-0.08739763	-2.810737E-08	0.3689041	2.227094	-11.13676
16.96745	-0.007334067	-0.08739763	0	0	8.482821E-07	-11.13355
16.98402	-0.007334067	-0.08739763	0	0	0	0
17.00059	-0.007334067	-0.08739763	0	0	0	0
17.01716	-0.007334067	-0.08739763	0	0	0	0
17.03372	-0.007334067	-0.08739763	0	0	0	0
17.05029	-0.007334067	-0.08739763	0	0	0	0
17.06752	-0.007334067	-0.08739763	0	0	0	0
17.08353	-0.007334067	-0.08739763	0	0	0	0
17.09999	-0.007334067	-0.08739763	0	0	0	0
17.11656	-0.007334067	-0.08739763	0	0	0	0
17.13312	-0.007334067	-0.08739763	0	0	0	0
17.14969	-0.007334067	-0.08739763	0	0	0	0
17.16634	-0.007334067	-0.08739763	0	0	0	0
17.18282	-0.007334067	-0.08739763	0	0	0	0
17.19939	-0.007334067	-0.08739763	0	0	0	0
17.21596	-0.007334067	-0.08739763	0	0	0	0
17.23252	-0.007334067	-0.08739763	0	0	0	0
17.24948	-0.007334067	-0.08739763	0	0	0	0
17.26566	-0.007334067	-0.08739763	0	0	0	0
17.28222	-0.007334067	-0.08739763	0	0	0	0
17.29929	-0.007334067	-0.08739763	0	0	0	0
17.31536	-0.007334067	-0.08739763	0	0	0	0
17.33224	-0.007334067	-0.08739763	0	0	0	0
17.34849	-0.007334067	-0.08739763	0	0	0	0
17.36533	-0.007334067	-0.08739763	0	0	0	0
17.38162	-0.007334067	-0.08739763	0	0	0	0
17.39819	-0.007334067	-0.08739763	0	0	0	0
17.41476	-0.007334067	-0.08739763	0	0	0	0
17.43217	-0.007334067	-0.08739763	0	0	0	0
17.44789	-0.007334067	-0.08739763	0	0	0	0
17.46446	-0.007334067	-0.08739763	0	0	0	0
17.48102	-0.007334067	-0.08739763	0	0	0	0
17.49759	-0.007334067	-0.08739763	0	0	0	0
17.51416	-0.007334067	-0.08617529	0	0.07378967	0	2.226977
17.53073	-0.007334067	-0.08250825	0	0.2213426	0	4.453413
17.54733	-0.007334067	-0.08006356	2.804602E-08	0.1472398	8.455059E-07	-2.233984
17.56386	-0.007334067	-0.07761888	-2.817224E-08	0.1479015	-1.696768E-06	0.01997222
17.58043	-0.006111722	-0.07517418	0.07378086	0.1475624	2.229278	-0.01024873
17.59699	-0.006111722	-0.07395184	0	0.07378922	-2.226839	-2.226606
17.61356	-0.004889378	-0.0727295	0.07378934	0.07378922	2.227223	0
17.63012	-0.004889378	-0.07028481	2.810737E-08	0.1475619	-2.227094	2.226592
17.64669	-0.004889378	-0.07028481	0	0	-8.482821E-07	-4.453427
17.66337	-0.004889378	-0.06906247	0	0.07326575	0	2.203428
17.67989	-0.004889378	-0.06784012	0	0.07401124	0	0.02245499
17.6964	-0.004889378	-0.06784012	0	0	0	-2.241146
17.71296	-0.004889378	-0.06784012	0	0	0	0
17.72952	-0.004889378	-0.06784012	0	0	0	0
17.74626	-0.003667034	-0.06661778	0.07301588	0.07301576	2.19214	2.192137
17.76274	-0.003667034	-0.06661778	0	0	-2.197804	-2.1978
17.77923	-0.003667034	-0.06661778	0	0	0	0
17.7958	-0.003667034	-0.06661778	0	0	0	0
17.81236	-0.003667034	-0.06661778	0	0	0	0
17.82893	-0.003667034	-0.06661778	0	0	0	0
17.84736	-0.003667034	-0.06661778	0	0	0	0
17.86393	-0.003667034	-0.06661778	0	0	0	0
17.88058	-0.003667034	-0.06539543	0	0.07342613	0	2.210407
17.89707	-0.003667034	-0.06539543	0	0	0	-2.216005
17.91363	-0.003667034	-0.06417309	0	0.07378922	0	2.232489
17.9302	-0.003667034	-0.06417309	0	0	0	-2.227091
17.94677	-0.003667034	-0.06417309	0	0	0	0
17.96334	-0.003667034	-0.06417309	0	0	0	0
17.97991	-0.003667033	-0.06295074	2.80912E-08	0.07373872	8.475014E-07	2.224671
17.99647	-0.003667033	-0.0617284	0	0.07383172	-8.478429E-07	0.002806851
18.01304	-0.003667033	-0.0617284	0	0	0	-2.229016
18.0296	-0.003667033	-0.0617284	0	0	0	0
18.04643	-0.003667034	-0.06050605	-1.38339E-08	0.07262686	-4.142174E-07	2.174608
18.06274	-0.002444689	-0.05928371	0.07497198	0.07497185	2.262659	0.07077189
18.0793	-0.002444689	-0.05928371	0	0	-2.280909	-2.280905
18.09594	-0.002444689	-0.05806137	1.399568E-08	0.07347642	4.215411E-07	2.213064
18.11244	-0.002444689	-0.05561667	0	0.1481932	-4.224148E-07	2.255086
18.12901	-0.002444689	-0.05561667	0	0	0	-4.481766
18.14557	-0.002444689	-0.05439433	0	0.07377223	0	2.226194
18.16214	-0.002444689	-0.05439433	0	0	0	-2.22645
18.17925	-0.002444689	-0.05439433	0	0	0	0
18.19527	-0.002444689	-0.05439433	0	0	0	0
18.21184	-0.002444689	-0.05439433	0	0	0	0
18.2284	-0.002444689	-0.05439433	0	0	0	0
18.24497	-0.002444689	-0.05439433	0	0	0	0
18.26154	-0.002444689	-0.05439433	0	0	0	0
18.27838	-0.002444689	-0.05439433	0	0	0	0
18.29467	-0.002444689	-0.05439433	0	0	0	0
18.31169	-0.002444689	-0.05317198	0	0.07183739	0	2.156882
18.3278	-0.002444689	-0.05317198	0	0	0	-2.168181
18.34437	-0.002444689	-0.05317198	0	0	0	0
18.36094	-0.002444689	-0.05317198	0	0	0	0
18.37764	-0.002444689	-0.05317198	0	0	0	0
18.39423	-0.002444689	-0.05317198	0	0	0	0
18.41065	-0.002444689	-0.05317198	0	0	0	0
18.42735	-0.002444689	-0.05317198	0	0	0	0
18.44377	-0.002444689	-0.05317198	0	0	0	0
18.46034	-0.002444689	-0.05317198	0	0	0	0
18.47691	-0.002444689	-0.05317198	0	0	0	0
18.49366	-0.002444689	-0.05317198	0	0	0	0
18.51451	-0.002444689	-0.05317198	0	0	0	0
18.53108	-0.002444689	-0.05317198	0	0	0	0
18.54765	-0.002444689	-0.05317198	0	0	0	0
18.56422	-0.002444689	-0.05317198	0	0	0	0
18.58079	-0.002444689	-0.05317198	0	0	0	0
18.59764	-0.002444689	-0.0507273	-1.38198E-08	0.1451059	-4.135828E-07	4.342559
18.61419	-0.002444689	-0.0507273	0	0	4.137245E-07	-4.344047
18.63049	-0.002444689	-0.0507273	0	0	0	0
18.64745	-0.002444689	-0.0507273	0	0	0	0
18.66362	-0.002444689	-0.0507273	0	0	0	0
18.68019	-0.002444689	-0.0507273	0	0	0	0
18.69701	-0.002444689	-0.0507273	0	0	0	0
18.71332	-0.002444689	-0.0507273	0	0	0	0
18.72989	-0.002444689	-0.0507273	0	0	0	0
18.74645	-0.002444689	-0.0507273	0	0	0	0
18.76302	-0.002444689	-0.0507273	0	0	0	0
18.77959	-0.002444689	-0.0507273	0	0	0	0
18.79637	-0.002444689	-0.0507273	0	0	0	0
18.81273	-0.002444689	-0.0507273	0	0	0	0
18.82928	-0.002444689	-0.0507273	0	0	0	0
18.84585	-0.002444689	-0.0507273	0	0	0	0
18.86246	-0.002444689	-0.0507273	0	0	0	0
18.87901	-0.002444689	-0.0507273	0	0	0	0
18.89612	-0.002444689	-0.0507273	0	0	0	0
18.9126	-0.002444689	-0.0507273	0	0	0	0
18.92868	-0.002444689	-0.0507273	0	0	0	0
18.94525	-0.002444689	-0.0507273	0	0	0	0
18.96182	-0.002444689	-0.0507273	0	0	0	0
18.97839	-0.002444689	-0.0507273	0	0	0	0
18.99495	-0.002444689	-0.0507273	0	0	0	0
19.01154	-0.002444689	-0.0507273	0	0	0	0
19.02818	-0.002444689	-0.0507273	0	0	0	0
19.04501	-0.002444689	-0.0507273	0	0	0	0
19.06122	-0.002444689	-0.0507273	0	0	0	0
19.07779	-0.002444689	-0.0507273	0	0	0	0
19.0944	-0.002444689	-0.0507273	0	0	0	0
19.11144	-0.002444689	-0.0507273	0	0	0	0
19.12748	-0.002444689	-0.0507273	0	0	0	0
19.14405	-0.002444689	-0.0507273	0	0	0	0
19.16094	-0.002444689	-0.0507273	0	0	0	0
19.17718	-0.002444689	-0.0507273	0	0	0	0
19.19375	-0.002444689	-0.0507273	0	0	0	0
19.21031	-0.002444689	-0.0507273	0	0	0	0
19.22688	-0.002444689	-0.0507273	0	0	0	0
19.24345	-0.002444689	-0.0507273	0	0	0	0
19.2601	-0.002444689	-0.0507273	0	0	0	0
19.27658	-0.002444689	-0.0507273	0	0	0	0
19.29315	-0.002444689	-0.0507273	0	0	0	0
19.30972	-0.002444689	-0.0507273	0	0	0	0
19.32628	-0.002444689	-0.0507273	0	0	0	0
19.34285	-0.002444689	-0.0507273	0	0	0	0
19.35973	-0.002444689	-0.0507273	0	0	0	0
19.3761	-0.002444689	-0.0507273	0	0	0	0
19.39255	-0.002444689	-0.0507273	0	0	0	0
19.40912	-0.002444689	-0.0507273	0	0	0	0
19.42604	-0.002444689	-0.0507273	0	0	0	0
19.44225	-0.002444689	-0.0507273	0	0	0	0
19.45882	-0.002444689	-0.0507273	0	0	0	0
19.47538	-0.002444689	-0.0507273	0	0	0	0
19.49195	-0.002444689	-0.0507273	0	0	0	0
19.50879	-0.002444689	-0.0507273	0	0	0	0
19.52508	-0.002444689	-0.0507273	0	0	0	0
19.54165	-0.002444689	-0.0507273	0	0	0	0
19.55822	-0.002444689	-0.0507273	0	0	0	0
19.57479	-0.002444689	-0.0507273	0	0	0	0
19.59137	-0.002444689	-0.0507273	0	0	0	0
19.60857	-0.002444689	-0.0507273	0	0	0	0
19.62449	-0.002444689	-0.0507273	0	0	0	0
19.64105	-0.002444689	-0.0507273	0	0	0	0
19.65762	-0.002444689	-0.0507273	0	0	0	0
19.67419	-0.002444689	-0.0507273	0	0	0	0
19.69081	-0.002444689	-0.0507273	0	0	0	0
19.70732	-0.002444689	-0.0507273	0	0	0	0
19.72389	-0.002444689	-0.0507273	0	0	0	0
19.74045	-0.002444689	-0.0507273	0	0	0	0
19.75706	-0.002444689	-0.0507273	0	0	0	0
19.77358	-0.002444689	-0.0507273	0	0	0	0
19.79015	-0.002444689	-0.0507273	0	0	0	0
19.80673	-0.002444689	-0.0507273	0	0	0	0
19.82331	-0.002444689	-0.0507273	0	0	0	0
19.83985	-0.002444689	-0.0507273	0	0	0	0
19.85642	-0.002444689	-0.0507273	0	0	0	0
19.87299	-0.002444689	-0.0507273	0	0	0	0
19.88955	-0.002444689	-0.0507273	0	0	0	0
19.90622	-0.002444689	-0.0507273	0	0	0	0
19.92295	-0.002444689	-0.0507273	0	0	0	0
19.93952	-0.002444689	-0.0507273	0	0	0	0
19.95582	-0.002444689	-0.0507273	0	0	0	0
19.97239	-0.002444689	-0.0507273	0	0	0	0
19.98911	-0.002444689	-0.0507273	0	0	0	0
20.00552	-0.002444689	-0.0507273	0	0	0	0
20.02209	-0.002444689	-0.0507273	0	0	0	0
20.03865	-0.002444689	-0.0507273	0	0	0	0
20.05607	-0.002444689	-0.0507273	0	0	0	0
20.07179	-0.002444689	-0.0507273	0	0	0	0
20.08836	-0.002444689	-0.0507273	0	0	0	0
20.10513	-0.002444689	-0.0507273	0	0	0	0
20.12149	-0.002444689	-0.0507273	0	0	0	0
20.13806	-0.002444689	-0.0507273	0	0	0	0
20.15462	-0.002444689	-0.0507273	0	0	0	0
20.17121	-0.002444689	-0.0507273	0	0	0	0
20.18776	-0.002444689	-0.0507273	0	0	0	0
20.20432	-0.002444689	-0.0507273	0	0	0	0
20.22089	-0.002444689	-0.0507273	0	0	0	0
20.23748	-0.002444689	-0.0507273	0	0	0	0
20.25408	-0.002444689	-0.0507273	0	0	0	0
20.27059	-0.002444689	-0.0507273	0	0	0	0
20.28716	-0.002444689	-0.0507273	0	0	0	0
20.30375	-0.002444689	-0.0507273	0	0	0	0
20.32072	-0.002444689	-0.0507273	0	0	0	0
20.33685	-0.002444689	-0.0507273	0	0	0	0
20.35342	-0.002444689	-0.0507273	0	0	0	0
20.36999	-0.002444689	-0.0507273	0	0	0	0
20.38689	-0.002444689	-0.0507273	0	0	0	0
20.40312	-0.002444689	-0.0507273	0	0	0	0
20.41969	-0.002444689	-0.0507273	0	0	0	0
20.43625	-0.002444689	-0.0507273	0	0	0	0
20.45282	-0.002444689	-0.0507273	0	0	0	0
20.46939	-0.002444689	-0.0507273	0	0	0	0
20.48595	-0.002444689	-0.0507273	0	0	0	0
20.50252	-0.002444689	-0.0507273	0	0	0	0
20.51924	-0.002444689	-0.0507273	0	0	0	0
20.53609	-0.002444689	-0.0507273	0	0	0	0
20.55222	-0.002444689	-0.0507273	0	0	0	0
20.56878	-0.002444689	-0.0507273	0	0	0	0
20.58542	-0.002444689	-0.0507273	0	0	0	0
20.60192	-0.002444689	-0.0507273	0	0	0	0
20.61883	-0.002444689	-0.0507273	0	0	0	0
20.63505	-0.002444689	-0.0507273	0	0	0	0
20.65162	-0.002444689	-0.0507273	0	0	0	0
20.66892	-0.002444689	-0.0507273	0	0	0	0
20.68483	-0.002444689	-0.0507273	0	0	0	0
20.70153	-0.002444689	-0.0507273	0	0	0	0
20.71797	-0.002444689	-0.0507273	0	0	0	0
20.73454	-0.002444689	-0.0507273	0	0	0	0
20.75102	-0.002444689	-0.0507273	0	0	0	0
20.76759	-0.002444689	-0.03850385	2.810414E-08	0.7377236	8.503383E-07	22.32108
20.78444	-0.006111723	-0.01650165	-0.2175113	1.305067	-6.506822	16.97201
20.80072	-0.01589048	0.01772399	-0.6009007	2.103152	-11.57138	24.08763
20.8176	-0.0330033	0.06906246	-1.013905	3.041716	-12.45805	28.31124
20.83411	-0.05378316	0.124068	-1.258476	3.331261	-7.324678	8.671613
20.85042	-0.07578536	0.1790735	-1.34918	3.37295	-2.76369	1.270217
20.86752	-0.09167584	0.2108544	-0.928887	1.857774	12.57804	-45.34439
20.88355	-0.1002322	0.2267449	-0.5339228	0.991571	11.92073	-26.14356
20.90011	-0.1038993	0.237746	-0.2213686	0.6641048	9.59024	-10.04779
20.91683	-0.106344	0.2450801	-0.1462648	0.4387954	2.256762	-6.770232
20.93325	-0.1075663	0.2487471	-0.07442379	0.2232709	2.167917	-6.503792
20.94987	-0.1075663	0.2511918	0	0.1471211	2.252468	-2.304708
20.96639	-0.1075663	0.2511918	0	0	0	-4.440123
20.98358	-0.1087887	0.2511918	-0.07108023	0	-2.108311	0
20.99952	-0.1087887	0.2511918	0	0	2.145452	0
21.01608	-0.1087887	0.2511918	0	0	0	0
21.03265	-0.1087887	0.2511918	0	0	0	0
21.04922	-0.1087887	0.2511918	0	0	0	0
21.06629	-0.1087887	0.2511918	0	0	0	0
21.08235	-0.1087887	0.2511918	0	0	0	0
21.09976	-0.1087887	0.2511918	0	0	0	0
21.1158	-0.1087887	0.2511918	0	0	0	0
21.13205	-0.1087887	0.2511918	0	0	0	0
21.14862	-0.1087887	0.2511918	0	0	0	0
21.16519	-0.1087887	0.2511918	0	0	0	0
21.18176	-0.1087887	0.2511918	0	0	0	0
21.19832	-0.1087887	0.2511918	0	0	0	0
21.21498	-0.1087887	0.2511918	0	0	0	0
21.23172	-0.1087887	0.2511918	0	0	0	0
21.24802	-0.1087887	0.2511918	0	0	0	0
21.26459	-0.1087887	0.2511918	0	0	0	0
21.28115	-0.1087887	0.2511918	0	0	0	0
21.29772	-0.1087887	0.2499694	4.497179E-07	-0.07378162	1.357251E-05	-2.226734
21.31454	-0.1038993	0.2255225	0.2906721	-1.453363	8.705836	-41.31952
21.33108	-0.09534287	0.1900746	0.5173594	-2.143346	6.79528	-20.68323
21.34742	-0.08189709	0.1399584	0.8226706	-3.066318	9.284861	-28.06863
21.36419	-0.06845129	0.09962107	0.8017137	-2.40514	-0.6328458	19.96589
21.38055	-0.05622784	0.07028481	0.7472723	-1.793453	-1.643328	18.46394
21.39712	-0.05378316	0.06539543	0.1475614	-0.2951233	-18.21465	45.50784
21.41369	-0.05378316	0.06539543	0	0	-4.453413	8.90684
21.43042	-0.05378316	0.06417309	0	-0.07304905	0	-2.193639
21.44682	-0.05378316	0.06417309	0	0	0	2.204498
21.46347	-0.05378316	0.06417309	0	0	0	0
21.48011	-0.05256081	0.06417309	0.07345957	0	2.206851	0
21.49665	-0.05256082	0.06295075	-2.251701E-07	-0.0738828	-2.213708	-2.226455
21.51309	-0.05256082	0.06295075	0	0	6.82748E-06	2.240233
21.52966	-0.05256082	0.06295075	0	0	0	0
21.54622	-0.05256082	0.06295075	0	0	0	0
21.56298	-0.05256081	0.0617284	2.222491E-07	-0.07292459	6.668719E-06	-2.188147
21.57973	-0.04767144	0.05928371	0.2920302	-0.1460153	8.716147	-2.181521
21.59593	-0.04278205	0.05561667	0.3017948	-0.2263459	0.2964019	-2.438417
21.61249	-0.03667033	0.05194964	0.368989	-0.2213934	2.050827	0.1511554
21.62925	-0.03178095	0.04828261	0.291665	-0.2187487	-2.320156	0.07935592
21.64562	-0.02811392	0.04706026	0.2239987	-0.07466636	-2.042171	4.348413
21.66219	-0.02322455	0.04461557	0.2951573	-0.1475787	2.160506	-2.213751
21.6788	-0.0220022	0.04339323	0.07357754	-0.07357765	-6.67845	2.230402
21.69539	-0.02077986	0.04339323	0.07367916	2.245487E-07	0.003060509	2.215992
21.71189	-0.01833517	0.04217089	0.1481758	-0.07408801	2.251424	-2.239081
21.72846	-0.01833517	0.04217089	0	0	-4.481241	2.240624
21.75398	-0.01711282	0.04217089	0.04789689	0	1.13803	0
21.77055	-0.01466813	0.04217089	0.1475108	0	2.366503	0
21.78712	-0.01344579	0.04094854	0.07378089	-0.07378118	-2.224788	-2.226336
21.80368	-0.01222344	0.03972619	0.07379783	-0.07379772	0.0005111633	-0.0004992444
21.82025	-0.0110011	0.0397262	0.07378939	2.248849E-07	-0.0002548092	2.227611
21.83682	-0.0110011	0.0397262	0	0	-2.226968	-6.787038E-06
21.85338	-0.0110011	0.0397262	0	0	0	0
21.86995	-0.0110011	0.0397262	0	0	0	0
21.88651	-0.0110011	0.0397262	0	0	0	0
21.90336	-0.0110011	0.0397262	0	0	0	0
21.91965	-0.0110011	0.0397262	0	0	0	0
21.93659	-0.0110011	0.0397262	0	0	0	0
21.95278	-0.0110011	0.0397262	0	0	0	0
21.96935	-0.0110011	0.0397262	0	0	0	0
21.98592	-0.0110011	0.0397262	0	0	0	0
22.00284	-0.0110011	0.0397262	0	0	0	0
22.01905	-0.0110011	0.0397262	0	0	0	0
22.03596	-0.0110011	0.0397262	0	0	0	0
22.05218	-0.0110011	0.0397262	0	0	0	0
22.06883	-0.0110011	0.0397262	0	0	0	0
22.08532	-0.0110011	0.0397262	0	0	0	0
22.10191	-0.0110011	0.0397262	0	0	0	0
22.11845	-0.0110011	0.0397262	0	0	0	0
22.13502	-0.0110011	0.0397262	0	0	0	0
22.15199	-0.0110011	0.0397262	0	0	0	0
22.1683	-0.0110011	0.0397262	0	0	0	0
22.18472	-0.0110011	0.0397262	0	0	0	0
22.20169	-0.0110011	0.0397262	0	0	0	0
22.21785	-0.0110011	0.0397262	0	0	0	0
22.23476	-0.0110011	0.0397262	0	0	0	0
22.25098	-0.0110011	0.0397262	0	0	0	0
22.26755	-0.0110011	0.0397262	0	0	0	0
22.28412	-0.0110011	0.0397262	0	0	0	0
22.30077	-0.0110011	0.0397262	0	0	0	0
22.31725	-0.0110011	0.0397262	0	0	0	0
22.33382	-0.0110011	0.0397262	0	0	0	0
22.35039	-0.0110011	0.0397262	0	0	0	0
22.36695	-0.0110011	0.0397262	0	0	0	0
22.38352	-0.0110011	0.0397262	0	0	0	0
22.40009	-0.0110011	0.0397262	0	0	0	0
22.42146	-0.0110011	0.0397262	0	0	0	0
22.43803	-0.0110011	0.0397262	0	0	0	0
22.4546	-0.0110011	0.0397262	0	0	0	0
22.47141	-0.0110011	0.0397262	0	0	0	0
22.48773	-0.0110011	0.0397262	0	0	0	0
22.50485	-0.0110011	0.0397262	0	0	0	0
22.52087	-0.0110011	0.0397262	0	0	0	0
22.53744	-0.0110011	0.0397262	0	0	0	0
22.554	-0.009778756	0.0397262	0.07378934	0	2.227095	0
22.57057	-0.004889378	0.03850385	0.2951234	-0.07378095	6.68026	-2.226841
22.58782	0.003667034	0.03728151	0.4959673	-0.07085255	5.938753	0.08658983
22.60433	0.007334067	0.03605916	0.2220584	-0.07401934	-8.112022	-0.09378685
22.62027	0.01222344	0.03483682	0.3068521	-0.07671311	2.613232	-0.0830186
22.63684	0.01344579	0.03483682	0.07378083	0	-7.171154	2.360315
22.6534	0.01466813	0.03483682	0.07378083	0	0	0
22.66998	0.01711282	0.03361448	0.1474939	-0.07374676	2.224152	-2.225169
22.68654	0.01711282	0.03361448	0	0	-4.451118	2.225554
22.7031	0.01833517	0.03361448	0.07379783	0	2.227864	0
22.71967	0.01833517	0.03361448	0	0	-2.227479	0
22.73624	0.01833517	0.03361448	0	0	0	0
22.75281	0.01833517	0.03361448	0	0	0	0
22.76937	0.01833517	0.03361448	0	0	0	0
22.78594	0.01833517	0.03361448	0	0	0	0
22.8025	0.01833517	0.03361448	0	0	0	0
22.81944	0.01833517	0.03361448	0	0	0	0
22.83564	0.01833517	0.03361448	0	0	0	0
22.8522	0.01833517	0.03361448	0	0	0	0
22.86877	0.01833517	0.03361448	0	0	0	0
22.88534	0.01833517	0.03361448	0	0	0	0
22.9019	0.01833517	0.03361448	0	0	0	0
22.91847	0.01833517	0.03361448	0	0	0	0
22.93513	0.01833517	0.03361448	0	0	0	0
22.95161	0.01833517	0.03361448	0	0	0	0
22.96817	0.01833517	0.03361448	0	0	0	0
22.98493	0.01833517	0.03361448	0	0	0	0
23.0013	0.01955751	0.03361447	0.07467483	-2.275839E-07	2.253821	-6.868891E-06
23.01801	0.01955751	0.03361447	0	0	-2.25785	6.881171E-06
23.0349	0.01955751	0.03361447	0	0	0	0
23.051	0.01955751	0.03361447	0	0	0	0
23.06757	0.01955751	0.03361447	0	0	0	0
23.08583	0.01955751	0.03361447	0	0	0	0
23.1024	0.02077985	0.03239213	0.07377234	-0.07377245	2.117831	-2.117835
23.1192	0.02077985	0.03239213	0	0	-2.211179	2.211183
23.13554	0.02077985	0.03239213	0	0	0	0
23.15211	0.02077986	0.03116978	1.124295E-07	-0.07378072	3.416334E-06	-2.241935
23.16941	0.02077986	0.03116978	0	0	-3.31956E-06	2.178428
23.18536	0.02077986	0.03116978	0	0	0	0
23.20181	0.0220022	0.03116978	0.0743285	0	2.294215	0
23.2228	0.0220022	0.03116978	0	0	-1.985507	0
23.23944	0.0220022	0.03116978	0	0	0	0
23.25593	0.0220022	0.03116978	0	0	0	0
23.2725	0.0220022	0.03116978	0	0	0	0
23.28906	0.0220022	0.03116978	0	0	0	0
23.30572	0.0220022	0.03116978	0	0	0	0
23.32274	0.0220022	0.03116978	0	0	0	0
23.3388	0.0220022	0.03116978	0	0	0	0
23.35543	0.0220022	0.03116978	0	0	0	0
23.42347	0.0220022	0.03116978	0	0	0	0
23.44005	0.0220022	0.03116978	0	0	0	0
23.45661	0.0220022	0.03116978	0	0	0	0
23.47318	0.0220022	0.03116978	0	0	0	0
23.49011	0.0220022	0.03116978	0	0	0	0
23.50632	0.0220022	0.03116978	0	0	0	0
23.52288	0.0220022	0.03116978	0	0	0	0
23.53945	0.0220022	0.03116978	0	0	0	0
23.55601	0.0220022	0.03116978	0	0	0	0
23.57258	0.0220022	0.03116978	0	0	0	0
23.58959	0.0220022	0.03116978	0	0	0	0
23.60603	0.0220022	0.03116978	0	0	0	0
23.62281	0.0220022	0.03116978	0	0	0	0
23.63891	0.0220022	0.03116978	0	0	0	0
23.65544	0.0220022	0.03116978	0	0	0	0
23.67201	0.0220022	0.03116978	0	0	0	0
23.68855	0.0220022	0.03116978	0	0	0	0
23.70512	0.0220022	0.03116978	0	0	0	0
23.72168	0.0220022	0.03116978	0	0	0	0
23.73828	0.0220022	0.03116978	0	0	0	0
23.76303	0.0220022	0.03116978	0	0	0	0
23.7796	0.0220022	0.03116978	0	0	0	0
23.79618	0.0220022	0.03116978	0	0	0	0
23.81273	0.0220022	0.03116978	0	0	0	0
23.8293	0.0220022	0.03116978	0	0	0	0
23.84586	0.0220022	0.03116978	0	0	0	0
23.86243	0.0220022	0.03116978	0	0	0	0
23.879	0.0220022	0.03116978	0	0	0	0
23.89556	0.0220022	0.03116978	0	0	0	0
23.91213	0.0220022	0.03116978	0	0	0	0
23.92887	0.0220022	0.03116978	0	0	0	0
23.94553	0.0220022	0.03116978	0	0	0	0
23.96239	0.0220022	0.03116978	0	0	0	0
23.97842	0.0220022	0.03116978	0	0	0	0
23.99496	0.0220022	0.03116978	0	0	0	0
24.01153	0.0220022	0.03116978	0	0	0	0
24.02868	0.0220022	0.03116978	0	0	0	0
24.04466	0.0220022	0.03116978	0	0	0	0
24.06138	0.0220022	0.03116978	0	0	0	0
24.0778	0.0220022	0.03116978	0	0	0	0
24.09464	0.0220022	0.03116978	0	0	0	0
24.11093	0.0220022	0.03116978	0	0	0	0
24.1275	0.0220022	0.03116978	0	0	0	0
24.14407	0.0220022	0.03116978	0	0	0	0
24.16063	0.0220022	0.03116978	0	0	0	0
24.1772	0.0220022	0.03116978	0	0	0	0
24.19377	0.0220022	0.03116978	0	0	0	0
24.21033	0.0220022	0.03116978	0	0	0	0
24.22696	0.0220022	0.03116978	0	0	0	0
24.24352	0.0220022	0.03116978	0	0	0	0
24.26004	0.0220022	0.03116978	0	0	0	0
24.2766	0.0220022	0.03116978	0	0	0	0
24.29317	0.0220022	0.03116978	0	0	0	0
24.3098	0.0220022	0.03116978	0	0	0	0
24.32631	0.0220022	0.03116978	0	0	0	0
24.3432	0.0220022	0.03116978	0	0	0	0
24.35943	0.0220022	0.03116978	0	0	0	0
24.376	0.0220022	0.03116978	0	0	0	0
24.39257	0.0220022	0.03116978	0	0	0	0
24.40933	0.0220022	0.03116978	0	0	0	0
24.4257	0.0220022	0.03116978	0	0	0	0
24.44228	0.0220022	0.03116978	0	0	0	0
24.45883	0.0220022	0.03116978	0	0	0	0
24.4754	0.0220022	0.03116978	0	0	0	0
24.49197	0.0220022	0.03116978	0	0	0	0
24.50853	0.0220022	0.03116978	0	0	0	0
24.52513	0.0220022	0.03116978	0	0	0	0
24.54167	0.0220022	0.03116978	0	0	0	0
24.55824	0.0220022	0.03116978	0	0	0	0
24.5748	0.0220022	0.03116978	0	0	0	0
24.59137	0.0220022	0.03116978	0	0	0	0
24.60793	0.0220022	0.03116978	0	0	0	0
24.62473	0.0220022	0.03116978	0	0	0	0
24.64182	0.0220022	0.03116978	0	0	0	0
24.65763	0.0220022	0.03116978	0	0	0	0
24.6742	0.0220022	0.03116978	0	0	0	0
24.69077	0.0220022	0.03116978	0	0	0	0
24.70818	0.0220022	0.03116978	0	0	0	0
24.7239	0.0220022	0.03116978	0	0	0	0
24.74047	0.0220022	0.03116978	0	0	0	0
24.75707	0.0220022	0.03116978	0	0	0	0
24.77432	0.0220022	0.03116978	0	0	0	0
24.79016	0.0220022	0.03116978	0	0	0	0
24.80741	0.0220022	0.03116978	0	0	0	0
24.8233	0.0220022	0.03116978	0	0	0	0
24.8405	0.0220022	0.03116978	0	0	0	0
24.85643	0.0220022	0.03116978	0	0	0	0
24.873	0.0220022	0.03116978	0	0	0	0
24.88956	0.0220022	0.03116978	0	0	0	0
24.90613	0.0220022	0.03116978	0	0	0	0
24.92281	0.0220022	0.03116978	0	0	0	0
24.93935	0.0220022	0.03116978	0	0	0	0
24.95583	0.0220022	0.03116978	0	0	0	0
24.9724	0.0220022	0.03116978	0	0	0	0
24.98922	0.0220022	0.03116978	0	0	0	0
25.00553	0.0220022	0.03116978	0	0	0	0
25.0221	0.0220022	0.03116978	0	0	0	0
25.03867	0.0220022	0.03116978	0	0	0	0
25.05553	0.0220022	0.03116978	0	0	0	0
25.0718	0.0220022	0.03116978	0	0	0	0
25.09035	0.0220022	0.03116978	0	0	0	0
25.10692	0.0220022	0.03116978	0	0	0	0
25.12401	0.0220022	0.03116978	0	0	0	0
25.14005	0.0220022	0.03116978	0	0	0	0
25.15662	0.0220022	0.03116978	0	0	0	0
25.17319	0.0220022	0.03116978	0	0	0	0
25.18976	0.0220022	0.03116978	0	0	0	0
25.20632	0.0220022	0.03116978	0	0	0	0
25.22289	0.0220022	0.03116978	0	0	0	0
25.23946	0.0220022	0.03116978	0	0	0	0
25.25602	0.02077985	0.03239213	-0.07378095	0.07378072	-2.226841	2.226835
25.27271	0.009778756	0.05194964	-0.6593968	1.172261	-17.61208	33.03621
25.28925	-0.004889378	0.08495294	-0.8866974	1.995069	-6.841043	24.76396
25.30572	-0.03055861	0.1362914	-1.558369	3.116737	-20.34486	33.97523
25.32229	-0.05745019	0.1839628	-1.623179	2.877453	-1.961624	-7.242466
25.33886	-0.07945239	0.2230779	-1.328055	2.360988	8.906847	-15.58695
25.35542	-0.1051216	0.2683046	-1.54922	2.729578	-6.67438	11.12344
25.37236	-0.1173451	0.2927515	-0.7216893	1.443379	24.69769	-38.38668
25.38856	-0.1246791	0.308642	-0.4528522	0.9811804	8.113989	-13.94997
25.40512	-0.1271238	0.3147537	-0.147561	0.3689018	9.318303	-18.68838
25.42186	-0.1295685	0.3196431	-0.146099	0.292198	0.04390331	-2.30339
25.43826	-0.1295685	0.3220878	0	0.1490717	4.409531	-4.319808
25.45482	-0.1295685	0.3233101	8.994359E-07	0.07378072	2.728323E-05	-2.283856
25.47213	-0.1295685	0.3233101	0	0	-2.655349E-05	-2.178183
25.48833	-0.1295685	0.3233101	0	0	0	0
25.50452	-0.1295685	0.3233101	0	0	0	0
25.52109	-0.1295685	0.3233101	0	0	0	0
25.53766	-0.1295685	0.3233101	0	0	0	0
25.55422	-0.1295685	0.3233101	0	0	0	0
25.57086	-0.1295685	0.3233101	0	0	0	0
25.58736	-0.1295685	0.3233101	0	0	0	0
25.60423	-0.1295685	0.3233101	0	0	0	0
25.62049	-0.1295685	0.3233101	0	0	0	0
25.63706	-0.1295685	0.3233101	0	0	0	0
25.65362	-0.1295685	0.3233101	0	0	0	0
25.67037	-0.1246791	0.3110867	0.2919956	-0.7299913	8.766023	-21.91512
25.68676	-0.1124557	0.2878621	0.7457947	-1.417009	13.69568	-20.73424
25.70332	-0.09412052	0.2524141	1.10684	-2.139891	10.95566	-21.93531
25.71989	-0.07578535	0.2230779	1.10684	-1.770944	1.079447E-05	11.13612
25.73646	-0.04889378	0.1839628	1.622992	-2.360717	15.57748	-17.79938
25.75303	-0.04278206	0.1717394	0.3689043	-0.7378082	-37.84626	48.97666
25.77032	-0.03055861	0.1472925	0.7065717	-1.413143	9.97043	-19.94085
25.78617	-0.01955751	0.1301797	0.6944072	-1.080191	-0.3670418	10.0462
25.80273	-0.01222344	0.1118445	0.442889	-1.107222	-7.762419	-0.8342543
25.81929	0	0.08861998	0.7378086	-1.401836	8.902741	-8.893515
25.83586	0.006111722	0.07639652	0.3689043	-0.7378091	-11.13355	20.04037
25.85263	0.009778757	0.06906246	0.2186491	-0.4372979	-4.506949	9.013926
25.86899	0.01344579	0.06417309	0.2241816	-0.2989087	0.1669974	4.177314
25.88556	0.01466813	0.05928371	0.07377234	-0.2950894	-4.568021	0.1159968
25.90213	0.01589048	0.05683902	0.07378095	-0.1475619	0.0002596971	4.452132
25.91869	0.01955751	0.0507273	0.2213681	-0.3689468	4.454445	-6.681793
25.93526	0.0220022	0.04461557	0.1475447	-0.3688618	-2.227995	0.002563392
25.95183	0.02444689	0.0397262	0.1475617	-0.2951233	0.000512649	2.225304
25.96894	0.02566924	0.03605916	0.071437	-0.214311	-2.260364	2.399555
25.98496	0.02811392	0.03239213	0.1525858	-0.2288786	2.449217	-0.4396759
26.00153	0.03055861	0.0287251	0.1475617	-0.2213426	-0.1541668	0.2312429
26.0181	0.03178096	0.02505806	0.07378095	-0.2213425	-2.226707	3.148026E-06
26.03466	0.03422565	0.02016869	0.1475617	-0.2951233	2.226707	-2.22671
26.05123	0.03667034	0.01527931	0.1475789	-0.2951575	0.0005199038	-0.001030813
26.06779	0.03911502	0.01038993	0.1475614	-0.2951235	-0.00052665	0.001027215
26.08436	0.04033737	0.00794524	0.07378095	-0.1475617	-2.2267	4.453422
26.10093	0.04155971	0.006722894	0.07378095	-0.07378089	0	2.22671
26.11754	0.04278206	0.00550055	0.07359432	-0.07359444	-0.005625144	0.005620203
26.13406	0.04278206	0.00550055	0	0	-2.221081	2.221085
26.15063	0.04278206	0.004278206	0	-0.07378086	0	-2.229534
26.1672	0.04278206	0.004278206	0	0	0	2.226711
26.18432	0.04278206	0.004278206	0	0	0	0
26.20033	0.04278206	0.004278206	0	0	0	0
26.2169	0.04278206	0.004278206	0	0	0	0
26.23355	0.04278206	0.004278206	0	0	0	0
26.25003	0.04278206	0.004278206	0	0	0	0
26.2666	0.04278206	0.004278206	0	0	0	0
26.28317	0.04278206	0.004278206	0	0	0	0
26.30022	0.04278206	0.004278206	0	0	0	0
26.31631	0.04278206	0.004278206	0	0	0	0
26.33292	0.04278206	0.004278206	0	0	0	0
26.34948	0.04278206	0.004278206	0	0	0	0
26.366	0.04278206	0.004278206	0	0	0	0
26.39062	0.04278206	0.004278206	0	0	0	0
26.40719	0.04278206	0.004278206	0	0	0	0
26.42404	0.04278206	0.004278206	0	0	0	0
26.44032	0.04278206	0.004278206	0	0	0	0
26.45689	0.04278206	0.004278206	0	0	0	0
26.47346	0.04278206	0.004278206	0	0	0	0
26.49005	0.04278206	0.004278206	0	0	0	0
26.50659	0.04278206	0.004278206	0	0	0	0
26.52335	0.04278206	0.004278206	0	0	0	0
26.53975	0.04278206	0.004278206	0	0	0	0
26.55646	0.04278206	0.004278206	0	0	0	0
26.57286	0.04155971	0.004278206	-0.07451853	0	-2.250658	0
26.58943	0.04155971	0.004278206	0	0	2.260163	0
26.60599	0.04155971	0.004278206	0	0	0	0
26.62256	0.04155971	0.004278206	0	0	0	0
26.63965	0.04155971	0.004278206	0	0	0	0
26.65569	0.04155971	0.004278206	0	0	0	0
26.67226	0.04155971	0.004278206	0	0	0	0
26.68897	0.04155971	0.004278206	0	0	0	0
26.70539	0.04155971	0.004278206	0	0	0	0
26.72207	0.04155971	0.004278206	0	0	0	0
26.73853	0.04155971	0.004278206	0	0	0	0
26.75509	0.04155971	0.004278206	0	0	0	0
26.77192	0.04155971	0.004278206	0	0	0	0
26.78823	0.04155971	0.004278206	0	0	0	0
26.80479	0.04155971	0.004278206	0	0	0	0
26.82184	0.04155971	0.004278206	0	0	0	0
26.83792	0.04155971	0.004278206	0	0	0	0
26.85449	0.04155971	0.004278206	0	0	0	0
26.87106	0.04155971	0.004278206	0	0	0	0
26.88762	0.04155971	0.004278206	0	0	0	0
26.90419	0.04155971	0.004278206	0	0	0	0
26.92091	0.04155971	0.004278206	0	0	0	0
26.93733	0.04155971	0.004278206	0	0	0	0
26.95389	0.04155971	0.004278206	0	0	0	0
26.97046	0.04155971	0.004278206	0	0	0	0
26.98714	0.04155971	0.004278206	0	0	0	0
27.00407	0.04155971	0.004278206	0	0	0	0
27.02051	0.04155971	0.004278206	0	0	0	0
27.03673	0.04155971	0.004278206	0	0	0	0
27.0596	0.04155971	0.004278206	0	0	0	0
27.07621	0.04155971	0.004278206	0	0	0	0
27.09308	0.04155971	0.004278206	0	0	0	0
27.10977	0.04155971	0.004278206	0	0	0	0
27.12593	0.04155971	0.004278206	0	0	0	0
27.14244	0.04155971	0.004278206	0	0	0	0
27.159	0.04155971	0.004278206	0	0	0	0
27.17557	0.04155971	0.004278206	0	0	0	0
27.19213	0.04155971	0.004278206	0	0	0	0
27.20892	0.04155971	0.004278206	0	0	0	0
27.22527	0.04155971	0.004278206	0	0	0	0
27.24203	0.04155971	0.004278206	0	0	0	0
27.25859	0.04155971	0.004278206	0	0	0	0
27.27518	0.04155971	0.004278206	0	0	0	0
27.29174	0.04155971	0.004278206	0	0	0	0
27.30835	0.04155971	0.004278206	0	0	0	0
27.32476	0.04155971	0.004278206	0	0	0	0
27.34192	0.04155971	0.004278206	0	0	0	0
27.3578	0.04155971	0.004278206	0	0	0	0
27.37487	0.04155971	0.004278206	0	0	0	0
27.39093	0.04155971	0.004278206	0	0	0	0
27.4075	0.04155971	0.004278206	0	0	0	0
27.42407	0.04155971	0.004278206	0	0	0	0
27.44063	0.04155971	0.004278206	0	0	0	0
27.45726	0.04155971	0.004278206	0	0	0	0
27.4739	0.04155971	0.004278206	0	0	0	0
27.49033	0.04155971	0.004278206	0	0	0	0
27.5069	0.04155971	0.004278206	0	0	0	0
27.52347	0.04155971	0.004278206	0	0	0	0
27.54004	0.04155971	0.004278206	0	0	0	0
27.5566	0.04155971	0.004278206	0	0	0	0
27.5733	0.04155971	0.004278206	0	0	0	0
27.58985	0.04155971	0.004278206	0	0	0	0
27.60648	0.04155971	0.004278206	0	0	0	0
27.6231	0.04155971	0.004278206	0	0	0	0
27.63944	0.04155971	0.004278206	0	0	0	0
27.65674	0.04155971	0.004278206	0	0	0	0
27.67327	0.04155971	0.004278206	0	0	0	0
27.68914	0.04155971	0.004278206	0	0	0	0
27.70588	0.04155971	0.004278206	0	0	0	0
27.74459	0.04155971	0.004278206	0	0	0	0
27.76116	0.04155971	0.004278206	0	0	0	0
27.77773	0.04155971	0.004278206	0	0	0	0
27.7949	0.04155971	0.004278206	0	0	0	0
27.81087	0.04155971	0.004278206	0	0	0	0
27.82743	0.04155971	0.004278206	0	0	0	0
27.844	0.04155971	0.004278206	0	0	0	0
27.86057	0.04155971	0.004278206	0	0	0	0
27.87713	0.04155971	0.004278206	0	0	0	0
27.89395	0.04155971	0.004278206	0	0	0	0
27.91055	0.04155971	0.004278206	0	0	0	0
27.92705	0.04155971	0.004278206	0	0	0	0
27.94366	0.04155971	0.004278206	0	0	0	0
27.95996	0.04155971	0.004278206	0	0	0	0
27.97653	0.04155971	0.004278206	0	0	0	0
27.99359	0.04155971	0.004278206	0	0	0	0
28.00967	0.04155971	0.004278206	0	0	0	0
28.02624	0.04155971	0.004278206	0	0	0	0
28.0428	0.04155971	0.004278206	0	0	0	0
28.05937	0.04155971	0.004278206	0	0	0	0
28.07594	0.04155971	0.004278206	0	0	0	0
28.09256	0.04155971	0.004278206	0	0	0	0
28.10908	0.04155971	0.004278206	0	0	0	0
28.12564	0.04155971	0.004278206	0	0	0	0
28.14221	0.04155971	0.004278206	0	0	0	0
28.15917	0.04155971	0.004278206	0	0	0	0
28.17534	0.04155971	0.004278206	0	0	0	0
28.19191	0.04155971	0.004278206	0	0	0	0
28.20847	0.04155971	0.004278206	0	0	0	0
28.22504	0.04155971	0.004278206	0	0	0	0
28.24186	0.04155971	0.004278206	0	0	0	0
28.25817	0.04155971	0.004278206	0	0	0	0
28.2748	0.04155971	0.004278206	0	0	0	0
28.29132	0.04155971	0.004278206	0	0	0	0
28.30787	0.04155971	0.004278206	0	0	0	0
28.32444	0.04155971	0.004278206	0	0	0	0
28.341	0.04155971	0.004278206	0	0	0	0
28.35757	0.04155971	0.004278206	0	0	0	0
28.37448	0.04155971	0.004278206	0	0	0	0
28.39071	0.04155971	0.004278206	0	0	0	0
28.40732	0.04155971	0.004278206	0	0	0	0
28.42411	0.04155971	0.004278206	0	0	0	0
28.4404	0.04155971	0.004278206	0	0	0	0
28.45697	0.04155971	0.004278206	0	0	0	0
28.47354	0.04155971	0.004278206	0	0	0	0
28.49012	0.04155971	0.004278206	0	0	0	0
28.50677	0.04155971	0.004278206	0	0	0	0
28.5237	0.04155971	0.004278206	0	0	0	0
28.5398	0.04155971	0.004278206	0	0	0	0
28.55637	0.04155971	0.004278206	0	0	0	0
28.57294	0.04155971	0.004278206	0	0	0	0
28.58951	0.04155971	0.004278206	0	0	0	0
28.60607	0.04155971	0.004278206	0	0	0	0
28.62264	0.04155971	0.004278206	0	0	0	0
28.63925	0.04155971	0.004278206	0	0	0	0
28.65585	0.04155971	0.004278206	0	0	0	0
28.67234	0.04155971	0.004278206	0	0	0	0
28.68945	0.04155971	0.004278206	0	0	0	0
28.70547	0.04155971	0.004278206	0	0	0	0
28.72204	0.04155971	0.004278206	0	0	0	0
28.73861	0.04155971	0.004278206	0	0	0	0
28.75517	0.04155971	0.004278206	0	0	0	0
28.77174	0.04155971	0.004278206	0	0	0	0
28.78831	0.04155971	0.004278206	0	0	0	0
28.80487	0.04155971	0.004278206	0	0	0	0
28.82195	0.04155971	0.004278206	0	0	0	0
28.83801	0.04155971	0.004278206	0	0	0	0
28.85457	0.04155971	0.004278206	0	0	0	0
28.87114	0.04155971	0.004278206	0	0	0	0
28.88782	0.04155971	0.004278206	0	0	0	0
28.90427	0.04155971	0.004278206	0	0	0	0
28.92084	0.04155971	0.004278206	0	0	0	0
28.93767	0.04155971	0.004278206	0	0	0	0
28.95397	0.04155971	0.004278206	0	0	0	0
28.97095	0.04155971	0.004278206	0	0	0	0
28.98711	0.04155971	0.004278206	0	0	0	0
29.00367	0.04155971	0.004278206	0	0	0	0
29.02024	0.04155971	0.004278206	0	0	0	0
29.03928	0.04155971	0.004278206	0	0	0	0
29.05589	0.04155971	0.004278206	0	0	0	0
29.07242	0.04155971	0.004278206	0	0	0	0
29.08899	0.04155971	0.004278206	0	0	0	0
29.10555	0.04155971	0.004278206	0	0	0	0
29.1222	0.04155971	0.004278206	0	0	0	0
29.1389	0.04155971	0.004278206	0	0	0	0
29.15525	0.04155971	0.004278206	0	0	0	0
29.17252	0.04155971	0.004278206	0	0	0	0
29.18855	0.04155971	0.004278206	0	0	0	0
29.20495	0.04155971	0.004278206	0	0	0	0
29.22152	0.04155971	0.004278206	0	0	0	0
29.23808	0.04155971	0.004278206	0	0	0	0
29.25465	0.04155971	0.004278206	0	0	0	0
29.27181	0.04155971	0.004278206	0	0	0	0
29.28823	0.04155971	0.004278206	0	0	0	0
29.30435	0.04155971	0.004278206	0	0	0	0
29.32108	0.04155971	0.004278206	0	0	0	0
29.33749	0.04155971	0.004278206	0	0	0	0
29.35408	0.04155971	0.004278206	0	0	0	0
29.37062	0.04155971	0.004278206	0	0	0	0
29.38719	0.04155971	0.004278206	0	0	0	0
29.40449	0.04155971	0.004278206	0	0	0	0
29.42032	0.04155971	0.004278206	0	0	0	0
29.43689	0.04155971	0.004278206	0	0	0	0
29.45345	0.04155971	0.004278206	0	0	0	0
29.47002	0.04155971	0.004278206	0	0	0	0
29.48659	0.04155971	0.004278206	0	0	0	0
29.50336	0.04155971	0.004278206	0	0	0	0
29.51972	0.04155971	0.004278206	0	0	0	0
29.53629	0.04155971	0.004278206	0	0	0	0
29.55285	0.04155971	0.004278206	0	0	0	0
29.56942	0.04155971	0.004278206	0	0	0	0
29.58646	0.04155971	0.004278206	0	0	0	0
29.60292	0.04155971	0.004278206	0	0	0	0
29.61938	0.04155971	0.004278206	0	0	0	0
29.63569	0.04155971	0.004278206	0	0	0	0
29.65225	0.04155971	0.004278206	0	0	0	0
29.66965	0.04155971	0.004278206	0	0	0	0
29.68538	0.04155971	0.004278206	0	0	0	0
29.70849	0.04155971	0.004278206	0	0	0	0
29.72506	0.04155971	0.004278206	0	0	0	0
29.74179	0.04155971	0.004278206	0	0	0	0
29.7582	0.04155971	0.004278206	0	0	0	0
29.77476	0.04155971	0.004278206	0	0	0	0
29.79184	0.04155971	0.004278206	0	0	0	0
29.8079	0.04155971	0.004278206	0	0	0	0
29.82446	0.04155971	0.004278206	0	0	0	0
29.84103	0.04155971	0.004278206	0	0	0	0
29.85782	0.04155971	0.004278206	0	0	0	0
29.87436	0.04155971	0.004278206	0	0	0	0
29.89073	0.04155971	0.004278206	0	0	0	0
29.9073	0.04155971	0.004278206	0	0	0	0
29.92386	0.04155971	0.004278206	0	0	0	0
29.94042	0.04155971	0.004278206	0	0	0	0
29.95699	0.04155971	0.004278206	0	0	0	0
29.97356	0.04155971	0.004278206	0	0	0	0
29.99013	0.04155971	0.004278206	0	0	0	0
30.00669	0.04155971	0.004278206	0	0	0	0
30.02326	0.04155971	0.004278206	0	0	0	0
30.03983	0.04155971	0.004278206	0	0	0	0
30.05639	0.04155971	0.004278206	0	0	0	0
30.07296	0.04155971	0.004278206	0	0	0	0
30.08989	0.04155971	0.004278206	0	0	0	0
30.10614	0.04155971	0.004278206	0	0	0	0
30.12266	0.04155971	0.004278206	0	0	0	0
30.13923	0.04155971	0.004278206	0	0	0	0
30.15579	0.04155971	0.001833517	0	-0.1475957	0	-4.454447
30.17236	0.03911502	-0.001833517	-0.1475619	-0.2213426	-4.453939	-2.225942
30.22901	0.03667033	-0.006722894	-0.04315268	-0.08630536	1.425979	1.844285
30.24574	-0.007334067	-0.1081775	-2.631271	-6.06654	-35.27214	-81.50156
30.26231	-0.01589048	-0.1326244	-0.516169	-1.474769	63.51581	137.8894
30.27872	-0.03055861	-0.1717394	-0.8942239	-2.384597	-11.46317	-27.58728
30.29528	-0.03789268	-0.194964	-0.4426344	-1.401676	13.69601	29.81046
30.31185	-0.0440044	-0.2096321	-0.3689468	-0.8854706	2.223897	15.57911
30.32842	-0.04889378	-0.2218555	-0.2951233	-0.7378091	2.228124	4.456691
30.34498	-0.05256081	-0.2316343	-0.2213681	-0.5903156	2.226066	4.451618
30.36155	-0.0550055	-0.2353013	-0.1475617	-0.2213413	2.227611	11.13631
30.37811	-0.05745019	-0.241413	-0.1475787	-0.368947	-0.0005131577	-4.455006
30.39468	-0.06233957	-0.2487471	-0.2951236	-0.4426861	-4.45317	-2.22558
30.41263	-0.07089598	-0.2646376	-0.4766789	-0.8852606	-5.259839	-12.82182
30.4292	-0.09045348	-0.2964185	-1.180357	-1.918082	-20.38513	-29.92019
30.44577	-0.09045348	-0.2964185	0	0	35.6212	57.88449
30.46234	-0.1002323	-0.312309	-0.5902476	-0.9591512	-17.81371	-28.94724
30.4789	-0.106344	-0.3233101	-0.368947	-0.6641048	6.679249	8.905032
30.49557	-0.1087887	-0.3306442	-0.1466829	-0.4400499	6.68831	6.742195
30.51204	-0.1112334	-0.3330889	-0.1484511	-0.1484502	-0.05336488	8.800498
30.52881	-0.1112334	-0.3330889	0	0	4.466123	4.466095
30.54517	-0.1112334	-0.3330889	0	0	0	0
30.56189	-0.1112334	-0.3330889	0	0	0	0
30.5783	-0.1112334	-0.3330889	0	0	0	0
30.59487	-0.1112334	-0.3330889	0	0	0	0
30.61144	-0.1112334	-0.3330889	0	0	0	0
30.628	-0.1112334	-0.3330889	0	0	0	0
30.64457	-0.1112334	-0.3330889	0	0	0	0
30.66122	-0.1112334	-0.3330889	0	0	0	0
30.67779	-0.1112334	-0.3330889	0	0	0	0
30.69427	-0.1112334	-0.3330889	0	0	0	0
30.71084	-0.106344	-0.3269772	0.2951243	0.3689036	8.931546	11.16438
30.72741	-0.09289819	-0.3074196	0.811495	1.180359	15.5832	24.48837
30.74397	-0.06845129	-0.2585258	1.475618	2.951234	20.04211	53.44204
30.76054	-0.04767143	-0.2084097	1.254419	3.025363	-6.676167	2.23735
30.77711	-0.0330033	-0.1717394	0.8853703	2.213425	-11.13856	-24.50575
30.79367	-0.02322455	-0.1460702	0.5902468	1.549398	-8.906843	-20.04039
30.81102	-0.01711283	-0.124068	0.3523534	1.268472	-7.014885	-8.283809
30.82681	-0.009778756	-0.1020658	0.4645602	1.393681	3.386602	3.779028
30.84352	-0.007334067	-0.09106466	0.1462818	0.6582682	-9.793388	-22.62856
30.85993	-0.006111722	-0.08617529	0.07445807	0.2978322	-2.168018	-10.87986
30.8765	-0.006111722	-0.08617529	0	0	-2.257545	-9.030177
30.89319	-0.006111722	-0.08617529	0	0	0	0
30.90964	-0.006111722	-0.08617529	0	0	0	0
30.92631	-0.006111722	-0.08617529	0	0	0	0
30.94277	-0.006111722	-0.08617529	0	0	0	0
30.95933	-0.006111722	-0.08617529	0	0	0	0
30.9759	-0.006111722	-0.08617529	0	0	0	0
30.99247	-0.006111722	-0.08617529	0	0	0	0
31.00903	-0.006111722	-0.08617529	0	0	0	0
31.02564	-0.006111722	-0.08617529	0	0	0	0
31.04216	-0.006111722	-0.08617529	0	0	0	0
31.05914	-0.006111722	-0.08617529	0	0	0	0
31.0754	-0.006111722	-0.08617529	0	0	0	0
31.09187	-0.006111722	-0.08617529	0	0	0	0
31.10843	-0.006111722	-0.08617529	0	0	0	0
31.125	-0.006111722	-0.08617529	0	0	0	0
31.14157	-0.004889378	-0.08373059	0.07378936	0.1475789	2.227095	4.454196
31.1584	-0.003667034	-0.07884122	0.07261875	0.290475	-0.03505051	4.278623
31.1747	-0.002444689	-0.07395184	0.074972	0.2998879	0.07101717	0.284066
31.19127	-0.002444689	-0.07028481	-2.811061E-08	0.2213677	-2.280911	-2.388859
31.20784	-0.001222344	-0.06906246	0.07378087	0.07378118	2.22684	-4.454425
31.2244	0	-0.06784012	0.07378086	0.07378072	-4.497179E-07	-1.37164E-05
31.24097	0	-0.06661777	0	0.07377268	-2.226583	-0.0002426089
31.25754	0	-0.06661777	0	0	0	-2.226208
31.27411	0	-0.06539543	0	0.07378072	0	2.226578
31.29067	0	-0.06539543	0	0	0	-2.226835
31.30725	0	-0.06539543	0	0	0	0
31.32393	0	-0.06539543	0	0	0	0
31.34037	0	-0.06539543	0	0	0	0
31.35694	0	-0.06539543	0	0	0	0
31.37351	0	-0.06539543	0	0	0	0
31.39007	0	-0.06539543	0	0	0	0
31.40664	0	-0.06539543	0	0	0	0
31.42327	0	-0.06539543	0	0	0	0
31.43977	0	-0.06539543	0	0	0	0
31.45634	0	-0.06539543	0	0	0	0
31.47291	0	-0.06539543	0	0	0	0
31.48948	0	-0.06539543	0	0	0	0
31.5061	0	-0.06539543	0	0	0	0
31.52261	0	-0.06539543	0	0	0	0
31.53918	0	-0.06539543	0	0	0	0
31.55574	0	-0.06539543	0	0	0	0
31.57233	0	-0.06539543	0	0	0	0
31.58888	0	-0.06539543	0	0	0	0
31.60544	0	-0.06539543	0	0	0	0
31.62236	0	-0.06539543	0	0	0	0
31.63951	0.001222344	-0.06417309	0.07130973	0.0713096	2.093562	2.093558
31.6554	0.001222344	-0.06417309	0	0	-2.158344	-2.15834
31.67171	0.001222344	-0.06417309	0	0	0	0
31.689	0.001222344	-0.06417309	0	0	0	0
31.71224	0.001222344	-0.06417309	0	0	0	0
31.72882	0.001222344	-0.06417309	0	0	0	0
31.74538	0.001222344	-0.06417309	0	0	0	0
31.76195	0.001222344	-0.06417309	0	0	0	0
31.77851	0.001222344	-0.06295074	0	0.07378967	0	2.227105
31.79577	0.001222344	-0.06295074	0	0	0	-2.181641
31.81165	0.001222344	-0.06295074	0	0	0	0
31.82821	0.001222344	-0.06295074	0	0	0	0
31.84478	0.001222344	-0.06295074	0	0	0	0
31.86135	0.001222344	-0.06295074	0	0	0	0
31.87791	0.001222344	-0.06295074	0	0	0	0
31.89448	0.002444689	-0.0617284	0.07378086	0.07378072	2.226711	2.226707
31.91105	0.002444689	-0.0617284	0	0	-2.226711	-2.226707
31.92761	0.002444689	-0.0617284	0	0	0	0
31.94418	0.002444689	-0.0617284	0	0	0	0
31.96076	0.002444689	-0.05928371	1.404722E-08	0.1474935	4.238482E-07	4.450339
31.97731	0.003667034	-0.05806137	0.07382336	0.07382344	2.228121	-2.223495
31.99388	0.004889378	-0.05561667	0.07378083	0.1475619	-0.001283864	2.226072
32.01045	0.004889378	-0.05317198	0	0.1475617	-2.22671	-6.745769E-06
32.02702	0.006111722	-0.05194964	0.07378086	0.07378072	2.226711	-2.226713
32.04376	0.006111722	-0.0482826	0	0.219023	-2.214981	4.360329
32.06015	0.006111722	-0.04706026	0	0.07457056	0	-4.359584
32.07695	0.006111722	-0.04583792	0	0.07274227	0	-0.05507647
32.09328	0.006111722	-0.04461557	0	0.07484949	0	0.06359597
32.10986	0.006111722	-0.04461557	0	0	0	-2.274675
32.12642	0.006111722	-0.04461557	0	0	0	0
32.14299	0.006111722	-0.04461557	0	0	0	0
32.15966	0.006111722	-0.04461557	0	0	0	0
32.17613	0.006111722	-0.04461557	0	0	0	0
32.19269	0.006111722	-0.04461557	0	0	0	0
32.20941	0.006111722	-0.04339323	0	0.07310762	0	2.19653
32.22615	0.007334067	-0.04217089	0.0730409	0.07304073	2.183265	-0.001999225
32.24317	0.007334067	-0.04094854	0	0.07179692	-2.163529	-0.03684256
32.25895	0.007334067	-0.03972619	-5.90282E-08	0.0774738	-1.799499E-06	0.173062
32.27552	0.007334067	-0.03972619	0	0	1.824966E-06	-2.395246
32.29208	0.007334067	-0.03850385	2.810737E-08	0.07378072	8.482821E-07	2.226707
32.3094	0.007334067	-0.03850385	0	0	-8.294696E-07	-2.177325
32.32522	0.007334067	-0.03728151	0	0.0772867	0	2.332517
32.34179	0.007334067	-0.03728151	0	0	0	-2.386647
32.35835	0.007334067	-0.03728151	0	0	0	0
32.37713	0.007334067	-0.03728151	0	0	0	0
32.39377	0.007334067	-0.03728151	0	0	0	0
32.41027	0.007334067	-0.03728151	0	0	0	0
32.42717	0.007334067	-0.03728151	0	0	0	0
32.44352	0.007334067	-0.03605916	0	0.0747445	0	2.248029
32.46004	0.007334067	-0.03605916	0	0	0	-2.273329
32.47654	0.007334067	-0.03605916	0	0	0	0
32.49311	0.007334067	-0.03605916	0	0	0	0
32.50967	0.007334067	-0.03605916	0	0	0	0
32.52645	0.007334067	-0.03605916	0	0	0	0
32.5428	0.007334067	-0.03605916	0	0	0	0
32.56026	0.007334067	-0.03605916	0	0	0	0
32.57596	0.007334067	-0.03605916	0	0	0	0
32.59258	0.007334067	-0.03605916	0	0	0	0
32.60921	0.007334067	-0.03605916	0	0	0	0
32.62564	0.007334067	-0.03605916	0	0	0	0
32.64221	0.007334067	-0.03605916	0	0	0	0
32.65878	0.007334067	-0.03605916	0	0	0	0
32.67551	0.007334067	-0.03605916	0	0	0	0
32.69191	0.007334067	-0.03605916	0	0	0	0
32.70847	0.007334067	-0.03605916	0	0	0	0
32.72507	0.007334067	-0.03605916	0	0	0	0
32.74167	0.007334067	-0.03605916	0	0	0	0
32.75826	0.007334067	-0.03605916	0	0	0	0
32.77474	0.007334067	-0.03605916	0	0	0	0
32.79131	0.007334067	-0.03605916	0	0	0	0
32.81376	0.007334067	-0.03605916	0	0	0	0
32.83033	0.007334067	-0.03605916	0	0	0	0
32.84689	0.007334067	-0.03605916	0	0	0	0
32.86374	0.007334067	-0.03605916	0	0	0	0
32.88002	0.007334067	-0.03605916	0	0	0	0
32.89659	0.007334067	-0.03605916	0	0	0	0
32.91328	0.007334067	-0.03605916	0	0	0	0
32.92972	0.007334067	-0.03605916	0	0	0	0
32.94629	0.007334067	-0.03605916	0	0	0	0
32.96286	0.007334067	-0.03605916	0	0	0	0
32.97942	0.007334067	-0.03605916	0	0	0	0
32.99599	0.007334067	-0.03605916	0	0	0	0
33.01256	0.007334067	-0.03605916	0	0	0	0
33.02935	0.007334067	-0.03605916	0	0	0	0
33.04632	0.007334067	-0.03605916	0	0	0	0
33.06226	0.007334067	-0.03605916	0	0	0	0
33.07886	0.007334067	-0.03605916	0	0	0	0
33.09549	0.007334067	-0.03605916	0	0	0	0
33.11196	0.007334067	-0.03605916	0	0	0	0
33.12852	0.007334067	-0.03605916	0	0	0	0
33.14528	0.007334067	-0.03605916	0	0	0	0
33.16179	0.007334067	-0.03605916	0	0	0	0
33.17822	0.007334067	-0.03605916	0	0	0	0
33.19495	0.007334067	-0.03605916	0	0	0	0
33.21135	0.007334067	-0.03605916	0	0	0	0
33.22838	0.007334067	-0.03605916	0	0	0	0
33.24448	0.007334067	-0.03605916	0	0	0	0
33.26105	0.007334067	-0.03605916	0	0	0	0
33.27763	0.007334067	-0.03605916	0	0	0	0
33.29454	0.007334067	-0.03605916	0	0	0	0
33.31075	0.007334067	-0.03605916	0	0	0	0
33.32737	0.007334067	-0.03605916	0	0	0	0
33.34388	0.007334067	-0.03605916	0	0	0	0
33.36094	0.007334067	-0.03605916	0	0	0	0
33.37701	0.007334067	-0.03605916	0	0	0	0
33.39358	0.007334067	-0.03605916	0	0	0	0
33.41015	0.007334067	-0.03605916	0	0	0	0
33.42675	0.007334067	-0.03605916	0	0	0	0
33.44328	0.007334067	-0.03605916	0	0	0	0
33.45985	0.007334067	-0.03605916	0	0	0	0
33.47675	0.007334067	-0.03605916	0	0	0	0
33.49298	0.007334067	-0.03605916	0	0	0	0
33.5098	0.007334067	-0.03605916	0	0	0	0
33.52625	0.007334067	-0.03605916	0	0	0	0
33.54297	0.007334067	-0.03605916	0	0	0	0
33.55925	0.007334067	-0.03605916	0	0	0	0
33.57582	0.007334067	-0.03605916	0	0	0	0
33.59238	0.007334067	-0.03605916	0	0	0	0
33.60895	0.007334067	-0.03605916	0	0	0	0
33.62552	0.007334067	-0.03605916	0	0	0	0
33.64208	0.007334067	-0.03605916	0	0	0	0
33.66811	0.007334067	-0.03605916	0	0	0	0
33.68468	0.007334067	-0.03605916	0	0	0	0
33.7015	0.007334067	-0.03605916	0	0	0	0
33.71781	0.007334067	-0.03605916	0	0	0	0
33.73438	0.007334067	-0.03605916	0	0	0	0
33.75095	0.007334067	-0.03605916	0	0	0	0
33.76751	0.007334067	-0.03605916	0	0	0	0
33.78408	0.007334067	-0.03605916	0	0	0	0
33.80064	0.007334067	-0.03605916	0	0	0	0
33.81721	0.007334067	-0.03605916	0	0	0	0
33.83378	0.007334067	-0.03605916	0	0	0	0
33.85035	0.007334067	-0.03605916	0	0	0	0
33.86699	0.007334067	-0.03605916	0	0	0	0
33.88358	0.007334067	-0.03605916	0	0	0	0
33.90004	0.007334067	-0.03605916	0	0	0	0
33.91661	0.007334067	-0.03605916	0	0	0	0
33.93318	0.007334067	-0.03605916	0	0	0	0
33.94975	0.007334067	-0.03605916	0	0	0	0
33.96632	0.007334067	-0.03605916	0	0	0	0
33.98288	0.007334067	-0.03605916	0	0	0	0
33.99957	0.007334067	-0.03605916	0	0	0	0
34.01601	0.007334067	-0.03605916	0	0	0	0
34.03258	0.007334067	-0.03605916	0	0	0	0
34.04914	0.007334067	-0.03605916	0	0	0	0
34.06571	0.007334067	-0.03605916	0	0	0	0
34.08228	0.007334067	-0.03605916	0	0	0	0
34.09961	0.007334067	-0.03605916	0	0	0	0
34.11541	0.007334067	-0.03605916	0	0	0	0
34.13208	0.007334067	-0.03605916	0	0	0	0
34.14854	0.007334067	-0.03605916	0	0	0	0
34.16511	0.007334067	-0.03605916	0	0	0	0
34.18192	0.007334067	-0.03605916	0	0	0	0
34.19845	0.007334067	-0.03605916	0	0	0	0
34.21494	0.007334067	-0.03605916	0	0	0	0
34.23137	0.007334067	-0.03605916	0	0	0	0
34.24836	0.007334067	-0.03605916	0	0	0	0
34.26451	0.007334067	-0.03605916	0	0	0	0
34.28107	0.007334067	-0.03605916	0	0	0	0
34.29764	0.007334067	-0.03605916	0	0	0	0
34.31421	0.007334067	-0.03605916	0	0	0	0
34.3318	0.007334067	-0.03605916	0	0	0	0
34.34837	0.007334067	-0.03605916	0	0	0	0
34.36504	0.007334067	-0.03605916	0	0	0	0
34.38151	0.007334067	-0.03605916	0	0	0	0
34.39825	0.007334067	-0.03605916	0	0	0	0
34.41464	0.007334067	-0.03605916	0	0	0	0
34.43121	0.007334067	-0.03605916	0	0	0	0
34.44778	0.007334067	-0.03605916	0	0	0	0
34.46471	0.007334067	-0.03605916	0	0	0	0
34.48091	0.007334067	-0.03605916	0	0	0	0
34.49747	0.007334067	-0.03605916	0	0	0	0
34.51404	0.007334067	-0.03605916	0	0	0	0
34.53061	0.007334067	-0.03605916	0	0	0	0
34.54717	0.007334067	-0.03605916	0	0	0	0
34.56374	0.007334067	-0.03605916	0	0	0	0
34.58031	0.007334067	-0.03605916	0	0	0	0
34.59695	0.007334067	-0.03605916	0	0	0	0
34.61344	0.007334067	-0.03605916	0	0	0	0
34.63	0.007334067	-0.03605916	0	0	0	0
34.64657	0.007334067	-0.03605916	0	0	0	0
34.66314	0.008556412	-0.03605916	0.07378086	0	2.226711	0
34.67999	0.02566923	-0.04828261	1.015857	-0.725612	28.19495	-21.7165
34.69627	0.07578536	-0.1008434	3.077452	-3.227571	62.22623	-75.51797
34.71284	0.1161227	-0.1448478	2.434768	-2.656111	-19.56289	17.3949
34.7294	0.1540154	-0.1827405	2.287206	-2.287206	-4.453431	11.13357
34.74611	0.180907	-0.205965	1.609834	-1.390312	-20.35875	26.9566
34.76254	0.1955751	-0.2169662	0.8929791	-0.6697341	-21.63723	21.74958
34.7791	0.2041315	-0.2206332	0.5164651	-0.2213422	-11.41183	13.59039
34.79644	0.2102433	-0.2206332	0.3525863	-8.596501E-07	-4.834008	6.529008
34.81224	0.2175773	-0.2206332	0.4641676	0	3.367528	2.594429E-05
34.82906	0.2273561	-0.2206332	0.5811465	8.855702E-07	3.585331	2.714216E-05
34.84558	0.2371348	-0.2194109	0.5918839	0.07398425	0.3219783	2.218519
34.86212	0.2481359	-0.2194109	0.6654063	0	2.224289	-2.238261
34.8785	0.251803	-0.2194109	0.2238149	0	-13.41529	0
34.89507	0.2579147	-0.2194108	0.3689054	8.994359E-07	4.403172	2.729587E-05
34.91164	0.259137	-0.2194108	0.07378072	0	-8.906881	-2.714503E-05
34.9282	0.259137	-0.2194108	0	0	-2.226707	0
34.94477	0.2603594	-0.2194108	0.07378072	0	2.226707	0
34.9616	0.2689158	-0.2181885	0.5085033	0.0726442	13.01804	2.175376
34.9779	0.2799169	-0.2145215	0.6747485	0.2249146	5.017869	4.59606
34.99447	0.2848063	-0.2120768	0.2951229	0.1475632	-11.54887	-2.353163
35.01198	0.2860286	-0.2120768	0.06979688	-1.701699E-06	-6.61158	-4.329893
35.02803	0.2860286	-0.2120768	0	0	-2.079658	5.070359E-05
35.04417	0.2860286	-0.2120768	0	0	0	0
35.06073	0.2860286	-0.2120768	0	0	0	0
35.07769	0.2860286	-0.2120768	0	0	0	0
35.09386	0.2860286	-0.2120768	0	0	0	0
35.1106	0.2860286	-0.2120768	0	0	0	0
35.127	0.2860286	-0.2120768	0	0	0	0
35.14378	0.2860286	-0.2120768	0	0	0	0
35.16013	0.2860286	-0.2120768	0	0	0	0
35.1767	0.2860286	-0.2108544	-1.798872E-06	0.07378253	-5.464234E-05	2.24121
35.19326	0.2786945	-0.2071874	-0.4426844	0.2213422	-13.36019	4.453359
35.20983	0.2676934	-0.1998533	-0.6640283	0.4426852	-6.680175	6.680147
35.2264	0.2481359	-0.1876299	-1.180493	0.7378091	-15.58694	8.906855
35.24297	0.223689	-0.1680724	-1.475617	1.180493	-8.906855	13.36024
35.25953	0.1992421	-0.1509596	-1.475617	1.032931	0	-4.453438
35.2761	0.1772399	-0.1375138	-1.328056	0.8115898	4.453413	-6.680094
35.29267	0.1515707	-0.1252903	-1.549398	0.7378091	-6.680121	-2.226707
35.30956	0.1259015	-0.1093998	-1.519313	0.9405265	0.8990787	6.058043
35.32606	0.08434177	-0.08739763	-2.518989	1.333582	-29.93593	11.7703
35.34237	0.06356192	-0.07395184	-1.273928	0.8243064	37.94737	-15.52187
35.35894	0.04889378	-0.06417308	-0.8853707	0.5902472	11.81783	-7.118834
35.3755	0.04033737	-0.05806137	-0.5165847	0.3689888	11.13127	-6.678359
35.39207	0.03544799	-0.05439433	-0.2951236	0.2213426	6.684479	-4.456484
35.40919	0.0330033	-0.05194964	-0.142826	0.1428262	4.521392	-2.330985
35.42521	0.03055861	-0.05072729	-0.1526221	0.07631119	-0.2956473	-2.007428
35.44177	0.02933627	-0.04950495	-0.07378083	0.0737805	2.419547	-0.07766382
35.45834	0.02933627	-0.0482826	0	0.07378118	2.22671	2.046217E-05
35.47491	0.02933627	-0.0482826	0	0	0	-2.226208
35.4915	0.02933627	-0.0482826	0	0	0	0
35.50818	0.02933627	-0.0482826	0	0	0	0
35.52461	0.02933627	-0.0482826	0	0	0	0
35.54118	0.02933627	-0.0482826	0	0	0	0
35.55774	0.02933627	-0.0482826	0	0	0	0
35.57441	0.02933627	-0.0482826	0	0	0	0
35.59088	0.02933627	-0.0482826	0	0	0	0
35.60752	0.02933627	-0.0482826	0	0	0	0
35.63056	0.02933627	-0.0482826	0	0	0	0
35.64713	0.02933627	-0.0482826	0	0	0	0
35.66369	0.02933627	-0.0482826	0	0	0	0
35.68026	0.02933627	-0.0482826	0	0	0	0
35.69704	0.02933627	-0.0482826	0	0	0	0
35.71369	0.02933627	-0.0482826	0	0	0	0
35.72996	0.02933627	-0.0482826	0	0	0	0
35.74653	0.02933627	-0.0482826	0	0	0	0
35.76351	0.02933627	-0.0482826	0	0	0	0
35.77966	0.02933627	-0.0482826	0	0	0	0
35.79623	0.02933627	-0.0482826	0	0	0	0
35.8128	0.02933627	-0.0482826	0	0	0	0
35.82964	0.02933627	-0.0482826	0	0	0	0
35.84593	0.02933627	-0.0482826	0	0	0	0
35.8625	0.02933627	-0.0482826	0	0	0	0
35.87906	0.02933627	-0.0482826	0	0	0	0
35.89563	0.02933627	-0.0482826	0	0	0	0
35.91274	0.02933627	-0.0482826	0	0	0	0
35.92876	0.02933627	-0.0482826	0	0	0	0
35.94533	0.02933627	-0.0482826	0	0	0	0
35.9619	0.02933627	-0.0482826	0	0	0	0
35.97847	0.02933627	-0.0482826	0	0	0	0
35.99503	0.02933627	-0.0482826	0	0	0	0
36.0116	0.02933627	-0.0482826	0	0	0	0
36.02817	0.02933627	-0.0482826	0	0	0	0
36.04473	0.02933627	-0.0482826	0	0	0	0
36.06132	0.02933627	-0.0482826	0	0	0	0
36.07787	0.02933627	-0.0482826	0	0	0	0
36.09444	0.02933627	-0.0482826	0	0	0	0
36.111	0.02933627	-0.0482826	0	0	0	0
36.12792	0.02933627	-0.0482826	0	0	0	0
36.14414	0.02811392	-0.04461557	-0.0753776	0.2261327	-2.2749	6.824698
36.16103	0.02689158	-0.04217089	-0.07234831	0.1446964	0.09148726	-2.459451
36.17754	0.02689158	-0.04094854	0	0.07403689	2.165773	-2.115218
36.19384	0.02566923	-0.03972619	-0.07500707	0.07500695	-2.286355	0.02956918
36.21056	0.02444689	-0.03728151	-0.0731075	0.1462148	0.05753426	2.156754
36.22697	0.02322454	-0.03605916	-0.0744668	0.07446703	-0.04102372	-2.165351
36.24357	0.02322455	-0.03483682	1.122228E-07	0.07364507	2.255726	-0.02489862
36.26011	0.0220022	-0.03361447	-0.07393416	0.07393416	-2.231598	0.008725758
36.27667	0.01955751	-0.03116979	-0.1475617	0.1475616	-2.224387	2.224384
36.29347	0.01833517	-0.0287251	-0.0727589	0.1455179	2.241808	-0.06124778
36.31008	0.01589048	-0.02750275	-0.1472228	0.07361134	-2.229104	-2.152549
36.32672	0.01589048	-0.02750275	0	0	4.4279	-2.213948
36.34295	0.01466813	-0.02628041	-0.0753421	0.07534216	-2.292303	2.292304
36.35952	0.01466813	-0.02628041	0	0	2.297101	-2.297103
36.37608	0.01466813	-0.02628041	0	0	0	0
36.39318	0.01466813	-0.02628041	0	0	0	0
36.40943	0.01466813	-0.02628041	0	0	0	0
36.42581	0.01466813	-0.02628041	0	0	0	0
36.44235	0.01466813	-0.02628041	0	0	0	0
36.45945	0.01466813	-0.02628041	0	0	0	0
36.47548	0.01466813	-0.02628041	0	0	0	0
36.49205	0.01466813	-0.02628041	0	0	0	0
36.50886	0.01466813	-0.02628041	0	0	0	0
36.52524	0.01466813	-0.02628041	0	0	0	0
36.54174	0.01466813	-0.02628041	0	0	0	0
36.55831	0.01466813	-0.02628041	0	0	0	0
36.57488	0.01466813	-0.02628041	0	0	0	0
36.59145	0.01466813	-0.02628041	0	0	0	0
36.60801	0.01466813	-0.02628041	0	0	0	0
36.62475	0.01466813	-0.02628041	0	0	0	0
36.64114	0.01466813	-0.02628041	0	0	0	0
36.65771	0.01466813	-0.02628041	0	0	0	0
36.67471	0.01466813	-0.02628041	0	0	0	0
36.69097	0.01466813	-0.02628041	0	0	0	0
36.70741	0.01466813	-0.02628041	0	0	0	0
36.72398	0.01466813	-0.02628041	0	0	0	0
36.74055	0.01466813	-0.02628041	0	0	0	0
36.75721	0.01466813	-0.02628041	0	0	0	0
36.77368	0.01466813	-0.02628041	0	0	0	0
36.79039	0.01466813	-0.02628041	0	0	0	0
36.80684	0.01466813	-0.02505806	0	0.07431126	0	2.24117
36.82338	0.01344579	-0.02383572	-0.07389995	0.07390006	-2.240105	-0.01246472
36.83995	0.01344579	-0.02383572	0	0	2.231847	-2.23185
36.85651	0.01344579	-0.02261337	-5.622769E-08	0.07379783	-1.696955E-06	2.227223
36.87308	0.01344579	-0.02261337	0	0	1.69715E-06	-2.227479
36.88969	0.01222344	-0.02139103	-0.07361134	0.07361134	-2.21904	2.21904
36.9065	0.01222344	-0.02139103	0	0	2.202828	-2.202828
36.92292	0.0110011	-0.02139103	-0.0744321	1.134219E-07	-2.239661	3.412864E-06
36.93953	0.0110011	-0.02139103	0	0	2.25363	-3.43415E-06
36.95591	0.0110011	-0.02016868	-5.682976E-08	0.07458803	-1.722463E-06	2.260701
36.97248	0.0110011	-0.02016868	0	0	1.724456E-06	-2.263318
36.98913	0.0110011	-0.02016868	0	0	0	0
37.05295	0.0110011	-0.02016868	0	0	0	0
37.06952	0.0110011	-0.02016868	0	0	0	0
37.08652	0.0110011	-0.02016868	0	0	0	0
37.10266	0.0110011	-0.02016868	0	0	0	0
37.11929	0.0110011	-0.02016868	0	0	0	0
37.13618	0.0110011	-0.02016868	0	0	0	0
37.15235	0.0110011	-0.02016868	0	0	0	0
37.16892	0.0110011	-0.02016868	0	0	0	0
37.18606	0.0110011	-0.02016868	0	0	0	0
37.20205	0.0110011	-0.02016868	0	0	0	0
37.21876	0.0110011	-0.02016868	0	0	0	0
37.23519	0.0110011	-0.02016868	0	0	0	0
37.25175	0.0110011	-0.02016868	0	0	0	0
37.26832	0.0110011	-0.02016868	0	0	0	0
37.2882	0.0110011	-0.02016868	0	0	0	0
37.30477	0.0110011	-0.01894634	0	0.07376385	0	2.023731
37.32133	0.0110011	-0.01894634	0	0	0	-2.225941
37.3379	0.0110011	-0.01894634	0	0	0	0
37.35447	0.0110011	-0.01894634	0	0	0	0
37.37155	0.0110011	-0.01894634	0	0	0	0
37.38766	0.0110011	-0.01894634	0	0	0	0
37.40437	0.0110011	-0.01894634	0	0	0	0
37.42089	0.0110011	-0.01894634	0	0	0	0
37.4373	0.0110011	-0.01894634	0	0	0	0
37.45407	0.0110011	-0.01894634	0	0	0	0
37.47044	0.0110011	-0.01894634	0	0	0	0
37.487	0.0110011	-0.01894634	0	0	0	0
37.50357	0.0110011	-0.01894634	0	0	0	0
37.52025	0.0110011	-0.01894634	0	0	0	0
37.5367	0.0110011	-0.01894634	0	0	0	0
37.55327	0.0110011	-0.01894634	0	0	0	0
37.56984	0.0110011	-0.01894634	0	0	0	0
37.58677	0.0110011	-0.01894634	0	0	0	0
37.60297	0.0110011	-0.01894634	0	0	0	0
37.61993	0.0110011	-0.01894634	0	0	0	0
37.6361	0.0110011	-0.01894634	0	0	0	0
37.65267	0.0110011	-0.01894634	0	0	0	0
37.66924	0.0110011	-0.01894634	0	0	0	0
37.68591	0.0110011	-0.01894634	0	0	0	0
37.70237	0.0110011	-0.01894634	0	0	0	0
37.71894	0.0110011	-0.01894634	0	0	0	0
37.7355	0.0110011	-0.01894634	0	0	0	0
37.75207	0.0110011	-0.01894634	0	0	0	0
37.7689	0.0110011	-0.01894634	0	0	0	0
37.7852	0.0110011	-0.01894634	0	0	0	0
37.80194	0.0110011	-0.01894634	0	0	0	0
37.81834	0.0110011	-0.01894634	0	0	0	0
37.83491	0.0110011	-0.01894634	0	0	0	0
37.85188	0.0110011	-0.01894634	0	0	0	0
37.86887	0.0110011	-0.01894634	0	0	0	0
37.88485	0.0110011	-0.01894634	0	0	0	0
37.90144	0.0110011	-0.01894634	0	0	0	0
37.91854	0.0110011	-0.01894634	0	0	0	0
37.9343	0.0110011	-0.01894634	0	0	0	0
37.95094	0.0110011	-0.01894634	0	0	0	0
37.96744	0.0110011	-0.01894634	0	0	0	0
37.98411	0.0110011	-0.01894634	0	0	0	0
38.00057	0.0110011	-0.01894634	0	0	0	0
38.01756	0.0110011	-0.01894634	0	0	0	0
38.03376	0.0110011	-0.01894634	0	0	0	0
38.05027	0.0110011	-0.01894634	0	0	0	0
38.06683	0.0110011	-0.01894634	0	0	0	0
38.08382	0.0110011	-0.01894634	0	0	0	0
38.09997	0.0110011	-0.01894634	0	0	0	0
38.11654	0.0110011	-0.01894634	0	0	0	0
38.13311	0.0110011	-0.01894634	0	0	0	0
38.14983	0.0110011	-0.01894634	0	0	0	0
38.16677	0.0110011	-0.01894634	0	0	0	0
38.1833	0.0110011	-0.01894634	0	0	0	0
38.19937	0.0110011	-0.01894634	0	0	0	0
38.21594	0.0110011	-0.01894634	0	0	0	0
38.23338	0.0110011	-0.01894634	0	0	0	0
38.24907	0.0110011	-0.01894634	0	0	0	0
38.26564	0.0110011	-0.01894634	0	0	0	0
38.29386	0.0110011	-0.01894634	0	0	0	0
38.31043	0.0110011	-0.01894634	0	0	0	0
38.327	0.0110011	-0.01894634	0	0	0	0
38.34365	0.0110011	-0.01894634	0	0	0	0
38.36013	0.0110011	-0.01894634	0	0	0	0
38.3767	0.0110011	-0.01894634	0	0	0	0
38.39326	0.0110011	-0.01894634	0	0	0	0
38.41019	0.0110011	-0.01894634	0	0	0	0
38.4264	0.0110011	-0.01894634	0	0	0	0
38.44297	0.0110011	-0.01894634	0	0	0	0
38.45953	0.0110011	-0.01894634	0	0	0	0
38.4761	0.0110011	-0.01894634	0	0	0	0
38.4929	0.0110011	-0.01894634	0	0	0	0
38.50924	0.0110011	-0.01894634	0	0	0	0
38.5262	0.0110011	-0.01894634	0	0	0	0
38.54237	0.0110011	-0.01894634	0	0	0	0
38.55897	0.0110011	-0.01894634	0	0	0	0
38.57551	0.0110011	-0.01894634	0	0	0	0
38.59213	0.0110011	-0.01894634	0	0	0	0
38.60864	0.0110011	-0.01894634	0	0	0	0
38.62521	0.0110011	-0.01894634	0	0	0	0
38.64177	0.0110011	-0.01894634	0	0	0	0
38.65872	0.0110011	-0.01894634	0	0	0	0
38.6749	0.0110011	-0.01894634	0	0	0	0
38.69147	0.0110011	-0.01894634	0	0	0	0
38.70804	0.0110011	-0.01894634	0	0	0	0
38.72488	0.0110011	-0.01894634	0	0	0	0
38.74148	0.0110011	-0.01894634	0	0	0	0
38.75774	0.0110011	-0.01894634	0	0	0	0
38.77434	0.0110011	-0.01894634	0	0	0	0
38.79087	0.0110011	-0.01894634	0	0	0	0
38.80759	0.0110011	-0.01894634	0	0	0	0
38.82436	0.0110011	-0.01894634	0	0	0	0
38.84057	0.0110011	-0.01894634	0	0	0	0
38.85714	0.0110011	-0.01894634	0	0	0	0
38.8737	0.0110011	-0.01894634	0	0	0	0
38.89027	0.0110011	-0.01894634	0	0	0	0
38.90684	0.0110011	-0.01894634	0	0	0	0
38.9234	0.0110011	-0.01894634	0	0	0	0
38.93997	0.0110011	-0.01894634	0	0	0	0
38.95671	0.0110011	-0.01894634	0	0	0	0
38.97311	0.0110011	-0.01894634	0	0	0	0
38.99052	0.0110011	-0.01894634	0	0	0	0
39.00624	0.0110011	-0.01894634	0	0	0	0
39.02281	0.0110011	-0.01894634	0	0	0	0
39.03938	0.0110011	-0.01894634	0	0	0	0
39.05594	0.0110011	-0.01894634	0	0	0	0
39.07251	0.0110011	-0.01894634	0	0	0	0
39.08908	0.0110011	-0.01894634	0	0	0	0
39.10564	0.0110011	-0.02994744	0	-0.6640278	0	-20.0404
39.12221	0.009778756	-0.05928371	-0.07378083	-1.770741	-2.22671	-33.40066
39.13878	0.008556412	-0.09106466	-0.07378083	-1.918302	0	-4.453416
39.15535	0.009778756	-0.1350691	0.07378083	-2.656111	4.45342	-22.26713
39.17191	0.008556412	-0.1827405	-0.07378083	-2.877453	-4.45342	-6.680096
39.18848	0.007334067	-0.2181885	-0.07376388	-2.139153	0.0005117201	22.27937
39.20583	0.006111722	-0.2426354	-0.07045521	-1.409103	0.09754247	21.52251
39.22162	0.006111722	-0.2597482	0	-1.084104	2.126342	9.808489
39.23818	0.006111722	-0.269527	0	-0.5903835	0	15.26249
39.25475	0.006111723	-0.2707493	2.810737E-08	-0.07378253	8.483798E-07	15.59284
39.27131	0.006111722	-0.2719716	-2.811384E-08	-0.07379591	-1.696955E-06	-0.0004041181
39.28807	0.006111722	-0.2744163	0	-0.1458487	8.436213E-07	-2.162112
39.30444	0.006111723	-0.276861	2.844799E-08	-0.1493515	8.586608E-07	-0.1057251
39.32101	0.006111722	-0.2878621	-2.810737E-08	-0.6640265	-1.717124E-06	-15.62647
39.33758	0.006111722	-0.2988632	-2.810737E-08	-0.6640265	0	0
39.35414	0.007334067	-0.3049749	0.07379789	-0.3689904	2.227482	8.905232
39.37071	0.007334067	-0.3098643	2.810737E-08	-0.2951247	-2.22748	2.229527
39.38728	0.007334067	-0.3098643	0	0	-8.482821E-07	8.906881
39.40384	0.007334067	-0.3098643	0	0	0	0
39.42041	0.007334067	-0.3098643	0	0	0	0
39.43697	0.007334067	-0.3098643	0	0	0	0
39.45354	0.007334067	-0.3098643	0	0	0	0
39.47073	0.007334067	-0.3098643	0	0	0	0
39.48692	0.007334067	-0.3098643	0	0	0	0
39.50338	0.007334067	-0.3098643	0	0	0	0
39.51981	0.008556412	-0.3098643	0.07439753	0	2.261989	0
39.53637	0.009778756	-0.3061973	0.07378083	0.2213422	-0.01868949	6.707922
39.55294	0.0110011	-0.3037526	0.07379789	0.1475972	0.0005147614	-2.225883
39.5695	0.0110011	-0.3000856	0	0.2213422	-2.227481	2.225883
39.59087	0.01344579	-0.2988632	0.1144394	0.05721959	3.017158	-4.327039
39.60763	0.01711282	-0.2817504	0.2187237	1.020711	2.735119	25.26998
39.624	0.01711282	-0.2817504	0	0	-6.600336	-30.80156
39.64057	0.01833517	-0.2401907	0.07378083	2.508549	2.239861	76.15531
39.65714	0.01589048	-0.1937416	-0.1475617	2.803674	-6.68013	8.906876
39.67442	0.009778756	-0.1497372	-0.3536758	2.546465	-6.089439	-7.598966
39.69082	0.007334067	-0.1265127	-0.149072	1.416183	6.074943	-33.55948
39.70684	0.006111722	-0.1118445	-0.07629292	0.9155152	2.244805	-15.44265
39.72374	0.004889378	-0.1020658	-0.07231554	0.5785248	0.1208025	-10.2352
39.73997	0.004889378	-0.0947317	-2.868867E-08	0.4518407	2.182487	-3.823334
39.75654	0.004889378	-0.08739763	2.810737E-08	0.4426848	1.731652E-06	-0.2791529
39.77315	0.004889378	-0.08006357	-2.803636E-08	0.4415669	-1.692278E-06	-0.03369696
39.78978	0.004889378	-0.07150716	0	0.5146883	8.436139E-07	2.200224
39.80625	0.004889378	-0.06661777	0	0.2968325	0	-6.58248
39.82281	0.004889378	-0.06417308	0	0.1475619	0	-4.517999
39.83938	0.004889378	-0.06295074	0	0.07378072	0	-2.22672
39.85595	0.004889378	-0.0617284	0	0.0737805	0	-6.745769E-06
39.87254	0.004889378	-0.0617284	0	0	0	-2.225163
39.88911	0.004889378	-0.0617284	0	0	0	0
39.90565	0.004889378	-0.06050605	0	0.07388324	0	2.231342
39.92259	0.004889378	-0.06050605	0	0	0	-2.206431
39.93878	0.004889378	-0.06050605	0	0	0	0
39.95557	0.004889378	-0.06050605	0	0	0	0
39.97192	0.004889378	-0.06050605	0	0	0	0
39.98848	0.004889378	-0.06050605	0	0	0	0
40.0053	0.004889378	-0.06050605	0	0	0	0
40.02162	0.004889378	-0.05928371	0	0.07488424	0	2.259751
40.03848	0.004889378	-0.05928371	0	0	0	-2.257153
40.05505	0.004889378	-0.05928371	0	0	0	0
40.07132	0.004889378	-0.05928371	0	0	0	0
40.08789	0.004889378	-0.05928371	0	0	0	0
40.10465	0.004889378	-0.05928371	0	0	0	0
40.12155	0.004889378	-0.05928371	0	0	0	0
40.13759	0.004889378	-0.05928371	0	0	0	0
40.15419	0.004889378	-0.05928371	0	0	0	0
40.17091	0.004889378	-0.05928371	0	0	0	0
40.18729	0.004889378	-0.05928371	0	0	0	0
40.20392	0.004889378	-0.05928371	0	0	0	0
40.22042	0.004889378	-0.05928371	0	0	0	0
40.23698	0.004889378	-0.05928371	0	0	0	0
40.25355	0.004889378	-0.05928371	0	0	0	0
40.27012	0.004889378	-0.05928371	0	0	0	0
40.28669	0.004889378	-0.05928371	0	0	0	0
40.3035	0.004889378	-0.05928371	0	0	0	0
40.32051	0.004889378	-0.05928371	0	0	0	0
40.33652	0.004889378	-0.05928371	0	0	0	0
40.35353	0.004889378	-0.05928371	0	0	0	0
40.36954	0.004889378	-0.05928371	0	0	0	0
40.38609	0.004889378	-0.05928371	0	0	0	0
40.40265	0.004889378	-0.05928371	0	0	0	0
40.41959	0.004889378	-0.05928371	0	0	0	0
40.43579	0.004889378	-0.05928371	0	0	0	0
40.45235	0.004889378	-0.05928371	0	0	0	0
40.46892	0.004889378	-0.05928371	0	0	0	0
40.48563	0.004889378	-0.05928371	0	0	0	0
40.50224	0.004889378	-0.05928371	0	0	0	0
40.51875	0.004889378	-0.05928371	0	0	0	0
40.53519	0.004889378	-0.05928371	0	0	0	0
40.55193	0.004889378	-0.05561667	0	0.2190727	0	6.601747
40.5689	0.004889378	-0.05439433	0	0.07200667	0	-4.362127
40.58492	0.004889378	-0.05194964	0	0.1526221	0	2.443388
40.60172	0.004889378	-0.05194964	0	0	0	-4.651125
40.61802	0.004889378	-0.0507273	0	0.07497208	0	2.265009
40.63459	0.004889378	-0.04950495	0	0.07378095	0	-0.03623628
40.65116	0.004889378	-0.04828261	0	0.07378072	0	-6.745769E-06
40.66772	0.004889378	-0.04828261	0	0	0	-2.226707
40.68429	0.004889378	-0.04828261	0	0	0	0
40.70086	0.004889378	-0.04706026	2.811384E-08	0.07379794	8.485752E-07	2.227483
40.71742	0.004889378	-0.04706026	0	0	-8.485752E-07	-2.227483
40.73419	0.004889378	-0.04706026	0	0	0	0
40.75055	0.004889378	-0.04706026	0	0	0	0
40.76712	0.004889378	-0.04706026	0	0	0	0
40.78386	0.004889378	-0.04706026	0	0	0	0
40.80059	0.004889378	-0.04706026	0	0	0	0
40.81682	0.004889378	-0.04706026	0	0	0	0
40.83339	0.004889378	-0.04706026	0	0	0	0
40.85018	0.004889378	-0.04583792	0	0.07279184	0	2.182041
40.86652	0.004889378	-0.04339323	-2.850112E-08	0.1496291	-8.602647E-07	2.319219
40.88308	0.004889378	-0.04339323	0	0	8.661487E-07	-4.547225
40.89965	0.004889378	-0.04217089	2.811384E-08	0.07379772	8.485752E-07	2.227476
40.91621	0.004889378	-0.0397262	-2.810737E-08	0.1475617	-1.696955E-06	2.226457
40.93278	0.004889378	-0.03850385	2.810737E-08	0.07378095	1.696564E-06	-2.226707
40.94935	0.004889378	-0.03728151	-2.810737E-08	0.07378095	-1.696564E-06	0
40.96592	0.004889378	-0.03728151	0	0	8.482821E-07	-2.226713
40.98257	0.004889378	-0.03728151	0	0	0	0
40.99939	0.004889378	-0.03605916	2.768034E-08	0.07265979	8.268273E-07	2.170388
41.0162	0.004889377	-0.03361447	-5.539837E-08	0.145419	-2.470068E-06	2.16325
41.03218	0.004889378	-0.03239213	2.914068E-08	0.07649312	2.578107E-06	-2.101965
41.04875	0.004889378	-0.02994744	0	0.1475618	-8.953416E-07	2.183571
41.06532	0.004889378	-0.02750275	2.810737E-08	0.1475617	8.482821E-07	-3.597743E-06
41.08189	0.004889378	-0.02628041	-2.810737E-08	0.07378083	-1.696564E-06	-2.22671
41.09858	0.004889378	-0.02505806	2.790179E-08	0.07324118	1.684155E-06	-0.01622698
41.11502	0.004889378	-0.02505806	0	0	-8.421745E-07	-2.210678
41.13197	0.004889378	-0.02505806	0	0	0	0
41.14815	0.004889378	-0.02505806	0	0	0	0
41.16472	0.004889378	-0.02383572	-2.810737E-08	0.07378083	-8.58162E-07	2.252644
41.18129	0.004889378	-0.02383572	0	0	8.482821E-07	-2.22671
41.19785	0.004889378	-0.02383572	0	0	0	0
41.21442	0.004889378	-0.02383572	0	0	0	0
41.23099	0.004889378	-0.02383572	0	0	0	0
41.24755	0.004889378	-0.02383572	0	0	0	0
41.26433	0.004889378	-0.02383572	0	0	0	0
41.28069	0.004889378	-0.02383572	0	0	0	0
41.29726	0.004889378	-0.02383572	0	0	0	0
41.31382	0.004889378	-0.02383572	0	0	0	0
41.33039	0.004889378	-0.02383572	0	0	0	0
41.3476	0.004889378	-0.02383572	0	0	0	0
41.36373	0.004889378	-0.02383572	0	0	0	0
41.38009	0.004889378	-0.02383572	0	0	0	0
41.39682	0.004889378	-0.02383572	0	0	0	0
41.41341	0.004889378	-0.02383572	0	0	0	0
41.42979	0.004889378	-0.02383572	0	0	0	0
41.4464	0.004889378	-0.02383572	0	0	0	0
41.46293	0.004889378	-0.02383572	0	0	0	0
41.4795	0.004889378	-0.02383572	0	0	0	0
41.49606	0.004889378	-0.02383572	0	0	0	0
41.51321	0.004889378	-0.02383572	0	0	0	0
41.52938	0.004889378	-0.02383572	0	0	0	0
41.54576	0.004889378	-0.02383572	0	0	0	0
41.56781	0.004889378	-0.02383572	0	0	0	0
41.58575	0.004889378	-0.02383572	0	0	0	0
41.60233	0.004889378	-0.02383572	0	0	0	0
41.61894	0.004889378	-0.02383572	0	0	0	0
41.63581	0.004889378	-0.02383572	0	0	0	0
41.65202	0.004889378	-0.02383572	0	0	0	0
41.66859	0.004889378	-0.02383572	0	0	0	0
41.68558	0.004889378	-0.02383572	0	0	0	0
41.70173	0.004889378	-0.02383572	0	0	0	0
41.71848	0.004889378	-0.02383572	0	0	0	0
41.73566	0.004889378	-0.02383572	0	0	0	0
41.75152	0.004889378	-0.02383572	0	0	0	0
41.76799	0.004889378	-0.02383572	0	0	0	0
41.78477	0.004889378	-0.02383572	0	0	0	0
41.80164	0.004889378	-0.02383572	0	0	0	0
41.8177	0.004889378	-0.02383572	0	0	0	0
41.83426	0.004889378	-0.02383572	0	0	0	0
41.85083	0.004889378	-0.02383572	0	0	0	0
41.86743	0.004889378	-0.02383572	0	0	0	0
41.88396	0.004889378	-0.02383572	0	0	0	0
41.90085	0.004889378	-0.02383572	0	0	0	0
41.91742	0.004889378	-0.02383572	0	0	0	0
41.93366	0.004889378	-0.02383572	0	0	0	0
41.95023	0.004889378	-0.02383572	0	0	0	0
41.9668	0.004889378	-0.02383572	0	0	0	0
41.98336	0.004889378	-0.02383572	0	0	0	0
41.99995	0.004889378	-0.02383572	0	0	0	0
42.01649	0.004889378	-0.02383572	0	0	0	0
42.03306	0.004889378	-0.02383572	0	0	0	0
42.04963	0.004889378	-0.02383572	0	0	0	0
42.06643	0.004889378	-0.02383572	0	0	0	0
42.08276	0.004889378	-0.02383572	0	0	0	0
42.0999	0.004889378	-0.02383572	0	0	0	0
42.11589	0.004889378	-0.02383572	0	0	0	0
42.13248	0.004889378	-0.02383572	0	0	0	0
42.14903	0.004889378	-0.02383572	0	0	0	0
42.1656	0.004889378	-0.02383572	0	0	0	0
42.18217	0.004889378	-0.02383572	0	0	0	0
42.20253	0.004889378	-0.02383572	0	0	0	0
42.2191	0.004889378	-0.02383572	0	0	0	0
42.23567	0.004889378	-0.02383572	0	0	0	0
42.25261	0.004889378	-0.02383572	0	0	0	0
42.2688	0.004889378	-0.02383572	0	0	0	0
42.28537	0.004889378	-0.02383572	0	0	0	0
42.30194	0.004889378	-0.02383572	0	0	0	0
42.3185	0.004889378	-0.02383572	0	0	0	0
42.33549	0.004889378	-0.02383572	0	0	0	0
42.35164	0.004889378	-0.02383572	0	0	0	0
42.36821	0.004889378	-0.02383572	0	0	0	0
42.38477	0.004889378	-0.02383572	0	0	0	0
42.40134	0.004889378	-0.02383572	0	0	0	0
42.41791	0.004889378	-0.02383572	0	0	0	0
42.43504	0.004889378	-0.02383572	0	0	0	0
42.45104	0.004889378	-0.02383572	0	0	0	0
42.49899	0.004889378	-0.02383572	0	0	0	0
42.51648	0.004889378	-0.02383572	0	0	0	0
42.53212	0.004889378	-0.02383572	0	0	0	0
42.54869	0.004889378	-0.02383572	0	0	0	0
42.56527	0.004889378	-0.02383572	0	0	0	0
42.58212	0.004889378	-0.02383572	0	0	0	0
42.59881	0.004889378	-0.02383572	0	0	0	0
42.61496	0.004889378	-0.02383572	0	0	0	0
42.63202	0.004889378	-0.02383572	0	0	0	0
42.64857	0.004889378	-0.02383572	0	0	0	0
42.66466	0.004889378	-0.02383572	0	0	0	0
42.68127	0.004889378	-0.02383572	0	0	0	0
42.69779	0.004889378	-0.02383572	0	0	0	0
42.71441	0.004889378	-0.02383572	0	0	0	0
42.73137	0.004889378	-0.02383572	0	0	0	0
42.74749	0.004889378	-0.02383572	0	0	0	0
42.76443	0.004889378	-0.02383572	0	0	0	0
42.78063	0.004889378	-0.02383572	0	0	0	0
42.7972	0.004889378	-0.02383572	0	0	0	0
42.81376	0.004889378	-0.02383572	0	0	0	0
42.83074	0.004889378	-0.02383572	0	0	0	0
42.8469	0.004889378	-0.02383572	0	0	0	0
42.86381	0.004889378	-0.02383572	0	0	0	0
42.88003	0.004889378	-0.02383572	0	0	0	0
42.89659	0.004889378	-0.02383572	0	0	0	0
42.91316	0.004889378	-0.02383572	0	0	0	0
42.92973	0.004889378	-0.02383572	0	0	0	0
42.94629	0.004889378	-0.02383572	0	0	0	0
42.96286	0.004889378	-0.02383572	0	0	0	0
42.97943	0.004889378	-0.02383572	0	0	0	0
42.99599	0.004889378	-0.02383572	0	0	0	0
43.01256	0.004889378	-0.02383572	0	0	0	0
43.02913	0.004889378	-0.02383572	0	0	0	0
43.04578	0.004889378	-0.02383572	0	0	0	0
43.06237	0.004889378	-0.02383572	0	0	0	0
43.07883	0.004889378	-0.02383572	0	0	0	0
43.0954	0.004889378	-0.02383572	0	0	0	0
43.11256	0.004889378	-0.02383572	0	0	0	0
43.12853	0.004889378	-0.02383572	0	0	0	0
43.1451	0.004889378	-0.02383572	0	0	0	0
43.16167	0.004889378	-0.02383572	0	0	0	0
43.17823	0.004889378	-0.02383572	0	0	0	0
43.1948	0.004889378	-0.02383572	0	0	0	0
43.2119	0.004889378	-0.02383572	0	0	0	0
43.22794	0.004889378	-0.02383572	0	0	0	0
43.2445	0.004889378	-0.02383572	0	0	0	0
43.26107	0.004889378	-0.02383572	0	0	0	0
43.27764	0.004889378	-0.02383572	0	0	0	0
43.2942	0.004889378	-0.02383572	0	0	0	0
43.31077	0.004889378	-0.02383572	0	0	0	0
43.32734	0.004889378	-0.02383572	0	0	0	0
43.34391	0.004889378	-0.02383572	0	0	0	0
43.36047	0.004889378	-0.02383572	0	0	0	0
43.37704	0.004889378	-0.02383572	0	0	0	0
43.39361	0.004889378	-0.02383572	0	0	0	0
43.41018	0.004889378	-0.02383572	0	0	0	0
43.42693	0.004889378	-0.02383572	0	0	0	0
43.44331	0.004889378	-0.02383572	0	0	0	0
43.46001	0.004889378	-0.02383572	0	0	0	0
43.47683	0.004889378	-0.02383572	0	0	0	0
43.49301	0.004889378	-0.02383572	0	0	0	0
43.50957	0.004889378	-0.02383572	0	0	0	0
43.52614	0.004889378	-0.02383572	0	0	0	0
43.54762	0.004889378	-0.02383572	0	0	0	0
43.56419	0.004889378	-0.02383572	0	0	0	0
43.58087	0.004889378	-0.02383572	0	0	0	0
43.59732	0.003667034	-0.02505806	-0.07429405	-0.07429404	-2.242199	-2.242198
43.61442	-0.004889378	-0.03116979	-0.5004489	-0.3574635	-12.70198	-8.440156
43.63045	-0.01955751	-0.04094854	-0.9148616	-0.6099077	-12.50844	-7.619658
43.64709	-0.03911503	-0.05683902	-1.175083	-0.9547547	-7.963504	-10.5533
43.66393	-0.06233957	-0.07395184	-1.379287	-1.016317	-6.099012	-1.838683
43.68015	-0.0770077	-0.08984232	-0.9045317	-0.9799091	14.36288	1.101448
43.69691	-0.0880088	-0.1008434	-0.6561709	-0.6561709	7.53022	9.81564
43.71341	-0.09289818	-0.1081775	-0.2964206	-0.4446309	10.81619	6.360127
43.72985	-0.09534287	-0.1106222	-0.1487258	-0.1487258	4.484804	8.98526
43.74641	-0.09534287	-0.1106222	0	0	4.506192	4.506192
43.76338	-0.09534287	-0.1106222	0	0	0	0
43.78026	-0.09534287	-0.1106222	0	0	0	0
43.79612	-0.09534287	-0.1106222	0	0	0	0
43.81268	-0.09534287	-0.1106222	0	0	0	0
43.8294	-0.09534287	-0.1106222	0	0	0	0
43.84581	-0.09534287	-0.1106222	0	0	0	0
43.86255	-0.09534287	-0.1106222	0	0	0	0
43.87894	-0.09289818	-0.1106222	0.1491411	-4.545322E-07	4.501606	-1.371939E-05
43.89595	-0.08556411	-0.1093998	0.4313624	0.07189446	8.451292	2.152938
43.91213	-0.07089598	-0.1179562	0.9064507	-0.5287628	14.31677	-18.10078
43.92865	-0.05622785	-0.1252903	0.8880282	-0.4440152	-0.5633877	2.5917
43.94521	-0.04522675	-0.131402	0.6640276	-0.3689045	-6.770484	2.270243
43.96206	-0.03667033	-0.1350691	0.5080436	-0.2177316	-4.668904	4.524899
43.97848	-0.0330033	-0.1362914	0.2232964	-0.07443289	-8.560182	4.307902
43.99572	-0.03178096	-0.1362914	0.07087585	0	-4.527094	2.210756
44.01148	-0.03178096	-0.1362914	0	0	-2.147443	0
44.02805	-0.03911502	-0.1179562	-0.442685	1.106713	-13.6945	34.23628
44.0449	-0.06356192	-0.08128591	-1.451224	2.176836	-30.1841	32.0272
44.06118	-0.1149004	-0.03239213	-3.151773	3.001689	-51.32266	24.8941
44.0781	-0.1760176	0.003055861	-3.612518	2.09526	-13.87495	-27.29636
44.09432	-0.2090209	0.02139103	-2.035195	1.130664	47.60369	-29.11156
44.11111	-0.2359125	0.0287251	-1.601424	0.4367518	13.14115	-21.02219
44.12771	-0.2383572	0.0287251	-0.1472563	0	43.54596	-13.07881
44.1445	-0.259137	0.03483682	-1.237745	0.3640426	-32.6591	10.90273
44.16059	-0.2664711	0.03728151	-0.4559113	0.1519707	23.78197	-6.450844
44.17793	-0.2676934	0.03728151	-0.07047057	0	11.52909	-4.545664
44.19372	-0.2676934	0.03728151	0	0	2.126806	0
44.21835	-0.2676935	0.03850386	-1.210115E-06	0.04963315	-2.994094E-05	1.228035
44.23492	-0.2676935	0.03850386	0	0	2.937262E-05	-1.204725
44.25149	-0.2676935	0.03850386	0	0	0	0
44.26808	-0.2676935	0.03850386	0	0	0	0
44.28462	-0.2676935	0.03850386	0	0	0	0
44.3012	-0.2676935	0.03850386	0	0	0	0
44.31778	-0.2676935	0.03850386	0	0	0	0
44.33432	-0.2676935	0.03850386	0	0	0	0
44.35089	-0.2676935	0.03850386	0	0	0	0
44.36745	-0.2676935	0.03850386	0	0	0	0
44.38402	-0.2676935	0.03850386	0	0	0	0
44.40059	-0.2676935	0.03850386	0	0	0	0
44.41716	-0.2676935	0.03850386	0	0	0	0
44.43376	-0.2676935	0.03850386	0	0	0	0
44.45032	-0.2689158	0.03850386	-0.07379772	0	-2.22517	0
44.46685	-0.2848063	0.04094854	-0.961143	0.1478679	-26.811	4.467805
44.48342	-0.3214766	0.04706026	-2.213425	0.3689043	-37.83316	6.677812
