Time	Pos X	Pos Y	Vel X	Vel Y	Acc X	Acc Y
0.01656513	0.03789268	0.01527931	-0.0005993801	-0.0002416855	9.48338E-06	3.823943E-06
0.03335923	0.03789268	0.01527931	0	0	-9.483414E-06	-3.823957E-06
0.04990857	0.03789268	0.01527931	0	0	0	0
0.06626291	0.03789268	0.01527931	0	0	0	0
0.08299068	0.03789268	0.01527931	0	0	0	0
0.09980017	0.03789268	0.01527931	0	0	0	0
0.1159646	0.03789268	0.01527931	0	0	0	0
0.1325313	0.03789268	0.01527931	0	0	0	0
0.1490985	0.03789268	0.01527931	0	0	0	0
0.165666	0.03789268	0.01527931	0	0	0	0
0.27731	0.03789268	0.01527931	0	0	0	0
0.2944072	0.03789268	0.01527931	0	0	0	0
0.3104454	0.03789268	0.01527931	0	0	0	0
0.3271017	0.03789268	0.01527931	0	0	0	0
0.34358	0.03789268	0.01527931	0	0	0	0
0.3601455	0.03789268	0.01527931	0	0	0	0
0.376713	0.03789268	0.01527931	0	0	0	0
0.3936216	0.03789268	0.01527931	0	0	0	0
0.4098465	0.03789268	0.01527931	0	0	0	0
0.4265889	0.03789268	0.01527931	0	0	0	0
0.4432168	0.03789268	0.01527931	0	0	0	0
0.4601159	0.03789268	0.01527931	0	0	0	0
0.4762677	0.03789268	0.01527931	0	0	0	0
0.4926797	0.03789268	0.01527931	0	0	0	0
0.5092472	0.03789268	0.01527931	0	0	0	0
0.5258143	0.03789268	0.01527931	0	0	0	0
0.5423814	0.03789268	0.01527931	0	0	0	0
0.5589473	0.03789268	0.01527931	0	0	0	0
0.5755152	0.03789268	0.01527931	0	0	0	0
0.5920811	0.03789268	0.01527931	0	0	0	0
0.6086482	0.03789268	0.01527931	0	0	0	0
0.6253255	0.03789268	0.01527931	0	0	0	0
0.6421465	0.03789268	0.01527931	0	0	0	0
0.658348	0.03789268	0.01527931	0	0	0	0
0.6749151	0.03789268	0.01527931	0	0	0	0
0.6917179	0.03789268	0.01527931	0	0	0	0
0.7080478	0.03789268	0.01527931	0	0	0	0
0.7246145	0.03789268	0.01527931	0	0	0	0
0.7411804	0.03789268	0.01527931	0	0	0	0
0.7584316	0.03789268	0.01527931	0	0	0	0
0.7744409	0.03789268	0.01527931	0	0	0	0
0.790948	0.03789268	0.01527931	0	0	0	0
0.8079419	0.03789268	0.01527931	0	0	0	0
0.824012	0.03789268	0.01527931	0	0	0	0
0.8405787	0.03789268	0.01527931	0	0	0	0
0.8571458	0.03789268	0.01527931	0	0	0	0
0.8737129	0.03789268	0.01527931	0	0	0	0
0.8902832	0.03789268	0.01527931	0	0	0	0
0.9068885	0.03789268	0.01527931	0	0	0	0
0.9234189	0.03789268	0.01527931	0	0	0	0
0.9399844	0.03789268	0.01527931	0	0	0	0
0.9570004	0.03789268	0.01527931	0	0	0	0
0.9738182	0.03789268	0.01527931	0	0	0	0
0.989683	0.03789268	0.01527931	0	0	0	0
1.006251	0.03789268	0.01527931	0	0	0	0
1.023169	0.03789268	0.01527931	0	0	0	0
1.039381	0.03789268	0.01527931	0	0	0	0
1.055949	0.03789268	0.01527931	0	0	0	0
1.072515	0.03789268	0.01527931	0	0	0	0
1.089082	0.03789268	0.01527931	0	0	0	0
1.105911	0.03789268	0.01527931	0	0	0	0
1.122521	0.03789268	0.01527931	0	0	0	0
1.13878	0.03789268	0.01527931	0	0	0	0
1.156008	0.03789268	0.01527931	0	0	0	0
1.171912	0.03789268	0.01527931	0	0	0	0
1.18848	0.03789268	0.01527931	0	0	0	0
1.205045	0.03789268	0.01527931	0	0	0	0
1.221703	0.03789268	0.01527931	0	0	0	0
1.238181	0.03789268	0.01527931	0	0	0	0
1.255235	0.03789268	0.01527931	0	0	0	0
1.271313	0.03789268	0.01527931	0	0	0	0
1.288588	0.03789268	0.01527931	0	0	0	0
1.304447	0.03789268	0.01527931	0	0	0	0
1.321013	0.03789268	0.01527931	0	0	0	0
1.337757	0.03789268	0.01527931	0	0	0	0
1.354147	0.03789268	0.01527931	0	0	0	0
1.370714	0.03789268	0.01527931	0	0	0	0
1.387279	0.03789268	0.01527931	0	0	0	0
1.403847	0.03789268	0.01527931	0	0	0	0
1.420412	0.03789268	0.01527931	0	0	0	0
1.43698	0.03789268	0.01527931	0	0	0	0
1.453547	0.03789268	0.01527931	0	0	0	0
1.470135	0.03789268	0.01527931	0	0	0	0
1.486677	0.03789268	0.01527931	0	0	0	0
1.503373	0.03789268	0.01527931	0	0	0	0
1.520319	0.03789268	0.01527931	0	0	0	0
1.536379	0.03789268	0.01527931	0	0	0	0
1.55295	0.03789268	0.01527931	0	0	0	0
1.569514	0.03789268	0.01527931	0	0	0	0
1.586081	0.03789268	0.01527931	0	0	0	0
1.602889	0.03789268	0.01527931	0	0	0	0
1.619213	0.03789268	0.01527931	0	0	0	0
1.63578	0.03789268	0.01527931	0	0	0	0
1.652764	0.0440044	0.01527931	0.3598697	5.483803E-08	10.72617	1.634486E-06
1.668913	0.05622785	0.01527931	0.7569144	-5.767044E-08	11.98365	-3.395745E-06
1.68548	0.06722894	0.01527931	0.6640322	0	-2.839032	1.762751E-06
1.702045	0.07456302	0.01527931	0.4427303	5.62204E-08	-6.679265	1.696827E-06
1.718926	0.08311942	0.01527931	0.5068662	0	1.917564	-1.680903E-06
1.735181	0.110011	0.01527931	1.654416	-5.729656E-08	34.63213	-1.729164E-06
1.751746	0.1576824	0.01405696	2.877743	-0.07378833	37.27384	-2.248272
1.768314	0.2114656	0.01405696	3.246219	1.124246E-07	11.12094	2.227004
1.78488	0.2493583	0.01283462	2.287436	-0.07378838	-28.93694	-2.227005
1.801447	0.2860286	0.01038993	2.21344	-0.1475628	-2.233326	-2.226636
1.818013	0.294585	0.01038993	0.516506	0	-51.21579	4.453646
1.834749	0.298252	0.01038993	0.2191115	0	-8.930242	0
1.851147	0.298252	0.01038993	0	0	-6.612941	0
1.867714	0.3043638	0.01038993	0.3688983	0	11.19054	0
1.88428	0.3068085	0.01038993	0.1475735	0	-6.679739	0
1.900861	0.3068085	0.01038993	0	0	-4.452065	0
1.917437	0.3068085	0.01038993	0	0	0	0
1.93398	0.3068085	0.01038993	0	0	0	0
1.950547	0.3068085	0.01038993	0	0	0	0
1.967111	0.3080308	0.01038993	0.07379167	0	2.227293	0
1.983679	0.3116978	0.009167584	0.2213278	-0.07377606	4.452891	-2.226686
2.000546	0.3153649	0.009167584	0.2174109	0	-0.1171508	2.206545
2.016815	0.3178096	0.009167584	0.1502707	0	-2.026228	0
2.033382	0.3178096	0.009167584	0	0	-4.576474	0
2.050048	0.3178096	0.009167584	0	0	0	0
2.066595	0.3178096	0.009167584	0	0	0	0
2.083079	0.3190319	0.009167584	0.07415027	0	2.244854	0
2.099758	0.3202543	0.009167584	0.07328892	0	-0.02597307	0
2.116411	0.3202543	0.009167584	0	0	-2.19878	0
2.140011	0.3202543	0.009167584	0	0	0	0
2.156586	0.3202543	0.009167584	0	0	0	0
2.173155	0.3202543	0.009167584	0	0	0	0
2.189719	0.3202543	0.009167584	0	0	0	0
2.206899	0.3226989	0.009167584	0.1423008	0	4.217087	0
2.222853	0.3251436	0.009167584	0.153235	0	0.3300058	0
2.239522	0.3275883	0.009167584	0.1466563	0	-0.201656	0
2.256556	0.3275883	0.009167584	0	0	-4.351483	0
2.272552	0.3275883	0.009167584	0	0	0	0
2.289117	0.3275883	0.009167584	0	0	0	0
2.305846	0.3275883	0.009167584	0	0	0	0
2.322398	0.3275883	0.009167584	0	0	0	0
2.338817	0.3275883	0.009167584	0	0	0	0
2.355384	0.3275883	0.009167584	0	0	0	0
2.372669	0.3275883	0.009167584	0	0	0	0
2.388518	0.3275883	0.009167584	0	0	0	0
2.405192	0.3275883	0.009167584	0	0	0	0
2.421649	0.3275883	0.009167584	0	0	0	0
2.438716	0.3275883	0.009167584	0	0	0	0
2.45478	0.3275883	0.009167584	0	0	0	0
2.471348	0.3275883	0.009167584	0	0	0	0
2.487916	0.3275883	0.009167584	0	0	0	0
2.504481	0.3275883	0.009167584	0	0	0	0
2.521225	0.3275883	0.009167584	0	0	0	0
2.537615	0.326366	0.009167584	-0.07457525	0	-2.250669	0
2.554181	0.3202543	0.01650165	-0.3689302	0.442717	-8.931657	13.43343
2.570748	0.3092532	0.04706027	-0.6640666	1.844628	-8.907811	42.3125
2.587318	0.2884733	0.1228456	-1.254022	4.573492	-17.80359	82.35134
2.603883	0.2725828	0.2157438	-0.9592755	5.608072	8.895133	31.22258
2.620452	0.2762499	0.3575357	0.2213231	8.557839	35.6313	89.02607
2.637017	0.2800257	0.4142289	0.2279445	3.422501	0.1998402	-154.9893
2.653584	0.2705636	0.4204704	-0.5711446	0.3767431	-24.11847	-91.92842
2.670151	0.2670704	0.4226978	-0.2108536	0.1344479	10.87384	-7.312641
2.686717	0.2671753	0.4226314	0.006334192	-0.004006318	6.555024	-4.178738
2.703284	0.2668191	0.4228564	-0.02150253	0.01357828	-0.8401503	0.530727
2.72036	0.2670673	0.4226998	0.01453095	-0.00916954	1.071054	-0.6761528
2.736598	0.2670673	0.4226998	0	0	-0.436169	0.2752381
2.753315	0.2670673	0.4226998	0	0	0	0
2.76955	0.2670673	0.4226998	0	0	0	0
2.78612	0.2670673	0.4226998	0	0	0	0
2.8027	0.2670673	0.4226998	0	0	0	0
2.81927	0.2670673	0.4226998	0	0	0	0
2.835837	0.2670673	0.4226998	0	0	0	0
2.852404	0.2670673	0.4226998	0	0	0	0
2.86916	0.2654582	0.4237122	-0.09602565	0.06041554	-2.881638	1.813013
2.885556	0.2619479	0.4258912	-0.2141034	0.1329035	-3.561723	2.186543
2.902103	0.260997	0.4264745	-0.05746261	0.03525452	4.754902	-2.964179
2.919211	0.257053	0.4288633	-0.2305446	0.1396351	-5.142807	3.101472
2.935237	0.2558888	0.429559	-0.07264099	0.04340534	4.765575	-2.90424
2.951801	0.2533191	0.4310793	-0.1551376	0.09178746	-2.531317	1.484552
2.96837	0.2516367	0.4320636	-0.1015422	0.05940544	1.617584	-0.9773334
2.984937	0.2506042	0.4326633	-0.06232101	0.03619742	1.183628	-0.7003793
3.002013	0.2492931	0.4334201	-0.0767811	0.04432072	-0.4298158	0.2414594
3.018071	0.2479751	0.4341755	-0.08207811	0.04703832	-0.1598688	0.08201967
3.034636	0.2473135	0.4345527	-0.0399371	0.0227734	1.291765	-0.7438023
3.051599	0.2466502	0.4349295	-0.03910423	0.0222125	0.02484127	-0.01672922
3.067773	0.2453185	0.4356821	-0.08233804	0.0465286	-1.304686	0.7337978
3.08434	0.2433078	0.4368081	-0.1213653	0.06797053	-1.191996	0.6548941
3.100907	0.2433078	0.4368081	0	0	3.662838	-2.051369
3.117689	0.2433078	0.4368081	0	0	0	0
3.134038	0.2433078	0.4368081	0	0	0	0
3.150604	0.2433078	0.4368081	0	0	0	0
3.167497	0.2433078	0.4368081	0	0	0	0
3.183736	0.2433078	0.4368081	0	0	0	0
3.200304	0.2433078	0.4368081	0	0	0	0
3.21687	0.2433078	0.4368081	0	0	0	0
3.233437	0.2433078	0.4368081	0	0	0	0
3.250004	0.2433078	0.4368081	0	0	0	0
3.26657	0.2433078	0.4368081	0	0	0	0
3.283137	0.2433078	0.4368081	0	0	0	0
3.300076	0.2433078	0.4368081	0	0	0	0
3.31627	0.2433078	0.4368081	0	0	0	0
3.332837	0.2433078	0.4368081	0	0	0	0
3.349561	0.2433078	0.4368081	0	0	0	0
3.366106	0.2433078	0.4368081	0	0	0	0
3.382539	0.2433078	0.4368081	0	0	0	0
3.399103	0.2433078	0.4368081	0	0	0	0
3.41567	0.2433078	0.4368081	0	0	0	0
3.432236	0.2433078	0.4368081	0	0	0	0
3.448802	0.2433078	0.4368081	0	0	0	0
3.465369	0.2433078	0.4368081	0	0	0	0
3.482144	0.2433078	0.4368081	0	0	0	0
3.498503	0.2433078	0.4368081	0	0	0	0
3.515072	0.2433078	0.4368081	0	0	0	0
3.531638	0.2433078	0.4368081	0	0	0	0
3.548208	0.2433078	0.4368081	0	0	0	0
3.564771	0.2433078	0.4368081	0	0	0	0
3.581338	0.2433078	0.4368081	0	0	0	0
3.598038	0.2433078	0.4368081	0	0	0	0
3.614471	0.2433078	0.4368081	0	0	0	0
3.631038	0.2433078	0.4368081	0	0	0	0
3.647604	0.2433078	0.4368081	0	0	0	0
3.664257	0.2433078	0.4368081	0	0	0	0
3.680738	0.2433078	0.4368081	0	0	0	0
3.697305	0.2433078	0.4368081	0	0	0	0
3.713872	0.2433078	0.4368081	0	0	0	0
3.730436	0.2433078	0.4368081	0	0	0	0
24.23485	0.2433078	0.4368081	0	0	0	0
24.26439	0.2433078	0.4368081	0	0	0	0
24.28096	0.2400374	0.4386139	-0.1973573	0.1089703	-4.279774	2.363066
24.29753	0.2388084	0.4392841	-0.07418277	0.04045663	3.716988	-2.06751
24.3141	0.2370223	0.4402504	-0.1077976	0.0583199	-1.014438	0.5390837
24.33066	0.2303379	0.4437843	-0.403519	0.2133294	-8.924891	4.678195
24.35758	0.2257204	0.4461505	-0.171523	0.08789699	5.335003	-2.884455
24.37416	0.1320132	0.2621929	-5.654877	-11.10115	-126.0791	-257.2705
24.39072	0.1075663	0.2218555	-1.475787	-2.435048	126.1179	261.5284
24.40729	0.06967364	0.1570713	-2.287206	-3.910386	-24.4901	-44.52834
24.42395	0.04155971	0.1106222	-1.686861	-2.786987	18.06438	33.80304
24.44042	0.02322454	0.08739763	-1.113636	-1.410607	17.30195	41.54404
24.46206	0.009778756	0.0727295	-0.6214268	-0.67792	12.91848	19.23001
24.48804	0.004889378	0.06661777	-0.188184	-0.2352301	9.098133	9.296523
24.50501	0.004889378	0.06539543	0	-0.07199858	4.380527	3.799686
24.52117	0.004889378	0.06539543	0	0	0	2.172796
24.53788	0.004889378	0.06539543	0	0	0	0
24.55431	0.004889378	0.06539543	0	0	0	0
24.57091	0.004889378	0.06539543	0	0	0	0
24.5876	0.004889378	0.06539543	0	0	0	0
24.60401	0.004889378	0.06539543	0	0	0	0
24.62057	0.004889378	0.06539543	0	0	0	0
24.63714	0.003667033	0.0617284	-0.07377237	-0.2213171	-2.226326	-6.67898
24.65371	-0.004889378	0.03728151	-0.5165254	-1.475787	-13.36231	-37.85998
24.67027	-0.02811392	-0.03239213	-1.401836	-4.205509	-26.72028	-82.38792
24.68684	-0.03789268	-0.06661777	-0.5903147	-2.066102	24.49318	64.57116
24.70341	-0.04155971	-0.09228701	-0.2213681	-1.549577	11.13611	15.59055
24.71997	-0.04155971	-0.1020658	-2.248331E-07	-0.5901792	6.680896	28.95468
24.73661	-0.04155971	-0.1032881	0	-0.0734926	6.771832E-06	15.56228
24.75311	-0.04155971	-0.1032881	0	0	0	2.218011
24.76981	-0.04155971	-0.09962108	0	0.2195977	0	6.614147
24.78652	-0.03911503	-0.09350935	0.1462484	0.3656213	4.376749	4.37002
24.80281	-0.03789268	-0.08984232	0.07505989	0.2251794	-2.157165	-4.255691
24.81938	-0.03789268	-0.08861997	2.24859E-07	0.07378118	-2.28477	-4.60847
24.83594	-0.03789268	-0.08739763	-2.24859E-07	0.07378072	-1.357251E-05	-1.37164E-05
24.85251	-0.03789268	-0.08739763	0	0	6.786257E-06	-2.226707
24.87826	-0.03544799	-0.08495294	0.09492835	0.09492806	2.243095	2.243088
24.89484	-0.03055861	-0.07761887	0.2950214	0.4425324	4.72743	8.212554
24.9114	-0.03055861	-0.07639653	0	0.07378072	-8.902227	-11.12703
24.92797	-0.03055861	-0.07639653	0	0	0	-2.226707
24.94454	-0.03055861	-0.07517418	1.124295E-07	0.07378118	3.393129E-06	2.22672
24.96112	-0.03055861	-0.07517418	0	0	-3.391372E-06	-2.225567
24.97767	-0.03055861	-0.07517418	0	0	0	0
24.99424	-0.03055861	-0.07517418	0	0	0	0
25.01081	-0.03055861	-0.07517418	0	0	0	0
25.02737	-0.03055861	-0.07517418	0	0	0	0
25.04394	-0.03055861	-0.07517418	0	0	0	0
25.0605	-0.03055861	-0.07517418	0	0	0	0
25.07707	-0.03055861	-0.07517418	0	0	0	0
25.09364	-0.03055861	-0.07517418	0	0	0	0
25.1102	-0.03055861	-0.07517418	0	0	0	0
25.12677	-0.03055861	-0.07517418	0	0	0	0
25.14337	-0.02933627	-0.0727295	0.07364496	0.1472901	2.220564	4.441135
25.16018	-0.02933627	-0.0727295	0	0	-2.204337	-4.408681
25.17647	-0.02933627	-0.0727295	0	0	0	0
25.19304	-0.02933627	-0.0727295	0	0	0	0
25.2096	-0.02933627	-0.0727295	0	0	0	0
25.22617	-0.02933627	-0.0727295	0	0	0	0
25.24274	-0.02933627	-0.0727295	0	0	0	0
25.25931	-0.02933627	-0.0727295	0	0	0	0
25.27587	-0.02933627	-0.0727295	0	0	0	0
25.29244	-0.02933627	-0.0727295	0	0	0	0
25.30901	-0.02933627	-0.0727295	0	0	0	0
25.32557	-0.02933627	-0.0727295	0	0	0	0
25.34214	-0.02933627	-0.07150715	2.24859E-07	0.07378118	6.786648E-06	2.226849
25.35905	-0.02444689	-0.05928371	0.2890991	0.7227474	8.635051	19.38388
25.37527	-0.0220022	-0.05194964	0.150702	0.4521063	-4.176831	-8.167966
25.39189	-0.0220022	-0.04950495	0	0.1471553	-4.589675	-9.287374
25.40894	-0.01955751	-0.04461557	0.1433532	0.2867063	4.258022	4.145087
25.42497	-0.01955751	-0.04339323	0	0.07624739	-4.332892	-6.361184
25.44221	-0.01833517	-0.04217089	0.07090743	0.07090743	2.13128	-0.1605045
25.45821	-0.01833517	-0.04094854	0	0.07639305	-2.133237	0.165034
25.47467	-0.01833517	-0.04094854	0	0	0	-2.353368
25.49124	-0.01833517	-0.04094854	0	0	0	0
25.50781	-0.01833517	-0.04094854	0	0	0	0
25.52437	-0.01833517	-0.04094854	0	0	0	0
25.5421	-0.01466813	-0.03850385	0.2068181	0.1378787	6.030045	4.020029
25.55904	-0.01344579	-0.03728151	0.07218527	0.07218533	-3.883922	-1.895139
25.57524	-0.01344579	-0.03728151	0	0	-2.178305	-2.178307
25.59181	-0.01344579	-0.03728151	0	0	0	0
25.60838	-0.01344579	-0.03728151	0	0	0	0
25.62494	-0.01344579	-0.03728151	0	0	0	0
25.64202	-0.01344579	-0.03728151	0	0	0	0
25.65808	-0.01344579	-0.03728151	0	0	0	0
25.67469	-0.01344579	-0.03728151	0	0	0	0
25.69121	-0.01344579	-0.03728151	0	0	0	0
25.70782	-0.01344579	-0.03728151	0	0	0	0
25.72434	-0.01344579	-0.03728151	0	0	0	0
25.74096	-0.01344579	-0.03728151	0	0	0	0
25.75782	-0.01344579	-0.03728151	0	0	0	0
25.77404	-0.01344579	-0.03728151	0	0	0	0
25.79104	-0.01344579	-0.03728151	0	0	0	0
25.80717	-0.01344579	-0.03728151	0	0	0	0
25.82374	-0.01344579	-0.03728151	0	0	0	0
25.84101	-0.01344579	-0.03728151	0	0	0	0
25.85687	-0.01344579	-0.03728151	0	0	0	0
25.87348	-0.01344579	-0.03728151	0	0	0	0
25.89013	-0.01344579	-0.03728151	0	0	0	0
25.90661	-0.01344579	-0.03728151	0	0	0	0
25.92333	-0.01344579	-0.03728151	0	0	0	0
25.94001	-0.01344579	-0.03728151	0	0	0	0
25.95662	-0.009778757	-0.03483682	0.2207326	0.1471549	6.630426	4.420278
25.97284	-0.003667034	-0.02261337	0.3768882	0.7537763	4.756593	18.47806
25.9894	0.002444689	0.03483682	0.3689893	3.468499	-0.2409692	82.81721
26.00597	-0.003667033	0.1301797	-0.3688618	5.754245	-22.26967	68.98792
26.02254	-0.007334067	0.1876299	-0.2213426	3.4677	4.451883	-69.00408
26.03953	-0.01955751	0.2890845	-0.7196637	5.973208	-14.85213	74.675
26.05596	-0.02811392	0.3526464	-0.5207828	3.868673	5.951874	-62.98206
26.07224	-0.03178095	0.3770933	-0.2251793	1.501195	9.035761	-72.36709
26.08881	-0.0330033	0.3893167	-0.07378095	0.7378109	4.608474	-23.23695
26.10537	-0.0330033	0.3954284	0	0.3689461	2.226841	-11.133
26.12198	-0.0330033	0.3966508	0	0.07359612	0	-8.902918
26.13851	-0.03422565	0.3966508	-0.0739683	-1.80344E-06	-2.232368	-2.22119
26.1551	-0.03422565	0.3966508	0	0	2.233268	5.444985E-05
26.17196	-0.03422565	0.3966508	0	0	0	0
26.18895	-0.03422564	0.3942061	2.193044E-07	-0.1439163	6.480227E-06	-4.252584
26.20509	-0.03422564	0.3942061	0	0	-6.61862E-06	4.343403
26.22227	-0.03422564	0.3942061	0	0	0	0
26.23823	-0.03422564	0.3942061	0	0	0	0
26.2548	-0.03544799	0.3746486	-0.07378945	-1.180631	-2.268629	-36.29806
26.27192	-0.03911503	0.3624251	-0.2141916	-0.7139699	-4.168007	13.8534
26.28793	-0.04033737	0.3318665	-0.07633822	-1.908459	4.160663	-36.05184
26.30457	-0.0330033	0.2206332	0.4406055	-6.682516	15.82919	-146.1851
26.32117	-0.01222344	0.1032881	1.2524	-7.072378	24.42409	-11.7296
26.33804	0.007334067	0.017724	1.159011	-5.070672	-2.790547	59.81251
26.3542	0.01711282	-0.01894634	0.6052278	-2.269604	-16.76532	84.79999
26.37146	0.02077986	-0.03116978	0.2124399	-0.7081331	-11.75355	46.72453
26.38733	0.0220022	-0.03728151	0.07699884	-0.3849937	-4.087384	9.751804
26.40394	0.0220022	-0.03728151	0	0	-2.370219	11.85108
26.42094	0.0220022	-0.03728151	0	0	0	0
26.43703	0.0220022	-0.03728151	0	0	0	0
26.45359	0.0220022	-0.03728151	0	0	0	0
26.47016	0.0220022	-0.03728151	0	0	0	0
26.48673	0.0220022	-0.03728151	0	0	0	0
26.5033	0.0220022	-0.03728151	0	0	0	0
26.51987	0.0220022	-0.03728151	0	0	0	0
26.53647	0.0220022	-0.03728151	0	0	0	0
26.553	0.0220022	-0.03728151	0	0	0	0
26.56996	0.0220022	-0.03728151	0	0	0	0
26.58613	0.0220022	-0.03728151	0	0	0	0
26.60305	0.0220022	-0.03728151	0	0	0	0
26.61927	0.0220022	-0.03728151	0	0	0	0
26.63616	0.0220022	-0.03728151	0	0	0	0
26.6524	0.0220022	-0.03728151	0	0	0	0
26.66897	0.0220022	-0.03728151	0	0	0	0
26.68554	0.0220022	-0.03728151	0	0	0	0
26.70235	0.0220022	-0.03728151	0	0	0	0
26.71867	0.0220022	-0.03728151	0	0	0	0
26.73523	0.0220022	-0.03728151	0	0	0	0
26.7518	0.0220022	-0.03728151	0	0	0	0
26.76837	0.0220022	-0.03728151	0	0	0	0
26.78493	0.0220022	-0.03728151	0	0	0	0
26.8015	0.0220022	-0.03728151	0	0	0	0
26.81852	0.0220022	-0.03728151	0	0	0	0
26.83998	0.0220022	-0.03728151	0	0	0	0
26.85657	0.0220022	-0.03728151	0	0	0	0
26.8732	0.0220022	-0.03728151	0	0	0	0
26.88968	0.0220022	-0.03728151	0	0	0	0
26.90657	0.0220022	-0.03728151	0	0	0	0
26.92281	0.0220022	-0.03728151	0	0	0	0
26.93989	0.0220022	-0.03728151	0	0	0	0
26.95595	0.0220022	-0.03728151	0	0	0	0
26.97267	0.0220022	-0.03728151	0	0	0	0
26.98987	0.0220022	-0.03850385	0	-0.07105681	0	-2.094817
27.00565	0.0220022	-0.03850385	0	0	0	2.15442
27.02236	0.0220022	-0.03850385	0	0	0	0
27.03878	0.0220022	-0.03850385	0	0	0	0
27.05567	0.0220022	-0.03850385	0	0	0	0
27.07191	0.0220022	-0.03850385	0	0	0	0
27.08848	0.0220022	-0.03850385	0	0	0	0
27.10505	0.0220022	-0.03850385	0	0	0	0
27.12194	0.0220022	-0.03850385	0	0	0	0
27.13819	0.0220022	-0.03850385	0	0	0	0
27.15475	0.0220022	-0.03850385	0	0	0	0
27.17132	0.0220022	-0.03850385	0	0	0	0
27.18789	0.0220022	-0.03850385	0	0	0	0
27.20506	0.0220022	-0.03850385	0	0	0	0
27.22102	0.0220022	-0.03850385	0	0	0	0
27.23759	0.0220022	-0.03850385	0	0	0	0
27.25416	0.0220022	-0.03850385	0	0	0	0
27.27072	0.0220022	-0.03850385	0	0	0	0
27.2875	0.0220022	-0.03850385	0	0	0	0
27.30386	0.0220022	-0.03850385	0	0	0	0
27.32071	0.0220022	-0.03850385	0	0	0	0
27.33699	0.0220022	-0.03850385	0	0	0	0
27.35357	0.0220022	-0.03850385	0	0	0	0
27.37036	0.0220022	-0.03850385	0	0	0	0
27.38669	0.0220022	-0.03850385	0	0	0	0
27.40326	0.0220022	-0.03850385	0	0	0	0
27.4199	0.0220022	-0.03850385	0	0	0	0
27.43639	0.0220022	-0.03850385	0	0	0	0
27.45296	0.0220022	-0.03850385	0	0	0	0
27.46952	0.0220022	-0.03850385	0	0	0	0
27.48609	0.0220022	-0.03850385	0	0	0	0
27.50282	0.0220022	-0.03850385	0	0	0	0
27.51972	0.0220022	-0.03850385	0	0	0	0
27.53579	0.0220022	-0.03850385	0	0	0	0
27.55236	0.0220022	-0.03850385	0	0	0	0
27.56892	0.0220022	-0.03850385	0	0	0	0
27.5855	0.0220022	-0.03850385	0	0	0	0
27.60206	0.0220022	-0.03850385	0	0	0	0
27.61863	0.0220022	-0.03850385	0	0	0	0
27.6352	0.0220022	-0.03850385	0	0	0	0
27.65178	0.0220022	-0.03850385	0	0	0	0
27.66839	0.0220022	-0.03850385	0	0	0	0
27.68489	0.0220022	-0.03850385	0	0	0	0
27.70167	0.0220022	-0.03850385	0	0	0	0
27.71802	0.0220022	-0.03850385	0	0	0	0
27.73494	0.02322455	-0.03850385	0.07225032	0	2.171395	0
27.75116	0.02444689	-0.03850385	0.07538635	0	0.09465106	0
27.76772	0.02689158	-0.03605916	0.1475618	0.1475617	2.201706	4.501357
27.78457	0.03055861	-0.03483682	0.2176097	0.07253665	2.096073	-2.245004
27.80086	0.03422565	-0.03239213	0.2252058	0.1501374	0.22925	2.341994
27.81742	0.03911503	-0.02750275	0.2951236	0.2951232	2.128378	4.413538
27.83451	0.04155971	-0.02383572	0.1430969	0.2146456	-4.5177	-2.391512
27.85081	0.0440044	-0.02261337	0.1499792	0.07498951	0.2061557	-4.183285
27.86712	0.04522675	-0.02016868	0.07491949	0.1498389	-2.301341	2.29489
27.88407	0.04522675	-0.01894634	0	0.07213646	-2.252517	-2.336188
27.90026	0.04644909	-0.017724	0.07551071	0.07551082	2.279049	0.1018443
27.91682	0.04644909	-0.01650165	0	0.07378095	-2.305326	-0.05281274
27.93339	0.04644909	-0.01650165	0	0	0	-2.226713
27.94996	0.04767144	-0.01527931	0.07378095	0.07378078	2.226713	2.226708
27.96678	0.04767144	-0.01527931	0	0	-2.209795	-2.20979
27.98339	0.04767144	-0.01527931	0	0	0	0
27.99966	0.04767143	-0.01405696	-2.289981E-07	0.07513909	-6.964901E-06	2.28533
28.01629	0.04767143	-0.01405696	0	0	6.960863E-06	-2.284005
28.03299	0.04767143	-0.01405696	0	0	0	0
28.04967	0.04767143	-0.01405696	0	0	0	0
28.06592	0.04767143	-0.01405696	0	0	0	0
28.08249	0.04767143	-0.01405696	0	0	0	0
28.09906	0.04767143	-0.01405696	0	0	0	0
28.11613	0.04767143	-0.01405696	0	0	0	0
28.13219	0.04767143	-0.01405696	0	0	0	0
28.14876	0.04767143	-0.01405696	0	0	0	0
28.16533	0.04767143	-0.01405696	0	0	0	0
28.1819	0.04767143	-0.01405696	0	0	0	0
28.19849	0.04767143	-0.01405696	0	0	0	0
28.21503	0.04767143	-0.01405696	0	0	0	0
28.23159	0.04767143	-0.01405696	0	0	0	0
28.24847	0.04767143	-0.01405696	0	0	0	0
28.26473	0.04767143	-0.01405696	0	0	0	0
28.2813	0.04767143	-0.01405696	0	0	0	0
28.29836	0.04767143	-0.01405696	0	0	0	0
28.31443	0.04767143	-0.01405696	0	0	0	0
28.33132	0.04767143	-0.01405696	0	0	0	0
28.34756	0.04767143	-0.01405696	0	0	0	0
28.36416	0.04767143	-0.01405696	0	0	0	0
28.3807	0.04767143	-0.01405696	0	0	0	0
28.39752	0.04767143	-0.01405696	0	0	0	0
28.41384	0.04767143	-0.01405696	0	0	0	0
28.4304	0.04767143	-0.01405696	0	0	0	0
28.44773	0.04767143	-0.01405696	0	0	0	0
28.46379	0.04767143	-0.01405696	0	0	0	0
28.4801	0.04767143	-0.01405696	0	0	0	0
28.49671	0.04767143	-0.01405696	0	0	0	0
28.51323	0.04889378	-0.01405696	0.07395954	-5.635098E-08	2.23236	-1.700872E-06
28.52995	0.04889378	-0.01405696	0	0	-2.224548	1.69492E-06
28.54637	0.04889378	-0.01405696	0	0	0	0
28.56303	0.04889378	-0.01405696	0	0	0	0
28.5795	0.04889378	-0.01405696	0	0	0	0
28.59607	0.04889378	-0.01405696	0	0	0	0
28.61263	0.04889378	-0.01405696	0	0	0	0
28.6292	0.04889378	-0.01405696	0	0	0	0
28.64577	0.04889378	-0.01405696	0	0	0	0
28.66233	0.04889378	-0.01405696	0	0	0	0
28.67891	0.04889378	-0.01405696	0	0	0	0
28.69547	0.04889378	-0.01405696	0	0	0	0
28.71204	0.04889378	-0.01405696	0	0	0	0
28.7286	0.04889378	-0.01405696	0	0	0	0
28.74517	0.04889378	-0.01405696	0	0	0	0
28.76174	0.04889378	-0.01405696	0	0	0	0
28.77831	0.04889378	-0.01405696	0	0	0	0
28.80096	0.04889378	-0.01405696	0	0	0	0
28.81767	0.04889378	-0.01405696	0	0	0	0
28.83413	0.04889378	-0.01405696	0	0	0	0
28.851	0.04889378	-0.01405696	0	0	0	0
28.86723	0.04889378	-0.01405696	0	0	0	0
28.88379	0.04889378	-0.01405696	0	0	0	0
28.90055	0.04889378	-0.01405696	0	0	0	0
28.91693	0.04889378	-0.01405696	0	0	0	0
28.93349	0.04889378	-0.01405696	0	0	0	0
28.95019	0.04889378	-0.01405696	0	0	0	0
28.96663	0.04889378	-0.01405696	0	0	0	0
28.98319	0.04889378	-0.01405696	0	0	0	0
29.00021	0.04889378	-0.01405696	0	0	0	0
29.01633	0.04889378	-0.01405696	0	0	0	0
29.0329	0.04889378	-0.01405696	0	0	0	0
29.04946	0.04889378	-0.01405696	0	0	0	0
29.06603	0.04889378	-0.01405696	0	0	0	0
29.08266	0.04889378	-0.01405696	0	0	0	0
29.09916	0.04889378	-0.01405696	0	0	0	0
29.11573	0.04889378	-0.01405696	0	0	0	0
29.1323	0.04889378	-0.01405696	0	0	0	0
29.14901	0.04889378	-0.01405696	0	0	0	0
29.16543	0.04889378	-0.01405696	0	0	0	0
29.18215	0.04889378	-0.01405696	0	0	0	0
29.19869	0.04889378	-0.01405696	0	0	0	0
29.21513	0.04889378	-0.01405696	0	0	0	0
29.2317	0.04889378	-0.01405696	0	0	0	0
29.24869	0.04889378	-0.01405696	0	0	0	0
29.26483	0.04889378	-0.01405696	0	0	0	0
29.28149	0.04889378	-0.01405696	0	0	0	0
29.29796	0.04889378	-0.01405696	0	0	0	0
29.31453	0.04889378	-0.01405696	0	0	0	0
29.33109	0.04889378	-0.01405696	0	0	0	0
29.34808	0.04889378	-0.01405696	0	0	0	0
29.36423	0.04889378	-0.01405696	0	0	0	0
29.3811	0.04889378	-0.01405696	0	0	0	0
29.39763	0.04889378	-0.01405696	0	0	0	0
29.41393	0.04889378	-0.01405696	0	0	0	0
29.43067	0.04889378	-0.01405696	0	0	0	0
29.44706	0.04889378	-0.01405696	0	0	0	0
29.46363	0.04889378	-0.01405696	0	0	0	0
29.48019	0.04889378	-0.01405696	0	0	0	0
29.49676	0.04889378	-0.01405696	0	0	0	0
29.51333	0.04889378	-0.01405696	0	0	0	0
29.5299	0.04889378	-0.01405696	0	0	0	0
29.5465	0.04889378	-0.01405696	0	0	0	0
29.56303	0.04889378	-0.01405696	0	0	0	0
29.57959	0.04889378	-0.01405696	0	0	0	0
29.59632	0.04155971	-0.01405696	-0.4384449	5.567631E-08	-13.17088	1.672516E-06
29.61273	-0.006111722	-0.01405696	-2.905552	-5.676369E-08	-74.45744	-3.393446E-06
29.62929	-0.1026769	-0.01894634	-5.82936	-0.2951574	-88.67456	-8.951667
29.64586	-0.1503484	-0.02139103	-2.877453	-0.1475617	89.09385	4.454705
29.66269	-0.2077986	-0.02261337	-3.413855	-0.0726352	-16.06199	2.243592
29.67903	-0.2738052	-0.02261337	-4.039038	-1.139779E-07	-18.84743	2.189736
29.69556	-0.3165872	-0.01894634	-2.58799	0.2218278	44.14081	6.747998
29.71218	-0.3459235	-0.01283462	-1.765254	0.3677612	24.8188	4.40225
29.72869	-0.3593692	-0.006722894	-0.8142127	0.3700973	28.70413	0.07050904
29.74526	-0.365481	-0.004278205	-0.3689054	0.1475617	13.4611	-6.726981
29.76183	-0.3679257	-0.003055861	-0.1475632	0.07378083	6.68012	-2.226712
29.77839	-0.3715927	-0.001833517	-0.2213404	0.07378086	-2.226598	6.745769E-07
29.79496	-0.3728151	-0.0006111722	-0.07378253	0.07378086	4.453305	2.24859E-07
29.81153	-0.3728151	-0.0006111722	0	0	2.226761	-2.226711
29.82809	-0.3728151	-0.0006111722	0	0	0	0
29.84513	-0.3728151	-0.0006111722	0	0	0	0
29.86123	-0.3728151	-0.0006111722	0	0	0	0
29.87779	-0.3728151	-0.0006111722	0	0	0	0
29.89467	-0.3728151	-0.0006111722	0	0	0	0
29.91094	-0.3728151	-0.0006111722	0	0	0	0
29.92752	-0.3715927	-0.001833517	0.07373159	-0.07372993	2.244866	-2.244815
29.94406	-0.3495905	-0.01283462	1.330197	-0.6650997	37.93768	-17.8558
29.96063	-0.3275883	-0.02139103	1.328057	-0.5164658	-0.06464958	4.489398
29.97721	-0.2848063	-0.03483682	2.579656	-0.8107495	37.75379	-8.876899
29.99376	-0.2175773	-0.05561667	4.062625	-1.25572	44.75866	-13.43002
30.01032	-0.141792	-0.07639652	4.574941	-1.254419	15.47152	0.03930505
30.02689	-0.05378316	-0.09106466	5.312221	-0.8853705	22.25245	11.13854
30.04346	0.01711282	-0.09717639	4.279783	-0.368947	-31.16084	15.58659
30.06002	0.06356192	-0.09595405	2.803673	0.07378072	-44.55164	13.36232
30.07747	0.08678646	-0.08861998	1.331331	0.4204203	-43.28911	10.19173
30.09316	0.09778756	-0.08128591	0.7012452	0.4674971	-19.01711	1.420864
30.11046	0.1051216	-0.06906246	0.4238496	0.706416	-8.408116	7.241849
30.12633	0.1075663	-0.06417309	0.1540162	0.3080319	-8.133289	-12.00805
30.14286	0.1112333	-0.05439433	0.2219042	0.5917457	2.095425	8.757078
30.15943	0.113678	-0.04706026	0.1475619	0.4426852	-2.246501	-4.504357
30.17599	0.1185674	-0.03850385	0.2951573	0.5165254	4.454696	2.22863
30.19256	0.1222345	-0.0287251	0.2213176	0.5901788	-2.228488	2.222864
30.20916	0.1234568	-0.02628041	0.07363661	0.1472735	-4.452407	-13.35307
30.22586	0.1246791	-0.02383572	0.07317372	0.1463487	-0.01389861	-0.02777037
30.24226	0.1271238	-0.01894634	0.1491247	0.2982481	2.294714	4.589353
30.25883	0.1295685	-0.01650165	0.1475614	0.1475616	-0.04742654	-4.571676
30.27539	0.1332356	-0.01283462	0.2213176	0.2213171	2.225837	2.22582
30.29196	0.1356802	-0.01038993	0.1475775	0.1475788	-2.225479	-2.225428
30.30921	0.1356802	-0.009167585	8.636414E-07	0.07084455	-4.363695	-2.268955
30.3251	0.1356802	-0.009167585	0	0	-2.606325E-05	-2.13797
30.34166	0.1356802	-0.009167585	0	0	0	0
30.35837	0.1356802	-0.009167585	0	0	0	0
30.3748	0.1356802	-0.009167585	0	0	0	0
30.39162	0.1356802	-0.009167585	0	0	0	0
30.40793	0.1356802	-0.009167585	0	0	0	0
30.42467	0.1356802	-0.009167585	0	0	0	0
30.44106	0.1356802	-0.009167585	0	0	0	0
30.4578	0.1344579	-0.009167585	-0.07300745	0	-2.203115	0
30.47471	0.1222345	-0.009167584	-0.7229925	5.508588E-08	-19.31637	1.637052E-06
30.49076	0.1075663	-0.007945239	-0.9138838	0.07615696	-5.79212	2.310791
30.50737	0.08678646	-0.004278205	-1.250962	0.220758	-10.32038	4.427272
30.52424	0.06478426	0.0006111722	-1.304477	0.2898837	-1.598511	2.064823
30.54126	0.04644909	0.004278206	-1.076956	0.2153912	6.713177	-2.19796
30.55703	0.03422565	0.006722894	-0.7754847	0.1550969	9.19475	-1.83895
30.57359	0.02933627	0.00794524	-0.2951235	0.07378089	14.85827	-2.515222
30.59016	0.02689158	0.00794524	-0.1475787	0	4.453167	-2.22684
30.60673	0.02689158	0.009167584	-1.124295E-07	0.07378083	4.454186	2.226838
30.6235	0.02689158	0.009167584	0	0	3.372164E-06	-2.212952
30.63986	0.02689158	0.009167584	0	0	0	0
30.65643	0.02689158	0.009167584	0	0	0	0
30.67299	0.02689158	0.009167584	0	0	0	0
30.68956	0.02689158	0.009167584	0	0	0	0
30.70613	0.02689158	0.009167584	0	0	0	0
30.72275	0.02689158	0.009167584	0	0	0	0
30.74359	0.02689158	0.009167584	0	0	0	0
30.76016	0.02689158	0.009167584	0	0	0	0
30.77703	0.02689158	0.009167584	0	0	0	0
30.79329	0.02689158	0.009167584	0	0	0	0
30.80986	0.02689158	0.009167584	0	0	0	0
30.82732	0.02689158	0.009167584	0	0	0	0
30.84316	0.02689158	0.009167584	0	0	0	0
30.85956	0.02689158	0.009167584	0	0	0	0
30.87613	0.02689158	0.009167584	0	0	0	0
30.89269	0.02689158	0.009167584	0	0	0	0
30.90926	0.02689158	0.009167584	0	0	0	0
30.92669	0.02689158	0.009167584	0	0	0	0
30.94271	0.02689158	0.009167584	0	0	0	0
30.95928	0.02689158	0.009167584	0	0	0	0
30.97574	0.02689158	0.009167584	0	0	0	0
30.9921	0.02689158	0.009167584	0	0	0	0
31.00894	0.02689158	0.009167584	0	0	0	0
31.02529	0.02689158	0.009167584	0	0	0	0
31.0418	0.02689158	0.009167584	0	0	0	0
31.05836	0.02689158	0.009167584	0	0	0	0
31.07493	0.02689158	0.009167584	0	0	0	0
31.09204	0.02689158	0.009167584	0	0	0	0
31.10806	0.02689158	0.009167584	0	0	0	0
31.12463	0.02689158	0.009167584	0	0	0	0
31.14146	0.02689158	0.009167584	0	0	0	0
31.15815	0.02689158	0.009167584	0	0	0	0
31.17433	0.02689158	0.009167584	0	0	0	0
31.19097	0.02689158	0.009167584	0	0	0	0
31.20783	0.02689158	0.009167584	0	0	0	0
31.22403	0.02689158	0.009167584	0	0	0	0
31.24062	0.02689158	0.009167584	0	0	0	0
31.25723	0.02689158	0.009167584	0	0	0	0
31.27373	0.02689158	0.009167584	0	0	0	0
31.2903	0.02689158	0.009167584	0	0	0	0
31.30745	0.02689158	0.009167584	0	0	0	0
31.32343	0.02689158	0.009167584	0	0	0	0
31.34016	0.02689158	0.009167584	0	0	0	0
31.35657	0.02689158	0.009167584	0	0	0	0
31.37366	0.02689158	0.009167584	0	0	0	0
31.3897	0.02689158	0.009167584	0	0	0	0
31.40627	0.02689158	0.009167584	0	0	0	0
31.42283	0.02689158	0.009167584	0	0	0	0
31.43979	0.02689158	0.009167584	0	0	0	0
31.45597	0.02689158	0.009167584	0	0	0	0
31.47256	0.02689158	0.009167584	0	0	0	0
31.4891	0.02689158	0.009167584	0	0	0	0
31.50567	0.02689158	0.009167584	0	0	0	0
31.52224	0.02689158	0.009167584	0	0	0	0
31.57989	0.02689158	0.009167584	0	0	0	0
31.59646	0.02689158	0.009167584	0	0	0	0
31.61303	0.02689158	0.009167584	0	0	0	0
31.62959	0.02689158	0.009167584	0	0	0	0
31.64829	0.02689158	0.009167584	0	0	0	0
31.66486	0.02689158	0.009167584	0	0	0	0
31.68143	0.02689158	0.009167584	0	0	0	0
31.698	0.02689158	0.009167584	0	0	0	0
31.7148	0.02689158	0.009167584	0	0	0	0
31.73113	0.02689158	0.009167584	0	0	0	0
31.74775	0.02689158	0.009167584	0	0	0	0
31.76426	0.02689158	0.009167584	0	0	0	0
31.78083	0.02689158	0.009167584	0	0	0	0
31.7974	0.02689158	0.009167584	0	0	0	0
31.81396	0.02689158	0.009167584	0	0	0	0
31.83053	0.02689158	0.009167584	0	0	0	0
31.8471	0.02689158	0.009167584	0	0	0	0
31.86366	0.02689158	0.009167584	0	0	0	0
31.88023	0.02689158	0.009167584	0	0	0	0
31.89681	0.02689158	0.009167584	0	0	0	0
31.91336	0.02689158	0.009167584	0	0	0	0
31.92993	0.02689158	0.009167584	0	0	0	0
31.9465	0.02689158	0.009167584	0	0	0	0
31.96357	0.02689158	0.009167584	0	0	0	0
31.97963	0.02689158	0.009167584	0	0	0	0
31.9962	0.02689158	0.009167584	0	0	0	0
32.01276	0.02689158	0.009167584	0	0	0	0
32.0295	0.02689158	0.009167584	0	0	0	0
32.0459	0.02689158	0.009167584	0	0	0	0
32.06299	0.02689158	0.009167584	0	0	0	0
32.0835	0.02689158	0.009167584	0	0	0	0
32.10009	0.02689158	0.009167584	0	0	0	0
32.11665	0.02689158	0.009167584	0	0	0	0
32.1332	0.02689158	0.009167584	0	0	0	0
32.14977	0.02689158	0.009167584	0	0	0	0
32.16653	0.02689158	0.009167584	0	0	0	0
32.1829	0.02689158	0.009167584	0	0	0	0
32.19947	0.02689158	0.009167584	0	0	0	0
32.21688	0.02689158	0.009167584	0	0	0	0
32.2326	0.02689158	0.009167584	0	0	0	0
32.24966	0.02689158	0.009167584	0	0	0	0
32.26574	0.02689158	0.009167584	0	0	0	0
32.2823	0.02689158	0.009167584	0	0	0	0
32.29887	0.02689158	0.009167584	0	0	0	0
32.3163	0.02689158	0.009167584	0	0	0	0
32.33216	0.02689158	0.009167584	0	0	0	0
32.34856	0.02689158	0.009167584	0	0	0	0
32.36604	0.02689158	0.009167584	0	0	0	0
32.38169	0.02689158	0.009167584	0	0	0	0
32.39826	0.02689158	0.009167584	0	0	0	0
32.41483	0.02689158	0.009167584	0	0	0	0
32.4314	0.02689158	0.009167584	0	0	0	0
32.44796	0.02689158	0.009167584	0	0	0	0
32.46453	0.02689158	0.009167584	0	0	0	0
32.4811	0.02689158	0.009167584	0	0	0	0
32.49767	0.02689158	0.009167584	0	0	0	0
32.51423	0.02689158	0.009167584	0	0	0	0
32.53139	0.02689158	0.009167584	0	0	0	0
32.54736	0.02689158	0.009167584	0	0	0	0
32.56393	0.02689158	0.009167584	0	0	0	0
32.5805	0.02689158	0.009167584	0	0	0	0
32.59727	0.02689158	0.009167584	0	0	0	0
32.61363	0.02689158	0.009167584	0	0	0	0
32.6302	0.02689158	0.009167584	0	0	0	0
32.64677	0.02689158	0.009167584	0	0	0	0
32.66333	0.02689158	0.009167584	0	0	0	0
32.6799	0.02689158	0.009167584	0	0	0	0
32.69648	0.02689158	0.009167584	0	0	0	0
32.71304	0.02689158	0.009167584	0	0	0	0
32.7296	0.02689158	0.009167584	0	0	0	0
32.74617	0.02689158	0.009167584	0	0	0	0
32.76311	0.02689158	0.009167584	0	0	0	0
32.77931	0.02689158	0.009167584	0	0	0	0
32.79599	0.02689158	0.009167584	0	0	0	0
32.81244	0.02689158	0.009167584	0	0	0	0
32.829	0.02689158	0.009167584	0	0	0	0
32.84597	0.02689158	0.009167584	0	0	0	0
32.86214	0.02689158	0.009167584	0	0	0	0
32.92151	0.02689158	0.009167584	0	0	0	0
32.93828	0.02689158	0.009167584	0	0	0	0
32.95464	0.02689158	0.009167584	0	0	0	0
32.97164	0.02689158	0.009167584	0	0	0	0
32.98777	0.02689158	0.009167584	0	0	0	0
33.00439	0.02689158	0.009167584	0	0	0	0
33.0215	0.02689158	0.009167584	0	0	0	0
33.03748	0.02689158	0.009167584	0	0	0	0
33.05433	0.02689158	0.009167584	0	0	0	0
33.0715	0.02689158	0.009167584	0	0	0	0
33.08717	0.02689158	0.009167584	0	0	0	0
33.10374	0.02689158	0.009167584	0	0	0	0
33.12031	0.02689158	0.009167584	0	0	0	0
33.13688	0.02689158	0.009167584	0	0	0	0
33.15344	0.02689158	0.009167584	0	0	0	0
33.17001	0.02689158	0.009167584	0	0	0	0
33.18658	0.02689158	0.009167584	0	0	0	0
33.20319	0.02689158	0.009167584	0	0	0	0
33.2198	0.02689158	0.009167584	0	0	0	0
33.23627	0.02689158	0.009167584	0	0	0	0
33.25284	0.02689158	0.009167584	0	0	0	0
33.26945	0.02689158	0.009167584	0	0	0	0
33.28598	0.02689158	0.009167584	0	0	0	0
33.30254	0.02689158	0.009167584	0	0	0	0
33.31911	0.02689158	0.009167584	0	0	0	0
33.33568	0.02689158	0.009167584	0	0	0	0
33.35263	0.02689158	0.009167584	0	0	0	0
33.36906	0.02689158	0.009167584	0	0	0	0
33.38538	0.02689158	0.009167584	0	0	0	0
33.40194	0.02689158	0.009167584	0	0	0	0
33.41871	0.02689158	0.009167584	0	0	0	0
33.43508	0.02689158	0.009167584	0	0	0	0
33.45173	0.02689158	0.009167584	0	0	0	0
33.46821	0.02689158	0.009167584	0	0	0	0
33.48489	0.02689158	0.009167584	0	0	0	0
33.50135	0.02689158	0.009167584	0	0	0	0
33.51791	0.02689158	0.009167584	0	0	0	0
33.53448	0.02689158	0.009167584	0	0	0	0
33.55111	0.02689158	0.009167584	0	0	0	0
33.56792	0.02689158	0.009167584	0	0	0	0
33.58418	0.02689158	0.009167584	0	0	0	0
33.60075	0.02689158	0.009167584	0	0	0	0
33.61744	0.02689158	0.009167584	0	0	0	0
33.63388	0.01833517	-0.01405696	-0.5204204	-1.41257	-15.70813	-42.63634
33.65051	-0.002444689	-0.05928371	-1.249957	-2.720496	-22.06319	-39.55527
33.66702	-0.02933627	-0.1252903	-1.628428	-3.997051	-11.42096	-38.52209
33.68359	-0.05745019	-0.1876299	-1.69696	-3.762823	-2.071613	7.080431
33.70084	-0.07823005	-0.2487471	-1.204625	-3.543015	14.55865	6.499866
33.71672	-0.08800881	-0.2793057	-0.61562	-1.923813	17.77622	48.86763
33.73328	-0.09534287	-0.2988632	-0.4427868	-1.180765	5.326498	22.89978
33.74985	-0.0990099	-0.3098643	-0.2213936	-0.6641812	6.683197	15.59413
33.76641	-0.1002323	-0.3147537	-0.07378118	-0.2951247	4.455465	11.13943
33.78298	-0.1002323	-0.3147537	0	0	2.22672	8.906881
33.79956	-0.1002323	-0.3147537	0	0	0	0
33.81662	-0.1002323	-0.3147537	0	0	0	0
33.83268	-0.1002323	-0.3147537	0	0	0	0
33.84925	-0.1002323	-0.3147537	0	0	0	0
33.86581	-0.1002323	-0.3147537	0	0	0	0
33.88238	-0.1002323	-0.3147537	0	0	0	0
33.89895	-0.0990099	-0.312309	0.07378118	0.1475632	2.22672	4.453468
33.91583	-0.09167583	-0.3049749	0.4344818	0.4344827	10.78416	8.578263
33.93208	-0.08067474	-0.2890845	0.6768062	0.9776094	7.313363	16.3916
33.94865	-0.06356192	-0.2670823	1.032932	1.328055	10.85033	10.67726
33.96522	-0.04767143	-0.2279672	0.9591514	2.360989	-2.226699	31.17401
33.98201	-0.02689158	-0.1705171	1.237744	3.421999	8.352182	31.80896
33.99835	-0.0110011	-0.1167339	0.9723609	3.291067	-8.010213	-3.951993
34.01492	-0.001222344	-0.08739763	0.5902469	1.770741	-11.61109	-46.19735
34.03148	0.004889378	-0.06906247	0.3689043	1.106713	-6.680134	-20.0404
34.04805	0.007334067	-0.05806136	0.1475617	0.6640283	-6.680133	-13.36024
34.06462	0.009778756	-0.04706026	0.1475617	0.6640276	8.994359E-07	-2.158646E-05
34.08194	0.009778756	-0.04217089	0	0.282193	-4.353677	-11.26569
34.09775	0.009778757	-0.04094854	5.891424E-08	0.07732376	1.778035E-06	-6.182967
34.11432	0.009778757	-0.04094854	0	0	-1.819726E-06	-2.388354
34.13089	0.009778757	-0.04094854	0	0	0	0
34.14746	0.009778757	-0.04094854	0	0	0	0
34.16419	0.009778757	-0.04094854	0	0	0	0
34.18059	0.009778757	-0.04094854	0	0	0	0
34.19741	0.009778757	-0.04094854	0	0	0	0
34.21372	0.009778757	-0.04094854	0	0	0	0
34.23029	0.009778757	-0.04094854	0	0	0	0
34.24703	0.009778757	-0.04094854	0	0	0	0
34.32781	0.009778757	-0.04094854	0	0	0	0
34.34463	0.009778757	-0.04094854	0	0	0	0
34.36095	0.009778757	-0.04094854	0	0	0	0
34.3776	0.009778757	-0.04094854	0	0	0	0
34.39408	0.009778757	-0.04094854	0	0	0	0
34.41065	0.009778757	-0.04094854	0	0	0	0
34.42722	0.009778757	-0.04094854	0	0	0	0
34.44379	0.009778757	-0.04094854	0	0	0	0
34.46041	0.009778757	-0.04094854	0	0	0	0
34.47692	0.009778757	-0.04094854	0	0	0	0
34.49361	0.009778757	-0.04094854	0	0	0	0
34.51006	0.009778757	-0.04094854	0	0	0	0
34.52677	0.009778757	-0.04094854	0	0	0	0
34.54319	0.009778757	-0.04094854	0	0	0	0
34.55976	0.009778757	-0.04094854	0	0	0	0
34.57717	0.009778757	-0.04094854	0	0	0	0
34.59289	0.009778757	-0.04094854	0	0	0	0
34.60946	0.009778757	-0.04094854	0	0	0	0
34.62602	0.009778757	-0.04094854	0	0	0	0
34.64259	0.009778757	-0.04094854	0	0	0	0
34.65956	0.009778757	-0.04094854	0	0	0	0
34.67585	0.009778757	-0.04094854	0	0	0	0
34.69229	0.009778757	-0.04094854	0	0	0	0
34.70886	0.009778757	-0.04094854	0	0	0	0
34.72542	0.009778757	-0.04094854	0	0	0	0
34.74203	0.009778757	-0.04094854	0	0	0	0
34.75856	0.009778757	-0.04094854	0	0	0	0
34.77512	0.009778757	-0.04094854	0	0	0	0
34.79169	0.009778757	-0.04094854	0	0	0	0
34.80826	0.009778757	-0.04094854	0	0	0	0
34.82483	0.009778757	-0.04094854	0	0	0	0
34.84196	0.009778757	-0.04094854	0	0	0	0
34.85796	0.009778757	-0.04094854	0	0	0	0
34.87453	0.009778757	-0.04094854	0	0	0	0
34.8914	0.009778757	-0.04094854	0	0	0	0
34.90766	0.009778757	-0.04094854	0	0	0	0
34.92423	0.009778757	-0.04094854	0	0	0	0
34.9408	0.009778757	-0.04094854	0	0	0	0
34.95736	0.009778757	-0.04094854	0	0	0	0
34.9741	0.009778757	-0.04094854	0	0	0	0
34.9905	0.009778757	-0.04094854	0	0	0	0
35.00716	0.009778757	-0.04094854	0	0	0	0
35.02363	0.009778757	-0.04094854	0	0	0	0
35.04068	0.009778757	-0.04094854	0	0	0	0
35.05676	0.009778757	-0.04094854	0	0	0	0
35.07415	0.009778757	-0.04094854	0	0	0	0
35.09063	0.009778757	-0.04094854	0	0	0	0
35.10726	0.009778757	-0.04094854	0	0	0	0
35.12312	0.009778757	-0.04094854	0	0	0	0
35.14018	0.009778757	-0.04094854	0	0	0	0
35.15683	0.009778757	-0.04094854	0	0	0	0
35.17289	0.009778757	-0.04094854	0	0	0	0
35.1893	0.009778757	-0.04094854	0	0	0	0
35.20586	0.009778757	-0.04094854	0	0	0	0
35.22275	0.009778757	-0.04094854	0	0	0	0
35.239	0.009778757	-0.04094854	0	0	0	0
35.2556	0.009778757	-0.04094854	0	0	0	0
35.27215	0.009778757	-0.04094854	0	0	0	0
35.28871	0.009778757	-0.04094854	0	0	0	0
35.30527	0.009778757	-0.04094854	0	0	0	0
35.32196	0.009778757	-0.04094854	0	0	0	0
35.33865	0.009778757	-0.04094854	0	0	0	0
35.35497	0.009778757	-0.04094854	0	0	0	0
35.37153	0.009778757	-0.04094854	0	0	0	0
35.3881	0.009778757	-0.04094854	0	0	0	0
35.40467	0.009778757	-0.04094854	0	0	0	0
35.42123	0.009778757	-0.04094854	0	0	0	0
35.4378	0.009778757	-0.04094854	0	0	0	0
35.45436	0.009778757	-0.04094854	0	0	0	0
35.47161	0.009778757	-0.04094854	0	0	0	0
35.4875	0.009778757	-0.04094854	0	0	0	0
35.50407	0.009778757	-0.04094854	0	0	0	0
35.52064	0.009778757	-0.04094854	0	0	0	0
35.5373	0.009778757	-0.04094854	0	0	0	0
35.55377	0.009778757	-0.04094854	0	0	0	0
35.57034	0.009778757	-0.04094854	0	0	0	0
35.58691	0.009778757	-0.04094854	0	0	0	0
35.60672	0.009778757	-0.04094854	0	0	0	0
35.62329	0.009778757	-0.04094854	0	0	0	0
35.63997	0.009778757	-0.04094854	0	0	0	0
35.65643	0.009778757	-0.04094854	0	0	0	0
35.67299	0.009778757	-0.04094854	0	0	0	0
35.68956	0.009778757	-0.04094854	0	0	0	0
35.70613	0.009778757	-0.04094854	0	0	0	0
35.72269	0.009778757	-0.04094854	0	0	0	0
35.73926	0.009778757	-0.04094854	0	0	0	0
35.75583	0.009778757	-0.04094854	0	0	0	0
35.77239	0.0110011	-0.04094854	0.07378078	2.24859E-07	2.226708	6.786257E-06
35.78907	0.0110011	-0.04094854	0	0	-2.219044	-6.762899E-06
35.80553	0.0110011	-0.04094854	0	0	0	0
35.82241	0.0110011	-0.04094854	0	0	0	0
35.83866	0.0110011	-0.04094854	0	0	0	0
35.85523	0.0110011	-0.04094854	0	0	0	0
35.8718	0.0110011	-0.04094854	0	0	0	0
35.88838	0.0110011	-0.04094854	0	0	0	0
35.90493	0.0110011	-0.04094854	0	0	0	0
35.92175	0.0110011	-0.04094854	0	0	0	0
35.93806	0.0110011	-0.04094854	0	0	0	0
35.95475	0.0110011	-0.04094854	0	0	0	0
35.97126	0.0110011	-0.04094854	0	0	0	0
35.98776	0.0110011	-0.04094854	0	0	0	0
36.00433	0.0110011	-0.04094854	0	0	0	0
36.02092	0.0110011	-0.04094854	0	0	0	0
36.03746	0.0110011	-0.04094854	0	0	0	0
36.05409	0.0110011	-0.04094854	0	0	0	0
36.07111	0.0110011	-0.04094854	0	0	0	0
36.09371	0.0110011	-0.04094854	0	0	0	0
36.11028	0.0110011	-0.04094854	0	0	0	0
36.12685	0.0110011	-0.04094854	0	0	0	0
36.14398	0.0110011	-0.04094854	0	0	0	0
36.16004	0.0110011	-0.04094854	0	0	0	0
36.17655	0.0110011	-0.04094854	0	0	0	0
36.19312	0.0110011	-0.04094854	0	0	0	0
36.20968	0.0110011	-0.04094854	0	0	0	0
36.22625	0.0110011	-0.04094854	0	0	0	0
36.24282	0.0110011	-0.04094854	0	0	0	0
36.25938	0.0110011	-0.04094854	0	0	0	0
36.27642	0.0110011	-0.04094854	0	0	0	0
36.29264	0.0110011	-0.04094854	0	0	0	0
36.30909	0.0110011	-0.04094854	0	0	0	0
36.32635	0.0110011	-0.04094854	0	0	0	0
36.34222	0.0110011	-0.04094854	0	0	0	0
36.35878	0.0110011	-0.04094854	0	0	0	0
36.37563	0.0110011	-0.04094854	0	0	0	0
36.39192	0.0110011	-0.04094854	0	0	0	0
36.40848	0.0110011	-0.04094854	0	0	0	0
36.42505	0.0110011	-0.04094854	0	0	0	0
36.44188	0.0110011	-0.04094854	0	0	0	0
36.45818	0.0110011	-0.04094854	0	0	0	0
36.47475	0.0110011	-0.04094854	0	0	0	0
36.49132	0.0110011	-0.04094854	0	0	0	0
36.50797	0.0110011	-0.04094854	0	0	0	0
36.52445	0.0110011	-0.04094854	0	0	0	0
36.54105	0.0110011	-0.04094854	0	0	0	0
36.55758	0.0110011	-0.04094854	0	0	0	0
36.57415	0.0110011	-0.04094854	0	0	0	0
36.59071	0.0110011	-0.04094854	0	0	0	0
36.60728	0.0110011	-0.04094854	0	0	0	0
36.62385	0.0110011	-0.04094854	0	0	0	0
36.64065	0.0110011	-0.04094854	0	0	0	0
36.65747	0.0110011	-0.04094854	0	0	0	0
36.67355	0.0110011	-0.04094854	0	0	0	0
36.69011	0.0110011	-0.04094854	0	0	0	0
36.70706	0.0110011	-0.04094854	0	0	0	0
36.72325	0.0110011	-0.04094854	0	0	0	0
36.73981	0.0110011	-0.04094854	0	0	0	0
36.75907	0.0110011	-0.04094854	0	0	0	0
36.77589	0.0110011	-0.04094854	0	0	0	0
36.79221	0.0110011	-0.04094854	0	0	0	0
36.80888	0.0110011	-0.04094854	0	0	0	0
36.82534	0.0110011	-0.04094854	0	0	0	0
36.84225	0.0110011	-0.04094854	0	0	0	0
36.85847	0.0110011	-0.04094854	0	0	0	0
36.87507	0.0110011	-0.04094854	0	0	0	0
36.89161	0.0110011	-0.04094854	0	0	0	0
36.90818	0.0110011	-0.04094854	0	0	0	0
36.92474	0.0110011	-0.04094854	0	0	0	0
36.94131	0.0110011	-0.04094854	0	0	0	0
36.95788	0.0110011	-0.04094854	0	0	0	0
36.97444	0.0110011	-0.04094854	0	0	0	0
36.99101	0.0110011	-0.04094854	0	0	0	0
37.00758	0.0110011	-0.04094854	0	0	0	0
37.02414	0.0110011	-0.04094854	0	0	0	0
37.04071	0.0110011	-0.04094854	0	0	0	0
37.05807	0.0110011	-0.04094854	0	0	0	0
37.07384	0.0110011	-0.04094854	0	0	0	0
37.09041	0.0110011	-0.04094854	0	0	0	0
37.10704	0.0110011	-0.04094854	0	0	0	0
37.12355	0.0110011	-0.04094854	0	0	0	0
37.14111	0.0110011	-0.04094854	0	0	0	0
37.15668	0.01833517	-0.02994744	0.4709902	0.7064851	14.21615	21.32422
37.17324	0.02933627	-0.009167584	0.6640276	1.254275	6.006364	17.04448
37.18981	0.0440044	0.02383572	0.8853703	1.992083	6.680134	22.2671
37.20638	0.06478426	0.07395184	1.254564	3.025712	11.14356	31.19856
37.22343	0.08434177	0.1093998	1.146698	2.078389	-3.208495	-28.17825
37.23963	0.09167583	0.1228456	0.4526913	0.8299342	-20.86827	-37.54015
37.25608	0.09289818	0.1252903	0.07431161	0.1486237	-11.58897	-20.8671
37.27272	0.09289818	0.1252903	0	0	-2.245573	-4.491158
37.28931	0.09289818	0.1252903	0	0	0	0
37.30578	0.09289818	0.1252903	0	0	0	0
37.32235	0.09289818	0.1252903	0	0	0	0
37.33912	0.09289818	0.1252903	0	0	0	0
37.35548	0.09289818	0.1252903	0	0	0	0
37.37222	0.08556411	0.1167339	-0.4382457	-0.5112864	-13.24	-15.44666
37.38861	0.06722895	0.08861998	-1.118299	-1.714727	-20.52643	-36.32409
37.40518	0.03055861	0.01650165	-2.213936	-4.354074	-33.24242	-80.07973
37.42174	0.02077986	-0.003055861	-0.5903828	-1.180766	49.01021	95.79268
37.43831	-0.008556411	-0.06784012	-1.770741	-3.910386	-35.62738	-82.38958
37.45509	-0.01833517	-0.08617529	-0.582733	-1.092624	35.62446	84.49545
37.47144	-0.03911502	-0.1216233	-1.270659	-2.167594	-20.76164	-32.44266
37.48801	-0.06722895	-0.163183	-1.69696	-2.50855	-12.94928	-10.35683
37.50458	-0.09289818	-0.1900746	-1.549398	-1.62318	4.453434	26.72052
37.52116	-0.1112333	-0.2096321	-1.10544	-1.179136	13.39097	13.39355
37.53771	-0.1320132	-0.2243002	-1.25572	-0.8863901	-4.535467	8.835087
37.55428	-0.1515707	-0.2426354	-1.180494	-1.106713	2.271631	-6.653179
37.57125	-0.1796846	-0.2719716	-1.656156	-1.728164	-14.18081	-18.52719
37.58741	-0.1894634	-0.2854175	-0.6052999	-0.8322886	31.71855	27.04068
37.60426	-0.1919081	-0.2903068	-0.1450893	-0.2901768	13.94377	16.42526
37.62054	-0.1931304	-0.2903068	-0.07505874	0	2.113526	8.757553
37.63711	-0.1931304	-0.2903068	0	0	2.284742	0
37.65368	-0.1931304	-0.2903068	0	0	0	0
37.67056	-0.1931304	-0.2903068	0	0	0	0
37.68681	-0.1931304	-0.2903068	0	0	0	0
37.70338	-0.1919081	-0.2890845	0.07377983	0.07377893	2.24764	2.247612
37.71995	-0.1821293	-0.276861	0.5902476	0.7378109	15.58703	20.04052
37.73663	-0.1650165	-0.2585258	1.025846	1.09912	13.10113	10.86681
37.75308	-0.1246791	-0.2035204	2.451704	3.343232	43.03247	67.72742
37.77011	-0.09656522	-0.1570713	1.651332	2.728288	-23.90755	-18.3687
37.78661	-0.06722894	-0.1057328	1.778111	3.111693	3.78179	11.43687
37.80307	-0.04644909	-0.06417309	1.262121	2.524242	-15.65371	-17.82164
37.81989	-0.03422565	-0.04217089	0.726599	1.307879	-16.08799	-36.54163
37.83591	-0.02689158	-0.03116978	0.4577579	0.6866364	-8.185262	-18.91463
37.85248	-0.02444689	-0.02505806	0.1475618	0.3689043	-9.51844	-9.749687
37.86905	-0.02322455	-0.02261337	0.07378072	0.1475616	-2.226717	-6.680137
37.88562	-0.0220022	-0.02139103	0.07378083	0.07378095	3.372885E-06	-2.226703
37.9024	-0.0220022	-0.02139103	0	0	-2.212193	-2.212196
37.91884	-0.0220022	-0.02139103	0	0	0	0
37.93535	-0.02077986	-0.01894634	0.07403655	0.1480731	2.246844	4.493688
37.95189	-0.01955751	-0.01772399	0.07391711	0.07391711	-0.003614285	-2.243974
37.96861	-0.01833517	-0.01650165	0.07309082	0.07309082	-0.02484293	-0.02484293
37.98502	-0.01833517	-0.01650165	0	0	-2.205885	-2.205885
38.00159	-0.01833517	-0.01650165	0	0	0	0
38.01816	-0.01833517	-0.01650165	0	0	0	0
38.03473	-0.01833517	-0.01650165	0	0	0	0
38.05253	-0.01833517	-0.01650165	0	0	0	0
38.0691	-0.01833517	-0.01650165	0	0	0	0
38.08567	-0.01833517	-0.01650165	0	0	0	0
38.10224	-0.01833517	-0.01650165	0	0	0	0
38.1188	-0.01833517	-0.01650165	0	0	0	0
38.13537	-0.01833517	-0.01650165	0	0	0	0
38.15222	-0.01833517	-0.01650165	0	0	0	0
38.16851	-0.01833517	-0.01650165	0	0	0	0
38.18536	-0.01833517	-0.01650165	0	0	0	0
38.20164	-0.01833517	-0.01650165	0	0	0	0
38.21821	-0.01833517	-0.01650165	0	0	0	0
38.23478	-0.01833517	-0.01650165	0	0	0	0
38.25134	-0.01833517	-0.01650165	0	0	0	0
38.26791	-0.01833517	-0.01650165	0	0	0	0
38.28448	-0.01833517	-0.01650165	0	0	0	0
38.30177	-0.01833517	-0.01650165	0	0	0	0
38.31761	-0.01833517	-0.01650165	0	0	0	0
38.33427	-0.01833517	-0.01650165	0	0	0	0
38.35139	-0.01833517	-0.01650165	0	0	0	0
38.36731	-0.01833517	-0.01650165	0	0	0	0
38.38388	-0.01833517	-0.01650165	0	0	0	0
38.40044	-0.01833517	-0.01650165	0	0	0	0
38.41701	-0.01833517	-0.01650165	0	0	0	0
38.43361	-0.01833517	-0.01650165	0	0	0	0
38.45047	-0.01833517	-0.01650165	0	0	0	0
38.46671	-0.01833517	-0.01650165	0	0	0	0
38.48328	-0.01833517	-0.01650165	0	0	0	0
38.49994	-0.01833517	-0.01650165	0	0	0	0
38.51641	-0.01833517	-0.01650165	0	0	0	0
38.53298	-0.01833517	-0.01650165	0	0	0	0
38.54955	-0.01833517	-0.01650165	0	0	0	0
38.56612	-0.01833517	-0.01650165	0	0	0	0
38.5829	-0.01833517	-0.01650165	0	0	0	0
38.59925	-0.01833517	-0.01650165	0	0	0	0
38.61582	-0.01833517	-0.01650165	0	0	0	0
38.63239	-0.01833517	-0.01650165	0	0	0	0
38.64895	-0.01833517	-0.01650165	0	0	0	0
38.66552	-0.01833517	-0.01650165	0	0	0	0
38.68222	-0.01833517	-0.01650165	0	0	0	0
38.70488	-0.01833517	-0.01650165	0	0	0	0
38.72179	-0.01833517	-0.01650165	0	0	0	0
38.73802	-0.01833517	-0.01650165	0	0	0	0
38.75459	-0.01833517	-0.01650165	0	0	0	0
38.77116	-0.01833517	-0.01650165	0	0	0	0
38.78772	-0.01833517	-0.01650165	0	0	0	0
38.80429	-0.01833517	-0.01650165	0	0	0	0
38.821	-0.01833517	-0.01650165	0	0	0	0
38.83743	-0.01833517	-0.01650165	0	0	0	0
38.85399	-0.01833517	-0.01650165	0	0	0	0
38.87056	-0.01833517	-0.01650165	0	0	0	0
38.88712	-0.01833517	-0.01650165	0	0	0	0
38.90369	-0.01833517	-0.01650165	0	0	0	0
38.92026	-0.01833517	-0.01650165	0	0	0	0
38.93682	-0.01833517	-0.01650165	0	0	0	0
38.95348	-0.01833517	-0.01650165	0	0	0	0
38.96996	-0.01833517	-0.01650165	0	0	0	0
38.98652	-0.01833517	-0.01650165	0	0	0	0
39.00309	-0.01833517	-0.01650165	0	0	0	0
39.01966	-0.01833517	-0.01650165	0	0	0	0
39.03622	-0.01833517	-0.01650165	0	0	0	0
39.05279	-0.01833517	-0.01650165	0	0	0	0
39.06945	-0.01833517	-0.01650165	0	0	0	0
39.08615	-0.01833517	-0.01650165	0	0	0	0
39.10268	-0.01833517	-0.01650165	0	0	0	0
39.11906	-0.01833517	-0.01650165	0	0	0	0
39.13562	-0.01833517	-0.01650165	0	0	0	0
39.1526	-0.01833517	-0.01650165	0	0	0	0
39.16875	-0.01833517	-0.01650165	0	0	0	0
39.18532	-0.01833517	-0.01650165	0	0	0	0
39.2019	-0.01833517	-0.01650165	0	0	0	0
39.21845	-0.01833517	-0.01650165	0	0	0	0
39.23521	-0.01833517	-0.01650165	0	0	0	0
39.25159	-0.01833517	-0.01650165	0	0	0	0
39.26815	-0.01833517	-0.01650165	0	0	0	0
39.28477	-0.01833517	-0.01650165	0	0	0	0
39.30128	-0.01833517	-0.01650165	0	0	0	0
39.31785	-0.01833517	-0.01650165	0	0	0	0
39.33442	-0.01833517	-0.01650165	0	0	0	0
39.35099	-0.01833517	-0.01650165	0	0	0	0
39.37548	-0.01833517	-0.01650165	0	0	0	0
39.39239	-0.01833517	-0.01650165	0	0	0	0
39.40862	-0.01833517	-0.01650165	0	0	0	0
39.42519	-0.01833517	-0.01650165	0	0	0	0
39.44175	-0.01833517	-0.01650165	0	0	0	0
39.45832	-0.01833517	-0.01650165	0	0	0	0
39.48911	-0.01833517	-0.01650165	0	0	0	0
39.50568	-0.01833517	-0.01650165	0	0	0	0
39.52225	-0.01833517	-0.01650165	0	0	0	0
39.53882	-0.01833517	-0.01650165	0	0	0	0
39.55539	-0.01833517	-0.01650165	0	0	0	0
39.57236	-0.01833517	-0.01650165	0	0	0	0
39.58852	-0.01833517	-0.01650165	0	0	0	0
39.60509	-0.01833517	-0.01650165	0	0	0	0
39.62218	-0.01833517	-0.01650165	0	0	0	0
39.63822	-0.01833517	-0.01650165	0	0	0	0
39.6548	-0.01833517	-0.01650165	0	0	0	0
39.67135	-0.01833517	-0.01650165	0	0	0	0
39.68792	-0.01833517	-0.01650165	0	0	0	0
39.70488	-0.01833517	-0.01650165	0	0	0	0
39.72105	-0.01833517	-0.01650165	0	0	0	0
39.73763	-0.01833517	-0.01650165	0	0	0	0
39.75474	-0.01833517	-0.01650165	0	0	0	0
39.77118	-0.01833517	-0.01650165	0	0	0	0
39.78732	-0.01833517	-0.01650165	0	0	0	0
39.80389	-0.01833517	-0.01650165	0	0	0	0
39.82046	-0.01833517	-0.01650165	0	0	0	0
39.83702	-0.01833517	-0.01650165	0	0	0	0
39.85359	-0.01833517	-0.01650165	0	0	0	0
39.87031	-0.01833517	-0.01650165	0	0	0	0
39.88683	-0.01833517	-0.01650165	0	0	0	0
39.90329	-0.01833517	-0.01650165	0	0	0	0
39.91986	-0.01833517	-0.01650165	0	0	0	0
39.93667	-0.01833517	-0.01650165	0	0	0	0
39.95305	-0.01833517	-0.01650165	0	0	0	0
39.96956	-0.01833517	-0.01650165	0	0	0	0
39.98641	-0.01833517	-0.01650165	0	0	0	0
40.00291	-0.01833517	-0.01650165	0	0	0	0
40.01945	-0.01833517	-0.01650165	0	0	0	0
40.0362	-0.01833517	-0.01650165	0	0	0	0
40.05266	-0.01833517	-0.01650165	0	0	0	0
40.06982	-0.01833517	-0.01650165	0	0	0	0
40.08572	-0.01833517	-0.01650165	0	0	0	0
40.10243	-0.01833517	-0.01650165	0	0	0	0
40.11914	-0.01833517	-0.01650165	0	0	0	0
40.13593	-0.01833517	-0.01650165	0	0	0	0
40.15199	-0.01833517	-0.01650165	0	0	0	0
40.16856	-0.01833517	-0.01650165	0	0	0	0
40.18512	-0.01833517	-0.01650165	0	0	0	0
40.20169	-0.01833517	-0.01650165	0	0	0	0
40.2183	-0.01833517	-0.01650165	0	0	0	0
40.23499	-0.01833517	-0.01650165	0	0	0	0
40.25144	-0.01833517	-0.01650165	0	0	0	0
40.26796	-0.01833517	-0.01650165	0	0	0	0
40.28527	-0.01833517	-0.01650165	0	0	0	0
40.30109	-0.01833517	-0.01650165	0	0	0	0
40.31766	-0.01833517	-0.01650165	0	0	0	0
40.33423	-0.01833517	-0.01650165	0	0	0	0
40.3508	-0.01833517	-0.01650165	0	0	0	0
40.36736	-0.01833517	-0.01650165	0	0	0	0
40.38393	-0.01833517	-0.01650165	0	0	0	0
40.40049	-0.01833517	-0.01650165	0	0	0	0
40.41706	-0.01833517	-0.01650165	0	0	0	0
40.43371	-0.01833517	-0.01650165	0	0	0	0
40.45022	-0.01833517	-0.01650165	0	0	0	0
40.46725	-0.01833517	-0.01650165	0	0	0	0
40.48333	-0.01833517	-0.01650165	0	0	0	0
40.4999	-0.01833517	-0.01650165	0	0	0	0
40.51646	-0.01833517	-0.01650165	0	0	0	0
40.53303	-0.01833517	-0.01650165	0	0	0	0
40.54973	-0.01833517	-0.01650165	0	0	0	0
40.5663	-0.01833517	-0.01650165	0	0	0	0
40.58273	-0.01833517	-0.01650165	0	0	0	0
40.5993	-0.01833517	-0.01650165	0	0	0	0
40.61587	-0.01833517	-0.01650165	0	0	0	0
40.63265	-0.01833517	-0.01650165	0	0	0	0
40.649	-0.01833517	-0.01650165	0	0	0	0
40.66557	-0.01833517	-0.01650165	0	0	0	0
40.68833	-0.01833517	-0.01650165	0	0	0	0
40.7049	-0.01833517	-0.01650165	0	0	0	0
40.72146	-0.01833517	-0.01650165	0	0	0	0
40.73808	-0.01833517	-0.01650165	0	0	0	0
40.75459	-0.01833517	-0.01650165	0	0	0	0
40.77145	-0.01833517	-0.01650165	0	0	0	0
40.78773	-0.01833517	-0.01650165	0	0	0	0
40.80429	-0.01833517	-0.01650165	0	0	0	0
40.82086	-0.01833517	-0.01650165	0	0	0	0
40.83743	-0.01833517	-0.01650165	0	0	0	0
40.8541	-0.01833517	-0.01650165	0	0	0	0
40.87056	-0.01833517	-0.01650165	0	0	0	0
40.88713	-0.01833517	-0.01650165	0	0	0	0
40.90369	-0.01833517	-0.01650165	0	0	0	0
40.92026	-0.01833517	-0.01650165	0	0	0	0
40.93683	-0.01833517	-0.01650165	0	0	0	0
40.95379	-0.02077986	-0.02261337	-0.1441432	-0.3603579	-4.29927	-10.74817
40.96996	-0.03789268	-0.05806137	-1.058025	-2.191622	-27.581	-55.26767
40.98653	-0.06233957	-0.09962108	-1.475617	-2.508549	-12.75419	-9.679665
41.00314	-0.09412053	-0.1521819	-1.913896	-3.165289	-13.21209	-19.79764
41.01966	-0.1222345	-0.194964	-1.700876	-2.58829	6.428952	17.41384
41.03671	-0.1466813	-0.2316343	-1.434334	-2.151501	7.939155	13.01008
41.0528	-0.1662388	-0.2621929	-1.215189	-1.898734	6.613039	7.627651
41.0699	-0.180907	-0.2866398	-0.8579125	-1.429853	10.76404	14.12645
41.08646	-0.1894634	-0.2988632	-0.516823	-0.738319	10.13541	20.5488
41.1025	-0.1906857	-0.3025303	-0.07620206	-0.2286081	13.51739	15.63694
41.11906	-0.1906857	-0.3025303	0	0	2.336911	7.01079
41.13564	-0.1906857	-0.3025303	0	0	0	0
41.1522	-0.1906857	-0.3025303	0	0	0	0
41.16912	-0.1906857	-0.3025303	0	0	0	0
41.18533	-0.1882411	-0.2988632	0.150825	0.2262407	4.551908	6.827959
41.20201	-0.1784623	-0.2878621	0.5863315	0.6596237	13.24271	13.17814
41.21847	-0.1625718	-0.269527	0.9655998	1.114152	11.44634	13.7177
41.23503	-0.1320132	-0.2279672	1.844947	2.509127	26.63071	42.24633
41.2516	-0.08678646	-0.1619606	2.729891	3.984166	26.71076	44.5219
41.26817	-0.03911502	-0.08617529	2.877454	4.574413	4.453445	17.81369
41.28473	0.001222345	-0.02383572	2.434768	3.762824	-13.36027	-24.49382
41.3013	0.02322455	0.01161227	1.328056	2.139645	-33.40066	-48.98763
41.31786	0.0330033	0.0262804	0.590383	0.8855741	-22.26556	-37.85229
41.33449	0.03667033	0.03116978	0.2205299	0.2940402	-11.14294	-17.82175
41.351	0.03667033	0.03116978	0	0	-6.654841	-8.87313
41.36757	0.03667033	0.03116978	0	0	0	0
41.38415	0.03667033	0.03116978	0	0	0	0
41.4009	0.03667033	0.03116978	0	0	0	0
41.41727	0.03667033	0.03116978	0	0	0	0
41.43391	0.03667033	0.03116978	0	0	0	0
41.45042	0.03667033	0.03116978	0	0	0	0
41.46697	0.03667033	0.03116978	0	0	0	0
41.48354	0.03667033	0.03116978	0	0	0	0
41.5001	0.03667033	0.03116978	0	0	0	0
41.51667	0.03667033	0.03116978	0	0	0	0
41.53324	0.03667033	0.03116978	0	0	0	0
41.5498	0.03667033	0.03116978	0	0	0	0
41.56652	0.03667033	0.03116978	0	0	0	0
41.58294	0.03667033	0.03116978	0	0	0	0
41.60011	0.03667033	0.03116978	0	0	0	0
41.61607	0.03667033	0.03116978	0	0	0	0
41.63272	0.03667033	0.03116978	0	0	0	0
41.6492	0.03667033	0.03116978	0	0	0	0
41.66577	0.03667033	0.03116978	0	0	0	0
41.68234	0.03667033	0.03116978	0	0	0	0
41.69891	0.03667033	0.03116978	0	0	0	0
41.71552	0.03667033	0.03116978	0	0	0	0
41.73204	0.03667033	0.03116978	0	0	0	0
41.74873	0.03667033	0.03116978	0	0	0	0
41.76517	0.03667033	0.03116978	0	0	0	0
41.78174	0.03667033	0.03116978	0	0	0	0
41.79831	0.03667033	0.03116978	0	0	0	0
41.81487	0.03667033	0.03116978	0	0	0	0
41.83144	0.03667033	0.03116978	0	0	0	0
41.84815	0.03667033	0.03116978	0	0	0	0
41.86457	0.03667033	0.03116978	0	0	0	0
41.88114	0.03667033	0.03116978	0	0	0	0
41.89771	0.03667033	0.03116978	0	0	0	0
41.91427	0.03667033	0.03116978	0	0	0	0
41.93084	0.03667033	0.03116978	0	0	0	0
41.94793	0.03667033	0.03116978	0	0	0	0
41.96414	0.03667033	0.03116978	0	0	0	0
41.98457	0.03667033	0.03116978	0	0	0	0
42.00114	0.03667033	0.03116978	0	0	0	0
42.01775	0.03667033	0.03116978	0	0	0	0
42.03436	0.03667033	0.03116978	0	0	0	0
42.05084	0.03667033	0.03116978	0	0	0	0
42.06741	0.03667033	0.03116978	0	0	0	0
42.08398	0.03667033	0.03116978	0	0	0	0
42.10059	0.03667033	0.03116978	0	0	0	0
42.11778	0.03667033	0.03116978	0	0	0	0
42.13368	0.03667033	0.03116978	0	0	0	0
42.15093	0.03667033	0.03116978	0	0	0	0
42.16681	0.03667033	0.03116978	0	0	0	0
42.18349	0.03667033	0.03116978	0	0	0	0
42.20004	0.03667033	0.03116978	0	0	0	0
42.21676	0.03667033	0.03116978	0	0	0	0
42.23307	0.03667033	0.03116978	0	0	0	0
42.24964	0.03667033	0.03116978	0	0	0	0
42.26621	0.03667033	0.03116978	0	0	0	0
42.28278	0.03667033	0.03116978	0	0	0	0
42.29934	0.03667033	0.03116978	0	0	0	0
42.31591	0.03667033	0.03116978	0	0	0	0
42.33248	0.03667033	0.03116978	0	0	0	0
42.34906	0.03667033	0.03116978	0	0	0	0
42.36566	0.03667033	0.03116978	0	0	0	0
42.38218	0.03667033	0.03116978	0	0	0	0
42.39915	0.03667033	0.03116978	0	0	0	0
42.41531	0.03667033	0.03116978	0	0	0	0
42.43205	0.03667033	0.03116978	0	0	0	0
42.44844	0.03667033	0.03116978	0	0	0	0
42.46501	0.03667033	0.03116978	0	0	0	0
42.48158	0.03667033	0.03116978	0	0	0	0
42.49815	0.03667033	0.03116978	0	0	0	0
42.51471	0.03667033	0.03116978	0	0	0	0
42.53187	0.03667033	0.03116978	0	0	0	0
42.54785	0.03667033	0.03116978	0	0	0	0
42.56467	0.03667033	0.03116978	0	0	0	0
42.58098	0.03667033	0.03116978	0	0	0	0
42.59755	0.03667033	0.03116978	0	0	0	0
42.61411	0.03667033	0.03116978	0	0	0	0
42.63068	0.03667033	0.03116978	0	0	0	0
42.64778	0.03667033	0.03116978	0	0	0	0
42.6651	0.03667033	0.03116978	0	0	0	0
42.68092	0.03667033	0.03116978	0	0	0	0
42.69762	0.03667033	0.03116978	0	0	0	0
42.71413	0.03667033	0.03116978	0	0	0	0
42.73064	0.03667033	0.03116978	0	0	0	0
42.74718	0.03667033	0.03116978	0	0	0	0
42.76418	0.03667033	0.03116978	0	0	0	0
42.78032	0.03667033	0.03116978	0	0	0	0
42.79688	0.03667033	0.03116978	0	0	0	0
42.81435	0.03667033	0.03116978	0	0	0	0
42.83002	0.03667033	0.03116978	0	0	0	0
42.84662	0.03667033	0.03116978	0	0	0	0
42.86346	0.03667033	0.03116978	0	0	0	0
42.87972	0.03667033	0.03116978	0	0	0	0
42.89629	0.03667033	0.03116978	0	0	0	0
42.91286	0.03667033	0.03116978	0	0	0	0
42.93005	0.03667033	0.03116978	0	0	0	0
42.95983	0.03667033	0.03116978	0	0	0	0
42.97661	0.03667033	0.03116978	0	0	0	0
42.9931	0.03667033	0.03116978	0	0	0	0
43.00972	0.03667033	0.03116978	0	0	0	0
43.0261	0.03667033	0.03116978	0	0	0	0
43.04267	0.03667033	0.03116978	0	0	0	0
43.05923	0.03667033	0.03116978	0	0	0	0
43.07581	0.03667033	0.03116978	0	0	0	0
43.09237	0.03667033	0.03116978	0	0	0	0
43.1091	0.03667033	0.03116978	0	0	0	0
43.1255	0.03667033	0.03116978	0	0	0	0
43.14207	0.03667033	0.03116978	0	0	0	0
43.15864	0.03667033	0.03116978	0	0	0	0
43.17534	0.03667033	0.03116978	0	0	0	0
43.19177	0.03667033	0.03116978	0	0	0	0
43.20834	0.03667033	0.03116978	0	0	0	0
43.22524	0.03667033	0.03116978	0	0	0	0
43.24147	0.03667033	0.03116978	0	0	0	0
43.25803	0.03667033	0.03116978	0	0	0	0
43.2746	0.03667033	0.03116978	0	0	0	0
43.29116	0.03667033	0.03116978	0	0	0	0
43.30773	0.03667033	0.03116978	0	0	0	0
43.3243	0.03667033	0.03116978	0	0	0	0
43.34087	0.03667033	0.03116978	0	0	0	0
43.35743	0.03667033	0.03116978	0	0	0	0
43.37416	0.03667033	0.03116978	0	0	0	0
43.39057	0.03667033	0.03116978	0	0	0	0
43.40714	0.03667033	0.03116978	0	0	0	0
43.42376	0.03667033	0.03116978	0	0	0	0
43.44038	0.03667033	0.03116978	0	0	0	0
43.45683	0.03667033	0.03116978	0	0	0	0
43.47342	0.03667033	0.03116978	0	0	0	0
43.48997	0.03667033	0.03116978	0	0	0	0
43.50684	0.03667033	0.03116978	0	0	0	0
43.52332	0.03667033	0.03116978	0	0	0	0
43.53967	0.03667033	0.03116978	0	0	0	0
43.5563	0.03667033	0.03116978	0	0	0	0
43.5729	0.03667033	0.03116978	0	0	0	0
43.5894	0.03667033	0.03116978	0	0	0	0
43.60594	0.03667033	0.03116978	0	0	0	0
43.62281	0.03667033	0.03116978	0	0	0	0
43.63926	0.03667033	0.03116978	0	0	0	0
43.65619	0.03667033	0.03116978	0	0	0	0
43.67227	0.03667033	0.03116978	0	0	0	0
43.68893	0.03667033	0.03116978	0	0	0	0
43.70572	0.03667033	0.03116978	0	0	0	0
43.72191	0.03667033	0.03116978	0	0	0	0
43.73848	0.03667033	0.03116978	0	0	0	0
43.7552	0.03667033	0.03116978	0	0	0	0
43.77171	0.03667033	0.03116978	0	0	0	0
43.78817	0.03667033	0.03116978	0	0	0	0
43.80474	0.03667033	0.03116978	0	0	0	0
43.8213	0.03667033	0.03116978	0	0	0	0
43.83787	0.03667033	0.03116978	0	0	0	0
43.85444	0.03667033	0.03116978	0	0	0	0
43.8713	0.03667033	0.03116978	0	0	0	0
43.88781	0.03667033	0.03116978	0	0	0	0
43.90414	0.03667033	0.03116978	0	0	0	0
43.92085	0.03667033	0.03116978	0	0	0	0
43.93778	0.03667033	0.03116978	0	0	0	0
43.95387	0.03667033	0.03116978	0	0	0	0
43.97042	0.03667033	0.03116978	0	0	0	0
43.98698	0.03667033	0.03116978	0	0	0	0
44.00394	0.03667033	0.03116978	0	0	0	0
44.02011	0.03667033	0.03116978	0	0	0	0
44.03671	0.03667033	0.03116978	0	0	0	0
44.05325	0.03667033	0.03116978	0	0	0	0
44.06981	0.03667033	0.03116978	0	0	0	0
44.08673	0.03667033	0.03116978	0	0	0	0
44.10294	0.03667033	0.03116978	0	0	0	0
44.11951	0.03667033	0.03116978	0	0	0	0
44.13623	0.03667033	0.03116978	0	0	0	0
44.15303	0.03667033	0.03116978	0	0	0	0
44.16921	0.03667033	0.03116978	0	0	0	0
44.18578	0.03667033	0.03116978	0	0	0	0
44.20235	0.03667033	0.03116978	0	0	0	0
44.21891	0.03667033	0.03116978	0	0	0	0
44.23548	0.03667033	0.03116978	0	0	0	0
44.25205	0.03667033	0.03116978	0	0	0	0
44.26939	0.03667033	0.03116978	0	0	0	0
44.28518	0.03667033	0.03116978	0	0	0	0
44.30175	0.03667033	0.03116978	0	0	0	0
44.31832	0.03544799	0.0287251	-0.07378095	-0.1475616	-2.226713	-4.453417
44.33535	0.03178095	0.02139103	-0.215343	-0.4306859	-4.213652	-8.427315
44.35145	0.02322455	0.009167584	-0.5312675	-0.7589538	-9.53462	-9.907143
44.36862	0.01466813	-0.00550055	-0.4983364	-0.8542909	0.9896466	-2.865077
44.38459	0.006111722	-0.02016868	-0.5359646	-0.9187965	-1.135622	-1.946782
44.40115	0	-0.02994744	-0.3689043	-0.5902468	5.135303	10.09936
44.41789	-0.001222344	-0.03483682	-0.07304087	-0.2921635	8.884171	8.95083
44.43428	-0.001222344	-0.03483682	0	0	2.204632	8.818527
44.45085	-0.001222344	-0.03483682	0	0	0	0
44.46773	-0.001222344	-0.03483682	0	0	0	0
44.48399	0	-0.03483682	0.07520072	0	2.269562	0
44.50122	0.02566923	-0.03361448	1.489713	0.07093861	42.24266	2.118493
44.51712	0.05011613	-0.03972619	1.537205	-0.3843009	1.433287	-13.73916
44.53369	0.09656522	-0.06417309	2.803673	-1.475617	39.00341	-33.60926
44.55025	0.1637942	-0.1106222	4.057947	-2.803673	37.85408	-40.08078
44.56682	0.2359125	-0.1570713	4.354074	-2.804318	8.938141	-0.01948762
44.58376	0.3043638	-0.1961863	4.041463	-2.309407	-9.331459	14.77316
44.60741	0.3520352	-0.2230779	2.01496	-1.136644	-49.91879	28.88865
44.62447	0.3777044	-0.2475247	1.505039	-1.433371	-12.52437	-7.28804
44.64055	0.3777045	-0.2511918	1.853499E-06	-0.2280657	-45.42212	36.37618
44.65715	0.3777044	-0.2536365	-1.795564E-06	-0.1472901	-0.0001116717	2.471962
44.67368	0.3777045	-0.2548589	1.802607E-06	-0.07393574	0.0001086055	2.214095
44.6907	0.3777045	-0.2548589	0	0	-5.372245E-05	2.20348
44.70682	0.3777045	-0.2548589	0	0	0	0
44.72338	0.3777045	-0.2548589	0	0	0	0
44.73995	0.3777045	-0.2548589	0	0	0	0
44.75652	0.3777045	-0.2548589	0	0	0	0
44.77339	0.3777045	-0.2548589	0	0	0	0
44.78988	0.3777045	-0.2548589	0	0	0	0
44.80622	0.3777045	-0.2548589	0	0	0	0
44.82279	0.3777045	-0.2548589	0	0	0	0
44.83935	0.3777045	-0.2548589	0	0	0	0
44.85592	0.3715927	-0.2463024	-0.3689054	0.5164669	-11.13487	15.5888
44.87284	0.3520352	-0.2304119	-1.156005	0.9392545	-23.50575	12.62603
44.88998	0.3116978	-0.1790735	-2.353484	2.995342	-35.16038	60.37087
44.90573	0.2615817	-0.1326244	-3.181799	2.948983	-25.18417	-1.409512
44.92219	0.2249114	-0.1069551	-2.227787	1.559451	29.6173	-43.13802
44.93875	0.1857964	-0.08128591	-2.362075	1.550112	-4.066847	-0.2828349
44.95531	0.1760176	-0.07639653	-0.5902476	0.2951233	53.48616	-37.88437
44.97188	0.1625718	-0.06784012	-0.8115889	0.516466	-6.680094	6.680134
44.98845	0.1515707	-0.06050605	-0.6640274	0.4426852	4.453414	-2.226707
45.00502	0.149126	-0.05928371	-0.1475624	0.07378095	15.58695	-11.13355
45.02158	0.1442367	-0.05561667	-0.2951229	0.2213426	-4.453386	4.45342
45.03815	0.1369026	-0.05194964	-0.4426852	0.2213426	-4.453441	0
45.05472	0.1283462	-0.04706026	-0.516466	0.2951233	-2.226707	2.226707
45.07129	0.1210121	-0.04339323	-0.4425838	0.2212917	2.229511	-2.227988
45.0879	0.1124557	-0.03850385	-0.5150424	0.2943102	-2.183538	2.200409
45.10442	0.1112334	-0.03728151	-0.07400224	0.07400224	13.31215	-6.649672
45.12098	0.110011	-0.03728151	-0.07379816	0	0.00616883	-2.236997
45.13755	0.110011	-0.03728151	0	0	2.227489	0
45.15412	0.110011	-0.03728151	0	0	0	0
45.2104	0.110011	-0.03728151	0	0	0	0
45.22698	0.110011	-0.03728151	0	0	0	0
45.24355	0.110011	-0.03728151	0	0	0	0
45.26011	0.110011	-0.03728151	0	0	0	0
45.27668	0.110011	-0.03728151	0	0	0	0
45.29491	0.110011	-0.03728151	0	0	0	0
45.31148	0.110011	-0.03728151	0	0	0	0
45.32804	0.110011	-0.03728151	0	0	0	0
45.34461	0.110011	-0.03728151	0	0	0	0
45.36118	0.110011	-0.03728151	0	0	0	0
45.37775	0.110011	-0.03728151	0	0	0	0
45.39431	0.110011	-0.03728151	0	0	0	0
45.41088	0.110011	-0.03728151	0	0	0	0
45.42744	0.110011	-0.03728151	0	0	0	0
45.44401	0.110011	-0.03728151	0	0	0	0
45.46058	0.110011	-0.03728151	0	0	0	0
45.47734	0.110011	-0.03728151	0	0	0	0
45.49372	0.110011	-0.03728151	0	0	0	0
45.51049	0.110011	-0.03728151	0	0	0	0
45.52685	0.110011	-0.03728151	0	0	0	0
45.54375	0.110011	-0.03728151	0	0	0	0
45.55999	0.110011	-0.03728151	0	0	0	0
45.57655	0.110011	-0.03728151	0	0	0	0
45.59312	0.110011	-0.03728151	0	0	0	0
45.60971	0.110011	-0.03728151	0	0	0	0
45.62625	0.110011	-0.03728151	0	0	0	0
45.64282	0.110011	-0.03728151	0	0	0	0
45.65939	0.110011	-0.03728151	0	0	0	0
45.67596	0.110011	-0.03728151	0	0	0	0
45.69264	0.110011	-0.03728151	0	0	0	0
45.70911	0.110011	-0.03728151	0	0	0	0
45.72565	0.110011	-0.03728151	0	0	0	0
45.74222	0.110011	-0.03728151	0	0	0	0
45.75879	0.110011	-0.03728151	0	0	0	0
45.77568	0.110011	-0.03728151	0	0	0	0
45.79213	0.110011	-0.03728151	0	0	0	0
45.80849	0.110011	-0.03728151	0	0	0	0
45.82506	0.110011	-0.03728151	0	0	0	0
45.84163	0.110011	-0.03728151	0	0	0	0
45.85867	0.110011	-0.03728151	0	0	0	0
45.87476	0.110011	-0.03728151	0	0	0	0
45.89205	0.110011	-0.03728151	0	0	0	0
45.90789	0.110011	-0.03728151	0	0	0	0
45.92446	0.110011	-0.03728151	0	0	0	0
45.94538	0.110011	-0.03728151	0	0	0	0
45.96239	0.110011	-0.03728151	0	0	0	0
45.97852	0.110011	-0.03728151	0	0	0	0
45.99509	0.110011	-0.03728151	0	0	0	0
46.01185	0.110011	-0.03728151	0	0	0	0
46.02822	0.110011	-0.03728151	0	0	0	0
46.04525	0.110011	-0.03728151	0	0	0	0
46.06135	0.110011	-0.03728151	0	0	0	0
46.07854	0.110011	-0.03728151	0	0	0	0
46.09448	0.110011	-0.03728151	0	0	0	0
46.11121	0.110011	-0.03728151	0	0	0	0
46.12822	0.110011	-0.03728151	0	0	0	0
46.14418	0.110011	-0.03728151	0	0	0	0
46.16075	0.110011	-0.03728151	0	0	0	0
46.17731	0.110011	-0.03728151	0	0	0	0
46.19388	0.110011	-0.03728151	0	0	0	0
46.21045	0.110011	-0.03728151	0	0	0	0
46.22702	0.110011	-0.03728151	0	0	0	0
46.24358	0.110011	-0.03728151	0	0	0	0
46.26015	0.1087887	-0.03728151	-0.07378118	2.24859E-07	-2.22672	6.786257E-06
46.27672	0.1014546	-0.03605916	-0.4426844	0.07378072	-11.13352	2.2267
46.29329	0.08923115	-0.03361447	-0.7378091	0.1475619	-8.906881	2.22672
46.30985	0.07578535	-0.03116978	-0.8115898	0.1475617	-2.226707	-6.745769E-06
46.32677	0.06233957	-0.0287251	-0.7945743	0.1444681	0.5080892	-0.09237598
46.34298	0.05011613	-0.02750275	-0.754131	0.07541308	1.22072	-2.084324
46.36015	0.04155971	-0.02505806	-0.4984473	0.1424135	7.660985	2.007517
46.37612	0.04033737	-0.02383572	-0.07652966	0.07652966	12.73203	-1.98815
46.39276	0.04033737	-0.02383572	0	0	2.346683	-2.346683
46.40925	0.04033737	-0.02383572	0	0	0	0
46.42582	0.04033737	-0.02383572	0	0	0	0
46.44239	0.04033737	-0.02383572	0	0	0	0
46.45925	0.04033737	-0.02383572	0	0	0	0
46.47552	0.04033737	-0.02383572	0	0	0	0
46.49227	0.04033737	-0.02383572	0	0	0	0
46.50866	0.04033737	-0.02383572	0	0	0	0
46.53913	0.04033737	-0.02383572	0	0	0	0
46.55571	0.04033737	-0.02383572	0	0	0	0
46.57275	0.04033737	-0.02383572	0	0	0	0
46.58884	0.04033737	-0.02383572	0	0	0	0
46.60559	0.04033737	-0.02383572	0	0	0	0
46.62197	0.04033737	-0.02383572	0	0	0	0
46.63895	0.04033737	-0.02383572	0	0	0	0
46.65511	0.04033737	-0.02383572	0	0	0	0
46.6718	0.04033737	-0.02383572	0	0	0	0
46.68825	0.04033737	-0.02383572	0	0	0	0
46.70492	0.04033737	-0.02383572	0	0	0	0
46.72141	0.04033737	-0.02383572	0	0	0	0
46.73795	0.04033737	-0.02383572	0	0	0	0
46.75452	0.04033737	-0.02383572	0	0	0	0
46.77136	0.04033737	-0.02383572	0	0	0	0
46.78765	0.04033737	-0.02383572	0	0	0	0
46.80433	0.04033737	-0.02383572	0	0	0	0
46.82101	0.04033737	-0.02383572	0	0	0	0
46.83761	0.04033737	-0.02383572	0	0	0	0
46.85392	0.04033737	-0.02383572	0	0	0	0
46.87063	0.04033737	-0.02383572	0	0	0	0
46.88705	0.04033737	-0.02383572	0	0	0	0
46.90373	0.04033737	-0.02383572	0	0	0	0
46.92019	0.04033737	-0.02383572	0	0	0	0
46.93675	0.04033737	-0.02383572	0	0	0	0
46.95335	0.04033737	-0.02383572	0	0	0	0
46.96996	0.04033737	-0.02383572	0	0	0	0
46.98703	0.04033737	-0.02383572	0	0	0	0
47.00302	0.04033737	-0.02383572	0	0	0	0
47.01958	0.04033737	-0.02383572	0	0	0	0
47.03615	0.04033737	-0.02383572	0	0	0	0
47.05272	0.04033737	-0.02383572	0	0	0	0
47.06938	0.04033737	-0.02383572	0	0	0	0
47.08585	0.04033737	-0.02383572	0	0	0	0
47.10279	0.04033737	-0.02383572	0	0	0	0
47.11898	0.04033737	-0.02383572	0	0	0	0
47.13555	0.04033737	-0.02383572	0	0	0	0
47.15211	0.04033737	-0.02383572	0	0	0	0
47.16917	0.04033737	-0.02383572	0	0	0	0
47.18525	0.04033737	-0.02383572	0	0	0	0
47.20193	0.04033737	-0.02383572	0	0	0	0
47.21838	0.04033737	-0.02383572	0	0	0	0
47.23495	0.04033737	-0.02383572	0	0	0	0
47.25406	0.04033737	-0.02383572	0	0	0	0
47.27063	0.04033737	-0.02383572	0	0	0	0
47.2872	0.04033737	-0.02383572	0	0	0	0
47.30376	0.04033737	-0.02383572	0	0	0	0
47.32033	0.04033737	-0.02383572	0	0	0	0
47.33701	0.04033737	-0.02383572	0	0	0	0
47.35347	0.04033737	-0.02383572	0	0	0	0
47.37008	0.04033737	-0.02383572	0	0	0	0
47.3866	0.04033737	-0.02383572	0	0	0	0
47.40316	0.04033737	-0.02383572	0	0	0	0
47.42022	0.04033737	-0.02383572	0	0	0	0
47.43631	0.04033737	-0.02383572	0	0	0	0
47.4529	0.04033737	-0.02383572	0	0	0	0
47.46943	0.04033737	-0.02383572	0	0	0	0
47.48627	0.04033737	-0.02383572	0	0	0	0
47.50257	0.04033737	-0.02383572	0	0	0	0
47.51914	0.04033737	-0.02383572	0	0	0	0
47.53571	0.04033737	-0.02383572	0	0	0	0
47.55227	0.04033737	-0.02383572	0	0	0	0
47.56884	0.04033737	-0.02383572	0	0	0	0
47.58541	0.04033737	-0.02383572	0	0	0	0
47.60197	0.04033737	-0.02383572	0	0	0	0
47.61854	0.04033737	-0.02383572	0	0	0	0
47.63523	0.04033737	-0.02383572	0	0	0	0
47.65167	0.04033737	-0.02383572	0	0	0	0
47.66835	0.04033737	-0.02383572	0	0	0	0
47.68481	0.04033737	-0.02383572	0	0	0	0
47.70137	0.04033737	-0.02383572	0	0	0	0
47.71794	0.04033737	-0.02383572	0	0	0	0
47.73451	0.04033737	-0.02383572	0	0	0	0
47.75108	0.04033737	-0.02383572	0	0	0	0
47.76767	0.04033737	-0.02383572	0	0	0	0
47.78467	0.04033737	-0.02383572	0	0	0	0
47.80077	0.04033737	-0.02383572	0	0	0	0
47.81733	0.04033737	-0.02383572	0	0	0	0
47.8339	0.04033737	-0.02383572	0	0	0	0
47.85047	0.04033737	-0.02383572	0	0	0	0
47.8671	0.04033737	-0.02383572	0	0	0	0
47.8843	0.04033737	-0.02383572	0	0	0	0
47.90017	0.04033737	-0.02383572	0	0	0	0
47.91674	0.04033737	-0.02383572	0	0	0	0
47.9333	0.04033737	-0.02383572	0	0	0	0
47.94987	0.02689158	-0.02628041	-0.8115895	-0.1475617	-24.50228	-4.454959
47.96675	0.001222344	-0.0287251	-1.520342	-0.1447946	-21.18774	0.08272038
47.98332	-0.0330033	-0.02994744	-2.065388	-0.07376385	-16.29197	2.123179
47.99957	-0.09534287	-0.02750275	-3.837038	0.150472	-53.98434	6.832744
48.01614	-0.1124557	-0.0262804	-1.032931	0.07378107	85.45451	-2.33714
48.03297	-0.1527931	-0.02261337	-2.396148	0.2178315	-40.81305	4.312696
48.04927	-0.1760176	-0.01894634	-1.424468	0.2249159	29.32199	0.2137821
48.06584	-0.1943528	-0.01405696	-1.106968	0.2951914	9.660029	2.138151
48.08241	-0.2102433	-0.01161227	-0.9591512	0.1475617	4.46162	-4.455986
48.09897	-0.2322455	-0.007945239	-1.328056	0.2213426	-11.13356	2.226712
48.11554	-0.2566923	-0.00550055	-1.475617	0.1475617	-4.453413	-2.226714
48.13211	-0.2799169	-0.003055861	-1.401837	0.1475617	2.226679	1.798872E-06
48.14867	-0.3031414	0.001833517	-1.401836	0.2951235	5.396615E-05	4.453422
48.16529	-0.3202542	0.00550055	-1.029611	0.2206314	11.21568	-2.244558
48.18181	-0.3251436	0.00550055	-0.2960791	-2.819827E-08	22.13804	-6.658669
48.19875	-0.3251436	0.00550055	0	0	8.850099	8.428743E-07
48.21494	-0.3251436	0.00550055	0	0	0	0
48.2315	-0.3251436	0.00550055	0	0	0	0
48.24807	-0.3251436	0.00550055	0	0	0	0
48.26464	-0.3251436	0.00550055	0	0	0	0
48.2812	-0.3251436	0.00550055	0	0	0	0
48.29777	-0.3251436	0.00550055	0	0	0	0
48.31434	-0.3165872	0.00550055	0.5164651	0	15.58695	0
48.33091	-0.2970297	0.006722895	1.180495	0.07378089	20.04047	2.226712
48.34747	-0.2762498	0.006722895	1.254276	0	2.226708	-2.226712
48.36404	-0.2432466	0.003055861	1.992081	-0.2213426	22.26701	-6.680133
48.38061	-0.1980198	-0.003055861	2.729892	-0.3689043	22.26718	-4.453421
48.39717	-0.149126	-0.007945239	2.951234	-0.2951234	6.680118	2.226712
48.41397	-0.1002323	-0.01038993	2.911679	-0.145584	-1.185742	4.482661
48.43054	-0.04889378	-0.01283462	3.098083	-0.1475278	5.587111	-0.05826145
48.44714	-0.008556412	-0.01283462	2.430291	0	-20.13314	4.447788
48.46344	0.04644909	-0.01405696	3.37295	-0.07495443	28.64739	-2.277864
48.48019	0.07089598	-0.01527931	1.460152	-0.07300767	-57.87496	0.05890236
48.49658	0.09289818	-0.01894634	1.342272	-0.2237121	-3.557611	-4.548268
48.51334	0.1014546	-0.02016868	0.5104719	-0.07292448	-25.08934	4.548161
48.52983	0.1038993	-0.02139103	0.148278	-0.07413933	-10.89341	-0.03653796
48.54636	0.1051216	-0.02139103	0.07395145	0	-2.251214	2.245543
48.56286	0.1051216	-0.02139103	0	0	-2.23856	0
48.57941	0.1051216	-0.02139103	0	0	0	0
48.59598	0.1051216	-0.02139103	0	0	0	0
48.6129	0.1051216	-0.02139103	0	0	0	0
48.6294	0.1051216	-0.02139103	0	0	0	0
48.64592	0.1051216	-0.02139103	0	0	0	0
48.66243	0.1051216	-0.02139103	0	0	0	0
48.67894	0.1051216	-0.02139103	0	0	0	0
48.69545	0.1051216	-0.02139103	0	0	0	0
48.71224	0.1051216	-0.02139103	0	0	0	0
48.72851	0.1051216	-0.02139103	0	0	0	0
48.74514	0.1051216	-0.02139103	0	0	0	0
48.76217	0.1051216	-0.02139103	0	0	0	0
48.77821	0.1051216	-0.02139103	0	0	0	0
48.79517	0.1051216	-0.02139103	0	0	0	0
48.81134	0.1051216	-0.02139103	0	0	0	0
48.82791	0.1051216	-0.02139103	0	0	0	0
48.84447	0.1051216	-0.02139103	0	0	0	0
48.86104	0.1051216	-0.02139103	0	0	0	0
48.87761	0.1051216	-0.02139103	0	0	0	0
48.89418	0.1051216	-0.02139103	0	0	0	0
48.91074	0.1051216	-0.02139103	0	0	0	0
48.92731	0.1051216	-0.02139103	0	0	0	0
48.94388	0.1002323	-0.02261337	-0.2951233	-0.07378083	-8.90684	-2.22671
48.9607	0.09289818	-0.02383572	-0.4358608	-0.07264354	-4.214472	0.03405698
48.97736	0.08434177	-0.02505806	-0.5137452	-0.07339216	-2.326186	-0.02235913
48.99358	0.07823005	-0.02628041	-0.3767997	-0.07535987	4.165636	-0.05985428
49.0106	0.07578535	-0.02628041	-0.1436265	0	7.01457	2.267057
49.02674	0.07578535	-0.02628041	0	0	4.331664	0
49.04343	0.07578535	-0.02628041	0	0	0	0
49.05984	0.07578535	-0.02628041	0	0	0	0
49.07641	0.07578535	-0.02628041	0	0	0	0
49.09298	0.07578535	-0.02628041	0	0	0	0
49.10955	0.07578535	-0.02628041	0	0	0	0
49.12678	0.07456302	-0.02628041	-0.07092247	0	-2.098172	0
49.1428	0.07334067	-0.02628041	-0.07629324	0	-0.1614953	0
49.15986	0.06967364	-0.02505806	-0.2149577	0.07165265	-4.191659	2.165972
49.17595	0.06722895	-0.02505806	-0.1519704	-2.315775E-07	1.900304	-2.161742
49.19615	0.06478426	-0.02383572	-0.1210086	0.06050428	0.853198	1.667286
49.21272	0.06233957	-0.02261337	-0.1475277	0.07376385	-0.7211448	0.3605724
49.22929	0.06111723	-0.02261337	-0.07378072	0	2.225432	-2.225941
49.24586	0.05989488	-0.02139103	-0.07378118	0.07378107	-1.37164E-05	2.226717
49.26242	0.05989488	-0.02139103	0	0	2.22672	-2.226717
49.27958	0.05867254	-0.02139103	-0.07125388	-2.171587E-07	-2.112984	-6.439688E-06
49.29556	0.05867254	-0.02139103	0	0	2.150446	6.553861E-06
49.31213	0.05867254	-0.02139103	0	0	0	0
49.32908	0.05867254	-0.02139103	0	0	0	0
49.34563	0.05867254	-0.02139103	0	0	0	0
49.36182	0.05867254	-0.02139103	0	0	0	0
49.37851	0.05867254	-0.02139103	0	0	0	0
49.39504	0.05867254	-0.02139103	0	0	0	0
49.41174	0.05867254	-0.02139103	0	0	0	0
49.42809	0.05867254	-0.02139103	0	0	0	0
49.44465	0.05867254	-0.02139103	0	0	0	0
49.46134	0.05867254	-0.02139103	0	0	0	0
49.47779	0.05867254	-0.02139103	0	0	0	0
49.49477	0.05867254	-0.02139103	0	0	0	0
49.51092	0.05867254	-0.02139103	0	0	0	0
49.52749	0.05867254	-0.02139103	0	0	0	0
49.54431	0.05867254	-0.02139103	0	0	0	0
49.56062	0.05867254	-0.02139103	0	0	0	0
49.57719	0.05867254	-0.02139103	0	0	0	0
49.59389	0.05867254	-0.02139103	0	0	0	0
49.61032	0.05867254	-0.02139103	0	0	0	0
49.62689	0.05867254	-0.02139103	0	0	0	0
49.64346	0.05867254	-0.02139103	0	0	0	0
49.66018	0.05867254	-0.02139103	0	0	0	0
49.67659	0.05867254	-0.02139103	0	0	0	0
49.69316	0.05867254	-0.02139103	0	0	0	0
49.71006	0.05867254	-0.02139103	0	0	0	0
49.72629	0.05867254	-0.02139103	0	0	0	0
49.74309	0.05867254	-0.02139103	0	0	0	0
49.75956	0.05867254	-0.02139103	0	0	0	0
49.77662	0.05867254	-0.02139103	0	0	0	0
49.79255	0.05867254	-0.02139103	0	0	0	0
49.80912	0.05867254	-0.02139103	0	0	0	0
49.82569	0.05867254	-0.02139103	0	0	0	0
49.84255	0.05867254	-0.02139103	0	0	0	0
49.86203	0.05867254	-0.02139103	0	0	0	0
49.8787	0.05867254	-0.02139103	0	0	0	0
49.89516	0.05867254	-0.02139103	0	0	0	0
49.91173	0.05867254	-0.02139103	0	0	0	0
49.9283	0.05867254	-0.02139103	0	0	0	0
49.94487	0.05867254	-0.02139103	0	0	0	0
49.96143	0.05867254	-0.02139103	0	0	0	0
49.978	0.05867254	-0.02139103	0	0	0	0
49.99478	0.05867254	-0.02139103	0	0	0	0
50.01113	0.05867254	-0.02139103	0	0	0	0
50.02771	0.05867254	-0.02139103	0	0	0	0
50.04426	0.05867254	-0.02139103	0	0	0	0
50.06387	0.05867254	-0.02139103	0	0	0	0
50.08044	0.05867254	-0.02139103	0	0	0	0
50.09701	0.05867254	-0.02139103	0	0	0	0
50.11358	0.05867254	-0.02139103	0	0	0	0
50.13017	0.05867254	-0.02139103	0	0	0	0
50.14671	0.05867254	-0.02139103	0	0	0	0
50.16328	0.05867254	-0.02139103	0	0	0	0
50.17985	0.05867254	-0.02139103	0	0	0	0
50.19641	0.05867254	-0.02139103	0	0	0	0
50.21298	0.05867254	-0.02139103	0	0	0	0
50.22955	0.05867254	-0.02139103	0	0	0	0
50.24611	0.05867254	-0.02139103	0	0	0	0
50.26268	0.05867254	-0.02139103	0	0	0	0
50.27925	0.05867254	-0.02139103	0	0	0	0
50.29581	0.05867254	-0.02139103	0	0	0	0
50.31292	0.05867254	-0.02139103	0	0	0	0
50.32895	0.05867254	-0.02139103	0	0	0	0
50.34597	0.05867254	-0.02139103	0	0	0	0
50.36243	0.05867254	-0.02139103	0	0	0	0
50.37892	0.05867254	-0.02139103	0	0	0	0
50.39521	0.05867254	-0.02139103	0	0	0	0
50.41179	0.05867254	-0.02139103	0	0	0	0
50.42834	0.05867254	-0.02139103	0	0	0	0
50.44491	0.05867254	-0.02139103	0	0	0	0
50.46148	0.05867254	-0.02139103	0	0	0	0
50.47805	0.05867254	-0.02139103	0	0	0	0
50.49461	0.05867254	-0.02139103	0	0	0	0
50.51118	0.05867254	-0.02139103	0	0	0	0
50.52775	0.05867254	-0.02139103	0	0	0	0
50.54432	0.05867254	-0.02139103	0	0	0	0
50.56088	0.05867254	-0.02139103	0	0	0	0
50.57745	0.05867254	-0.02139103	0	0	0	0
50.59402	0.05867254	-0.02139103	0	0	0	0
50.61058	0.05867254	-0.02139103	0	0	0	0
50.62715	0.05867254	-0.02139103	0	0	0	0
50.64372	0.05867254	-0.02139103	0	0	0	0
50.66043	0.05867254	-0.02139103	0	0	0	0
50.67685	0.05867254	-0.02139103	0	0	0	0
50.69342	0.05867254	-0.02139103	0	0	0	0
50.70999	0.05867254	-0.02139103	0	0	0	0
50.72655	0.05867254	-0.02139103	0	0	0	0
50.74321	0.05867254	-0.02139103	0	0	0	0
50.75972	0.05867254	-0.02139103	0	0	0	0
50.77626	0.05867254	-0.02139103	0	0	0	0
50.79282	0.05867254	-0.02139103	0	0	0	0
50.80953	0.05867254	-0.02139103	0	0	0	0
50.82596	0.05867254	-0.02139103	0	0	0	0
50.84264	0.05867254	-0.02139103	0	0	0	0
50.85909	0.05867254	-0.02139103	0	0	0	0
50.87566	0.05867254	-0.02139103	0	0	0	0
50.89239	0.05867254	-0.02139103	0	0	0	0
50.90893	0.05867254	-0.02139103	0	0	0	0
50.92536	0.05867254	-0.02139103	0	0	0	0
50.9421	0.05867254	-0.02139103	0	0	0	0
50.9585	0.05867254	-0.02139103	0	0	0	0
50.9752	0.05867254	-0.02139103	0	0	0	0
50.99164	0.05867254	-0.02139103	0	0	0	0
51.0082	0.05867254	-0.02139103	0	0	0	0
51.02509	0.05867254	-0.02139103	0	0	0	0
51.04133	0.05867254	-0.02139103	0	0	0	0
51.0583	0.05867254	-0.02139103	0	0	0	0
51.07446	0.05867254	-0.02139103	0	0	0	0
51.09103	0.05867254	-0.02139103	0	0	0	0
51.1078	0.05867254	-0.02139103	0	0	0	0
51.12431	0.05867254	-0.02139103	0	0	0	0
51.14073	0.05867254	-0.02139103	0	0	0	0
51.1573	0.05867254	-0.02139103	0	0	0	0
51.17386	0.05867254	-0.02139103	0	0	0	0
51.19043	0.05867254	-0.02139103	0	0	0	0
51.20753	0.05867254	-0.02139103	0	0	0	0
51.22364	0.05867254	-0.02139103	0	0	0	0
51.24013	0.05867254	-0.02139103	0	0	0	0
51.2567	0.05867254	-0.02139103	0	0	0	0
51.27327	0.05867254	-0.02139103	0	0	0	0
51.28983	0.05867254	-0.02139103	0	0	0	0
51.30667	0.05867254	-0.02139103	0	0	0	0
51.32297	0.05867254	-0.02139103	0	0	0	0
51.33953	0.05867254	-0.02139103	0	0	0	0
51.3561	0.05867254	-0.02139103	0	0	0	0
51.37267	0.05867254	-0.02139103	0	0	0	0
51.38924	0.05867254	-0.02139103	0	0	0	0
51.4058	0.05867254	-0.02139103	0	0	0	0
51.42257	0.05867254	-0.02139103	0	0	0	0
51.43893	0.05867254	-0.02139103	0	0	0	0
51.45584	0.05867254	-0.02139103	0	0	0	0
51.47215	0.05867254	-0.02139103	0	0	0	0
51.48917	0.05867254	-0.02139103	0	0	0	0
51.5052	0.05867254	-0.02139103	0	0	0	0
51.52186	0.05867254	-0.02139103	0	0	0	0
51.53833	0.05867254	-0.02139103	0	0	0	0
51.5549	0.05867254	-0.02139103	0	0	0	0
51.57168	0.05867254	-0.02139103	0	0	0	0
51.58804	0.05867254	-0.02139103	0	0	0	0
51.60464	0.05867254	-0.02139103	0	0	0	0
51.62117	0.05867254	-0.02139103	0	0	0	0
51.63773	0.05867254	-0.02139103	0	0	0	0
51.6543	0.05867254	-0.02139103	0	0	0	0
51.67114	0.05867253	-0.02505806	-4.424842E-07	-0.2177821	-1.324593E-05	-6.519386
51.68766	0.06111723	-0.04583792	0.1480052	-1.258041	4.437189	-31.18682
51.704	0.06233957	-0.1106222	0.07477916	-3.963315	-2.228178	-82.31822
51.72057	0.06233957	-0.2108544	0	-6.050031	-2.272011	-63.40055
51.73714	0.06845129	-0.3294218	0.3689045	-7.156744	11.13356	-33.40067
51.7537	0.06967364	-0.3673145	0.07378118	-2.287206	-8.90684	146.9629
51.77059	0.06967364	-0.3917614	-4.412844E-07	-1.447946	-2.205657	25.08918
51.78684	0.06967364	-0.4076519	0	-0.9776076	1.331646E-05	14.19321
51.80377	0.06845129	-0.4162083	-0.07221764	-0.5055253	-2.176526	14.22782
51.81997	0.06845129	-0.4198754	0	-0.226294	2.179784	8.428188
51.83654	0.06845129	-0.4210977	-4.496144E-07	-0.07376194	-1.371784E-05	4.65379
51.85315	0.06845129	-0.4210977	0	0	1.355067E-05	2.223068
51.86968	0.06845129	-0.4210977	0	0	0	0
51.88625	0.06845129	-0.4210977	0	0	0	0
51.90284	0.06845129	-0.4210977	0	0	0	0
51.91938	0.06845129	-0.4210977	0	0	0	0
51.93594	0.06845129	-0.4210977	0	0	0	0
51.95251	0.06845129	-0.4210977	0	0	0	0
51.96908	0.06845129	-0.4210977	0	0	0	0
52.02669	0.07211833	-0.383205	0.06365336	0.6577497	0.8581304	8.867326
52.04361	0.05378316	-0.08006356	-1.083755	17.91809	-15.39572	231.5961
52.05983	0.05256081	-0.07028481	-0.0753425	0.6027372	30.42695	-522.4579
52.0764	0.05256081	-0.06050605	2.24859E-07	0.5902467	2.297655	-0.380913
52.09296	0.05256082	-0.05561667	2.249107E-07	0.2951916	1.563035E-09	-8.905807
52.10953	0.05256081	-0.05194965	-2.24859E-07	0.2213422	-1.357564E-05	-2.229035
52.12609	0.05256081	-0.0507273	-2.249107E-07	0.07379816	-1.563035E-09	-4.4534
52.14268	0.05256081	-0.0507273	0	0	6.783134E-06	-2.225696
52.15923	0.05256081	-0.0507273	0	0	0	0
52.17604	0.05256081	-0.0507273	0	0	0	0
52.19277	0.05256081	-0.0507273	0	0	0	0
52.20964	0.05256081	-0.0507273	0	0	0	0
52.22549	0.05256081	-0.0507273	0	0	0	0
52.24206	0.05256081	-0.0507273	0	0	0	0
52.25863	0.05256081	-0.0507273	0	0	0	0
52.2752	0.05256081	-0.0507273	0	0	0	0
52.29176	0.05256081	-0.0507273	0	0	0	0
52.30833	0.05256081	-0.0507273	0	0	0	0
52.3249	0.05256081	-0.0507273	0	0	0	0
52.3418	0.05256081	-0.0507273	0	0	0	0
52.35845	0.05256081	-0.0507273	0	0	0	0
52.37502	0.05256081	-0.0507273	0	0	0	0
52.39151	0.05256081	-0.0507273	0	0	0	0
52.40773	0.05256081	-0.0507273	0	0	0	0
52.4243	0.05256081	-0.0507273	0	0	0	0
52.44086	0.05256081	-0.0507273	0	0	0	0
52.45765	0.05256081	-0.0507273	0	0	0	0
52.47437	0.05256081	-0.0507273	0	0	0	0
52.49057	0.05256081	-0.0507273	0	0	0	0
52.50726	0.05256081	-0.0507273	0	0	0	0
52.5237	0.05256081	-0.0507273	0	0	0	0
52.54041	0.05256081	-0.0507273	0	0	0	0
52.55684	0.05256081	-0.0507273	0	0	0	0
52.57345	0.05256081	-0.0507273	0	0	0	0
52.58997	0.05256081	-0.0507273	0	0	0	0
52.60735	0.05256081	-0.0507273	0	0	0	0
52.62346	0.05256081	-0.0507273	0	0	0	0
52.63967	0.05256081	-0.0507273	0	0	0	0
52.6563	0.05256081	-0.0507273	0	0	0	0
52.6728	0.05256081	-0.0507273	0	0	0	0
52.68937	0.05256081	-0.0507273	0	0	0	0
52.70594	0.05256081	-0.0507273	0	0	0	0
52.72289	0.05256081	-0.0507273	0	0	0	0
52.73943	0.05256081	-0.0507273	0	0	0	0
52.75563	0.05256081	-0.0507273	0	0	0	0
52.7722	0.05256081	-0.0507273	0	0	0	0
52.78877	0.05256081	-0.0507273	0	0	0	0
52.80534	0.05256081	-0.0507273	0	0	0	0
52.8219	0.05256081	-0.0507273	0	0	0	0
52.83875	0.05256081	-0.0507273	0	0	0	0
52.85503	0.05256081	-0.0507273	0	0	0	0
52.87185	0.05256081	-0.0507273	0	0	0	0
52.88817	0.05256081	-0.0507273	0	0	0	0
52.90474	0.05256081	-0.0507273	0	0	0	0
52.9213	0.05256081	-0.0507273	0	0	0	0
52.93787	0.05256081	-0.0507273	0	0	0	0
52.95444	0.05256081	-0.0507273	0	0	0	0
52.9715	0.05256081	-0.0507273	0	0	0	0
52.98757	0.05256081	-0.0507273	0	0	0	0
53.00414	0.05256081	-0.0507273	0	0	0	0
53.0214	0.05256081	-0.0507273	0	0	0	0
53.03767	0.05256081	-0.0507273	0	0	0	0
53.05384	0.05256081	-0.0507273	0	0	0	0
53.0704	0.05256081	-0.0507273	0	0	0	0
53.08698	0.05256081	-0.0507273	0	0	0	0
53.10358	0.05256081	-0.0507273	0	0	0	0
53.12012	0.05256081	-0.0507273	0	0	0	0
53.1371	0.05256081	-0.0507273	0	0	0	0
53.15466	0.05256081	-0.0507273	0	0	0	0
53.17123	0.05256081	-0.0507273	0	0	0	0
53.1878	0.05256081	-0.0507273	0	0	0	0
53.20437	0.05256081	-0.0507273	0	0	0	0
53.22093	0.05256081	-0.0507273	0	0	0	0
53.2375	0.05256081	-0.0507273	0	0	0	0
53.25407	0.05256081	-0.0507273	0	0	0	0
53.27063	0.05256081	-0.0507273	0	0	0	0
53.2872	0.05256081	-0.0507273	0	0	0	0
53.30377	0.05256081	-0.0507273	0	0	0	0
53.32034	0.05256081	-0.0507273	0	0	0	0
53.3369	0.05256081	-0.0507273	0	0	0	0
53.35399	0.05256081	-0.0507273	0	0	0	0
53.37017	0.05256081	-0.0507273	0	0	0	0
53.3866	0.05256081	-0.0507273	0	0	0	0
53.40317	0.05256081	-0.0507273	0	0	0	0
53.42022	0.05256081	-0.0507273	0	0	0	0
53.43629	0.05256081	-0.0507273	0	0	0	0
53.45286	0.05256081	-0.0507273	0	0	0	0
53.46943	0.05256081	-0.0507273	0	0	0	0
53.486	0.05256081	-0.0507273	0	0	0	0
53.50256	0.05256081	-0.0507273	0	0	0	0
53.51913	0.05256081	-0.0507273	0	0	0	0
53.5357	0.05256081	-0.0507273	0	0	0	0
53.55227	0.05256081	-0.0507273	0	0	0	0
53.56928	0.05256081	-0.0507273	0	0	0	0
53.5854	0.05256081	-0.0507273	0	0	0	0
53.60197	0.05256081	-0.0507273	0	0	0	0
53.61892	0.05256081	-0.0507273	0	0	0	0
53.6351	0.05256081	-0.0507273	0	0	0	0
53.65166	0.05256081	-0.0507273	0	0	0	0
53.66823	0.05256081	-0.0507273	0	0	0	0
53.69706	0.05256081	-0.0507273	0	0	0	0
53.71363	0.05256081	-0.0507273	0	0	0	0
53.73019	0.05256081	-0.0507273	0	0	0	0
53.74676	0.05256081	-0.0507273	0	0	0	0
53.76333	0.05256081	-0.0507273	0	0	0	0
53.77989	0.05378316	-0.05317199	0.07379816	-0.1475959	2.227489	-4.454966
53.79646	0.05378316	-0.05317199	0	0	-2.227233	4.454453
53.81309	0.05378316	-0.05317199	0	0	0	0
53.82965	0.05378316	-0.05317199	0	0	0	0
53.84616	0.05378316	-0.05317199	0	0	0	0
53.86274	0.05378316	-0.05317199	0	0	0	0
53.8793	0.05378316	-0.05317199	0	0	0	0
53.89586	0.05378316	-0.05317199	0	0	0	0
53.91293	0.05378316	-0.05317199	0	0	0	0
53.92903	0.05378316	-0.05317199	0	0	0	0
53.94556	0.05378316	-0.05317199	0	0	0	0
53.9623	0.05378316	-0.05317199	0	0	0	0
53.97896	0.05378316	-0.05317199	0	0	0	0
53.99526	0.05378316	-0.05317199	0	0	0	0
54.01204	0.05378316	-0.05317199	0	0	0	0
54.02839	0.05378316	-0.05317199	0	0	0	0
54.04496	0.05378316	-0.05317199	0	0	0	0
54.06161	0.05378316	-0.05317199	0	0	0	0
54.07809	0.05378316	-0.05317199	0	0	0	0
54.09466	0.05378316	-0.05317199	0	0	0	0
54.11123	0.05378316	-0.05317199	0	0	0	0
54.1279	0.05378316	-0.05317199	0	0	0	0
54.14436	0.05378316	-0.05317199	0	0	0	0
54.16093	0.05378316	-0.05317199	0	0	0	0
54.1775	0.05378316	-0.05317199	0	0	0	0
54.19443	0.05378316	-0.05317199	0	0	0	0
54.21072	0.05378316	-0.05317199	0	0	0	0
54.22756	0.05378316	-0.05317199	0	0	0	0
54.24376	0.05378316	-0.05317199	0	0	0	0
54.26041	0.05378316	-0.05317199	0	0	0	0
54.2769	0.05378316	-0.05317199	0	0	0	0
54.29346	0.05378316	-0.05317199	0	0	0	0
54.31028	0.05378316	-0.05317199	0	0	0	0
54.32664	0.05378316	-0.05317199	0	0	0	0
54.3435	0.05378316	-0.05317199	0	0	0	0
54.36013	0.05378316	-0.05317199	0	0	0	0
54.3763	0.05378316	-0.05317199	0	0	0	0
54.39286	0.05378316	-0.05317199	0	0	0	0
54.40966	0.05378316	-0.05317199	0	0	0	0
54.42599	0.05378316	-0.05317199	0	0	0	0
54.44256	0.05378316	-0.05317199	0	0	0	0
54.45913	0.05378316	-0.05317199	0	0	0	0
54.47586	0.05378316	-0.05317199	0	0	0	0
54.49226	0.05378316	-0.05317199	0	0	0	0
54.50883	0.05378316	-0.05317199	0	0	0	0
54.52547	0.05378316	-0.05317199	0	0	0	0
54.54197	0.05378316	-0.05317199	0	0	0	0
54.55853	0.05378316	-0.05317199	0	0	0	0
54.5751	0.05378316	-0.05317199	0	0	0	0
54.59188	0.05378316	-0.05317199	0	0	0	0
54.6085	0.05378316	-0.05317199	0	0	0	0
54.6248	0.05378316	-0.05317199	0	0	0	0
54.64137	0.05378316	-0.05317199	0	0	0	0
54.65794	0.05378316	-0.05317199	0	0	0	0
54.6745	0.05378316	-0.05317199	0	0	0	0
54.69107	0.05378316	-0.05317199	0	0	0	0
54.70764	0.05378316	-0.05317199	0	0	0	0
54.72421	0.05378316	-0.05317199	0	0	0	0
54.74107	0.05378316	-0.05317199	0	0	0	0
54.75734	0.05378316	-0.05317199	0	0	0	0
54.77408	0.05378316	-0.05317199	0	0	0	0
54.79109	0.05378316	-0.05317199	0	0	0	0
54.80704	0.05378316	-0.05317199	0	0	0	0
54.82369	0.05378316	-0.05317199	0	0	0	0
54.84017	0.05378316	-0.05317199	0	0	0	0
54.85674	0.05378316	-0.05317199	0	0	0	0
54.87369	0.05378316	-0.05317199	0	0	0	0
54.88987	0.05378316	-0.05317199	0	0	0	0
54.90644	0.05378316	-0.05317199	0	0	0	0
54.923	0.05378316	-0.05317199	0	0	0	0
54.93969	0.05378316	-0.05317199	0	0	0	0
54.95673	0.05378316	-0.05317199	0	0	0	0
54.97326	0.05378316	-0.05317199	0	0	0	0
54.98927	0.05378316	-0.05317199	0	0	0	0
55.00637	0.05378316	-0.05317199	0	0	0	0
55.02241	0.05378316	-0.05317199	0	0	0	0
55.03897	0.05378316	-0.05317199	0	0	0	0
55.05585	0.05378316	-0.05317199	0	0	0	0
55.07211	0.05378316	-0.05317199	0	0	0	0
55.08868	0.05378316	-0.05317199	0	0	0	0
55.10921	0.05378316	-0.05317199	0	0	0	0
55.12578	0.05378316	-0.05317199	0	0	0	0
55.14235	0.05378316	-0.05317199	0	0	0	0
55.15892	0.05378316	-0.05317199	0	0	0	0
55.17548	0.05378316	-0.05317199	0	0	0	0
55.19212	0.05378316	-0.05317199	0	0	0	0
55.20876	0.05378316	-0.05317199	0	0	0	0
55.22519	0.05378316	-0.05317199	0	0	0	0
55.24175	0.05378316	-0.05317199	0	0	0	0
55.25832	0.05378316	-0.05317199	0	0	0	0
55.27489	0.05378316	-0.05317199	0	0	0	0
55.29222	0.05378316	-0.05317199	0	0	0	0
55.30802	0.05378316	-0.05317199	0	0	0	0
55.36743	0.05378316	-0.05317199	0	0	0	0
55.38401	0.05378316	-0.05439433	-2.247555E-07	-0.07374654	-2.957746E-06	-0.9704926
55.40085	0.05011613	-0.05806137	-0.2177327	-0.2177332	-6.51567	-4.308817
55.41785	0.03544799	-0.07150715	-0.8625312	-0.7906531	-19.04993	-16.92635
55.4337	0.02689158	-0.0812859	-0.5399643	-0.6171019	9.818738	5.282792
55.45038	0.001222344	-0.1081775	-1.538769	-1.612044	-30.70606	-30.58733
55.46704	-0.03544799	-0.1387361	-2.201766	-1.834804	-19.88794	-6.682147
55.4834	-0.07823005	-0.1790735	-2.614233	-2.464848	-12.49142	-19.08066
55.50051	-0.1234568	-0.2132991	-2.64405	-2.000902	-0.8908707	13.86148
55.51653	-0.1735729	-0.2450801	-3.127265	-1.983144	-14.58512	0.536014
55.53321	-0.1980198	-0.2597482	-1.465495	-0.8792975	50.80744	33.74932
55.54995	-0.2151326	-0.2707493	-1.022339	-0.6572186	13.25998	6.644979
55.56623	-0.2285784	-0.2805281	-0.8258497	-0.6006179	5.950611	1.714131
55.5828	-0.2359125	-0.2866398	-0.4426852	-0.3689036	11.66465	7.05406
55.59976	-0.2359125	-0.2878621	-8.787964E-07	-0.07208767	13.20517	8.853951
55.61593	-0.2359125	-0.2878621	0	0	2.652518E-05	2.175861
55.6325	-0.2359125	-0.2878621	0	0	0	0
55.64907	-0.2359125	-0.2878621	0	0	0	0
55.66563	-0.2359125	-0.2878621	0	0	0	0
55.68286	-0.2359125	-0.2878621	0	0	0	0
55.69899	-0.2334678	-0.2878621	0.1516118	0	4.545824	0
55.71534	-0.2212444	-0.2793057	0.7476195	0.5233336	18.35308	16.11521
55.732	-0.2016868	-0.2609706	1.173469	1.100127	12.8982	17.47
55.74847	-0.152793	-0.2108544	2.969698	3.043941	54.21653	58.67118
55.76503	-0.1161227	-0.1619606	2.213425	2.951233	-22.89551	-2.806639
55.7816	-0.08311943	-0.1204009	1.992083	2.508549	-6.680135	-13.36024
55.79817	-0.04889378	-0.08250825	2.065864	2.287207	2.226726	-6.680125
55.81474	-0.04033737	-0.0727295	0.5164662	0.5902467	-46.76092	-51.21436
55.8313	-0.02689158	-0.06050605	0.8115894	0.7378086	8.906837	4.453427
55.84787	-0.01711282	-0.04950495	0.590247	0.6640279	-6.680126	-2.226707
55.86522	-0.008556412	-0.04094854	0.4931864	0.4931864	-2.861756	-5.037124
55.881	-0.003667034	-0.03605916	0.3097441	0.309744	-5.536298	-5.536302
55.89764	0	-0.03239213	0.220429	0.220429	-2.754845	-2.75484
55.91414	0	-0.03239213	0	0	-6.65256	-6.652561
55.93087	0.002444689	-0.03116979	0.146115	0.0730575	4.397105	2.198552
55.94754	0.002444689	-0.03116979	0	0	-4.375006	-2.187502
55.96384	0.002444689	-0.03116979	0	0	0	0
55.98049	0.003667034	-0.02994744	0.07339219	0.07339216	2.227031	2.22703
55.99697	0.003667034	-0.02994744	0	0	-2.214981	-2.21498
56.01354	0.003667034	-0.02994744	0	0	0	0
56.03011	0.003667034	-0.02994744	0	0	0	0
56.04667	0.004889378	-0.0287251	0.07378085	0.07378095	2.226711	2.226713
56.06324	0.004889378	-0.0287251	0	0	-2.226711	-2.226713
56.07981	0.007334067	-0.0287251	0.1475617	0	4.453421	0
56.09637	0.007334067	-0.02750275	2.810737E-08	0.07378083	-4.45342	2.22671
56.11294	0.007334067	-0.02750275	0	0	-8.482821E-07	-2.22671
56.12951	0.007334067	-0.02750275	0	0	0	0
56.14608	0.007334067	-0.02750275	0	0	0	0
56.16281	0.007334067	-0.02750275	0	0	0	0
56.17996	0.007334067	-0.02750275	0	0	0	0
56.19577	0.007334067	-0.02750275	0	0	0	0
56.21234	0.007334067	-0.02750275	0	0	0	0
56.2289	0.007334067	-0.02750275	0	0	0	0
56.24599	0.007334067	-0.02750275	0	0	0	0
56.26247	0.007334067	-0.02750275	0	0	0	0
56.27896	0.007334067	-0.02750275	0	0	0	0
56.29517	0.007334067	-0.02750275	0	0	0	0
56.31179	0.007334067	-0.02750275	0	0	0	0
56.3283	0.007334067	-0.02750275	0	0	0	0
56.34487	0.007334067	-0.02750275	0	0	0	0
56.36144	0.007334067	-0.02750275	0	0	0	0
56.37832	0.007334067	-0.02750275	0	0	0	0
56.39484	0.007334067	-0.02750275	0	0	0	0
56.41185	0.007334067	-0.02750275	0	0	0	0
56.4277	0.007334067	-0.02750275	0	0	0	0
56.44427	0.007334067	-0.02750275	0	0	0	0
56.46092	0.007334067	-0.02750275	0	0	0	0
56.4774	0.007334067	-0.02750275	0	0	0	0
56.49398	0.007334067	-0.02750275	0	0	0	0
56.51102	0.007334067	-0.02750275	0	0	0	0
56.5271	0.007334067	-0.02750275	0	0	0	0
56.54367	0.007334067	-0.02750275	0	0	0	0
56.56023	0.007334067	-0.02750275	0	0	0	0
56.57686	0.007334067	-0.02750275	0	0	0	0
56.59337	0.007334067	-0.02750275	0	0	0	0
56.61022	0.007334067	-0.02750275	0	0	0	0
56.6265	0.007334067	-0.02750275	0	0	0	0
56.64307	0.007334067	-0.02750275	0	0	0	0
56.65964	0.007334067	-0.02750275	0	0	0	0
56.6762	0.007334067	-0.02750275	0	0	0	0
56.69277	0.007334067	-0.02750275	0	0	0	0
56.70934	0.007334067	-0.02750275	0	0	0	0
56.72591	0.007334067	-0.02750275	0	0	0	0
56.74271	0.007334067	-0.02750275	0	0	0	0
56.75922	0.007334067	-0.02750275	0	0	0	0
56.77574	0.007334067	-0.02750275	0	0	0	0
56.79217	0.007334067	-0.02750275	0	0	0	0
56.80875	0.007334067	-0.02750275	0	0	0	0
56.82531	0.007334067	-0.02750275	0	0	0	0
56.84187	0.007334067	-0.02750275	0	0	0	0
56.85844	0.007334067	-0.02750275	0	0	0	0
56.87585	0.007334067	-0.02750275	0	0	0	0
56.89157	0.007334067	-0.02750275	0	0	0	0
56.90814	0.007334067	-0.02750275	0	0	0	0
56.92471	0.007334067	-0.02750275	0	0	0	0
56.94128	0.007334067	-0.02750275	0	0	0	0
56.95784	0.007334067	-0.02750275	0	0	0	0
56.97441	0.007334067	-0.02750275	0	0	0	0
56.99109	0.007334067	-0.02750275	0	0	0	0
57.00776	0.007334067	-0.02750275	0	0	0	0
57.02418	0.007334067	-0.02750275	0	0	0	0
57.04068	0.007334067	-0.02750275	0	0	0	0
57.05724	0.007334067	-0.02750275	0	0	0	0
57.07381	0.007334067	-0.02750275	0	0	0	0
57.09038	0.007334067	-0.02750275	0	0	0	0
57.11087	0.007334067	-0.02750275	0	0	0	0
57.12762	0.007334067	-0.02750275	0	0	0	0
57.14437	0.007334067	-0.02750275	0	0	0	0
57.16139	0.007334067	-0.02750275	0	0	0	0
57.17714	0.007334067	-0.02750275	0	0	0	0
57.19371	0.007334067	-0.02750275	0	0	0	0
57.21028	0.007334067	-0.02750275	0	0	0	0
57.22684	0.007334067	-0.02750275	0	0	0	0
57.24375	0.007334067	-0.02750275	0	0	0	0
57.26059	0.007334067	-0.02750275	0	0	0	0
57.27728	0.007334067	-0.02750275	0	0	0	0
57.29311	0.007334067	-0.02750275	0	0	0	0
57.30968	0.007334067	-0.02750275	0	0	0	0
57.32637	0.007334067	-0.02750275	0	0	0	0
57.3429	0.007334067	-0.02750275	0	0	0	0
57.35938	0.007334067	-0.02750275	0	0	0	0
57.37595	0.007334067	-0.02750275	0	0	0	0
57.39251	0.007334067	-0.02750275	0	0	0	0
57.40985	0.007334067	-0.02750275	0	0	0	0
57.42585	0.007334067	-0.02750275	0	0	0	0
57.44236	0.007334067	-0.02750275	0	0	0	0
57.45878	0.007334067	-0.02750275	0	0	0	0
57.47538	0.007334067	-0.02750275	0	0	0	0
57.49191	0.008556411	-0.02750275	0.07396816	1.12715E-07	2.23262	3.402136E-06
57.50848	0.009778756	-0.02994744	0.07378089	-0.1475618	-0.005658772	-4.459074
57.52504	0.009778756	-0.02994744	0	0	-2.226712	4.453424
57.54207	0.009778756	-0.02994744	0	0	0	0
57.55818	0.009778756	-0.02994744	0	0	0	0
57.57475	0.009778756	-0.02994744	0	0	0	0
57.59137	0.009778756	-0.02994744	0	0	0	0
57.60789	0.009778756	-0.02994744	0	0	0	0
57.62445	0.009778756	-0.02994744	0	0	0	0
57.64102	0.009778756	-0.02994744	0	0	0	0
57.65758	0.009778756	-0.02994744	0	0	0	0
57.67415	0.009778756	-0.02994744	0	0	0	0
57.69072	0.009778756	-0.02994744	0	0	0	0
57.70754	0.009778756	-0.02994744	0	0	0	0
57.72405	0.009778756	-0.02994744	0	0	0	0
57.74611	0.009778756	-0.02994744	0	0	0	0
57.76268	0.009778756	-0.02994744	0	0	0	0
57.77958	0.009778756	-0.02994744	0	0	0	0
57.79638	0.009778756	-0.02994744	0	0	0	0
57.81238	0.009778756	-0.02994744	0	0	0	0
57.82895	0.009778756	-0.02994744	0	0	0	0
57.84552	0.009778756	-0.02994744	0	0	0	0
57.86224	0.009778756	-0.02994744	0	0	0	0
57.87866	0.009778756	-0.02994744	0	0	0	0
57.89522	0.009778756	-0.02994744	0	0	0	0
57.91179	0.009778756	-0.02994744	0	0	0	0
57.92835	0.009778756	-0.02994744	0	0	0	0
57.94535	0.009778756	-0.02994744	0	0	0	0
57.96149	0.009778756	-0.02994744	0	0	0	0
57.97805	0.009778756	-0.02994744	0	0	0	0
57.99462	0.009778756	-0.02994744	0	0	0	0
58.01118	0.009778756	-0.02994744	0	0	0	0
58.02775	0.009778756	-0.02994744	0	0	0	0
58.04432	0.009778756	-0.02994744	0	0	0	0
58.06089	0.009778756	-0.02994744	0	0	0	0
58.07745	0.009778756	-0.02994744	0	0	0	0
58.09402	0.009778756	-0.02994744	0	0	0	0
58.11059	0.009778756	-0.02994744	0	0	0	0
58.12716	0.009778756	-0.02994744	0	0	0	0
58.14372	0.009778756	-0.02994744	0	0	0	0
58.16043	0.009778756	-0.02994744	0	0	0	0
58.17686	0.009778756	-0.02994744	0	0	0	0
58.19398	0.009778756	-0.02994744	0	0	0	0
58.20999	0.009778756	-0.02994744	0	0	0	0
58.22655	0.009778756	-0.02994744	0	0	0	0
58.24312	0.009778756	-0.02994744	0	0	0	0
58.26031	0.009778756	-0.02994744	0	0	0	0
58.27625	0.009778756	-0.02994744	0	0	0	0
58.29282	0.009778756	-0.02994744	0	0	0	0
58.30939	0.009778756	-0.02994744	0	0	0	0
58.32596	0.009778756	-0.02994744	0	0	0	0
58.34252	0.009778756	-0.02994744	0	0	0	0
58.35909	0.009778756	-0.02994744	0	0	0	0
58.37566	0.009778756	-0.02994744	0	0	0	0
58.39222	0.009778756	-0.02994744	0	0	0	0
58.40927	0.009778756	-0.02994744	0	0	0	0
58.42535	0.009778756	-0.02994744	0	0	0	0
58.44233	0.009778756	-0.02994744	0	0	0	0
58.45848	0.009778756	-0.02994744	0	0	0	0
58.47517	0.009778756	-0.02994744	0	0	0	0
58.49164	0.009778756	-0.02994744	0	0	0	0
58.50818	0.009778756	-0.02994744	0	0	0	0
58.52498	0.009778756	-0.02994744	0	0	0	0
58.54132	0.009778756	-0.02994744	0	0	0	0
58.5579	0.009778756	-0.02994744	0	0	0	0
58.57445	0.009778756	-0.02994744	0	0	0	0
58.59141	0.009778756	-0.02994744	0	0	0	0
58.60758	0.009778756	-0.02994744	0	0	0	0
58.62415	0.009778756	-0.02994744	0	0	0	0
58.64072	0.009778756	-0.02994744	0	0	0	0
58.65728	0.009778756	-0.02994744	0	0	0	0
58.67385	0.009778756	-0.02994744	0	0	0	0
58.69042	0.009778756	-0.02994744	0	0	0	0
58.70715	0.009778756	-0.02994744	0	0	0	0
58.7239	0.009778756	-0.02994744	0	0	0	0
58.74012	0.009778756	-0.02994744	0	0	0	0
58.75668	0.009778756	-0.02994744	0	0	0	0
58.77325	0.009778756	-0.02994744	0	0	0	0
58.78981	0.009778756	-0.02994744	0	0	0	0
58.8064	0.009778756	-0.02994744	0	0	0	0
58.82334	0.009778756	-0.02994744	0	0	0	0
58.83974	0.009778756	-0.02994744	0	0	0	0
58.85609	0.009778756	-0.02994744	0	0	0	0
58.87265	0.009778756	-0.02994744	0	0	0	0
58.8897	0.009778756	-0.03116979	0	-0.07170086	0	-2.133237
58.90616	0.008556411	-0.03483682	-0.07425965	-0.2227787	-2.216157	-4.508669
58.92235	0	-0.0507273	-0.5283891	-0.9812942	-13.9074	-23.229
58.93892	-0.01222344	-0.07150715	-0.7378086	-1.254274	-6.392416	-8.332572
58.95549	-0.02566923	-0.09228701	-0.8115894	-1.254275	-2.22671	-1.798872E-05
58.97205	-0.04522675	-0.1191786	-1.180494	-1.623179	-11.13356	-11.13355
58.98907	-0.05133847	-0.127735	-0.359146	-0.5028038	24.45609	33.3598
59.00519	-0.0550055	-0.1338467	-0.2275245	-0.3792076	3.972346	3.730139
59.02176	-0.05867254	-0.1387361	-0.2212917	-0.2950559	0.1906755	2.574382
59.03848	-0.07089598	-0.1497372	-0.7310755	-0.6579683	-15.31302	-10.90126
59.05494	-0.1002323	-0.1729617	-1.782644	-1.411259	-31.69626	-22.70561
59.07146	-0.1271238	-0.1925192	-1.627676	-1.183764	4.699111	6.898373
59.08802	-0.1430143	-0.205965	-0.9591503	-0.8115898	20.20407	11.24779
59.10463	-0.1821293	-0.2365237	-2.355024	-1.839862	-42.07426	-30.99406
59.12116	-0.223689	-0.269527	-2.514919	-1.997142	-4.825646	-4.746715
59.13773	-0.2530253	-0.2903068	-1.770741	-1.254276	22.48782	22.44816
59.15429	-0.2652487	-0.2988632	-0.7378073	-0.5164651	31.174	22.26718
59.17091	-0.2676934	-0.3013079	-0.1470873	-0.1470873	17.79927	11.1299
59.1875	-0.2676934	-0.3013079	0	0	4.429924	4.429924
59.20399	-0.2676934	-0.3013079	0	0	0	0
59.22057	-0.2676934	-0.3013079	0	0	0	0
59.23724	-0.2676934	-0.3013079	0	0	0	0
59.25376	-0.2676934	-0.3013079	0	0	0	0
59.27044	-0.2676934	-0.3013079	0	0	0	0
59.28683	-0.2676934	-0.3013079	0	0	0	0
59.3034	-0.2676934	-0.3013079	0	0	0	0
59.31997	-0.2676934	-0.3013079	0	0	0	0
59.33654	-0.2676934	-0.3013079	0	0	0	0
59.3531	-0.2676934	-0.3013079	0	0	0	0
59.37008	-0.2676934	-0.3013079	0	0	0	0
59.38705	-0.2676934	-0.3013079	0	0	0	0
59.40335	-0.2676934	-0.3013079	0	0	0	0
59.41986	-0.2676934	-0.3000856	0	0.07401934	0	2.255723
59.43594	-0.259137	-0.2903068	0.5322752	0.6083164	16.33299	16.39503
59.4525	-0.2444689	-0.2719717	0.8853696	1.106711	10.81706	15.26833
59.46907	-0.2224667	-0.2438577	1.328056	1.69696	13.36029	17.81376
59.48564	-0.1723506	-0.1876299	3.025015	3.39392	51.21434	51.21434
59.50249	-0.145459	-0.1607383	1.595263	1.595263	-42.77572	-53.81271
59.51877	-0.1259015	-0.1387361	1.201801	1.352027	-11.87609	-7.341742
59.53534	-0.1087887	-0.1204009	1.032695	1.106458	-5.14869	-7.476688
59.55221	-0.09534287	-0.1057328	0.7970901	0.8695523	-7.045665	-7.084588
59.56847	-0.08067473	-0.09106467	0.9019859	0.9019855	3.166127	0.978949
59.58507	-0.06722894	-0.07884122	0.809911	0.7362832	-2.80173	-5.042118
59.6016	-0.05745019	-0.06906246	0.5916089	0.5916089	-6.589128	-4.366784
59.61816	-0.05011612	-0.06295074	0.4427872	0.3689895	-4.497142	-6.727186
59.63473	-0.04278206	-0.05928371	0.4426848	0.2213422	-0.003090817	-4.456518
59.6513	-0.04033737	-0.05806137	0.1475619	0.07378095	-8.906827	-4.453406
59.66786	-0.03789268	-0.05561667	0.1475959	0.1475959	0.001025925	2.227996
59.68479	-0.03544799	-0.05439433	0.144403	0.07220137	-0.09533074	-2.25105
59.70099	-0.03422565	-0.05317198	0.07544848	0.07544871	-2.08129	0.09801607
59.71757	-0.03178096	-0.05194964	0.1474598	0.0737298	2.196828	-0.05243821
59.73413	-0.03178096	-0.05194964	0	0	-4.450346	-2.22517
59.75069	-0.03055861	-0.05072729	0.07378095	0.07378118	2.227483	2.22749
59.76727	-0.02933627	-0.0507273	0.07376385	-2.248072E-07	-0.0005157671	-2.226471
59.78451	-0.02933627	-0.0507273	0	0	-2.181493	6.64845E-06
59.80057	-0.02933627	-0.0507273	0	0	0	0
59.81696	-0.02933627	-0.0507273	0	0	0	0
59.83381	-0.02933627	-0.0507273	0	0	0	0
59.8501	-0.02933627	-0.0507273	0	0	0	0
59.86666	-0.02933627	-0.0507273	0	0	0	0
59.88341	-0.02933627	-0.0507273	0	0	0	0
59.8998	-0.02933627	-0.0507273	0	0	0	0
59.91637	-0.02933627	-0.0507273	0	0	0	0
59.93297	-0.02933627	-0.0507273	0	0	0	0
59.9495	-0.02933627	-0.0507273	0	0	0	0
59.96643	-0.02933627	-0.0507273	0	0	0	0
59.98294	-0.02933627	-0.0507273	0	0	0	0
59.9992	-0.02933627	-0.0507273	0	0	0	0
60.01577	-0.02933627	-0.0507273	0	0	0	0
60.03234	-0.02933627	-0.0507273	0	0	0	0
60.0489	-0.02933627	-0.0507273	0	0	0	0
60.06547	-0.02933627	-0.0507273	0	0	0	0
60.08204	-0.02933627	-0.0507273	0	0	0	0
60.09862	-0.02933627	-0.0507273	0	0	0	0
60.11517	-0.02933627	-0.0507273	0	0	0	0
60.13174	-0.02933627	-0.0507273	0	0	0	0
60.14831	-0.02933627	-0.0507273	0	0	0	0
60.16488	-0.02933627	-0.0507273	0	0	0	0
60.18144	-0.02933627	-0.0507273	0	0	0	0
60.19801	-0.02933627	-0.0507273	0	0	0	0
60.21458	-0.02933627	-0.0507273	0	0	0	0
60.23114	-0.02933627	-0.0507273	0	0	0	0
60.24771	-0.02933627	-0.0507273	0	0	0	0
60.26431	-0.02933627	-0.0507273	0	0	0	0
60.28085	-0.02933627	-0.0507273	0	0	0	0
60.29741	-0.02933627	-0.0507273	0	0	0	0
60.31458	-0.02933627	-0.0507273	0	0	0	0
60.33063	-0.02933627	-0.0507273	0	0	0	0
60.35117	-0.02933627	-0.0507273	0	0	0	0
60.36774	-0.02933627	-0.0507273	0	0	0	0
60.38478	-0.02933627	-0.0507273	0	0	0	0
60.40087	-0.02933627	-0.0507273	0	0	0	0
60.41744	-0.02933627	-0.0507273	0	0	0	0
60.43401	-0.02933627	-0.0507273	0	0	0	0
60.45057	-0.02933627	-0.0507273	0	0	0	0
60.46732	-0.02933627	-0.0507273	0	0	0	0
60.48371	-0.02933627	-0.0507273	0	0	0	0
60.50075	-0.02933627	-0.0507273	0	0	0	0
60.51684	-0.02933627	-0.0507273	0	0	0	0
60.53391	-0.02933627	-0.0507273	0	0	0	0
60.54998	-0.02933627	-0.0507273	0	0	0	0
60.56739	-0.02933627	-0.0507273	0	0	0	0
60.58311	-0.02933627	-0.0507273	0	0	0	0
60.59968	-0.02933627	-0.0507273	0	0	0	0
60.61625	-0.02933627	-0.0507273	0	0	0	0
60.63293	-0.02933627	-0.0507273	0	0	0	0
60.64938	-0.02933627	-0.0507273	0	0	0	0
60.66594	-0.02933627	-0.0507273	0	0	0	0
60.68251	-0.02933627	-0.0507273	0	0	0	0
60.69918	-0.02933627	-0.0507273	0	0	0	0
60.71564	-0.02933627	-0.0507273	0	0	0	0
60.73221	-0.02933627	-0.0507273	0	0	0	0
60.74884	-0.02933627	-0.0507273	0	0	0	0
60.76534	-0.02933627	-0.0507273	0	0	0	0
60.78191	-0.02933627	-0.0507273	0	0	0	0
60.79847	-0.02933627	-0.0507273	0	0	0	0
60.8154	-0.02933627	-0.0507273	0	0	0	0
60.8316	-0.02933627	-0.0507273	0	0	0	0
60.84817	-0.02933627	-0.0507273	0	0	0	0
60.86491	-0.02933627	-0.0507273	0	0	0	0
60.88178	-0.02933627	-0.0507273	0	0	0	0
60.89787	-0.02933627	-0.0507273	0	0	0	0
60.91444	-0.02933627	-0.0507273	0	0	0	0
60.931	-0.02933627	-0.0507273	0	0	0	0
60.94791	-0.02933627	-0.0507273	0	0	0	0
60.9645	-0.02933627	-0.0507273	0	0	0	0
60.98071	-0.02933627	-0.0507273	0	0	0	0
60.99727	-0.02933627	-0.0507273	0	0	0	0
61.01414	-0.02933627	-0.0507273	0	0	0	0
61.0304	-0.02933627	-0.0507273	0	0	0	0
61.04697	-0.02933627	-0.0507273	0	0	0	0
61.06354	-0.02933627	-0.0507273	0	0	0	0
61.0801	-0.02933627	-0.0507273	0	0	0	0
61.09667	-0.02933627	-0.0507273	0	0	0	0
