Time	Pos X	Pos Y	Vel X	Vel Y	Acc X	Acc Y
0.02770751	-0.08680761	-0.5887673	0.001041264	0.007062306	-1.249332E-05	-8.47352E-05
0.05953706	-0.08680761	-0.5887673	0	0	1.24948E-05	8.474522E-05
0.0942357	-0.08683372	-0.5887412	-0.0007526026	0.0007523879	-0.01131254	0.01130931
0.1135258	-0.08683372	-0.5887412	0	0	0.01393999	-0.01393601
0.1373462	-0.08683372	-0.5887412	0	0	0	0
0.1541726	-0.08683372	-0.5887412	0	0	0	0
0.1847887	-0.08683372	-0.5887412	0	0	0	0
0.2052327	-0.08683372	-0.5887412	0	0	0	0
0.2331652	-0.08683372	-0.5887412	0	0	0	0
0.2564037	-0.08683372	-0.5887412	0	0	0	0
0.2797074	-0.08683372	-0.5887412	0	0	0	0
0.2966716	-0.08683372	-0.5887412	0	0	0	0
0.3209996	-0.08683372	-0.5887412	0	0	0	0
0.3385058	-0.08683372	-0.5887412	0	0	0	0
0.3601755	-0.08683372	-0.5887412	0	0	0	0
0.3767427	-0.08683372	-0.5887412	0	0	0	0
0.3975771	-0.08683372	-0.5887412	0	0	0	0
0.4165585	-0.08683372	-0.5887412	0	0	0	0
0.4407314	-0.08683372	-0.5887412	0	0	0	0
0.4580217	-0.08683372	-0.5887412	0	0	0	0
0.4809554	-0.08685984	-0.5887673	-0.00113901	-0.00113836	-0.02831666	-0.02830051
0.4975663	-0.08685984	-0.5887673	0	0	0.02880314	0.02878671
0.521695	-0.08683372	-0.5887412	0.001082603	0.001081985	0.02657374	0.02655858
0.5382625	-0.08683372	-0.5887412	0	0	-0.02660207	-0.0265869
0.5613142	-0.08683372	-0.5887412	0	0	0	0
0.5778813	-0.08683372	-0.5887412	0	0	0	0
0.6545871	-0.08683372	-0.5887412	0	0	0	0
0.6711601	-0.08683372	-0.5887412	0	0	0	0
0.6911592	-0.08683372	-0.5887412	0	0	0	0
0.7077264	-0.08683372	-0.5887412	0	0	0	0
0.7253656	-0.08683372	-0.5887412	0	0	0	0
0.7474207	-0.08683372	-0.5887935	0	-0.002370129	0	-0.05970955
0.7642278	-0.08683372	-0.5887935	0	0	0	0.06098809
0.7861905	-0.08683372	-0.5887935	0	0	0	0
0.8027765	-0.08683372	-0.5887935	0	0	0	0
0.8270082	-0.08683372	-0.5887935	0	0	0	0
0.8437873	-0.08683372	-0.5887935	0	0	0	0
0.8683095	-0.08683372	-0.5887935	0	0	0	0
0.884877	-0.08683372	-0.5887935	0	0	0	0
0.9062436	-0.08683372	-0.5887935	0	0	0	0
0.9231359	-0.08683372	-0.5887935	0	0	0	0
0.9461719	-0.08683372	-0.5887935	0	0	0	0
0.9633659	-0.08683372	-0.5887935	0	0	0	0
0.9847628	-0.08683372	-0.5887935	0	0	0	0
1.001329	-0.08683372	-0.5887935	0	0	0	0
1.022598	-0.08683372	-0.5887935	0	0	0	0
1.039164	-0.08683372	-0.5887935	0	0	0	0
1.066817	-0.08683372	-0.5887935	0	0	0	0
1.083385	-0.08683372	-0.5887935	0	0	0	0
1.105728	-0.08683372	-0.5887935	0	0	0	0
1.125115	-0.08683372	-0.5887935	0	0	0	0
1.147689	-0.08683372	-0.5887935	0	0	0	0
1.164255	-0.08683372	-0.5887935	0	0	0	0
1.18505	-0.08683372	-0.5887935	0	0	0	0
1.20375	-0.08683372	-0.5887935	0	0	0	0
1.225625	-0.08685984	-0.5888196	-0.001194161	-0.00119348	-0.02943129	-0.0294145
1.242995	-0.08685984	-0.5888196	0	0	0.03042873	0.03041137
1.267933	-0.08685984	-0.5888196	0	0	0	0
1.2845	-0.08685984	-0.5888196	0	0	0	0
1.307898	-0.08685984	-0.5888196	0	0	0	0
1.324467	-0.08685984	-0.5888196	0	0	0	0
1.349166	-0.08685984	-0.5888196	0	0	0	0
1.370362	-0.08685984	-0.5888196	0	0	0	0
1.392907	-0.08685984	-0.5888196	0	0	0	0
1.409474	-0.08685984	-0.5888196	0	0	0	0
1.429296	-0.08685984	-0.5888196	0	0	0	0
1.44656	-0.08685984	-0.5888196	0	0	0	0
1.46356	-0.08685984	-0.5888196	0	0	0	0
1.48493	-0.08685984	-0.5888196	0	0	0	0
1.501497	-0.08685984	-0.5888196	0	0	0	0
1.522149	-0.08685984	-0.5888196	0	0	0	0
1.538784	-0.08685984	-0.5888196	0	0	0	0
1.560408	-0.08685984	-0.5888196	0	0	0	0
1.576974	-0.08685984	-0.5888196	0	0	0	0
1.597895	-0.08685984	-0.5888196	0	0	0	0
1.614462	-0.08685984	-0.5888196	0	0	0	0
1.634635	-0.08685984	-0.5888196	0	0	0	0
1.651201	-0.08685984	-0.5888196	0	0	0	0
1.67263	-0.08685984	-0.5888196	0	0	0	0
1.689198	-0.08685984	-0.5888196	0	0	0	0
1.710596	-0.08685984	-0.5888196	0	0	0	0
1.727163	-0.08685984	-0.5888196	0	0	0	0
1.749279	-0.08688596	-0.5888457	-0.001180822	-0.001180485	-0.03052574	-0.03051703
1.765846	-0.08688596	-0.5888457	0	0	0.03052574	0.03051703
1.787077	-0.08688596	-0.5888457	0	0	0	0
1.803645	-0.08688596	-0.5888457	0	0	0	0
1.824852	-0.08688596	-0.5888457	0	0	0	0
1.846895	-0.08688596	-0.5888457	0	0	0	0
1.869285	-0.08688596	-0.5888457	0	0	0	0
1.888015	-0.08688596	-0.5888457	0	0	0	0
1.911909	-0.08691208	-0.5888718	-0.001093242	-0.001095113	-0.02564836	-0.02569225
1.928476	-0.08691208	-0.5888718	0	0	0.02701968	0.02706592
1.950735	-0.08691208	-0.5888718	0	0	0	0
1.969403	-0.08691208	-0.5888718	0	0	0	0
1.990207	-0.08691208	-0.5888718	0	0	0	0
2.007119	-0.08691208	-0.5888718	0	0	0	0
2.027961	-0.08691208	-0.5888718	0	0	0	0
2.044528	-0.08691208	-0.5888718	0	0	0	0
2.0659	-0.08691208	-0.5888718	0	0	0	0
2.084057	-0.08691208	-0.5888718	0	0	0	0
2.104626	-0.08691208	-0.5888718	0	0	0	0
2.121193	-0.08691208	-0.5888718	0	0	0	0
2.142138	-0.08691208	-0.5888718	0	0	0	0
2.158705	-0.08691208	-0.5888718	0	0	0	0
2.18302	-0.08691208	-0.5888718	0	0	0	0
2.199587	-0.08691208	-0.5888718	0	0	0	0
2.223943	-0.08691208	-0.5888718	0	0	0	0
2.240772	-0.08691208	-0.5888718	0	0	0	0
2.264901	-0.08693819	-0.5888979	-0.001082239	-0.00108193	-0.02642288	-0.02641534
2.283199	-0.08693819	-0.5888979	0	0	0.02550794	0.02550066
2.310327	-0.08693819	-0.5888979	0	0	0	0
2.32733	-0.08693819	-0.5888979	0	0	0	0
2.347564	-0.08693819	-0.5888979	0	0	0	0
2.364132	-0.08693819	-0.5888979	0	0	0	0
2.386622	-0.08693819	-0.5888979	0	0	0	0
2.403189	-0.08693819	-0.5888979	0	0	0	0
2.424577	-0.08693819	-0.5888979	0	0	0	0
2.441426	-0.08693819	-0.5888979	0	0	0	0
2.462612	-0.08693819	-0.5888979	0	0	0	0
2.479652	-0.08693819	-0.5888979	0	0	0	0
2.501041	-0.08696432	-0.5889241	-0.001221283	-0.001223373	-0.03178042	-0.03183481
2.518692	-0.08696432	-0.5889241	0	0	0.0312824	0.03133594
2.538427	-0.08696432	-0.5889241	0	0	0	0
2.554995	-0.08696432	-0.5889241	0	0	0	0
2.574374	-0.08696432	-0.5889241	0	0	0	0
2.595962	-0.08696432	-0.5889241	0	0	0	0
2.61253	-0.08696432	-0.5889241	0	0	0	0
2.633925	-0.08696432	-0.5889241	0	0	0	0
2.653861	-0.08696432	-0.5889241	0	0	0	0
2.676521	-0.08696432	-0.5889241	0	0	0	0
2.693088	-0.08696432	-0.5889241	0	0	0	0
2.714934	-0.08696432	-0.5889241	0	0	0	0
2.731501	-0.08696432	-0.5889241	0	0	0	0
2.752307	-0.08693819	-0.5889503	0.001255515	-0.001257663	0.03359454	-0.03365203
2.770144	-0.08693819	-0.5889503	0	0	-0.03248999	0.0325456
2.7936	-0.08693819	-0.5889503	0	0	0	0
2.81017	-0.08693819	-0.5889503	0	0	0	0
2.832492	-0.08696432	-0.5889764	-0.001170189	-0.001169522	-0.03008779	-0.03007062
2.849059	-0.08696432	-0.5889764	0	0	0.03009	0.03007284
2.870898	-0.08696432	-0.5889764	0	0	0	0
2.891912	-0.08696432	-0.5889764	0	0	0	0
2.912994	-0.08696432	-0.5889764	0	0	0	0
2.929562	-0.08696432	-0.5889764	0	0	0	0
2.949902	-0.08696432	-0.5889764	0	0	0	0
2.966469	-0.08696432	-0.5889764	0	0	0	0
2.98714	-0.08696432	-0.5889764	0	0	0	0
3.003707	-0.08696432	-0.5889764	0	0	0	0
3.025684	-0.08696432	-0.5889764	0	0	0	0
3.042251	-0.08696432	-0.5889764	0	0	0	0
3.064055	-0.08696432	-0.5889764	0	0	0	0
3.082142	-0.08696432	-0.5889764	0	0	0	0
3.104661	-0.08699043	-0.5890025	-0.001159638	-0.001161954	-0.0285581	-0.02861513
3.121229	-0.08699043	-0.5890025	0	0	0.02966825	0.0297275
3.142101	-0.08699043	-0.5890025	0	0	0	0
3.158914	-0.08699043	-0.5890025	0	0	0	0
3.179783	-0.08699043	-0.5890025	0	0	0	0
3.198815	-0.08699043	-0.5890025	0	0	0	0
3.221782	-0.08699043	-0.5890025	0	0	0	0
3.238391	-0.08699043	-0.5890025	0	0	0	0
3.258761	-0.08699043	-0.5890025	0	0	0	0
3.275501	-0.08699043	-0.5890025	0	0	0	0
3.298997	-0.08701655	-0.5890287	-0.001111428	-0.001111111	-0.02762241	-0.02761453
3.31818	-0.08701655	-0.5890287	0	0	0.02604182	0.02603439
3.341157	-0.08704267	-0.5890548	-0.001136835	-0.001138781	-0.02696476	-0.02701091
3.357725	-0.08704267	-0.5890548	0	0	0.02874785	0.02879705
3.380238	-0.08704267	-0.5890548	0	0	0	0
3.398633	-0.08704267	-0.5890548	0	0	0	0
3.421966	-0.08706878	-0.5890809	-0.00111923	-0.001118911	-0.02682234	-0.02681469
3.443197	-0.08706878	-0.5890809	0	0	0.02511539	0.02510822
3.464395	-0.08706878	-0.5890809	0	0	0	0
3.480998	-0.08706878	-0.5890809	0	0	0	0
3.502723	-0.0870949	-0.5891071	-0.001202042	-0.001204442	-0.03136222	-0.03142486
3.519345	-0.0870949	-0.5891071	0	0	0.03134682	0.03140943
3.541509	-0.08714713	-0.5891594	-0.002356708	-0.002358389	-0.06076118	-0.06080452
3.558076	-0.08714713	-0.5891594	0	0	0.06084721	0.06089061
3.579787	-0.08714713	-0.5891594	0	0	0	0
3.596904	-0.08714713	-0.5891594	0	0	0	0
3.619821	-0.08717325	-0.5891855	-0.001139514	-0.00114179	-0.02846396	-0.02852081
3.636389	-0.08717325	-0.5891855	0	0	0.02885926	0.0289169
3.657475	-0.08717325	-0.5891855	0	0	0	0
3.674042	-0.08717325	-0.5891855	0	0	0	0
3.695364	-0.08719937	-0.5892116	-0.001225107	-0.001224408	-0.03233369	-0.03231524
3.712856	-0.08719937	-0.5892116	0	0	0.03156386	0.03154585
3.736479	-0.08719937	-0.5892116	0	0	0	0
3.753045	-0.08719937	-0.5892116	0	0	0	0
3.775561	-0.08719937	-0.5892116	0	0	0	0
3.79213	-0.08719937	-0.5892116	0	0	0	0
3.816381	-0.08719937	-0.5892116	0	0	0	0
3.832948	-0.08719937	-0.5892116	0	0	0	0
3.856553	-0.08722548	-0.5892378	-0.001106309	-0.001108519	-0.02753957	-0.02759457
3.87312	-0.08722548	-0.5892378	0	0	0.02753941	0.02759441
3.894277	-0.08722548	-0.5892378	0	0	0	0
3.910843	-0.08722548	-0.5892378	0	0	0	0
3.937208	-0.08722548	-0.5892378	0	0	0	0
3.954319	-0.08722548	-0.5892378	0	0	0	0
3.9759	-0.08722548	-0.5892901	0	-0.002422197	0	-0.06260201
3.993615	-0.08722548	-0.5892901	0	0	0	0.06163992
4.015691	-0.0872516	-0.5893162	-0.001182932	-0.001185295	-0.02972874	-0.02978811
4.032258	-0.0872516	-0.5893162	0	0	0.03061209	0.03067323
4.053006	-0.0872516	-0.5893685	0	-0.002519478	0	-0.06752023
4.069573	-0.0872516	-0.5893685	0	0	0	0.0675185
4.095266	-0.08727771	-0.589447	-0.001016418	-0.003053024	-0.02405144	-0.07224353
4.111835	-0.08727771	-0.589447	0	0	0.02405063	0.07224109
4.132411	-0.08727771	-0.5894993	0	-0.002543335	0	-0.06846932
4.149116	-0.08727771	-0.5894993	0	0	0	0.06822061
4.168354	-0.08727771	-0.5894993	0	0	0	0
4.184921	-0.08727771	-0.5894993	0	0	0	0
4.201981	-0.08727771	-0.5894993	0	0	0	0
4.224286	-0.08727771	-0.5894993	0	0	0	0
4.2462	-0.08727771	-0.5894993	0	0	0	0
4.268838	-0.08727771	-0.5894993	0	0	0	0
4.285708	-0.08727771	-0.5894993	0	0	0	0
4.311151	-0.08727771	-0.5894993	0	0	0	0
4.327717	-0.08727771	-0.5894993	0	0	0	0
4.348731	-0.08735606	-0.5893685	-0.003728528	0.006223195	-0.09921572	0.1655985
4.365768	-0.08735606	-0.5893685	0	0	0.09798609	-0.1635462
4.388261	-0.08748663	-0.5890287	-0.00580501	0.01510992	-0.1468479	0.382232
4.404829	-0.08748663	-0.5890287	0	0	0.1486155	-0.3868328
4.429715	-0.08931439	-0.5870959	-0.07344469	0.07766335	-1.771722	1.87349
4.446283	-0.08931439	-0.5870959	0	0	1.771722	-1.87349
4.466491	-0.09056735	-0.5843849	-0.06200227	0.1341523	-1.685941	3.647816
4.485013	-0.09056735	-0.5843849	0	0	1.600899	-3.463813
4.512187	-0.09161127	-0.5641965	-0.03841626	0.7429327	-0.8407046	16.2584
4.529048	-0.09161127	-0.5641965	0	0	0.8723941	-16.87125
4.550922	-0.1085974	-0.4947793	-0.7765282	3.173441	-20.04675	81.92514
4.567489	-0.1085974	-0.4947793	0	0	20.20068	-82.55419
4.588823	-0.1259612	-0.4222039	-0.8138766	3.40176	-21.47379	89.75402
4.605391	-0.1259612	-0.4222039	0	0	21.47298	-89.75063
4.627574	-0.1357391	-0.3208779	-0.4407862	4.567745	-11.37494	117.8753
4.644474	-0.1357391	-0.3208779	0	0	11.27821	-116.8729
4.666115	-0.1342146	-0.2042297	0.07044608	5.390203	1.827829	139.8569
4.732374	-0.1342146	-0.2042297	0	0	-0.8014373	-61.32222
4.754547	-0.1302583	-0.04046822	0.1784263	7.38549	2.017659	83.51575
4.771115	-0.1302583	-0.04046822	0	0	-4.605605	-190.637
4.791087	-0.1174828	-0.02720838	0.6396734	0.6639265	17.50633	18.17008
4.807654	-0.1174828	-0.02720838	0	0	-17.50633	-18.17008
4.824623	-0.1174828	-0.02720838	0	0	0	0
4.847729	-0.1171194	-0.02421049	0.01572657	0.1297471	0.3924349	3.237659
4.864296	-0.1171194	-0.02421049	0	0	-0.3964017	-3.270385
4.887118	-0.1187025	-0.02240935	-0.06936526	0.07892166	-1.761004	2.003616
4.903686	-0.1187025	-0.02240935	0	0	1.761025	-2.00364
4.92671	-0.1158474	-0.02009782	0.1240049	0.1003963	3.132125	2.535817
4.943277	-0.1158474	-0.02009782	0	0	-3.132087	-2.535787
4.964221	-0.09888694	0.004017237	0.809795	1.1514	21.58772	30.69432
4.980789	-0.09888694	0.004017237	0	0	-21.588	-30.69471
5.00073	-0.09088055	0.01821967	0.4015067	0.7122279	10.99775	19.50877
5.019404	-0.09088055	0.01821967	0	0	-10.3975	-18.444
5.036242	-0.09088055	0.01821967	0	0	0	0
5.057825	-0.09093274	0.01821967	-0.002418266	0	-0.06294256	0
5.080583	-0.09093274	0.01821967	0	0	0.0545384	0
5.101596	-0.09090665	0.01820095	0.001241689	-0.0008910235	0.02836736	-0.02035614
5.118165	-0.09090665	0.01820095	0	0	-0.03303995	0.02370914
5.14452	-0.09093274	0.01821967	-0.0009899904	0.0007104072	-0.02306384	0.01655038
5.161294	-0.09093274	0.01821967	0	0	0.02295368	-0.01647133
5.183907	-0.09095884	0.01823839	-0.001154198	0.0008280044	-0.02930422	0.02102241
5.200474	-0.09095884	0.01823839	0	0	0.02945936	-0.02113371
5.222649	-0.09093274	0.01818222	0.001176957	-0.002532994	0.0303793	-0.06538097
5.239215	-0.09093274	0.01818222	0	0	-0.03037967	0.06538177
5.260133	-0.09093274	0.01810733	0	-0.003580343	0	-0.09551615
5.276908	-0.09093274	0.01810733	0	0	0	0.09498809
5.301261	-0.09090665	0.01801371	0.001071383	-0.003844222	0.02604987	-0.09346934
5.318676	-0.09090665	0.01801371	0	0	-0.02565047	0.09203628
5.341909	-0.09085445	0.01790136	0.002246803	-0.00483571	0.05527531	-0.118967
5.358712	-0.09085445	0.01790136	0	0	-0.05612063	0.1207863
5.380979	-0.09080225	0.01786391	0.002344185	-0.001681851	0.05999942	-0.04304697
5.397546	-0.09080225	0.01786391	0	0	-0.06036336	0.04330808
5.418622	-0.09075005	0.01763921	0.002476668	-0.01066159	0.06579284	-0.2832257
5.436083	-0.09075005	0.01763921	0	0	-0.06426725	0.2766583
5.46036	-0.09056735	0.01728339	0.007525853	-0.01465665	0.1803137	-0.3511621
5.476927	-0.09056735	0.01728339	0	0	-0.1842586	0.3588449
5.498604	-0.09080225	0.01692754	-0.01083645	-0.01641604	-0.2833485	-0.4292422
5.515172	-0.09080225	0.01692754	0	0	0.283345	0.4292369
5.538301	-0.09296807	0.01514774	-0.09364273	-0.07695249	-2.358984	-1.938535
5.557416	-0.09296807	0.01514774	0	0	2.216713	1.821621
5.578746	-0.09236799	0.01471671	0.02813254	-0.02020762	0.6955615	-0.499622
5.595502	-0.09236799	0.01471671	0	0	-0.7386596	0.5305794
5.618086	-0.09226362	0.01464174	0.004621224	-0.003319443	0.1174688	-0.08437826
5.634661	-0.09226362	0.01464174	0	0	-0.1180109	0.08476767
5.658006	-0.09195051	0.01441683	0.01341264	-0.009634374	0.3359893	-0.2413429
5.674691	-0.09195051	0.01441683	0	0	-0.3350688	0.2406817
5.696299	-0.08981039	0.01284202	0.09904131	-0.07287955	2.586416	-1.903214
5.716353	-0.08981039	0.01284202	0	0	-2.377218	1.749276
5.739487	-0.08983649	0.01282327	-0.001128218	-0.0008106149	-0.02612365	-0.01876961
5.756053	-0.08983649	0.01282327	0	0	0.02841857	0.02041849
5.780376	-0.08983649	0.01274826	0	-0.00308396	0	-0.07542225
5.797112	-0.08983649	0.01274826	0	0	0	0.07511129
5.819047	-0.08983649	0.01263574	0	-0.005129517	0	-0.132645
5.835615	-0.08983649	0.01263574	0	0	0	0.1332249
5.864521	-0.08983649	0.01263574	0	0	0	0
5.881088	-0.08983649	0.01263574	0	0	0	0
5.901546	-0.08983649	0.01259823	0	-0.001833396	0	-0.04951719
5.918114	-0.08983649	0.01259823	0	0	0	0.04951719
5.939391	-0.08986259	0.01257948	-0.001227001	-0.0008813815	-0.03242203	-0.02328946
5.956215	-0.08986259	0.01257948	0	0	0.03220333	0.02313236
5.982756	-0.08986259	0.01257948	0	0	0	0
5.999323	-0.08986259	0.01257948	0	0	0	0
6.020761	-0.08986259	0.01250447	0	-0.003499186	0	-0.09207319
6.037333	-0.08986259	0.01250447	0	0	0	0.09205933
6.06255	-0.08983649	0.0124107	0.001035285	-0.003718523	0.02477378	-0.08898217
6.079116	-0.08983649	0.0124107	0	0	-0.02477746	0.08899537
6.100169	-0.08975817	0.01220439	0.003719834	-0.009799334	0.09888148	-0.2604882
6.116737	-0.08975817	0.01220439	0	0	-0.09887772	0.2604783
6.137259	-0.08941881	0.01169796	0.01653662	-0.02467746	0.4458533	-0.665343
6.153826	-0.08941881	0.01169796	0	0	-0.445859	0.6653516
6.178501	-0.08281019	0.00672343	0.2678277	-0.2016029	6.494033	-4.888276
6.195068	-0.08281019	0.00672343	0	0	-6.494033	4.888276
6.216499	-0.07585418	0.0003303093	0.3245844	-0.2983189	8.542207	-7.850967
6.235597	-0.07585418	0.0003303093	0	0	-8.008834	7.360755
6.258843	-0.09411586	-0.01285204	-0.785574	-0.5670734	-18.55215	-13.39203
6.276396	-0.09411586	-0.01285204	0	0	19.25444	13.89899
6.298303	-0.1084413	-0.02371745	-0.653941	-0.4959929	-16.57237	-12.5696
6.315096	-0.1084413	-0.02371745	0	0	16.89765	12.81632
6.335833	-0.1009191	-0.03254725	0.3627477	-0.4258055	9.665431	-11.34561
6.352402	-0.1009191	-0.03254725	0	0	-9.723619	11.41391
6.375242	-0.0878	-0.04216555	0.5744048	-0.421125	14.57559	-10.6861
6.391809	-0.0878	-0.04216555	0	0	-14.57612	10.68649
6.414815	-0.07132617	-0.05907766	0.7160681	-0.7351186	18.09456	-18.57595
6.431726	-0.07132617	-0.05907766	0	0	-17.93936	18.41662
6.45563	-0.0682622	-0.09478185	0.1281738	-1.493599	3.14037	-36.59447
6.472445	-0.0682622	-0.09478185	0	0	-3.147725	36.68018
6.494084	-0.06763352	-0.13127	0.02905293	-1.68623	0.7555325	-43.85106
6.510651	-0.06763352	-0.13127	0	0	-0.7604359	44.13565
6.531561	-0.06441078	-0.1704135	0.1541228	-1.871976	4.112462	-49.94999
6.548129	-0.06441078	-0.1704135	0	0	-4.112358	49.94871
6.574881	-0.05895791	-0.2081013	0.2038267	-1.408762	4.705121	-32.51975
6.59184	-0.05895791	-0.2081013	0	0	-4.662982	32.2285
6.613921	-0.04827825	-0.2507374	0.4836607	-1.930903	12.38882	-49.45949
6.630489	-0.04827825	-0.2507374	0	0	-12.51431	49.96048
6.652686	-0.04223802	-0.2826992	0.2721159	-1.439901	7.019636	-37.14439
6.676307	-0.04223802	-0.2826992	0	0	-5.939017	31.4263
6.699459	-0.04441813	-0.3188674	-0.09416756	-1.562244	-2.013311	-33.40092
6.717231	-0.04441813	-0.3188674	0	0	2.301058	38.17465
6.740729	-0.05748921	-0.3546714	-0.5562621	-1.523702	-13.47852	-36.92009
6.757296	-0.05748921	-0.3546714	0	0	13.88406	38.03092
6.779237	-0.07690068	-0.3866457	-0.8846855	-1.457242	-22.97382	-37.84218
6.795806	-0.07690068	-0.3866457	0	0	22.97268	37.8403
6.817657	-0.09202878	-0.4139579	-0.6923278	-1.249925	-18.02011	-32.53342
6.834617	-0.09202878	-0.4139579	0	0	17.83835	32.20526
6.859047	-0.09888694	-0.4398128	-0.2807291	-1.058335	-6.782544	-25.56986
6.875615	-0.09888694	-0.4398128	0	0	6.847467	25.81462
6.896695	-0.1017787	-0.4565757	-0.1371762	-0.7951859	-3.643632	-21.12148
6.913263	-0.1017787	-0.4565757	0	0	3.643632	21.12148
6.933981	-0.09935598	-0.4587706	0.1169336	-0.1059364	3.136103	-2.841164
6.950548	-0.09935598	-0.4587706	0	0	-3.136183	2.841236
6.972511	-0.09857421	-0.4594793	0.03559531	-0.03226975	0.9238481	-0.8375359
6.992901	-0.09857421	-0.4594793	0	0	-0.8404406	0.7619209
7.016251	-0.09857421	-0.4594793	0	0	0	0
7.032821	-0.09857421	-0.4594793	0	0	0	0
7.052351	-0.09857421	-0.4594793	0	0	0	0
7.068976	-0.09857421	-0.4594793	0	0	0	0
7.086203	-0.09857421	-0.4594793	0	0	0	0
7.107498	-0.09854815	-0.4594557	0.001223857	0.001109799	0.03177054	0.02880965
7.124066	-0.09854815	-0.4594557	0	0	-0.0323235	-0.02931107
7.147009	-0.09854815	-0.4594557	0	0	0	0
7.163754	-0.09854815	-0.4594557	0	0	0	0
7.183923	-0.09854815	-0.4594557	0	0	0	0
7.200779	-0.09854815	-0.4594557	0	0	0	0
7.223804	-0.09854815	-0.4594557	0	0	0	0
7.245403	-0.09854815	-0.4594557	0	0	0	0
7.270588	-0.09854815	-0.4594557	0	0	0	0
7.287155	-0.09854815	-0.4594557	0	0	0	0
7.31144	-0.09854815	-0.4594557	0	0	0	0
7.328371	-0.09854815	-0.4594557	0	0	0	0
7.349043	-0.09854815	-0.4594557	0	0	0	0
7.365612	-0.09854815	-0.4594557	0	0	0	0
7.388395	-0.09854815	-0.4594557	0	0	0	0
7.407773	-0.09854815	-0.4594557	0	0	0	0
7.435412	-0.09854815	-0.4594557	0	0	0	0
7.45448	-0.09854815	-0.4594557	0	0	0	0
7.481347	-0.09852209	-0.4594793	0.0009700456	-0.0008796412	0.02111816	-0.01915003
7.499185	-0.09852209	-0.4594793	0	0	-0.02169863	0.0196764
7.520399	-0.09852209	-0.4594793	0	0	0	0
7.536967	-0.09852209	-0.4594793	0	0	0	0
7.556715	-0.09852209	-0.4594793	0	0	0	0
7.573283	-0.09852209	-0.4594793	0	0	0	0
7.58985	-0.09852209	-0.4594793	0	0	0	0
7.611029	-0.09852209	-0.4594793	0	0	0	0
7.627596	-0.09852209	-0.4594793	0	0	0	0
7.648278	-0.09852209	-0.4594793	0	0	0	0
7.66511	-0.09852209	-0.4594793	0	0	0	0
7.686779	-0.09852209	-0.4594793	0	0	0	0
7.703347	-0.09852209	-0.4594793	0	0	0	0
7.72694	-0.09852209	-0.4594793	0	0	0	0
7.743676	-0.09852209	-0.4594793	0	0	0	0
7.764821	-0.09852209	-0.4594793	0	0	0	0
7.782012	-0.09852209	-0.4594793	0	0	0	0
7.802951	-0.09852209	-0.4594793	0	0	0	0
7.81952	-0.09852209	-0.4594793	0	0	0	0
7.845512	-0.09849603	-0.4595029	0.001002665	-0.0009092201	0.023558	-0.02136249
7.862079	-0.09849603	-0.4595029	0	0	-0.02355932	0.02136368
7.884598	-0.09849603	-0.4595029	0	0	0	0
7.901165	-0.09849603	-0.4595029	0	0	0	0
7.922504	-0.09849603	-0.4595029	0	0	0	0
7.942771	-0.09849603	-0.4595029	0	0	0	0
7.970232	-0.09849603	-0.4595029	0	0	0	0
7.987658	-0.09849603	-0.4595029	0	0	0	0
8.009989	-0.09849603	-0.4595029	0	0	0	0
8.026875	-0.09849603	-0.4595029	0	0	0	0
8.046811	-0.09846997	-0.4595266	0.001307316	-0.001185479	0.03550335	-0.03219457
8.06553	-0.09846997	-0.4595266	0	0	-0.03382068	0.03066872
8.0821	-0.09846997	-0.4595266	0	0	0	0
8.102875	-0.09846997	-0.4595266	0	0	0	0
8.119446	-0.09846997	-0.4595266	0	0	0	0
8.1481	-0.09849603	-0.4595502	-0.0009095428	-0.000824777	-0.02011144	-0.01823713
8.164666	-0.09849603	-0.4595502	0	0	0.02011356	0.01823906
8.189512	-0.09849603	-0.4595502	0	0	0	0
8.206079	-0.09849603	-0.4595502	0	0	0	0
8.228388	-0.09846997	-0.4595738	0.001168268	-0.00105939	0.03005146	-0.02725078
8.256251	-0.09846997	-0.4595738	0	0	-0.02328533	0.02111522
8.27746	-0.09846997	-0.4595738	0	0	0	0
8.295609	-0.09846997	-0.4595738	0	0	0	0
8.319396	-0.09846997	-0.4595738	0	0	0	0
8.336082	-0.09846997	-0.4595738	0	0	0	0
8.355935	-0.09844391	-0.4595975	0.001312404	-0.001190433	0.03591782	-0.03257973
8.372604	-0.09844391	-0.4595975	0	0	-0.0359347	0.03259504
8.389071	-0.09844391	-0.4595975	0	0	0	0
8.409854	-0.09844391	-0.4595975	0	0	0	0
8.426646	-0.09844391	-0.4595975	0	0	0	0
8.450924	-0.09844391	-0.4595975	0	0	0	0
8.46749	-0.09844391	-0.4595975	0	0	0	0
8.489893	-0.09841785	-0.4596211	0.001163344	-0.001054925	0.02985304	-0.02707086
8.506461	-0.09841785	-0.4596211	0	0	-0.02985158	0.02706953
8.527152	-0.09841785	-0.4596211	0	0	0	0
8.543741	-0.09841785	-0.4596211	0	0	0	0
8.565608	-0.09841785	-0.4596211	0	0	0	0
8.582175	-0.09841785	-0.4596211	0	0	0	0
8.608583	-0.09841785	-0.4596211	0	0	0	0
8.62515	-0.09841785	-0.4596211	0	0	0	0
8.647648	-0.09841785	-0.4596211	0	0	0	0
8.66431	-0.09841785	-0.4596211	0	0	0	0
8.68566	-0.09841785	-0.4596211	0	0	0	0
8.702227	-0.09841785	-0.4596211	0	0	0	0
8.725024	-0.09839179	-0.4596447	0.001143197	-0.001036656	0.02904179	-0.02633521
8.741853	-0.09839179	-0.4596447	0	0	-0.02884958	0.02616091
8.762527	-0.09839179	-0.4596447	0	0	0	0
8.824065	-0.09839179	-0.4596447	0	0	0	0
8.848237	-0.09839179	-0.4596447	0	0	0	0
8.864803	-0.09839179	-0.4596447	0	0	0	0
8.886604	-0.09836572	-0.4596684	0.001195456	-0.001084044	0.03115822	-0.0282544
8.90348	-0.09836572	-0.4596684	0	0	-0.0309093	0.02802867
8.92317	-0.09839179	-0.459692	-0.001323588	-0.001200235	-0.03619745	-0.03282399
8.939738	-0.09839179	-0.459692	0	0	0.03650402	0.03310198
8.956516	-0.09839179	-0.459692	0	0	0	0
8.979563	-0.09839179	-0.459692	0	0	0	0
8.996131	-0.09839179	-0.459692	0	0	0	0
9.017607	-0.09839179	-0.459692	0	0	0	0
9.034176	-0.09839179	-0.459692	0	0	0	0
9.056042	-0.09839179	-0.459692	0	0	0	0
9.07261	-0.09839179	-0.459692	0	0	0	0
9.0996	-0.09839179	-0.459692	0	0	0	0
9.116167	-0.09839179	-0.459692	0	0	0	0
9.13623	-0.09839179	-0.459692	0	0	0	0
9.155419	-0.09839179	-0.459692	0	0	0	0
9.177833	-0.09839179	-0.459692	0	0	0	0
9.194401	-0.09839179	-0.459692	0	0	0	0
9.215365	-0.09836572	-0.4597156	0.001243148	-0.001127292	0.03312164	-0.03003483
9.231934	-0.09836572	-0.4597156	0	0	-0.03312164	0.03003483
9.253556	-0.09836572	-0.4597156	0	0	0	0
9.270237	-0.09836572	-0.4597156	0	0	0	0
9.291975	-0.09836572	-0.4597156	0	0	0	0
9.309111	-0.09836572	-0.4597156	0	0	0	0
9.330029	-0.09836572	-0.4597156	0	0	0	0
9.34679	-0.09836572	-0.4597156	0	0	0	0
9.371277	-0.09836572	-0.4597156	0	0	0	0
9.387843	-0.09836572	-0.4597156	0	0	0	0
9.409266	-0.09836572	-0.4597156	0	0	0	0
9.425848	-0.09836572	-0.4597156	0	0	0	0
9.446177	-0.09836572	-0.4597156	0	0	0	0
9.462744	-0.09836572	-0.4597156	0	0	0	0
9.483787	-0.09836572	-0.4597156	0	0	0	0
9.500354	-0.09836572	-0.4597156	0	0	0	0
9.526011	-0.09833966	-0.4597393	0.001015802	-0.0009211333	0.0240575	-0.02181543
9.546297	-0.09833966	-0.4597393	0	0	-0.02210993	0.02004937
9.569209	-0.09836572	-0.4597629	-0.001137487	-0.001031478	-0.02633158	-0.02387758
9.585776	-0.09836572	-0.4597629	0	0	0.02881227	0.02612708
9.606043	-0.09836572	-0.4597629	0	0	0	0
9.622609	-0.09836572	-0.4597629	0	0	0	0
9.643736	-0.09836572	-0.4597629	0	0	0	0
9.660304	-0.09836572	-0.4597629	0	0	0	0
9.681469	-0.09836572	-0.4597629	0	0	0	0
9.698036	-0.09836572	-0.4597629	0	0	0	0
9.725531	-0.09836572	-0.4597629	0	0	0	0
9.742623	-0.09836572	-0.4597629	0	0	0	0
9.764572	-0.09836572	-0.4598102	0	-0.002153487	0	-0.05515889
9.781713	-0.09836572	-0.4598102	0	0	0	0.05509026
9.804548	-0.09836572	-0.4598102	0	0	0	0
9.82305	-0.09836572	-0.4598102	0	0	0	0
9.844338	-0.09836572	-0.4598102	0	0	0	0
9.860905	-0.09836572	-0.4598102	0	0	0	0
9.889888	-0.09836572	-0.4598102	0	0	0	0
9.906686	-0.09836572	-0.4598102	0	0	0	0
9.928311	-0.09836572	-0.4598575	0	-0.002187059	0	-0.05691977
9.944878	-0.09836572	-0.4598575	0	0	0	0.05726516
9.965789	-0.09836572	-0.4598575	0	0	0	0
9.982355	-0.09836572	-0.4598575	0	0	0	0
10.00843	-0.09839179	-0.4598811	-0.0009994926	-0.0009063437	-0.02343936	-0.0212549
10.02576	-0.09839179	-0.4598811	0	0	0.02302837	0.02088221
10.05171	-0.09839179	-0.4598811	0	0	0	0
10.06837	-0.09839179	-0.4598811	0	0	0	0
10.09373	-0.09839179	-0.4599284	0	-0.001863883	0	-0.04436727
10.11036	-0.09839179	-0.4599284	0	0	0	0.04438843
10.13322	-0.09841785	-0.459952	-0.001139907	-0.001033672	-0.02886241	-0.02617254
10.15405	-0.09841785	-0.459952	0	0	0.02608754	0.02365628
10.17484	-0.09919964	-0.4606614	-0.03760393	-0.03411984	-0.9034592	-0.8197517
10.19241	-0.09919964	-0.4606614	0	0	0.9804454	0.889605
10.21469	-0.1079732	-0.4687018	-0.3936891	-0.3607939	-9.879453	-9.053963
10.23126	-0.1079732	-0.4687018	0	0	10.13311	9.286428
10.25441	-0.1123408	-0.4727514	-0.1886855	-0.1749469	-4.751124	-4.405186
10.27097	-0.1123408	-0.4727514	0	0	4.751124	4.405186
10.29284	-0.1123408	-0.4727514	0	0	0	0
10.31135	-0.1123408	-0.4727514	0	0	0	0
10.33403	-0.1123408	-0.4727514	0	0	0	0
10.35184	-0.1123408	-0.4727514	0	0	0	0
10.37307	-0.1123408	-0.4727514	0	0	0	0
10.38964	-0.1123408	-0.4727514	0	0	0	0
10.41234	-0.1123148	-0.4727275	0.001144669	0.001051468	0.02914769	0.02677443
10.42891	-0.1123148	-0.4727275	0	0	-0.0291484	-0.02677508
10.45145	-0.1123148	-0.4727275	0	0	0	0
10.46808	-0.1123148	-0.4727275	0	0	0	0
10.48797	-0.1123148	-0.4727275	0	0	0	0
10.50454	-0.1123148	-0.4727275	0	0	0	0
10.52112	-0.1123148	-0.4727275	0	0	0	0
10.54352	-0.1122888	-0.4727514	0.001159735	-0.001065613	0.02975242	-0.02733776
10.56014	-0.1122888	-0.4727514	0	0	-0.02971607	0.02730436
10.58553	-0.1122888	-0.4727514	0	0	0	0
10.60217	-0.1122888	-0.4727514	0	0	0	0
10.622	-0.1122888	-0.4727514	0	0	0	0
10.63908	-0.1122888	-0.4727514	0	0	0	0
10.65564	-0.1122888	-0.4727514	0	0	0	0
10.6822	-0.1122888	-0.4727514	0	0	0	0
10.69877	-0.1122888	-0.4727514	0	0	0	0
10.75587	-0.1122888	-0.4727514	0	0	0	0
10.80919	-0.1122888	-0.4727514	0	0	0	0
10.84287	-0.1122888	-0.4727514	0	0	0	0
10.86652	-0.1122888	-0.4727514	0	0	0	0
10.89588	-0.1122888	-0.4727514	0	0	0	0
10.91698	-0.1122888	-0.4727514	0	0	0	0
10.93858	-0.1122888	-0.4727514	0	0	0	0
10.9552	-0.1122888	-0.4727514	0	0	0	0
10.97559	-0.1122888	-0.4727514	0	0	0	0
10.99216	-0.1122888	-0.4727514	0	0	0	0
11.01341	-0.1122888	-0.4727514	0	0	0	0
11.02998	-0.1122888	-0.4727514	0	0	0	0
11.04987	-0.1122888	-0.4727514	0	0	0	0
11.06643	-0.1122888	-0.4727514	0	0	0	0
11.0835	-0.1122888	-0.4727514	0	0	0	0
11.10445	-0.1122628	-0.4727753	0.001240441	-0.001138019	0.03263162	-0.02993726
11.12102	-0.1122628	-0.4727753	0	0	-0.03306295	0.03033298
11.14242	-0.1122628	-0.4727753	0	0	0	0
11.15899	-0.1122628	-0.4727753	0	0	0	0
11.18055	-0.1122628	-0.4727753	0	0	0	0
11.19711	-0.1122628	-0.4727753	0	0	0	0
11.22183	-0.1122628	-0.4727753	0	0	0	0
11.2384	-0.1122628	-0.4727753	0	0	0	0
11.25836	-0.1122628	-0.4727753	0	0	0	0
11.27493	-0.1122628	-0.4727753	0	0	0	0
11.2915	-0.1122628	-0.4727753	0	0	0	0
11.31693	-0.1122628	-0.4727753	0	0	0	0
11.33369	-0.1122628	-0.4727753	0	0	0	0
11.35492	-0.111977	-0.4730377	0.01347	-0.01236687	0.3546417	-0.3255982
11.37149	-0.111977	-0.4730377	0	0	-0.3564136	0.327225
11.39325	-0.1048509	-0.4794472	0.3274423	-0.2945169	8.541637	-7.682745
11.40982	-0.1048509	-0.4794472	0	0	-8.542912	7.683892
11.433	-0.07690068	-0.5042437	1.205641	-1.069603	30.33125	-26.90882
11.44957	-0.07690068	-0.5042437	0	0	-30.33052	26.90817
11.47111	-0.03845472	-0.5378814	1.78489	-1.561664	46.83899	-40.98112
11.48767	-0.03845472	-0.5378814	0	0	-46.83899	40.98112
11.50927	-0.009762848	-0.5605156	1.328341	-1.047888	34.8034	-27.45535
11.5261	-0.009762848	-0.5605156	0	0	-34.56503	27.26731
11.54595	0.0119468	-0.5513362	1.094118	0.4626189	29.83475	12.61484
11.56985	0.0119468	-0.5513362	0	0	-25.00851	-10.57419
11.58642	0.0119468	-0.5513362	0	0	0	0
11.60786	0.05321287	-0.537681	1.925021	0.6370034	50.65448	16.76194
11.62517	0.05321287	-0.537681	0	0	-49.67834	-16.43893
11.64667	0.09356809	-0.5760048	1.876935	-1.782454	48.35769	-45.92346
11.66324	0.09356809	-0.5760048	0	0	-49.30628	46.82431
11.68624	0.1265568	-0.6153088	1.433832	-1.708321	36.23196	-43.16813
11.70296	0.1265568	-0.6153088	0	0	-36.09886	43.00955
11.72731	0.1512312	-0.6447422	1.013234	-1.20866	24.67434	-29.43337
11.74387	0.1512312	-0.6447422	0	0	-24.76233	29.53833
11.77132	0.1564478	-0.6580935	0.1900779	-0.4864762	4.318862	-11.05348
11.78913	0.1564478	-0.6580935	0	0	-4.200269	10.74996
11.80986	0.1453622	-0.6816396	-0.5346399	-1.135584	-13.87101	-29.46226
11.82643	0.1453622	-0.6816396	0	0	14.33273	30.44297
11.8544	0.1352999	-0.6959102	-0.3597853	-0.5102575	-8.078766	-11.45753
11.87096	0.1352999	-0.6959102	0	0	8.078938	11.45778
11.89486	0.1408506	-0.7337757	0.2322464	-1.584332	5.739254	-39.15187
11.91143	0.1408506	-0.7337757	0	0	-5.739119	39.15095
11.93527	0.1355841	-0.7726952	-0.2209638	-1.632923	-5.469204	-40.41742
11.95235	0.1355841	-0.7726952	0	0	5.400116	39.90685
11.97501	0.1276961	-0.808589	-0.3481419	-1.584198	-8.760158	-39.86255
11.99157	0.1276961	-0.808589	0	0	8.875596	40.38784
12.012	0.1260647	-0.8421339	-0.07986338	-1.642204	-2.158821	-44.39112
12.02857	0.1260647	-0.8421339	0	0	2.158877	44.39227
12.04905	0.1240441	-0.8642089	-0.09867515	-1.077976	-2.663691	-29.09946
12.06561	0.1240441	-0.8642089	0	0	2.663622	29.09872
12.08861	0.1199996	-0.8698981	-0.1758468	-0.2473566	-4.444281	-6.25159
12.10806	0.1199996	-0.8698981	0	0	4.143196	5.828066
12.13155	0.1177423	-0.8731127	-0.09607574	-0.1368221	-2.237583	-3.186558
12.14843	0.1177423	-0.8731127	0	0	2.379824	3.389124
12.16934	0.1177423	-0.8731127	0	0	0	0
12.18606	0.1177423	-0.8731127	0	0	0	0
12.20741	0.1177164	-0.8730773	-0.001215883	0.001658403	-0.03193431	0.04355679
12.22398	0.1177164	-0.8730773	0	0	0.03206765	-0.04373865
12.24655	0.1177164	-0.8730773	0	0	0	0
12.26737	0.1177164	-0.8730773	0	0	0	0
12.29016	0.1176904	-0.8730419	-0.001138628	0.001553477	-0.02610957	0.03562235
12.3098	0.1176904	-0.8730419	0	0	0.02683007	-0.03660537
12.33348	0.1176645	-0.8730065	-0.001096022	0.001495348	-0.02529799	0.03451509
12.35005	0.1176645	-0.8730065	0	0	0.02723435	-0.03715694
12.37264	0.1176126	-0.8729357	-0.002297775	0.003134498	-0.05867977	0.08004773
12.39543	0.1176126	-0.8729357	0	0	0.05062917	-0.06906553
12.41965	0.1175866	-0.8729003	-0.001071984	0.001459671	-0.02280404	0.0310512
12.43796	0.1175866	-0.8729003	0	0	0.02520533	-0.03432092
12.46595	0.1175607	-0.8728649	-0.0009270872	0.001264863	-0.02002062	0.02731496
12.48766	0.1175607	-0.8728649	0	0	0.0186559	-0.025453
12.51253	0.1174828	-0.8727587	-0.003130572	0.004267954	-0.06721492	0.09163508
12.52952	0.1174828	-0.8727587	0	0	0.07479078	-0.1019634
12.55606	0.1174309	-0.872688	-0.001955441	0.00266526	-0.0449212	0.06122746
12.57323	0.1174309	-0.872688	0	0	0.04473303	-0.06097099
12.60115	0.1174049	-0.8726526	-0.0009293988	0.001268017	-0.02061221	0.02812208
12.62228	0.1174049	-0.8726526	0	0	0.01894565	-0.02584833
12.64357	0.1173011	-0.8725111	-0.004877125	0.00664703	-0.1149661	0.1566872
12.66014	0.1173011	-0.8725111	0	0	0.1288365	-0.1755912
12.68118	0.1172233	-0.872405	-0.00370036	0.005041922	-0.09838752	0.1340578
12.69792	0.1172233	-0.872405	0	0	0.09793554	-0.133442
12.72136	0.1171713	-0.8723342	-0.002214659	0.003018574	-0.05511948	0.07512768
12.73863	0.1171713	-0.8723342	0	0	0.05440409	-0.07415262
12.76196	0.1171454	-0.8722989	-0.001112695	0.001515105	-0.02740769	0.03731977
12.77853	0.1171454	-0.8722989	0	0	0.02788989	-0.03797635
12.80254	0.1171454	-0.8722989	0	0	0	0
12.81928	0.1171454	-0.8722989	0	0	0	0
12.84048	0.1171454	-0.8722989	0	0	0	0
12.85705	0.1171454	-0.8722989	0	0	0	0
12.88535	0.1171194	-0.8722636	-0.000917352	0.001249115	-0.02044666	0.02784127
12.90257	0.1171194	-0.8722636	0	0	0.0201528	-0.02744113
12.92542	0.1170416	-0.8721575	-0.00340784	0.004643349	-0.08504198	0.1158739
12.94199	0.1170416	-0.8721575	0	0	0.08645551	-0.1177999
12.96476	0.1169637	-0.8720514	-0.0034203	0.004657263	-0.08695044	0.1183963
12.98132	0.1169637	-0.8720514	0	0	0.08695255	-0.1183992
13.00225	0.1164445	-0.8713447	-0.02480966	0.03376931	-0.661702	0.9006662
13.01882	0.1164445	-0.8713447	0	0	0.6616684	-0.9006204
13.04133	0.11351	-0.8673643	-0.1303522	0.1768089	-3.335387	4.524098
13.0579	0.11351	-0.8673643	0	0	3.335632	-4.524429
13.07838	0.1009452	-0.8504422	-0.6134524	0.826192	-16.55816	22.30038
13.09521	0.1009452	-0.8504422	0	0	16.44219	-22.14419
13.1165	0.07637745	-0.8182085	-1.15407	1.514179	-30.27823	39.72606
13.13569	0.07637745	-0.8182085	0	0	28.50786	-37.40327
13.15819	0.03117411	-0.7597938	-2.009375	2.596645	-48.19704	62.28336
13.17475	0.03117411	-0.7597938	0	0	51.43999	-66.47411
13.20093	-0.03346119	-0.6636156	-2.469215	3.674225	-57.76925	85.9614
13.21782	-0.03346119	-0.6636156	0	0	57.33685	-85.31798
13.23849	-0.07404857	-0.5924318	-1.963776	3.44415	-52.28837	91.70547
13.25908	-0.07404857	-0.5924318	0	0	47.59432	-83.47286
13.28556	-0.09422019	-0.5331038	-0.761639	2.240107	-16.17852	47.58371
13.30439	-0.09422019	-0.5331038	0	0	16.8088	-49.43746
13.32967	-0.08934049	-0.4913168	0.1930045	1.652779	4.375497	37.46922
13.3464	-0.08934049	-0.4913168	0	0	-4.594322	-39.34311
13.36751	-0.07072395	-0.4699631	0.8819396	1.011611	23.31008	26.73736
13.38443	-0.07072395	-0.4699631	0	0	-23.19141	-26.60124
13.40598	-0.05990193	-0.4601648	0.5021554	0.4546531	13.05275	11.818
13.42255	-0.05990193	-0.4601648	0	0	-13.17358	-11.9274
13.44463	-0.05840718	-0.4588178	0.06767853	0.06098736	1.750909	1.577802
13.4615	-0.05840718	-0.4588178	0	0	-1.737406	-1.565634
13.48581	-0.05840718	-0.4588178	0	0	0	0
13.50238	-0.05840718	-0.4588178	0	0	0	0
13.52402	-0.05840718	-0.4588178	0	0	0	0
13.54059	-0.05840718	-0.4588178	0	0	0	0
13.56725	-0.05840718	-0.4588178	0	0	0	0
13.58557	-0.05840718	-0.4588178	0	0	0	0
13.60563	-0.05838095	-0.4588414	0.001307407	-0.001176666	0.03406425	-0.03065782
13.6222	-0.05838095	-0.4588414	0	0	-0.03569442	0.03212498
13.64626	-0.05838095	-0.4588887	0	-0.001964116	0	-0.04833771
13.66283	-0.05838095	-0.4588887	0	0	0	0.04833997
13.68751	-0.05838095	-0.4588887	0	0	0	0
13.70408	-0.05838095	-0.4588887	0	0	0	0
13.72398	-0.05838095	-0.4589832	0	-0.004747556	0	-0.1301892
13.7431	-0.05838095	-0.4589832	0	0	0	0.1216562
13.76143	-0.05838095	-0.4589832	0	0	0	0
13.78278	-0.05840718	-0.459054	-0.001228611	-0.003320042	-0.03097005	-0.08368951
13.79972	-0.05840718	-0.459054	0	0	0.03208857	0.08671208
13.8234	-0.05840718	-0.459054	0	0	0	0
13.83997	-0.05840718	-0.459054	0	0	0	0
13.8663	-0.05840718	-0.459054	0	0	0	0
13.885	-0.05840718	-0.459054	0	0	0	0
13.90553	-0.05840718	-0.4591485	0	-0.004603445	0	-0.1173297
13.9221	-0.05840718	-0.4591485	0	0	0	0.1240954
13.94347	-0.0584334	-0.4592194	-0.001227569	-0.003317226	-0.03236283	-0.0874532
13.96003	-0.0584334	-0.4592194	0	0	0.03236365	0.08745541
13.98523	-0.0584334	-0.4592667	0	-0.001875733	0	-0.04491138
14.00481	-0.0584334	-0.4592667	0	0	0	0.04188706
14.02611	-0.05835472	-0.4593848	0.00369425	-0.005546973	0.09036982	-0.1356917
14.04268	-0.05835472	-0.4593848	0	0	-0.09756699	0.1464983
14.06524	-0.05830227	-0.4595738	0.002324893	-0.008378862	0.05941863	-0.2141434
14.08242	-0.05830227	-0.4595738	0	0	-0.05849475	0.2108138
14.1037	-0.05830227	-0.4596211	0	-0.002221239	0	-0.05774913
14.12027	-0.05830227	-0.4596211	0	0	0	0.05869063
14.14301	-0.05827605	-0.459692	0.001153378	-0.003118054	0.0293438	-0.07932831
14.15957	-0.05827605	-0.459692	0	0	-0.02934309	0.07932638
14.1816	-0.0583285	-0.4597865	-0.002381571	-0.00429224	-0.06171098	-0.11122
14.19817	-0.0583285	-0.4597865	0	0	0.0617125	0.1112228
14.2183	-0.05838095	-0.4598338	-0.002605277	-0.00234919	-0.07098799	-0.06401019
14.23487	-0.05838095	-0.4598338	0	0	0.07098614	0.06400853
14.25623	-0.0584334	-0.4599284	-0.002455248	-0.004425026	-0.06472856	-0.1166585
14.27308	-0.0584334	-0.4599284	0	0	0.06424399	0.1157852
14.2974	-0.05869566	-0.4601648	-0.01078712	-0.009724483	-0.2620376	-0.2362243
14.31466	-0.05869566	-0.4601648	0	0	0.259459	0.2338997
14.3349	-0.05872189	-0.4602357	-0.001295459	-0.003502155	-0.03453819	-0.09337086
14.3525	-0.05872189	-0.4602357	0	0	0.03423268	0.09254494
14.38125	-0.05872189	-0.4602357	0	0	0	0
14.39861	-0.05872189	-0.4602357	0	0	0	0
14.42089	-0.05872189	-0.460283	0	-0.002122929	0	-0.05355852
14.43746	-0.05872189	-0.460283	0	0	0	0.0546512
14.46141	-0.05872189	-0.4603303	0	-0.001974824	0	-0.04874195
14.47797	-0.05872189	-0.4603303	0	0	0	0.0487408
14.4984	-0.05872189	-0.4603303	0	0	0	0
14.51497	-0.05872189	-0.4603303	0	0	0	0
14.53566	-0.05872189	-0.4603303	0	0	0	0
14.5523	-0.05872189	-0.4603303	0	0	0	0
14.57257	-0.05874811	-0.4603539	-0.001294179	-0.001166231	-0.03506575	-0.03159902
14.58927	-0.05874811	-0.4603539	0	0	0.03500696	0.03154604
14.60933	-0.05874811	-0.4603539	0	0	0	0
14.6259	-0.05874811	-0.4603539	0	0	0	0
14.6466	-0.05874811	-0.4604012	0	-0.002284479	0	-0.06129448
14.66414	-0.05874811	-0.4604012	0	0	0	0.05974137
14.68774	-0.05874811	-0.4604485	0	-0.002003788	0	-0.04870703
14.70431	-0.05874811	-0.4604485	0	0	0	0.04988305
14.72739	-0.05872189	-0.4606141	0.001136035	-0.007171221	0.02865023	-0.1808545
14.7496	-0.05872189	-0.4606141	0	0	-0.02508252	0.1583334
14.77359	-0.05877433	-0.4607086	-0.002186202	-0.003942896	-0.04732352	-0.08534973
14.79016	-0.05877433	-0.4607086	0	0	0.05390455	0.09721886
14.81793	-0.05880056	-0.4607323	-0.0009444006	-0.0008521069	-0.02130083	-0.01921916
14.83449	-0.05880056	-0.4607323	0	0	0.02130038	0.01921875
14.85529	-0.05880056	-0.4607796	0	-0.00227463	0	-0.06088378
14.87185	-0.05880056	-0.4607796	0	0	0	0.06088533
14.89287	-0.05887923	-0.4608506	-0.003743017	-0.003375964	-0.09958737	-0.0898215
14.9095	-0.05887923	-0.4608506	0	0	0.09942087	0.08967133
14.93742	-0.05945616	-0.461371	-0.02066154	-0.01863964	-0.4637639	-0.4183808
14.95467	-0.05945616	-0.461371	0	0	0.4574867	0.4127178
14.9801	-0.06176345	-0.4635023	-0.09069793	-0.08377694	-2.125079	-1.962919
14.99667	-0.06176345	-0.4635023	0	0	2.15919	1.994426
15.01942	-0.06176345	-0.4635023	0	0	0	0
15.0361	-0.06176345	-0.4635023	0	0	0	0
15.06094	-0.06176345	-0.4635023	0	0	0	0
15.07753	-0.06176345	-0.4635023	0	0	0	0
15.09814	-0.06173723	-0.463526	0.001272017	-0.001151087	0.03419577	-0.03094482
15.11471	-0.06173723	-0.463526	0	0	-0.03421595	0.03096308
15.13557	-0.06171102	-0.4635497	0.001256492	-0.001135611	0.03356844	-0.03033896
15.15217	-0.06171102	-0.4635497	0	0	-0.03354194	0.03031502
15.17432	-0.06165859	-0.4635971	0.002367434	-0.002139674	0.06110609	-0.05522733
15.19153	-0.06165859	-0.4635971	0	0	-0.06014233	0.05435629
15.21351	-0.06163237	-0.4636208	0.001193289	-0.001078335	0.03044933	-0.02751602
15.23023	-0.06163237	-0.4636208	0	0	-0.03083882	0.02786799
15.25033	-0.06163237	-0.4636682	0	-0.002359022	0	-0.06406501
15.2669	-0.06163237	-0.4636682	0	0	0	0.06432991
15.29347	-0.06163237	-0.4636682	0	0	0	0
15.3162	-0.06163237	-0.4636682	0	0	0	0
15.33827	-0.06160615	-0.4636919	0.001187501	-0.001073257	0.02650628	-0.02395622
15.35484	-0.06160615	-0.4636919	0	0	-0.03073014	0.02777372
15.3818	-0.06155372	-0.4637867	0.001944972	-0.003516565	0.0446856	-0.08079284
15.39837	-0.06155372	-0.4637867	0	0	-0.04468462	0.08079107
15.41873	-0.06126534	-0.4640948	0.01415819	-0.01513045	0.3833089	-0.4096313
15.4353	-0.06126534	-0.4640948	0	0	-0.3833287	0.4096525
15.45626	-0.06060988	-0.4646877	0.03127328	-0.02828525	0.8333947	-0.7537673
15.47283	-0.06060988	-0.4646877	0	0	-0.8333947	0.7537673
15.49519	-0.05969216	-0.4655181	0.04103295	-0.0371277	1.053969	-0.9536588
15.51176	-0.05969216	-0.4655181	0	0	-1.053917	0.953612
15.53402	-0.05866943	-0.4664914	0.0459373	-0.04372055	1.182984	-1.125898
15.55059	-0.05866943	-0.4664914	0	0	-1.182955	1.12587
15.57767	-0.05861698	-0.4665389	0.001936823	-0.00175427	0.04437296	-0.04019064
15.59472	-0.05861698	-0.4665389	0	0	-0.04388966	0.03975289
15.61534	-0.05853831	-0.4666577	0.003815735	-0.005758291	0.1012959	-0.1528648
15.63258	-0.05853831	-0.4666577	0	0	-0.1007983	0.1521138
15.65593	-0.05845963	-0.4667289	0.003369272	-0.003051489	0.08301271	-0.07518311
15.67446	-0.05845963	-0.4667289	0	0	-0.0804458	0.0728583
15.69672	-0.05845963	-0.4667765	0	-0.002135093	0	-0.05233793
15.71454	-0.05845963	-0.4667765	0	0	0	0.05327196
15.73653	-0.05845963	-0.4667765	0	0	0	0
15.7531	-0.05845963	-0.4667765	0	0	0	0
15.77559	-0.0584334	-0.4668002	0.001165847	-0.001055887	0.02984131	-0.02702674
15.79216	-0.0584334	-0.4668002	0	0	-0.02984568	0.0270307
15.81328	-0.0584334	-0.4668477	0	-0.002248973	0	-0.05967002
15.82985	-0.0584334	-0.4668477	0	0	0	0.05967002
15.8513	-0.0584334	-0.4668477	0	0	0	0
15.8727	-0.0584334	-0.4668477	0	0	0	0
15.89537	-0.0584334	-0.4668952	0	-0.002095868	0	-0.04756156
15.91194	-0.0584334	-0.4668952	0	0	0	0.05342077
15.93375	-0.05840718	-0.466919	0.001202291	-0.001088893	0.03132547	-0.02837091
15.95032	-0.05840718	-0.466919	0	0	-0.03132469	0.0283702
15.97542	-0.0584334	-0.4669427	-0.001044952	-0.000946394	-0.02507923	-0.0227138
15.99198	-0.0584334	-0.4669427	0	0	0.0250798	0.02271432
16.01593	-0.05840718	-0.4669665	0.001095312	-0.0009920042	0.02703731	-0.0244872
16.03418	-0.05840718	-0.4669665	0	0	-0.02595697	0.02350875
16.054	-0.05840718	-0.4669665	0	0	0	0
16.07082	-0.05840718	-0.4669665	0	0	0	0
16.08733	-0.05840718	-0.4669665	0	0	0	0
16.10923	-0.0584334	-0.4669902	-0.001197214	-0.001084295	-0.03116453	-0.02822515
16.12586	-0.0584334	-0.4669902	0	0	0.03107043	0.02813992
16.14762	-0.0584334	-0.4669902	0	0	0	0
16.16419	-0.0584334	-0.4669902	0	0	0	0
16.18693	-0.05840718	-0.467014	0.001153136	-0.001045685	0.02933409	-0.02660069
16.2035	-0.05840718	-0.467014	0	0	-0.02933409	0.02660069
16.22927	-0.05840718	-0.4670615	0	-0.00184286	0	-0.04352008
16.24646	-0.05840718	-0.4670615	0	0	0	0.04289028
16.26731	-0.05835472	-0.467109	0.002516702	-0.002279331	0.06617566	-0.05993409
16.28387	-0.05835472	-0.467109	0	0	-0.06727561	0.0609303
16.31252	-0.05835472	-0.4671566	0	-0.001659467	0	-0.03670429
16.33256	-0.05835472	-0.4671566	0	0	0	0.03408574
16.35579	-0.05835472	-0.4672041	0	-0.002044345	0	-0.04723778
16.37236	-0.05835472	-0.4672041	0	0	0	0.05135969
16.39762	-0.05835472	-0.4672516	0	-0.001882175	0	-0.04500395
16.41418	-0.05835472	-0.4672516	0	0	0	0.04500395
16.43719	-0.05835472	-0.4672516	0	0	0	0
16.45376	-0.05835472	-0.4672516	0	0	0	0
16.47912	-0.05835472	-0.4672991	0	-0.001874671	0	-0.04471644
16.4969	-0.05835472	-0.4672991	0	0	0	0.04345318
16.52238	-0.05835472	-0.4672991	0	0	0	0
16.53895	-0.05835472	-0.4672991	0	0	0	0
16.56069	-0.05838095	-0.4673229	-0.00120614	-0.001092379	-0.03148287	-0.02851346
16.57901	-0.05838095	-0.4673229	0	0	0.03010831	0.02726855
16.60376	-0.05835472	-0.4673466	0.001059485	-0.0009595565	0.02459924	-0.02227908
16.62169	-0.05835472	-0.4673466	0	0	-0.02482128	0.02248018
16.64314	-0.05835472	-0.4673466	0	0	0	0
16.65973	-0.05835472	-0.4673466	0	0	0	0
16.68076	-0.05838095	-0.4673704	-0.001247052	-0.00113085	-0.03314986	-0.03006089
16.69733	-0.05838095	-0.4673704	0	0	0.03316836	0.03007767
16.72034	-0.05838095	-0.467418	0	-0.002066319	0	-0.05221701
16.7369	-0.05838095	-0.467418	0	0	0	0.05221953
16.75966	-0.05840718	-0.4674417	-0.001152363	-0.001043675	-0.02930447	-0.02654053
16.77623	-0.05840718	-0.4674417	0	0	0.02930305	0.02653924
16.79894	-0.05840718	-0.4674892	0	-0.002092693	0	-0.05327379
16.81584	-0.05840718	-0.4674892	0	0	0	0.05282492
16.83912	-0.0584334	-0.467513	-0.001126772	-0.001020497	-0.02804563	-0.02540042
16.85672	-0.0584334	-0.467513	0	0	0.02756407	0.02496428
16.87856	-0.0584334	-0.4675605	0	-0.002176013	0	-0.05516185
16.89701	-0.0584334	-0.4675605	0	0	0	0.0540102
16.91826	-0.0584334	-0.4675605	0	0	0	0
16.93493	-0.0584334	-0.4675605	0	0	0	0
17.01193	-0.05848585	-0.4676081	-0.0006812327	-0.0006173671	-0.007272696	-0.006590881
17.0285	-0.05848585	-0.4676081	0	0	0.007280999	0.006598405
17.05227	-0.05848585	-0.4676081	0	0	0	0
17.06902	-0.05848585	-0.4676081	0	0	0	0
17.08996	-0.05845963	-0.4676318	0.001252391	-0.001135691	0.03323447	-0.03013763
17.10653	-0.05845963	-0.4676318	0	0	-0.03338996	0.03027862
17.12721	-0.05845963	-0.4676318	0	0	0	0
17.14512	-0.05845963	-0.4676318	0	0	0	0
17.16793	-0.05845963	-0.4676318	0	0	0	0
17.1846	-0.05845963	-0.4676318	0	0	0	0
17.20482	-0.05845963	-0.4676318	0	0	0	0
17.22214	-0.05845963	-0.4676318	0	0	0	0
17.24979	-0.05845963	-0.4676318	0	0	0	0
17.26636	-0.05845963	-0.4676318	0	0	0	0
17.28949	-0.05845963	-0.4676794	0	-0.002055073	0	-0.05176317
17.30818	-0.05845963	-0.4676794	0	0	0	0.0491403
17.33047	-0.05845963	-0.4676794	0	0	0	0
17.34704	-0.05845963	-0.4676794	0	0	0	0
17.3704	-0.05845963	-0.4676794	0	0	0	0
17.38724	-0.05845963	-0.4676794	0	0	0	0
17.40671	-0.05845963	-0.4676794	0	0	0	0
17.42328	-0.05845963	-0.4676794	0	0	0	0
17.43985	-0.05845963	-0.4676794	0	0	0	0
17.4624	-0.05845963	-0.4676794	0	0	0	0
17.47897	-0.05845963	-0.4676794	0	0	0	0
17.503	-0.05845963	-0.4676794	0	0	0	0
17.51957	-0.05845963	-0.4676794	0	0	0	0
17.54384	-0.05845963	-0.4676794	0	0	0	0
17.56266	-0.05845963	-0.4676794	0	0	0	0
17.58622	-0.05845963	-0.4676794	0	0	0	0
17.60651	-0.05845963	-0.4676794	0	0	0	0
17.62894	-0.05845963	-0.4676794	0	0	0	0
17.64551	-0.05845963	-0.4676794	0	0	0	0
17.66729	-0.05845963	-0.4676794	0	0	0	0
17.68386	-0.05845963	-0.4676794	0	0	0	0
17.70283	-0.05845963	-0.4676794	0	0	0	0
17.72042	-0.05845963	-0.4676794	0	0	0	0
17.74153	-0.05845963	-0.4676794	0	0	0	0
17.76407	-0.05845963	-0.4676794	0	0	0	0
17.78064	-0.05845963	-0.4676794	0	0	0	0
17.8014	-0.05845963	-0.4676794	0	0	0	0
17.81797	-0.05845963	-0.4676794	0	0	0	0
17.83916	-0.05845963	-0.4676794	0	0	0	0
17.85573	-0.05845963	-0.4676794	0	0	0	0
17.87694	-0.05845963	-0.4676794	0	0	0	0
17.89351	-0.05845963	-0.4676794	0	0	0	0
17.91434	-0.05845963	-0.4676794	0	0	0	0
17.93091	-0.05845963	-0.4676794	0	0	0	0
17.95194	-0.05845963	-0.4676794	0	0	0	0
17.96855	-0.05845963	-0.4676794	0	0	0	0
17.99102	-0.05845963	-0.4676794	0	0	0	0
18.00759	-0.05845963	-0.4676794	0	0	0	0
18.03158	-0.05845963	-0.4676794	0	0	0	0
18.05388	-0.05845963	-0.4676794	0	0	0	0
18.07574	-0.05845963	-0.4676794	0	0	0	0
18.0923	-0.05845963	-0.4676794	0	0	0	0
18.11237	-0.05845963	-0.4676794	0	0	0	0
18.12894	-0.05845963	-0.4676794	0	0	0	0
18.14885	-0.05845963	-0.4676794	0	0	0	0
18.16541	-0.05845963	-0.4676794	0	0	0	0
18.18234	-0.05845963	-0.4676794	0	0	0	0
18.20843	-0.05845963	-0.4676794	0	0	0	0
18.22534	-0.05845963	-0.4676794	0	0	0	0
18.24702	-0.05845963	-0.4676794	0	0	0	0
18.26359	-0.05845963	-0.4676794	0	0	0	0
18.28684	-0.05845963	-0.4676794	0	0	0	0
18.3055	-0.05845963	-0.4676794	0	0	0	0
18.32967	-0.05845963	-0.4676794	0	0	0	0
18.34667	-0.05845963	-0.4676794	0	0	0	0
18.3669	-0.05845963	-0.4676794	0	0	0	0
18.38347	-0.05845963	-0.4676794	0	0	0	0
18.41128	-0.05845963	-0.4676794	0	0	0	0
18.42785	-0.05845963	-0.4676794	0	0	0	0
18.45378	-0.05845963	-0.4676794	0	0	0	0
18.47034	-0.05845963	-0.4676794	0	0	0	0
18.49689	-0.05845963	-0.4676794	0	0	0	0
18.51345	-0.05845963	-0.4676794	0	0	0	0
18.5355	-0.05845963	-0.4676794	0	0	0	0
18.55258	-0.05845963	-0.4676794	0	0	0	0
18.57376	-0.05845963	-0.4676794	0	0	0	0
18.59176	-0.05845963	-0.4676794	0	0	0	0
18.61526	-0.05845963	-0.4676794	0	0	0	0
18.63183	-0.05845963	-0.4676794	0	0	0	0
18.65233	-0.05845963	-0.4676794	0	0	0	0
18.6689	-0.05845963	-0.4676794	0	0	0	0
18.69034	-0.05845963	-0.4676794	0	0	0	0
18.70691	-0.05845963	-0.4676794	0	0	0	0
18.72979	-0.05845963	-0.4676794	0	0	0	0
18.74636	-0.05845963	-0.4676794	0	0	0	0
18.76711	-0.05845963	-0.4676794	0	0	0	0
18.78423	-0.05845963	-0.4676794	0	0	0	0
18.80473	-0.05845963	-0.4676794	0	0	0	0
18.82129	-0.05845963	-0.4676794	0	0	0	0
18.85156	-0.05845963	-0.4676794	0	0	0	0
18.86812	-0.05845963	-0.4676794	0	0	0	0
18.89255	-0.05845963	-0.4676794	0	0	0	0
18.91069	-0.05845963	-0.4676794	0	0	0	0
18.93235	-0.05845963	-0.4676794	0	0	0	0
18.94971	-0.05845963	-0.4676794	0	0	0	0
18.96995	-0.05845963	-0.4676794	0	0	0	0
18.98652	-0.05845963	-0.4676794	0	0	0	0
19.00788	-0.05845963	-0.4676794	0	0	0	0
19.02445	-0.05845963	-0.4676794	0	0	0	0
19.04712	-0.05851208	-0.4677745	-0.002314425	-0.004194896	-0.05899578	-0.1069299
19.06368	-0.05851208	-0.4677745	0	0	0.05899578	0.1069299
19.08514	-0.06273337	-0.4719882	-0.1967612	-0.1964113	-5.175054	-5.165852
19.1017	-0.06273337	-0.4719882	0	0	5.175054	5.165852
19.12358	-0.09338548	-0.5105338	-1.401337	-1.762204	-36.45452	-45.84213
19.14216	-0.09338548	-0.5105338	0	0	34.63789	43.5577
19.16267	-0.129068	-0.5875396	-1.739623	-3.754254	-44.49741	-96.0292
19.18295	-0.129068	-0.5875396	0	0	42.65167	92.04594
19.20504	-0.162758	-0.6735619	-1.52493	-3.893675	-35.99255	-91.90146
19.2233	-0.162758	-0.6735619	0	0	37.79082	96.49306
19.24439	-0.1939519	-0.7446417	-1.478984	-3.370074	-37.58487	-85.64246
19.26108	-0.1939519	-0.7446417	0	0	39.1445	89.1963
19.28289	-0.2187581	-0.7852466	-1.13725	-1.86155	-29.53617	-48.34737
19.30169	-0.2187581	-0.7852466	0	0	28.00332	45.83827
19.3248	-0.2363162	-0.8078711	-0.7597805	-0.9790154	-18.12961	-23.36091
19.34137	-0.2363162	-0.8078711	0	0	19.1493	24.67484
19.36505	-0.2458206	-0.820722	-0.4013401	-0.5426542	-9.971463	-13.48247
19.38166	-0.2458206	-0.820722	0	0	9.961078	13.46843
19.40478	-0.2623869	-0.8437	-0.7164474	-0.9937361	-18.03201	-25.01099
19.42433	-0.2623869	-0.8437	0	0	16.7892	23.28717
19.45153	-0.2810676	-0.8710622	-0.6868699	-1.006079	-14.69328	-21.5217
19.4681	-0.2810676	-0.8710622	0	0	15.69482	22.98869
19.49051	-0.2919154	-0.9105048	-0.484117	-1.760238	-12.42129	-45.16354
19.50707	-0.2919154	-0.9105048	0	0	12.42129	45.16354
19.53035	-0.2893792	-0.942333	0.1089487	-1.367237	2.734215	-34.31266
19.54692	-0.2893792	-0.942333	0	0	-2.734215	34.31266
19.56872	-0.2889199	-0.9432311	0.02106614	-0.0411892	0.5489972	-1.073417
19.58529	-0.2889199	-0.9432311	0	0	-0.5489699	1.073364
19.60545	-0.2925911	-0.9491969	-0.1821	-0.2959141	-4.957825	-8.056511
19.6238	-0.2925911	-0.9491969	0	0	4.729187	7.684973
19.64591	-0.2996691	-0.9605709	-0.320041	-0.5142922	-7.909944	-12.71094
19.6699	-0.2996691	-0.9605709	0	0	6.941653	11.15494
19.69175	-0.3012058	-0.9631435	-0.07034115	-0.1177591	-1.534644	-2.569168
19.71187	-0.3012058	-0.9631435	0	0	1.676167	2.806094
19.73952	-0.3011818	-0.9631838	0.0008687741	-0.001457299	0.0181875	-0.03050807
19.75608	-0.3011818	-0.9631838	0	0	-0.01964834	0.03295851
19.77831	-0.3011818	-0.9631838	0	0	0	0
19.79487	-0.3011818	-0.9631838	0	0	0	0
19.81637	-0.3011818	-0.9631838	0	0	0	0
19.83317	-0.3011818	-0.9631838	0	0	0	0
19.85439	-0.3012058	-0.9631435	-0.001132124	0.001899047	-0.0297807	0.04995472
19.87102	-0.3012058	-0.9631435	0	0	0.02991277	-0.05017626
19.89477	-0.3012298	-0.9631032	-0.001009967	0.001696242	-0.0250089	0.04200252
19.91134	-0.3012298	-0.9631032	0	0	0.02504794	-0.04206809
19.93707	-0.3012298	-0.9631032	0	0	0	0
19.95364	-0.3012298	-0.9631032	0	0	0	0
19.97544	-0.3012538	-0.963063	-0.00110016	0.001844988	-0.02866944	0.04807919
19.99442	-0.3012538	-0.963063	0	0	0.02697472	-0.04523711
20.01658	-0.3013258	-0.9629422	-0.003249828	0.005453147	-0.07900611	0.1325707
20.03314	-0.3013258	-0.9629422	0	0	0.08392502	-0.1408245
20.05453	-0.3013258	-0.9629422	0	0	0	0
20.07116	-0.3013258	-0.9629422	0	0	0	0
20.09152	-0.3013498	-0.9629019	-0.001178499	0.001979294	-0.03186227	0.05351278
20.10808	-0.3013498	-0.9629019	0	0	0.03191658	-0.053604
20.13134	-0.3014218	-0.9627811	-0.003096293	0.005192955	-0.07775405	0.1304054
20.14926	-0.3014218	-0.9627811	0	0	0.07519335	-0.1261107
20.17044	-0.3014218	-0.9627811	0	0	0	0
20.187	-0.3014218	-0.9627811	0	0	0	0
20.20901	-0.3015177	-0.9625396	-0.004359835	0.0109727	-0.1130134	0.2844288
20.22558	-0.3015177	-0.9625396	0	0	0.1130134	-0.2844288
20.24879	-0.3020935	-0.9615746	-0.02480485	0.04157251	-0.623556	1.04507
20.26536	-0.3020935	-0.9615746	0	0	0.623556	-1.04507
20.29379	-0.3052805	-0.9561728	-0.1120973	0.1899969	-2.491152	4.222325
20.31224	-0.3052805	-0.9561728	0	0	2.391117	-4.052773
20.33575	-0.3052326	-0.9560134	0.002037107	0.006779369	0.04854905	0.1615683
20.3529	-0.3052326	-0.9560134	0	0	-0.05010699	-0.1667531
20.37469	-0.3049453	-0.9555356	0.0131815	0.0219245	0.3385042	0.5630267
20.39137	-0.3049453	-0.9555356	0	0	-0.3425988	-0.569837
20.41874	-0.3042508	-0.9543821	0.02537633	0.04214579	0.5761023	0.9568084
20.4358	-0.3042508	-0.9543821	0	0	-0.5711314	-0.9485526
20.46257	-0.2969282	-0.942372	0.2735622	0.4486782	6.241313	10.23658
20.47914	-0.2969282	-0.942372	0	0	-6.312737	-10.35372
20.50022	-0.2726182	-0.9041621	1.153329	1.812777	30.6367	48.15409
20.51679	-0.2726182	-0.9041621	0	0	-30.63515	-48.15165
20.54152	-0.2279421	-0.8388416	1.806366	2.641072	43.73585	63.9458
20.56035	-0.2279421	-0.8388416	0	0	-41.46843	-60.63063
20.58265	-0.1887523	-0.7464955	1.757332	4.140946	42.7282	100.684
20.59921	-0.1887523	-0.7464955	0	0	-45.21288	-106.5388
20.61906	-0.1732712	-0.6408484	0.7801394	5.323866	21.42576	146.2147
20.63707	-0.1732712	-0.6408484	0	0	-20.60958	-140.6449
20.65406	-0.1732712	-0.6408484	0	0	0	0
20.67458	-0.1557031	-0.5159916	0.8561761	6.084858	22.82533	162.22
20.69114	-0.1557031	-0.5159916	0	0	-23.08593	-164.0721
20.71276	-0.1329738	-0.4665152	1.051782	2.289489	27.54979	59.96959
20.72932	-0.1329738	-0.4665152	0	0	-27.54979	-59.96959
20.75594	-0.1041741	-0.4357394	1.082079	1.156326	25.05834	26.77774
20.77706	-0.1041741	-0.4357394	0	0	-22.66835	-24.22376
20.79891	-0.07344659	-0.4085844	1.405889	1.242435	32.71307	28.90972
20.81548	-0.07344659	-0.4085844	0	0	-36.58928	-32.33526
20.83787	-0.05649246	-0.3938866	0.7574003	0.6566015	19.44452	16.85674
20.85443	-0.05649246	-0.3938866	0	0	-19.44452	-16.85674
20.87624	-0.03808684	-0.3781167	0.843887	0.7230406	21.98896	18.84009
20.89281	-0.03808684	-0.3781167	0	0	-21.98896	-18.84009
20.91767	-0.01392015	-0.3577633	0.9720961	0.8187061	23.46493	19.76233
20.93605	-0.01392015	-0.3577633	0	0	-22.48063	-18.93334
20.96014	0.0004473684	-0.3458249	0.5965093	0.4956582	14.04638	11.67158
20.97671	0.0004473684	-0.3458249	0	0	-14.67311	-12.19235
20.99848	0.006420964	-0.3408938	0.2743898	0.226505	7.157177	5.908152
21.01504	0.006420964	-0.3408938	0	0	-7.157177	-5.908152
21.03649	0.006605167	-0.3407844	0.008588279	0.005100878	0.225916	0.1341794
21.09067	0.006605167	-0.3407844	0	0	-0.113562	-0.0674484
21.11459	0.006710425	-0.3406968	0.004400079	0.003658956	0.0563389	0.0468495
21.13116	0.006710425	-0.3406968	0	0	-0.1086678	-0.09036444
21.15812	0.00673674	-0.3407187	0.0009759063	-0.0008112577	0.02241745	-0.01863533
21.17729	0.00673674	-0.3407187	0	0	-0.02115505	0.0175859
21.19963	0.00673674	-0.3407187	0	0	0	0
21.21619	0.00673674	-0.3407187	0	0	0	0
21.23726	0.006710425	-0.3407406	-0.00124922	-0.001039875	-0.0331957	-0.02763273
21.25399	0.006710425	-0.3407406	0	0	0.03305163	0.02751281
21.27592	0.006710425	-0.3408282	0	-0.003990489	0	-0.1032047
21.29976	0.006710425	-0.3408282	0	0	0	0.08718083
21.32043	0.006710425	-0.3408719	0	-0.002116982	0	-0.04756817
21.33979	0.006710425	-0.3408719	0	0	0	0.05288551
21.36616	0.006763055	-0.3409594	0.001996023	-0.003319634	0.04364743	-0.07259111
21.38272	0.006763055	-0.3409594	0	0	-0.04649004	0.07731872
21.40336	0.006763055	-0.3412221	0	-0.01273025	0	-0.3422201
21.41992	0.006763055	-0.3412221	0	0	0	0.3422201
21.44346	0.006657796	-0.3414848	-0.004471382	-0.01115854	-0.1114843	-0.2782143
21.46003	0.006657796	-0.3414848	0	0	0.111479	0.2782011
21.48293	0.006473594	-0.3417694	-0.008045251	-0.01243075	-0.2038581	-0.3149821
21.4995	0.006473594	-0.3417694	0	0	0.203868	0.3149973
21.52094	0.006157817	-0.3421198	-0.01472806	-0.01634224	-0.3875016	-0.4299715
21.53768	0.006157817	-0.3421198	0	0	0.3856823	0.4279527
21.55848	0.004157871	-0.3438288	-0.09616174	-0.08217455	-2.561291	-2.188739
21.57853	0.004157871	-0.3438288	0	0	2.354149	2.011726
21.60048	0.004210501	-0.3438726	0.002398392	-0.001997773	0.05711261	-0.0475727
21.61704	0.004210501	-0.3438726	0	0	-0.06227767	0.051875
21.63779	0.004210501	-0.3438726	0	0	0	0
21.65436	0.004210501	-0.3438726	0	0	0	0
21.67858	0.004210501	-0.3438726	0	0	0	0
21.6953	0.004210501	-0.3438726	0	0	0	0
21.71694	0.004236817	-0.3438946	0.001215584	-0.001013216	0.03168204	-0.02640768
21.73351	0.004236817	-0.3438946	0	0	-0.03180854	0.02651312
21.75529	0.004210501	-0.3439165	-0.001208027	-0.001006917	-0.03149918	-0.02625526
21.77406	0.004210501	-0.3439165	0	0	0.02979228	0.02483252
21.79892	0.004263132	-0.3439603	0.002117203	-0.001763552	0.04853413	-0.04042714
21.81577	0.004263132	-0.3439603	0	0	-0.05075556	0.04227751
21.83835	0.004394709	-0.34407	0.005828824	-0.00485583	0.147832	-0.1231547
21.85502	0.004394709	-0.34407	0	0	-0.1485	0.1237112
21.88055	0.004631546	-0.344355	0.009278949	-0.01116822	0.2198699	-0.2646373
21.89746	0.004631546	-0.344355	0	0	-0.2186839	0.2632097
21.91878	0.005105219	-0.3449253	0.02221496	-0.02674378	0.5811026	-0.6995682
21.93534	0.005105219	-0.3449253	0	0	-0.5863095	0.7058366
21.95767	0.005026273	-0.345035	-0.003536712	-0.004914605	-0.09094392	-0.1263754
21.97505	0.005026273	-0.345035	0	0	0.0890741	0.1237771
21.99567	0.004921013	-0.3451227	-0.005103743	-0.004254139	-0.1342817	-0.1119282
22.01252	0.004921013	-0.3451227	0	0	0.1362023	0.1135292
22.03459	0.004815752	-0.3452105	-0.004769424	-0.003976806	-0.1225521	-0.1021854
22.05116	0.004815752	-0.3452105	0	0	0.1234414	0.102927
22.07408	0.004789437	-0.3452324	-0.001148284	-0.0009571369	-0.02908224	-0.02424112
22.09064	0.004789437	-0.3452324	0	0	0.02908224	0.02424112
22.1204	0.004631546	-0.345364	-0.005306784	-0.004424362	-0.114568	-0.09551739
22.13696	0.004631546	-0.345364	0	0	0.114568	0.09551739
22.15806	0.004526285	-0.3454957	-0.004990235	-0.006242088	-0.1325055	-0.1657459
22.17462	0.004526285	-0.3454957	0	0	0.1325055	0.1657459
22.19615	0.004236817	-0.3457371	-0.01344954	-0.0112161	-0.3531013	-0.2944651
22.21271	0.004236817	-0.3457371	0	0	0.3531721	0.2945241
22.23492	-0.003868402	-0.3526867	-0.3648866	-0.3128636	-9.410943	-8.069197
22.25149	-0.003868402	-0.3526867	0	0	9.408628	8.067212
22.27635	-0.03112153	-0.3776019	-1.096079	-1.00205	-26.45404	-24.18462
22.2953	-0.03112153	-0.3776019	0	0	25.0179	22.87168
22.31944	-0.06165859	-0.4170076	-1.26483	-1.632163	-29.35265	-37.87728
22.33625	-0.06165859	-0.4170076	0	0	30.88659	39.85671
22.35858	-0.06624503	-0.4351816	-0.2054352	-0.8140498	-5.249657	-20.80209
22.37703	-0.06624503	-0.4351816	0	0	5.038227	19.96429
22.39932	-0.06600922	-0.4353443	0.01057685	-0.007295855	0.2595879	-0.1790623
22.41589	-0.06600922	-0.4353443	0	0	-0.2721494	0.1877272
22.44595	-0.06600922	-0.4353443	0	0	0	0
22.46252	-0.06600922	-0.4353443	0	0	0	0
22.48794	-0.06600922	-0.4352978	0	0.001828096	0	0.04354407
22.50488	-0.06600922	-0.4352978	0	0	0	-0.04315392
22.52644	-0.06600922	-0.4352978	0	0	0	0
22.54301	-0.06600922	-0.4352978	0	0	0	0
22.56365	-0.06595682	-0.4352049	0.002538593	0.004503269	0.06822256	0.1210216
22.58055	-0.06595682	-0.4352049	0	0	-0.0676229	-0.1199578
22.60413	-0.06593062	-0.4352281	0.001111422	-0.000985964	0.02745888	-0.02435932
22.62069	-0.06593062	-0.4352281	0	0	-0.02768589	0.0245607
22.64168	-0.06593062	-0.4352281	0	0	0	0
22.65824	-0.06593062	-0.4352281	0	0	0	0
22.67956	-0.06593062	-0.4352281	0	0	0	0
22.69738	-0.06593062	-0.4352281	0	0	0	0
22.71976	-0.06593062	-0.4352281	0	0	0	0
22.73653	-0.06593062	-0.4352281	0	0	0	0
22.75587	-0.06593062	-0.4352281	0	0	0	0
22.77257	-0.06593062	-0.4352281	0	0	0	0
22.78908	-0.06593062	-0.4352281	0	0	0	0
22.81062	-0.06593062	-0.4352281	0	0	0	0
22.82718	-0.06593062	-0.4352281	0	0	0	0
22.85233	-0.06590442	-0.4352514	0.0010422	-0.0009233709	0.02498687	-0.02213793
22.87589	-0.06590442	-0.4352514	0	0	-0.02139607	0.01895655
22.8987	-0.06593062	-0.4352746	-0.001148686	-0.001019022	-0.02476732	-0.02197158
22.91527	-0.06593062	-0.4352746	0	0	0.02916992	0.02587721
22.93734	-0.06590442	-0.4352978	0.001187508	-0.001053462	0.0307379	-0.0272682
22.95419	-0.06590442	-0.4352978	0	0	-0.03051344	0.02706907
22.98162	-0.06590442	-0.4352978	0	0	0	0
23.00018	-0.06590442	-0.4352978	0	0	0	0
23.02067	-0.06590442	-0.4352978	0	0	0	0
23.03724	-0.06590442	-0.4352978	0	0	0	0
23.05949	-0.06590442	-0.4352978	0	0	0	0
23.07606	-0.06590442	-0.4352978	0	0	0	0
23.09889	-0.06590442	-0.4352978	0	0	0	0
23.11546	-0.06590442	-0.4352978	0	0	0	0
23.13941	-0.06590442	-0.4352978	0	0	0	0
23.15598	-0.06590442	-0.4352978	0	0	0	0
23.17692	-0.06590442	-0.4352978	0	0	0	0
23.19386	-0.06590442	-0.4352978	0	0	0	0
23.21667	-0.06590442	-0.4352978	0	0	0	0
23.23339	-0.06590442	-0.4352978	0	0	0	0
23.25413	-0.06590442	-0.4352978	0	0	0	0
23.27392	-0.06590442	-0.4352978	0	0	0	0
23.30411	-0.06590442	-0.4352978	0	0	0	0
23.32231	-0.06590442	-0.4352978	0	0	0	0
23.34469	-0.06590442	-0.4352978	0	0	0	0
23.36126	-0.06590442	-0.4352978	0	0	0	0
23.38383	-0.06590442	-0.4352978	0	0	0	0
23.4004	-0.06590442	-0.4352978	0	0	0	0
23.42222	-0.06590442	-0.4352978	0	0	0	0
23.44221	-0.06590442	-0.4352978	0	0	0	0
23.46433	-0.06593062	-0.4353211	-0.001184437	-0.00104939	-0.02812436	-0.02491769
23.4809	-0.06593062	-0.4353211	0	0	0.03061306	0.02712263
23.5034	-0.06593062	-0.4353211	0	0	0	0
23.52222	-0.06593062	-0.4353211	0	0	0	0
23.54557	-0.06593062	-0.4353211	0	0	0	0
23.56214	-0.06593062	-0.4353211	0	0	0	0
23.58365	-0.06593062	-0.4353211	0	0	0	0
23.60022	-0.06593062	-0.4353211	0	0	0	0
23.62341	-0.06593062	-0.4353211	0	0	0	0
23.64017	-0.06593062	-0.4353211	0	0	0	0
23.66137	-0.06593062	-0.4353211	0	0	0	0
23.67865	-0.06593062	-0.4353211	0	0	0	0
23.70663	-0.06593062	-0.4353211	0	0	0	0
23.72477	-0.06593062	-0.4353211	0	0	0	0
23.75014	-0.06593062	-0.4353211	0	0	0	0
23.7667	-0.06593062	-0.4353211	0	0	0	0
23.78803	-0.06593062	-0.4353211	0	0	0	0
23.8046	-0.06593062	-0.4353211	0	0	0	0
23.82715	-0.06595682	-0.4353443	-0.001162095	-0.001030917	-0.029709	-0.02635544
23.84899	-0.06595682	-0.4353443	0	0	0.02617823	0.02322323
23.87246	-0.06595682	-0.4353443	0	0	0	0
23.88903	-0.06595682	-0.4353443	0	0	0	0
23.90851	-0.06595682	-0.4353443	0	0	0	0
23.92513	-0.06595682	-0.4353443	0	0	0	0
23.9441	-0.06595682	-0.4353443	0	0	0	0
23.96728	-0.06595682	-0.4353443	0	0	0	0
23.98469	-0.06595682	-0.4353443	0	0	0	0
24.0054	-0.06595682	-0.4353443	0	0	0	0
24.02197	-0.06595682	-0.4353443	0	0	0	0
24.04486	-0.06595682	-0.4353443	0	0	0	0
24.06142	-0.06595682	-0.4353443	0	0	0	0
24.0854	-0.06595682	-0.4353443	0	0	0	0
24.10196	-0.06595682	-0.4353443	0	0	0	0
24.126	-0.06595682	-0.4353443	0	0	0	0
24.14257	-0.06595682	-0.4353443	0	0	0	0
24.17083	-0.06595682	-0.4353443	0	0	0	0
24.18838	-0.06595682	-0.4353443	0	0	0	0
24.21217	-0.06598302	-0.4353676	-0.001101128	-0.0009771106	-0.02663476	-0.02363494
24.22873	-0.06598302	-0.4353676	0	0	0.0272843	0.02421132
24.25182	-0.06598302	-0.4353676	0	0	0	0
24.26839	-0.06598302	-0.4353676	0	0	0	0
24.28911	-0.06598302	-0.4353676	0	0	0	0
24.3063	-0.06598302	-0.4353676	0	0	0	0
24.32765	-0.06600922	-0.4353908	-0.00122718	-0.001088656	-0.03184024	-0.02824611
24.34422	-0.06600922	-0.4353908	0	0	0.03236235	0.02870928
24.36567	-0.06603543	-0.435414	-0.001221289	-0.001082041	-0.03211975	-0.02845753
24.38285	-0.06603543	-0.435414	0	0	0.03161075	0.02800656
24.40532	-0.06611403	-0.4354838	-0.003498679	-0.003104041	-0.08824763	-0.07829364
24.42223	-0.06611403	-0.4354838	0	0	0.08884604	0.07882454
24.44476	-0.07182361	-0.4405589	-0.2534472	-0.2252839	-6.426121	-5.712044
24.46434	-0.07182361	-0.4405589	0	0	6.018631	5.349834
24.4895	-0.08084969	-0.448674	-0.358804	-0.3225901	-8.019979	-7.210526
24.51439	-0.08084969	-0.448674	0	0	7.168259	6.44477
24.53953	-0.09531556	-0.4617734	-0.5754386	-0.5210819	-11.50017	-10.41385
24.55871	-0.09531556	-0.4617734	0	0	12.98621	11.75951
24.57955	-0.1012838	-0.4671566	-0.2862842	-0.2582199	-7.15353	-6.452274
24.59635	-0.1012838	-0.4671566	0	0	7.604771	6.85928
24.61712	-0.1012578	-0.4671328	0.001254478	0.001143958	0.03339805	0.03045566
24.63368	-0.1012578	-0.4671328	0	0	-0.03360282	-0.03064238
24.65749	-0.1012578	-0.4671328	0	0	0	0
24.67848	-0.1012578	-0.4671328	0	0	0	0
24.6999	-0.1012317	-0.4671566	0.001216051	-0.001108916	0.02867891	-0.02615228
24.71646	-0.1012317	-0.4671566	0	0	-0.03201249	0.02919217
24.74187	-0.1012317	-0.4671566	0	0	0	0
24.75902	-0.1012317	-0.4671566	0	0	0	0
24.78174	-0.1012317	-0.4671566	0	0	0	0
24.79879	-0.1012317	-0.4671566	0	0	0	0
24.82056	-0.1012317	-0.4671566	0	0	0	0
24.83713	-0.1012317	-0.4671566	0	0	0	0
24.8577	-0.1012317	-0.4671566	0	0	0	0
24.87455	-0.1012317	-0.4671566	0	0	0	0
24.89711	-0.1012578	-0.4671328	-0.001154472	0.001052762	-0.0292899	0.02670944
24.9166	-0.1012578	-0.4671328	0	0	0.02745264	-0.02503405
24.93598	-0.1012317	-0.467109	0.001344119	0.001227239	0.03457998	0.03157303
24.9526	-0.1012317	-0.467109	0	0	-0.03733539	-0.03408884
24.96912	-0.1012317	-0.467109	0	0	0	0
24.98993	-0.1012057	-0.4670853	0.001251604	0.001141337	0.03353439	0.03057999
25.00664	-0.1012057	-0.4670853	0	0	-0.03335371	-0.03041523
25.02828	-0.1012057	-0.4670853	0	0	0	0
25.04517	-0.1012057	-0.4670853	0	0	0	0
25.06489	-0.1012057	-0.4670853	0	0	0	0
25.08146	-0.1012057	-0.4670853	0	0	0	0
25.09803	-0.1012057	-0.4670853	0	0	0	0
25.11941	-0.1012057	-0.4670853	0	0	0	0
25.17412	-0.1012057	-0.4670853	0	0	0	0
25.1964	-0.1012057	-0.4670853	0	0	0	0
25.21296	-0.1012057	-0.4670853	0	0	0	0
25.23418	-0.1012057	-0.4670853	0	0	0	0
25.25074	-0.1012057	-0.4670853	0	0	0	0
25.27251	-0.1012057	-0.4670853	0	0	0	0
25.28946	-0.1012057	-0.4670853	0	0	0	0
25.31553	-0.1012057	-0.4670853	0	0	0	0
25.33237	-0.1012057	-0.4670853	0	0	0	0
25.3613	-0.1012057	-0.4670853	0	0	0	0
25.37786	-0.1012057	-0.4670853	0	0	0	0
25.39941	-0.1012057	-0.4670853	0	0	0	0
25.41628	-0.1012057	-0.4670853	0	0	0	0
25.43836	-0.1012057	-0.4670853	0	0	0	0
25.45492	-0.1012057	-0.4670853	0	0	0	0
25.47578	-0.1012057	-0.4670853	0	0	0	0
25.49284	-0.1012057	-0.4670853	0	0	0	0
25.51652	-0.1012057	-0.4670853	0	0	0	0
25.53308	-0.1012057	-0.4670853	0	0	0	0
25.55366	-0.1012057	-0.4670853	0	0	0	0
25.57219	-0.1012057	-0.4670853	0	0	0	0
25.59606	-0.1012057	-0.4670853	0	0	0	0
25.61263	-0.1012057	-0.4670853	0	0	0	0
25.63537	-0.1012057	-0.4670853	0	0	0	0
25.65209	-0.1012057	-0.4670853	0	0	0	0
25.67335	-0.1012057	-0.4670853	0	0	0	0
25.69012	-0.1012057	-0.4670853	0	0	0	0
25.71342	-0.1012057	-0.4670853	0	0	0	0
25.73158	-0.1012057	-0.4670853	0	0	0	0
25.75299	-0.1012057	-0.4670853	0	0	0	0
25.76956	-0.1012057	-0.4670853	0	0	0	0
25.78948	-0.1012057	-0.4670853	0	0	0	0
25.80604	-0.1012057	-0.4670853	0	0	0	0
25.82305	-0.1012057	-0.4670853	0	0	0	0
25.84504	-0.1012057	-0.4670853	0	0	0	0
25.86244	-0.1012057	-0.4670853	0	0	0	0
25.88519	-0.1012057	-0.4670853	0	0	0	0
25.90177	-0.1012057	-0.4670853	0	0	0	0
25.92258	-0.1012057	-0.4670853	0	0	0	0
25.94004	-0.1012057	-0.4670853	0	0	0	0
25.96331	-0.1011796	-0.467109	0.001119181	-0.001020581	0.02747967	-0.02505869
25.97988	-0.1011796	-0.467109	0	0	-0.02809141	0.02561654
26.00278	-0.1011796	-0.467109	0	0	0	0
26.01934	-0.1011796	-0.467109	0	0	0	0
26.04321	-0.1012057	-0.4671328	-0.001091103	-0.0009962248	-0.02698106	-0.02463488
26.05978	-0.1012057	-0.4671328	0	0	0.02698106	0.02463488
26.08204	-0.1012057	-0.4671328	0	0	0	0
26.0986	-0.1012057	-0.4671328	0	0	0	0
26.12075	-0.1012057	-0.4671328	0	0	0	0
26.1438	-0.1012057	-0.4671328	0	0	0	0
26.16571	-0.1012057	-0.4671328	0	0	0	0
26.18248	-0.1012057	-0.4671328	0	0	0	0
26.20377	-0.1012057	-0.4671328	0	0	0	0
26.22144	-0.1012057	-0.4671328	0	0	0	0
26.2435	-0.1012057	-0.4671328	0	0	0	0
26.26007	-0.1012057	-0.4671328	0	0	0	0
26.28613	-0.1012057	-0.4671328	0	0	0	0
26.36485	-0.1012057	-0.4671328	0	0	0	0
26.38637	-0.1012057	-0.4671328	0	0	0	0
26.40597	-0.1012057	-0.4671328	0	0	0	0
26.42864	-0.1012057	-0.4671328	0	0	0	0
26.44521	-0.1012057	-0.4671328	0	0	0	0
26.467	-0.1012057	-0.4671328	0	0	0	0
26.48357	-0.1012057	-0.4671328	0	0	0	0
27.09748	-0.1012057	-0.4671803	0	-7.738105E-05	0	-0.000122734
27.11452	-0.1012057	-0.4671803	0	0	0	0.0001226416
27.14108	-0.1012057	-0.4671803	0	0	0	0
27.15768	-0.1012057	-0.4671803	0	0	0	0
27.18044	-0.1012057	-0.4671803	0	0	0	0
27.19701	-0.1012057	-0.4671803	0	0	0	0
27.21857	-0.1012057	-0.4671803	0	0	0	0
27.23514	-0.1012057	-0.4671803	0	0	0	0
27.25699	-0.1012057	-0.4671803	0	0	0	0
27.27355	-0.1012057	-0.4671803	0	0	0	0
27.29926	-0.1012057	-0.4671803	0	0	0	0
27.31584	-0.1012057	-0.4671803	0	0	0	0
27.33645	-0.1012057	-0.4671803	0	0	0	0
27.35302	-0.1012057	-0.4671803	0	0	0	0
27.37815	-0.1012057	-0.4671803	0	0	0	0
27.3952	-0.1012057	-0.4671803	0	0	0	0
27.41653	-0.1012057	-0.4671803	0	0	0	0
27.43338	-0.1012057	-0.4671803	0	0	0	0
27.45459	-0.1012057	-0.4671803	0	0	0	0
27.47278	-0.1012057	-0.4671803	0	0	0	0
27.49642	-0.1012057	-0.4671803	0	0	0	0
27.51299	-0.1012057	-0.4671803	0	0	0	0
27.53539	-0.1012057	-0.4671803	0	0	0	0
27.55196	-0.1012057	-0.4671803	0	0	0	0
27.57331	-0.1012057	-0.4671803	0	0	0	0
27.59231	-0.1012057	-0.4671803	0	0	0	0
27.61972	-0.1012057	-0.4671803	0	0	0	0
27.63651	-0.1012057	-0.4671803	0	0	0	0
27.65791	-0.1012057	-0.4671803	0	0	0	0
27.67455	-0.1012057	-0.4671803	0	0	0	0
27.69871	-0.1012057	-0.4671803	0	0	0	0
27.71528	-0.1012057	-0.4671803	0	0	0	0
27.73691	-0.1011796	-0.4672041	0.001204255	-0.001098159	0.03152783	-0.02875021
27.75536	-0.1011796	-0.4672041	0	0	-0.03004837	0.02740109
27.77661	-0.1011796	-0.4672041	0	0	0	0
27.79318	-0.1011796	-0.4672041	0	0	0	0
27.81403	-0.1011796	-0.4672041	0	0	0	0
27.83067	-0.1011796	-0.4672041	0	0	0	0
27.85107	-0.1011796	-0.4672041	0	0	0	0
27.86764	-0.1011796	-0.4672041	0	0	0	0
27.89083	-0.1011796	-0.4672041	0	0	0	0
27.90803	-0.1011796	-0.4672041	0	0	0	0
27.93085	-0.1011796	-0.4672041	0	0	0	0
27.94758	-0.1011796	-0.4672041	0	0	0	0
27.96829	-0.1011796	-0.4672041	0	0	0	0
27.98727	-0.1011796	-0.4672041	0	0	0	0
28.01152	-0.1011796	-0.4672041	0	0	0	0
28.02809	-0.1011796	-0.4672041	0	0	0	0
28.04979	-0.1011796	-0.4672041	0	0	0	0
28.06636	-0.1011796	-0.4672041	0	0	0	0
28.08904	-0.1011796	-0.4672041	0	0	0	0
28.10561	-0.1011796	-0.4672041	0	0	0	0
28.12709	-0.1011796	-0.4672041	0	0	0	0
28.14366	-0.1011796	-0.4672041	0	0	0	0
28.16443	-0.1011796	-0.4672041	0	0	0	0
28.18505	-0.1011796	-0.4672041	0	0	0	0
28.20945	-0.1011796	-0.4672041	0	0	0	0
28.22627	-0.1011796	-0.4672041	0	0	0	0
28.24953	-0.1011796	-0.4672041	0	0	0	0
28.26651	-0.1011796	-0.4672041	0	0	0	0
28.29365	-0.1012057	-0.4671803	-0.0009598152	0.0008752548	-0.0217552	0.01983855
28.31247	-0.1012057	-0.4671803	0	0	0.02088655	-0.01904643
28.33432	-0.1011796	-0.4672041	0.001191957	-0.001086945	0.0293091	-0.02672695
28.35089	-0.1011796	-0.4672041	0	0	-0.03102461	0.02829132
28.37299	-0.1011796	-0.4672041	0	0	0	0
28.38955	-0.1011796	-0.4672041	0	0	0	0
28.41953	-0.1011796	-0.4672041	0	0	0	0
28.43612	-0.1011796	-0.4672041	0	0	0	0
28.46192	-0.1011796	-0.4672041	0	0	0	0
28.48008	-0.1011796	-0.4672041	0	0	0	0
28.50269	-0.1011796	-0.4672041	0	0	0	0
28.52001	-0.1011796	-0.4672041	0	0	0	0
28.54241	-0.1011796	-0.4672041	0	0	0	0
28.55929	-0.1011796	-0.4672041	0	0	0	0
28.58185	-0.1011796	-0.4672041	0	0	0	0
28.59854	-0.1011796	-0.4672041	0	0	0	0
28.62143	-0.1011796	-0.4672041	0	0	0	0
28.63885	-0.1011796	-0.4672041	0	0	0	0
28.65993	-0.1011796	-0.4672041	0	0	0	0
28.67649	-0.1011796	-0.4672041	0	0	0	0
28.70062	-0.1011796	-0.4672041	0	0	0	0
28.71732	-0.1011796	-0.4672041	0	0	0	0
28.74178	-0.1011796	-0.4672041	0	0	0	0
28.75847	-0.1011796	-0.4672041	0	0	0	0
28.78049	-0.1011275	-0.4673466	0.002365538	-0.006474104	0.06110979	-0.1672478
28.79738	-0.1011275	-0.4673466	0	0	-0.06078929	0.1663707
28.8178	-0.104018	-0.4710349	-0.1415746	-0.1806509	-3.794777	-4.842184
28.8344	-0.104018	-0.4710349	0	0	3.823906	4.879353
28.85985	-0.1222816	-0.510313	-0.7177425	-1.543591	-17.06748	-36.70565
28.87642	-0.1222816	-0.510313	0	0	17.08375	36.74065
28.90034	-0.1383216	-0.5849839	-0.6705658	-3.121688	-16.56238	-77.10292
28.9169	-0.1383216	-0.5849839	0	0	16.56238	77.10292
28.94034	-0.1510511	-0.6793941	-0.5430841	-4.027837	-13.57485	-100.6792
28.95821	-0.1510511	-0.6793941	0	0	13.14858	97.51775
28.98928	-0.1707167	-0.7809691	-0.6328518	-3.268755	-12.93151	-66.79279
29.00747	-0.1707167	-0.7809691	0	0	12.84789	66.36086
29.02791	-0.1961554	-0.8538179	-1.244373	-3.563518	-32.21617	-92.25764
29.04448	-0.1961554	-0.8538179	0	0	33.62243	96.28476
29.06603	-0.2113485	-0.8881302	-0.7049815	-1.592135	-18.49454	-41.76818
29.08259	-0.2113485	-0.8881302	0	0	18.49454	41.76818
29.10543	-0.224118	-0.9067517	-0.5592591	-0.8155543	-14.19436	-20.69929
29.12199	-0.224118	-0.9067517	0	0	14.19436	20.69929
29.14435	-0.2396962	-0.9301521	-0.6968823	-1.046803	-17.90488	-26.89534
29.16202	-0.2396962	-0.9301521	0	0	17.40921	26.15077
29.18418	-0.2524198	-0.949986	-0.5743768	-0.895358	-14.42167	-22.48098
29.20074	-0.2524198	-0.949986	0	0	14.8337	23.12327
29.22292	-0.2542941	-0.9525171	-0.08451045	-0.1141238	-2.181039	-2.945298
29.24662	-0.2542941	-0.9525171	0	0	1.842321	2.487889
29.26913	-0.2549349	-0.9514877	-0.02846469	0.04572725	-0.6160452	0.9896491
29.2857	-0.2549349	-0.9514877	0	0	0.728376	-1.170103
29.31356	-0.2577421	-0.9469928	-0.1007438	0.1613132	-2.267385	3.63059
29.33483	-0.2577421	-0.9469928	0	0	2.050258	-3.28292
29.35955	-0.265918	-0.9340339	-0.3307266	0.5242024	-7.190676	11.39724
29.37838	-0.265918	-0.9340339	0	0	7.595093	-12.03824
29.40018	-0.27213	-0.9243132	-0.2849396	0.4458798	-7.013963	10.97561
29.41675	-0.27213	-0.9243132	0	0	7.426078	-11.62049
29.43775	-0.2721056	-0.9243513	0.001162296	-0.001810854	0.03093759	-0.04820069
29.45497	-0.2721056	-0.9243513	0	0	-0.03040959	0.04737806
29.47941	-0.2720079	-0.9245033	0.003995873	-0.006221223	0.0959112	-0.1493253
29.49598	-0.2720079	-0.9245033	0	0	-0.09744132	0.1517076
29.51663	-0.2719591	-0.9245033	0.002363882	0	0.06351432	0
29.5375	-0.2719591	-0.9245033	0	0	-0.05692949	0
29.56408	-0.2719591	-0.9245033	0	0	0	0
29.58065	-0.2719591	-0.9245033	0	0	0	0
29.60276	-0.2719347	-0.9245413	0.001105002	-0.001716796	0.02856562	-0.04438122
29.61933	-0.2719347	-0.9245413	0	0	-0.02856562	0.04438122
29.64	-0.2719347	-0.9245413	0	0	0	0
29.65656	-0.2719347	-0.9245413	0	0	0	0
29.68382	-0.2719103	-0.9245033	0.0008955126	0.00139302	0.02043465	0.03178723
29.70078	-0.2719103	-0.9245033	0	0	-0.02025481	-0.03150748
29.72821	-0.2719103	-0.9245033	0	0	0	0
29.74656	-0.2719103	-0.9245033	0	0	0	0
29.76936	-0.2718858	-0.9244653	0.001070689	0.001668131	0.02601731	0.0405349
29.78882	-0.2718858	-0.9244653	0	0	-0.02533851	-0.03947734
29.81067	-0.2718858	-0.9244653	0	0	0	0
29.82724	-0.2718858	-0.9244653	0	0	0	0
29.84752	-0.2718858	-0.9244653	0	0	0	0
29.86409	-0.2718858	-0.9244653	0	0	0	0
29.8928	-0.2718858	-0.9244653	0	0	0	0
29.91042	-0.2718858	-0.9244653	0	0	0	0
29.93149	-0.2718858	-0.9244653	0	0	0	0
29.94821	-0.2718858	-0.9244653	0	0	0	0
29.9703	-0.2718858	-0.9244653	0	0	0	0
29.98686	-0.2718858	-0.9244653	0	0	0	0
30.01299	-0.2718858	-0.9244653	0	0	0	0
30.02956	-0.2718858	-0.9244653	0	0	0	0
30.0554	-0.2718858	-0.9244653	0	0	0	0
30.07196	-0.2718858	-0.9244653	0	0	0	0
30.09379	-0.2719103	-0.9244273	-0.00111851	0.001742636	-0.02913461	0.04539165
30.11035	-0.2719103	-0.9244273	0	0	0.02913606	-0.04539391
30.13277	-0.2719103	-0.9243513	0	0.003389515	0	0.08693714
30.14934	-0.2719103	-0.9243513	0	0	0	-0.08693714
30.16962	-0.2718858	-0.9243132	0.001203506	0.001875059	0.03266129	0.05088622
30.18619	-0.2718858	-0.9243132	0	0	-0.03266129	-0.05088622
30.20926	-0.271837	-0.9242373	0.002117703	0.003294778	0.05343308	0.08313262
30.22582	-0.271837	-0.9242373	0	0	-0.05343308	-0.08313262
30.25134	-0.2711043	-0.9230224	0.02870908	0.04759781	0.6820967	1.130872
30.26791	-0.2711043	-0.9230224	0	0	-0.6820967	-1.130872
30.29589	-0.270469	-0.922037	0.02270723	0.03522576	0.50979	0.7908381
30.31619	-0.270469	-0.922037	0	0	-0.4703724	-0.7296896
30.3379	-0.266114	-0.9151775	0.2005531	0.3158871	4.77336	7.518423
30.35448	-0.266114	-0.9151775	0	0	-5.236955	-8.248622
30.3758	-0.2492342	-0.8887446	0.7920074	1.24024	20.90099	32.72979
30.39251	-0.2492342	-0.8887446	0	0	-20.82552	-32.6116
30.41347	-0.2311361	-0.8421679	0.8634615	2.222185	22.917	58.97869
30.4302	-0.2311361	-0.8421679	0	0	-22.91236	-58.96675
30.45181	-0.2115498	-0.7704747	0.9061059	3.316675	23.6325	86.50347
30.46856	-0.2115498	-0.7704747	0	0	-23.6184	-86.45186
30.49114	-0.195573	-0.7142907	0.7077065	2.488731	17.9969	63.28816
30.50893	-0.195573	-0.7142907	0	0	-17.5301	-61.6466
30.5328	-0.172173	-0.6570926	0.9804472	2.39657	23.53325	57.52382
30.55098	-0.172173	-0.6570926	0	0	-23.31761	-56.99673
30.57722	-0.1377536	-0.6086155	1.311652	1.847359	29.52699	41.58644
30.59379	-0.1377536	-0.6086155	0	0	-30.63997	-43.154
30.61596	-0.08610238	-0.5517416	2.329872	2.565455	60.14692	66.22862
30.63463	-0.08610238	-0.5517416	0	0	-57.04856	-62.81698
30.6548	-0.04922336	-0.5165584	1.828045	1.743985	47.05989	44.89592
30.67137	-0.04922336	-0.5165584	0	0	-49.75455	-47.46666
30.69356	-0.02778232	-0.4965502	0.966493	0.9019041	24.94072	23.27398
30.71012	-0.02778232	-0.4965502	0	0	-24.94072	-23.27398
30.73467	-0.005736779	-0.4762627	0.8979346	0.8263309	21.83766	20.09627
30.75867	-0.005736779	-0.4762627	0	0	-18.49518	-17.02033
30.78237	0.0198132	-0.4500818	1.078373	1.105	22.6115	23.16983
30.79893	0.0198132	-0.4500818	0	0	-26.785	-27.44639
30.82257	0.02654639	-0.4195115	0.2848261	1.293177	7.084009	32.16306
30.84005	0.02654639	-0.4195115	0	0	-6.926937	-31.44992
30.86242	0.02980696	-0.3942031	0.1457353	1.131191	3.656899	28.38471
30.88846	0.02980696	-0.3942031	0	0	-3.010293	-23.36577
30.91125	0.03493315	-0.3853859	0.224998	0.3870042	4.608498	7.926775
30.92824	0.03493315	-0.3853859	0	0	-5.656376	-9.729162
30.95363	0.03041167	-0.3815228	-0.1780766	0.1521466	-4.201396	3.589624
30.9702	0.03041167	-0.3815228	0	0	4.244178	-3.626176
30.9942	0.03043796	-0.3815452	0.001095635	-0.000933948	0.0270103	-0.0230243
31.01095	0.03043796	-0.3815452	0	0	-0.02688893	0.02292083
31.03218	0.03043796	-0.3815452	0	0	0	0
31.04874	0.03043796	-0.3815452	0	0	0	0
31.06858	0.03043796	-0.3815452	0	0	0	0
31.08515	0.03043796	-0.3815452	0	0	0	0
31.10171	0.03043796	-0.3815452	0	0	0	0
31.1242	0.0303328	-0.3818145	-0.004677046	-0.01197356	-0.1197616	-0.3065979
31.14118	0.0303328	-0.3818145	0	0	0.1184999	0.3033679
31.16394	0.02796639	-0.3844193	-0.1039704	-0.114445	-2.61604	-2.879595
31.18351	0.02796639	-0.3844193	0	0	2.45631	2.703773
31.20416	0.02596785	-0.3866232	-0.09678676	-0.1067338	-2.406646	-2.653984
31.22073	0.02596785	-0.3866232	0	0	2.600663	2.86794
31.24588	0.02596785	-0.3866232	0	0	0	0
31.26259	0.02596785	-0.3866232	0	0	0	0
31.28383	0.02596785	-0.3866232	0	0	0	0
31.30191	0.02596785	-0.3866232	0	0	0	0
31.32635	0.02596785	-0.3866232	0	0	0	0
31.34313	0.02596785	-0.3866232	0	0	0	0
31.36467	0.02594155	-0.3866007	-0.001221157	0.001044803	-0.03186691	0.02726484
31.38124	0.02594155	-0.3866007	0	0	0.03204876	-0.02742043
31.40257	0.02594155	-0.3866457	0	-0.002109787	0	-0.05567145
31.41945	0.02594155	-0.3866457	0	0	0	0.05520743
31.44245	0.02588895	-0.3866907	-0.002287069	-0.001956851	-0.05734495	-0.0490652
31.4593	0.02588895	-0.3866907	0	0	0.05739986	0.04911218
31.48067	0.02562597	-0.3869608	-0.01230622	-0.01263918	-0.3220045	-0.3307167
31.49723	0.02562597	-0.3869608	0	0	0.3243843	0.3331609
31.51936	0.02275923	-0.3895967	-0.1295353	-0.1191031	-3.347322	-3.077743
31.53593	0.02275923	-0.3895967	0	0	3.347157	3.077591
31.5597	-0.00347367	-0.4122866	-1.103908	-0.9548181	-27.36999	-23.67349
31.57626	-0.00347367	-0.4122866	0	0	27.37129	23.67461
31.59827	-0.0341709	-0.4392768	-1.394644	-1.226223	-36.15125	-31.78551
31.61516	-0.0341709	-0.4392768	0	0	35.85344	31.52367
31.63816	-0.05368521	-0.4566936	-0.8486326	-0.7574185	-21.27824	-18.99117
31.65472	-0.05368521	-0.4566936	0	0	21.45058	19.14499
31.68269	-0.0607672	-0.4630758	-0.2532398	-0.2282143	-5.686594	-5.124637
31.69995	-0.0607672	-0.4630758	0	0	5.599299	5.045969
31.72451	-0.06068854	-0.4629573	0.003202476	0.004822067	0.07657316	0.1152986
31.74384	-0.06068854	-0.4629573	0	0	-0.07296596	-0.1098671
31.76672	-0.06068854	-0.4629573	0	0	0	0
31.78329	-0.06068854	-0.4629573	0	0	0	0
31.80548	-0.06068854	-0.4629573	0	0	0	0
31.82205	-0.06068854	-0.4629573	0	0	0	0
31.84492	-0.06068854	-0.4629573	0	0	0	0
31.8655	-0.06068854	-0.4629573	0	0	0	0
31.88801	-0.06066232	-0.462981	0.001164331	-0.001052166	0.02701801	-0.02441525
31.90458	-0.06066232	-0.462981	0	0	-0.02978942	0.02691968
31.92604	-0.06066232	-0.462981	0	0	0	0
31.94312	-0.06066232	-0.462981	0	0	0	0
31.96676	-0.06068854	-0.4630047	-0.001108645	-0.001000585	-0.02722352	-0.02457002
31.98333	-0.06068854	-0.4630047	0	0	0.02756696	0.02487999
32.00369	-0.0606361	-0.4630521	0.00257538	-0.002327283	0.06974026	-0.06302188
32.02028	-0.0606361	-0.4630521	0	0	-0.06969706	0.06298285
32.04408	-0.06053123	-0.4631468	0.004408075	-0.003983285	0.1091584	-0.09863918
32.06066	-0.06053123	-0.4631468	0	0	-0.1091687	0.0986485
32.08445	-0.06045257	-0.4632179	0.003307156	-0.002988422	0.08191922	-0.0740241
32.10101	-0.06045257	-0.4632179	0	0	-0.08195794	0.07405908
32.12382	-0.06045257	-0.4632179	0	0	0	0
32.14241	-0.06045257	-0.4632179	0	0	0	0
32.16339	-0.06042635	-0.4632416	0.0012501	-0.001129672	0.03159526	-0.02855156
32.17995	-0.06042635	-0.4632416	0	0	-0.03330008	0.03009214
32.20056	-0.06040013	-0.4632653	0.001272551	-0.001149961	0.03423559	-0.03093753
32.21731	-0.06040013	-0.4632653	0	0	-0.03406429	0.03078273
32.23935	-0.06034769	-0.4633127	0.002380033	-0.002150602	0.06136028	-0.05544525
32.25591	-0.06034769	-0.4633127	0	0	-0.06165741	0.05571374
32.27992	-0.06019036	-0.4634549	0.006552464	-0.005922059	0.1614825	-0.1459464
32.29686	-0.06019036	-0.4634549	0	0	-0.1600381	0.144641
32.32129	-0.0599806	-0.4636445	0.008584024	-0.00775884	0.207492	-0.1875457
32.33994	-0.0599806	-0.4636445	0	0	-0.199243	0.1800897
32.36221	-0.05982327	-0.4637867	0.007063395	-0.006383531	0.1726137	-0.1559993
32.37893	-0.05982327	-0.4637867	0	0	-0.1811768	0.1637382
32.3994	-0.05977083	-0.4638341	0.00256093	-0.002315516	0.06886166	-0.06226265
32.41597	-0.05977083	-0.4638341	0	0	-0.06913112	0.06250629
32.43869	-0.05977083	-0.4638341	0	0	0	0
32.46003	-0.05977083	-0.4638341	0	0	0	0
32.48589	-0.0597446	-0.4638578	0.001014017	-0.0009173551	0.02148376	-0.0194358
32.50755	-0.0597446	-0.4638578	0	0	-0.02133889	0.01930474
32.52842	-0.0597446	-0.4638578	0	0	0	0
32.54506	-0.0597446	-0.4638578	0	0	0	0
32.56937	-0.0597446	-0.4638578	0	0	0	0
32.58703	-0.0597446	-0.4638578	0	0	0	0
32.60732	-0.0597446	-0.4638578	0	0	0	0
32.62389	-0.0597446	-0.4638578	0	0	0	0
32.6454	-0.05971838	-0.4638815	0.001219015	-0.001101425	0.03201336	-0.02892527
32.66197	-0.05971838	-0.4638815	0	0	-0.03201336	0.02892527
32.6862	-0.05971838	-0.4638815	0	0	0	0
32.71176	-0.05971838	-0.4638815	0	0	0	0
32.73587	-0.05971838	-0.4638815	0	0	0	0
32.75483	-0.05971838	-0.4638815	0	0	0	0
32.77636	-0.05971838	-0.4639289	0	-0.002202283	0	-0.054397
32.7941	-0.05971838	-0.4639289	0	0	0	0.05607181
32.81547	-0.05971838	-0.4639289	0	0	0	0
32.83204	-0.05971838	-0.4639289	0	0	0	0
32.85267	-0.05971838	-0.4639289	0	0	0	0
32.86924	-0.05971838	-0.4639289	0	0	0	0
32.89024	-0.05969216	-0.4639526	0.001248914	-0.001128441	0.03324823	-0.03004102
32.90692	-0.05969216	-0.4639526	0	0	-0.03314725	0.02994978
32.93307	-0.05969216	-0.4639526	0	0	0	0
32.94987	-0.05969216	-0.4639526	0	0	0	0
32.97204	-0.05969216	-0.4639526	0	0	0	0
32.98916	-0.05969216	-0.4639526	0	0	0	0
33.01239	-0.05966594	-0.4639763	0.001128739	-0.001021141	0.02796978	-0.02530353
33.02943	-0.05966594	-0.4639763	0	0	-0.02802806	0.02535626
33.05342	-0.05963971	-0.464	0.001093197	-0.0009877445	0.02664575	-0.02407544
33.06999	-0.05963971	-0.464	0	0	-0.02695655	0.02435625
33.09682	-0.05963971	-0.464	0	0	0	0
33.11339	-0.05963971	-0.464	0	0	0	0
33.13863	-0.05961349	-0.4640237	0.001039	-0.0009399562	0.02485332	-0.02248416
33.15519	-0.05961349	-0.4640237	0	0	-0.02485332	0.02248416
33.17598	-0.05961349	-0.4640237	0	0	0	0
33.19255	-0.05961349	-0.4640237	0	0	0	0
33.21579	-0.05958727	-0.4640474	0.001128554	-0.001019691	0.02835381	-0.02561873
33.23235	-0.05958727	-0.4640474	0	0	-0.02835381	0.02561873
33.25362	-0.05958727	-0.4640474	0	0	0	0
33.27514	-0.05958727	-0.4640474	0	0	0	0
33.29876	-0.05956105	-0.4640712	0.001109967	-0.001004158	0.02458564	-0.02224199
33.31561	-0.05956105	-0.4640712	0	0	-0.02742682	0.02481233
33.34091	-0.05953483	-0.4640948	0.001036493	-0.0009365105	0.02459363	-0.02222127
33.35748	-0.05953483	-0.4640948	0	0	-0.02475722	0.02236908
33.37949	-0.05948238	-0.4641423	0.002382264	-0.002153819	0.06174573	-0.05582466
33.39606	-0.05948238	-0.4641423	0	0	-0.06174573	0.05582466
33.42	-0.05945616	-0.464166	0.001095287	-0.000990878	0.02703861	-0.02446113
33.43657	-0.05945616	-0.464166	0	0	-0.02703861	0.02446113
33.46008	-0.05940371	-0.4642134	0.002230536	-0.002016497	0.05565067	-0.05031052
33.47665	-0.05940371	-0.4642134	0	0	-0.05565067	0.05031052
33.49739	-0.05937749	-0.4642371	0.00126384	-0.001141926	0.03386914	-0.03060204
33.51533	-0.05937749	-0.4642371	0	0	-0.03267015	0.0295187
33.53946	-0.05932504	-0.4642845	0.002173604	-0.001966403	0.05167292	-0.04674714
33.55607	-0.05932504	-0.4642845	0	0	-0.0533568	0.04827051
33.57769	-0.05919392	-0.4644031	0.006063163	-0.005482118	0.1585774	-0.1433806
33.59481	-0.05919392	-0.4644031	0	0	-0.1564853	0.141489
33.61693	-0.05845963	-0.4650672	0.03319959	-0.03002786	0.8461086	-0.7652756
33.6335	-0.05845963	-0.4650672	0	0	-0.8582066	0.7762178
33.6548	-0.05730561	-0.4661115	0.05418584	-0.04903278	1.431039	-1.294948
33.67137	-0.05730561	-0.4661115	0	0	-1.430751	1.294687
33.69265	-0.05730561	-0.4661115	0	0	0	0
33.70921	-0.05730561	-0.4661115	0	0	0	0
33.73255	-0.05730561	-0.4661115	0	0	0	0
33.75147	-0.05730561	-0.4661115	0	0	0	0
33.77448	-0.05727938	-0.4661352	0.001140295	-0.001031302	0.0271994	-0.0245996
33.79104	-0.05727938	-0.4661352	0	0	-0.02881726	0.02606281
33.81178	-0.05727938	-0.4661352	0	0	0	0
33.82835	-0.05727938	-0.4661352	0	0	0	0
33.8515	-0.05727938	-0.4661352	0	0	0	0
33.86807	-0.05727938	-0.4661352	0	0	0	0
33.88866	-0.05727938	-0.4661352	0	0	0	0
33.90553	-0.05727938	-0.4661352	0	0	0	0
33.92651	-0.05727938	-0.4661352	0	0	0	0
33.94308	-0.05727938	-0.4661352	0	0	0	0
33.9654	-0.05727938	-0.4661352	0	0	0	0
33.98197	-0.05727938	-0.4661352	0	0	0	0
34.00257	-0.05727938	-0.4661352	0	0	0	0
34.01914	-0.05727938	-0.4661352	0	0	0	0
34.04024	-0.05727938	-0.4661352	0	0	0	0
34.05727	-0.05727938	-0.4661352	0	0	0	0
34.08608	-0.05727938	-0.4661352	0	0	0	0
34.10269	-0.05727938	-0.4661352	0	0	0	0
34.12328	-0.05727938	-0.4661352	0	0	0	0
34.1402	-0.05727938	-0.4661352	0	0	0	0
34.16283	-0.05725315	-0.466159	0.001159133	-0.001049657	0.02930463	-0.0265369
34.18119	-0.05725315	-0.466159	0	0	-0.02828181	0.02561068
34.20165	-0.05725315	-0.466159	0	0	0	0
34.21822	-0.05725315	-0.466159	0	0	0	0
34.23933	-0.05725315	-0.466159	0	0	0	0
34.25589	-0.05725315	-0.466159	0	0	0	0
34.27842	-0.05725315	-0.466159	0	0	0	0
34.29514	-0.05725315	-0.466159	0	0	0	0
34.32405	-0.05725315	-0.466159	0	0	0	0
34.34145	-0.05725315	-0.466159	0	0	0	0
34.36253	-0.05725315	-0.466159	0	0	0	0
34.3791	-0.05725315	-0.466159	0	0	0	0
34.4014	-0.05722692	-0.4661827	0.001176018	-0.001065098	0.03025675	-0.02740299
34.41796	-0.05722692	-0.4661827	0	0	-0.03025675	0.02740299
34.44017	-0.05722692	-0.4661827	0	0	0	0
34.45674	-0.05722692	-0.4661827	0	0	0	0
34.48098	-0.05722692	-0.4661827	0	0	0	0
34.49754	-0.05722692	-0.4661827	0	0	0	0
34.51876	-0.05722692	-0.4661827	0	0	0	0
34.53533	-0.05722692	-0.4661827	0	0	0	0
34.55737	-0.05722692	-0.4661827	0	0	0	0
34.57716	-0.05722692	-0.4661827	0	0	0	0
34.5998	-0.05722692	-0.4661827	0	0	0	0
34.61654	-0.05722692	-0.4661827	0	0	0	0
34.63852	-0.05722692	-0.4661827	0	0	0	0
34.65508	-0.05722692	-0.4661827	0	0	0	0
34.67918	-0.05720069	-0.4662065	0.001088488	-0.0009844467	0.0267674	-0.02420889
34.69575	-0.05720069	-0.4662065	0	0	-0.0267674	0.02420889
34.71618	-0.05720069	-0.4662065	0	0	0	0
34.73274	-0.05720069	-0.4662065	0	0	0	0
34.75401	-0.05720069	-0.4662065	0	0	0	0
34.77058	-0.05720069	-0.4662065	0	0	0	0
34.79396	-0.05720069	-0.4662065	0	0	0	0
34.81523	-0.05720069	-0.4662065	0	0	0	0
34.83741	-0.05720069	-0.4662065	0	0	0	0
34.85397	-0.05720069	-0.4662065	0	0	0	0
34.88306	-0.05720069	-0.4662065	0	0	0	0
34.89963	-0.05720069	-0.4662065	0	0	0	0
34.91972	-0.05720069	-0.4662065	0	0	0	0
34.93628	-0.05720069	-0.4662065	0	0	0	0
34.95963	-0.05720069	-0.4662065	0	0	0	0
34.97979	-0.05720069	-0.4662065	0	0	0	0
35.00423	-0.05720069	-0.4662065	0	0	0	0
35.02083	-0.05720069	-0.4662065	0	0	0	0
35.04123	-0.05720069	-0.4662065	0	0	0	0
35.05779	-0.05720069	-0.4662065	0	0	0	0
35.08063	-0.05720069	-0.4662065	0	0	0	0
35.10178	-0.05720069	-0.4662065	0	0	0	0
35.1218	-0.05720069	-0.4662065	0	0	0	0
35.1384	-0.05720069	-0.4662065	0	0	0	0
35.15858	-0.05720069	-0.4662065	0	0	0	0
35.17515	-0.05720069	-0.4662065	0	0	0	0
35.20098	-0.05722692	-0.4662302	-0.001015654	-0.0009197286	-0.02395821	-0.02169543
35.21754	-0.05722692	-0.4662302	0	0	0.02395821	0.02169543
35.24385	-0.05722692	-0.4662302	0	0	0	0
35.2629	-0.05722692	-0.4662302	0	0	0	0
35.28527	-0.05722692	-0.4662302	0	0	0	0
35.30262	-0.05722692	-0.4662302	0	0	0	0
35.32517	-0.05722692	-0.4662302	0	0	0	0
35.34756	-0.05722692	-0.4662302	0	0	0	0
35.36971	-0.05722692	-0.4662302	0	0	0	0
35.38628	-0.05722692	-0.4662302	0	0	0	0
35.40944	-0.05722692	-0.4662302	0	0	0	0
35.42661	-0.05722692	-0.4662302	0	0	0	0
35.4476	-0.05722692	-0.4662302	0	0	0	0
35.46417	-0.05722692	-0.4662302	0	0	0	0
35.49166	-0.05722692	-0.4662302	0	0	0	0
35.50824	-0.05722692	-0.4662302	0	0	0	0
35.52971	-0.05722692	-0.4662302	0	0	0	0
35.55165	-0.05722692	-0.4662302	0	0	0	0
35.57438	-0.05722692	-0.4662302	0	0	0	0
35.59534	-0.05722692	-0.4662302	0	0	0	0
35.61731	-0.05722692	-0.4662302	0	0	0	0
35.63388	-0.05722692	-0.4662302	0	0	0	0
35.65698	-0.05720069	-0.466254	0.001135587	-0.001028334	0.02862928	-0.02592533
35.67355	-0.05720069	-0.466254	0	0	-0.02862928	0.02592533
35.7	-0.05720069	-0.466254	0	0	0	0
35.72039	-0.05720069	-0.466254	0	0	0	0
35.74821	-0.05699085	-0.4664439	0.007544752	-0.00682991	0.1565096	-0.1416808
35.76784	-0.05699085	-0.4664439	0	0	-0.1590136	0.1439476
35.7898	-0.05594157	-0.4673942	0.04778709	-0.04327685	1.148959	-1.040518
35.80639	-0.05594157	-0.4673942	0	0	-1.239693	1.122689
35.82695	-0.04394537	-0.4782491	0.5833299	-0.5278357	15.69984	-14.20626
35.84352	-0.04394537	-0.4782491	0	0	-15.70952	14.21502
35.86869	-0.02020778	-0.5000506	0.9432573	-0.8663218	22.60231	-20.75878
35.88543	-0.02020778	-0.5000506	0	0	-22.50972	20.67374
35.90935	0.0177876	-0.535678	1.588052	-1.489078	39.05236	-36.61848
35.92631	0.0177876	-0.535678	0	0	-38.84466	36.42372
35.94739	0.04872456	-0.5654259	1.467597	-1.411193	38.58406	-37.10116
35.96395	0.04872456	-0.5654259	0	0	-38.98285	37.48462
35.98577	0.07153562	-0.5876179	1.045416	-1.017045	27.23339	-26.49432
36.00234	0.07153562	-0.5876179	0	0	-27.23339	26.49432
36.0252	0.08879223	-0.6045018	0.7548335	-0.7385283	19.14426	-18.73072
36.04177	0.08879223	-0.6045018	0	0	-19.14426	18.73072
36.06381	0.1163926	-0.632559	1.25221	-1.272937	32.43349	-32.97034
36.08251	0.1163926	-0.632559	0	0	-30.73589	31.24465
36.10409	0.1448211	-0.6627771	1.31737	-1.400298	32.70581	-34.76462
36.12066	0.1448211	-0.6627771	0	0	-34.53406	36.70797
36.14133	0.1614508	-0.6807294	0.8044633	-0.8684432	21.60267	-23.32075
36.1579	0.1614508	-0.6807294	0	0	-21.60267	23.32075
36.18017	0.1691318	-0.687919	0.3448982	-0.3228364	8.880561	-8.312506
36.19674	0.1691318	-0.687919	0	0	-8.880561	8.312506
36.2187	0.1706145	-0.6874037	0.06749083	0.02345514	1.751368	0.608654
36.23527	0.1706145	-0.6874037	0	0	-1.751368	-0.608654
36.25654	0.1728882	-0.6848601	0.1069121	0.1196076	2.825809	3.161365
36.27575	0.1728882	-0.6848601	0	0	-2.641257	-2.954898
36.30071	0.1738584	-0.6837759	0.03887265	0.04343621	0.8800615	0.9833787
36.32334	0.1738584	-0.6837759	0	0	-0.8168523	-0.9127489
36.35094	0.1879143	-0.6680431	0.5092849	0.5700415	10.13944	11.34905
36.36943	0.1879143	-0.6680431	0	0	-11.04816	-12.36618
36.39332	0.1934198	-0.6614647	0.2304712	0.2753913	5.437553	6.49736
36.40989	0.1934198	-0.6614647	0	0	-5.696997	-6.807371
36.43379	0.1934451	-0.6614367	0.001059787	0.001169506	0.0261869	0.02889801
36.45083	0.1934451	-0.6614367	0	0	-0.02588677	-0.02856681
36.47273	0.1934198	-0.6614647	-0.001156702	-0.001276454	-0.0297073	-0.03278288
36.49076	0.1934198	-0.6614647	0	0	0.02896937	0.03196856
36.51284	0.1934198	-0.6614647	0	0	0	0
36.53485	0.1934198	-0.6614647	0	0	0	0
36.55499	0.1934198	-0.6615205	0	-0.002770411	0	-0.06572368
36.57156	0.1934198	-0.6615205	0	0	0	0.07547772
36.59528	0.1934198	-0.6615205	0	0	0	0
36.61194	0.1934198	-0.6615205	0	0	0	0
36.63776	0.1934198	-0.6615205	0	0	0	0
36.65432	0.1934198	-0.6615205	0	0	0	0
36.67887	0.1933437	-0.6615484	-0.003097202	-0.001136187	-0.07532359	-0.02763194
36.69571	0.1933437	-0.6615484	0	0	0.07483759	0.02745365
36.71707	0.193217	-0.6614647	-0.005931919	0.003917411	-0.1552998	0.1025592
36.73581	0.193217	-0.6614647	0	0	0.1479419	-0.09770009
36.75992	0.1931156	-0.6614088	-0.004204734	0.002316188	-0.09813442	0.05405759
36.77904	0.1931156	-0.6614088	0	0	0.09725127	-0.0535711
36.8036	0.1930396	-0.6614367	-0.00309624	-0.001135834	-0.07088121	-0.02600228
36.82087	0.1930396	-0.6614367	0	0	0.07402962	0.02715725
36.84536	0.1930142	-0.6614088	-0.001034813	0.001138841	-0.0247803	0.02727143
36.86193	0.1930142	-0.6614088	0	0	0.02520159	-0.02773508
36.88971	0.1929889	-0.6613809	-0.0009122091	0.001003913	-0.0205668	0.02263436
36.91019	0.1929889	-0.6613809	0	0	0.01890058	-0.02080064
36.93388	0.1929382	-0.6613809	-0.002139601	0	-0.04843973	0
36.9529	0.1929382	-0.6613809	0	0	0.05010126	0
36.97446	0.1928875	-0.6614367	-0.002350383	-0.002586664	-0.05791866	-0.06374117
36.9917	0.1928875	-0.6614367	0	0	0.06057203	0.06666128
37.01357	0.1927861	-0.6614926	-0.00463667	-0.002553746	-0.1185714	-0.06530574
37.03014	0.1927861	-0.6614926	0	0	0.1206307	0.06643997
37.05214	0.19271	-0.6615205	-0.00345717	-0.00126799	-0.08964159	-0.03287795
37.06875	0.19271	-0.6615205	0	0	0.08952647	0.03283573
37.08896	0.192634	-0.6614367	-0.003762475	0.004143663	-0.102166	0.1125167
37.10553	0.192634	-0.6614367	0	0	0.1023037	-0.1126684
37.12802	0.1925072	-0.6615205	-0.005636104	-0.003723393	-0.1442983	-0.09532817
37.14487	0.1925072	-0.6615205	0	0	0.143263	0.09464415
37.16513	0.1924058	-0.6615205	-0.005006768	0	-0.1349331	0
37.18233	0.1924058	-0.6615205	0	0	0.1336416	0
37.20699	0.1920508	-0.6611856	-0.01439806	0.01358212	-0.3439371	0.3244461
37.22561	0.1920508	-0.6611856	0	0	0.3326898	-0.3138362
37.24755	0.1900468	-0.659151	-0.0913462	0.09274203	-2.252032	2.286445
37.26412	0.1900468	-0.659151	0	0	2.372287	-2.408536
37.2854	0.1834915	-0.6523234	-0.3080755	0.3208727	-8.140324	8.478466
37.30408	0.1834915	-0.6523234	0	0	7.709799	-8.030058
37.33266	0.1595275	-0.6314458	-0.8383836	0.7304067	-17.73827	15.45373
37.34924	0.1595275	-0.6314458	0	0	18.5654	-16.17433
37.37088	0.1368498	-0.6105048	-1.047734	0.9674915	-27.41362	25.31411
37.38749	0.1368498	-0.6105048	0	0	27.38629	-25.28887
37.41218	0.1024558	-0.5756688	-1.393106	1.411011	-33.72996	34.16348
37.42875	0.1024558	-0.5756688	0	0	33.76739	-34.20139
37.45065	0.05767281	-0.5321803	-2.045224	1.986104	-53.17298	51.63593
37.53615	0.05767281	-0.5321803	0	0	19.04323	-18.49276
37.55738	-0.0498009	-0.4339043	-5.060821	4.627713	-47.41302	43.35539
37.578	-0.0498009	-0.4339043	0	0	120.9246	-110.5758
37.59931	-0.06755494	-0.4182705	-0.8330262	0.7335416	-19.86833	17.49554
37.61588	-0.06755494	-0.4182705	0	0	21.99122	-19.36491
37.63651	-0.07540937	-0.4113945	-0.3806601	0.3332394	-10.23254	8.957826
37.65414	-0.07540937	-0.4113945	0	0	9.949921	-8.710412
37.675	-0.0754617	-0.4113945	-0.002507998	0	-0.06515923	0
37.69157	-0.0754617	-0.4113945	0	0	0.06699854	0
37.71279	-0.07548787	-0.4113716	-0.001233257	0.001078749	-0.03263916	0.02854997
37.72972	-0.07548787	-0.4113716	0	0	0.03232909	-0.02827875
37.7551	-0.07551403	-0.4113488	-0.00103071	0.0009004038	-0.0243572	0.02127787
37.77167	-0.07551403	-0.4113488	0	0	0.0245676	-0.02146167
37.79473	-0.07551403	-0.4113488	0	0	0	0
37.8113	-0.07551403	-0.4113488	0	0	0	0
37.83228	-0.07551403	-0.4113488	0	0	0	0
37.84885	-0.07551403	-0.4113488	0	0	0	0
37.87658	-0.0754617	-0.4113945	0.001887295	-0.001649771	0.0426062	-0.03724403
37.89316	-0.0754617	-0.4113945	0	0	-0.04259153	0.0372312
37.91609	-0.07540937	-0.4114403	0.002282654	-0.001994072	0.05777581	-0.05047158
37.93449	-0.07540937	-0.4114403	0	0	-0.05523715	0.04825387
37.95912	-0.0753832	-0.4114631	0.001062316	-0.0009292241	0.02468793	-0.0215949
37.97589	-0.0753832	-0.4114631	0	0	-0.02565688	0.02244247
37.99658	-0.07535703	-0.411486	0.001264867	-0.001104958	0.03376552	-0.02949675
38.01315	-0.07535703	-0.411486	0	0	-0.03395222	0.02965985
38.03656	-0.0753047	-0.4115317	0.002235416	-0.00195408	0.05591612	-0.04887884
38.05334	-0.0753047	-0.4115317	0	0	-0.05560837	0.04860982
38.07413	-0.07527854	-0.4115546	0.001258832	-0.001099686	0.03350205	-0.0292666
38.0907	-0.07527854	-0.4115546	0	0	-0.0337005	0.02943995
38.11211	-0.0752262	-0.4116004	0.002444016	-0.002136122	0.06434508	-0.05623898
38.12868	-0.0752262	-0.4116004	0	0	-0.06434508	0.05623898
38.15024	-0.07517386	-0.4116461	0.002427668	-0.002122135	0.06367806	-0.0556639
38.16681	-0.07517386	-0.4116461	0	0	-0.06367806	0.0556639
38.19304	-0.07517386	-0.4116461	0	0	0	0
38.21438	-0.07517386	-0.4116461	0	0	0	0
38.23662	-0.0751477	-0.411669	0.001176565	-0.001027819	0.02699602	-0.02358308
38.25319	-0.0751477	-0.411669	0	0	-0.03031844	0.02648547
38.27895	-0.07501686	-0.4118291	0.005079051	-0.006215987	0.119993	-0.1468533
38.29697	-0.07501686	-0.4118291	0	0	-0.1160197	0.1419906
38.31959	-0.07496452	-0.4118748	0.002313449	-0.002022291	0.05692825	-0.04976359
38.33615	-0.07496452	-0.4118748	0	0	-0.05903404	0.05160435
38.35876	-0.07496452	-0.4118748	0	0	0	0
38.37651	-0.07496452	-0.4118748	0	0	0	0
38.39733	-0.07496452	-0.4118748	0	0	0	0
38.4139	-0.07496452	-0.4118748	0	0	0	0
38.43633	-0.07496452	-0.4118748	0	0	0	0
38.45289	-0.07496452	-0.4118748	0	0	0	0
38.47738	-0.07496452	-0.4118748	0	0	0	0
38.49395	-0.07496452	-0.4118748	0	0	0	0
38.51456	-0.07496452	-0.4118748	0	0	0	0
38.53113	-0.07496452	-0.4118748	0	0	0	0
38.55418	-0.07496452	-0.4118748	0	0	0	0
38.57075	-0.07496452	-0.4118748	0	0	0	0
38.59298	-0.07496452	-0.4118748	0	0	0	0
38.60955	-0.07496452	-0.4118748	0	0	0	0
38.63211	-0.07496452	-0.4118748	0	0	0	0
38.64924	-0.07496452	-0.4118748	0	0	0	0
38.67247	-0.07493835	-0.4118977	0.00112684	-0.0009841004	0.02791743	-0.02438106
38.68904	-0.07493835	-0.4118977	0	0	-0.02831617	0.0247293
38.71153	-0.07493835	-0.4118977	0	0	0	0
38.7281	-0.07493835	-0.4118977	0	0	0	0
38.75196	-0.07493835	-0.4118977	0	0	0	0
38.81332	-0.07493835	-0.4118977	0	0	0	0
38.83311	-0.07493835	-0.4118977	0	0	0	0
38.84968	-0.07493835	-0.4118977	0	0	0	0
38.86625	-0.07493835	-0.4118977	0	0	0	0
38.88794	-0.07493835	-0.4118977	0	0	0	0
38.90451	-0.07493835	-0.4118977	0	0	0	0
38.92492	-0.07493835	-0.4118977	0	0	0	0
38.94149	-0.07493835	-0.4118977	0	0	0	0
38.96825	-0.07493835	-0.4118977	0	0	0	0
38.98601	-0.07493835	-0.4118977	0	0	0	0
39.0065	-0.07491218	-0.4119206	0.001277113	-0.00111711	0.03339194	-0.02920844
39.02306	-0.07491218	-0.4119206	0	0	-0.03446444	0.03014657
39.04885	-0.07488602	-0.4119435	0.0010147	-0.000887574	0.02395727	-0.0209558
39.06542	-0.07488602	-0.4119435	0	0	-0.02395727	0.0209558
39.09296	-0.07485985	-0.4119663	0.0009499204	-0.0008298279	0.02153372	-0.01881135
39.10953	-0.07485985	-0.4119663	0	0	-0.02153372	0.01881135
39.13086	-0.07483368	-0.4119892	0.001227429	-0.001073345	0.03239335	-0.02832689
39.14742	-0.07483368	-0.4119892	0	0	-0.03239335	0.02832689
39.16924	-0.07483368	-0.4119892	0	0	0	0
39.18697	-0.07483368	-0.4119892	0	0	0	0
39.20763	-0.07483368	-0.412035	0	-0.002213806	0	-0.05767028
39.2242	-0.07483368	-0.412035	0	0	0	0.05946065
39.24541	-0.07475517	-0.4121036	0.003700122	-0.003234841	0.09792678	-0.08561274
39.26198	-0.07475517	-0.4121036	0	0	-0.09792678	0.08561274
39.28468	-0.0746505	-0.4121951	0.004610898	-0.004031623	0.1174198	-0.1026681
39.30509	-0.0746505	-0.4121951	0	0	-0.1069663	0.09352794
39.32713	-0.07444113	-0.4123782	0.009496939	-0.008303232	0.2237208	-0.1956005
39.3437	-0.07444113	-0.4123782	0	0	-0.2459559	0.2150407
39.36724	-0.07425794	-0.4125383	0.007780855	-0.00680366	0.1939805	-0.1696185
39.38541	-0.07425794	-0.4125383	0	0	-0.1865299	0.1631037
39.40991	-0.07412709	-0.4126986	0.005341441	-0.006540019	0.1251879	-0.1532791
39.42648	-0.07412709	-0.4126986	0	0	-0.1300721	0.1592593
39.44648	-0.07407475	-0.4127443	0.002617456	-0.002289203	0.07158585	-0.06260832
39.46304	-0.07407475	-0.4127443	0	0	-0.07158585	0.06260832
39.48466	-0.07407475	-0.4127443	0	0	0	0
39.50763	-0.07404857	-0.4127672	0.001139377	-0.0009963467	0.0255523	-0.02234462
39.5242	-0.07404857	-0.4127672	0	0	-0.02881629	0.02519887
39.54531	-0.0740224	-0.4127901	0.00123985	-0.001084207	0.03290667	-0.02877577
39.56188	-0.0740224	-0.4127901	0	0	-0.03290667	0.02877577
39.58386	-0.0740224	-0.4128359	0	-0.00208261	0	-0.0540271
39.60053	-0.0740224	-0.4128359	0	0	0	0.05388312
39.62125	-0.07394388	-0.4129046	0.003788336	-0.003313087	0.1013047	-0.08859592
39.64692	-0.07394388	-0.4129046	0	0	-0.08166856	0.07142317
39.67113	-0.07389154	-0.4129503	0.002161762	-0.001890657	0.04334503	-0.03790916
39.68918	-0.07389154	-0.4129503	0	0	-0.05114557	0.04473144
39.71488	-0.07386537	-0.413019	0.001018606	-0.002672209	0.02328201	-0.061078
39.73159	-0.07386537	-0.413019	0	0	-0.02401703	0.06300625
39.75432	-0.07373451	-0.4131335	0.005757752	-0.005036558	0.1459729	-0.1276889
39.77183	-0.07373451	-0.4131335	0	0	-0.143108	0.1251829
39.79356	-0.07166652	-0.4149432	0.09517369	-0.08328761	2.425786	-2.122834
39.81012	-0.07166652	-0.4149432	0	0	-2.485229	2.174853
39.84446	-0.07148325	-0.4151037	0.005338108	-0.004674479	0.1048754	-0.09183742
39.86102	-0.07148325	-0.4151037	0	0	-0.1048754	0.09183742
39.88447	-0.07145707	-0.4151266	0.001116525	-0.0009773568	0.02790185	-0.02442404
39.90201	-0.07145707	-0.4151266	0	0	-0.02723969	0.02384441
39.92198	-0.07150944	-0.4151266	-0.002622576	0	-0.06992397	0
39.93912	-0.07150944	-0.4151266	0	0	0.07067152	0
39.95569	-0.07150944	-0.4151266	0	0	0	0
39.97897	-0.07150944	-0.4151266	0	0	0	0
39.99554	-0.07150944	-0.4151266	0	0	0	0
40.01728	-0.07148325	-0.4151495	0.001204084	-0.001054002	0.03142921	-0.02751173
40.03385	-0.07148325	-0.4151495	0	0	-0.03142921	0.02751173
40.05436	-0.07148325	-0.4151495	0	0	0	0
40.07093	-0.07148325	-0.4151495	0	0	0	0
40.09316	-0.07148325	-0.4151495	0	0	0	0
40.11389	-0.07148325	-0.4151495	0	0	0	0
40.13744	-0.07148325	-0.4151495	0	0	0	0
40.15401	-0.07148325	-0.4151495	0	0	0	0
40.17653	-0.07148325	-0.4151495	0	0	0	0
40.19466	-0.07148325	-0.4151495	0	0	0	0
40.21607	-0.07150944	-0.4151266	-0.001223183	0.00107072	-0.03093586	0.02707988
40.23264	-0.07150944	-0.4151266	0	0	0.0322132	-0.02819801
40.25441	-0.07150944	-0.4151266	0	0	0	0
40.27106	-0.07150944	-0.4151266	0	0	0	0
40.29554	-0.07150944	-0.4151266	0	0	0	0
40.31399	-0.07150944	-0.4151266	0	0	0	0
40.33564	-0.07150944	-0.4151266	0	0	0	0
40.35221	-0.07150944	-0.4151266	0	0	0	0
40.37405	-0.07150944	-0.4151266	0	0	0	0
40.39072	-0.07150944	-0.4151266	0	0	0	0
40.41346	-0.07150944	-0.4151266	0	0	0	0
40.43003	-0.07150944	-0.4151266	0	0	0	0
40.4519	-0.07150944	-0.4151266	0	0	0	0
40.46864	-0.07150944	-0.4151266	0	0	0	0
40.4911	-0.07150944	-0.4151266	0	0	0	0
40.50768	-0.07150944	-0.4151266	0	0	0	0
40.52923	-0.07150944	-0.4151266	0	0	0	0
40.54588	-0.07150944	-0.4151266	0	0	0	0
40.56762	-0.07150944	-0.4151266	0	0	0	0
40.58424	-0.07150944	-0.4151266	0	0	0	0
40.60581	-0.07150944	-0.4151266	0	0	0	0
40.62971	-0.07150944	-0.4151266	0	0	0	0
40.65166	-0.07150944	-0.4151266	0	0	0	0
40.67404	-0.07150944	-0.4151266	0	0	0	0
40.70315	-0.07150944	-0.4151266	0	0	0	0
40.72261	-0.07150944	-0.4151266	0	0	0	0
40.7499	-0.07148325	-0.4151495	0.0009596311	-0.0008400185	0.02052893	-0.01797012
40.76646	-0.07148325	-0.4151495	0	0	-0.02188443	0.01915666
40.78809	-0.07150944	-0.4151724	-0.001210882	-0.001059953	-0.03170767	-0.0277555
40.80465	-0.07150944	-0.4151724	0	0	0.03170767	0.0277555
40.82718	-0.07150944	-0.4151724	0	0	0	0
40.84374	-0.07150944	-0.4151724	0	0	0	0
40.86519	-0.07150944	-0.4151724	0	0	0	0
40.88195	-0.07150944	-0.4151724	0	0	0	0
40.90596	-0.07150944	-0.4151724	0	0	0	0
40.92253	-0.07150944	-0.4151724	0	0	0	0
40.94628	-0.07150944	-0.4151724	0	0	0	0
40.96301	-0.07150944	-0.4151724	0	0	0	0
40.98418	-0.07150944	-0.4151724	0	0	0	0
41.00169	-0.07150944	-0.4151724	0	0	0	0
41.02549	-0.07150944	-0.4151724	0	0	0	0
41.04214	-0.07150944	-0.4151724	0	0	0	0
41.06327	-0.07150944	-0.4151724	0	0	0	0
41.07984	-0.07150944	-0.4151724	0	0	0	0
41.10134	-0.07150944	-0.4151724	0	0	0	0
41.11866	-0.07150944	-0.4151724	0	0	0	0
41.14222	-0.07150944	-0.4151724	0	0	0	0
41.15879	-0.07150944	-0.4151724	0	0	0	0
41.18051	-0.07150944	-0.4151724	0	0	0	0
41.19707	-0.07150944	-0.4151724	0	0	0	0
41.22181	-0.07150944	-0.4151724	0	0	0	0
41.23838	-0.07150944	-0.4151724	0	0	0	0
41.25894	-0.07150944	-0.4151724	0	0	0	0
41.27572	-0.07150944	-0.4151724	0	0	0	0
41.29844	-0.07150944	-0.4151724	0	0	0	0
41.32	-0.07150944	-0.4151724	0	0	0	0
41.34219	-0.07150944	-0.4151724	0	0	0	0
41.35876	-0.07150944	-0.4151724	0	0	0	0
41.37925	-0.07150944	-0.4151724	0	0	0	0
41.39583	-0.07150944	-0.4151724	0	0	0	0
41.41552	-0.07150944	-0.4151724	0	0	0	0
41.43331	-0.07150944	-0.4151724	0	0	0	0
41.45421	-0.07150944	-0.4151724	0	0	0	0
41.47984	-0.07150944	-0.4151724	0	0	0	0
41.49641	-0.07150944	-0.4151724	0	0	0	0
41.51717	-0.07153562	-0.4151953	-0.001261169	-0.001103971	-0.03378721	-0.02957583
41.53608	-0.07153562	-0.4151953	0	0	0.03178616	0.0278242
41.56188	-0.07153562	-0.4151953	0	0	0	0
41.57845	-0.07153562	-0.4151953	0	0	0	0
41.59785	-0.07153562	-0.4151953	0	0	0	0
41.61449	-0.07153562	-0.4151953	0	0	0	0
41.63128	-0.07153562	-0.4151953	0	0	0	0
41.65269	-0.07153562	-0.4151953	0	0	0	0
41.67107	-0.07153562	-0.4151953	0	0	0	0
41.69268	-0.07153562	-0.4151953	0	0	0	0
41.70925	-0.07153562	-0.4151953	0	0	0	0
41.73732	-0.07153562	-0.4151953	0	0	0	0
41.75966	-0.07153562	-0.4151953	0	0	0	0
41.78353	-0.07153562	-0.4151953	0	0	0	0
41.8001	-0.07153562	-0.4151953	0	0	0	0
41.8231	-0.07153562	-0.4151953	0	0	0	0
41.84298	-0.07153562	-0.4151953	0	0	0	0
41.86468	-0.07153562	-0.4151953	0	0	0	0
41.88142	-0.07153562	-0.4151953	0	0	0	0
41.90327	-0.07153562	-0.4151953	0	0	0	0
41.92022	-0.07153562	-0.4151953	0	0	0	0
41.94428	-0.07153562	-0.4151953	0	0	0	0
41.96085	-0.07153562	-0.4151953	0	0	0	0
41.98431	-0.07153562	-0.4151953	0	0	0	0
42.00088	-0.07153562	-0.4151953	0	0	0	0
42.02184	-0.07153562	-0.4151953	0	0	0	0
42.03841	-0.07153562	-0.4151953	0	0	0	0
42.06168	-0.07153562	-0.4151953	0	0	0	0
42.07824	-0.07153562	-0.4151953	0	0	0	0
42.09832	-0.07153562	-0.4151953	0	0	0	0
42.11534	-0.07153562	-0.4151953	0	0	0	0
42.13692	-0.07153562	-0.4151953	0	0	0	0
42.15383	-0.07153562	-0.4151953	0	0	0	0
42.17661	-0.07153562	-0.4151953	0	0	0	0
42.19332	-0.07153562	-0.4151953	0	0	0	0
42.21671	-0.07153562	-0.4151953	0	0	0	0
42.23441	-0.07153562	-0.4151953	0	0	0	0
42.26257	-0.07153562	-0.4151953	0	0	0	0
42.27945	-0.07153562	-0.4151953	0	0	0	0
42.30474	-0.07153562	-0.4151953	0	0	0	0
42.32235	-0.07153562	-0.4151953	0	0	0	0
42.34335	-0.0715618	-0.4152183	-0.001246736	-0.001092757	-0.0322917	-0.02830349
42.36386	-0.0715618	-0.4152183	0	0	0.03003072	0.02632175
42.39035	-0.0715618	-0.4152183	0	0	0	0
42.40715	-0.0715618	-0.4152183	0	0	0	0
42.42896	-0.0715618	-0.4152183	0	0	0	0
42.44553	-0.0715618	-0.4152183	0	0	0	0
42.46778	-0.0715618	-0.4152183	0	0	0	0
42.48692	-0.0715618	-0.4152183	0	0	0	0
42.51208	-0.0715618	-0.4152183	0	0	0	0
42.53477	-0.0715618	-0.4152183	0	0	0	0
42.5592	-0.0715618	-0.4152183	0	0	0	0
42.57759	-0.0715618	-0.4152183	0	0	0	0
42.5988	-0.0715618	-0.4152183	0	0	0	0
42.61569	-0.0715618	-0.4152183	0	0	0	0
42.6355	-0.0715618	-0.4152183	0	0	0	0
42.65207	-0.0715618	-0.4152183	0	0	0	0
42.66869	-0.0715618	-0.4152183	0	0	0	0
42.69297	-0.0715618	-0.4152183	0	0	0	0
42.70953	-0.0715618	-0.4152183	0	0	0	0
42.73408	-0.0715618	-0.4152183	0	0	0	0
42.75196	-0.0715618	-0.4152183	0	0	0	0
42.77554	-0.0715618	-0.4152183	0	0	0	0
42.79211	-0.0715618	-0.4152183	0	0	0	0
42.81195	-0.0715618	-0.4152183	0	0	0	0
42.82851	-0.0715618	-0.4152183	0	0	0	0
42.84508	-0.0715618	-0.4152183	0	0	0	0
42.8686	-0.0715618	-0.4152183	0	0	0	0
42.88609	-0.0715618	-0.4152183	0	0	0	0
42.91132	-0.0715618	-0.4152183	0	0	0	0
42.92791	-0.0715618	-0.4152183	0	0	0	0
42.94892	-0.07158798	-0.4152412	-0.001246283	-0.001090941	-0.03315126	-0.02901914
42.96548	-0.07158798	-0.4152412	0	0	0.03316809	0.02903387
42.99162	-0.07158798	-0.4152412	0	0	0	0
43.00885	-0.07158798	-0.4152412	0	0	0	0
43.02941	-0.07158798	-0.4152412	0	0	0	0
43.04597	-0.07158798	-0.4152412	0	0	0	0
43.07432	-0.07164034	-0.4152871	-0.001847203	-0.001618011	-0.04112732	-0.03602444
43.09361	-0.07164034	-0.4152871	0	0	0.03878208	0.03397019
43.11481	-0.07177125	-0.4154017	-0.006172015	-0.005404114	-0.1524217	-0.1334579
43.13138	-0.07177125	-0.4154017	0	0	0.1633805	0.1430532
43.15126	-0.075985	-0.4190517	-0.2119765	-0.1836185	-5.81624	-5.03815
43.16808	-0.075985	-0.4190517	0	0	5.775736	5.003065
43.18439	-0.075985	-0.4190517	0	0	0	0
43.20628	-0.1157954	-0.4545255	-1.818764	-1.620642	-47.61116	-42.42476
43.22285	-0.1157954	-0.4545255	0	0	47.29473	42.14279
43.244	-0.1604509	-0.4958222	-2.11188	-1.953033	-56.00008	-51.78798
43.26056	-0.1604509	-0.4958222	0	0	56.00008	51.78798
43.28453	-0.2032843	-0.537255	-1.787128	-1.728694	-44.08854	-42.64697
43.30497	-0.2032843	-0.537255	0	0	40.24784	38.93185
43.32925	-0.2534065	-0.5881925	-2.06397	-2.09754	-46.1535	-46.90416
43.34582	-0.2534065	-0.5881925	0	0	50.52362	51.34536
43.36605	-0.295002	-0.6327763	-2.056198	-2.203921	-55.88015	-59.89473
43.38274	-0.295002	-0.6327763	0	0	55.68387	59.68436
43.40551	-0.3295066	-0.670996	-1.515866	-1.679076	-38.416	-42.55218
43.42227	-0.3295066	-0.670996	0	0	38.34927	42.47826
43.45204	-0.3551667	-0.6954774	-0.8620573	-0.8224601	-18.52625	-17.67527
43.46861	-0.3551667	-0.6954774	0	0	18.60556	17.75095
43.48986	-0.3574319	-0.6984242	-0.1065885	-0.1386617	-2.818393	-3.666465
43.50845	-0.3574319	-0.6984242	0	0	2.674856	3.479737
43.53102	-0.3574088	-0.6984531	0.001023616	-0.001283812	0.02486884	-0.03119033
43.54758	-0.3574088	-0.6984531	0	0	-0.02615858	0.03280792
43.57399	-0.3573626	-0.6984531	0.001749151	0	0.0407003	0
43.59133	-0.3573626	-0.6984531	0	0	-0.03998688	0
43.61304	-0.3572009	-0.6985399	0.007444724	-0.003996136	0.1906408	-0.102331
43.62962	-0.3572009	-0.6985399	0	0	-0.1944202	0.1043597
43.65711	-0.3567388	-0.698482	0.01680891	0.00210545	0.3814695	0.04778211
43.67417	-0.3567388	-0.698482	0	0	-0.377321	-0.04726247
43.69659	-0.3557449	-0.697759	0.04431956	0.03224135	1.122414	0.8165275
43.71316	-0.3557449	-0.697759	0	0	-1.136579	-0.8268319
43.73677	-0.355583	-0.6978457	0.006856923	-0.003673352	0.1706705	-0.0914306
43.76191	-0.355583	-0.6978457	0	0	-0.1406716	0.07535977
43.78423	-0.3554211	-0.6980481	0.007250555	-0.009065864	0.152764	-0.1910112
43.8008	-0.3554211	-0.6980481	0	0	-0.1864152	0.2330877
43.82629	-0.355398	-0.698077	0.0009071525	-0.001133941	0.02156762	-0.02695953
43.84286	-0.355398	-0.698077	0	0	-0.02156762	0.02695953
43.86609	-0.3553749	-0.698106	0.0009954844	-0.001246921	0.02501296	-0.03133067
43.88266	-0.3553749	-0.698106	0	0	-0.02501296	0.03133067
43.91179	-0.3553286	-0.6981638	0.001587873	-0.001984842	0.03474843	-0.04343554
43.92836	-0.3553286	-0.6981638	0	0	-0.03474843	0.04343554
43.94902	-0.355213	-0.6983085	0.005598285	-0.007001823	0.1503798	-0.1880814
43.96837	-0.355213	-0.6983085	0	0	-0.1399139	0.1749915
43.98832	-0.3550047	-0.698511	0.01043708	-0.01015177	0.2655555	-0.2582962
44.00819	-0.3550047	-0.698511	0	0	-0.2620707	0.2549067
44.02585	-0.3550047	-0.698511	0	0	0	0
44.05488	-0.3544262	-0.6992347	0.01992593	-0.02492486	0.4267884	-0.5338592
44.077	-0.3544262	-0.6992347	0	0	-0.3895781	0.4873137
44.0992	-0.3542873	-0.6994084	0.006254295	-0.007824579	0.1411195	-0.1765507
44.11577	-0.3542873	-0.6994084	0	0	-0.1613072	0.201807
44.13942	-0.3540558	-0.699698	0.009789885	-0.01224744	0.2434414	-0.3045525
44.16124	-0.3540558	-0.699698	0	0	-0.2153167	0.2693676
44.18297	-0.3522951	-0.7019023	0.08101851	-0.1014267	1.860254	-2.328844
44.19954	-0.3522951	-0.7019023	0	0	-2.11539	2.648248
44.2242	-0.3522951	-0.7019023	0	0	0	0
44.24182	-0.3522951	-0.7019023	0	0	0	0
44.26278	-0.3522951	-0.7019023	0	0	0	0
44.27935	-0.3522951	-0.7019023	0	0	0	0
44.30407	-0.3522719	-0.7019313	0.0009381271	-0.001174467	0.02272449	-0.02844942
44.32435	-0.3522719	-0.7019313	0	0	-0.02084812	0.02610034
44.3462	-0.3522719	-0.7019313	0	0	0	0
44.36362	-0.3522719	-0.7019313	0	0	0	0
44.38528	-0.3522255	-0.7019894	0.002140939	-0.002680301	0.05478663	-0.06858892
44.40185	-0.3522255	-0.7019894	0	0	-0.05600581	0.07011525
44.42292	-0.3522024	-0.7020184	0.001100113	-0.001377262	0.02922457	-0.03658706
44.43949	-0.3522024	-0.7020184	0	0	-0.02922457	0.03658706
44.46388	-0.3521792	-0.7020474	0.0009507469	-0.001190267	0.02321466	-0.02906308
44.48051	-0.3521792	-0.7020474	0	0	-0.02317796	0.02901714
44.50031	-0.352156	-0.7020765	0.001171348	-0.001469455	0.03215644	-0.04034021
44.51687	-0.352156	-0.7020765	0	0	-0.03221379	0.04041216
44.53505	-0.352156	-0.7020765	0	0	0	0
44.55872	-0.3520401	-0.7021055	0.004896186	-0.001225934	0.1169908	-0.02929281
44.57529	-0.3520401	-0.7021055	0	0	-0.1216593	0.03046174
44.59584	-0.3520169	-0.7020765	0.001128295	0.001412544	0.03039833	0.03805652
44.61241	-0.3520169	-0.7020765	0	0	-0.03039833	-0.03805652
44.63455	-0.3519473	-0.7020474	0.003141691	0.001313749	0.08116443	0.03394022
44.65114	-0.3519473	-0.7020474	0	0	-0.08111646	-0.03392017
44.67187	-0.3519473	-0.7020474	0	0	0	0
44.6974	-0.3519473	-0.7020474	0	0	0	0
44.71957	-0.3519473	-0.7020474	0	0	0	0
44.73684	-0.3519473	-0.7020474	0	0	0	0
44.76162	-0.3519473	-0.7020474	0	0	0	0
44.77834	-0.3519473	-0.7020474	0	0	0	0
44.79993	-0.3519241	-0.7020765	0.001073494	-0.001346697	0.02801773	-0.03514821
44.8165	-0.3519241	-0.7020765	0	0	-0.02812695	0.03528522
44.83908	-0.3519241	-0.7020765	0	0	0	0
44.85891	-0.3519241	-0.7020765	0	0	0	0
44.88071	-0.3519241	-0.7020765	0	0	0	0
44.89728	-0.3519241	-0.7020765	0	0	0	0
44.91728	-0.3519241	-0.7020765	0	0	0	0
44.93385	-0.3519241	-0.7020765	0	0	0	0
44.95041	-0.3519241	-0.7020765	0	0	0	0
44.97294	-0.3519009	-0.7021055	0.001029144	-0.001288414	0.02632552	-0.03295766
44.98951	-0.3519009	-0.7021055	0	0	-0.02632295	0.03295444
45.01204	-0.3519009	-0.7021055	0	0	0	0
45.02861	-0.3519009	-0.7021055	0	0	0	0
45.05021	-0.3519009	-0.7021055	0	0	0	0
45.06681	-0.3519009	-0.7021055	0	0	0	0
45.08756	-0.3518777	-0.7021345	0.001117508	-0.001399039	0.02992013	-0.03745785
45.10413	-0.3518777	-0.7021345	0	0	-0.02994766	0.03749231
45.12991	-0.3518545	-0.7021636	0.0009002866	-0.001125647	0.02125594	-0.02657675
45.14793	-0.3518545	-0.7021636	0	0	-0.02055074	0.02569502
45.16807	-0.3518313	-0.7021926	0.001151378	-0.001441443	0.03017364	-0.03777522
45.18464	-0.3518313	-0.7021926	0	0	-0.03136841	0.03927099
45.20867	-0.3518082	-0.7022217	0.0009649349	-0.00121051	0.02376921	-0.02981844
45.22523	-0.3518082	-0.7022217	0	0	-0.02376921	0.02981844
45.24728	-0.3517618	-0.7022797	0.002103885	-0.002633913	0.05449273	-0.06822098
45.26836	-0.3517618	-0.7022797	0	0	-0.04878557	0.06107603
45.29248	-0.3516922	-0.7023669	0.002885053	-0.003612802	0.06382272	-0.07992189
45.31036	-0.3516922	-0.7023669	0	0	-0.06868579	0.08601166
45.33611	-0.3515298	-0.7025121	0.006305555	-0.005641204	0.1445151	-0.129289
45.35332	-0.3515298	-0.7025121	0	0	-0.1467866	0.1313212
45.3745	-0.3512747	-0.7028318	0.01204802	-0.0150931	0.3138544	-0.3931795
45.39107	-0.3512747	-0.7028318	0	0	-0.3191831	0.399855
45.41065	-0.3497194	-0.7047226	0.0794139	-0.09654692	2.196674	-2.670591
45.42722	-0.3497194	-0.7047226	0	0	-2.196674	2.670591
45.44419	-0.3497194	-0.7047226	0	0	0	0
45.4663	-0.341239	-0.7153792	0.3835525	-0.4819811	9.81511	-12.3339
45.48893	-0.341239	-0.7153792	0	0	-8.573157	10.77323
45.5091	-0.3406547	-0.7147613	0.02896194	0.03062961	0.6766062	0.7155662
45.52567	-0.3406547	-0.7147613	0	0	-0.7882265	-0.8336138
45.54666	-0.3375654	-0.7108858	0.1471626	0.1846152	3.918119	4.915272
45.56341	-0.3375654	-0.7108858	0	0	-3.899505	-4.891921
45.59117	-0.3274318	-0.6982796	0.3649988	0.4540589	8.200397	10.2013
45.6124	-0.3274318	-0.6982796	0	0	-7.450147	-9.267991
45.63271	-0.3007737	-0.6662194	1.312843	1.578879	31.60856	38.01375
45.64927	-0.3007737	-0.6662194	0	0	-35.6046	-42.81955
45.67148	-0.2722032	-0.6335917	1.286648	1.469362	33.18448	37.89693
45.68961	-0.2722032	-0.6335917	0	0	-31.90079	-36.43095
45.71791	-0.2358684	-0.5941634	1.283686	1.392977	27.64629	30.00005
45.73533	-0.2358684	-0.5941634	0	0	-28.07531	-30.46559
45.75937	-0.1945853	-0.5518177	1.717526	1.761734	41.43177	42.49821
45.77593	-0.1945853	-0.5518177	0	0	-42.2998	-43.38858
45.79774	-0.1608868	-0.5188032	1.545461	1.514089	40.27571	39.45813
45.81445	-0.1608868	-0.5188032	0	0	-40.12811	-39.31352
45.83689	-0.1395347	-0.4986153	0.9512794	0.8994134	24.29581	22.97114
45.85348	-0.1395347	-0.4986153	0	0	-24.37179	-23.04299
45.88107	-0.1273854	-0.487815	0.4403229	0.391434	9.967015	8.860381
45.89764	-0.1273854	-0.487815	0	0	-9.97132	-8.864208
45.91849	-0.1124187	-0.4772675	0.7176557	0.5057533	19.17728	13.5148
45.93506	-0.1124187	-0.4772675	0	0	-19.17728	-13.5148
45.95763	-0.1001376	-0.4663489	0.5440054	0.4836489	13.89804	12.35607
45.97752	-0.1001376	-0.4663489	0	0	-12.81292	-11.39134
45.99951	-0.08597177	-0.4537016	0.6440327	0.5749978	15.37888	13.73039
46.01608	-0.08597177	-0.4537016	0	0	-16.70089	-14.9107
46.03572	-0.08129413	-0.449495	0.2381929	0.2142018	6.578951	5.916312
46.05228	-0.08129413	-0.449495	0	0	-6.578951	-5.916312
46.06885	-0.08129413	-0.449495	0	0	0	0
46.09053	-0.08126798	-0.4495185	0.001205968	-0.0010819	0.03153174	-0.02828781
46.10846	-0.08126798	-0.4495185	0	0	-0.03044758	0.02731519
46.13069	-0.08126798	-0.4495185	0	0	0	0
46.14777	-0.08126798	-0.4495185	0	0	0	0
46.17223	-0.08129413	-0.449542	-0.001068858	-0.0009588954	-0.0257319	-0.02308464
46.18879	-0.08129413	-0.449542	0	0	0.0260525	0.02337226
46.21022	-0.08132027	-0.4495185	-0.001220355	0.001094807	-0.03212259	0.02881787
46.22678	-0.08132027	-0.4495185	0	0	0.03212259	-0.02881787
46.24935	-0.08132027	-0.4495185	0	0	0	0
46.26592	-0.08132027	-0.4495185	0	0	0	0
46.28864	-0.08137255	-0.4495654	-0.002301054	-0.002065931	-0.05856952	-0.05258486
46.31607	-0.08137255	-0.4495654	0	0	0.04588525	0.04119668
46.33949	-0.0813987	-0.4495889	-0.001116208	-0.001001374	-0.02195103	-0.01969274
46.36003	-0.0813987	-0.4495889	0	0	0.02538671	0.02277496
46.38527	-0.08142483	-0.4496124	-0.001035605	-0.0009305094	-0.02261937	-0.0203239
46.40184	-0.08142483	-0.4496124	0	0	0.02477212	0.02225818
46.42286	-0.08150326	-0.4496828	-0.00373182	-0.003349632	-0.09929701	-0.0891277
46.43943	-0.08150326	-0.4496828	0	0	0.09928693	0.08911865
46.46338	-0.08150326	-0.4496828	0	0	0	0
46.47995	-0.08150326	-0.4496828	0	0	0	0
46.50749	-0.08155555	-0.4496828	-0.001898218	0	-0.04303065	0
46.52851	-0.08155555	-0.4496828	0	0	0.0390862	0
46.55954	-0.08158168	-0.4497062	-0.0008423362	-0.0007558935	-0.01618392	-0.01452308
46.57759	-0.08158168	-0.4497062	0	0	0.01716388	0.01540248
46.59882	-0.08160783	-0.4497297	-0.001231097	-0.001105847	-0.03133858	-0.02815024
46.61755	-0.08160783	-0.4497297	0	0	0.03080315	0.02766929
46.64339	-0.08163396	-0.4497532	-0.00101145	-0.0009076524	-0.02269305	-0.02036423
46.66007	-0.08163396	-0.4497532	0	0	0.02379054	0.02134909
46.68168	-0.08166011	-0.4497766	-0.0012098	-0.001086717	-0.03160042	-0.02838544
46.69825	-0.08166011	-0.4497766	0	0	0.03168882	0.02846485
46.72046	-0.08168624	-0.4498001	-0.00117684	-0.001057412	-0.03034939	-0.02726946
46.74049	-0.08168624	-0.4498001	0	0	0.02785567	0.02502881
46.76489	-0.08176467	-0.4498705	-0.003214289	-0.002885104	-0.07233296	-0.06492512
46.78436	-0.08176467	-0.4498705	0	0	0.07328289	0.06577776
46.80798	-0.08181695	-0.4499175	-0.002212638	-0.001986549	-0.05134824	-0.04610145
46.82596	-0.08181695	-0.4499175	0	0	0.05318446	0.04775005
