Time	Pos X	Pos Y	Vel X	Vel Y	Acc X	Acc Y
0.01656671	-0.02933627	-0.0507273	0.0004802917	0.0008305044	-7.865442E-06	-1.360066E-05
0.03543091	-0.02933627	-0.0507273	0	0	7.865738E-06	1.360117E-05
0.05200118	-0.02933627	-0.0507273	0	0	0	0
0.06856829	-0.02933627	-0.0507273	0	0	0	0
0.08513422	-0.02933627	-0.0507273	0	0	0	0
0.1017017	-0.02933627	-0.0507273	0	0	0	0
0.1182811	-0.02933627	-0.0507273	0	0	0	0
0.1354356	-0.02933627	-0.0507273	0	0	0	0
0.1514038	-0.02933627	-0.0507273	0	0	0	0
0.1679705	-0.02933627	-0.0507273	0	0	0	0
0.1852131	-0.02933627	-0.0507273	0	0	0	0
0.2011703	-0.02933627	-0.0507273	0	0	0	0
0.2177579	-0.02933627	-0.0507273	0	0	0	0
0.2344995	-0.02933627	-0.0507273	0	0	0	0
0.2508033	-0.02933627	-0.0507273	0	0	0	0
0.2673704	-0.02933627	-0.0507273	0	0	0	0
0.2839379	-0.02933627	-0.0507273	0	0	0	0
0.3005019	-0.02933627	-0.0507273	0	0	0	0
0.3170686	-0.02933627	-0.0507273	0	0	0	0
0.3336353	-0.02933627	-0.0507273	0	0	0	0
0.350202	-0.02933627	-0.0507273	0	0	0	0
0.3667683	-0.02933627	-0.0507273	0	0	0	0
0.3836591	-0.02933627	-0.0507273	0	0	0	0
0.3999041	-0.02933627	-0.0507273	0	0	0	0
0.4166781	-0.02933627	-0.0507273	0	0	0	0
0.4330348	-0.02933627	-0.0507273	0	0	0	0
0.449656	-0.02933627	-0.0507273	0	0	0	0
0.466574	-0.02933627	-0.0507273	0	0	0	0
0.4827349	-0.02933627	-0.0507273	0	0	0	0
0.4996119	-0.02933627	-0.0507273	0	0	0	0
0.5233446	-0.02933627	-0.0507273	0	0	0	0
0.5400132	-0.02933627	-0.0507273	0	0	0	0
0.556482	-0.02933627	-0.0507273	0	0	0	0
0.5730472	-0.02933627	-0.0507273	0	0	0	0
0.589615	-0.02933627	-0.0507273	0	0	0	0
0.6061849	-0.02933627	-0.0507273	0	0	0	0
0.6227493	-0.02933627	-0.0507273	0	0	0	0
0.6393176	-0.02933627	-0.0507273	0	0	0	0
0.6559743	-0.02933627	-0.0507273	0	0	0	0
0.6724486	-0.02933627	-0.0507273	0	0	0	0
0.689146	-0.02933627	-0.0507273	0	0	0	0
0.7055849	-0.02933627	-0.0507273	0	0	0	0
0.7228175	-0.02933627	-0.0507273	0	0	0	0
0.7388608	-0.02933627	-0.0507273	0	0	0	0
0.7553856	-0.02933627	-0.0507273	0	0	0	0
0.7718706	-0.02933627	-0.0507273	0	0	0	0
0.7884132	-0.02933627	-0.0507273	0	0	0	0
0.8053901	-0.02933627	-0.0507273	0	0	0	0
0.821919	-0.02933627	-0.0507273	0	0	0	0
0.8381138	-0.02933627	-0.0507273	0	0	0	0
0.8547729	-0.02933627	-0.0507273	0	0	0	0
0.8716689	-0.02933627	-0.0507273	0	0	0	0
0.887981	-0.02933627	-0.0507273	0	0	0	0
0.9045698	-0.02933627	-0.0507273	0	0	0	0
0.9209502	-0.02933627	-0.0507273	0	0	0	0
0.9375161	-0.02933627	-0.0507273	0	0	0	0
0.9541957	-0.02933627	-0.0507273	0	0	0	0
0.970822	-0.02933627	-0.0507273	0	0	0	0
0.9872162	-0.02933627	-0.0507273	0	0	0	0
1.003783	-0.02933627	-0.0507273	0	0	0	0
1.02035	-0.02933627	-0.0507273	0	0	0	0
1.036916	-0.02933627	-0.0507273	0	0	0	0
1.053483	-0.02933627	-0.0507273	0	0	0	0
1.070048	-0.02933627	-0.0507273	0	0	0	0
1.086616	-0.02933627	-0.0507273	0	0	0	0
1.103183	-0.02933627	-0.0507273	0	0	0	0
1.11981	-0.02933627	-0.0507273	0	0	0	0
1.136316	-0.02933627	-0.0507273	0	0	0	0
1.152883	-0.02933627	-0.0507273	0	0	0	0
1.16945	-0.02933627	-0.0507273	0	0	0	0
1.19063	-0.02933627	-0.0507273	0	0	0	0
1.207435	-0.02933627	-0.0507273	0	0	0	0
1.223768	-0.02933627	-0.0507273	0	0	0	0
1.240466	-0.02933627	-0.0507273	0	0	0	0
1.256901	-0.02933627	-0.0507273	0	0	0	0
1.273469	-0.02933627	-0.0507273	0	0	0	0
1.290197	-0.02933627	-0.0507273	0	0	0	0
1.306601	-0.02933627	-0.0507273	0	0	0	0
1.32368	-0.02933627	-0.0507273	0	0	0	0
1.339744	-0.02933627	-0.0507273	0	0	0	0
1.356303	-0.02933627	-0.0507273	0	0	0	0
1.372998	-0.02933627	-0.0507273	0	0	0	0
1.389439	-0.02933627	-0.0507273	0	0	0	0
1.406005	-0.02933627	-0.0507273	0	0	0	0
1.422693	-0.02933627	-0.0507273	0	0	0	0
1.43914	-0.02933627	-0.0507273	0	0	0	0
1.455742	-0.02933627	-0.0507273	0	0	0	0
1.472764	-0.02933627	-0.0507273	0	0	0	0
1.48884	-0.02933627	-0.0507273	0	0	0	0
1.505406	-0.02933627	-0.0507273	0	0	0	0
1.52197	-0.02933627	-0.0507273	0	0	0	0
1.538538	-0.02933627	-0.0507273	0	0	0	0
1.555102	-0.02933627	-0.0507273	0	0	0	0
1.571668	-0.02933627	-0.0507273	0	0	0	0
1.588416	-0.02933627	-0.0507273	0	0	0	0
1.604803	-0.02933627	-0.0507273	0	0	0	0
1.621513	-0.02933627	-0.0507273	0	0	0	0
1.638044	-0.02933627	-0.0507273	0	0	0	0
1.654503	-0.02933627	-0.0507273	0	0	0	0
1.671067	-0.02933627	-0.0507273	0	0	0	0
1.687636	-0.03544799	-0.05317198	-0.3688726	-0.1475489	-11.13296	-4.45318
1.704321	-0.06111722	-0.05928371	-1.538483	-0.3663054	-35.17262	-6.578465
1.721435	-0.09045349	-0.06417309	-1.714187	-0.285698	-5.198576	2.384935
1.737461	-0.1246791	-0.07028481	-2.135598	-0.381357	-12.71606	-2.886506
1.754655	-0.1686835	-0.0727295	-2.55923	-0.1421792	-12.75207	7.199674
1.770691	-0.1980198	-0.07517418	-1.829479	-0.1524563	21.96081	-0.3092733
1.787035	-0.2298008	-0.07761887	-1.944394	-0.149569	-3.548948	0.08916567
1.803603	-0.2615817	-0.08006356	-1.918275	-0.1475593	0.79361	0.06106274
1.82017	-0.2921403	-0.08617529	-1.844575	-0.3689156	2.224288	-6.680593
1.836734	-0.3178096	-0.09106467	-1.549709	-0.2951828	8.900086	2.225515
1.860152	-0.3398118	-0.09350935	-0.9395212	-0.104391	15.2614	4.771892
1.876724	-0.3667033	-0.09839873	-1.622769	-0.295049	-17.08549	-4.76765
1.893526	-0.369148	-0.09962108	-0.1454928	-0.07274684	44.26403	6.660902
1.910007	-0.369148	-0.09962108	0	0	4.371385	2.185706
1.926518	-0.369148	-0.09962108	0	0	0	0
1.943181	-0.369148	-0.09962108	0	0	0	0
1.959555	-0.369148	-0.09962108	0	0	0	0
1.976122	-0.369148	-0.09962108	0	0	0	0
1.992689	-0.369148	-0.09962108	0	0	0	0
2.009254	-0.369148	-0.09962108	0	0	0	0
2.025822	-0.369148	-0.09962108	0	0	0	0
2.042388	-0.3557023	-0.09595404	0.8116347	0.2213558	24.49571	6.680676
2.058955	-0.3178096	-0.07884122	2.287241	1.032947	44.53548	24.49475
2.075521	-0.2530253	-0.05561667	3.910611	1.401917	48.99516	11.13594
2.092088	-0.1650165	-0.02261337	5.312298	1.992112	42.30452	17.81276
2.108654	-0.07945239	-0.001833517	5.164958	1.254347	-4.446899	-22.26659
2.125221	-0.002444689	0.01527931	4.648261	1.032947	-15.59451	-6.682103
2.185954	0.04522675	0.02383572	0.7849428	0.1408872	-49.97865	-11.54033
2.202524	0.1112334	0.03483682	3.983422	0.6639037	41.37603	6.765824
2.219094	0.1112334	0.03483682	0	0	-120.2009	-20.03348
2.23566	0.1112334	0.03483682	0	0	0	0
2.252227	0.1112334	0.03483682	0	0	0	0
2.268792	0.1112334	0.03483682	0	0	0	0
2.285361	0.1112334	0.03483682	0	0	0	0
2.302024	0.1112334	0.03483682	0	0	0	0
2.318489	0.1112334	0.03483682	0	0	0	0
2.335056	0.1112334	0.03483682	0	0	0	0
2.351622	0.1112334	0.03483682	0	0	0	0
2.369147	0.1112334	0.03483682	0	0	0	0
2.384758	0.1112334	0.03483682	0	0	0	0
2.401324	0.1112334	0.03483682	0	0	0	0
2.417891	0.1112334	0.03483682	0	0	0	0
2.434458	0.1112334	0.03483682	0	0	0	0
2.451027	0.1112334	0.03483682	0	0	0	0
2.467592	0.1112334	0.03483682	0	0	0	0
2.48416	0.1112334	0.03483682	0	0	0	0
2.500725	0.1112334	0.03483682	0	0	0	0
2.517735	0.1112334	0.03483682	0	0	0	0
2.541631	0.1112334	0.03483682	0	0	0	0
2.558202	0.1112334	0.03483682	0	0	0	0
2.574769	0.1112334	0.03483682	0	0	0	0
2.591345	0.106344	0.03361448	-0.2949625	-0.07374062	-8.89968	-2.22492
2.608059	0.0990099	0.03239213	-0.4387891	-0.0731316	-4.320334	0.0182942
2.624475	0.08434177	0.02994744	-0.8935094	-0.1489182	-13.72507	-2.287509
2.641195	0.0770077	0.02994744	-0.438664	0	13.72687	4.494232
2.657602	0.07334067	0.0287251	-0.2234943	-0.07449807	6.495328	-2.248874
2.674169	0.07089598	0.0287251	-0.1475661	-1.124327E-07	2.302635	2.259261
2.690735	0.07089598	0.0287251	0	0	4.453747	3.393373E-06
2.707302	0.07089598	0.0287251	0	0	0	0
2.723869	0.07089598	0.0287251	0	0	0	0
2.740681	0.07089598	0.0287251	0	0	0	0
2.757377	0.06478426	0.02750275	-0.3660541	-0.07321085	-10.92436	-2.184873
2.773569	0.0550055	0.0262804	-0.6039178	-0.07548981	-7.232447	-0.06929374
2.790276	0.04889378	0.02505806	-0.3658141	-0.07316268	7.237332	0.07073475
2.806702	0.04644909	0.02505806	-0.1488296	-1.133956E-07	6.54884	2.20813
2.82363	0.04522675	0.02505806	-0.07220849	0	2.297207	3.399754E-06
2.839835	0.0440044	0.02383572	-0.07543007	-0.07542961	-0.09723164	-2.276568
2.856402	0.0440044	0.02383572	0	0	2.301657	2.301644
2.872969	0.0440044	0.02383572	0	0	0	0
2.889536	0.0440044	0.02383572	0	0	0	0
2.906102	0.0440044	0.02383572	0	0	0	0
2.922669	0.0440044	0.02383572	0	0	0	0
2.939236	0.0440044	0.02383572	0	0	0	0
2.955802	0.0440044	0.02383572	0	0	0	0
2.972368	0.0440044	0.02383572	0	0	0	0
2.988936	0.0440044	0.02383572	0	0	0	0
3.005502	0.0440044	0.02383572	0	0	0	0
3.022123	0.0440044	0.02383572	0	0	0	0
3.038638	0.0440044	0.02383572	0	0	0	0
3.055206	0.0440044	0.02383572	0	0	0	0
3.071771	0.0440044	0.02383572	0	0	0	0
3.088339	0.0440044	0.02383572	0	0	0	0
3.105216	0.0440044	0.02383572	0	0	0	0
3.12147	0.0440044	0.02383572	0	0	0	0
3.138039	0.0440044	0.02383572	0	0	0	0
3.154607	0.0440044	0.02383572	0	0	0	0
3.171172	0.0440044	0.02383572	0	0	0	0
3.187884	0.04278206	0.02383572	-0.07313972	0	-2.197872	0
3.204926	0.04278206	0.02383572	0	0	2.16687	0
3.221499	0.04278206	0.02383572	0	0	0	0
3.2382	0.04278206	0.02383572	0	0	0	0
3.254634	0.04278206	0.02383572	0	0	0	0
3.2712	0.04278206	0.02383572	0	0	0	0
3.287764	0.04278206	0.02383572	0	0	0	0
3.304329	0.04278206	0.02383572	0	0	0	0
3.321179	0.04278206	0.02383572	0	0	0	0
3.337463	0.04278206	0.02383572	0	0	0	0
3.354177	0.04278206	0.02383572	0	0	0	0
3.370679	0.04278206	0.02383572	0	0	0	0
3.3872	0.04278206	0.02383572	0	0	0	0
3.40373	0.04278206	0.02383572	0	0	0	0
3.420296	0.04278206	0.02383572	0	0	0	0
3.436863	0.04278206	0.02383572	0	0	0	0
3.453432	0.04278206	0.02383572	0	0	0	0
3.469998	0.04278206	0.02383572	0	0	0	0
3.486562	0.04278206	0.02383572	0	0	0	0
3.503128	0.04278206	0.02383572	0	0	0	0
3.519698	0.04278206	0.02383572	0	0	0	0
3.536264	0.04278206	0.02383572	0	0	0	0
3.552831	0.04278206	0.02383572	0	0	0	0
3.569396	0.04278206	0.02383572	0	0	0	0
3.585965	0.04278206	0.02383572	0	0	0	0
3.602603	0.04278206	0.02383572	0	0	0	0
3.619178	0.04278206	0.02383572	0	0	0	0
3.635665	0.04278206	0.02383572	0	0	0	0
3.652635	0.04278206	0.02383572	0	0	0	0
3.668927	0.04278206	0.02383572	0	0	0	0
3.685364	0.04278206	0.02383572	0	0	0	0
3.701931	0.04278206	0.02383572	0	0	0	0
3.718498	0.04278206	0.02383572	0	0	0	0
3.735065	0.04278206	0.02383572	0	0	0	0
3.751924	0.04278206	0.02383572	0	0	0	0
3.768197	0.04278206	0.02383572	0	0	0	0
3.784793	0.04278206	0.02383572	0	0	0	0
3.801331	0.04278206	0.02383572	0	0	0	0
3.823962	0.04278206	0.02383572	0	0	0	0
3.84086	0.04278206	0.02383572	0	0	0	0
3.857099	0.04278206	0.02383572	0	0	0	0
3.873678	0.04278206	0.02383572	0	0	0	0
3.890232	0.04278206	0.02383572	0	0	0	0
3.906801	0.04278206	0.02383572	0	0	0	0
3.924165	0.04278206	0.02383572	0	0	0	0
3.940185	0.04278206	0.02383572	0	0	0	0
3.956501	0.04278206	0.02383572	0	0	0	0
3.973068	0.04278206	0.02383572	0	0	0	0
3.989634	0.04278206	0.02383572	0	0	0	0
4.006371	0.04278206	0.02383572	0	0	0	0
4.022767	0.04278206	0.02383572	0	0	0	0
4.03963	0.04278206	0.02383572	0	0	0	0
4.056022	0.04278206	0.02383572	0	0	0	0
4.072467	0.04278206	0.02383572	0	0	0	0
4.089462	0.04278206	0.02383572	0	0	0	0
4.106136	0.04278206	0.02383572	0	0	0	0
4.122168	0.04278206	0.02383572	0	0	0	0
4.138731	0.04278206	0.02383572	0	0	0	0
4.156036	0.04278206	0.02383572	0	0	0	0
4.172124	0.04278206	0.02383572	0	0	0	0
4.188435	0.04278206	0.02383572	0	0	0	0
4.205254	0.04278206	0.02383572	0	0	0	0
4.221812	0.04278206	0.02383572	0	0	0	0
4.238138	0.04278206	0.02383572	0	0	0	0
4.255083	0.04278206	0.02383572	0	0	0	0
4.271685	0.04278206	0.02383572	0	0	0	0
4.288156	0.04278206	0.02383572	0	0	0	0
4.304701	0.04278206	0.02383572	0	0	0	0
4.321206	0.04278206	0.02383572	0	0	0	0
4.337536	0.04278206	0.02383572	0	0	0	0
4.354355	0.04278206	0.02383572	0	0	0	0
4.370686	0.04278206	0.02383572	0	0	0	0
4.387539	0.04278206	0.02383572	0	0	0	0
4.4038	0.04278206	0.02383572	0	0	0	0
4.420367	0.04278206	0.02383572	0	0	0	0
4.437216	0.04278206	0.02383572	0	0	0	0
4.453762	0.04278206	0.02383572	0	0	0	0
4.470066	0.04278206	0.02383572	0	0	0	0
4.490187	0.04278206	0.02383572	0	0	0	0
4.506994	0.04278206	0.02383572	0	0	0	0
4.523327	0.04278206	0.02383572	0	0	0	0
4.539894	0.04278206	0.02383572	0	0	0	0
4.556762	0.04278206	0.02383572	0	0	0	0
4.573609	0.04278206	0.02383572	0	0	0	0
4.589592	0.04278206	0.02383572	0	0	0	0
4.606158	0.04278206	0.02383572	0	0	0	0
4.622725	0.04278206	0.02383572	0	0	0	0
4.639291	0.04278206	0.02383572	0	0	0	0
4.655858	0.04278206	0.02383572	0	0	0	0
4.672423	0.04278206	0.02383572	0	0	0	0
4.68899	0.04278206	0.02383572	0	0	0	0
4.705557	0.04278206	0.02383572	0	0	0	0
4.72273	0.04278206	0.02383572	0	0	0	0
4.738692	0.04278206	0.02383572	0	0	0	0
4.755259	0.04278206	0.02383572	0	0	0	0
4.77234	0.04278206	0.02383572	0	0	0	0
4.78839	0.04278206	0.02383572	0	0	0	0
4.805043	0.04278206	0.02383572	0	0	0	0
4.821526	0.04278206	0.02383572	0	0	0	0
4.838092	0.04278206	0.02383572	0	0	0	0
4.854663	0.04278206	0.02383572	0	0	0	0
4.87151	0.04278206	0.02383572	0	0	0	0
4.887796	0.04278206	0.02383572	0	0	0	0
4.904841	0.04278206	0.02383572	0	0	0	0
4.92093	0.04278206	0.02383572	0	0	0	0
4.937782	0.04278206	0.02383572	0	0	0	0
4.954209	0.04278206	0.02383572	0	0	0	0
4.970626	0.04278206	0.02383572	0	0	0	0
4.987193	0.04278206	0.02383572	0	0	0	0
5.003806	0.04278206	0.02383572	0	0	0	0
5.020379	0.04278206	0.02383572	0	0	0	0
5.036896	0.04278206	0.02383572	0	0	0	0
5.053462	0.04278206	0.02383572	0	0	0	0
5.070029	0.04278206	0.02383572	0	0	0	0
5.086736	0.04278206	0.02383572	0	0	0	0
5.103164	0.04278206	0.02383572	0	0	0	0
5.119725	0.04278206	0.02383572	0	0	0	0
5.136292	0.04278206	0.02383572	0	0	0	0
5.152856	0.04278206	0.02383572	0	0	0	0
5.169425	0.04278206	0.02383572	0	0	0	0
5.185991	0.04278206	0.02383572	0	0	0	0
5.202558	0.04278206	0.02383572	0	0	0	0
5.219126	0.04278206	0.02383572	0	0	0	0
5.235692	0.04278206	0.02383572	0	0	0	0
5.252259	0.04278206	0.02383572	0	0	0	0
5.268826	0.04278206	0.02383572	0	0	0	0
5.285722	0.04278206	0.02383572	0	0	0	0
5.301958	0.04278206	0.02383572	0	0	0	0
5.318525	0.04278206	0.02383572	0	0	0	0
5.335092	0.04278206	0.02383572	0	0	0	0
5.351659	0.04278206	0.02383572	0	0	0	0
5.368623	0.04278206	0.02383572	0	0	0	0
5.384844	0.04278206	0.02383572	0	0	0	0
5.401359	0.04278206	0.02383572	0	0	0	0
5.417926	0.04278206	0.02383572	0	0	0	0
5.434493	0.04278206	0.02383572	0	0	0	0
5.451061	0.04278206	0.02383572	0	0	0	0
5.467923	0.04278206	0.02383572	0	0	0	0
5.48447	0.04278206	0.01894634	0	-0.2954808	0	-8.84444
5.500762	0.0440044	-0.00550055	0.07502913	-1.500581	2.284769	-36.69742
5.517328	0.0440044	-0.05194964	-2.248719E-07	-2.803834	-2.28345	-39.66332
5.533895	0.04644909	-0.1093998	0.1475619	-3.4677	4.453562	-20.0361
5.550461	0.04644909	-0.163183	0	-3.246545	-4.453555	6.674668
5.567028	0.04644909	-0.2035204	0	-2.434839	0	24.49841
5.583595	0.04644909	-0.2316343	-2.24859E-07	-1.696959	-6.786355E-06	22.26956
5.600162	0.0440044	-0.2597482	-0.1475699	-1.697059	-4.453791	-0.003000604
5.616727	0.04278206	-0.2890845	-0.07378732	-1.770894	2.226924	-2.228509
5.633294	0.03911502	-0.3196431	-0.221349	-1.844573	-4.453676	-2.223767
5.649891	0.03667033	-0.347757	-0.1472988	-1.693937	2.232878	4.542204
5.666426	0.03178096	-0.3709815	-0.2956935	-1.404544	-4.478884	8.734536
5.68299	0.02811392	-0.3880944	-0.2213872	-1.03314	2.24496	11.22095
5.699558	0.02689158	-0.3942061	-0.0737767	-0.3688842	4.455215	20.04872
5.716319	0.02689158	-0.3942061	0	0	2.21362	11.06812
5.732693	0.02689158	-0.3942061	0	0	0	0
5.749259	0.02689158	-0.3942061	0	0	0	0
5.765825	0.02689158	-0.3942061	0	0	0	0
5.782452	0.02689158	-0.3942061	0	0	0	0
5.798958	0.02689158	-0.3942061	0	0	0	0
5.815526	0.02811392	-0.3929838	0.07377871	0.0737786	2.230723	2.23072
5.832091	0.03422565	-0.383205	0.3689363	0.5902986	8.908129	15.58905
5.848659	0.04033737	-0.3697592	0.3688937	0.8115664	-0.001285331	6.678068
5.865225	0.04889378	-0.3428676	0.5164955	1.623273	4.454695	24.49771
5.881845	0.05989488	-0.2707493	0.6619512	4.339456	4.383113	81.84854
5.898358	0.0660066	-0.2267449	0.370108	2.664778	-8.808352	-50.54481
5.914926	0.06845129	-0.1925192	0.1475576	2.065805	-6.727427	-18.1062
5.931493	0.06967364	-0.1595159	0.07378072	1.992083	-2.22656	-2.22491
5.948059	0.06967364	-0.1265126	0	1.992198	-2.226771	0.003461129
5.964625	0.06967364	-0.1032881	0	1.401917	0	-17.81574
5.981193	0.06967364	-0.08739763	0	0.9591232	0	-13.36373
5.997758	0.06967364	-0.07884122	0	0.5165408	0	-13.35793
6.014475	0.06967364	-0.0727295	4.4569E-07	0.3656	1.33914E-05	-4.535235
6.030893	0.06967364	-0.07028481	-4.538062E-07	0.1489033	-2.714646E-05	-6.539824
6.04746	0.06967364	-0.07028481	0	0	1.375807E-05	-4.51431
6.064026	0.06967364	-0.07028481	0	0	0	0
6.080881	0.06967364	-0.07028481	0	0	0	0
6.097162	0.06967364	-0.07028481	0	0	0	0
6.113728	0.06967364	-0.07028481	0	0	0	0
6.130295	0.06967364	-0.07028481	0	0	0	0
6.146862	0.06967364	-0.07028481	0	0	0	0
6.163428	0.06967364	-0.07028481	0	0	0	0
6.179995	0.06967364	-0.07028481	0	0	0	0
6.196561	0.06967364	-0.07028481	0	0	0	0
6.213129	0.06967364	-0.07028481	0	0	0	0
6.229695	0.06967364	-0.07028481	0	0	0	0
6.246262	0.06967364	-0.07028481	0	0	0	0
6.263389	0.06967364	-0.07028481	0	0	0	0
6.279396	0.06967364	-0.07028481	0	0	0	0
6.295959	0.06967364	-0.07028481	0	0	0	0
6.312526	0.06967364	-0.07028481	0	0	0	0
6.329093	0.06967364	-0.07028481	0	0	0	0
6.34566	0.06967364	-0.07028481	0	0	0	0
6.362226	0.06967364	-0.07028481	0	0	0	0
6.378794	0.06967364	-0.07028481	0	0	0	0
6.39536	0.06967364	-0.07028481	0	0	0	0
6.41193	0.06967364	-0.07028481	0	0	0	0
6.428496	0.06967364	-0.07028481	0	0	0	0
6.449681	0.06967364	-0.07028481	0	0	0	0
6.466251	0.06967364	-0.07028481	0	0	0	0
6.482818	0.06967364	-0.07028481	0	0	0	0
6.499385	0.06967364	-0.07028481	0	0	0	0
6.516458	0.06967364	-0.07028481	0	0	0	0
6.532519	0.06967364	-0.07028481	0	0	0	0
6.549658	0.06967364	-0.07028481	0	0	0	0
6.565653	0.06967364	-0.07028481	0	0	0	0
6.58222	0.06967364	-0.07028481	0	0	0	0
6.598786	0.06967364	-0.07028481	0	0	0	0
6.615353	0.06967364	-0.07028481	0	0	0	0
6.632253	0.06967364	-0.07028481	0	0	0	0
6.649018	0.06967364	-0.07028481	0	0	0	0
6.665086	0.06967364	-0.07028481	0	0	0	0
6.681909	0.06967364	-0.07028481	0	0	0	0
6.698185	0.06967364	-0.07028481	0	0	0	0
6.714752	0.06967364	-0.07028481	0	0	0	0
6.731318	0.06967364	-0.07028481	0	0	0	0
6.747885	0.06967364	-0.07028481	0	0	0	0
6.765175	0.06967364	-0.07028481	0	0	0	0
6.781019	0.06967364	-0.07028481	0	0	0	0
6.797586	0.06967364	-0.07028481	0	0	0	0
6.81466	0.06967364	-0.07028481	0	0	0	0
6.830719	0.06967364	-0.07028481	0	0	0	0
6.847847	0.06967364	-0.07028481	0	0	0	0
6.863853	0.06967364	-0.07028481	0	0	0	0
6.881149	0.06967364	-0.07028481	0	0	0	0
6.896986	0.06967364	-0.07028481	0	0	0	0
6.913553	0.06967364	-0.07028481	0	0	0	0
6.930426	0.06967364	-0.07028481	0	0	0	0
6.946685	0.06967364	-0.07028481	0	0	0	0
6.963884	0.06967364	-0.07028481	0	0	0	0
6.979819	0.07089598	-0.06906246	0.07670829	0.07670829	2.315094	2.315094
6.996466	0.07089598	-0.06784012	4.475667E-07	0.07342779	-2.354315	-0.100685
7.013025	0.07089598	-0.06784012	0	0	-1.347849E-05	-2.211282
7.02971	0.07089598	-0.06784012	0	0	0	0
7.046085	0.07089598	-0.06784012	0	0	0	0
7.062653	0.07089598	-0.06784012	0	0	0	0
7.079219	0.07089598	-0.06784012	0	0	0	0
7.09587	0.07089598	-0.06784012	0	0	0	0
7.113898	0.07089598	-0.06661777	-4.132942E-07	0.06780545	-1.191773E-05	1.955235
7.130469	0.07089598	-0.06661777	0	0	1.194532E-05	-1.959762
7.147466	0.07089598	-0.06661777	0	0	0	0
7.163603	0.07089598	-0.06661777	0	0	0	0
7.180362	0.07089598	-0.06539543	0	0.07293475	0	2.217096
7.197174	0.07089598	-0.06539543	0	0	0	-2.172536
7.213303	0.07089598	-0.06539543	0	0	0	0
7.229869	0.07089598	-0.06539543	0	0	0	0
7.246436	0.07089598	-0.06539543	0	0	0	0
7.263221	0.07089598	-0.06539543	0	0	0	0
7.279572	0.07089598	-0.06539543	0	0	0	0
7.296135	0.07089598	-0.06539543	0	0	0	0
7.312701	0.07089598	-0.06539543	0	0	0	0
7.329269	0.07089598	-0.06417309	4.49692E-07	0.07377648	1.357193E-05	2.22661
7.346091	0.07089598	-0.06417309	0	0	-1.346785E-05	-2.209535
7.362402	0.07089598	-0.06295075	-4.567779E-07	0.07493898	-1.378618E-05	2.26176
7.378969	0.07089598	-0.06295075	0	0	1.389315E-05	-2.27931
7.395624	0.07089598	-0.06295075	0	0	0	0
7.412106	0.07089598	-0.06295075	0	0	0	0
7.428728	0.07089598	-0.06295075	0	0	0	0
7.445239	0.07089598	-0.0617284	4.512375E-07	0.07403024	1.361896E-05	2.234334
7.461803	0.07089598	-0.0617284	0	0	-1.364252E-05	-2.238199
7.47837	0.07089598	-0.0617284	0	0	0	0
7.494937	0.07089598	-0.0617284	0	0	0	0
7.512046	0.07089598	-0.0617284	0	0	0	0
7.52807	0.07089598	-0.0617284	0	0	0	0
7.544713	0.07089598	-0.0617284	0	0	0	0
7.5614	0.07089598	-0.0617284	0	0	0	0
7.578045	0.07089598	-0.0617284	0	0	0	0
7.594337	0.07089598	-0.0617284	0	0	0	0
7.614751	0.07089598	-0.0617284	0	0	0	0
7.631321	0.07089598	-0.0617284	0	0	0	0
7.647902	0.07089598	-0.0617284	0	0	0	0
7.66461	0.07089598	-0.0617284	0	0	0	0
7.68102	0.07089598	-0.0617284	0	0	0	0
7.697588	0.07089598	-0.0617284	0	0	0	0
7.714156	0.07089598	-0.0617284	0	0	0	0
7.730722	0.07089598	-0.0617284	0	0	0	0
7.747287	0.07089598	-0.0617284	0	0	0	0
7.763855	0.07089598	-0.0617284	0	0	0	0
7.780421	0.07089598	-0.0617284	0	0	0	0
7.796987	0.07089598	-0.0617284	0	0	0	0
7.813645	0.07089598	-0.0617284	0	0	0	0
7.830121	0.07089598	-0.0617284	0	0	0	0
7.846688	0.07089598	-0.0617284	0	0	0	0
7.863303	0.07089598	-0.0617284	0	0	0	0
7.879823	0.07089598	-0.0617284	0	0	0	0
7.896388	0.07089598	-0.0617284	0	0	0	0
7.913332	0.07089598	-0.0617284	0	0	0	0
7.929521	0.07089598	-0.0617284	0	0	0	0
7.94655	0.07089598	-0.0617284	0	0	0	0
7.962655	0.07089598	-0.0617284	0	0	0	0
7.979533	0.07089598	-0.0617284	0	0	0	0
7.995788	0.07089598	-0.0617284	0	0	0	0
8.012355	0.07089598	-0.0617284	0	0	0	0
8.029117	0.07089598	-0.0617284	0	0	0	0
8.04549	0.07089598	-0.0617284	0	0	0	0
8.06241	0.07089598	-0.0617284	0	0	0	0
8.078862	0.07089598	-0.0617284	0	0	0	0
8.095189	0.07089598	-0.0617284	0	0	0	0
8.111996	0.07089598	-0.0617284	0	0	0	0
8.128457	0.07089598	-0.0617284	0	0	0	0
8.14489	0.07089598	-0.0617284	0	0	0	0
8.16168	0.07089598	-0.0617284	0	0	0	0
8.17802	0.07089598	-0.0617284	0	0	0	0
8.194589	0.07089598	-0.0617284	0	0	0	0
8.211156	0.07089598	-0.0617284	0	0	0	0
8.227722	0.07089598	-0.0617284	0	0	0	0
8.244813	0.07089598	-0.0617284	0	0	0	0
8.260976	0.07089598	-0.0617284	0	0	0	0
8.277424	0.07089598	-0.0617284	0	0	0	0
8.293988	0.07089598	-0.0617284	0	0	0	0
8.310553	0.07089598	-0.0617284	0	0	0	0
8.327119	0.07089598	-0.0617284	0	0	0	0
8.343685	0.07089598	-0.0617284	0	0	0	0
8.360255	0.07089598	-0.0617284	0	0	0	0
8.376822	0.07089598	-0.0617284	0	0	0	0
8.393723	0.07089598	-0.0617284	0	0	0	0
8.417512	0.07089598	-0.0617284	0	0	0	0
8.434082	0.07089598	-0.0617284	0	0	0	0
8.450651	0.07089598	-0.0617284	0	0	0	0
8.467217	0.07089598	-0.0617284	0	0	0	0
8.483917	0.07089598	-0.0617284	0	0	0	0
8.500349	0.07089598	-0.0617284	0	0	0	0
8.516924	0.07089598	-0.0617284	0	0	0	0
8.533483	0.07089598	-0.0617284	0	0	0	0
8.55005	0.07089598	-0.0617284	0	0	0	0
8.566615	0.07089598	-0.0617284	0	0	0	0
8.583182	0.07089598	-0.0617284	0	0	0	0
8.59975	0.07089598	-0.0617284	0	0	0	0
8.675553	0.07089598	-0.0617284	0	0	0	0
8.692303	0.07089598	-0.0617284	0	0	0	0
8.708693	0.07089598	-0.0617284	0	0	0	0
8.725258	0.07089598	-0.0617284	0	0	0	0
8.741824	0.07089598	-0.0617284	0	0	0	0
8.758867	0.07089598	-0.0617284	0	0	0	0
8.774956	0.07089598	-0.0617284	0	0	0	0
8.792234	0.07089598	-0.0617284	0	0	0	0
8.80809	0.07089598	-0.0617284	0	0	0	0
8.824659	0.07089598	-0.0617284	0	0	0	0
8.841228	0.07089598	-0.0617284	0	0	0	0
8.858062	0.07089598	-0.0617284	0	0	0	0
8.87436	0.07089598	-0.0617284	0	0	0	0
8.89111	0.07089598	-0.0617284	0	0	0	0
8.907495	0.07089598	-0.0617284	0	0	0	0
8.92406	0.07089598	-0.0617284	0	0	0	0
8.941021	0.07089598	-0.0617284	0	0	0	0
8.957193	0.07089598	-0.0617284	0	0	0	0
8.973761	0.07089598	-0.0617284	0	0	0	0
8.991188	0.07089598	-0.0617284	0	0	0	0
9.006892	0.07089598	-0.0617284	0	0	0	0
9.023693	0.07089598	-0.0617284	0	0	0	0
9.040028	0.07089598	-0.0617284	0	0	0	0
9.056594	0.07089598	-0.0617284	0	0	0	0
9.07316	0.07089598	-0.0617284	0	0	0	0
9.089726	0.07089598	-0.0617284	0	0	0	0
9.106293	0.07089598	-0.0617284	0	0	0	0
9.130818	0.07089598	-0.0617284	0	0	0	0
9.147388	0.07089598	-0.0617284	0	0	0	0
9.163954	0.07089598	-0.0617284	0	0	0	0
9.180518	0.07089598	-0.0617284	0	0	0	0
9.197085	0.07089598	-0.0617284	0	0	0	0
9.213654	0.07089598	-0.0617284	0	0	0	0
9.230222	0.06967364	-0.06295075	-0.07377693	-0.0737767	-2.226464	-2.226457
9.246786	0.0550055	-0.0727295	-0.8855232	-0.5903487	-24.49996	-15.59107
9.263494	0.01711282	-0.09350935	-2.267886	-1.243679	-41.54639	-19.6356
9.279975	-0.02077986	-0.1118445	-2.299251	-1.112541	-0.9450447	3.951273
9.296488	-0.07456301	-0.1399584	-3.257045	-1.702546	-29.02994	-17.88255
9.313053	-0.1356802	-0.1741841	-3.689468	-2.066103	-13.07277	-10.99084
9.329619	-0.1650165	-0.1912969	-1.770842	-1.03299	57.90925	31.18208
9.346427	-0.2212444	-0.2267449	-3.345391	-2.109051	-47.17915	-32.24266
9.363555	-0.2628041	-0.2573035	-2.426421	-1.784134	27.07987	9.574546
9.379319	-0.2994744	-0.2890845	-2.326172	-2.016014	3.047789	-7.049699
9.396047	-0.3055861	-0.2951962	-0.365372	-0.365372	60.34776	50.80199
9.412632	-0.3068085	-0.2951962	-0.07370012	0	8.75555	10.96792
9.42902	-0.3068085	-0.2951962	0	0	2.235146	0
9.445587	-0.3068085	-0.2951962	0	0	0	0
9.462154	-0.3068085	-0.2951962	0	0	0	0
9.47872	-0.3031414	-0.2927515	0.2213695	0.1475802	6.681328	4.454237
9.495287	-0.2921403	-0.2841951	0.6640265	0.5164651	13.36019	11.13361
9.511854	-0.2786945	-0.2719716	0.8115898	0.7378091	4.453469	6.680175
9.52842	-0.259137	-0.2511918	1.180561	1.254346	11.1359	15.58958
9.544988	-0.2334678	-0.2218555	1.549398	1.770742	11.13183	15.5853
9.561557	-0.2102432	-0.1974086	1.401676	1.475446	-4.458003	-8.911522
9.578122	-0.1857964	-0.1680724	1.475785	1.770944	2.236624	8.918134
9.595	-0.1613495	-0.1350691	1.448437	1.955389	-0.8177469	5.515121
9.611256	-0.1503484	-0.1216233	0.6767674	0.8271602	-23.2897	-34.05098
9.627823	-0.1405696	-0.1106222	0.5902458	0.664027	-2.636037	-4.970148
9.644389	-0.1356802	-0.1057328	0.2951408	0.2951408	-8.906543	-11.13333
9.660954	-0.1332356	-0.1020658	0.1475784	0.2213677	-4.453825	-2.226669
9.677522	-0.1307909	-0.09839873	0.1475624	0.2213431	-0.0004852736	-0.0007420773
9.69409	-0.1259015	-0.09350935	0.2951059	0.2951064	4.452745	2.226116
9.710657	-0.1173451	-0.08495294	0.5164669	0.516466	6.680494	6.680454
9.72769	-0.110011	-0.07761887	0.4305891	0.4305899	-2.555898	-2.555846
9.744157	-0.1051216	-0.07395184	0.2969184	0.2226882	-3.990202	-6.206075
9.766878	-0.1026769	-0.07150716	0.1075944	0.1075944	-4.831125	-2.936934
9.783448	-0.1002322	-0.06906246	0.1475364	0.1475364	1.016559	1.016559
9.800152	-0.1002322	-0.06906246	0	0	-4.434026	-4.434026
9.816627	-0.09900991	-0.06784012	0.07419456	0.074195	2.236235	2.236249
9.833204	-0.09656522	-0.06661778	0.1474685	0.07373404	2.2169	-0.01394655
9.849714	-0.09289818	-0.06539543	0.2221097	0.07403689	2.255858	0.009152976
9.866282	-0.09045349	-0.06295074	0.1475619	0.1475619	-2.253751	2.222828
9.883145	-0.08556411	-0.0617284	0.2899329	0.07248311	4.258645	-2.24578
9.899415	-0.0770077	-0.05806136	0.5259113	0.2253906	7.122049	4.614891
9.916701	-0.07089598	-0.05561668	0.3535585	0.1414232	-5.136277	-2.502308
9.932592	-0.05989489	-0.05194964	0.6922816	0.2307606	10.20946	2.69272
9.949115	-0.05011612	-0.04828261	0.5918486	0.2219431	-3.098494	-0.2720321
9.965681	-0.04278205	-0.04706026	0.4427107	0.07378519	-4.507217	-4.4776
9.982248	-0.03789268	-0.04583792	0.2951231	0.07378072	-4.454331	-0.0001349193
9.998816	-0.0330033	-0.04461557	0.2951236	0.07378095	1.349154E-05	6.745769E-06
10.01539	-0.02933627	-0.04461557	0.2213044	0	-2.227675	-2.226521
10.03195	-0.02566923	-0.04461557	0.2213553	0	0.001534799	0
10.04852	-0.02566923	-0.04461557	0	0	-6.681284	0
10.06508	-0.02566923	-0.04461557	0	0	0	0
10.08165	-0.02566923	-0.04461557	0	0	0	0
10.09822	-0.02566923	-0.04461557	0	0	0	0
10.11503	-0.02566923	-0.04461557	0	0	0	0
10.13135	-0.02566923	-0.04461557	0	0	0	0
10.14797	-0.02566923	-0.04461557	0	0	0	0
10.16465	-0.02566923	-0.04461557	0	0	0	0
10.18105	-0.02566923	-0.04461557	0	0	0	0
10.19761	-0.02566923	-0.04461557	0	0	0	0
10.21509	-0.02566923	-0.04461557	0	0	0	0
10.23075	-0.02566923	-0.04461557	0	0	0	0
10.24767	-0.02566923	-0.04461557	0	0	0	0
10.26388	-0.02566923	-0.04461557	0	0	0	0
10.28045	-0.02566923	-0.04461557	0	0	0	0
10.29716	-0.02566923	-0.04461557	0	0	0	0
10.31358	-0.02566923	-0.04461557	0	0	0	0
10.33016	-0.02566923	-0.04461557	0	0	0	0
10.34671	-0.02566923	-0.04461557	0	0	0	0
10.36328	-0.02566923	-0.04461557	0	0	0	0
10.37985	-0.02566923	-0.04461557	0	0	0	0
10.39641	-0.02566923	-0.04461557	0	0	0	0
10.41298	-0.02566923	-0.04461557	0	0	0	0
10.42991	-0.02566923	-0.04461557	0	0	0	0
10.44612	-0.02444689	-0.04339323	0.07543971	0.07543983	2.276513	2.276516
10.46268	-0.02322454	-0.04217088	0.07378519	0.07378519	-0.05049011	-0.05049352
10.47925	-0.01955751	-0.03972619	0.2213679	0.1475787	4.454439	2.227284
10.49581	-0.01833517	-0.03850385	0.07379369	0.07379347	-4.454439	-2.227162
10.51299	-0.01711282	-0.03728151	0.07116321	0.07116333	-0.07796093	-0.077951
10.52895	-0.01466813	-0.03728151	0.153206	0	2.476127	-2.147775
10.54551	-0.01466813	-0.03605916	0	0.07378922	-4.710812	2.268888
10.56208	-0.01222344	-0.03483682	0.1475532	0.0737767	4.453294	-0.0003777739
10.57865	-0.01222344	-0.03483682	0	0	-4.453037	-2.226521
10.59521	-0.0110011	-0.03483682	0.07378508	0	2.226902	0
10.61178	-0.0110011	-0.03361448	0	0.07378922	-2.227031	2.227155
10.62855	-0.009778756	-0.03361447	0.0729038	2.221859E-07	2.18721	-2.213767
10.64536	-0.006111722	-0.03239213	0.218091	0.07269689	4.323522	2.164829
10.66148	-0.004889378	-0.03116979	0.075828	0.075828	-4.319616	0.09507184
10.67805	-0.004889378	-0.03116979	0	0	-2.319876	-2.319876
10.69461	-0.004889378	-0.03116979	0	0	0	0
10.71118	-0.004889378	-0.03116979	0	0	0	0
10.72775	-0.003667034	-0.03116979	0.07378513	0	2.226904	0
10.74431	-0.003667034	-0.02994744	0	0.07378508	-2.226968	2.226966
10.76122	-0.003667034	-0.02994744	0	0	0	-2.204001
10.77744	-0.003667034	-0.02994744	0	0	0	0
10.79435	-0.003667034	-0.02994744	0	0	0	0
10.81058	-0.002444689	-0.02994744	0.07532447	1.147817E-07	2.273362	3.464218E-06
10.82772	-0.002444689	-0.02994744	0	0	-2.257508	-3.440058E-06
10.84386	-0.002444689	-0.02994744	0	0	0	0
10.86028	-0.002444689	-0.02994744	0	0	0	0
10.87684	-0.002444689	-0.02994744	0	0	0	0
10.89341	-0.002444689	-0.02994744	0	0	0	0
10.91018	-0.002444689	-0.02994744	0	0	0	0
10.92654	-0.002444689	-0.02994744	0	0	0	0
10.94331	-0.002444689	-0.02994744	0	0	0	0
10.95983	-0.002444689	-0.02994744	0	0	0	0
10.97644	-0.002444689	-0.02994744	0	0	0	0
10.993	-0.002444689	-0.02994744	0	0	0	0
11.0097	-0.002444689	-0.02994744	0	0	0	0
11.02594	-0.002444689	-0.02994744	0	0	0	0
11.04251	-0.002444689	-0.02994744	0	0	0	0
11.05975	-0.002444689	-0.02994744	0	0	0	0
11.07564	-0.002444689	-0.02994744	0	0	0	0
11.0975	-0.002444689	-0.02994744	0	0	0	0
11.11407	-0.002444689	-0.02994744	0	0	0	0
11.13063	-0.001222344	-0.02994744	0.07377236	-1.124165E-07	2.226198	-3.392347E-06
11.14721	0	-0.02994744	0.07374265	1.123713E-07	-0.0008964537	6.781962E-06
11.16377	0	-0.02994744	0	0	-2.225686	-3.391567E-06
11.18033	0	-0.02994744	0	0	0	0
11.1969	0	-0.02994744	0	0	0	0
11.21366	0	-0.02994744	0	0	0	0
11.23003	0	-0.02994744	0	0	0	0
11.2466	0	-0.02994744	0	0	0	0
11.26317	0	-0.02994744	0	0	0	0
11.27973	0	-0.02994744	0	0	0	0
11.2963	0	-0.02994744	0	0	0	0
11.31347	0	-0.02994744	0	0	0	0
11.32943	0	-0.02994744	0	0	0	0
11.346	0	-0.02994744	0	0	0	0
11.36256	0	-0.02994744	0	0	0	0
11.37913	0	-0.02994744	0	0	0	0
11.3957	0	-0.02994744	0	0	0	0
11.41226	0	-0.02994744	0	0	0	0
11.42883	0	-0.02994744	0	0	0	0
11.4461	0	-0.02994744	0	0	0	0
11.46197	0	-0.02994744	0	0	0	0
11.47853	0	-0.02994744	0	0	0	0
11.49523	0	-0.02994744	0	0	0	0
11.51227	0	-0.02994744	0	0	0	0
11.52827	0	-0.02994744	0	0	0	0
11.54528	0	-0.02994744	0	0	0	0
11.56137	0	-0.02994744	0	0	0	0
11.57793	0	-0.02994744	0	0	0	0
11.5945	0	-0.02994744	0	0	0	0
11.61107	0	-0.02994744	0	0	0	0
11.62763	0	-0.02994744	0	0	0	0
11.64488	0	-0.02994744	0	0	0	0
11.66119	0	-0.02994744	0	0	0	0
11.67733	0	-0.02994744	0	0	0	0
11.6939	0	-0.02994744	0	0	0	0
11.71046	0	-0.02994744	0	0	0	0
11.72703	0	-0.02994744	0	0	0	0
11.7436	0	-0.02994744	0	0	0	0
11.76027	0	-0.02994744	0	0	0	0
11.77673	0	-0.02994744	0	0	0	0
11.7936	0	-0.02994744	0	0	0	0
11.80986	0	-0.02994744	0	0	0	0
11.8265	0	-0.02994744	0	0	0	0
11.84335	0	-0.02994744	0	0	0	0
11.85957	0	-0.02994744	0	0	0	0
11.87637	0	-0.02994744	0	0	0	0
11.89273	0	-0.02994744	0	0	0	0
11.90926	0	-0.02994744	0	0	0	0
11.92583	0	-0.02994744	0	0	0	0
11.9424	0	-0.02994744	0	0	0	0
11.95896	0	-0.02994744	0	0	0	0
11.97563	0	-0.02994744	0	0	0	0
11.9921	0	-0.02994744	0	0	0	0
12.00876	0	-0.02994744	0	0	0	0
12.0253	0	-0.02994744	0	0	0	0
12.0418	0	-0.02994744	0	0	0	0
12.05861	0	-0.02994744	0	0	0	0
12.07493	0	-0.02994744	0	0	0	0
12.09161	0	-0.02994744	0	0	0	0
12.10806	0	-0.02994744	0	0	0	0
12.12533	0	-0.02994744	0	0	0	0
12.1412	0	-0.02994744	0	0	0	0
12.15828	0	-0.02994744	0	0	0	0
12.17433	0	-0.02994744	0	0	0	0
12.19137	0	-0.02994744	0	0	0	0
12.20746	0	-0.02994744	0	0	0	0
12.22403	0	-0.02994744	0	0	0	0
12.2406	0	-0.02994744	0	0	0	0
12.25718	0	-0.02994744	0	0	0	0
12.27373	0	-0.02994744	0	0	0	0
12.2903	0	-0.02994744	0	0	0	0
12.30686	0	-0.02994744	0	0	0	0
12.32343	0	-0.02994744	0	0	0	0
12.34	0	-0.02994744	0	0	0	0
12.35679	0	-0.02994744	0	0	0	0
12.37361	0	-0.02994744	0	0	0	0
12.39054	0	-0.02994744	0	0	0	0
12.40713	0	-0.02994744	0	0	0	0
12.42367	0	-0.02994744	0	0	0	0
12.44024	0	-0.02994744	0	0	0	0
12.45756	0	-0.02994744	0	0	0	0
12.47337	0	-0.02994744	0	0	0	0
12.48994	0	-0.02994744	0	0	0	0
12.50694	0	-0.02994744	0	0	0	0
12.52364	0	-0.02994744	0	0	0	0
12.54001	0	-0.02994744	0	0	0	0
12.55621	0	-0.02994744	0	0	0	0
12.57277	0	-0.02994744	0	0	0	0
12.58934	0	-0.02994744	0	0	0	0
12.60599	0	-0.02994744	0	0	0	0
12.62247	0	-0.02994744	0	0	0	0
12.63904	0	-0.02994744	0	0	0	0
12.65561	0	-0.02994744	0	0	0	0
12.67243	0	-0.02994744	0	0	0	0
12.68905	0	-0.02994744	0	0	0	0
12.70531	0	-0.02994744	0	0	0	0
12.72187	0	-0.02994744	0	0	0	0
12.73845	0	-0.02994744	0	0	0	0
12.75524	0	-0.02994744	0	0	0	0
12.77157	0	-0.02994744	0	0	0	0
12.7883	0	-0.02994744	0	0	0	0
12.80491	0	-0.02994744	0	0	0	0
12.82127	0	-0.02994744	0	0	0	0
12.83793	0	-0.02994744	0	0	0	0
12.85453	0	-0.02994744	0	0	0	0
12.87097	0	-0.02994744	0	0	0	0
12.88754	0	-0.02994744	0	0	0	0
12.90411	0	-0.02994744	0	0	0	0
12.92097	0	-0.02994744	0	0	0	0
12.93724	-0.009778756	-0.0287251	-0.6009007	0.07511256	-18.13574	2.266967
12.95391	-0.03789268	-0.02505806	-1.686282	0.2199498	-32.94463	4.39625
12.97038	-0.1014546	-0.006722895	-3.861053	1.113765	-65.63471	26.9754
12.98694	-0.2359125	0.03972619	-8.116362	2.803834	-128.8371	51.16985
13.00351	-0.3043638	0.06784011	-4.131489	1.696862	120.2637	-33.40849
13.02022	-0.3483682	0.08984232	-2.632923	1.316461	45.02725	-11.42985
13.03664	-0.3728151	0.1032881	-1.489422	0.8191813	34.51888	-15.0114
13.05354	-0.3862609	0.1130669	-0.7952921	0.5783942	20.83195	-7.226411
13.06977	-0.3874832	0.1155116	-0.07531364	0.150631	21.72774	-12.90918
13.08634	-0.3874832	0.1155116	0	0	2.296434	-4.59298
13.10291	-0.3874832	0.1155116	0	0	0	0
13.11968	-0.3874832	0.1155116	0	0	0	0
13.13604	-0.3887056	0.1155116	-0.07472018	4.554331E-07	-2.255125	1.37454E-05
13.15261	-0.3874832	0.1130669	0.07378677	-0.1475704	4.510379	-4.481948
13.16934	-0.3874832	0.1130669	0	0	-2.216046	4.431998
13.18574	-0.3862609	0.1118445	0.07451671	-0.07451899	2.248984	-2.249052
13.2023	-0.3838162	0.1106222	0.1475699	-0.07378497	2.215784	0.02226351
13.21887	-0.3703704	0.1069551	0.8116365	-0.2213549	20.04272	-4.453927
13.23577	-0.3447011	0.1008434	1.519228	-0.3617209	21.14578	-4.194723
13.25217	-0.2615817	0.09106466	5.066975	-0.5961149	106.5377	-7.038775
13.2691	-0.1894634	0.07761887	4.258928	-0.7940375	-24.23829	-5.936917
13.28514	-0.1246791	0.06295075	4.038958	-0.9144806	-6.671179	-3.652748
13.30171	-0.08556411	0.05194964	2.361531	-0.6641808	-51.44964	7.677138
13.31827	-0.0550055	0.04094854	1.844734	-0.6641046	-15.59967	0.002301154
13.33514	-0.05011613	0.03972619	0.2898015	-0.07245032	-46.50367	17.69472
13.35141	-0.04033737	0.03483682	0.6013238	-0.3006617	9.402031	-6.88763
13.36863	-0.03544799	0.03239213	0.2838648	-0.1419324	-9.480245	4.740116
13.38455	-0.03055861	0.02994744	0.3072381	-0.1536191	0.7053266	-0.3526633
13.40111	-0.02689158	0.02750275	0.2213936	-0.1475959	-2.64321	0.1854578
13.41768	-0.02444689	0.02628041	0.1475532	-0.07377648	-2.228701	2.228066
13.43424	-0.02322455	0.02628041	0.07379347	0	-2.2262	2.226707
13.45121	-0.02322455	0.02628041	0	0	-2.200491	0
13.46737	-0.0220022	0.02505806	0.07564475	-0.07564463	2.283292	-2.283288
13.48425	-0.0220022	0.02383572	-1.103273E-07	-0.07240133	-2.289358	0.09815717
13.50051	-0.0220022	0.02383572	0	0	3.329686E-06	2.185076
13.51707	-0.0220022	0.02383572	0	0	0	0
13.53364	-0.0220022	0.02383572	0	0	0	0
13.5503	-0.0220022	0.02383572	0	0	0	0
13.56677	-0.0220022	0.02383572	0	0	0	0
13.58334	-0.0220022	0.02383572	0	0	0	0
13.5999	-0.0220022	0.02383572	0	0	0	0
13.61647	-0.0220022	0.02383572	0	0	0	0
13.63331	-0.0220022	0.02383572	0	0	0	0
13.6496	-0.0220022	0.02383572	0	0	0	0
13.66617	-0.0220022	0.02383572	0	0	0	0
13.68274	-0.0220022	0.02383572	0	0	0	0
13.6993	-0.0220022	0.02383572	0	0	0	0
13.71587	-0.0220022	0.02383572	0	0	0	0
13.73267	-0.0220022	0.02383572	0	0	0	0
13.749	-0.0220022	0.02383572	0	0	0	0
13.76557	-0.0220022	0.02383572	0	0	0	0
13.78214	-0.02077986	0.02383572	0.07378095	0	2.226649	0
13.79872	-0.02077986	0.02383572	0	0	-2.225688	0
13.81527	-0.02077986	0.02383572	0	0	0	0
13.83184	-0.02077986	0.02383572	0	0	0	0
13.8484	-0.02077986	0.02383572	0	0	0	0
13.86497	-0.02077986	0.02383572	0	0	0	0
13.88154	-0.02077986	0.02383572	0	0	0	0
13.89811	-0.02077986	0.02383572	0	0	0	0
13.91467	-0.02077986	0.02383572	0	0	0	0
13.93124	-0.02077986	0.02383572	0	0	0	0
13.94781	-0.02077986	0.02383572	0	0	0	0
13.96455	-0.02077986	0.02383572	0	0	0	0
13.98121	-0.02077986	0.02383572	0	0	0	0
13.99751	-0.02077986	0.02383572	0	0	0	0
14.01433	-0.02077986	0.02383572	0	0	0	0
14.03064	-0.02077986	0.02383572	0	0	0	0
14.0472	-0.02077986	0.02383572	0	0	0	0
14.11542	-0.02077986	0.02383572	0	0	0	0
14.132	-0.02077986	0.02383572	0	0	0	0
14.14856	-0.02077986	0.02383572	0	0	0	0
14.16512	-0.02077986	0.02383572	0	0	0	0
14.18169	-0.02077986	0.02383572	0	0	0	0
14.19854	-0.02077986	0.02383572	0	0	0	0
14.21513	-0.02077986	0.02383572	0	0	0	0
14.23139	-0.02077986	0.02383572	0	0	0	0
14.24802	-0.02077986	0.02383572	0	0	0	0
14.26465	-0.02077986	0.02383572	0	0	0	0
14.28109	-0.02077986	0.02383572	0	0	0	0
14.29766	-0.02077986	0.02383572	0	0	0	0
14.31422	-0.02077986	0.02383572	0	0	0	0
14.33079	-0.02077986	0.02383572	0	0	0	0
14.34736	-0.01955751	0.02261337	0.07377659	-0.07377659	2.226646	-2.226646
14.36392	-0.01955751	0.02261337	0	0	-2.226646	2.226646
14.38049	-0.01955751	0.02261337	0	0	0	0
14.39706	-0.01955751	0.02261337	0	0	0	0
14.41362	-0.01955751	0.02261337	0	0	0	0
14.43019	-0.01955751	0.02261337	0	0	0	0
14.44692	-0.01833517	0.02139103	0.0730575	-0.0730575	2.194081	-2.194081
14.46358	-0.01711282	0.02139103	0.07339216	0	0.01002405	2.188252
14.47989	-0.01466813	0.01894634	0.1498476	-0.1498475	2.318976	-4.545038
14.49646	-0.01466813	0.01894634	0	0	-4.557299	4.557297
14.51303	-0.01344579	0.01894634	0.07376815	0	2.226199	0
14.53	-0.01344579	0.01894634	0	0	-2.199173	0
14.54616	-0.01344579	0.01894634	0	0	0	0
14.56321	-0.01344579	0.017724	-5.463592E-08	-0.07170866	-1.645411E-06	-2.159572
14.57929	-0.01222344	0.01772399	0.07598089	-1.157819E-07	2.293175	2.164231
14.59586	-0.01222344	0.01772399	0	0	-2.326862	3.54574E-06
14.61271	-0.01222344	0.01772399	0	0	0	0
14.62916	-0.01222344	0.01772399	0	0	0	0
14.6457	-0.01222344	0.01772399	0	0	0	0
14.66212	-0.01222344	0.01772399	0	0	0	0
14.67869	-0.01222344	0.01772399	0	0	0	0
14.69526	-0.01222344	0.01772399	0	0	0	0
14.71182	-0.01222344	0.01772399	0	0	0	0
14.72839	-0.01222344	0.01772399	0	0	0	0
14.74496	-0.01222344	0.01772399	0	0	0	0
14.76169	-0.01222344	0.01772399	0	0	0	0
14.77809	-0.01222344	0.01772399	0	0	0	0
14.79466	-0.01222344	0.01772399	0	0	0	0
14.81123	-0.01222344	0.01772399	0	0	0	0
14.82779	-0.01222344	0.01772399	0	0	0	0
14.84436	-0.01222344	0.01772399	0	0	0	0
14.86092	-0.01222344	0.01772399	0	0	0	0
14.87749	-0.0110011	0.01405696	0.07378508	-0.2213553	2.227031	-6.681092
14.89406	-0.009778756	0.01283462	0.07378514	-0.07378514	1.798975E-06	4.453931
14.91101	-0.009778756	0.01161227	0	-0.07209995	-2.201244	0.05027469
14.92719	-0.008556412	0.01038993	0.07554197	-0.07554197	2.279861	-0.1038806
14.94376	-0.007334067	0.00794524	0.07378511	-0.1475702	-0.05364911	-2.199519
14.96061	-0.006111723	0.006722894	0.07252013	-0.07252018	-0.03784933	2.245561
14.97702	-0.004889378	0.00550055	0.07449701	-0.07449699	0.05943158	-0.05942934
14.99354	-0.004889378	0.00550055	0	0	-2.262324	2.262323
15.01002	-0.004889378	0.004278206	0	-0.0741651	0	-2.247233
15.02673	-0.004889378	0.004278206	0	0	0	2.234448
15.05615	-0.004889378	0.004278206	0	0	0	0
15.07316	-0.003667033	0.003055861	0.07187359	-0.07187356	1.548107	-1.548106
15.08929	-0.003667033	0.003055861	0	0	-2.169087	2.169086
15.10586	-0.003667033	0.001833517	0	-0.07378086	0	-2.256588
15.12242	-0.003667033	0.001833517	0	0	0	2.226775
15.1397	-0.003667033	0.001833517	0	0	0	0
15.15569	-0.003667033	0.001833517	0	0	0	0
15.17212	-0.003667033	0.0006111722	0	-0.0743587	0	-2.293055
15.18877	-0.003667033	0.0006111722	0	0	0	2.247384
15.20526	-0.003667033	-0.001833517	0	-0.1483044	0	-4.476094
15.22194	-0.003667033	-0.001833517	0	0	0	4.47159
15.23839	-0.003667033	-0.003055861	0	-0.07430268	0	-2.242589
15.25496	-0.003667033	-0.003055861	0	0	0	2.250296
15.27152	-0.002444689	-0.003055861	0.07378508	0	2.226838	0
15.28809	-0.002444689	-0.003055861	0	0	-2.226902	0
15.30492	-0.002444689	-0.003055861	0	0	0	0
15.32122	-0.002444689	-0.003055861	0	0	0	0
15.33854	-0.002444689	-0.003055861	0	0	0	0
15.35436	-0.002444689	-0.003055861	0	0	0	0
15.37104	-0.002444689	-0.003055861	0	0	0	0
15.38757	-0.002444689	-0.003055861	0	0	0	0
15.40406	-0.002444689	-0.003055861	0	0	0	0
15.42062	-0.002444689	-0.003055861	0	0	0	0
15.43719	-0.002444689	-0.003055861	0	0	0	0
15.45376	-0.002444689	-0.003055861	0	0	0	0
15.47033	-0.002444689	-0.003055861	0	0	0	0
15.48689	-0.002444689	-0.003055861	0	0	0	0
15.50346	-0.002444689	-0.003055861	0	0	0	0
15.52003	-0.002444689	-0.003055861	0	0	0	0
15.53659	-0.002444689	-0.003055861	0	0	0	0
15.55316	-0.002444689	-0.003055861	0	0	0	0
15.5698	-0.002444689	-0.003055861	0	0	0	0
15.58629	-0.002444689	-0.003055861	0	0	0	0
15.60286	-0.002444689	-0.003055861	0	0	0	0
15.61943	-0.001222344	-0.001833517	0.07378937	0.07378935	2.226968	2.226967
15.63599	-0.001222345	-0.0006111723	-7.027247E-09	0.0737851	-2.22716	-0.0001281807
15.65256	-0.001222345	-0.0006111723	0	0	2.120949E-07	-2.226967
15.66912	-0.001222345	-0.0006111723	0	0	0	0
15.69042	-0.001222345	-0.0006111723	0	0	0	0
15.70699	-0.001222345	-0.0006111723	0	0	0	0
15.72421	-0.001222345	-0.0006111723	0	0	0	0
15.74037	-0.001222345	-0.0006111723	0	0	0	0
15.75676	-0.001222345	-0.0006111723	0	0	0	0
15.7733	-0.001222345	-0.0006111723	0	0	0	0
15.78984	-0.001222345	-0.0006111723	0	0	0	0
15.80652	-0.001222345	-0.0006111723	0	0	0	0
15.82296	-0.001222345	-0.0006111723	0	0	0	0
15.83952	-0.001222345	-0.0006111723	0	0	0	0
15.85609	-0.001222345	-0.0006111723	0	0	0	0
15.87266	-0.001222345	-0.0006111723	0	0	0	0
15.88922	-0.001222345	-0.0006111723	0	0	0	0
15.90584	-0.001222345	-0.0006111723	0	0	0	0
15.92236	-0.001222345	-0.0006111723	0	0	0	0
15.93892	-0.001222345	-0.0006111723	0	0	0	0
15.95549	-0.001222345	-0.0006111723	0	0	0	0
15.97231	-0.001222345	-0.0006111723	0	0	0	0
15.98898	-0.001222345	-0.0006111723	0	0	0	0
16.00548	-0.001222345	-0.0006111723	0	0	0	0
16.02176	-0.001222345	-0.0006111723	0	0	0	0
16.03842	-0.001222345	-0.0006111723	0	0	0	0
16.05489	-0.001222345	-0.0006111723	0	0	0	0
16.07186	-0.001222345	-0.0006111723	0	0	0	0
16.08803	-0.001222345	-0.0006111723	0	0	0	0
16.10459	-0.001222345	-0.0006111723	0	0	0	0
16.12116	-0.001222345	-0.0006111723	0	0	0	0
16.13773	-0.001222345	-0.0006111723	0	0	0	0
16.15429	-0.001222345	-0.0006111723	0	0	0	0
16.17129	-0.001222345	-0.0006111723	0	0	0	0
16.18743	-0.001222345	-0.0006111723	0	0	0	0
16.204	-0.001222345	-0.0006111723	0	0	0	0
16.22056	-0.001222345	-0.0006111723	0	0	0	0
16.23713	-0.001222345	-0.0006111723	0	0	0	0
16.2537	-0.001222345	-0.0006111723	0	0	0	0
16.2704	-0.001222345	-0.0006111723	0	0	0	0
16.2869	-0.001222345	-0.0006111723	0	0	0	0
16.30341	-0.001222345	-0.0006111723	0	0	0	0
16.31996	-0.001222345	-0.0006111723	0	0	0	0
16.33653	-0.001222345	-0.0006111723	0	0	0	0
16.35309	-0.001222345	-0.0006111723	0	0	0	0
16.36997	-0.001222345	-0.0006111723	0	0	0	0
16.38647	-0.001222345	-0.0006111723	0	0	0	0
16.40279	-0.001222345	-0.0006111723	0	0	0	0
16.41949	-0.001222345	-0.0006111723	0	0	0	0
16.43655	-0.001222345	-0.0006111723	0	0	0	0
16.45253	-0.001222345	-0.0006111723	0	0	0	0
16.46906	-0.001222345	-0.0006111723	0	0	0	0
16.48564	-0.001222345	-0.0006111723	0	0	0	0
16.5022	-0.001222345	-0.0006111723	0	0	0	0
16.51908	-0.001222345	-0.0006111723	0	0	0	0
16.5356	-0.001222345	-0.0006111723	0	0	0	0
16.55214	-0.001222345	-0.0006111723	0	0	0	0
16.56846	-0.001222345	-0.0006111723	0	0	0	0
16.58522	-0.001222345	-0.0006111723	0	0	0	0
16.60159	-0.001222345	-0.0006111723	0	0	0	0
16.61816	-0.001222345	-0.0006111723	0	0	0	0
16.63473	-0.001222345	-0.0006111723	0	0	0	0
16.65129	-0.001222345	-0.0006111723	0	0	0	0
16.66786	-0.001222345	-0.0006111723	0	0	0	0
16.68464	-0.001222345	-0.0006111723	0	0	0	0
16.70135	-0.001222345	-0.0006111723	0	0	0	0
16.71757	-0.001222345	-0.0006111723	0	0	0	0
16.73413	-0.001222345	-0.0006111723	0	0	0	0
16.7507	-0.001222345	-0.0006111723	0	0	0	0
16.76727	-0.001222345	-0.0006111723	0	0	0	0
16.78383	-0.001222345	-0.0006111723	0	0	0	0
16.8004	-0.001222345	-0.0006111723	0	0	0	0
16.81697	-0.001222345	-0.0006111723	0	0	0	0
16.83353	-0.001222345	-0.0006111723	0	0	0	0
16.8501	-0.001222345	-0.0006111723	0	0	0	0
16.86667	-0.001222345	-0.0006111723	0	0	0	0
16.88323	-0.001222345	-0.0006111723	0	0	0	0
16.8998	-0.001222345	-0.0006111723	0	0	0	0
16.91636	-0.001222345	-0.0006111723	0	0	0	0
16.9331	-0.001222345	-0.0006111723	0	0	0	0
16.9495	-0.001222345	-0.0006111723	0	0	0	0
16.96611	-0.001222345	-0.0006111723	0	0	0	0
16.98263	-0.001222345	-0.0006111723	0	0	0	0
16.9992	-0.001222345	-0.0006111723	0	0	0	0
17.0194	-0.001222345	-0.0006111723	0	0	0	0
17.03597	-0.002444689	0.003055861	-0.07376388	0.2212916	-2.00568	6.017039
17.05254	-0.002444689	0.003055861	0	0	2.22607	-6.67821
17.06911	-0.002444689	0.003055861	0	0	0	0
17.08596	-0.002444689	0.003055861	0	0	0	0
17.10224	-0.002444689	0.003055861	0	0	0	0
17.11917	-0.002444689	0.003055861	0	0	0	0
17.13537	-0.002444689	0.003055861	0	0	0	0
17.15204	-0.002444689	0.003055861	0	0	0	0
17.16851	-0.002444689	0.003055861	0	0	0	0
17.18507	-0.002444689	0.003055861	0	0	0	0
17.20191	0.001222344	0.009167584	0.2177823	0.3629704	6.519764	10.86627
17.21821	0.01344579	0.02383572	0.7501587	0.9001904	16.06808	16.21426
17.23477	0.03178096	0.04706026	1.106713	1.401836	10.85014	15.26537
17.25134	0.0550055	0.08250826	1.401998	2.139892	8.912225	22.27583
17.26791	0.0794524	0.1265127	1.475617	2.656111	2.221976	15.58043
17.28448	0.1222345	0.1851852	2.582033	3.541073	33.38977	26.70668
17.30104	0.1356802	0.1974086	0.8117762	0.737978	-53.42954	-84.60246
17.31842	0.1564601	0.2194108	1.195636	1.265967	11.30888	15.55509
17.33417	0.1589048	0.2206332	0.1551718	0.07758588	-31.40126	-35.86542
17.35074	0.1589048	0.2218555	0	0.07378072	-4.80082	-0.1177269
17.36784	0.1589048	0.2218555	0	0	0	-2.191262
17.38387	0.1576824	0.2194108	-0.0762574	-0.1525139	-2.301585	-4.603143
17.40101	0.1564601	0.2120768	-0.07134135	-0.4280481	0.1482387	-8.308465
17.41701	0.1515707	0.202298	-0.3055722	-0.6111444	-7.069101	-5.525858
17.43357	0.1393473	0.1900746	-0.7378082	-0.7378082	-13.27181	-3.889211
17.45014	0.1197898	0.1717394	-1.180494	-1.106713	-13.36028	-11.13356
17.46671	0.09778756	0.1485149	-1.328055	-1.401837	-4.453413	-8.906855
17.4842	0.0770077	0.1252903	-1.187814	-1.327557	4.117293	2.180756
17.50024	0.0660066	0.1106222	-0.6859011	-0.9145349	14.9677	12.31684
17.51641	0.06233957	0.1045105	-0.2268263	-0.378044	14.25451	16.65832
17.53298	0.06111722	0.1008434	-0.07377245	-0.2213176	4.675425	4.787611
17.54955	0.05622784	0.09228701	-0.2950898	-0.5164061	-6.678602	-8.904762
17.56611	0.04522675	0.07761888	-0.6641803	-0.885574	-11.13982	-11.14215
17.58298	0.03178095	0.06050605	-0.7971805	-1.014594	-3.978455	-3.859385
17.59924	0.02322455	0.04706026	-0.5260345	-0.826626	8.183672	5.6732
17.61581	0.01833517	0.04094854	-0.2951235	-0.3689043	7.032875	13.94086
17.63238	0.01589048	0.03850385	-0.1475618	-0.1475619	4.45342	6.680127
17.6534	0.01589048	0.03850385	0	0	3.925955	3.925958
17.67007	0.01589048	0.03728151	0	-0.07331648	0	-1.945193
17.68653	0.01589048	0.03728151	0	0	0	2.212569
17.70334	0.01589048	0.03728151	0	0	0	0
17.71967	0.01589048	0.03728151	0	0	0	0
17.73667	0.01466813	0.03605916	-0.0719017	-0.07190165	-2.157331	-2.157329
17.7528	0.01466813	0.03605916	0	0	2.170123	2.170121
17.76936	0.01466813	0.03605916	0	0	0	0
17.78593	0.01466813	0.03483682	-5.621474E-08	-0.07378095	-1.696662E-06	-2.226841
17.80261	0.01344579	0.03239213	-0.07329138	-0.1465829	-2.204576	-2.189856
17.81907	0.01222344	0.03116978	-0.07427687	-0.07427692	-0.0297421	2.182198
17.83563	0.0110011	0.02750275	-0.07378083	-0.2213425	0.01502058	-4.453317
17.8522	0.009778756	0.02383572	-0.07378089	-0.2213426	-1.798872E-06	-3.148026E-06
17.86896	0.008556412	0.02139103	-0.07292448	-0.145849	0.02569577	2.265104
17.88549	0.008556412	0.02139103	0	0	2.190525	4.381051
17.9019	0.008556412	0.02139103	0	0	0	0
17.91847	0.008556411	0.02016868	-5.621474E-08	-0.07378095	-1.704709E-06	-2.237403
17.93503	0.008556411	0.02016868	0	0	1.696564E-06	2.226713
17.9516	0.008556411	0.02016868	0	0	0	0
17.96817	0.008556411	0.02016868	0	0	0	0
17.98474	0.008556411	0.02016868	0	0	0	0
18.0013	0.008556411	0.02016868	0	0	0	0
18.01787	0.008556411	0.02016868	0	0	0	0
18.03444	0.008556411	0.02016868	0	0	0	0
18.051	0.008556411	0.02016868	0	0	0	0
18.06757	0.008556411	0.02016868	0	0	0	0
18.08414	0.008556411	0.02016868	0	0	0	0
18.10076	0.008556411	0.02016868	0	0	0	0
18.11798	0.007334067	0.02016868	-0.07097797	1.081584E-07	-2.097328	3.195974E-06
18.13384	0.009778756	0.02383572	0.1541086	0.2311628	6.803308	6.986961
18.1504	0.01589048	0.02994744	0.3690317	0.3690318	6.62833	4.251944
18.16697	0.01955751	0.03361447	0.221317	0.221317	-4.45855	-4.458552
18.18354	0.0220022	0.03605916	0.1475449	0.1475449	-2.226191	-2.226191
18.20011	0.02322455	0.03728151	0.07378083	0.07378072	-2.226076	-2.226079
18.21668	0.02689158	0.04217089	0.221317	0.2950896	4.452395	6.678731
18.23325	0.03789268	0.05439433	0.6640276	0.7378086	13.36026	13.36052
18.24981	0.04033737	0.05806137	0.1475959	0.2213936	-15.58774	-15.58723
18.26678	0.04155971	0.0592837	0.07203905	0.07203883	-2.25333	-4.454205
18.28295	0.04155971	0.0592837	0	0	-2.173892	-2.173886
18.30063	0.04155971	0.0592837	0	0	0	0
18.3172	0.04155971	0.0592837	0	0	0	0
18.33382	0.04155971	0.0592837	0	0	0	0
18.35099	0.04155971	0.0592837	0	0	0	0
18.36691	0.04155971	0.0592837	0	0	0	0
18.38382	0.04155971	0.0592837	0	0	0	0
18.40022	0.04155971	0.0592837	0	0	0	0
18.41661	0.04155971	0.0592837	0	0	0	0
18.43345	0.04155971	0.0592837	0	0	0	0
18.45016	0.04155971	0.0592837	0	0	0	0
18.46631	0.04155971	0.0592837	0	0	0	0
18.48303	0.04155971	0.0592837	0	0	0	0
18.49967	0.04155971	0.0592837	0	0	0	0
18.51601	0.04155971	0.0592837	0	0	0	0
18.53257	0.04155971	0.0592837	0	0	0	0
18.54941	0.04155971	0.0592837	0	0	0	0
18.56571	0.04155971	0.0592837	0	0	0	0
18.58227	0.04155971	0.0592837	0	0	0	0
18.59909	0.04155971	0.0592837	0	0	0	0
18.6154	0.04155971	0.0592837	0	0	0	0
18.63197	0.04155971	0.0592837	0	0	0	0
18.64854	0.04033737	0.05928371	-0.07378922	4.497697E-07	-2.227091	1.357486E-05
18.66595	0.03789268	0.0592837	-0.1404318	-4.279884E-07	-1.961593	-2.583641E-05
18.68167	0.03789268	0.0592837	0	0	4.238483	1.291746E-05
18.69824	0.03667033	0.0592837	-0.07378118	0	-2.284854	0
18.7148	0.03667033	0.0592837	0	0	2.22672	0
18.73173	0.03544799	0.05928371	-0.07221743	2.200952E-07	-2.156192	6.571371E-06
18.74794	0.03544799	0.05928371	0	0	2.179526	-6.642487E-06
18.76451	0.03544799	0.05928371	0	0	0	0
18.78107	0.03544799	0.05928371	0	0	0	0
18.79764	0.03544799	0.05928371	0	0	0	0
18.81444	0.03544799	0.05928371	0	0	0	0
18.83077	0.03422565	0.05928371	-0.07482328	0	-2.258171	0
18.84757	0.03422565	0.05683902	0	-0.1455837	2.258561	-4.394484
18.86391	0.0330033	0.05439433	-0.0748058	-0.1496116	-2.257774	-0.1215698
18.88047	0.03178095	0.05317198	-0.07378095	-0.07378095	0.03114359	2.304359
18.89704	0.03178095	0.05317198	0	0	2.226713	2.226713
18.91401	0.03055861	0.05194964	-0.07205525	-0.07205547	-2.148902	-2.148909
18.93018	0.03055861	0.05072729	0	-0.07559109	2.174632	-0.1067055
18.94674	0.02933627	0.0482826	-0.07378083	-0.1475617	-2.253694	-2.198398
18.96331	0.02811392	0.04706026	-0.07379794	-0.07379772	-0.0005163357	2.226457
18.97988	0.02566924	0.04339323	-0.1475446	-0.2213169	-2.225806	-4.452394
18.99645	0.02566924	0.04217089	0	-0.07376397	4.452136	4.452388
19.01355	0.02566924	0.04217089	0	0	0	2.19064
19.02958	0.02566924	0.04094854	0	-0.07626577	0	-2.302103
19.04642	0.02566924	0.04094854	0	0	0	2.320406
19.06271	0.02566923	0.03972619	-1.142847E-07	-0.0749984	-3.448721E-06	-2.263196
19.07935	0.02444689	0.0397262	-0.07346788	2.239052E-07	-2.230616	2.277095
19.09585	0.02444689	0.03728151	0	-0.1481929	2.217265	-4.472478
19.11251	0.02444689	0.03605916	1.11786E-07	-0.07335867	3.371185E-06	2.256814
19.12901	0.02444689	0.03605916	0	0	-3.37041E-06	2.211805
19.14555	0.02444689	0.03605916	0	0	0	0
19.16217	0.02444689	0.03605916	0	0	0	0
19.17868	0.02444689	0.03605916	0	0	0	0
19.19525	0.02322454	0.03361448	-0.07377257	-0.1475447	-2.230312	-4.46061
19.212	0.0220022	0.03116978	-0.0729743	-0.1459488	0.02395806	0.04789556
19.22853	0.0220022	0.0287251	1.12728E-07	-0.1479533	2.193156	-0.06024291
19.24496	0.0220022	0.0287251	0	0	-3.420646E-06	4.489533
19.26152	0.0220022	0.0287251	0	0	0	0
19.27809	0.0220022	0.0287251	0	0	0	0
19.30789	0.0220022	0.02750275	-6.2504E-08	-0.04101775	-1.347953E-06	-0.8845837
19.32446	0.02077986	0.02750275	-0.07376385	-1.124036E-07	-1.590715	0.8845448
19.34102	0.02077986	0.02750275	0	0	2.226069	3.392152E-06
19.35759	0.02077986	0.02628041	1.124165E-07	-0.07377223	3.392738E-06	-2.22645
19.37416	0.02077986	0.02628041	0	0	-3.392543E-06	2.226322
19.39073	0.02077986	0.02628041	0	0	0	0
19.4076	0.02077986	0.02628041	0	0	0	0
19.42386	0.02077986	0.02628041	0	0	0	0
19.44046	0.02077986	0.02628041	0	0	0	0
19.45708	0.02077986	0.02628041	0	0	0	0
19.47357	0.02077986	0.02628041	0	0	0	0
19.49081	0.02077986	0.02628041	0	0	0	0
19.50669	0.02077986	0.02628041	0	0	0	0
19.5673	0.02077986	0.02628041	0	0	0	0
19.5841	0.02077986	0.02628041	0	0	0	0
19.60063	0.02077986	0.02628041	0	0	0	0
19.617	0.02077986	0.02628041	0	0	0	0
19.63357	0.02077986	0.02628041	0	0	0	0
19.65014	0.02077986	0.02628041	0	0	0	0
19.6667	0.02077986	0.02628041	0	0	0	0
19.68336	0.02077986	0.02628041	0	0	0	0
19.6999	0.02077986	0.02628041	0	0	0	0
19.71641	0.02077986	0.02628041	0	0	0	0
19.73353	0.02077986	0.02628041	0	0	0	0
19.74954	0.02077986	0.02628041	0	0	0	0
19.76611	0.02077986	0.02628041	0	0	0	0
19.7831	0.02077986	0.02628041	0	0	0	0
19.79924	0.02077986	0.02628041	0	0	0	0
19.81584	0.02077986	0.02628041	0	0	0	0
19.83241	0.02077986	0.02628041	0	0	0	0
19.84894	0.02077986	0.02628041	0	0	0	0
19.86551	0.02077986	0.02628041	0	0	0	0
19.88207	0.02077986	0.02628041	0	0	0	0
19.89876	0.02077986	0.02628041	0	0	0	0
19.9152	0.02077986	0.02628041	0	0	0	0
19.93177	0.02077986	0.02628041	0	0	0	0
19.94838	0.02077986	0.02628041	0	0	0	0
19.96491	0.02077986	0.02628041	0	0	0	0
19.98147	0.02077986	0.02628041	0	0	0	0
19.99804	0.02077986	0.02628041	0	0	0	0
20.01547	0.02077986	0.02628041	0	0	0	0
20.03152	0.02077986	0.02628041	0	0	0	0
20.04774	0.02077986	0.02628041	0	0	0	0
20.0643	0.02077986	0.02628041	0	0	0	0
20.08134	0.02077986	0.02628041	0	0	0	0
20.09744	0.02077986	0.02628041	0	0	0	0
20.114	0.02077986	0.02628041	0	0	0	0
20.13057	0.02077986	0.02628041	0	0	0	0
20.14714	0.02077986	0.02628041	0	0	0	0
20.1637	0.02077986	0.02628041	0	0	0	0
20.18035	0.02077986	0.02628041	0	0	0	0
20.19684	0.02077986	0.02628041	0	0	0	0
20.2134	0.02077986	0.02628041	0	0	0	0
20.23022	0.02077986	0.02628041	0	0	0	0
20.24654	0.02077986	0.02628041	0	0	0	0
20.2631	0.02077986	0.02628041	0	0	0	0
20.27967	0.02077986	0.02628041	0	0	0	0
20.29624	0.02077986	0.02628041	0	0	0	0
20.31293	0.02077986	0.02628041	0	0	0	0
20.32944	0.02077986	0.02628041	0	0	0	0
20.34593	0.02077986	0.02628041	0	0	0	0
20.36264	0.02077986	0.02628041	0	0	0	0
20.37988	0.02077986	0.02628041	0	0	0	0
20.39592	0.02077986	0.02628041	0	0	0	0
20.4122	0.02077986	0.02628041	0	0	0	0
20.42877	0.02077986	0.02628041	0	0	0	0
20.44533	0.02077986	0.02628041	0	0	0	0
20.4619	0.02077986	0.02628041	0	0	0	0
20.47857	0.02077986	0.02628041	0	0	0	0
20.49503	0.02077986	0.02628041	0	0	0	0
20.5116	0.02077986	0.02628041	0	0	0	0
20.52817	0.02077986	0.02628041	0	0	0	0
20.54473	0.02077986	0.02628041	0	0	0	0
20.5613	0.02077986	0.02628041	0	0	0	0
20.57798	0.02077986	0.02628041	0	0	0	0
20.59443	0.02077986	0.02628041	0	0	0	0
20.611	0.02077986	0.02628041	0	0	0	0
20.62757	0.02077986	0.02628041	0	0	0	0
20.64413	0.02077986	0.02628041	0	0	0	0
20.6607	0.02077986	0.02628041	0	0	0	0
20.67765	0.02077986	0.02628041	0	0	0	0
20.69383	0.02077986	0.02628041	0	0	0	0
20.7104	0.02077986	0.02628041	0	0	0	0
20.72697	0.02077986	0.02628041	0	0	0	0
20.74353	0.02077986	0.02628041	0	0	0	0
20.7601	0.02077986	0.02628041	0	0	0	0
20.77667	0.02077986	0.02628041	0	0	0	0
20.79324	0.02077986	0.02628041	0	0	0	0
20.8098	0.02077986	0.02628041	0	0	0	0
20.82647	0.02077986	0.02628041	0	0	0	0
20.84293	0.02077986	0.02628041	0	0	0	0
20.8595	0.02077986	0.02628041	0	0	0	0
20.87607	0.02077986	0.02628041	0	0	0	0
20.89264	0.02077986	0.02628041	0	0	0	0
20.9092	0.02077986	0.02628041	0	0	0	0
20.92577	0.02077986	0.02628041	0	0	0	0
20.94234	0.02077986	0.02628041	0	0	0	0
20.9589	0.01833517	0.02383572	-0.1475788	-0.1475787	-4.454193	-4.45419
20.97554	0.007334067	0.01161227	-0.6612112	-0.7346792	-15.4694	-17.68209
20.99204	0.004889378	0.01038993	-0.1481929	-0.07409641	15.48292	19.93643
21.0086	0.001222345	0.00550055	-0.2213426	-0.2951235	-2.212373	-6.684847
21.02517	-0.004889378	-0.0006111722	-0.3689043	-0.3689043	-4.453421	-2.22671
21.04174	-0.01711282	-0.01650165	-0.7378086	-0.9591511	-11.13355	-17.81368
21.05831	-0.0330033	-0.04217088	-0.9591511	-1.549398	-6.68013	-17.81369
21.07533	-0.08800881	-0.09962107	-3.231592	-3.375218	-67.65551	-54.35863
21.09156	-0.1271238	-0.1411808	-2.409817	-2.56043	24.71303	24.5029
21.10801	-0.180907	-0.1925193	-3.270076	-3.121437	-26.32486	-17.1674
21.12457	-0.2346901	-0.2463024	-3.246357	-3.246358	0.7184485	-3.783862
21.14114	-0.2713605	-0.2866398	-2.213171	-2.434487	31.17981	24.5009
21.15781	-0.2799169	-0.2964185	-0.5132759	-0.5866008	51.14104	55.59332
21.17432	-0.2799169	-0.2964185	0	0	15.46933	17.67922
21.19084	-0.2676934	-0.2903068	0.7399405	0.3699703	22.40238	11.20119
21.20741	-0.259137	-0.2854174	0.5165246	0.2951569	-6.752814	-2.261257
21.22404	-0.2505806	-0.2793057	0.5143942	0.3674231	-0.06416968	2.176739
21.24054	-0.2346901	-0.2658599	0.9631422	0.8149693	13.54402	13.50775
21.25711	-0.220022	-0.2487471	0.8853714	1.032931	-2.352	6.59176
21.27392	-0.2041315	-0.2243002	0.9452212	1.454187	1.793059	12.62054
21.29043	-0.1760176	-0.1839629	1.702841	2.443207	22.73674	29.68124
21.30681	-0.1625718	-0.1619606	0.820851	1.343211	-26.81609	-33.44437
21.32338	-0.1515707	-0.1485149	0.6640274	0.8115898	-4.759798	-16.13537
21.33994	-0.145459	-0.1424031	0.3689045	0.3689045	-8.906826	-13.36027
21.35658	-0.1430143	-0.1387361	0.1469364	0.2204033	-6.684772	-4.47225
21.3732	-0.141792	-0.1375138	0.07355963	0.07356054	-2.206515	-4.41571
21.38972	-0.141792	-0.1362914	9.017198E-07	0.07396808	-2.219496	0.01229673
21.40633	-0.1405696	-0.1350691	0.07361034	0.07361123	2.221793	-0.01077086
21.4235	-0.1369026	-0.131402	0.2135495	0.2135495	4.143002	4.142975
21.43935	-0.1295685	-0.1216233	0.4628267	0.6171019	7.549711	12.22215
21.456	-0.1112334	-0.09962108	1.100883	1.321059	19.63175	21.65941
21.47265	-0.1002322	-0.08739763	0.6608329	0.7342587	-13.21379	-17.62041
21.48904	-0.0904535	-0.07761888	0.5964955	0.5964955	-1.9472	-4.16946
21.50561	-0.08434177	-0.0727295	0.3689045	0.2951238	-6.904879	-9.143312
21.52217	-0.06600661	-0.05317198	1.10684	1.18063	22.27222	26.72616
21.53876	-0.05622784	-0.03972619	0.5894331	0.8104699	-15.60549	-11.16438
21.55531	-0.04889378	-0.03239213	0.4432464	0.4432464	-4.41167	-11.08219
21.57188	-0.04522675	-0.02994744	0.2213424	0.1475618	-6.701318	-8.929432
21.58845	-0.04522675	-0.0287251	2.24859E-07	0.07378083	-6.68012	-2.226714
21.60501	-0.0440044	-0.0287251	0.07379772	0	2.227469	-2.226966
21.62158	-0.0440044	-0.0287251	0	0	-2.22722	0
21.63815	-0.0440044	-0.0287251	0	0	0	0
21.65471	-0.0440044	-0.02750275	0	0.07378072	0	2.226835
21.67128	-0.0440044	-0.02750275	0	0	0	-2.226707
21.68785	-0.04278206	-0.02628041	0.07378095	0.07378083	2.226713	2.22671
21.70441	-0.04155971	-0.0262804	0.07378095	2.24859E-07	0	-2.226703
21.72098	-0.04155971	-0.0262804	0	0	-2.226841	-6.786648E-06
21.73755	-0.04155971	-0.0262804	0	0	0	0
21.75411	-0.04155971	-0.0262804	0	0	0	0
21.7707	-0.04033737	-0.0262804	0.07370435	0	2.22325	0
21.78725	-0.04033737	-0.02505806	2.250922E-07	0.07385737	-2.224395	2.22902
21.80382	-0.03911502	-0.02505806	0.07376374	0	2.227085	-2.229918
21.82092	-0.03667033	-0.02505806	0.1429216	0	2.053615	0
21.83702	-0.03667033	-0.02383572	0	0.07596733	-4.305451	2.288483
21.85372	-0.03422565	-0.02383572	0.1463653	-1.115179E-07	4.463302	-2.316572
21.87022	-0.03422565	-0.02383572	0	0	-4.408431	3.358851E-06
21.88682	-0.03422565	-0.02383572	0	0	0	0
21.90373	-0.03422565	-0.02383572	0	0	0	0
21.91986	-0.03422565	-0.02383572	0	0	0	0
21.93645	-0.03422565	-0.02383572	0	0	0	0
21.95296	-0.03422565	-0.02383572	0	0	0	0
21.96948	-0.03422565	-0.02383572	0	0	0	0
21.98641	-0.03422565	-0.02383572	0	0	0	0
22.00266	-0.03422565	-0.02383572	0	0	0	0
22.01918	-0.03422565	-0.02383572	0	0	0	0
22.03575	-0.03422565	-0.02383572	0	0	0	0
22.05232	-0.03422565	-0.02383572	0	0	0	0
22.06889	-0.03422565	-0.02383572	0	0	0	0
22.08545	-0.03422565	-0.02383572	0	0	0	0
22.10202	-0.03422565	-0.02383572	0	0	0	0
22.11858	-0.03422565	-0.02383572	0	0	0	0
22.13515	-0.03422565	-0.02383572	0	0	0	0
22.15172	-0.03422565	-0.02383572	0	0	0	0
22.16838	-0.03422565	-0.02383572	0	0	0	0
22.18493	-0.03422565	-0.02383572	0	0	0	0
22.20142	-0.03422565	-0.02383572	0	0	0	0
22.21799	-0.03422565	-0.02383572	0	0	0	0
22.23455	-0.03422565	-0.02383572	0	0	0	0
22.25495	-0.03422565	-0.02383572	0	0	0	0
22.27152	-0.03422565	-0.02383572	0	0	0	0
22.28809	-0.03422565	-0.02383572	0	0	0	0
22.30466	-0.03422565	-0.02383572	0	0	0	0
22.32122	-0.03422565	-0.02383572	0	0	0	0
22.33779	-0.03422565	-0.02383572	0	0	0	0
22.35436	-0.03422565	-0.02383572	0	0	0	0
22.37092	-0.03422565	-0.02383572	0	0	0	0
22.3876	-0.03422565	-0.02383572	0	0	0	0
22.40406	-0.03422565	-0.02383572	0	0	0	0
22.42062	-0.03422565	-0.02383572	0	0	0	0
22.43719	-0.03422565	-0.02383572	0	0	0	0
22.45376	-0.03422565	-0.02383572	0	0	0	0
22.47038	-0.03422565	-0.02383572	0	0	0	0
22.48704	-0.03422565	-0.02383572	0	0	0	0
22.50346	-0.03422565	-0.02383572	0	0	0	0
22.52003	-0.03422565	-0.02383572	0	0	0	0
22.53659	-0.03422565	-0.02383572	0	0	0	0
22.55316	-0.03422565	-0.02383572	0	0	0	0
22.56997	-0.03422565	-0.02383572	0	0	0	0
22.5863	-0.03422565	-0.02383572	0	0	0	0
22.60289	-0.03422565	-0.02383572	0	0	0	0
22.61943	-0.03422565	-0.02383572	0	0	0	0
22.636	-0.03422565	-0.02383572	0	0	0	0
22.65289	-0.03422565	-0.02383572	0	0	0	0
22.66913	-0.03422565	-0.02383572	0	0	0	0
22.68569	-0.03422565	-0.02383572	0	0	0	0
22.70226	-0.03422565	-0.02383572	0	0	0	0
22.71886	-0.03422565	-0.02383572	0	0	0	0
22.73549	-0.03422565	-0.02383572	0	0	0	0
22.75197	-0.03422565	-0.02383572	0	0	0	0
22.76864	-0.03422565	-0.02383572	0	0	0	0
22.78509	-0.0330033	-0.02261337	0.07428554	0.07428565	2.242717	2.24272
22.80166	-0.03178095	-0.02139103	0.07378095	0.07378072	-0.01528047	-0.01529062
22.81823	-0.03055861	-0.02016869	0.07378072	0.07378072	-6.745769E-06	0
22.83519	-0.02933627	-0.02016868	0.07205535	1.098001E-07	-0.05145562	-2.200358
22.85136	-0.02933627	-0.02016868	0	0	-2.174635	-3.313775E-06
22.86793	-0.02933627	-0.01894634	0	0.07378095	0	2.253698
22.8845	-0.02689158	-0.01894634	0.1475617	-1.124295E-07	4.45342	-2.226717
22.9018	-0.02689158	-0.017724	0	0.07063378	-4.356372	2.085281
22.91785	-0.02566923	-0.01650165	0.07615702	0.07615702	2.283178	0.1655859
22.93437	-0.02322455	-0.01405696	0.1479705	0.1479706	2.204776	2.204778
22.95076	-0.0220022	-0.01405696	0.07457935	-5.682314E-08	-2.229969	-4.496044
22.96733	-0.0220022	-0.01283462	0	0.07378083	-2.262924	2.238697
22.9839	-0.0220022	-0.01283462	0	0	0	-2.226838
23.00116	-0.0220022	-0.01283462	0	0	0	0
23.01703	-0.0220022	-0.01283462	0	0	0	0
23.03397	-0.0220022	-0.01283462	0	0	0	0
23.05016	-0.0220022	-0.01283462	0	0	0	0
23.06673	-0.0220022	-0.01283462	0	0	0	0
23.08329	-0.0220022	-0.01283462	0	0	0	0
23.09986	-0.0220022	-0.01283462	0	0	0	0
23.11643	-0.0220022	-0.01283462	0	0	0	0
23.13299	-0.0220022	-0.01283462	0	0	0	0
23.15018	-0.0220022	-0.01283462	0	0	0	0
23.16688	-0.0220022	-0.01283462	0	0	0	0
23.18269	-0.0220022	-0.01283462	0	0	0	0
23.19926	-0.0220022	-0.01283462	0	0	0	0
23.21583	-0.0220022	-0.01283462	0	0	0	0
23.23258	-0.0220022	-0.01283462	0	0	0	0
23.24906	-0.0220022	-0.01283462	0	0	0	0
23.26553	-0.0220022	-0.01283462	0	0	0	0
23.28209	-0.0220022	-0.01283462	0	0	0	0
23.29928	-0.0220022	-0.01283462	0	0	0	0
23.31523	-0.0220022	-0.01283462	0	0	0	0
23.33179	-0.0220022	-0.01283462	0	0	0	0
23.34837	-0.0220022	-0.01283462	0	0	0	0
23.36501	-0.0220022	-0.01283462	0	0	0	0
23.3815	-0.0220022	-0.01283462	0	0	0	0
23.39807	-0.0220022	-0.01283462	0	0	0	0
23.41466	-0.0220022	-0.01283462	0	0	0	0
23.43135	-0.0220022	-0.01283462	0	0	0	0
23.44792	-0.0220022	-0.01283462	0	0	0	0
23.46433	-0.0220022	-0.01283462	0	0	0	0
23.4809	-0.0220022	-0.01283462	0	0	0	0
23.49747	-0.0220022	-0.01283462	0	0	0	0
23.51445	-0.0220022	-0.01283462	0	0	0	0
23.53061	-0.0220022	-0.01283462	0	0	0	0
23.55377	-0.0220022	-0.01283462	0	0	0	0
23.57034	-0.0220022	-0.01283462	0	0	0	0
23.58691	-0.0220022	-0.01283462	0	0	0	0
23.60348	-0.0220022	-0.01283462	0	0	0	0
23.62004	-0.0220022	-0.01283462	0	0	0	0
23.63661	-0.0220022	-0.01283462	0	0	0	0
23.6532	-0.0220022	-0.01283462	0	0	0	0
23.66974	-0.0220022	-0.01283462	0	0	0	0
23.68631	-0.0220022	-0.01283462	0	0	0	0
23.70288	-0.0220022	-0.01283462	0	0	0	0
23.71944	-0.0220022	-0.01283462	0	0	0	0
23.73601	-0.0220022	-0.01283462	0	0	0	0
23.75269	-0.0220022	-0.01283462	0	0	0	0
23.76915	-0.0220022	-0.01283462	0	0	0	0
23.78571	-0.0220022	-0.01283462	0	0	0	0
23.80228	-0.0220022	-0.01283462	0	0	0	0
23.81884	-0.0220022	-0.01283462	0	0	0	0
23.83541	-0.0220022	-0.01283462	0	0	0	0
23.85198	-0.0220022	-0.01283462	0	0	0	0
23.86855	-0.0220022	-0.01283462	0	0	0	0
23.88511	-0.0220022	-0.01283462	0	0	0	0
23.90168	-0.0220022	-0.01283462	0	0	0	0
23.91825	-0.0220022	-0.01283462	0	0	0	0
23.93544	-0.0220022	-0.01283462	0	0	0	0
23.95138	-0.0220022	-0.01283462	0	0	0	0
23.96795	-0.0220022	-0.01283462	0	0	0	0
23.98451	-0.0220022	-0.01283462	0	0	0	0
24.00108	-0.0220022	-0.01283462	0	0	0	0
24.01769	-0.0220022	-0.01283462	0	0	0	0
24.03426	-0.0220022	-0.01283462	0	0	0	0
24.05091	-0.0220022	-0.01283462	0	0	0	0
24.06791	-0.0220022	-0.01283462	0	0	0	0
24.08392	-0.0220022	-0.01283462	0	0	0	0
24.10076	-0.0220022	-0.01283462	0	0	0	0
24.11715	-0.0220022	-0.01283462	0	0	0	0
24.13362	-0.0220022	-0.01283462	0	0	0	0
24.15062	-0.0220022	-0.01283462	0	0	0	0
24.16675	-0.0220022	-0.01283462	0	0	0	0
24.18353	-0.0220022	-0.01283462	0	0	0	0
24.19989	-0.0220022	-0.01283462	0	0	0	0
24.23166	-0.0220022	-0.01283462	0	0	0	0
24.24823	-0.0220022	-0.01283462	0	0	0	0
24.26545	-0.0220022	-0.01283462	0	0	0	0
24.28137	-0.0220022	-0.01283462	0	0	0	0
24.29793	-0.0220022	-0.01283462	0	0	0	0
24.3145	-0.0220022	-0.01283462	0	0	0	0
24.33107	-0.0220022	-0.01283462	0	0	0	0
24.34769	-0.0220022	-0.01283462	0	0	0	0
24.36419	-0.0220022	-0.01283462	0	0	0	0
24.38076	-0.0220022	-0.01283462	0	0	0	0
24.39733	-0.0220022	-0.01283462	0	0	0	0
24.4139	-0.0220022	-0.01283462	0	0	0	0
24.43046	-0.0220022	-0.01283462	0	0	0	0
24.44739	-0.0220022	-0.01283462	0	0	0	0
24.46359	-0.0220022	-0.01283462	0	0	0	0
24.48016	-0.0220022	-0.01283462	0	0	0	0
24.49673	-0.0220022	-0.01283462	0	0	0	0
24.51329	-0.0220022	-0.01283462	0	0	0	0
24.52986	-0.0220022	-0.01283462	0	0	0	0
24.54643	-0.0220022	-0.01283462	0	0	0	0
24.56363	-0.0220022	-0.01283462	0	0	0	0
24.57956	-0.0220022	-0.01283462	0	0	0	0
24.59649	-0.0220022	-0.01283462	0	0	0	0
24.6127	-0.0220022	-0.01283462	0	0	0	0
24.62926	-0.0220022	-0.01283462	0	0	0	0
24.64607	-0.0220022	-0.01283462	0	0	0	0
24.6624	-0.0220022	-0.01283462	0	0	0	0
24.67896	-0.0220022	-0.01283462	0	0	0	0
24.69553	-0.0220022	-0.01283462	0	0	0	0
24.71211	-0.0220022	-0.01283462	0	0	0	0
24.72904	-0.0220022	-0.01283462	0	0	0	0
24.74523	-0.0220022	-0.01283462	0	0	0	0
24.76232	-0.0220022	-0.01283462	0	0	0	0
24.77836	-0.0220022	-0.01283462	0	0	0	0
24.79493	-0.01833517	-0.004278206	0.2213426	0.5164661	6.787185	15.83676
24.81232	-0.01222345	0.01650165	0.3513489	1.194587	3.827965	19.96689
24.82806	-0.008556412	0.05439433	0.233012	2.40779	-3.571621	36.61667
24.8447	-0.004889378	0.09962108	0.2203785	2.718001	-0.3901979	9.581141
24.86137	-0.004889378	0.1497372	0	3.006325	-6.615998	8.655778
24.88511	-0.006111722	0.2108544	-0.05148302	2.574151	-1.273925	-10.69395
24.90168	-0.008556412	0.3061973	-0.1475278	5.753583	-2.382433	78.86726
24.91825	-0.008556412	0.3208655	0	0.8853705	4.451884	-146.906
24.93482	-0.009778757	0.3453123	-0.07378089	1.475616	-2.226712	17.81365
24.95138	-0.009778757	0.3550911	0	0.5903156	2.22684	-26.71997
25.01746	-0.009778756	0.3563134	1.409466E-08	0.01849851	1.705516E-07	-6.91924
25.03429	-0.009778756	0.3538687	0	-0.1452702	-1.700101E-07	-1.975382
25.0506	-0.009778756	0.347757	0	-0.3746839	0	-6.922525
25.06717	-0.008556412	0.3257548	0.07378083	-1.328055	2.24402	-28.99646
25.08375	-0.004889377	0.2927515	0.2210881	-1.989794	4.443184	-19.95984
25.1003	0.008556412	0.2499694	0.8125249	-2.585306	17.8496	-17.97259
25.11687	0.02077986	0.2181885	0.7378935	-1.918522	-2.253805	20.13633
25.13343	0.03789268	0.1937416	1.032932	-1.475618	8.904797	13.36765
25.15	0.0550055	0.1815182	1.032932	-0.7378082	-7.195487E-06	22.26715
25.16656	0.0660066	0.1754064	0.6641806	-0.3689895	-11.13022	11.13225
25.18313	0.07456302	0.1717394	0.516407	-0.2213167	-4.460073	4.457031
25.19971	0.07578536	0.1717394	0.07375525	8.991253E-07	-13.35618	6.677841
25.21627	0.0794524	0.1692947	0.2214191	-0.1476133	4.456504	-4.455006
25.23284	0.08067473	0.1680724	0.07378028	-0.07378162	-4.456518	2.22863
25.24957	0.08067473	0.1680724	0	0	-2.21547	2.215511
25.26602	0.08067473	0.1680724	0	0	0	0
25.28301	0.08067473	0.1680724	0	0	0	0
25.29959	0.07456301	0.1570713	-0.3684798	-0.6632638	-10.97481	-19.75466
25.31567	0.05622785	0.1252903	-1.140862	-1.977494	-23.65091	-40.24269
25.33223	0.01344579	0.05561667	-2.58233	-4.205509	-44.16457	-68.2633
25.3488	-0.01222345	0.01650165	-1.549398	-2.360987	31.17394	55.66778
25.36537	-0.07211833	-0.05806136	-3.615262	-4.500632	-62.3479	-64.57461
25.38194	-0.1185674	-0.1167339	-2.803673	-3.541481	24.49383	28.94724
25.3985	-0.1613495	-0.16685	-2.58233	-3.025016	6.680125	15.58694
25.41507	-0.1821293	-0.1925193	-1.254274	-1.549398	40.08081	44.53424
25.43171	-0.1967975	-0.2108544	-0.881514	-1.101891	11.22537	13.4763
25.4482	-0.2090209	-0.2230779	-0.7411358	-0.7411376	4.236866	10.88819
25.46497	-0.223689	-0.234079	-0.8745966	-0.655947	-4.012149	2.561033
25.48134	-0.2395795	-0.2463024	-0.971115	-0.7470112	-2.912931	-2.748323
25.49791	-0.2603594	-0.2621929	-1.25413	-0.9590408	-8.593841	-6.438351
25.51447	-0.2628041	-0.2646376	-0.1475632	-0.1475614	33.39432	24.48909
25.53167	-0.2664711	-0.2683046	-0.2131934	-0.2131934	-1.943578	-1.943631
25.54761	-0.2664711	-0.2683046	0	0	6.43456	6.43456
25.56417	-0.2664711	-0.2683046	0	0	0	0
25.58074	-0.2640264	-0.2670823	0.1475632	0.07378072	4.453724	2.226835
25.60195	-0.2469136	-0.2438577	0.8066937	1.094799	17.44619	27.02481
25.61852	-0.1833517	-0.2035204	3.835721	2.434208	80.1657	35.44857
25.6353	-0.1833517	-0.2035204	0	0	-115.0273	-72.99812
25.65166	-0.1112333	-0.1912969	4.408906	0.7472726	133.0687	22.55403
25.66822	-0.05989488	-0.2084097	3.098796	-1.032933	-39.79116	-54.06908
25.68479	-0.002444689	-0.2389684	3.4681	-1.844734	11.14626	-24.50162
25.70135	0.05378316	-0.2756387	3.393919	-2.213424	-2.238897	-11.12774
25.71794	0.1002322	-0.3061973	2.800448	-1.842401	-17.90069	11.19108
25.73494	0.1295685	-0.3245325	1.725449	-1.078407	-32.00506	22.74574
25.75105	0.145459	-0.3343112	0.9864063	-0.6070181	-22.31978	14.23638
25.76762	0.1527931	-0.340423	0.4426343	-0.368863	-16.64	7.287801
25.78419	0.1576824	-0.3428676	0.2951909	-0.1475936	-4.450107	6.678306
25.80075	0.1613495	-0.34409	0.2213167	-0.07377223	-2.229656	2.228063
25.81732	0.1613495	-0.34409	0	0	-6.679351	2.22645
25.83389	0.1613495	-0.34409	0	0	0	0
25.85055	0.1625718	-0.34409	0.07335934	0	2.207635	0
25.86702	0.1625718	-0.34409	0	0	-2.213989	0
25.88359	0.1625718	-0.34409	0	0	0	0
25.90016	0.1625718	-0.34409	0	0	0	0
25.91672	0.1625718	-0.34409	0	0	0	0
25.93329	0.1625718	-0.34409	0	0	0	0
25.94985	0.1625718	-0.34409	0	0	0	0
25.96642	0.1625718	-0.34409	0	0	0	0
25.98299	0.1589048	-0.3367559	-0.2213677	0.4427335	-6.681274	13.36249
25.99955	0.1405696	-0.3049749	-1.106714	1.918304	-26.72133	44.53537
26.01666	0.1051216	-0.2401907	-2.072594	3.787845	-28.68633	55.52473
26.03361	0.06233957	-0.1778511	-2.523357	3.676892	-13.2353	-3.257819
26.04925	0.03544799	-0.1375137	-1.719172	2.578758	24.67083	-33.6886
26.06582	0.01711282	-0.1130669	-1.106713	1.475616	19.01493	-34.24908
26.08239	0.007334067	-0.09717638	-0.5902469	0.9591517	15.58697	-15.58693
26.09896	0.002444689	-0.08617529	-0.2951234	0.6640274	8.906845	-8.906869
26.11552	0.001222344	-0.08006356	-0.07378086	0.3689045	6.680131	-8.906826
26.13209	0	-0.07761887	-0.07378086	0.1475614	0	-6.680148
26.14866	0	-0.07517418	0	0.1475619	2.226711	1.349154E-05
26.16522	0	-0.07517418	0	0	0	-4.453683
26.18179	0	-0.07517418	0	0	0	0
26.19843	0	-0.07517418	0	0	0	0
26.21509	0	-0.07517418	0	0	0	0
26.23187	0	-0.07517418	0	0	0	0
26.24844	0	-0.07150716	0	0.2212912	0	6.636559
26.26524	0.002444689	-0.07028481	0.1455178	0.07275879	4.360611	-4.450947
26.28157	0.008556412	-0.0617284	0.3741596	0.5238236	6.900422	13.61316
26.29814	0.01466813	-0.05317198	0.3689043	0.5164662	-0.1597273	-0.2236177
26.3151	0.02077986	-0.04706026	0.360277	0.3602769	-0.2572926	-4.65803
26.33127	0.02444689	-0.04339323	0.2267729	0.2267731	-4.029159	-4.029154
26.34785	0.02566924	-0.04094854	0.07373002	0.1474598	-4.673184	-2.421839
26.36467	0.02811392	-0.03850385	0.1454022	0.1454022	2.146392	-0.0616191
26.38098	0.02933627	-0.03850385	0.07494555	0	-2.127122	-4.389764
26.39754	0.02933627	-0.03728151	2.249367E-07	0.07380622	-2.279966	2.245312
26.41453	0.02933627	-0.03728151	0	0	-6.702944E-06	-2.19937
26.43068	0.02933627	-0.03728151	0	0	0	0
26.44724	0.02933627	-0.03728151	0	0	0	0
26.46381	0.02933627	-0.03728151	0	0	0	0
26.48038	0.02933627	-0.03728151	0	0	0	0
26.49694	0.02933627	-0.03728151	0	0	0	0
26.51351	0.02933627	-0.03728151	0	0	0	0
26.53007	0.02933627	-0.03728151	0	0	0	0
26.54664	0.02933627	-0.03728151	0	0	0	0
26.56321	0.02933627	-0.03728151	0	0	0	0
26.57977	0.02933627	-0.03728151	0	0	0	0
26.59634	0.02933627	-0.03728151	0	0	0	0
26.61291	0.02933627	-0.03728151	0	0	0	0
26.62947	0.02933627	-0.03728151	0	0	0	0
26.64604	0.02933627	-0.03728151	0	0	0	0
26.6626	0.02933627	-0.03728151	0	0	0	0
26.67939	0.02933627	-0.03728151	0	0	0	0
26.69587	0.02933627	-0.03728151	0	0	0	0
26.7123	0.02933627	-0.03728151	0	0	0	0
26.72887	0.02933627	-0.03728151	0	0	0	0
26.74544	0.02933627	-0.03728151	0	0	0	0
26.762	0.02933627	-0.03728151	0	0	0	0
26.77867	0.02933627	-0.03728151	0	0	0	0
26.79537	0.02933627	-0.03728151	0	0	0	0
26.8117	0.02933627	-0.03728151	0	0	0	0
26.82827	0.02933627	-0.03728151	0	0	0	0
26.84484	0.02933627	-0.03728151	0	0	0	0
26.8614	0.02933627	-0.03728151	0	0	0	0
26.87843	0.02933627	-0.03728151	0	0	0	0
26.89453	0.02933627	-0.03728151	0	0	0	0
26.91112	0.02933627	-0.03728151	0	0	0	0
26.92767	0.02933627	-0.03728151	0	0	0	0
26.94424	0.02933627	-0.03728151	0	0	0	0
26.9608	0.02933627	-0.03728151	0	0	0	0
26.97737	0.02933627	-0.03728151	0	0	0	0
26.99414	0.02933627	-0.03728151	0	0	0	0
27.0105	0.02933627	-0.03728151	0	0	0	0
27.02707	0.02933627	-0.03728151	0	0	0	0
27.04364	0.02933627	-0.03728151	0	0	0	0
27.0602	0.02933627	-0.03728151	0	0	0	0
27.07677	0.02933627	-0.03728151	0	0	0	0
27.09334	0.02933627	-0.03728151	0	0	0	0
27.10991	0.02933627	-0.03728151	0	0	0	0
27.12648	0.02933627	-0.03728151	0	0	0	0
27.14304	0.02933627	-0.03728151	0	0	0	0
27.15961	0.02933627	-0.03728151	0	0	0	0
27.17643	0.02933627	-0.03728151	0	0	0	0
27.19274	0.02933627	-0.03728151	0	0	0	0
27.20931	0.02933627	-0.03728151	0	0	0	0
27.22587	0.02933627	-0.03728151	0	0	0	0
27.24244	0.02933627	-0.03728151	0	0	0	0
27.25901	0.02933627	-0.03728151	0	0	0	0
27.27563	0.02933627	-0.03728151	0	0	0	0
27.29214	0.02933627	-0.03728151	0	0	0	0
27.30871	0.02933627	-0.03728151	0	0	0	0
27.32527	0.02933627	-0.03728151	0	0	0	0
27.34184	0.02933627	-0.03728151	0	0	0	0
27.35841	0.02933627	-0.03728151	0	0	0	0
27.37497	0.02933627	-0.03728151	0	0	0	0
27.39223	0.02933627	-0.03728151	0	0	0	0
27.40811	0.02933627	-0.03728151	0	0	0	0
27.42467	0.02933627	-0.03483682	-2.248849E-07	0.1475789	-6.931885E-06	4.548994
27.44124	0.02811392	-0.03239213	-0.07377223	0.1475447	-2.226444	-0.001032552
27.45784	0.02689158	-0.02994744	-0.07366222	0.1473243	0.003317178	-0.006644691
27.47438	0.02566923	-0.02750275	-0.07390847	0.1478169	-0.007432241	0.01486808
27.49107	0.02566923	-0.02628041	0	0.07322445	2.224033	-2.244616
27.50751	0.02566923	-0.02628041	0	0	0	-2.209918
27.52408	0.02566923	-0.02628041	0	0	0	0
27.54065	0.02444689	-0.02505806	-0.07378095	0.07378095	-2.226713	2.226713
27.56274	0.02444689	-0.02505806	0	0	1.908455	-1.908455
27.57953	0.02444689	-0.02505806	0	0	0	0
27.59589	0.02444689	-0.02505806	0	0	0	0
27.61263	0.02444689	-0.02505806	0	0	0	0
27.62901	0.02444689	-0.02505806	0	0	0	0
27.64557	0.02444689	-0.02505806	0	0	0	0
27.66216	0.02444689	-0.02505806	0	0	0	0
27.67871	0.02444689	-0.02505806	0	0	0	0
27.69545	0.02444689	-0.02505806	0	0	0	0
27.71184	0.02444689	-0.02505806	0	0	0	0
27.7284	0.02444689	-0.02505806	0	0	0	0
27.74978	0.02444689	-0.02505806	0	0	0	0
27.76635	0.02444689	-0.02505806	0	0	0	0
27.78291	0.02444689	-0.02505806	0	0	0	0
27.79995	0.02444689	-0.02505806	0	0	0	0
27.81605	0.02444689	-0.02505806	0	0	0	0
27.83339	0.02444689	-0.02505806	0	0	0	0
27.84918	0.02444689	-0.02505806	0	0	0	0
27.86588	0.02444689	-0.02505806	0	0	0	0
27.88243	0.02444689	-0.02505806	0	0	0	0
27.89888	0.02444689	-0.02505806	0	0	0	0
27.91549	0.02444689	-0.02505806	0	0	0	0
27.93201	0.02444689	-0.02505806	0	0	0	0
27.94858	0.02444689	-0.02505806	0	0	0	0
27.96515	0.02444689	-0.02505806	0	0	0	0
27.98171	0.02444689	-0.02505806	0	0	0	0
27.99873	0.02444689	-0.02505806	0	0	0	0
28.01485	0.02444689	-0.02505806	0	0	0	0
28.03239	0.02444689	-0.02505806	0	0	0	0
28.04798	0.02444689	-0.02505806	0	0	0	0
28.06455	0.02444689	-0.02505806	0	0	0	0
28.08149	0.02444689	-0.02505806	0	0	0	0
28.09768	0.02444689	-0.02505806	0	0	0	0
28.11514	0.02444689	-0.02505806	0	0	0	0
28.13082	0.02444689	-0.02505806	0	0	0	0
28.14738	0.02444689	-0.02505806	0	0	0	0
28.16395	0.02444689	-0.02505806	0	0	0	0
28.18052	0.02444689	-0.02505806	0	0	0	0
28.20295	0.02444689	-0.02505806	0	0	0	0
28.21952	0.02444689	-0.02505806	0	0	0	0
28.23609	0.02444689	-0.02505806	0	0	0	0
28.25266	0.02444689	-0.02505806	0	0	0	0
28.26923	0.02444689	-0.02505806	0	0	0	0
28.28579	0.02444689	-0.02505806	0	0	0	0
28.30236	0.02444689	-0.02505806	0	0	0	0
28.31924	0.02444689	-0.02505806	0	0	0	0
28.33628	0.02444689	-0.02505806	0	0	0	0
28.35206	0.02444689	-0.02505806	0	0	0	0
28.36862	0.02444689	-0.02505806	0	0	0	0
28.38524	0.02444689	-0.02505806	0	0	0	0
28.40244	0.02444689	-0.02505806	0	0	0	0
28.41838	0.02444689	-0.02505806	0	0	0	0
28.43489	0.02444689	-0.02505806	0	0	0	0
28.45146	0.02444689	-0.02505806	0	0	0	0
28.46805	0.02444689	-0.02505806	0	0	0	0
28.48459	0.02444689	-0.02505806	0	0	0	0
28.50126	0.02444689	-0.02505806	0	0	0	0
28.51772	0.02444689	-0.02505806	0	0	0	0
28.53429	0.02444689	-0.02505806	0	0	0	0
28.55096	0.02444689	-0.02505806	0	0	0	0
28.56748	0.02444689	-0.02505806	0	0	0	0
28.5841	0.02444689	-0.02505806	0	0	0	0
28.60064	0.02444689	-0.02505806	0	0	0	0
28.6172	0.02444689	-0.02505806	0	0	0	0
28.63405	0.02444689	-0.02505806	0	0	0	0
28.65025	0.02444689	-0.02505806	0	0	0	0
28.66758	0.02444689	-0.02505806	0	0	0	0
28.68358	0.02444689	-0.02505806	0	0	0	0
28.70003	0.02444689	-0.02505806	0	0	0	0
28.71655	0.02444689	-0.02505806	0	0	0	0
28.73312	0.02444689	-0.02505806	0	0	0	0
28.75039	0.02444689	-0.02505806	0	0	0	0
28.76622	0.02444689	-0.02505806	0	0	0	0
28.78345	0.02444689	-0.02505806	0	0	0	0
28.79935	0.02444689	-0.02505806	0	0	0	0
28.81592	0.02444689	-0.02505806	0	0	0	0
28.83261	0.02444689	-0.02505806	0	0	0	0
28.84905	0.02444689	-0.02505806	0	0	0	0
28.86562	0.02444689	-0.02505806	0	0	0	0
28.88234	0.02444689	-0.02505806	0	0	0	0
28.89875	0.02444689	-0.02505806	0	0	0	0
28.91532	0.02444689	-0.02505806	0	0	0	0
28.93189	0.02444689	-0.02505806	0	0	0	0
28.94845	0.02444689	-0.02505806	0	0	0	0
28.96514	0.02444689	-0.02505806	0	0	0	0
28.98159	0.02444689	-0.02505806	0	0	0	0
28.99834	0.02444689	-0.02505806	0	0	0	0
29.01503	0.02444689	-0.02505806	0	0	0	0
29.03146	0.02444689	-0.02505806	0	0	0	0
29.04821	0.02444689	-0.02505806	0	0	0	0
29.06442	0.02444689	-0.02505806	0	0	0	0
29.08099	0.02444689	-0.02505806	0	0	0	0
29.09755	0.02444689	-0.02505806	0	0	0	0
29.11414	0.02444689	-0.02505806	0	0	0	0
29.13096	0.02444689	-0.02505806	0	0	0	0
29.14725	0.02444689	-0.02505806	0	0	0	0
29.16382	0.02444689	-0.02505806	0	0	0	0
29.18039	0.02444689	-0.02505806	0	0	0	0
29.19695	0.02444689	-0.02505806	0	0	0	0
29.21363	0.02444689	-0.02505806	0	0	0	0
29.23012	0.02444689	-0.02505806	0	0	0	0
29.24686	0.02444689	-0.02505806	0	0	0	0
29.26322	0.02444689	-0.02505806	0	0	0	0
29.27979	0.02444689	-0.02505806	0	0	0	0
29.29673	0.02444689	-0.01894634	1.100104E-07	0.3609669	3.282893E-06	10.77185
29.31292	0.02322455	0.01161227	-0.07548414	1.887104	-2.278775	46.07217
29.32969	0.02322455	0.06417309	0	3.13504	2.290245	37.86331
29.34605	0.02077986	0.1534042	-0.1493499	5.451272	-4.507389	69.90403
29.36262	0.01711282	0.2609705	-0.2213681	6.493462	-2.186731	31.64461
29.37919	0.01222344	0.3489794	-0.2951235	5.312223	-2.226069	-35.65192
29.39575	0.0110011	0.4125413	-0.07378083	3.836605	6.680134	-44.53424
29.41232	0.009778756	0.4565457	-0.07378089	2.656111	-1.798872E-06	-35.62736
29.42888	0.009778756	0.4883266	0	1.918744	2.226968	-22.25635
29.44545	0.009742364	0.499905	-0.002196591	0.6988743	-0.06630088	-36.81998
29.46235	0.009742364	0.499905	0	0	0.06562836	-20.88052
29.47951	0.009742364	0.499905	0	0	0	0
29.49688	0.008556412	0.4993277	-0.06829754	-0.03324775	-1.978428	-0.9631137
29.51265	0.008556411	0.4944384	-5.904961E-08	-0.3100058	2.061103	-8.352093
29.52922	0.008556412	0.493216	5.619533E-08	-0.07375525	3.563011E-06	7.304122
29.54578	0.008556412	0.4919937	0	-0.07380622	-1.695979E-06	-0.00153826
29.56235	0.008556412	0.4907713	0	-0.07378072	0	0.0007696003
29.57892	0.008556412	0.4846596	0	-0.3689036	0	-8.906827
29.59548	0.009778757	0.4699915	0.07378089	-0.8853705	2.226712	-15.587
29.61225	0.0110011	0.4418775	0.07290789	-1.676883	-0.02619061	-23.74572
29.62862	0.0110011	0.4064296	0	-2.165826	-2.200491	-14.7572
29.64518	0.01466813	0.3636475	0.221419	-2.583223	6.724244	-12.67586
29.66175	0.01466813	0.3184207	0	-2.729892	-6.683594	-4.427256
29.67884	0.01466813	0.2756387	5.448351E-08	-2.502804	1.6186E-06	6.746367
29.69497	0.01466813	0.2316343	-5.773693E-08	-2.728033	-3.377681E-06	-6.779099
29.71144	0.01222344	0.1937416	-0.1483817	-2.299916	-4.550729	13.12996
29.72801	0.009778756	0.1619606	-0.1475447	-1.918082	0.02532828	11.55504
29.74458	0.008556412	0.1424031	-0.07378934	-1.18063	2.225943	22.25633
29.76115	0.007334067	0.127735	-0.07376391	-0.8851658	0.0007673995	8.91662
29.77829	0.007334067	0.1155116	5.43501E-08	-0.7133359	2.188409	5.097803
29.79428	0.007334067	0.1081775	-2.910941E-08	-0.4584672	-2.518958E-06	7.692396
29.81085	0.007334067	0.1069551	2.810737E-08	-0.07378028	1.757047E-06	11.8132
29.82742	0.007334067	0.1020658	-2.810737E-08	-0.2951238	-1.696564E-06	-6.680161
29.84398	0.007334067	0.09717638	-2.811384E-08	-0.2951918	-1.953794E-10	-0.002051849
29.86055	0.007334067	0.09350935	0	-0.2213677	8.48624E-07	2.228401
29.87711	0.007334067	0.09106466	2.810737E-08	-0.1475619	8.48331E-07	2.227591
29.89374	0.007334067	0.08617529	0	-0.2941413	-8.468684E-07	-4.416402
29.91025	0.007334067	0.08128591	-2.820479E-08	-0.2961462	-8.512711E-07	-0.06051123
29.92681	0.006111722	0.07761887	-0.07378083	-0.2213426	-2.230561	2.261481
29.94338	0.006111722	0.07272949	-2.810414E-08	-0.2950898	2.226581	-2.225566
29.95995	0.006111723	0.06906247	5.620827E-08	-0.2213162	2.54426E-06	2.226234
29.97678	0.006111722	0.06050605	-2.766466E-08	-0.508332	-2.511054E-06	-8.592901
29.99308	0.004889378	0.05561667	-0.07499831	-0.2999932	-2.263713	6.288401
30.00965	0.004889378	0.05194964	0	-0.2213424	2.281975	2.393108
30.02629	0.003667034	0.04950495	-0.07343423	-0.1468686	-2.211031	2.24233
30.04278	0.003667034	0.04706026	0	-0.1482615	2.216249	-0.04203648
30.05935	0.003667034	0.04706026	0	0	0	4.485126
30.07592	0.003667034	0.04583792	0	-0.07378095	0	-2.226713
30.09275	0.003667034	0.04583792	0	0	0	2.20929
30.10905	0.003667034	0.04583792	0	0	0	0
30.12562	0.003667034	0.04461557	0	-0.07378072	0	-2.244407
30.14245	0.003667034	0.04461557	0	0	0	2.209284
30.15875	0.003667034	0.04461557	0	0	0	0
30.17532	0.003667034	0.04461557	0	0	0	0
30.19189	0.003667034	0.04461557	0	0	0	0
30.20851	0.003667034	0.04461557	0	0	0	0
30.22502	0.003667034	0.04461557	0	0	0	0
30.24163	0.003667034	0.04461557	0	0	0	0
30.25823	0.003667034	0.04461557	0	0	0	0
30.27509	0.003667034	0.04461557	0	0	0	0
30.29157	0.003667034	0.04461557	0	0	0	0
30.30785	0.003667034	0.04461557	0	0	0	0
30.32442	0.003667034	0.04461557	0	0	0	0
30.34099	0.003667034	0.04339323	0	-0.07378072	0	-2.226707
30.35755	0.003667034	0.04339323	0	0	0	2.226707
30.37412	0.003667034	0.04339323	0	0	0	0
30.39096	0.003667034	0.04339323	0	0	0	0
30.40739	0.003667034	0.04339323	0	0	0	0
30.46654	0.003667034	0.04217089	0	-0.02066695	0	-0.2734356
30.48312	0.003667034	0.04217089	0	0	0	0.2729328
30.49968	0.003667034	0.04217089	0	0	0	0
30.51624	0.003667034	0.04217089	0	0	0	0
30.53326	0.003667034	0.04217089	0	0	0	0
30.54938	0.003667034	0.04217089	0	0	0	0
30.56645	0.003667034	0.04217089	0	0	0	0
30.58311	0.003667034	0.04217089	0	0	0	0
30.59908	0.003667034	0.04217089	0	0	0	0
30.61567	0.003667034	0.04217089	0	0	0	0
30.63221	0.003667034	0.04217089	0	0	0	0
30.64878	0.003667034	0.04217089	0	0	0	0
30.66534	0.003667034	0.04217089	0	0	0	0
30.68191	0.003667034	0.04217089	0	0	0	0
30.69848	0.003667034	0.04217089	0	0	0	0
30.71506	0.003667034	0.04217089	0	0	0	0
30.73161	0.003667034	0.04217089	0	0	0	0
30.74818	0.003667034	0.04217089	0	0	0	0
30.76474	0.003667034	0.04217089	0	0	0	0
30.78131	0.003667034	0.04217089	0	0	0	0
30.79788	0.003667034	0.04217089	0	0	0	0
30.81451	0.003667034	0.04217089	0	0	0	0
30.83102	0.003667034	0.04217089	0	0	0	0
30.85846	0.003667034	0.04217089	0	0	0	0
30.87503	0.003667034	0.04217089	0	0	0	0
30.8916	0.003667034	0.04217089	0	0	0	0
30.90816	0.003667034	0.04217089	0	0	0	0
30.92508	0.003667034	0.04217089	0	0	0	0
30.9413	0.003667034	0.04217089	0	0	0	0
30.95795	0.003667034	0.04217089	0	0	0	0
30.97443	0.003667034	0.04217089	0	0	0	0
30.99149	0.003667034	0.04217089	0	0	0	0
31.00757	0.003667034	0.04217089	0	0	0	0
31.02413	0.003667034	0.04217089	0	0	0	0
31.0407	0.003667034	0.04217089	0	0	0	0
31.05727	0.003667034	0.04217089	0	0	0	0
31.07384	0.003667034	0.04217089	0	0	0	0
31.0904	0.003667034	0.04217089	0	0	0	0
31.10697	0.003667034	0.04217089	0	0	0	0
31.12386	0.003667034	0.04217089	0	0	0	0
31.14036	0.003667034	0.04217089	0	0	0	0
31.15667	0.003667034	0.04217089	0	0	0	0
31.17323	0.003667034	0.04094854	0	-0.07378945	0	-2.244672
31.1898	0.003667034	0.03972619	0	-0.07378095	0	0.0002565788
31.20681	0.003667034	0.03972619	0	0	0	2.197368
31.22305	0.003667034	0.03972619	0	0	0	0
31.2395	0.003667034	0.03972619	0	0	0	0
31.25607	0.003667034	0.03972619	0	0	0	0
31.27264	0.003667034	0.03972619	0	0	0	0
31.2892	0.003667034	0.03972619	0	0	0	0
31.30577	0.003667034	0.03972619	0	0	0	0
31.32234	0.003667034	0.03972619	0	0	0	0
31.33891	0.003667033	0.03850385	-1.405369E-08	-0.07378072	-4.241411E-07	-2.226707
31.35547	0.003667033	0.03850385	0	0	4.241411E-07	2.226707
31.37204	0.003667033	0.03850385	0	0	0	0
31.3887	0.003667033	0.03850385	0	0	0	0
31.40529	0.003667034	0.03728151	1.403591E-08	-0.07368763	4.221466E-07	-2.216243
31.42207	0.003667034	0.03605916	0	-0.07284977	-4.206505E-07	0.0251104
31.43864	0.004889378	0.03239213	0.07376387	-0.2212917	2.211811	-4.451033
31.45536	0.004889378	0.03239213	0	0	-2.215358	6.646077
31.47177	0.006111722	0.02994744	0.07449269	-0.1489853	2.248194	-4.496386
31.48871	0.006111722	0.0287251	0	-0.07217719	-2.234048	2.303488
31.50519	0.006111722	0.0287251	0	0	0	2.160157
31.52147	0.006111722	0.0287251	0	0	0	0
31.53804	0.006111722	0.0287251	0	0	0	0
31.55487	0.006111722	0.0287251	0	0	0	0
31.57118	0.006111722	0.0287251	0	0	0	0
31.58774	0.006111722	0.02628041	0	-0.1475957	0	-4.489854
31.60431	0.004889378	0.02261337	-0.07378936	-0.2213681	-2.227352	-2.226841
31.62087	0.004889378	0.02016868	2.810414E-08	-0.1475447	2.226968	2.227995
31.63744	0.004889378	0.01894634	-2.810737E-08	-0.07378083	-1.696369E-06	2.226069
31.65401	0.004889378	0.01894634	0	0	8.482821E-07	2.22671
31.671	0.004889378	0.01894634	0	0	0	0
31.68714	0.004889378	0.01894634	0	0	0	0
31.70371	0.004889378	0.01894634	0	0	0	0
31.72028	0.004889378	0.01894634	0	0	0	0
31.73685	0.004889378	0.01894634	0	0	0	0
31.75341	0.004889378	0.01894634	0	0	0	0
31.76998	0.004889378	0.01894634	0	0	0	0
31.78655	0.004889378	0.01894634	0	0	0	0
31.80311	0.004889378	0.01894634	0	0	0	0
31.81968	0.004889378	0.01894634	0	0	0	0
31.83627	0.004889378	0.01894634	0	0	0	0
31.85281	0.004889378	0.01894634	0	0	0	0
31.86938	0.004889378	0.01894634	0	0	0	0
31.88595	0.004889378	0.01894634	0	0	0	0
31.90251	0.004889378	0.01894634	0	0	0	0
31.91908	0.004889378	0.01894634	0	0	0	0
31.93603	0.004889378	0.01894634	0	0	0	0
31.95222	0.004889378	0.01894634	0	0	0	0
31.96878	0.004889378	0.01894634	0	0	0	0
31.98544	0.004889378	0.01894634	0	0	0	0
32.00191	0.004889378	0.01894634	0	0	0	0
32.01848	0.004889378	0.01894634	0	0	0	0
32.03505	0.004889378	0.01894634	0	0	0	0
32.05162	0.004889378	0.01894634	0	0	0	0
32.06818	0.004889378	0.01894634	0	0	0	0
32.08485	0.004889378	0.01894634	0	0	0	0
32.10131	0.004889378	0.01894634	0	0	0	0
32.11788	0.004889378	0.01894634	0	0	0	0
32.13474	0.004889378	0.01894634	0	0	0	0
32.15563	0.004889378	0.01894634	0	0	0	0
32.1722	0.004889378	0.01894634	0	0	0	0
32.18877	0.004889378	0.01894634	0	0	0	0
32.2056	0.004889378	0.01894634	0	0	0	0
32.2219	0.004889378	0.01894634	0	0	0	0
32.23847	0.004889378	0.01894634	0	0	0	0
32.25515	0.004889378	0.01894634	0	0	0	0
32.27161	0.004889378	0.01894634	0	0	0	0
32.28824	0.004889378	0.01894634	0	0	0	0
32.30476	0.004889378	0.01894634	0	0	0	0
32.32177	0.004889378	0.01894634	0	0	0	0
32.33828	0.004889378	0.01894634	0	0	0	0
32.35444	0.004889378	0.01772399	0	-0.07562678	0	-2.314935
32.37101	0.004889378	0.01772399	0	0	0	2.310618
32.38806	0.004889378	0.01772399	0	0	0	0
32.40414	0.004889378	0.01772399	0	0	0	0
32.42071	0.004889378	0.01772399	0	0	0	0
32.43728	0.004889378	0.01772399	0	0	0	0
32.45412	0.004889378	0.01772399	0	0	0	0
32.47041	0.004889378	0.01772399	0	0	0	0
32.48698	0.006111723	0.01650165	0.07378089	-0.07378083	2.245584	-2.245583
32.50371	0.006111722	0.01527931	-2.782546E-08	-0.0730409	-2.21549	0.02221887
32.52011	0.006111722	0.01527931	0	0	8.397742E-07	2.204379
32.53668	0.006111722	0.01527931	0	0	0	0
32.55325	0.006111722	0.01527931	0	0	0	0
32.56981	0.006111722	0.01527931	0	0	0	0
32.58685	0.006111722	0.01527931	0	0	0	0
32.60295	0.006111722	0.01527931	0	0	0	0
32.6198	0.006111722	0.01527931	0	0	0	0
32.6363	0.006111722	0.01527931	0	0	0	0
32.65264	0.006111722	0.01527931	0	0	0	0
32.66921	0.006111722	0.01527931	0	0	0	0
32.68582	0.006111722	0.01527931	0	0	0	0
32.70234	0.006111722	0.01527931	0	0	0	0
32.7193	0.006111722	0.01527931	0	0	0	0
32.73548	0.006111722	0.01527931	0	0	0	0
32.75205	0.006111722	0.01527931	0	0	0	0
32.76862	0.006111722	0.01527931	0	0	0	0
32.78518	0.006111722	0.01527931	0	0	0	0
32.80205	0.006111722	0.01527931	0	0	0	0
32.81874	0.006111722	0.01527931	0	0	0	0
32.83549	0.006111722	0.01527931	0	0	0	0
32.85176	0.006111722	0.01527931	0	0	0	0
32.86853	0.006111722	0.01527931	0	0	0	0
32.88489	0.006111722	0.01527931	0	0	0	0
32.90146	0.006111722	0.01527931	0	0	0	0
32.91805	0.003667034	0.01283462	-0.1473581	-0.147358	-4.444207	-4.444205
32.93459	-0.0110011	0.009167584	-0.8865951	-0.2216488	-22.31022	-2.242101
32.95147	-0.02444689	0.00550055	-0.7969102	-0.2173391	2.683833	0.12897
32.96772	-0.05011613	0.0006111722	-1.578845	-0.3007323	-23.60154	-2.517103
32.98429	-0.0660066	-0.0006111722	-0.959151	-0.07378086	18.87844	6.913884
33.00086	-0.08067474	-0.003055861	-0.8853705	-0.1475617	2.226699	-2.226711
33.01809	-0.08678646	-0.003055861	-0.3546154	0	15.70187	4.365469
33.03399	-0.08678646	-0.003055861	0	0	10.70355	0
33.05056	-0.08678646	-0.003055861	0	0	0	0
33.0675	-0.08678646	-0.003055861	0	0	0	0
33.08369	-0.08678646	-0.003055861	0	0	0	0
33.10044	-0.08678646	-0.003055861	0	0	0	0
33.11691	-0.08678646	-0.003055861	0	0	0	0
33.13339	-0.08678646	-0.003055861	0	0	0	0
33.14996	-0.08678646	-0.003055861	0	0	0	0
33.16659	-0.08678646	-0.003055861	0	0	0	0
33.18322	-0.08678646	-0.003055861	0	0	0	0
33.19965	-0.08189708	-0.003055861	0.2975215	0	8.997863	0
33.21622	-0.07823005	-0.003055861	0.2213426	0	-2.308385	0
33.23279	-0.07578536	-0.004278206	0.1475614	-0.07378086	-2.22672	-2.226711
33.24936	-0.07211833	-0.009167584	0.2213426	-0.2951234	2.22672	-6.680132
33.26662	-0.06722895	-0.0287251	0.2831281	-1.132513	1.826007	-24.7482
33.28249	-0.05989488	-0.08617529	0.4622703	-3.621116	5.406523	-75.10621
33.29906	-0.05622785	-0.1448478	0.2213426	-3.541481	-7.428574	2.4554
33.31562	-0.05378316	-0.1900746	0.1475959	-2.730521	-2.225937	24.47766
33.33219	-0.05011612	-0.237746	0.2213426	-2.877453	2.225937	-4.434924
33.34903	-0.04889378	-0.2756387	0.07257751	-2.249906	-4.45283	18.78369
33.36532	-0.04767144	-0.3013079	0.07502451	-1.575518	0.07385065	20.35307
33.38218	-0.04767143	-0.3110867	2.209917E-07	-0.5800962	-2.263195	30.02807
33.39846	-0.04767144	-0.312309	-2.28864E-07	-0.07509484	-1.357667E-05	15.24097
33.41513	-0.04767144	-0.312309	0	0	6.944706E-06	2.278697
33.43164	-0.04767144	-0.312309	0	0	0	0
33.44914	-0.04767144	-0.312309	0	0	0	0
33.46571	-0.04767144	-0.312309	0	0	0	0
33.48228	-0.04767144	-0.312309	0	0	0	0
33.49884	-0.04644909	-0.3135314	0.07378095	-0.07378072	2.226713	-2.226707
33.51541	-0.03911502	-0.3000856	0.4426852	0.8115898	11.13355	26.72054
33.53199	-0.03055861	-0.2829727	0.5159907	1.031983	2.211346	6.648427
33.54855	-0.0220022	-0.2573035	0.5169421	1.550824	0.02871179	15.65863
33.56586	0	-0.163183	1.270708	5.435809	22.25673	114.7134
33.58199	0.008556412	-0.124068	0.5303882	2.424632	-22.13395	-90.02761
33.59825	0.02322455	-0.0617284	0.9024087	3.835237	11.4868	43.55496
33.61526	0.03422565	-0.02139103	0.6467532	2.371428	-7.685613	-44.00557
33.63138	0.04033737	0.004278206	0.3790278	1.591918	-8.079968	-23.52568
33.64795	0.04644909	0.02383572	0.3689045	1.180494	-0.3096558	-12.58487
33.66452	0.05133847	0.0397262	0.2951236	0.9591513	-2.226714	-6.680126
33.68109	0.05256081	0.04583792	0.07374654	0.3687343	-6.679635	-17.81472
33.69765	0.05378316	0.04828261	0.07381494	0.1476299	0.00206443	-6.672944
33.71422	0.05378316	0.04828261	0	0	-2.228252	-4.456505
33.73079	0.05378316	0.04828261	0	0	0	0
33.74773	0.05378316	0.04828261	0	0	0	0
33.76392	0.05378316	0.04828261	0	0	0	0
33.78049	0.05378316	0.04828261	0	0	0	0
33.79715	0.05378316	0.04828261	0	0	0	0
33.81362	0.05378316	0.04828261	0	0	0	0
33.83019	0.05378316	0.04828261	0	0	0	0
33.84694	0.05378316	0.04828261	0	0	0	0
33.86332	0.05378316	0.04828261	0	0	0	0
33.88082	0.05378316	0.04828261	0	0	0	0
33.89645	0.05378316	0.04828261	0	0	0	0
33.91313	0.05378316	0.04828261	0	0	0	0
33.92966	0.05378316	0.04828261	0	0	0	0
33.94627	0.05378316	0.04828261	0	0	0	0
33.96312	0.05378316	0.04828261	0	0	0	0
33.97928	0.05378316	0.04828261	0	0	0	0
33.99623	0.05378316	0.04828261	0	0	0	0
34.01242	0.05378316	0.04828261	0	0	0	0
34.0297	0.05378316	0.04828261	0	0	0	0
34.04555	0.05378316	0.04828261	0	0	0	0
34.06231	0.05378316	0.04828261	0	0	0	0
34.07869	0.05378316	0.04828261	0	0	0	0
34.09543	0.05378316	0.04828261	0	0	0	0
34.11181	0.05378316	0.04828261	0	0	0	0
34.12864	0.05378316	0.04828261	0	0	0	0
34.14495	0.05378316	0.04828261	0	0	0	0
34.16152	0.05378316	0.04828261	0	0	0	0
34.17809	0.05378316	0.04828261	0	0	0	0
34.19465	0.05378316	0.04828261	0	0	0	0
34.21122	0.05378316	0.04828261	0	0	0	0
34.22779	0.05378316	0.04828261	0	0	0	0
34.24435	0.05378316	0.04828261	0	0	0	0
34.26097	0.05378316	0.04828261	0	0	0	0
34.2775	0.05378316	0.04828261	0	0	0	0
34.29405	0.05378316	0.04828261	0	0	0	0
34.31062	0.05378316	0.04828261	0	0	0	0
34.32718	0.05378316	0.04828261	0	0	0	0
34.34413	0.05378316	0.04828261	0	0	0	0
34.36031	0.05378316	0.04828261	0	0	0	0
34.37788	0.05378316	0.04828261	0	0	0	0
34.39344	0.05378316	0.04828261	0	0	0	0
34.41001	0.05378316	0.04828261	0	0	0	0
34.4266	0.05378316	0.04828261	0	0	0	0
34.44335	0.05378316	0.04828261	0	0	0	0
34.45971	0.05378316	0.04828261	0	0	0	0
34.47628	0.05378316	0.04828261	0	0	0	0
34.49345	0.05378316	0.04828261	0	0	0	0
34.50941	0.05378316	0.04828261	0	0	0	0
34.52598	0.05378316	0.04828261	0	0	0	0
34.54255	0.05378316	0.04828261	0	0	0	0
34.55912	0.05378316	0.04828261	0	0	0	0
34.57568	0.05378316	0.04828261	0	0	0	0
34.59262	0.05378316	0.04828261	0	0	0	0
34.60882	0.05378316	0.04828261	0	0	0	0
34.62541	0.05378316	0.04828261	0	0	0	0
34.64214	0.05378316	0.04828261	0	0	0	0
34.65852	0.05378316	0.04828261	0	0	0	0
34.67513	0.05378316	0.04828261	0	0	0	0
34.69165	0.05378316	0.04828261	0	0	0	0
34.70821	0.05378316	0.04828261	0	0	0	0
34.72478	0.05378316	0.04828261	0	0	0	0
34.74135	0.05378316	0.04828261	0	0	0	0
34.76114	0.05378316	0.04828261	0	0	0	0
34.77771	0.05378316	0.04828261	0	0	0	0
34.79427	0.05378316	0.04828261	0	0	0	0
34.81084	0.05378316	0.04828261	0	0	0	0
34.82758	0.05378316	0.04828261	0	0	0	0
34.84398	0.05378316	0.04828261	0	0	0	0
34.86054	0.05378316	0.04828261	0	0	0	0
34.87711	0.05378316	0.04828261	0	0	0	0
34.89384	0.05378316	0.04828261	0	0	0	0
34.91024	0.05378316	0.04828261	0	0	0	0
34.92692	0.05378316	0.04828261	0	0	0	0
34.94357	0.05378316	0.04828261	0	0	0	0
34.96017	0.05378316	0.04828261	0	0	0	0
34.97709	0.05378316	0.04828261	0	0	0	0
34.99313	0.05378316	0.04828261	0	0	0	0
35.00964	0.05378316	0.04828261	0	0	0	0
35.02621	0.05378316	0.04828261	0	0	0	0
35.04306	0.05378316	0.04828261	0	0	0	0
35.05934	0.05378316	0.04828261	0	0	0	0
35.07591	0.05378316	0.04828261	0	0	0	0
35.09303	0.05378316	0.04828261	0	0	0	0
35.10904	0.05378316	0.04828261	0	0	0	0
35.12589	0.05378316	0.04828261	0	0	0	0
35.14218	0.05378316	0.04828261	0	0	0	0
35.15874	0.05378316	0.04828261	0	0	0	0
35.17531	0.05378316	0.04828261	0	0	0	0
35.19188	0.05378316	0.04828261	0	0	0	0
35.20845	0.05378316	0.04828261	0	0	0	0
35.22544	0.05378316	0.04828261	0	0	0	0
35.24158	0.05378316	0.04828261	0	0	0	0
35.25815	0.05378316	0.04583792	0	-0.1475617	0	-4.511068
35.27472	0.05256081	0.04583792	-0.07378095	-2.24859E-07	-2.226713	4.453413
35.29128	0.05256081	0.04461557	0	-0.07378072	2.226713	-2.2267
35.30819	0.05256081	0.04461557	0	0	0	2.204122
35.32464	0.05256081	0.04461557	0	0	0	0
35.34098	0.05256081	0.04339323	2.28009E-07	-0.07481454	6.953372E-06	-2.281547
35.35755	0.05256081	0.04217088	0	-0.07378095	-6.92919E-06	0.03141076
35.37448	0.05256082	0.04094854	2.199961E-07	-0.07218488	6.566915E-06	0.04764273
35.39151	0.05256081	0.03850385	-2.18813E-07	-0.1435943	-1.292195E-05	-2.102848
35.40725	0.05256081	0.03605917	0	-0.1552846	6.677592E-06	-0.3567557
35.42382	0.05256081	0.03605917	0	0	0	4.806011
35.44038	0.05256081	0.03605917	0	0	0	0
35.45696	0.05256081	0.03605917	0	0	0	0
35.47351	0.05256081	0.03605917	0	0	0	0
35.49008	0.05256081	0.03605917	0	0	0	0
35.50665	0.05256081	0.03605917	0	0	0	0
35.52346	0.05256081	0.03605917	0	0	0	0
35.53978	0.05256081	0.03605917	0	0	0	0
35.55635	0.05256081	0.03605917	0	0	0	0
35.57356	0.05256081	0.03605917	0	0	0	0
35.58948	0.05256081	0.03605917	0	0	0	0
35.60643	0.05256081	0.03605917	0	0	0	0
35.62299	0.05256081	0.03605917	0	0	0	0
35.63944	0.05256081	0.03605917	0	0	0	0
35.65596	0.05256081	0.03605917	0	0	0	0
35.67297	0.05256081	0.03605917	0	0	0	0
35.68888	0.05256081	0.03605917	0	0	0	0
35.70617	0.05256081	0.03605917	0	0	0	0
35.7222	0.05256081	0.03605917	0	0	0	0
35.73858	0.05256081	0.03605917	0	0	0	0
35.75515	0.05256081	0.03605917	0	0	0	0
35.77172	0.05256081	0.03605917	0	0	0	0
35.78865	0.05256081	0.03605917	0	0	0	0
35.80485	0.05256081	0.03605917	0	0	0	0
35.82172	0.05256081	0.03605917	0	0	0	0
35.83798	0.05256081	0.03605917	0	0	0	0
35.85455	0.05256081	0.03605917	0	0	0	0
35.92008	0.05256081	0.03605917	0	0	0	0
35.93713	0.05256081	0.03605917	0	0	0	0
35.95322	0.05256081	0.03605917	0	0	0	0
35.96978	0.05256081	0.03605917	0	0	0	0
35.98653	0.05256081	0.03605917	0	0	0	0
36.00292	0.05256081	0.03605917	0	0	0	0
36.01959	0.05256081	0.03605917	0	0	0	0
36.03635	0.05256081	0.03605917	0	0	0	0
36.05341	0.05256081	0.03605917	0	0	0	0
36.06919	0.05256081	0.03605917	0	0	0	0
36.08575	0.05256081	0.03605917	0	0	0	0
36.11055	0.05256081	0.03605917	0	0	0	0
36.12713	0.05256081	0.03605917	0	0	0	0
36.14369	0.05256081	0.03605917	0	0	0	0
36.16026	0.05256081	0.03605917	0	0	0	0
36.17683	0.05256081	0.03605917	0	0	0	0
36.19373	0.05256081	0.03605917	0	0	0	0
36.20996	0.05256081	0.03605917	0	0	0	0
36.22653	0.05256081	0.03605917	0	0	0	0
36.24352	0.05256081	0.03605917	0	0	0	0
36.25965	0.05256081	0.03605917	0	0	0	0
36.27622	0.05256081	0.03605917	0	0	0	0
36.2931	0.05256081	0.03605917	0	0	0	0
36.30962	0.05256081	0.03605917	0	0	0	0
36.32592	0.05256081	0.03605917	0	0	0	0
36.34266	0.05256081	0.03605917	0	0	0	0
36.35905	0.05256081	0.03605917	0	0	0	0
36.37561	0.05256081	0.03605917	0	0	0	0
36.39218	0.05256081	0.03605917	0	0	0	0
36.40875	0.05256081	0.03605917	0	0	0	0
36.42532	0.05256081	0.03605917	0	0	0	0
36.44188	0.05256081	0.03605917	0	0	0	0
36.45845	0.05256081	0.03605917	0	0	0	0
36.47502	0.05256081	0.03605917	0	0	0	0
36.49165	0.05256081	0.03605917	0	0	0	0
36.50815	0.05256081	0.03605917	0	0	0	0
36.52492	0.05256081	0.03605917	0	0	0	0
36.54129	0.05256081	0.03605917	0	0	0	0
36.55785	0.05256081	0.03605917	0	0	0	0
36.57442	0.05256081	0.03605917	0	0	0	0
36.59099	0.05256081	0.03605917	0	0	0	0
36.60801	0.05256081	0.03605917	0	0	0	0
36.62412	0.05256081	0.03605917	0	0	0	0
36.64069	0.05256081	0.03605917	0	0	0	0
36.6573	0.05256081	0.03605917	0	0	0	0
36.67382	0.05256081	0.03605917	0	0	0	0
36.69039	0.05256081	0.03605917	0	0	0	0
36.70696	0.05256081	0.03605917	0	0	0	0
36.72353	0.05256081	0.03605917	0	0	0	0
36.74037	0.05256081	0.03605917	0	0	0	0
36.75666	0.05256081	0.03605917	0	0	0	0
36.77323	0.05256081	0.03605917	0	0	0	0
36.78979	0.05256081	0.03605917	0	0	0	0
36.80636	0.05256081	0.03605917	0	0	0	0
36.82293	0.05256081	0.03605917	0	0	0	0
36.8395	0.05256081	0.03605917	0	0	0	0
36.85638	0.05256081	0.03605917	0	0	0	0
36.87263	0.05256081	0.03605917	0	0	0	0
36.88958	0.04644909	0.03605916	-0.3605201	-4.394971E-07	-10.85802	-1.323662E-05
36.90576	0.03544799	0.03728151	-0.6798378	0.07553787	-9.637027	2.279751
36.92233	-0.02811392	0.05683902	-3.837488	1.180766	-96.43047	33.75219
36.93889	-0.09656522	0.08739763	-4.131728	1.844521	-8.881196	20.0345
36.95546	-0.152793	0.1118445	-3.393919	1.475617	22.26713	-11.13355
36.97203	-0.1943528	0.131402	-2.50855	1.180494	26.72048	-8.90684
36.98859	-0.2212444	0.1436255	-1.623179	0.7378082	26.72056	-13.36028
37.00516	-0.2444689	0.1546266	-1.401836	0.6640274	6.680146	-2.226708
37.02173	-0.2664711	0.163183	-1.328058	0.5164678	2.226625	-4.453359
37.0383	-0.2884733	0.1692947	-1.328055	0.3689045	8.27481E-05	-4.453467
37.05486	-0.3129202	0.1778511	-1.475618	0.5164651	-4.45347	4.453386
37.07143	-0.3324777	0.1839629	-1.180492	0.3689045	8.906938	-4.453386
37.088	-0.3447011	0.1876299	-0.7378091	0.2213422	13.36018	-4.453441
37.10456	-0.3532576	0.1900746	-0.5164669	0.1475614	6.680121	-2.226707
37.12139	-0.3544799	0.1900746	-0.07266156	8.85771E-07	13.29154	-4.419298
37.1377	-0.3544799	0.1900746	0	0	2.19293	-2.673262E-05
37.1547	-0.3544799	0.1900746	0	0	0	0
37.17083	-0.3544799	0.1900746	0	0	0	0
37.1874	-0.3544799	0.1900746	0	0	0	0
37.20427	-0.3544799	0.1900746	0	0	0	0
37.22058	-0.3544799	0.1900746	0	0	0	0
37.2371	-0.3483682	0.1815182	0.3700985	-0.5181372	11.27211	-15.78094
37.25381	-0.3080308	0.163183	2.413651	-1.097113	61.50458	-17.42539
37.27029	-0.2603593	0.1460702	2.892775	-1.038431	14.43509	1.767969
37.2868	-0.2102433	0.131402	3.036199	-0.8886443	4.348054	4.540972
37.30336	-0.1466813	0.1130669	3.836606	-1.106713	24.20091	-6.593476
37.32038	-0.08678646	0.09595405	3.518843	-1.005384	-9.460485	3.016802
37.3365	-0.03911502	0.08006357	2.958519	-0.9861727	-16.91063	0.5797853
37.35313	-0.003667034	0.06906247	2.131302	-0.6614383	-25.26209	9.916959
37.36963	0.01833517	0.06050605	1.333274	-0.5184962	-24.08453	4.314002
37.3865	0.02933627	0.05806137	0.6523125	-0.144958	-20.40814	11.19479
37.40352	0.03178096	0.05561668	0.1435941	-0.1435941	-15.01097	0.0402466
37.41953	0.03178096	0.05561668	0	0	-4.347693	4.347693
37.4359	0.03178096	0.05561668	0	0	0	0
37.45247	0.03178096	0.05561668	0	0	0	0
37.46905	0.03178096	0.05561668	0	0	0	0
37.4856	0.03178096	0.05561668	0	0	0	0
37.50217	0.03178096	0.05561668	0	0	0	0
37.51873	0.0330033	0.05561668	0.07378072	0	2.226707	0
37.53568	0.03422564	0.05439433	0.07213636	-0.0721368	-0.04906779	-2.152559
37.55187	0.03544799	0.05317198	0.07550227	-0.07550181	0.1015834	-0.1015564
37.56844	0.03544799	0.05317198	0	0	-2.304934	2.30492
37.585	0.03667033	0.05317198	0.07378072	0	2.226707	0
37.60157	0.03667033	0.05194964	0	-0.07378072	-2.226707	-2.226707
37.61814	0.03667033	0.05194964	0	0	0	2.226707
37.63502	0.03667033	0.05194964	0	0	0	0
37.65127	0.03667033	0.05194964	0	0	0	0
37.66784	0.03667033	0.05194964	0	0	0	0
37.68441	0.03667033	0.05194964	0	0	0	0
37.70097	0.03667033	0.05194964	0	0	0	0
37.71754	0.03667033	0.05194964	0	0	0	0
37.73411	0.03667033	0.05194964	0	0	0	0
37.75068	0.03667033	0.05194964	0	0	0	0
37.76729	0.03667033	0.05194964	0	0	0	0
37.78381	0.03667033	0.05194964	0	0	0	0
37.80038	0.03667033	0.05194964	0	0	0	0
37.81694	0.03667033	0.05194964	0	0	0	0
37.83351	0.03667033	0.05194964	0	0	0	0
37.85008	0.03667033	0.05194964	0	0	0	0
37.86665	0.03667033	0.05194964	0	0	0	0
37.88321	0.03667033	0.05194964	0	0	0	0
37.89978	0.03667033	0.05194964	0	0	0	0
37.91647	0.03667033	0.05194964	0	0	0	0
37.93291	0.03667033	0.05194964	0	0	0	0
37.94948	0.03667033	0.05194964	0	0	0	0
37.96605	0.03667033	0.05194964	0	0	0	0
37.98275	0.03667033	0.05194964	0	0	0	0
37.99959	0.03667033	0.05194964	0	0	0	0
38.01611	0.03667033	0.05194964	0	0	0	0
38.03231	0.03667033	0.05194964	0	0	0	0
38.04888	0.03667033	0.05194964	0	0	0	0
38.06732	0.03667033	0.05194964	0	0	0	0
38.08389	0.03667033	0.05194964	0	0	0	0
38.10046	0.03667033	0.05194964	0	0	0	0
38.11702	0.03667033	0.05194964	0	0	0	0
38.13359	0.03667033	0.05194964	0	0	0	0
38.15016	0.03667033	0.05194964	0	0	0	0
38.16673	0.03667033	0.05194964	0	0	0	0
38.18329	0.03667033	0.05194964	0	0	0	0
38.19995	0.03667033	0.05194964	0	0	0	0
38.21648	0.03667033	0.05194964	0	0	0	0
38.23299	0.03667033	0.05194964	0	0	0	0
38.24997	0.03667033	0.05194964	0	0	0	0
38.26612	0.03667033	0.05194964	0	0	0	0
38.2827	0.03667033	0.05194964	0	0	0	0
38.2995	0.03667033	0.05194964	0	0	0	0
38.31608	0.03667033	0.05194964	0	0	0	0
38.33312	0.03667033	0.05194964	0	0	0	0
38.34896	0.03667033	0.05194964	0	0	0	0
38.36553	0.03667033	0.05194964	0	0	0	0
38.38265	0.03667033	0.05194964	0	0	0	0
38.39873	0.03667033	0.05194964	0	0	0	0
38.41559	0.03667033	0.05194964	0	0	0	0
38.43179	0.03667033	0.05194964	0	0	0	0
38.44836	0.03667033	0.05194964	0	0	0	0
38.46493	0.03667033	0.05194964	0	0	0	0
38.48149	0.03667033	0.05194964	0	0	0	0
38.49806	0.03667033	0.05194964	0	0	0	0
38.51524	0.03667033	0.05194964	0	0	0	0
38.53119	0.03667033	0.05194964	0	0	0	0
38.54777	0.03667033	0.05194964	0	0	0	0
38.56469	0.03667033	0.05194964	0	0	0	0
38.58089	0.03667033	0.05194964	0	0	0	0
38.59746	0.03667033	0.05194964	0	0	0	0
38.61416	0.03667033	0.05194964	0	0	0	0
38.63059	0.03667033	0.05194964	0	0	0	0
38.64716	0.03667033	0.05194964	0	0	0	0
38.66372	0.03667033	0.05194964	0	0	0	0
38.68029	0.03667033	0.05194964	0	0	0	0
38.69686	0.03667033	0.05194964	0	0	0	0
38.71778	0.03667033	0.05194964	0	0	0	0
38.73436	0.03667033	0.05194964	0	0	0	0
38.75092	0.03667033	0.05194964	0	0	0	0
38.76756	0.03667033	0.05194964	0	0	0	0
38.78413	0.03667033	0.05194964	0	0	0	0
38.80062	0.03667033	0.05194964	0	0	0	0
38.81719	0.03667033	0.05194964	0	0	0	0
38.83408	0.03667033	0.05194964	0	0	0	0
38.85073	0.03667033	0.05194964	0	0	0	0
38.86689	0.03667033	0.05194964	0	0	0	0
38.88368	0.03667033	0.05194964	0	0	0	0
38.90003	0.03667033	0.05194964	0	0	0	0
38.91659	0.03667033	0.05194964	0	0	0	0
38.93316	0.03667033	0.05194964	0	0	0	0
38.94972	0.03667033	0.05194964	0	0	0	0
38.96652	0.03667033	0.05194964	0	0	0	0
38.98359	0.03667033	0.05194964	0	0	0	0
38.99942	0.03667033	0.05194964	0	0	0	0
39.01599	0.03667033	0.05194964	0	0	0	0
39.03277	0.03667033	0.05194964	0	0	0	0
39.04929	0.03667033	0.05194964	0	0	0	0
39.06569	0.03667033	0.05194964	0	0	0	0
39.08226	0.03667033	0.05194964	0	0	0	0
39.09882	0.03667033	0.05194964	0	0	0	0
39.11958	0.03667033	0.05194964	0	0	0	0
39.13634	0.03667033	0.05194964	0	0	0	0
39.15272	0.03667033	0.05194964	0	0	0	0
39.16933	0.03667033	0.05194964	0	0	0	0
39.18597	0.03667033	0.05194964	0	0	0	0
39.20242	0.03667033	0.05194964	0	0	0	0
39.21899	0.03667033	0.05194964	0	0	0	0
39.23555	0.03667033	0.05194964	0	0	0	0
39.25261	0.03667033	0.05194964	0	0	0	0
39.26869	0.03667033	0.05194964	0	0	0	0
39.28535	0.03667033	0.05194964	0	0	0	0
39.30191	0.03667033	0.05194964	0	0	0	0
39.31848	0.03667033	0.05194964	0	0	0	0
39.33496	0.03667033	0.05194964	0	0	0	0
39.35152	0.03667033	0.05194964	0	0	0	0
39.36818	0.03667033	0.05194964	0	0	0	0
39.38521	0.03667033	0.05194964	0	0	0	0
39.40122	0.03667033	0.05194964	0	0	0	0
39.41779	0.03667033	0.05194964	0	0	0	0
39.43456	0.03667033	0.05194964	0	0	0	0
39.4514	0.03667033	0.05194964	0	0	0	0
39.4675	0.03667033	0.05194964	0	0	0	0
39.48407	0.03667033	0.05194964	0	0	0	0
39.50063	0.03667033	0.05194964	0	0	0	0
39.5172	0.03667033	0.05194964	0	0	0	0
39.53376	0.03667033	0.05194964	0	0	0	0
39.55033	0.03667033	0.05194964	0	0	0	0
39.5669	0.03667033	0.05194964	0	0	0	0
39.58347	0.03667033	0.05194964	0	0	0	0
39.60003	0.03667033	0.05194964	0	0	0	0
39.6166	0.03667033	0.05194964	0	0	0	0
39.63317	0.03667033	0.05194964	0	0	0	0
39.64973	0.03667033	0.05194964	0	0	0	0
39.6663	0.03667033	0.05194964	0	0	0	0
39.68288	0.03667033	0.05194964	0	0	0	0
39.69943	0.03667033	0.05194964	0	0	0	0
39.716	0.03667033	0.05194964	0	0	0	0
39.73257	0.03667033	0.05194964	0	0	0	0
39.74913	0.03667033	0.05194964	0	0	0	0
39.7657	0.03667033	0.05194964	0	0	0	0
39.78227	0.03667033	0.05194964	0	0	0	0
39.79884	0.03667033	0.05194964	0	0	0	0
39.81599	0.03667033	0.05194964	0	0	0	0
39.83197	0.03667033	0.05194964	0	0	0	0
39.84854	0.03667033	0.05194964	0	0	0	0
39.8651	0.03667033	0.05194964	0	0	0	0
39.88167	0.03667033	0.05194964	0	0	0	0
39.89859	0.03667033	0.05194964	0	0	0	0
39.91481	0.03667033	0.05194964	0	0	0	0
39.93148	0.03667033	0.05194964	0	0	0	0
39.94794	0.03667033	0.05194964	0	0	0	0
39.96494	0.03667033	0.05194964	0	0	0	0
39.98108	0.03667033	0.05194964	0	0	0	0
39.99764	0.03667033	0.05194964	0	0	0	0
40.01643	0.03667033	0.05194964	0	0	0	0
40.033	0.03667033	0.05194964	0	0	0	0
40.04996	0.03667033	0.05194964	0	0	0	0
40.06613	0.03667033	0.05194964	0	0	0	0
40.08287	0.03667033	0.05194964	0	0	0	0
40.09926	0.03667033	0.05194964	0	0	0	0
40.11588	0.03667033	0.05194964	0	0	0	0
40.1324	0.03667033	0.05194964	0	0	0	0
40.14896	0.03667033	0.05194964	0	0	0	0
40.16553	0.03667033	0.05194964	0	0	0	0
40.1821	0.03667033	0.05194964	0	0	0	0
40.19891	0.03667033	0.05194964	0	0	0	0
40.21547	0.03667033	0.05194964	0	0	0	0
40.23191	0.03667033	0.05194964	0	0	0	0
40.24859	0.03667033	0.05194964	0	0	0	0
40.26494	0.03667033	0.05194964	0	0	0	0
40.28188	0.03667033	0.05194964	0	0	0	0
40.29837	0.03667033	0.05194964	0	0	0	0
40.31464	0.03667033	0.05194964	0	0	0	0
40.3312	0.03667033	0.05194964	0	0	0	0
40.34777	0.03667033	0.05194964	0	0	0	0
40.36434	0.03667033	0.05194964	0	0	0	0
40.38091	0.03667033	0.05194964	0	0	0	0
40.39747	0.03667033	0.05194964	0	0	0	0
40.41404	0.03667033	0.05194964	0	0	0	0
40.4308	0.03667033	0.05194964	0	0	0	0
40.44731	0.03667033	0.05194964	0	0	0	0
40.46378	0.03667033	0.0507273	0	-0.07420812	0	-2.249967
40.48031	0.03544799	0.04950495	-0.073951	-0.073951	-2.240875	0.007791278
40.49688	0.03422565	0.04828261	-0.07378095	-0.07378095	0.005138096	0.005138096
40.51374	0.03178096	0.04706026	-0.1449254	-0.07246283	-2.127793	0.03942215
40.53001	0.02933627	0.04461557	-0.1502958	-0.1502956	-0.1620779	-2.348997
40.54658	0.02444689	0.04339323	-0.2951233	-0.07378095	-4.411022	2.330412
40.56314	0.009778756	0.0397262	-0.8853703	-0.2213424	-17.81369	-4.453413
40.57971	-0.01344579	0.03605916	-1.401836	-0.2213428	-15.58697	-1.349154E-05
40.59628	-0.04889378	0.02994744	-2.140138	-0.368989	-22.28455	-4.456483
40.61349	-0.06845129	0.02505806	-1.135774	-0.2839437	29.72989	2.517404
40.6295	-0.1002322	0.02383572	-1.985507	-0.07636563	-25.57431	6.247455
40.64605	-0.149126	0.01161227	-2.955317	-0.7388293	-29.79375	-20.35168
40.66265	-0.17724	0.001833517	-1.692673	-0.5887557	38.08475	4.526624
40.6936	-0.2065762	-0.00794524	-0.9481351	-0.3160452	15.65794	5.735212
40.71021	-0.2664711	-0.03116979	-3.6053	-1.397974	-55.87677	-22.75157
40.72673	-0.2750275	-0.03483682	-0.5177783	-0.2219046	93.17088	35.48975
40.74353	-0.287251	-0.04094854	-0.7275896	-0.3637946	-6.295877	-4.25774
40.75987	-0.294585	-0.04461557	-0.4489907	-0.2244958	8.408132	4.204046
40.77649	-0.298252	-0.04706026	-0.220631	-0.1470875	6.929406	2.348896
40.793	-0.3006968	-0.04950495	-0.1480405	-0.1480389	2.190785	-0.02871224
40.80957	-0.3019191	-0.0507273	-0.07377893	-0.07378095	2.244836	2.244727
40.82614	-0.3019191	-0.05317198	0	-0.1475614	2.226652	-2.2267
40.8427	-0.3031414	-0.05317199	-0.07379951	-4.498215E-07	-2.22753	4.453913
40.85974	-0.3031414	-0.05317199	0	0	2.196424	1.33876E-05
40.87584	-0.3031414	-0.05317199	0	0	0	0
40.8924	-0.3031414	-0.05317199	0	0	0	0
40.90994	-0.3031414	-0.05317199	0	0	0	0
40.92553	-0.3031414	-0.05317199	0	0	0	0
40.94218	-0.3031414	-0.05317199	0	0	0	0
40.95867	-0.3031414	-0.05317199	0	0	0	0
40.97557	-0.3031414	-0.05317199	0	0	0	0
40.9918	-0.3031414	-0.05317199	0	0	0	0
41.00837	-0.3031414	-0.05317199	0	0	0	0
41.02493	-0.3043638	-0.05439433	-0.07377893	-0.07378072	-2.226652	-2.226707
41.0415	-0.3055861	-0.05806136	-0.07379951	-0.2213934	-0.0006213569	-4.455472
41.05806	-0.3055861	-0.05928371	1.799286E-06	-0.07379794	2.227841	4.455465
41.07487	-0.3055861	-0.05928371	0	0	-5.391154E-05	2.211188
41.09193	-0.3055861	-0.05928371	0	0	0	0
41.10776	-0.3043638	-0.05928371	0.07724732	0	2.348906	0
41.12432	-0.3019191	-0.05928371	0.1475614	0	2.170819	0
41.14089	-0.2860286	-0.05194964	0.9591512	0.442685	24.49383	13.36026
41.15746	-0.251803	-0.04217089	2.065864	0.5902469	33.40065	4.453426
41.17426	-0.1857964	-0.02261337	3.92809	1.163878	55.80378	17.18954
41.19075	-0.0990099	0.003055861	5.262677	1.556566	40.08408	11.79431
41.20732	-0.02689158	0.02139103	4.35307	1.106713	-27.51533	-13.60793
41.22398	0.0220022	0.03116978	2.934343	0.5868686	-42.69439	-15.64391
41.2403	0.04767144	0.03728151	1.573676	0.3746846	-41.26456	-6.43484
41.25686	0.05133847	0.03850386	0.2213426	0.07378118	-41.13075	-9.151877
41.27388	0.05133847	0.03850386	0	0	-6.5906	-2.196876
41.28999	0.05133847	0.03850386	0	0	0	0
41.30656	0.05133847	0.03850386	0	0	0	0
41.39003	0.05133847	0.03850386	0	0	0	0
41.4066	0.05133847	0.03850386	0	0	0	0
41.42317	0.05133847	0.03850386	0	0	0	0
41.43993	0.05133847	0.03850386	0	0	0	0
41.4563	0.05133847	0.03850386	0	0	0	0
41.47334	0.05133847	0.03850386	0	0	0	0
41.48945	0.05133847	0.03850386	0	0	0	0
41.506	0.05133847	0.03850386	0	0	0	0
41.52257	0.05133847	0.03850386	0	0	0	0
41.54001	0.05133847	0.03850386	0	0	0	0
41.55571	0.05133847	0.03850386	0	0	0	0
41.57312	0.05133847	0.03850386	0	0	0	0
41.58884	0.05133847	0.03850386	0	0	0	0
41.60574	0.05133847	0.03850386	0	0	0	0
41.62197	0.05133847	0.03850386	0	0	0	0
41.63854	0.05133847	0.03850386	0	0	0	0
41.6553	0.05133847	0.03850386	0	0	0	0
41.67167	0.05133847	0.03850386	0	0	0	0
41.68835	0.05133847	0.03850386	0	0	0	0
41.70481	0.05133847	0.03850386	0	0	0	0
41.72147	0.05133847	0.03850386	0	0	0	0
41.73795	0.05133847	0.03850386	0	0	0	0
41.75451	0.05133847	0.03850386	0	0	0	0
41.77108	0.05133847	0.03850386	0	0	0	0
41.78764	0.05133847	0.03850386	0	0	0	0
41.80421	0.05133847	0.03850386	0	0	0	0
41.82078	0.05133847	0.03850386	0	0	0	0
41.8375	0.05133847	0.03850386	0	0	0	0
41.85391	0.05133847	0.03850386	0	0	0	0
41.87048	0.05133847	0.03850386	0	0	0	0
41.88705	0.05133847	0.03850386	0	0	0	0
41.90362	0.05133847	0.03850386	0	0	0	0
41.92045	0.05133847	0.03850386	0	0	0	0
41.93675	0.05133847	0.03850386	0	0	0	0
41.95332	0.05133847	0.03850386	0	0	0	0
41.96988	0.05133847	0.03850386	0	0	0	0
41.98664	0.05133847	0.03850386	0	0	0	0
42.0037	0.05133847	0.03850386	0	0	0	0
42.01965	0.05133847	0.03850386	0	0	0	0
42.03615	0.05133847	0.03850386	0	0	0	0
42.0549	0.05133847	0.03850386	0	0	0	0
42.07147	0.05133847	0.03850386	0	0	0	0
42.08804	0.05133847	0.03850386	0	0	0	0
42.10461	0.05133847	0.03850386	0	0	0	0
42.12117	0.05133847	0.03850386	0	0	0	0
42.13821	0.05133847	0.03850386	0	0	0	0
42.15453	0.05133847	0.03850386	0	0	0	0
42.17096	0.05133847	0.03850386	0	0	0	0
42.18759	0.05133847	0.03850386	0	0	0	0
42.20409	0.05133847	0.03850386	0	0	0	0
42.22057	0.05133847	0.03850386	0	0	0	0
42.23729	0.05133847	0.03850386	0	0	0	0
42.25377	0.05133847	0.03850386	0	0	0	0
42.27124	0.05133847	0.03850386	0	0	0	0
42.28685	0.05133847	0.03850386	0	0	0	0
42.30364	0.05133847	0.03850386	0	0	0	0
42.31998	0.05133847	0.03850386	0	0	0	0
42.33685	0.05133847	0.03850386	0	0	0	0
42.35355	0.05133847	0.03850386	0	0	0	0
42.36967	0.05133847	0.03850386	0	0	0	0
42.38624	0.05133847	0.03850386	0	0	0	0
42.40281	0.05133847	0.03850386	0	0	0	0
42.41943	0.05133847	0.03850386	0	0	0	0
42.43641	0.05133847	0.03850386	0	0	0	0
42.45251	0.05133847	0.03850386	0	0	0	0
42.46908	0.05133847	0.03850386	0	0	0	0
42.48565	0.05133847	0.03850386	0	0	0	0
42.50221	0.05133847	0.03850386	0	0	0	0
42.5188	0.05133847	0.03850386	0	0	0	0
42.53557	0.05133847	0.03850386	0	0	0	0
42.55192	0.05133847	0.03850386	0	0	0	0
42.56853	0.05133847	0.03850386	0	0	0	0
42.58505	0.05133847	0.03850386	0	0	0	0
42.60173	0.05133847	0.03850386	0	0	0	0
42.61819	0.05133847	0.03850386	0	0	0	0
42.63475	0.05133847	0.03850386	0	0	0	0
42.65132	0.05133847	0.03850386	0	0	0	0
42.66789	0.05133847	0.03850386	0	0	0	0
42.68489	0.05133847	0.03850386	0	0	0	0
42.70102	0.05133847	0.03850386	0	0	0	0
42.72123	0.05133847	0.03850386	0	0	0	0
42.73833	0.05133847	0.03850386	0	0	0	0
42.75437	0.05133847	0.03850386	0	0	0	0
42.77094	0.05133847	0.03850386	0	0	0	0
42.7875	0.05133847	0.03850386	0	0	0	0
42.80809	0.05133847	0.03850386	0	0	0	0
42.82467	0.05133847	0.03850386	0	0	0	0
42.84148	0.05133847	0.03850386	0	0	0	0
42.8578	0.05133847	0.03850386	0	0	0	0
42.87437	0.05133847	0.03850386	0	0	0	0
42.89107	0.05133847	0.03850386	0	0	0	0
42.9075	0.05133847	0.03850386	0	0	0	0
42.92406	0.05133847	0.03850386	0	0	0	0
42.94063	0.05133847	0.03850386	0	0	0	0
42.9572	0.05133847	0.03850386	0	0	0	0
42.97377	0.05133847	0.03850386	0	0	0	0
42.99033	0.05133847	0.03850386	0	0	0	0
43.0069	0.05133847	0.03850386	0	0	0	0
43.02347	0.05133847	0.03850386	0	0	0	0
43.04007	0.05133847	0.03850386	0	0	0	0
43.05661	0.05133847	0.03850386	0	0	0	0
43.07317	0.05133847	0.03850386	0	0	0	0
43.08974	0.05133847	0.03850386	0	0	0	0
43.10631	0.05133847	0.03850386	0	0	0	0
43.12288	0.05133847	0.03850386	0	0	0	0
43.1396	0.05133847	0.03850386	0	0	0	0
43.15601	0.05133847	0.03850386	0	0	0	0
43.17258	0.05133847	0.03850386	0	0	0	0
43.18914	0.05133847	0.03850386	0	0	0	0
43.20571	0.05133847	0.03850386	0	0	0	0
43.22227	0.05133847	0.03850386	0	0	0	0
43.23884	0.05133847	0.03850386	0	0	0	0
43.25541	0.05133847	0.03850386	0	0	0	0
43.27198	0.05133847	0.03850386	0	0	0	0
43.28854	0.05133847	0.03850386	0	0	0	0
43.30552	0.05133847	0.03850386	0	0	0	0
43.32167	0.05133847	0.03850386	0	0	0	0
43.33824	0.05133847	0.03850386	0	0	0	0
43.35504	0.05133847	0.03850386	0	0	0	0
43.37137	0.05133847	0.03850386	0	0	0	0
43.38794	0.05133847	0.03850386	0	0	0	0
43.40461	0.05133847	0.03850386	0	0	0	0
43.42113	0.05133847	0.03850386	0	0	0	0
