Time	Pos X	Pos Y	Vel X	Vel Y	Acc X	Acc Y
0.01656553	0.0001052632	-0.322436	-1.350664E-06	0.004137275	1.733446E-08	-5.309793E-05
0.0582324	0.0001052632	-0.322436	0	0	-1.734005E-08	5.311504E-05
0.07491004	0.0001052632	-0.322436	0	0	0	0
0.09136662	7.894737E-05	-0.3224577	-0.001599104	-0.001314762	-0.0482614	-0.03967988
0.1079357	7.894737E-05	-0.3224577	0	0	0.04842004	0.0398103
0.124832	7.894737E-05	-0.3224577	0	0	0	0
0.141231	7.894737E-05	-0.3224577	0	0	0	0
0.1579722	7.894737E-05	-0.3224577	0	0	0	0
0.1743668	7.894737E-05	-0.3224577	0	0	0	0
0.1909355	7.894737E-05	-0.3224577	0	0	0	0
0.2076068	7.894737E-05	-0.3224577	0	0	0	0
0.2240677	7.894737E-05	-0.3224577	0	0	0	0
0.240756	7.894737E-05	-0.3224577	0	0	0	0
0.2572067	7.894737E-05	-0.3224577	0	0	0	0
0.2737722	7.894737E-05	-0.3224577	0	0	0	0
0.2910629	2.631579E-05	-0.322501	-0.003043927	-0.0025044	-0.0899075	-0.07397164
0.3069001	2.631579E-05	-0.322501	0	0	0.09188418	0.07559796
0.323468	2.631579E-05	-0.322501	0	0	0	0
0.3400363	-2.631579E-05	-0.3225443	-0.003176643	-0.002613591	-0.09586626	-0.07887423
0.3566014	-2.631579E-05	-0.3225443	0	0	0.0958742	0.07888076
0.3731677	-2.631579E-05	-0.3225443	0	0	0	0
0.3897344	-5.263158E-05	-0.3225659	-0.001588473	-0.001306021	-0.04794227	-0.03941749
0.4063012	-5.263158E-05	-0.3225659	0	0	0.04794167	0.03941699
0.4228679	-5.263158E-05	-0.3225659	0	0	0	0
0.4394342	-7.894737E-05	-0.3225876	-0.001588513	-0.001307853	-0.04794349	-0.03947278
0.4560013	-7.894737E-05	-0.3225876	0	0	0.04794293	0.03947232
0.4725672	-7.894737E-05	-0.3225876	0	0	0	0
0.4891328	-7.894737E-05	-0.3225876	0	0	0	0
0.5056999	-7.894737E-05	-0.3225876	0	0	0	0
0.5222682	-7.894737E-05	-0.3225876	0	0	0	0
0.5390919	-7.894737E-05	-0.3225876	0	0	0	0
0.5554012	-7.894737E-05	-0.3225876	0	0	0	0
0.5719683	-7.894737E-05	-0.3225876	0	0	0	0
0.5887766	-7.894737E-05	-0.3225876	0	0	0	0
0.6050998	-7.894737E-05	-0.3225876	0	0	0	0
0.6216681	-7.894737E-05	-0.3225876	0	0	0	0
0.6384689	-0.0001052632	-0.3225659	-0.001566339	0.001289597	-0.04693978	0.03864641
0.6548809	-0.0001052632	-0.3225659	0	0	0.04716074	-0.03882834
0.6715052	-0.0001052632	-0.3225659	0	0	0	0
0.6879349	-0.0001052632	-0.3225659	0	0	0	0
0.7045103	-0.0001052632	-0.3225659	0	0	0	0
0.7210909	-0.0001052632	-0.3225659	0	0	0	0
0.7376347	-0.0001052632	-0.3225659	0	0	0	0
0.7544828	-0.0001052632	-0.3225659	0	0	0	0
0.7707677	-0.0001052632	-0.3225659	0	0	0	0
0.7873356	-0.0001052632	-0.3225659	0	0	0	0
0.8040081	-0.0001052632	-0.3225659	0	0	0	0
0.8204674	-0.0001052632	-0.3225659	0	0	0	0
0.8371454	-0.0001052632	-0.3225659	0	0	0	0
0.8536016	-0.0001052632	-0.3225659	0	0	0	0
0.8702848	-0.0001052632	-0.3225659	0	0	0	0
0.8867327	-0.0001052632	-0.3225659	0	0	0	0
0.9033018	-0.0001052632	-0.3225659	0	0	0	0
0.9200623	-0.0001052632	-0.3225659	0	0	0	0
0.9364352	-0.0001052632	-0.3225659	0	0	0	0
0.9530016	-0.0001052632	-0.3225659	0	0	0	0
0.9698043	-0.0001052632	-0.3225659	0	0	0	0
0.9863939	-0.0001052632	-0.3225659	0	0	0	0
1.002928	-0.0001052632	-0.3225659	0	0	0	0
1.01927	-0.0001052632	-0.3225659	0	0	0	0
1.035835	-0.0001052632	-0.3225659	0	0	0	0
1.052401	-0.0001052632	-0.3225659	0	0	0	0
1.068973	-0.0001052632	-0.3225659	0	0	0	0
1.085534	-0.0001052632	-0.3225659	0	0	0	0
1.102102	-0.0001052632	-0.3225659	0	0	0	0
1.11867	-0.0001052632	-0.3225659	0	0	0	0
1.135233	-0.0001052632	-0.3225659	0	0	0	0
1.152033	-0.0001052632	-0.3225659	0	0	0	0
1.168371	-0.0001052632	-0.3225659	0	0	0	0
1.185128	-0.0001052632	-0.3225659	0	0	0	0
1.201508	-0.0001052632	-0.3225659	0	0	0	0
1.218073	-0.0001052632	-0.3225659	0	0	0	0
1.234637	-0.0001052632	-0.3225659	0	0	0	0
1.251203	-0.0001052632	-0.3225659	0	0	0	0
1.267769	-0.0001052632	-0.3225659	0	0	0	0
1.284737	-0.0001052632	-0.3225659	0	0	0	0
1.30131	-0.0001052632	-0.3225659	0	0	0	0
1.318377	-0.0001052632	-0.3225659	0	0	0	0
1.334438	-0.0001052632	-0.3225659	0	0	0	0
1.351008	-0.0001052632	-0.3225659	0	0	0	0
1.367574	-0.0001052632	-0.3225659	0	0	0	0
1.384138	-0.0001052632	-0.3225659	0	0	0	0
1.40096	-0.0001052632	-0.3225659	0	0	0	0
1.417511	-0.0001052632	-0.3225659	0	0	0	0
1.434568	-0.0001052632	-0.3225659	0	0	0	0
1.45061	-0.0001052632	-0.3225659	0	0	0	0
1.467638	-0.0001052632	-0.3225659	0	0	0	0
1.484147	-0.0001052632	-0.3225659	0	0	0	0
1.500232	-0.0001052632	-0.3225659	0	0	0	0
1.516673	-0.0001052632	-0.3225659	0	0	0	0
1.53324	-0.0001052632	-0.3225659	0	0	0	0
1.549924	-0.0001052632	-0.3225659	0	0	0	0
1.566373	-0.0001052632	-0.3225659	0	0	0	0
1.582938	-0.0001052632	-0.3225659	0	0	0	0
1.599505	-0.0001052632	-0.3225659	0	0	0	0
1.616291	-0.0001052632	-0.3225659	0	0	0	0
1.635407	-0.0001052632	-0.3225659	0	0	0	0
1.652416	-0.0001052632	-0.3225659	0	0	0	0
1.668548	-0.0001052632	-0.3225659	0	0	0	0
1.685114	-0.0001052632	-0.3225659	0	0	0	0
1.701681	-0.0001052632	-0.3225659	0	0	0	0
1.718249	-0.0001052632	-0.3225659	0	0	0	0
1.735034	-0.0001052632	-0.3225659	0	0	0	0
1.751382	-0.0001052632	-0.3225659	0	0	0	0
1.768268	-0.0001052632	-0.3225659	0	0	0	0
1.784509	-0.0001052632	-0.3225659	0	0	0	0
1.80108	-0.0001052632	-0.3225659	0	0	0	0
1.817755	-0.0001052632	-0.3225659	0	0	0	0
1.834241	-0.0001052632	-0.3225659	0	0	0	0
1.851278	-0.0001052632	-0.3225659	0	0	0	0
1.867815	-0.0001052632	-0.3225659	0	0	0	0
1.883909	-0.0001052632	-0.3225659	0	0	0	0
1.900595	-0.0001052632	-0.3225659	0	0	0	0
1.917044	-0.0001052632	-0.3225659	0	0	0	0
1.934382	-0.0001052632	-0.3225659	0	0	0	0
1.950177	-0.0001052632	-0.3225659	0	0	0	0
1.966905	-0.0001052632	-0.3225659	0	0	0	0
1.983466	-0.0008421051	-0.3218732	-0.0444922	0.04182832	-1.336545	1.256523
1.999876	-0.0008421051	-0.3218732	0	0	1.349428	-1.268634
2.016538	-0.0008421051	-0.3218732	0	0	0	0
2.033008	-0.001605262	-0.3210293	-0.04633697	0.05123844	-1.398553	1.54649
2.049574	-0.001605262	-0.3210293	0	0	1.402621	-1.550988
2.066143	-0.001605262	-0.3210293	0	0	0	0
2.082709	-0.0130782	-0.3111062	-0.6925479	0.598994	-20.90114	18.07767
2.099304	-0.0130782	-0.3111062	0	0	20.88385	-18.06273
2.115845	-0.0130782	-0.3111062	0	0	0	0
2.132427	-0.04743807	-0.2812597	-2.072146	1.799959	-62.56091	54.34322
2.148978	-0.04743807	-0.2812597	0	0	62.54065	-54.32562
2.165542	-0.04743807	-0.2812597	0	0	0	0
2.182452	-0.08220904	-0.2487599	-2.056228	1.921921	-61.42592	57.41376
2.19886	-0.08220904	-0.2487599	0	0	61.71559	-57.68451
2.215438	-0.08220904	-0.2487599	0	0	0	0
2.232195	-0.09943415	-0.2137381	-1.027935	2.089977	-30.83631	62.69578
2.248376	-0.09943415	-0.2137381	0	0	31.2084	-63.4523
2.264944	-0.09943415	-0.2137381	0	0	0	0
2.281508	-0.0826011	-0.172359	1.016264	2.498188	30.67335	75.40144
2.298096	-0.0826011	-0.172359	0	0	-30.65504	-75.35643
2.314644	-0.0826011	-0.172359	0	0	0	0
2.331293	-0.06483007	-0.138715	1.067423	2.020839	32.15451	60.87473
2.347878	-0.06483007	-0.138715	0	0	-32.11898	-60.80747
2.364783	-0.06483007	-0.138715	0	0	0	0
2.380911	-0.05646623	-0.1142136	0.5185897	1.519176	15.69908	45.98945
2.397795	-0.05646623	-0.1142136	0	0	-15.70871	-46.01768
2.414044	-0.05646623	-0.1142136	0	0	0	0
2.430935	-0.05633507	-0.09188726	0.007765192	1.321807	0.2343202	39.88648
2.447178	-0.05633507	-0.09188726	0	0	-0.2343556	-39.89251
2.463744	-0.05633507	-0.09188726	0	0	0	0
2.48162	-0.05704331	-0.07252119	-0.03962112	1.08339	-1.150382	31.45577
2.498188	-0.05704331	-0.07252119	0	0	1.150302	-31.45359
2.515045	-0.05704331	-0.07252119	0	0	0	0
2.531323	-0.06262852	-0.05735135	-0.3431181	0.9319349	-10.35525	28.12565
2.547889	-0.06262852	-0.05735135	0	0	10.44688	-28.37453
2.565059	-0.06262852	-0.05735135	0	0	0	0
2.581075	-0.08082355	-0.04405473	-1.136019	0.8301832	-34.23193	25.0161
2.59759	-0.08082355	-0.04405473	0	0	34.92136	-25.51993
2.614156	-0.08082355	-0.04405473	0	0	0	0
2.630721	-0.104903	-0.02648711	-1.453625	1.060521	-43.87459	32.00959
2.647516	-0.104903	-0.02648711	0	0	43.57357	-31.78998
2.663856	-0.104903	-0.02648711	0	0	0	0
2.680444	-0.1171973	-0.01752302	-0.7411912	0.5404201	-22.50995	16.41254
2.696989	-0.1171973	-0.01752302	0	0	22.37064	-16.31097
2.713556	-0.1171973	-0.01752302	0	0	0	0
2.730123	-0.1294303	-0.008602994	-0.738394	0.5384215	-22.28477	16.24959
2.74669	-0.1294303	-0.008602994	0	0	22.28526	-16.24994
2.763722	-0.1294303	-0.008602994	0	0	0	0
2.779821	-0.1299219	-0.00824444	-0.03053869	0.0222715	-0.9217457	0.672218
2.796725	-0.1299219	-0.00824444	0	0	0.9253415	-0.6748404
2.812956	-0.1299219	-0.00824444	0	0	0	0
2.829742	-0.1299219	-0.00824444	0	0	0	0
2.846086	-0.1299219	-0.00824444	0	0	0	0
2.862653	-0.1299219	-0.00824444	0	0	0	0
2.87922	-0.1299219	-0.00824444	0	0	0	0
2.895788	-0.1299219	-0.00824444	0	0	0	0
2.912354	-0.1299219	-0.00824444	0	0	0	0
2.928921	-0.1299219	-0.00824444	0	0	0	0
2.945486	-0.1299219	-0.00824444	0	0	0	0
2.962053	-0.1299219	-0.00824444	0	0	0	0
2.979044	-0.1299219	-0.00824444	0	0	0	0
2.995189	-0.1299219	-0.00824444	0	0	0	0
3.012007	-0.1299219	-0.00824444	0	0	0	0
3.029053	-0.129896	-0.00826331	0.001518442	-0.001107033	0.04483906	-0.03269031
3.044982	-0.129896	-0.00826331	0	0	-0.04604799	0.03357169
3.062251	-0.129896	-0.00826331	0	0	0	0
3.078021	-0.1298702	-0.008282181	0.001640311	-0.001196572	0.04964829	-0.03621737
3.094591	-0.1298702	-0.008282181	0	0	-0.05072035	0.03699942
3.111156	-0.1298702	-0.008282181	0	0	0	0
3.127722	-0.1298184	-0.008319922	0.003124055	-0.002278276	0.09429368	-0.06876542
3.144289	-0.1298184	-0.008319922	0	0	-0.09428961	0.06876246
3.160855	-0.1298184	-0.008319922	0	0	0	0
3.177676	-0.1297925	-0.008338792	0.001537873	-0.001121845	0.0460621	-0.03360132
3.193988	-0.1297925	-0.008338792	0	0	-0.0464151	0.03385882
3.210555	-0.1297925	-0.008338792	0	0	0	0
3.227121	-0.1296632	-0.008433147	0.007810364	-0.005695694	0.2357274	-0.1719038
3.243896	-0.1296632	-0.008433147	0	0	-0.2342609	0.1708343
3.260625	-0.1296632	-0.008433147	0	0	0	0
3.276823	-0.1295855	-0.008489762	0.004791982	-0.003495208	0.1455302	-0.1061478
3.29339	-0.1295855	-0.008489762	0	0	-0.1462535	0.1066753
3.310009	-0.1295855	-0.008489762	0	0	0	0
3.326521	-0.1295338	-0.008527505	0.003134296	-0.002285856	0.09460412	-0.06899522
3.343089	-0.1295338	-0.008527505	0	0	-0.09475004	0.06910164
3.35985	-0.1295338	-0.008527505	0	0	0	0
3.376252	-0.129482	-0.00856525	0.003155207	-0.002301221	0.09514289	-0.06939157
3.392789	-0.129482	-0.00856525	0	0	-0.09579023	0.06986371
3.409354	-0.129482	-0.00856525	0	0	0	0
3.425922	-0.129482	-0.008602994	0	-0.002278117	0	-0.06875567
3.442488	-0.129482	-0.008602994	0	0	0	0.06875567
3.459324	-0.129482	-0.008602994	0	0	0	0
3.475619	-0.1294561	-0.008621866	0.001588402	-0.001158152	0.0479422	-0.03495613
3.492186	-0.1294561	-0.008621866	0	0	-0.0483363	0.03524348
3.508754	-0.1294561	-0.008621866	0	0	0	0
3.525321	-0.1294561	-0.008621866	0	0	0	0
3.541937	-0.1294561	-0.008621866	0	0	0	0
3.558456	-0.1294561	-0.008621866	0	0	0	0
3.575022	-0.1294561	-0.008621866	0	0	0	0
3.591588	-0.1294561	-0.008621866	0	0	0	0
3.608155	-0.1294561	-0.008621866	0	0	0	0
3.625078	-0.1294561	-0.008621866	0	0	0	0
3.641288	-0.1294561	-0.008621866	0	0	0	0
3.657855	-0.1294561	-0.008621866	0	0	0	0
3.674876	-0.1294303	-0.008640739	0.001520632	-0.001108794	0.04527285	-0.03301146
3.691055	-0.1294303	-0.008640739	0	0	-0.04580148	0.03339691
3.707583	-0.1294303	-0.008640739	0	0	0	0
3.724586	-0.1294303	-0.008640739	0	0	0	0
3.740688	-0.1294303	-0.008640739	0	0	0	0
3.757607	-0.1294303	-0.008640739	0	0	0	0
3.774143	-0.1294303	-0.008640739	0	0	0	0
3.790388	-0.1294303	-0.008640739	0	0	0	0
3.807308	-0.1294303	-0.008640739	0	0	0	0
3.876618	-0.1291974	-0.008810596	0.003360104	-0.002450663	0.03896675	-0.02842006
3.893273	-0.1291974	-0.008810596	0	0	-0.03908703	0.02850779
3.909755	-0.1275925	-0.01016977	0.09736999	-0.08246487	2.938484	-2.488669
3.926322	-0.1275925	-0.01016977	0	0	-2.946158	2.495168
3.942888	-0.1275925	-0.01016977	0	0	0	0
3.959455	-0.1129124	-0.02303489	0.88608	-0.7765292	26.7431	-23.43671
3.976021	-0.1129124	-0.02303489	0	0	-26.74349	23.43705
3.992588	-0.1129124	-0.02303489	0	0	0	0
4.009153	-0.08006532	-0.05884743	1.982884	-2.161898	59.84743	-65.25043
4.025721	-0.08006532	-0.05884743	0	0	-59.84528	65.24808
4.042286	-0.08006532	-0.05884743	0	0	0	0
4.059144	-0.04299979	-0.1238868	2.198802	-3.858268	65.78813	-115.4394
4.075647	-0.04299979	-0.1238868	0	0	-65.91037	115.6539
4.092658	-0.04299979	-0.1238868	0	0	0	0
4.108552	-0.01844528	-0.1658471	1.544898	-2.640019	46.9508	-80.23248
4.125178	-0.01844528	-0.1658471	0	0	-47.50567	81.18067
4.141686	-0.01844528	-0.1658471	0	0	0	0
4.158254	-0.01023648	-0.1791311	0.4954693	-0.8017988	14.97981	-24.24125
4.174821	-0.01023648	-0.1791311	0	0	-14.95286	24.19764
4.19166	-0.01023648	-0.1791311	0	0	0	0
4.210828	-0.008789247	-0.1802383	0.07550134	-0.05776108	2.096856	-1.604166
4.227398	-0.008789247	-0.1802383	0	0	-2.112607	1.616216
4.243964	-0.008789247	-0.1802383	0	0	0	0
4.260531	-0.008815561	-0.1802181	-0.001588347	0.001215138	-0.04793849	0.03667452
4.277098	-0.008815561	-0.1802181	0	0	0.04793711	-0.03667346
4.293666	-0.008815561	-0.1802181	0	0	0	0
4.31023	-0.008789247	-0.1802383	0.001588622	-0.001215348	0.04794815	-0.03668191
4.326799	-0.008789247	-0.1802383	0	0	-0.04794608	0.03668033
4.343366	-0.008789247	-0.1802383	0	0	0	0
4.359931	-0.008762933	-0.1802584	0.001588474	-0.001216177	0.0479437	-0.03670695
4.376498	-0.008762933	-0.1802584	0	0	-0.0479437	0.03670695
4.393224	-0.008762933	-0.1802584	0	0	0	0
4.409632	-0.008552423	-0.1804195	0.01282941	-0.009816992	0.3871978	-0.2962817
4.426326	-0.008552423	-0.1804195	0	0	-0.3875715	0.2965676
4.443018	-0.008552423	-0.1804195	0	0	0	0
4.459332	-0.008184028	-0.1808223	0.0225828	-0.02469144	0.6842087	-0.7480958
4.4759	-0.008184028	-0.1808223	0	0	-0.6867884	0.7509164
4.492466	-0.008184028	-0.1808223	0	0	0	0
4.509032	-0.008789247	-0.183664	-0.03653425	-0.1715399	-1.102701	-5.177533
4.525599	-0.008789247	-0.183664	0	0	1.102654	5.177309
4.542165	-0.008789247	-0.183664	0	0	0	0
4.558731	-0.03779778	-0.2061035	-1.751059	-1.35453	-52.85088	-40.88272
4.575299	-0.03779778	-0.2061035	0	0	52.84784	40.88037
4.592232	-0.03779778	-0.2061035	0	0	0	0
4.608932	-0.07373451	-0.2342075	-2.151988	-1.682943	-63.98489	-50.0388
4.624997	-0.07373451	-0.2342075	0	0	65.67966	51.36418
4.642468	-0.07373451	-0.2342075	0	0	0	0
4.658133	-0.08463941	-0.242839	-0.6961715	-0.5510388	-21.00989	-16.62991
4.675	-0.08463941	-0.242839	0	0	21.39976	16.9385
4.691266	-0.08463941	-0.242839	0	0	0	0
4.707849	-0.08466554	-0.2428183	-0.00157571	0.001250863	-0.0479692	0.03807991
4.7244	-0.08466554	-0.2428183	0	0	0.04755638	-0.0377522
4.740965	-0.08466554	-0.2428183	0	0	0	0
4.757533	-0.08463941	-0.2427975	0.001577115	0.001251979	0.04759881	0.03778588
4.774099	-0.08463941	-0.2427975	0	0	-0.04759881	-0.03778588
4.790666	-0.08463941	-0.2427975	0	0	0	0
4.80723	-0.08463941	-0.2427975	0	0	0	0
4.8238	-0.08463941	-0.2427975	0	0	0	0
4.840365	-0.08463941	-0.2427975	0	0	0	0
4.856968	-0.08466554	-0.2428183	-0.001573764	-0.001249318	-0.0474478	-0.037666
4.873499	-0.08466554	-0.2428183	0	0	0.04749696	0.03770503
4.890204	-0.08466554	-0.2428183	0	0	0	0
4.906633	-0.08463941	-0.242839	0.001590482	-0.00126259	0.04800222	-0.03810612
4.923446	-0.08463941	-0.242839	0	0	-0.04784592	0.03798205
4.939766	-0.08463941	-0.242839	0	0	0	0
4.956333	-0.08463941	-0.242839	0	0	0	0
4.9729	-0.08463941	-0.242839	0	0	0	0
4.989466	-0.08463941	-0.242839	0	0	0	0
5.006098	-0.08463941	-0.242839	0	0	0	0
5.022996	-0.08463941	-0.242839	0	0	0	0
5.039166	-0.08463941	-0.242839	0	0	0	0
5.055733	-0.08461329	-0.2428598	0.001576756	-0.00125295	0.04816468	-0.03827348
5.073026	-0.08461329	-0.2428598	0	0	-0.04656797	0.03700466
5.089443	-0.08461329	-0.2428598	0	0	0	0
5.105464	-0.08458716	-0.2428805	0.001630956	-0.00129472	0.0502795	-0.03991392
5.122424	-0.08458716	-0.2428805	0	0	-0.04945152	0.03925664
5.138566	-0.08458716	-0.2428805	0	0	0	0
5.15513	-0.08458716	-0.242922	0	-0.00250439	0	-0.07657107
5.1717	-0.08458716	-0.242922	0	0	0	0.07558373
5.188441	-0.08458716	-0.242922	0	0	0	0
5.204949	-0.08458716	-0.242922	0	0	0	0
5.221462	-0.08458716	-0.242922	0	0	0	0
5.237965	-0.08458716	-0.242922	0	0	0	0
5.254531	-0.08456103	-0.2429428	0.001577206	-0.001252051	0.04769421	-0.03786161
5.271098	-0.08456103	-0.2429428	0	0	-0.04760223	0.0377886
5.287665	-0.08456103	-0.2429428	0	0	0	0
5.304231	-0.08458716	-0.2429635	-0.001577297	-0.001252123	-0.04760429	-0.03779023
5.320798	-0.08458716	-0.2429635	0	0	0.04760566	0.03779132
5.337715	-0.08458716	-0.2429635	0	0	0	0
5.35393	-0.08458716	-0.2429635	0	0	0	0
5.370616	-0.08458716	-0.2429635	0	0	0	0
5.387065	-0.08458716	-0.2429635	0	0	0	0
5.40363	-0.08458716	-0.243005	0	-0.002505217	0	-0.0758839
5.420529	-0.08458716	-0.243005	0	0	0	0.07486315
5.436766	-0.08458716	-0.243005	0	0	0	0
5.453329	-0.08458716	-0.243005	0	0	0	0
5.469898	-0.08458716	-0.243005	0	0	0	0
5.486682	-0.08458716	-0.243005	0	0	0	0
5.503697	-0.08458716	-0.243005	0	0	0	0
5.519598	-0.08458716	-0.243005	0	0	0	0
5.536163	-0.08458716	-0.243005	0	0	0	0
5.552779	-0.08461329	-0.2430257	-0.001572499	-0.001248314	-0.0473906	-0.03762059
5.569298	-0.08461329	-0.2430257	0	0	0.04745743	0.03767365
5.586004	-0.08461329	-0.2430257	0	0	0	0
5.602428	-0.08461329	-0.2430257	0	0	0	0
5.619036	-0.08461329	-0.2430257	0	0	0	0
5.635717	-0.08461329	-0.2430257	0	0	0	0
5.652132	-0.08461329	-0.2430257	0	0	0	0
5.668698	-0.08461329	-0.2430257	0	0	0	0
5.685603	-0.08461329	-0.2430257	0	0	0	0
5.701831	-0.08461329	-0.2430257	0	0	0	0
5.718398	-0.08461329	-0.2430257	0	0	0	0
5.735197	-0.08461329	-0.2430257	0	0	0	0
5.751755	-0.08461329	-0.2430257	0	0	0	0
5.768098	-0.08461329	-0.2430257	0	0	0	0
5.784805	-0.08461329	-0.2430257	0	0	0	0
5.801242	-0.08461329	-0.2430257	0	0	0	0
5.817798	-0.08461329	-0.2430257	0	0	0	0
5.834366	-0.08461329	-0.2430257	0	0	0	0
5.850931	-0.08461329	-0.2430257	0	0	0	0
5.8675	-0.08461329	-0.2430257	0	0	0	0
5.884869	-0.08461329	-0.2430257	0	0	0	0
5.900631	-0.08461329	-0.2430257	0	0	0	0
5.917661	-0.08461329	-0.2430257	0	0	0	0
5.934313	-0.08461329	-0.2430257	0	0	0	0
5.950333	-0.08461329	-0.2430257	0	0	0	0
5.96692	-0.08461329	-0.2430257	0	0	0	0
5.983468	-0.08461329	-0.2430257	0	0	0	0
6.000035	-0.08461329	-0.2430257	0	0	0	0
6.016673	-0.08461329	-0.2430257	0	0	0	0
6.033169	-0.08461329	-0.2430257	0	0	0	0
6.049732	-0.08461329	-0.2430257	0	0	0	0
6.066302	-0.08461329	-0.2430257	0	0	0	0
6.082865	-0.08461329	-0.2430257	0	0	0	0
6.09993	-0.08461329	-0.2430257	0	0	0	0
6.115998	-0.08461329	-0.2430257	0	0	0	0
6.132565	-0.08461329	-0.2430257	0	0	0	0
6.149133	-0.08461329	-0.2430257	0	0	0	0
6.165698	-0.08461329	-0.2430257	0	0	0	0
6.182265	-0.08461329	-0.2430257	0	0	0	0
6.200649	-0.08461329	-0.2430257	0	0	0	0
6.217219	-0.08461329	-0.2430257	0	0	0	0
6.233786	-0.08461329	-0.2430257	0	0	0	0
6.250354	-0.08461329	-0.2430257	0	0	0	0
6.266924	-0.08461329	-0.2430257	0	0	0	0
6.284299	-0.08461329	-0.2430257	0	0	0	0
6.300052	-0.08461329	-0.2430257	0	0	0	0
6.316858	-0.08461329	-0.2430257	0	0	0	0
6.333191	-0.08461329	-0.2430257	0	0	0	0
6.349867	-0.08461329	-0.2430257	0	0	0	0
6.366391	-0.08461329	-0.2430257	0	0	0	0
6.382927	-0.08461329	-0.2430257	0	0	0	0
6.399452	-0.08461329	-0.2430257	0	0	0	0
6.416019	-0.08461329	-0.2430257	0	0	0	0
6.432586	-0.08461329	-0.2430257	0	0	0	0
6.449152	-0.08461329	-0.2430257	0	0	0	0
6.465955	-0.08461329	-0.2430257	0	0	0	0
6.482285	-0.08461329	-0.2430257	0	0	0	0
6.49885	-0.08461329	-0.2430257	0	0	0	0
6.515416	-0.08461329	-0.2430257	0	0	0	0
6.531987	-0.08461329	-0.2430257	0	0	0	0
6.548551	-0.08461329	-0.2430257	0	0	0	0
6.565117	-0.08461329	-0.2430257	0	0	0	0
6.581683	-0.08461329	-0.2430257	0	0	0	0
6.598712	-0.08461329	-0.2430257	0	0	0	0
6.614819	-0.08461329	-0.2430257	0	0	0	0
6.631385	-0.08461329	-0.2430257	0	0	0	0
6.647953	-0.08461329	-0.2430257	0	0	0	0
6.66452	-0.08461329	-0.2430257	0	0	0	0
6.681087	-0.08461329	-0.2430257	0	0	0	0
6.697873	-0.08461329	-0.2430257	0	0	0	0
6.71422	-0.08461329	-0.2430257	0	0	0	0
6.73121	-0.08461329	-0.2430257	0	0	0	0
6.747353	-0.08461329	-0.2430257	0	0	0	0
6.76392	-0.08461329	-0.2430257	0	0	0	0
6.781094	-0.08461329	-0.2430257	0	0	0	0
6.797051	-0.08461329	-0.2430257	0	0	0	0
6.813706	-0.08461329	-0.2430257	0	0	0	0
6.830188	-0.08461329	-0.2430257	0	0	0	0
6.854027	-0.08461329	-0.2430257	0	0	0	0
6.870648	-0.08461329	-0.2430257	0	0	0	0
6.88716	-0.08461329	-0.2430257	0	0	0	0
6.903816	-0.08461329	-0.2430257	0	0	0	0
6.920429	-0.08461329	-0.2430257	0	0	0	0
6.936862	-0.08461329	-0.2430257	0	0	0	0
6.95343	-0.08461329	-0.2430257	0	0	0	0
6.969997	-0.08461329	-0.2430257	0	0	0	0
6.987055	-0.08461329	-0.2430257	0	0	0	0
7.00313	-0.08461329	-0.2430257	0	0	0	0
7.019697	-0.08461329	-0.2430257	0	0	0	0
7.036263	-0.08461329	-0.2430257	0	0	0	0
7.05283	-0.08461329	-0.2430257	0	0	0	0
7.069397	-0.08461329	-0.2430257	0	0	0	0
7.085964	-0.08461329	-0.2430257	0	0	0	0
7.102607	-0.08461329	-0.2430257	0	0	0	0
7.119098	-0.08461329	-0.2430257	0	0	0	0
7.135664	-0.08461329	-0.2430257	0	0	0	0
7.153058	-0.08461329	-0.2430257	0	0	0	0
7.168797	-0.08461329	-0.2430257	0	0	0	0
7.185469	-0.08461329	-0.2430257	0	0	0	0
7.20257	-0.08461329	-0.2430257	0	0	0	0
7.218498	-0.08461329	-0.2430257	0	0	0	0
7.23541	-0.08461329	-0.2430257	0	0	0	0
7.251977	-0.08461329	-0.2430257	0	0	0	0
7.268231	-0.08461329	-0.2430257	0	0	0	0
7.28483	-0.08461329	-0.2430257	0	0	0	0
7.301717	-0.08461329	-0.2430257	0	0	0	0
7.317899	-0.08461329	-0.2430257	0	0	0	0
7.340014	-0.08461329	-0.2430257	0	0	0	0
7.356995	-0.08461329	-0.2430257	0	0	0	0
7.373151	-0.08461329	-0.2430257	0	0	0	0
7.389718	-0.08461329	-0.2430257	0	0	0	0
7.406284	-0.08461329	-0.2430257	0	0	0	0
7.422849	-0.08461329	-0.2430257	0	0	0	0
7.439604	-0.08461329	-0.2430257	0	0	0	0
7.456252	-0.08461329	-0.2430257	0	0	0	0
7.472548	-0.08461329	-0.2430257	0	0	0	0
7.489693	-0.08461329	-0.2430257	0	0	0	0
7.505684	-0.08461329	-0.2430257	0	0	0	0
7.522249	-0.08461329	-0.2430257	0	0	0	0
7.538818	-0.08461329	-0.2430257	0	0	0	0
7.555382	-0.08461329	-0.2430257	0	0	0	0
7.571949	-0.08461329	-0.2430257	0	0	0	0
7.588518	-0.08461329	-0.2430257	0	0	0	0
7.605274	-0.08461329	-0.2430257	0	0	0	0
7.621779	-0.08461329	-0.2430257	0	0	0	0
7.638217	-0.08461329	-0.2430257	0	0	0	0
7.654853	-0.08461329	-0.2430257	0	0	0	0
7.671349	-0.08461329	-0.2430257	0	0	0	0
7.687916	-0.08461329	-0.2430257	0	0	0	0
7.704484	-0.08461329	-0.2430257	0	0	0	0
7.721051	-0.08461329	-0.2430257	0	0	0	0
7.737618	-0.08461329	-0.2430257	0	0	0	0
7.754184	-0.08461329	-0.2430257	0	0	0	0
7.771336	-0.08463941	-0.2430465	-0.001523013	-0.001209375	-0.04517027	-0.03586823
7.787318	-0.08463941	-0.2430465	0	0	0.04596528	0.03649953
7.803885	-0.08463941	-0.2430465	0	0	0	0
7.820451	-0.08484843	-0.2432125	-0.01261748	-0.01001968	-0.3808181	-0.302412
7.837137	-0.08484843	-0.2432125	0	0	0.3794529	0.3013278
7.853584	-0.08484843	-0.2432125	0	0	0	0
7.870151	-0.08524032	-0.2434822	-0.02365608	-0.01628163	-0.7165507	-0.493176
7.886716	-0.08524032	-0.2434822	0	0	0.7140034	0.4914229
7.903441	-0.08524032	-0.2434822	0	0	0	0
7.920426	-0.09541987	-0.2512998	-0.599328	-0.4602672	-17.77868	-13.65353
7.936419	-0.09541987	-0.2512998	0	0	18.17406	13.95718
7.952984	-0.09541987	-0.2512998	0	0	0	0
7.969551	-0.1311637	-0.278067	-2.157562	-1.615718	-65.11911	-48.76526
7.986116	-0.1311637	-0.278067	0	0	65.12004	48.76596
8.002956	-0.1311637	-0.278067	0	0	0	0
8.01925	-0.1770732	-0.3016875	-2.817652	-1.449689	-85.03934	-43.75296
8.036441	-0.1770732	-0.3016875	0	0	84.14805	43.29438
8.052385	-0.1770732	-0.3016875	0	0	0	0
8.068952	-0.2268181	-0.3135818	-3.002782	-0.7179782	-92.36272	-22.08433
8.085977	-0.2268181	-0.3135818	0	0	89.39174	21.37395
8.102087	-0.2268181	-0.3135818	0	0	0	0
8.118649	-0.2593899	-0.3217866	-1.966608	-0.49539	-60.19083	-15.16211
8.135265	-0.2593899	-0.3217866	0	0	59.27386	14.93113
8.151861	-0.2593899	-0.3217866	0	0	0	0
8.16835	-0.266065	-0.327553	-0.4048185	-0.3497108	-12.23576	-10.57011
8.185916	-0.266065	-0.327553	0	0	11.88728	10.26907
8.202036	-0.266065	-0.327553	0	0	0	0
8.218115	-0.2733259	-0.3340142	-0.4515792	-0.4018424	-14.02467	-12.48
8.234618	-0.2733259	-0.3340142	0	0	13.85965	12.33316
8.251185	-0.2733259	-0.3340142	0	0	0	0
8.268655	-0.2830583	-0.342755	-0.5571091	-0.5003446	-16.36793	-14.70018
8.285225	-0.2830583	-0.342755	0	0	16.36655	14.69894
8.301791	-0.2830583	-0.342755	0	0	0	0
8.31865	-0.2855798	-0.3435877	-0.1495644	-0.04939225	-4.474583	-1.477689
8.334924	-0.2855798	-0.3435877	0	0	4.514123	1.490747
8.35149	-0.2855798	-0.3435877	0	0	0	0
8.368483	-0.3204316	-0.3118378	-2.051	1.868458	-61.11653	55.67707
8.384624	-0.3204316	-0.3118378	0	0	61.89931	-56.39018
8.401441	-0.3204316	-0.3118378	0	0	0	0
8.417757	-0.3545882	-0.2796309	-2.093394	1.973892	-63.18239	59.5756
8.434572	-0.3545882	-0.2796309	0	0	63.1842	-59.57731
8.45089	-0.3545882	-0.2796309	0	0	0	0
8.467517	-0.3547965	-0.2793984	-0.01252509	0.01398588	-0.3801856	0.4245261
8.484022	-0.3547965	-0.2793984	0	0	0.3780298	-0.4221189
8.500822	-0.3547965	-0.2793984	0	0	0	0
8.517155	-0.3548428	-0.2793984	-0.002833776	0	-0.08552846	0
8.533724	-0.3548428	-0.2793984	0	0	0.0861284	0
8.550289	-0.3548428	-0.2793984	0	0	0	0
8.566855	-0.3548428	-0.2793984	0	0	0	0
8.583425	-0.3548428	-0.2793984	0	0	0	0
8.600091	-0.3548428	-0.2793984	0	0	0	0
8.616554	-0.3548196	-0.2794195	0.001406549	-0.001283453	0.04245583	-0.03874027
8.633687	-0.3548196	-0.2794195	0	0	-0.0418665	0.03820251
8.650266	-0.3548196	-0.2794195	0	0	0	0
8.666262	-0.3548196	-0.2794195	0	0	0	0
8.682827	-0.3548196	-0.2794195	0	0	0	0
8.699552	-0.3548196	-0.2794195	0	0	0	0
8.715958	-0.3547734	-0.2794195	0.002819276	0	0.0850957	0
8.732529	-0.3547734	-0.2794195	0	0	-0.08549191	0
8.749096	-0.3547734	-0.2794195	0	0	0	0
8.765657	-0.3547271	-0.2794618	0.002794613	-0.002553481	0.08435616	-0.07707752
8.782228	-0.3547271	-0.2794618	0	0	-0.08434887	0.07707086
8.799026	-0.3547271	-0.2794618	0	0	0	0
8.815355	-0.3546808	-0.2795041	0.002834438	-0.00258987	0.08556075	-0.07817817
8.831923	-0.3546808	-0.2795041	0	0	-0.0861635	0.07872891
8.848489	-0.3546808	-0.2795041	0	0	0	0
8.865055	-0.3546345	-0.2795464	0.002793809	-0.002552746	0.08432217	-0.07704646
8.881619	-0.3546345	-0.2795464	0	0	-0.08432702	0.07705089
8.898189	-0.3546345	-0.2795464	0	0	0	0
8.915102	-0.3546114	-0.2795675	0.001369115	-0.001249295	0.0408904	-0.03731183
8.931334	-0.3546114	-0.2795675	0	0	-0.04130689	0.03769187
8.947886	-0.3546114	-0.2795675	0	0	0	0
8.964795	-0.3545882	-0.2795886	0.001367738	-0.001249647	0.0408749	-0.03734575
8.981018	-0.3545882	-0.2795886	0	0	-0.04128199	0.03771769
8.997588	-0.3545882	-0.2795886	0	0	0	0
9.01415	-0.3545651	-0.2796098	0.001398206	-0.00127764	0.04220159	-0.03856259
9.030778	-0.3545651	-0.2796098	0	0	-0.04212762	0.038495
9.047338	-0.3545651	-0.2796098	0	0	0	0
9.072727	-0.3545419	-0.2795886	0.0009120404	0.0008333959	0.02174151	0.01986676
9.089295	-0.3545419	-0.2795886	0	0	-0.02173706	-0.01986269
9.105919	-0.3545188	-0.2795675	0.0013912	0.001271083	0.0419141	0.03829523
9.122431	-0.3545188	-0.2795675	0	0	-0.04198528	-0.03836026
9.138997	-0.3545188	-0.2795675	0	0	0	0
9.155813	-0.3544494	-0.2795886	0.004129332	-0.001256522	0.1236978	-0.03764023
9.172131	-0.3544494	-0.2795886	0	0	-0.1246271	0.037923
9.188981	-0.3544494	-0.2795886	0	0	0	0
9.205261	-0.3542642	-0.2795041	0.01137529	0.005193383	0.3433463	0.1567547
9.221867	-0.3542642	-0.2795041	0	0	-0.3459053	-0.157923
9.238398	-0.3542642	-0.2795041	0	0	0	0
9.254964	-0.3539169	-0.2792293	0.02096166	0.01659015	0.6333351	0.5012544
9.271751	-0.3539169	-0.2792293	0	0	-0.6284639	-0.497399
9.318302	-0.3539169	-0.2792293	0	0	0	0
9.335629	-0.3494871	-0.2763777	0.2556552	0.1645695	4.002238	2.576306
9.352199	-0.3494871	-0.2763777	0	0	-7.542243	-4.855065
9.369052	-0.3494871	-0.2763777	0	0	0	0
9.387961	-0.3345398	-0.2635882	0.7904652	0.6763557	22.10301	18.91228
9.405039	-0.3345398	-0.2635882	0	0	-21.96536	-18.7945
9.421097	-0.3345398	-0.2635882	0	0	0	0
9.437986	-0.3214031	-0.2519457	0.7777985	0.6893281	23.60718	20.92199
9.454231	-0.3214031	-0.2519457	0	0	-23.47401	-20.80396
9.470798	-0.3214031	-0.2519457	0	0	0	0
9.487676	-0.2992126	-0.2326177	1.314753	1.145153	39.3116	34.24051
9.504212	-0.2992126	-0.2326177	0	0	-39.34638	-34.2708
9.520785	-0.2992126	-0.2326177	0	0	0	0
9.537062	-0.2673139	-0.205696	1.959816	1.654036	59.66081	50.35223
9.553631	-0.2673139	-0.205696	0	0	-59.66774	-50.35808
9.570197	-0.2673139	-0.205696	0	0	0	0
9.586763	-0.2333791	-0.1778836	2.048428	1.678854	61.82523	50.67083
9.603328	-0.2333791	-0.1778836	0	0	-61.82878	-50.67375
9.620521	-0.2333791	-0.1778836	0	0	0	0
9.636461	-0.209335	-0.1586954	1.508347	1.203726	45.5233	36.32957
9.653485	-0.209335	-0.1586954	0	0	-45.75641	-36.5156
9.669693	-0.209335	-0.1586954	0	0	0	0
9.686161	-0.2026784	-0.1536347	0.4042159	0.307308	12.37052	9.404774
9.70273	-0.2026784	-0.1536347	0	0	-12.23518	-9.301881
9.719296	-0.2026784	-0.1536347	0	0	0	0
9.735864	-0.2017692	-0.1543513	0.05487638	-0.04325477	1.65622	-1.305469
9.752929	-0.2017692	-0.1543513	0	0	-1.631658	1.286109
9.768996	-0.2017692	-0.1543513	0	0	0	0
9.785561	-0.2011629	-0.1548292	0.03660167	-0.02884899	1.121654	-0.884074
9.802228	-0.2011629	-0.1548292	0	0	-1.101407	0.8681157
9.818696	-0.2011629	-0.1548292	0	0	0	0
9.835262	-0.1895646	-0.1639672	0.7001153	-0.5516027	21.19357	-16.69787
9.851829	-0.1895646	-0.1639672	0	0	-21.13074	16.64836
9.868395	-0.1895646	-0.1639672	0	0	0	0
9.88497	-0.1507939	-0.1945	2.339128	-1.842119	70.5808	-55.58407
9.901529	-0.1507939	-0.1945	0	0	-70.59502	55.59527
9.918097	-0.1507939	-0.1945	0	0	0	0
9.935039	-0.1063082	-0.2299158	2.62576	-2.090412	78.35926	-62.38313
9.95123	-0.1063082	-0.2299158	0	0	-79.24789	63.09058
9.967816	-0.1063082	-0.2299158	0	0	0	0
9.984363	-0.06784309	-0.2611368	2.324705	-1.886892	70.16376	-56.94979
10.00093	-0.06784309	-0.2611368	0	0	-70.2062	56.98424
10.01761	-0.06784309	-0.2611368	0	0	0	0
10.03406	-0.05806623	-0.2690048	0.5941337	-0.4781331	17.93099	-14.43009
10.05063	-0.05806623	-0.2690048	0	0	-17.9921	14.47926
10.0672	-0.05806623	-0.2690048	0	0	0	0
10.08376	-0.05838095	-0.2692571	-0.01900091	-0.01523276	-0.5735146	-0.4597784
10.10046	-0.05838095	-0.2692571	0	0	0.5712946	0.4579986
10.1169	-0.05838095	-0.2692571	0	0	0	0
10.13346	-0.05861698	-0.2694464	-0.0142487	-0.01142415	-0.4317042	-0.3461265
10.15006	-0.05861698	-0.2694464	0	0	0.4297052	0.3445238
10.1666	-0.05861698	-0.2694464	0	0	0	0
10.187	-0.05872189	-0.2695726	-0.005140725	-0.006183694	-0.1391405	-0.1673698
10.20357	-0.05872189	-0.2695726	0	0	0.1390328	0.1672403
10.22014	-0.05893168	-0.2697408	-0.01266411	-0.01015701	-0.3821926	-0.3065305
10.2367	-0.05893168	-0.2697408	0	0	0.3822146	0.3065481
10.25394	-0.05893168	-0.2697408	0	0	0	0
10.27071	-0.05929882	-0.2700353	-0.02188193	-0.01755137	-0.6434162	-0.5160804
10.28757	-0.05929882	-0.2700353	0	0	0.650549	0.5218017
10.30385	-0.05929882	-0.2700353	0	0	0	0
10.32053	-0.06189452	-0.272119	-0.1556113	-0.124916	-4.721362	-3.790045
10.33698	-0.06189452	-0.272119	0	0	4.696358	3.769973
10.35359	-0.06189452	-0.272119	0	0	0	0
10.37033	-0.06213046	-0.2723085	-0.01409736	-0.01132543	-0.4227579	-0.3396321
10.38668	-0.06213046	-0.2723085	0	0	0.4260354	0.3422652
10.40363	-0.06213046	-0.2723085	0	0	0	0
10.41982	-0.06213046	-0.2723085	0	0	0	0
10.43639	-0.06213046	-0.2723085	0	0	0	0
10.45295	-0.06213046	-0.2723085	0	0	0	0
10.46952	-0.06213046	-0.2723085	0	0	0	0
10.48608	-0.06213046	-0.2723085	0	0	0	0
10.50301	-0.06213046	-0.2723085	0	0	0	0
10.51936	-0.06213046	-0.2723085	0	0	0	0
10.53578	-0.06213046	-0.2723085	0	0	0	0
10.55281	-0.06213046	-0.2723085	0	0	0	0
10.56892	-0.06213046	-0.2723085	0	0	0	0
10.58549	-0.06213046	-0.2723085	0	0	0	0
10.60205	-0.06213046	-0.2723085	0	0	0	0
10.61862	-0.06213046	-0.2723085	0	0	0	0
10.63562	-0.06213046	-0.2723085	0	0	0	0
10.65175	-0.06213046	-0.2723085	0	0	0	0
10.66832	-0.06213046	-0.2723085	0	0	0	0
10.68489	-0.06213046	-0.2723085	0	0	0	0
10.70145	-0.06213046	-0.2723085	0	0	0	0
10.71868	-0.06213046	-0.2723085	0	0	0	0
10.73459	-0.06213046	-0.2723085	0	0	0	0
10.75119	-0.06213046	-0.2723085	0	0	0	0
10.76772	-0.06213046	-0.2723085	0	0	0	0
10.78428	-0.06213046	-0.2723085	0	0	0	0
10.80122	-0.06213046	-0.2723085	0	0	0	0
10.81774	-0.06213046	-0.2723085	0	0	0	0
10.83398	-0.06213046	-0.2723085	0	0	0	0
10.85055	-0.06213046	-0.2723085	0	0	0	0
10.86712	-0.06213046	-0.2723085	0	0	0	0
10.88368	-0.06213046	-0.2723085	0	0	0	0
10.90025	-0.06213046	-0.2723085	0	0	0	0
10.91907	-0.06213046	-0.2723085	0	0	0	0
10.93564	-0.06213046	-0.2723085	0	0	0	0
10.95221	-0.06213046	-0.2723085	0	0	0	0
10.96877	-0.06213046	-0.2723085	0	0	0	0
10.98534	-0.06213046	-0.2723085	0	0	0	0
11.00254	-0.06213046	-0.2723085	0	0	0	0
11.01873	-0.06213046	-0.2723085	0	0	0	0
11.03504	-0.06213046	-0.2723085	0	0	0	0
11.05188	-0.06213046	-0.2723085	0	0	0	0
11.06817	-0.06213046	-0.2723085	0	0	0	0
11.08503	-0.06213046	-0.2723085	0	0	0	0
11.10131	-0.06213046	-0.2723085	0	0	0	0
11.11797	-0.06213046	-0.2723085	0	0	0	0
11.13444	-0.06213046	-0.2723085	0	0	0	0
11.15113	-0.06213046	-0.2723085	0	0	0	0
11.16757	-0.06213046	-0.2723085	0	0	0	0
11.18414	-0.06213046	-0.2723085	0	0	0	0
11.20075	-0.06213046	-0.2723085	0	0	0	0
11.21727	-0.06213046	-0.2723085	0	0	0	0
11.23384	-0.06213046	-0.2723085	0	0	0	0
11.25075	-0.06213046	-0.2723085	0	0	0	0
11.27376	-0.06213046	-0.2723085	0	0	0	0
11.29034	-0.06213046	-0.2723085	0	0	0	0
11.3069	-0.06213046	-0.2723085	0	0	0	0
11.32347	-0.06213046	-0.2723085	0	0	0	0
11.34003	-0.06213046	-0.2723085	0	0	0	0
11.35668	-0.06213046	-0.2723085	0	0	0	0
11.37317	-0.06213046	-0.2723085	0	0	0	0
11.38988	-0.06213046	-0.2723085	0	0	0	0
11.4063	-0.06213046	-0.2723085	0	0	0	0
11.42308	-0.06213046	-0.2723085	0	0	0	0
11.43956	-0.06213046	-0.2723085	0	0	0	0
11.456	-0.06213046	-0.2723085	0	0	0	0
11.47257	-0.06213046	-0.2723085	0	0	0	0
11.48913	-0.06213046	-0.2723085	0	0	0	0
11.5057	-0.06213046	-0.2723085	0	0	0	0
11.52227	-0.06213046	-0.2723085	0	0	0	0
11.5392	-0.06213046	-0.2723085	0	0	0	0
11.5554	-0.06213046	-0.2723085	0	0	0	0
11.57197	-0.06213046	-0.2723085	0	0	0	0
11.58896	-0.06213046	-0.2723085	0	0	0	0
11.6167	-0.06215667	-0.2722875	-0.0009448418	0.0007594181	-0.02112043	0.01697558
11.63328	-0.06215667	-0.2722875	0	0	0.02132042	-0.01713632
11.64984	-0.06218288	-0.2722664	-0.001582472	0.001270296	-0.0477591	0.03833761
11.66641	-0.06218288	-0.2722664	0	0	0.04776185	-0.03833982
11.68297	-0.06218288	-0.2722664	0	0	0	0
11.6996	-0.06223531	-0.2722243	-0.003153953	0.002534995	-0.09502787	0.0763788
11.7164	-0.06223531	-0.2722243	0	0	0.09435818	-0.07584054
11.73273	-0.06223531	-0.2722243	0	0	0	0
11.74967	-0.06223531	-0.2722243	0	0	0	0
11.76587	-0.06223531	-0.2722243	0	0	0	0
11.7826	-0.06223531	-0.2722243	0	0	0	0
11.799	-0.06223531	-0.2722243	0	0	0	0
11.81562	-0.06223531	-0.2722243	0	0	0	0
11.83214	-0.06223531	-0.2722243	0	0	0	0
11.8487	-0.06226153	-0.2722032	-0.001583062	0.001270589	-0.0478623	0.03841499
11.86527	-0.06226153	-0.2722032	0	0	0.04778927	-0.03835637
11.88183	-0.06226153	-0.2722032	0	0	0	0
11.89852	-0.06226153	-0.2722032	0	0	0	0
11.91497	-0.06226153	-0.2722032	0	0	0	0
11.93198	-0.06226153	-0.2722032	0	0	0	0
11.9481	-0.06226153	-0.2722032	0	0	0	0
11.96513	-0.06226153	-0.2722032	0	0	0	0
11.98169	-0.06226153	-0.2722032	0	0	0	0
11.99781	-0.06226153	-0.2722032	0	0	0	0
12.01438	-0.06226153	-0.2722032	0	0	0	0
12.03094	-0.06226153	-0.2722032	0	0	0	0
12.0475	-0.06226153	-0.2722032	0	0	0	0
12.06407	-0.06226153	-0.2722032	0	0	0	0
12.08081	-0.06226153	-0.2722032	0	0	0	0
12.09733	-0.06223531	-0.2721822	0.001586717	0.001275326	0.04769776	0.03833715
12.11393	-0.06223531	-0.2721822	0	0	-0.04790789	-0.03850604
12.13041	-0.06223531	-0.2721822	0	0	0	0
12.1469	-0.06223531	-0.2721822	0	0	0	0
12.16358	-0.06223531	-0.2721822	0	0	0	0
12.18003	-0.06223531	-0.2721822	0	0	0	0
12.1966	-0.06223531	-0.2721822	0	0	0	0
12.21316	-0.06223531	-0.2721822	0	0	0	0
12.22973	-0.06223531	-0.2721822	0	0	0	0
12.2463	-0.06223531	-0.2721822	0	0	0	0
12.26292	-0.06223531	-0.2721822	0	0	0	0
12.27943	-0.06223531	-0.2721822	0	0	0	0
12.296	-0.06223531	-0.2721822	0	0	0	0
12.31256	-0.06223531	-0.2721822	0	0	0	0
12.32938	-0.06223531	-0.2721822	0	0	0	0
12.3457	-0.06223531	-0.2721822	0	0	0	0
12.36227	-0.06223531	-0.2721822	0	0	0	0
12.37899	-0.06223531	-0.2721822	0	0	0	0
12.39634	-0.06223531	-0.2721822	0	0	0	0
12.41291	-0.06223531	-0.2721822	0	0	0	0
12.42947	-0.06223531	-0.2721822	0	0	0	0
12.44604	-0.06223531	-0.2721822	0	0	0	0
12.46284	-0.06223531	-0.2721822	0	0	0	0
12.47945	-0.06223531	-0.2721822	0	0	0	0
12.49574	-0.06226153	-0.2721611	-0.001610044	0.001294075	-0.04894624	0.03934061
12.51313	-0.06226153	-0.2721611	0	0	0.04781234	-0.03842924
12.5292	-0.06226153	-0.2721611	0	0	0	0
12.54544	-0.06226153	-0.2721611	0	0	0	0
12.56201	-0.06226153	-0.2721611	0	0	0	0
12.57898	-0.06226153	-0.2721611	0	0	0	0
12.59514	-0.06226153	-0.2721611	0	0	0	0
12.61171	-0.06226153	-0.2721611	0	0	0	0
12.62879	-0.06226153	-0.2721611	0	0	0	0
12.64484	-0.06226153	-0.2721611	0	0	0	0
12.66149	-0.06226153	-0.2721611	0	0	0	0
12.67797	-0.06226153	-0.2721611	0	0	0	0
12.69454	-0.06226153	-0.2721611	0	0	0	0
12.71111	-0.06226153	-0.2721611	0	0	0	0
12.72767	-0.06226153	-0.2721611	0	0	0	0
12.74429	-0.06226153	-0.2721611	0	0	0	0
12.76081	-0.06226153	-0.2721611	0	0	0	0
12.77737	-0.06226153	-0.2721611	0	0	0	0
12.79401	-0.06226153	-0.2721611	0	0	0	0
12.81058	-0.06226153	-0.2721611	0	0	0	0
12.82714	-0.06226153	-0.2721611	0	0	0	0
12.84371	-0.06226153	-0.2721611	0	0	0	0
12.86028	-0.06226153	-0.2721611	0	0	0	0
12.87684	-0.06226153	-0.2721611	0	0	0	0
12.89356	-0.06226153	-0.2721611	0	0	0	0
12.90998	-0.06226153	-0.2721611	0	0	0	0
12.92666	-0.06226153	-0.2721611	0	0	0	0
12.94458	-0.06228774	-0.2721401	-0.001462635	0.001174099	-0.04226655	0.03392858
12.96115	-0.06228774	-0.2721401	0	0	0.04240562	-0.03404021
12.97772	-0.06228774	-0.2721401	0	0	0	0
12.99428	-0.06228774	-0.2721401	0	0	0	0
13.01149	-0.06228774	-0.2721401	0	0	0	0
13.02754	-0.06228774	-0.2721401	0	0	0	0
13.04398	-0.06228774	-0.2721401	0	0	0	0
13.06127	-0.06228774	-0.2721401	0	0	0	0
13.07712	-0.06228774	-0.2721401	0	0	0	0
13.09368	-0.06228774	-0.2721401	0	0	0	0
13.11025	-0.06228774	-0.2721401	0	0	0	0
13.12682	-0.06228774	-0.2721401	0	0	0	0
13.14343	-0.06228774	-0.2721401	0	0	0	0
13.15995	-0.06228774	-0.2721401	0	0	0	0
13.17652	-0.06228774	-0.2721401	0	0	0	0
13.19308	-0.06228774	-0.2721401	0	0	0	0
13.20965	-0.06228774	-0.2721401	0	0	0	0
13.2526	-0.06228774	-0.2721401	0	0	0	0
13.26922	-0.06231396	-0.272119	-0.001578154	0.001268444	-0.02649483	0.02129526
13.28579	-0.06231396	-0.272119	0	0	0.04755896	-0.03822559
13.30263	-0.06231396	-0.272119	0	0	0	0
13.31892	-0.06231396	-0.2721611	0	-0.00258526	0	-0.0780323
13.33559	-0.06231396	-0.2721611	0	0	0	0.07844099
13.35219	-0.06231396	-0.2721611	0	0	0	0
13.36862	-0.06244502	-0.2720558	-0.007976413	0.006407792	-0.2414862	0.1939961
13.39937	-0.06244502	-0.2720558	0	0	0.1690662	-0.1358181
13.41594	-0.06244502	-0.2720558	0	0	0	0
13.43274	-0.06310033	-0.2719927	-0.03900219	0.003758585	-1.168679	0.1126239
13.44941	-0.06310033	-0.2719927	0	0	1.165183	-0.112287
13.46564	-0.06310033	-0.2719927	0	0	0	0
13.48251	-0.07109052	-0.2782994	-0.4734317	-0.3736845	-14.30096	-11.28789
13.49881	-0.07109052	-0.2782994	0	0	14.27136	11.26453
13.5154	-0.07109052	-0.2782994	0	0	0	0
13.53235	-0.1311119	-0.3281394	-3.539964	-2.939481	-105.5452	-87.64165
13.54847	-0.1311119	-0.3281394	0	0	107.0304	88.87487
13.56504	-0.1311119	-0.3281394	0	0	0	0
13.5816	-0.2139634	-0.4016837	-5.001215	-4.4394	-150.9457	-133.9891
13.59835	-0.2139634	-0.4016837	0	0	150.1246	133.2603
13.61474	-0.2139634	-0.4016837	0	0	0	0
13.63138	-0.2490859	-0.4655418	-2.109792	-3.835934	-63.86667	-116.1196
13.64838	-0.2490859	-0.4655418	0	0	62.70628	114.0099
13.66444	-0.2490859	-0.4655418	0	0	0	0
13.6814	-0.262755	-0.4986639	-0.805775	-1.9525	-24.40262	-59.13078
13.69757	-0.262755	-0.4986639	0	0	24.31764	58.92486
13.71414	-0.262755	-0.4986639	0	0	0	0
13.7307	-0.2726914	-0.5077888	-0.60004	-0.5510341	-18.11446	-16.63503
13.7473	-0.2726914	-0.5077888	0	0	18.09258	16.61494
13.76384	-0.2726914	-0.5077888	0	0	0	0
13.7804	-0.2728379	-0.507642	-0.008842201	0.008867392	-0.2671503	0.2679115
13.79698	-0.2728379	-0.507642	0	0	0.2668505	-0.2676107
13.81353	-0.2728379	-0.507642	0	0	0	0
13.8302	-0.2728623	-0.5076175	-0.001464676	0.001470041	-0.04408474	0.04424622
13.84667	-0.2728623	-0.5076175	0	0	0.04420656	-0.04436849
13.86323	-0.2728623	-0.5076175	0	0	0	0
13.8798	-0.2729355	-0.507544	-0.004418792	0.004433185	-0.1333748	0.1338092
13.89637	-0.2729355	-0.507544	0	0	0.1333632	-0.1337976
13.91293	-0.2729355	-0.507544	0	0	0	0
13.9295	-0.2740577	-0.5064185	-0.06775001	0.06794792	-2.044876	2.050849
13.94607	-0.2740577	-0.5064185	0	0	2.044758	-2.050731
13.96263	-0.2740577	-0.5064185	0	0	0	0
13.9792	-0.2768601	-0.5036578	-0.1691746	0.1666595	-5.10614	5.030227
13.99577	-0.2768601	-0.5036578	0	0	5.105846	-5.029938
14.01233	-0.2768601	-0.5036578	0	0	0	0
14.0289	-0.2772497	-0.5032673	-0.02351711	0.02356929	-0.7098296	0.7114045
14.04547	-0.2772497	-0.5032673	0	0	0.7097683	-0.7113431
14.06233	-0.2772497	-0.5032673	0	0	0	0
14.0786	-0.2772984	-0.5032185	-0.002992411	0.002999736	-0.09031894	0.09054004
14.09517	-0.2772984	-0.5032185	0	0	0.09111889	-0.09134195
14.11173	-0.2772984	-0.5032185	0	0	0	0
14.1283	-0.277274	-0.503243	0.001469932	-0.00147533	0.04436775	-0.04453066
14.14487	-0.277274	-0.503243	0	0	-0.04436264	0.04452554
14.16143	-0.277274	-0.503243	0	0	0	0
14.17813	-0.277274	-0.503243	0	0	0	0
14.19457	-0.277274	-0.503243	0	0	0	0
14.21164	-0.277274	-0.503243	0	0	0	0
14.2277	-0.277274	-0.503243	0	0	0	0
14.24512	-0.277274	-0.503243	0	0	0	0
14.26083	-0.277274	-0.503243	0	0	0	0
14.2774	-0.277274	-0.503243	0	0	0	0
14.29467	-0.277274	-0.503243	0	0	0	0
14.31053	-0.277274	-0.503243	0	0	0	0
14.32724	-0.2772497	-0.5032185	0.001456931	0.00146228	0.04472328	0.0448875
14.34367	-0.2772497	-0.5032185	0	0	-0.04396899	-0.04413044
14.36033	-0.2772497	-0.5032185	0	0	0	0
14.37685	-0.2772253	-0.503243	0.001473835	-0.001479247	0.04441779	-0.0445809
14.39362	-0.2772253	-0.503243	0	0	-0.04427147	0.04443403
14.40993	-0.2772253	-0.503243	0	0	0	0
14.42725	-0.2772253	-0.503243	0	0	0	0
14.44311	-0.2772253	-0.503243	0	0	0	0
14.45963	-0.2772253	-0.503243	0	0	0	0
14.47642	-0.2772253	-0.503243	0	0	0	0
14.49276	-0.2772253	-0.503243	0	0	0	0
14.50933	-0.2772253	-0.503243	0	0	0	0
14.5259	-0.2772253	-0.503243	0	0	0	0
14.54246	-0.2772253	-0.503243	0	0	0	0
14.55903	-0.2772253	-0.503243	0	0	0	0
14.57559	-0.277201	-0.5032673	0.001469932	-0.001471731	0.04436647	-0.04442077
14.59216	-0.277201	-0.5032673	0	0	-0.04436391	0.04441822
14.60914	-0.277201	-0.5032673	0	0	0	0
14.6253	-0.2771766	-0.5032917	0.001506535	-0.001508379	0.04546732	-0.04552297
14.64186	-0.2771766	-0.5032917	0	0	-0.04603172	0.04608806
14.65843	-0.2771766	-0.5032917	0	0	0	0
14.675	-0.2771766	-0.5032917	0	0	0	0
14.69185	-0.2771766	-0.5032917	0	0	0	0
14.70813	-0.2771766	-0.5032917	0	0	0	0
14.76751	-0.2769332	-0.5031453	0.004100311	0.002465507	0.05419955	0.03259006
14.78463	-0.2769332	-0.5031453	0	0	-0.05359821	-0.03222847
14.8016	-0.2765436	-0.502755	0.02296069	0.02299933	0.6734176	0.6745508
14.81817	-0.2765436	-0.502755	0	0	-0.6845809	-0.6857329
14.83474	-0.2765436	-0.502755	0	0	0	0
14.8513	-0.2752036	-0.5014631	0.08089019	0.07799367	2.441482	2.354057
14.86787	-0.2752036	-0.5014631	0	0	-2.441341	-2.353921
14.8847	-0.2752036	-0.5014631	0	0	0	0
14.901	-0.2649133	-0.4912443	0.6311879	0.6268024	19.05038	18.91802
14.91762	-0.2649133	-0.4912443	0	0	-19.1729	-19.03969
14.93414	-0.2649133	-0.4912443	0	0	0	0
14.9507	-0.2425748	-0.469606	1.34859	1.306314	40.76505	39.48716
14.96727	-0.2425748	-0.469606	0	0	-40.70521	-39.42919
14.98384	-0.2425748	-0.469606	0	0	0	0
15.00114	-0.2255185	-0.4534427	0.9856607	0.9340555	29.09987	27.57632
15.01719	-0.2255185	-0.4534427	0	0	-29.55674	-28.00927
15.03354	-0.2255185	-0.4534427	0	0	0	0
15.05021	-0.2120528	-0.441142	0.8074427	0.7375872	24.44748	22.33242
15.06671	-0.2120528	-0.441142	0	0	-24.34204	-22.23611
15.08324	-0.2120528	-0.441142	0	0	0	0
15.09984	-0.2031581	-0.4353443	0.5356543	0.3491468	16.16561	10.53697
15.11637	-0.2031581	-0.4353443	0	0	-16.16654	-10.53757
15.13294	-0.2031581	-0.4353443	0	0	0	0
15.1495	-0.2030319	-0.4354605	0.00761956	-0.007014205	0.229972	-0.2117013
15.1661	-0.2030319	-0.4354605	0	0	-0.2297538	0.2115004
15.18347	-0.2030319	-0.4354605	0	0	0	0
15.1992	-0.2028551	-0.4352978	0.01123174	0.01033775	0.3393164	0.3123085
15.21577	-0.2028551	-0.4352978	0	0	-0.3476909	-0.3200164
15.23316	-0.2028551	-0.4352978	0	0	0	0
15.25722	-0.1773791	-0.4121036	1.059052	0.9641983	25.55273	23.26411
15.27378	-0.1773791	-0.4121036	0	0	-26.06982	-23.73489
15.29035	-0.1375212	-0.3769754	2.405968	2.120461	72.61227	63.99565
15.30692	-0.1375212	-0.3769754	0	0	-72.61018	-63.9938
15.32435	-0.1375212	-0.3769754	0	0	0	0
15.34005	-0.09747954	-0.3426892	2.550369	2.183787	76.97692	65.91251
15.35702	-0.09747954	-0.3426892	0	0	-78.06905	-66.84766
15.37319	-0.09747954	-0.3426892	0	0	0	0
15.38975	-0.08685984	-0.3337091	0.6409321	0.541979	19.57949	16.55663
15.40632	-0.08685984	-0.3337091	0	0	-19.34281	-16.35649
15.42289	-0.08685984	-0.3337091	0	0	0	0
15.43946	-0.08309767	-0.3306175	0.2270067	0.1865487	6.850089	5.629241
15.45602	-0.08309767	-0.3306175	0	0	-6.851272	-5.630214
15.47259	-0.08309767	-0.3306175	0	0	0	0
15.48972	-0.08309767	-0.3306175	0	0	0	0
15.50572	-0.08309767	-0.3306175	0	0	0	0
15.52229	-0.08309767	-0.3306175	0	0	0	0
15.53885	-0.08309767	-0.3306175	0	0	0	0
15.55542	-0.08309767	-0.3306175	0	0	0	0
15.57206	-0.08309767	-0.3306175	0	0	0	0
15.58856	-0.08307154	-0.3306392	0.001584451	-0.00131887	0.04781745	-0.03980244
15.60512	-0.08307154	-0.3306392	0	0	-0.04792228	0.03988969
15.62169	-0.08307154	-0.3306392	0	0	0	0
15.63867	-0.08307154	-0.3306392	0	0	0	0
15.65482	-0.08307154	-0.3306392	0	0	0	0
15.67139	-0.08307154	-0.3306392	0	0	0	0
15.68795	-0.08309767	-0.3306175	-0.00157761	0.001313176	-0.04761923	0.03963745
15.70452	-0.08309767	-0.3306175	0	0	0.04761649	-0.03963516
15.72109	-0.08309767	-0.3306175	0	0	0	0
15.73765	-0.08309767	-0.3306175	0	0	0	0
15.75479	-0.08309767	-0.3306175	0	0	0	0
15.77079	-0.08309767	-0.3306175	0	0	0	0
15.78735	-0.08309767	-0.3306175	0	0	0	0
15.80392	-0.08309767	-0.3306175	0	0	0	0
15.82087	-0.08309767	-0.3306175	0	0	0	0
15.83739	-0.08309767	-0.3306175	0	0	0	0
15.85362	-0.08309767	-0.3306175	0	0	0	0
15.87019	-0.08309767	-0.3306175	0	0	0	0
15.88675	-0.08309767	-0.3306175	0	0	0	0
15.90363	-0.08309767	-0.3306175	0	0	0	0
15.91989	-0.08309767	-0.3306175	0	0	0	0
15.93645	-0.08309767	-0.3306175	0	0	0	0
15.95317	-0.08309767	-0.3306175	0	0	0	0
15.96959	-0.08309767	-0.3306175	0	0	0	0
15.98615	-0.08309767	-0.3306175	0	0	0	0
16.00299	-0.08309767	-0.3306175	0	0	0	0
16.01966	-0.08309767	-0.3306175	0	0	0	0
16.03617	-0.08309767	-0.3306175	0	0	0	0
16.05242	-0.08309767	-0.3306175	0	0	0	0
16.06902	-0.08309767	-0.3306175	0	0	0	0
16.08555	-0.08309767	-0.3306175	0	0	0	0
16.10212	-0.08309767	-0.3306175	0	0	0	0
16.11869	-0.08309767	-0.3306175	0	0	0	0
16.1357	-0.08309767	-0.3306175	0	0	0	0
16.15182	-0.08309767	-0.3306175	0	0	0	0
16.16839	-0.08309767	-0.3306175	0	0	0	0
16.18525	-0.08309767	-0.3306175	0	0	0	0
16.20152	-0.08309767	-0.3306175	0	0	0	0
16.21823	-0.08309767	-0.3306175	0	0	0	0
16.23684	-0.08309767	-0.3306175	0	0	0	0
16.25341	-0.08309767	-0.3306175	0	0	0	0
16.26997	-0.08309767	-0.3306175	0	0	0	0
16.28654	-0.08309767	-0.3306175	0	0	0	0
16.30366	-0.08309767	-0.3306175	0	0	0	0
16.31967	-0.08309767	-0.3306175	0	0	0	0
16.33624	-0.08309767	-0.3306175	0	0	0	0
16.35281	-0.08309767	-0.3306175	0	0	0	0
16.36938	-0.08309767	-0.3306175	0	0	0	0
16.38594	-0.08309767	-0.3306175	0	0	0	0
16.40251	-0.08309767	-0.3306175	0	0	0	0
16.41962	-0.08309767	-0.3306175	0	0	0	0
16.43566	-0.08307154	-0.3306392	0.001629385	-0.001356272	0.04915229	-0.04091354
16.45221	-0.08307154	-0.3306392	0	0	-0.04999513	0.0416151
16.46913	-0.08307154	-0.3306392	0	0	0	0
16.48566	-0.08307154	-0.3306392	0	0	0	0
16.50191	-0.08307154	-0.3306392	0	0	0	0
16.51848	-0.08307154	-0.3306392	0	0	0	0
16.5351	-0.08309767	-0.330661	-0.00157218	-0.001308657	-0.0473667	-0.03942724
16.55161	-0.08309767	-0.330661	0	0	0.04745123	0.03949761
16.56832	-0.08309767	-0.330661	0	0	0	0
16.58475	-0.08309767	-0.330661	0	0	0	0
16.60149	-0.08309767	-0.330661	0	0	0	0
16.61788	-0.08309767	-0.330661	0	0	0	0
16.63482	-0.08309767	-0.330661	0	0	0	0
16.65101	-0.08309767	-0.330661	0	0	0	0
16.66758	-0.08309767	-0.330661	0	0	0	0
16.68462	-0.08309767	-0.330661	0	0	0	0
16.70071	-0.08309767	-0.330661	0	0	0	0
16.71728	-0.08309767	-0.330661	0	0	0	0
16.73385	-0.08309767	-0.330661	0	0	0	0
16.75041	-0.08309767	-0.330661	0	0	0	0
16.76698	-0.08309767	-0.330661	0	0	0	0
16.78354	-0.08312381	-0.3306827	-0.001578519	-0.001312133	-0.04764529	-0.03960481
16.80011	-0.08312381	-0.3306827	0	0	0.04765078	0.03960937
16.81668	-0.08312381	-0.3306827	0	0	0	0
16.83325	-0.08309767	-0.3307045	0.00157761	-0.001313176	0.04761238	-0.03963174
16.85004	-0.08309767	-0.3307045	0	0	-0.04728304	0.03935761
16.86638	-0.08309767	-0.3307045	0	0	0	0
16.88295	-0.08309767	-0.3307045	0	0	0	0
16.90005	-0.08309767	-0.3307045	0	0	0	0
16.91608	-0.08309767	-0.3307045	0	0	0	0
16.93327	-0.08309767	-0.3307045	0	0	0	0
16.94929	-0.08309767	-0.3307045	0	0	0	0
16.96594	-0.08309767	-0.3307045	0	0	0	0
16.98235	-0.08309767	-0.3307045	0	0	0	0
16.99891	-0.08309767	-0.3307045	0	0	0	0
17.01548	-0.08309767	-0.3307045	0	0	0	0
17.03205	-0.08309767	-0.3307045	0	0	0	0
17.04927	-0.08309767	-0.3307045	0	0	0	0
17.06552	-0.08309767	-0.3307045	0	0	0	0
17.08508	-0.08309767	-0.3307045	0	0	0	0
17.10165	-0.08309767	-0.3307045	0	0	0	0
17.11824	-0.08309767	-0.3307045	0	0	0	0
17.13478	-0.08309767	-0.3307045	0	0	0	0
17.15135	-0.08309767	-0.3307045	0	0	0	0
17.16817	-0.08309767	-0.3307045	0	0	0	0
17.18448	-0.08309767	-0.3307045	0	0	0	0
17.20105	-0.08309767	-0.3307045	0	0	0	0
17.21774	-0.08309767	-0.3307045	0	0	0	0
17.23418	-0.08309767	-0.3307045	0	0	0	0
17.25124	-0.08309767	-0.3307045	0	0	0	0
17.26732	-0.08309767	-0.3307045	0	0	0	0
17.28388	-0.08309767	-0.3307045	0	0	0	0
17.30045	-0.08309767	-0.3307045	0	0	0	0
17.31723	-0.08309767	-0.3307045	0	0	0	0
17.33369	-0.08309767	-0.3307045	0	0	0	0
17.35015	-0.08309767	-0.3307045	0	0	0	0
17.36672	-0.08309767	-0.3307045	0	0	0	0
17.38377	-0.08309767	-0.3307045	0	0	0	0
17.39985	-0.08309767	-0.3307045	0	0	0	0
17.41647	-0.08309767	-0.3307045	0	0	0	0
17.43303	-0.08309767	-0.3307045	0	0	0	0
17.4499	-0.08309767	-0.3307045	0	0	0	0
17.46612	-0.08309767	-0.3307045	0	0	0	0
17.48268	-0.08309767	-0.3307045	0	0	0	0
17.49925	-0.08309767	-0.3307045	0	0	0	0
17.51582	-0.08309767	-0.3307045	0	0	0	0
17.53238	-0.08309767	-0.3307045	0	0	0	0
17.54895	-0.08309767	-0.3307045	0	0	0	0
17.56565	-0.08309767	-0.3307045	0	0	0	0
17.58587	-0.08309767	-0.3307045	0	0	0	0
17.60244	-0.08309767	-0.3307045	0	0	0	0
17.61931	-0.08309767	-0.3307045	0	0	0	0
17.63577	-0.08309767	-0.3307045	0	0	0	0
17.65214	-0.08309767	-0.3307045	0	0	0	0
17.66871	-0.08309767	-0.3307045	0	0	0	0
17.68527	-0.08309767	-0.3307045	0	0	0	0
17.70184	-0.08309767	-0.3307045	0	0	0	0
17.7184	-0.08312381	-0.3307262	-0.001577792	-0.001313328	-0.04762335	-0.03964087
17.73507	-0.08312381	-0.3307262	0	0	0.04748121	0.03952255
17.75172	-0.08312381	-0.3307262	0	0	0	0
17.7681	-0.08312381	-0.3307262	0	0	0	0
17.78467	-0.08312381	-0.3307262	0	0	0	0
17.80124	-0.08312381	-0.3307262	0	0	0	0
17.8178	-0.08312381	-0.3307262	0	0	0	0
17.83437	-0.08312381	-0.3307262	0	0	0	0
17.85094	-0.08312381	-0.3307262	0	0	0	0
17.86813	-0.08312381	-0.3307262	0	0	0	0
17.88423	-0.08312381	-0.3307262	0	0	0	0
17.90064	-0.08312381	-0.3307262	0	0	0	0
17.9172	-0.08312381	-0.3307262	0	0	0	0
17.93401	-0.08312381	-0.3307262	0	0	0	0
17.95062	-0.08312381	-0.3307262	0	0	0	0
17.96691	-0.08312381	-0.3307262	0	0	0	0
17.98347	-0.08312381	-0.3307262	0	0	0	0
18.00094	-0.08312381	-0.3307262	0	0	0	0
18.01698	-0.08312381	-0.3307262	0	0	0	0
18.03317	-0.08312381	-0.3307262	0	0	0	0
18.04974	-0.08312381	-0.3307262	0	0	0	0
18.06631	-0.08312381	-0.3307262	0	0	0	0
18.08287	-0.08312381	-0.3307262	0	0	0	0
18.09944	-0.08312381	-0.3307262	0	0	0	0
18.11601	-0.08312381	-0.3307262	0	0	0	0
18.13312	-0.08312381	-0.3307262	0	0	0	0
18.14914	-0.08312381	-0.3307262	0	0	0	0
18.16571	-0.08312381	-0.3307262	0	0	0	0
18.18227	-0.08312381	-0.3307262	0	0	0	0
18.19884	-0.08312381	-0.3307262	0	0	0	0
18.21546	-0.08312381	-0.3307262	0	0	0	0
18.23234	-0.08312381	-0.3307262	0	0	0	0
18.24854	-0.08312381	-0.3307262	0	0	0	0
18.26511	-0.08314994	-0.330748	-0.001577161	-0.001313176	-0.04813356	-0.04007699
18.28167	-0.08314994	-0.330748	0	0	0.04760155	0.03963402
18.29844	-0.08314994	-0.330748	0	0	0	0
18.31481	-0.08314994	-0.330748	0	0	0	0
18.33137	-0.08314994	-0.330748	0	0	0	0
18.34794	-0.08314994	-0.330748	0	0	0	0
18.3645	-0.08314994	-0.330748	0	0	0	0
18.38107	-0.08314994	-0.330748	0	0	0	0
18.39774	-0.08314994	-0.330748	0	0	0	0
18.41421	-0.08314994	-0.330748	0	0	0	0
18.43077	-0.08314994	-0.330748	0	0	0	0
18.44734	-0.08314994	-0.330748	0	0	0	0
18.46391	-0.08314994	-0.3307915	0	-0.002626353	0	-0.07926348
18.48047	-0.08314994	-0.3307915	0	0	0	0.07926348
18.49704	-0.08314994	-0.3307915	0	0	0	0
18.51361	-0.08314994	-0.3307915	0	0	0	0
18.53017	-0.08314994	-0.3307915	0	0	0	0
18.54674	-0.08314994	-0.3307915	0	0	0	0
18.56331	-0.08312381	-0.3307697	0.001577342	0.001313328	0.04760703	0.03963859
18.57987	-0.08312381	-0.3307697	0	0	-0.04760703	-0.03963859
18.59644	-0.08312381	-0.3307697	0	0	0	0
18.613	-0.08273178	-0.3310961	0.02366826	-0.01970398	0.7143916	-0.5947358
18.62961	-0.08273178	-0.3310961	0	0	-0.7136111	0.5940859
18.6462	-0.08273178	-0.3310961	0	0	0	0
18.66271	-0.06207803	-0.3483948	1.250984	-1.04777	37.79175	-31.65275
18.67928	-0.06207803	-0.3483948	0	0	-37.8179	31.67465
18.69627	-0.06207803	-0.3483948	0	0	0	0
18.71241	0.01078906	-0.4116004	4.515761	-3.917012	136.3095	-118.2361
18.72898	0.01078906	-0.4116004	0	0	-138.0742	119.7669
18.74568	0.01078906	-0.4116004	0	0	0	0
18.76217	0.08602402	-0.485357	4.561146	-4.471523	137.4104	-134.7104
18.77961	0.08602402	-0.485357	0	0	-134.4061	131.7652
18.79525	0.08602402	-0.485357	0	0	0	0
18.81181	0.1181576	-0.5154498	1.940479	-1.817239	60.27428	-56.44626
18.82837	0.1181576	-0.5154498	0	0	-58.57388	54.85384
18.84579	0.1181576	-0.5154498	0	0	0	0
18.86151	0.1280326	-0.5248665	0.628552	-0.5993763	18.97192	-18.09129
18.87807	0.1280326	-0.5248665	0	0	-19.47304	18.56915
18.89464	0.1280326	-0.5248665	0	0	0	0
18.91121	0.1409022	-0.5372801	0.7768068	-0.7492877	23.44543	-22.61485
18.92777	0.1409022	-0.5372801	0	0	-23.44407	22.61355
18.94434	0.1409022	-0.5372801	0	0	0	0
18.96091	0.1476286	-0.543835	0.4060081	-0.3956583	12.25405	-11.94168
18.97747	0.1476286	-0.543835	0	0	-12.25405	11.94168
18.99438	0.1476286	-0.543835	0	0	0	0
19.0106	0.1477059	-0.5439106	0.004761345	-0.004654802	0.1437142	-0.1404984
19.02739	0.1477059	-0.5439106	0	0	-0.144229	0.1410017
19.04403	0.1477059	-0.5439106	0	0	0	0
19.0603	0.1480148	-0.5442632	0.01898368	-0.02166842	0.57678	-0.6583504
19.07712	0.1480148	-0.5442632	0	0	-0.5737212	0.6548591
19.09344	0.1480148	-0.5442632	0	0	0	0
19.11061	0.1480405	-0.5442884	0.0014995	-0.001468261	0.0447756	-0.04384277
19.12657	0.1480405	-0.5442884	0	0	-0.04525501	0.04431219
19.14329	0.1480405	-0.5442884	0	0	0	0
19.1597	0.1526711	-0.5499437	0.28223	-0.3446873	8.518698	-10.40388
19.17627	0.1526711	-0.5499437	0	0	-8.558608	10.45262
19.1934	0.1526711	-0.5499437	0	0	0	0
19.2094	0.1436614	-0.5992155	-0.5628808	-3.078244	-16.98875	-92.90694
19.22597	0.1436614	-0.5992155	0	0	17.28123	94.50644
19.24299	0.1436614	-0.5992155	0	0	0	0
19.2591	0.1149905	-0.6578988	-1.779121	-3.641489	-53.6909	-109.894
19.27567	0.1149905	-0.6578988	0	0	54.43665	111.4204
19.29253	0.1149905	-0.6578988	0	0	0	0
19.30893	0.1023256	-0.6808147	-0.7725486	-1.397851	-23.23131	-42.03479
19.32552	0.1023256	-0.6808147	0	0	23.41666	42.37016
19.34254	0.1023256	-0.6808147	0	0	0	0
19.35862	0.1020652	-0.6810991	-0.01619058	-0.0176798	-0.4891395	-0.5341309
19.37507	0.1020652	-0.6810991	0	0	0.4976565	0.5434312
19.39164	0.1020652	-0.6810991	0	0	0	0
19.40823	0.101961	-0.6811559	-0.006279554	-0.003427906	-0.1893974	-0.103389
19.4248	0.101961	-0.6811559	0	0	0.1893429	0.1033592
19.44173	0.101961	-0.6811559	0	0	0	0
19.45824	0.1007368	-0.6823797	-0.07415646	-0.07412983	-2.218001	-2.217205
19.47457	0.1007368	-0.6823797	0	0	2.258326	2.257515
19.49111	0.1007368	-0.6823797	0	0	0	0
19.50761	0.1000595	-0.6830063	-0.04106396	-0.03798927	-1.24289	-1.149828
19.52437	0.1000595	-0.6830063	0	0	1.234693	1.142245
19.54079	0.1000595	-0.6830063	0	0	0	0
19.55732	0.1000074	-0.6829493	-0.003153591	0.003448972	-0.09572107	0.1046868
19.57387	0.1000074	-0.6829493	0	0	0.09533472	-0.1042643
19.59044	0.1000074	-0.6829493	0	0	0	0
19.60718	0.1000074	-0.6829493	0	0	0	0
19.62379	0.1000074	-0.6829493	0	0	0	0
19.64014	0.1000074	-0.6829493	0	0	0	0
19.65671	0.09995525	-0.6828923	-0.003145327	0.003439443	-0.09556429	0.1045004
19.67387	0.09995525	-0.6828923	0	0	0.0932461	-0.1019654
19.68984	0.09995525	-0.6828923	0	0	0	0
19.71312	0.09990314	-0.6828353	-0.002238819	0.002448169	-0.05704637	0.06238071
19.72978	0.09990314	-0.6828353	0	0	0.05605741	-0.06129927
19.74643	0.09990314	-0.6828353	0	0	0	0
19.76282	0.09990314	-0.6828353	0	0	0	0
19.77939	0.09990314	-0.6828353	0	0	0	0
19.79596	0.09985103	-0.6827214	-0.003145327	0.006875288	-0.09492616	0.2074966
19.81293	0.09985103	-0.6827214	0	0	0.09377637	-0.2049833
19.82931	0.09985103	-0.6827214	0	0	0	0
19.84566	0.0996426	-0.6824936	-0.01274566	0.01393384	-0.3893942	0.4256946
19.86223	0.0996426	-0.6824936	0	0	0.3871832	-0.4232775
19.8795	0.0996426	-0.6824936	0	0	0	0
19.89556	0.09966865	-0.6823512	0.001622539	0.008867592	0.04867413	0.2660166
19.91193	0.09966865	-0.6823512	0	0	-0.05003987	-0.2734807
19.92858	0.09966865	-0.6823512	0	0	0	0
19.94507	0.09977287	-0.6822942	0.006319758	0.003451741	0.1906648	0.1041378
19.96162	0.09977287	-0.6822942	0	0	-0.1912702	-0.1044684
19.97868	0.09977287	-0.6822942	0	0	0	0
19.99475	0.1000595	-0.6819811	0.01782841	0.01948119	0.5381553	0.5880451
20.01175	0.1000595	-0.6819811	0	0	-0.5391486	-0.5891305
20.02789	0.1000595	-0.6819811	0	0	0	0
20.04446	0.1011275	-0.6808147	0.06446887	0.07040424	1.97086	2.152309
20.06102	0.1011275	-0.6808147	0	0	-1.945674	-2.124804
20.07789	0.1011275	-0.6808147	0	0	0	0
20.09415	0.1065684	-0.6748331	0.3345754	0.3678271	10.09867	11.10232
20.11072	0.1065684	-0.6748331	0	0	-10.19078	-11.20359
20.12729	0.1065684	-0.6748331	0	0	0	0
20.14386	0.1383474	-0.6396447	1.918181	2.123975	57.89416	64.10537
20.16093	0.1383474	-0.6396447	0	0	-57.01131	-63.1278
20.23908	0.1383474	-0.6396447	0	0	0	0
20.25565	0.1639621	-0.611464	1.545752	1.7006	16.32034	17.95526
20.27221	0.1639621	-0.611464	0	0	-46.64551	-51.3183
20.28878	0.1639621	-0.611464	0	0	0	0
20.30582	0.1639621	-0.611464	0	0	0	0
20.32236	0.1639621	-0.611464	0	0	0	0
20.33887	0.1639621	-0.611464	0	0	0	0
20.35539	0.1638853	-0.611544	-0.004652854	-0.004843227	-0.1408775	-0.1466416
20.37161	0.1638853	-0.611544	0	0	0.1421086	0.147923
20.38818	0.1638853	-0.611544	0	0	0	0
20.40475	0.1638596	-0.6115706	-0.001546486	-0.001608562	-0.04667574	-0.04854928
20.42131	0.1638596	-0.6115706	0	0	0.04667574	0.04854928
20.43788	0.1638596	-0.6115706	0	0	0	0
20.45947	0.1638596	-0.6115706	0	0	0	0
20.47603	0.1638596	-0.6115706	0	0	0	0
20.4926	0.1638596	-0.6115706	0	0	0	0
20.50917	0.1638596	-0.6115706	0	0	0	0
20.52574	0.1638596	-0.6115706	0	0	0	0
20.5423	0.1638596	-0.6115706	0	0	0	0
20.55887	0.1638596	-0.6115706	0	0	0	0
20.57562	0.1638596	-0.6115706	0	0	0	0
20.592	0.163834	-0.611544	-0.001563956	0.001626732	-0.04720571	0.04910053
20.60857	0.163834	-0.611544	0	0	0.04746806	-0.04937341
20.62549	0.163834	-0.611544	0	0	0	0
20.6417	0.163834	-0.611544	0	0	0	0
20.65827	0.163834	-0.611544	0	0	0	0
20.67484	0.163834	-0.611544	0	0	0	0
20.6914	0.1637828	-0.611544	-0.003092617	0	-0.09334072	0
20.70797	0.1637828	-0.611544	0	0	0.09334072	0
20.72453	0.1637828	-0.611544	0	0	0	0
20.7411	0.1636803	-0.611544	-0.006185233	0	-0.1866814	0
20.75783	0.1636803	-0.611544	0	0	0.1857618	0
20.77423	0.1636803	-0.611544	0	0	0	0
20.79093	0.1635522	-0.6115173	-0.007670617	0.001595517	-0.2317398	0.04820274
20.80737	0.1635522	-0.6115173	0	0	0.2314997	-0.04815279
20.8241	0.1635522	-0.6115173	0	0	0	0
20.84059	0.1633985	-0.6114107	-0.009322586	0.006466888	-0.2806454	0.194678
20.85707	0.1633985	-0.6114107	0	0	0.282756	-0.1961421
20.87373	0.1633985	-0.6114107	0	0	0	0
20.89024	0.1631936	-0.6112508	-0.01241085	0.009683963	-0.3741294	0.2919265
20.90698	0.1631936	-0.6112508	0	0	0.3732067	-0.2912065
20.92333	0.1631936	-0.6112508	0	0	0	0
20.94019	0.1628092	-0.6108511	-0.02280016	0.02370799	-0.6865689	0.7139059
20.95646	0.1628092	-0.6108511	0	0	0.6881498	-0.7155498
20.97303	0.1628092	-0.6108511	0	0	0	0
20.9896	0.1608611	-0.6088282	-0.1175995	0.1221179	-3.549364	3.685737
21.00618	0.1608611	-0.6088282	0	0	3.548138	-3.684464
21.02273	0.1608611	-0.6088282	0	0	0	0
21.0393	0.1608355	-0.6088016	-0.001547929	0.001604594	-0.04673273	0.04844346
21.05586	0.1608355	-0.6088016	0	0	0.04671928	-0.04842952
21.07243	0.1608355	-0.6088016	0	0	0	0
21.089	0.1608355	-0.6088016	0	0	0	0
21.10562	0.1608355	-0.6088016	0	0	0	0
21.12213	0.1608355	-0.6088016	0	0	0	0
21.1387	0.1608099	-0.608775	-0.001547929	0.001604594	-0.04679201	0.04850491
21.15533	0.1608099	-0.608775	0	0	0.04662802	-0.04833491
21.17183	0.1608099	-0.608775	0	0	0	0
21.1884	0.1607842	-0.6087484	-0.001547386	0.001604963	-0.04679718	0.04853847
21.20497	0.1607842	-0.6087484	0	0	0.04670289	-0.04844067
21.22153	0.1607842	-0.6087484	0	0	0	0
21.2381	0.1607073	-0.6087219	-0.004643788	0.001604594	-0.1401498	0.04842673
21.25467	0.1607073	-0.6087219	0	0	0.1401498	-0.04842673
21.27176	0.1607073	-0.6087219	0	0	0	0
21.28789	0.160656	-0.6086687	-0.003179141	0.003296476	-0.09569327	0.0992251
21.30437	0.160656	-0.6086687	0	0	0.09750133	-0.1010999
21.32166	0.160656	-0.6086687	0	0	0	0
21.3375	0.1605791	-0.608642	-0.004858581	0.001682576	-0.1466492	0.05078611
21.35412	0.1605791	-0.608642	0	0	0.1497	-0.05184266
21.37063	0.1605791	-0.608642	0	0	0	0
21.3872	0.160297	-0.6083496	-0.01702632	0.01765053	-0.514685	0.533554
21.40377	0.160297	-0.6083496	0	0	0.5138258	-0.5326634
21.42055	0.160297	-0.6083496	0	0	0	0
21.4369	0.1522597	-0.6000597	-0.4915823	0.507036	-14.83855	15.30502
21.45347	0.1522597	-0.6000597	0	0	14.93312	-15.40257
21.47032	0.1522597	-0.6000597	0	0	0	0
21.4866	0.1187025	-0.5662719	-2.061597	2.075759	-62.2227	62.65015
21.50344	0.1187025	-0.5662719	0	0	62.25137	-62.67902
21.51973	0.1187025	-0.5662719	0	0	0	0
21.5363	0.08884445	-0.537205	-1.802234	1.754483	-54.84299	53.38988
21.55287	0.08884445	-0.537205	0	0	54.39154	-52.95039
21.56965	0.08884445	-0.537205	0	0	0	0
21.586	0.06946699	-0.5187786	-1.185319	1.127144	-35.77711	34.02119
21.60257	0.06946699	-0.5187786	0	0	36.0093	-34.24197
21.61936	0.06946699	-0.5187786	0	0	0	0
21.6357	0.05512829	-0.5053429	-0.8777125	0.8224351	-26.49094	24.82257
21.65227	0.05512829	-0.5053429	0	0	26.67367	-24.99379
21.66884	0.05512829	-0.5053429	0	0	0	0
21.6854	0.04215921	-0.4933254	-0.7829955	0.7255459	-23.63357	21.89954
21.70236	0.04215921	-0.4933254	0	0	23.35923	-21.64533
21.71938	0.04215921	-0.4933254	0	0	0	0
21.7351	0.03721965	-0.4887801	-0.3141383	0.2890644	-9.593925	8.828158
21.75208	0.03721965	-0.4887801	0	0	9.603995	-8.837425
21.76824	0.03721965	-0.4887801	0	0	0	0
21.79688	0.03438118	-0.4861758	-0.09911235	0.09093407	-2.21281	2.030219
21.81345	0.03438118	-0.4861758	0	0	2.192272	-2.011376
21.83033	0.0215493	-0.4744701	-0.7600096	0.6933109	-22.71744	20.72375
21.84658	0.0215493	-0.4744701	0	0	22.93846	-20.92537
21.86316	0.0215493	-0.4744701	0	0	0	0
21.87971	-0.01584078	-0.4409321	-2.25843	2.025758	-68.16346	61.14101
21.8967	-0.01584078	-0.4409321	0	0	67.32629	-60.39009
21.91284	-0.01584078	-0.4409321	0	0	0	0
21.92941	-0.05014215	-0.4107544	-2.070435	1.82153	-63.29469	55.68551
21.94641	-0.05014215	-0.4107544	0	0	61.68688	-54.27098
21.96254	-0.05014215	-0.4107544	0	0	0	0
21.97935	-0.06564239	-0.3973043	-0.9224284	0.8004186	-28.00337	24.29935
21.99568	-0.06564239	-0.3973043	0	0	27.83734	-24.15529
22.01225	-0.06564239	-0.3973043	0	0	0	0
22.02881	-0.07158798	-0.3921692	-0.3588763	0.3099564	-10.83153	9.355042
22.04616	-0.07158798	-0.3921692	0	0	10.58118	-9.138816
22.06194	-0.07158798	-0.3921692	0	0	0	0
22.07851	-0.0715618	-0.3921466	0.001580491	0.001363702	0.04885804	0.04215639
22.09508	-0.0715618	-0.3921466	0	0	-0.04770205	-0.04115897
22.11167	-0.0715618	-0.3921466	0	0	0	0
22.12821	-0.0715618	-0.3921466	0	0	0	0
22.14478	-0.0715618	-0.3921466	0	0	0	0
22.16214	-0.0715618	-0.3921466	0	0	0	0
22.17791	-0.07158798	-0.392124	-0.001660404	0.001432654	-0.05011975	0.04324505
22.19448	-0.07158798	-0.392124	0	0	0.05134659	-0.0443036
22.21149	-0.07158798	-0.392124	0	0	0	0
22.22761	-0.0715618	-0.3921466	0.001623869	-0.00140113	0.04900846	-0.04228618
22.24459	-0.0715618	-0.3921466	0	0	-0.04905929	0.04233004
22.26074	-0.0715618	-0.3921466	0	0	0	0
22.27731	-0.0715618	-0.3921466	0	0	0	0
22.29412	-0.0715618	-0.3921466	0	0	0	0
22.31045	-0.0715618	-0.3921466	0	0	0	0
22.32701	-0.0715618	-0.3921466	0	0	0	0
22.34417	-0.0715618	-0.3921466	0	0	0	0
22.36014	-0.0715618	-0.3921466	0	0	0	0
22.37671	-0.07153562	-0.3921692	0.001580309	-0.001363545	0.04856606	-0.04190447
22.39327	-0.07153562	-0.3921692	0	0	-0.04769382	0.04115187
22.40984	-0.07153562	-0.3921692	0	0	0	0
22.42653	-0.07153562	-0.3921692	0	0	0	0
22.44298	-0.07153562	-0.3921692	0	0	0	0
22.45957	-0.07153562	-0.3921692	0	0	0	0
22.47611	-0.07150944	-0.3921918	0.001583591	-0.001364574	0.04779836	-0.04118766
22.49268	-0.07150944	-0.3921918	0	0	-0.04783967	0.04122326
22.50924	-0.07150944	-0.3921918	0	0	0	0
22.52581	-0.07148325	-0.3922144	0.001580491	-0.001363702	0.04770205	-0.04115897
22.54238	-0.07148325	-0.3922144	0	0	-0.04769931	0.0411566
22.55894	-0.07148325	-0.3922144	0	0	0	0
22.57577	-0.07148325	-0.3922595	0	-0.002685962	0	-0.08044659
22.59208	-0.07148325	-0.3922595	0	0	0	0.08106716
22.60864	-0.07148325	-0.3922595	0	0	0	0
22.62568	-0.07145707	-0.3922821	0.001536957	-0.001326139	0.04574297	-0.03946861
22.64183	-0.07145707	-0.3922821	0	0	-0.04631614	0.03996315
22.65835	-0.07145707	-0.3922821	0	0	0	0
22.67491	-0.07143089	-0.3923047	0.001580673	-0.001363859	0.04777906	-0.04122541
22.69148	-0.07143089	-0.3923047	0	0	-0.04771029	0.04116608
22.70847	-0.07143089	-0.3923047	0	0	0	0
22.72461	-0.07143089	-0.3923047	0	0	0	0
22.7415	-0.07143089	-0.3923047	0	0	0	0
22.75774	-0.07143089	-0.3923047	0	0	0	0
22.77431	-0.07143089	-0.3923047	0	0	0	0
22.79165	-0.07143089	-0.3923047	0	0	0	0
22.80744	-0.07143089	-0.3923047	0	0	0	0
22.82444	-0.07143089	-0.3923047	0	0	0	0
22.84058	-0.07143089	-0.3923047	0	0	0	0
22.85749	-0.07143089	-0.3923047	0	0	0	0
22.87371	-0.07143089	-0.3923047	0	0	0	0
22.89035	-0.07143089	-0.3923047	0	0	0	0
22.90685	-0.07143089	-0.3923047	0	0	0	0
22.92341	-0.07143089	-0.3923047	0	0	0	0
22.93998	-0.07143089	-0.3923047	0	0	0	0
22.95654	-0.07143089	-0.3923047	0	0	0	0
22.97311	-0.07143089	-0.3923047	0	0	0	0
22.99008	-0.07143089	-0.3923047	0	0	0	0
23.00634	-0.07143089	-0.3923047	0	0	0	0
23.02281	-0.07143089	-0.3923047	0	0	0	0
23.03938	-0.07143089	-0.3923047	0	0	0	0
23.05595	-0.07143089	-0.3923047	0	0	0	0
23.07251	-0.07140471	-0.3923273	0.001580673	-0.001362059	0.04771029	-0.04111177
23.08908	-0.07140471	-0.3923273	0	0	-0.04770755	0.04110941
23.10607	-0.07140471	-0.3923273	0	0	0	0
23.12258	-0.07140471	-0.3923273	0	0	0	0
23.13879	-0.07140471	-0.3923273	0	0	0	0
23.15535	-0.07140471	-0.3923273	0	0	0	0
23.17191	-0.07140471	-0.3923273	0	0	0	0
23.18848	-0.07140471	-0.3923273	0	0	0	0
23.20509	-0.07140471	-0.3923273	0	0	0	0
23.22161	-0.07140471	-0.3923273	0	0	0	0
23.23818	-0.07140471	-0.3923273	0	0	0	0
23.25488	-0.07140471	-0.3923273	0	0	0	0
23.27329	-0.07140471	-0.3923273	0	0	0	0
23.28986	-0.07140471	-0.3923273	0	0	0	0
23.30643	-0.07140471	-0.3923273	0	0	0	0
23.32339	-0.07140471	-0.3923273	0	0	0	0
23.33973	-0.07140471	-0.3923273	0	0	0	0
23.35613	-0.07140471	-0.3923273	0	0	0	0
23.37269	-0.07140471	-0.3923273	0	0	0	0
23.38926	-0.07140471	-0.3923273	0	0	0	0
23.40583	-0.07140471	-0.3923273	0	0	0	0
23.4224	-0.07140471	-0.3923273	0	0	0	0
23.43896	-0.07140471	-0.3923273	0	0	0	0
23.45553	-0.07140471	-0.3923273	0	0	0	0
23.47209	-0.07140471	-0.3923273	0	0	0	0
23.48913	-0.07140471	-0.3923273	0	0	0	0
23.50533	-0.07140471	-0.3923273	0	0	0	0
23.52184	-0.07140471	-0.3923273	0	0	0	0
23.53836	-0.07140471	-0.3923273	0	0	0	0
23.55493	-0.07140471	-0.3923273	0	0	0	0
23.5715	-0.07140471	-0.3923273	0	0	0	0
23.58806	-0.07140471	-0.3923273	0	0	0	0
23.60497	-0.07140471	-0.3923273	0	0	0	0
23.62119	-0.07140471	-0.3923273	0	0	0	0
23.63793	-0.07140471	-0.3923273	0	0	0	0
23.6545	-0.07140471	-0.3923273	0	0	0	0
23.67106	-0.07140471	-0.3923273	0	0	0	0
23.68746	-0.07140471	-0.3923273	0	0	0	0
23.70443	-0.07140471	-0.3923273	0	0	0	0
23.72062	-0.07140471	-0.3923273	0	0	0	0
23.73747	-0.07140471	-0.3923273	0	0	0	0
23.75373	-0.07140471	-0.3923273	0	0	0	0
23.77395	-0.07140471	-0.3923273	0	0	0	0
23.79052	-0.07140471	-0.3923273	0	0	0	0
23.80709	-0.07140471	-0.3923273	0	0	0	0
23.82384	-0.07140471	-0.3923273	0	0	0	0
23.84022	-0.07140471	-0.3923273	0	0	0	0
23.85678	-0.07140471	-0.3923273	0	0	0	0
23.87346	-0.07140471	-0.3923273	0	0	0	0
23.89005	-0.07140471	-0.3923273	0	0	0	0
23.90668	-0.07140471	-0.3923273	0	0	0	0
23.92305	-0.07140471	-0.3923273	0	0	0	0
23.94002	-0.07140471	-0.3923273	0	0	0	0
23.95618	-0.07140471	-0.3923273	0	0	0	0
23.97275	-0.07140471	-0.3923273	0	0	0	0
23.98932	-0.07140471	-0.3923273	0	0	0	0
24.00589	-0.07140471	-0.3923273	0	0	0	0
24.02245	-0.07140471	-0.3923273	0	0	0	0
24.03902	-0.07140471	-0.3923273	0	0	0	0
24.05558	-0.07140471	-0.3923273	0	0	0	0
24.07215	-0.07140471	-0.3923273	0	0	0	0
24.08872	-0.07140471	-0.3923273	0	0	0	0
24.10528	-0.07140471	-0.3923273	0	0	0	0
24.12209	-0.07140471	-0.3923273	0	0	0	0
24.13842	-0.07140471	-0.3923273	0	0	0	0
24.15499	-0.07140471	-0.3923273	0	0	0	0
24.17155	-0.07140471	-0.3923273	0	0	0	0
24.18819	-0.07140471	-0.3923273	0	0	0	0
24.20468	-0.07140471	-0.3923273	0	0	0	0
24.22125	-0.07140471	-0.3923273	0	0	0	0
24.23782	-0.07140471	-0.3923273	0	0	0	0
24.25438	-0.07140471	-0.3923273	0	0	0	0
24.27096	-0.07140471	-0.3923273	0	0	0	0
24.28766	-0.07140471	-0.3923273	0	0	0	0
24.3042	-0.07140471	-0.3923273	0	0	0	0
24.32142	-0.07140471	-0.3923273	0	0	0	0
24.33768	-0.07140471	-0.3923273	0	0	0	0
24.35379	-0.07140471	-0.3923273	0	0	0	0
24.37035	-0.07140471	-0.3923273	0	0	0	0
24.38692	-0.07140471	-0.3923273	0	0	0	0
24.40378	-0.07140471	-0.3923273	0	0	0	0
24.42005	-0.07140471	-0.3923273	0	0	0	0
24.43716	-0.07140471	-0.3923273	0	0	0	0
24.45591	-0.07140471	-0.3923273	0	0	0	0
24.47248	-0.07140471	-0.3923273	0	0	0	0
24.48909	-0.07140471	-0.3923273	0	0	0	0
24.50569	-0.07140471	-0.3923273	0	0	0	0
24.52218	-0.07140471	-0.3923273	0	0	0	0
24.53875	-0.07140471	-0.3923273	0	0	0	0
24.55532	-0.07137853	-0.3923499	0.001580491	-0.001363702	0.04770205	-0.04115897
24.57236	-0.07137853	-0.3923499	0	0	-0.04701727	0.04056812
24.58845	-0.07137853	-0.3923499	0	0	0	0
24.60905	-0.07137853	-0.3923499	0	0	0	0
24.62562	-0.07137853	-0.3923499	0	0	0	0
24.64218	-0.07137853	-0.3923499	0	0	0	0
24.65875	-0.07137853	-0.3923499	0	0	0	0
24.67532	-0.07137853	-0.3923499	0	0	0	0
24.69189	-0.07137853	-0.3923499	0	0	0	0
24.70845	-0.07137853	-0.3923499	0	0	0	0
24.72502	-0.07137853	-0.3923499	0	0	0	0
24.74159	-0.07137853	-0.3923499	0	0	0	0
24.75816	-0.07137853	-0.3923499	0	0	0	0
24.77472	-0.07137853	-0.3923499	0	0	0	0
24.79128	-0.07137853	-0.3923499	0	0	0	0
24.80785	-0.07137853	-0.3923499	0	0	0	0
24.82442	-0.07137853	-0.3923499	0	0	0	0
24.84099	-0.07137853	-0.3923499	0	0	0	0
24.85755	-0.07137853	-0.3923499	0	0	0	0
24.87439	-0.07137853	-0.3923499	0	0	0	0
24.89069	-0.07137853	-0.3923499	0	0	0	0
24.90726	-0.07137853	-0.3923499	0	0	0	0
24.92382	-0.07137853	-0.3923499	0	0	0	0
24.94039	-0.07137853	-0.3923499	0	0	0	0
24.95792	-0.07137853	-0.3923499	0	0	0	0
24.97352	-0.07137853	-0.3923499	0	0	0	0
24.99059	-0.07137853	-0.3923499	0	0	0	0
25.00665	-0.07137853	-0.3923499	0	0	0	0
25.02322	-0.07137853	-0.3923499	0	0	0	0
25.03979	-0.07137853	-0.3923499	0	0	0	0
25.05651	-0.07137853	-0.3923499	0	0	0	0
25.07292	-0.07137853	-0.3923499	0	0	0	0
25.08995	-0.07137853	-0.3923499	0	0	0	0
25.10652	-0.07137853	-0.3923499	0	0	0	0
25.12404	-0.07137853	-0.3923499	0	0	0	0
25.13965	-0.07145707	-0.3923725	-0.005031116	-0.001447007	-0.1518481	-0.04367326
25.15622	-0.07145707	-0.3923725	0	0	0.1563484	0.04496759
25.17307	-0.07145707	-0.3923725	0	0	0	0
25.18959	-0.07271368	-0.3933666	-0.07609427	-0.06020263	-2.280253	-1.804042
25.20592	-0.07271368	-0.3933666	0	0	2.31707	1.83317
25.22248	-0.07271368	-0.3933666	0	0	0	0
25.23905	-0.07365599	-0.3939996	-0.05688418	-0.03821064	-1.716867	-1.153266
25.25635	-0.07365599	-0.3939996	0	0	1.679451	1.128133
25.27218	-0.07365599	-0.3939996	0	0	0	0
25.28884	-0.07847012	-0.390747	-0.2889847	0.1952481	-8.895157	6.009877
25.30538	-0.07847012	-0.390747	0	0	8.705039	-5.881427
25.32189	-0.07847012	-0.390747	0	0	0	0
25.33888	-0.1188841	-0.3833409	-2.377799	0.4357483	-70.97361	13.00641
25.35502	-0.1188841	-0.3833409	0	0	71.77038	-13.15242
25.37158	-0.1188841	-0.3833409	0	0	0	0
25.38815	-0.1886	-0.4076488	-4.208058	-1.46723	-127.0068	-44.28364
25.40472	-0.1886	-0.4076488	0	0	126.9995	44.28109
25.42145	-0.1886	-0.4076488	0	0	0	0
25.43847	-0.2429219	-0.4586997	-3.192504	-3.000266	-94.58587	-88.89035
25.45448	-0.2429219	-0.4586997	0	0	96.66155	90.84105
25.47098	-0.2429219	-0.4586997	0	0	0	0
25.48755	-0.2897659	-0.5048298	-2.827186	-2.784099	-85.49197	-84.18905
25.50412	-0.2897659	-0.5048298	0	0	85.32465	84.02428
25.52104	-0.2897659	-0.5048298	0	0	0	0
25.53725	-0.3143509	-0.5300117	-1.516425	-1.553239	-45.76842	-46.87954
25.55382	-0.3143509	-0.5300117	0	0	46.2611	47.38418
25.57057	-0.3143509	-0.5300117	0	0	0	0
25.58695	-0.3217584	-0.5377561	-0.4522226	-0.4727927	-13.64889	-14.26973
25.60358	-0.3217584	-0.5377561	0	0	13.69778	14.32085
25.62008	-0.3217584	-0.5377561	0	0	0	0
25.682	-0.3217821	-0.5376309	-0.0003826708	0.002023582	-0.004880076	0.02580609
25.69857	-0.3217821	-0.5376309	0	0	0.004875688	-0.02578288
25.71514	-0.3218295	-0.5375807	-0.002858407	0.003025702	-0.08625697	0.09130536
25.7317	-0.3218295	-0.5375807	0	0	0.08627187	-0.09132113
25.74827	-0.3218295	-0.5375807	0	0	0	0
25.76483	-0.3218532	-0.5375557	-0.001430268	0.001511226	-0.04316805	0.04561153
25.7814	-0.3218532	-0.5375557	0	0	0.04316805	-0.04561153
25.79797	-0.3218532	-0.5375557	0	0	0	0
25.81454	-0.3218295	-0.5375306	0.001430103	0.00151465	0.04316059	0.04571223
25.8311	-0.3218295	-0.5375306	0	0	-0.04316059	-0.04571223
25.84767	-0.3218295	-0.5375306	0	0	0	0
25.86423	-0.3218058	-0.5375056	0.001430103	0.001511052	0.04316557	0.0456089
25.88093	-0.3218058	-0.5375056	0	0	-0.04299477	-0.04542844
25.89737	-0.3218058	-0.5375056	0	0	0	0
25.91393	-0.3218058	-0.5375056	0	0	0	0
25.9305	-0.3218058	-0.5375056	0	0	0	0
25.94707	-0.3218058	-0.5375056	0	0	0	0
25.96404	-0.3218058	-0.5375056	0	0	0	0
25.9802	-0.3218058	-0.5375056	0	0	0	0
25.99677	-0.3218058	-0.5375056	0	0	0	0
26.01357	-0.3218058	-0.5375056	0	0	0	0
26.03016	-0.3218058	-0.5375056	0	0	0	0
26.04646	-0.3218058	-0.5375056	0	0	0	0
26.06303	-0.3218058	-0.5375056	0	0	0	0
26.0796	-0.3218058	-0.5375056	0	0	0	0
26.09616	-0.3218058	-0.5375056	0	0	0	0
26.11273	-0.3217821	-0.5374805	0.001428304	0.001511052	0.04310878	0.04560627
26.1293	-0.3217821	-0.5374805	0	0	-0.0431063	-0.04560365
26.14613	-0.3217821	-0.5374805	0	0	0	0
26.16243	-0.3217584	-0.5374554	0.001453191	0.001539103	0.04385738	0.04645021
26.179	-0.3217584	-0.5374554	0	0	-0.04420857	-0.04682216
26.19557	-0.3217584	-0.5374554	0	0	0	0
26.21213	-0.3217348	-0.5374304	0.001430268	0.001511226	0.04316805	0.04561153
26.2287	-0.3217348	-0.5374304	0	0	-0.04316805	-0.04561153
26.24527	-0.3217348	-0.5374304	0	0	0	0
26.26195	-0.3217348	-0.5374304	0	0	0	0
26.2786	-0.3217348	-0.5374304	0	0	0	0
26.29497	-0.3217348	-0.5374304	0	0	0	0
26.31153	-0.3217111	-0.5374054	0.001428304	0.001511052	0.04336341	0.04587565
26.3281	-0.3217111	-0.5374054	0	0	-0.0431063	-0.04560365
26.34513	-0.3217111	-0.5374054	0	0	0	0
26.36123	-0.3216874	-0.5374304	0.001471089	-0.001554358	0.04440011	-0.04691332
26.3778	-0.3216874	-0.5374304	0	0	-0.04502477	0.04757334
26.39454	-0.3216874	-0.5374304	0	0	0	0
26.41162	-0.3216637	-0.5374054	0.001386989	0.001465498	0.0410142	0.04333576
26.4275	-0.3216637	-0.5374054	0	0	-0.04207497	-0.04445658
26.44407	-0.3216637	-0.5374054	0	0	0	0
26.46064	-0.32164	-0.5373803	0.001430103	0.00151465	0.04316059	0.04571223
26.4772	-0.32164	-0.5373803	0	0	-0.04316059	-0.04571223
26.49476	-0.32164	-0.5373803	0	0	0	0
26.51133	-0.3216164	-0.5373052	0.00142814	0.004532635	0.041844	0.1328046
26.52795	-0.3216164	-0.5373052	0	0	-0.04303693	-0.1365908
26.54447	-0.3216164	-0.5373052	0	0	0	0
26.56104	-0.3211425	-0.5368043	0.02859368	0.03022848	0.8640531	0.9134541
26.5776	-0.3211425	-0.5368043	0	0	-0.8630086	-0.9123498
26.59417	-0.3211425	-0.5368043	0	0	0	0
26.61074	-0.320479	-0.5361033	0.04005188	0.04230946	1.208768	1.276902
26.62757	-0.320479	-0.5361033	0	0	-1.199105	-1.266694
26.64387	-0.320479	-0.5361033	0	0	0	0
26.66043	-0.3117068	-0.5269022	0.529548	0.555444	16.1135	16.90149
26.677	-0.3117068	-0.5269022	0	0	-15.98271	-16.7643
26.69357	-0.3117068	-0.5269022	0	0	0	0
26.71044	-0.2859432	-0.5005375	1.526799	1.562419	45.65577	46.72089
26.72671	-0.2859432	-0.5005375	0	0	-46.07624	-47.15118
26.74408	-0.2859432	-0.5005375	0	0	0	0
26.76006	-0.2527899	-0.4679646	2.074952	2.038623	62.21037	61.12116
26.77641	-0.2527899	-0.4679646	0	0	-64.19263	-63.06873
26.79297	-0.2527899	-0.4679646	0	0	0	0
26.80954	-0.2154205	-0.4329528	2.256139	2.113807	68.09826	63.80216
26.82611	-0.2154205	-0.4329528	0	0	-68.09434	-63.79848
26.84299	-0.2154205	-0.4329528	0	0	0	0
26.85924	-0.1871777	-0.4095662	1.738156	1.439288	52.46067	43.44031
26.8758	-0.1871777	-0.4095662	0	0	-52.96684	-43.85943
26.89237	-0.1871777	-0.4095662	0	0	0	0
26.9094	-0.1575004	-0.4094748	1.743356	0.005367647	51.90055	0.1597974
26.9255	-0.1575004	-0.4094748	0	0	-52.62368	-0.1620239
26.94221	-0.1575004	-0.4094748	0	0	0	0
26.95873	-0.1268158	-0.4301251	1.85726	-1.249904	55.89135	-37.61393
26.9752	-0.1268158	-0.4301251	0	0	-56.29852	37.88794
26.99176	-0.1268158	-0.4301251	0	0	0	0
27.00833	-0.1151982	-0.4405356	0.7012362	-0.6283801	21.16457	-18.96564
27.02489	-0.1151982	-0.4405356	0	0	-21.16579	18.96673
27.04146	-0.1151982	-0.4405356	0	0	0	0
27.05803	-0.1152502	-0.4404889	-0.003134895	0.002815558	-0.09461132	0.08497372
27.07485	-0.1152502	-0.4404889	0	0	0.09389784	-0.08433292
27.09175	-0.1152502	-0.4404889	0	0	0	0
27.10773	-0.1152502	-0.4404889	0	0	0	0
27.1243	-0.1152502	-0.4404889	0	0	0	0
27.14086	-0.1152502	-0.4404889	0	0	0	0
27.15743	-0.1152502	-0.4404889	0	0	0	0
27.174	-0.1152502	-0.4404889	0	0	0	0
27.19068	-0.1152502	-0.4404889	0	0	0	0
27.20713	-0.115354	-0.4403957	-0.006315044	0.005670947	-0.1906213	0.1711791
27.2237	-0.115354	-0.4403957	0	0	0.19126	-0.1717526
27.24037	-0.115354	-0.4403957	0	0	0	0
27.25683	-0.1154319	-0.4403257	-0.004733408	0.004250333	-0.142871	0.1282901
27.2734	-0.1154319	-0.4403257	0	0	0.1433248	-0.1286976
27.29001	-0.1154319	-0.4403257	0	0	0	0
27.30653	-0.1154839	-0.4402791	-0.003143307	0.002822709	-0.09487066	0.08519442
27.3231	-0.1154839	-0.4402791	0	0	0.09496906	-0.08528279
27.33966	-0.1154839	-0.4402791	0	0	0	0
27.35626	-0.1155618	-0.4402091	-0.004693695	0.004214674	-0.1415664	0.1271186
27.37311	-0.1155618	-0.4402091	0	0	0.1403232	-0.1260023
27.38963	-0.1155618	-0.4402091	0	0	0	0
27.40593	-0.1155877	-0.4401858	-0.001592942	0.001431591	-0.04854172	0.04362487
27.4225	-0.1155877	-0.4401858	0	0	0.04846285	-0.04355399
27.43935	-0.1155877	-0.4401858	0	0	0	0
27.45563	-0.1156137	-0.4401625	-0.001594808	0.001431437	-0.04813417	0.04320335
27.47291	-0.1156137	-0.4401625	0	0	0.04751598	-0.04264849
27.48876	-0.1156137	-0.4401625	0	0	0	0
27.50533	-0.1156397	-0.4401392	-0.001567267	0.001406718	-0.04834663	0.04339405
27.5219	-0.1156397	-0.4401392	0	0	0.04729749	-0.04245238
27.53847	-0.1156397	-0.4401392	0	0	0	0
27.55503	-0.1156397	-0.4401392	0	0	0	0
27.5716	-0.1156397	-0.4401392	0	0	0	0
27.5883	-0.1156397	-0.4401392	0	0	0	0
27.60479	-0.1156397	-0.4401392	0	0	0	0
27.6213	-0.1156397	-0.4401392	0	0	0	0
27.63787	-0.1156397	-0.4401392	0	0	0	0
27.65443	-0.1156397	-0.4401392	0	0	0	0
27.671	-0.1156397	-0.4401392	0	0	0	0
27.68757	-0.1156397	-0.4401392	0	0	0	0
27.70414	-0.1156916	-0.4400925	-0.003134895	0.002815558	-0.09461676	0.08497861
27.7207	-0.1156916	-0.4400925	0	0	0.09461676	-0.08497861
27.73817	-0.1156916	-0.4400925	0	0	0	0
27.75383	-0.1157176	-0.4400692	-0.001658134	0.001488277	-0.05004835	0.04492145
27.77059	-0.1157176	-0.4400692	0	0	0.05115268	-0.04591265
27.78697	-0.1157176	-0.4400692	0	0	0	0
27.80375	-0.1157176	-0.4400692	0	0	0	0
27.8201	-0.1157176	-0.4400692	0	0	0	0
27.83667	-0.1157176	-0.4400692	0	0	0	0
27.85324	-0.1157435	-0.4400459	-0.001567447	0.00140688	-0.0473111	0.0424646
27.8698	-0.1157435	-0.4400459	0	0	0.04730566	-0.04245971
27.88637	-0.1157435	-0.4400459	0	0	0	0
27.90294	-0.1157954	-0.4399527	-0.003134895	0.005629318	-0.09461676	0.1699029
27.91951	-0.1157954	-0.4399527	0	0	0.09461132	-0.1698931
27.93631	-0.1157954	-0.4399527	0	0	0	0
27.95288	-0.1159772	-0.4394166	-0.01096537	0.03234141	-0.328515	0.9689265
27.96921	-0.1159772	-0.4394166	0	0	0.333334	-0.9831399
27.98605	-0.1159772	-0.4394166	0	0	0	0
28.00234	-0.1158993	-0.43767	0.004782743	0.1072432	0.1443435	3.236607
28.01968	-0.1158993	-0.43767	0	0	-0.1422473	-3.189604
28.03547	-0.1158993	-0.43767	0	0	0	0
28.05204	-0.1159512	-0.4370649	-0.003134534	0.03652069	-0.09684711	1.128373
28.06879	-0.1159512	-0.4370649	0	0	0.09408052	-1.096139
28.08518	-0.1159512	-0.4370649	0	0	0	0
28.10174	-0.1203368	-0.432025	-0.2647443	0.3042422	-8.034864	9.233606
28.11831	-0.1203368	-0.432025	0	0	7.99046	-9.182577
28.13566	-0.1203368	-0.432025	0	0	0	0
28.1517	-0.1171973	-0.4020246	0.1956738	1.869812	5.859908	55.99589
28.16814	-0.1171973	-0.4020246	0	0	-6.024395	-57.56768
28.18457	-0.1171973	-0.4020246	0	0	0	0
28.20119	-0.07920239	-0.3576086	2.286533	2.672956	69.17494	80.86549
28.21771	-0.07920239	-0.3576086	0	0	-69.0077	-80.66998
28.23427	-0.07920239	-0.3576086	0	0	0	0
28.25084	-0.05861698	-0.3349081	1.242538	1.370204	37.50418	41.3576
28.26741	-0.05861698	-0.3349081	0	0	-37.4977	-41.35046
28.28397	-0.05861698	-0.3349081	0	0	0	0
28.30054	-0.05706954	-0.3333169	0.09341469	0.09605462	2.819586	2.899268
28.31711	-0.05706954	-0.3333169	0	0	-2.819261	-2.898934
28.33395	-0.05706954	-0.3333169	0	0	0	0
28.35024	-0.05704331	-0.3333387	0.001609733	-0.001336986	0.04858465	-0.04035265
28.36681	-0.05704331	-0.3333387	0	0	-0.04898224	0.04068287
28.38357	-0.05704331	-0.3333387	0	0	0	0
28.40014	-0.05693839	-0.3332516	0.006332424	0.005259295	0.1899756	0.1577813
28.41651	-0.05693839	-0.3332516	0	0	-0.1922639	-0.1596818
28.43308	-0.05693839	-0.3332516	0	0	0	0
28.44964	-0.05672854	-0.3330773	0.01266776	0.01052101	0.3823359	0.3175431
28.46621	-0.05672854	-0.3330773	0	0	-0.3823359	-0.3175431
28.48277	-0.05672854	-0.3330773	0	0	0	0
28.49954	-0.05641376	-0.3327723	0.01877106	0.01818592	0.5631081	0.5455548
28.51591	-0.05641376	-0.3327723	0	0	-0.5664791	-0.5488206
28.53248	-0.05641376	-0.3327723	0	0	0	0
28.54907	-0.05633507	-0.3327506	0.004743047	0.001311214	0.1430466	0.0395452
28.56561	-0.05633507	-0.3327506	0	0	-0.1431372	-0.03957024
28.58218	-0.05633507	-0.3327506	0	0	0	0
28.59875	-0.0563613	-0.3327288	-0.001583457	0.001314975	-0.04779157	0.03968832
28.61531	-0.0563613	-0.3327288	0	0	0.04778882	-0.03968603
28.63228	-0.0563613	-0.3327288	0	0	0	0
28.64875	-0.0563613	-0.3327288	0	0	0	0
28.66501	-0.0563613	-0.3327288	0	0	0	0
28.68209	-0.0563613	-0.3327288	0	0	0	0
28.69815	-0.0563613	-0.3327288	0	0	0	0
28.71471	-0.0563613	-0.3327288	0	0	0	0
28.73128	-0.0563613	-0.3327288	0	0	0	0
28.74785	-0.0563613	-0.3327288	0	0	0	0
28.76442	-0.0563613	-0.3327288	0	0	0	0
28.78098	-0.0563613	-0.3327288	0	0	0	0
28.79775	-0.05633507	-0.3327506	0.0015649	-0.001299565	0.0469504	-0.03898977
28.81412	-0.05633507	-0.3327506	0	0	-0.04722878	0.03922094
28.83068	-0.05633507	-0.3327506	0	0	0	0
28.84725	-0.05633507	-0.3327506	0	0	0	0
28.86382	-0.05633507	-0.3327506	0	0	0	0
28.88039	-0.05633507	-0.3327506	0	0	0	0
28.89695	-0.05633507	-0.3327506	0	0	0	0
28.91352	-0.05633507	-0.3327506	0	0	0	0
28.9307	-0.05633507	-0.3327506	0	0	0	0
28.94676	-0.05633507	-0.3327506	0	0	0	0
28.96322	-0.05633507	-0.3327506	0	0	0	0
28.98001	-0.05633507	-0.3327506	0	0	0	0
28.99635	-0.05633507	-0.3327506	0	0	0	0
29.01327	-0.05633507	-0.3327506	0	0	0	0
29.02949	-0.05633507	-0.3327506	0	0	0	0
29.04605	-0.05633507	-0.3327506	0	0	0	0
29.06262	-0.05633507	-0.3327506	0	0	0	0
29.07919	-0.05633507	-0.3327506	0	0	0	0
29.09575	-0.05633507	-0.3327506	0	0	0	0
29.11248	-0.05633507	-0.3327506	0	0	0	0
29.12889	-0.05633507	-0.3327506	0	0	0	0
29.14583	-0.05633507	-0.3327506	0	0	0	0
29.1624	-0.05633507	-0.3327506	0	0	0	0
29.17896	-0.05633507	-0.3327506	0	0	0	0
29.19553	-0.05633507	-0.3327506	0	0	0	0
29.2121	-0.05633507	-0.3327506	0	0	0	0
29.22866	-0.05633507	-0.3327506	0	0	0	0
29.24555	-0.05633507	-0.3327506	0	0	0	0
29.26205	-0.05633507	-0.3327506	0	0	0	0
29.27837	-0.05633507	-0.3327506	0	0	0	0
29.29493	-0.05633507	-0.3327506	0	0	0	0
29.31162	-0.05633507	-0.3327506	0	0	0	0
29.32807	-0.05633507	-0.3327506	0	0	0	0
29.34463	-0.05633507	-0.3327506	0	0	0	0
29.3612	-0.05633507	-0.3327506	0	0	0	0
29.37777	-0.05633507	-0.3327506	0	0	0	0
29.39433	-0.05633507	-0.3327506	0	0	0	0
29.4109	-0.05633507	-0.3327506	0	0	0	0
29.42752	-0.05633507	-0.3327506	0	0	0	0
29.44608	-0.05633507	-0.3327506	0	0	0	0
29.46298	-0.05633507	-0.3327506	0	0	0	0
29.47921	-0.05633507	-0.3327506	0	0	0	0
29.49578	-0.05633507	-0.3327506	0	0	0	0
29.51235	-0.05633507	-0.3327506	0	0	0	0
29.52922	-0.05633507	-0.3327506	0	0	0	0
29.54563	-0.05633507	-0.3327506	0	0	0	0
29.56205	-0.05633507	-0.3327506	0	0	0	0
29.57862	-0.05633507	-0.3327506	0	0	0	0
29.59518	-0.05633507	-0.3327506	0	0	0	0
29.61175	-0.05633507	-0.3327506	0	0	0	0
29.62858	-0.05633507	-0.3327506	0	0	0	0
29.64519	-0.05633507	-0.3327506	0	0	0	0
29.66179	-0.05633507	-0.3327506	0	0	0	0
29.67801	-0.05633507	-0.3327506	0	0	0	0
29.69473	-0.05633507	-0.3327506	0	0	0	0
29.71115	-0.05633507	-0.3327506	0	0	0	0
29.72771	-0.05633507	-0.3327506	0	0	0	0
29.74428	-0.05633507	-0.3327506	0	0	0	0
29.76085	-0.05633507	-0.3327506	0	0	0	0
29.77741	-0.05633507	-0.3327506	0	0	0	0
29.79398	-0.05633507	-0.3327506	0	0	0	0
29.81055	-0.05633507	-0.3327506	0	0	0	0
29.82711	-0.05633507	-0.3327506	0	0	0	0
29.84368	-0.05633507	-0.3327506	0	0	0	0
29.86052	-0.05633507	-0.3327506	0	0	0	0
29.87681	-0.05633507	-0.3327506	0	0	0	0
29.89402	-0.05633507	-0.3327506	0	0	0	0
29.90995	-0.05633507	-0.3327506	0	0	0	0
29.92672	-0.05633507	-0.3327506	0	0	0	0
29.94308	-0.05633507	-0.3327506	0	0	0	0
29.95965	-0.05633507	-0.3327506	0	0	0	0
29.97621	-0.05633507	-0.3327506	0	0	0	0
29.99278	-0.05633507	-0.3327506	0	0	0	0
30.00935	-0.05633507	-0.3327506	0	0	0	0
30.02591	-0.05633507	-0.3327506	0	0	0	0
30.04257	-0.05633507	-0.3327506	0	0	0	0
30.0592	-0.05633507	-0.3327506	0	0	0	0
30.07561	-0.05633507	-0.3327506	0	0	0	0
30.09218	-0.05633507	-0.3327506	0	0	0	0
30.1088	-0.05633507	-0.3327506	0	0	0	0
30.12532	-0.05633507	-0.3327506	0	0	0	0
30.14195	-0.05633507	-0.3327506	0	0	0	0
30.15865	-0.05633507	-0.3327506	0	0	0	0
30.17526	-0.05633507	-0.3327506	0	0	0	0
30.19158	-0.05633507	-0.3327506	0	0	0	0
30.20891	-0.05633507	-0.3327506	0	0	0	0
30.22496	-0.05633507	-0.3327506	0	0	0	0
30.24127	-0.05633507	-0.3327506	0	0	0	0
30.25798	-0.05633507	-0.3327506	0	0	0	0
30.27441	-0.05633507	-0.3327506	0	0	0	0
30.29097	-0.05633507	-0.3327506	0	0	0	0
30.30754	-0.05633507	-0.3327506	0	0	0	0
30.32417	-0.05633507	-0.3327506	0	0	0	0
30.3407	-0.05633507	-0.3327506	0	0	0	0
30.35724	-0.05633507	-0.3327506	0	0	0	0
30.37428	-0.05633507	-0.3327506	0	0	0	0
30.39082	-0.05633507	-0.3327506	0	0	0	0
30.40694	-0.05633507	-0.3327506	0	0	0	0
30.4235	-0.05633507	-0.3327506	0	0	0	0
30.44007	-0.05633507	-0.3327506	0	0	0	0
30.45743	-0.05633507	-0.3327506	0	0	0	0
30.47362	-0.05633507	-0.3327506	0	0	0	0
30.49571	-0.05633507	-0.332707	0	0.001972179	0	0.05150891
30.51229	-0.05633507	-0.332707	0	0	0	-0.05100833
30.52906	-0.0562039	-0.332511	0.007818052	0.01168322	0.2344378	0.3503416
30.54573	-0.0562039	-0.332511	0	0	-0.2337693	-0.3493426
30.56199	-0.0562039	-0.332511	0	0	0	0
30.57887	-0.04142366	-0.319775	0.8751105	0.7540708	26.40177	22.75005
30.59512	-0.04142366	-0.319775	0	0	-26.41089	-22.7579
30.6117	-0.04142366	-0.319775	0	0	0	0
30.62825	0.002526311	-0.2841399	2.655883	2.153421	80.15932	64.99411
30.64532	0.002526311	-0.2841399	0	0	-79.01757	-64.06836
30.66139	0.002526311	-0.2841399	0	0	0	0
30.67795	0.02715122	-0.2646157	1.486363	1.178481	45.54009	36.10701
30.69506	0.02715122	-0.2646157	0	0	-44.14445	-35.00047
30.71109	0.02715122	-0.2646157	0	0	0	0
30.72765	0.04699169	-0.2507999	1.197573	0.8339264	36.73922	25.58324
30.74422	0.04699169	-0.2507999	0	0	-36.14283	-25.16795
30.76097	0.04699169	-0.2507999	0	0	0	0
30.77745	0.08544932	-0.2239884	2.333125	1.626582	70.20775	48.94665
30.79412	0.08544932	-0.2239884	0	0	-70.3855	-49.07057
30.81049	0.08544932	-0.2239884	0	0	0	0
30.82705	0.1170675	-0.198943	1.908698	1.511921	57.95491	45.90733
30.84381	0.1170675	-0.198943	0	0	-57.2782	-45.37129
30.86019	0.1170675	-0.198943	0	0	0	0
30.87684	0.1232925	-0.1937503	0.3737617	0.3117807	11.31532	9.438899
30.89332	0.1232925	-0.1937503	0	0	-11.2808	-9.410101
30.90995	0.1232925	-0.1937503	0	0	0	0
30.92646	0.1311895	-0.1873778	0.4784276	0.3860669	14.43565	11.64884
30.94302	0.1311895	-0.1873778	0	0	-14.46979	-11.67639
30.95961	0.1311895	-0.1873778	0	0	0	0
30.97615	0.1467016	-0.1744266	0.9376072	0.7828163	28.29867	23.6268
30.99272	0.1467016	-0.1744266	0	0	-28.3166	-23.64177
31.00929	0.1467016	-0.1744266	0	0	0	0
31.02587	0.1588862	-0.1561039	0.7346157	1.104688	22.15672	33.31845
31.04247	0.1588862	-0.1561039	0	0	-22.13889	-33.29164
31.05898	0.1588862	-0.1561039	0	0	0	0
31.07555	0.162066	-0.1319207	0.1919581	1.459868	5.802995	44.13258
31.12626	0.162066	-0.1319207	0	0	-2.85305	-21.69784
31.14316	0.162066	-0.1319207	0	0	0	0
31.15967	0.1714833	-0.1156828	0.5703973	0.9835216	17.07408	29.4404
31.17597	0.1714833	-0.1156828	0	0	-17.38677	-29.97957
31.19286	0.1714833	-0.1156828	0	0	0	0
31.21999	0.1714833	-0.1156828	0	0	0	0
31.23712	0.1714833	-0.1156828	0	0	0	0
31.25314	0.1714577	-0.1157024	-0.001595052	-0.001223028	-0.04811384	-0.03689196
31.26969	0.1714577	-0.1157024	0	0	0.04897035	0.03754869
31.28626	0.1714577	-0.1157024	0	0	0	0
31.30282	0.1714322	-0.115722	-0.001541988	-0.001183031	-0.04653997	-0.03570599
31.31939	0.1714322	-0.115722	0	0	0.04654265	0.03570804
31.33596	0.1714322	-0.115722	0	0	0	0
31.35269	0.1714322	-0.115722	0	0	0	0
31.36909	0.1714322	-0.115722	0	0	0	0
31.38566	0.1714322	-0.115722	0	0	0	0
31.40222	0.1714322	-0.115722	0	0	0	0
31.41893	0.1714322	-0.115722	0	0	0	0
31.4354	0.1714322	-0.115722	0	0	0	0
31.45192	0.1714066	-0.1157416	-0.001546806	-0.001186035	-0.04687971	-0.03594567
31.46849	0.1714066	-0.1157416	0	0	0.0467446	0.03584207
31.48506	0.1714066	-0.1157416	0	0	0	0
31.50163	0.1714066	-0.1157416	0	0	0	0
31.51819	0.1714066	-0.1157416	0	0	0	0
31.5351	0.1714066	-0.1157416	0	0	0	0
31.55166	0.1714066	-0.1157416	0	0	0	0
31.56792	0.1714066	-0.1157416	0	0	0	0
31.58446	0.1714066	-0.1157416	0	0	0	0
31.60103	0.1714066	-0.1157416	0	0	0	0
31.61759	0.1714066	-0.1157416	0	0	0	0
31.63416	0.1714066	-0.1157416	0	0	0	0
31.65073	0.1714066	-0.1157416	0	0	0	0
31.66763	0.1714066	-0.1157416	0	0	0	0
31.68404	0.1714066	-0.1157416	0	0	0	0
31.70043	0.1714066	-0.1157416	0	0	0	0
31.71699	0.1714066	-0.1157416	0	0	0	0
31.73356	0.1714066	-0.1157416	0	0	0	0
31.75024	0.1714066	-0.1157416	0	0	0	0
31.76669	0.1714066	-0.1157416	0	0	0	0
31.78352	0.1714066	-0.1157416	0	0	0	0
31.79983	0.1713811	-0.1157612	-0.001567435	-0.001201853	-0.04730802	-0.03627408
31.81639	0.1713811	-0.1157612	0	0	0.04768408	0.03656244
31.83296	0.1713811	-0.1157612	0	0	0	0
31.84953	0.1713811	-0.1157612	0	0	0	0
31.86609	0.1713811	-0.1157612	0	0	0	0
31.88266	0.1713811	-0.1157612	0	0	0	0
31.89922	0.17133	-0.115722	-0.003084521	0.002365789	-0.09309638	0.07140376
31.91579	0.17133	-0.115722	0	0	0.09309103	-0.07139964
31.93236	0.17133	-0.115722	0	0	0	0
31.9491	0.1709723	-0.1154477	-0.02137375	0.01638978	-0.6417733	0.4921233
31.96596	0.1709723	-0.1154477	0	0	0.6361264	-0.4877932
31.98207	0.1709723	-0.1154477	0	0	0	0
31.99903	0.1649865	-0.110867	-0.3528908	0.2700535	-10.67054	8.165743
32.01519	0.1649865	-0.110867	0	0	10.65333	-8.152577
32.03176	0.1649865	-0.110867	0	0	0	0
32.04833	0.1643207	-0.1114147	-0.04018949	-0.03305786	-1.212921	-0.9976884
32.06522	0.1643207	-0.1114147	0	0	1.20103	0.9879071
32.08146	0.1643207	-0.1114147	0	0	0	0
32.09802	0.1633985	-0.1122756	-0.05567441	-0.05197463	-1.697454	-1.584652
32.11483	0.1633985	-0.1122756	0	0	1.668158	1.557302
32.13116	0.1633985	-0.1122756	0	0	0	0
32.14772	0.1626298	-0.1129018	-0.0463974	-0.03780239	-1.41067	-1.149347
32.16429	0.1626298	-0.1129018	0	0	1.400276	1.140878
32.18112	0.1626298	-0.1129018	0	0	0	0
32.19743	0.1317844	-0.1367775	-1.89145	-1.464059	-57.08408	-44.18538
32.21405	0.1317844	-0.1367775	0	0	57.43453	44.45665
32.23058	0.1317844	-0.1367775	0	0	0	0
32.24713	0.07266133	-0.1822528	-3.571965	-2.747425	-107.9886	-83.0609
32.26369	0.07266133	-0.1822528	0	0	107.8518	82.95567
32.28026	0.07266133	-0.1822528	0	0	0	0
32.29683	0.03585305	-0.211408	-2.221752	-1.759816	-67.0526	-53.11134
32.31358	0.03585305	-0.211408	0	0	66.67647	52.8134
32.33	0.03585305	-0.211408	0	0	0	0
32.34653	0.002157891	-0.2396056	-2.038538	-1.705937	-61.87939	-51.78336
32.36309	0.002157891	-0.2396056	0	0	61.5941	51.54462
32.37966	0.002157891	-0.2396056	0	0	0	0
32.39622	-0.02507369	-0.2612834	-1.64408	-1.308775	-49.62415	-39.50347
32.4128	-0.02507369	-0.2612834	0	0	49.61844	39.49892
32.42936	-0.02507369	-0.2612834	0	0	0	0
32.44593	-0.03540625	-0.2696567	-0.6236745	-0.5054128	-18.82253	-15.25339
32.4625	-0.03540625	-0.2696567	0	0	18.82253	15.25339
32.47932	-0.03540625	-0.2696567	0	0	0	0
32.49563	-0.03283031	-0.2723085	0.1579206	-0.1625734	4.766054	-4.906476
32.5122	-0.03283031	-0.2723085	0	0	-4.802546	4.944043
32.52877	-0.03283031	-0.2723085	0	0	0	0
32.54593	-0.0246266	-0.2789333	0.4782193	-0.3861811	14.18126	-11.45193
32.56295	-0.0246266	-0.2789333	0	0	-13.98977	11.29729
32.57906	-0.0246266	-0.2789333	0	0	0	0
32.59562	-0.009999666	-0.2907219	0.8830868	-0.7117202	27.03128	-21.78575
32.61219	-0.009999666	-0.2907219	0	0	-26.65468	21.48223
32.62876	-0.009999666	-0.2907219	0	0	0	0
32.64532	0.002263154	-0.3007035	0.7401853	-0.6024925	22.33884	-18.18326
32.66189	0.002263154	-0.3007035	0	0	-22.33884	18.18326
32.67875	0.002263154	-0.3007035	0	0	0	0
32.69503	0.003815771	-0.3020086	0.09538532	-0.08017745	2.878735	-2.41976
32.71159	0.003815771	-0.3020086	0	0	-2.904145	2.441119
32.72816	0.003815771	-0.3020086	0	0	0	0
32.74475	0.003789456	-0.30203	-0.001585834	-0.001289511	-0.04782201	-0.03888619
32.7613	0.003789456	-0.30203	0	0	0.04786055	0.03891753
32.77786	0.003789456	-0.30203	0	0	0	0
32.79443	0.00376314	-0.3020514	-0.001588038	-0.001291293	-0.04792157	-0.0389668
32.811	0.00376314	-0.3020514	0	0	0.04792709	0.03897129
32.82756	0.00376314	-0.3020514	0	0	0	0
32.84413	0.003736825	-0.30203	-0.00158877	0.001291887	-0.04795468	0.03899373
32.86069	0.003736825	-0.30203	0	0	0.04795468	-0.03899373
32.87769	0.003736825	-0.30203	0	0	0	0
32.89383	0.003710509	-0.3020086	-0.001630451	0.00132578	-0.04921277	0.04001673
32.9112	0.003710509	-0.3020086	0	0	0.04864704	-0.03955671
32.9274	0.003710509	-0.3020086	0	0	0	0
32.94353	0.003710509	-0.3020086	0	0	0	0
32.96022	0.003710509	-0.3020086	0	0	0	0
32.97667	0.003710509	-0.3020086	0	0	0	0
32.99323	0.003684194	-0.3019872	-0.001589136	0.001292185	-0.04814868	0.03915147
33.0098	0.003684194	-0.3019872	0	0	0.04796573	-0.03900271
33.02668	0.003684194	-0.3019872	0	0	0	0
33.0437	0.003684194	-0.3019872	0	0	0	0
33.0595	0.003684194	-0.3019872	0	0	0	0
33.07631	0.003684194	-0.3019872	0	0	0	0
33.09278	0.003684194	-0.3019872	0	0	0	0
33.10922	0.003684194	-0.3019872	0	0	0	0
33.1258	0.003684194	-0.3019872	0	0	0	0
33.14233	0.003684194	-0.3019872	0	0	0	0
33.15944	0.003684194	-0.3019872	0	0	0	0
33.17591	0.003684194	-0.3019872	0	0	0	0
33.19279	0.003684194	-0.3019872	0	0	0	0
33.21241	0.003684194	-0.3019872	0	0	0	0
33.22907	0.003684194	-0.3019872	0	0	0	0
33.24601	0.003710509	-0.3019657	0.001553702	0.001265132	0.04624134	0.03765291
33.26211	0.003710509	-0.3019657	0	0	-0.04702074	-0.03828756
33.27868	0.003710509	-0.3019657	0	0	0	0
33.29525	0.003710509	-0.3019657	0	0	0	0
33.31262	0.003710509	-0.3019657	0	0	0	0
33.32842	0.003710509	-0.3019657	0	0	0	0
33.34495	0.003710509	-0.3019657	0	0	0	0
33.36178	0.003710509	-0.3019657	0	0	0	0
33.37809	0.003710509	-0.3019657	0	0	0	0
33.39465	0.003710509	-0.3019657	0	0	0	0
33.41122	0.003710509	-0.3019657	0	0	0	0
33.42807	0.003710509	-0.3019657	0	0	0	0
33.44435	0.003710509	-0.3019657	0	0	0	0
33.46092	0.003710509	-0.3019657	0	0	0	0
33.47758	0.003710509	-0.3019657	0	0	0	0
33.49407	0.003684194	-0.3019443	-0.001596122	0.001297866	-0.04815441	0.03915614
33.51062	0.003684194	-0.3019443	0	0	0.04831009	-0.03928272
33.5274	0.003684194	-0.3019443	0	0	0	0
33.54375	0.003684194	-0.3019443	0	0	0	0
33.56062	0.003684194	-0.3019443	0	0	0	0
33.57689	0.003684194	-0.3019443	0	0	0	0
33.59345	0.003684194	-0.3019443	0	0	0	0
33.61002	0.003684194	-0.3019443	0	0	0	0
33.62676	0.003684194	-0.3019443	0	0	0	0
33.64315	0.003684194	-0.3019443	0	0	0	0
33.65988	0.003684194	-0.3019443	0	0	0	0
33.67628	0.003684194	-0.3019443	0	0	0	0
33.69285	0.003657878	-0.3019229	-0.001588404	0.00129159	-0.04817662	0.03917419
33.70982	0.003657878	-0.3019229	0	0	0.04736016	-0.0385103
33.72611	0.003657878	-0.3019229	0	0	0	0
33.74274	0.003657878	-0.3019229	0	0	0	0
33.75931	0.003657878	-0.3019229	0	0	0	0
33.77587	0.003657878	-0.3019229	0	0	0	0
33.7931	0.003657878	-0.3019229	0	0	0	0
33.80967	0.003657878	-0.3019229	0	0	0	0
33.82624	0.003657878	-0.3019229	0	0	0	0
33.8428	0.003657878	-0.3019229	0	0	0	0
33.86021	0.003657878	-0.3019229	0	0	0	0
33.87593	0.003657878	-0.3019229	0	0	0	0
33.8933	0.003657878	-0.3019229	0	0	0	0
33.90907	0.003657878	-0.3019229	0	0	0	0
33.92564	0.003657878	-0.3019229	0	0	0	0
33.94235	0.003657878	-0.3019229	0	0	0	0
33.95877	0.003657878	-0.3019229	0	0	0	0
33.97538	0.003657878	-0.3019229	0	0	0	0
33.99237	0.003657878	-0.3019229	0	0	0	0
34.00847	0.003657878	-0.3019229	0	0	0	0
34.02504	0.003657878	-0.3019229	0	0	0	0
34.0416	0.003631563	-0.3019015	-0.001588404	0.00129159	-0.04793812	0.03898026
34.05817	0.003631563	-0.3019015	0	0	0.04793812	-0.03898026
34.07496	0.003631563	-0.3019015	0	0	0	0
34.0913	0.003631563	-0.3019015	0	0	0	0
34.10787	0.003631563	-0.3019015	0	0	0	0
34.12443	0.003631563	-0.3019015	0	0	0	0
34.14163	0.003631563	-0.3019015	0	0	0	0
34.15776	0.003631563	-0.3019015	0	0	0	0
34.17448	0.003631563	-0.3019015	0	0	0	0
34.19071	0.003631563	-0.3019015	0	0	0	0
34.20727	0.003631563	-0.3019015	0	0	0	0
34.22383	0.003631563	-0.3019015	0	0	0	0
34.24047	0.003631563	-0.3019015	0	0	0	0
34.25698	0.003631563	-0.3019015	0	0	0	0
34.27353	0.003631563	-0.3019015	0	0	0	0
34.29063	0.003631563	-0.3019015	0	0	0	0
34.30738	0.003631563	-0.3019015	0	0	0	0
34.32397	0.003631563	-0.3019015	0	0	0	0
34.34034	0.003631563	-0.3019015	0	0	0	0
34.35691	0.003631563	-0.3019015	0	0	0	0
34.3736	0.003631563	-0.3019015	0	0	0	0
34.39012	0.003631563	-0.3019015	0	0	0	0
34.40693	0.003631563	-0.3019015	0	0	0	0
34.42318	0.003631563	-0.3019015	0	0	0	0
34.43974	0.003631563	-0.3019015	0	0	0	0
34.45631	0.003631563	-0.3019015	0	0	0	0
34.47297	0.003631563	-0.3019015	0	0	0	0
34.48944	0.003631563	-0.3019015	0	0	0	0
34.50601	0.003631563	-0.3019015	0	0	0	0
34.52258	0.003631563	-0.3019015	0	0	0	0
34.53964	0.003631563	-0.3019015	0	0	0	0
34.55575	0.003631563	-0.3019015	0	0	0	0
34.57228	0.003631563	-0.3019015	0	0	0	0
34.58899	0.003631563	-0.3019015	0	0	0	0
34.60541	0.003631563	-0.3019015	0	0	0	0
34.62207	0.003631563	-0.3019015	0	0	0	0
34.63854	0.003631563	-0.3019015	0	0	0	0
34.65511	0.003631563	-0.3019015	0	0	0	0
34.67168	0.003631563	-0.3019015	0	0	0	0
34.68824	0.003631563	-0.3019015	0	0	0	0
34.70496	0.003631563	-0.3019015	0	0	0	0
34.72138	0.003631563	-0.3019015	0	0	0	0
34.73795	0.003631563	-0.3019015	0	0	0	0
34.7553	0.003631563	-0.3019015	0	0	0	0
34.77158	0.003631563	-0.3019015	0	0	0	0
34.78765	0.003631563	-0.3019015	0	0	0	0
34.80422	0.003631563	-0.3019015	0	0	0	0
34.82079	0.003631563	-0.3019015	0	0	0	0
34.83735	0.003631563	-0.3019015	0	0	0	0
34.85392	0.003631563	-0.3019015	0	0	0	0
34.87049	0.003631563	-0.3019015	0	0	0	0
34.88705	0.003631563	-0.3019015	0	0	0	0
34.90362	0.003631563	-0.3019015	0	0	0	0
34.92031	0.003631563	-0.3019015	0	0	0	0
34.93675	0.003631563	-0.3019015	0	0	0	0
34.9538	0.003631563	-0.3019015	0	0	0	0
34.96996	0.003631563	-0.3019015	0	0	0	0
34.98645	0.003631563	-0.3019015	0	0	0	0
35.00314	0.003631563	-0.3019015	0	0	0	0
35.01982	0.003631563	-0.3019015	0	0	0	0
35.0383	0.003631563	-0.3019015	0	0	0	0
35.05487	0.003631563	-0.3019015	0	0	0	0
35.07146	0.003631563	-0.3019015	0	0	0	0
35.08801	0.003631563	-0.3019015	0	0	0	0
35.10457	0.003631563	-0.3019015	0	0	0	0
35.12114	0.003631563	-0.3019015	0	0	0	0
35.13771	0.003631563	-0.3019015	0	0	0	0
35.15427	0.003631563	-0.3019015	0	0	0	0
35.17139	0.003631563	-0.3019015	0	0	0	0
35.18741	0.003631563	-0.3019015	0	0	0	0
35.20397	0.003631563	-0.3019015	0	0	0	0
35.22054	0.003631563	-0.3019015	0	0	0	0
35.2371	0.003631563	-0.3019015	0	0	0	0
35.25367	0.003631563	-0.3019015	0	0	0	0
35.27024	0.003631563	-0.3019015	0	0	0	0
35.2868	0.003631563	-0.3019015	0	0	0	0
35.30337	0.003631563	-0.3019015	0	0	0	0
35.31994	0.003631563	-0.3019015	0	0	0	0
35.33651	0.003631563	-0.3019015	0	0	0	0
35.35319	0.003631563	-0.3019015	0	0	0	0
35.36964	0.003631563	-0.3019015	0	0	0	0
35.38639	0.003631563	-0.3019015	0	0	0	0
35.40277	0.003631563	-0.3019015	0	0	0	0
35.41934	0.003631563	-0.3019015	0	0	0	0
35.43591	0.003631563	-0.3019015	0	0	0	0
35.45251	0.003631563	-0.3019015	0	0	0	0
35.46904	0.003631563	-0.3019015	0	0	0	0
35.48561	0.003631563	-0.3019015	0	0	0	0
35.50217	0.003631563	-0.3019015	0	0	0	0
35.51874	0.003631563	-0.3019015	0	0	0	0
35.53537	0.003631563	-0.3019015	0	0	0	0
35.55196	0.003631563	-0.3019015	0	0	0	0
35.56853	0.003631563	-0.3019015	0	0	0	0
35.585	0.003631563	-0.3019015	0	0	0	0
35.60175	0.003631563	-0.3019015	0	0	0	0
35.61814	0.003631563	-0.3019015	0	0	0	0
35.6347	0.003631563	-0.3019015	0	0	0	0
35.65127	0.003631563	-0.3019015	0	0	0	0
35.66784	0.003631563	-0.3019015	0	0	0	0
35.6844	0.003631563	-0.3019015	0	0	0	0
35.70097	0.003631563	-0.3019015	0	0	0	0
35.71804	0.003631563	-0.3019015	0	0	0	0
35.7341	0.003631563	-0.3019015	0	0	0	0
35.7509	0.003631563	-0.3019015	0	0	0	0
35.76741	0.003631563	-0.3019015	0	0	0	0
35.7838	0.003631563	-0.3019015	0	0	0	0
35.80084	0.003631563	-0.3019015	0	0	0	0
35.81694	0.003631563	-0.3019015	0	0	0	0
35.8335	0.003631563	-0.3019015	0	0	0	0
35.85007	0.003631563	-0.3019015	0	0	0	0
35.86716	0.003631563	-0.3019015	0	0	0	0
35.8832	0.003631563	-0.3019015	0	0	0	0
35.90002	0.003631563	-0.3019015	0	0	0	0
35.91634	0.003631563	-0.3019015	0	0	0	0
35.9329	0.003631563	-0.3019015	0	0	0	0
35.95004	0.003631563	-0.3019015	0	0	0	0
35.96603	0.003631563	-0.3019015	0	0	0	0
35.98279	0.003631563	-0.3019015	0	0	0	0
35.99916	0.003631563	-0.3019015	0	0	0	0
36.01647	0.003631563	-0.3019015	0	0	0	0
36.0323	0.003631563	-0.3019015	0	0	0	0
36.04887	0.003631563	-0.3019015	0	0	0	0
36.06576	0.003631563	-0.3019015	0	0	0	0
36.082	0.003631563	-0.3019015	0	0	0	0
36.09856	0.003631563	-0.3019015	0	0	0	0
36.11513	0.003631563	-0.3019015	0	0	0	0
36.1319	0.003631563	-0.3019015	0	0	0	0
36.14851	0.003631563	-0.3019015	0	0	0	0
36.16512	0.003631563	-0.3019015	0	0	0	0
36.1814	0.003631563	-0.3019015	0	0	0	0
36.19796	0.003631563	-0.3019015	0	0	0	0
36.21477	0.003631563	-0.3019015	0	0	0	0
36.2311	0.003631563	-0.3019015	0	0	0	0
36.24767	0.003631563	-0.3019015	0	0	0	0
36.26429	0.003631563	-0.3019015	0	0	0	0
36.2808	0.003710509	-0.3020086	0.004780622	-0.006480639	0.1442795	-0.1955861
36.29747	0.003710509	-0.3020086	0	0	-0.1440638	0.1952938
36.31432	0.003710509	-0.3020086	0	0	0	0
36.33083	-0.005789409	-0.319105	-0.5754036	-1.035521	-17.24855	-31.04123
36.34746	-0.005789409	-0.319105	0	0	17.36372	31.24849
36.36363	-0.005789409	-0.319105	0	0	0	0
36.3802	-0.0247318	-0.3841721	-1.143365	-3.927453	-34.92499	-119.9672
36.39684	-0.0247318	-0.3841721	0	0	34.42755	118.2585
36.41339	-0.0247318	-0.3841721	0	0	0	0
36.42989	-0.04005751	-0.442309	-0.9284822	-3.52213	-28.08956	-106.5557
36.44646	-0.04005751	-0.442309	0	0	28.07336	106.4943
36.46303	-0.04005751	-0.442309	0	0	0	0
36.48009	-0.0616848	-0.4833843	-1.26777	-2.407787	-37.70144	-71.60374
36.49616	-0.0616848	-0.4833843	0	0	38.26136	72.66717
36.51286	-0.0616848	-0.4833843	0	0	0	0
36.52931	-0.07444113	-0.4996612	-0.7755093	-0.9895422	-23.39684	-29.85413
36.56916	-0.07444113	-0.4996612	0	0	13.77338	17.5747
36.58574	-0.07444113	-0.4996612	0	0	0	0
36.6023	-0.06742396	-0.5154744	0.4236549	-0.9547048	12.78593	-28.81305
36.61945	-0.06742396	-0.5154744	0	0	-12.56461	28.3143
36.63578	-0.06742396	-0.5154744	0	0	0	0
36.652	-0.06742396	-0.5154744	0	0	0	0
36.66857	-0.06742396	-0.5154744	0	0	0	0
36.68513	-0.06742396	-0.5154744	0	0	0	0
36.7017	-0.06726678	-0.5155236	0.0094877	-0.002971736	0.2863393	-0.08968717
36.71827	-0.06726678	-0.5155236	0	0	-0.2863393	0.08968717
36.73484	-0.06726678	-0.5155236	0	0	0	0
36.7514	-0.05140205	-0.5303604	0.9575968	-0.8955503	28.90033	-27.02776
36.76797	-0.05140205	-0.5303604	0	0	-28.90033	27.02776
36.78454	-0.05140205	-0.5303604	0	0	0	0
36.8011	-0.006841999	-0.5732675	2.690269	-2.590475	81.20184	-78.1897
36.81767	-0.006841999	-0.5732675	0	0	-81.20184	78.1897
36.83502	-0.006841999	-0.5732675	0	0	0	0
36.8508	0.01976059	-0.5996375	1.6861	-1.671357	50.89245	-50.44748
36.86737	0.01976059	-0.5996375	0	0	-52.12889	51.67311
36.88435	0.01976059	-0.5996375	0	0	0	0
36.9005	0.02065496	-0.6004292	0.05536106	-0.04900384	1.6708	-1.478939
36.91732	0.02065496	-0.6004292	0	0	-1.679113	1.486297
36.93364	0.02065496	-0.6004292	0	0	0	0
36.9502	0.02128626	-0.5999013	0.03811416	0.03186895	1.159095	0.9691711
36.96677	0.02128626	-0.5999013	0	0	-1.15042	-0.9619176
36.98341	0.02128626	-0.5999013	0	0	0	0
36.9999	0.02638861	-0.6041309	0.3094034	-0.2564806	9.337811	-7.7406
37.01647	0.02638861	-0.6041309	0	0	-9.359363	7.758464
37.03336	0.02638861	-0.6041309	0	0	0	0
37.0496	0.03603702	-0.6137319	0.5941447	-0.5912247	17.93339	-17.84525
37.06617	0.03603702	-0.6137319	0	0	-18.11064	18.02163
37.08273	0.03603702	-0.6137319	0	0	0	0
37.0993	0.03651008	-0.6142128	0.02856052	-0.02903328	0.8620574	-0.876327
37.11586	0.03651008	-0.6142128	0	0	-0.8620574	0.876327
37.13243	0.03651008	-0.6142128	0	0	0	0
37.14899	0.05247809	-0.6305777	0.9640527	-0.9880168	29.09852	-29.82184
37.16556	0.05247809	-0.6305777	0	0	-29.09852	29.82184
37.1825	0.05247809	-0.6305777	0	0	0	0
37.19869	0.07179743	-0.6508028	1.193039	-1.248969	36.01012	-37.69831
37.21537	0.07179743	-0.6508028	0	0	-36.2943	37.9958
37.23183	0.07179743	-0.6508028	0	0	0	0
37.24859	0.08132027	-0.6609067	0.5679989	-0.6026557	17.09697	-18.14015
37.26496	0.08132027	-0.6609067	0	0	-17.14224	18.18818
37.28153	0.08132027	-0.6609067	0	0	0	0
37.29809	0.09427236	-0.6748896	0.7819697	-0.844207	23.60261	-25.48115
37.31523	0.09427236	-0.6748896	0	0	-23.20189	25.04854
37.33141	0.09427236	-0.6748896	0	0	0	0
37.34779	0.1041481	-0.6857167	0.6026232	-0.6606764	18.5068	-20.28964
37.36436	0.1041481	-0.6857167	0	0	-18.28615	20.04773
37.38093	0.1041481	-0.6857167	0	0	0	0
37.39768	0.1132242	-0.6957948	0.5418452	-0.6016604	16.26305	-18.05835
37.41406	0.1132242	-0.6957948	0	0	-16.35292	18.15815
37.43063	0.1132242	-0.6957948	0	0	0	0
37.44755	0.1150164	-0.6978457	0.1059121	-0.1211994	3.162573	-3.619057
37.46376	0.1150164	-0.6978457	0	0	-3.196434	3.657806
37.4804	0.1150164	-0.6978457	0	0	0	0
37.49689	0.1151723	-0.6980192	0.009443642	-0.01051662	0.2850425	-0.3174287
37.51376	0.1151723	-0.6980192	0	0	-0.2830544	0.3152148
37.53003	0.1151723	-0.6980192	0	0	0	0
37.54659	0.1151982	-0.6980481	0.001568078	-0.001745307	0.04775906	-0.05315695
37.56326	0.1151982	-0.6980481	0	0	-0.04718345	0.05251629
37.57979	0.1151982	-0.6980481	0	0	0	0
37.59629	0.1152242	-0.6981349	0.001573426	-0.0052589	0.04763416	-0.1592088
37.61286	0.1152242	-0.6981349	0	0	-0.04757921	0.1590251
37.62943	0.1152242	-0.6981349	0	0	0	0
37.646	0.1151723	-0.6981349	-0.003134984	0	-0.094614	0
37.66256	0.1151723	-0.6981349	0	0	0.094614	0
37.67931	0.1151723	-0.6981349	0	0	0	0
37.69572	0.1151203	-0.698077	-0.003165597	0.003527523	-0.09548295	0.1063996
37.71244	0.1151203	-0.698077	0	0	0.09553792	-0.1064608
37.72883	0.1151203	-0.698077	0	0	0	0
37.74539	0.1150684	-0.698077	-0.003135256	0	-0.09515903	0
37.76196	0.1150684	-0.698077	0	0	0.09463311	0
37.77898	0.1150684	-0.698077	0	0	0	0
37.79532	0.1149905	-0.6980481	-0.00476858	0.00176935	-0.1429287	0.05303275
37.81166	0.1149905	-0.6980481	0	0	0.1459321	-0.05414714
37.82823	0.1149905	-0.6980481	0	0	0	0
37.84479	0.1148866	-0.698106	-0.006271412	-0.003494214	-0.1892934	-0.1054677
37.86136	0.1148866	-0.698106	0	0	0.1892716	0.1054556
37.87793	0.1148866	-0.698106	0	0	0	0
37.89606	0.1148606	-0.6981349	-0.001432483	-0.001594388	-0.04128375	-0.04594978
37.91263	0.1148606	-0.6981349	0	0	0.0412792	0.04594473
37.9292	0.1148606	-0.6981349	0	0	0	0
37.94577	0.1148606	-0.6981349	0	0	0	0
37.96236	0.1148606	-0.6981349	0	0	0	0
37.9789	0.1148606	-0.6981349	0	0	0	0
37.99546	0.1147827	-0.698106	-0.004703783	0.001745307	-0.1421077	0.05272812
38.01203	0.1147827	-0.698106	0	0	0.1419768	-0.05267955
38.02882	0.1147827	-0.698106	0	0	0	0
38.04517	0.1147048	-0.6980192	-0.004767467	0.005310458	-0.1438824	0.1602699
38.06173	0.1147048	-0.6980192	0	0	0.1448665	-0.161366
38.0788	0.1147048	-0.6980192	0	0	0	0
38.09487	0.1146269	-0.6979324	-0.004848275	0.005399953	-0.1463212	0.1629709
38.11143	0.1146269	-0.6979324	0	0	0.1485444	-0.1654471
38.128	0.1146269	-0.6979324	0	0	0	0
38.14457	0.114549	-0.6978457	-0.0047027	0.005234717	-0.1419441	0.1580023
38.16113	0.114549	-0.6978457	0	0	0.1419278	-0.1579841
38.1777	0.114549	-0.6978457	0	0	0	0
38.19427	0.1144191	-0.6977011	-0.007838584	0.008728126	-0.2365689	0.2634154
38.21083	0.1144191	-0.6977011	0	0	0.2365689	-0.2634154
38.2274	0.1144191	-0.6977011	0	0	0	0
38.24397	0.1141594	-0.6973543	-0.01568123	0.02094009	-0.4733149	0.632046
38.26053	0.1141594	-0.6973543	0	0	0.4733149	-0.632046
38.2771	0.1141594	-0.6973543	0	0	0	0
38.29367	0.1139776	-0.697152	-0.01097492	0.01221074	-0.3312236	0.3685209
38.31078	0.1139776	-0.697152	0	0	0.325822	-0.3625111
38.32698	0.1139776	-0.697152	0	0	0	0
38.34337	0.1116651	-0.6945835	-0.141138	0.1567666	-4.331359	4.810984
38.35994	0.1116651	-0.6945835	0	0	4.283222	-4.757516
38.3765	0.1116651	-0.6945835	0	0	0	0
38.39341	0.1027422	-0.6846888	-0.5277725	0.58525	-15.76666	17.48374
38.40964	0.1027422	-0.6846888	0	0	15.92821	-17.66288
38.4262	0.1027422	-0.6846888	0	0	0	0
38.44334	0.08735606	-0.667594	-0.8979049	0.9976208	-26.64181	29.60049
38.45991	0.08735606	-0.667594	0	0	26.63879	-29.59714
38.47739	0.08735606	-0.667594	0	0	0	0
38.49304	0.0498009	-0.6268962	-2.400015	2.600846	-72.44093	78.50273
38.50964	0.0498009	-0.6268962	0	0	74.42033	-80.64777
38.52618	0.0498009	-0.6268962	0	0	0	0
38.54274	0.01297296	-0.5776864	-2.223451	2.970992	-67.18122	89.76806
38.55966	0.01297296	-0.5776864	0	0	66.40057	-88.72496
38.57623	0.01297296	-0.5776864	0	0	0	0
38.59244	0.007578802	-0.5305348	-0.3326382	2.907672	-10.14769	88.70347
38.60901	0.007578802	-0.5305348	0	0	10.14651	-88.69315
38.6256	0.007578802	-0.5305348	0	0	0	0
38.64214	0.01363073	-0.4983479	0.3658007	1.945494	11.03989	58.71514
38.6589	0.01363073	-0.4983479	0	0	-10.9855	-58.4259
38.67528	0.01363073	-0.4983479	0	0	0	0
38.69215	0.01765606	-0.4771957	0.2385745	1.253655	7.174586	37.70082
38.70841	0.01765606	-0.4771957	0	0	-7.200191	-37.83537
38.72498	0.01765606	-0.4771957	0	0	0	0
38.74155	0.002263154	-0.462981	-0.9291177	0.8580006	-28.04083	25.89451
38.75888	0.002263154	-0.462981	0	0	27.40354	-25.306
38.77468	0.002263154	-0.462981	0	0	0	0
38.79124	-0.009262893	-0.4526429	-0.6958738	0.6241543	-21.50408	19.28779
38.80811	-0.009262893	-0.4526429	0	0	20.81697	-18.6715
38.82485	-0.009262893	-0.4526429	0	0	0	0
38.84095	-0.009368147	-0.4525488	-0.006538283	0.005842713	-0.1991138	0.1779312
38.85784	-0.009368147	-0.4525488	0	0	0.1981928	-0.1771083
38.87408	-0.009368147	-0.4525488	0	0	0	0
38.89079	-0.01655112	-0.4461434	-0.4297064	0.383194	-13.03912	11.62774
38.90738	-0.01655112	-0.4461434	0	0	12.9032	-11.50653
38.92378	-0.01655112	-0.4461434	0	0	0	0
38.94041	-0.05187447	-0.415012	-2.123322	1.871338	-64.27437	56.64666
38.95691	-0.05187447	-0.415012	0	0	64.08935	-56.4836
38.9735	-0.05187447	-0.415012	0	0	0	0
38.99004	-0.09513301	-0.3775795	-2.615306	2.263074	-78.9301	68.2997
39.00662	-0.09513301	-0.3775795	0	0	78.97556	-68.33904
39.02318	-0.09513301	-0.3775795	0	0	0	0
39.03974	-0.124925	-0.3521359	-1.798662	1.536137	-54.30247	46.37672
39.05631	-0.124925	-0.3521359	0	0	54.28997	-46.36604
39.07288	-0.124925	-0.3521359	0	0	0	0
39.08944	-0.1447953	-0.3352789	-1.199375	1.01749	-36.1972	30.70792
39.10639	-0.1447953	-0.3352789	0	0	35.78522	-30.35841
39.12258	-0.1447953	-0.3352789	0	0	0	0
39.13914	-0.1530824	-0.3282697	-0.500323	0.4231687	-15.27564	12.92
39.15653	-0.1530824	-0.3282697	0	0	14.7367	-12.46417
39.17228	-0.1530824	-0.3282697	0	0	0	0
39.18885	-0.1530053	-0.3283349	0.004654581	-0.003934132	0.1440409	-0.1217459
39.20552	-0.1530053	-0.3283349	0	0	-0.1400402	0.1183644
39.22239	-0.1530053	-0.3283349	0	0	0	0
39.24174	-0.1530053	-0.3283349	0	0	0	0
39.25831	-0.1530053	-0.3283349	0	0	0	0
39.27488	-0.1530053	-0.3283349	0	0	0	0
39.29171	-0.1529538	-0.3282915	0.003053832	0.002581152	0.09142803	0.07727657
39.30801	-0.1529538	-0.3282915	0	0	-0.09216484	-0.07789933
39.32458	-0.1529538	-0.3282915	0	0	0	0
39.34114	-0.1507168	-0.3264894	0.1350314	0.108776	4.075256	3.282865
39.35814	-0.1507168	-0.3264894	0	0	-4.023377	-3.241074
39.3746	-0.1507168	-0.3264894	0	0	0	0
39.39109	-0.1369789	-0.3150041	0.8332469	0.6966212	25.29011	21.14335
39.40741	-0.1369789	-0.3150041	0	0	-25.39596	-21.23184
39.42416	-0.1369789	-0.3150041	0	0	0	0
39.44054	-0.1113013	-0.293766	1.567592	1.296562	47.31001	39.13032
39.45711	-0.1113013	-0.293766	0	0	-47.57841	-39.35232
39.47406	-0.1113013	-0.293766	0	0	0	0
39.49024	-0.08037908	-0.2689628	1.910457	1.53241	57.66434	46.25355
39.5072	-0.08037908	-0.2689628	0	0	-57.63779	-46.23226
39.52338	-0.08037908	-0.2689628	0	0	0	0
39.53994	-0.05158577	-0.2466596	1.737967	1.346224	53.08141	41.1167
39.55651	-0.05158577	-0.2466596	0	0	-52.45196	-40.62913
39.57308	-0.05158577	-0.2466596	0	0	0	0
39.59171	-0.03884887	-0.2478862	0.6836411	-0.06583839	19.42261	-1.870504
39.60833	-0.03884887	-0.2478862	0	0	-19.39318	1.86767
39.62495	-0.03884887	-0.2478862	0	0	0	0
39.64141	-0.01899771	-0.2638607	1.205434	-0.9700322	36.43461	-29.31951
39.65837	-0.01899771	-0.2638607	0	0	-36.06865	29.02501
39.67455	-0.01899771	-0.2638607	0	0	0	0
39.69111	-0.00552626	-0.274711	0.8131386	-0.6549242	24.83218	-20.00052
39.70799	-0.00552626	-0.274711	0	0	-24.31384	19.58303
39.72425	-0.00552626	-0.274711	0	0	0	0
39.74092	-0.005684149	-0.274711	-0.009471371	0	-0.2876347	0
39.75738	-0.005684149	-0.274711	0	0	0.2858465	0
39.77395	-0.005684149	-0.274711	0	0	0	0
39.79062	-0.005815724	-0.2748165	-0.007892782	-0.006326874	-0.2374665	-0.1903537
39.80746	-0.005815724	-0.2748165	0	0	0.2355203	0.1887936
39.82375	-0.005815724	-0.2748165	0	0	0	0
39.84032	-0.005894668	-0.2748797	-0.004765099	-0.003817206	-0.145013	-0.1161664
39.85691	-0.005894668	-0.2748797	0	0	0.1437117	0.115124
39.87352	-0.005894668	-0.2748797	0	0	0	0
39.89002	-0.006052558	-0.2750063	-0.009569889	-0.007671604	-0.2890528	-0.2317162
39.90659	-0.006052558	-0.2750063	0	0	0.2894196	0.2320103
39.92315	-0.006052558	-0.2750063	0	0	0	0
39.93972	-0.008578737	-0.2771166	-0.1525156	-0.1274074	-4.60346	-3.845607
39.95642	-0.008578737	-0.2771166	0	0	4.584457	3.829733
39.97285	-0.008578737	-0.2771166	0	0	0	0
39.98954	-0.01015755	-0.2784684	-0.0946	-0.081	-2.856349	-2.445711
40.00624	-0.01015755	-0.2784684	0	0	2.832856	2.425596
40.02309	-0.01015755	-0.2784684	0	0	0	0
40.03912	-0.01013123	-0.2784896	0.001641138	-0.001317883	0.04992047	-0.04008762
40.05597	-0.01013123	-0.2784896	0	0	-0.04990889	0.04007832
40.07225	-0.01013123	-0.2784896	0	0	0	0
40.08882	-0.007657745	-0.2804769	0.1493	-0.1199542	4.544601	-3.651331
40.10587	-0.007657745	-0.2804769	0	0	-4.441959	3.568864
40.12196	-0.007657745	-0.2804769	0	0	0	0
40.13852	0.01363073	-0.2976691	1.285567	-1.038202	39.365	-31.7905
40.15519	0.01363073	-0.2976691	0	0	-38.68715	31.24308
40.17175	0.01363073	-0.2976691	0	0	0	0
40.18843	0.02554707	-0.3073671	0.7143372	-0.5813604	21.48947	-17.48911
40.20479	0.02554707	-0.3073671	0	0	-21.62097	17.59614
40.22202	0.02554707	-0.3073671	0	0	0	0
40.23792	0.02554707	-0.3073671	0	0	0	0
40.25449	0.02554707	-0.3073671	0	0	0	0
40.27131	0.02554707	-0.3073671	0	0	0	0
40.28762	0.02554707	-0.3073671	0	0	0	0
40.30418	0.02554707	-0.3073671	0	0	0	0
40.32075	0.02554707	-0.3073671	0	0	0	0
40.33732	0.02554707	-0.3073671	0	0	0	0
40.35389	0.02554707	-0.3073671	0	0	0	0
40.37045	0.02554707	-0.3073671	0	0	0	0
40.38702	0.02554707	-0.3073671	0	0	0	0
40.40359	0.02554707	-0.3073671	0	0	0	0
40.42042	0.02554707	-0.3073671	0	0	0	0
40.43672	0.02552077	-0.3073457	-0.001613019	0.001316097	-0.04868101	0.03971989
40.45329	0.02552077	-0.3073457	0	0	0.04907082	-0.04003795
40.46986	0.02552077	-0.3073457	0	0	0	0
40.48642	0.02549447	-0.3073242	-0.001587392	0.001296986	-0.04790758	0.03914313
40.50299	0.02549447	-0.3073242	0	0	0.04790758	-0.03914313
40.51956	0.02549447	-0.3073242	0	0	0	0
40.53613	0.02544188	-0.3072813	-0.003174784	0.002590375	-0.09581516	0.07817768
40.55269	0.02544188	-0.3072813	0	0	0.09581516	-0.07817768
40.56937	0.02544188	-0.3072813	0	0	0	0
40.58582	0.02544188	-0.3072813	0	0	0	0
40.60239	0.02544188	-0.3072813	0	0	0	0
40.61905	0.02544188	-0.3072813	0	0	0	0
40.63575	0.02533668	-0.3073242	-0.006300245	-0.002570254	-0.1889021	-0.07706469
40.65224	0.02533668	-0.3073242	0	0	0.1897922	0.07742778
40.66866	0.02533668	-0.3073242	0	0	0	0
40.68523	0.0247581	-0.3077965	-0.03493145	-0.02851688	-1.059111	-0.864623
40.70214	0.0247581	-0.3077965	0	0	1.043303	0.8517182
40.71836	0.0247581	-0.3077965	0	0	0	0
40.73492	0.002894729	-0.32573	-1.31998	-1.082715	-40.26821	-33.03005
40.75149	0.002894729	-0.32573	0	0	39.84165	32.68017
40.76812	0.002894729	-0.32573	0	0	0	0
40.78462	-0.02360088	-0.3477135	-1.605934	-1.332449	-48.47277	-40.21803
40.80136	-0.02360088	-0.3477135	0	0	48.317	40.08879
40.81776	-0.02360088	-0.3477135	0	0	0	0
40.83432	-0.02615193	-0.3498462	-0.1539817	-0.1287309	-4.671379	-3.905338
40.85089	-0.02615193	-0.3498462	0	0	4.647178	3.885105
40.86746	-0.02615193	-0.3498462	0	0	0	0
40.88403	-0.02617823	-0.3498242	-0.001587392	0.001327567	-0.04790758	0.04006606
40.90059	-0.02617823	-0.3498242	0	0	0.04790758	-0.04006606
40.91716	-0.02617823	-0.3498242	0	0	0	0
40.93372	-0.02617823	-0.3498242	0	0	0	0
40.95029	-0.02617823	-0.3498242	0	0	0	0
40.96686	-0.02617823	-0.3498242	0	0	0	0
40.98343	-0.02617823	-0.3498242	0	0	0	0
40.99999	-0.02617823	-0.3498242	0	0	0	0
41.01656	-0.02617823	-0.3498242	0	0	0	0
41.03342	-0.02617823	-0.3498242	0	0	0	0
41.05041	-0.02617823	-0.3498242	0	0	0	0
41.06656	-0.02617823	-0.3498242	0	0	0	0
41.08312	-0.02615193	-0.3498462	0.001587757	-0.001327873	0.0485389	-0.04059405
41.09983	-0.02615193	-0.3498462	0	0	-0.04771536	0.0399053
41.11645	-0.02615193	-0.3498462	0	0	0	0
41.13282	-0.02615193	-0.3498462	0	0	0	0
41.1496	-0.02615193	-0.3498462	0	0	0	0
41.16617	-0.02615193	-0.3498462	0	0	0	0
41.18252	-0.02615193	-0.3498462	0	0	0	0
41.19909	-0.02615193	-0.3498462	0	0	0	0
41.21566	-0.02615193	-0.3498462	0	0	0	0
41.23643	-0.02615193	-0.3498462	0	0	0	0
41.253	-0.02615193	-0.3498462	0	0	0	0
41.26956	-0.02615193	-0.3498462	0	0	0	0
41.28613	-0.02615193	-0.3498462	0	0	0	0
41.30277	-0.02615193	-0.3498462	0	0	0	0
41.31926	-0.02615193	-0.3498462	0	0	0	0
41.33583	-0.02615193	-0.3498462	0	0	0	0
41.3524	-0.02615193	-0.3498462	0	0	0	0
41.36896	-0.02615193	-0.3498462	0	0	0	0
41.3859	-0.02615193	-0.3498462	0	0	0	0
41.4021	-0.02615193	-0.3498462	0	0	0	0
41.41866	-0.02615193	-0.3498462	0	0	0	0
41.43523	-0.02615193	-0.3498462	0	0	0	0
41.45179	-0.02615193	-0.3498462	0	0	0	0
41.46836	-0.02615193	-0.3498462	0	0	0	0
41.48493	-0.02615193	-0.3498462	0	0	0	0
41.50193	-0.02615193	-0.3498462	0	0	0	0
41.51806	-0.02615193	-0.3498462	0	0	0	0
41.53469	-0.02615193	-0.3498462	0	0	0	0
41.55119	-0.02615193	-0.3498462	0	0	0	0
41.56776	-0.02615193	-0.3498462	0	0	0	0
41.58432	-0.02615193	-0.3498462	0	0	0	0
41.60132	-0.02615193	-0.3498462	0	0	0	0
41.61746	-0.02615193	-0.3498462	0	0	0	0
41.63403	-0.02615193	-0.3498462	0	0	0	0
41.65066	-0.02615193	-0.3498462	0	0	0	0
41.66839	-0.02615193	-0.3498462	0	0	0	0
41.68533	-0.02615193	-0.3498462	0	0	0	0
41.70153	-0.02615193	-0.3498462	0	0	0	0
41.71809	-0.02615193	-0.3498462	0	0	0	0
41.73466	-0.02615193	-0.3498462	0	0	0	0
41.75171	-0.02615193	-0.3498462	0	0	0	0
41.76818	-0.02615193	-0.3498462	0	0	0	0
41.78436	-0.02615193	-0.3498462	0	0	0	0
41.80093	-0.02615193	-0.3498462	0	0	0	0
