Time	Pos X	Pos Y	Vel X	Vel Y	Acc X	Acc Y
0.01656632	0.01344579	-0.01894634	-0.0002236056	0.0003150806	3.719617E-06	-5.241278E-06
0.04110828	0.01344579	-0.01894634	0	0	-3.720114E-06	5.241979E-06
0.05767895	0.01344579	-0.01894634	0	0	0	0
0.07424566	0.01344579	-0.01894634	0	0	0	0
0.09081159	0.01344579	-0.01894634	0	0	0	0
0.1073787	0.01344579	-0.01894634	0	0	0	0
0.1239482	0.01344579	-0.01894634	0	0	0	0
0.1411726	0.01344579	-0.01894634	0	0	0	0
0.1570777	0.01344579	-0.01894634	0	0	0	0
0.1736479	0.01344579	-0.01894634	0	0	0	0
0.1902146	0.01344579	-0.01894634	0	0	0	0
0.206781	0.01344579	-0.01894634	0	0	0	0
0.2233445	0.01344579	-0.01894634	0	0	0	0
0.2403838	0.01344579	-0.01894634	0	0	0	0
0.2564784	0.01344579	-0.01894634	0	0	0	0
0.2733076	0.01344579	-0.01894634	0	0	0	0
0.2896146	0.01344579	-0.01894634	0	0	0	0
0.3063933	0.01344579	-0.01894634	0	0	0	0
0.3227464	0.01344579	-0.01894634	0	0	0	0
0.3396672	0.01344579	-0.01894634	0	0	0	0
0.3558798	0.01344579	-0.01894634	0	0	0	0
0.3724461	0.01344579	-0.01894634	0	0	0	0
0.3890129	0.01344579	-0.01894634	0	0	0	0
0.4061524	0.01344579	-0.01894634	0	0	0	0
0.4221459	0.01344579	-0.01894634	0	0	0	0
0.4389084	0.01344579	-0.01894634	0	0	0	0
0.4556725	0.01344579	-0.01894634	0	0	0	0
0.4718465	0.01344579	-0.01894634	0	0	0	0
0.4888399	0.01344579	-0.01894634	0	0	0	0
0.5049798	0.01344579	-0.01894634	0	0	0	0
0.5217128	0.01344579	-0.01894634	0	0	0	0
0.5381089	0.01344579	-0.01894634	0	0	0	0
0.5551655	0.01344579	-0.01894634	0	0	0	0
0.5712463	0.01344579	-0.01894634	0	0	0	0
0.587813	0.01344579	-0.01894634	0	0	0	0
0.6043794	0.01344579	-0.01894634	0	0	0	0
0.620946	0.01344579	-0.01894634	0	0	0	0
0.6375127	0.01344579	-0.01894634	0	0	0	0
0.6541525	0.01344579	-0.01894634	0	0	0	0
0.6711503	0.01344579	-0.01894634	0	0	0	0
0.6872129	0.01344579	-0.01894634	0	0	0	0
0.7037796	0.01344579	-0.01894634	0	0	0	0
0.7203456	0.01344579	-0.01894634	0	0	0	0
0.7369119	0.01344579	-0.01894634	0	0	0	0
0.7537009	0.01344579	-0.01894634	0	0	0	0
0.7700453	0.01344579	-0.01894634	0	0	0	0
0.7866117	0.01344579	-0.01894634	0	0	0	0
0.8031788	0.01344579	-0.01894634	0	0	0	0
0.8197455	0.01344579	-0.01894634	0	0	0	0
0.8363118	0.01344579	-0.01894634	0	0	0	0
0.8528785	0.01344579	-0.01894634	0	0	0	0
0.8694448	0.01344579	-0.01894634	0	0	0	0
0.886012	0.01344579	-0.01894634	0	0	0	0
0.9025783	0.01344579	-0.01894634	0	0	0	0
0.9191438	0.01344579	-0.01894634	0	0	0	0
0.9357121	0.01344579	-0.01894634	0	0	0	0
0.952278	0.01344579	-0.01894634	0	0	0	0
0.9689079	0.01344579	-0.01894634	0	0	0	0
0.9854118	0.01344579	-0.01894634	0	0	0	0
1.001979	0.01344579	-0.01894634	0	0	0	0
1.018545	0.01344579	-0.01894634	0	0	0	0
1.035221	0.01344579	-0.01894634	0	0	0	0
1.051679	0.01344579	-0.01894634	0	0	0	0
1.068245	0.01344579	-0.01894634	0	0	0	0
1.084812	0.01344579	-0.01894634	0	0	0	0
1.101924	0.01344579	-0.01894634	0	0	0	0
1.11796	0.01344579	-0.01894634	0	0	0	0
1.134512	0.01344579	-0.01894634	0	0	0	0
1.151078	0.01344579	-0.01894634	0	0	0	0
1.167645	0.01344579	-0.01894634	0	0	0	0
1.184748	0.01344579	-0.01894634	0	0	0	0
1.200776	0.01344579	-0.01894634	0	0	0	0
1.217486	0.01344579	-0.01894634	0	0	0	0
1.233912	0.01344579	-0.01894634	0	0	0	0
1.250774	0.01344579	-0.01894634	0	0	0	0
1.267232	0.01344579	-0.01894634	0	0	0	0
1.283611	0.01344579	-0.01894634	0	0	0	0
1.300383	0.01344579	-0.01894634	0	0	0	0
1.316745	0.01344579	-0.01894634	0	0	0	0
1.333312	0.01344579	-0.01894634	0	0	0	0
1.349879	0.01344579	-0.01894634	0	0	0	0
1.366858	0.01344579	-0.01894634	0	0	0	0
1.383012	0.01344579	-0.01894634	0	0	0	0
1.400105	0.01344579	-0.01894634	0	0	0	0
1.416145	0.01344579	-0.01894634	0	0	0	0
1.432954	0.01344579	-0.01894634	0	0	0	0
1.449283	0.01344579	-0.01894634	0	0	0	0
1.465845	0.01344579	-0.01894634	0	0	0	0
1.482971	0.01344579	-0.01894634	0	0	0	0
1.498982	0.01344579	-0.01894634	0	0	0	0
1.515549	0.01344579	-0.01894634	0	0	0	0
1.532115	0.01344579	-0.01894634	0	0	0	0
1.548682	0.01344579	-0.01894634	0	0	0	0
1.565248	0.01344579	-0.01894634	0	0	0	0
1.581816	0.01344579	-0.01894634	0	0	0	0
1.598628	0.01344579	-0.01894634	0	0	0	0
1.61495	0.01344579	-0.01894634	0	0	0	0
1.631542	0.01344579	-0.01894634	0	0	0	0
1.648079	0.01344579	-0.01894634	0	0	0	0
1.664646	0.01344579	-0.01894634	0	0	0	0
1.681213	0.01344579	-0.01894634	0	0	0	0
1.697779	0.01344579	-0.01894634	0	0	0	0
1.714345	0.01344579	-0.01894634	0	0	0	0
1.731042	0.01344579	-0.01894634	0	0	0	0
1.747479	0.01344579	-0.01894634	0	0	0	0
1.764048	0.01344579	-0.01894634	0	0	0	0
1.780612	0.01344579	-0.01894634	0	0	0	0
1.797178	0.01344579	-0.01894634	0	0	0	0
1.813748	0.01344579	-0.01894634	0	0	0	0
1.830313	0.01344579	-0.01894634	0	0	0	0
1.84688	0.01344579	-0.01894634	0	0	0	0
1.867301	0.01344579	-0.01894634	0	0	0	0
1.883871	0.02322455	-0.01283462	0.5901535	0.368846	15.95418	9.971364
1.900594	0.03422565	-0.003055861	0.6578411	0.5847476	2.033094	6.484918
1.917004	0.06356192	0.02505806	1.787669	1.713182	34.09937	34.05733
1.933571	0.106344	0.06906246	2.582404	2.656188	24.09961	28.59575
1.950137	0.1442366	0.1093998	2.287387	2.434961	-8.904111	-6.676988
1.966704	0.188241	0.1521819	2.656131	2.582348	11.12918	4.448341
1.983346	0.2273561	0.1925193	2.350468	2.423921	-9.204352	-4.770685
1.999839	0.2505806	0.2157438	1.408119	1.408118	-28.43993	-30.65676
2.016407	0.2664711	0.2304119	0.9590942	0.8853186	-13.58151	-15.81294
2.032971	0.2750275	0.2401907	0.5165691	0.5903665	-13.35639	-8.902312
2.049538	0.2762499	0.2401907	0.07378358	0	-13.36474	-17.81922
2.066207	0.2762499	0.2401907	0	0	-2.219972	0
2.082671	0.2762499	0.2401907	0	0	0	0
2.099242	0.2762499	0.2401907	0	0	0	0
2.116049	0.2762499	0.2401907	0	0	0	0
2.132472	0.2762499	0.2401907	0	0	0	0
2.149055	0.2762499	0.2401907	0	0	0	0
2.165506	0.2762499	0.2401907	0	0	0	0
2.182075	0.2762499	0.2401907	0	0	0	0
2.198832	0.2762499	0.2401907	0	0	0	0
2.215209	0.2762499	0.2401907	0	0	0	0
2.231774	0.2762499	0.2401907	0	0	0	0
2.248342	0.2762499	0.2401907	0	0	0	0
2.26491	0.2762499	0.2401907	0	0	0	0
2.281534	0.2762499	0.2401907	0	0	0	0
2.298042	0.2762499	0.2401907	0	0	0	0
2.314604	0.2762499	0.2401907	0	0	0	0
2.331313	0.2701381	0.2304119	-0.3657769	-0.5852439	-10.99376	-17.59004
2.347768	0.2579147	0.2108544	-0.7428549	-1.188568	-11.37026	-18.19238
2.364647	0.2395795	0.1851852	-1.086221	-1.520707	-10.30063	-9.963845
2.380872	0.216355	0.1582936	-1.431479	-1.657504	-10.42949	-4.132342
2.397437	0.1919081	0.1326244	-1.475808	-1.549599	-1.351961	3.290886
2.414004	0.1723506	0.1118445	-1.180476	-1.254256	8.91365	8.913955
2.431082	0.1552377	0.09595402	-1.002072	-0.9304959	5.302557	9.622868
2.447683	0.1430143	0.08495294	-0.7362832	-0.6626533	7.891832	7.952805
2.463738	0.1344579	0.07761887	-0.5329392	-0.4568059	6.226723	6.30338
2.480273	0.1259015	0.06906246	-0.5174946	-0.5174937	0.4739136	-1.86219
2.500657	0.1210121	0.06417309	-0.2398534	-0.2398542	7.520255	7.52021
2.517408	0.113678	0.0592837	-0.4378403	-0.2918935	-5.331491	-1.401342
2.534039	0.1112334	0.05806137	-0.1469924	-0.07349598	8.712731	6.542386
2.550648	0.1087887	0.05683902	-0.1471912	-0.07359583	-0.00598058	-0.003003739
2.566927	0.106344	0.05439433	-0.1501747	-0.1501745	-0.09071793	-2.328473
2.583508	0.1038993	0.05317198	-0.1474426	-0.07372131	0.08314514	2.326665
2.600061	0.1026769	0.05194964	-0.07384281	-0.07384236	2.221279	-0.003653336
2.616627	0.1014546	0.05194964	-0.07378604	0	0.001714202	2.229578
2.633193	0.0990099	0.0482826	-0.1475704	-0.2213556	-2.22696	-6.680957
2.650307	0.09534287	0.04706027	-0.2142715	-0.07142363	-1.980426	4.451635
2.666524	0.09289818	0.04583792	-0.1507488	-0.07537439	1.905821	-0.1185314
2.682894	0.08923115	0.04461557	-0.2240086	-0.07466961	-2.248127	0.02162739
2.699461	0.08800881	0.04217089	-0.07378179	-0.1475638	4.561029	-2.213136
2.716027	0.08556411	0.04217089	-0.1475768	0	-2.227265	4.453741
2.733207	0.08311943	0.04094854	-0.1423025	-0.07115147	0.156297	-2.108501
2.749162	0.07823005	0.03850385	-0.3064352	-0.1532174	-4.953427	-2.4767
2.766521	0.07578536	0.03728151	-0.1408366	-0.07041831	4.970842	2.485414
2.844585	0.07211832	0.03605916	-0.04697455	-0.01565821	0.9836445	0.5738683
2.861167	0.06967364	0.03361448	-0.1474257	-0.1474257	-1.061325	-1.3922
2.877722	0.06967364	0.03361448	0	0	4.448963	4.448963
2.894291	0.06967364	0.03361448	0	0	0	0
2.910856	0.06967364	0.03361448	0	0	0	0
2.92744	0.06967364	0.03361448	0	0	0	0
2.943989	0.06967364	0.03361448	0	0	0	0
2.960556	0.06967364	0.03361448	0	0	0	0
2.977122	0.06967364	0.03361448	0	0	0	0
2.993687	0.06967364	0.03361448	0	0	0	0
3.010634	0.06967364	0.03361448	0	0	0	0
3.026822	0.06967364	0.03361448	0	0	0	0
3.043689	0.06967364	0.03361448	0	0	0	0
3.059956	0.06967364	0.03361448	0	0	0	0
3.076523	0.06967364	0.03361448	0	0	0	0
3.09309	0.06967364	0.03361448	0	0	0	0
3.109655	0.06967364	0.03361448	0	0	0	0
3.126221	0.06967364	0.03361448	0	0	0	0
3.142788	0.06967364	0.03361448	0	0	0	0
3.159354	0.06967364	0.03361448	0	0	0	0
3.175921	0.06967364	0.03361448	0	0	0	0
3.192487	0.06967364	0.03361448	0	0	0	0
3.209054	0.06967364	0.03361448	0	0	0	0
3.226093	0.06967364	0.03361448	0	0	0	0
3.242188	0.06967364	0.03361448	0	0	0	0
3.259226	0.06967364	0.03361448	0	0	0	0
3.27613	0.06967364	0.03361448	0	0	0	0
3.292282	0.06967364	0.03361448	0	0	0	0
3.308546	0.06967364	0.03361448	0	0	0	0
3.325021	0.06967364	0.03361448	0	0	0	0
3.341587	0.06967364	0.03361448	0	0	0	0
3.358154	0.06967364	0.03361448	0	0	0	0
3.374722	0.06967364	0.03361448	0	0	0	0
3.391287	0.06967364	0.03361448	0	0	0	0
3.407854	0.06967364	0.03361448	0	0	0	0
3.424424	0.06967364	0.03361448	0	0	0	0
3.440988	0.06967364	0.03361448	0	0	0	0
3.45785	0.06967364	0.03361448	0	0	0	0
3.474526	0.06967364	0.03361448	0	0	0	0
3.490689	0.06967364	0.03361448	0	0	0	0
3.507593	0.06967364	0.03361448	0	0	0	0
3.523822	0.06967364	0.03361448	0	0	0	0
3.540707	0.06967364	0.03361448	0	0	0	0
3.556955	0.06967364	0.03361448	0	0	0	0
3.573836	0.06967364	0.03361448	0	0	0	0
3.590088	0.06967364	0.03361448	0	0	0	0
3.606655	0.06967364	0.03361448	0	0	0	0
3.623411	0.06967364	0.03361448	0	0	0	0
3.639852	0.06967364	0.03361448	0	0	0	0
3.656411	0.06967364	0.03361448	0	0	0	0
3.673465	0.06967364	0.03361448	0	0	0	0
3.689488	0.06967364	0.03361448	0	0	0	0
3.706526	0.06967364	0.03361448	0	0	0	0
3.722685	0.06967364	0.03361448	0	0	0	0
3.73919	0.06967364	0.03361448	0	0	0	0
3.755757	0.06967364	0.03361448	0	0	0	0
3.772321	0.06967364	0.03361448	0	0	0	0
3.788888	0.06967364	0.03361448	0	0	0	0
3.805454	0.06967364	0.03361448	0	0	0	0
3.822021	0.06967364	0.03361448	0	0	0	0
3.838857	0.06967364	0.03361448	0	0	0	0
3.855155	0.06967364	0.03361448	0	0	0	0
3.871722	0.06967364	0.03361448	0	0	0	0
3.888713	0.06967364	0.03361448	0	0	0	0
3.905283	0.06967364	0.03361448	0	0	0	0
3.921849	0.06967364	0.03361448	0	0	0	0
3.938417	0.06967364	0.03361448	0	0	0	0
3.954983	0.06967364	0.03361448	0	0	0	0
3.971772	0.06967364	0.03361448	0	0	0	0
3.988118	0.06967364	0.03361448	0	0	0	0
4.004847	0.06967364	0.03361448	0	0	0	0
4.021249	0.06967364	0.03361448	0	0	0	0
4.037816	0.06967364	0.03361448	0	0	0	0
4.054383	0.06967364	0.03361448	0	0	0	0
4.070996	0.06967364	0.03239213	0	-0.07357554	0	-2.217419
4.087897	0.06967364	0.03239213	0	0	0	2.195366
4.104083	0.06967364	0.03239213	0	0	0	0
4.120649	0.06967364	0.03239213	0	0	0	0
4.137217	0.06967364	0.03239213	0	0	0	0
4.153783	0.06967364	0.03239213	0	0	0	0
4.170351	0.06967364	0.03239213	0	0	0	0
4.186916	0.06967364	0.03239213	0	0	0	0
4.203484	0.06967364	0.03239213	0	0	0	0
4.220051	0.06967364	0.03239213	0	0	0	0
4.236617	0.06967364	0.03239213	0	0	0	0
4.253184	0.06967364	0.03239213	0	0	0	0
4.270516	0.06967364	0.03239213	0	0	0	0
4.286317	0.06967364	0.03239213	0	0	0	0
4.302885	0.06967364	0.03239213	0	0	0	0
4.319451	0.06967364	0.03239213	0	0	0	0
4.336045	0.06967364	0.03239213	0	0	0	0
4.352585	0.06967364	0.03239213	0	0	0	0
4.382173	0.06967364	0.03239213	0	0	0	0
4.399082	0.06967364	0.03239213	0	0	0	0
4.41539	0.06967364	0.03239213	0	0	0	0
4.431877	0.06967364	0.03239213	0	0	0	0
4.448444	0.06967364	0.03239213	0	0	0	0
4.46501	0.06967364	0.03239213	0	0	0	0
4.481576	0.06967364	0.03239213	0	0	0	0
4.498304	0.06967364	0.03239213	0	0	0	0
4.514846	0.06967364	0.03239213	0	0	0	0
4.53143	0.06967364	0.03239213	0	0	0	0
4.547909	0.06967364	0.03239213	0	0	0	0
4.565381	0.06967364	0.03239213	0	0	0	0
4.581234	0.06967364	0.03239213	0	0	0	0
4.597548	0.06967364	0.03239213	0	0	0	0
4.61411	0.06967364	0.03239213	0	0	0	0
4.630678	0.06967364	0.03239213	0	0	0	0
4.647246	0.06967364	0.03239213	0	0	0	0
4.664726	0.06967364	0.03239213	0	0	0	0
4.680378	0.06967364	0.03239213	0	0	0	0
4.696945	0.06967364	0.03239213	0	0	0	0
4.714242	0.06967364	0.03239213	0	0	0	0
4.730076	0.06967364	0.03239213	0	0	0	0
4.746799	0.06967364	0.03239213	0	0	0	0
4.763957	0.06967364	0.03239213	0	0	0	0
4.779774	0.06967364	0.03239213	0	0	0	0
4.796707	0.06967364	0.03239213	0	0	0	0
4.812909	0.06967364	0.03239213	0	0	0	0
4.829598	0.06967364	0.03239213	0	0	0	0
4.84628	0.06967364	0.03239213	0	0	0	0
4.862609	0.06967364	0.03239213	0	0	0	0
4.879178	0.06967364	0.03239213	0	0	0	0
4.895943	0.06967364	0.03239213	0	0	0	0
4.912311	0.06967364	0.03239213	0	0	0	0
4.929296	0.06967364	0.03239213	0	0	0	0
4.945442	0.06967364	0.03239213	0	0	0	0
4.962451	0.06967364	0.03239213	0	0	0	0
4.978659	0.06967364	0.03239213	0	0	0	0
4.995145	0.06967364	0.03239213	0	0	0	0
5.01171	0.06967364	0.03239213	0	0	0	0
5.028278	0.06967364	0.03239213	0	0	0	0
5.045185	0.06967364	0.03239213	0	0	0	0
5.061412	0.06967364	0.03239213	0	0	0	0
5.078159	0.06967364	0.03239213	0	0	0	0
5.094545	0.06967364	0.03239213	0	0	0	0
5.111112	0.06967364	0.03239213	0	0	0	0
5.127678	0.06967364	0.03239213	0	0	0	0
5.144243	0.06967364	0.03239213	0	0	0	0
5.161169	0.06967364	0.03239213	0	0	0	0
5.183687	0.06967364	0.03239213	0	0	0	0
5.2009	0.06967364	0.03239213	0	0	0	0
5.216825	0.06967364	0.03239213	0	0	0	0
5.233464	0.06967364	0.03239213	0	0	0	0
5.24996	0.06967364	0.03239213	0	0	0	0
5.267383	0.06967364	0.03239213	0	0	0	0
5.283091	0.06967364	0.03239213	0	0	0	0
5.299891	0.06967364	0.03239213	0	0	0	0
5.316226	0.06967364	0.03239213	0	0	0	0
5.333153	0.06967364	0.03239213	0	0	0	0
5.349359	0.06967364	0.03239213	0	0	0	0
5.366159	0.06967364	0.03239213	0	0	0	0
5.382493	0.06967364	0.03239213	0	0	0	0
5.399059	0.06967364	0.03239213	0	0	0	0
5.415626	0.06967364	0.03239213	0	0	0	0
5.432193	0.06967364	0.03239213	0	0	0	0
5.448756	0.06967364	0.03239213	0	0	0	0
5.465468	0.06967364	0.03239213	0	0	0	0
5.481891	0.06967364	0.03239213	0	0	0	0
5.498458	0.06967364	0.03239213	0	0	0	0
5.515024	0.06967364	0.03239213	0	0	0	0
5.531591	0.06967364	0.03239213	0	0	0	0
5.548162	0.06967364	0.03239213	0	0	0	0
5.564915	0.06967364	0.03239213	0	0	0	0
5.581291	0.06967364	0.03239213	0	0	0	0
5.597861	0.06967364	0.03239213	0	0	0	0
5.614429	0.06967364	0.03239213	0	0	0	0
5.631228	0.06967364	0.03239213	0	0	0	0
5.647561	0.06967364	0.03239213	0	0	0	0
5.664531	0.06967364	0.03239213	0	0	0	0
5.680694	0.06967364	0.03239213	0	0	0	0
5.697515	0.06967364	0.03239213	0	0	0	0
5.713829	0.06967364	0.03239213	0	0	0	0
5.730994	0.06967364	0.03239213	0	0	0	0
5.746957	0.06967364	0.03239213	0	0	0	0
5.763874	0.06967364	0.03239213	0	0	0	0
5.780091	0.06967364	0.03239213	0	0	0	0
5.796658	0.06967364	0.03239213	0	0	0	0
5.813457	0.06967364	0.03239213	0	0	0	0
5.830385	0.06967364	0.03239213	0	0	0	0
5.847147	0.06967364	0.03239213	0	0	0	0
5.863527	0.06967364	0.03239213	0	0	0	0
5.88009	0.06967364	0.03239213	0	0	0	0
5.896657	0.06967364	0.03239213	0	0	0	0
5.913224	0.06967364	0.03239213	0	0	0	0
5.929862	0.06967364	0.03239213	0	0	0	0
5.946923	0.06967364	0.03239213	0	0	0	0
5.962973	0.06967364	0.03239213	0	0	0	0
5.97949	0.06967364	0.03239213	0	0	0	0
5.996201	0.06967364	0.03239213	0	0	0	0
6.012621	0.06967364	0.03239213	0	0	0	0
6.029517	0.06967364	0.03239213	0	0	0	0
6.045757	0.06967364	0.03239213	0	0	0	0
6.062819	0.06967364	0.03239213	0	0	0	0
6.078891	0.06967364	0.03239213	0	0	0	0
6.095458	0.06967364	0.03239213	0	0	0	0
6.112251	0.06967364	0.03239213	0	0	0	0
6.12859	0.06967364	0.03239213	0	0	0	0
6.145242	0.06967364	0.03239213	0	0	0	0
6.161724	0.06967364	0.03239213	0	0	0	0
6.178289	0.06967364	0.03239213	0	0	0	0
6.194858	0.06967364	0.03239213	0	0	0	0
6.211424	0.06967364	0.03239213	0	0	0	0
6.228001	0.06967364	0.03239213	0	0	0	0
6.244556	0.06967364	0.03239213	0	0	0	0
6.261643	0.06722894	0.03116978	-0.1430734	-0.07153668	-4.252722	-2.126361
6.277801	0.05745019	0.02261337	-0.6052278	-0.5295743	-13.90184	-13.778
6.294257	0.04644909	0.01405696	-0.6685106	-0.519953	-1.940398	0.2950124
6.310824	0.03667033	0.00550055	-0.5902299	-0.5164511	2.370428	0.1060395
6.32739	0.02077986	-0.009167584	-0.9592339	-0.8854468	-11.13688	-11.13663
6.34421	0	-0.03361448	-1.235429	-1.453446	-8.27284	-17.01321
6.360524	-0.04278206	-0.08006356	-2.622486	-2.84727	-41.86266	-42.06689
6.377089	-0.1002323	-0.1375138	-3.4681	-3.4681	-25.71909	-18.88235
6.393661	-0.1576824	-0.1900746	-3.466802	-3.171756	0.03916941	8.943045
6.410225	-0.2114656	-0.2389683	-3.246918	-2.951743	6.635838	6.639709
6.426791	-0.2334678	-0.2573035	-1.328131	-1.106776	57.91576	55.68762
6.443552	-0.2469136	-0.2707493	-0.8022164	-0.8022155	15.7804	9.138534
6.459925	-0.2566923	-0.2829728	-0.597243	-0.7465544	6.1862	1.679881
6.476507	-0.259137	-0.2854174	-0.1474341	-0.1474341	13.64931	18.18012
6.498217	-0.259137	-0.2854174	0	0	3.850267	3.850267
6.514788	-0.259137	-0.2854174	0	0	0	0
6.531354	-0.259137	-0.2854174	0	0	0	0
6.548073	-0.259137	-0.2854174	0	0	0	0
6.564703	-0.259137	-0.2866398	0	-0.07350358	0	-2.204101
6.581056	-0.259137	-0.2866398	0	0	0	2.228541
6.598115	-0.259137	-0.2866398	0	0	0	0
6.614228	-0.259137	-0.2866398	0	0	0	0
6.630755	-0.259137	-0.2866398	0	0	0	0
6.647882	-0.259137	-0.2866398	0	0	0	0
6.663892	-0.259137	-0.2866398	0	0	0	0
6.680566	-0.259137	-0.2866398	0	0	0	0
6.697024	-0.259137	-0.2866398	0	0	0	0
6.713676	-0.259137	-0.2866398	0	0	0	0
6.730154	-0.259137	-0.2866398	0	0	0	0
6.746723	-0.2566923	-0.2866398	0.1475445	0	4.464723	0
6.763292	-0.2456913	-0.2780834	0.6639701	0.5164205	15.58419	15.58403
6.779859	-0.2322455	-0.2670823	0.8116131	0.6640474	4.455747	4.455262
6.796422	-0.216355	-0.2548588	0.9593445	0.7379577	4.459055	2.230874
6.812986	-0.1967975	-0.2365237	1.180731	1.106935	6.682813	11.13799
6.829553	-0.1711282	-0.2108544	1.549443	1.549443	11.12903	13.35647
6.846383	-0.1466813	-0.1876299	1.452581	1.379952	-2.900358	-5.075091
6.86338	-0.1124557	-0.1521819	2.013589	2.085502	16.58447	20.85742
6.879567	-0.09289818	-0.1301797	1.20828	1.359316	-24.2683	-21.88391
6.89582	-0.07456301	-0.1093998	1.128077	1.278487	-2.472362	-2.491651
6.912387	-0.05867254	-0.08861998	0.9591786	1.254311	-5.146176	-0.7366335
6.928954	-0.04767144	-0.07150716	0.6640468	1.032962	-8.907353	-6.680518
6.945519	-0.03911502	-0.06050605	0.5165108	0.6640854	-4.452901	-11.13335
6.962087	-0.03178096	-0.04950495	0.442685	0.6640274	-2.228162	-0.001752177
6.978656	-0.02566924	-0.04094854	0.3688618	0.5164067	-2.227861	-4.454945
6.995695	-0.0220022	-0.03605916	0.2152104	0.286947	-4.571811	-6.827443
7.011786	-0.01711282	-0.03116979	0.3038514	0.3038514	2.675499	0.5102332
7.028457	-0.01466813	-0.02628041	0.1466458	0.2932917	-4.798404	-0.3223161
7.044923	-0.0110011	-0.02139103	0.2227014	0.2969354	2.295198	0.1099607
7.061487	-0.008556411	-0.01894634	0.1475958	0.1475957	-2.273893	-4.521398
7.078054	-0.007334067	-0.01650165	0.07378081	0.1475616	-2.227997	-0.001029073
7.094622	-0.006111722	-0.01405696	0.07377877	0.1475575	-6.161047E-05	-0.0001214221
7.111189	-0.004889378	-0.01283462	0.07377871	0.07377877	-1.79882E-06	-2.226584
7.12802	-0.003667033	-0.01161227	0.07262699	0.07262696	-0.03448449	-0.03448717
7.150994	-0.002444689	-0.009167584	0.05320552	0.1064111	-0.487922	0.8487514
7.167565	-0.001222344	-0.007945239	0.07376175	0.07376178	0.5198117	-0.8256121
7.184133	-0.001222344	-0.007945239	0	0	-2.225846	-2.225847
7.20076	-0.001222344	-0.007945239	0	0	0	0
7.217266	-0.001222344	-0.007945239	0	0	0	0
7.233833	-0.001222344	-0.007945239	0	0	0	0
7.2504	-0.001222344	-0.007945239	0	0	0	0
7.266966	-0.001222344	-0.007945239	0	0	0	0
7.283532	-0.001222344	-0.007945239	0	0	0	0
7.300099	-0.001222344	-0.007945239	0	0	0	0
7.316667	-0.001222344	-0.007945239	0	0	0	0
7.333233	-0.001222344	-0.007945239	0	0	0	0
7.349873	-0.001222344	-0.007945239	0	0	0	0
7.366366	-0.001222344	-0.007945239	0	0	0	0
7.383019	-0.001222344	-0.007945239	0	0	0	0
7.399508	-0.001222344	-0.007945239	0	0	0	0
7.416066	-0.001222344	-0.007945239	0	0	0	0
7.432636	-0.001222344	-0.007945239	0	0	0	0
7.449198	-0.001222344	-0.007945239	0	0	0	0
7.465765	-0.001222344	-0.007945239	0	0	0	0
7.482332	-0.001222344	-0.007945239	0	0	0	0
7.498899	-0.001222344	-0.007945239	0	0	0	0
7.515465	-0.001222344	-0.007945239	0	0	0	0
7.532032	-0.001222344	-0.007945239	0	0	0	0
7.5486	-0.001222344	-0.007945239	0	0	0	0
7.565163	-0.001222344	-0.007945239	0	0	0	0
7.582109	-0.001222344	-0.007945239	0	0	0	0
7.598298	-0.001222344	-0.007945239	0	0	0	0
7.614864	-0.001222344	-0.007945239	0	0	0	0
7.631432	-0.001222344	-0.007945239	0	0	0	0
7.647997	-0.001222344	-0.007945239	0	0	0	0
7.664565	-0.001222344	-0.007945239	0	0	0	0
7.681131	-0.001222344	-0.007945239	0	0	0	0
7.697698	-0.001222344	-0.007945239	0	0	0	0
7.714263	-0.001222344	-0.007945239	0	0	0	0
7.730996	-0.001222344	-0.007945239	0	0	0	0
7.747396	-0.001222344	-0.007945239	0	0	0	0
7.7641	-0.001222344	-0.007945239	0	0	0	0
7.780534	-0.001222344	-0.007945239	0	0	0	0
7.797096	-0.001222344	-0.007945239	0	0	0	0
7.813667	-0.001222344	-0.007945239	0	0	0	0
7.830232	-0.001222344	-0.007945239	0	0	0	0
7.846801	-0.001222344	-0.007945239	0	0	0	0
7.863368	-0.001222344	-0.007945239	0	0	0	0
7.879935	-0.001222344	-0.007945239	0	0	0	0
7.896977	-0.001222344	-0.007945239	0	0	0	0
7.913068	-0.001222344	-0.007945239	0	0	0	0
7.929745	-0.001222344	-0.007945239	0	0	0	0
7.946439	-0.001222344	-0.007945239	0	0	0	0
7.963333	-0.001222344	-0.007945239	0	0	0	0
7.97977	-0.001222344	-0.007945239	0	0	0	0
7.995899	-0.001222344	-0.007945239	0	0	0	0
8.012465	-0.001222344	-0.007945239	0	0	0	0
8.029031	-0.001222344	-0.007945239	0	0	0	0
8.045598	-0.001222344	-0.007945239	0	0	0	0
8.062563	-0.001222344	-0.007945239	0	0	0	0
8.078732	-0.001222344	-0.007945239	0	0	0	0
8.095497	-0.001222344	-0.007945239	0	0	0	0
8.111865	-0.001222344	-0.007945239	0	0	0	0
8.128432	-0.001222344	-0.007945239	0	0	0	0
8.145422	-0.001222344	-0.007945239	0	0	0	0
8.161566	-0.001222344	-0.007945239	0	0	0	0
8.178591	-0.001222344	-0.007945239	0	0	0	0
8.1947	-0.001222344	-0.007945239	0	0	0	0
8.235229	-0.001222344	-0.007945239	0	0	0	0
8.2518	-0.001222344	-0.007945239	0	0	0	0
8.268366	-0.001222344	-0.007945239	0	0	0	0
8.284986	-0.001222344	-0.007945239	0	0	0	0
8.30209	-0.001222344	-0.007945239	0	0	0	0
8.318069	-0.001222344	-0.007945239	0	0	0	0
8.334635	-0.001222344	-0.007945239	0	0	0	0
8.351515	-0.001222344	-0.007945239	0	0	0	0
8.367768	-0.001222344	-0.007945239	0	0	0	0
8.384335	-0.001222344	-0.007945239	0	0	0	0
8.401265	-0.001222344	-0.007945239	0	0	0	0
8.417468	-0.001222344	-0.007945239	0	0	0	0
8.434054	-0.001222344	-0.007945239	0	0	0	0
8.450767	-0.001222344	-0.007945239	0	0	0	0
8.467169	-0.001222344	-0.007945239	0	0	0	0
8.484995	-0.001222344	-0.007945239	0	0	0	0
8.501839	-0.001222344	-0.007945239	0	0	0	0
8.518132	-0.001222344	-0.007945239	0	0	0	0
8.53507	-0.001222344	-0.007945239	0	0	0	0
8.551316	-0.001222344	-0.007945239	0	0	0	0
8.568019	-0.001222344	-0.007945239	0	0	0	0
8.5844	-0.001222344	-0.007945239	0	0	0	0
8.600996	-0.001222344	-0.007945239	0	0	0	0
8.617558	-0.001222344	-0.007945239	0	0	0	0
8.634102	-0.001222344	-0.007945239	0	0	0	0
8.650669	-0.001222344	-0.007945239	0	0	0	0
8.667233	-0.001222344	-0.007945239	0	0	0	0
8.684437	-0.001222344	-0.007945239	0	0	0	0
8.700517	-0.001222344	-0.007945239	0	0	0	0
8.716931	-0.001222344	-0.007945239	0	0	0	0
8.733547	-0.001222344	-0.007945239	0	0	0	0
8.750068	-0.001222344	-0.007945239	0	0	0	0
8.7669	-0.001222344	-0.007945239	0	0	0	0
8.783199	-0.001222344	-0.007945239	0	0	0	0
8.800062	-0.001222344	-0.007945239	0	0	0	0
8.816334	-0.001222344	-0.007945239	0	0	0	0
8.8329	-0.001222344	-0.007945239	0	0	0	0
8.849467	-0.001222344	-0.007945239	0	0	0	0
8.876821	-0.001222344	-0.007945239	0	0	0	0
8.893639	-0.001222344	-0.007945239	0	0	0	0
8.909956	-0.001222344	-0.007945239	0	0	0	0
8.926553	-0.001222344	-0.007945239	0	0	0	0
8.94309	-0.001222344	-0.007945239	0	0	0	0
8.959673	-0.001222344	-0.007945239	0	0	0	0
8.976225	-0.001222344	-0.007945239	0	0	0	0
8.992791	-0.001222344	-0.007945239	0	0	0	0
9.009357	-0.001222344	-0.007945239	0	0	0	0
9.025924	-0.001222344	-0.007945239	0	0	0	0
9.04249	-0.001222344	-0.007945239	0	0	0	0
9.059357	-0.001222344	-0.007945239	0	0	0	0
9.076097	-0.001222344	-0.007945239	0	0	0	0
9.092191	0	-0.00794524	0.07594934	-5.786694E-08	2.313127	-1.762406E-06
9.108757	0	-0.00794524	0	0	-2.32542	1.771772E-06
9.125973	0	-0.00794524	0	0	0	0
9.14189	0	-0.00794524	0	0	0	0
9.158457	0	-0.00794524	0	0	0	0
9.17531	0	-0.00794524	0	0	0	0
9.191591	0	-0.00794524	0	0	0	0
9.208276	0	-0.00794524	0	0	0	0
9.224802	0	-0.00794524	0	0	0	0
9.241291	0	-0.00794524	0	0	0	0
9.257857	0	-0.00794524	0	0	0	0
9.274423	0	-0.00794524	0	0	0	0
9.291196	0	-0.00794524	0	0	0	0
9.307721	0	-0.00794524	0	0	0	0
9.324124	0	-0.00794524	0	0	0	0
9.34069	0	-0.00794524	0	0	0	0
9.357257	0	-0.00794524	0	0	0	0
9.373822	0	-0.00794524	0	0	0	0
9.39039	0	-0.00794524	0	0	0	0
9.406957	0	-0.00794524	0	0	0	0
9.423524	0	-0.00794524	0	0	0	0
9.44009	0	-0.00794524	0	0	0	0
9.4569	0	-0.00794524	0	0	0	0
9.473222	0	-0.00794524	0	0	0	0
9.489861	0	-0.00794524	0	0	0	0
9.506354	0	-0.00794524	0	0	0	0
9.522922	0	-0.00794524	0	0	0	0
9.539488	0	-0.00794524	0	0	0	0
9.556054	0	-0.00794524	0	0	0	0
9.57262	0	-0.00794524	0	0	0	0
9.58921	0	-0.00794524	0	0	0	0
9.60609	0	-0.00794524	0	0	0	0
9.622321	0	-0.00794524	0	0	0	0
9.638887	0	-0.00794524	0	0	0	0
9.655688	0	-0.00794524	0	0	0	0
9.672395	0	-0.00794524	0	0	0	0
9.688852	0	-0.00794524	0	0	0	0
9.705153	0	-0.00794524	0	0	0	0
9.72172	0	-0.00794524	0	0	0	0
9.738285	0	-0.00794524	0	0	0	0
9.754851	0	-0.00794524	0	0	0	0
9.771419	0	-0.00794524	0	0	0	0
9.787987	0	-0.00794524	0	0	0	0
9.804826	0	-0.00794524	0	0	0	0
9.821121	0	-0.00794524	0	0	0	0
9.837687	0	-0.00794524	0	0	0	0
9.854253	0	-0.00794524	0	0	0	0
9.870907	0	-0.00794524	0	0	0	0
9.887481	0	-0.00794524	0	0	0	0
9.903954	0	-0.00794524	0	0	0	0
9.92052	0	-0.00794524	0	0	0	0
9.937105	0	-0.00794524	0	0	0	0
9.953653	0	-0.00794524	0	0	0	0
9.970221	0	-0.00794524	0	0	0	0
9.986788	0	-0.00794524	0	0	0	0
10.00335	0	-0.00794524	0	0	0	0
10.02064	0	-0.00794524	0	0	0	0
10.03664	0	-0.00794524	0	0	0	0
10.05305	0	-0.00794524	0	0	0	0
10.07013	0	-0.00794524	0	0	0	0
10.08619	0	-0.006722894	0	0.07614339	0	2.298211
10.10275	0.003667033	-0.003055861	0.2213298	0.2213298	6.784808	4.450652
10.11932	0.007334067	0.003055861	0.2213554	0.3689255	0.0007708165	4.454448
10.13589	0.009778756	0.00550055	0.1475532	0.1475532	-2.227355	-6.68103
10.15246	0.0110011	0.006722895	0.07378514	0.07378511	-2.226324	-2.226326
10.16925	0.0110011	0.006722895	0	0	-2.211816	-2.211815
10.18559	0.0110011	0.00794524	0	0.07481445	0	2.2581
10.20216	0.0110011	0.00794524	0	0	0	-2.273478
10.21872	0.0110011	0.00794524	0	0	0	0
10.23529	0.0110011	0.00794524	0	0	0	0
10.25185	0.0110011	0.00794524	0	0	0	0
10.26854	0.0110011	0.00794524	0	0	0	0
10.28499	0.0110011	0.00794524	0	0	0	0
10.30156	0.0110011	0.00794524	0	0	0	0
10.31826	0.0110011	0.00794524	0	0	0	0
10.33469	0.0110011	0.00794524	0	0	0	0
10.35126	0.0110011	0.00794524	0	0	0	0
10.36782	0.0110011	0.00794524	0	0	0	0
10.38461	0.0110011	0.00794524	0	0	0	0
10.40095	0.0110011	0.00794524	0	0	0	0
10.41752	0.0110011	0.00794524	0	0	0	0
10.43889	0.0110011	0.00794524	0	0	0	0
10.45624	0.0110011	0.00794524	0	0	0	0
10.47221	0.0110011	0.00794524	0	0	0	0
10.48859	0.0110011	0.00794524	0	0	0	0
10.50516	0.0110011	0.00794524	0	0	0	0
10.52197	0.0110011	0.00794524	0	0	0	0
10.53829	0.0110011	0.00794524	0	0	0	0
10.55486	0.0110011	0.00794524	0	0	0	0
10.57142	0.0110011	0.00794524	0	0	0	0
10.58799	0.0110011	0.00794524	0	0	0	0
10.60456	0.0110011	0.00794524	0	0	0	0
10.62173	0.0110011	0.00794524	0	0	0	0
10.63769	0.0110011	0.00794524	0	0	0	0
10.65426	0.0110011	0.00794524	0	0	0	0
10.67082	0.0110011	0.00794524	0	0	0	0
10.68739	0.0110011	0.00794524	0	0	0	0
10.70395	0.0110011	0.00794524	0	0	0	0
10.72052	0.0110011	0.00794524	0	0	0	0
10.73718	0.0110011	0.00794524	0	0	0	0
10.75366	0.0110011	0.00794524	0	0	0	0
10.77022	0.0110011	0.00794524	0	0	0	0
10.78679	0.0110011	0.00794524	0	0	0	0
10.80336	0.0110011	0.00794524	0	0	0	0
10.82006	0.0110011	0.00794524	0	0	0	0
10.83649	0.0110011	0.00794524	0	0	0	0
10.85306	0.0110011	0.00794524	0	0	0	0
10.86962	0.0110011	0.00794524	0	0	0	0
10.88696	0.0110011	0.00794524	0	0	0	0
10.90276	0.0110011	0.00794524	0	0	0	0
10.91943	0.0110011	0.00794524	0	0	0	0
10.93589	0.0110011	0.00794524	0	0	0	0
10.95292	0.0110011	0.00794524	0	0	0	0
10.96902	0.0110011	0.00794524	0	0	0	0
10.98609	0.0110011	0.00794524	0	0	0	0
11.00216	0.007334067	0.0006111723	-0.2282809	-0.4565618	-6.889729	-13.77946
11.01872	-0.01222344	-0.02383572	-1.180562	-1.475702	-29.18424	-31.23326
11.03533	-0.03544799	-0.05194964	-1.398456	-1.692867	-6.568298	-6.546328
11.05186	-0.05622784	-0.08006356	-1.257314	-1.701072	4.259656	-0.2476219
11.06842	-0.07823005	-0.1045105	-1.328208	-1.475788	-2.142309	6.80772
11.08499	-0.1026769	-0.127735	-1.475532	-1.401756	-4.446371	2.234346
11.1016	-0.1259015	-0.1497372	-1.398215	-1.324624	2.330353	2.324777
11.11812	-0.1576824	-0.1790735	-1.923729	-1.77575	-15.86186	-13.61658
11.13487	-0.1650165	-0.1851852	-0.4377953	-0.3648294	44.65918	42.40469
11.15125	-0.1747953	-0.1961863	-0.5969483	-0.6715666	-4.803386	-9.257613
11.16845	-0.1784623	-0.2010757	-0.2132044	-0.2842736	11.42749	11.53317
11.18439	-0.1857964	-0.2108544	-0.4603067	-0.6137425	-7.457992	-9.943964
11.20095	-0.1906857	-0.2157438	-0.2951408	-0.295139	5.082135	9.803393
11.21779	-0.1906857	-0.2169661	8.850184E-07	-0.07259806	8.835678	6.662224
11.23411	-0.1919081	-0.2194108	-0.07491142	-0.1498219	-2.259492	-2.329213
11.2508	-0.1919081	-0.2194108	0	0	2.269716	4.539403
11.26722	-0.1919081	-0.2194108	0	0	0	0
11.28379	-0.1919081	-0.2194108	0	0	0	0
11.30071	-0.1919081	-0.2194108	0	0	0	0
11.31692	-0.1919081	-0.2194108	0	0	0	0
11.33349	-0.1919081	-0.2194108	0	0	0	0
11.35005	-0.1919081	-0.2194108	0	0	0	0
11.36662	-0.1919081	-0.2194108	0	0	0	0
11.38319	-0.1919081	-0.2194108	0	0	0	0
11.39975	-0.1919081	-0.2194108	0	0	0	0
11.41632	-0.1919081	-0.2194108	0	0	0	0
11.43299	-0.1919081	-0.2194108	0	0	0	0
11.44946	-0.1919081	-0.2194108	0	0	0	0
11.46602	-0.1919081	-0.2194108	0	0	0	0
11.48259	-0.1760176	-0.2035204	0.9593178	0.9593169	28.95477	28.95474
11.49927	-0.1552377	-0.1766288	1.245669	1.612044	8.613107	19.63323
11.51572	-0.1234568	-0.1411808	1.931533	2.154402	20.69881	16.36791
11.53229	-0.09656522	-0.1106222	1.623366	1.844734	-9.333009	-9.378445
11.54885	-0.07823005	-0.08984232	1.106777	1.254347	-15.59204	-17.81945
11.56546	-0.06478426	-0.0727295	0.8098179	1.030677	-8.952704	-6.743186
11.58199	-0.05378316	-0.06050605	0.6653301	0.7392557	-4.36015	-8.794114
11.59856	-0.04644909	-0.05317198	0.4428127	0.4428125	-6.723134	-8.956727
11.61568	-0.0440044	-0.05194964	0.1427465	0.07137335	-8.90707	-11.02568
11.63169	-0.03789268	-0.04583792	0.3818053	0.3818053	7.215016	9.369123
11.64826	-0.0330033	-0.04339323	0.2951406	0.1475704	-2.660573	-7.19092
11.66482	-0.02689158	-0.0397262	0.3688831	0.2213297	2.225553	2.226059
11.68192	-0.02444689	-0.03728151	0.1429933	0.1429933	-6.709988	-2.326957
11.69795	-0.02077986	-0.03605916	0.2287018	0.07623426	2.586986	-2.015025
11.7146	-0.01833517	-0.03483682	0.1469021	0.07345093	-2.503379	-0.08518026
11.73109	-0.01711282	-0.03483682	0.07412647	0	-2.196562	-2.216945
11.74765	-0.01466813	-0.03361447	0.1475617	0.07378095	2.22146	2.231917
11.76422	-0.01222344	-0.03239213	0.1475617	0.07378072	0	-6.745769E-06
11.78079	-0.008556411	-0.02994744	0.2213554	0.1475703	2.22716	2.227037
11.79735	-0.006111722	-0.0287251	0.1475702	0.07378508	-2.22697	-2.22697
11.81413	-0.002444689	-0.02750275	0.2186242	0.07287484	2.131228	-0.02730229
11.83049	0	-0.02505806	0.1494109	0.1494107	-2.088804	2.309791
11.84705	0.001222344	-0.02505806	0.0737851	1.12436E-07	-2.296668	-4.537429
11.86362	0.002444689	-0.02505806	0.07378086	-1.124295E-07	-0.0001281733	-6.786648E-06
11.88019	0.003667034	-0.02383572	0.07378086	0.07378095	2.24859E-07	2.226717
11.89676	0.004889378	-0.02261337	0.0737851	0.07378508	0.0001277236	0.0001248003
11.91332	0.007334067	-0.02261337	0.1475617	-1.124295E-07	2.226647	-2.226906
11.92989	0.0110011	-0.02016868	0.221368	0.1475789	2.227607	4.4542
11.94652	0.01344579	-0.02016868	0.1469948	0	-2.240397	-4.445623
11.96302	0.01466813	-0.01894634	0.07407511	0.07407495	-2.200847	2.235715
11.97959	0.01589048	-0.01772399	0.07378089	0.07378095	-0.008897125	-0.008890592
11.99615	0.01589048	-0.01772399	0	0	-2.226776	-2.226778
12.01272	0.01589048	-0.01772399	0	0	0	0
12.02929	0.01711282	-0.01772399	0.07377659	0	2.226646	0
12.04586	0.01833517	-0.017724	0.07375961	-1.123971E-07	-0.0005123651	-3.391566E-06
12.06242	0.01833517	-0.017724	0	0	-2.226133	3.39225E-06
12.07899	0.01833517	-0.017724	0	0	0	0
12.09556	0.01833517	-0.01650165	0	0.07377245	0	2.226393
12.11212	0.02077986	-0.01650165	0.1475617	0	4.453164	-2.226329
12.12869	0.02077986	-0.01650165	0	0	-4.453676	0
12.14547	0.02077986	-0.01650165	0	0	0	0
12.16182	0.02077986	-0.01650165	0	0	0	0
12.17839	0.02077986	-0.01650165	0	0	0	0
12.19495	0.02077986	-0.01650165	0	0	0	0
12.21152	0.0220022	-0.01650165	0.07377245	-1.124165E-07	2.226457	-3.392738E-06
12.22843	0.0220022	-0.01650165	0	0	-2.203624	3.357945E-06
12.24476	0.0220022	-0.01650165	0	0	0	0
12.26128	0.0220022	-0.01650165	0	0	0	0
12.27779	0.0220022	-0.01650165	0	0	0	0
12.29453	0.0220022	-0.01650165	0	0	0	0
12.31092	0.0220022	-0.01650165	0	0	0	0
12.32749	0.0220022	-0.01527931	-1.124165E-07	0.07377251	-3.411097E-06	2.238507
12.34406	0.0220022	-0.01527931	0	0	3.39264E-06	-2.226395
12.36062	0.0220022	-0.01527931	0	0	0	0
12.37719	0.0220022	-0.01527931	0	0	0	0
12.4018	0.0220022	-0.01527931	0	0	0	0
12.4184	0.02322454	-0.01527931	0.07361134	0	1.786035	0
12.43493	0.02322454	-0.01527931	0	0	-2.221467	0
12.4515	0.02322454	-0.01527931	0	0	0	0
12.46851	0.02322454	-0.01527931	0	0	0	0
12.48464	0.02322454	-0.01527931	0	0	0	0
12.5012	0.02322454	-0.01527931	0	0	0	0
12.51777	0.02322454	-0.01527931	0	0	0	0
12.53441	0.02322455	-0.01405696	1.11959E-07	0.0734721	3.371748E-06	2.21268
12.5509	0.02322455	-0.01405696	0	0	-3.379124E-06	-2.21752
12.56747	0.02322455	-0.01405696	0	0	0	0
12.58404	0.02322455	-0.01405696	0	0	0	0
12.6006	0.02322455	-0.01405696	0	0	0	0
12.61717	0.02322455	-0.01405696	0	0	0	0
12.63374	0.02322455	-0.01405696	0	0	0	0
12.6503	0.02322455	-0.01405696	0	0	0	0
12.66687	0.02322455	-0.01405696	0	0	0	0
12.68343	0.02322455	-0.01405696	0	0	0	0
12.7	0.02322455	-0.01405696	0	0	0	0
12.71686	0.02322455	-0.01405696	0	0	0	0
12.73313	0.02322455	-0.01405696	0	0	0	0
12.74999	0.02322455	-0.01405696	0	0	0	0
12.76626	0.02322455	-0.01405696	0	0	0	0
12.78285	0.02322455	-0.01405696	0	0	0	0
12.79953	0.02322455	-0.01405696	0	0	0	0
12.81597	0.02322455	-0.01405696	0	0	0	0
12.83255	0.02322455	-0.01405696	0	0	0	0
12.84966	0.02322455	-0.01405696	0	0	0	0
12.86613	0.02322455	-0.01405696	0	0	0	0
12.88223	0.02322455	-0.01405696	0	0	0	0
12.89937	0.02322455	-0.01405696	0	0	0	0
12.91537	0.02322455	-0.01405696	0	0	0	0
12.93193	0.02322455	-0.01405696	0	0	0	0
12.9485	0.02322455	-0.01405696	0	0	0	0
12.96507	0.02322455	-0.01405696	0	0	0	0
12.98163	0.02322455	-0.01405696	0	0	0	0
12.99852	0.02322455	-0.01405696	0	0	0	0
13.01488	0.02322455	-0.01405696	0	0	0	0
13.0314	0.02322455	-0.01405696	0	0	0	0
13.04791	0.02322455	-0.01405696	0	0	0	0
13.06446	0.02322455	-0.01405696	0	0	0	0
13.08103	0.02322455	-0.01405696	0	0	0	0
13.0976	0.02322455	-0.01405696	0	0	0	0
13.11417	0.02322455	-0.01405696	0	0	0	0
13.13073	0.02322455	-0.01405696	0	0	0	0
13.14742	0.02322455	-0.01405696	0	0	0	0
13.16387	0.02322455	-0.01405696	0	0	0	0
13.18043	0.02322455	-0.01405696	0	0	0	0
13.19729	0.02322455	-0.01405696	0	0	0	0
13.21357	0.02322455	-0.01405696	0	0	0	0
13.23013	0.02322455	-0.01405696	0	0	0	0
13.2467	0.02444689	-0.01405696	0.07378508	-5.621798E-08	2.226966	-1.69676E-06
13.26327	0.02566923	-0.01405696	0.07378083	0	-0.0001281733	1.696711E-06
13.28069	0.02566923	-0.01405696	0	0	-2.170669	0
13.2964	0.02566924	-0.01283462	1.18558E-07	0.07780264	3.578191E-06	2.348156
13.31297	0.02566924	-0.01283462	0	0	-3.673131E-06	-2.410459
13.32977	0.02566924	-0.01283462	0	0	0	0
13.34619	0.02689158	-0.01283462	0.07440617	5.669119E-08	2.239202	1.706082E-06
13.36266	0.02689158	-0.01161227	-1.130935E-07	0.07421666	-2.26173	2.255964
13.37925	0.02689158	-0.01161227	0	0	3.421145E-06	-2.245097
13.3958	0.02811392	-0.01161227	0.07387439	-5.628602E-08	2.229598	-1.698764E-06
13.41236	0.02811392	-0.01038993	1.12436E-07	0.07378514	-2.231007	2.228317
13.42989	0.02811392	-0.01038993	0	0	-3.298298E-06	-2.16448
13.4455	0.02811392	-0.01038993	0	0	0	0
13.46239	0.02811392	-0.01038993	0	0	0	0
13.47863	0.02811392	-0.01038993	0	0	0	0
13.4952	0.02811392	-0.01038993	0	0	0	0
13.51176	0.02811392	-0.01038993	0	0	0	0
13.52845	0.02811392	-0.01038993	0	0	0	0
13.5449	0.02811392	-0.01038993	0	0	0	0
13.56147	0.02811392	-0.01038993	0	0	0	0
13.57803	0.02811392	-0.01038993	0	0	0	0
13.5946	0.02811392	-0.01038993	0	0	0	0
13.61202	0.02811392	-0.01038993	0	0	0	0
13.62773	0.02811392	-0.01038993	0	0	0	0
13.6443	0.02811392	-0.01038993	0	0	0	0
13.70606	0.02811392	-0.01038993	0	0	0	0
13.72262	0.02811392	-0.01038993	0	0	0	0
13.73919	0.02811392	-0.01038993	0	0	0	0
13.75594	0.02811392	-0.01038993	0	0	0	0
13.77274	0.02811392	-0.01038993	0	0	0	0
13.78945	0.02811392	-0.01038993	0	0	0	0
13.80546	0.02811392	-0.01038993	0	0	0	0
13.82211	0.02811392	-0.01038993	0	0	0	0
13.83859	0.02811392	-0.01038993	0	0	0	0
13.85516	0.02811392	-0.01038993	0	0	0	0
13.87173	0.02811392	-0.01038993	0	0	0	0
13.88847	0.02811392	-0.01038993	0	0	0	0
13.90486	0.02811392	-0.01038993	0	0	0	0
13.92143	0.02811392	-0.01038993	0	0	0	0
13.93799	0.02811392	-0.01038993	0	0	0	0
13.95456	0.02811392	-0.01038993	0	0	0	0
13.97113	0.02811392	-0.01038993	0	0	0	0
13.9877	0.02811392	-0.01038993	0	0	0	0
14.00426	0.02811392	-0.01038993	0	0	0	0
14.02083	0.02811392	-0.01038993	0	0	0	0
14.03739	0.02811392	-0.01038993	0	0	0	0
14.05396	0.02811392	-0.01038993	0	0	0	0
14.07073	0.02811392	-0.01038993	0	0	0	0
14.0871	0.02811392	-0.01038993	0	0	0	0
14.10366	0.02811392	-0.01038993	0	0	0	0
14.12023	0.02811392	-0.01038993	0	0	0	0
14.13724	0.02811392	-0.01038993	0	0	0	0
14.15336	0.02811392	-0.01038993	0	0	0	0
14.16993	0.02811392	-0.01038993	0	0	0	0
14.1865	0.02811392	-0.01038993	0	0	0	0
14.20306	0.02811392	-0.01038993	0	0	0	0
14.21963	0.02811392	-0.01038993	0	0	0	0
14.23619	0.02811392	-0.01038993	0	0	0	0
14.25276	0.02811392	-0.01038993	0	0	0	0
14.26969	0.02811392	-0.01038993	0	0	0	0
14.28612	0.02811392	-0.01038993	0	0	0	0
14.30246	0.02811392	-0.01038993	0	0	0	0
14.31903	0.02811392	-0.01038993	0	0	0	0
14.33583	0.02811392	-0.01038993	0	0	0	0
14.35263	0.02811392	-0.01038993	0	0	0	0
14.36873	0.02811392	-0.01038993	0	0	0	0
14.38827	0.02811392	-0.01038993	0	0	0	0
14.40484	0.02811392	-0.01038993	0	0	0	0
14.42142	0.02811392	-0.01038993	0	0	0	0
14.43798	0.02811392	-0.01038993	0	0	0	0
14.45462	0.02811392	-0.01038993	0	0	0	0
14.47111	0.02811392	-0.01038993	0	0	0	0
14.48768	0.02811392	-0.01038993	0	0	0	0
14.50424	0.02811392	-0.01038993	0	0	0	0
14.52114	0.02811392	-0.01038993	0	0	0	0
14.53738	0.02811392	-0.01038993	0	0	0	0
14.55395	0.02811392	-0.01038993	0	0	0	0
14.57063	0.02811392	-0.01038993	0	0	0	0
14.58754	0.02811392	-0.01038993	0	0	0	0
14.60365	0.02811392	-0.01038993	0	0	0	0
14.62021	0.02811392	-0.01038993	0	0	0	0
14.63678	0.02811392	-0.01038993	0	0	0	0
14.65335	0.02811392	-0.01038993	0	0	0	0
14.66991	0.02811392	-0.01038993	0	0	0	0
14.68732	0.02811392	-0.01038993	0	0	0	0
14.70403	0.02811392	-0.01038993	0	0	0	0
14.72064	0.02811392	-0.01038993	0	0	0	0
14.73713	0.02811392	-0.01038993	0	0	0	0
14.75359	0.02811392	-0.01038993	0	0	0	0
14.77015	0.02811392	-0.01038993	0	0	0	0
14.78672	0.02811392	-0.01038993	0	0	0	0
14.80329	0.02811392	-0.01038993	0	0	0	0
14.81986	0.02811392	-0.01038993	0	0	0	0
14.83642	0.02811392	-0.01038993	0	0	0	0
14.85299	0.02811392	-0.01038993	0	0	0	0
14.86956	0.02811392	-0.01038993	0	0	0	0
14.88653	0.02811392	-0.01038993	0	0	0	0
14.90269	0.02811392	-0.01038993	0	0	0	0
14.91928	0.02811392	-0.01038993	0	0	0	0
14.93589	0.02811392	-0.01038993	0	0	0	0
14.95239	0.02811392	-0.01038993	0	0	0	0
14.96896	0.02811392	-0.01038993	0	0	0	0
14.98613	0.02811392	-0.01038993	0	0	0	0
15.00209	0.02811392	-0.01038993	0	0	0	0
15.01866	0.02811392	-0.01038993	0	0	0	0
15.04043	0.02811392	-0.01038993	0	0	0	0
15.057	0.02811392	0.0006111722	0	0.6639513	0	17.31462
15.07357	0.02689158	0.00794524	-0.07378083	0.4426852	-2.226582	-6.67744
15.0903	0.02322455	0.01283462	-0.2192101	0.29228	-4.367818	-4.517264
15.1067	0.0220022	0.01650165	-0.07450565	0.2235171	4.367188	-2.075269
15.12328	0.0220022	0.017724	-1.124036E-07	0.07376385	2.259311	-4.541129
15.14036	0.0220022	0.017724	0	0	3.339956E-06	-2.191816
15.15641	0.0220022	0.017724	0	0	0	0
15.17297	0.0220022	0.017724	0	0	0	0
15.18954	0.0220022	0.017724	0	0	0	0
15.2061	0.0220022	0.017724	0	0	0	0
15.22267	0.0220022	0.017724	0	0	0	0
15.23924	0.0220022	0.01527931	0	-0.1475703	0	-4.45381
15.2558	0.02689158	-0.006722894	0.2951404	-1.328132	8.907869	-35.63147
15.27265	0.0440044	-0.04339323	1.01557	-2.17622	21.55892	-25.37914
15.28894	0.08678646	-0.1155116	2.627554	-4.429306	48.65259	-68.00217
15.3055	0.1002322	-0.1350691	0.8115893	-1.180493	-55.28167	98.90048
15.32207	0.1259015	-0.1717394	1.549576	-2.213681	22.27377	-31.18346
15.33864	0.1430143	-0.198631	1.032932	-1.623179	-15.59326	17.82242
15.35536	0.1527931	-0.2169662	0.5847942	-1.096488	-13.46206	15.82177
15.37177	0.1625718	-0.2450801	0.5959066	-1.713232	0.3354034	-18.61495
15.38884	0.1674612	-0.2621929	0.2864505	-1.002576	-9.243363	21.22707
15.405	0.1723506	-0.2793057	0.3024179	-1.058461	0.4804184	-1.681437
15.42147	0.17724	-0.3000856	0.2969691	-1.262121	-0.1669775	-6.241116
15.43853	0.1833517	-0.3184207	0.3582021	-1.074608	1.82641	5.592978
15.4546	0.1870187	-0.3306442	0.228173	-0.7605755	-3.924398	9.477794
15.47132	0.1894634	-0.3355336	0.1462231	-0.292448	-2.499221	14.27645
15.48783	0.1894634	-0.3404229	0	-0.2961953	-4.400862	-0.1127807
15.5043	0.1894634	-0.3404229	0	0	0	8.980288
15.52087	0.1919081	-0.3392006	0.1475708	0.07378317	4.466166	2.233015
15.53744	0.2077986	-0.3049749	0.9592065	2.065985	24.49662	60.12822
15.55441	0.2334678	-0.2463024	1.512567	3.457298	16.50004	41.48602
15.57063	0.2652487	-0.1900746	1.959357	3.466555	13.46131	0.2789271
15.58714	0.3116979	-0.1155116	2.813392	4.51623	26.09324	32.07062
15.6037	0.3275883	-0.07884122	0.9592046	2.213554	-56.0579	-69.61714
15.62027	0.3361447	-0.06417309	0.5164669	0.8853701	-13.36224	-40.08582
15.63684	0.3373671	-0.0617284	0.07378497	0.1475702	-13.36055	-22.26748
15.6534	0.3373671	-0.0617284	0	0	-2.226963	-4.453933
15.67033	0.3373671	-0.0617284	0	0	0	0
15.68684	0.3373671	-0.0617284	0	0	0	0
15.70854	0.3373671	-0.07517418	0	-0.6194879	0	-16.21356
15.72511	0.3373671	-0.124068	0	-2.950725	0	-60.90795
15.74168	0.3373671	-0.124068	0	0	0	89.05051
15.75878	0.3373671	-0.1570713	0	-1.92955	0	-57.30859
15.775	0.3373671	-0.1754064	0	-1.130465	0	23.97978
15.79153	0.3385894	-0.1827405	0.07394674	-0.4436804	2.257972	20.97104
15.80794	0.3385894	-0.1839628	0	-0.07446225	-2.244508	11.20689
15.82451	0.3385894	-0.1839628	0	0	0	2.257672
15.8412	0.3385894	-0.1839628	0	0	0	0
15.85764	0.3385894	-0.1839628	0	0	0	0
15.87427	0.3385894	-0.1839628	0	0	0	0
15.89078	0.3385894	-0.1839628	0	0	0	0
15.90734	0.3385894	-0.1839628	0	0	0	0
15.92391	0.3385894	-0.1839628	0	0	0	0
15.94048	0.3385894	-0.1839628	0	0	0	0
15.95767	0.3385894	-0.1839628	0	0	0	0
15.97361	0.3385894	-0.1839628	0	0	0	0
15.99018	0.3385894	-0.1839628	0	0	0	0
16.0068	0.3385894	-0.1839628	0	0	0	0
16.02331	0.3337001	-0.1766288	-0.2960773	0.444116	-8.936147	13.40422
16.03988	0.3251437	-0.163183	-0.5164651	0.8115889	-6.662053	11.10826
16.05685	0.3092532	-0.1460702	-0.9363006	1.008323	-12.5179	5.865851
16.07344	0.2896957	-0.127735	-1.178458	1.104805	-7.214067	2.874279
16.08958	0.2701381	-0.1130669	-1.212316	0.9092372	-1.034501	-5.975507
16.10682	0.2505806	-0.1008434	-1.134266	0.7089165	2.338578	-6.002156
16.1229	0.2359125	-0.09106467	-0.9119345	0.6079548	6.671196	-3.029419
16.13927	0.2249114	-0.08495294	-0.6719952	0.3733315	7.392884	-7.229088
16.15584	0.2139103	-0.07639653	-0.6641039	0.5165254	0.2395942	4.347628
16.17241	0.1992422	-0.06661777	-0.8852686	0.5901792	-6.674764	2.222875
16.18898	0.1711282	-0.04706026	-1.69696	1.180494	-24.49549	17.8147
16.20579	0.1515707	-0.03361448	-1.163218	0.7997124	15.98964	-11.40729
16.22214	0.1320132	-0.02139103	-1.196054	0.7475337	-0.9900938	-1.573308
16.23867	0.1173451	-0.01283462	-0.8872086	0.5175385	9.391806	-6.994008
16.25524	0.1112334	-0.009167584	-0.3689041	0.2213426	15.65868	-8.948484
16.2718	0.1075663	-0.006722895	-0.2213936	0.1475957	4.452388	-2.225941
16.28837	0.1038993	-0.00550055	-0.2213176	0.0737724	0.002294143	-2.22812
16.30494	0.1002323	-0.003055861	-0.2213422	0.1475617	-0.0007419919	2.226837
16.3215	0.09656522	-0.0006111722	-0.2213936	0.1475957	-0.001552155	0.001027274
16.33807	0.0904535	0.001833517	-0.3688616	0.1475447	-4.45085	-0.001539023
16.35868	0.08678646	0.004278205	-0.1780007	0.1186669	5.134753	-0.7769042
16.37524	0.07945239	0.006722894	-0.4426343	0.1475447	-7.119468	0.7769046
16.39181	0.0794524	0.00794524	4.497179E-07	0.07378089	13.35797	-2.226069
16.40838	0.0770077	0.00794524	-0.1475789	0	-4.45421	-2.22684
16.42494	0.07578535	0.01038993	-0.07378118	0.1475617	2.227348	4.453678
16.44151	0.07456301	0.01038993	-0.07377223	-5.620827E-08	0.0002700401	-4.453167
16.45808	0.07456301	0.01038993	0	0	2.226322	1.696271E-06
16.47465	0.07456301	0.01038993	0	0	0	0
16.49121	0.07456301	0.01038993	0	0	0	0
16.50778	0.07456301	0.01038993	0	0	0	0
16.52435	0.07456301	0.01038993	0	0	0	0
16.54091	0.07456301	0.01038993	0	0	0	0
16.5575	0.07456301	0.01038993	0	0	0	0
16.57412	0.07456301	0.01038993	0	0	0	0
16.59061	0.07456301	0.01038993	0	0	0	0
16.60718	0.07456301	0.01038993	0	0	0	0
16.62375	0.07456301	0.01038993	0	0	0	0
16.64031	0.07456301	0.01038993	0	0	0	0
16.65688	0.07456301	0.01038993	0	0	0	0
16.67369	0.07456301	0.01038993	0	0	0	0
16.69002	0.07456301	0.01038993	0	0	0	0
16.70658	0.07456301	0.01038993	0	0	0	0
16.72315	0.07456301	0.01038993	0	0	0	0
16.73993	0.07456301	0.01038993	0	0	0	0
16.75628	0.07456301	0.01038993	0	0	0	0
16.77285	0.07456301	0.01038993	0	0	0	0
16.78998	0.07456301	0.01038993	0	0	0	0
16.80598	0.07456301	0.01038993	0	0	0	0
16.82255	0.07456301	0.01038993	0	0	0	0
16.83912	0.07456301	0.01038993	0	0	0	0
16.85612	0.07456301	0.01038993	0	0	0	0
16.87225	0.07456301	0.01038993	0	0	0	0
16.88882	0.07456301	0.01038993	0	0	0	0
16.90538	0.07456301	0.01038993	0	0	0	0
16.92214	0.07456301	0.01038993	0	0	0	0
16.93852	0.07456301	0.01038993	0	0	0	0
16.95509	0.07456301	0.01038993	0	0	0	0
16.97189	0.07456301	0.01038993	0	0	0	0
16.98822	0.07456301	0.01038993	0	0	0	0
17.00834	0.07456301	0.01038993	0	0	0	0
17.0252	0.07456301	0.01038993	0	0	0	0
17.04148	0.07456301	0.01038993	0	0	0	0
17.05822	0.07456301	0.01038993	0	0	0	0
17.07532	0.07456301	0.01038993	0	0	0	0
17.09137	0.07456301	0.01038993	0	0	0	0
17.10775	0.07456301	0.01038993	0	0	0	0
17.12431	0.07456301	0.01038993	0	0	0	0
17.14088	0.07456301	0.01038993	0	0	0	0
17.15745	0.07456301	0.01038993	0	0	0	0
17.17445	0.07456301	0.01038993	0	0	0	0
17.19058	0.07456301	0.01038993	0	0	0	0
17.20715	0.07456301	0.01038993	0	0	0	0
17.22371	0.07456301	0.01038993	0	0	0	0
17.24028	0.07456301	0.01038993	0	0	0	0
17.25716	0.07456301	0.01038993	0	0	0	0
17.27413	0.07456301	0.01038993	0	0	0	0
17.29033	0.07456301	0.01038993	0	0	0	0
17.30655	0.07456301	0.01038993	0	0	0	0
17.32312	0.07456301	0.01038993	0	0	0	0
17.33985	0.07456301	0.01038993	0	0	0	0
17.35625	0.07456301	0.01038993	0	0	0	0
17.37282	0.07456301	0.01038993	0	0	0	0
17.38982	0.07456301	0.01038993	0	0	0	0
17.40629	0.07456301	0.01038993	0	0	0	0
17.4226	0.07456301	0.01038993	0	0	0	0
17.43908	0.07456301	0.01038993	0	0	0	0
17.45565	0.07456301	0.01038993	0	0	0	0
17.47221	0.07456301	0.01038993	0	0	0	0
17.48878	0.07456301	0.01038993	0	0	0	0
17.50535	0.07456301	0.01038993	0	0	0	0
17.52198	0.07456301	0.01038993	0	0	0	0
17.53856	0.07456301	0.01038993	0	0	0	0
17.55505	0.07456301	0.01038993	0	0	0	0
17.57161	0.07456301	0.01038993	0	0	0	0
17.58818	0.07456301	0.01038993	0	0	0	0
17.60501	0.07456301	0.01038993	0	0	0	0
17.62131	0.07456301	0.01038993	0	0	0	0
17.63827	0.07456301	0.01038993	0	0	0	0
17.65445	0.07456301	0.01038993	0	0	0	0
17.67497	0.07456301	0.01038993	0	0	0	0
17.69154	0.07456301	0.01038993	0	0	0	0
17.7081	0.07456301	0.01038993	0	0	0	0
17.72499	0.07456301	0.01038993	0	0	0	0
17.7416	0.07456301	0.01038993	0	0	0	0
17.7578	0.07456301	0.01038993	0	0	0	0
17.77437	0.07456301	0.01038993	0	0	0	0
17.79137	0.07456301	0.01038993	0	0	0	0
17.8075	0.07456301	0.01038993	0	0	0	0
17.82407	0.07456301	0.01038993	0	0	0	0
17.84068	0.07456301	0.01038993	0	0	0	0
17.8572	0.07456301	0.01038993	0	0	0	0
17.87377	0.07456301	0.01038993	0	0	0	0
17.89034	0.07456301	0.01038993	0	0	0	0
17.90691	0.07456301	0.01038993	0	0	0	0
17.92383	0.07456301	0.01038993	0	0	0	0
17.94008	0.07456301	0.01038993	0	0	0	0
17.95666	0.07456301	0.01038993	0	0	0	0
17.97317	0.07456301	0.01038993	0	0	0	0
17.98974	0.07456301	0.01038993	0	0	0	0
18.00631	0.07456301	0.01038993	0	0	0	0
18.02355	0.07456301	0.01038993	0	0	0	0
18.03944	0.07456301	0.01038993	0	0	0	0
18.056	0.07456301	0.01038993	0	0	0	0
18.07327	0.07334067	0.01038993	-0.07080536	5.394777E-08	-2.093054	1.594732E-06
18.08914	0.07089598	0.01038993	-0.1540347	0	-2.511866	-1.628147E-06
18.11612	0.06845129	0.009167584	-0.09059364	-0.04529692	1.480323	-1.056951
18.13269	0.06233957	0.007945239	-0.3688621	-0.0737724	-6.388999	-0.6537925
18.14972	0.06233957	0.007945239	0	0	10.97809	2.195617
18.16583	0.06111722	0.00794524	-0.07589547	5.782582E-08	-2.290398	1.745086E-06
18.18239	0.06111722	0.00794524	0	0	2.32316	-1.770048E-06
18.19896	0.06111722	0.00794524	0	0	0	0
18.21553	0.06111722	0.00794524	0	0	0	0
18.2321	0.06111722	0.00794524	0	0	0	0
18.24896	0.06111722	0.00794524	0	0	0	0
18.26605	0.06111722	0.00794524	0	0	0	0
18.2818	0.06111722	0.00794524	0	0	0	0
18.3013	0.06111722	0.00794524	0	0	0	0
18.31787	0.06111722	0.00794524	0	0	0	0
18.33444	0.06111722	0.00794524	0	0	0	0
18.3513	0.06111722	0.00794524	0	0	0	0
18.36808	0.06111722	0.00794524	0	0	0	0
18.38414	0.06111722	0.00794524	0	0	0	0
18.40071	0.06111722	0.00794524	0	0	0	0
18.41727	0.06111722	0.00794524	0	0	0	0
18.43384	0.06111722	0.00794524	0	0	0	0
18.45058	0.06111722	0.00794524	0	0	0	0
18.46733	0.06111722	0.00794524	0	0	0	0
18.48354	0.06111722	0.00794524	0	0	0	0
18.50011	0.06111722	0.00794524	0	0	0	0
18.5167	0.06111722	0.00794524	0	0	0	0
18.53324	0.06111722	0.00794524	0	0	0	0
18.55045	0.06111722	0.00794524	0	0	0	0
18.56651	0.06111722	0.00794524	0	0	0	0
18.58307	0.06111722	0.00794524	0	0	0	0
18.59951	0.06111722	0.00794524	0	0	0	0
18.61608	0.06111722	0.00794524	0	0	0	0
18.63271	0.06111722	0.00794524	0	0	0	0
18.64921	0.06111722	0.00794524	0	0	0	0
18.66578	0.06111722	0.00794524	0	0	0	0
18.68286	0.06111722	0.00794524	0	0	0	0
18.69891	0.06111722	0.00794524	0	0	0	0
18.71566	0.06111722	0.00794524	0	0	0	0
18.73241	0.06111722	0.00794524	0	0	0	0
18.74861	0.06111722	0.00794524	0	0	0	0
18.76564	0.06111722	0.00794524	0	0	0	0
18.78174	0.06111722	0.00794524	0	0	0	0
18.79831	0.06111722	0.00794524	0	0	0	0
18.81488	0.06111722	0.00794524	0	0	0	0
18.83144	0.06111722	0.00794524	0	0	0	0
18.84801	0.06111722	0.00794524	0	0	0	0
18.86481	0.06111722	0.00794524	0	0	0	0
18.88125	0.06111722	0.00794524	0	0	0	0
18.89789	0.06111722	0.00794524	0	0	0	0
18.91428	0.06111722	0.00794524	0	0	0	0
18.93085	0.06111722	0.00794524	0	0	0	0
18.94741	0.06111722	0.006722895	2.24859E-07	-0.07378086	6.786257E-06	-2.226711
18.9678	0.05867253	0.006722894	-0.1198992	-2.283823E-08	-3.244315	1.996408
18.98437	0.05867254	0.00550055	2.248331E-07	-0.07377237	3.244147	-1.996076
19.00094	0.05867254	0.00550055	0	0	-6.785086E-06	2.226326
19.01801	0.05867254	0.00550055	0	0	0	0
19.03407	0.05867254	0.00550055	0	0	0	0
19.05126	0.05867254	0.00550055	0	0	0	0
19.0672	0.05867254	0.00550055	0	0	0	0
19.08377	0.05867254	0.00550055	0	0	0	0
19.10034	0.05867254	0.00550055	0	0	0	0
19.15117	0.05867254	0.00550055	0	0	0	0
19.16777	0.05867254	0.00550055	0	0	0	0
19.18431	0.05867254	0.00550055	0	0	0	0
19.20088	0.05867254	0.00550055	0	0	0	0
19.21745	0.05867254	0.00550055	0	0	0	0
19.23401	0.05867254	0.00550055	0	0	0	0
19.25094	0.05867254	0.00550055	0	0	0	0
19.26715	0.05867254	0.00550055	0	0	0	0
19.28371	0.05867254	0.00550055	0	0	0	0
19.30028	0.05867254	0.00550055	0	0	0	0
19.3169	0.05867254	0.00550055	0	0	0	0
19.33349	0.05867254	0.00550055	0	0	0	0
19.35025	0.05867254	0.00550055	0	0	0	0
19.36655	0.05867254	0.00550055	0	0	0	0
19.38312	0.05867254	0.00550055	0	0	0	0
19.39968	0.05867254	0.00550055	0	0	0	0
19.41638	0.05867254	0.00550055	0	0	0	0
19.43281	0.05867254	0.00550055	0	0	0	0
19.44938	0.05867254	0.00550055	0	0	0	0
19.46602	0.05867254	0.00550055	0	0	0	0
19.48281	0.05867254	0.00550055	0	0	0	0
19.49932	0.05867254	0.00550055	0	0	0	0
19.51639	0.05867254	0.00550055	0	0	0	0
19.53222	0.05867254	0.00550055	0	0	0	0
19.54878	0.05867254	0.00550055	0	0	0	0
19.56535	0.05867254	0.00550055	0	0	0	0
19.58192	0.05867254	0.00550055	0	0	0	0
19.59849	0.05867254	0.00550055	0	0	0	0
19.61505	0.05867254	0.00550055	0	0	0	0
19.63166	0.05867254	0.00550055	0	0	0	0
19.6482	0.05867254	0.00550055	0	0	0	0
19.6682	0.05867254	0.00550055	0	0	0	0
19.68477	0.05867254	0.00550055	0	0	0	0
19.70134	0.05867254	0.00550055	0	0	0	0
19.7179	0.05867254	0.00550055	0	0	0	0
19.73447	0.05867254	0.00550055	0	0	0	0
19.75132	0.05867254	0.00550055	0	0	0	0
19.7676	0.05867254	0.00550055	0	0	0	0
19.78426	0.05867254	0.00550055	0	0	0	0
19.80122	0.05867254	0.00550055	0	0	0	0
19.8173	0.05867254	0.00550055	0	0	0	0
19.83389	0.05867254	0.00550055	0	0	0	0
19.85044	0.05867254	0.00550055	0	0	0	0
19.86701	0.05867254	0.00550055	0	0	0	0
19.88358	0.05867254	0.00550055	0	0	0	0
19.90035	0.05867254	0.00550055	0	0	0	0
19.91675	0.05867254	0.00550055	0	0	0	0
19.93327	0.05867254	0.00550055	0	0	0	0
19.94984	0.05867253	0.006722894	-2.24859E-07	0.07378086	-6.794862E-06	2.229534
19.96641	0.06356192	0.02750275	0.2951238	1.254275	8.90686	35.62737
19.98298	0.06845129	0.05194964	0.2951233	1.475617	-1.349154E-05	6.680135
19.99954	0.07089598	0.08861998	0.1475619	2.213426	-4.453413	22.26711
20.01611	0.07456302	0.1301797	0.2213426	2.50855	2.226707	8.906861
20.03285	0.07211833	0.1766288	-0.1460653	2.775236	-11.03187	8.007574
20.04934	0.07089598	0.2096321	-0.07409635	2.000605	2.165544	-23.30863
20.06584	0.06967364	0.2365237	-0.07407922	1.629747	0.0005191023	-11.23911
20.08237	0.06967364	0.2524141	-4.507558E-07	0.9613639	2.242803	-20.2359
20.09924	0.06967364	0.2634152	0	0.6523866	1.349894E-05	-9.253047
20.11551	0.07089598	0.2670823	0.07513005	0.2253902	2.26756	-12.88752
20.13207	0.07089598	0.2670823	0	0	-2.287976	-6.863926
20.14877	0.07089598	0.2670823	0	0	0	0
20.16525	0.07089598	0.2670823	0	0	0	0
20.18177	0.07089598	0.2670823	0	0	0	0
20.19834	0.07089598	0.2670823	0	0	0	0
20.21491	0.07089598	0.2670823	0	0	0	0
20.23169	0.07089598	0.2670823	0	0	0	0
20.24804	0.07089598	0.2670823	0	0	0	0
20.26471	0.07089598	0.2670823	0	0	0	0
20.28122	0.07089598	0.2670823	0	0	0	0
20.29774	0.07089598	0.2670823	0	0	0	0
20.3143	0.07089598	0.2670823	0	0	0	0
20.33125	0.07089598	0.2670823	0	0	0	0
20.34744	0.07089598	0.2670823	0	0	0	0
20.36428	0.07089598	0.2670823	0	0	0	0
20.38057	0.07334067	0.2707493	0.150067	0.2250999	4.529554	6.794311
20.39714	0.07945239	0.2805281	0.3689041	0.5902476	6.660105	11.11294
20.4137	0.08434177	0.2854174	0.2951578	0.2951569	-2.225796	-8.906368
20.43027	0.08678646	0.2866398	0.1475619	0.07378072	-4.45471	-6.68153
20.44708	0.08678646	0.2866398	0	0	-4.421106	-2.210546
20.46368	0.08678646	0.2866398	0	0	0	0
20.48064	0.08678646	0.2866398	0	0	0	0
20.4972	0.08678646	0.2866398	0	0	0	0
20.5131	0.08678646	0.2866398	0	0	0	0
20.52967	0.08311942	0.2658599	-0.2213176	-1.25413	-6.816317	-38.62569
20.54624	0.08189708	0.2524141	-0.07378072	-0.8115898	4.452415	13.35511
20.56281	0.07578536	0.2181885	-0.3689041	-2.065864	-8.906841	-37.85407
20.57962	0.07456301	0.1937416	-0.07270145	-1.454024	8.873521	18.32926
20.59603	0.07334067	0.1705171	-0.07448389	-1.415196	-0.05364899	1.16867
20.61251	0.07089598	0.1460702	-0.1483647	-1.483645	-2.246409	-2.081265
20.62908	0.06845129	0.124068	-0.1475445	-1.327902	0.0248209	4.712805
20.64596	0.06478426	0.1020658	-0.2172409	-1.303445	-2.083652	0.7311684
20.66221	0.05867254	0.08128591	-0.3760036	-1.278412	-4.791467	0.7555045
20.67878	0.05622785	0.06295074	-0.1475617	-1.106713	6.960098	5.231273
20.69551	0.05011612	0.03850385	-0.3652878	-1.46115	-6.538619	-10.64424
20.71191	0.04889378	0.0287251	-0.07454453	-0.5963573	8.776166	26.10401
20.72847	0.04767144	0.02505806	-0.07378072	-0.2213427	0.02317057	11.37624
20.74504	0.04644909	0.01894634	-0.07378095	-0.3689043	-6.745769E-06	-4.453416
20.76161	0.04522675	0.01527931	-0.07378945	-0.221368	-0.0002565788	4.45291
20.77817	0.0440044	0.01283462	-0.07378072	-0.1475617	0.000263325	2.227608
20.79508	0.0440044	0.01038993	0	-0.1445985	2.204122	0.08852119
20.81131	0.0440044	0.009167584	0	-0.0753245	0	2.090694
20.82788	0.04278206	0.007945239	-0.07378095	-0.07378089	-2.249765	0.04706834
20.84444	0.04278206	0.007945239	0	0	2.226713	2.226712
20.86101	0.04278206	0.007945239	0	0	0	0
20.87758	0.04278206	0.007945239	0	0	0	0
20.89414	0.04278206	0.007945239	0	0	0	0
20.91071	0.04278206	0.007945239	0	0	0	0
20.92728	0.04278206	0.007945239	0	0	0	0
20.94384	0.04278206	0.007945239	0	0	0	0
20.96041	0.04278206	0.007945239	0	0	0	0
20.97698	0.04278206	0.007945239	0	0	0	0
20.99354	0.04278206	0.007945239	0	0	0	0
21.01011	0.04278206	0.007945239	0	0	0	0
21.02668	0.04278206	0.007945239	0	0	0	0
21.04324	0.04278206	0.007945239	0	0	0	0
21.05981	0.04278206	0.007945239	0	0	0	0
21.07638	0.04278206	0.007945239	0	0	0	0
21.09295	0.04278206	0.007945239	0	0	0	0
21.10951	0.04278206	0.007945239	0	0	0	0
21.12608	0.04278206	0.007945239	0	0	0	0
21.14282	0.04278206	0.007945239	0	0	0	0
21.15921	0.04278206	0.007945239	0	0	0	0
21.17601	0.04278206	0.007945239	0	0	0	0
21.19235	0.04278206	0.007945239	0	0	0	0
21.20891	0.04278206	0.007945239	0	0	0	0
21.22548	0.04278206	0.007945239	0	0	0	0
21.24205	0.04278206	0.007945239	0	0	0	0
21.25862	0.04278206	0.007945239	0	0	0	0
21.27526	0.04278206	0.007945239	0	0	0	0
21.29175	0.04278206	0.007945239	0	0	0	0
21.30832	0.04278206	0.007945239	0	0	0	0
21.3254	0.04278206	0.007945239	0	0	0	0
21.34163	0.04278206	0.007945239	0	0	0	0
21.35819	0.04278206	0.007945239	0	0	0	0
21.37458	0.04278206	0.007945239	0	0	0	0
21.39182	0.04278206	0.007945239	0	0	0	0
21.40833	0.04278206	0.007945239	0	0	0	0
21.42428	0.04278206	0.007945239	0	0	0	0
21.44084	0.04278206	0.007945239	0	0	0	0
21.45741	0.04278206	0.007945239	0	0	0	0
21.47398	0.04278206	0.007945239	0	0	0	0
21.49054	0.04278206	0.007945239	0	0	0	0
21.50711	0.04278206	0.007945239	0	0	0	0
21.52393	0.04278206	0.007945239	0	0	0	0
21.54024	0.04278206	0.007945239	0	0	0	0
21.55681	0.04278206	0.007945239	0	0	0	0
21.57338	0.04278206	0.007945239	0	0	0	0
21.58994	0.04278206	0.007945239	0	0	0	0
21.60651	0.04278206	0.007945239	0	0	0	0
21.62671	0.04278206	0.007945239	0	0	0	0
21.64328	0.04278206	0.007945239	0	0	0	0
21.66052	0.04278206	0.007945239	0	0	0	0
21.67654	0.04278206	0.007945239	0	0	0	0
21.69305	0.04278206	0.007945239	0	0	0	0
21.70955	0.04278206	0.007945239	0	0	0	0
21.72628	0.04278206	0.007945239	0	0	0	0
21.74268	0.04278206	0.007945239	0	0	0	0
21.75925	0.04278206	0.007945239	0	0	0	0
21.77582	0.04278206	0.007945239	0	0	0	0
21.79239	0.04278206	0.007945239	0	0	0	0
21.80895	0.04278206	0.007945239	0	0	0	0
21.82557	0.04278206	0.007945239	0	0	0	0
21.84221	0.04278206	0.007945239	0	0	0	0
21.85866	0.04278206	0.007945239	0	0	0	0
21.87522	0.04278206	0.007945239	0	0	0	0
21.89179	0.04278206	0.007945239	0	0	0	0
21.90836	0.04278206	0.007945239	0	0	0	0
21.92492	0.04278206	0.007945239	0	0	0	0
21.94175	0.04278206	0.007945239	0	0	0	0
21.95832	0.04278206	0.007945239	0	0	0	0
21.97462	0.04278206	0.007945239	0	0	0	0
21.99119	0.04278206	0.007945239	0	0	0	0
22.00778	0.04278206	0.007945239	0	0	0	0
22.02432	0.04278206	0.007945239	0	0	0	0
22.04088	0.04278206	0.007945239	0	0	0	0
22.05745	0.04278206	0.007945239	0	0	0	0
22.07403	0.04278206	0.007945239	0	0	0	0
22.09058	0.04278206	0.007945239	0	0	0	0
22.10715	0.04278206	0.007945239	0	0	0	0
22.12383	0.04278206	0.007945239	0	0	0	0
22.14028	0.04278206	0.007945239	0	0	0	0
22.15706	0.04278206	0.007945239	0	0	0	0
22.17342	0.04278206	0.007945239	0	0	0	0
22.18999	0.04278206	0.007945239	0	0	0	0
22.20655	0.04278206	0.007945239	0	0	0	0
22.22333	0.04278206	0.007945239	0	0	0	0
22.23969	0.04278206	0.007945239	0	0	0	0
22.25666	0.04278206	0.007945239	0	0	0	0
22.27282	0.04278206	0.007945239	0	0	0	0
22.28938	0.04278206	0.007945239	0	0	0	0
22.30595	0.04278206	0.007945239	0	0	0	0
22.32252	0.04278206	0.007945239	0	0	0	0
22.33909	0.04278206	0.007945239	0	0	0	0
22.35565	0.04278206	0.007945239	0	0	0	0
22.37222	0.04278206	0.007945239	0	0	0	0
22.38879	0.04278206	0.007945239	0	0	0	0
22.40535	0.04278206	0.007945239	0	0	0	0
22.42192	0.04278206	0.007945239	0	0	0	0
22.44165	0.04278206	0.007945239	0	0	0	0
22.45829	0.04278206	0.007945239	0	0	0	0
22.47479	0.04278206	0.007945239	0	0	0	0
22.49159	0.04278206	0.007945239	0	0	0	0
22.50792	0.04278206	0.007945239	0	0	0	0
22.52449	0.04278206	0.007945239	0	0	0	0
22.54105	0.04278206	0.007945239	0	0	0	0
22.55762	0.04278206	0.007945239	0	0	0	0
22.57418	0.04278206	0.007945239	0	0	0	0
22.59116	0.04278206	0.007945239	0	0	0	0
22.60731	0.04278206	0.007945239	0	0	0	0
22.62388	0.04278206	0.007945239	0	0	0	0
22.64045	0.04278206	0.007945239	0	0	0	0
22.6572	0.04278206	0.007945239	0	0	0	0
22.67373	0.04278206	0.007945239	0	0	0	0
22.69022	0.04278206	0.007945239	0	0	0	0
22.70671	0.04278206	0.007945239	0	0	0	0
22.72328	0.04278206	0.007945239	0	0	0	0
22.73985	0.04278206	0.007945239	0	0	0	0
22.75648	0.04278206	0.007945239	0	0	0	0
22.7731	0.04278206	0.007945239	0	0	0	0
22.78955	0.04278206	0.007945239	0	0	0	0
22.8063	0.04278206	0.007945239	0	0	0	0
22.82268	0.04278206	0.007945239	0	0	0	0
22.83942	0.04278206	0.007945239	0	0	0	0
22.85582	0.04278206	0.007945239	0	0	0	0
22.87296	0.04278206	0.007945239	0	0	0	0
22.88895	0.04278206	0.007945239	0	0	0	0
22.91044	0.04278206	0.007945239	0	0	0	0
22.92702	0.04278206	0.007945239	0	0	0	0
22.94358	0.04278206	0.007945239	0	0	0	0
22.96015	0.04278206	0.007945239	0	0	0	0
22.97672	0.04278206	0.007945239	0	0	0	0
22.99331	0.04278206	0.007945239	0	0	0	0
23.00985	0.04278206	0.007945239	0	0	0	0
23.02642	0.04278206	0.007945239	0	0	0	0
23.04309	0.04278206	0.007945239	0	0	0	0
23.06009	0.04278206	0.007945239	0	0	0	0
23.07611	0.04278206	0.007945239	0	0	0	0
23.09268	0.04278206	0.007945239	0	0	0	0
23.10937	0.04278206	0.007945239	0	0	0	0
23.12582	0.04278206	0.007945239	0	0	0	0
23.14238	0.04278206	0.007945239	0	0	0	0
23.15895	0.04278206	0.007945239	0	0	0	0
23.17552	0.04278206	0.007945239	0	0	0	0
23.19209	0.04278206	0.007945239	0	0	0	0
23.20865	0.04278206	0.007945239	0	0	0	0
23.22522	0.04278206	0.007945239	0	0	0	0
23.24223	0.04278206	0.007945239	0	0	0	0
23.25835	0.04278206	0.007945239	0	0	0	0
23.27519	0.04278206	0.007945239	0	0	0	0
23.29176	0.04278206	0.007945239	0	0	0	0
23.30805	0.04278206	0.007945239	0	0	0	0
23.32491	0.04278206	0.007945239	0	0	0	0
23.34119	0.04278206	0.007945239	0	0	0	0
23.35791	0.04278206	0.007945239	0	0	0	0
23.37446	0.04278206	0.007945239	0	0	0	0
23.39152	0.04278206	0.007945239	0	0	0	0
23.4075	0.04278206	0.007945239	0	0	0	0
23.42402	0.04278206	0.007945239	0	0	0	0
23.44059	0.04278206	0.007945239	0	0	0	0
23.45715	0.04278206	0.007945239	0	0	0	0
23.47372	0.04278206	0.007945239	0	0	0	0
23.49029	0.04278206	0.007945239	0	0	0	0
23.50692	0.04278206	0.007945239	0	0	0	0
23.52342	0.04278206	0.007945239	0	0	0	0
23.53999	0.04278206	0.007945239	0	0	0	0
23.55656	0.04278206	0.007945239	0	0	0	0
23.57655	0.04278206	0.007945239	0	0	0	0
23.59312	0.04278206	0.007945239	0	0	0	0
23.60991	0.04278206	0.007945239	0	0	0	0
23.62636	0.04278206	0.007945239	0	0	0	0
23.64288	0.04278206	0.007945239	0	0	0	0
23.65947	0.04278206	0.007945239	0	0	0	0
23.67595	0.04278206	0.007945239	0	0	0	0
23.69252	0.04278206	0.007945239	0	0	0	0
23.70908	0.04278206	0.007945239	0	0	0	0
23.72569	0.04278206	0.007945239	0	0	0	0
23.74221	0.04278206	0.007945239	0	0	0	0
23.7592	0.04278206	0.007945239	0	0	0	0
23.77535	0.04278206	0.007945239	0	0	0	0
23.79222	0.04278206	0.007945239	0	0	0	0
23.80848	0.04278206	0.007945239	0	0	0	0
23.82526	0.04278206	0.007945239	0	0	0	0
23.84161	0.04278206	0.007945239	0	0	0	0
23.85827	0.04278206	0.007945239	0	0	0	0
23.87478	0.04278206	0.007945239	0	0	0	0
23.89132	0.04278206	0.007945239	0	0	0	0
23.90788	0.04278206	0.007945239	0	0	0	0
23.92445	0.04278206	0.007945239	0	0	0	0
23.94102	0.04278206	0.007945239	0	0	0	0
23.95758	0.04278206	0.007945239	0	0	0	0
23.97417	0.04278206	0.007945239	0	0	0	0
23.99072	0.04278206	0.007945239	0	0	0	0
24.00728	0.04278206	0.007945239	0	0	0	0
24.02385	0.04278206	0.007945239	0	0	0	0
24.04066	0.04278206	0.007945239	0	0	0	0
24.05717	0.04278206	0.007945239	0	0	0	0
24.07355	0.04278206	0.007945239	0	0	0	0
24.09011	0.04278206	0.007945239	0	0	0	0
24.10668	0.04278206	0.007945239	0	0	0	0
24.12325	0.04278206	0.007945239	0	0	0	0
24.13981	0.04278206	0.007945239	0	0	0	0
24.15638	0.04278206	0.007945239	0	0	0	0
24.17296	0.04278206	0.007945239	0	0	0	0
24.18951	0.04278206	0.007945239	0	0	0	0
24.20667	0.04278206	0.007945239	0	0	0	0
24.22265	0.04278206	0.007945239	0	0	0	0
24.24573	0.04278206	0.007945239	0	0	0	0
24.2623	0.04278206	0.007945239	0	0	0	0
24.27886	0.04278206	0.007945239	0	0	0	0
24.29543	0.04278206	0.007945239	0	0	0	0
24.312	0.04278206	0.007945239	0	0	0	0
24.32856	0.04278206	0.007945239	0	0	0	0
24.34513	0.04278206	0.007945239	0	0	0	0
24.3617	0.04278206	0.007945239	0	0	0	0
24.37827	0.04278206	0.007945239	0	0	0	0
24.39483	0.04278206	0.007945239	0	0	0	0
24.41156	0.04522675	0.006722894	0.146165	-0.07308249	4.391047	-2.195523
24.42797	0.0550055	0.001833517	0.5959415	-0.2979707	13.57428	-6.78714
24.44453	0.06722895	-0.001833517	0.7378088	-0.2213426	4.302119	2.323744
24.4611	0.07334067	-0.004278206	0.3689041	-0.1475617	-11.13357	2.226711
24.47767	0.07945239	-0.006722894	0.3689041	-0.1475617	0	4.497179E-07
24.49423	0.08434177	-0.009167584	0.2951238	-0.1475617	-2.226694	-8.994359E-07
24.5108	0.09412052	-0.01650165	0.5902467	-0.4426851	8.906827	-8.906842
24.52737	0.1087887	-0.02750275	0.8854724	-0.6641042	8.910443	-6.682826
24.54393	0.1307909	-0.04583792	1.328055	-1.106713	13.35795	-13.35872
24.5605	0.1527931	-0.06539543	1.328209	-1.18063	0.004630562	-2.230945
24.62377	0.1760176	-0.08617529	0.3670893	-0.3284483	-12.03926	10.67467
24.64063	0.2640264	-0.1558489	5.217317	-4.130377	60.52545	-47.44384
24.6569	0.2676935	-0.1582936	0.2254449	-0.1502953	-150.655	120.1191
24.67439	0.2689158	-0.1582936	0.0698789	-8.5187E-07	-4.608247	4.452094
24.69007	0.2689158	-0.1582936	0	0	-2.106524	2.567992E-05
24.7069	0.2689158	-0.1582936	0	0	0	0
24.72318	0.2689158	-0.1582936	0	0	0	0
24.73973	0.2689158	-0.1582936	0	0	0	0
24.7563	0.2689158	-0.1582936	0	0	0	0
24.77287	0.2689158	-0.1582936	0	0	0	0
24.78943	0.2689158	-0.1582936	0	0	0	0
24.80607	0.2689158	-0.1582936	0	0	0	0
24.823	0.2689158	-0.1582936	0	0	0	0
24.83914	0.2689158	-0.1582936	0	0	0	0
24.8557	0.2689158	-0.1582936	0	0	0	0
24.87227	0.2689158	-0.1582936	0	0	0	0
24.88908	0.2689158	-0.1582936	0	0	0	0
24.9054	0.2689158	-0.1582936	0	0	0	0
24.92792	0.2689158	-0.1582936	0	0	0	0
24.94449	0.2689158	-0.1582936	0	0	0	0
24.96144	0.2689158	-0.1582936	0	0	0	0
24.97762	0.2689158	-0.1582936	0	0	0	0
24.99441	0.2689158	-0.1582936	0	0	0	0
25.01076	0.2689158	-0.1582936	0	0	0	0
25.02732	0.2689158	-0.1582936	0	0	0	0
25.04389	0.2664711	-0.1570713	-0.1475784	0.07378922	-4.454182	2.227091
25.06046	0.2603593	-0.1497372	-0.3689072	0.4426861	-6.6801	11.13397
25.0772	0.2493583	-0.1375138	-0.6569173	0.7299091	-8.645383	8.621753
25.09389	0.2298008	-0.1191786	-1.17226	1.098995	-15.41553	11.04052
25.11015	0.2029092	-0.09350935	-1.653059	1.577919	-14.59117	14.5343
25.12672	0.1784623	-0.07395184	-1.475617	1.180494	5.404034	-12.10371
25.14329	0.1552377	-0.05439433	-1.401837	1.180494	2.226705	0
25.15985	0.1356802	-0.03972619	-1.180494	0.8853703	6.680121	-8.906847
25.17694	0.1210121	-0.03239213	-0.8583905	0.4291955	9.57071	-13.55438
25.19361	0.106344	-0.02383572	-0.8803031	0.51351	-0.6492547	2.498169
25.20955	0.09778756	-0.01650165	-0.5364773	0.4598379	10.54297	-1.645786
25.22622	0.09167584	-0.01161227	-0.3666248	0.2933	5.207089	-5.105473
25.24269	0.08678646	-0.00794524	-0.2970044	0.222753	2.101268	-2.129234
25.25933	0.08434177	-0.006722894	-0.1468682	0.07343426	4.534775	-4.510085
25.27589	0.08311943	-0.00550055	-0.07382322	0.07382336	2.199943	0.01171875
25.29239	0.08067474	-0.004278206	-0.148176	0.0740879	-2.249281	0.00800273
25.30896	0.0770077	-0.001833517	-0.2213426	0.1475617	-2.212758	2.222049
25.32552	0.07089598	0.001833517	-0.3689045	0.2213426	-4.453427	2.22671
25.34209	0.06722894	0.00550055	-0.2213681	0.2213681	4.452915	0.0007699615
25.35869	0.06478426	0.00794524	-0.1472394	0.1472397	2.234894	-2.234885
25.37522	0.06356192	0.00794524	-0.07394247	0	2.212105	-4.443702
25.39179	0.06233957	0.007945239	-0.07378967	-5.622121E-08	0.004616723	-1.698715E-06
25.40836	0.06233957	0.009167585	2.248331E-07	0.07377245	2.226984	2.226459
25.42543	0.06233957	0.009167585	0	0	-6.683902E-06	-2.193128
25.44159	0.06233957	0.009167585	0	0	0	0
25.45807	0.06233957	0.009167585	0	0	0	0
25.4747	0.06233957	0.009167585	0	0	0	0
25.4912	0.06233957	0.009167585	0	0	0	0
25.50776	0.06233957	0.009167585	0	0	0	0
25.52433	0.06233957	0.009167585	0	0	0	0
25.54089	0.06233957	0.009167585	0	0	0	0
25.55746	0.06233957	0.009167585	0	0	0	0
25.57403	0.06233957	0.009167585	0	0	0	0
25.59713	0.06233957	0.009167585	0	0	0	0
25.6137	0.05989488	0.01161227	-0.1475447	0.1475447	-3.71957	3.71957
25.63026	0.05867253	0.01405696	-0.07378118	0.1475617	2.226059	0.000512649
25.64697	0.05867254	0.01527931	2.229849E-07	0.07316604	2.217409	-2.235869
25.6634	0.05622784	0.02139103	-0.1488126	0.3720309	-4.491179	9.01976
25.67997	0.05133847	0.03239213	-0.2951233	0.6640275	-4.434302	8.849663
25.69653	0.05133847	0.03728151	0	0.2951236	8.90684	-11.13354
25.7131	0.05011613	0.04094854	-0.07378072	0.2213426	-2.226707	-2.226714
25.72967	0.05011613	0.04094854	0	0	2.226835	-6.680518
25.74623	0.05011613	0.04094854	0	0	0	0
25.76314	0.05011613	0.04094854	0	0	0	0
25.77937	0.05011613	0.04094854	0	0	0	0
25.79593	0.05011613	0.04094854	0	0	0	0
25.81251	0.05011613	0.04094854	0	0	0	0
25.82914	0.05011613	0.04094854	0	0	0	0
25.84615	0.05011613	0.04094854	0	0	0	0
25.8622	0.05011613	0.04094854	0	0	0	0
25.87936	0.05011613	0.04094854	0	0	0	0
25.89533	0.05011613	0.04094854	0	0	0	0
25.9119	0.05011613	0.04094854	0	0	0	0
25.92847	0.05011613	0.04094854	0	0	0	0
25.94503	0.05011613	0.04094854	0	0	0	0
25.9616	0.05011613	0.04094854	0	0	0	0
25.97831	0.05011613	0.04094854	0	0	0	0
25.99504	0.05011613	0.04094854	0	0	0	0
26.01133	0.05011613	0.04094854	0	0	0	0
26.02787	0.05011613	0.04094854	0	0	0	0
26.04443	0.05011613	0.04094854	0	0	0	0
26.061	0.05011613	0.04094854	0	0	0	0
26.07757	0.05011613	0.04094854	0	0	0	0
26.09413	0.05011613	0.04094854	0	0	0	0
26.1107	0.05011613	0.04094854	0	0	0	0
26.12727	0.05011613	0.04094854	0	0	0	0
26.14383	0.05011613	0.04094854	0	0	0	0
26.1604	0.05011613	0.04094854	0	0	0	0
26.17697	0.05011613	0.04094854	0	0	0	0
26.19353	0.05011613	0.04094854	0	0	0	0
26.2103	0.05011613	0.04094854	0	0	0	0
26.22669	0.05011613	0.04094854	0	0	0	0
26.24327	0.05011613	0.04094854	0	0	0	0
26.26343	0.05011613	0.04094854	0	0	0	0
26.28	0.05011613	0.04094854	0	0	0	0
26.29669	0.05011613	0.04094854	0	0	0	0
26.31313	0.05011613	0.04094854	0	0	0	0
26.3297	0.05011613	0.04094854	0	0	0	0
26.34627	0.05011613	0.04094854	0	0	0	0
26.36283	0.05011613	0.04094854	0	0	0	0
26.37974	0.05011613	0.04094854	0	0	0	0
26.39606	0.05011613	0.04094854	0	0	0	0
26.41253	0.05011613	0.04094854	0	0	0	0
26.4291	0.05011613	0.04094854	0	0	0	0
26.44567	0.05011613	0.04094854	0	0	0	0
26.46223	0.05011613	0.04094854	0	0	0	0
26.4788	0.05011613	0.04094854	0	0	0	0
26.49579	0.05011613	0.04094854	0	0	0	0
26.51194	0.05011613	0.04094854	0	0	0	0
26.5285	0.05011613	0.04094854	0	0	0	0
26.54507	0.05011613	0.04094854	0	0	0	0
26.56164	0.05011613	0.04094854	0	0	0	0
26.5782	0.05011613	0.04094854	0	0	0	0
26.59477	0.05011613	0.04094854	0	0	0	0
26.61156	0.05011613	0.04094854	0	0	0	0
26.6279	0.05011613	0.04094854	0	0	0	0
26.64447	0.05011613	0.04094854	0	0	0	0
26.66104	0.04889378	0.04094854	-0.07378095	2.24859E-07	-2.226585	6.785866E-06
26.67772	0.04889378	0.0397262	2.233419E-07	-0.07328317	2.219183	-2.204211
26.69417	0.04889378	0.03850385	-2.264493E-07	-0.07430299	-1.357629E-05	-0.03078157
26.71109	0.04889378	0.03850385	0	0	6.785041E-06	2.226321
26.72772	0.04889378	0.03850385	0	0	0	0
26.74387	0.04889378	0.03850385	0	0	0	0
26.76044	0.04889378	0.03728151	0	-0.0737805	0	-2.255524
26.77708	0.04889378	0.03605916	0	-0.07342591	0	0.01067568
26.79357	0.04889378	0.03483681	0	-0.07413967	0	-0.02154126
26.81014	0.04889378	0.03239213	0	-0.1475614	0	-2.221244
26.82694	0.04889378	0.03116978	0	-0.07274249	0	2.242037
26.84327	0.04889378	0.02750275	-2.281422E-07	-0.2245744	-6.88574E-06	-4.582559
26.85984	0.04889378	0.02628041	2.24859E-07	-0.07378083	1.377069E-05	4.583941
26.87647	0.04889378	0.02628041	0	0	-6.77339E-06	2.222488
26.89297	0.04889378	0.02383572	2.257165E-07	-0.1481244	6.812138E-06	-4.470404
26.90957	0.04889378	0.02383572	0	0	-6.818025E-06	4.474267
26.9261	0.04889378	0.02261337	-4.507558E-07	-0.07395123	-1.36054E-05	-2.23211
26.94267	0.04889378	0.02139103	2.248331E-07	-0.07377234	2.041164E-05	0.005404775
26.95924	0.04889378	0.02139103	0	0	-6.784695E-06	2.226197
26.97592	0.04889378	0.02139103	0	0	0	0
26.99246	0.04889378	0.02016868	0	-0.07392552	0	-2.22544
27.01592	0.04889378	0.01894634	0	-0.05208976	0	0.5458816
27.03311	0.04889378	0.017724	0	-0.07112768	0	-0.4683221
27.04963	0.04889378	0.017724	0	0	0	2.110316
27.06563	0.04889378	0.017724	0	0	0	0
27.0822	0.04889378	0.017724	0	0	0	0
27.09908	0.04889378	0.017724	0	0	0	0
27.11543	0.04889378	0.017724	0	0	0	0
27.13205	0.04889378	0.017724	0	0	0	0
27.14846	0.04889378	0.017724	0	0	0	0
27.16503	0.04889378	0.017724	0	0	0	0
27.18159	0.04889378	0.017724	0	0	0	0
27.19816	0.04889378	0.017724	0	0	0	0
27.21548	0.04889378	0.017724	0	0	0	0
27.23134	0.04889378	0.017724	0	0	0	0
27.24786	0.04889378	0.017724	0	0	0	0
27.26458	0.04889378	0.017724	0	0	0	0
27.28099	0.04889378	0.017724	0	0	0	0
27.29756	0.04889378	0.017724	0	0	0	0
27.31413	0.04889378	0.017724	0	0	0	0
27.33069	0.04889378	0.017724	0	0	0	0
27.34726	0.04889378	0.017724	0	0	0	0
27.36383	0.04889378	0.017724	0	0	0	0
27.3804	0.04889378	0.017724	0	0	0	0
27.39716	0.04889378	0.017724	0	0	0	0
27.41353	0.04889378	0.017724	0	0	0	0
27.4304	0.04889378	0.017724	0	0	0	0
27.44667	0.04889378	0.017724	0	0	0	0
27.46323	0.04889378	0.017724	0	0	0	0
27.4804	0.04889378	0.017724	0	0	0	0
27.49636	0.04889378	0.017724	0	0	0	0
27.51293	0.04889378	0.017724	0	0	0	0
27.52959	0.04889378	0.017724	0	0	0	0
27.55852	0.04889378	0.017724	0	0	0	0
27.57509	0.04889378	0.017724	0	0	0	0
27.59166	0.04889378	0.017724	0	0	0	0
27.60823	0.04889378	0.017724	0	0	0	0
27.62479	0.04889378	0.017724	0	0	0	0
27.6414	0.04889378	0.017724	0	0	0	0
27.65793	0.04889378	0.017724	0	0	0	0
27.6745	0.04889378	0.017724	0	0	0	0
27.69106	0.04889378	0.017724	0	0	0	0
27.70834	0.04889378	0.017724	0	0	0	0
27.72419	0.04889378	0.017724	0	0	0	0
27.74085	0.04889378	0.017724	0	0	0	0
27.75733	0.04889378	0.017724	0	0	0	0
27.7739	0.04889378	0.017724	0	0	0	0
27.79046	0.04889378	0.017724	0	0	0	0
27.80711	0.04889378	0.017724	0	0	0	0
27.82398	0.04889378	0.017724	0	0	0	0
27.84017	0.04889378	0.017724	0	0	0	0
27.85694	0.04889378	0.017724	0	0	0	0
27.87362	0.04889378	0.017724	0	0	0	0
27.88987	0.04889378	0.017724	0	0	0	0
27.90644	0.04889378	0.017724	0	0	0	0
27.92319	0.04889378	0.017724	0	0	0	0
27.93957	0.05011613	0.01650165	0.0746142	-0.0746142	2.251991	-2.251991
27.95613	0.05256081	0.01405696	0.1475617	-0.1475617	2.213921	-2.213923
27.97307	0.0550055	0.01283462	0.1443379	-0.07216896	-0.09621837	2.250229
27.98926	0.0550055	0.01038993	0	-0.1510039	-4.357131	-2.379791
28.00597	0.05622785	0.01038993	0.07315768	0	2.223776	4.590071
28.0224	0.05622785	0.009167584	0	-0.07441481	-2.207903	-2.245843
28.03897	0.05745019	0.009167584	0.0737298	0	2.233914	2.254669
28.05553	0.05867254	0.009167584	0.07384045	0	0.003339798	0
28.07209	0.05867254	0.009167584	0	0	-2.229536	0
28.08902	0.05867254	0.009167584	0	0	0	0
28.10523	0.05867254	0.009167584	0	0	0	0
28.12253	0.05867254	0.009167584	0	0	0	0
28.13836	0.05867254	0.009167584	0	0	0	0
28.15556	0.05867254	0.009167584	0	0	0	0
28.17149	0.05867254	0.009167584	0	0	0	0
28.18807	0.05867254	0.009167584	0	0	0	0
28.20463	0.05867254	0.009167584	0	0	0	0
28.22346	0.05867254	0.009167584	0	0	0	0
28.24014	0.05867254	0.009167584	0	0	0	0
28.25669	0.05867254	0.009167584	0	0	0	0
28.27318	0.05867254	0.009167584	0	0	0	0
28.28973	0.05867254	0.009167584	0	0	0	0
28.3063	0.05867254	0.009167584	0	0	0	0
28.32288	0.05867254	0.009167584	0	0	0	0
28.33944	0.05867254	0.009167584	0	0	0	0
28.35647	0.05867254	0.009167584	0	0	0	0
28.37256	0.05867254	0.009167584	0	0	0	0
28.38913	0.05867254	0.009167584	0	0	0	0
28.40569	0.05867254	0.009167584	0	0	0	0
28.42226	0.05867254	0.009167584	0	0	0	0
28.43916	0.05867254	0.009167584	0	0	0	0
28.4554	0.05867254	0.009167584	0	0	0	0
28.47196	0.05867254	0.009167584	0	0	0	0
28.48853	0.05867254	0.009167584	0	0	0	0
28.50509	0.05867254	0.009167584	0	0	0	0
28.52166	0.05867254	0.009167584	0	0	0	0
28.53823	0.05867254	0.009167584	0	0	0	0
28.55571	0.05867254	0.009167584	0	0	0	0
28.57136	0.05867254	0.009167584	0	0	0	0
28.58793	0.05867254	0.009167584	0	0	0	0
28.60451	0.05867254	0.009167584	0	0	0	0
28.62186	0.05867254	0.009167584	0	0	0	0
28.63762	0.05867254	0.009167584	0	0	0	0
28.6544	0.05867254	0.009167584	0	0	0	0
28.67108	0.05867254	0.009167584	0	0	0	0
28.68757	0.05867254	0.009167584	0	0	0	0
28.7041	0.05867254	0.009167584	0	0	0	0
28.72046	0.05011613	0.01894634	-0.5230294	0.597748	-15.90407	18.17609
28.73734	0.03178096	0.04950495	-1.085714	1.809523	-16.92436	36.44765
28.75359	-0.003667033	0.09962107	-2.181845	3.084677	-33.08132	38.48423
28.77016	-0.03789268	0.1534042	-2.065864	3.246358	3.534498	4.927197
28.78703	-0.05622785	0.1864075	-1.08645	1.95561	29.28568	-38.59496
28.80329	-0.06600661	0.2035204	-0.6015354	1.052686	14.63559	-27.25185
28.81986	-0.07089598	0.2194109	-0.2951569	0.9592625	9.334647	-2.846411
28.83642	-0.07334067	0.2316343	-0.1475619	0.7378082	4.454681	-6.683891
28.85332	-0.0770077	0.2475248	-0.2169712	0.9402076	-2.073886	6.047506
28.86956	-0.08067473	0.2634152	-0.2258933	0.978872	-0.26927	1.166894
28.88612	-0.08923115	0.2878621	-0.5165854	1.475958	-8.863411	15.15651
28.90269	-0.1014546	0.3171984	-0.7378082	1.770741	-6.677287	8.897593
28.91926	-0.1051216	0.3208654	-0.2213176	0.2213167	15.58682	-46.75903
28.93583	-0.1051216	0.3233101	0	0.1475614	6.678994	-2.22581
28.95248	-0.1051216	0.3233101	0	0	0	-4.441397
28.96896	-0.106344	0.3233101	-0.07419117	1.808868E-06	-2.239223	5.459488E-05
28.98553	-0.106344	0.3233101	0	0	2.245298	-5.4743E-05
29.00209	-0.106344	0.3233101	0	0	0	0
29.0189	-0.106344	0.3233101	0	0	0	0
29.03522	-0.106344	0.3233101	0	0	0	0
29.05186	-0.106344	0.3233101	0	0	0	0
29.06861	-0.106344	0.3233101	0	0	0	0
29.08492	-0.106344	0.3233101	0	0	0	0
29.10154	-0.106344	0.3233101	0	0	0	0
29.11806	-0.106344	0.3233101	0	0	0	0
29.13483	-0.106344	0.3233101	0	0	0	0
29.15119	-0.1014546	0.3110867	0.298735	-0.7468371	9.015841	-22.53959
29.16776	-0.08923115	0.2878621	0.7378086	-1.401837	13.33185	-19.88815
29.18433	-0.07578535	0.2609705	0.8116832	-1.623366	2.22967	-6.686147
29.20089	-0.0550055	0.2243002	1.254274	-2.213425	13.3582	-17.80904
29.21782	-0.03178096	0.1790735	1.371983	-2.671756	3.514222	-13.68358
29.23409	-0.004889378	0.1338467	1.653252	-2.780468	8.473593	-3.275096
29.2507	0.01466813	0.09839873	1.177511	-2.13424	-14.47117	19.65711
29.26723	0.02811392	0.0727295	0.8132749	-1.552615	-10.99015	17.54942
29.28373	0.03789268	0.05561667	0.5927032	-1.037231	-6.677624	15.60283
29.30029	0.04522675	0.04461558	0.4427874	-0.6641803	-4.534386	11.28338
29.31694	0.04889378	0.03850385	0.2203025	-0.3671716	-6.699568	8.943663
29.33343	0.05011613	0.03483682	0.07412229	-0.2223662	-4.411475	4.369985
29.34999	0.05133847	0.03239213	0.07378072	-0.1475621	-0.01033222	2.262801
29.36726	0.05133847	0.03239213	0	0	-2.180639	4.361298
29.38313	0.05133847	0.03239213	0	0	0	0
29.3997	0.05133847	0.03239213	0	0	0	0
29.41626	0.05133847	0.03239213	0	0	0	0
29.43283	0.05256081	0.03116979	0.07377223	-0.07377212	2.226578	-2.226575
29.45017	0.05256081	0.03116979	0	0	-2.17536	2.175356
29.46608	0.05378316	0.02994744	0.07684188	-0.07684188	2.310978	-2.310978
29.48253	0.05378316	0.02994744	0	0	-2.375009	2.375009
29.49909	0.05378316	0.02994744	0	0	0	0
29.5219	0.05378316	0.02994744	0	0	0	0
29.53847	0.05378316	0.02994744	0	0	0	0
29.55504	0.05378316	0.02994744	0	0	0	0
29.57161	0.05378316	0.02994744	0	0	0	0
29.58817	0.05378316	0.02994744	0	0	0	0
29.60474	0.05378316	0.02994744	0	0	0	0
29.6216	0.05378316	0.02994744	0	0	0	0
29.63787	0.05378316	0.02994744	0	0	0	0
29.65444	0.05378316	0.02994744	0	0	0	0
29.67101	0.05378316	0.02994744	0	0	0	0
29.68771	0.05378316	0.02994744	0	0	0	0
29.70476	0.05378316	0.02994744	0	0	0	0
29.72071	0.05378316	0.02994744	0	0	0	0
29.73727	0.05378316	0.02994744	0	0	0	0
29.75384	0.05378316	0.02994744	0	0	0	0
29.77041	0.05378316	0.02994744	0	0	0	0
29.78697	0.05378316	0.02994744	0	0	0	0
29.80354	0.05378316	0.02994744	0	0	0	0
29.82011	0.05378316	0.02994744	0	0	0	0
29.83667	0.05378316	0.02994744	0	0	0	0
29.85324	0.05378316	0.02994744	0	0	0	0
29.86981	0.05378316	0.02994744	0	0	0	0
29.88656	0.05378316	0.02994744	0	0	0	0
29.90294	0.05378316	0.02994744	0	0	0	0
29.91971	0.05378316	0.02994744	0	0	0	0
29.93607	0.05378316	0.02994744	0	0	0	0
29.95264	0.05378316	0.02994744	0	0	0	0
29.96948	0.05378316	0.02994744	0	0	0	0
29.98586	0.05378316	0.02994744	0	0	0	0
30.00234	0.05378316	0.02994744	0	0	0	0
30.01891	0.05378316	0.02994744	0	0	0	0
30.0357	0.05378316	0.02994744	0	0	0	0
30.05204	0.05378316	0.02994744	0	0	0	0
30.0687	0.05378316	0.02994744	0	0	0	0
30.08525	0.05378316	0.02994744	0	0	0	0
30.10174	0.05378316	0.02994744	0	0	0	0
30.11831	0.05256081	0.02994744	-0.07378072	0	-2.231459	0
30.13507	0.05133847	0.02994744	-0.072908	1.110993E-07	0.02618211	3.333029E-06
30.15144	0.05133847	0.02994744	0	0	2.200495	-3.353175E-06
30.16807	0.05133847	0.02994744	0	0	0	0
30.18491	0.05133847	0.02994744	0	0	0	0
30.2012	0.05133847	0.02994744	0	0	0	0
30.21777	0.05133847	0.02994744	0	0	0	0
30.23434	0.05133847	0.02994744	0	0	0	0
30.25142	0.05133847	0.02994744	0	0	0	0
30.26747	0.05133847	0.02994744	0	0	0	0
30.28437	0.05133847	0.02994744	0	0	0	0
30.30076	0.05133847	0.02994744	0	0	0	0
30.31717	0.05133847	0.02994744	0	0	0	0
30.33374	0.05133847	0.02994744	0	0	0	0
30.35031	0.05133847	0.02994744	0	0	0	0
30.36687	0.05133847	0.02994744	0	0	0	0
30.38344	0.05133847	0.02994744	0	0	0	0
30.40011	0.05133847	0.02994744	0	0	0	0
30.41657	0.05133847	0.02994744	0	0	0	0
30.43314	0.05133847	0.02994744	0	0	0	0
30.45033	0.05133847	0.02994744	0	0	0	0
30.46644	0.05133847	0.02994744	0	0	0	0
30.48284	0.05133847	0.02994744	0	0	0	0
30.4997	0.05133847	0.02994744	0	0	0	0
30.51597	0.05133847	0.02994744	0	0	0	0
30.53254	0.05133847	0.02994744	0	0	0	0
30.54925	0.05133847	0.02994744	0	0	0	0
30.56574	0.05133847	0.02994744	0	0	0	0
30.58234	0.05133847	0.02994744	0	0	0	0
30.59881	0.05133847	0.02994744	0	0	0	0
30.61537	0.05133847	0.02994744	0	0	0	0
30.63194	0.05133847	0.02994744	0	0	0	0
30.64851	0.05133847	0.02994744	0	0	0	0
30.66531	0.05133847	0.02994744	0	0	0	0
30.68179	0.05133847	0.02994744	0	0	0	0
30.69831	0.05133847	0.02994744	0	0	0	0
30.71477	0.05133847	0.02994744	0	0	0	0
30.73134	0.05133847	0.02994744	0	0	0	0
30.7479	0.05133847	0.02994744	0	0	0	0
30.76447	0.05133847	0.02994744	0	0	0	0
30.78104	0.05133847	0.02994744	0	0	0	0
30.7976	0.05133847	0.02994744	0	0	0	0
30.81417	0.05133847	0.02994744	0	0	0	0
30.83202	0.05133847	0.02994744	0	0	0	0
30.84891	0.05011613	0.02750275	-0.07233992	-0.1446802	-2.082297	-4.164603
30.86549	0.04889378	0.02383572	-0.07375525	-0.2212661	-0.04228625	-2.288185
30.88172	0.04889378	0.02139103	-2.294824E-07	-0.1505959	2.24819	2.154159
30.89889	0.04767143	0.02016868	-0.07117518	-0.07117508	-2.130527	2.377356
30.91485	0.04644909	0.01894634	-0.07658453	-0.07658476	-0.1632546	-0.1632647
30.93156	0.04644909	0.01650165	0	-0.1463318	2.344389	-2.135082
30.94839	0.04644909	0.01527931	-2.212922E-07	-0.07261051	-6.597717E-06	2.197965
30.96456	0.04644909	0.01405696	2.305116E-07	-0.07563565	1.369301E-05	-0.09168408
30.98114	0.04644909	0.01283462	0	-0.07371289	-7.03993E-06	0.05872186
30.99769	0.04644909	0.01161227	0	-0.07385742	0	-0.004362065
31.01426	0.04522675	0.01161227	-0.07378072	0	-2.227861	2.230177
31.03121	0.04522675	0.01161227	0	0	2.200987	0
31.04739	0.04522675	0.01161227	0	0	0	0
31.06422	0.04522675	0.01161227	0	0	0	0
31.08052	0.04522675	0.01161227	0	0	0	0
31.09709	0.04522675	0.01161227	0	0	0	0
31.11366	0.04522675	0.01161227	0	0	0	0
31.13041	0.04522675	0.01161227	0	0	0	0
31.1468	0.04522675	0.01161227	0	0	0	0
31.16335	0.04522675	0.01161227	0	0	0	0
31.17992	0.04522675	0.01161227	0	0	0	0
31.19649	0.04522675	0.01161227	0	0	0	0
31.21306	0.04522675	0.01161227	0	0	0	0
31.23236	0.04522675	0.01161227	0	0	0	0
31.24893	0.04522675	0.01161227	0	0	0	0
31.26567	0.04522675	0.01161227	0	0	0	0
31.28207	0.04522675	0.01161227	0	0	0	0
31.29864	0.04522675	0.01161227	0	0	0	0
31.31607	0.04522675	0.01161227	0	0	0	0
31.33177	0.04522675	0.01161227	0	0	0	0
31.34834	0.04522675	0.01161227	0	0	0	0
31.3649	0.04522675	0.01161227	0	0	0	0
31.38147	0.04522675	0.01161227	0	0	0	0
31.39804	0.04522675	0.01161227	0	0	0	0
31.4146	0.04522675	0.01161227	0	0	0	0
31.4317	0.04522675	0.01161227	0	0	0	0
31.44774	0.04522675	0.01161227	0	0	0	0
31.4643	0.04522675	0.01161227	0	0	0	0
31.48087	0.04522675	0.01161227	0	0	0	0
31.49744	0.04522675	0.01161227	0	0	0	0
31.5142	0.04522675	0.01161227	0	0	0	0
31.53057	0.04522675	0.01161227	0	0	0	0
31.54726	0.04522675	0.01161227	0	0	0	0
31.56371	0.04522675	0.01161227	0	0	0	0
31.5803	0.04522675	0.01161227	0	0	0	0
31.59685	0.04522675	0.01161227	0	0	0	0
31.61341	0.04522675	0.01161227	0	0	0	0
31.62997	0.04522675	0.01161227	0	0	0	0
31.64654	0.04522675	0.01161227	0	0	0	0
31.66314	0.04522675	0.01161227	0	0	0	0
31.67967	0.04522675	0.01161227	0	0	0	0
31.69624	0.04522675	0.01161227	0	0	0	0
31.7128	0.04522675	0.01161227	0	0	0	0
31.72943	0.04522675	0.01161227	0	0	0	0
31.74594	0.04522675	0.01161227	0	0	0	0
31.7625	0.04522675	0.01161227	0	0	0	0
31.77933	0.04522675	0.01161227	0	0	0	0
31.79564	0.04522675	0.01161227	0	0	0	0
31.81221	0.04522675	0.01161227	0	0	0	0
31.82877	0.04522675	0.01161227	0	0	0	0
31.84534	0.04522675	0.01161227	0	0	0	0
31.86191	0.04522675	0.01161227	0	0	0	0
31.87851	0.04522675	0.01161227	0	0	0	0
31.89504	0.04522675	0.01161227	0	0	0	0
31.91175	0.04522675	0.01161227	0	0	0	0
31.92817	0.04522675	0.01161227	0	0	0	0
31.94474	0.04522675	0.01161227	0	0	0	0
31.96131	0.04522675	0.01161227	0	0	0	0
31.97811	0.04522675	0.01161227	0	0	0	0
31.99444	0.04522675	0.01161227	0	0	0	0
32.01101	0.04522675	0.01161227	0	0	0	0
32.02758	0.04522675	0.01161227	0	0	0	0
32.04414	0.04522675	0.01161227	0	0	0	0
32.06071	0.04522675	0.01161227	0	0	0	0
32.07727	0.04522675	0.01161227	0	0	0	0
32.09384	0.04522675	0.01161227	0	0	0	0
32.11041	0.04522675	0.01161227	0	0	0	0
32.13529	0.04522675	0.01161227	0	0	0	0
32.15186	0.04522675	0.01161227	0	0	0	0
32.16854	0.04522675	0.01161227	0	0	0	0
32.185	0.04522675	0.01161227	0	0	0	0
32.20162	0.04522675	0.01161227	0	0	0	0
32.21813	0.04522675	0.01161227	0	0	0	0
32.23516	0.04522675	0.01161227	0	0	0	0
32.25151	0.04522675	0.01161227	0	0	0	0
32.26806	0.04522675	0.01161227	0	0	0	0
32.28455	0.04522675	0.01161227	0	0	0	0
32.30096	0.04522675	0.01161227	0	0	0	0
32.31753	0.04522675	0.01161227	0	0	0	0
32.3341	0.04522675	0.01161227	0	0	0	0
32.35071	0.04522675	0.01161227	0	0	0	0
32.36723	0.04522675	0.01161227	0	0	0	0
32.3838	0.04522675	0.01161227	0	0	0	0
32.40037	0.04522675	0.01161227	0	0	0	0
32.41694	0.04522675	0.01161227	0	0	0	0
32.4335	0.04522675	0.01161227	0	0	0	0
32.45031	0.04522675	0.01161227	0	0	0	0
32.46663	0.04522675	0.01161227	0	0	0	0
32.48331	0.04522675	0.01161227	0	0	0	0
32.49981	0.04522675	0.01161227	0	0	0	0
32.51633	0.04522675	0.01161227	0	0	0	0
32.53349	0.04522675	0.01161227	0	0	0	0
32.54947	0.04522675	0.01161227	0	0	0	0
32.5661	0.04522675	0.01161227	0	0	0	0
32.58282	0.04522675	0.01161227	0	0	0	0
32.59917	0.04522675	0.01161227	0	0	0	0
32.61603	0.04522675	0.01161227	0	0	0	0
32.6323	0.04522675	0.01161227	0	0	0	0
32.64887	0.04522675	0.01161227	0	0	0	0
32.66544	0.04522675	0.01161227	0	0	0	0
32.682	0.04522675	0.01161227	0	0	0	0
32.69857	0.04522675	0.01161227	0	0	0	0
32.71514	0.04522675	0.01161227	0	0	0	0
32.7317	0.04522675	0.01161227	0	0	0	0
32.74827	0.04522675	0.01161227	0	0	0	0
32.76496	0.04522675	0.01161227	0	0	0	0
32.78141	0.04522675	0.01161227	0	0	0	0
32.80548	0.04522675	0.01161227	0	0	0	0
32.82256	0.04522675	0.01161227	0	0	0	0
32.83862	0.04522675	0.01161227	0	0	0	0
32.85539	0.04522675	0.01161227	0	0	0	0
32.87175	0.04522675	0.01161227	0	0	0	0
32.8885	0.04522675	0.01161227	0	0	0	0
32.90493	0.04522675	0.01161227	0	0	0	0
32.92145	0.04522675	0.01161227	0	0	0	0
32.93849	0.04522675	0.01161227	0	0	0	0
32.95503	0.04522675	0.01161227	0	0	0	0
32.97115	0.04522675	0.01161227	0	0	0	0
32.98804	0.04522675	0.01161227	0	0	0	0
33.00454	0.04522675	0.01161227	0	0	0	0
33.02085	0.04522675	0.01161227	0	0	0	0
33.03816	0.04522675	0.01161227	0	0	0	0
33.05415	0.04522675	0.01161227	0	0	0	0
33.07055	0.04522675	0.01161227	0	0	0	0
33.08717	0.04522675	0.01161227	0	0	0	0
33.10396	0.04522675	0.01161227	0	0	0	0
33.12025	0.04522675	0.01161227	0	0	0	0
33.13682	0.04522675	0.01161227	0	0	0	0
33.15339	0.04522675	0.01161227	0	0	0	0
33.16995	0.04522675	0.01161227	0	0	0	0
33.18652	0.04522675	0.01161227	0	0	0	0
33.20309	0.04522675	0.01161227	0	0	0	0
33.21965	0.04522675	0.01161227	0	0	0	0
33.23623	0.04522675	0.01161227	0	0	0	0
33.25289	0.04522675	0.01161227	0	0	0	0
33.26936	0.04522675	0.01161227	0	0	0	0
33.28592	0.04522675	0.01161227	0	0	0	0
33.30251	0.04522675	0.01161227	0	0	0	0
33.31906	0.04522675	0.01161227	0	0	0	0
33.33562	0.04522675	0.01161227	0	0	0	0
33.3522	0.04522675	0.01161227	0	0	0	0
33.36876	0.04522675	0.01161227	0	0	0	0
33.38533	0.0550055	0.03116978	0.5901108	1.180222	17.81573	35.63147
33.40189	0.06233957	0.04461557	0.442685	0.8115897	-4.448807	-11.12406
33.41894	0.08923116	0.1191786	1.577768	4.37472	33.77089	106.0099
33.43514	0.09900989	0.16685	0.6034458	2.941803	-29.3039	-43.09668
33.45698	0.1087887	0.2096321	0.447763	1.958962	-4.092178	-25.83432
33.47355	0.1173451	0.2756387	0.516348	3.983251	1.785594	52.70187
33.49012	0.1185674	0.2903068	0.07378072	0.8853705	-13.35517	-93.48345
33.50669	0.1197898	0.3037526	0.07378118	0.811588	1.37164E-05	-2.22676
33.52325	0.1222344	0.3233101	0.147561	1.180493	2.226679	11.13359
33.53982	0.1246791	0.3318665	0.1475619	0.5164669	2.698308E-05	-20.04036
33.55639	0.1246791	0.3330889	0	0.07378072	-4.453427	-13.36029
33.57304	0.1246791	0.3330889	0	0	0	-2.221336
33.58952	0.1246791	0.3330889	0	0	0	0
33.60612	0.1246791	0.3330889	0	0	0	0
33.62266	0.1246791	0.3330889	0	0	0	0
33.63923	0.1246791	0.3330889	0	0	0	0
33.65597	0.1246791	0.3330889	0	0	0	0
33.67291	0.1246791	0.3330889	0	0	0	0
33.68893	0.1246791	0.3330889	0	0	0	0
33.70591	0.1246791	0.3330889	0	0	0	0
33.72222	0.1246791	0.3330889	0	0	0	0
33.73906	0.1246791	0.3330889	0	0	0	0
33.75519	0.1246791	0.3330889	0	0	0	0
33.77193	0.1246791	0.3330889	0	0	0	0
33.78833	0.1246791	0.3294218	0	-0.2236596	0	-6.750061
33.80489	0.1259015	0.3184207	0.07378118	-0.6640283	2.238317	-13.35957
33.82146	0.1271238	0.3025303	0.07376374	-0.9589304	-0.0005261094	-8.899138
33.83803	0.1283462	0.2841951	0.07377983	-1.106713	0.0004854146	-4.459564
33.8546	0.1283462	0.2548588	8.99643E-07	-1.771149	-2.226909	-20.05503
33.87116	0.1283462	0.2365237	0	-1.106713	-2.71544E-05	20.05503
33.88773	0.1271238	0.2206332	-0.07378072	-0.9591512	-2.226707	4.453414
33.9043	0.1246791	0.2047427	-0.1475279	-0.9589304	-2.225439	0.006662254
33.92086	0.1222344	0.1888522	-0.1475963	-0.9593721	-0.002064205	-0.01332964
33.93743	0.1197898	0.1741841	-0.147595	-0.8855744	4.048394E-05	2.227732
33.95399	0.1185674	0.1656277	-0.07378118	-0.5164651	2.227962	11.14102
33.97082	0.1173451	0.1582936	-0.07264332	-0.4358608	0.03407393	2.413745
33.98713	0.1149004	0.1485149	-0.1499091	-0.5996363	-2.331885	-4.942754
34.0037	0.1124557	0.1424031	-0.1475614	-0.3689036	0.07141077	7.018472
34.02026	0.1112333	0.1362914	-0.07378118	-0.3689054	2.226693	-5.396615E-05
34.03683	0.1075663	0.127735	-0.2213426	-0.5164651	-4.453413	-4.453359
34.0534	0.106344	0.1216233	-0.07378072	-0.368905	4.453427	4.453372
34.07	0.1026769	0.1142892	-0.2209352	-0.4418704	-4.437045	-2.200074
34.08653	0.1002322	0.1069551	-0.1478347	-0.4435026	2.206178	-0.0492612
34.10477	0.09656522	0.09962108	-0.2010224	-0.4020452	-1.529323	1.192039
34.12135	0.09167583	0.08617529	-0.2950559	-0.8114025	-2.701108	-11.75877
34.13791	0.08800881	0.08250825	-0.2213422	-0.2213431	2.224427	17.80598
34.15451	0.08311942	0.07395184	-0.2945812	-0.5155163	-2.208323	-8.869997
34.17105	0.07823005	0.06539543	-0.295668	-0.5174191	-0.03279973	-0.05742538
34.18784	0.07334067	0.05928371	-0.2911017	-0.3638772	0.1369905	4.606327
34.2043	0.06967364	0.05317199	-0.2228822	-0.3714701	2.051781	-0.2283641
34.22077	0.06722895	0.0507273	-0.1484158	-0.148416	2.261723	6.774682
34.23732	0.06478426	0.04828261	-0.147732	-0.147732	0.02070908	0.02071585
34.25404	0.06356192	0.04706027	-0.07310739	-0.07310739	2.243136	2.243136
34.27057	0.06356192	0.04706027	0	0	2.198287	2.198287
34.28701	0.06356192	0.04706027	0	0	0	0
34.30358	0.06356191	0.04583792	-4.497179E-07	-0.07378118	-1.362428E-05	-2.235212
34.32014	0.06356191	0.04583792	0	0	1.357408E-05	2.226977
34.33671	0.06356191	0.04583792	0	0	0	0
34.35331	0.06356191	0.04583792	0	0	0	0
34.36984	0.06356191	0.04583792	0	0	0	0
34.38643	0.06356191	0.04583792	0	0	0	0
34.40298	0.06356191	0.04583792	0	0	0	0
34.41954	0.06356191	0.04583792	0	0	0	0
34.43611	0.06356191	0.04583792	0	0	0	0
34.45321	0.06356191	0.04583792	0	0	0	0
34.46924	0.06356191	0.04583792	0	0	0	0
34.4861	0.06356191	0.04583792	0	0	0	0
34.50238	0.06356191	0.04583792	0	0	0	0
34.51937	0.06356191	0.04583792	0	0	0	0
34.53551	0.06356191	0.04583792	0	0	0	0
34.55207	0.06356191	0.04583792	0	0	0	0
34.56937	0.06356191	0.04583792	0	0	0	0
34.58543	0.06356191	0.04583792	0	0	0	0
34.60181	0.06356191	0.04583792	0	0	0	0
34.61834	0.06356191	0.04583792	0	0	0	0
34.63491	0.06356191	0.04583792	0	0	0	0
34.65148	0.06356191	0.04583792	0	0	0	0
34.66805	0.06356191	0.04583792	0	0	0	0
34.68472	0.06233957	0.04461557	-0.07329133	-0.07329133	-2.204576	-2.204576
34.70123	0.06233957	0.04461557	0	0	2.208885	2.208885
34.71805	0.06233957	0.04461557	0	0	0	0
34.73431	0.06233957	0.04339323	2.29025E-07	-0.0751479	6.92155E-06	-2.271106
34.75088	0.06233957	0.04339323	0	0	-6.97624E-06	2.289051
34.76804	0.06233957	0.04339323	0	0	0	0
34.78401	0.06233957	0.04339323	0	0	0	0
34.80058	0.06233957	0.04339323	0	0	0	0
34.81715	0.06233957	0.04339323	0	0	0	0
34.83371	0.06233957	0.04339323	0	0	0	0
34.85088	0.06233957	0.04339323	0	0	0	0
34.86684	0.06233957	0.04339323	0	0	0	0
34.88342	0.06233957	0.04339323	0	0	0	0
34.90014	0.06233957	0.04339323	0	0	0	0
34.91699	0.06111722	0.04094854	-0.07252844	-0.1450564	-2.160065	-4.320117
34.93311	0.06111722	0.04094854	0	0	2.199548	4.399083
34.94968	0.06111722	0.0397262	0	-0.07378095	0	-2.257117
34.96625	0.06111722	0.0397262	0	0	0	2.226713
34.98281	0.05989488	0.03850386	-0.07378072	-0.07378072	-2.226707	-2.226707
34.99938	0.05989488	0.03850386	0	0	2.226707	2.226707
35.01595	0.05989488	0.03850386	0	0	0	0
35.03252	0.05989488	0.03850386	0	0	0	0
35.04908	0.05867254	0.03728151	-0.07378095	-0.07378118	-2.226713	-2.22672
35.06565	0.05867254	0.03728151	0	0	2.22697	2.226977
35.08221	0.05867254	0.03605916	0	-0.07378072	0	-2.226963
35.09878	0.05745019	0.03483682	-0.07378095	-0.07378095	-2.226713	-6.745769E-06
35.11535	0.05622784	0.03361447	-0.07378095	-0.07378095	0	0
35.13238	0.05622784	0.03361447	0	0	2.195871	2.195871
35.14882	0.0550055	0.03239213	-0.07434586	-0.07434563	-2.221005	-2.220999
35.16529	0.05378316	0.03116978	-0.07422508	-0.07422531	0.003670118	0.003656308
35.18162	0.05378316	0.03116978	0	0	2.263045	2.263052
35.19819	0.05378316	0.02994744	0	-0.07378083	0	-2.242718
35.21476	0.05378316	0.02994744	0	0	0	2.22671
35.23132	0.05378316	0.02994744	0	0	0	0
35.24789	0.05378316	0.02994744	0	0	0	0
35.26455	0.05378316	0.02994744	0	0	0	0
35.28121	0.05378316	0.02994744	0	0	0	0
35.29759	0.05378316	0.02994744	0	0	0	0
35.31416	0.05378316	0.02994744	0	0	0	0
35.33073	0.05378316	0.02994744	0	0	0	0
35.34729	0.05378316	0.02994744	0	0	0	0
35.36386	0.05378316	0.02994744	0	0	0	0
35.38043	0.05378316	0.02994744	0	0	0	0
35.397	0.05378316	0.02994744	0	0	0	0
35.41866	0.05256081	0.0287251	-0.05643355	-0.05643355	-1.476271	-1.476271
35.43534	0.05133847	0.0287251	-0.07324107	0	-0.4382763	1.471572
35.452	0.05133847	0.02750275	-2.237257E-07	-0.0734092	2.196756	-2.201806
35.46865	0.05133847	0.02750275	0	0	6.718023E-06	2.204328
35.48493	0.05011613	0.02750275	-0.07507724	1.144052E-07	-2.279746	3.473952E-06
35.5015	0.05011612	0.0262804	-2.24859E-07	-0.07378095	2.285564	-2.246111
35.51806	0.05011612	0.0262804	0	0	6.786257E-06	2.226713
35.53463	0.04889378	0.02505806	-0.07378072	-0.07378072	-2.226707	-2.226707
35.55119	0.04889378	0.02505806	0	0	2.226963	2.226963
35.56776	0.04889378	0.02505806	0	0	0	0
35.5844	0.04889378	0.02505806	0	0	0	0
35.60089	0.04889378	0.02505806	0	0	0	0
35.61746	0.04889378	0.02505806	0	0	0	0
35.63403	0.04889378	0.02505806	0	0	0	0
35.6506	0.04889378	0.02505806	0	0	0	0
35.66726	0.04889378	0.02505806	0	0	0	0
35.68375	0.04889378	0.02505806	0	0	0	0
35.70029	0.04889378	0.02505806	0	0	0	0
35.71686	0.04889378	0.02505806	0	0	0	0
35.73343	0.04889378	0.02505806	0	0	0	0
35.75	0.04889378	0.02505806	0	0	0	0
35.76666	0.04889378	0.02505806	0	0	0	0
35.78323	0.04889378	0.02505806	0	0	0	0
35.79969	0.04889378	0.02505806	0	0	0	0
35.81647	0.04889378	0.02505806	0	0	0	0
35.83283	0.04889378	0.02505806	0	0	0	0
35.84975	0.04889378	0.02505806	0	0	0	0
35.86633	0.04889378	0.02505806	0	0	0	0
35.88289	0.04889378	0.02505806	0	0	0	0
35.89946	0.04889378	0.02505806	0	0	0	0
35.91603	0.04889378	0.02505806	0	0	0	0
35.93259	0.04889378	0.02505806	0	0	0	0
35.94916	0.04889378	0.02505806	0	0	0	0
35.96573	0.04889378	0.02505806	0	0	0	0
35.98232	0.04889378	0.02505806	0	0	0	0
35.99886	0.04889378	0.02505806	0	0	0	0
36.01559	0.04889378	0.02505806	0	0	0	0
36.03269	0.04889378	0.02505806	0	0	0	0
36.04856	0.04889378	0.02505806	0	0	0	0
36.06593	0.04889378	0.02505806	0	0	0	0
36.08169	0.04889378	0.02505806	0	0	0	0
36.09867	0.04889378	0.02505806	0	0	0	0
36.11482	0.04889378	0.02505806	0	0	0	0
36.13139	0.04889378	0.02505806	0	0	0	0
36.14819	0.04889378	0.02505806	0	0	0	0
36.16452	0.04889378	0.02505806	0	0	0	0
36.18109	0.04889378	0.02505806	0	0	0	0
36.19768	0.04889378	0.02505806	0	0	0	0
36.21423	0.04889378	0.02505806	0	0	0	0
36.2308	0.04889378	0.02505806	0	0	0	0
36.24736	0.04889378	0.02505806	0	0	0	0
36.26393	0.04889378	0.02505806	0	0	0	0
36.28057	0.04889378	0.02505806	0	0	0	0
36.29759	0.04889378	0.02505806	0	0	0	0
36.31363	0.04889378	0.02505806	0	0	0	0
36.3302	0.04889378	0.02505806	0	0	0	0
36.34677	0.04889378	0.02505806	0	0	0	0
36.36333	0.04889378	0.02505806	0	0	0	0
36.3799	0.04889378	0.02505806	0	0	0	0
36.39647	0.04889378	0.02505806	0	0	0	0
36.41304	0.04889378	0.02505806	0	0	0	0
36.4296	0.04889378	0.02505806	0	0	0	0
36.44617	0.04889378	0.02505806	0	0	0	0
36.46274	0.04889378	0.02505806	0	0	0	0
36.47931	0.04889378	0.02505806	0	0	0	0
36.49596	0.04889378	0.02505806	0	0	0	0
36.51244	0.04889378	0.02505806	0	0	0	0
36.52901	0.04889378	0.02505806	0	0	0	0
36.54557	0.04889378	0.02505806	0	0	0	0
36.56214	0.04889378	0.02505806	0	0	0	0
36.57871	0.04889378	0.02505806	0	0	0	0
36.59528	0.04889378	0.02505806	0	0	0	0
36.61196	0.04889378	0.02505806	0	0	0	0
36.62841	0.04889378	0.02505806	0	0	0	0
36.64498	0.04889378	0.02505806	0	0	0	0
36.66185	0.04889378	0.02505806	0	0	0	0
36.67826	0.04889378	0.02505806	0	0	0	0
36.70832	0.04889378	0.02505806	0	0	0	0
36.7249	0.04889378	0.02505806	0	0	0	0
36.74146	0.04889378	0.02505806	0	0	0	0
36.75803	0.04889378	0.02505806	0	0	0	0
36.77504	0.04889378	0.02505806	0	0	0	0
36.79116	0.04889378	0.02505806	0	0	0	0
36.80773	0.04889378	0.02505806	0	0	0	0
36.8243	0.04889378	0.02505806	0	0	0	0
36.84086	0.04889378	0.02505806	0	0	0	0
36.85743	0.04889378	0.02505806	0	0	0	0
36.874	0.04889378	0.02505806	0	0	0	0
36.89056	0.04889378	0.02505806	0	0	0	0
36.90713	0.04889378	0.02505806	0	0	0	0
36.9237	0.04889378	0.02505806	0	0	0	0
36.94027	0.04889378	0.02505806	0	0	0	0
36.95683	0.04889378	0.02505806	0	0	0	0
36.9741	0.04889378	0.02505806	0	0	0	0
36.98997	0.04889378	0.02505806	0	0	0	0
37.00653	0.04889378	0.02505806	0	0	0	0
37.02312	0.04889378	0.02505806	0	0	0	0
37.03967	0.04889378	0.02505806	0	0	0	0
37.05624	0.04889378	0.02505806	0	0	0	0
37.07281	0.04889378	0.02505806	0	0	0	0
37.08946	0.04889378	0.02505806	0	0	0	0
37.10637	0.04889378	0.02505806	0	0	0	0
37.1225	0.04889378	0.02505806	0	0	0	0
37.13907	0.04889378	0.02505806	0	0	0	0
37.15564	0.04889378	0.02505806	0	0	0	0
37.1722	0.04889378	0.02505806	0	0	0	0
37.18877	0.04889378	0.02505806	0	0	0	0
37.20533	0.04889378	0.02505806	0	0	0	0
37.22204	0.04889378	0.02505806	0	0	0	0
37.23847	0.04889378	0.02505806	0	0	0	0
37.25503	0.04889378	0.02505806	0	0	0	0
37.27168	0.04889378	0.02505806	0	0	0	0
37.28856	0.04889378	0.02505806	0	0	0	0
37.30473	0.04889378	0.02505806	0	0	0	0
37.32133	0.04889378	0.02505806	0	0	0	0
37.33786	0.04889378	0.02505806	0	0	0	0
37.35443	0.04889378	0.02505806	0	0	0	0
37.37315	0.04889378	0.02505806	0	0	0	0
37.38972	0.04889378	0.02505806	0	0	0	0
37.40629	0.04889378	0.02505806	0	0	0	0
37.42286	0.04889378	0.02505806	0	0	0	0
37.43955	0.04889378	0.02505806	0	0	0	0
37.45654	0.04889378	0.02505806	0	0	0	0
37.47255	0.04889378	0.02505806	0	0	0	0
37.48915	0.04889378	0.02505806	0	0	0	0
37.50568	0.04889378	0.02505806	0	0	0	0
37.52225	0.04889378	0.02505806	0	0	0	0
37.539	0.04889378	0.02505806	0	0	0	0
37.55605	0.04889378	0.02505806	0	0	0	0
37.57195	0.04889378	0.02505806	0	0	0	0
37.58851	0.04889378	0.02505806	0	0	0	0
37.60508	0.04889378	0.02505806	0	0	0	0
37.62165	0.04889378	0.02505806	0	0	0	0
37.63836	0.04889378	0.02505806	0	0	0	0
37.65483	0.04889378	0.02505806	0	0	0	0
37.67135	0.04889378	0.02505806	0	0	0	0
37.68792	0.04889378	0.02505806	0	0	0	0
37.70448	0.04889378	0.02505806	0	0	0	0
37.72176	0.04889378	0.02505806	0	0	0	0
37.73761	0.04889378	0.02505806	0	0	0	0
37.75423	0.04889378	0.02505806	0	0	0	0
37.77075	0.04889378	0.02505806	0	0	0	0
37.78732	0.04889378	0.02505806	0	0	0	0
37.80388	0.04889378	0.02505806	0	0	0	0
37.82078	0.04889378	0.02505806	0	0	0	0
37.83702	0.04889378	0.02505806	0	0	0	0
37.85358	0.04889378	0.02505806	0	0	0	0
37.87015	0.04889378	0.02505806	0	0	0	0
37.88672	0.04889378	0.02505806	0	0	0	0
37.90355	0.04889378	0.02505806	0	0	0	0
37.91985	0.04889378	0.02505806	0	0	0	0
37.93642	0.04889378	0.02505806	0	0	0	0
37.95321	0.04889378	0.02505806	0	0	0	0
37.96955	0.04889378	0.02505806	0	0	0	0
37.98611	0.04889378	0.02505806	0	0	0	0
38.00268	0.04889378	0.02505806	0	0	0	0
38.01932	0.04889378	0.02505806	0	0	0	0
38.0422	0.04889378	0.02505806	0	0	0	0
38.05877	0.04889378	0.02505806	0	0	0	0
38.07593	0.04889378	0.02505806	0	0	0	0
38.0919	0.04889378	0.02505806	0	0	0	0
38.10847	0.04889378	0.02383572	2.24859E-07	-0.07378083	6.909557E-06	-2.267167
38.12533	0.04889378	0.02383572	0	0	-6.727394E-06	2.207396
38.14161	0.04889378	0.02383572	0	0	0	0
38.1585	0.04889378	0.02261337	-4.40886E-07	-0.07233198	-1.328914E-05	-2.180223
38.17502	0.04889378	0.02261337	0	0	1.319356E-05	2.164543
38.1913	0.04889378	0.02261337	0	0	0	0
38.20787	0.04889378	0.02261337	0	0	0	0
38.22498	0.04889378	0.02261337	0	0	0	0
38.241	0.04889378	0.02261337	0	0	0	0
38.25757	0.04889378	0.02261337	0	0	0	0
38.2742	0.04889378	0.02261337	0	0	0	0
38.29104	0.04889378	0.02261337	0	0	0	0
38.30739	0.05011613	0.017724	0.0747624	-0.2990482	2.252962	-9.011806
38.32384	0.05622784	0.0006111723	0.3715562	-1.040358	9.048932	-22.60176
38.3404	0.0660066	-0.02505806	0.5902469	-1.549398	6.623738	-15.41789
38.35697	0.08067474	-0.06906246	0.8853705	-2.656111	8.906847	-33.40065
38.37354	0.1014546	-0.127735	1.254275	-3.541482	11.13355	-26.72056
38.39011	0.1197898	-0.1839629	1.106713	-3.39392	-4.453413	4.453438
38.40667	0.1332355	-0.234079	0.8115889	-3.025015	-8.906869	11.13356
38.42324	0.145459	-0.2646376	0.7378091	-1.844522	-2.226679	35.62736
38.43981	0.1564601	-0.2964185	0.6640274	-1.918301	-2.226735	-2.226651
38.45638	0.1625718	-0.3098643	0.3689045	-0.8115916	-8.906826	33.40054
38.47331	0.1674612	-0.3233101	0.2887413	-0.7940379	-2.392884	0.5239784
38.48951	0.1699059	-0.3318665	0.150896	-0.5281394	-4.160179	8.024836
38.50608	0.1723506	-0.3379782	0.1475624	-0.3689036	-0.1017353	4.859451
38.52264	0.1735729	-0.3416453	0.07378072	-0.2213422	-2.226734	4.453413
38.53952	0.1747953	-0.3428676	0.07244623	-0.07244623	-0.03990738	4.452679
38.55578	0.1747953	-0.3428676	0	0	-2.186432	2.186432
38.57235	0.1747953	-0.3428676	0	0	0	0
38.58891	0.1747953	-0.3428676	0	0	0	0
38.60548	0.1747953	-0.3428676	0	0	0	0
38.62204	0.1747953	-0.3428676	0	0	0	0
38.63861	0.1747953	-0.3428676	0	0	0	0
38.65518	0.1747953	-0.3428676	0	0	0	0
38.67175	0.1747953	-0.3428676	0	0	0	0
38.68831	0.1747953	-0.3428676	0	0	0	0
38.70488	0.1747953	-0.3428676	0	0	0	0
38.72144	0.1747953	-0.3428676	0	0	0	0
38.73801	0.1747953	-0.3428676	0	0	0	0
38.75458	0.1747953	-0.3428676	0	0	0	0
38.77144	0.1747953	-0.3428676	0	0	0	0
38.78771	0.1747953	-0.3428676	0	0	0	0
38.80428	0.1747953	-0.3367559	8.994359E-07	0.3689018	2.738782E-05	11.23306
38.82085	0.1735729	-0.3245324	-0.07378162	0.7378109	-2.226761	11.1337
38.83749	0.1711282	-0.312309	-0.1468505	0.7342569	-2.199903	-0.1070008
38.85432	0.1662388	-0.2976409	-0.2905092	0.8715258	-4.291166	4.1003
38.87073	0.1601271	-0.2780834	-0.3725927	1.192297	-2.469891	9.651987
38.88712	0.1344579	-0.205965	-1.56635	4.400696	-36.40487	97.84351
38.90368	0.1210121	-0.1741841	-0.8115884	1.918302	22.90267	-75.32641
38.92038	0.08067474	-0.09228701	-2.415304	4.903799	-48.20599	89.74087
38.93683	0.06722895	-0.06295074	-0.8176137	1.783885	48.20174	-94.12667
38.95344	0.05622784	-0.04217089	-0.6623505	1.251106	4.697208	-16.11828
38.97044	0.05133847	-0.0287251	-0.28751	0.7906534	11.15095	-13.69777
38.98671	0.04644909	-0.02016868	-0.3006621	0.5261582	-0.3953379	-7.950447
39.00323	0.04644909	-0.01650165	2.253779E-07	0.2218534	9.169013	-9.28009
39.01971	0.04522675	-0.01527931	-0.07417376	0.07417365	-2.247113	-4.473983
39.03622	0.04522675	-0.01527931	0	0	2.248665	-2.248662
39.05279	0.04522675	-0.01527931	0	0	0	0
39.06937	0.04522675	-0.01527931	0	0	0	0
39.08592	0.04522675	-0.01527931	0	0	0	0
39.10249	0.04522675	-0.01527931	0	0	0	0
39.11905	0.04522675	-0.01527931	0	0	0	0
39.13562	0.04522675	-0.01527931	0	0	0	0
39.15243	0.0440044	-0.01161227	-0.07270948	0.2181282	-2.178326	6.53497
39.16888	0.04155971	-0.004278206	-0.1485534	0.445661	-2.279788	6.839397
39.18532	0.04033737	-0.0006111722	-0.07438038	0.2231409	2.255163	-6.765522
39.20188	0.03911502	0.0006111722	-0.07379794	0.07379785	0.01765106	-4.525939
39.21853	0.03911502	0.0006111722	0	0	2.22211	-2.222107
39.23536	0.03911502	0.0006111722	0	0	0	0
39.25159	0.03911502	0.0006111722	0	0	0	0
39.26852	0.03911502	0.001833517	0	0.07220151	0	2.177542
39.28472	0.03789268	0.003055861	-0.07543072	0.07543086	-2.276504	0.09746175
39.30129	0.03789268	0.003055861	0	0	2.301677	-2.301682
39.31786	0.03789268	0.003055861	0	0	0	0
39.33846	0.03789268	0.003055861	0	0	0	0
39.35502	0.03789268	0.003055861	0	0	0	0
39.37159	0.03789268	0.003055861	0	0	0	0
39.38816	0.03789268	0.003055861	0	0	0	0
39.40472	0.03789268	0.003055861	0	0	0	0
39.42179	0.03789268	0.003055861	0	0	0	0
39.43785	0.03789268	0.003055861	0	0	0	0
39.45442	0.03789268	0.003055861	0	0	0	0
39.47109	0.03789268	0.003055861	0	0	0	0
39.48757	0.03789268	0.003055861	0	0	0	0
39.50421	0.03789268	0.003055861	0	0	0	0
39.5207	0.03789268	0.003055861	0	0	0	0
39.53725	0.03789268	0.003055861	0	0	0	0
39.55382	0.03789268	0.003055861	0	0	0	0
39.57039	0.03789268	0.003055861	0	0	0	0
39.58696	0.03789268	0.003055861	0	0	0	0
39.60369	0.03789268	0.003055861	0	0	0	0
39.62009	0.03789268	0.003055861	0	0	0	0
39.63665	0.03789268	0.003055861	0	0	0	0
39.65322	0.03789268	0.003055861	0	0	0	0
39.67015	0.03789268	0.003055861	0	0	0	0
39.68664	0.03789268	0.003055861	0	0	0	0
39.70293	0.03789268	0.003055861	0	0	0	0
39.71949	0.03789268	0.003055861	0	0	0	0
39.7364	0.03789268	0.003055861	0	0	0	0
39.75263	0.03789268	0.003055861	0	0	0	0
39.76919	0.03789268	0.003055861	0	0	0	0
39.7865	0.03789268	0.003055861	0	0	0	0
39.80232	0.03789268	0.003055861	0	0	0	0
39.819	0.03789268	0.003055861	0	0	0	0
39.83546	0.03789268	0.003055861	0	0	0	0
39.85238	0.03789268	0.003055861	0	0	0	0
39.86859	0.03789268	0.003055861	0	0	0	0
39.88518	0.03789268	0.003055861	0	0	0	0
39.90172	0.03789268	0.003055861	0	0	0	0
39.91829	0.03789268	0.003055861	0	0	0	0
39.93486	0.03789268	0.003055861	0	0	0	0
39.95192	0.03789268	0.00550055	0	0.1433051	0	4.261181
39.96806	0.03667033	0.006722894	-0.07573403	0.07573391	-2.281193	-2.035319
39.98457	0.03667033	0.009167584	0	0.1481074	2.319844	2.216905
40.00565	0.03667033	0.01038993	0	0.05798596	0	-2.397726
40.02233	0.03667033	0.01038993	0	0	0	-1.535576
40.03878	0.03667033	0.01038993	0	0	0	0
40.0554	0.03667033	0.01161227	0	0.07356059	0	2.22416
40.07191	0.03667033	0.01161227	0	0	0	-2.220319
40.08902	0.03667033	0.01283462	0	0.07147678	0	2.126329
40.10505	0.03667033	0.01283462	0	0	0	-2.157173
40.12162	0.03667033	0.01283462	0	0	0	0
40.13827	0.03667033	0.01283462	0	0	0	0
40.15475	0.03667033	0.01283462	0	0	0	0
40.17132	0.03667033	0.01283462	0	0	0	0
40.18789	0.03667033	0.01283462	0	0	0	0
40.20445	0.03667033	0.01283462	0	0	0	0
40.22102	0.03667033	0.01283462	0	0	0	0
40.23759	0.03667033	0.01283462	0	0	0	0
40.25433	0.03667033	0.01283462	0	0	0	0
40.27072	0.03667033	0.01283462	0	0	0	0
40.28745	0.03667033	0.01283462	0	0	0	0
40.30404	0.03667033	0.01283462	0	0	0	0
40.32066	0.03667033	0.01283462	0	0	0	0
40.33718	0.03667033	0.01283462	0	0	0	0
40.35355	0.03667033	0.01283462	0	0	0	0
40.37012	0.03667033	0.01283462	0	0	0	0
40.38688	0.03667033	0.01283462	0	0	0	0
40.40326	0.03667033	0.01283462	0	0	0	0
40.42041	0.03667033	0.01283462	0	0	0	0
40.43639	0.03667033	0.01283462	0	0	0	0
40.45295	0.03667033	0.01283462	0	0	0	0
40.46952	0.03667033	0.01283462	0	0	0	0
40.48609	0.03667033	0.01283462	0	0	0	0
40.50317	0.03667033	0.01283462	0	0	0	0
40.51923	0.03667033	0.01283462	0	0	0	0
40.53579	0.03667033	0.01283462	0	0	0	0
40.55236	0.03667033	0.01283462	0	0	0	0
40.56892	0.03667033	0.01283462	0	0	0	0
40.58549	0.03667033	0.01283462	0	0	0	0
40.60264	0.03667033	0.01283462	0	0	0	0
40.61863	0.03667033	0.01283462	0	0	0	0
40.63557	0.03667033	0.01283462	0	0	0	0
40.65195	0.03667033	0.01283462	0	0	0	0
40.67927	0.03667033	0.01283462	0	0	0	0
40.69642	0.03667033	0.01283462	0	0	0	0
40.7124	0.03667033	0.01283462	0	0	0	0
40.72897	0.03667033	0.01283462	0	0	0	0
40.74554	0.03667033	0.01283462	0	0	0	0
40.7621	0.03667033	0.01283462	0	0	0	0
40.77867	0.03667033	0.01283462	0	0	0	0
40.79524	0.03667033	0.01283462	0	0	0	0
40.81181	0.03667033	0.01283462	0	0	0	0
40.82872	0.03667033	0.01283462	0	0	0	0
40.84494	0.03667033	0.01283462	0	0	0	0
40.8615	0.03667033	0.01283462	0	0	0	0
40.87807	0.03667033	0.01283462	0	0	0	0
40.89511	0.03667033	0.01283462	0	0	0	0
40.91171	0.03667033	0.01283462	0	0	0	0
40.98169	0.03667033	0.01283462	0	0	0	0
40.99857	0.03667033	0.01283462	0	0	0	0
41.01483	0.03667033	0.01283462	0	0	0	0
41.0314	0.03667033	0.01283462	0	0	0	0
41.04802	0.03667033	0.01283462	0	0	0	0
41.06453	0.03667033	0.01283462	0	0	0	0
41.08144	0.03667033	0.01283462	0	0	0	0
41.09766	0.03667033	0.01283462	0	0	0	0
41.11423	0.03667033	0.01283462	0	0	0	0
41.13087	0.03667033	0.01283462	0	0	0	0
41.14737	0.03667033	0.01283462	0	0	0	0
41.16394	0.03667033	0.01283462	0	0	0	0
41.1805	0.03667033	0.01283462	0	0	0	0
41.19707	0.03667033	0.01283462	0	0	0	0
41.21364	0.03667033	0.01283462	0	0	0	0
41.23021	0.03667033	0.01283462	0	0	0	0
41.24677	0.03667033	0.01283462	0	0	0	0
41.26334	0.03667033	0.01283462	0	0	0	0
41.2799	0.03667033	0.01283462	0	0	0	0
41.29647	0.03667033	0.01283462	0	0	0	0
41.31321	0.03667033	0.01283462	0	0	0	0
41.32961	0.03667033	0.01283462	0	0	0	0
41.35012	0.03667033	0.01283462	0	0	0	0
41.36669	0.03667033	0.01283462	0	0	0	0
41.38326	0.03667033	0.01283462	0	0	0	0
41.39982	0.03667033	0.01283462	0	0	0	0
41.41639	0.03667033	0.01283462	0	0	0	0
41.43296	0.03667033	0.01283462	0	0	0	0
41.44976	0.03667033	0.01283462	0	0	0	0
41.46664	0.03667033	0.01283462	0	0	0	0
41.48266	0.03667033	0.01283462	0	0	0	0
41.49923	0.03667033	0.01283462	0	0	0	0
41.51601	0.03667033	0.01283462	0	0	0	0
41.53269	0.03667033	0.01283462	0	0	0	0
41.54892	0.03667033	0.01283462	0	0	0	0
41.56549	0.03667033	0.01283462	0	0	0	0
41.58206	0.03667033	0.01283462	0	0	0	0
41.59878	0.03667033	0.01283462	0	0	0	0
41.61519	0.03667033	0.01283462	0	0	0	0
41.63176	0.03667033	0.01283462	0	0	0	0
41.64833	0.03667033	0.01283462	0	0	0	0
41.66489	0.03178096	0.00794524	-0.2951233	-0.2951234	-8.90684	-8.906842
41.68146	0.02689158	0.003055861	-0.2951235	-0.2951235	-3.597743E-06	-1.798872E-06
41.69802	0.02444689	0.0006111723	-0.1475958	-0.1475957	4.452907	4.452909
41.71477	0.0220022	-0.003055861	-0.1460151	-0.2190228	0.04745841	-2.144562
41.73116	0.02077986	-0.00550055	-0.07457067	-0.1491414	2.156198	2.109024
41.74773	0.01833517	-0.007945239	-0.1474939	-0.1474937	-2.212032	0.04997894
41.7643	0.01833517	-0.007945239	0	0	4.450349	4.450346
41.78091	0.01833517	-0.007945239	0	0	0	0
41.79743	0.01833517	-0.007945239	0	0	0	0
41.81408	0.01833517	-0.007945239	0	0	0	0
41.83057	0.01833517	-0.007945239	0	0	0	0
41.84728	0.01833517	-0.007945239	0	0	0	0
41.8637	0.01833517	-0.007945239	0	0	0	0
41.8805	0.01833517	-0.007945239	0	0	0	0
41.89713	0.01833517	-0.007945239	0	0	0	0
41.9134	0.01833517	-0.007945239	0	0	0	0
41.92997	0.01833517	-0.007945239	0	0	0	0
41.94653	0.01833517	-0.01038993	0	-0.1475617	0	-4.453935
41.9631	0.01833517	-0.01038993	0	0	0	4.453422
41.97967	0.01833517	-0.01038993	0	0	0	0
41.99623	0.01833517	-0.01038993	0	0	0	0
42.0196	0.01833517	-0.01038993	0	0	0	0
42.03617	0.01833517	-0.01038993	0	0	0	0
42.05274	0.01833517	-0.01038993	0	0	0	0
42.06931	0.01833517	-0.01038993	0	0	0	0
42.08588	0.01833517	-0.01038993	0	0	0	0
42.10244	0.01833517	-0.01038993	0	0	0	0
42.11981	0.01833517	-0.01038993	0	0	0	0
42.13557	0.01833517	-0.009167583	-1.181421E-07	0.07752974	-3.565946E-06	2.340122
42.15236	0.01833517	-0.009167583	0	0	3.629041E-06	-2.381528
42.16942	0.01955751	-0.009167584	0.07165265	-5.459316E-08	2.116907	-1.612901E-06
42.18528	0.01955751	-0.009167584	0	0	-2.177018	1.658701E-06
42.20184	0.01955751	-0.009167584	0	0	0	0
42.21846	0.01955751	-0.009167584	0	0	0	0
42.23498	0.01955751	-0.009167584	0	0	0	0
42.25154	0.01955751	-0.009167584	0	0	0	0
42.26811	0.01955751	-0.009167584	0	0	0	0
42.28485	0.01955751	-0.009167584	0	0	0	0
42.30143	0.01955751	-0.009167584	0	0	0	0
42.31794	0.01955751	-0.009167584	0	0	0	0
42.33437	0.01955751	-0.009167584	0	0	0	0
42.35138	0.01955751	-0.009167584	0	0	0	0
42.36788	0.01955751	-0.009167584	0	0	0	0
42.38408	0.01955751	-0.00794524	0	0.07546636	0	2.308138
42.40158	0.01955751	-0.00794524	0	0	0	-2.239422
42.41725	0.01955751	-0.00794524	0	0	0	0
42.43377	0.01955751	-0.00794524	0	0	0	0
42.45034	0.01955751	-0.00794524	0	0	0	0
42.46691	0.01955751	-0.00794524	0	0	0	0
42.48347	0.01955751	-0.00794524	0	0	0	0
42.50004	0.01955751	-0.00794524	0	0	0	0
42.51703	0.01955751	-0.00794524	0	0	0	0
42.53318	0.01955751	-0.00794524	0	0	0	0
42.54977	0.01955751	-0.00794524	0	0	0	0
42.56645	0.01955751	-0.00794524	0	0	0	0
42.58287	0.01955751	-0.00794524	0	0	0	0
42.59944	0.01955751	-0.00794524	0	0	0	0
42.61601	0.01955751	-0.00794524	0	0	0	0
42.63258	0.01955751	-0.00794524	0	0	0	0
42.64914	0.01955751	-0.00794524	0	0	0	0
42.66668	0.01955751	-0.00794524	0	0	0	0
42.68325	0.01955751	-0.00794524	0	0	0	0
42.69981	0.01955751	-0.00794524	0	0	0	0
42.71638	0.01955751	-0.00794524	0	0	0	0
42.73326	0.01955751	-0.00794524	0	0	0	0
42.74951	0.01955751	-0.00794524	0	0	0	0
42.76648	0.01833517	-0.007945239	-0.07202297	5.487539E-08	-2.167917	1.651769E-06
42.78297	0.01711282	-0.007945239	-0.07415649	0	-0.06377298	-1.64028E-06
42.79922	0.01711282	-0.009167584	0	-0.07521841	2.265433	-2.297874
42.81578	0.01711282	-0.009167584	0	0	0	2.292264
42.83315	0.01589048	-0.009167584	-0.07039338	0	-2.074792	0
42.84892	0.01589048	-0.009167584	0	0	2.124232	0
42.86549	0.01589048	-0.009167584	0	0	0	0
42.88205	0.01589048	-0.009167584	0	0	0	0
42.89862	0.01589048	-0.009167584	0	0	0	0
42.91546	0.01589048	-0.009167584	0	0	0	0
42.93176	0.01589048	-0.009167584	0	0	0	0
42.94832	0.01589048	-0.009167584	0	0	0	0
42.9651	0.01589048	-0.009167584	0	0	0	0
42.98154	0.01589048	-0.009167584	0	0	0	0
42.99828	0.01589048	-0.009167584	0	0	0	0
43.01458	0.01589048	-0.009167584	0	0	0	0
43.03115	0.01589048	-0.009167584	0	0	0	0
43.04772	0.01344579	-0.009167583	-0.1475617	5.621474E-08	-4.45342	1.696564E-06
43.06453	0.01222344	-0.009167584	-0.07272587	-5.541095E-08	2.242285	-3.344611E-06
43.08085	0.008556412	-0.009167585	-0.2246531	-5.705553E-08	-4.585702	-4.963944E-08
43.09742	-0.007334067	-0.00794524	-0.9591512	0.07378089	-22.33174	2.243242
43.11398	-0.02444689	-0.00794524	-1.03317	0	-2.234152	-2.226968
43.13055	-0.03667034	-0.00794524	-0.7378087	0	8.915051	0
43.14717	-0.0440044	-0.00794524	-0.4411613	0	8.937401	0
43.16368	-0.04522675	-0.006722894	-0.07403643	0.07403661	11.07985	2.234429
43.18025	-0.04644909	-0.006722895	-0.07378072	-2.810737E-08	0.007730735	-2.238296
43.19682	-0.04644909	-0.006722895	0	0	2.226707	8.482821E-07
43.21338	-0.04644909	-0.006722895	0	0	0	0
43.22995	-0.04644909	-0.006722895	0	0	0	0
43.24652	-0.05011612	-0.00550055	-0.2213426	0.07378086	-6.680134	2.226711
43.26308	-0.05622785	-0.00550055	-0.3689045	0	-4.453427	-2.226711
43.27965	-0.06845129	-0.001833517	-0.7379785	0.2213936	-11.13996	6.682441
43.29622	-0.07823005	-0.0006111723	-0.5902472	0.07378086	4.459055	-4.455474
43.31292	-0.08311942	0.0006111722	-0.2927635	0.07319102	8.942041	-0.01772974
43.33483	-0.08311942	0.0006111722	0	0	7.581369	-1.895346
43.3514	-0.08434176	0.0006111722	-0.07376374	0	-1.916614	0
43.36797	-0.08434176	0.0006111722	0	0	2.225938	0
43.38454	-0.08434176	0.0006111722	0	0	0	0
43.40167	-0.08434176	0.0006111722	0	0	0	0
43.41768	-0.09167583	0.001833517	-0.458194	0.07636564	-13.82514	2.304189
43.43423	-0.113678	0.00550055	-1.32928	0.2215466	-26.75454	4.459088
43.45086	-0.145459	0.006722894	-1.910823	0.07349319	-17.52477	-4.461584
43.46746	-0.1919081	0.006722895	-2.79916	2.806214E-08	-26.73621	-2.211916
43.48406	-0.2640264	0.00550055	-4.344069	-0.07362828	-46.53969	-2.218021
43.50073	-0.2921403	0.0006111722	-1.686476	-0.2933	79.87526	-6.602343
43.51706	-0.3055861	-0.0006111722	-0.8233418	-0.07484939	26.15482	6.619526
43.53375	-0.3129202	-0.004278206	-0.4393496	-0.2196734	11.62773	-4.385439
43.55019	-0.3165872	-0.00550055	-0.2230369	-0.07434575	6.52833	4.385998
43.56676	-0.3214766	-0.00794524	-0.2951229	-0.1475618	-2.183856	-2.218091
43.58333	-0.330033	-0.01405696	-0.5164669	-0.3689043	-6.680174	-6.680131
43.5999	-0.3385894	-0.02383572	-0.5164633	-0.5902468	0.0001079323	-6.68013
43.61646	-0.3459235	-0.02994744	-0.4426861	-0.3689043	2.226599	6.68013
43.63303	-0.3483682	-0.03239213	-0.1475954	-0.1475958	8.90688	6.679873
43.64959	-0.3508129	-0.03483682	-0.1475614	-0.1475617	0.001025925	0.001029523
43.66616	-0.3508129	-0.03605916	0	-0.07378072	4.453413	2.226713
43.68273	-0.3508129	-0.03605916	0	0	0	2.226707
43.6993	-0.3508129	-0.03605916	0	0	0	0
43.71586	-0.3508129	-0.03605916	0	0	0	0
43.73246	-0.3508129	-0.03605916	0	0	0	0
43.749	-0.3508129	-0.03605916	0	0	0	0
43.76572	-0.3508129	-0.03605916	0	0	0	0
43.78223	-0.3508129	-0.03605916	0	0	0	0
43.7987	-0.3508129	-0.03605916	0	0	0	0
43.81527	-0.3495905	-0.03605916	0.07377893	-2.24859E-07	2.23308	-6.805846E-06
43.83206	-0.3471458	-0.03605916	0.1455855	0	2.152504	6.740472E-06
43.8484	-0.3398118	-0.03605916	0.4487811	0	9.150461	0
43.86496	-0.326366	-0.03605916	0.8117767	2.249107E-07	11.03143	6.835034E-06
43.88174	-0.298252	-0.03361447	1.675358	0.1456832	25.89893	4.369055
43.8981	-0.2664711	-0.02994744	1.943359	0.2242339	8.088292	2.370664
43.91467	-0.2310231	-0.02628041	2.139647	0.2213425	5.962413	-0.0878268
43.93163	-0.1931304	-0.02016868	2.233214	0.3601959	2.79014	4.140551
43.9478	-0.1552377	-0.01283462	2.343875	0.4536532	3.339771	2.820545
43.96437	-0.1259015	-0.01038993	1.77074	0.1475616	-17.50891	-9.350899
43.98982	-0.09900991	-0.00550055	1.056416	0.1920757	-16.99853	1.059286
