Time	Pos X	Pos Y	Vel X	Vel Y	Acc X	Acc Y
0.01656632	-0.1478603	-0.387321	0.001851059	0.004848861	-2.317817E-05	-6.071535E-05
0.03313106	-0.1478603	-0.387321	0	0	2.317817E-05	6.071536E-05
0.04969896	-0.1478603	-0.387321	0	0	0	0
0.06670543	-0.1478603	-0.387321	0	0	0	0
0.08283278	-0.1478603	-0.387321	0	0	0	0
0.09972043	-0.1478603	-0.387321	0	0	0	0
0.1162331	-0.1478603	-0.387321	0	0	0	0
0.1332435	-0.1478603	-0.387321	0	0	0	0
0.1491	-0.1478603	-0.387321	0	0	0	0
0.1656861	-0.1478603	-0.387321	0	0	0	0
0.1826918	-0.1478603	-0.387321	0	0	0	0
0.1988006	-0.1477316	-0.3872084	0.007990431	0.006987696	0.2412972	0.2110163
0.2153669	-0.1477316	-0.3872084	0	0	-0.2445418	-0.2138537
0.2319328	-0.1477316	-0.3872084	0	0	0	0
0.2484995	-0.1471651	-0.3871634	0.03419223	0.002718181	1.031981	0.0820394
0.265067	-0.1471651	-0.3871634	0	0	-1.031931	-0.08203545
0.2816306	-0.1471651	-0.3871634	0	0	0	0
0.2982005	-0.1362299	-0.3958322	0.6599472	-0.5231649	19.91785	-15.78963
0.3147676	-0.1362299	-0.3958322	0	0	-19.91572	15.78794
0.3313335	-0.1362299	-0.3958322	0	0	0	0
0.3479006	-0.1011536	-0.4255473	2.117226	-1.793623	63.90077	-54.13399
0.3644662	-0.1011536	-0.4255473	0	0	-63.90152	54.13462
0.3810337	-0.1011536	-0.4255473	0	0	0	0
0.3975988	-0.07700533	-0.4409787	1.457775	-0.9315587	43.99815	-28.11604
0.4141675	-0.07700533	-0.4409787	0	0	-43.99657	28.11503
0.4307358	-0.07700533	-0.4409787	0	0	0	0
0.4472994	-0.06645463	-0.4362509	0.636982	0.285438	19.22566	8.61521
0.4638669	-0.06645463	-0.4362509	0	0	-19.22613	-8.615418
0.4806444	-0.06645463	-0.4362509	0	0	0	0
0.4978376	-0.05205819	-0.4234942	0.8373339	0.7419571	24.6487	21.84108
0.5140324	-0.05205819	-0.4234942	0	0	-25.07885	-22.22224
0.5301937	-0.05205819	-0.4234942	0	0	0	0
0.5467676	-0.04462824	-0.4169387	0.4482932	0.3955363	13.69454	12.08292
0.5632664	-0.04462824	-0.4169387	0	0	-13.5548	-11.95962
0.5801892	-0.04462824	-0.4169387	0	0	0	0
0.5964006	-0.039243	-0.4121951	0.3321876	0.2926065	10.02551	8.830946
0.6129693	-0.039243	-0.4121951	0	0	-10.13382	-8.926344
0.6295356	-0.039243	-0.4121951	0	0	0	0
0.6460976	-0.039243	-0.4121951	0	0	0	0
0.6626698	-0.039243	-0.4121951	0	0	0	0
0.6792342	-0.039243	-0.4121951	0	0	0	0
0.6958163	-0.039243	-0.4121951	0	0	0	0
0.7124758	-0.039243	-0.4121951	0	0	0	0
0.7289344	-0.039243	-0.4121951	0	0	0	0
0.7454999	-0.03926928	-0.412218	-0.001586096	-0.001381678	-0.04802847	-0.0418385
0.7620666	-0.03926928	-0.412218	0	0	0.04787174	0.04170197
0.778685	-0.03926928	-0.412218	0	0	0	0
0.7952687	-0.03932182	-0.4122638	-0.003168714	-0.002758529	-0.09543713	-0.08308294
0.8122874	-0.03932182	-0.4122638	0	0	0.09430019	0.08209317
0.8283331	-0.03932182	-0.4122638	0	0	0	0
0.8449006	-0.03942693	-0.4123553	-0.006343832	-0.005524236	-0.1945176	-0.1693867
0.8618171	-0.03942693	-0.4123553	0	0	0.1894587	0.1649814
0.8780352	-0.03942693	-0.4123553	0	0	0	0
0.8946007	-0.03953202	-0.4124926	-0.006344383	-0.008288267	-0.1935229	-0.2528173
0.9111694	-0.03953202	-0.4124926	0	0	0.1914756	0.2501426
0.9277365	-0.03953202	-0.4124926	0	0	0	0
0.9443008	-0.03950575	-0.4125155	0.001586204	-0.001381772	0.04787605	-0.04170572
0.9608656	-0.03950575	-0.4125155	0	0	-0.04787949	0.04170872
0.9774339	-0.03950575	-0.4125155	0	0	0	0
0.9939978	-0.0395583	-0.4125155	-0.003172488	0	-0.09575226	0
1.010582	-0.0395583	-0.4125155	0	0	0.09570543	0
1.027136	-0.0395583	-0.4125155	0	0	0	0
1.043701	-0.0395583	-0.4125155	0	0	0	0
1.060267	-0.0395583	-0.4125155	0	0	0	0
1.076853	-0.0395583	-0.4125155	0	0	0	0
1.093466	-0.03961085	-0.4125612	-0.003163212	-0.002755533	-0.09528149	-0.08300148
1.110579	-0.03961085	-0.4125612	0	0	0.09379154	0.08170357
1.126536	-0.03961085	-0.4125612	0	0	0	0
1.144079	-0.03963712	-0.4125841	-0.001497651	-0.001304631	-0.04470573	-0.038944
1.159668	-0.03963712	-0.4125841	0	0	0.04520211	0.0393764
1.176235	-0.03963712	-0.4125841	0	0	0	0
1.192799	-0.03968967	-0.4126299	-0.003172409	-0.002763544	-0.09575313	-0.08341233
1.209366	-0.03968967	-0.4126299	0	0	0.09575106	0.08341053
1.225934	-0.03968967	-0.4126299	0	0	0	0
1.242642	-0.03968967	-0.4126757	0	-0.002739726	0	-0.08233379
1.259233	-0.03968967	-0.4126757	0	0	0	0.08227602
1.27608	-0.03968967	-0.4126757	0	0	0	0
1.292199	-0.03974222	-0.4127215	-0.003260062	-0.002839901	-0.09889158	-0.0861463
1.308767	-0.03974222	-0.4127215	0	0	0.09973479	0.08688084
1.325334	-0.03974222	-0.4127215	0	0	0	0
1.341899	-0.03979477	-0.4127672	-0.003172271	-0.002763425	-0.0957483	-0.08340813
1.358467	-0.03979477	-0.4127672	0	0	0.09574141	0.08340213
1.375239	-0.03979477	-0.4127672	0	0	0	0
1.391599	-0.03989987	-0.4128588	-0.006424293	-0.005596322	-0.193903	-0.1689125
1.408665	-0.03989987	-0.4128588	0	0	0.1921949	0.1674246
1.424734	-0.03989987	-0.4128588	0	0	0	0
1.4413	-0.04137112	-0.4141411	-0.08881001	-0.07740811	-2.721324	-2.371946
1.45859	-0.04137112	-0.4141411	0	0	2.623185	2.286406
1.474433	-0.04137112	-0.4141411	0	0	0	0
1.491621	-0.04302606	-0.4155851	-0.09628431	-0.08401071	-2.914917	-2.543345
1.508192	-0.04302606	-0.4155851	0	0	2.852128	2.48856
1.525508	-0.04302606	-0.4155851	0	0	0	0
1.541324	-0.04302606	-0.4155851	0	0	0	0
1.558249	-0.04302606	-0.4155851	0	0	0	0
1.574458	-0.04302606	-0.4155851	0	0	0	0
1.591025	-0.04302606	-0.4155851	0	0	0	0
1.607592	-0.04302606	-0.4155851	0	0	0	0
1.624499	-0.04302606	-0.4155851	0	0	0	0
1.642138	-0.04302606	-0.4155851	0	0	0	0
1.659083	-0.04302606	-0.4155851	0	0	0	0
1.675274	-0.04302606	-0.4155851	0	0	0	0
1.691842	-0.04302606	-0.4155851	0	0	0	0
1.708573	-0.04302606	-0.4155851	0	0	0	0
1.725983	-0.04302606	-0.4155851	0	0	0	0
1.74154	-0.04302606	-0.4155851	0	0	0	0
1.758108	-0.04302606	-0.4155851	0	0	0	0
1.774676	-0.04302606	-0.4155851	0	0	0	0
1.79124	-0.04302606	-0.4155851	0	0	0	0
1.807809	-0.04302606	-0.4155851	0	0	0	0
1.824419	-0.04302606	-0.4155851	0	0	0	0
1.840942	-0.04302606	-0.4155851	0	0	0	0
1.857786	-0.04302606	-0.4155851	0	0	0	0
1.874119	-0.04302606	-0.4155851	0	0	0	0
1.891369	-0.04302606	-0.4155851	0	0	0	0
1.90735	-0.04302606	-0.4155851	0	0	0	0
1.923923	-0.04302606	-0.4155851	0	0	0	0
1.940342	-0.04302606	-0.4155851	0	0	0	0
1.956908	-0.04302606	-0.4155851	0	0	0	0
1.974214	-0.04302606	-0.4155851	0	0	0	0
1.990044	-0.04302606	-0.4155851	0	0	0	0
2.006734	-0.04302606	-0.4155851	0	0	0	0
2.023636	-0.04302606	-0.4155851	0	0	0	0
2.039745	-0.04299979	-0.4156081	0.001630557	-0.001424512	0.04939407	-0.04315239
2.056445	-0.04299979	-0.4156081	0	0	-0.04969809	0.04341799
2.072961	-0.04299979	-0.4156081	0	0	0	0
2.090091	-0.04299979	-0.4156081	0	0	0	0
2.106015	-0.04299979	-0.4156081	0	0	0	0
2.122968	-0.04299979	-0.4156081	0	0	0	0
2.146174	-0.04299979	-0.4156081	0	0	0	0
2.162882	-0.04299979	-0.4156081	0	0	0	0
2.179406	-0.04299979	-0.4156081	0	0	0	0
2.195878	-0.04299979	-0.4156081	0	0	0	0
2.212444	-0.04299979	-0.4156081	0	0	0	0
2.229318	-0.04299979	-0.4156081	0	0	0	0
2.245578	-0.04299979	-0.4156081	0	0	0	0
2.262146	-0.04299979	-0.4156081	0	0	0	0
2.278709	-0.04299979	-0.4156081	0	0	0	0
2.295277	-0.04299979	-0.4156081	0	0	0	0
2.312125	-0.04299979	-0.4156081	0	0	0	0
2.32841	-0.04299979	-0.4156081	0	0	0	0
2.344978	-0.04299979	-0.4156081	0	0	0	0
2.361544	-0.04299979	-0.4156081	0	0	0	0
2.378194	-0.04299979	-0.4156081	0	0	0	0
2.394776	-0.04299979	-0.4156081	0	0	0	0
2.411246	-0.04299979	-0.4156081	0	0	0	0
2.427809	-0.04299979	-0.4156081	0	0	0	0
2.444376	-0.04299979	-0.4156081	0	0	0	0
2.460945	-0.04299979	-0.4156081	0	0	0	0
2.478233	-0.04299979	-0.4156081	0	0	0	0
2.494812	-0.04299979	-0.4156081	0	0	0	0
2.511369	-0.04299979	-0.4156081	0	0	0	0
2.527936	-0.04299979	-0.4156081	0	0	0	0
2.544502	-0.04299979	-0.4156081	0	0	0	0
2.561785	-0.04299979	-0.4156081	0	0	0	0
2.577636	-0.04302606	-0.415631	-0.001657168	-0.00144588	-0.0500138	-0.04363706
2.594203	-0.04302606	-0.415631	0	0	0.05111951	0.04460179
2.610769	-0.04302606	-0.415631	0	0	0	0
2.627335	-0.04302606	-0.4156769	0	-0.002768623	0	-0.08356382
2.643902	-0.04302606	-0.4156769	0	0	0	0.08355901
2.660907	-0.04302606	-0.4156769	0	0	0	0
2.677034	-0.04326246	-0.4158833	-0.01465896	-0.01279919	-0.4424434	-0.3863109
2.694029	-0.04326246	-0.4158833	0	0	0.4425803	0.3864304
2.710171	-0.04326246	-0.4158833	0	0	0	0
2.726733	-0.04391911	-0.4164109	-0.03964663	-0.0318564	-1.212274	-0.974072
2.743301	-0.04391911	-0.4164109	0	0	1.196675	0.9615386
2.759869	-0.04391911	-0.4164109	0	0	0	0
2.776436	-0.07085487	-0.439976	-1.625939	-1.422473	-49.0713	-42.93063
2.793195	-0.07085487	-0.439976	0	0	48.7901	42.68462
2.809569	-0.07085487	-0.439976	0	0	0	0
2.826399	-0.1315775	-0.4950217	-3.607903	-3.270604	-108.6569	-98.49866
2.842702	-0.1315775	-0.4950217	0	0	108.8914	98.7113
2.859269	-0.1315775	-0.4950217	0	0	0	0
2.875836	-0.1910871	-0.5495389	-3.592109	-3.290756	-108.4109	-99.31594
2.892637	-0.1910871	-0.5495389	0	0	107.6525	98.62121
2.909251	-0.1910871	-0.5495389	0	0	0	0
2.925536	-0.2591195	-0.5637869	-4.17775	-0.8749487	-126.9875	-26.59507
2.942102	-0.2591195	-0.5637869	0	0	127.1746	26.63426
2.959047	-0.2591195	-0.5637869	0	0	0	0
2.975236	-0.3045861	-0.5370798	-2.808431	1.649677	-84.75922	49.7877
2.992142	-0.3045861	-0.5370798	0	0	84.85935	-49.84652
3.008582	-0.3045861	-0.5370798	0	0	0	0
3.024936	-0.3157307	-0.5254371	-0.6814734	0.7119307	-20.78043	21.70918
3.041502	-0.3157307	-0.5254371	0	0	20.70097	-21.62616
3.058069	-0.3157307	-0.5254371	0	0	0	0
3.074636	-0.3156356	-0.5255364	0.005741916	-0.005993755	0.1732926	-0.1808932
3.091359	-0.3156356	-0.5255364	0	0	-0.1724809	0.1800459
3.107769	-0.3156356	-0.5255364	0	0	0	0
3.124335	-0.3156118	-0.5255116	0.001435603	0.001500367	0.04353427	0.04549822
3.140902	-0.3156118	-0.5255116	0	0	-0.04332876	-0.04528344
3.157588	-0.3156118	-0.5255116	0	0	0	0
3.174035	-0.3155167	-0.5254619	0.005784118	0.003018904	0.1745751	0.09111594
3.190601	-0.3155167	-0.5254619	0	0	-0.175208	-0.09144627
3.207169	-0.3155167	-0.5254619	0	0	0	0
3.224101	-0.3153977	-0.5255364	0.007023065	-0.004400417	0.2096455	-0.1313568
3.240302	-0.3153977	-0.5255364	0	0	-0.2119672	0.1328115
3.25687	-0.3153977	-0.5255364	0	0	0	0
3.273435	-0.3153264	-0.5255612	0.004307057	-0.001496855	0.1299928	-0.04517713
3.290003	-0.3153264	-0.5255612	0	0	-0.1299928	0.04517713
3.306888	-0.3153264	-0.5255612	0	0	0	0
3.323425	-0.3153026	-0.5256357	0.001438107	-0.004501745	0.04302877	-0.1346941
3.340058	-0.3153026	-0.5256357	0	0	-0.04335475	0.1357145
3.356573	-0.3153026	-0.5256357	0	0	0	0
3.372834	-0.3153026	-0.5256357	0	0	0	0
3.389501	-0.3153026	-0.5256357	0	0	0	0
3.405972	-0.3153026	-0.5256357	0	0	0	0
3.422577	-0.3153026	-0.5256357	0	0	0	0
3.439106	-0.3153026	-0.5256357	0	0	0	0
3.456631	-0.3153026	-0.5256357	0	0	0	0
3.472241	-0.3152788	-0.5256605	0.001523459	-0.001592186	0.04597709	-0.04805124
3.489157	-0.3152788	-0.5256605	0	0	-0.04683748	0.04895045
3.505368	-0.3152788	-0.5256605	0	0	0	0
3.521935	-0.315255	-0.5256853	0.001435438	-0.001496597	0.04379237	-0.04565821
3.538502	-0.315255	-0.5256853	0	0	-0.04332097	0.04516673
3.55507	-0.315255	-0.5256853	0	0	0	0
3.572074	-0.315255	-0.5256853	0	0	0	0
3.588202	-0.315255	-0.5256853	0	0	0	0
3.60477	-0.315255	-0.5256853	0	0	0	0
3.621335	-0.3152312	-0.5257102	0.001437505	-0.001500475	0.04338681	-0.04528736
3.637902	-0.3152312	-0.5257102	0	0	-0.04338618	0.04528671
3.655104	-0.3152312	-0.5257102	0	0	0	0
3.671283	-0.3151837	-0.5257598	0.002939963	-0.003068909	0.0880755	-0.09193846
3.687603	-0.3151837	-0.5257598	0	0	-0.0904623	0.09442995
3.704656	-0.3151837	-0.5257598	0	0	0	0
3.721159	-0.3151599	-0.5257846	0.001441078	-0.001502478	0.0429458	-0.04477557
3.737303	-0.3151599	-0.5257846	0	0	-0.04414072	0.0460214
3.753871	-0.3151599	-0.5257846	0	0	0	0
3.770571	-0.3151361	-0.5257598	0.001424085	0.00148476	0.04280616	0.04462998
3.78789	-0.3151361	-0.5257598	0	0	-0.04186175	-0.04364533
3.80357	-0.3151361	-0.5257598	0	0	0	0
3.820342	-0.3151361	-0.5257598	0	0	0	0
3.836704	-0.3151361	-0.5257598	0	0	0	0
3.85327	-0.3151361	-0.5257598	0	0	0	0
3.870113	-0.3149934	-0.5256109	0.008475836	0.008843889	0.2537019	0.2647186
3.886403	-0.3149934	-0.5256109	0	0	-0.2558141	-0.2669225
3.903702	-0.3149934	-0.5256109	0	0	0	0
3.919537	-0.3145175	-0.5251145	0.03005112	0.0313441	0.9069706	0.9459942
3.936103	-0.3145175	-0.5251145	0	0	-0.9274726	-0.9673783
3.953113	-0.3145175	-0.5251145	0	0	0	0
3.969649	-0.3085089	-0.5187786	0.3633628	0.3831625	10.83186	11.42209
3.985803	-0.3085089	-0.5187786	0	0	-11.11531	-11.72099
4.00313	-0.3085089	-0.5187786	0	0	0	0
4.018937	-0.2790745	-0.4889249	1.862205	1.88873	56.20267	57.00322
4.035504	-0.2790745	-0.4889249	0	0	-57.52264	-58.34198
4.052081	-0.2790745	-0.4889249	0	0	0	0
4.068636	-0.2358187	-0.4470801	2.612735	2.527504	78.85704	76.28461
4.085293	-0.2358187	-0.4470801	0	0	-78.66684	-76.10062
4.101771	-0.2358187	-0.4470801	0	0	0	0
4.118335	-0.1935465	-0.4081279	2.55207	2.351633	77.23837	71.17216
4.134904	-0.1935465	-0.4081279	0	0	-77.02495	-70.9755
4.15147	-0.1935465	-0.4081279	0	0	0	0
4.168089	-0.1573977	-0.3761257	2.175181	1.925673	65.5471	58.02842
4.184604	-0.1573977	-0.3761257	0	0	-65.64898	-58.11861
4.201378	-0.1573977	-0.3761257	0	0	0	0
4.217734	-0.1328963	-0.3550024	1.497967	1.291433	45.21395	38.98003
4.234303	-0.1328963	-0.3550024	0	0	-45.49552	-39.22277
4.25087	-0.1328963	-0.3550024	0	0	0	0
4.26744	-0.1062562	-0.3324457	1.60772	1.361291	48.5183	41.08149
4.284003	-0.1062562	-0.3324457	0	0	-48.5225	-41.08504
4.300571	-0.1062562	-0.3324457	0	0	0	0
4.317232	-0.08233973	-0.3125911	1.435461	1.191664	43.19921	35.86231
4.333701	-0.08233973	-0.3125911	0	0	-43.32792	-35.96915
4.35027	-0.08233973	-0.3125911	0	0	0	0
4.366874	-0.06690001	-0.2999337	0.9298553	0.7622911	28.03042	22.9792
4.383403	-0.06690001	-0.2999337	0	0	-28.0639	-23.00665
4.39997	-0.06690001	-0.2999337	0	0	0	0
4.416535	-0.05344905	-0.2889998	0.8119956	0.6600497	24.50819	19.92206
4.433103	-0.05344905	-0.2889998	0	0	-24.50678	-19.92091
4.449769	-0.05344905	-0.2889998	0	0	0	0
4.466365	-0.0534228	-0.289021	0.001581085	-0.001280311	0.04753392	-0.03849141
4.482802	-0.0534228	-0.289021	0	0	-0.04786258	0.03875755
4.499369	-0.0534228	-0.289021	0	0	0	0
4.516279	-0.0534228	-0.289021	0	0	0	0
4.5325	-0.0534228	-0.289021	0	0	0	0
4.549071	-0.0534228	-0.289021	0	0	0	0
4.565634	-0.0534228	-0.289021	0	0	0	0
4.582271	-0.0534228	-0.289021	0	0	0	0
4.598805	-0.0534228	-0.289021	0	0	0	0
4.615335	-0.05339656	-0.2890423	0.001587516	-0.001285519	0.0480129	-0.03887928
4.631903	-0.05339656	-0.2890423	0	0	-0.04796518	0.03884063
4.648469	-0.05339656	-0.2890423	0	0	0	0
4.665039	-0.05339656	-0.2890423	0	0	0	0
4.681604	-0.05339656	-0.2890423	0	0	0	0
4.698735	-0.05339656	-0.2890423	0	0	0	0
4.716015	-0.0534228	-0.2890635	-0.001518564	-0.001229684	-0.04413087	-0.03573573
4.732585	-0.0534228	-0.2890635	0	0	0.04486132	0.03632722
4.749153	-0.0534228	-0.2890635	0	0	0	0
4.765719	-0.0534228	-0.2890635	0	0	0	0
4.782285	-0.0534228	-0.2890635	0	0	0	0
4.799494	-0.0534228	-0.2890635	0	0	0	0
4.815514	-0.0534228	-0.2891485	0	-0.005305691	0	-0.1596711
4.831985	-0.0534228	-0.2891485	0	0	0	0.1632986
4.849303	-0.0534228	-0.2891485	0	0	0	0
4.865116	-0.05344905	-0.2892123	-0.001659467	-0.004031346	-0.05008858	-0.1216803
4.881685	-0.05344905	-0.2892123	0	0	0.05124582	0.1244916
4.898252	-0.05344905	-0.2892123	0	0	0	0
4.914818	-0.05355401	-0.2892973	-0.006336131	-0.005132772	-0.1912358	-0.1549163
4.931386	-0.05355401	-0.2892973	0	0	0.1912331	0.1549141
4.947952	-0.05355401	-0.2892973	0	0	0	0
4.964518	-0.05465604	-0.2902327	-0.06652634	-0.05646769	-2.007913	-1.704321
4.981555	-0.05465604	-0.2902327	0	0	1.979763	1.680426
4.997649	-0.05465604	-0.2902327	0	0	0	0
5.014548	-0.05486593	-0.2904028	-0.01242099	-0.01006659	-0.3764808	-0.3051189
5.030993	-0.05486593	-0.2904028	0	0	0.3725129	0.3019031
5.047646	-0.05486593	-0.2904028	0	0	0	0
5.065037	-0.05489217	-0.2903816	-0.001508476	0.001223575	-0.04430987	0.03594121
5.081606	-0.05489217	-0.2903816	0	0	0.04441875	-0.03602952
5.098886	-0.05489217	-0.2903816	0	0	0	0
5.11487	-0.05489217	-0.2903816	0	0	0	0
5.131516	-0.05489217	-0.2903816	0	0	0	0
5.147874	-0.05489217	-0.2903816	0	0	0	0
5.164439	-0.05489217	-0.2903816	0	0	0	0
5.181159	-0.05489217	-0.2903816	0	0	0	0
5.197626	-0.05489217	-0.2903816	0	0	0	0
5.214139	-0.05489217	-0.2903816	0	0	0	0
5.230707	-0.05489217	-0.2903816	0	0	0	0
5.247274	-0.05489217	-0.2903816	0	0	0	0
5.263841	-0.05489217	-0.2903816	0	0	0	0
5.280407	-0.05489217	-0.2903816	0	0	0	0
5.296973	-0.05489217	-0.2903816	0	0	0	0
5.31354	-0.05486593	-0.2904028	0.001583411	-0.001284358	0.04778951	-0.03876366
5.330119	-0.05486593	-0.2904028	0	0	-0.04777095	0.0387486
5.346767	-0.05486593	-0.2904028	0	0	0	0
5.36324	-0.05489217	-0.2904241	-0.001592532	-0.001291756	-0.04808141	-0.03900043
5.379808	-0.05489217	-0.2904241	0	0	0.04819937	0.03909611
5.396375	-0.05489217	-0.2904241	0	0	0	0
5.413138	-0.0549184	-0.2905304	-0.001565167	-0.006343337	-0.04695975	-0.1903193
5.429508	-0.0549184	-0.2905304	0	0	0.04723886	0.1914506
5.446398	-0.0549184	-0.2905304	0	0	0	0
5.46264	-0.05507582	-0.2908708	-0.00969183	-0.02095199	-0.2925168	-0.6323686
5.479208	-0.05507582	-0.2908708	0	0	0.2953907	0.6385813
5.49659	-0.05507582	-0.2908708	0	0	0	0
5.51234	-0.05512829	-0.2909558	-0.003331488	-0.005402286	-0.1005532	-0.1630554
5.528907	-0.05512829	-0.2909558	0	0	0.1030858	0.1671621
5.545473	-0.05512829	-0.2909558	0	0	0	0
5.563001	-0.05528571	-0.2910835	-0.00898055	-0.007282032	-0.2634067	-0.2135878
5.579572	-0.05528571	-0.2910835	0	0	0.2633662	0.2135549
5.596536	-0.05528571	-0.2910835	0	0	0	0
5.612704	-0.0557317	-0.2914878	-0.02758441	-0.02500406	-0.8325472	-0.7546673
5.629272	-0.0557317	-0.2914878	0	0	0.8426369	0.7638132
5.645836	-0.0557317	-0.2914878	0	0	0	0
5.662406	-0.05591534	-0.2916367	-0.01108251	-0.008989208	-0.3344708	-0.2712948
5.678973	-0.05591534	-0.2916367	0	0	0.3344515	0.2712792
5.695539	-0.05591534	-0.2916367	0	0	0	0
5.712104	-0.05607274	-0.2917644	-0.009501835	-0.007707254	-0.2867948	-0.2326288
5.728672	-0.05607274	-0.2917644	0	0	0.2867783	0.2326154
5.745239	-0.05607274	-0.2917644	0	0	0	0
5.761805	-0.05617767	-0.2918495	-0.006334332	-0.005139968	-0.1911788	-0.1551313
5.778372	-0.05617767	-0.2918495	0	0	0.1911788	0.1551313
5.794938	-0.05617767	-0.2918495	0	0	0	0
5.811699	-0.0562039	-0.2919134	-0.001565123	-0.003808569	-0.04696246	-0.1142784
5.828072	-0.0562039	-0.2919134	0	0	0.04723617	0.1149445
5.844906	-0.0562039	-0.2919134	0	0	0	0
5.861487	-0.05623014	-0.2919346	-0.001582136	-0.001283323	-0.04734831	-0.03840579
5.877772	-0.05623014	-0.2919346	0	0	0.0481383	0.03904657
5.894339	-0.05623014	-0.2919346	0	0	0	0
5.910906	-0.05625637	-0.2919559	-0.001583502	-0.00128623	-0.04779157	-0.03881963
5.927474	-0.05625637	-0.2919559	0	0	0.04778882	0.03881739
5.944072	-0.05625637	-0.2919559	0	0	0	0
5.960726	-0.0562826	-0.2919772	-0.00157516	-0.001277665	-0.04737073	-0.03842397
5.977264	-0.0562826	-0.2919772	0	0	0.0474558	0.03849297
5.993738	-0.0562826	-0.2919772	0	0	0	0
6.010303	-0.0562826	-0.2920198	0	-0.002569159	0	-0.07776229
6.026871	-0.0562826	-0.2920198	0	0	0	0.07753959
6.043438	-0.0562826	-0.2920198	0	0	0	0
6.060003	-0.05633507	-0.2920624	-0.003167145	-0.002570958	-0.09559149	-0.07759724
6.076571	-0.05633507	-0.2920624	0	0	0.09558874	0.077595
6.093139	-0.05633507	-0.2920624	0	0	0	0
6.109861	-0.05657115	-0.2922965	-0.01411855	-0.01400315	-0.4241151	-0.4206485
6.126273	-0.05657115	-0.2922965	0	0	0.426111	0.4226281
6.142838	-0.05657115	-0.2922965	0	0	0	0
6.159638	-0.05743676	-0.2929992	-0.05152432	-0.04182455	-1.544229	-1.253518
6.176718	-0.05743676	-0.2929992	0	0	1.520821	1.234517
6.193217	-0.05743676	-0.2929992	0	0	0	0
6.209229	-0.05746298	-0.2930205	-0.001637928	-0.001328956	-0.05038038	-0.04087681
6.225674	-0.05746298	-0.2930205	0	0	0.05046476	0.04094527
6.242241	-0.05746298	-0.2930205	0	0	0	0
6.258803	-0.05746298	-0.2930631	0	-0.002573127	0	-0.07766943
6.275373	-0.05746298	-0.2930631	0	0	0	0.0776616
6.292242	-0.05746298	-0.2930631	0	0	0	0
6.308505	-0.05746298	-0.2930631	0	0	0	0
6.325072	-0.05746298	-0.2930631	0	0	0	0
6.341768	-0.05746298	-0.2930631	0	0	0	0
6.358205	-0.05746298	-0.2931057	0	-0.002590871	0	-0.07819489
6.374795	-0.05746298	-0.2931057	0	0	0	0.07844552
6.391339	-0.05746298	-0.2931057	0	0	0	0
6.407905	-0.05746298	-0.2931057	0	0	0	0
6.424473	-0.05746298	-0.2931057	0	0	0	0
6.441039	-0.05746298	-0.2931057	0	0	0	0
6.457908	-0.05743676	-0.2931269	0.001554682	-0.001261413	0.0464995	-0.037728
6.47441	-0.05743676	-0.2931269	0	0	-0.04658787	0.0377997
6.490919	-0.05743676	-0.2931269	0	0	0	0
6.507305	-0.05741053	-0.2931908	0.001600693	-0.003899316	0.04865984	-0.1185362
6.524252	-0.05741053	-0.2931908	0	0	-0.04802084	0.1169796
6.540606	-0.05741053	-0.2931908	0	0	0	0
6.557112	-0.05735807	-0.2932335	0.003178264	-0.002581973	0.09672055	-0.07857429
6.573572	-0.05735807	-0.2932335	0	0	-0.09641137	0.07832311
6.590138	-0.05735807	-0.2932335	0	0	0	0
6.606706	-0.05733184	-0.2932547	0.001583186	-0.001284358	0.04778135	-0.03876254
6.623275	-0.05733184	-0.2932547	0	0	-0.04777791	0.03875976
6.639842	-0.05733184	-0.2932547	0	0	0	0
6.656407	-0.05735807	-0.293276	-0.001583414	-0.001286341	-0.04779029	-0.03882409
6.673347	-0.05735807	-0.293276	0	0	0.04725977	0.03839311
6.68954	-0.05735807	-0.293276	0	0	0	0
6.706107	-0.05730561	-0.2933187	0.003166464	-0.002572387	0.09665458	-0.07852069
6.722673	-0.05730561	-0.2933187	0	0	-0.09556819	0.07763813
6.739242	-0.05730561	-0.2933187	0	0	0	0
6.755988	-0.05725315	-0.2934038	0.003132652	-0.005086278	0.09403212	-0.1526737
6.772375	-0.05725315	-0.2934038	0	0	-0.09454772	0.1535108
6.788942	-0.05725315	-0.2934038	0	0	0	0
6.805897	-0.05722692	-0.2934251	0.001546769	-0.001256749	0.04614107	-0.03748961
6.822077	-0.05722692	-0.2934251	0	0	-0.04668023	0.03792768
6.838645	-0.05722692	-0.2934251	0	0	0	0
6.855595	-0.05722692	-0.2934251	0	0	0	0
6.871777	-0.05722692	-0.2934251	0	0	0	0
6.889025	-0.05722692	-0.2934251	0	0	0	0
6.904912	-0.05722692	-0.2934678	0	-0.002682645	0	-0.08096122
6.921591	-0.05722692	-0.2934678	0	0	0	0.08237545
6.938849	-0.05722692	-0.2934678	0	0	0	0
6.954607	-0.05722692	-0.2934678	0	0	0	0
6.971241	-0.05722692	-0.2934678	0	0	0	0
6.988402	-0.05722692	-0.2934678	0	0	0	0
7.012527	-0.05720069	-0.2934891	0.001087283	-0.0008832918	0.026336	-0.02139496
7.029098	-0.05720069	-0.2934891	0	0	-0.02671741	0.02170481
7.045662	-0.05722692	-0.2935103	-0.001583551	-0.001284653	-0.04779029	-0.0387698
7.062604	-0.05722692	-0.2935103	0	0	0.04726116	0.03834054
7.078797	-0.05722692	-0.2935103	0	0	0	0
7.095361	-0.05720069	-0.2935317	0.001583597	-0.00128649	0.04834475	-0.03927453
7.11208	-0.05720069	-0.2935317	0	0	-0.04758077	0.03865389
7.128496	-0.05720069	-0.2935317	0	0	0	0
7.145759	-0.05720069	-0.2935743	0	-0.002468718	0	-0.07330035
7.161847	-0.05720069	-0.2935743	0	0	0	0.07402243
7.178196	-0.05720069	-0.2935743	0	0	0	0
7.194761	-0.05722692	-0.293553	-0.00158346	0.001286378	-0.04810947	0.03908339
7.21133	-0.05722692	-0.293553	0	0	0.0477896	-0.03882354
7.227896	-0.05722692	-0.293553	0	0	0	0
7.244462	-0.05722692	-0.293553	0	0	0	0
7.261029	-0.05722692	-0.293553	0	0	0	0
7.277597	-0.05722692	-0.293553	0	0	0	0
7.294163	-0.05722692	-0.293553	0	0	0	0
7.31073	-0.05722692	-0.293553	0	0	0	0
7.327768	-0.05722692	-0.293553	0	0	0	0
7.344123	-0.05722692	-0.293553	0	0	0	0
7.36043	-0.05722692	-0.293553	0	0	0	0
7.376996	-0.05722692	-0.293553	0	0	0	0
7.393563	-0.05722692	-0.293553	0	0	0	0
7.410129	-0.05722692	-0.293553	0	0	0	0
7.426696	-0.05722692	-0.293553	0	0	0	0
7.443262	-0.05722692	-0.293553	0	0	0	0
7.459829	-0.05722692	-0.293553	0	0	0	0
7.476397	-0.05722692	-0.293553	0	0	0	0
7.492963	-0.05722692	-0.293553	0	0	0	0
7.50953	-0.05722692	-0.293553	0	0	0	0
7.553088	-0.05722692	-0.293553	0	0	0	0
7.569658	-0.05722692	-0.293553	0	0	0	0
7.586223	-0.05722692	-0.293553	0	0	0	0
7.602791	-0.05722692	-0.293553	0	0	0	0
7.619356	-0.05725315	-0.2934891	-0.001583281	0.003857447	-0.04778625	0.1164247
7.636055	-0.05725315	-0.2934891	0	0	0.04759855	-0.1159674
7.653262	-0.05725315	-0.2934891	0	0	0	0
7.669057	-0.05817114	-0.2926159	-0.05811992	0.05528469	-1.761083	1.675173
7.68583	-0.05817114	-0.2926159	0	0	1.784572	-1.697517
7.702187	-0.05817114	-0.2926159	0	0	0	0
7.719165	-0.07831319	-0.2701615	-1.186344	1.322535	-35.58831	39.67382
7.735713	-0.07831319	-0.2701615	0	0	35.38634	-39.44867
7.7525	-0.07831319	-0.2701615	0	0	0	0
7.768456	-0.1369272	-0.2120414	-3.673607	3.642651	-112.1953	111.2498
7.785023	-0.1369272	-0.2120414	0	0	112.9536	-112.0018
7.801608	-0.1369272	-0.2120414	0	0	0	0
7.8186	-0.1751601	-0.1748685	-2.250036	2.187658	-67.0113	65.15353
7.834723	-0.1751601	-0.1748685	0	0	67.94729	-66.06358
7.851289	-0.1751601	-0.1748685	0	0	0	0
7.868215	-0.1619635	-0.113959	0.7796934	3.598716	23.27993	107.4497
7.884423	-0.1619635	-0.113959	0	0	-23.53153	-108.611
7.90126	-0.1619635	-0.113959	0	0	0	0
7.917892	-0.1433262	-0.06655121	1.120625	2.850547	33.48323	85.1717
7.934515	-0.1433262	-0.06655121	0	0	-33.69783	-85.7176
7.950691	-0.1433262	-0.06655121	0	0	0	0
7.967463	-0.1238367	-0.03928637	1.16204	1.625636	35.26991	49.34086
7.983824	-0.1238367	-0.03928637	0	0	-35.07195	-49.06392
8.000501	-0.1238367	-0.03928637	0	0	0	0
8.016958	-0.112029	-0.02311073	0.7174684	0.9828703	21.65324	29.66308
8.033546	-0.112029	-0.02311073	0	0	-21.71135	-29.7427
8.050091	-0.112029	-0.02311073	0	0	0	0
8.066657	-0.1067766	-0.0192835	0.3170541	0.2310251	9.575602	6.977371
8.083733	-0.1067766	-0.0192835	0	0	-9.424405	-6.8672
8.100428	-0.1067766	-0.0192835	0	0	0	0
8.116358	-0.1067766	-0.0192835	0	0	0	0
8.13303	-0.1067766	-0.0192835	0	0	0	0
8.149491	-0.1067766	-0.0192835	0	0	0	0
8.166056	-0.1067505	-0.01930244	0.001570686	-0.001143156	0.04755946	-0.03461407
8.182626	-0.1067505	-0.01930244	0	0	-0.04740341	0.0345005
8.199192	-0.1067505	-0.01930244	0	0	0	0
8.215997	-0.1067245	-0.01935924	0.001548224	-0.003380422	0.04639432	-0.1012983
8.232326	-0.1067245	-0.01935924	0	0	-0.04672683	0.1020243
8.248892	-0.1067245	-0.01935924	0	0	0	0
8.265455	-0.1067245	-0.01932137	0	0.002286443	0	0.06901491
8.282024	-0.1067245	-0.01932137	0	0	0	-0.06900895
8.298592	-0.1067245	-0.01932137	0	0	0	0
8.31516	-0.1067505	-0.01934031	-0.001570325	-0.001142892	-0.04739113	-0.03449157
8.332212	-0.1067505	-0.01934031	0	0	0.04670689	0.03399358
8.34862	-0.1067505	-0.01934031	0	0	0	0
8.365108	-0.1067766	-0.01939712	-0.001578045	-0.003445535	-0.04797207	-0.1047431
8.38725	-0.1067766	-0.01939712	0	0	0.04085075	0.08919432
8.403914	-0.1067766	-0.01939712	0	0	0	0
8.420384	-0.1068026	-0.01945392	-0.00157969	-0.003449126	-0.04767515	-0.1040948
8.436953	-0.1068026	-0.01945392	0	0	0.04781414	0.1043983
8.453691	-0.1068026	-0.01945392	0	0	0	0
8.470187	-0.1067766	-0.01962435	0.001577224	-0.01033179	0.0474573	-0.3108746
8.486701	-0.1067766	-0.01962435	0	0	-0.04778088	0.3129942
8.50322	-0.1067766	-0.01962435	0	0	0	0
8.519784	-0.1067245	-0.0197001	0.003141372	-0.004573072	0.09495439	-0.1382304
8.536352	-0.1067245	-0.0197001	0	0	-0.09481227	0.1380235
8.553099	-0.1067245	-0.0197001	0	0	0	0
8.569484	-0.1066725	-0.01996524	0.003175746	-0.01618169	0.09585249	-0.4884064
8.586053	-0.1066725	-0.01996524	0	0	-0.09636844	0.4910354
8.602619	-0.1066725	-0.01996524	0	0	0	0
8.619184	-0.1066985	-0.02005994	-0.001570596	-0.005716686	-0.04740477	-0.1725448
8.635847	-0.1066985	-0.02005994	0	0	0.04726736	0.1720446
8.653085	-0.1066985	-0.02005994	0	0	0	0
8.668884	-0.1067505	-0.02021146	-0.003293445	-0.009590318	-0.09968903	-0.2902886
8.685965	-0.1067505	-0.02021146	0	0	0.1001661	0.2916779
8.702206	-0.1067505	-0.02021146	0	0	0	0
8.718588	-0.1068546	-0.02032511	-0.006352602	-0.00693713	-0.194726	-0.2126435
8.735154	-0.1068546	-0.02032511	0	0	0.192804	0.2105447
8.751919	-0.1068546	-0.02032511	0	0	0	0
8.768288	-0.1068806	-0.02053347	-0.001588991	-0.01272922	-0.04795722	-0.3841798
8.784854	-0.1068806	-0.02053347	0	0	0.04824606	0.3864936
8.801694	-0.1068806	-0.02053347	0	0	0	0
8.818354	-0.1068806	-0.02083657	0	-0.01819339	0	-0.5430908
8.834886	-0.1068806	-0.02083657	0	0	0	0.548131
8.85112	-0.1068806	-0.02083657	0	0	0	0
8.867688	-0.1086754	-0.02233354	-0.1083268	-0.09035201	-3.302386	-2.754418
8.884954	-0.1086754	-0.02233354	0	0	3.20167	2.670414
8.900821	-0.1086754	-0.02233354	0	0	0	0
8.917386	-0.1094555	-0.02297802	-0.04709359	-0.03890575	-1.452089	-1.199625
8.93415	-0.1094555	-0.02297802	0	0	1.412991	1.167324
8.990335	-0.1094555	-0.02297802	0	0	0	0
9.006907	-0.1093775	-0.02307281	0.004707013	-0.005720107	0.06469519	-0.07861958
9.023546	-0.1093775	-0.02307281	0	0	-0.1417316	0.1722366
9.040541	-0.1093775	-0.02307281	0	0	0	0
9.056604	-0.1093775	-0.02314864	0	-0.004720709	0	-0.1428001
9.073666	-0.1093775	-0.02314864	0	0	0	0.1425123
9.089739	-0.1093775	-0.02314864	0	0	0	0
9.106788	-0.1093515	-0.02324344	0.001525179	-0.005560129	0.04604722	-0.1678679
9.122872	-0.1093515	-0.02324344	0	0	-0.04603132	0.1678099
9.139512	-0.1093515	-0.02324344	0	0	0	0
9.156103	-0.107479	-0.02479846	0.1128652	-0.09372654	3.396405	-2.820473
9.172573	-0.107479	-0.02479846	0	0	-3.413844	2.834955
9.189139	-0.107479	-0.02479846	0	0	0	0
9.205706	-0.09435061	-0.03612435	0.7924747	-0.6836715	23.91831	-20.63444
9.222274	-0.09435061	-0.03612435	0	0	-23.91693	20.63325
9.238841	-0.09435061	-0.03612435	0	0	0	0
9.255405	-0.07807779	-0.08990753	0.9823986	-3.24692	29.65141	-98.0007
9.271974	-0.07807779	-0.08990753	0	0	-29.65055	97.99789
9.28854	-0.07807779	-0.08990753	0	0	0	0
9.305106	-0.07226866	-0.1735833	0.3506603	-5.050968	10.58356	-152.4473
9.321673	-0.07226866	-0.1735833	0	0	-10.58325	152.4429
9.338758	-0.07226866	-0.1735833	0	0	0	0
9.354806	-0.06163237	-0.2276087	0.6627619	-3.366399	20.00334	-101.604
9.371373	-0.06163237	-0.2276087	0	0	-20.32036	103.2142
9.388242	-0.06163237	-0.2276087	0	0	0	0
9.404714	-0.05945616	-0.2312148	0.1321168	-0.2189228	3.962658	-6.566281
9.421307	-0.05945616	-0.2312148	0	0	-3.995689	6.621014
9.438128	-0.05945616	-0.2312148	0	0	0	0
9.454211	-0.06097694	-0.2325351	-0.09455441	-0.08209402	-2.87359	-2.494908
9.470782	-0.06097694	-0.2325351	0	0	2.895578	2.513999
9.48771	-0.06097694	-0.2325351	0	0	0	0
9.504176	-0.06131777	-0.2328447	-0.02069865	-0.01880231	-0.6198339	-0.5630468
9.520767	-0.06131777	-0.2328447	0	0	0.6261461	0.5687807
9.537046	-0.06131777	-0.2328447	0	0	0	0
9.553609	-0.06126534	-0.232886	0.003165801	-0.002492155	0.09639583	-0.0758839
9.570287	-0.06126534	-0.232886	0	0	-0.0952398	0.07497385
9.586742	-0.06126534	-0.232886	0	0	0	0
9.603343	-0.06129156	-0.2329067	-0.001579375	-0.001243214	-0.04777841	-0.03760903
9.620498	-0.06129156	-0.2329067	0	0	0.04678896	0.03683018
9.63644	-0.06129156	-0.2329067	0	0	0	0
9.653008	-0.06129156	-0.2329479	0	-0.002492337	0	-0.07666416
9.669574	-0.06129156	-0.2329479	0	0	0	0.07522104
9.68614	-0.06129156	-0.2329479	0	0	0	0
9.702961	-0.06134399	-0.2329892	-0.00311716	-0.002453864	-0.09336396	-0.07349718
9.719273	-0.06134399	-0.2329892	0	0	0.09408149	0.07406202
9.736227	-0.06134399	-0.2329892	0	0	0	0
9.757976	-0.06142264	-0.2330512	-0.003616257	-0.002847512	-0.09343618	-0.07357347
9.774613	-0.06142264	-0.2330512	0	0	0.09420687	0.07418033
9.791112	-0.06142264	-0.2330924	0	-0.00250271	0	-0.07552758
9.808064	-0.06142264	-0.2330924	0	0	0	0.074817
9.824247	-0.06142264	-0.2330924	0	0	0	0
9.8409	-0.06142264	-0.2331337	0	-0.002478596	0	-0.0754842
9.857538	-0.06142264	-0.2331337	0	0	0	0.07445275
9.874047	-0.06142264	-0.2331337	0	0	0	0
9.890514	-0.06139642	-0.2331544	0.001591955	-0.001254199	0.04827594	-0.03803351
9.907081	-0.06139642	-0.2331544	0	0	-0.04819231	0.03796763
9.923647	-0.06139642	-0.2331544	0	0	0	0
9.940214	-0.06137021	-0.233175	0.001582557	-0.001245719	0.04776305	-0.03759694
9.956781	-0.06137021	-0.233175	0	0	-0.04776168	0.03759586
9.973348	-0.06137021	-0.233175	0	0	0	0
9.989913	-0.06137021	-0.2332163	0	-0.002492624	0	-0.07523403
10.0072	-0.06137021	-0.2332163	0	0	0	0.0736338
10.02305	-0.06137021	-0.2332163	0	0	0	0
10.03961	-0.06137021	-0.2332163	0	0	0	0
10.05619	-0.06137021	-0.2332163	0	0	0	0
10.07321	-0.06137021	-0.2332163	0	0	0	0
10.08932	-0.06137021	-0.2332576	0	-0.002563462	0	-0.07736989
10.10588	-0.06137021	-0.2332576	0	0	0	0.07846069
10.1225	-0.06137021	-0.2332576	0	0	0	0
10.13901	-0.06137021	-0.2332576	0	0	0	0
10.15569	-0.06137021	-0.2332576	0	0	0	0
10.17227	-0.06137021	-0.2332576	0	0	0	0
10.18871	-0.06137021	-0.2332989	0	-0.002511274	0	-0.07605527
10.20528	-0.06137021	-0.2332989	0	0	0	0.07607944
10.22185	-0.06137021	-0.2332989	0	0	0	0
10.23864	-0.06134399	-0.2333195	0.001560859	-0.0012297	0.04678632	-0.03685993
10.25498	-0.06134399	-0.2333195	0	0	-0.04710681	0.03711243
10.27155	-0.06134399	-0.2333195	0	0	0	0
10.28811	-0.06131777	-0.2333815	0.001582648	-0.003738271	0.0477658	-0.1128245
10.30468	-0.06131777	-0.2333815	0	0	-0.0477658	0.1128245
10.32125	-0.06131777	-0.2333815	0	0	0	0
10.33781	-0.06126534	-0.2334228	0.00316489	-0.002492337	0.09552207	-0.0752232
10.35438	-0.06126534	-0.2334228	0	0	-0.09551932	0.07522104
10.37129	-0.06126534	-0.2334228	0	0	0	0
10.38751	-0.06097694	-0.2336912	0.01778001	-0.0165492	0.536648	-0.4994989
10.40408	-0.06097694	-0.2336912	0	0	-0.5422829	0.5047438
10.42077	-0.06097694	-0.2336912	0	0	0	0
10.4501	-0.03698313	-0.2526544	0.8181633	-0.6466253	17.7786	-14.0511
10.46667	-0.03698313	-0.2526544	0	0	-17.82626	14.08876
10.48384	-0.024837	-0.2623097	0.7072884	-0.5622449	20.9611	-16.66261
10.4998	-0.024837	-0.2623097	0	0	-21.34908	16.97103
10.51637	-0.024837	-0.2623097	0	0	0	0
10.53293	-0.01044699	-0.2738888	0.8686326	-0.6989523	26.21463	-21.09381
10.5495	-0.01044699	-0.2738888	0	0	-26.21614	21.09503
10.56607	-0.01044699	-0.2738888	0	0	0	0
10.58263	-0.01049961	-0.2739309	-0.003177075	-0.002545843	-0.09589536	-0.07684255
10.5992	-0.01049961	-0.2739309	0	0	0.09588708	0.07683591
10.61577	-0.01049961	-0.2739309	0	0	0	0
10.63234	-0.01052593	-0.273952	-0.001588235	-0.001271802	-0.04793303	-0.03838307
10.6489	-0.01052593	-0.273952	0	0	0.04793165	0.03838197
10.66547	-0.01052593	-0.273952	0	0	0	0
10.68203	-0.01052593	-0.273952	0	0	0	0
10.6995	-0.01052593	-0.273952	0	0	0	0
10.7152	-0.01052593	-0.273952	0	0	0	0
10.73173	-0.01055224	-0.2739731	-0.001591074	-0.001275878	-0.0493613	-0.03958268
10.74832	-0.01055224	-0.2739731	0	0	0.04802978	0.03851494
10.76526	-0.01055224	-0.2739731	0	0	0	0
10.78179	-0.01055224	-0.2739731	0	0	0	0
10.798	-0.01055224	-0.2739731	0	0	0	0
10.81457	-0.01055224	-0.2739731	0	0	0	0
10.83665	-0.01055224	-0.2739731	0	0	0	0
10.8535	-0.01055224	-0.2739731	0	0	0	0
10.87002	-0.01057855	-0.2739942	-0.001592968	-0.001275547	-0.04773514	-0.03822325
10.88636	-0.01057855	-0.2739942	0	0	0.04848333	0.03882236
10.90331	-0.01057855	-0.2739942	0	0	0	0
10.91949	-0.01057855	-0.2739942	0	0	0	0
10.93605	-0.01057855	-0.2739942	0	0	0	0
10.95262	-0.01057855	-0.2739942	0	0	0	0
10.96946	-0.01057855	-0.2739942	0	0	0	0
10.98621	-0.01057855	-0.2739942	0	0	0	0
11.00232	-0.01057855	-0.2739942	0	0	0	0
11.01894	-0.01060487	-0.2740152	-0.001583041	-0.001267643	-0.04835665	-0.03872229
11.03546	-0.01060487	-0.2740152	0	0	0.0477749	0.03825644
11.05202	-0.01060487	-0.2740152	0	0	0	0
11.06859	-0.01060487	-0.2740152	0	0	0	0
11.08515	-0.01060487	-0.2740152	0	0	0	0
11.10172	-0.01060487	-0.2740152	0	0	0	0
11.11828	-0.01060487	-0.2740152	0	0	0	0
11.13485	-0.01060487	-0.2740152	0	0	0	0
11.15142	-0.01060487	-0.2740152	0	0	0	0
11.16799	-0.01063118	-0.2740363	-0.001588235	-0.001273601	-0.04793303	-0.03843736
11.18455	-0.01063118	-0.2740363	0	0	0.04793441	0.03843847
11.20122	-0.01063118	-0.2740363	0	0	0	0
11.21769	-0.01063118	-0.2740363	0	0	0	0
11.23425	-0.01063118	-0.2740363	0	0	0	0
11.25082	-0.01063118	-0.2740363	0	0	0	0
11.26739	-0.01063118	-0.2740363	0	0	0	0
11.28407	-0.01063118	-0.2740363	0	0	0	0
11.30061	-0.01063118	-0.2740363	0	0	0	0
11.31709	-0.01065749	-0.2740574	-0.001597061	-0.00127887	-0.04837761	-0.03873908
11.33365	-0.01065749	-0.2740574	0	0	0.04833154	0.03870218
11.35023	-0.01065749	-0.2740574	0	0	0	0
11.36684	-0.01065749	-0.2740574	0	0	0	0
11.38335	-0.01065749	-0.2740574	0	0	0	0
11.39992	-0.01065749	-0.2740574	0	0	0	0
11.41648	-0.0106838	-0.2740785	-0.001588509	-0.001272022	-0.04794683	-0.03839412
11.43305	-0.0106838	-0.2740785	0	0	0.04794269	0.0383908
11.44962	-0.0106838	-0.2740785	0	0	0	0
11.46619	-0.0106838	-0.2740785	0	0	0	0
11.48275	-0.0106838	-0.2740785	0	0	0	0
11.49956	-0.0106838	-0.2740785	0	0	0	0
11.51588	-0.01071012	-0.2740996	-0.001611896	-0.001292575	-0.04865131	-0.03901335
11.53245	-0.01071012	-0.2740996	0	0	0.04900537	0.03929727
11.54911	-0.01071012	-0.2740996	0	0	0	0
11.56559	-0.01071012	-0.2740996	0	0	0	0
11.58215	-0.01071012	-0.2740996	0	0	0	0
11.59942	-0.01071012	-0.2740996	0	0	0	0
11.61551	-0.01073643	-0.2741207	-0.001635399	-0.00130957	-0.04902906	-0.03926073
11.63185	-0.01073643	-0.2741207	0	0	0.05041869	0.0403735
11.64842	-0.01073643	-0.2741207	0	0	0	0
11.66498	-0.01073643	-0.2741207	0	0	0	0
11.68158	-0.01073643	-0.2741207	0	0	0	0
11.69814	-0.01073643	-0.2741207	0	0	0	0
11.71469	-0.01076274	-0.2741417	-0.001590305	-0.001273415	-0.04803284	-0.03846163
11.73125	-0.01076274	-0.2741417	0	0	0.04802592	0.03845609
11.74782	-0.01076274	-0.2741417	0	0	0	0
11.76439	-0.01078906	-0.2741628	-0.001588327	-0.001273675	-0.04793855	-0.03844179
11.78109	-0.01078906	-0.2741628	0	0	0.04774478	0.0382864
11.79764	-0.01078906	-0.2741628	0	0	0	0
11.81409	-0.01081537	-0.2741839	-0.00160021	-0.001281391	-0.04849263	-0.03883117
11.83065	-0.01081537	-0.2741839	0	0	0.04847581	0.03881771
11.84722	-0.01081537	-0.2741839	0	0	0	0
11.86379	-0.01086799	-0.2742261	-0.00317647	-0.002545404	-0.09586883	-0.07682265
11.88035	-0.01086799	-0.2742261	0	0	0.09586055	0.07681601
11.89692	-0.01086799	-0.2742261	0	0	0	0
11.91381	-0.01092062	-0.2742682	-0.003115319	-0.002496401	-0.09310935	-0.07461139
11.93038	-0.01092062	-0.2742682	0	0	0.09310139	0.07460501
11.94695	-0.01092062	-0.2742682	0	0	0	0
11.96441	-0.01102587	-0.2743526	-0.006028145	-0.004830539	-0.1771572	-0.1419615
11.98008	-0.01102587	-0.2743526	0	0	0.181935	0.1457901
11.99665	-0.01102587	-0.2743526	0	0	0	0
12.01327	-0.01352549	-0.2763566	-0.1503668	-0.1205539	-4.530385	-3.632156
12.02979	-0.01352549	-0.2763566	0	0	4.537294	3.637696
12.04635	-0.01352549	-0.2763566	0	0	0	0
12.06294	-0.04746433	-0.3038073	-2.046079	-1.654924	-61.72591	-49.92559
12.07949	-0.04746433	-0.3038073	0	0	61.75079	49.94571
12.09605	-0.04746433	-0.3038073	0	0	0	0
12.11262	-0.08691208	-0.3363698	-2.380797	-1.965253	-71.85674	-59.31488
12.12918	-0.08691208	-0.3363698	0	0	71.85053	59.30976
12.14575	-0.08691208	-0.3363698	0	0	0	0
12.16232	-0.1213741	-0.3655187	-2.080254	-1.759533	-62.78399	-53.10434
12.17888	-0.1213741	-0.3655187	0	0	62.78579	53.10586
12.19545	-0.1213741	-0.3655187	0	0	0	0
12.21208	-0.1397411	-0.3813658	-1.104818	-0.953238	-33.28696	-28.72001
12.22858	-0.1397411	-0.3813658	0	0	33.34637	28.77126
12.24515	-0.1397411	-0.3813658	0	0	0	0
12.26172	-0.1395605	-0.3812088	0.01090449	0.009477002	0.3291076	0.2860247
12.27828	-0.1395605	-0.3812088	0	0	-0.3291076	-0.2860247
12.2949	-0.1395605	-0.3812088	0	0	0	0
12.31142	-0.1395347	-0.3811863	0.00156268	0.001358774	0.04716043	0.0410067
12.32822	-0.1395347	-0.3811863	0	0	-0.04690797	-0.04078719
12.34478	-0.1395347	-0.3811863	0	0	0	0
12.36111	-0.1394831	-0.3811415	0.003160399	0.00274619	0.09606676	0.08347602
12.37791	-0.1394831	-0.3811415	0	0	-0.09538653	-0.08288494
12.3946	-0.1394831	-0.3811415	0	0	0	0
12.41081	-0.1394831	-0.3811415	0	0	0	0
12.42738	-0.1394831	-0.3811415	0	0	0	0
12.45869	-0.1394831	-0.3811415	0	0	0	0
12.47527	-0.1394573	-0.3811191	0.001556479	0.001351585	0.03250456	0.02822567
12.4923	-0.1394573	-0.3811191	0	0	-0.04630033	-0.04020537
12.50839	-0.1394573	-0.3811191	0	0	0	0
12.52496	-0.1394573	-0.3811191	0	0	0	0
12.54152	-0.1394573	-0.3811191	0	0	0	0
12.55809	-0.1394573	-0.3811191	0	0	0	0
12.57466	-0.1394573	-0.3811191	0	0	0	0
12.59122	-0.1394573	-0.3811191	0	0	0	0
12.60808	-0.1394573	-0.3811191	0	0	0	0
12.62436	-0.1394573	-0.3811191	0	0	0	0
12.64092	-0.1394573	-0.3811191	0	0	0	0
12.65749	-0.1394573	-0.3811191	0	0	0	0
12.67412	-0.1394573	-0.3811191	0	0	0	0
12.69062	-0.1394573	-0.3811191	0	0	0	0
12.70719	-0.1394573	-0.3811191	0	0	0	0
12.72375	-0.1394315	-0.3808275	0.001557103	0.01759859	0.04699616	0.5311571
12.74032	-0.1394315	-0.3808275	0	0	-0.04699481	-0.5311418
12.75689	-0.1394315	-0.3808275	0	0	0	0
12.77346	-0.1402572	-0.3791691	-0.04984134	0.1001036	-1.504258	3.02122
12.79031	-0.1402572	-0.3791691	0	0	1.491295	-2.995185
12.80659	-0.1402572	-0.3791691	0	0	0	0
12.82315	-0.1490701	-0.3701451	-0.5320398	0.5447835	-16.1992	16.58721
12.8398	-0.1490701	-0.3701451	0	0	16.02241	-16.40618
12.85656	-0.1490701	-0.3701451	0	0	0	0
12.87306	-0.1841528	-0.3243423	-2.125306	2.774727	-63.88445	83.40535
12.88942	-0.1841528	-0.3243423	0	0	64.66486	-84.42423
12.90599	-0.1841528	-0.3243423	0	0	0	0
12.92266	-0.2225164	-0.2585422	-2.301717	3.947839	-69.25864	118.7904
12.93927	-0.2225164	-0.2585422	0	0	69.16338	-118.627
12.95569	-0.2225164	-0.2585422	0	0	0	0
12.97226	-0.2344748	-0.2092846	-0.7218496	2.973365	-21.88309	90.13847
12.98882	-0.2344748	-0.2092846	0	0	21.78672	-89.74151
13.00567	-0.2344748	-0.2092846	0	0	0	0
13.02196	-0.229914	-0.1632276	0.2800942	2.828528	8.453503	85.36759
13.03852	-0.229914	-0.1632276	0	0	-8.52639	-86.10365
13.05509	-0.229914	-0.1632276	0	0	0	0
13.07166	-0.2191342	-0.1218038	0.6507047	2.500488	19.63944	75.46921
13.08822	-0.2191342	-0.1218038	0	0	-19.63887	-75.46703
13.10479	-0.2191342	-0.1218038	0	0	0	0
13.12135	-0.2068662	-0.1008728	0.740629	1.26362	22.35416	38.13941
13.13792	-0.2068662	-0.1008728	0	0	-22.35544	-38.14161
13.15474	-0.2068662	-0.1008728	0	0	0	0
13.17105	-0.2102413	-0.0890152	-0.2068436	0.726684	-6.242552	21.93137
13.18762	-0.2102413	-0.0890152	0	0	6.289801	-22.09736
13.20419	-0.2102413	-0.0890152	0	0	0	0
13.22075	-0.2109208	-0.08864672	-0.04101337	0.0222417	-1.237857	0.6712945
13.23732	-0.2109208	-0.08864672	0	0	1.237786	-0.6712558
13.25398	-0.2109208	-0.08864672	0	0	0	0
13.27045	-0.210946	-0.08874368	-0.001527766	-0.005885833	-0.04611072	-0.177645
13.2871	-0.210946	-0.08874368	0	0	0.04613329	0.177732
13.30359	-0.210946	-0.08874368	0	0	0	0
13.32015	-0.2109711	-0.08880186	-0.001518423	-0.003512252	-0.0459345	-0.1062507
13.33675	-0.2109711	-0.08880186	0	0	0.0457905	0.1059177
13.35332	-0.2109711	-0.08880186	0	0	0	0
13.37038	-0.2109963	-0.08893763	-0.001475326	-0.007958373	-0.04386512	-0.2366223
13.38642	-0.2109963	-0.08893763	0	0	0.04457288	0.2404402
13.40321	-0.2109963	-0.08893763	0	0	0	0
13.41955	-0.2110214	-0.08895702	-0.001538798	-0.001186461	-0.04644636	-0.03581158
13.43612	-0.2110214	-0.08895702	0	0	0.0467505	0.03604608
13.45269	-0.2110214	-0.08895702	0	0	0	0
13.4696	-0.2110969	-0.0890152	-0.004465797	-0.003441908	-0.1334072	-0.1028205
13.48583	-0.2110969	-0.0890152	0	0	0.134778	0.103877
13.50239	-0.2110969	-0.0890152	0	0	0	0
13.51988	-0.2111724	-0.08903459	-0.004316604	-0.001109193	-0.1267726	-0.03257542
13.5362	-0.2111724	-0.08903459	0	0	0.1276953	0.03281252
13.55218	-0.2111724	-0.08903459	0	0	0	0
13.56866	-0.2121031	-0.08971353	-0.05648767	-0.04120588	-1.740213	-1.269427
13.58538	-0.2121031	-0.08971353	0	0	1.701569	1.241238
13.60179	-0.2121031	-0.08971353	0	0	0	0
13.61835	-0.2151944	-0.092062	-0.1866139	-0.1417706	-5.659058	-4.299184
13.63492	-0.2151944	-0.092062	0	0	5.632506	4.279013
13.65149	-0.2151944	-0.092062	0	0	0	0
13.66805	-0.2152196	-0.09204259	-0.001516536	0.001172032	-0.04576916	0.03537201
13.68462	-0.2152196	-0.09204259	0	0	0.04576784	-0.03537099
13.70128	-0.2152196	-0.09204259	0	0	0	0
13.71776	-0.2153703	-0.09208142	-0.009147754	-0.002357501	-0.2760957	-0.0711536
13.73432	-0.2153703	-0.09208142	0	0	0.2768846	0.07135694
13.75097	-0.2153703	-0.09208142	0	0	0	0
13.76745	-0.2154456	-0.09210084	-0.004570966	-0.001178452	-0.13796	-0.0355678
13.78402	-0.2154456	-0.09210084	0	0	0.1383063	0.03565709
13.80077	-0.2154456	-0.09210084	0	0	0	0
13.82108	-0.2221909	-0.09725154	-0.3320821	-0.2535752	-8.961174	-6.84268
13.83765	-0.2221909	-0.09725154	0	0	9.003575	6.875058
13.85446	-0.2368385	-0.1086579	-0.871287	-0.6784914	-26.10018	-20.32481
13.87078	-0.2368385	-0.1086579	0	0	26.29701	20.47809
13.88735	-0.2368385	-0.1086579	0	0	0	0
13.90391	-0.2497531	-0.1188199	-0.7796631	-0.6134861	-23.53231	-18.51665
13.92065	-0.2497531	-0.1188199	0	0	23.41437	18.42384
13.93727	-0.2497531	-0.1188199	0	0	0	0
13.95362	-0.2497037	-0.1187807	0.003022371	0.00239985	0.09167444	0.07279216
13.97018	-0.2497037	-0.1187807	0	0	-0.09182318	-0.07291026
13.98675	-0.2497037	-0.1187807	0	0	0	0
14.00332	-0.2497284	-0.1188003	-0.001491436	-0.001184244	-0.04501423	-0.0357426
14.01994	-0.2497284	-0.1188003	0	0	0.04493921	0.03568303
14.03646	-0.2497284	-0.1188003	0	0	0	0
14.05303	-0.2497531	-0.1187807	-0.001490921	0.001183835	-0.04505705	0.0357766
14.06958	-0.2497531	-0.1187807	0	0	0.04500775	-0.03573746
14.08615	-0.2497531	-0.1187807	0	0	0	0
14.10272	-0.2497531	-0.1187807	0	0	0	0
14.11929	-0.2497531	-0.1187807	0	0	0	0
14.13605	-0.2497531	-0.1187807	0	0	0	0
14.15242	-0.2497531	-0.1187807	0	0	0	0
14.16899	-0.2497531	-0.1187807	0	0	0	0
14.18568	-0.2497531	-0.1187807	0	0	0	0
14.20212	-0.2497531	-0.1187807	0	0	0	0
14.21869	-0.2497531	-0.1187807	0	0	0	0
14.23525	-0.2497531	-0.1187807	0	0	0	0
14.25203	-0.2497284	-0.1188003	0.001472783	-0.001169432	0.04417278	-0.03507447
14.26838	-0.2497284	-0.1188003	0	0	-0.04445123	0.03529556
14.285	-0.2497284	-0.1188003	0	0	0	0
14.30152	-0.2497037	-0.1188199	0.001496001	-0.001187868	0.0451533	-0.03585303
14.31808	-0.2497037	-0.1188199	0	0	-0.04521968	0.03590574
14.33465	-0.2497037	-0.1188199	0	0	0	0
14.35122	-0.2496296	-0.1188788	0.004475208	-0.003553181	0.1350776	-0.1072476
14.36783	-0.2496296	-0.1188788	0	0	-0.1348602	0.107075
14.38435	-0.2496296	-0.1188788	0	0	0	0
14.40092	-0.2496049	-0.1188984	0.00149135	-0.001184625	0.04507651	-0.03580565
14.41748	-0.2496049	-0.1188984	0	0	-0.04501423	0.03575617
14.43405	-0.2496049	-0.1188984	0	0	0	0
14.45061	-0.2496049	-0.1188984	0	0	0	0
14.46718	-0.2496049	-0.1188984	0	0	0	0
14.48375	-0.2496049	-0.1188984	0	0	0	0
14.50031	-0.2495801	-0.118918	0.001491265	-0.001184107	0.04500905	-0.03573849
14.51688	-0.2495801	-0.118918	0	0	-0.04500775	0.03573746
14.53345	-0.2495801	-0.118918	0	0	0	0
14.55001	-0.2495554	-0.1189376	0.001491522	-0.001184312	0.04501941	-0.03574672
14.5667	-0.2495554	-0.1189376	0	0	-0.04485158	0.03561345
14.58315	-0.2495554	-0.1189376	0	0	0	0
14.59971	-0.2495307	-0.1189573	0.00149225	-0.001184625	0.04520272	-0.03588426
14.61634	-0.2495307	-0.1189573	0	0	-0.04495597	0.03568837
14.63299	-0.2495307	-0.1189573	0	0	0	0
14.64941	-0.2495307	-0.1189573	0	0	0	0
14.6664	-0.2495307	-0.1189573	0	0	0	0
14.68255	-0.2495307	-0.1189573	0	0	0	0
14.69911	-0.2495307	-0.1189573	0	0	0	0
14.71568	-0.2495307	-0.1189573	0	0	0	0
14.73224	-0.2495307	-0.1189573	0	0	0	0
14.74881	-0.2495307	-0.1189573	0	0	0	0
14.76538	-0.2495307	-0.1189573	0	0	0	0
14.78194	-0.2495307	-0.1189573	0	0	0	0
14.79851	-0.2495307	-0.1189573	0	0	0	0
14.81511	-0.2495307	-0.1189573	0	0	0	0
14.83164	-0.2495307	-0.1189573	0	0	0	0
14.84821	-0.2495307	-0.1189573	0	0	0	0
14.86478	-0.2495307	-0.1189573	0	0	0	0
14.88169	-0.2495307	-0.1189573	0	0	0	0
14.8981	-0.2495307	-0.1189573	0	0	0	0
14.91448	-0.2495307	-0.1189573	0	0	0	0
14.93117	-0.2495307	-0.1189573	0	0	0	0
14.94766	-0.249506	-0.1189769	0.001498424	-0.001189792	0.04516403	-0.03586154
14.96418	-0.249506	-0.1189769	0	0	-0.04539368	0.03604389
14.98079	-0.249506	-0.1189769	0	0	0	0
14.99792	-0.2494813	-0.1189965	0.001442602	-0.001145903	0.04275155	-0.03395886
15.014	-0.2494813	-0.1189965	0	0	-0.04345153	0.03451487
15.03055	-0.2494813	-0.1189965	0	0	0	0
15.04703	-0.2492094	-0.1192123	0.0164919	-0.01309345	0.4991921	-0.3963247
15.06358	-0.2492094	-0.1192123	0	0	-0.499293	0.3964048
15.08017	-0.2492094	-0.1192123	0	0	0	0
15.09671	-0.2427731	-0.1243587	0.3890802	-0.3110993	11.74381	-9.390077
15.11328	-0.2427731	-0.1243587	0	0	-11.7499	9.394944
15.12984	-0.2427731	-0.1243587	0	0	0	0
15.14664	-0.2202371	-0.1423965	1.342119	-1.074235	40.23655	-32.20544
15.16312	-0.2202371	-0.1423965	0	0	-40.33458	32.2839
15.1797	-0.2202371	-0.1423965	0	0	0	0
15.19611	-0.1691829	-0.182676	3.111912	-2.455159	94.33309	-74.4246
15.21287	-0.1691829	-0.182676	0	0	-93.81777	74.01804
15.22924	-0.1691829	-0.182676	0	0	0	0
15.24603	-0.1102875	-0.2292358	3.50968	-2.774576	105.8614	-83.68869
15.26266	-0.1102875	-0.2292358	0	0	-105.0336	83.03424
15.27922	-0.1102875	-0.2292358	0	0	0	0
15.29551	-0.06483007	-0.265434	2.789091	-2.220982	84.89084	-67.59944
15.31208	-0.06483007	-0.265434	0	0	-84.87113	67.58375
15.32864	-0.06483007	-0.265434	0	0	0	0
15.34553	-0.04079315	-0.2847546	1.423342	-1.144068	42.54632	-34.1983
15.36178	-0.04079315	-0.2847546	0	0	-42.95902	34.53003
15.37871	-0.04079315	-0.2847546	0	0	0	0
15.39525	-0.0243636	-0.2980534	0.9931759	-0.8039209	29.66756	-24.01425
15.41148	-0.0243636	-0.2980534	0	0	-30.31174	24.53568
15.42827	-0.0243636	-0.2980534	0	0	0	0
15.44461	-0.01320976	-0.307174	0.6825193	-0.5580977	20.59788	-16.84294
15.46118	-0.01320976	-0.307174	0	0	-20.73874	16.95812
15.4778	-0.01320976	-0.307174	0	0	0	0
15.49431	-0.01113112	-0.3088704	0.1258727	-0.1027301	3.799283	-3.100759
15.51088	-0.01113112	-0.3088704	0	0	-3.805197	3.105586
15.52771	-0.01113112	-0.3088704	0	0	0	0
15.54427	-0.01115743	-0.3088919	-0.001588875	-0.001297509	-0.04757851	-0.03885362
15.56058	-0.01115743	-0.3088919	0	0	0.04834053	0.03947591
15.57715	-0.01115743	-0.3088919	0	0	0	0
15.59371	-0.01118374	-0.3088704	-0.001588327	0.001297061	-0.04793855	0.03914764
15.61028	-0.01118374	-0.3088704	0	0	0.04793717	-0.03914651
15.62692	-0.01118374	-0.3088704	0	0	0	0
15.64341	-0.01121006	-0.3088919	-0.001595952	-0.001303288	-0.04817286	-0.03933898
15.65998	-0.01121006	-0.3088919	0	0	0.04827987	0.03942637
15.67662	-0.01121006	-0.3088919	0	0	0	0
15.69311	-0.01123637	-0.3089134	-0.001595491	-0.001302912	-0.04815616	-0.03932535
15.70971	-0.01123637	-0.3089134	0	0	0.04821168	0.03937067
15.72624	-0.01123637	-0.3089134	0	0	0	0
15.74312	-0.01126268	-0.3089349	-0.001559012	-0.001273168	-0.04666162	-0.03810622
15.75938	-0.01126268	-0.3089349	0	0	0.0470538	0.03842649
15.81585	-0.01126268	-0.3089349	0	0	0	0
15.83267	-0.01134162	-0.3090423	-0.004692848	-0.006385361	-0.06402967	-0.08712248
15.84924	-0.01134162	-0.3090423	0	0	0.1405503	0.1912409
15.8658	-0.01134162	-0.3090423	0	0	0	0
15.88237	-0.01186786	-0.3094721	-0.03176785	-0.02594452	-0.9588661	-0.7830972
15.89894	-0.01186786	-0.3094721	0	0	0.9587557	0.783007
15.91551	-0.01186786	-0.3094721	0	0	0	0
15.93241	-0.03627356	-0.3295301	-1.4442	-1.18693	-43.15135	-35.46437
15.94864	-0.03627356	-0.3295301	0	0	43.5873	35.82266
15.96521	-0.03627356	-0.3295301	0	0	0	0
15.98177	-0.06923129	-0.3570561	-1.989676	-1.661755	-60.05546	-50.15765
15.99834	-0.06923129	-0.3570561	0	0	60.05027	50.15332
16.01491	-0.06923129	-0.3570561	0	0	0	0
16.03147	-0.09317677	-0.3774229	-1.445353	-1.229344	-43.62208	-37.10273
16.04804	-0.09317677	-0.3774229	0	0	43.62083	37.10166
16.06461	-0.09317677	-0.3774229	0	0	0	0
16.08117	-0.1023256	-0.385296	-0.5522862	-0.4752735	-16.66899	-14.34461
16.09812	-0.1023256	-0.385296	0	0	16.48207	14.18375
16.11431	-0.1023256	-0.385296	0	0	0	0
16.13087	-0.1038097	-0.3865782	-0.08959233	-0.07740537	-2.735234	-2.363169
16.14744	-0.1038097	-0.3865782	0	0	2.703746	2.335964
16.16401	-0.1038097	-0.3865782	0	0	0	0
16.18057	-0.1038097	-0.3865782	0	0	0	0
16.19714	-0.1038097	-0.3865782	0	0	0	0
16.2139	-0.1038097	-0.3865782	0	0	0	0
16.23105	-0.1038097	-0.3865782	0	0	0	0
16.24684	-0.1038097	-0.3865782	0	0	0	0
16.2634	-0.1038097	-0.3865782	0	0	0	0
16.27997	-0.1038357	-0.3865557	-0.001571495	0.001358305	-0.04743056	0.04099607
16.29654	-0.1038357	-0.3865557	0	0	0.04743056	-0.04099607
16.31311	-0.1038357	-0.3865557	0	0	0	0
16.32967	-0.1038357	-0.3865557	0	0	0	0
16.34624	-0.1038357	-0.3865557	0	0	0	0
16.36292	-0.1038357	-0.3865557	0	0	0	0
16.37937	-0.1038357	-0.3865557	0	0	0	0
16.39594	-0.1038357	-0.3865557	0	0	0	0
16.4125	-0.1038357	-0.3865557	0	0	0	0
16.42907	-0.1038357	-0.3865557	0	0	0	0
16.44564	-0.1038357	-0.3865557	0	0	0	0
16.4622	-0.1038357	-0.3865557	0	0	0	0
16.47881	-0.1038357	-0.3865557	0	0	0	0
16.49534	-0.1038357	-0.3865557	0	0	0	0
16.51195	-0.1038357	-0.3865557	0	0	0	0
16.52847	-0.1038357	-0.3865557	0	0	0	0
16.54539	-0.1038357	-0.3865557	0	0	0	0
16.5616	-0.1038357	-0.3865557	0	0	0	0
16.57817	-0.1038357	-0.3865557	0	0	0	0
16.59474	-0.1038357	-0.3865557	0	0	0	0
16.61131	-0.1038357	-0.3865557	0	0	0	0
16.62787	-0.1038357	-0.3865557	0	0	0	0
16.64444	-0.1038357	-0.3865557	0	0	0	0
16.66101	-0.1038357	-0.3865557	0	0	0	0
16.67757	-0.1038357	-0.3865557	0	0	0	0
16.69414	-0.1038357	-0.3865557	0	0	0	0
16.7107	-0.1038357	-0.3865557	0	0	0	0
16.72727	-0.1038357	-0.3865557	0	0	0	0
16.74409	-0.1038357	-0.3865557	0	0	0	0
16.7604	-0.1038357	-0.3865557	0	0	0	0
16.77697	-0.1038357	-0.3865557	0	0	0	0
16.79354	-0.1038357	-0.3865557	0	0	0	0
16.81063	-0.1038357	-0.3865557	0	0	0	0
16.82667	-0.1038357	-0.3865557	0	0	0	0
16.84324	-0.1038357	-0.3865557	0	0	0	0
16.85981	-0.1038357	-0.3865557	0	0	0	0
16.87637	-0.1038357	-0.3865557	0	0	0	0
16.89302	-0.1038357	-0.3865557	0	0	0	0
16.90951	-0.1038357	-0.3865557	0	0	0	0
16.9261	-0.1038357	-0.3865557	0	0	0	0
16.94264	-0.1038357	-0.3865557	0	0	0	0
16.95921	-0.1038357	-0.3865557	0	0	0	0
16.97577	-0.1038357	-0.3865557	0	0	0	0
16.99234	-0.1038357	-0.3865557	0	0	0	0
17.0091	-0.1038357	-0.3865557	0	0	0	0
17.02548	-0.1038357	-0.3865557	0	0	0	0
17.04204	-0.1038357	-0.3865557	0	0	0	0
17.05861	-0.1038357	-0.3865557	0	0	0	0
17.07518	-0.1038357	-0.3865557	0	0	0	0
17.09177	-0.1038357	-0.3865557	0	0	0	0
17.10888	-0.1038357	-0.3865557	0	0	0	0
17.12488	-0.1038357	-0.3865557	0	0	0	0
17.14163	-0.1038357	-0.3865557	0	0	0	0
17.15822	-0.1038357	-0.3865557	0	0	0	0
17.17458	-0.1038357	-0.3865557	0	0	0	0
17.1916	-0.1038357	-0.3865557	0	0	0	0
17.20771	-0.1038357	-0.3865557	0	0	0	0
17.22428	-0.1038618	-0.3865782	-0.001571495	-0.001358305	-0.04809504	-0.04157041
17.24084	-0.1038618	-0.3865782	0	0	0.04743056	0.04099607
17.25785	-0.1038618	-0.3865782	0	0	0	0
17.27579	-0.1038357	-0.3866007	0.001451035	-0.001254186	0.04152396	-0.03589077
17.29236	-0.1038357	-0.3866007	0	0	-0.04204722	0.03634305
17.30893	-0.1038357	-0.3866007	0	0	0	0
17.32549	-0.1038357	-0.3866007	0	0	0	0
17.34246	-0.1038357	-0.3866007	0	0	0	0
17.35863	-0.1038357	-0.3866007	0	0	0	0
17.37787	-0.1038357	-0.3866007	0	0	0	0
17.39444	-0.1038357	-0.3866007	0	0	0	0
17.41101	-0.1038357	-0.3866007	0	0	0	0
17.42757	-0.1038357	-0.3866007	0	0	0	0
17.44414	-0.1038357	-0.3866007	0	0	0	0
17.46091	-0.1038357	-0.3866007	0	0	0	0
17.47727	-0.1038357	-0.3866007	0	0	0	0
17.49384	-0.1038357	-0.3866007	0	0	0	0
17.5104	-0.1038357	-0.3866007	0	0	0	0
17.52697	-0.1038357	-0.3866007	0	0	0	0
17.54354	-0.1038357	-0.3866007	0	0	0	0
17.5601	-0.1038357	-0.3866007	0	0	0	0
17.57667	-0.1038357	-0.3866007	0	0	0	0
17.59324	-0.1038357	-0.3866007	0	0	0	0
17.60981	-0.1038357	-0.3866007	0	0	0	0
17.62666	-0.1038357	-0.3866007	0	0	0	0
17.64321	-0.1038357	-0.3866007	0	0	0	0
17.65951	-0.1038357	-0.3866007	0	0	0	0
17.67607	-0.1038357	-0.3866007	0	0	0	0
17.69264	-0.1038357	-0.3866007	0	0	0	0
17.70923	-0.1038357	-0.3866007	0	0	0	0
17.72577	-0.1038357	-0.3866007	0	0	0	0
17.74234	-0.1038357	-0.3866007	0	0	0	0
17.7589	-0.1038357	-0.3866007	0	0	0	0
17.77547	-0.1038357	-0.3866007	0	0	0	0
17.79204	-0.1038357	-0.3866007	0	0	0	0
17.80861	-0.1038357	-0.3866007	0	0	0	0
17.82517	-0.1038357	-0.3866007	0	0	0	0
17.84174	-0.1038357	-0.3866007	0	0	0	0
17.85844	-0.1038357	-0.3866007	0	0	0	0
17.87918	-0.1038357	-0.3866007	0	0	0	0
17.89575	-0.1038357	-0.3866007	0	0	0	0
17.91232	-0.1038357	-0.3866007	0	0	0	0
17.92888	-0.1038357	-0.3866007	0	0	0	0
17.94572	-0.1038357	-0.3866007	0	0	0	0
17.96215	-0.1038357	-0.3866007	0	0	0	0
17.97858	-0.1038357	-0.3866007	0	0	0	0
17.99517	-0.1038357	-0.3866007	0	0	0	0
18.01171	-0.1038357	-0.3866007	0	0	0	0
18.02873	-0.1038357	-0.3866007	0	0	0	0
18.04485	-0.1038357	-0.3866007	0	0	0	0
18.06142	-0.1038357	-0.3866007	0	0	0	0
18.07798	-0.1038357	-0.3866007	0	0	0	0
18.09455	-0.1038357	-0.3866007	0	0	0	0
18.11159	-0.1038357	-0.3866007	0	0	0	0
18.12768	-0.1038357	-0.3866007	0	0	0	0
18.14425	-0.1038357	-0.3866007	0	0	0	0
18.16082	-0.1038357	-0.3866007	0	0	0	0
18.17738	-0.1038357	-0.3866007	0	0	0	0
18.19395	-0.1038357	-0.3866007	0	0	0	0
18.21051	-0.1038357	-0.3866007	0	0	0	0
18.22709	-0.1038357	-0.3866007	0	0	0	0
18.24365	-0.1038357	-0.3866007	0	0	0	0
18.26022	-0.1038357	-0.3866007	0	0	0	0
18.27678	-0.1038357	-0.3866007	0	0	0	0
18.29364	-0.1038357	-0.3866007	0	0	0	0
18.30992	-0.1038357	-0.3866007	0	0	0	0
18.32649	-0.1038357	-0.3866007	0	0	0	0
18.34305	-0.1038357	-0.3866007	0	0	0	0
18.35962	-0.1038357	-0.3866007	0	0	0	0
18.37665	-0.1038357	-0.3866007	0	0	0	0
18.39276	-0.1038357	-0.3866007	0	0	0	0
18.40932	-0.1038357	-0.3866007	0	0	0	0
18.42588	-0.1038357	-0.3866007	0	0	0	0
18.4427	-0.1038357	-0.3866007	0	0	0	0
18.45902	-0.1038357	-0.3866007	0	0	0	0
18.47575	-0.1038357	-0.3866007	0	0	0	0
18.49229	-0.1038357	-0.3866007	0	0	0	0
18.50872	-0.1038357	-0.3866007	0	0	0	0
18.52566	-0.1038357	-0.3866007	0	0	0	0
18.54185	-0.1038357	-0.3866007	0	0	0	0
18.5588	-0.1038357	-0.3866007	0	0	0	0
18.5754	-0.1038357	-0.3866007	0	0	0	0
18.59155	-0.1038357	-0.3866007	0	0	0	0
18.60844	-0.1038357	-0.3866007	0	0	0	0
18.62469	-0.1038357	-0.3866007	0	0	0	0
18.64125	-0.1038357	-0.3866007	0	0	0	0
18.65782	-0.1038357	-0.3866007	0	0	0	0
18.67457	-0.1038357	-0.3866007	0	0	0	0
18.69138	-0.1038357	-0.3866007	0	0	0	0
18.70751	-0.1038618	-0.3866232	-0.001613291	-0.00139443	-0.04896543	-0.04232273
18.7244	-0.1038618	-0.3866232	0	0	0.04885795	0.04222983
18.74065	-0.1038618	-0.3866232	0	0	0	0
18.75743	-0.1038618	-0.3866232	0	0	0	0
18.77393	-0.1038618	-0.3866232	0	0	0	0
18.79045	-0.1038618	-0.3866232	0	0	0	0
18.80758	-0.1038618	-0.3866232	0	0	0	0
18.82425	-0.1038618	-0.3866232	0	0	0	0
18.84005	-0.1038618	-0.3866232	0	0	0	0
18.85662	-0.1038878	-0.3866457	-0.001571495	-0.001358305	-0.04856278	-0.0419747
18.87333	-0.1038878	-0.3866457	0	0	0.04721583	0.04081047
18.88975	-0.1038878	-0.3866457	0	0	0	0
18.90631	-0.1038878	-0.3866457	0	0	0	0
18.92288	-0.1038878	-0.3866457	0	0	0	0
18.93945	-0.1038878	-0.3866457	0	0	0	0
18.95601	-0.1038878	-0.3866457	0	0	0	0
18.97284	-0.1038878	-0.3866457	0	0	0	0
18.98915	-0.1038878	-0.3866457	0	0	0	0
19.00571	-0.1038878	-0.3866007	0	0.002716609	0	0.08262955
19.02228	-0.1038878	-0.3866007	0	0	0	-0.08199214
19.03885	-0.1038878	-0.3866007	0	0	0	0
19.05542	-0.1038878	-0.3866007	0	0	0	0
19.07198	-0.1038878	-0.3866007	0	0	0	0
19.08855	-0.1038878	-0.3866007	0	0	0	0
19.10524	-0.1038878	-0.3866007	0	0	0	0
19.12169	-0.1038878	-0.3866007	0	0	0	0
19.13825	-0.1038878	-0.3866007	0	0	0	0
19.15483	-0.1039399	-0.3865557	-0.003139376	0.002713485	-0.09470295	0.08185544
19.17138	-0.1039399	-0.3865557	0	0	0.09474656	-0.08189313
19.18795	-0.1039399	-0.3865557	0	0	0	0
19.20452	-0.1062042	-0.3843743	-0.1366729	0.1316702	-4.124796	3.973815
19.22141	-0.1062042	-0.3843743	0	0	4.084822	-3.935305
19.23765	-0.1062042	-0.3843743	0	0	0	0
19.25422	-0.1370564	-0.3560841	-1.862459	1.707794	-56.7679	52.0537
19.27148	-0.1370564	-0.3560841	0	0	55.05862	-50.48637
19.28746	-0.1370564	-0.3560841	0	0	0	0
19.30447	-0.2015672	-0.2811115	-3.794282	4.409607	-115.0281	133.6824
19.32065	-0.2015672	-0.2811115	0	0	114.3471	-132.891
19.3372	-0.2015672	-0.2811115	0	0	0	0
19.35522	-0.2381063	-0.1901875	-2.027628	5.045553	-58.63871	145.9166
19.37221	-0.2381063	-0.1901875	0	0	57.91671	-144.12
19.38836	-0.2381063	-0.1901875	0	0	0	0
19.40493	-0.2186076	-0.1339136	1.177212	3.397482	35.98612	103.8575
19.4215	-0.2186076	-0.1339136	0	0	-35.53036	-102.5421
19.43835	-0.2186076	-0.1339136	0	0	0	0
19.45462	-0.196206	-0.1136457	1.376572	1.245452	41.55221	37.5943
19.47181	-0.196206	-0.1136457	0	0	-41.14007	-37.22142
19.48776	-0.196206	-0.1136457	0	0	0	0
19.50433	-0.1960288	-0.1131563	0.01069822	0.02954537	0.3290285	0.908681
19.52138	-0.1960288	-0.1131563	0	0	-0.3182563	-0.8789312
19.53746	-0.1960288	-0.1131563	0	0	0	0
19.55403	-0.1960288	-0.1131563	0	0	0	0
19.57059	-0.1960288	-0.1131563	0	0	0	0
19.58716	-0.1960288	-0.1131563	0	0	0	0
19.60373	-0.1960288	-0.1131563	0	0	0	0
19.62056	-0.1960288	-0.1131563	0	0	0	0
19.63721	-0.1960288	-0.1131563	0	0	0	0
19.65426	-0.1962313	-0.1123734	-0.01188045	0.04592357	-0.3525259	1.362679
19.67004	-0.1962313	-0.1123734	0	0	0.3618649	-1.398779
19.68659	-0.1962313	-0.1123734	0	0	0	0
19.70353	-0.1937239	-0.09705699	0.1480442	0.904303	4.421408	27.00742
19.71969	-0.1937239	-0.09705699	0	0	-4.472103	-27.31708
19.73626	-0.1937239	-0.09705699	0	0	0	0
19.75282	-0.1848649	-0.06685903	0.5348513	1.823172	16.1437	55.02979
19.76939	-0.1848649	-0.06685903	0	0	-16.14277	-55.02662
19.78674	-0.1848649	-0.06685903	0	0	0	0
19.80252	-0.1608611	-0.0382955	1.520831	1.80973	45.90141	54.6209
19.81909	-0.1608611	-0.0382955	0	0	-47.01099	-55.94125
19.83605	-0.1608611	-0.0382955	0	0	0	0
19.85222	-0.1416502	-0.005716809	1.188024	2.014699	35.85671	60.80724
19.86894	-0.1416502	-0.005716809	0	0	-36.12917	-61.26929
19.88542	-0.1416502	-0.005716809	0	0	0	0
19.90454	-0.1317327	0.009220985	0.5188744	0.7815294	14.57485	21.95266
19.92111	-0.1317327	0.009220985	0	0	-14.54135	-21.90221
19.93767	-0.1317327	0.009220985	0	0	0	0
19.95424	-0.1317327	0.009183441	0	-0.002266129	0	-0.0683919
19.97081	-0.1317327	0.009183441	0	0	0	0.0683919
19.98738	-0.1317327	0.009183441	0	0	0	0
20.00397	-0.1317327	0.008995716	0	-0.01131286	0	-0.3411478
20.02051	-0.1317327	0.008995716	0	0	0	0.3414228
20.03716	-0.1317327	0.008995716	0	0	0	0
20.05364	-0.1317585	0.008864303	-0.001568467	-0.007972511	-0.04733914	-0.2406247
20.07021	-0.1317585	0.008864303	0	0	0.04745661	0.2412218
20.08678	-0.1317585	0.008864303	0	0	0	0
20.10334	-0.1317585	0.008488809	0	-0.02266749	0	-0.6841457
20.11991	-0.1317585	0.008488809	0	0	0	0.6841457
20.13648	-0.1317585	0.008488809	0	0	0	0
20.15304	-0.1328187	0.007568672	-0.06399953	-0.05554594	-1.931621	-1.676476
20.16985	-0.1328187	0.007568672	0	0	1.917601	1.664309
20.18656	-0.1328187	0.007568672	0	0	0	0
20.20274	-0.1343179	0.006216183	-0.09268235	-0.08360969	-2.818085	-2.542223
20.2196	-0.1343179	0.006216183	0	0	2.805395	2.530775
20.23587	-0.1343179	0.006216183	0	0	0	0
20.25244	-0.134137	0.005896767	0.01092131	-0.01928222	0.3325731	-0.5871775
20.26901	-0.134137	0.005896767	0	0	-0.3296057	0.5819385
20.28596	-0.134137	0.005896767	0	0	0	0
20.30214	-0.1340595	0.005727652	0.004791188	-0.01045085	0.1445983	-0.3154074
20.31871	-0.1340595	0.005727652	0	0	-0.1462995	0.3191181
20.33556	-0.1340595	0.005727652	0	0	0	0
20.35184	-0.1339303	0.005520944	0.007937888	-0.01269614	0.2395935	-0.3832144
20.36841	-0.1339303	0.005520944	0	0	-0.2416385	0.3864852
20.38498	-0.1339303	0.005520944	0	0	0	0
20.40154	-0.1335426	0.005163874	0.02340242	-0.02155279	0.7062865	-0.6504644
20.41811	-0.1335426	0.005163874	0	0	-0.7062865	0.6504644
20.43501	-0.1335426	0.005163874	0	0	0	0
20.45124	-0.1272042	0.0005185162	0.3904974	-0.2861934	11.78659	-8.638328
20.46781	-0.1272042	0.0005185162	0	0	-11.90516	8.725228
20.4844	-0.1272042	0.0005185162	0	0	0	0
20.5014	-0.1270488	0.0002926667	0.009139713	-0.0132866	0.27214	-0.3956159
20.51751	-0.1270488	0.0002926667	0	0	-0.275996	0.4012214
20.53409	-0.1270488	0.0002926667	0	0	0	0
20.55065	-0.1271006	0.0002173801	-0.00312734	-0.004546923	-0.09438874	-0.1372343
20.56776	-0.1271006	0.0002173801	0	0	0.09286513	0.1350191
20.58378	-0.1271006	0.0002173801	0	0	0	0
20.60035	-0.1272042	0.0001420918	-0.006253419	-0.004545455	-0.1919326	-0.139511
20.61718	-0.1272042	0.0001420918	0	0	0.1872625	0.1361165
20.63376	-0.1272042	0.0001420918	0	0	0	0
20.65005	-0.1272042	0.0001420918	0	0	0	0
20.66662	-0.1272042	0.0001420918	0	0	0	0
20.68319	-0.1272042	0.0001420918	0	0	0	0
20.69984	-0.1272042	0.0001420918	0	0	0	0
20.71632	-0.1272042	0.0001420918	0	0	0	0
20.73318	-0.1272042	0.0001420918	0	0	0	0
20.74945	-0.1272042	0.0001044471	0	-0.00231407	0	-0.06984279
20.76624	-0.1272042	0.0001044471	0	0	0	0.06999186
20.78258	-0.1272042	0.0001044471	0	0	0	0
20.79915	-0.1272042	0.0001044471	0	0	0	0
20.81571	-0.1272042	0.0001044471	0	0	0	0
20.8325	-0.1272042	0.0001044471	0	0	0	0
20.84885	-0.1271783	1.033328E-05	0.001584379	-0.005757612	0.04781939	-0.1737751
20.86542	-0.1271783	1.033328E-05	0	0	-0.04813529	0.174923
20.88223	-0.1271783	1.033328E-05	0	0	0	0
20.89855	-0.1268935	-0.0004602755	0.01746119	-0.02885109	0.5270405	-0.870828
20.91511	-0.1268935	-0.0004602755	0	0	-0.5310764	0.8774964
20.93173	-0.1268935	-0.0004602755	0	0	0	0
20.94824	-0.1209592	-0.01746625	0.3594319	-1.03004	10.84892	-31.09025
20.96518	-0.1209592	-0.01746625	0	0	-10.74623	30.79594
20.98189	-0.1209592	-0.01746625	0	0	0	0
20.99794	-0.1275408	-0.08258363	-0.4099084	-4.055626	-12.5115	-123.7886
21.01451	-0.1275408	-0.08258363	0	0	12.56417	124.3096
21.03108	-0.1275408	-0.08258363	0	0	0	0
21.04765	-0.118443	-0.1641471	0.5491411	-4.923181	16.57311	-148.5819
21.06432	-0.118443	-0.1641471	0	0	-16.51986	148.1045
21.08108	-0.118443	-0.1641471	0	0	0	0
21.09735	-0.09075005	-0.2141267	1.701721	-3.071225	51.52413	-92.98952
21.11392	-0.09075005	-0.2141267	0	0	-51.81739	93.5188
21.1312	-0.09075005	-0.2141267	0	0	0	0
21.14705	-0.05494464	-0.2508624	2.259823	-2.318536	68.20944	-69.98161
21.16361	-0.05494464	-0.2508624	0	0	-69.72271	71.53419
21.18025	-0.05494464	-0.2508624	0	0	0	0
21.19675	-0.03574792	-0.2661476	1.163808	-0.9266738	35.12581	-27.96868
21.21332	-0.03574792	-0.2661476	0	0	-35.19876	28.02676
21.2552	-0.03574792	-0.2661476	0	0	0	0
21.27176	-0.03267258	-0.2686054	0.1856281	-0.1483511	3.175909	-2.538139
21.28833	-0.03267258	-0.2686054	0	0	-5.601943	4.476989
21.3049	-0.03267258	-0.2686054	0	0	0	0
21.32205	-0.03267258	-0.2686054	0	0	0	0
21.33815	-0.03267258	-0.2686054	0	0	0	0
21.35461	-0.03267258	-0.2686054	0	0	0	0
21.3719	-0.03272516	-0.2686474	-0.003039415	-0.002431015	-0.09005531	-0.07202893
21.38847	-0.03272516	-0.2686474	0	0	0.08975098	0.07178552
21.40504	-0.03272516	-0.2686474	0	0	0	0
21.42177	-0.03729848	-0.2723507	-0.2734025	-0.2213868	-8.211128	-6.648935
21.43818	-0.03729848	-0.2723507	0	0	8.251305	6.681468
21.45474	-0.03729848	-0.2723507	0	0	0	0
21.47131	-0.04728053	-0.2803711	-0.6025175	-0.4841142	-18.18401	-14.61059
21.48788	-0.04728053	-0.2803711	0	0	18.18401	14.61059
21.50482	-0.04728053	-0.2803711	0	0	0	0
21.52101	-0.05602027	-0.2874279	-0.5400286	-0.4360415	-16.29997	-13.16127
21.53757	-0.05602027	-0.2874279	0	0	16.48888	13.3138
21.55436	-0.05602027	-0.2874279	0	0	0	0
21.57071	-0.06116047	-0.2915941	-0.3143891	-0.2548176	-9.489375	-7.691297
21.58727	-0.06116047	-0.2915941	0	0	9.550405	7.740763
21.60384	-0.06116047	-0.2915941	0	0	0	0
21.62056	-0.06118669	-0.2916154	-0.001568652	-0.001273109	-0.04713308	-0.03825294
21.63697	-0.06118669	-0.2916154	0	0	0.04734472	0.0384247
21.65354	-0.06118669	-0.2916154	0	0	0	0
21.67025	-0.06116047	-0.2916367	0.001568831	-0.001273254	0.04714116	-0.0382595
21.68668	-0.06116047	-0.2916367	0	0	-0.0473474	0.03842688
21.70331	-0.06116047	-0.2916367	0	0	0	0
21.71995	-0.06116047	-0.2916367	0	0	0	0
21.73638	-0.06116047	-0.2916367	0	0	0	0
21.75294	-0.06116047	-0.2916367	0	0	0	0
21.76951	-0.06116047	-0.2916367	0	0	0	0
21.78608	-0.06116047	-0.2916367	0	0	0	0
21.80314	-0.06116047	-0.2916367	0	0	0	0
21.81921	-0.0612129	-0.2915516	-0.003263555	0.005297365	-0.09849995	0.159884
21.83596	-0.0612129	-0.2915516	0	0	0.09943298	-0.1613985
21.85235	-0.0612129	-0.2915516	0	0	0	0
21.86891	-0.06129156	-0.2913601	-0.004747994	0.01156088	-0.1441077	0.3508875
21.88548	-0.06129156	-0.2913601	0	0	0.1432948	-0.3489081
21.90205	-0.06129156	-0.2913601	0	0	0	0
21.91861	-0.06152751	-0.2909984	-0.01424517	0.02183614	-0.4299697	0.6590918
21.93518	-0.06152751	-0.2909984	0	0	0.4299697	-0.6590918
21.95175	-0.06152751	-0.2909984	0	0	0	0
21.96852	-0.06160615	-0.290892	-0.004689988	0.006342769	-0.1406857	0.1902642
21.98497	-0.06160615	-0.290892	0	0	0.1411622	-0.1909087
22.00158	-0.06160615	-0.290892	0	0	0	0
22.01801	-0.06160615	-0.290892	0	0	0	0
22.03458	-0.06160615	-0.290892	0	0	0	0
22.05115	-0.06160615	-0.290892	0	0	0	0
22.06859	-0.06152751	-0.2909558	0.004509446	-0.003658478	0.1325995	-0.1075769
22.08428	-0.06152751	-0.2909558	0	0	-0.1361032	0.1104194
22.10085	-0.06152751	-0.2909558	0	0	0	0
22.11741	-0.06081963	-0.291658	0.04273217	-0.0423863	1.289808	-1.279368
22.13425	-0.06081963	-0.291658	0	0	-1.27913	1.268777
22.15058	-0.06081963	-0.291658	0	0	0	0
22.16711	-0.05465604	-0.2965805	0.372808	-0.2977403	11.34541	-9.060926
22.18368	-0.05465604	-0.2965805	0	0	-11.26304	8.995139
22.20104	-0.05465604	-0.2965805	0	0	0	0
22.21714	-0.05465604	-0.2966232	0	-0.002650752	0	-0.07921103
22.23338	-0.05465604	-0.2966232	0	0	0	0.08197708
22.25055	-0.05465604	-0.2966232	0	0	0	0
22.26651	-0.0546298	-0.2966445	0.001643472	-0.001336619	0.04960008	-0.04033924
22.28308	-0.0546298	-0.2966445	0	0	-0.05051607	0.0410842
22.30033	-0.0546298	-0.2966445	0	0	0	0
22.31622	-0.0546298	-0.2966445	0	0	0	0
22.33278	-0.0546298	-0.2966445	0	0	0	0
22.34935	-0.0546298	-0.2966445	0	0	0	0
22.36592	-0.05465604	-0.2966232	-0.001583864	0.00128814	-0.04780386	0.03887839
22.38249	-0.05465604	-0.2966232	0	0	0.04780111	-0.03887615
22.39905	-0.05465604	-0.2966232	0	0	0	0
22.41562	-0.05481346	-0.2964951	-0.009502091	0.007727953	-0.2867902	0.2332435
22.4327	-0.05481346	-0.2964951	0	0	0.2824168	-0.2296867
22.44881	-0.05481346	-0.2964951	0	0	0	0
22.46531	-0.05476099	-0.2965378	0.00317981	-0.002586107	0.09748765	-0.07928571
22.48627	-0.05476099	-0.2965378	0	0	-0.08488042	0.06903238
22.50284	-0.05476099	-0.2965378	0	0	0	0
22.51943	-0.05470851	-0.2965805	0.003164449	-0.002573614	0.09545381	-0.07763161
22.53642	-0.05470851	-0.2965805	0	0	-0.0942607	0.07666127
22.55255	-0.05470851	-0.2965805	0	0	0	0
22.56911	-0.05470851	-0.2966232	0	-0.002575984	0	-0.07878188
22.58568	-0.05470851	-0.2966232	0	0	0	0.07774784
22.60225	-0.05470851	-0.2966232	0	0	0	0
22.61881	-0.05468227	-0.2966445	0.001583682	-0.001287992	0.04779561	-0.03887168
22.63538	-0.05468227	-0.2966445	0	0	-0.04779561	0.03887168
22.65195	-0.05468227	-0.2966445	0	0	0	0
22.66852	-0.05470851	-0.2966658	-0.001582771	-0.001287251	-0.04775437	-0.03883814
22.68508	-0.05470851	-0.2966658	0	0	0.04777086	0.03885155
22.70165	-0.05470851	-0.2966658	0	0	0	0
22.71821	-0.05470851	-0.2966658	0	0	0	0
22.73557	-0.05470851	-0.2966658	0	0	0	0
22.75135	-0.05470851	-0.2966658	0	0	0	0
22.76791	-0.05470851	-0.2967085	0	-0.002575984	0	-0.07964133
22.78466	-0.05470851	-0.2967085	0	0	0	0.07732053
22.80105	-0.05470851	-0.2967085	0	0	0	0
22.81778	-0.05470851	-0.2967085	0	0	0	0
22.83418	-0.05470851	-0.2967085	0	0	0	0
22.85075	-0.05470851	-0.2967085	0	0	0	0
22.86733	-0.05470851	-0.2967085	0	0	0	0
22.88388	-0.05470851	-0.2967085	0	0	0	0
22.90045	-0.05470851	-0.2967085	0	0	0	0
22.91702	-0.05470851	-0.2967085	0	0	0	0
22.93359	-0.05470851	-0.2967085	0	0	0	0
22.95018	-0.05470851	-0.2967085	0	0	0	0
22.96671	-0.05468227	-0.2967299	0.001586787	-0.001290518	0.04790864	-0.03896361
22.98369	-0.05468227	-0.2967299	0	0	-0.04734696	0.03850681
22.99991	-0.05468227	-0.2967299	0	0	0	0
23.01691	-0.05470851	-0.2967512	-0.001543175	-0.001255048	-0.04645811	-0.03778391
23.03299	-0.05470851	-0.2967512	0	0	0.04664829	0.03793858
23.04955	-0.05470851	-0.2967512	0	0	0	0
23.06612	-0.05470851	-0.2967512	0	0	0	0
23.08269	-0.05470851	-0.2967512	0	0	0	0
23.09925	-0.05470851	-0.2967512	0	0	0	0
23.11587	-0.05470851	-0.2967512	0	0	0	0
23.1324	-0.05470851	-0.2967512	0	0	0	0
23.14896	-0.05470851	-0.2967512	0	0	0	0
23.16552	-0.05468227	-0.2967725	0.001584411	-0.001288586	0.04784517	-0.03891199
23.1822	-0.05468227	-0.2967725	0	0	-0.04765851	0.03876018
23.19882	-0.05468227	-0.2967725	0	0	0	0
23.21521	-0.05468227	-0.2967725	0	0	0	0
23.23178	-0.05468227	-0.2967725	0	0	0	0
23.24835	-0.05468227	-0.2967725	0	0	0	0
23.26948	-0.05468227	-0.2968152	0	-0.002020997	0	-0.05360642
23.28639	-0.05468227	-0.2968152	0	0	0	0.05313598
23.30288	-0.05465604	-0.2968366	0.001591009	-0.001293951	0.04764374	-0.03874817
23.31919	-0.05465604	-0.2968366	0	0	-0.04850536	0.03944891
23.33583	-0.05465604	-0.2968366	0	0	0	0
23.35232	-0.05465604	-0.2968366	0	0	0	0
23.36889	-0.05465604	-0.2968366	0	0	0	0
23.38545	-0.05465604	-0.2968366	0	0	0	0
23.40202	-0.05465604	-0.2968793	0	-0.002576281	0	-0.07775678
23.41859	-0.05465604	-0.2968793	0	0	0	0.07775231
23.43516	-0.05465604	-0.2968793	0	0	0	0
23.45172	-0.05465604	-0.2968793	0	0	0	0
23.46829	-0.05465604	-0.2968793	0	0	0	0
23.48486	-0.05465604	-0.2968793	0	0	0	0
23.5016	-0.0546298	-0.2969006	0.001566905	-0.001274348	0.04703747	-0.0382551
23.51829	-0.0546298	-0.2969006	0	0	-0.04687108	0.03811977
23.53493	-0.0546298	-0.2969006	0	0	0	0
23.55152	-0.0546298	-0.2969006	0	0	0	0
23.56826	-0.0546298	-0.2969006	0	0	0	0
23.58426	-0.0546298	-0.2969006	0	0	0	0
23.60082	-0.0546298	-0.2969006	0	0	0	0
23.61739	-0.0546298	-0.2969006	0	0	0	0
23.63396	-0.0546298	-0.2969006	0	0	0	0
23.65052	-0.0546298	-0.2969433	0	-0.002575984	0	-0.07774784
23.66709	-0.0546298	-0.2969433	0	0	0	0.07774337
23.6839	-0.0546298	-0.2969433	0	0	0	0
23.70022	-0.0546298	-0.2969433	0	0	0	0
23.71679	-0.0546298	-0.2969433	0	0	0	0
23.73346	-0.0546298	-0.2969433	0	0	0	0
23.74993	-0.05460356	-0.2969646	0.001592666	-0.001295299	0.04805294	-0.03908096
23.76649	-0.05460356	-0.2969646	0	0	-0.04821943	0.03921637
23.78306	-0.05460356	-0.2969646	0	0	0	0
23.79962	-0.05460356	-0.2969646	0	0	0	0
23.81619	-0.05460356	-0.2969646	0	0	0	0
23.83276	-0.05460356	-0.2969646	0	0	0	0
23.84932	-0.05460356	-0.2969646	0	0	0	0
23.86589	-0.05460356	-0.2969646	0	0	0	0
23.88255	-0.05460356	-0.2969646	0	0	0	0
23.89905	-0.05460356	-0.2970073	0	-0.002588212	0	-0.07806297
23.9156	-0.05460356	-0.2970073	0	0	0	0.07831527
23.93216	-0.05460356	-0.2970073	0	0	0	0
23.94872	-0.05460356	-0.2970073	0	0	0	0
23.96571	-0.05460356	-0.2970073	0	0	0	0
23.98186	-0.05460356	-0.2970073	0	0	0	0
23.9985	-0.05460356	-0.2970073	0	0	0	0
24.01499	-0.05460356	-0.2970073	0	0	0	0
24.03156	-0.05460356	-0.2970073	0	0	0	0
24.04812	-0.05457732	-0.2970287	0.001583864	-0.00128814	0.04780386	-0.03887839
24.06469	-0.05457732	-0.2970287	0	0	-0.04780386	0.03887839
24.08126	-0.05457732	-0.2970287	0	0	0	0
24.09782	-0.05457732	-0.2970287	0	0	0	0
24.11439	-0.05457732	-0.2970287	0	0	0	0
24.13096	-0.05457732	-0.2970287	0	0	0	0
24.14801	-0.05457732	-0.2970287	0	0	0	0
24.16413	-0.05457732	-0.2970287	0	0	0	0
24.18066	-0.05457732	-0.2970287	0	0	0	0
24.19724	-0.05457732	-0.2970287	0	0	0	0
24.21379	-0.05457732	-0.2970287	0	0	0	0
24.23036	-0.05457732	-0.2970287	0	0	0	0
24.24811	-0.05460356	-0.29705	-0.001477695	-0.001201794	-0.04305772	-0.03501841
24.26486	-0.05460356	-0.29705	0	0	0.04283394	0.03483641
24.28125	-0.05460356	-0.29705	0	0	0	0
24.2981	-0.05457732	-0.2970713	0.00155715	-0.001266414	0.04684117	-0.03809545
24.31439	-0.05457732	-0.2970713	0	0	-0.04699216	0.03821824
24.33095	-0.05457732	-0.2970713	0	0	0	0
24.34752	-0.05457732	-0.2970713	0	0	0	0
24.36409	-0.05457732	-0.2970713	0	0	0	0
24.38068	-0.05457732	-0.2970713	0	0	0	0
24.39727	-0.05457732	-0.2970713	0	0	0	0
24.41389	-0.05457732	-0.2970713	0	0	0	0
24.43035	-0.05457732	-0.2970713	0	0	0	0
24.44692	-0.05457732	-0.2970713	0	0	0	0
24.46365	-0.05457732	-0.2970713	0	0	0	0
24.48005	-0.05457732	-0.2970713	0	0	0	0
24.49662	-0.05455109	-0.2970927	0.001584046	-0.001288289	0.04805558	-0.03908312
24.51318	-0.05455109	-0.2970927	0	0	-0.04781212	0.03888511
24.52975	-0.05455109	-0.2970927	0	0	0	0
24.54632	-0.05457732	-0.297114	-0.001583864	-0.00128994	-0.04780386	-0.03893269
24.56293	-0.05457732	-0.297114	0	0	0.04773517	0.03887674
24.57981	-0.05457732	-0.297114	0	0	0	0
24.59629	-0.05457732	-0.297114	0	0	0	0
24.61414	-0.05457732	-0.297114	0	0	0	0
24.63087	-0.05457732	-0.297114	0	0	0	0
24.64747	-0.05497088	-0.2967512	-0.0237086	0.02185848	-0.7113909	0.6558771
24.66384	-0.05497088	-0.2967512	0	0	0.7190036	-0.6628957
24.68041	-0.05497088	-0.2967512	0	0	0	0
24.69698	-0.06965031	-0.2824239	-0.8861541	0.8648946	-26.74418	26.10257
24.71354	-0.06965031	-0.2824239	0	0	26.74572	-26.10407
24.73011	-0.06965031	-0.2824239	0	0	0	0
24.74676	-0.1617841	-0.193568	-5.535078	5.338161	-166.6557	160.7267
24.7641	-0.1617841	-0.193568	0	0	162.8493	-157.0558
24.77981	-0.1617841	-0.193568	0	0	0	0
24.79638	-0.2148177	-0.08886004	-3.200747	6.319455	-99.15584	195.7702
24.81295	-0.2148177	-0.08886004	0	0	96.59319	-190.7106
24.83039	-0.2148177	-0.08886004	0	0	0	0
24.84608	-0.185958	-0.07489346	1.839385	0.8901668	55.52234	26.86993
24.86272	-0.185958	-0.07489346	0	0	-56.88477	-27.52927
24.87968	-0.185958	-0.07489346	0	0	0	0
24.89578	-0.1859834	-0.07541448	-0.001578236	-0.03236541	-0.04774394	-0.9791008
24.91235	-0.1859834	-0.07541448	0	0	0.04831544	0.9908208
24.92891	-0.1859834	-0.07541448	0	0	0	0
24.9457	-0.1860088	-0.07539517	-0.001514732	0.001150255	-0.04541926	0.03449041
24.96205	-0.1860088	-0.07539517	0	0	0.04571733	-0.03471676
24.97872	-0.1860088	-0.07539517	0	0	0	0
24.99518	-0.1860088	-0.07539517	0	0	0	0
25.01175	-0.1860088	-0.07539517	0	0	0	0
25.02831	-0.1860088	-0.07539517	0	0	0	0
25.04488	-0.1860088	-0.07535658	0	0.002329807	0	0.07031776
25.06145	-0.1860088	-0.07535658	0	0	0	-0.07032181
25.07801	-0.1860088	-0.07535658	0	0	0	0
25.0946	-0.1860343	-0.0751829	-0.001532321	0.01046891	-0.04621095	0.3157161
25.11116	-0.1860343	-0.0751829	0	0	0.0462269	-0.3158251
25.12791	-0.1860343	-0.0751829	0	0	0	0
25.1444	-0.1816592	-0.06828312	0.2652997	0.4183984	7.981034	12.58671
25.1613	-0.1816592	-0.06828312	0	0	-7.945927	-12.53135
25.17761	-0.1816592	-0.06828312	0	0	0	0
25.19398	-0.1550096	-0.04550583	1.627689	1.391177	49.8003	42.56404
25.21055	-0.1550096	-0.04550583	0	0	-49.41676	-42.23622
25.22764	-0.1550096	-0.04550583	0	0	0	0
25.24368	-0.1476801	-0.04002974	0.4568186	0.3413037	13.78761	10.30116
25.26025	-0.1476801	-0.04002974	0	0	-14.00775	-10.46564
25.27682	-0.1476801	-0.04002974	0	0	0	0
25.29763	-0.1468561	-0.03835266	0.03958219	0.08056363	1.058799	2.155028
25.31458	-0.1468561	-0.03835266	0	0	-1.048104	-2.13326
25.33077	-0.1386313	-0.02407774	0.5080905	0.881839	15.33332	26.61242
25.34734	-0.1386313	-0.02407774	0	0	-15.51189	-26.92236
25.3647	-0.1386313	-0.02407774	0	0	0	0
25.38047	-0.1318878	0.002569284	0.4275129	1.689325	12.90236	50.98392
25.39704	-0.1318878	0.002569284	0	0	-13.22047	-52.24093
25.4136	-0.1318878	0.002569284	0	0	0	0
25.43017	-0.1277479	0.006178606	0.2498885	0.2178591	7.541215	6.574622
25.44674	-0.1277479	0.006178606	0	0	-7.541649	-6.575001
25.46331	-0.1277479	0.006178606	0	0	0	0
25.48	-0.1276961	0.006141029	0.003102324	-0.002251305	0.0932793	-0.06769124
25.49644	-0.1276961	0.006141029	0	0	-0.09363371	0.06794844
25.51305	-0.1276961	0.006141029	0	0	0	0
25.5297	-0.1276702	0.006084662	0.001554802	-0.003385941	0.04674374	-0.1017953
25.54614	-0.1276702	0.006084662	0	0	-0.04699165	0.1023352
25.56271	-0.1276702	0.006084662	0	0	0	0
25.57927	-0.1273595	0.005746443	0.0187554	-0.02041733	0.5660716	-0.6162316
25.59612	-0.1273595	0.005746443	0	0	-0.5612574	0.6109908
25.61302	-0.1273595	0.005746443	0	0	0	0
25.62897	-0.1272818	0.005539737	0.004869269	-0.01295714	0.1482348	-0.3944533
25.64554	-0.1272818	0.005539737	0	0	-0.1497214	0.3984091
25.66211	-0.1272818	0.005539737	0	0	0	0
25.67867	-0.1272818	0.005464567	0	-0.004537755	0	-0.1369655
25.69588	-0.1272818	0.005464567	0	0	0	0.1343739
25.71181	-0.1272818	0.005464567	0	0	0	0
25.72986	-0.1278514	0.003246327	-0.03155712	-0.1228994	-0.9286606	-3.616675
25.74657	-0.1278514	0.003246327	0	0	0.9077701	3.535316
25.76299	-0.1278514	0.003246327	0	0	0	0
25.77956	-0.1286798	0.002230712	-0.04999784	-0.06130264	-1.515568	-1.858247
25.79613	-0.1286798	0.002230712	0	0	1.508851	1.850011
25.81316	-0.1286798	0.002230712	0	0	0	0
25.82929	-0.1271524	0.001045439	0.09464381	-0.07344573	2.853892	-2.214684
25.84595	-0.1271524	0.001045439	0	0	-2.885591	2.239283
25.86253	-0.1271524	0.001045439	0	0	0	0
25.87896	-0.1271006	0.0008572618	0.003151665	-0.01145333	0.09548569	-0.3470005
25.89553	-0.1271006	0.0008572618	0	0	-0.09550777	0.3470808
25.91246	-0.1271006	0.0008572618	0	0	0	0
25.92867	-0.1270747	0.0007255315	0.001597991	-0.00812812	0.04822745	-0.2453071
25.94523	-0.1270747	0.0007255315	0	0	-0.04875791	0.2480053
25.9618	-0.1270747	0.0007255315	0	0	0	0
25.97836	-0.1270747	0.0006878933	0	-0.002272107	0	-0.06857626
25.99493	-0.1270747	0.0006878933	0	0	0	0.06857626
26.0115	-0.1270747	0.0006878933	0	0	0	0
26.02806	-0.1271006	0.0005561563	-0.00156322	-0.007951663	-0.04718078	-0.2399955
26.04511	-0.1271006	0.0005561563	0	0	0.04650876	0.2365771
26.06135	-0.1271006	0.0005561563	0	0	0	0
26.07777	-0.1270488	0.0004808757	0.003153861	-0.004585121	0.09657351	-0.1403997
26.09433	-0.1270488	0.0004808757	0	0	-0.09561855	0.1390114
26.1109	-0.1270488	0.0004808757	0	0	0	0
26.12746	-0.1270229	0.0004244141	0.0015634	-0.00340842	0.04718621	-0.1028722
26.14403	-0.1270229	0.0004244141	0	0	-0.04718349	0.1028663
26.1606	-0.1270229	0.0004244141	0	0	0	0
26.17717	-0.126997	0.0003303093	0.00156322	-0.005680175	0.04718078	-0.1714379
26.19374	-0.126997	0.0003303093	0	0	-0.04717534	0.1714181
26.2103	-0.126997	0.0003303093	0	0	0	0
26.22686	-0.1269193	0.0002362019	0.004689299	-0.005680989	0.1415478	-0.1714822
26.24343	-0.1269193	0.0002362019	0	0	-0.1415315	0.1714625
26.26	-0.1269193	0.0002362019	0	0	0	0
26.27656	-0.126764	4.797911E-05	0.009378598	-0.01136246	0.2830629	-0.3429394
26.29313	-0.126764	4.797911E-05	0	0	-0.2830792	0.3429592
26.3097	-0.126764	4.797911E-05	0	0	0	0
26.32656	-0.1258834	-0.0008179827	0.05219994	-0.05133575	1.561198	-1.535352
26.34283	-0.1258834	-0.0008179827	0	0	-1.575397	1.549316
26.35972	-0.1258834	-0.0008179827	0	0	0	0
26.37596	-0.1110414	-0.02470362	0.9138616	-1.470693	27.58199	-44.38816
26.39279	-0.1110414	-0.02470362	0	0	-27.63289	44.47009
26.4091	-0.1110414	-0.02470362	0	0	0	0
26.42566	-0.1279032	-0.07265614	-1.018018	-2.895086	-30.96986	-88.07352
26.44223	-0.1279032	-0.07265614	0	0	30.72738	87.38393
26.45886	-0.1279032	-0.07265614	0	0	0	0
26.47537	-0.1400766	-0.1442791	-0.7376736	-4.340159	-22.26303	-130.9863
26.49193	-0.1400766	-0.1442791	0	0	22.30798	131.2507
26.5085	-0.1400766	-0.1442791	0	0	0	0
26.52507	-0.133465	-0.2176068	0.3990752	-4.426067	12.04411	-133.579
26.54208	-0.133465	-0.2176068	0	0	-11.88269	131.7886
26.5582	-0.133465	-0.2176068	0	0	0	0
26.57476	-0.1194549	-0.2441878	0.845751	-1.604621	25.87937	-49.10024
26.59133	-0.1194549	-0.2441878	0	0	-25.52482	48.42756
26.6079	-0.1194549	-0.2441878	0	0	0	0
26.62447	-0.1193511	-0.2442709	0.006263671	-0.005012556	0.189038	-0.1512792
26.64238	-0.1193511	-0.2442709	0	0	-0.1816454	0.1453633
26.65922	-0.1193511	-0.2442709	0	0	0	0
26.72291	-0.1191954	-0.2444369	0.00244376	-0.002607286	0.03034662	-0.03237728
26.73956	-0.1191954	-0.2444369	0	0	-0.03041506	0.0324503
26.75605	-0.1189619	-0.2446238	0.01416592	-0.01133545	0.4275283	-0.3421045
26.77301	-0.1189619	-0.2446238	0	0	-0.4235058	0.3388857
26.78918	-0.1189619	-0.2446238	0	0	0	0
26.80575	-0.1187284	-0.2448107	0.01409623	-0.01128112	0.4306308	-0.344631
26.82259	-0.1187284	-0.2448107	0	0	-0.4218795	0.3376275
26.83888	-0.1187284	-0.2448107	0	0	0	0
26.85545	-0.1175088	-0.2458284	0.07361928	-0.06142967	2.240796	-1.869773
26.87201	-0.1175088	-0.2458284	0	0	-2.221834	1.853951
26.88873	-0.1175088	-0.2458284	0	0	0	0
26.90515	-0.09568063	-0.2633785	1.329333	-1.068803	40.12396	-32.26026
26.92173	-0.09568063	-0.2633785	0	0	-40.27933	32.38518
26.93828	-0.09568063	-0.2633785	0	0	0	0
26.95485	-0.06985982	-0.2842458	1.557651	-1.258829	47.02082	-38.00029
26.97141	-0.06985982	-0.2842458	0	0	-47.00999	37.99154
26.98798	-0.06985982	-0.2842458	0	0	0	0
27.00455	-0.04854079	-0.3015592	1.286819	-1.045035	38.83628	-31.53921
27.02163	-0.04854079	-0.3015592	0	0	-38.24192	31.05652
27.03768	-0.04854079	-0.3015592	0	0	0	0
27.05424	-0.03997869	-0.3085482	0.5168688	-0.4219056	15.84726	-12.93567
27.07081	-0.03997869	-0.3085482	0	0	-15.59913	12.73314
27.08751	-0.03997869	-0.3085482	0	0	0	0
27.10395	-0.039243	-0.3091497	0.04477202	-0.03660947	1.3513	-1.10494
27.12052	-0.039243	-0.3091497	0	0	-1.356689	1.109346
27.13708	-0.039243	-0.3091497	0	0	0	0
27.15374	-0.039243	-0.3091497	0	0	0	0
27.17021	-0.039243	-0.3091497	0	0	0	0
27.18678	-0.039243	-0.3091497	0	0	0	0
27.20335	-0.039243	-0.3091497	0	0	0	0
27.22015	-0.039243	-0.3091497	0	0	0	0
27.23656	-0.039243	-0.3091497	0	0	0	0
27.25305	-0.03926928	-0.3091712	-0.001593267	-0.001302987	-0.04843341	-0.03960923
27.26966	-0.03926928	-0.3091712	0	0	0.04813201	0.03936274
27.28668	-0.03926928	-0.3091712	0	0	0	0
27.30274	-0.03926928	-0.3091712	0	0	0	0
27.31971	-0.03926928	-0.3091712	0	0	0	0
27.33588	-0.03926928	-0.3091712	0	0	0	0
27.36521	-0.03932182	-0.3092142	-0.001791921	-0.001465447	-0.0393847	-0.03220912
27.38195	-0.03932182	-0.3092142	0	0	0.03889231	0.03180644
27.39834	-0.03937438	-0.3092572	-0.003207163	-0.002622657	-0.09679236	-0.07915196
27.41491	-0.03937438	-0.3092572	0	0	0.09731895	0.07958258
27.43148	-0.03937438	-0.3092572	0	0	0	0
27.44804	-0.03940065	-0.3092787	-0.001586113	-0.001297136	-0.04786898	-0.03914764
27.46461	-0.03940065	-0.3092787	0	0	0.04786623	0.03914538
27.48119	-0.03940065	-0.3092787	0	0	0	0
27.49775	-0.0394532	-0.3093217	-0.003172956	-0.002596669	-0.09576552	-0.07837213
27.51431	-0.0394532	-0.3093217	0	0	0.09577655	0.07838115
27.53098	-0.0394532	-0.3093217	0	0	0	0
27.54771	-0.0395583	-0.3094076	-0.006278665	-0.005134743	-0.1879863	-0.1537367
27.56401	-0.0395583	-0.3094076	0	0	0.1900484	0.1554231
27.58125	-0.0395583	-0.3094076	0	0	0	0
27.59726	-0.05153328	-0.3192347	-0.7480448	-0.6138709	-22.49704	-18.46183
27.61371	-0.05153328	-0.3192347	0	0	23.04972	18.91538
27.63073	-0.05153328	-0.3192347	0	0	0	0
27.64684	-0.08761721	-0.3492743	-2.23886	-1.863835	-67.56894	-56.25066
27.66344	-0.08761721	-0.3492743	0	0	68.43562	56.97215
27.67998	-0.08761721	-0.3492743	0	0	0	0
27.69654	-0.1254172	-0.3815452	-2.281875	-1.9481	-68.93457	-58.85137
27.71343	-0.1254172	-0.3815452	0	0	68.21139	58.23397
27.73057	-0.1254172	-0.3815452	0	0	0	0
27.74663	-0.1450272	-0.3986645	-1.220912	-1.065838	-36.77521	-32.10422
27.76281	-0.1450272	-0.3986645	0	0	37.86957	33.05958
27.77938	-0.1450272	-0.3986645	0	0	0	0
27.79594	-0.1457744	-0.3993223	-0.04509772	-0.03970649	-1.361052	-1.198344
27.81279	-0.1457744	-0.3993223	0	0	1.349785	1.188425
27.82977	-0.1457744	-0.3993223	0	0	0	0
27.84579	-0.1457744	-0.3993223	0	0	0	0
27.86295	-0.1457744	-0.3993223	0	0	0	0
27.87878	-0.1457744	-0.3993223	0	0	0	0
27.8955	-0.1457486	-0.3992996	0.001540757	0.001356293	0.04733666	0.0416694
27.91191	-0.1457486	-0.3992996	0	0	-0.0465028	-0.04093537
27.92848	-0.1457486	-0.3992996	0	0	0	0
27.94504	-0.1457228	-0.3992769	0.001555125	0.001368941	0.04693376	0.04131473
27.96161	-0.1457228	-0.3992769	0	0	-0.04693376	-0.04131473
27.97861	-0.1457228	-0.3992769	0	0	0	0
27.99474	-0.1456971	-0.3992542	0.001597046	0.001407691	0.04820171	0.04248664
28.01131	-0.1456971	-0.3992542	0	0	-0.04884279	-0.04305171
28.02795	-0.1456971	-0.3992542	0	0	0	0
28.04444	-0.1456971	-0.3992542	0	0	0	0
28.06134	-0.1456971	-0.3992542	0	0	0	0
28.07758	-0.1456971	-0.3992542	0	0	0	0
28.09426	-0.1456971	-0.3992542	0	0	0	0
28.11071	-0.1456971	-0.3992542	0	0	0	0
28.12728	-0.1456971	-0.3992542	0	0	0	0
28.14385	-0.1456971	-0.3992542	0	0	0	0
28.16041	-0.1456971	-0.3992542	0	0	0	0
28.17698	-0.1456971	-0.3992542	0	0	0	0
28.19355	-0.1456971	-0.3992542	0	0	0	0
28.21012	-0.1456971	-0.3992542	0	0	0	0
28.22682	-0.1456971	-0.3992542	0	0	0	0
28.24325	-0.1456971	-0.3992542	0	0	0	0
28.25982	-0.1456971	-0.3992542	0	0	0	0
28.27638	-0.1456971	-0.3992542	0	0	0	0
28.29317	-0.1456971	-0.3992542	0	0	0	0
28.30952	-0.1456971	-0.3992542	0	0	0	0
28.32609	-0.1456971	-0.3992542	0	0	0	0
28.34285	-0.1456971	-0.3992542	0	0	0	0
28.35922	-0.1456971	-0.3992542	0	0	0	0
28.37588	-0.1456971	-0.3992542	0	0	0	0
28.39235	-0.1456971	-0.3992542	0	0	0	0
28.40892	-0.1456971	-0.3992542	0	0	0	0
28.42548	-0.1456971	-0.3992542	0	0	0	0
28.44205	-0.1456971	-0.3992542	0	0	0	0
28.45862	-0.1456971	-0.3992542	0	0	0	0
28.47519	-0.1456971	-0.3992542	0	0	0	0
28.49175	-0.1456971	-0.3992542	0	0	0	0
28.50834	-0.1456971	-0.3992542	0	0	0	0
28.52489	-0.1456971	-0.3992542	0	0	0	0
28.5416	-0.1455425	-0.3990727	0.009245757	0.01085639	0.2779655	0.3263877
28.55813	-0.1455425	-0.3990727	0	0	-0.2781409	-0.3265937
28.57458	-0.1455425	-0.3990727	0	0	0	0
28.59115	-0.1449499	-0.3985964	0.03576787	0.02874957	1.08303	0.87052
28.60772	-0.1449499	-0.3985964	0	0	-1.079601	-0.8677636
28.62428	-0.1449499	-0.3985964	0	0	0	0
28.64093	-0.1430427	-0.3969192	0.1146087	0.100788	3.450952	3.034799
28.65742	-0.1430427	-0.3969192	0	0	-3.459296	-3.042137
28.67398	-0.1430427	-0.3969192	0	0	0	0
28.69369	-0.1374954	-0.3921918	0.2815192	0.2399105	7.761326	6.614198
28.71025	-0.1374954	-0.3921918	0	0	-7.761326	-6.614198
28.72683	-0.1374954	-0.3921918	0	0	0	0
28.74339	-0.1215297	-0.3784077	0.9640218	0.8322963	29.09424	25.11875
28.76023	-0.1215297	-0.3784077	0	0	-28.86494	-24.92078
28.77657	-0.1215297	-0.3784077	0	0	0	0
28.79309	-0.1037316	-0.3694993	1.077646	0.5393882	32.79147	16.41293
28.80966	-0.1037316	-0.3694993	0	0	-32.57406	-16.30411
28.82627	-0.1037316	-0.3694993	0	0	0	0
28.84279	-0.06894319	-0.3795947	2.10638	-0.6112625	63.578	-18.45006
28.85935	-0.06894319	-0.3795947	0	0	-63.66963	18.47666
28.87668	-0.06894319	-0.3795947	0	0	0	0
28.89269	-0.04313113	-0.3843968	1.612409	-0.2999691	48.37025	-8.998695
28.90919	-0.04313113	-0.3843968	0	0	-49.60491	9.228389
28.92562	-0.04313113	-0.3843968	0	0	0	0
28.94219	-0.04144993	-0.383004	0.101489	0.08407456	3.075157	2.547493
28.95876	-0.04144993	-0.383004	0	0	-3.062943	-2.537375
28.97532	-0.04144993	-0.383004	0	0	0	0
28.99189	-0.0414762	-0.3830265	-0.001585888	-0.001354706	-0.04786495	-0.04088747
29.00846	-0.0414762	-0.3830265	0	0	0.04786495	0.04088747
29.02509	-0.0414762	-0.3830265	0	0	0	0
29.04159	-0.04150247	-0.383049	-0.001592857	-0.001362467	-0.04807806	-0.04112406
29.05816	-0.04150247	-0.383049	0	0	0.04817791	0.04120947
29.07473	-0.04150247	-0.383049	0	0	0	0
29.09162	-0.04155501	-0.3830939	-0.003109259	-0.002657961	-0.09290704	-0.07942192
29.10786	-0.04155501	-0.3830939	0	0	0.09384301	0.08022203
29.12442	-0.04155501	-0.3830939	0	0	0	0
29.14133	-0.04163382	-0.3831163	-0.004662639	-0.001327649	-0.1393153	-0.03966891
29.15756	-0.04163382	-0.3831163	0	0	0.1407268	0.04007083
29.17413	-0.04163382	-0.3831163	0	0	0	0
29.19069	-0.04168636	-0.3831612	-0.003171411	-0.0027109	-0.09570786	-0.08181041
29.20726	-0.04168636	-0.3831612	0	0	0.09571337	0.08181512
29.22389	-0.04168636	-0.3831612	0	0	0	0
29.24039	-0.04179144	-0.383251	-0.006368258	-0.005443735	-0.1921944	-0.1642922
29.25746	-0.04179144	-0.383251	0	0	0.1897046	0.1621639
29.27353	-0.04179144	-0.383251	0	0	0	0
29.2901	-0.04231683	-0.3837003	-0.03169042	-0.02709568	-0.9708939	-0.8301256
29.30666	-0.04231683	-0.3837003	0	0	0.9564188	0.8177491
29.32323	-0.04231683	-0.3837003	0	0	0	0
29.3401	-0.04328873	-0.3845316	-0.05759655	-0.04926812	-1.722305	-1.473261
29.35636	-0.04328873	-0.3845316	0	0	1.738467	1.487086
29.37302	-0.04328873	-0.3845316	0	0	0	0
29.38956	-0.04360392	-0.3848014	-0.0190646	-0.0163154	-0.5742469	-0.4914379
29.40606	-0.04360392	-0.3848014	0	0	0.5770316	0.493821
29.42263	-0.04360392	-0.3848014	0	0	0	0
29.43919	-0.04363019	-0.3847789	-0.001585663	0.001358305	-0.04786092	0.04099843
29.45576	-0.04363019	-0.3847789	0	0	0.04786092	-0.04099843
29.47254	-0.04363019	-0.3847789	0	0	0	0
29.48889	-0.04363019	-0.3847789	0	0	0	0
29.50546	-0.04363019	-0.3847789	0	0	0	0
29.52203	-0.04363019	-0.3847789	0	0	0	0
29.53859	-0.04363019	-0.3847789	0	0	0	0
29.55519	-0.04363019	-0.3847789	0	0	0	0
29.57212	-0.04363019	-0.3847789	0	0	0	0
29.58829	-0.04368272	-0.3848238	-0.003248144	-0.002780767	-0.09810261	-0.08398657
29.60486	-0.04368272	-0.3848238	0	0	0.09920559	0.08493084
29.62169	-0.04368272	-0.3848238	0	0	0	0
29.63799	-0.04370899	-0.3848463	-0.001611454	-0.001378569	-0.04864217	-0.04161248
29.65456	-0.04370899	-0.3848463	0	0	0.04902605	0.04194088
29.67113	-0.04370899	-0.3848463	0	0	0	0
29.68819	-0.04376152	-0.3848913	-0.003078584	-0.002635605	-0.09154179	-0.0783698
29.70426	-0.04376152	-0.3848913	0	0	0.09291721	0.07954731
29.72083	-0.04376152	-0.3848913	0	0	0	0
29.7374	-0.04381405	-0.3849362	-0.003170736	-0.002712699	-0.09569301	-0.08186941
29.75396	-0.04381405	-0.3849362	0	0	0.09569301	0.08186941
29.77085	-0.04381405	-0.3849362	0	0	0	0
29.78709	-0.04386658	-0.3849812	-0.003232893	-0.00276771	-0.09758014	-0.08353928
29.80397	-0.04386658	-0.3849812	0	0	0.09760261	0.08355853
29.82023	-0.04386658	-0.3849812	0	0	0	0
29.83679	-0.04531107	-0.3862182	-0.08720982	-0.07468116	-2.656773	-2.275098
29.85336	-0.04531107	-0.3862182	0	0	2.632149	2.254012
29.86993	-0.04531107	-0.3862182	0	0	0	0
29.8865	-0.04536359	-0.3862632	-0.003170287	-0.002716296	-0.09568495	-0.08198271
29.90306	-0.04536359	-0.3862632	0	0	0.09567944	0.08197799
29.91963	-0.04536359	-0.3862632	0	0	0	0
29.93634	-0.04536359	-0.3862632	0	0	0	0
29.95276	-0.04536359	-0.3862632	0	0	0	0
29.9694	-0.04536359	-0.3862632	0	0	0	0
29.9859	-0.04536359	-0.3862632	0	0	0	0
30.00247	-0.04536359	-0.3862632	0	0	0	0
30.01906	-0.04536359	-0.3862632	0	0	0	0
30.0356	-0.04536359	-0.3862632	0	0	0	0
30.05788	-0.04536359	-0.3862632	0	0	0	0
30.07445	-0.04536359	-0.3862632	0	0	0	0
30.09102	-0.04538986	-0.3862857	-0.001585256	-0.001358148	-0.04784036	-0.04098663
30.10759	-0.04538986	-0.3862857	0	0	0.04784311	0.04098899
30.12416	-0.04538986	-0.3862857	0	0	0	0
30.14136	-0.04538986	-0.3862857	0	0	0	0
30.15729	-0.04538986	-0.3862857	0	0	0	0
30.17397	-0.04538986	-0.3862857	0	0	0	0
30.19124	-0.04538986	-0.3862857	0	0	0	0
30.20699	-0.04538986	-0.3862857	0	0	0	0
30.22357	-0.04538986	-0.3862857	0	0	0	0
30.24012	-0.04541612	-0.3863082	-0.001586492	-0.0013594	-0.04788043	-0.04102678
30.25669	-0.04541612	-0.3863082	0	0	0.04790248	0.04104568
30.27325	-0.04541612	-0.3863082	0	0	0	0
30.28982	-0.04541612	-0.3863082	0	0	0	0
30.30639	-0.04541612	-0.3863082	0	0	0	0
30.32322	-0.04541612	-0.3863082	0	0	0	0
30.33952	-0.04541612	-0.3863082	0	0	0	0
30.35609	-0.04541612	-0.3863082	0	0	0	0
30.37265	-0.04541612	-0.3863082	0	0	0	0
30.38987	-0.04544238	-0.3863307	-0.001525203	-0.001306699	-0.04514201	-0.03867486
30.40579	-0.04544238	-0.3863307	0	0	0.04603336	0.03943851
30.42313	-0.04544238	-0.3863307	0	0	0	0
30.43892	-0.04544238	-0.3863307	0	0	0	0
30.45549	-0.04544238	-0.3863307	0	0	0	0
30.47209	-0.04544238	-0.3863307	0	0	0	0
30.48862	-0.04544238	-0.3863307	0	0	0	0
30.50525	-0.04544238	-0.3863307	0	0	0	0
30.52194	-0.04544238	-0.3863307	0	0	0	0
30.53861	-0.04546864	-0.3863532	-0.001574697	-0.001349294	-0.04719843	-0.0404424
30.55506	-0.04546864	-0.3863532	0	0	0.04754362	0.04073818
30.57145	-0.04546864	-0.3863532	0	0	0	0
30.58802	-0.0454949	-0.3863757	-0.001585438	-0.001358305	-0.04810059	-0.04120958
30.60459	-0.0454949	-0.3863757	0	0	0.04784862	0.04099371
30.62121	-0.0454949	-0.3863757	0	0	0	0
30.63772	-0.04552116	-0.3863982	-0.001590157	-0.00136254	-0.04799379	-0.04112392
30.65429	-0.04552116	-0.3863982	0	0	0.04806573	0.04118556
30.67086	-0.04552116	-0.3863982	0	0	0	0
30.6875	-0.04552116	-0.3863982	0	0	0	0
30.70399	-0.04552116	-0.3863982	0	0	0	0
30.72098	-0.04552116	-0.3863982	0	0	0	0
30.73712	-0.04552116	-0.3863982	0	0	0	0
30.75369	-0.04552116	-0.3863982	0	0	0	0
30.77025	-0.04552116	-0.3863982	0	0	0	0
30.78722	-0.0454949	-0.3862857	0.001547788	0.006631183	0.04615704	0.1977504
30.80372	-0.0454949	-0.3862857	0	0	-0.04624384	-0.1981223
30.81995	-0.0454949	-0.3862857	0	0	0	0
30.83652	-0.04533733	-0.3861507	0.009511084	0.008148889	0.2899998	0.2484655
30.85324	-0.04533733	-0.3861507	0	0	-0.285762	-0.2448347
30.86965	-0.04533733	-0.3861507	0	0	0	0
30.88622	-0.04507471	-0.3861507	0.01585531	0	0.4807558	0
30.90279	-0.04507471	-0.3861507	0	0	-0.4785417	0
30.91964	-0.04507471	-0.3861507	0	0	0	0
30.93592	-0.04468077	-0.3864882	0.02420474	-0.0207375	0.7305426	-0.6258951
30.95249	-0.04468077	-0.3864882	0	0	-0.7369915	0.6314202
30.96906	-0.04468077	-0.3864882	0	0	0	0
30.98563	-0.04405043	-0.3870283	0.03804288	-0.0326008	1.147938	-0.9837241
31.00257	-0.04405043	-0.3870283	0	0	-1.135198	0.9728063
31.01876	-0.04405043	-0.3870283	0	0	0	0
31.03532	-0.03225197	-0.3971684	0.7121567	-0.6120535	21.74199	-18.68586
31.05189	-0.03225197	-0.3971684	0	0	-21.49293	18.47181
31.06846	-0.03225197	-0.3971684	0	0	0	0
31.08502	-0.02236469	-0.405711	0.5969347	-0.5157545	18.01656	-15.5664
31.10178	-0.02236469	-0.405711	0	0	-17.91446	15.47819
31.11816	-0.02236469	-0.405711	0	0	0	0
31.13472	-0.01791913	-0.4096576	0.2683652	-0.2382412	8.147115	-7.232601
31.15129	-0.01791913	-0.4096576	0	0	-8.099745	7.190548
31.16786	-0.01791913	-0.4096576	0	0	0	0
31.18511	0.01115743	-0.4352514	1.685406	-1.483528	49.83577	-43.86646
31.20115	0.01115743	-0.4352514	0	0	-50.62667	44.56263
31.21771	0.01115743	-0.4352514	0	0	0	0
31.23412	0.04683415	-0.4675605	2.173217	-1.968086	65.90268	-59.68209
31.2507	0.04683415	-0.4675605	0	0	-65.87601	59.65793
31.26726	0.04683415	-0.4675605	0	0	0	0
31.28382	0.08876612	-0.5069812	2.53131	-2.37971	76.41709	-71.84047
31.30052	0.08876612	-0.5069812	0	0	-76.10159	71.54386
31.317	0.08876612	-0.5069812	0	0	0	0
31.33352	0.1204146	-0.5372801	1.916042	-1.834335	58.05687	-55.58111
31.35009	0.1204146	-0.5372801	0	0	-57.91294	55.44333
31.36707	0.1204146	-0.5372801	0	0	0	0
31.38349	0.1385023	-0.5552691	1.101282	-1.095274	32.96729	-32.78743
31.39978	0.1385023	-0.5552691	0	0	-33.66307	33.47943
31.41636	0.1385023	-0.5552691	0	0	0	0
31.43361	0.1470106	-0.5787225	0.493128	-1.359313	14.57884	-40.18673
31.44949	0.1470106	-0.5787225	0	0	-14.88263	41.02414
31.46662	0.1470106	-0.5787225	0	0	0	0
31.48271	0.1340853	-0.6471899	-0.8033881	-4.255676	-24.18504	-128.1121
31.49928	0.1340853	-0.6471899	0	0	24.59889	130.3043
31.51584	0.1340853	-0.6471899	0	0	0	0
31.53241	0.1251322	-0.7174125	-0.5404721	-4.239137	-16.31336	-127.9521
31.54898	0.1251322	-0.7174125	0	0	16.31242	127.9448
31.56554	0.1251322	-0.7174125	0	0	0	0
31.58293	0.1148087	-0.7600099	-0.5937384	-2.449899	-17.48623	-72.15216
31.59868	0.1148087	-0.7600099	0	0	17.92009	73.94236
31.61524	0.1148087	-0.7600099	0	0	0	0
31.63181	0.1079212	-0.7682287	-0.4157797	-0.4961428	-12.54898	-14.97448
31.64866	0.1079212	-0.7682287	0	0	12.44226	14.84713
31.66494	0.1079212	-0.7682287	0	0	0	0
31.68151	0.1079472	-0.7682598	0.001569965	-0.001878022	0.04779156	-0.05716916
31.69808	0.1079472	-0.7682598	0	0	-0.04738165	0.05667882
31.71521	0.1079472	-0.7682598	0	0	0	0
31.73121	0.1079732	-0.7682909	0.00162516	-0.001947771	0.04905025	-0.05878724
31.74778	0.1079732	-0.7682909	0	0	-0.04989471	0.05979933
31.76434	0.1079732	-0.7682909	0	0	0	0
31.78091	0.1079732	-0.7682909	0	0	0	0
31.79748	0.1079732	-0.7682909	0	0	0	0
31.81404	0.1079732	-0.7682909	0	0	0	0
31.83061	0.1079212	-0.7682287	-0.003140292	0.003760075	-0.09477966	0.1134858
31.8473	0.1079212	-0.7682287	0	0	0.09444258	-0.1130822
31.86374	0.1079212	-0.7682287	0	0	0	0
31.88031	0.1079212	-0.768104	0	0.007522881	0	0.2278674
31.89716	0.1079212	-0.768104	0	0	0	-0.2250974
31.91368	0.1079212	-0.768104	0	0	0	0
31.93017	0.1078952	-0.7679483	-0.001577229	0.009444396	-0.04778791	0.2861525
31.94658	0.1078952	-0.7679483	0	0	0.04792918	-0.2869984
31.96316	0.1078952	-0.7679483	0	0	0	0
31.97971	0.1077911	-0.7678237	-0.0062861	0.007526216	-0.1897477	0.2271809
31.99686	0.1077911	-0.7678237	0	0	0.1865471	-0.2233489
32.01285	0.1077911	-0.7678237	0	0	0	0
32.02945	0.1074269	-0.7673878	-0.0219409	0.02626192	-0.673301	0.8059005
32.04603	0.1074269	-0.7673878	0	0	0.661188	-0.7914019
32.06255	0.1074269	-0.7673878	0	0	0	0
32.07911	0.1072188	-0.7671388	-0.01256441	0.01503124	-0.3798069	0.454376
32.09568	0.1072188	-0.7671388	0	0	0.3792384	-0.4536958
32.11224	0.1072188	-0.7671388	0	0	0	0
32.17876	0.1071148	-0.7670143	-0.001564539	0.001872025	-0.01883251	0.02253375
32.19547	0.1071148	-0.7670143	0	0	0.01879885	-0.02249347
32.21189	0.1071148	-0.7670143	0	0	0	0
32.22847	0.1071148	-0.7670143	0	0	0	0
32.24503	0.1071148	-0.7670143	0	0	0	0
32.26159	0.1070627	-0.7669521	-0.003141104	0.003756909	-0.09483144	0.1134229
32.27838	0.1070627	-0.7669521	0	0	0.09418065	-0.1126445
32.29472	0.1070627	-0.7669521	0	0	0	0
32.31129	0.1069847	-0.7668588	-0.00471188	0.005631765	-0.1431774	0.1711294
32.32828	0.1069847	-0.7668588	0	0	0.1404265	-0.1678415
32.3451	0.1069847	-0.7668588	0	0	0	0
32.36114	0.1067766	-0.76661	-0.01297825	0.01551722	-0.3949123	0.4721701
32.37768	0.1067766	-0.76661	0	0	0.3984272	-0.4763725
32.39418	0.1067766	-0.76661	0	0	0	0
32.41069	0.1053975	-0.7649632	-0.08353129	0.09974656	-2.530594	3.021838
32.42725	0.1053975	-0.7649632	0	0	2.52534	-3.015565
32.44391	0.1053975	-0.7649632	0	0	0	0
32.46038	0.1030286	-0.7621427	-0.143777	0.1711912	-4.339697	5.167157
32.47699	0.1030286	-0.7621427	0	0	4.346202	-5.174903
32.49352	0.1030286	-0.7621427	0	0	0	0
32.51009	0.1030026	-0.7621117	-0.001571676	0.001867659	-0.04748796	0.05643103
32.52691	0.1030026	-0.7621117	0	0	0.04708096	-0.05594739
32.54354	0.1030026	-0.7621117	0	0	0	0
32.55979	0.1028984	-0.7619879	-0.006410597	0.007619893	-0.1949536	0.2317296
32.57635	0.1028984	-0.7619879	0	0	0.1953615	-0.2322145
32.59292	0.1028984	-0.7619879	0	0	0	0
32.60949	0.1027943	-0.7618642	-0.006286607	0.007468916	-0.1897302	0.2254123
32.62659	0.1027943	-0.7618642	0	0	0.1866995	-0.2218117
32.64262	0.1027943	-0.7618642	0	0	0	0
32.65925	0.1025079	-0.7614621	-0.01722594	0.02418129	-0.5274708	0.7404486
32.67576	0.1025079	-0.7614621	0	0	0.51988	-0.7297928
32.69247	0.1025079	-0.7614621	0	0	0	0
32.70889	0.09168956	-0.748475	-0.6590642	0.7911922	-19.89289	23.88098
32.72546	0.09168956	-0.748475	0	0	19.98262	-23.9887
32.74221	0.09168956	-0.748475	0	0	0	0
32.75873	0.0772146	-0.7313182	-0.8763334	1.038691	-26.33863	31.21836
32.77515	0.0772146	-0.7313182	0	0	26.60092	-31.52925
32.79191	0.0772146	-0.7313182	0	0	0	0
32.80829	0.06344107	-0.7148201	-0.8410549	1.007429	-25.38309	30.40425
32.82486	0.06344107	-0.7148201	0	0	25.53005	-30.58029
32.84142	0.06344107	-0.7148201	0	0	0	0
32.85799	0.05095585	-0.7005095	-0.7536092	0.8637859	-22.74397	26.06911
32.87456	0.05095585	-0.7005095	0	0	22.74397	-26.06911
32.89112	0.05095585	-0.7005095	0	0	0	0
32.90769	0.03348748	-0.6811275	-1.054393	1.169903	-31.82165	35.30775
32.92466	0.03348748	-0.6811275	0	0	31.44157	-34.88604
32.94083	0.03348748	-0.6811275	0	0	0	0
32.9574	0.009447088	-0.6548994	-1.450413	1.582404	-44.29885	48.33017
32.97396	0.009447088	-0.6548994	0	0	43.77355	-47.75706
32.99098	0.009447088	-0.6548994	0	0	0	0
33.0071	-0.01694575	-0.6270043	-1.637568	1.730777	-49.42189	52.23494
33.02366	-0.01694575	-0.6270043	0	0	50.10253	-52.95433
33.04067	-0.01694575	-0.6270043	0	0	0	0
33.05679	-0.03262001	-0.6072869	-0.9720637	1.222805	-29.34032	36.90858
33.07336	-0.03262001	-0.6072869	0	0	29.73403	-37.40385
33.08993	-0.03262001	-0.6072869	0	0	0	0
33.10649	-0.04150247	-0.5945048	-0.5362703	0.7717066	-16.18653	23.29283
33.12306	-0.04150247	-0.5945048	0	0	16.18467	-23.29015
33.13988	-0.04150247	-0.5945048	0	0	0	0
33.1562	-0.04029397	-0.586548	0.0740537	0.4875709	2.234945	14.71492
33.17292	-0.04029397	-0.586548	0	0	-2.241138	-14.75569
33.18961	-0.04029397	-0.586548	0	0	0	0
33.20591	-0.02239099	-0.5586793	1.098586	1.710115	33.30107	51.83815
33.22252	-0.02239099	-0.5586793	0	0	-33.38987	-51.97638
33.23916	-0.02239099	-0.5586793	0	0	0	0
33.25559	-0.03411834	-0.5197912	-0.7137805	2.36691	-21.5792	71.55706
33.27216	-0.03411834	-0.5197912	0	0	21.63159	-71.73078
33.28873	-0.03411834	-0.5197912	0	0	0	0
33.3053	-0.06378179	-0.4908574	-1.790077	1.746043	-54.01842	52.68963
33.32187	-0.06378179	-0.4908574	0	0	54.01221	-52.68356
33.33844	-0.06378179	-0.4908574	0	0	0	0
33.35501	-0.09239408	-0.4646165	-1.726644	1.583538	-52.10422	47.78578
33.37157	-0.09239408	-0.4646165	0	0	52.11022	-47.79128
33.38814	-0.09239408	-0.4646165	0	0	0	0
33.40471	-0.1180797	-0.4408854	-1.550388	1.432413	-46.79079	43.2303
33.42183	-0.1180797	-0.4408854	0	0	46.01731	-42.51567
33.438	-0.1180797	-0.4408854	0	0	0	0
33.45995	-0.133982	-0.4263093	-0.7244834	0.6640666	-19.0033	17.41856
33.47652	-0.133982	-0.4263093	0	0	18.80758	-17.23916
33.49309	-0.1368498	-0.4196495	-0.1731417	0.4020829	-5.225427	12.13488
33.50965	-0.1368498	-0.4196495	0	0	5.226028	-12.13628
33.52624	-0.1368498	-0.4196495	0	0	0	0
33.54323	-0.1216334	-0.380693	0.8953704	2.292301	26.66621	68.27006
33.55936	-0.1216334	-0.380693	0	0	-27.03478	-69.21367
33.5765	-0.1216334	-0.380693	0	0	0	0
33.59299	-0.103263	-0.353326	1.114231	1.659901	33.12793	49.35162
33.60905	-0.103263	-0.353326	0	0	-34.23051	-50.99416
33.62619	-0.103263	-0.353326	0	0	0	0
33.64219	-0.0973492	-0.3476695	0.3695489	0.3534695	11.15301	10.66773
33.65893	-0.0973492	-0.3476695	0	0	-11.28685	-10.79575
33.67532	-0.0973492	-0.3476695	0	0	0	0
33.69189	-0.1068806	-0.3396906	-0.5754499	0.481721	-17.45958	14.61577
33.70865	-0.1068806	-0.3396906	0	0	17.26574	-14.45351
33.72502	-0.1068806	-0.3396906	0	0	0	0
33.74159	-0.1104435	-0.3366536	-0.2150547	0.183314	-6.529452	5.565748
33.75833	-0.1104435	-0.3366536	0	0	6.456172	-5.503284
33.77518	-0.1104435	-0.3366536	0	0	0	0
33.79129	-0.1104435	-0.3366536	0	0	0	0
33.80786	-0.1104435	-0.3366536	0	0	0	0
33.82443	-0.1104435	-0.3366536	0	0	0	0
33.84165	-0.1104435	-0.3366973	0	-0.002535515	0	-0.07504459
33.85756	-0.1104435	-0.3366973	0	0	0	0.07653079
33.87413	-0.1104435	-0.3366973	0	0	0	0
33.89069	-0.1104175	-0.3367191	0.001569427	-0.001317077	0.04737086	-0.03975405
33.90726	-0.1104175	-0.3367191	0	0	-0.04737086	0.03975405
33.92382	-0.1104175	-0.3367191	0	0	0	0
33.94039	-0.1103655	-0.3368064	0.003138854	-0.005271908	0.09474172	-0.1591248
33.95695	-0.1103655	-0.3368064	0	0	-0.09474172	0.1591248
33.97352	-0.1103655	-0.3368064	0	0	0	0
33.99009	-0.1103395	-0.3369156	0.001569516	-0.006589267	0.04737353	-0.1988874
34.00665	-0.1103395	-0.3369156	0	0	-0.04736807	0.1988645
34.02322	-0.1103395	-0.3369156	0	0	0	0
34.03979	-0.1103395	-0.3369592	0	-0.002635347	0	-0.07953493
34.05635	-0.1103395	-0.3369592	0	0	0	0.07953493
34.07292	-0.1103395	-0.3369592	0	0	0	0
34.08949	-0.1103135	-0.3370247	0.001569066	-0.00395392	0.04735995	-0.1193433
34.10606	-0.1103135	-0.3370247	0	0	-0.04734905	0.1193158
34.12262	-0.1103135	-0.3370247	0	0	0	0
34.14311	-0.1102875	-0.3370902	0.001268513	-0.003196551	0.03423236	-0.08626279
34.15968	-0.1102875	-0.3370902	0	0	-0.03422531	0.08624504
34.17625	-0.1102875	-0.3370902	0	0	0	0
34.19282	-0.1102875	-0.3370902	0	0	0	0
34.20947	-0.1102875	-0.3370902	0	0	0	0
34.22618	-0.1101055	-0.3373741	0.0108866	-0.01698176	0.3262669	-0.5089363
34.24276	-0.1101055	-0.3373741	0	0	-0.3270521	0.5101611
34.25962	-0.1101055	-0.3373741	0	0	0	0
34.27588	-0.1101055	-0.3373741	0	0	0	0
34.29245	-0.1101055	-0.3373741	0	0	0	0
34.3097	-0.1101055	-0.3373741	0	0	0	0
34.32635	-0.1101315	-0.3373523	-0.0015608	0.001309837	-0.04603447	0.03863254
34.34215	-0.1101315	-0.3373523	0	0	0.0480962	-0.04036276
34.3593	-0.1101315	-0.3373523	0	0	0	0
34.37846	-0.1101055	-0.3373304	0.00135665	0.001140068	0.03736082	0.03139637
34.39503	-0.1101055	-0.3373304	0	0	-0.03796708	-0.03190584
34.41161	-0.1101055	-0.3373304	0	0	0	0
34.42828	-0.1101315	-0.3373523	-0.001558658	-0.001309827	-0.04687848	-0.03939459
34.44491	-0.1101315	-0.3373523	0	0	0.04680331	0.03933141
34.4613	-0.1101315	-0.3373523	0	0	0	0
34.47787	-0.1101055	-0.3373741	0.001569066	-0.001316774	0.04760111	-0.03994728
34.49444	-0.1101055	-0.3373741	0	0	-0.0473545	0.03974032
34.5114	-0.1101055	-0.3373741	0	0	0	0
34.52757	-0.1101055	-0.3373741	0	0	0	0
34.5446	-0.1101055	-0.3373741	0	0	0	0
34.56098	-0.1101055	-0.3373741	0	0	0	0
34.57751	-0.1100535	-0.3374178	0.003146551	-0.002643842	0.09561256	-0.08033701
34.5948	-0.1100535	-0.3374178	0	0	-0.09305613	0.07818901
34.6104	-0.1100535	-0.3374178	0	0	0	0
34.62697	-0.1099755	-0.3374833	0.004709181	-0.00395663	0.1463699	-0.1229792
34.64354	-0.1099755	-0.3374833	0	0	-0.1421234	0.1194113
34.6601	-0.1099755	-0.3374833	0	0	0	0
34.67683	-0.1099755	-0.337527	0	-0.002610106	0	-0.07840306
34.69324	-0.1099755	-0.337527	0	0	0	0.07877314
34.7098	-0.1099755	-0.337527	0	0	0	0
34.72637	-0.1099495	-0.3376362	0.001569427	-0.006594383	0.04737086	-0.1990418
34.74294	-0.1099495	-0.3376362	0	0	-0.04737086	0.1990418
34.7595	-0.1099495	-0.3376362	0	0	0	0
34.77607	-0.1098715	-0.3378328	0.004708097	-0.01186536	0.1420906	-0.3580972
34.79263	-0.1098715	-0.3378328	0	0	-0.142107	0.3581384
34.80935	-0.1098715	-0.3378328	0	0	0	0
34.82583	-0.1096635	-0.3385319	0.01262454	-0.04243604	0.3803088	-1.278367
34.84235	-0.1096635	-0.3385319	0	0	-0.3825509	1.285904
34.85917	-0.1096635	-0.3385319	0	0	0	0
34.87589	-0.1074269	-0.3405437	0.1337082	-0.1202662	3.986671	-3.58588
34.89204	-0.1074269	-0.3405437	0	0	-4.067635	3.658705
34.9086	-0.1074269	-0.3405437	0	0	0	0
34.92517	-0.1074269	-0.3405437	0	0	0	0
34.94173	-0.1074269	-0.3405437	0	0	0	0
34.9583	-0.1074269	-0.3405437	0	0	0	0
34.97486	-0.1074269	-0.3405437	0	0	0	0
34.99143	-0.1074269	-0.3405437	0	0	0	0
35.008	-0.1074269	-0.3405437	0	0	0	0
35.02494	-0.1074269	-0.3405437	0	0	0	0
35.04113	-0.1074269	-0.3405437	0	0	0	0
35.05787	-0.1074269	-0.3405437	0	0	0	0
35.07426	-0.1074269	-0.3405437	0	0	0	0
35.09083	-0.1074269	-0.3405437	0	0	0	0
35.1074	-0.1074269	-0.3405437	0	0	0	0
35.12396	-0.1074269	-0.3405874	0	-0.002640744	0	-0.0796978
35.14072	-0.1074269	-0.3405874	0	0	0	0.07924166
35.15709	-0.1074269	-0.3405874	0	0	0	0
35.17366	-0.1074529	-0.3406093	-0.001570327	-0.001320676	-0.04767799	-0.04009813
35.19047	-0.1074529	-0.3406093	0	0	0.04705129	0.03957107
35.20679	-0.1074529	-0.3406093	0	0	0	0
35.22336	-0.107505	-0.3406531	-0.003141104	-0.002643151	-0.09550237	-0.08036259
35.24025	-0.107505	-0.3406531	0	0	0.09390141	0.07901542
35.2565	-0.107505	-0.3406531	0	0	0	0
35.27306	-0.1079992	-0.3411126	-0.02983114	-0.0277386	-0.9089915	-0.8452294
35.28963	-0.1079992	-0.3411126	0	0	0.9003056	0.8371527
35.30655	-0.1079992	-0.3411126	0	0	0	0
35.32327	-0.1104175	-0.3431494	-0.1447024	-0.1218704	-4.302243	-3.623408
35.33948	-0.1104175	-0.3431494	0	0	4.394448	3.701064
35.35602	-0.1104175	-0.3431494	0	0	0	0
35.37246	-0.1104175	-0.3431494	0	0	0	0
35.38918	-0.1104175	-0.3431494	0	0	0	0
35.4058	-0.1104175	-0.3431494	0	0	0	0
35.42216	-0.1104175	-0.3431494	0	0	0	0
35.43873	-0.1104175	-0.3431494	0	0	0	0
35.45592	-0.1104175	-0.3431494	0	0	0	0
35.48063	-0.1104175	-0.3431494	0	0	0	0
35.4972	-0.1104175	-0.3431494	0	0	0	0
35.51422	-0.1103915	-0.3431713	0.001527219	-0.001286909	0.04545832	-0.03830538
35.53033	-0.1103915	-0.3431713	0	0	-0.04610219	0.03884793
35.54716	-0.1103915	-0.3431713	0	0	0	0
35.56346	-0.1103915	-0.3431713	0	0	0	0
35.58076	-0.1103915	-0.3431713	0	0	0	0
35.59676	-0.1103915	-0.3431713	0	0	0	0
35.61316	-0.1103915	-0.3432151	0	-0.002674468	0	-0.08256926
35.62984	-0.1103915	-0.3432151	0	0	0	0.08086455
35.6468	-0.1103915	-0.3432151	0	0	0	0
35.66286	-0.1104175	-0.343237	-0.00161902	-0.001364264	-0.04903146	-0.04131627
35.67953	-0.1104175	-0.343237	0	0	0.04946576	0.04168224
35.69606	-0.1104175	-0.343237	0	0	0	0
35.71255	-0.1104175	-0.343237	0	0	0	0
35.72912	-0.1104175	-0.343237	0	0	0	0
35.74578	-0.1104175	-0.343237	0	0	0	0
35.76225	-0.1104175	-0.343237	0	0	0	0
35.77882	-0.1104175	-0.343237	0	0	0	0
35.79551	-0.1104175	-0.343237	0	0	0	0
35.81208	-0.1104175	-0.343237	0	0	0	0
35.82853	-0.1104175	-0.343237	0	0	0	0
35.84509	-0.1104175	-0.343237	0	0	0	0
35.86166	-0.1104175	-0.343237	0	0	0	0
35.87822	-0.1104175	-0.343237	0	0	0	0
35.89497	-0.1104175	-0.343237	0	0	0	0
35.91135	-0.1104175	-0.343237	0	0	0	0
35.92801	-0.1104175	-0.343237	0	0	0	0
35.94452	-0.1104175	-0.343237	0	0	0	0
35.96153	-0.1104175	-0.3432809	0	-0.002577302	0	-0.07687156
35.97762	-0.1104175	-0.3432809	0	0	0	0.0778638
35.99428	-0.1104175	-0.3432809	0	0	0	0
36.01075	-0.1104175	-0.3432809	0	0	0	0
36.02732	-0.1104175	-0.3432809	0	0	0	0
36.04388	-0.1104175	-0.3432809	0	0	0	0
36.06045	-0.1104175	-0.3432809	0	0	0	0
36.07702	-0.1104175	-0.3432809	0	0	0	0
36.09397	-0.1104175	-0.3432809	0	0	0	0
36.11015	-0.1104175	-0.3432809	0	0	0	0
36.12672	-0.1104175	-0.3432809	0	0	0	0
36.14329	-0.1104175	-0.3432809	0	0	0	0
36.15985	-0.1104175	-0.3432809	0	0	0	0
36.17642	-0.1104175	-0.3432809	0	0	0	0
36.19333	-0.1104175	-0.3432809	0	0	0	0
36.20986	-0.1104175	-0.3432809	0	0	0	0
36.22612	-0.1104175	-0.3432809	0	0	0	0
36.24269	-0.1104175	-0.3432809	0	0	0	0
36.25925	-0.1104175	-0.3432809	0	0	0	0
36.27583	-0.1104175	-0.3432809	0	0	0	0
36.29296	-0.1104175	-0.3432809	0	0	0	0
36.30896	-0.1104175	-0.3432809	0	0	0	0
36.32553	-0.1104175	-0.3432809	0	0	0	0
36.34277	-0.1104175	-0.3432809	0	0	0	0
36.35866	-0.1104175	-0.3433247	0	-0.002757353	0	-0.08321708
36.37523	-0.1104175	-0.3433247	0	0	0	0.08495811
36.39267	-0.1104175	-0.3433247	0	0	0	0
36.40836	-0.1104175	-0.3433685	0	-0.002794113	0	-0.08433621
36.42493	-0.1104175	-0.3433685	0	0	0	0.08662015
36.4417	-0.1104175	-0.3433685	0	0	0	0
36.45806	-0.1104175	-0.3433685	0	0	0	0
36.47463	-0.1104175	-0.3433685	0	0	0	0
36.49121	-0.1104175	-0.3433685	0	0	0	0
36.50776	-0.1104175	-0.3433685	0	0	0	0
36.52433	-0.1104175	-0.3433685	0	0	0	0
36.5409	-0.1104175	-0.3433685	0	0	0	0
36.55746	-0.1103915	-0.3433904	0.001569427	-0.001322475	0.04737086	-0.03991698
36.57403	-0.1103915	-0.3433904	0	0	-0.04737086	0.03991698
36.59077	-0.1103915	-0.3433904	0	0	0	0
36.60716	-0.1103915	-0.3433904	0	0	0	0
36.62373	-0.1103915	-0.3433904	0	0	0	0
36.6403	-0.1103915	-0.3433904	0	0	0	0
36.65696	-0.1103915	-0.3433904	0	0	0	0
36.67356	-0.1103915	-0.3433904	0	0	0	0
36.69	-0.1103915	-0.3433904	0	0	0	0
36.70657	-0.1103915	-0.3433904	0	0	0	0
36.72313	-0.1103915	-0.3433904	0	0	0	0
36.7397	-0.1103915	-0.3433904	0	0	0	0
36.75627	-0.1103915	-0.3433904	0	0	0	0
36.77283	-0.1103915	-0.3433904	0	0	0	0
36.7894	-0.1103915	-0.3433904	0	0	0	0
36.80683	-0.1103915	-0.3433904	0	0	0	0
36.82441	-0.1103915	-0.3433904	0	0	0	0
36.84098	-0.1103915	-0.3433904	0	0	0	0
36.85754	-0.1103655	-0.3433685	0.001569427	0.001322475	0.04736541	0.03991238
36.87457	-0.1103655	-0.3433685	0	0	-0.04671995	-0.0393685
36.89068	-0.1103655	-0.3433685	0	0	0	0
36.90724	-0.1103915	-0.3433466	-0.001569427	0.001322475	-0.04804016	0.04048096
36.92381	-0.1103915	-0.3433466	0	0	0.04737086	-0.03991698
36.94038	-0.1103915	-0.3433466	0	0	0	0
36.95694	-0.1101055	-0.3431494	0.01726107	0.01190493	0.5209402	0.3592916
36.97354	-0.1101055	-0.3431494	0	0	-0.5205207	-0.3590023
36.99008	-0.1101055	-0.3431494	0	0	0	0
37.0067	-0.1097675	-0.3428645	0.02033545	0.01713837	0.6132309	0.5168205
37.02321	-0.1097675	-0.3428645	0	0	-0.6137958	-0.5172966
37.03978	-0.1097675	-0.3428645	0	0	0	0
37.05634	-0.1003981	-0.3505504	0.5655374	-0.46392	17.06795	-14.00113
37.0732	-0.1003981	-0.3505504	0	0	-16.91798	13.87811
37.08948	-0.1003981	-0.3505504	0	0	0	0
37.10605	-0.05221565	-0.3916498	2.907632	-2.480197	88.52708	-75.51322
37.12261	-0.05221565	-0.3916498	0	0	-87.75249	74.8525
37.13937	-0.05221565	-0.3916498	0	0	0	0
37.15589	-0.01360442	-0.4251781	2.337575	-2.029843	70.24088	-60.99393
37.17231	-0.01360442	-0.4251781	0	0	-70.96484	61.62259
37.18888	-0.01360442	-0.4251781	0	0	0	0
37.20545	0.01023648	-0.4462838	1.43904	-1.273947	43.43032	-38.44778
37.22202	0.01023648	-0.4462838	0	0	-43.43032	38.44778
37.23858	0.01023648	-0.4462838	0	0	0	0
37.25539	0.02339047	-0.4579914	0.7824457	-0.6964063	23.44154	-20.86386
37.27172	0.02339047	-0.4579914	0	0	-23.61426	21.01758
37.28911	0.02339047	-0.4579914	0	0	0	0
37.30485	0.02901817	-0.4628152	0.3576405	-0.3065549	10.79485	-9.252911
37.32156	0.02901817	-0.4628152	0	0	-11.02202	9.447629
37.33798	0.02901817	-0.4628152	0	0	0	0
37.35455	0.03198908	-0.4607086	0.1793248	0.1271514	5.435814	3.8543
37.37112	0.03198908	-0.4607086	0	0	-5.412034	-3.837438
37.38832	0.03198908	-0.4607086	0	0	0	0
37.4048	0.0509821	-0.4761431	1.152791	-0.9367999	34.22393	-27.81161
37.42081	0.0509821	-0.4761431	0	0	-35.48166	28.83368
37.43738	0.0509821	-0.4761431	0	0	0	0
37.45395	0.08920996	-0.5115646	2.307438	-2.138049	69.63862	-64.52645
37.47055	0.08920996	-0.5115646	0	0	-69.55854	64.45225
37.48708	0.08920996	-0.5115646	0	0	0	0
37.50665	0.1148866	-0.5362535	1.312081	-1.261608	36.34727	-34.94905
37.52363	0.1148866	-0.5362535	0	0	-35.90336	34.52222
37.53979	0.1148866	-0.5362535	0	0	0	0
37.55636	0.1334133	-0.5549387	1.118274	-1.127842	34.16653	-34.45887
37.57293	0.1334133	-0.5549387	0	0	-33.74958	34.03835
37.62511	0.1334133	-0.5549387	0	0	0	0
37.64194	0.161861	-0.5836041	1.689868	-1.702799	24.48534	-24.67271
37.65825	0.161861	-0.5836041	0	0	-50.99444	51.38467
37.67519	0.161861	-0.5836041	0	0	0	0
37.6916	0.1658058	-0.5876701	0.2403788	-0.2477663	7.2057	-7.427153
37.70795	0.1658058	-0.5876701	0	0	-7.339139	7.564692
37.72491	0.1658058	-0.5876701	0	0	0	0
37.74148	0.1733733	-0.5954244	0.4566725	-0.4679371	13.61933	-13.95528
37.75764	0.1733733	-0.5954244	0	0	-13.94942	14.29351
37.77421	0.1733733	-0.5954244	0	0	0	0
37.79078	0.1755428	-0.597766	0.1309489	-0.1413445	3.952045	-4.265787
37.80735	0.1755428	-0.597766	0	0	-3.952045	4.265787
37.82391	0.1755428	-0.597766	0	0	0	0
37.84048	0.1754152	-0.5979504	-0.007701844	-0.01113038	-0.2324689	-0.3359543
37.85704	0.1754152	-0.5979504	0	0	0.2324689	0.3359543
37.87361	0.1754152	-0.5979504	0	0	0	0
37.89017	0.175058	-0.5983192	-0.02156714	-0.02226796	-0.6509725	-0.6721259
37.90674	0.175058	-0.5983192	0	0	0.6509725	0.6721259
37.9234	0.175058	-0.5983192	0	0	0	0
37.93987	0.1730158	-0.6001124	-0.1240065	-0.10889	-3.742954	-3.286685
37.95644	0.1730158	-0.6001124	0	0	3.753759	3.296173
37.9736	0.1730158	-0.6001124	0	0	0	0
37.98957	0.1715599	-0.6013007	-0.09117445	-0.07441098	-2.751967	-2.245986
38.00614	0.1715599	-0.6013007	0	0	2.801974	2.286799
38.02277	0.1715599	-0.6013007	0	0	0	0
38.03933	0.1712278	-0.6009573	-0.02005394	0.02073137	-0.6042553	0.6246673
38.05585	0.1712278	-0.6009573	0	0	0.6062062	-0.6266842
38.07261	0.1712278	-0.6009573	0	0	0	0
38.08897	0.1712022	-0.6009837	-0.001561589	-0.001613491	-0.04714515	-0.04871207
38.10554	0.1712022	-0.6009837	0	0	0.0474182	0.04899419
38.12211	0.1712022	-0.6009837	0	0	0	0
38.13868	0.1711767	-0.6010101	-0.001541988	-0.001594167	-0.04653194	-0.04810653
38.15524	0.1711767	-0.6010101	0	0	0.04654265	0.04811761
38.17181	0.1711767	-0.6010101	0	0	0	0
38.18879	0.1711767	-0.601063	0	-0.003113067	0	-0.09279872
38.20494	0.1711767	-0.601063	0	0	0	0.09395256
38.2221	0.1711767	-0.601063	0	0	0	0
38.23808	0.1711511	-0.6010894	-0.001600004	-0.001653182	-0.04828823	-0.04989314
38.25464	0.1711511	-0.6010894	0	0	0.04917135	0.05080561
38.27169	0.1711511	-0.6010894	0	0	0	0
38.28777	0.1711511	-0.6010894	0	0	0	0
38.30434	0.1711511	-0.6010894	0	0	0	0
38.3213	0.1711511	-0.6010894	0	0	0	0
38.33747	0.1711	-0.6010894	-0.003160009	0	-0.09538024	0
38.35404	0.1711	-0.6010894	0	0	0.09651373	0
38.37061	0.1711	-0.6010894	0	0	0	0
38.38734	0.1710745	-0.6011158	-0.00152741	-0.001578175	-0.04587023	-0.04739479
38.40374	0.1710745	-0.6011158	0	0	0.04609732	0.04762941
38.42031	0.1710745	-0.6011158	0	0	0	0
38.43728	0.1709723	-0.601063	-0.006020892	0.003110955	-0.1794997	0.0927463
38.45344	0.1709723	-0.601063	0	0	0.1817318	-0.09389962
38.47001	0.1709723	-0.601063	0	0	0	0
38.48658	0.1688249	-0.5988464	-0.1295535	0.1337313	-3.909034	4.035089
38.5035	0.1688249	-0.5988464	0	0	3.867633	-3.992354
38.5197	0.1688249	-0.5988464	0	0	0	0
38.53627	0.1632192	-0.593035	-0.3383633	0.3507764	-10.32595	10.70476
38.55284	0.1632192	-0.593035	0	0	10.21182	-10.58645
38.5694	0.1632192	-0.593035	0	0	0	0
38.58624	0.1307757	-0.5603369	-1.927232	1.942351	-57.69899	58.15162
38.603	0.1307757	-0.5603369	0	0	57.36486	-57.81487
38.6193	0.1307757	-0.5603369	0	0	0	0
38.63567	0.07457199	-0.5062718	-3.432771	3.302154	-105.0771	101.0789
38.65224	0.07457199	-0.5062718	0	0	104.2011	-100.2362
38.66881	0.07457199	-0.5062718	0	0	0	0
38.68539	0.007078829	-0.4448329	-4.070147	3.705048	-122.7807	111.7671
38.70225	0.007078829	-0.4448329	0	0	121.7162	-110.7981
38.71851	0.007078829	-0.4448329	0	0	0	0
38.7354	-0.03396062	-0.4087898	-2.429595	2.133804	-73.28313	64.36128
38.75164	-0.03396062	-0.4087898	0	0	73.32532	-64.39834
38.76821	-0.03396062	-0.4087898	0	0	0	0
38.78478	-0.06894319	-0.378654	-2.111552	1.819001	-63.72676	54.89756
38.80135	-0.06894319	-0.378654	0	0	63.72676	-54.89756
38.81791	-0.06894319	-0.378654	0	0	0	0
38.83448	-0.09815722	-0.3538111	-1.763363	1.499521	-53.21839	45.25565
38.85105	-0.09815722	-0.3538111	0	0	53.21839	-45.25565
38.86761	-0.09815722	-0.3538111	0	0	0	0
38.8881	-0.116081	-0.3386849	-0.8751394	0.738541	-23.62155	19.93452
38.90467	-0.116081	-0.3386849	0	0	23.61912	-19.93247
38.92123	-0.1166262	-0.338226	-0.03291524	0.02770721	-0.9933839	0.8362051
38.93829	-0.1166262	-0.338226	0	0	0.9788465	-0.823968
38.95436	-0.1166262	-0.338226	0	0	0	0
38.97167	-0.1170416	-0.3378765	-0.02400286	0.02020124	-0.7191913	0.6052844
38.9875	-0.1170416	-0.3378765	0	0	0.7244076	-0.6096746
39.00407	-0.1170416	-0.3378765	0	0	0	0
39.02063	-0.1170156	-0.3378983	0.001566817	-0.001318573	0.04728664	-0.03979461
39.0372	-0.1170156	-0.3378983	0	0	-0.04728664	0.03979461
39.05395	-0.1170156	-0.3378983	0	0	0	0
39.07034	-0.1169377	-0.3380075	0.004752983	-0.006666545	0.1434453	-0.2011967
39.0869	-0.1169377	-0.3380075	0	0	-0.1442424	0.2023147
39.10347	-0.1169377	-0.3380075	0	0	0	0
39.12003	-0.1168858	-0.3380512	0.003134356	-0.002637753	0.09460595	-0.07961672
39.13673	-0.1168858	-0.3380512	0	0	-0.09424785	0.07931535
39.15317	-0.1168858	-0.3380512	0	0	0	0
