Time	Pos X	Pos Y	Vel X	Vel Y	Acc X	Acc Y
0.01638671	-0.09479399	-0.4258706	0.001185904	0.005327781	-1.483912E-05	-6.666607E-05
0.04177503	-0.09479399	-0.4258706	0	0	1.484076E-05	6.667348E-05
0.05834253	-0.09482007	-0.4258936	-0.001573987	-0.001392304	-0.03751533	-0.03318499
0.07506873	-0.09482007	-0.4258936	0	0	0.04727581	0.04181883
0.09158373	-0.09482007	-0.4258936	0	0	0	0
0.1085089	-0.09482007	-0.4258936	0	0	0	0
0.1246118	-0.09482007	-0.4258936	0	0	0	0
0.1411785	-0.09482007	-0.4258936	0	0	0	0
0.1577428	-0.09482007	-0.4258936	0	0	0	0
0.1743119	-0.09482007	-0.4258936	0	0	0	0
0.1908786	-0.09482007	-0.4258936	0	0	0	0
0.207443	-0.09482007	-0.4259398	0	-0.002788735	0	-0.08417283
0.2240934	-0.09482007	-0.4259398	0	0	0	0.08396072
0.2406056	-0.09482007	-0.4259398	0	0	0	0
0.2571451	-0.09487223	-0.425986	-0.003153757	-0.002791127	-0.09541882	-0.08444722
0.273713	-0.09487223	-0.425986	0	0	0.09525846	0.0843053
0.2902793	-0.09487223	-0.425986	0	0	0	0
0.3068452	-0.09489831	-0.4260553	-0.001574137	-0.004182708	-0.04751077	-0.1262429
0.3235805	-0.09489831	-0.4260553	0	0	0.04726968	0.1256023
0.3399783	-0.09489831	-0.4260553	0	0	0	0
0.3565454	-0.09489831	-0.4261015	0	-0.002788271	0	-0.08458307
0.3731125	-0.09489831	-0.4261015	0	0	0	0.0841508
0.389678	-0.09489831	-0.4261015	0	0	0	0
0.4062459	-0.09492438	-0.4261707	-0.001573951	-0.004180412	-0.04750342	-0.1261691
0.4229188	-0.09492438	-0.4261707	0	0	0.04734997	0.1257615
0.4393789	-0.09492438	-0.4261707	0	0	0	0
0.4565216	-0.09495047	-0.4261938	-0.001521613	-0.001347329	-0.04528236	-0.04009578
0.4725124	-0.09495047	-0.4261938	0	0	0.04592381	0.04066376
0.4890807	-0.09495047	-0.4261938	0	0	0	0
0.505645	-0.09495047	-0.4261938	0	0	0	0
0.5223759	-0.09495047	-0.4261938	0	0	0	0
0.5387784	-0.09495047	-0.4261938	0	0	0	0
0.555346	-0.09495047	-0.4261938	0	0	0	0
0.5719131	-0.09495047	-0.4261938	0	0	0	0
0.5887486	-0.09495047	-0.4261938	0	0	0	0
0.605043	-0.09492438	-0.4262169	0.001600829	-0.001417472	0.04831972	-0.04278524
0.6216137	-0.09492438	-0.4262169	0	0	-0.04870916	0.04313008
0.6383348	-0.09492438	-0.4262169	0	0	0	0
0.6547447	-0.09492438	-0.4262169	0	0	0	0
0.6714986	-0.09492438	-0.4262169	0	0	0	0
0.6927372	-0.09492438	-0.4262169	0	0	0	0
0.7093047	-0.09492438	-0.4262169	0	0	0	0
0.7258738	-0.09492438	-0.4262169	0	0	0	0
0.7424409	-0.09492438	-0.4262169	0	0	0	0
0.7591004	-0.09492438	-0.4262169	0	0	0	0
0.775574	-0.09492438	-0.4262169	0	0	0	0
0.7926602	-0.09492438	-0.4262169	0	0	0	0
0.8087074	-0.09492438	-0.4262169	0	0	0	0
0.8252733	-0.09492438	-0.4262169	0	0	0	0
0.8418409	-0.09492438	-0.4262169	0	0	0	0
0.8586148	-0.09492438	-0.4262169	0	0	0	0
0.8749743	-0.09492438	-0.4262169	0	0	0	0
0.8917754	-0.09492438	-0.4262169	0	0	0	0
0.9081076	-0.09495047	-0.42624	-0.001597119	-0.001414187	-0.04820271	-0.04268163
0.9246731	-0.09495047	-0.42624	0	0	0.04854803	0.0429874
0.9415679	-0.09495047	-0.42624	0	0	0	0
0.958171	-0.09495047	-0.42624	0	0	0	0
0.9743737	-0.09495047	-0.42624	0	0	0	0
0.9910312	-0.09495047	-0.42624	0	0	0	0
1.008721	-0.09495047	-0.42624	0	0	0	0
1.025504	-0.09495047	-0.42624	0	0	0	0
1.042	-0.09495047	-0.42624	0	0	0	0
1.058499	-0.09492438	-0.4262631	0.001580958	-0.001399877	0.04791597	-0.04242773
1.074989	-0.09492438	-0.4262631	0	0	-0.04792272	0.04243371
1.091556	-0.09492438	-0.4262631	0	0	0	0
1.108122	-0.09495047	-0.4262862	-0.001574508	-0.001394166	-0.04752079	-0.04207782
1.12469	-0.09495047	-0.4262862	0	0	0.04751908	0.04207631
1.141257	-0.09495047	-0.4262862	0	0	0	0
1.157823	-0.09495047	-0.4262862	0	0	0	0
1.17439	-0.09495047	-0.4262862	0	0	0	0
1.191073	-0.09495047	-0.4262862	0	0	0	0
1.208286	-0.09495047	-0.4262862	0	0	0	0
1.224575	-0.09495047	-0.4262862	0	0	0	0
1.240657	-0.09495047	-0.4262862	0	0	0	0
1.257223	-0.09495047	-0.4262862	0	0	0	0
1.273791	-0.09495047	-0.4262862	0	0	0	0
1.290494	-0.09495047	-0.4262862	0	0	0	0
1.306922	-0.09495047	-0.4262862	0	0	0	0
1.323491	-0.09495047	-0.4262862	0	0	0	0
1.340538	-0.09495047	-0.4262862	0	0	0	0
1.356953	-0.09495047	-0.4263324	0	-0.002814088	0	-0.08409642
1.37319	-0.09495047	-0.4263324	0	0	0	0.08618484
1.39	-0.09495047	-0.4263324	0	0	0	0
1.406322	-0.09492438	-0.4264941	0.001598046	-0.009905058	0.04823174	-0.2989514
1.422892	-0.09492438	-0.4264941	0	0	-0.04858379	0.3011335
1.439459	-0.09492438	-0.4264941	0	0	0	0
1.456024	-0.09489831	-0.426702	0.001574285	-0.0125511	0.04751628	-0.3788269
1.472592	-0.09489831	-0.426702	0	0	-0.04751457	0.3788133
1.489158	-0.09489831	-0.426702	0	0	0	0
1.506107	-0.09489831	-0.4271641	0	-0.02726473	0	-0.8135061
1.522291	-0.09489831	-0.4271641	0	0	0	0.8228868
1.538946	-0.09489831	-0.4271641	0	0	0	0
1.555424	-0.09557633	-0.4281813	-0.04114863	-0.06173177	-1.24194	-1.863176
1.57199	-0.09557633	-0.4281813	0	0	1.24526	1.868156
1.588557	-0.09557633	-0.4281813	0	0	0	0
1.605124	-0.097662	-0.4301714	-0.1258895	-0.1201197	-3.799435	-3.625299
1.621691	-0.097662	-0.4301714	0	0	3.799381	3.625247
1.639059	-0.097662	-0.4301714	0	0	0	0
1.654824	-0.097662	-0.4301714	0	0	0	0
1.671393	-0.097662	-0.4301714	0	0	0	0
1.688379	-0.097662	-0.4301714	0	0	0	0
1.705169	-0.09763593	-0.4301945	0.001552671	-0.001379166	0.04596959	-0.04083266
1.721738	-0.09763593	-0.4301945	0	0	-0.04654505	0.04134382
1.738306	-0.09763593	-0.4301945	0	0	0	0
1.754874	-0.09753167	-0.4302872	0.006293398	-0.005590934	0.1899276	-0.168728
1.771442	-0.09753167	-0.4302872	0	0	-0.1899276	0.168728
1.788007	-0.09753167	-0.4302872	0	0	0	0
1.804572	-0.09729706	-0.4304956	0.01416286	-0.01258501	0.4274959	-0.3798696
1.821692	-0.09729706	-0.4304956	0	0	-0.4204519	0.3736104
1.837836	-0.09729706	-0.4304956	0	0	0	0
1.854684	-0.09643677	-0.4313528	0.05106159	-0.05087807	1.547707	-1.542144
1.87102	-0.09643677	-0.4313528	0	0	-1.538744	1.533214
1.887405	-0.09643677	-0.4313528	0	0	0	0
1.904143	-0.09482007	-0.4329759	0.09659042	-0.09697413	2.916091	-2.927675
1.920539	-0.09482007	-0.4329759	0	0	-2.915189	2.926769
1.937154	-0.09482007	-0.4329759	0	0	0	0
1.953672	-0.09492438	-0.4331152	-0.006315359	-0.0084295	-0.1906041	-0.2544111
1.970366	-0.09492438	-0.4331152	0	0	0.1901573	0.2538148
1.986808	-0.09492438	-0.4331152	0	0	0	0
2.003372	-0.09495047	-0.4331848	-0.001574746	-0.004201121	-0.04770993	-0.127281
2.01994	-0.09495047	-0.4331848	0	0	0.04752883	0.1267978
2.036507	-0.09495047	-0.4331848	0	0	0	0
2.065821	-0.09497654	-0.433208	-0.0008895675	-0.0007919693	-0.01938877	-0.01726155
2.082392	-0.09497654	-0.433208	0	0	0.01938655	0.01725957
2.099175	-0.09500262	-0.4332312	-0.001553777	-0.001381529	-0.04658369	-0.04141955
2.115754	-0.09500262	-0.4332312	0	0	0.04657437	0.04141127
2.132313	-0.09500262	-0.4332312	0	0	0	0
2.148658	-0.09500262	-0.4332312	0	0	0	0
2.165224	-0.09500262	-0.4332312	0	0	0	0
2.181791	-0.09500262	-0.4332312	0	0	0	0
2.19837	-0.09497654	-0.4332544	0.001572904	-0.001400334	0.04745428	-0.04224787
2.214924	-0.09497654	-0.4332544	0	0	-0.04747237	0.04226398
2.231491	-0.09497654	-0.4332544	0	0	0	0
2.248055	-0.09497654	-0.4333008	0	-0.002801246	0	-0.08454908
2.265418	-0.09497654	-0.4333008	0	0	0	0.08256697
2.281433	-0.09497654	-0.4333008	0	0	0	0
2.297757	-0.09495047	-0.433324	0.001597438	-0.001422176	0.04939577	-0.04397635
2.314324	-0.09495047	-0.433324	0	0	-0.04856759	0.04323903
2.33089	-0.09495047	-0.433324	0	0	0	0
2.348232	-0.09497654	-0.4333472	-0.001503726	-0.001338746	-0.04434737	-0.03948183
2.364027	-0.09497654	-0.4333472	0	0	0.04537894	0.04040023
2.380596	-0.09497654	-0.4333472	0	0	0	0
2.39716	-0.09497654	-0.4333472	0	0	0	0
2.413732	-0.09497654	-0.4333472	0	0	0	0
2.430492	-0.09497654	-0.4333472	0	0	0	0
2.447025	-0.09497654	-0.4333472	0	0	0	0
2.46343	-0.09497654	-0.4333472	0	0	0	0
2.480153	-0.09497654	-0.4333472	0	0	0	0
2.496563	-0.09497654	-0.4333472	0	0	0	0
2.513124	-0.09497654	-0.4333472	0	0	0	0
2.529691	-0.09497654	-0.4333472	0	0	0	0
2.546257	-0.09497654	-0.4333472	0	0	0	0
2.562825	-0.09497654	-0.4333472	0	0	0	0
2.579391	-0.09497654	-0.4333472	0	0	0	0
2.595958	-0.09500262	-0.4333704	-0.001574035	-0.001399542	-0.04750722	-0.0422407
2.612525	-0.09500262	-0.4333704	0	0	0.04750448	0.04223827
2.629091	-0.09500262	-0.4333704	0	0	0	0
2.645658	-0.09497654	-0.4333936	0.001574035	-0.001401341	0.04750722	-0.042295
2.662224	-0.09497654	-0.4333936	0	0	-0.04750653	0.04229439
2.67879	-0.09497654	-0.4333936	0	0	0	0
2.695358	-0.09497654	-0.4333936	0	0	0	0
2.711924	-0.09497654	-0.4333936	0	0	0	0
2.728488	-0.09497654	-0.4333936	0	0	0	0
2.745058	-0.09497654	-0.4333936	0	0	0	0
2.761624	-0.09497654	-0.4333936	0	0	0	0
2.778191	-0.09497654	-0.4333936	0	0	0	0
2.794755	-0.09497654	-0.4333936	0	0	0	0
2.811323	-0.09497654	-0.4333936	0	0	0	0
2.828344	-0.09497654	-0.4333936	0	0	0	0
2.844456	-0.09497654	-0.4333936	0	0	0	0
2.861025	-0.09497654	-0.4333936	0	0	0	0
2.877591	-0.09497654	-0.4333936	0	0	0	0
2.894156	-0.09497654	-0.4333936	0	0	0	0
2.910723	-0.09497654	-0.4333936	0	0	0	0
2.927607	-0.09497654	-0.4333936	0	0	0	0
2.94413	-0.09497654	-0.4333936	0	0	0	0
2.960629	-0.09497654	-0.4333936	0	0	0	0
2.977155	-0.09497654	-0.4333936	0	0	0	0
2.993647	-0.09497654	-0.4333936	0	0	0	0
3.010163	-0.09497654	-0.4333936	0	0	0	0
3.02669	-0.09497654	-0.4333936	0	0	0	0
3.043257	-0.09497654	-0.4333936	0	0	0	0
3.059823	-0.09497654	-0.4333936	0	0	0	0
3.076391	-0.09497654	-0.4333936	0	0	0	0
3.09323	-0.09497654	-0.4333936	0	0	0	0
3.109523	-0.09497654	-0.4333936	0	0	0	0
3.12609	-0.09497654	-0.4333936	0	0	0	0
3.142771	-0.09497654	-0.4333936	0	0	0	0
3.159223	-0.09497654	-0.4333936	0	0	0	0
3.17579	-0.09497654	-0.4333936	0	0	0	0
3.192357	-0.09497654	-0.43344	0	-0.002800884	0	-0.08453205
3.209579	-0.09497654	-0.43344	0	0	0	0.08289356
3.225834	-0.09497654	-0.43344	0	0	0	0
3.242055	-0.09497654	-0.43344	0	0	0	0
3.258622	-0.09497654	-0.43344	0	0	0	0
3.27519	-0.09497654	-0.43344	0	0	0	0
3.291757	-0.09497654	-0.43344	0	0	0	0
3.308587	-0.09497654	-0.43344	0	0	0	0
3.325617	-0.09497654	-0.43344	0	0	0	0
3.341456	-0.09497654	-0.43344	0	0	0	0
3.358106	-0.09497654	-0.43344	0	0	0	0
3.374589	-0.09497654	-0.43344	0	0	0	0
3.391264	-0.09497654	-0.43344	0	0	0	0
3.407722	-0.09497654	-0.43344	0	0	0	0
3.424724	-0.09497654	-0.43344	0	0	0	0
3.440854	-0.09497654	-0.43344	0	0	0	0
3.457424	-0.09497654	-0.43344	0	0	0	0
3.474251	-0.09497654	-0.43344	0	0	0	0
3.490555	-0.09497654	-0.43344	0	0	0	0
3.507123	-0.09497654	-0.43344	0	0	0	0
3.52369	-0.09497654	-0.43344	0	0	0	0
3.540257	-0.09497654	-0.43344	0	0	0	0
3.556972	-0.09497654	-0.43344	0	0	0	0
3.57339	-0.09497654	-0.43344	0	0	0	0
3.589955	-0.09497654	-0.43344	0	0	0	0
3.606523	-0.09497654	-0.43344	0	0	0	0
3.62352	-0.09497654	-0.43344	0	0	0	0
3.685724	-0.09497654	-0.43344	0	0	0	0
3.702294	-0.09497654	-0.43344	0	0	0	0
3.718857	-0.09497654	-0.43344	0	0	0	0
3.735426	-0.09497654	-0.43344	0	0	0	0
3.751994	-0.09497654	-0.43344	0	0	0	0
3.768562	-0.09497654	-0.43344	0	0	0	0
3.785128	-0.09497654	-0.43344	0	0	0	0
3.801693	-0.09497654	-0.43344	0	0	0	0
3.818259	-0.09500262	-0.4334632	-0.001574126	-0.001401422	-0.04751303	-0.04230017
3.835224	-0.09500262	-0.4334632	0	0	0.04694546	0.04179488
3.851393	-0.09500262	-0.4334632	0	0	0	0
3.868809	-0.09541987	-0.4337418	-0.02395836	-0.01599335	-0.7133685	-0.4762074
3.884527	-0.09541987	-0.4337418	0	0	0.7230752	0.4826871
3.901094	-0.09541987	-0.4337418	0	0	0	0
3.917989	-0.09789658	-0.4358556	-0.1465899	-0.1251129	-4.380719	-3.738896
3.934345	-0.09789658	-0.4358556	0	0	4.408517	3.762621
3.95111	-0.09789658	-0.4358556	0	0	0	0
3.967629	-0.1284468	-0.461939	-1.849311	-1.578919	-55.56165	-47.43786
3.983928	-0.1284468	-0.461939	0	0	56.34914	48.11022
4.000495	-0.1284468	-0.461939	0	0	0	0
4.01706	-0.1609637	-0.4631705	-1.963007	-0.07434367	-59.24922	-2.243906
4.033626	-0.1609637	-0.4631705	0	0	59.2505	2.243955
4.050192	-0.1609637	-0.4631705	0	0	0	0
4.06676	-0.2055047	-0.4223191	-2.688421	2.465729	-81.13788	74.41692
4.083326	-0.2055047	-0.4223191	0	0	81.13788	-74.41692
4.099892	-0.2055047	-0.4223191	0	0	0	0
4.116459	-0.2569791	-0.3754774	-3.107094	2.827447	-93.77632	85.33621
4.133026	-0.2569791	-0.3754774	0	0	93.77497	-85.33498
4.149593	-0.2569791	-0.3754774	0	0	0	0
4.166159	-0.2866939	-0.3484607	-1.793688	1.630825	-54.13517	49.21981
4.182726	-0.2866939	-0.3484607	0	0	54.13595	-49.22052
4.199294	-0.2866939	-0.3484607	0	0	0	0
4.21586	-0.2996691	-0.3367191	-0.7832289	0.7087693	-23.63824	21.39101
4.232426	-0.2996691	-0.3367191	0	0	23.63926	-21.39193
4.249302	-0.2996691	-0.3367191	0	0	0	0
4.26556	-0.3076965	-0.3294215	-0.4937727	0.4488821	-14.90252	13.54768
4.282808	-0.3076965	-0.3294215	0	0	14.73709	-13.39729
4.298693	-0.3076965	-0.3294215	0	0	0	0
4.31526	-0.3077204	-0.3294867	-0.001442695	-0.003935931	-0.04445548	-0.1212825
4.331827	-0.3077204	-0.3294867	0	0	0.04354188	0.1187901
4.348467	-0.3077204	-0.3294867	0	0	0	0
4.364961	-0.3077682	-0.3295736	-0.002898153	-0.005272325	-0.08746642	-0.1591191
4.381527	-0.3077682	-0.3295736	0	0	0.08766196	0.1594748
4.398094	-0.3077682	-0.3295736	0	0	0	0
4.415405	-0.3077443	-0.3296823	0.001380664	-0.006278405	0.04075418	-0.1853248
4.431226	-0.3077443	-0.3296823	0	0	-0.04167091	0.1894936
4.447794	-0.3077443	-0.3296823	0	0	0	0
4.464515	-0.3076487	-0.3297693	0.005717789	-0.005200907	0.1717648	-0.1562374
4.481156	-0.3076487	-0.3297693	0	0	-0.1713867	0.1558935
4.497494	-0.3076487	-0.3297693	0	0	0	0
4.51406	-0.307577	-0.3298345	0.00432821	-0.003937844	0.131538	-0.1196745
4.530995	-0.307577	-0.3298345	0	0	-0.1291959	0.1175435
4.54738	-0.307577	-0.3298345	0	0	0	0
4.563925	-0.3074574	-0.3299432	0.00722484	-0.006570984	0.2193975	-0.1995417
4.580592	-0.3074574	-0.3299432	0	0	-0.2175358	0.1978486
4.59727	-0.3074574	-0.3299432	0	0	0	0
4.613538	-0.3074574	-0.3299432	0	0	0	0
4.63013	-0.3074574	-0.3299432	0	0	0	0
4.646597	-0.3074574	-0.3299432	0	0	0	0
4.663161	-0.3074574	-0.3299432	0	0	0	0
4.679889	-0.3074574	-0.3299432	0	0	0	0
4.696296	-0.3074574	-0.3299432	0	0	0	0
4.712862	-0.3074335	-0.329965	0.001442861	-0.001313328	0.04375975	-0.0398312
4.72958	-0.3074335	-0.329965	0	0	-0.04334975	0.039458
4.746	-0.3074335	-0.329965	0	0	0	0
4.763381	-0.3073618	-0.3300302	0.004125401	-0.003753326	0.1220494	-0.1110416
4.779127	-0.3073618	-0.3300302	0	0	-0.1245353	0.1133033
4.795698	-0.3073618	-0.3300302	0	0	0	0
4.812261	-0.3072423	-0.330139	0.007217144	-0.006563984	0.2178138	-0.1981014
4.828828	-0.3072423	-0.330139	0	0	-0.2178452	0.19813
4.845395	-0.3072423	-0.330139	0	0	0	0
4.862325	-0.3071466	-0.3302259	0.005648852	-0.005138361	0.1686359	-0.1533961
4.87853	-0.3071466	-0.3302259	0	0	-0.1704827	0.155076
4.895095	-0.3071466	-0.3302259	0	0	0	0
4.911658	-0.3070988	-0.3302694	0.002887854	-0.002625158	0.08717066	-0.07924112
4.928265	-0.3070988	-0.3302694	0	0	-0.08706164	0.07914201
4.944794	-0.3070988	-0.3302694	0	0	0	0
4.961359	-0.3070749	-0.3302912	0.001442944	-0.001313403	0.04360211	-0.0396877
4.977952	-0.3070749	-0.3302912	0	0	-0.04351683	0.03961008
5.031523	-0.3070749	-0.3302912	0	0	0	0
5.048235	-0.3030767	-0.3339271	0.2392484	-0.217565	3.404098	-3.09558
5.064806	-0.3030767	-0.3339271	0	0	-7.188358	6.536868
5.081521	-0.3030767	-0.3339271	0	0	0	0
5.097939	-0.2893067	-0.3464396	0.8387119	-0.7621221	25.31347	-23.00188
5.114692	-0.2893067	-0.3464396	0	0	-25.28436	22.97543
5.131073	-0.2893067	-0.3464396	0	0	0	0
5.147641	-0.2508399	-0.3813658	2.321724	-2.108029	70.46526	-63.97952
5.164673	-0.2508399	-0.3813658	0	0	-69.09825	62.73833
5.180772	-0.2508399	-0.3813658	0	0	0	0
5.19734	-0.1961554	-0.4311906	3.300483	-3.007173	101.0322	-92.05359
5.21405	-0.1961554	-0.4311906	0	0	-99.17773	90.36395
5.230473	-0.1961554	-0.4311906	0	0	0	0
5.247145	-0.146032	-0.4773872	3.006504	-2.770965	90.8463	-83.72911
5.263622	-0.146032	-0.4773872	0	0	-90.69602	83.5906
5.280999	-0.146032	-0.4773872	0	0	0	0
5.296739	-0.1144451	-0.5069323	2.006801	-1.877079	60.59763	-56.68054
5.313317	-0.1144451	-0.5069323	0	0	-62.09614	58.08218
5.329872	-0.1144451	-0.5069323	0	0	0	0
5.346438	-0.1015703	-0.5190995	0.7771668	-0.7344605	23.4644	-22.175
5.36301	-0.1015703	-0.5190995	0	0	-23.4519	22.16319
5.379574	-0.1015703	-0.5190995	0	0	0	0
5.396171	-0.1012057	-0.5194453	0.02197152	-0.02083393	0.6625869	-0.6282811
5.412712	-0.1012057	-0.5194453	0	0	-0.663035	0.628706
5.429501	-0.1012057	-0.5194453	0	0	0	0
5.446644	-0.1012057	-0.5194453	0	0	0	0
5.463506	-0.1012057	-0.5194453	0	0	0	0
5.479779	-0.1012057	-0.5194453	0	0	0	0
5.499409	-0.1012578	-0.5193959	-0.002653825	0.00251415	-0.07391558	0.07002529
5.515979	-0.1012578	-0.5193959	0	0	0.07330998	-0.06945156
5.532722	-0.1012578	-0.5193959	0	0	0	0
5.5493	-0.1013099	-0.5193465	-0.003141989	0.002980642	-0.09429482	0.08945262
5.566468	-0.1013099	-0.5193465	0	0	0.09310764	-0.0883264
5.582247	-0.1013099	-0.5193465	0	0	0	0
5.598812	-0.1013359	-0.5193218	-0.001572395	0.001493235	-0.04861494	0.0461675
5.61538	-0.1013359	-0.5193218	0	0	0.04745634	-0.04506723
5.631949	-0.1013359	-0.5193218	0	0	0	0
5.648513	-0.101362	-0.5192971	-0.001572485	0.001489723	-0.04745976	0.04496187
5.665082	-0.101362	-0.5192971	0	0	0.04746044	-0.04496252
5.681649	-0.101362	-0.5192971	0	0	0	0
5.699038	-0.101362	-0.5192971	0	0	0	0
5.715607	-0.101362	-0.5192971	0	0	0	0
5.732175	-0.101362	-0.5192971	0	0	0	0
5.749877	-0.101362	-0.5192971	0	0	0	0
5.766448	-0.101362	-0.5192971	0	0	0	0
5.783014	-0.101362	-0.5192971	0	0	0	0
5.799581	-0.1013359	-0.5193218	0.001572259	-0.001489509	0.04745224	-0.04495475
5.816148	-0.1013359	-0.5193218	0	0	-0.04745224	0.04495475
5.832892	-0.1013359	-0.5193218	0	0	0	0
5.849385	-0.1013359	-0.5193218	0	0	0	0
5.865848	-0.1013359	-0.5193218	0	0	0	0
5.882415	-0.1013359	-0.5193218	0	0	0	0
5.898981	-0.1013359	-0.5193218	0	0	0	0
5.915548	-0.1013359	-0.5193218	0	0	0	0
5.932114	-0.1013359	-0.5193218	0	0	0	0
5.949474	-0.101362	-0.5192971	-0.001500439	0.001421469	-0.04422682	0.04189909
5.965248	-0.101362	-0.5192971	0	0	0.04528465	-0.04290126
5.981814	-0.101362	-0.5192971	0	0	0	0
5.998832	-0.101362	-0.5192971	0	0	0	0
6.014948	-0.101362	-0.5192971	0	0	0	0
6.031514	-0.101362	-0.5192971	0	0	0	0
6.048081	-0.101362	-0.5192971	0	0	0	0
6.064932	-0.101362	-0.5192971	0	0	0	0
6.081214	-0.101362	-0.5192971	0	0	0	0
6.097958	-0.1013359	-0.5193218	0.001555692	-0.001473813	0.04710542	-0.04462619
6.114491	-0.1013359	-0.5193218	0	0	-0.04675104	0.04429046
6.131085	-0.1013359	-0.5193218	0	0	0	0
6.14748	-0.101362	-0.5193465	-0.001588767	-0.001508784	-0.04815979	-0.04573527
6.164049	-0.101362	-0.5193465	0	0	0.0481981	0.04577165
6.180613	-0.101362	-0.5193465	0	0	0	0
6.197181	-0.1013359	-0.5193218	0.001572078	0.001492935	0.04744815	0.04505945
6.213748	-0.1013359	-0.5193218	0	0	-0.04744405	-0.04505556
6.230314	-0.1013359	-0.5193218	0	0	0	0
6.246881	-0.101362	-0.5193465	-0.001572214	-0.001493064	-0.04745156	-0.04506269
6.263491	-0.101362	-0.5193465	0	0	0.04738814	0.04500246
6.280015	-0.101362	-0.5193465	0	0	0	0
6.29658	-0.101362	-0.5193465	0	0	0	0
6.313148	-0.101362	-0.5193465	0	0	0	0
6.329714	-0.101362	-0.5193465	0	0	0	0
6.346335	-0.101362	-0.5193465	0	0	0	0
6.363462	-0.101362	-0.5193465	0	0	0	0
6.379498	-0.101362	-0.5193465	0	0	0	0
6.395978	-0.101362	-0.5193465	0	0	0	0
6.412585	-0.101362	-0.5193465	0	0	0	0
6.429322	-0.101362	-0.5193465	0	0	0	0
6.445871	-0.101362	-0.5193465	0	0	0	0
6.462255	-0.101362	-0.5193465	0	0	0	0
6.478924	-0.101362	-0.5193465	0	0	0	0
6.495457	-0.101362	-0.5193465	0	0	0	0
6.511964	-0.101362	-0.5193465	0	0	0	0
6.528517	-0.101362	-0.5193465	0	0	0	0
6.545079	-0.101362	-0.5193465	0	0	0	0
6.561648	-0.101362	-0.5193465	0	0	0	0
6.578215	-0.101362	-0.5193465	0	0	0	0
6.594781	-0.101362	-0.5193465	0	0	0	0
6.611346	-0.101362	-0.5193465	0	0	0	0
6.627914	-0.101362	-0.5193465	0	0	0	0
6.64448	-0.101362	-0.5193465	0	0	0	0
6.661362	-0.101362	-0.5193465	0	0	0	0
6.67778	-0.101362	-0.5193465	0	0	0	0
6.69418	-0.101362	-0.5193465	0	0	0	0
6.710748	-0.101362	-0.5193465	0	0	0	0
6.727314	-0.101362	-0.5193465	0	0	0	0
6.744217	-0.101362	-0.5193465	0	0	0	0
6.760493	-0.101362	-0.5193465	0	0	0	0
6.777245	-0.101362	-0.5193465	0	0	0	0
6.793578	-0.101362	-0.5193465	0	0	0	0
6.810338	-0.101362	-0.5193465	0	0	0	0
6.827673	-0.101362	-0.5193465	0	0	0	0
6.843281	-0.101362	-0.5193465	0	0	0	0
6.859847	-0.101362	-0.5193465	0	0	0	0
6.876481	-0.101362	-0.5193465	0	0	0	0
6.893415	-0.101362	-0.5193465	0	0	0	0
6.909636	-0.101362	-0.5193465	0	0	0	0
6.926114	-0.101362	-0.5193465	0	0	0	0
6.94268	-0.101362	-0.5193465	0	0	0	0
6.959279	-0.101362	-0.5193465	0	0	0	0
6.975814	-0.101362	-0.5193465	0	0	0	0
6.99263	-0.101362	-0.5193465	0	0	0	0
7.009329	-0.101362	-0.5193465	0	0	0	0
7.025514	-0.101362	-0.5193465	0	0	0	0
7.042079	-0.101362	-0.5193465	0	0	0	0
7.058647	-0.101362	-0.5193465	0	0	0	0
7.075215	-0.101362	-0.5193465	0	0	0	0
7.091783	-0.101362	-0.5193465	0	0	0	0
7.108349	-0.101362	-0.5193465	0	0	0	0
7.124916	-0.101362	-0.5193465	0	0	0	0
7.14148	-0.101362	-0.5193465	0	0	0	0
7.158048	-0.101362	-0.5193465	0	0	0	0
7.174613	-0.101362	-0.5193465	0	0	0	0
7.191179	-0.101362	-0.5193465	0	0	0	0
7.207747	-0.101362	-0.5193465	0	0	0	0
7.224734	-0.101362	-0.5193465	0	0	0	0
7.24088	-0.101362	-0.5193465	0	0	0	0
7.257513	-0.101362	-0.5193465	0	0	0	0
7.274016	-0.101362	-0.5193465	0	0	0	0
7.290579	-0.101362	-0.5193465	0	0	0	0
7.307148	-0.101362	-0.5193465	0	0	0	0
7.323962	-0.101362	-0.5193465	0	0	0	0
7.34028	-0.101362	-0.5193465	0	0	0	0
7.357037	-0.101362	-0.5193465	0	0	0	0
7.373415	-0.101362	-0.5193465	0	0	0	0
7.389981	-0.101362	-0.5193465	0	0	0	0
7.406548	-0.101362	-0.5193465	0	0	0	0
7.423115	-0.101362	-0.5193465	0	0	0	0
7.439681	-0.101362	-0.5193465	0	0	0	0
7.456733	-0.101362	-0.5193465	0	0	0	0
7.472815	-0.101362	-0.5193465	0	0	0	0
7.492795	-0.101362	-0.5193465	0	0	0	0
7.509366	-0.101362	-0.5193465	0	0	0	0
7.526076	-0.101362	-0.5193465	0	0	0	0
7.542506	-0.101362	-0.5193465	0	0	0	0
7.559095	-0.101362	-0.5193465	0	0	0	0
7.575631	-0.101362	-0.5193465	0	0	0	0
7.592199	-0.101362	-0.5193465	0	0	0	0
7.608932	-0.101362	-0.5193465	0	0	0	0
7.625332	-0.101362	-0.5193465	0	0	0	0
7.641899	-0.101362	-0.5193465	0	0	0	0
7.658525	-0.101362	-0.5193465	0	0	0	0
7.675031	-0.101362	-0.5193465	0	0	0	0
7.691596	-0.101362	-0.5193465	0	0	0	0
7.708165	-0.101362	-0.5193465	0	0	0	0
7.724732	-0.101362	-0.5193465	0	0	0	0
7.741297	-0.101362	-0.5193465	0	0	0	0
7.758415	-0.101362	-0.5193465	0	0	0	0
7.774542	-0.101362	-0.5193465	0	0	0	0
7.790997	-0.101362	-0.5193465	0	0	0	0
7.807844	-0.101362	-0.5193465	0	0	0	0
7.824163	-0.101362	-0.5193465	0	0	0	0
7.8407	-0.101362	-0.5193465	0	0	0	0
7.857265	-0.101362	-0.5193465	0	0	0	0
7.873833	-0.101362	-0.5193465	0	0	0	0
7.890399	-0.101362	-0.5193465	0	0	0	0
7.906964	-0.101362	-0.5193465	0	0	0	0
7.923532	-0.101362	-0.5193465	0	0	0	0
7.94022	-0.101362	-0.5193465	0	0	0	0
7.956665	-0.101362	-0.5193465	0	0	0	0
7.973231	-0.101362	-0.5193465	0	0	0	0
7.989797	-0.101362	-0.5193465	0	0	0	0
8.006366	-0.101362	-0.5193465	0	0	0	0
8.023078	-0.101362	-0.5193465	0	0	0	0
8.03981	-0.101362	-0.5193465	0	0	0	0
8.05615	-0.101362	-0.5193465	0	0	0	0
8.072631	-0.101362	-0.5193465	0	0	0	0
8.089231	-0.101362	-0.5193465	0	0	0	0
8.105876	-0.101362	-0.5193465	0	0	0	0
8.122333	-0.101362	-0.5193465	0	0	0	0
8.1389	-0.101362	-0.5193465	0	0	0	0
8.155465	-0.101362	-0.5193465	0	0	0	0
8.177785	-0.101362	-0.5193465	0	0	0	0
8.194354	-0.101362	-0.5193465	0	0	0	0
8.21129	-0.101362	-0.5193465	0	0	0	0
8.227488	-0.101362	-0.5193465	0	0	0	0
8.244831	-0.101362	-0.5193465	0	0	0	0
8.260622	-0.101362	-0.5193465	0	0	0	0
8.277188	-0.101362	-0.5193465	0	0	0	0
8.293754	-0.101362	-0.5193465	0	0	0	0
8.310478	-0.101362	-0.5193465	0	0	0	0
8.326889	-0.101362	-0.5193465	0	0	0	0
8.343456	-0.101362	-0.5193465	0	0	0	0
8.360022	-0.101362	-0.5193465	0	0	0	0
8.377155	-0.101362	-0.5193465	0	0	0	0
8.393155	-0.101362	-0.5193465	0	0	0	0
8.409816	-0.101362	-0.5193465	0	0	0	0
8.426289	-0.101362	-0.5193465	0	0	0	0
8.442855	-0.101362	-0.5193465	0	0	0	0
8.459421	-0.101362	-0.5193465	0	0	0	0
8.475988	-0.101362	-0.5193465	0	0	0	0
8.492555	-0.101362	-0.5193465	0	0	0	0
8.509121	-0.101362	-0.5193465	0	0	0	0
8.525688	-0.101362	-0.5193465	0	0	0	0
8.542253	-0.101362	-0.5193465	0	0	0	0
8.558831	-0.101362	-0.5193465	0	0	0	0
8.575806	-0.101362	-0.5193465	0	0	0	0
8.591951	-0.101362	-0.5193465	0	0	0	0
8.608521	-0.101362	-0.5193465	0	0	0	0
8.625087	-0.101362	-0.5193465	0	0	0	0
8.641652	-0.101362	-0.5193465	0	0	0	0
8.65822	-0.101362	-0.5193465	0	0	0	0
8.674787	-0.101362	-0.5193465	0	0	0	0
8.691799	-0.101362	-0.5193465	0	0	0	0
8.707987	-0.101362	-0.5193465	0	0	0	0
8.724745	-0.101362	-0.5193465	0	0	0	0
8.741051	-0.101362	-0.5193465	0	0	0	0
8.757957	-0.101362	-0.5193465	0	0	0	0
8.774672	-0.101362	-0.5193465	0	0	0	0
8.790752	-0.101362	-0.5193465	0	0	0	0
8.80741	-0.101362	-0.5193465	0	0	0	0
8.823887	-0.101362	-0.5193465	0	0	0	0
8.840454	-0.101362	-0.5193465	0	0	0	0
8.85719	-0.101362	-0.5193465	0	0	0	0
8.874258	-0.101362	-0.5193465	0	0	0	0
8.890326	-0.101362	-0.5193465	0	0	0	0
8.906893	-0.101362	-0.5193465	0	0	0	0
8.923459	-0.101362	-0.5193465	0	0	0	0
8.940025	-0.101362	-0.5193465	0	0	0	0
8.956716	-0.101362	-0.5193465	0	0	0	0
8.97349	-0.101362	-0.5193465	0	0	0	0
8.989724	-0.101362	-0.5193465	0	0	0	0
9.006517	-0.101362	-0.5193465	0	0	0	0
9.02352	-0.101362	-0.5193465	0	0	0	0
9.039773	-0.101362	-0.5193465	0	0	0	0
9.055991	-0.101362	-0.5193465	0	0	0	0
9.072641	-0.101362	-0.5193465	0	0	0	0
9.10133	-0.101362	-0.5193465	0	0	0	0
9.117901	-0.101362	-0.5193465	0	0	0	0
9.134624	-0.101362	-0.5193465	0	0	0	0
9.151368	-0.101362	-0.5193465	0	0	0	0
9.167602	-0.101362	-0.5193465	0	0	0	0
9.184165	-0.101362	-0.5193465	0	0	0	0
9.201035	-0.101362	-0.5193465	0	0	0	0
9.217301	-0.101362	-0.5193465	0	0	0	0
9.233866	-0.101362	-0.5193465	0	0	0	0
9.250434	-0.101362	-0.5193465	0	0	0	0
9.267163	-0.101362	-0.5193465	0	0	0	0
9.283567	-0.101362	-0.5193465	0	0	0	0
9.300133	-0.101362	-0.5193465	0	0	0	0
9.317094	-0.101362	-0.5193465	0	0	0	0
9.333265	-0.101362	-0.5193465	0	0	0	0
9.349832	-0.101362	-0.5193465	0	0	0	0
9.367119	-0.101362	-0.5193465	0	0	0	0
9.384332	-0.101362	-0.5193465	0	0	0	0
9.400903	-0.101362	-0.5193465	0	0	0	0
9.417469	-0.101362	-0.5193465	0	0	0	0
9.434338	-0.101362	-0.5193465	0	0	0	0
9.450915	-0.101362	-0.5193465	0	0	0	0
9.467169	-0.101362	-0.5193465	0	0	0	0
9.483919	-0.101362	-0.5193465	0	0	0	0
9.500411	-0.101362	-0.5193465	0	0	0	0
9.51687	-0.101362	-0.5193465	0	0	0	0
9.533523	-0.101362	-0.5193465	0	0	0	0
9.55053	-0.101362	-0.5193465	0	0	0	0
9.567261	-0.101362	-0.5193465	0	0	0	0
9.583667	-0.101362	-0.5193465	0	0	0	0
9.600455	-0.101362	-0.5193465	0	0	0	0
9.616801	-0.101362	-0.5193465	0	0	0	0
9.633368	-0.101362	-0.5193465	0	0	0	0
9.65014	-0.101362	-0.5193465	0	0	0	0
9.666502	-0.101362	-0.5193465	0	0	0	0
9.68307	-0.101362	-0.5193465	0	0	0	0
9.699634	-0.101362	-0.5193465	0	0	0	0
9.7162	-0.101362	-0.5193465	0	0	0	0
9.732767	-0.101362	-0.5193465	0	0	0	0
9.749333	-0.101362	-0.5193465	0	0	0	0
9.766214	-0.101362	-0.5193465	0	0	0	0
9.782468	-0.101362	-0.5193465	0	0	0	0
9.799034	-0.101362	-0.5193465	0	0	0	0
9.8156	-0.101362	-0.5193465	0	0	0	0
9.832169	-0.101362	-0.5193465	0	0	0	0
9.848735	-0.101362	-0.5193465	0	0	0	0
9.865301	-0.101362	-0.5193465	0	0	0	0
9.882055	-0.101362	-0.5193465	0	0	0	0
9.898433	-0.101362	-0.5193465	0	0	0	0
9.915	-0.101362	-0.5193465	0	0	0	0
9.931564	-0.101362	-0.5193465	0	0	0	0
9.948367	-0.101362	-0.5193465	0	0	0	0
9.965596	-0.101362	-0.5193465	0	0	0	0
9.981267	-0.101362	-0.5193465	0	0	0	0
9.997833	-0.101362	-0.5193465	0	0	0	0
10.0144	-0.101362	-0.5193465	0	0	0	0
10.03097	-0.101362	-0.5193465	0	0	0	0
10.04753	-0.101362	-0.5193465	0	0	0	0
10.0641	-0.101362	-0.5193465	0	0	0	0
10.08067	-0.101362	-0.5193465	0	0	0	0
10.09724	-0.101362	-0.5193465	0	0	0	0
10.1138	-0.101362	-0.5193465	0	0	0	0
10.13037	-0.101362	-0.5193465	0	0	0	0
10.14693	-0.101362	-0.5193465	0	0	0	0
10.1635	-0.101362	-0.5193465	0	0	0	0
10.18078	-0.101362	-0.5193465	0	0	0	0
10.19683	-0.101362	-0.5193465	0	0	0	0
10.21323	-0.101362	-0.5193465	0	0	0	0
10.22977	-0.101362	-0.5193465	0	0	0	0
10.24633	-0.101362	-0.5193465	0	0	0	0
10.2629	-0.101362	-0.5193465	0	0	0	0
10.2795	-0.101362	-0.5193465	0	0	0	0
10.29603	-0.101362	-0.5193465	0	0	0	0
10.3126	-0.101362	-0.5193465	0	0	0	0
10.32917	-0.101362	-0.5193465	0	0	0	0
10.34573	-0.101362	-0.5193465	0	0	0	0
10.3623	-0.101362	-0.5193465	0	0	0	0
10.37886	-0.101388	-0.5193712	-0.001572485	-0.001489723	-0.04746317	-0.04496511
10.39548	-0.101388	-0.5193712	0	0	0.04739495	0.04490048
10.412	-0.101388	-0.5193712	0	0	0	0
10.42861	-0.101388	-0.5193712	0	0	0	0
10.44517	-0.101388	-0.5193712	0	0	0	0
10.4617	-0.101388	-0.5193712	0	0	0	0
10.47826	-0.101388	-0.5193712	0	0	0	0
10.49483	-0.101388	-0.5193712	0	0	0	0
10.51141	-0.101388	-0.5193712	0	0	0	0
10.52892	-0.101388	-0.5193712	0	0	0	0
10.54549	-0.101388	-0.5193712	0	0	0	0
10.56206	-0.101388	-0.5193712	0	0	0	0
10.57862	-0.101388	-0.5193712	0	0	0	0
10.59519	-0.101388	-0.5193712	0	0	0	0
10.61221	-0.101388	-0.5193712	0	0	0	0
10.62832	-0.1013359	-0.5193712	0.003233779	0	0.09760689	0
10.64489	-0.1013359	-0.5193712	0	0	-0.09895708	0
10.66146	-0.1013359	-0.5193712	0	0	0	0
10.67802	-0.1009712	-0.5197171	0.0220148	-0.02088131	0.6644652	-0.6302537
10.69459	-0.1009712	-0.5197171	0	0	-0.6644079	0.6301993
10.71128	-0.1009712	-0.5197171	0	0	0	0
10.72774	-0.07977769	-0.5397875	1.287174	-1.218962	38.83022	-36.77246
10.74441	-0.07977769	-0.5397875	0	0	-38.85481	36.79575
10.76086	-0.07977769	-0.5397875	0	0	0	0
10.77743	-0.02799269	-0.5899439	3.126289	-3.02797	94.67585	-91.69839
10.79419	-0.02799269	-0.5899439	0	0	-93.81693	90.86649
10.81056	-0.02799269	-0.5899439	0	0	0	0
10.8274	-0.0002894737	-0.617665	1.645552	-1.646611	49.55018	-49.58208
10.84401	-0.0002894737	-0.617665	0	0	-49.2012	49.23287
10.86052	-0.0002894737	-0.617665	0	0	0	0
10.87748	0.01315714	-0.631283	0.7928358	-0.8029408	23.68649	-23.98839
10.89357	0.01315714	-0.631283	0	0	-23.98997	24.29574
10.91014	0.01315714	-0.631283	0	0	0	0
10.92697	0.03227826	-0.650858	1.135588	-1.162547	33.99134	-34.79831
10.94327	0.03227826	-0.650858	0	0	-34.27213	35.08575
10.95984	0.03227826	-0.650858	0	0	0	0
10.9764	0.04410296	-0.6627491	0.7139461	-0.7179528	21.54942	-21.67035
10.99335	0.04410296	-0.6627491	0	0	-21.3023	21.42185
11.00954	0.04410296	-0.6627491	0	0	0	0
11.0261	0.04586256	-0.6637834	0.1062153	-0.06243524	3.243392	-1.906523
11.04267	0.04586256	-0.6637834	0	0	-3.20577	1.884408
11.05964	0.04586256	-0.6637834	0	0	0	0
11.0758	0.05008965	-0.6592903	0.2615618	0.2780265	7.894859	8.391823
11.09237	0.05008965	-0.6592903	0	0	-7.990776	-8.493778
11.10894	0.05008965	-0.6592903	0	0	0	0
11.1255	0.06262852	-0.6460066	0.7568476	0.8018039	22.84236	24.19919
11.14207	0.06262852	-0.6460066	0	0	-22.84368	-24.20058
11.15864	0.06262852	-0.6460066	0	0	0	0
11.1752	0.06933604	-0.6389887	0.4048904	0.4236263	12.22032	12.7858
11.19177	0.06933604	-0.6389887	0	0	-12.21997	-12.78543
11.20923	0.06933604	-0.6389887	0	0	0	0
11.2249	0.0890272	-0.6186571	1.256477	1.29734	37.92382	39.15718
11.24147	0.0890272	-0.6186571	0	0	-38.97271	-40.24018
11.25804	0.0890272	-0.6186571	0	0	0	0
11.27482	0.1105475	-0.5968709	1.282429	1.298278	38.45586	38.93111
11.29117	0.1105475	-0.5968709	0	0	-38.70602	-39.18436
11.30774	0.1105475	-0.5968709	0	0	0	0
11.3243	0.1223853	-0.5851924	0.7146555	0.7050384	21.57021	21.27994
11.3411	0.1223853	-0.5851924	0	0	-21.41793	-21.12971
11.35744	0.1223853	-0.5851924	0	0	0	0
11.374	0.1287574	-0.5788003	0.3847108	0.3859181	11.69373	11.73042
11.39058	0.1287574	-0.5788003	0	0	-11.60859	-11.64502
11.40714	0.1287574	-0.5788003	0	0	0	0
11.4237	0.1287315	-0.5788261	-0.0015625	-0.0015616	-0.047174	-0.04714684
11.44027	0.1287315	-0.5788261	0	0	0.04715635	0.0471292
11.4569	0.1287315	-0.5788261	0	0	0	0
11.47341	0.1287056	-0.5788003	-0.001567916	0.001567013	-0.04731026	0.04728303
11.48997	0.1287056	-0.5788003	0	0	0.04741532	-0.04738803
11.50654	0.1287056	-0.5788003	0	0	0	0
11.5231	0.1286539	-0.5787484	-0.00312518	0.003130578	-0.09432898	0.09449189
11.53967	0.1286539	-0.5787484	0	0	0.09432083	-0.09448373
11.55624	0.1286539	-0.5787484	0	0	0	0
11.57705	0.1286021	-0.5787484	-0.002487341	0	-0.06654335	0
11.59367	0.1286021	-0.5787484	0	0	0.06645518	0
11.61019	0.1285503	-0.5787484	-0.003132936	0	-0.09453587	0
11.62675	0.1285503	-0.5787484	0	0	0.09468573	0
11.64338	0.1285503	-0.5787484	0	0	0	0
11.65989	0.1284468	-0.5788521	-0.006272751	-0.006279973	-0.1893174	-0.1895354
11.67645	0.1284468	-0.5788521	0	0	0.1896723	0.1898907
11.69302	0.1284468	-0.5788521	0	0	0	0
11.70959	0.1282915	-0.5790076	-0.00937446	-0.009387054	-0.2829381	-0.2833181
11.72615	0.1282915	-0.5790076	0	0	0.2829381	0.2833181
11.74272	0.1282915	-0.5790076	0	0	0	0
11.75928	0.1281362	-0.5790594	-0.00937536	-0.003130217	-0.2829652	-0.09447557
11.77585	0.1281362	-0.5790594	0	0	0.2829571	0.09447286
11.79242	0.1281362	-0.5790594	0	0	0	0
11.80899	0.1271006	-0.5787484	-0.06250809	0.01877302	-1.886552	0.5665873
11.82555	0.1271006	-0.5787484	0	0	1.886661	-0.5666199
11.84212	0.1271006	-0.5787484	0	0	0	0
11.85868	0.1263237	-0.5784893	-0.04689929	0.01564209	-1.415505	0.4721064
11.87525	0.1263237	-0.5784893	0	0	1.415586	-0.4721336
11.89182	0.1263237	-0.5784893	0	0	0	0
11.90838	0.1256762	-0.5780489	-0.03908634	0.02658166	-1.179594	0.802213
11.92495	0.1256762	-0.5780489	0	0	1.179662	-0.8022592
11.94152	0.1256762	-0.5780489	0	0	0	0
11.95808	0.122826	-0.5752553	-0.1720527	0.1686359	-5.192858	5.089736
11.97465	0.122826	-0.5752553	0	0	5.193157	-5.090029
11.99122	0.122826	-0.5752553	0	0	0	0
12.00801	0.1225667	-0.5753586	-0.01543205	-0.006153125	-0.4625186	-0.1844172
12.02435	0.1225667	-0.5753586	0	0	0.4657402	0.1857017
12.0415	0.1225667	-0.5753586	0	0	0	0
12.05751	0.122126	-0.575798	-0.0275168	-0.02743167	-0.8297662	-0.8271991
12.07405	0.122126	-0.575798	0	0	0.8452749	0.8426598
12.09062	0.122126	-0.575798	0	0	0	0
12.10719	0.1221001	-0.5758238	-0.001563579	-0.001560433	-0.04717532	-0.0470804
12.12375	0.1221001	-0.5758238	0	0	0.04719297	0.04709801
12.14032	0.1221001	-0.5758238	0	0	0	0
12.15688	0.1220742	-0.5758497	-0.001565109	-0.001561511	-0.04723779	-0.0471292
12.17347	0.1220742	-0.5758497	0	0	0.04721061	0.04710208
12.19001	0.1220742	-0.5758497	0	0	0	0
12.20658	0.1220483	-0.5758238	-0.001565018	0.001561421	-0.04725955	0.04715091
12.22315	0.1220483	-0.5758238	0	0	0.04723371	-0.04712512
12.23971	0.1220483	-0.5758238	0	0	0	0
12.25689	0.1217631	-0.5758497	-0.01660172	-0.001505857	-0.4919786	-0.04462484
12.27285	0.1217631	-0.5758497	0	0	0.5010555	0.04544816
12.28957	0.1217631	-0.5758497	0	0	0	0
12.30605	0.1183652	-0.5778936	-0.2062376	-0.1240558	-6.212105	-3.736697
12.32261	0.1183652	-0.5778936	0	0	6.241869	3.754601
12.33998	0.1183652	-0.5778936	0	0	0	0
12.35568	0.08866169	-0.5490583	-1.89167	1.83638	-57.20598	55.53395
12.37225	0.08866169	-0.5490583	0	0	58.62104	-56.90765
12.38882	0.08866169	-0.5490583	0	0	0	0
12.40538	0.04281592	-0.505514	-2.767256	2.628342	-83.51354	79.32125
12.42227	0.04281592	-0.505514	0	0	82.72546	-78.57272
12.4393	0.04281592	-0.505514	0	0	0	0
12.45508	-0.001868419	-0.4645691	-2.831798	2.594815	-86.2959	79.07411
12.47215	-0.001868419	-0.4645691	0	0	86.21822	-79.00293
12.48872	-0.001868419	-0.4645691	0	0	0	0
12.50478	-0.02596785	-0.4430097	-1.500688	1.34252	-45.98437	41.13775
12.52135	-0.02596785	-0.4430097	0	0	45.99781	-41.14978
12.53792	-0.02596785	-0.4430097	0	0	0	0
12.55448	-0.04825199	-0.4233329	-1.345151	1.187761	-40.59674	35.84669
12.57105	-0.04825199	-0.4233329	0	0	40.60025	-35.84979
12.58761	-0.04825199	-0.4233329	0	0	0	0
12.60418	-0.05518077	-0.4173519	-0.4181736	0.360974	-12.62014	10.8939
12.62075	-0.05518077	-0.4173519	0	0	12.62014	-10.8939
12.63751	-0.05518077	-0.4173519	0	0	0	0
12.65388	-0.05523324	-0.4173978	-0.003205519	-0.002805654	-0.09674554	-0.08467725
12.67045	-0.05523324	-0.4173978	0	0	0.09732823	0.08518725
12.68708	-0.05523324	-0.4173978	0	0	0	0
12.70358	-0.055207	-0.4174208	0.001589863	-0.001392541	0.04798079	-0.04202577
12.72016	-0.055207	-0.4174208	0	0	-0.04806794	0.04210211
12.73672	-0.055207	-0.4174208	0	0	0	0
12.75328	-0.05510206	-0.4176044	0.006335596	-0.01108836	0.1912802	-0.3347726
12.76987	-0.05510206	-0.4176044	0	0	-0.1910822	0.334426
12.78647	-0.05510206	-0.4176044	0	0	0	0
12.80338	-0.05507582	-0.4177192	0.001551309	-0.006788574	0.04629231	-0.2025765
12.81955	-0.05507582	-0.4177192	0	0	-0.04690094	0.2052399
12.83613	-0.05507582	-0.4177192	0	0	0	0
12.85276	-0.05507582	-0.4177192	0	0	0	0
12.86925	-0.05507582	-0.4177192	0	0	0	0
12.88582	-0.05507582	-0.4177192	0	0	0	0
12.90698	-0.05499712	-0.4177881	0.003720138	-0.003256705	0.0986183	-0.08633302
12.92439	-0.05499712	-0.4177881	0	0	-0.09645534	0.08443951
12.94036	-0.05499712	-0.4177881	0	0	0	0
12.95668	-0.05499712	-0.4177881	0	0	0	0
12.97357	-0.05499712	-0.4177881	0	0	0	0
12.98981	-0.05502335	-0.4178111	-0.001615446	-0.001414949	-0.04875566	-0.04270447
13.00638	-0.05502335	-0.4178111	0	0	0.04923893	0.04312777
13.02295	-0.05502335	-0.4178111	0	0	0	0
13.03951	-0.05497088	-0.4178571	0.003167139	-0.002772061	0.09558719	-0.08366339
13.05617	-0.05497088	-0.4178571	0	0	-0.09531832	0.08342806
13.07286	-0.05497088	-0.4178571	0	0	0	0
13.0899	-0.0549184	-0.417903	0.003078923	-0.002694659	0.09128524	-0.0798924
13.10578	-0.0549184	-0.417903	0	0	-0.09352777	0.08185506
13.12244	-0.0549184	-0.417903	0	0	0	0
13.13891	-0.05489217	-0.4179719	0.001593035	-0.004183555	0.04807929	-0.1262636
13.15548	-0.05489217	-0.4179719	0	0	-0.04822085	0.1266354
13.17205	-0.05489217	-0.4179719	0	0	0	0
13.18899	-0.05460356	-0.4182245	0.0170349	-0.01491345	0.508364	-0.4450548
13.20518	-0.05460356	-0.4182245	0	0	-0.5141439	0.4501148
13.22174	-0.05460356	-0.4182245	0	0	0	0
13.23831	-0.05452485	-0.4184313	0.004751319	-0.01248129	0.1434033	-0.3767078
13.25488	-0.05452485	-0.4184313	0	0	-0.1433951	0.3766861
13.27145	-0.05452485	-0.4184313	0	0	0	0
13.28801	-0.05455109	-0.4184543	-0.001583773	-0.00138701	-0.04780111	-0.04186245
13.30482	-0.05455109	-0.4184543	0	0	0.04745824	0.04156218
13.32115	-0.05455109	-0.4184543	0	0	0	0
13.33771	-0.05452485	-0.4184773	0.001583864	-0.00138709	0.04815175	-0.04216953
13.35428	-0.05452485	-0.4184773	0	0	-0.04780249	0.04186366
13.37084	-0.05452485	-0.4184773	0	0	0	0
13.38772	-0.05455109	-0.4185002	-0.001554422	-0.001361306	-0.04647647	-0.04070238
13.40398	-0.05455109	-0.4185002	0	0	0.04691391	0.04108547
13.4206	-0.05455109	-0.4185002	0	0	0	0
13.43711	-0.05452485	-0.4185232	0.001589354	-0.001390092	0.04796818	-0.04195428
13.45368	-0.05452485	-0.4185232	0	0	-0.04805255	0.04202807
13.4705	-0.05452485	-0.4185232	0	0	0	0
13.48681	-0.05455109	-0.4185462	-0.001608308	-0.001408497	-0.04853884	-0.04250852
13.50338	-0.05455109	-0.4185462	0	0	0.04891048	0.042834
13.51995	-0.05455109	-0.4185462	0	0	0	0
13.53651	-0.05457732	-0.4185691	-0.001583682	-0.00138693	-0.04780111	-0.04186245
13.5531	-0.05457732	-0.4185691	0	0	0.04777361	0.04183837
13.56965	-0.05457732	-0.4185691	0	0	0	0
13.59341	-0.05457732	-0.4185691	0	0	0	0
13.60998	-0.05457732	-0.4185691	0	0	0	0
13.6267	-0.05457732	-0.4185691	0	0	0	0
13.64329	-0.05457732	-0.4185691	0	0	0	0
13.65997	-0.05457732	-0.4185691	0	0	0	0
13.67625	-0.05457732	-0.4185691	0	0	0	0
13.69282	-0.05457732	-0.4185691	0	0	0	0
13.70938	-0.05457732	-0.4185691	0	0	0	0
13.72595	-0.05457732	-0.4185691	0	0	0	0
13.74251	-0.05457732	-0.4185691	0	0	0	0
13.75908	-0.05457732	-0.4185691	0	0	0	0
13.77609	-0.05457732	-0.4185691	0	0	0	0
13.79222	-0.05457732	-0.4185691	0	0	0	0
13.80878	-0.05457732	-0.4185691	0	0	0	0
13.82873	-0.05455109	-0.4185921	0.00131528	-0.001151874	0.03602004	-0.03154503
13.8455	-0.05455109	-0.4185921	0	0	-0.03582449	0.03137377
13.86187	-0.05455109	-0.4185921	0	0	0	0
13.87844	-0.05455109	-0.4185921	0	0	0	0
13.895	-0.05455109	-0.4185921	0	0	0	0
13.91157	-0.05455109	-0.4185921	0	0	0	0
13.92813	-0.05457732	-0.4186151	-0.001583773	-0.00138701	-0.04780111	-0.04186245
13.9447	-0.05457732	-0.4186151	0	0	0.04779974	0.04186125
13.96127	-0.05457732	-0.4186151	0	0	0	0
13.97783	-0.05457732	-0.4186151	0	0	0	0
13.9944	-0.05457732	-0.4186151	0	0	0	0
14.01097	-0.05457732	-0.4186151	0	0	0	0
14.02753	-0.05457732	-0.4186151	0	0	0	0
14.0441	-0.05457732	-0.4186151	0	0	0	0
14.06086	-0.05457732	-0.4186151	0	0	0	0
14.07724	-0.05457732	-0.4186151	0	0	0	0
14.09413	-0.05457732	-0.4186151	0	0	0	0
14.11037	-0.05457732	-0.4186151	0	0	0	0
14.12693	-0.05457732	-0.4186151	0	0	0	0
14.14377	-0.05457732	-0.4186151	0	0	0	0
14.16007	-0.05457732	-0.4186151	0	0	0	0
14.17663	-0.05457732	-0.4186151	0	0	0	0
14.19325	-0.05457732	-0.4186151	0	0	0	0
14.20977	-0.05457732	-0.4186151	0	0	0	0
14.2264	-0.05457732	-0.4186611	0	-0.002764154	0	-0.08338634
14.24292	-0.05457732	-0.4186611	0	0	0	0.08339354
14.25949	-0.05457732	-0.4186611	0	0	0	0
14.29401	-0.05457732	-0.4186611	0	0	0	0
14.31076	-0.05457732	-0.4186611	0	0	0	0
14.32724	-0.05457732	-0.4186611	0	0	0	0
14.34391	-0.05457732	-0.4186611	0	0	0	0
14.36028	-0.05457732	-0.4186611	0	0	0	0
14.37725	-0.05457732	-0.4186611	0	0	0	0
14.39341	-0.05457732	-0.4186611	0	0	0	0
14.41001	-0.05457732	-0.4186611	0	0	0	0
14.42654	-0.05460356	-0.418684	-0.001586696	-0.00138957	-0.04788657	-0.0419373
14.44342	-0.05460356	-0.418684	0	0	0.04749018	0.04159015
14.45968	-0.05460356	-0.418684	0	0	0	0
14.47624	-0.05460356	-0.418684	0	0	0	0
14.49281	-0.05460356	-0.418684	0	0	0	0
14.50938	-0.05460356	-0.418684	0	0	0	0
14.52595	-0.05460356	-0.418684	0	0	0	0
14.54252	-0.05460356	-0.418684	0	0	0	0
14.55926	-0.05460356	-0.418684	0	0	0	0
14.57592	-0.05460356	-0.418684	0	0	0	0
14.59221	-0.05460356	-0.418684	0	0	0	0
14.60878	-0.05460356	-0.418684	0	0	0	0
14.62534	-0.05460356	-0.418684	0	0	0	0
14.64191	-0.05460356	-0.418684	0	0	0	0
14.65849	-0.05460356	-0.418684	0	0	0	0
14.67504	-0.05460356	-0.418684	0	0	0	0
14.692	-0.05460356	-0.418684	0	0	0	0
14.70857	-0.05460356	-0.418684	0	0	0	0
14.72514	-0.0546298	-0.418707	-0.001583226	-0.001386531	-0.04777223	-0.04183716
14.74226	-0.0546298	-0.418707	0	0	0.04698268	0.0411457
14.75931	-0.0546298	-0.418707	0	0	0	0
14.77484	-0.0546298	-0.418707	0	0	0	0
14.79177	-0.0546298	-0.418707	0	0	0	0
14.80798	-0.0546298	-0.418707	0	0	0	0
14.82481	-0.0546298	-0.418707	0	0	0	0
14.84111	-0.0546298	-0.418707	0	0	0	0
14.85768	-0.0546298	-0.418707	0	0	0	0
14.87424	-0.0546298	-0.418707	0	0	0	0
14.89081	-0.0546298	-0.418707	0	0	0	0
14.90826	-0.0546298	-0.418707	0	0	0	0
14.92394	-0.0546298	-0.418707	0	0	0	0
14.94051	-0.0546298	-0.418707	0	0	0	0
14.95739	-0.0546298	-0.418707	0	0	0	0
14.97364	-0.0546298	-0.418707	0	0	0	0
14.99057	-0.0546298	-0.418707	0	0	0	0
15.00694	-0.0546298	-0.418707	0	0	0	0
15.02334	-0.0546298	-0.418707	0	0	0	0
15.03991	-0.0546298	-0.418707	0	0	0	0
15.05647	-0.0546298	-0.418707	0	0	0	0
15.07304	-0.0546298	-0.418707	0	0	0	0
15.08961	-0.0546298	-0.418707	0	0	0	0
15.10617	-0.0546298	-0.418707	0	0	0	0
15.12274	-0.0546298	-0.418707	0	0	0	0
15.13936	-0.0546298	-0.418707	0	0	0	0
15.15589	-0.0546298	-0.418707	0	0	0	0
15.17288	-0.0546298	-0.418707	0	0	0	0
15.18901	-0.0546298	-0.418707	0	0	0	0
15.20557	-0.0546298	-0.418707	0	0	0	0
15.22214	-0.0546298	-0.418707	0	0	0	0
15.23871	-0.0546298	-0.418707	0	0	0	0
15.25527	-0.0546298	-0.418707	0	0	0	0
15.27184	-0.0546298	-0.418707	0	0	0	0
15.28841	-0.0546298	-0.418707	0	0	0	0
15.30497	-0.0546298	-0.418707	0	0	0	0
15.32184	-0.0546298	-0.418707	0	0	0	0
15.33834	-0.0546298	-0.418707	0	0	0	0
15.35467	-0.0546298	-0.418707	0	0	0	0
15.37124	-0.0546298	-0.418707	0	0	0	0
15.38781	-0.0546298	-0.418707	0	0	0	0
15.40438	-0.0546298	-0.418707	0	0	0	0
15.42101	-0.0546298	-0.418707	0	0	0	0
15.43803	-0.0546298	-0.418707	0	0	0	0
15.45407	-0.0546298	-0.418707	0	0	0	0
15.47064	-0.0546298	-0.418707	0	0	0	0
15.48721	-0.0546298	-0.418707	0	0	0	0
15.50377	-0.0546298	-0.418707	0	0	0	0
15.52065	-0.0546298	-0.418707	0	0	0	0
15.53691	-0.0546298	-0.418707	0	0	0	0
15.55369	-0.0546298	-0.418707	0	0	0	0
15.57014	-0.0546298	-0.418707	0	0	0	0
15.58681	-0.0546298	-0.418707	0	0	0	0
15.60317	-0.0546298	-0.418707	0	0	0	0
15.62096	-0.0546298	-0.418707	0	0	0	0
15.63758	-0.0546298	-0.418707	0	0	0	0
15.65459	-0.0546298	-0.418707	0	0	0	0
15.67107	-0.0546298	-0.418707	0	0	0	0
15.68723	-0.0546298	-0.418707	0	0	0	0
15.70411	-0.0546298	-0.418707	0	0	0	0
15.72048	-0.0546298	-0.418707	0	0	0	0
15.73693	-0.0546298	-0.418707	0	0	0	0
15.7535	-0.0546298	-0.418707	0	0	0	0
15.77009	-0.0546298	-0.418707	0	0	0	0
15.7871	-0.0546298	-0.418707	0	0	0	0
15.80362	-0.0546298	-0.418707	0	0	0	0
15.81976	-0.0546298	-0.418707	0	0	0	0
15.83633	-0.0546298	-0.418707	0	0	0	0
15.85312	-0.0546298	-0.418707	0	0	0	0
15.86946	-0.0546298	-0.418707	0	0	0	0
15.88615	-0.0546298	-0.418707	0	0	0	0
15.93274	-0.0546298	-0.418707	0	0	0	0
15.94931	-0.0546298	-0.418707	0	0	0	0
15.96588	-0.0546298	-0.418707	0	0	0	0
15.98245	-0.0546298	-0.418707	0	0	0	0
15.99935	-0.0546298	-0.418707	0	0	0	0
16.01558	-0.0546298	-0.418707	0	0	0	0
16.03215	-0.0546298	-0.418707	0	0	0	0
16.04902	-0.0546298	-0.418707	0	0	0	0
16.06528	-0.0546298	-0.418707	0	0	0	0
16.08208	-0.0546298	-0.418707	0	0	0	0
16.09861	-0.0546298	-0.418707	0	0	0	0
16.11498	-0.0546298	-0.418707	0	0	0	0
16.13161	-0.0546298	-0.418707	0	0	0	0
16.14811	-0.0546298	-0.418707	0	0	0	0
16.16468	-0.0546298	-0.418707	0	0	0	0
16.18163	-0.0546298	-0.418707	0	0	0	0
16.19781	-0.0546298	-0.418707	0	0	0	0
16.21469	-0.0546298	-0.418707	0	0	0	0
16.23139	-0.0546298	-0.418707	0	0	0	0
16.24751	-0.0546298	-0.418707	0	0	0	0
16.26408	-0.0546298	-0.418707	0	0	0	0
16.28157	-0.0546298	-0.418707	0	0	0	0
16.29721	-0.0546298	-0.418707	0	0	0	0
16.31378	-0.0546298	-0.418707	0	0	0	0
16.33035	-0.0546298	-0.418707	0	0	0	0
16.34712	-0.0546298	-0.418707	0	0	0	0
16.36348	-0.0546298	-0.418707	0	0	0	0
16.38005	-0.0546298	-0.418707	0	0	0	0
16.39661	-0.0546298	-0.418707	0	0	0	0
16.41318	-0.0546298	-0.418707	0	0	0	0
16.4298	-0.0546298	-0.418707	0	0	0	0
16.44631	-0.0546298	-0.418707	0	0	0	0
16.46289	-0.0546298	-0.418707	0	0	0	0
16.47967	-0.0546298	-0.418707	0	0	0	0
16.49601	-0.0546298	-0.418707	0	0	0	0
16.51285	-0.0546298	-0.418707	0	0	0	0
16.52915	-0.0546298	-0.418707	0	0	0	0
16.54588	-0.0546298	-0.418707	0	0	0	0
16.56228	-0.0546298	-0.418707	0	0	0	0
16.57885	-0.0546298	-0.418707	0	0	0	0
16.59541	-0.0546298	-0.418707	0	0	0	0
16.61198	-0.0546298	-0.418707	0	0	0	0
16.62855	-0.0546298	-0.418707	0	0	0	0
16.64513	-0.0546298	-0.418707	0	0	0	0
16.66168	-0.0546298	-0.418707	0	0	0	0
16.67825	-0.0546298	-0.418707	0	0	0	0
16.69481	-0.0546298	-0.418707	0	0	0	0
16.71188	-0.0546298	-0.418707	0	0	0	0
16.72795	-0.0546298	-0.418707	0	0	0	0
16.74451	-0.0546298	-0.418707	0	0	0	0
16.7615	-0.0546298	-0.418707	0	0	0	0
16.77807	-0.0546298	-0.418707	0	0	0	0
16.79421	-0.0546298	-0.418707	0	0	0	0
16.81078	-0.0546298	-0.418707	0	0	0	0
16.82735	-0.0546298	-0.418707	0	0	0	0
16.84392	-0.0546298	-0.418707	0	0	0	0
16.8607	-0.0546298	-0.418707	0	0	0	0
16.87711	-0.0546298	-0.418707	0	0	0	0
16.89362	-0.0546298	-0.418707	0	0	0	0
16.91018	-0.0546298	-0.418707	0	0	0	0
16.92675	-0.0546298	-0.418707	0	0	0	0
16.94374	-0.0546298	-0.418707	0	0	0	0
16.96031	-0.0546298	-0.418707	0	0	0	0
16.97707	-0.0546298	-0.418707	0	0	0	0
16.99363	-0.0546298	-0.418707	0	0	0	0
17.01013	-0.0546298	-0.418707	0	0	0	0
17.02687	-0.0546298	-0.418707	0	0	0	0
17.04314	-0.0546298	-0.418707	0	0	0	0
17.05992	-0.0546298	-0.418707	0	0	0	0
17.0763	-0.0546298	-0.418707	0	0	0	0
17.0951	-0.0546298	-0.418707	0	0	0	0
17.1118	-0.0546298	-0.418707	0	0	0	0
17.12834	-0.0546298	-0.418707	0	0	0	0
17.14493	-0.0546298	-0.418707	0	0	0	0
17.16137	-0.0546298	-0.418707	0	0	0	0
17.17794	-0.0546298	-0.418707	0	0	0	0
17.19451	-0.05465604	-0.41873	-0.001583499	-0.001386771	-0.04779011	-0.04185282
17.21107	-0.05465604	-0.41873	0	0	0.04778735	0.04185041
17.22778	-0.05465604	-0.41873	0	0	0	0
17.24421	-0.05465604	-0.41873	0	0	0	0
17.26077	-0.05465604	-0.41873	0	0	0	0
17.27734	-0.05465604	-0.41873	0	0	0	0
17.29418	-0.05465604	-0.41873	0	0	0	0
17.31047	-0.05465604	-0.41873	0	0	0	0
17.32704	-0.05465604	-0.41873	0	0	0	0
17.34361	-0.05465604	-0.41873	0	0	0	0
17.36017	-0.05465604	-0.41873	0	0	0	0
17.3769	-0.05465604	-0.41873	0	0	0	0
17.39336	-0.05465604	-0.41873	0	0	0	0
17.40987	-0.05465604	-0.41873	0	0	0	0
17.42644	-0.05465604	-0.41873	0	0	0	0
17.443	-0.05465604	-0.41873	0	0	0	0
17.45957	-0.05465604	-0.41873	0	0	0	0
17.47614	-0.05465604	-0.41873	0	0	0	0
17.49304	-0.05465604	-0.41873	0	0	0	0
17.50958	-0.05465604	-0.41873	0	0	0	0
17.5261	-0.05465604	-0.41873	0	0	0	0
17.54279	-0.05465604	-0.41873	0	0	0	0
17.55921	-0.05465604	-0.41873	0	0	0	0
17.57613	-0.05465604	-0.41873	0	0	0	0
17.59224	-0.05465604	-0.41873	0	0	0	0
17.60937	-0.05465604	-0.41873	0	0	0	0
17.62563	-0.05465604	-0.41873	0	0	0	0
17.64181	-0.05465604	-0.41873	0	0	0	0
17.65838	-0.05465604	-0.41873	0	0	0	0
17.67509	-0.05465604	-0.41873	0	0	0	0
17.69658	-0.05465604	-0.41873	0	0	0	0
17.7136	-0.05465604	-0.41873	0	0	0	0
17.72971	-0.05465604	-0.41873	0	0	0	0
17.74676	-0.05465604	-0.41873	0	0	0	0
17.76285	-0.05465604	-0.41873	0	0	0	0
17.77947	-0.05465604	-0.41873	0	0	0	0
17.79598	-0.05465604	-0.41873	0	0	0	0
17.81255	-0.05465604	-0.41873	0	0	0	0
17.82911	-0.05465604	-0.41873	0	0	0	0
17.84568	-0.05465604	-0.41873	0	0	0	0
17.86225	-0.05465604	-0.41873	0	0	0	0
17.87881	-0.05465604	-0.41873	0	0	0	0
17.89538	-0.05465604	-0.41873	0	0	0	0
17.91195	-0.05465604	-0.41873	0	0	0	0
17.92851	-0.05494464	-0.4185691	-0.01742027	0.009708511	-0.5257449	0.2930034
17.94519	-0.05494464	-0.4185691	0	0	0.5240555	-0.292062
17.96178	-0.05494464	-0.4185691	0	0	0	0
17.97836	-0.05662362	-0.417283	-0.1012731	0.07757852	-3.053088	2.338767
17.99502	-0.05662362	-0.417283	0	0	3.046782	-2.333935
18.01135	-0.05662362	-0.417283	0	0	0	0
18.02791	-0.08443038	-0.405301	-1.678806	0.723403	-51.03665	21.99185
18.04448	-0.08443038	-0.405301	0	0	50.67231	-21.83486
18.06105	-0.08443038	-0.405301	0	0	0	0
18.07762	-0.1797238	-0.3868258	-5.749275	1.114652	-173.4735	33.63253
18.09418	-0.1797238	-0.3868258	0	0	173.5135	-33.64027
18.11122	-0.1797238	-0.3868258	0	0	0	0
18.12732	-0.2577667	-0.3637206	-4.847403	1.435108	-146.3033	43.31415
18.14388	-0.2577667	-0.3637206	0	0	148.3876	-43.93123
18.16045	-0.2577667	-0.3637206	0	0	0	0
18.17702	-0.293146	-0.3431274	-2.135498	1.243008	-64.44946	37.51405
18.19358	-0.293146	-0.3431274	0	0	64.45318	-37.51621
18.21015	-0.293146	-0.3431274	0	0	0	0
18.22733	-0.3163488	-0.3219814	-1.350463	1.23075	-40.01534	36.46814
18.24328	-0.3163488	-0.3219814	0	0	40.75705	-37.1441
18.26072	-0.3163488	-0.3219814	0	0	0	0
18.27641	-0.328941	-0.310504	-0.8024759	0.7314312	-24.22156	22.07718
18.29324	-0.328941	-0.310504	0	0	24.6805	-22.49549
18.30975	-0.328941	-0.310504	0	0	0	0
18.32612	-0.3298129	-0.3097085	-0.05325389	0.04859169	-1.619699	1.4779
18.34268	-0.3298129	-0.3097085	0	0	1.616792	-1.475247
18.35925	-0.3298129	-0.3097085	0	0	0	0
18.38085	-0.3299778	-0.3095151	-0.007635853	0.008956566	-0.2000893	0.2346971
18.39742	-0.3299778	-0.3095151	0	0	0.2000793	-0.2346854
18.41398	-0.3299542	-0.3095366	0.001422908	-0.001296986	0.04294096	-0.03914088
18.43076	-0.3299542	-0.3095366	0	0	-0.04267079	0.03889461
18.44711	-0.3299542	-0.3095366	0	0	0	0
18.46368	-0.3299306	-0.3095581	0.001421109	-0.001296986	0.04316745	-0.03939713
18.48025	-0.3299306	-0.3095581	0	0	-0.04288915	0.03914313
18.49682	-0.3299306	-0.3095581	0	0	0	0
18.51363	-0.3299306	-0.3095581	0	0	0	0
18.53025	-0.3299306	-0.3095581	0	0	0	0
18.54652	-0.3299306	-0.3095581	0	0	0	0
18.56336	-0.3298835	-0.309601	0.002797953	-0.002551959	0.08452023	-0.07708929
18.57965	-0.3298835	-0.309601	0	0	-0.08444724	0.07702272
18.59705	-0.3298835	-0.309601	0	0	0	0
18.61278	-0.3298835	-0.309601	0	0	0	0
18.62935	-0.3298835	-0.309601	0	0	0	0
18.64592	-0.3298835	-0.309601	0	0	0	0
18.66248	-0.32986	-0.3095796	0.001421109	0.001296986	0.04288915	0.03914313
18.6794	-0.32986	-0.3095796	0	0	-0.04244447	-0.03873729
18.69562	-0.32986	-0.3095796	0	0	0	0
18.71243	-0.32986	-0.3095796	0	0	0	0
18.72911	-0.32986	-0.3095796	0	0	0	0
18.74532	-0.32986	-0.3095796	0	0	0	0
18.76188	-0.3297893	-0.309601	0.004265125	-0.001296986	0.13013	-0.03957137
18.77845	-0.3297893	-0.309601	0	0	-0.1287291	0.03914538
18.79502	-0.3297893	-0.309601	0	0	0	0
18.81158	-0.3296951	-0.309687	0.005688033	-0.005189745	0.1716553	-0.1566178
18.82815	-0.3296951	-0.309687	0	0	-0.171675	0.1566358
18.84472	-0.3296951	-0.309687	0	0	0	0
18.86128	-0.3294595	-0.309902	0.01422336	-0.01297825	0.4293112	-0.3917295
18.87785	-0.3294595	-0.309902	0	0	-0.4292617	0.3916844
18.89442	-0.3294595	-0.309902	0	0	0	0
18.91098	-0.3294124	-0.309945	0.002844671	-0.00259637	0.08586223	-0.07836761
18.92755	-0.3294124	-0.309945	0	0	-0.08586717	0.07837213
18.94435	-0.3294124	-0.309945	0	0	0	0
18.96068	-0.3294124	-0.309945	0	0	0	0
18.97725	-0.3294124	-0.309945	0	0	0	0
18.99423	-0.3294124	-0.309945	0	0	0	0
19.01038	-0.3294124	-0.309945	0	0	0	0
19.02695	-0.3294124	-0.309945	0	0	0	0
19.0443	-0.3294124	-0.309945	0	0	0	0
19.0605	-0.3294124	-0.309945	0	0	0	0
19.07692	-0.3294124	-0.309945	0	0	0	0
19.09358	-0.3294124	-0.309945	0	0	0	0
19.10978	-0.3294124	-0.309945	0	0	0	0
19.12635	-0.3294124	-0.309945	0	0	0	0
19.14292	-0.3294124	-0.309945	0	0	0	0
19.15948	-0.3294124	-0.309945	0	0	0	0
19.17605	-0.3294124	-0.309945	0	0	0	0
19.19272	-0.3294124	-0.309945	0	0	0	0
19.20918	-0.3293653	-0.309945	0.002862803	0	0.08640453	0
19.22575	-0.3293653	-0.309945	0	0	-0.08668398	0
19.24232	-0.3293653	-0.309945	0	0	0	0
19.25926	-0.3285639	-0.310504	0.04728651	-0.03298572	1.410947	-0.9842364
19.27579	-0.3285639	-0.310504	0	0	-1.412796	0.9855264
19.29202	-0.3285639	-0.310504	0	0	0	0
19.3088	-0.3113253	-0.3261205	1.027159	-0.930507	31.11254	-28.18497
19.32515	-0.3113253	-0.3261205	0	0	-31.00328	28.08599
19.34237	-0.3113253	-0.3261205	0	0	0	0
19.35828	-0.2845134	-0.3504844	1.684904	-1.531068	50.85344	-46.21039
19.37485	-0.2845134	-0.3504844	0	0	-51.86561	47.13015
19.39142	-0.2845134	-0.3504844	0	0	0	0
19.40798	-0.2497284	-0.3817023	2.100355	-1.884967	63.39614	-56.89498
19.42456	-0.2497284	-0.3817023	0	0	-63.38884	56.88843
19.44188	-0.2497284	-0.3817023	0	0	0	0
19.45793	-0.2195604	-0.4086757	1.880256	-1.681149	56.34405	-50.3776
19.47425	-0.2195604	-0.4086757	0	0	-58.08364	51.93298
19.49082	-0.2195604	-0.4086757	0	0	0	0
19.50748	-0.2043695	-0.4216973	0.9116765	-0.7814861	27.43549	-23.51761
19.52396	-0.2043695	-0.4216973	0	0	-27.51445	23.5853
19.54052	-0.2043695	-0.4216973	0	0	0	0
19.55708	-0.1917212	-0.4276032	0.7637193	-0.3566092	23.0544	-10.76497
19.57365	-0.1917212	-0.4276032	0	0	-23.05308	10.76435
19.59053	-0.1917212	-0.4276032	0	0	0	0
19.60678	-0.1818374	-0.4217663	0.6079946	0.3590542	18.35037	10.8369
19.62354	-0.1818374	-0.4217663	0	0	-18.41504	-10.87509
19.63992	-0.1818374	-0.4217663	0	0	0	0
19.65648	-0.1751601	-0.4156998	0.4030453	0.3661765	12.23507	11.11586
19.67308	-0.1751601	-0.4156998	0	0	-12.15484	-11.04297
19.68962	-0.1751601	-0.4156998	0	0	0	0
19.70634	-0.1750835	-0.4152183	0.004579649	0.02880241	0.137691	0.8659685
19.72311	-0.1750835	-0.4152183	0	0	-0.1367499	-0.86005
19.73947	-0.1750835	-0.4152183	0	0	0	0
19.75604	-0.1639877	-0.4049366	0.6697434	0.6206053	20.33699	18.84489
19.77316	-0.1639877	-0.4049366	0	0	-19.88439	-18.4255
19.78917	-0.1639877	-0.4049366	0	0	0	0
19.80574	-0.1359974	-0.3799085	1.689498	1.5107	51.84871	46.36161
19.82268	-0.1359974	-0.3799085	0	0	-50.42314	-45.08691
19.8397	-0.1359974	-0.3799085	0	0	0	0
19.85544	-0.1130943	-0.3598647	1.455142	1.273472	44.4174	38.87202
19.87201	-0.1130943	-0.3598647	0	0	-45.04152	-39.41822
19.88922	-0.1130943	-0.3598647	0	0	0	0
19.90524	-0.1014401	-0.3496702	0.7277465	0.6365959	21.9004	19.15736
19.92175	-0.1014401	-0.3496702	0	0	-22.3756	-19.57305
19.93827	-0.1014401	-0.3496702	0	0	0	0
19.95484	-0.09818328	-0.3469227	0.1966042	0.1658625	5.941051	5.012087
19.97141	-0.09818328	-0.3469227	0	0	-5.933869	-5.006028
19.98797	-0.09818328	-0.3469227	0	0	0	0
20.00454	-0.08874001	-0.338991	0.5699968	0.4787589	17.20353	14.44981
20.0211	-0.08874001	-0.338991	0	0	-17.20353	-14.44981
20.03783	-0.08874001	-0.338991	0	0	0	0
20.05424	-0.08362034	-0.3347118	0.3120055	0.2607793	9.416887	7.870789
20.07084	-0.08362034	-0.3347118	0	0	-9.452256	-7.900351
20.08739	-0.08362034	-0.3347118	0	0	0	0
20.10394	-0.07935929	-0.3312049	0.2574937	0.2119262	7.779237	6.40258
20.12091	-0.07935929	-0.3312049	0	0	-7.681416	-6.32207
20.13707	-0.07935929	-0.3312049	0	0	0	0
20.15393	-0.079307	-0.3311178	0.003101229	0.005160615	0.09391425	0.1562784
20.1702	-0.079307	-0.3311178	0	0	-0.09359529	-0.1557477
20.18677	-0.079307	-0.3311178	0	0	0	0
20.20346	-0.07920239	-0.3310743	0.006267141	0.002606845	0.1884376	0.07838146
20.21998	-0.07920239	-0.3310743	0	0	-0.1887082	-0.078494
20.2365	-0.07920239	-0.3310743	0	0	0	0
20.25304	-0.07915009	-0.3310743	0.003162481	0	0.09566967	0
20.2696	-0.07915009	-0.3310743	0	0	-0.09553187	0
20.28652	-0.07915009	-0.3310743	0	0	0	0
20.30282	-0.07904548	-0.3309873	0.006417476	0.005340583	0.1931905	0.1607719
20.31954	-0.07904548	-0.3309873	0	0	-0.1943735	-0.1617564
20.33596	-0.07904548	-0.3309873	0	0	0	0
20.35253	-0.07896703	-0.3310526	0.004736075	-0.003941782	0.1435714	-0.1194929
20.36909	-0.07896703	-0.3310526	0	0	-0.1429433	0.1189701
20.38608	-0.07896703	-0.3310526	0	0	0	0
20.40223	-0.07873166	-0.3312484	0.01457967	-0.01213042	0.4400407	-0.3661179
20.41912	-0.07873166	-0.3312484	0	0	-0.4413619	0.3672171
20.43536	-0.07873166	-0.3312484	0	0	0	0
20.45193	-0.07867935	-0.3313355	0.00315747	-0.005254504	0.09623436	-0.1601484
20.46866	-0.07867935	-0.3313355	0	0	-0.0948232	0.1578001
20.48515	-0.07867935	-0.3313355	0	0	0	0
20.50163	-0.07867935	-0.3313355	0	0	0	0
20.51819	-0.07867935	-0.3313355	0	0	0	0
20.53476	-0.07867935	-0.3313355	0	0	0	0
20.55132	-0.07873166	-0.331379	-0.003157833	-0.002626655	-0.09530908	-0.07927717
20.56789	-0.07873166	-0.331379	0	0	0.09530908	0.07927717
20.58446	-0.07873166	-0.331379	0	0	0	0
20.60102	-0.07878396	-0.3314225	-0.00315702	-0.002626353	-0.09528454	-0.07926805
20.61759	-0.07878396	-0.3314225	0	0	0.09527905	0.07926348
20.63416	-0.07878396	-0.3314225	0	0	0	0
20.65079	-0.07883627	-0.331466	-0.003144437	-0.002617304	-0.09470305	-0.07882704
20.66729	-0.07883627	-0.331466	0	0	0.0948993	0.07899039
20.68386	-0.07883627	-0.331466	0	0	0	0
20.70043	-0.07888857	-0.3315095	-0.00315702	-0.002626353	-0.09528454	-0.07926805
20.71699	-0.07888857	-0.3315095	0	0	0.09527905	0.07926348
20.73356	-0.07888857	-0.3315095	0	0	0	0
20.75013	-0.07894088	-0.3315531	-0.003157384	-0.002628454	-0.09529551	-0.07933147
20.76669	-0.07894088	-0.3315531	0	0	0.09529551	0.07933147
20.78349	-0.07894088	-0.3315531	0	0	0	0
20.8	-0.07901933	-0.3316619	-0.004751394	-0.006591487	-0.1426501	-0.1978948
20.81639	-0.07901933	-0.3316619	0	0	0.1443948	0.2003152
20.83296	-0.07901933	-0.3316619	0	0	0	0
20.84953	-0.07901933	-0.331749	0	-0.005255109	0	-0.1586178
20.86609	-0.07901933	-0.331749	0	0	0	0.1586086
20.88305	-0.07901933	-0.331749	0	0	0	0
20.89922	-0.07907163	-0.331836	-0.00323333	-0.005383357	-0.09759334	-0.1624887
20.91579	-0.07907163	-0.331836	0	0	0.09874163	0.1644006
20.93237	-0.07907163	-0.331836	0	0	0	0
20.94892	-0.07909779	-0.3319013	-0.001580329	-0.003945871	-0.04769993	-0.1191003
20.96565	-0.07909779	-0.3319013	0	0	0.04749213	0.1185815
20.98239	-0.07909779	-0.3319013	0	0	0	0
20.99863	-0.07915009	-0.3319449	-0.003220798	-0.002681246	-0.09767053	-0.08130863
21.01554	-0.07915009	-0.3319449	0	0	0.09714237	0.08086894
21.03176	-0.07915009	-0.3319449	0	0	0	0
21.04832	-0.07920239	-0.3319884	-0.003157384	-0.002628454	-0.09631572	-0.08018078
21.06556	-0.07920239	-0.3319884	0	0	0.09341864	0.07776902
21.08221	-0.07920239	-0.3319884	0	0	0	0
21.09802	-0.07928085	-0.3320537	-0.004961738	-0.004129599	-0.1528336	-0.1272016
21.11459	-0.07928085	-0.3320537	0	0	0.1532297	0.1275313
21.13139	-0.07928085	-0.3320537	0	0	0	0
21.15139	-0.0810327	-0.333513	-0.0875991	-0.07297032	-2.380756	-1.983177
21.16796	-0.0810327	-0.333513	0	0	2.395408	1.995382
21.1846	-0.0810327	-0.333513	0	0	0	0
21.20109	-0.0812157	-0.3337091	-0.01109836	-0.01189271	-0.3349684	-0.3589434
21.21766	-0.0812157	-0.3337091	0	0	0.3357415	0.3597719
21.23479	-0.0812157	-0.3337091	0	0	0	0
21.2508	-0.08118956	-0.3337309	0.001633734	-0.001361368	0.04930053	-0.04108143
21.26736	-0.08118956	-0.3337309	0	0	-0.05016676	0.04180325
21.28475	-0.08118956	-0.3337309	0	0	0	0
21.30067	-0.08118956	-0.3337309	0	0	0	0
21.31718	-0.08118956	-0.3337309	0	0	0	0
21.33362	-0.08118956	-0.3337309	0	0	0	0
21.35037	-0.08118956	-0.3337309	0	0	0	0
21.36676	-0.08118956	-0.3337309	0	0	0	0
21.38362	-0.08118956	-0.3337309	0	0	0	0
21.40006	-0.08118956	-0.3337309	0	0	0	0
21.41672	-0.08118956	-0.3337309	0	0	0	0
21.43302	-0.08118956	-0.3337309	0	0	0	0
21.4499	-0.08118956	-0.3337309	0	0	0	0
21.46638	-0.08118956	-0.3337309	0	0	0	0
21.48272	-0.08118956	-0.3337309	0	0	0	0
21.49929	-0.08118956	-0.3337309	0	0	0	0
21.51586	-0.08118956	-0.3337309	0	0	0	0
21.53242	-0.08118956	-0.3337309	0	0	0	0
21.54899	-0.08116341	-0.3337527	0.00157806	-0.001316774	0.04762869	-0.03974261
21.56568	-0.08116341	-0.3337527	0	0	-0.04745114	0.03959445
21.58212	-0.08116341	-0.3337527	0	0	0	0
21.59868	-0.08116341	-0.3337527	0	0	0	0
21.61559	-0.08116341	-0.3337527	0	0	0	0
21.63207	-0.08116341	-0.3337527	0	0	0	0
21.64843	-0.08116341	-0.3337527	0	0	0	0
21.66495	-0.08116341	-0.3337527	0	0	0	0
21.68152	-0.08116341	-0.3337527	0	0	0	0
21.69871	-0.08116341	-0.3337527	0	0	0	0
21.71542	-0.08116341	-0.3337527	0	0	0	0
21.73197	-0.08116341	-0.3337527	0	0	0	0
21.74841	-0.08116341	-0.3337527	0	0	0	0
21.76498	-0.08116341	-0.3337527	0	0	0	0
21.78155	-0.08116341	-0.3337527	0	0	0	0
21.79811	-0.08116341	-0.3337527	0	0	0	0
21.81468	-0.08116341	-0.3337527	0	0	0	0
21.83125	-0.08116341	-0.3337527	0	0	0	0
21.84781	-0.08116341	-0.3337527	0	0	0	0
21.86469	-0.08116341	-0.3337527	0	0	0	0
21.88095	-0.08116341	-0.3337527	0	0	0	0
21.89751	-0.08116341	-0.3337527	0	0	0	0
21.91408	-0.08116341	-0.3337527	0	0	0	0
21.93076	-0.08116341	-0.3337527	0	0	0	0
21.94721	-0.08116341	-0.3337527	0	0	0	0
21.96407	-0.08116341	-0.3337527	0	0	0	0
21.98036	-0.08116341	-0.3337527	0	0	0	0
21.99691	-0.08116341	-0.3337527	0	0	0	0
22.01348	-0.08116341	-0.3337527	0	0	0	0
22.03031	-0.08116341	-0.3337527	0	0	0	0
22.04661	-0.08116341	-0.3337527	0	0	0	0
22.06318	-0.08116341	-0.3337527	0	0	0	0
22.07976	-0.08116341	-0.3337527	0	0	0	0
22.09672	-0.08116341	-0.3337527	0	0	0	0
22.11288	-0.08116341	-0.3337527	0	0	0	0
22.12945	-0.08116341	-0.3337527	0	0	0	0
22.14601	-0.08116341	-0.3337527	0	0	0	0
22.16258	-0.08116341	-0.3337527	0	0	0	0
22.17915	-0.08116341	-0.3337527	0	0	0	0
22.19571	-0.08116341	-0.3337527	0	0	0	0
22.21285	-0.08116341	-0.3337527	0	0	0	0
22.22891	-0.08116341	-0.3337527	0	0	0	0
22.24541	-0.08116341	-0.3337527	0	0	0	0
22.26202	-0.08116341	-0.3337527	0	0	0	0
22.27865	-0.08116341	-0.3337527	0	0	0	0
22.29511	-0.08113727	-0.3337745	0.001588484	-0.001323662	0.04800964	-0.04000575
22.31168	-0.08113727	-0.3337745	0	0	-0.04809559	0.04007738
22.32825	-0.08113727	-0.3337745	0	0	0	0
22.34481	-0.08113727	-0.3337745	0	0	0	0
22.3614	-0.08113727	-0.3337745	0	0	0	0
22.37794	-0.08113727	-0.3337745	0	0	0	0
22.39451	-0.08113727	-0.3337745	0	0	0	0
22.41108	-0.08113727	-0.3337745	0	0	0	0
22.42787	-0.08113727	-0.3337745	0	0	0	0
22.44421	-0.08113727	-0.3337745	0	0	0	0
22.461	-0.08113727	-0.3337745	0	0	0	0
22.47835	-0.08113727	-0.3337745	0	0	0	0
22.49391	-0.08113727	-0.3337745	0	0	0	0
22.51048	-0.08113727	-0.3337745	0	0	0	0
22.52725	-0.08113727	-0.3337745	0	0	0	0
22.54361	-0.08113727	-0.3337745	0	0	0	0
22.56018	-0.08113727	-0.3337745	0	0	0	0
22.57679	-0.08113727	-0.3337745	0	0	0	0
22.59332	-0.08113727	-0.3337745	0	0	0	0
22.60988	-0.08113727	-0.3337745	0	0	0	0
22.62683	-0.08113727	-0.3337745	0	0	0	0
22.64351	-0.08113727	-0.3337745	0	0	0	0
22.66084	-0.08113727	-0.3337745	0	0	0	0
22.67665	-0.08113727	-0.3337745	0	0	0	0
22.69376	-0.08113727	-0.3337745	0	0	0	0
22.76532	-0.08113727	-0.3337745	0	0	0	0
22.78189	-0.08113727	-0.3337745	0	0	0	0
22.79875	-0.08113727	-0.3337745	0	0	0	0
22.81574	-0.08113727	-0.3337745	0	0	0	0
22.83158	-0.08113727	-0.3337745	0	0	0	0
22.84815	-0.08113727	-0.3337745	0	0	0	0
22.86476	-0.08113727	-0.3337745	0	0	0	0
22.88128	-0.08113727	-0.3337745	0	0	0	0
22.89785	-0.08113727	-0.3337745	0	0	0	0
22.91442	-0.08113727	-0.3337745	0	0	0	0
22.9311	-0.08113727	-0.3337745	0	0	0	0
22.94763	-0.08113727	-0.3337745	0	0	0	0
22.96412	-0.08113727	-0.3337745	0	0	0	0
22.98068	-0.08113727	-0.3337745	0	0	0	0
22.99725	-0.08113727	-0.3337745	0	0	0	0
23.01382	-0.08113727	-0.3337745	0	0	0	0
23.03039	-0.08113727	-0.3337745	0	0	0	0
23.04695	-0.08113727	-0.3337745	0	0	0	0
23.06352	-0.08113727	-0.3337745	0	0	0	0
23.08008	-0.08113727	-0.3337745	0	0	0	0
23.09665	-0.08111113	-0.3337963	0.00157806	-0.001314975	0.04763144	-0.0396906
23.11354	-0.08111113	-0.3337963	0	0	-0.04716979	0.03930591
23.12979	-0.08111113	-0.3337963	0	0	0	0
23.14635	-0.08111113	-0.3337963	0	0	0	0
23.16293	-0.08111113	-0.3337963	0	0	0	0
23.17949	-0.08111113	-0.3337963	0	0	0	0
23.19677	-0.08111113	-0.3337963	0	0	0	0
23.21262	-0.08111113	-0.3337963	0	0	0	0
23.22935	-0.08111113	-0.3337963	0	0	0	0
23.24575	-0.08111113	-0.3337963	0	0	0	0
23.26232	-0.08111113	-0.3337963	0	0	0	0
23.27888	-0.08111113	-0.3337963	0	0	0	0
23.29545	-0.08111113	-0.3337963	0	0	0	0
23.31202	-0.08111113	-0.3337963	0	0	0	0
23.32912	-0.08111113	-0.3337963	0	0	0	0
23.34515	-0.08111113	-0.3337963	0	0	0	0
23.36172	-0.08111113	-0.3337963	0	0	0	0
23.37842	-0.08111113	-0.3337963	0	0	0	0
23.39486	-0.08111113	-0.3337963	0	0	0	0
23.41142	-0.08111113	-0.3337963	0	0	0	0
23.42798	-0.08111113	-0.3337963	0	0	0	0
23.44455	-0.08111113	-0.3337963	0	0	0	0
23.46111	-0.08111113	-0.3337963	0	0	0	0
23.47768	-0.08111113	-0.3337963	0	0	0	0
23.49425	-0.08111113	-0.3337963	0	0	0	0
23.51081	-0.08111113	-0.3337963	0	0	0	0
23.52744	-0.08111113	-0.3337963	0	0	0	0
23.54395	-0.08111113	-0.3337963	0	0	0	0
23.56051	-0.08111113	-0.3337963	0	0	0	0
23.57713	-0.08111113	-0.3337963	0	0	0	0
23.59403	-0.08111113	-0.3337963	0	0	0	0
23.61023	-0.08111113	-0.3337963	0	0	0	0
23.62678	-0.08111113	-0.3337963	0	0	0	0
23.64335	-0.08111113	-0.3337963	0	0	0	0
23.65993	-0.08111113	-0.3337963	0	0	0	0
23.67649	-0.08111113	-0.3337963	0	0	0	0
23.69305	-0.08111113	-0.3337963	0	0	0	0
23.70962	-0.08111113	-0.3337963	0	0	0	0
23.72618	-0.08111113	-0.3337963	0	0	0	0
23.74275	-0.08111113	-0.3337963	0	0	0	0
23.75932	-0.08111113	-0.3337963	0	0	0	0
23.77599	-0.08111113	-0.3337963	0	0	0	0
23.79792	-0.08111113	-0.3337963	0	0	0	0
23.81449	-0.08111113	-0.3337963	0	0	0	0
23.83106	-0.08111113	-0.3337963	0	0	0	0
23.84792	-0.08111113	-0.3337963	0	0	0	0
23.86419	-0.08111113	-0.3337963	0	0	0	0
23.88076	-0.08111113	-0.3337963	0	0	0	0
23.89732	-0.08111113	-0.3337963	0	0	0	0
23.91407	-0.08111113	-0.3337963	0	0	0	0
23.93052	-0.08111113	-0.3337963	0	0	0	0
23.94709	-0.08111113	-0.3337963	0	0	0	0
23.96453	-0.08111113	-0.3337963	0	0	0	0
23.98015	-0.08111113	-0.3337963	0	0	0	0
23.99672	-0.08111113	-0.3337963	0	0	0	0
24.01354	-0.08111113	-0.3337963	0	0	0	0
24.02985	-0.08111113	-0.3337963	0	0	0	0
24.0466	-0.08111113	-0.3337963	0	0	0	0
24.063	-0.08111113	-0.3337963	0	0	0	0
24.07956	-0.08111113	-0.3337963	0	0	0	0
24.09652	-0.08111113	-0.3337963	0	0	0	0
24.11269	-0.08111113	-0.3337963	0	0	0	0
24.12932	-0.08111113	-0.3337963	0	0	0	0
24.14584	-0.08111113	-0.3337963	0	0	0	0
24.16239	-0.08111113	-0.3337963	0	0	0	0
24.17896	-0.08111113	-0.3337963	0	0	0	0
24.19552	-0.08111113	-0.3337963	0	0	0	0
24.21209	-0.08111113	-0.3337963	0	0	0	0
24.22934	-0.08111113	-0.3337963	0	0	0	0
24.24599	-0.08111113	-0.3337963	0	0	0	0
24.26227	-0.08111113	-0.3337963	0	0	0	0
24.27841	-0.08111113	-0.3337963	0	0	0	0
24.29492	-0.08111113	-0.3337963	0	0	0	0
24.31183	-0.08111113	-0.3337963	0	0	0	0
24.32805	-0.08111113	-0.3337963	0	0	0	0
24.34462	-0.08111113	-0.3337963	0	0	0	0
24.36119	-0.08111113	-0.3337963	0	0	0	0
24.37775	-0.08111113	-0.3337963	0	0	0	0
24.39432	-0.08111113	-0.3337963	0	0	0	0
24.41089	-0.08111113	-0.3337963	0	0	0	0
24.42745	-0.08111113	-0.3337963	0	0	0	0
24.44402	-0.08111113	-0.3337963	0	0	0	0
24.46087	-0.08111113	-0.3337963	0	0	0	0
24.47716	-0.08111113	-0.3337963	0	0	0	0
24.49372	-0.08111113	-0.3337963	0	0	0	0
24.51029	-0.08111113	-0.3337963	0	0	0	0
24.52686	-0.08111113	-0.3337963	0	0	0	0
24.54342	-0.08111113	-0.3337963	0	0	0	0
24.56046	-0.08111113	-0.3337963	0	0	0	0
24.57656	-0.08111113	-0.3337963	0	0	0	0
24.59312	-0.08111113	-0.3337963	0	0	0	0
24.60969	-0.08111113	-0.3337963	0	0	0	0
24.62626	-0.08111113	-0.3337963	0	0	0	0
24.64282	-0.08111113	-0.3337963	0	0	0	0
24.65973	-0.08111113	-0.3337963	0	0	0	0
24.67596	-0.08111113	-0.3337963	0	0	0	0
24.69252	-0.08111113	-0.3337963	0	0	0	0
24.70919	-0.08111113	-0.3337963	0	0	0	0
24.72568	-0.08111113	-0.3337963	0	0	0	0
24.74279	-0.08111113	-0.3337963	0	0	0	0
24.75879	-0.08111113	-0.3337963	0	0	0	0
24.77549	-0.08111113	-0.3337963	0	0	0	0
24.79193	-0.08111113	-0.3337963	0	0	0	0
24.80907	-0.08111113	-0.3337963	0	0	0	0
24.82506	-0.08111113	-0.3337963	0	0	0	0
24.84209	-0.08111113	-0.3337963	0	0	0	0
24.85819	-0.08111113	-0.3337963	0	0	0	0
24.87476	-0.08111113	-0.3337963	0	0	0	0
24.89132	-0.08111113	-0.3337963	0	0	0	0
24.90798	-0.08111113	-0.3337963	0	0	0	0
24.92446	-0.08111113	-0.3337963	0	0	0	0
24.94102	-0.08111113	-0.3337963	0	0	0	0
24.95761	-0.08111113	-0.3337963	0	0	0	0
24.97416	-0.08111113	-0.3337963	0	0	0	0
24.99076	-0.08111113	-0.3337963	0	0	0	0
25.00746	-0.08111113	-0.3337963	0	0	0	0
25.02386	-0.08111113	-0.3337963	0	0	0	0
25.04042	-0.08111113	-0.3337963	0	0	0	0
25.05699	-0.08111113	-0.3337963	0	0	0	0
25.07355	-0.08111113	-0.3337963	0	0	0	0
25.09012	-0.08111113	-0.3337963	0	0	0	0
25.10669	-0.08111113	-0.3337963	0	0	0	0
25.12355	-0.08111113	-0.3337963	0	0	0	0
25.14069	-0.08111113	-0.3337963	0	0	0	0
25.15763	-0.08111113	-0.3337963	0	0	0	0
25.17383	-0.08111113	-0.3337963	0	0	0	0
25.19039	-0.08111113	-0.3337963	0	0	0	0
25.20707	-0.08111113	-0.3337963	0	0	0	0
25.22359	-0.08111113	-0.3337963	0	0	0	0
25.24009	-0.08111113	-0.3337963	0	0	0	0
25.25666	-0.08111113	-0.3337963	0	0	0	0
25.27339	-0.08113727	-0.3337745	-0.001562767	0.001302232	-0.04693476	0.03911007
25.28979	-0.08113727	-0.3337745	0	0	0.04716712	-0.0393037
25.30642	-0.08113727	-0.3337745	0	0	0	0
25.32301	-0.08113727	-0.3337745	0	0	0	0
25.33949	-0.08113727	-0.3337745	0	0	0	0
25.35606	-0.08113727	-0.3337745	0	0	0	0
25.37262	-0.08113727	-0.3337745	0	0	0	0
25.38919	-0.08113727	-0.3337745	0	0	0	0
25.40576	-0.08113727	-0.3337745	0	0	0	0
25.42232	-0.08111113	-0.3337963	0.001578606	-0.00131543	0.04764789	-0.03970432
25.43889	-0.08111113	-0.3337963	0	0	-0.04765064	0.0397066
25.45578	-0.08111113	-0.3337963	0	0	0	0
25.47203	-0.08111113	-0.3337963	0	0	0	0
25.4886	-0.08111113	-0.3337963	0	0	0	0
25.50578	-0.08111113	-0.3337963	0	0	0	0
25.52182	-0.08095427	-0.3339271	0.009779793	-0.008153467	0.2943922	-0.2454363
25.53848	-0.08095427	-0.3339271	0	0	-0.2990103	0.2492865
25.55486	-0.08095427	-0.3339271	0	0	0	0
25.57143	-0.07975154	-0.3349299	0.07259706	-0.06053203	2.203797	-1.837544
25.588	-0.07975154	-0.3349299	0	0	-2.190858	1.826755
25.60456	-0.07975154	-0.3349299	0	0	0	0
25.62112	-0.06236638	-0.3494723	1.049612	-0.8779796	31.68464	-26.50358
25.63769	-0.06236638	-0.3494723	0	0	-31.67917	26.499
25.65441	-0.06236638	-0.3494723	0	0	0	0
25.67224	-0.01257828	-0.391695	2.792394	-2.368087	80.83142	-68.549
25.68881	-0.01257828	-0.391695	0	0	-81.16753	68.83404
25.70538	-0.01257828	-0.391695	0	0	0	0
25.72194	0.0353274	-0.4341132	2.891926	-2.560665	87.28352	-77.28547
25.73878	0.0353274	-0.4341132	0	0	-86.59064	76.67195
25.75508	0.0353274	-0.4341132	0	0	0	0
25.77188	0.0746505	-0.4706775	2.340405	-2.176207	70.70275	-65.74238
25.78821	0.0746505	-0.4706775	0	0	-70.64169	65.68561
25.80506	0.0746505	-0.4706775	0	0	0	0
25.82562	0.06357212	-0.5390097	-0.5386999	-3.322737	-14.39814	-88.80869
25.84241	0.06357212	-0.5390097	0	0	14.4224	88.95834
25.85893	0.05043089	-0.5780749	-0.7954958	-2.364785	-23.88437	-71.00153
25.8754	0.05043089	-0.5780749	0	0	24.11221	71.67883
25.91658	0.05043089	-0.5780749	0	0	0	0
25.93315	0.05552182	-0.6486226	0.3072542	-4.257777	5.320003	-73.72198
25.94972	0.05552182	-0.6486226	0	0	-9.272416	128.4926
25.96629	0.05552182	-0.6486226	0	0	0	0
25.98285	0.05958727	-0.6652107	0.2454474	-1.001493	7.408042	-30.22687
25.99942	0.05958727	-0.6652107	0	0	-7.408042	30.22687
26.01599	0.05958727	-0.6652107	0	0	0	0
26.03255	0.05979705	-0.6654348	0.01266517	-0.01352703	0.3822798	-0.4082937
26.04912	0.05979705	-0.6654348	0	0	-0.3822798	0.4082937
26.06569	0.05979705	-0.6654348	0	0	0	0
26.0824	0.07169271	-0.6782306	0.7118765	-0.7657481	21.39335	-23.0123
26.09882	0.07169271	-0.6782306	0	0	-21.48448	23.11032
26.11539	0.07169271	-0.6782306	0	0	0	0
26.13255	0.08168624	-0.6890649	0.5822305	-0.6312125	17.25978	-18.71181
26.14876	0.08168624	-0.6890649	0	0	-17.44921	18.91718
26.16509	0.08168624	-0.6890649	0	0	0	0
26.18165	0.08362034	-0.6909585	0.1167557	-0.1143099	3.549233	-3.474882
26.19884	0.08362034	-0.6909585	0	0	-3.459374	3.386905
26.21489	0.08362034	-0.6909585	0	0	0	0
26.23135	0.09067175	-0.6986846	0.4282865	-0.4692677	13.17214	-14.43254
26.24837	0.09067175	-0.6986846	0	0	-12.7917	14.01569
26.26449	0.09067175	-0.6986846	0	0	0	0
26.28154	0.09560241	-0.7039368	0.2891918	-0.3080462	8.719295	-9.287764
26.29762	0.09560241	-0.7039368	0	0	-8.72833	9.297388
26.31419	0.09560241	-0.7039368	0	0	0	0
26.33075	0.09573279	-0.7038495	0.00787052	0.005267703	0.2375465	0.1589887
26.34745	0.09573279	-0.7038495	0	0	-0.2366066	-0.1583597
26.36388	0.09573279	-0.7038495	0	0	0	0
26.38045	0.09588923	-0.703675	0.009444265	0.01053541	0.2861982	0.319264
26.39702	0.09588923	-0.703675	0	0	-0.2850285	-0.3179592
26.41398	0.09588923	-0.703675	0	0	0	0
26.43015	0.09596746	-0.7035877	0.004836858	0.005395683	0.1459935	0.1628608
26.44699	0.09596746	-0.7035877	0	0	-0.1465164	-0.1634442
26.46364	0.09596746	-0.7035877	0	0	0	0
26.47985	0.09596746	-0.7035877	0	0	0	0
26.49642	0.09596746	-0.7035877	0	0	0	0
26.51299	0.09596746	-0.7035877	0	0	0	0
26.53462	0.09594138	-0.7035586	-0.001205845	0.001345034	-0.03156632	0.03520997
26.55119	0.09594138	-0.7035586	0	0	0.03156947	-0.03521349
26.56779	0.09594138	-0.7035586	0	0	0	0
26.58432	0.09594138	-0.7035586	0	0	0	0
26.6011	0.09594138	-0.7035586	0	0	0	0
26.61745	0.09591531	-0.7035295	-0.001594118	0.001778633	-0.04811612	0.05368543
26.63414	0.09591531	-0.7035295	0	0	0.04824667	-0.05383109
26.65073	0.09591531	-0.7035295	0	0	0	0
26.66722	0.09586316	-0.7034714	-0.003163321	0.003528459	-0.09563438	0.1066733
26.68414	0.09586316	-0.7034714	0	0	0.09470059	-0.1056317
26.70029	0.09586316	-0.7034714	0	0	0	0
26.71686	0.09586316	-0.7034714	0	0	0	0
26.73343	0.09586316	-0.7034714	0	0	0	0
26.74999	0.09586316	-0.7034714	0	0	0	0
26.76665	0.09583709	-0.7034423	-0.001565632	0.00174685	-0.0471315	0.05258684
26.78313	0.09583709	-0.7034423	0	0	0.04725359	-0.05272307
26.80035	0.09583709	-0.7034423	0	0	0	0
26.81626	0.09578493	-0.7033841	-0.003279807	0.00365839	-0.09900186	0.1104295
26.83283	0.09578493	-0.7033841	0	0	0.1010023	-0.1126608
26.84939	0.09578493	-0.7033841	0	0	0	0
26.86596	0.09573279	-0.703326	-0.003148301	0.003508608	-0.09502685	0.1059022
26.88284	0.09573279	-0.703326	0	0	0.09412193	-0.1048937
26.89909	0.09573279	-0.703326	0	0	0	0
26.91586	0.09562848	-0.7032096	-0.006218729	0.006936548	-0.1883212	0.2100588
26.93222	0.09562848	-0.7032096	0	0	0.1876924	-0.2093575
26.94909	0.09562848	-0.7032096	0	0	0	0
26.96536	0.09552418	-0.7030934	-0.006410738	0.007143904	-0.1934876	0.2156159
26.98192	0.09552418	-0.7030934	0	0	0.1952296	-0.2175571
26.99854	0.09552418	-0.7030934	0	0	0	0
27.01563	0.09518518	-0.7027737	-0.01982536	0.01869771	-0.5881068	0.5546558
27.03176	0.09518518	-0.7027737	0	0	0.5967504	-0.5628078
27.04828	0.09518518	-0.7027737	0	0	0	0
27.06476	0.0928898	-0.7002196	-0.1392867	0.1549841	-4.220446	4.696082
27.08132	0.0928898	-0.7002196	0	0	4.215573	-4.69066
27.09835	0.0928898	-0.7002196	0	0	0	0
27.11445	0.08301927	-0.6893229	-0.6128612	0.6765788	-18.49832	20.42154
27.13134	0.08301927	-0.6893229	0	0	18.57746	-20.50891
27.14786	0.08301927	-0.6893229	0	0	0	0
27.16415	0.06448939	-0.6692232	-1.137454	1.233813	-34.66163	37.598
27.18072	0.06448939	-0.6692232	0	0	34.61736	-37.54998
27.1975	0.06448939	-0.6692232	0	0	0	0
27.21385	0.04594133	-0.6493672	-1.134717	1.214735	-34.24977	36.665
27.23042	0.04594133	-0.6493672	0	0	34.47404	-36.90509
27.24699	0.04594133	-0.6493672	0	0	0	0
27.26355	0.01602494	-0.6170754	-1.805965	1.94936	-54.50726	58.83517
27.28012	0.01602494	-0.6170754	0	0	54.50726	-58.83517
27.29707	0.01602494	-0.6170754	0	0	0	0
27.31356	-0.009631281	-0.5840986	-1.556497	2.000622	-46.54913	59.83128
27.32982	-0.009631281	-0.5840986	0	0	47.53614	-61.09991
27.34663	-0.009631281	-0.5840986	0	0	0	0
27.36322	-0.02325896	-0.5558537	-0.8215282	1.702706	-24.59556	50.97696
27.37952	-0.02325896	-0.5558537	0	0	24.98071	-51.77523
27.39623	-0.02325896	-0.5558537	0	0	0	0
27.41265	-0.03280402	-0.5187538	-0.5811586	2.258859	-17.53839	68.16856
27.42922	-0.03280402	-0.5187538	0	0	17.61647	-68.47205
27.44579	-0.03280402	-0.5187538	0	0	0	0
27.46255	-0.04008378	-0.4813423	-0.434258	2.231701	-13.02868	66.95589
27.47892	-0.04008378	-0.4813423	0	0	13.10593	-67.35287
27.49549	-0.04008378	-0.4813423	0	0	0	0
27.51205	-0.04594133	-0.4488147	-0.3535626	1.96337	-10.67054	59.25461
27.52862	-0.04594133	-0.4488147	0	0	10.67054	-59.25461
27.54519	-0.04594133	-0.4488147	0	0	0	0
27.56175	-0.05646623	-0.4288983	-0.63543	1.20243	-19.17953	36.2936
27.57832	-0.05646623	-0.4288983	0	0	19.17953	-36.2936
27.59515	-0.05646623	-0.4288983	0	0	0	0
27.61145	-0.05644	-0.4075575	0.001608792	1.308928	0.04855902	39.50808
27.62823	-0.05644	-0.4075575	0	0	-0.04862061	-39.55819
27.64531	-0.05644	-0.4075575	0	0	0	0
27.66115	-0.06328381	-0.389529	-0.4319924	1.13799	-13.12368	34.57146
27.67772	-0.06328381	-0.389529	0	0	13.32991	-35.11472
27.69428	-0.06328381	-0.389529	0	0	0	0
27.71093	-0.07260897	-0.3814779	-0.5601593	0.4836267	-16.86584	14.56152
27.72745	-0.07260897	-0.3814779	0	0	16.88814	-14.58077
27.74436	-0.07260897	-0.3814779	0	0	0	0
27.76055	-0.07260897	-0.3815228	0	-0.002772623	0	-0.08376954
27.77712	-0.07260897	-0.3815228	0	0	0	0.08464757
27.79368	-0.07260897	-0.3815228	0	0	0	0
27.81025	-0.07260897	-0.3815228	0	0	0	0
27.82682	-0.07260897	-0.3815228	0	0	0	0
27.84345	-0.07260897	-0.3815228	0	0	0	0
27.86064	-0.07253044	-0.3815901	0.004569069	-0.003915354	0.13508	-0.1157535
27.87805	-0.07253044	-0.3815901	0	0	-0.1320785	0.1131815
27.89406	-0.07253044	-0.3815901	0	0	0	0
27.91035	-0.07247809	-0.3816798	0.003215324	-0.005510938	0.09955446	-0.1706324
27.92691	-0.07247809	-0.3816798	0	0	-0.09787817	0.1677593
27.94348	-0.07247809	-0.3816798	0	0	0	0
27.96012	-0.07237338	-0.3818145	0.006291363	-0.008088256	0.1894375	-0.2435433
27.97661	-0.07237338	-0.3818145	0	0	-0.1898846	0.2441181
27.99318	-0.07237338	-0.3818145	0	0	0	0
28.00974	-0.07237338	-0.3820388	0	-0.01354371	0	-0.4087734
28.02636	-0.07237338	-0.3820388	0	0	0	0.4081624
28.04335	-0.07237338	-0.3820388	0	0	0	0
28.05989	-0.07239955	-0.3820613	-0.001582592	-0.001356894	-0.0472003	-0.04046892
28.07601	-0.07239955	-0.3820613	0	0	0.04845445	0.04154421
28.09294	-0.07239955	-0.3820613	0	0	0	0
28.10944	-0.07242573	-0.3821286	-0.001586702	-0.004080092	-0.04747141	-0.1220694
28.12606	-0.07242573	-0.3821286	0	0	0.04790056	0.1231729
28.14228	-0.07242573	-0.3821286	0	0	0	0
28.15884	-0.0724519	-0.3821959	-0.001580041	-0.004064119	-0.04819902	-0.1239756
28.20306	-0.0724519	-0.3821959	0	0	0.02599544	0.06686443
28.21963	-0.0724519	-0.3821959	0	0	0	0
28.23619	-0.07250426	-0.3822857	-0.003160168	-0.005418202	-0.09536857	-0.1635122
28.25276	-0.07250426	-0.3822857	0	0	0.09536857	0.1635122
28.26933	-0.07250426	-0.3822857	0	0	0	0
28.28589	-0.07260897	-0.382555	-0.006321064	-0.01626007	-0.190803	-0.4908148
28.30246	-0.07260897	-0.382555	0	0	0.1907701	0.49073
28.31935	-0.07260897	-0.382555	0	0	0	0
28.33559	-0.07266133	-0.3825999	-0.003222496	-0.002762532	-0.09726071	-0.08337819
28.35216	-0.07266133	-0.3825999	0	0	0.09820483	0.08418754
28.36907	-0.07266133	-0.3825999	0	0	0	0
28.38529	-0.07268751	-0.3828469	-0.00161394	-0.01522266	-0.04871162	-0.4594473
28.40186	-0.07268751	-0.3828469	0	0	0.04922166	0.464258
28.41843	-0.07268751	-0.3828469	0	0	0	0
28.43499	-0.07268751	-0.3829367	0	-0.005422424	0	-0.1636585
28.45185	-0.07268751	-0.3829367	0	0	0	0.1622666
28.46813	-0.07268751	-0.3829367	0	0	0	0
28.4847	-0.07268751	-0.3829367	0	0	0	0
28.50126	-0.07268751	-0.3829367	0	0	0	0
28.51783	-0.07268751	-0.3829367	0	0	0	0
28.53464	-0.07268751	-0.3829367	0	0	0	0
28.55096	-0.07268751	-0.3829367	0	0	0	0
28.56753	-0.07268751	-0.3829367	0	0	0	0
28.5841	-0.07268751	-0.3829367	0	0	0	0
28.60066	-0.07268751	-0.3829367	0	0	0	0
28.61723	-0.07268751	-0.3829367	0	0	0	0
28.63379	-0.07268751	-0.3829367	0	0	0	0
28.65036	-0.07268751	-0.3829367	0	0	0	0
28.66693	-0.07268751	-0.3829367	0	0	0	0
28.6835	-0.07268751	-0.3829367	0	0	0	0
28.70007	-0.07268751	-0.3829367	0	0	0	0
28.71663	-0.07268751	-0.3829367	0	0	0	0
28.7332	-0.07271368	-0.3829591	-0.001579859	-0.00135455	-0.04768024	-0.04088042
28.74984	-0.07271368	-0.3829591	0	0	0.04757344	0.04078884
28.76683	-0.07271368	-0.3829591	0	0	0	0
28.7829	-0.07268751	-0.3829816	0.001628415	-0.001398036	0.04925909	-0.04229018
28.79986	-0.07268751	-0.3829816	0	0	-0.04929038	0.04231704
28.81603	-0.07268751	-0.3829816	0	0	0	0
28.8326	-0.07266133	-0.383004	0.001580491	-0.001354706	0.04828016	-0.04138299
28.84953	-0.07266133	-0.383004	0	0	-0.04718863	0.0404474
28.86573	-0.07266133	-0.383004	0	0	0	0
28.8823	-0.07268751	-0.3830265	-0.001580309	-0.00135455	-0.04821841	-0.04133007
28.89887	-0.07268751	-0.3830265	0	0	0.04769656	0.04088277
28.91543	-0.07268751	-0.3830265	0	0	0	0
28.932	-0.07268751	-0.3830265	0	0	0	0
28.9489	-0.07268751	-0.3830265	0	0	0	0
28.9655	-0.07268751	-0.3830265	0	0	0	0
28.9817	-0.07268751	-0.3830265	0	0	0	0
28.99836	-0.07268751	-0.3830265	0	0	0	0
29.01483	-0.07268751	-0.3830265	0	0	0	0
29.03211	-0.07266133	-0.383049	0.001515408	-0.001300646	0.04489518	-0.03853269
29.04797	-0.07266133	-0.383049	0	0	-0.04573773	0.03925583
29.06453	-0.07266133	-0.383049	0	0	0	0
29.08129	-0.07266133	-0.3830939	0	-0.002680655	0	-0.0804485
29.0977	-0.07266133	-0.3830939	0	0	0	0.08081859
29.11423	-0.07266133	-0.3830939	0	0	0	0
29.1308	-0.07266133	-0.3830939	0	0	0	0
29.14737	-0.07266133	-0.3830939	0	0	0	0
29.16445	-0.07266133	-0.3830939	0	0	0	0
29.18954	-0.07266133	-0.3830939	0	0	0	0
29.20612	-0.07266133	-0.3830939	0	0	0	0
29.22416	-0.07266133	-0.3830939	0	0	0	0
29.24164	-0.07266133	-0.3830939	0	0	0	0
29.2573	-0.07266133	-0.3830939	0	0	0	0
29.27387	-0.07266133	-0.3831388	0	-0.0027109	0	-0.08412502
29.29043	-0.07266133	-0.3831388	0	0	0	0.08181982
29.307	-0.07266133	-0.3831388	0	0	0	0
29.32424	-0.07266133	-0.3831388	0	0	0	0
29.34013	-0.07266133	-0.3831388	0	0	0	0
29.3567	-0.07266133	-0.3831388	0	0	0	0
29.37327	-0.07266133	-0.3831388	0	0	0	0
29.38983	-0.07266133	-0.3831388	0	0	0	0
29.4064	-0.07266133	-0.3831388	0	0	0	0
29.42296	-0.07268751	-0.3831612	-0.001580673	-0.001354862	-0.04771029	-0.04089453
29.43953	-0.07268751	-0.3831612	0	0	0.04770755	0.04089218
29.4561	-0.07268751	-0.3831612	0	0	0	0
29.47287	-0.07266133	-0.3831837	0.001561256	-0.001339997	0.04683303	-0.04019591
29.48923	-0.07266133	-0.3831837	0	0	-0.04712151	0.04044351
29.50604	-0.07266133	-0.3831837	0	0	0	0
29.52378	-0.07268751	-0.3832061	-0.001476292	-0.001265393	-0.04273894	-0.03663338
29.54035	-0.07268751	-0.3832061	0	0	0.04303359	0.03688594
29.55772	-0.07268751	-0.3832061	0	0	0	0
29.57348	-0.07266133	-0.3832286	0.001661007	-0.001425611	0.05013218	-0.04302751
29.59049	-0.07266133	-0.3832286	0	0	-0.05068363	0.0435008
29.60662	-0.07266133	-0.3832286	0	0	0	0
29.62366	-0.07266133	-0.3832286	0	0	0	0
29.63975	-0.07266133	-0.3832286	0	0	0	0
29.65631	-0.07266133	-0.3832286	0	0	0	0
29.67308	-0.07268751	-0.383251	-0.001561434	-0.001338372	-0.04684104	-0.04014947
29.68963	-0.07268751	-0.383251	0	0	0.04687322	0.04017705
29.70636	-0.07268751	-0.383251	0	0	0	0
29.72486	-0.07266133	-0.3832735	0.001414818	-0.001214311	0.04015221	-0.03446189
29.74143	-0.07266133	-0.3832735	0	0	-0.04033781	0.03462118
29.758	-0.07266133	-0.3832735	0	0	0	0
29.77457	-0.07266133	-0.3832735	0	0	0	0
29.79113	-0.07266133	-0.3832735	0	0	0	0
29.8077	-0.07266133	-0.3832735	0	0	0	0
29.82526	-0.07268751	-0.383296	-0.001491045	-0.001278039	-0.04369443	-0.03745237
29.84083	-0.07268751	-0.383296	0	0	0.04499983	0.03857129
29.8574	-0.07268751	-0.383296	0	0	0	0
29.87397	-0.07268751	-0.383296	0	0	0	0
29.89304	-0.07268751	-0.383296	0	0	0	0
29.90961	-0.07268751	-0.383296	0	0	0	0
29.92618	-0.07266133	-0.3833633	0.001580309	-0.004067249	0.04769107	-0.1227428
29.94275	-0.07266133	-0.3833633	0	0	-0.04769382	0.1227498
29.95934	-0.07266133	-0.3833633	0	0	0	0
29.97588	-0.07266133	-0.3833633	0	0	0	0
29.99248	-0.07266133	-0.3833633	0	0	0	0
30.0095	-0.07266133	-0.3833633	0	0	0	0
30.02558	-0.07266133	-0.3833633	0	0	0	0
30.04215	-0.07266133	-0.3833633	0	0	0	0
30.05871	-0.07266133	-0.3833633	0	0	0	0
30.07528	-0.07263515	-0.3833858	0.001579859	-0.001356349	0.04768299	-0.04093706
30.09185	-0.07263515	-0.3833858	0	0	-0.04768024	0.0409347
30.10841	-0.07263515	-0.3833858	0	0	0	0
30.12498	-0.07263515	-0.3833858	0	0	0	0
30.14155	-0.07263515	-0.3833858	0	0	0	0
30.15812	-0.07263515	-0.3833858	0	0	0	0
30.17468	-0.07263515	-0.3833858	0	0	0	0
30.19202	-0.07263515	-0.3833858	0	0	0	0
30.20876	-0.07263515	-0.3833858	0	0	0	0
30.22438	-0.07263515	-0.3833858	0	0	0	0
30.24095	-0.07263515	-0.3833858	0	0	0	0
30.25782	-0.07263515	-0.3833858	0	0	0	0
30.27408	-0.07266133	-0.3834082	-0.001610262	-0.001380618	-0.04860621	-0.04167433
30.29077	-0.07266133	-0.3834082	0	0	0.04887353	0.04190352
30.30721	-0.07266133	-0.3834082	0	0	0	0
30.32378	-0.07263515	-0.3834307	0.001580041	-0.001356505	0.04786759	-0.04109555
30.34035	-0.07263515	-0.3834307	0	0	-0.04769122	0.04094413
30.35731	-0.07263515	-0.3834307	0	0	0	0
30.37383	-0.07263515	-0.3834307	0	0	0	0
30.39033	-0.07263515	-0.3834307	0	0	0	0
30.40685	-0.07263515	-0.3834307	0	0	0	0
30.42336	-0.07260897	-0.3834532	0.001586152	-0.001361365	0.04801667	-0.0412118
30.43975	-0.07260897	-0.3834532	0	0	-0.04821992	0.04138625
30.45639	-0.07260897	-0.3834532	0	0	0	0
30.47288	-0.07260897	-0.3834981	0	-0.002723126	0	-0.08218412
30.48945	-0.07260897	-0.3834981	0	0	0	0.08236904
30.50608	-0.07260897	-0.3834981	0	0	0	0
30.52258	-0.07260897	-0.383543	0	-0.002722182	0	-0.08215562
30.53928	-0.07260897	-0.383543	0	0	0	0.08200927
30.55572	-0.07260897	-0.383543	0	0	0	0
30.581	-0.07260897	-0.383543	0	0	0	0
30.59797	-0.07260897	-0.383543	0	0	0	0
30.61414	-0.07260897	-0.383543	0	0	0	0
30.63099	-0.07260897	-0.383543	0	0	0	0
30.64742	-0.07260897	-0.383543	0	0	0	0
30.66385	-0.07260897	-0.383543	0	0	0	0
30.6804	-0.07260897	-0.383543	0	0	0	0
30.69697	-0.07260897	-0.383543	0	0	0	0
30.71354	-0.0725828	-0.3835655	0.001579859	-0.001356349	0.04768299	-0.04093706
30.73039	-0.0725828	-0.3835655	0	0	-0.04726667	0.04057964
30.74667	-0.0725828	-0.3835655	0	0	0	0
30.76324	-0.0725828	-0.3835655	0	0	0	0
30.7798	-0.0725828	-0.3835655	0	0	0	0
30.7964	-0.0725828	-0.3835655	0	0	0	0
30.81294	-0.07255661	-0.3835879	0.001583225	-0.00135705	0.04778458	-0.04095821
30.82951	-0.07255661	-0.3835879	0	0	-0.04782312	0.04099125
30.84607	-0.07255661	-0.3835879	0	0	0	0
30.86264	-0.07255661	-0.3836329	0	-0.002713011	0	-0.08188354
30.87921	-0.07255661	-0.3836329	0	0	0	0.08188354
30.89577	-0.07255661	-0.3836329	0	0	0	0
30.91234	-0.07250426	-0.3836778	0.003160532	-0.002711212	0.09539053	-0.08182924
30.92891	-0.07250426	-0.3836778	0	0	-0.09539053	0.08182924
30.94547	-0.07250426	-0.3836778	0	0	0	0
30.96208	-0.07253044	-0.3837003	-0.001576135	-0.001352767	-0.04750769	-0.04077496
30.97861	-0.07253044	-0.3837003	0	0	0.04756786	0.0408266
30.99517	-0.07253044	-0.3837003	0	0	0	0
31.01174	-0.07253044	-0.3837003	0	0	0	0
31.02831	-0.07253044	-0.3837003	0	0	0	0
31.04503	-0.07253044	-0.3837003	0	0	0	0
31.06154	-0.07253044	-0.3837003	0	0	0	0
31.07801	-0.07253044	-0.3837003	0	0	0	0
31.09481	-0.07253044	-0.3837003	0	0	0	0
31.11126	-0.07250426	-0.3837227	0.001592224	-0.001366576	0.04789076	-0.04110374
31.12781	-0.07250426	-0.3837227	0	0	-0.04825062	0.0414126
31.14433	-0.07250426	-0.3837227	0	0	0	0
31.16095	-0.07250426	-0.3837227	0	0	0	0
31.17741	-0.07250426	-0.3837227	0	0	0	0
31.19414	-0.07250426	-0.3837227	0	0	0	0
31.21054	-0.07250426	-0.3837227	0	0	0	0
31.22711	-0.07250426	-0.3837227	0	0	0	0
31.24368	-0.07250426	-0.3837227	0	0	0	0
31.26467	-0.07250426	-0.3837227	0	0	0	0
31.28124	-0.07250426	-0.3837227	0	0	0	0
31.29782	-0.07250426	-0.3837227	0	0	0	0
31.31438	-0.07250426	-0.3837227	0	0	0	0
31.33094	-0.07250426	-0.3837227	0	0	0	0
31.34751	-0.07250426	-0.3837227	0	0	0	0
31.36407	-0.07250426	-0.3837227	0	0	0	0
31.38064	-0.07250426	-0.3837227	0	0	0	0
31.39732	-0.07250426	-0.3837227	0	0	0	0
31.41378	-0.07250426	-0.3837227	0	0	0	0
31.43034	-0.07250426	-0.3837227	0	0	0	0
31.44691	-0.07250426	-0.3837227	0	0	0	0
31.46364	-0.07250426	-0.3837227	0	0	0	0
31.48004	-0.07250426	-0.3837227	0	0	0	0
31.49661	-0.07250426	-0.3837227	0	0	0	0
31.51348	-0.07250426	-0.3837227	0	0	0	0
31.52974	-0.07250426	-0.3837227	0	0	0	0
31.54631	-0.07250426	-0.3837227	0	0	0	0
31.56307	-0.07250426	-0.3837227	0	0	0	0
31.57992	-0.07250426	-0.3837227	0	0	0	0
31.59651	-0.07250426	-0.3837227	0	0	0	0
31.61258	-0.07250426	-0.3837227	0	0	0	0
31.62939	-0.07250426	-0.3837227	0	0	0	0
31.64642	-0.07250426	-0.3837227	0	0	0	0
31.66228	-0.07250426	-0.3837227	0	0	0	0
31.67884	-0.07250426	-0.3837227	0	0	0	0
31.69545	-0.07250426	-0.3837227	0	0	0	0
31.71198	-0.07250426	-0.3837227	0	0	0	0
31.72854	-0.07250426	-0.3837227	0	0	0	0
31.74511	-0.07250426	-0.3837227	0	0	0	0
31.76167	-0.07250426	-0.3837227	0	0	0	0
31.7783	-0.07250426	-0.3837227	0	0	0	0
31.79481	-0.07250426	-0.3837227	0	0	0	0
31.81138	-0.07250426	-0.3837227	0	0	0	0
31.82794	-0.07250426	-0.3837227	0	0	0	0
31.84451	-0.07250426	-0.3837227	0	0	0	0
31.86108	-0.07250426	-0.3837227	0	0	0	0
31.87765	-0.07250426	-0.3837227	0	0	0	0
31.89421	-0.07250426	-0.3837227	0	0	0	0
31.91099	-0.07250426	-0.3837227	0	0	0	0
31.92748	-0.07250426	-0.3837227	0	0	0	0
31.94423	-0.07250426	-0.3837227	0	0	0	0
31.9608	-0.07250426	-0.3837227	0	0	0	0
31.97737	-0.07250426	-0.3837227	0	0	0	0
31.99466	-0.07250426	-0.3837227	0	0	0	0
32.01073	-0.07250426	-0.3837227	0	0	0	0
32.02707	-0.07250426	-0.3837227	0	0	0	0
32.04387	-0.07250426	-0.3837227	0	0	0	0
32.0602	-0.07250426	-0.3837227	0	0	0	0
32.07677	-0.07250426	-0.3837227	0	0	0	0
32.09333	-0.07250426	-0.3837227	0	0	0	0
32.1099	-0.07250426	-0.3837227	0	0	0	0
32.12647	-0.07250426	-0.3837227	0	0	0	0
32.14303	-0.07250426	-0.3837227	0	0	0	0
32.1596	-0.07250426	-0.3837227	0	0	0	0
32.17617	-0.07250426	-0.3837227	0	0	0	0
32.19273	-0.07250426	-0.3837227	0	0	0	0
32.2093	-0.07250426	-0.3837227	0	0	0	0
32.22586	-0.07250426	-0.3837227	0	0	0	0
32.24243	-0.07250426	-0.3837227	0	0	0	0
32.259	-0.07250426	-0.3837227	0	0	0	0
32.27557	-0.07250426	-0.3837227	0	0	0	0
32.29213	-0.07250426	-0.3837227	0	0	0	0
32.3087	-0.07250426	-0.3837227	0	0	0	0
32.32527	-0.07250426	-0.3837227	0	0	0	0
32.34184	-0.07250426	-0.3837227	0	0	0	0
32.3584	-0.07250426	-0.3837227	0	0	0	0
32.3751	-0.07250426	-0.3837227	0	0	0	0
32.392	-0.07250426	-0.3837227	0	0	0	0
32.4081	-0.07250426	-0.3837227	0	0	0	0
32.42467	-0.07250426	-0.3837227	0	0	0	0
32.44124	-0.07250426	-0.3837227	0	0	0	0
32.45813	-0.07250426	-0.3837227	0	0	0	0
32.47437	-0.07250426	-0.3837227	0	0	0	0
32.49093	-0.07250426	-0.3837227	0	0	0	0
32.5075	-0.07250426	-0.3837227	0	0	0	0
32.5245	-0.07250426	-0.3837227	0	0	0	0
32.54063	-0.07250426	-0.3837227	0	0	0	0
32.5572	-0.07250426	-0.3837227	0	0	0	0
32.57376	-0.07250426	-0.3837227	0	0	0	0
32.59033	-0.07250426	-0.3837227	0	0	0	0
32.6069	-0.07250426	-0.3837227	0	0	0	0
32.6235	-0.07250426	-0.3837227	0	0	0	0
32.64003	-0.07250426	-0.3837227	0	0	0	0
32.6572	-0.07250426	-0.3837227	0	0	0	0
32.67345	-0.07250426	-0.3837227	0	0	0	0
32.68973	-0.07250426	-0.3837227	0	0	0	0
32.7063	-0.07250426	-0.3837227	0	0	0	0
32.72336	-0.07250426	-0.3837227	0	0	0	0
32.74038	-0.07250426	-0.3837227	0	0	0	0
32.75736	-0.07250426	-0.3837227	0	0	0	0
32.77351	-0.07250426	-0.3837227	0	0	0	0
32.79041	-0.07250426	-0.3837227	0	0	0	0
32.80664	-0.07250426	-0.3837227	0	0	0	0
32.8235	-0.07250426	-0.3837227	0	0	0	0
32.83978	-0.07250426	-0.3837227	0	0	0	0
32.85635	-0.07250426	-0.3837227	0	0	0	0
32.87291	-0.07250426	-0.3837227	0	0	0	0
32.88984	-0.07250426	-0.3837227	0	0	0	0
32.90605	-0.07250426	-0.3837227	0	0	0	0
32.92262	-0.07250426	-0.3837227	0	0	0	0
32.93918	-0.07250426	-0.3837227	0	0	0	0
32.95575	-0.07250426	-0.3837227	0	0	0	0
32.97232	-0.07250426	-0.3837227	0	0	0	0
32.98888	-0.07250426	-0.3837227	0	0	0	0
33.00545	-0.07250426	-0.3837227	0	0	0	0
33.02207	-0.07250426	-0.3837227	0	0	0	0
33.0386	-0.07250426	-0.3837227	0	0	0	0
33.05515	-0.07250426	-0.3837227	0	0	0	0
33.07172	-0.07250426	-0.3837227	0	0	0	0
33.08829	-0.07247809	-0.3837452	0.001579859	-0.001356349	0.04768024	-0.0409347
33.10485	-0.07247809	-0.3837452	0	0	-0.04768024	0.0409347
33.12142	-0.07247809	-0.3837452	0	0	0	0
33.13873	-0.07226866	-0.3856333	0.01210059	-0.1090926	0.3572182	-3.220492
33.15491	-0.07226866	-0.3856333	0	0	-0.3613691	3.257914
33.17112	-0.07226866	-0.3856333	0	0	0	0
33.18769	-0.06807884	-0.4142328	0.252898	-1.726269	7.715081	-52.66276
33.20425	-0.06807884	-0.4142328	0	0	-7.632476	52.09891
33.22082	-0.06807884	-0.4142328	0	0	0	0
33.23739	-0.06655943	-0.4965745	0.09171143	-4.970157	2.767857	-149.9996
33.25396	-0.06655943	-0.4965745	0	0	-2.767857	149.9996
33.27108	-0.06655943	-0.4965745	0	0	0	0
33.28759	-0.08129413	-0.5898916	-0.8924702	-5.652153	-26.53161	-168.0288
33.30566	-0.08129413	-0.5898916	0	0	25.80868	163.4504
33.32224	-0.08129413	-0.5898916	0	0	0	0
33.3388	-0.1197921	-0.655371	-2.323742	-3.952341	-70.12261	-119.2681
33.3555	-0.1197921	-0.655371	0	0	69.86525	118.8304
33.37201	-0.1197921	-0.655371	0	0	0	0
33.38901	-0.1436871	-0.6813266	-1.405415	-1.526615	-41.93274	-45.54895
33.40507	-0.1436871	-0.6813266	0	0	42.51339	46.17968
33.42163	-0.1436871	-0.6813266	0	0	0	0
33.4382	-0.1437902	-0.6814404	-0.00622553	-0.006869674	-0.1879085	-0.207351
33.45477	-0.1437902	-0.6814404	0	0	0.1879085	0.207351
33.47133	-0.1437902	-0.6814404	0	0	0	0
33.4879	-0.1437902	-0.6814404	0	0	0	0
33.50451	-0.1437902	-0.6814404	0	0	0	0
33.52124	-0.1437902	-0.6814404	0	0	0	0
33.5376	-0.143816	-0.6814688	-0.001574704	-0.00173773	-0.0475959	-0.05252341
33.55416	-0.143816	-0.6814688	0	0	0.04782197	0.05277289
33.57073	-0.143816	-0.6814688	0	0	0	0
33.58732	-0.1463668	-0.6844034	-0.1537902	-0.1769276	-4.638727	-5.336614
33.60387	-0.1463668	-0.6844034	0	0	4.641397	5.339686
33.62043	-0.1463668	-0.6844034	0	0	0	0
33.6371	-0.1728371	-0.7144671	-1.588605	-1.804262	-47.8066	-54.29646
33.65357	-0.1728371	-0.7144671	0	0	47.9442	54.45273
33.67014	-0.1728371	-0.7144671	0	0	0	0
33.6867	-0.2001521	-0.7472259	-1.648739	-1.977323	-49.75904	-59.67574
33.70327	-0.2001521	-0.7472259	0	0	49.75331	59.66887
33.71984	-0.2001521	-0.7472259	0	0	0	0
33.7364	-0.2034357	-0.789673	-0.1982453	-2.562701	-5.983745	-77.35139
33.75342	-0.2034357	-0.789673	0	0	5.904206	76.3232
33.7697	-0.2034357	-0.789673	0	0	0	0
33.78625	-0.1852463	-0.8150774	1.099439	-1.535534	33.48957	-46.77329
33.80267	-0.1852463	-0.8150774	0	0	-33.34621	46.57306
33.81924	-0.1852463	-0.8150774	0	0	0	0
33.83581	-0.1787046	-0.8235756	0.3947623	-0.5128338	11.91258	-15.47557
33.85238	-0.1787046	-0.8235756	0	0	-11.91258	15.47557
33.86939	-0.1787046	-0.8235756	0	0	0	0
33.88586	-0.1785007	-0.8238415	0.01237537	-0.01614234	0.3695749	-0.4820707
33.90207	-0.1785007	-0.8238415	0	0	-0.3786331	0.4938862
33.91893	-0.1785007	-0.8238415	0	0	0	0
33.93521	-0.1784243	-0.8236753	0.004697204	0.01021283	0.1417619	0.3082237
33.95185	-0.1784243	-0.8236753	0	0	-0.1426818	-0.3102238
33.96834	-0.1784243	-0.8236753	0	0	0	0
33.98491	-0.1782714	-0.8234758	0.009232136	0.01204082	0.2793017	0.3642734
34.00148	-0.1782714	-0.8234758	0	0	-0.2786264	-0.3633927
34.01826	-0.1782714	-0.8234758	0	0	0	0
34.03461	-0.1782204	-0.8234094	0.003117891	0.004064833	0.09409814	0.1226769
34.05118	-0.1782204	-0.8234094	0	0	-0.09471972	-0.1234873
34.06825	-0.1782204	-0.8234094	0	0	0	0
34.08431	-0.1782204	-0.8232765	0	0.00827446	0	0.2497237
34.10088	-0.1782204	-0.8232765	0	0	0	-0.2535476
34.11744	-0.1782204	-0.8232765	0	0	0	0
34.13401	-0.1781949	-0.8232433	0.001539289	0.002004405	0.04647189	0.06051395
34.15057	-0.1781949	-0.8232433	0	0	-0.04646119	-0.06050001
34.16714	-0.1781949	-0.8232433	0	0	0	0
34.1842	-0.1781949	-0.8231768	0	0.003895768	0	0.1158539
34.20028	-0.1781949	-0.8231768	0	0	0	-0.1175745
34.21755	-0.1781949	-0.8231768	0	0	0	0
34.23341	-0.1781949	-0.8230439	0	0.008378187	0	0.2528542
34.24998	-0.1781949	-0.8230439	0	0	0	-0.2583872
34.26654	-0.1781949	-0.8230439	0	0	0	0
34.28333	-0.1782204	-0.8229443	-0.001518999	0.0059375	-0.04554459	0.1780258
34.29968	-0.1782204	-0.8229443	0	0	0.04584347	-0.1791941
34.31625	-0.1782204	-0.8229443	0	0	0	0
34.33281	-0.1781949	-0.8229111	0.001538935	0.002003943	0.04644514	0.06047912
34.34938	-0.1781949	-0.8229111	0	0	-0.04644514	-0.06047912
34.36595	-0.1781949	-0.8229111	0	0	0	0
34.38323	-0.1782204	-0.8228779	-0.001475081	0.001920796	-0.04357491	0.05674161
34.39916	-0.1782204	-0.8228779	0	0	0.04441068	-0.05782991
34.41591	-0.1782204	-0.8228779	0	0	0	0
34.43222	-0.1781949	-0.8228446	0.001563414	0.002039474	0.04729827	0.06170061
34.44943	-0.1781949	-0.8228446	0	0	-0.04664158	-0.06084395
34.46535	-0.1781949	-0.8228446	0	0	0	0
34.48191	-0.1782204	-0.8228114	-0.001539289	0.002004405	-0.04738321	0.06170064
34.49865	-0.1782204	-0.8228114	0	0	0.046227	-0.06019505
34.51533	-0.1782204	-0.8228114	0	0	0	0
34.53684	-0.1782204	-0.8228114	0	0	0	0
34.55341	-0.1782204	-0.8228114	0	0	0	0
34.56998	-0.1782204	-0.8228114	0	0	0	0
34.58655	-0.1782204	-0.8228114	0	0	0	0
34.60312	-0.1782204	-0.8228114	0	0	0	0
34.61989	-0.1782204	-0.8228114	0	0	0	0
34.63625	-0.1782204	-0.8228114	0	0	0	0
34.65282	-0.1782204	-0.8228114	0	0	0	0
34.66941	-0.1780929	-0.8225126	0.007682262	0.01801061	0.2316911	0.5431859
34.686	-0.1780929	-0.8225126	0	0	-0.2315579	-0.5428736
34.70251	-0.1780929	-0.8225126	0	0	0	0
34.71909	-0.1777361	-0.820722	0.02153653	0.1080549	0.650873	3.265616
34.73565	-0.1777361	-0.820722	0	0	-0.6498989	-3.260729
34.75225	-0.1777361	-0.820722	0	0	0	0
34.76923	-0.1770222	-0.8108444	0.0420644	0.5820128	1.252918	17.33566
34.78535	-0.1770222	-0.8108444	0	0	-1.271116	-17.58746
34.8021	-0.1770222	-0.8108444	0	0	0	0
34.81874	-0.156191	-0.7837867	1.251605	1.625716	37.47582	48.67753
34.83527	-0.156191	-0.7837867	0	0	-37.73876	-49.01907
34.85228	-0.156191	-0.7837867	0	0	0	0
34.86818	-0.1167301	-0.7353375	2.48128	3.046455	75.38858	92.56026
34.88475	-0.1167301	-0.7353375	0	0	-76.41596	-93.82166
34.90131	-0.1167301	-0.7353375	0	0	0	0
34.91788	-0.09518518	-0.652268	1.300452	5.014085	39.24772	151.3254
34.93445	-0.09518518	-0.652268	0	0	-39.24772	-151.3254
34.95101	-0.09518518	-0.652268	0	0	0	0
34.96758	-0.1025599	-0.5646574	-0.4452441	5.289404	-13.44059	159.6713
35.03233	-0.1025599	-0.5646574	0	0	5.475095	-65.04295
35.04912	-0.1025599	-0.5646574	0	0	0	0
35.06572	-0.08816558	-0.4407221	0.8672476	7.466992	25.97621	223.6548
35.08204	-0.08816558	-0.4407221	0	0	-26.34953	-226.8692
35.0986	-0.08816558	-0.4407221	0	0	0	0
35.11517	-0.06262852	-0.3939318	1.541775	2.824922	46.53623	85.26614
35.13191	-0.06262852	-0.3939318	0	0	-46.29105	-84.81691
35.14852	-0.06262852	-0.3939318	0	0	0	0
35.16512	-0.04528481	-0.3580507	1.044943	2.161802	31.46762	65.10091
35.1817	-0.04528481	-0.3580507	0	0	-31.48933	-65.14581
35.19839	-0.04528481	-0.3580507	0	0	0	0
35.21456	-0.02875523	-0.3442015	1.021965	0.8562481	31.10075	26.05762
35.23113	-0.02875523	-0.3442015	0	0	-31.21308	-26.15173
35.2477	-0.02875523	-0.3442015	0	0	0	0
35.26426	-0.01697205	-0.3344066	0.7112339	0.5912208	21.46508	17.84308
35.28083	-0.01697205	-0.3344066	0	0	-21.46508	-17.84308
35.2974	-0.01697205	-0.3344066	0	0	0	0
35.31396	-0.01634065	-0.3338835	0.03812035	0.03158467	1.150607	0.953337
35.33053	-0.01634065	-0.3338835	0	0	-1.150607	-0.953337
35.3471	-0.01634065	-0.3338835	0	0	0	0
35.36573	-0.01573554	-0.3333387	0.03247195	0.0292333	0.9224455	0.8304437
35.3823	-0.01573554	-0.3333387	0	0	-0.9223456	-0.8303538
35.3993	-0.01573554	-0.3333387	0	0	0	0
35.41543	-0.01515673	-0.3328595	0.03587026	0.02970043	1.082691	0.8964639
35.432	-0.01515673	-0.3328595	0	0	-1.096836	-0.9081756
35.44857	-0.01515673	-0.3328595	0	0	0	0
35.46531	-0.01513042	-0.3328812	0.001571422	-0.001301193	0.04717578	-0.03906322
35.4817	-0.01513042	-0.3328812	0	0	-0.04742562	0.0392701
35.49841	-0.01513042	-0.3328812	0	0	0	0
35.51539	-0.01513042	-0.3328812	0	0	0	0
35.5314	-0.01513042	-0.3328812	0	0	0	0
35.54797	-0.01513042	-0.3328812	0	0	0	0
35.56454	-0.0150778	-0.3329248	0.003176133	-0.002628152	0.09585588	-0.07931777
35.5811	-0.0150778	-0.3329248	0	0	-0.09585588	0.07931777
35.59791	-0.0150778	-0.3329248	0	0	0	0
35.61444	-0.0150778	-0.3329248	0	0	0	0
35.63102	-0.0150778	-0.3329248	0	0	0	0
35.64754	-0.0150778	-0.3329248	0	0	0	0
35.66393	-0.0150515	-0.3329901	0.001604637	-0.003986229	0.04874793	-0.1210993
35.6805	-0.0150515	-0.3329901	0	0	-0.0486746	0.1209172
35.69716	-0.0150515	-0.3329901	0	0	0	0
35.71364	-0.01497257	-0.3330555	0.004789564	-0.003965929	0.1445493	-0.119692
35.73021	-0.01497257	-0.3330555	0	0	-0.1449331	0.1200097
35.74677	-0.01497257	-0.3330555	0	0	0	0
35.76334	-0.01491995	-0.3330991	0.003176189	-0.00262995	0.09585758	-0.07937206
35.7799	-0.01491995	-0.3330991	0	0	-0.09586862	0.0793812
35.79686	-0.01491995	-0.3330991	0	0	0	0
35.81304	-0.01476209	-0.3332734	0.009759867	-0.01077535	0.2945534	-0.3252008
35.83031	-0.01476209	-0.3332734	0	0	-0.2918319	0.3221962
35.84658	-0.01476209	-0.3332734	0	0	0	0
35.86274	-0.01476209	-0.3333169	0	-0.002697019	0	-0.08316755
35.8793	-0.01476209	-0.3333169	0	0	0	0.082421
35.89587	-0.01476209	-0.3333169	0	0	0	0
35.91244	-0.01476209	-0.3333605	0	-0.00262995	0	-0.07937206
35.92905	-0.01476209	-0.3333605	0	0	0	0.07926255
35.94557	-0.01476209	-0.3333605	0	0	0	0
35.96214	-0.01473578	-0.3334694	0.001588488	-0.00657639	0.04801254	-0.1987734
35.9787	-0.01473578	-0.3334694	0	0	-0.0479462	0.1984987
35.99577	-0.01473578	-0.3334694	0	0	0	0
36.01184	-0.01473578	-0.333513	0	-0.002712957	0	-0.0818772
36.0284	-0.01473578	-0.333513	0	0	0	0.08312125
36.04497	-0.01473578	-0.333513	0	0	0	0
36.06153	-0.01473578	-0.333513	0	0	0	0
36.0781	-0.01473578	-0.333513	0	0	0	0
36.0947	-0.01473578	-0.333513	0	0	0	0
36.11124	-0.01470947	-0.3336655	0.001591364	-0.009225744	0.04802747	-0.2784335
36.12797	-0.01470947	-0.3336655	0	0	-0.04783472	0.2773161
36.14437	-0.01470947	-0.3336655	0	0	0	0
36.16094	-0.01473578	-0.3336873	-0.001588066	-0.001314975	-0.04816639	-0.03988347
36.17751	-0.01473578	-0.3336873	0	0	0.04792794	0.03968603
36.19412	-0.01473578	-0.3336873	0	0	0	0
36.21064	-0.01473578	-0.3336873	0	0	0	0
36.22721	-0.01473578	-0.3336873	0	0	0	0
36.24377	-0.01473578	-0.3336873	0	0	0	0
36.26035	-0.01470947	-0.3337091	0.001587701	-0.001314673	0.04791139	-0.03967233
36.27758	-0.01470947	-0.3337091	0	0	-0.04697058	0.0388933
36.29349	-0.01470947	-0.3337091	0	0	0	0
36.31004	-0.01473578	-0.3337309	-0.001590263	-0.001316794	-0.0489926	-0.04056761
36.32702	-0.01473578	-0.3337309	0	0	0.0474264	0.03927074
36.34317	-0.01473578	-0.3337309	0	0	0	0
36.35974	-0.01476209	-0.3337527	-0.001588123	-0.001316774	-0.04854441	-0.04025005
36.37637	-0.01476209	-0.3337527	0	0	0.04783052	0.03965814
36.39287	-0.01476209	-0.3337527	0	0	0	0
36.40944	-0.01476209	-0.3337527	0	0	0	0
36.42601	-0.01476209	-0.3337527	0	0	0	0
36.443	-0.01476209	-0.3337527	0	0	0	0
36.45914	-0.01476209	-0.3337963	0	-0.002700207	0	-0.08150179
36.47637	-0.01476209	-0.3337963	0	0	0	0.08093334
36.4925	-0.01476209	-0.3337963	0	0	0	0
36.50885	-0.0147884	-0.3338181	-0.001609562	-0.001332774	-0.04955802	-0.04103579
36.52541	-0.0147884	-0.3338181	0	0	0.04890889	0.04049829
36.54204	-0.0147884	-0.3338181	0	0	0	0
36.55854	-0.0147884	-0.3338617	0	-0.002642702	0	-0.07976609
36.57511	-0.0147884	-0.3338617	0	0	0	0.07992253
36.59167	-0.0147884	-0.3338617	0	0	0	0
36.60824	-0.01476209	-0.3338835	0.001588432	-0.001315278	0.0479445	-0.03969974
36.62481	-0.01476209	-0.3338835	0	0	-0.0479445	0.03969974
36.64183	-0.01476209	-0.3338835	0	0	0	0
36.65812	-0.0147884	-0.3339052	-0.001614838	-0.001337143	-0.04847362	-0.04013786
36.67477	-0.0147884	-0.3339052	0	0	0.04901807	0.0405887
36.69166	-0.0147884	-0.3339052	0	0	0	0
36.70764	-0.01484102	-0.3339489	-0.003293683	-0.002729152	-0.1002112	-0.08303513
36.72421	-0.01484102	-0.3339489	0	0	0.1012096	0.08386247
36.74077	-0.01484102	-0.3339489	0	0	0	0
36.75756	-0.01499888	-0.3341232	-0.00939861	-0.01038177	-0.2817369	-0.3112086
36.7739	-0.01499888	-0.3341232	0	0	0.2836506	0.3133225
36.79052	-0.01499888	-0.3341232	0	0	0	0
36.80704	-0.01539352	-0.3344502	-0.02388131	-0.01978734	-0.7205736	-0.5970455
36.82403	-0.01539352	-0.3344502	0	0	0.7126173	0.5904533
36.84017	-0.01539352	-0.3344502	0	0	0	0
36.85674	-0.01552507	-0.3345592	-0.00794022	-0.006580273	-0.2427949	-0.2012107
36.87357	-0.01552507	-0.3345592	0	0	0.2377205	0.1970054
36.88987	-0.01552507	-0.3345592	0	0	0	0
36.90643	-0.01557769	-0.3346464	-0.003176077	-0.005263499	-0.09664416	-0.1601619
36.92374	-0.01557769	-0.3346464	0	0	0.09374952	0.1553648
36.93982	-0.01557769	-0.3346464	0	0	0	0
36.95613	-0.01563031	-0.33469	-0.003225145	-0.002672361	-0.09957042	-0.08250423
36.9727	-0.01563031	-0.33469	0	0	0.09808032	0.08126953
36.98927	-0.01563031	-0.33469	0	0	0	0
37.00584	-0.01563031	-0.3347337	0	-0.002633548	0	-0.07948065
37.02243	-0.01563031	-0.3347337	0	0	0	0.07942578
37.03897	-0.01563031	-0.3347337	0	0	0	0
37.05602	-0.01565661	-0.3347555	-0.001542838	-0.001277615	-0.0459232	-0.03802873
37.07248	-0.01565661	-0.3347555	0	0	0.04604345	0.0381283
37.12318	-0.01565661	-0.3347555	0	0	0	0
37.14025	-0.01568292	-0.3347773	-0.001541223	-0.001277933	-0.02274004	-0.01885532
37.15683	-0.01568292	-0.3347773	0	0	0.04581271	0.03798645
37.17339	-0.01568292	-0.3347773	0	0	0	0
37.18996	-0.01568292	-0.3347773	0	0	0	0
37.20692	-0.01568292	-0.3347773	0	0	0	0
37.22309	-0.01568292	-0.3347773	0	0	0	0
37.23999	-0.01570923	-0.3347991	-0.00155723	-0.001291206	-0.04708946	-0.03904508
37.25658	-0.01570923	-0.3347991	0	0	0.04649944	0.03855585
37.27279	-0.01570923	-0.3347991	0	0	0	0
37.28935	-0.01570923	-0.3347991	0	0	0	0
37.30592	-0.01570923	-0.3347991	0	0	0	0
37.32255	-0.01570923	-0.3347991	0	0	0	0
37.33956	-0.01570923	-0.3347991	0	0	0	0
37.35568	-0.01570923	-0.3347991	0	0	0	0
37.37219	-0.01570923	-0.3347991	0	0	0	0
37.3889	-0.01570923	-0.3347991	0	0	0	0
37.40562	-0.01570923	-0.3347991	0	0	0	0
37.42204	-0.01570923	-0.3347991	0	0	0	0
37.4386	-0.01570923	-0.3348427	0	-0.002631749	0	-0.07979381
37.45517	-0.01570923	-0.3348427	0	0	0	0.07942635
37.47174	-0.01570923	-0.3348427	0	0	0	0
37.4883	-0.01570923	-0.3348427	0	0	0	0
37.5052	-0.01570923	-0.3348427	0	0	0	0
37.52144	-0.01570923	-0.3348427	0	0	0	0
37.53801	-0.01573554	-0.3348645	-0.001587954	-0.001316774	-0.04839816	-0.04013306
37.55474	-0.01573554	-0.3348645	0	0	0.04767754	0.0395355
37.57114	-0.01573554	-0.3348645	0	0	0	0
37.5877	-0.01573554	-0.3348645	0	0	0	0
37.60427	-0.01573554	-0.3348645	0	0	0	0
37.62115	-0.01573554	-0.3348645	0	0	0	0
37.63741	-0.01576185	-0.3348863	-0.001619008	-0.00134243	-0.04886175	-0.0405146
37.65416	-0.01576185	-0.3348863	0	0	0.04905376	0.04067381
37.67069	-0.01576185	-0.3348863	0	0	0	0
37.68768	-0.01576185	-0.3348863	0	0	0	0
37.70368	-0.01576185	-0.3348863	0	0	0	0
37.72025	-0.01576185	-0.3348863	0	0	0	0
37.73703	-0.01576185	-0.3348863	0	0	0	0
37.75345	-0.01576185	-0.3348863	0	0	0	0
37.76997	-0.01576185	-0.3348863	0	0	0	0
37.78651	-0.01576185	-0.3348863	0	0	0	0
37.80308	-0.01576185	-0.3348863	0	0	0	0
37.81965	-0.01576185	-0.3348863	0	0	0	0
37.83622	-0.01576185	-0.3348863	0	0	0	0
37.85278	-0.01576185	-0.3348863	0	0	0	0
37.86958	-0.01576185	-0.3348863	0	0	0	0
37.88609	-0.01578816	-0.3349081	-0.001592834	-0.001318923	-0.04781859	-0.03959549
37.90248	-0.01578816	-0.3349081	0	0	0.0484006	0.04007741
37.91906	-0.01578816	-0.3349081	0	0	0	0
37.93562	-0.01578816	-0.3349081	0	0	0	0
37.95219	-0.01578816	-0.3349081	0	0	0	0
37.96875	-0.01578816	-0.3349081	0	0	0	0
37.98583	-0.01576185	-0.3349299	0.001540534	-0.001277362	0.04578706	-0.03796517
38.00189	-0.01576185	-0.3349299	0	0	-0.04649342	0.03855086
38.01846	-0.01576185	-0.3349299	0	0	0	0
38.03568	-0.01576185	-0.3349299	0	0	0	0
38.05159	-0.01576185	-0.3349299	0	0	0	0
38.06824	-0.01576185	-0.3349299	0	0	0	0
38.08472	-0.01578816	-0.3349517	-0.001596152	-0.001323478	-0.04818306	-0.03995186
38.10175	-0.01578816	-0.3349517	0	0	0.04762368	0.03948804
38.11785	-0.01578816	-0.3349517	0	0	0	0
38.13479	-0.01578816	-0.3349517	0	0	0	0
38.15099	-0.01578816	-0.3349517	0	0	0	0
38.16782	-0.01578816	-0.3349517	0	0	0	0
38.18412	-0.01578816	-0.3349517	0	0	0	0
38.20082	-0.01578816	-0.3349517	0	0	0	0
38.21733	-0.01578816	-0.3349517	0	0	0	0
38.23436	-0.01578816	-0.3349517	0	0	0	0
38.25038	-0.01578816	-0.3349517	0	0	0	0
38.26695	-0.01578816	-0.3349517	0	0	0	0
38.28388	-0.01581447	-0.3349735	-0.001553962	-0.001286827	-0.04639129	-0.03841634
38.30008	-0.01581447	-0.3349735	0	0	0.04689867	0.03883651
38.31665	-0.01581447	-0.3349735	0	0	0	0
38.33321	-0.01581447	-0.3349735	0	0	0	0
38.34994	-0.01581447	-0.3349735	0	0	0	0
38.36692	-0.01581447	-0.3349735	0	0	0	0
38.38293	-0.01581447	-0.3349735	0	0	0	0
38.39948	-0.01581447	-0.3349735	0	0	0	0
38.41605	-0.01581447	-0.3349735	0	0	0	0
38.43313	-0.01581447	-0.3349735	0	0	0	0
38.44999	-0.01581447	-0.3349735	0	0	0	0
38.46626	-0.01581447	-0.3349735	0	0	0	0
38.48302	-0.01581447	-0.3349735	0	0	0	0
38.4994	-0.01581447	-0.3349735	0	0	0	0
38.51596	-0.01581447	-0.3349735	0	0	0	0
38.53253	-0.01584078	-0.3349953	-0.001588066	-0.001316774	-0.04792794	-0.03974032
38.5491	-0.01584078	-0.3349953	0	0	0.04792794	0.03974032
38.56567	-0.01584078	-0.3349953	0	0	0	0
38.58223	-0.01584078	-0.3349953	0	0	0	0
38.5988	-0.01584078	-0.3349953	0	0	0	0
38.61564	-0.01584078	-0.3349953	0	0	0	0
38.63214	-0.01584078	-0.335039	0	-0.002643286	0	-0.07927258
38.64884	-0.01584078	-0.335039	0	0	0	0.07960957
38.66536	-0.01584078	-0.335039	0	0	0	0
38.68164	-0.01584078	-0.335039	0	0	0	0
38.69829	-0.01584078	-0.335039	0	0	0	0
38.71477	-0.01584078	-0.335039	0	0	0	0
38.73137	-0.01586709	-0.3350608	-0.001585147	-0.001314353	-0.04792257	-0.03973587
38.7479	-0.01586709	-0.3350608	0	0	0.04784533	0.03967182
38.76447	-0.01586709	-0.3350608	0	0	0	0
38.78104	-0.01586709	-0.3350608	0	0	0	0
38.7976	-0.01586709	-0.3350608	0	0	0	0
38.81417	-0.01586709	-0.3350608	0	0	0	0
38.83084	-0.0158934	-0.3350826	-0.001578504	-0.00130715	-0.04749718	-0.03933213
38.84735	-0.0158934	-0.3350826	0	0	0.04757362	0.03939543
38.86435	-0.0158934	-0.3350826	0	0	0	0
38.88063	-0.0158934	-0.3350826	0	0	0	0
38.8972	-0.0158934	-0.3350826	0	0	0	0
38.91423	-0.0158934	-0.3350826	0	0	0	0
38.93014	-0.0158934	-0.3350826	0	0	0	0
38.94675	-0.0158934	-0.3350826	0	0	0	0
38.96368	-0.0158934	-0.3350826	0	0	0	0
38.97984	-0.01591971	-0.3351044	-0.001628565	-0.001350354	-0.04922386	-0.04081485
38.9964	-0.01591971	-0.3351044	0	0	0.04976901	0.04126687
39.01297	-0.01591971	-0.3351044	0	0	0	0
39.02953	-0.0158934	-0.3351262	0.001588798	-0.001317381	0.04795554	-0.03976321
39.0461	-0.0158934	-0.3351262	0	0	-0.04795554	0.03976321
39.06267	-0.0158934	-0.3351262	0	0	0	0
39.07977	-0.0158934	-0.3351262	0	0	0	0
39.09581	-0.0158934	-0.3351262	0	0	0	0
39.11241	-0.0158934	-0.3351262	0	0	0	0
39.12978	-0.0158934	-0.3351262	0	0	0	0
39.14597	-0.0158934	-0.3351262	0	0	0	0
39.16207	-0.0158934	-0.3351262	0	0	0	0
39.17863	-0.01591971	-0.335148	-0.001588432	-0.001317077	-0.0486219	-0.04031573
39.1952	-0.01591971	-0.335148	0	0	0.0479445	0.03975405
39.21227	-0.01591971	-0.335148	0	0	0	0
39.22842	-0.01591971	-0.335148	0	0	0	0
39.24498	-0.01591971	-0.335148	0	0	0	0
39.26147	-0.01591971	-0.335148	0	0	0	0
39.27803	-0.01591971	-0.335148	0	0	0	0
39.2946	-0.01591971	-0.335148	0	0	0	0
39.31155	-0.01591971	-0.335148	0	0	0	0
39.32774	-0.01591971	-0.335148	0	0	0	0
39.3443	-0.01591971	-0.335148	0	0	0	0
39.36087	-0.01591971	-0.335148	0	0	0	0
39.37743	-0.01591971	-0.335148	0	0	0	0
39.394	-0.01591971	-0.335148	0	0	0	0
39.41057	-0.01591971	-0.335148	0	0	0	0
39.42775	-0.01591971	-0.335148	0	0	0	0
39.44434	-0.01591971	-0.335148	0	0	0	0
39.46088	-0.01591971	-0.335148	0	0	0	0
39.47745	-0.01591971	-0.335148	0	0	0	0
39.49403	-0.01591971	-0.335148	0	0	0	0
39.51101	-0.01591971	-0.335148	0	0	0	0
39.52715	-0.01594602	-0.3351698	-0.001630105	-0.001351631	-0.04921365	-0.04080639
39.54395	-0.01594602	-0.3351698	0	0	0.04949868	0.04104273
39.56029	-0.01594602	-0.3351698	0	0	0	0
39.57685	-0.01594602	-0.3351698	0	0	0	0
39.59351	-0.01594602	-0.3351698	0	0	0	0
39.6102	-0.01594602	-0.3351698	0	0	0	0
39.62655	-0.01594602	-0.3351698	0	0	0	0
39.64323	-0.01594602	-0.3351698	0	0	0	0
39.65968	-0.01594602	-0.3351698	0	0	0	0
39.67625	-0.01594602	-0.3351698	0	0	0	0
39.69283	-0.01594602	-0.3351698	0	0	0	0
39.70964	-0.01594602	-0.3351698	0	0	0	0
39.726	-0.01594602	-0.3351698	0	0	0	0
39.74252	-0.01594602	-0.3351698	0	0	0	0
39.75921	-0.01594602	-0.3351698	0	0	0	0
39.77582	-0.01594602	-0.3351698	0	0	0	0
39.79237	-0.01594602	-0.3351698	0	0	0	0
39.80878	-0.01594602	-0.3351698	0	0	0	0
39.82535	-0.01594602	-0.3351698	0	0	0	0
39.84192	-0.01594602	-0.3351698	0	0	0	0
39.85851	-0.01594602	-0.3351698	0	0	0	0
39.87513	-0.01594602	-0.3351698	0	0	0	0
39.8921	-0.01594602	-0.3351698	0	0	0	0
39.90819	-0.01594602	-0.3351698	0	0	0	0
39.92476	-0.01594602	-0.3351698	0	0	0	0
39.94132	-0.01594602	-0.3351698	0	0	0	0
39.95864	-0.01594602	-0.3351698	0	0	0	0
39.97466	-0.01594602	-0.3351698	0	0	0	0
39.99168	-0.01594602	-0.3351698	0	0	0	0
40.00759	-0.01594602	-0.3351698	0	0	0	0
40.02419	-0.01594602	-0.3351698	0	0	0	0
40.04072	-0.01594602	-0.3351698	0	0	0	0
40.05729	-0.01594602	-0.3351698	0	0	0	0
40.07423	-0.01594602	-0.3351698	0	0	0	0
40.09042	-0.01594602	-0.3351698	0	0	0	0
40.10699	-0.01594602	-0.3351698	0	0	0	0
40.1236	-0.01594602	-0.3351698	0	0	0	0
40.14026	-0.01594602	-0.3351698	0	0	0	0
40.15668	-0.01594602	-0.3351698	0	0	0	0
40.17325	-0.01597233	-0.3351916	-0.001587954	-0.001316774	-0.04813513	-0.03991495
40.18982	-0.01597233	-0.3351916	0	0	0.04792455	0.03974032
40.20639	-0.01597233	-0.3351916	0	0	0	0
40.22295	-0.01597233	-0.3351916	0	0	0	0
40.23985	-0.01597233	-0.3351916	0	0	0	0
40.25609	-0.01597233	-0.3351916	0	0	0	0
40.27287	-0.01597233	-0.3351916	0	0	0	0
40.28922	-0.01597233	-0.3351916	0	0	0	0
40.30589	-0.01597233	-0.3351916	0	0	0	0
40.32236	-0.01597233	-0.3351916	0	0	0	0
40.33892	-0.01597233	-0.3351916	0	0	0	0
40.3556	-0.01597233	-0.3351916	0	0	0	0
40.37206	-0.01597233	-0.3351916	0	0	0	0
40.38863	-0.01597233	-0.3351916	0	0	0	0
40.40535	-0.01597233	-0.3351916	0	0	0	0
40.42184	-0.01594602	-0.3352134	0.00159567	-0.001321365	0.04804126	-0.03978268
40.43858	-0.01594602	-0.3352134	0	0	-0.04802471	0.03976898
40.4549	-0.01594602	-0.3352134	0	0	0	0
40.47146	-0.01594602	-0.3352134	0	0	0	0
40.48803	-0.01594602	-0.3352134	0	0	0	0
40.50511	-0.01594602	-0.3352134	0	0	0	0
40.52116	-0.01597233	-0.3352352	-0.001639678	-0.001359665	-0.04949127	-0.04103949
40.53772	-0.01597233	-0.3352352	0	0	0.05027859	0.04169235
40.55429	-0.01597233	-0.3352352	0	0	0	0
40.57085	-0.01597233	-0.3352352	0	0	0	0
40.58752	-0.01597233	-0.3352352	0	0	0	0
40.60415	-0.01597233	-0.3352352	0	0	0	0
40.62056	-0.01597233	-0.3352352	0	0	0	0
40.63734	-0.01597233	-0.3352352	0	0	0	0
40.65387	-0.01597233	-0.3352352	0	0	0	0
40.67094	-0.01597233	-0.3352352	0	0	0	0
40.68751	-0.01597233	-0.3352352	0	0	0	0
40.70408	-0.01597233	-0.3352352	0	0	0	0
40.72064	-0.01597233	-0.3352352	0	0	0	0
40.73791	-0.01597233	-0.3352352	0	0	0	0
40.75378	-0.01597233	-0.3352352	0	0	0	0
40.77386	-0.01597233	-0.3352352	0	0	0	0
40.79043	-0.01597233	-0.3352352	0	0	0	0
40.807	-0.01597233	-0.3352352	0	0	0	0
40.82361	-0.01597233	-0.3352352	0	0	0	0
40.84013	-0.01597233	-0.3352352	0	0	0	0
40.8567	-0.01597233	-0.3352352	0	0	0	0
40.87326	-0.01597233	-0.3352352	0	0	0	0
40.88983	-0.01597233	-0.3352352	0	0	0	0
40.9064	-0.01597233	-0.3352352	0	0	0	0
40.92297	-0.01597233	-0.3352352	0	0	0	0
40.93953	-0.01597233	-0.3352352	0	0	0	0
40.9561	-0.01597233	-0.3352352	0	0	0	0
40.97283	-0.01597233	-0.3352352	0	0	0	0
40.98925	-0.01597233	-0.3352352	0	0	0	0
41.0058	-0.01599864	-0.3352571	-0.00158953	-0.001317988	-0.04821079	-0.03997485
41.02237	-0.01599864	-0.3352571	0	0	0.0479887	0.0397907
41.03894	-0.01599864	-0.3352571	0	0	0	0
41.0555	-0.01599864	-0.3353007	0	-0.002634155	0	-0.0795081
41.07207	-0.01599864	-0.3353007	0	0	0	0.0795081
41.08909	-0.01599864	-0.3353007	0	0	0	0
41.1052	-0.01602494	-0.3354097	-0.001633077	-0.006769107	-0.04929204	-0.2043156
41.12177	-0.01602494	-0.3354097	0	0	0.04997681	0.2071539
41.13833	-0.01602494	-0.3354097	0	0	0	0
41.1549	-0.01797175	-0.3378546	-0.1175094	-0.147574	-3.54644	-4.453793
41.17147	-0.01797175	-0.3378546	0	0	3.54644	4.453793
41.18821	-0.01797175	-0.3378546	0	0	0	0
41.20524	-0.007894573	-0.3463737	0.5917722	-0.500273	17.52282	-14.81346
41.22116	-0.007894573	-0.3463737	0	0	-17.95688	15.18041
41.23786	-0.007894573	-0.3463737	0	0	0	0
41.25438	0.01502519	-0.3664074	1.387593	-1.212866	41.78143	-36.52029
41.27087	0.01502519	-0.3664074	0	0	-42.03735	36.74398
41.28757	0.01502519	-0.3664074	0	0	0	0
41.304	0.05027339	-0.4016156	2.145369	-2.142934	64.75483	-64.68133
41.32056	0.05027339	-0.4016156	0	0	-65.02436	64.95055
41.33713	0.05027339	-0.4016156	0	0	0	0
41.35369	0.04798944	-0.4697964	-0.1378912	-4.116353	-4.162044	-124.2461
41.37026	0.04798944	-0.4697964	0	0	4.162044	124.2461
41.38683	0.04798944	-0.4697964	0	0	0	0
41.40339	0.02920222	-0.5479968	-1.133999	-4.720182	-34.22416	-142.4554
41.41996	0.02920222	-0.5479968	0	0	34.22416	142.4554
41.43662	0.02920222	-0.5479968	0	0	0	0
41.45454	0.02683566	-0.6154961	-0.13208	-3.767202	-3.819524	-108.9409
41.47111	0.02683566	-0.6154961	0	0	3.829664	109.2301
41.48768	0.02683566	-0.6154961	0	0	0	0
41.50425	0.04144993	-0.655704	0.8821191	-2.426951	26.62241	-73.24554
41.52083	0.04144993	-0.655704	0	0	-26.60709	73.2034
41.53795	0.04144993	-0.655704	0	0	0	0
41.55399	0.06393904	-0.6864312	1.401661	-1.915114	42.26815	-57.75171
41.57051	0.06393904	-0.6864312	0	0	-43.04557	58.81392
41.58745	0.06393904	-0.6864312	0	0	0	0
41.60448	0.08503132	-0.7097437	1.238068	-1.368388	36.44197	-40.27786
41.62021	0.08503132	-0.7097437	0	0	-37.79136	41.76928
41.63756	0.08503132	-0.7097437	0	0	0	0
41.65334	0.0977402	-0.7241024	0.8051128	-0.9096333	24.29835	-27.45279
41.67033	0.0977402	-0.7241024	0	0	-24.5699	27.75959
41.68739	0.0977402	-0.7241024	0	0	0	0
41.70304	0.1088574	-0.7367513	0.7102897	-0.8081473	21.71154	-24.70277
41.71961	0.1088574	-0.7367513	0	0	-22.04572	25.08299
41.73635	0.1088574	-0.7367513	0	0	0	0
41.75274	0.1099495	-0.737896	0.06662443	-0.06983069	2.010729	-2.107495
41.76942	0.1099495	-0.737896	0	0	-2.014905	2.111871
41.78593	0.1099495	-0.737896	0	0	0	0
41.8035	0.1101835	-0.738107	0.01331985	-0.01201479	0.3908347	-0.3525415
41.81901	0.1101835	-0.738107	0	0	-0.4026427	0.3631926
41.83573	0.1101835	-0.738107	0	0	0	0
41.85229	0.1108594	-0.7388912	0.04080601	-0.04734281	1.226023	-1.422422
41.86871	0.1108594	-0.7388912	0	0	-1.237225	1.435419
41.88528	0.1108594	-0.7388912	0	0	0	0
41.90195	0.1168079	-0.7458265	0.3569181	-0.4161243	10.73966	-12.52118
41.91924	0.1168079	-0.7458265	0	0	-10.51162	12.25531
41.93498	0.1168079	-0.7458265	0	0	0	0
41.95155	0.116756	-0.7457657	-0.003134356	0.003670543	-0.0970074	0.1136022
41.96811	0.116756	-0.7457657	0	0	0.09460595	-0.11079
41.98468	0.116756	-0.7457657	0	0	0	0
42.00125	0.116756	-0.7457657	0	0	0	0
42.01876	0.116756	-0.7457657	0	0	0	0
42.03438	0.116756	-0.7457657	0	0	0	0
42.05143	0.1166781	-0.7456745	-0.004567341	0.005348154	-0.13979	0.1636879
42.06751	0.1166781	-0.7456745	0	0	0.1378585	-0.1614262
42.08408	0.1166781	-0.7456745	0	0	0	0
42.10065	0.1166003	-0.7455833	-0.004700452	0.005504548	-0.1418599	0.1661276
42.11721	0.1166003	-0.7455833	0	0	0.1418599	-0.1661276
42.13382	0.1166003	-0.7455833	0	0	0	0
42.15035	0.1164964	-0.7454618	-0.006281185	0.007351032	-0.1895665	0.2218546
42.16692	0.1164964	-0.7454618	0	0	0.1897632	-0.2220847
42.18348	0.1164964	-0.7454618	0	0	0	0
42.20012	0.1163147	-0.7452491	-0.01092585	0.0127867	-0.3290988	0.3851495
42.21711	0.1163147	-0.7452491	0	0	0.3249174	-0.3802559
42.23318	0.1163147	-0.7452491	0	0	0	0
42.24975	0.1159772	-0.7448542	-0.02037692	0.02384054	-0.6243205	0.7304412
42.26632	0.1159772	-0.7448542	0	0	0.6149765	-0.7195089
42.28308	0.1159772	-0.7448542	0	0	0	0
42.29946	0.1143412	-0.7429431	-0.09989963	0.116698	-3.01463	3.521546
42.31602	0.1143412	-0.7429431	0	0	3.033135	-3.543163
42.33259	0.1143412	-0.7429431	0	0	0	0
42.34952	0.112055	-0.7400988	-0.1350133	0.1679679	-4.029709	5.013295
42.36572	0.112055	-0.7400988	0	0	4.07518	-5.069864
42.38229	0.112055	-0.7400988	0	0	0	0
42.39885	0.1121069	-0.7400385	0.003136783	0.003644514	0.09466829	0.1099917
42.41542	0.1121069	-0.7400385	0	0	-0.09466829	-0.1099917
42.43199	0.1121069	-0.7400385	0	0	0	0
42.44855	0.1120809	-0.7400082	-0.001568166	0.001824056	-0.04732736	0.05505012
42.46522	0.1120809	-0.7400082	0	0	0.04718611	-0.05488583
42.48169	0.1120809	-0.7400082	0	0	0	0
42.49826	0.1083373	-0.7354878	-0.2259662	0.2728529	-6.839357	8.258486
42.515	0.1083373	-0.7354878	0	0	6.783747	-8.191336
42.53148	0.1083373	-0.7354878	0	0	0	0
42.548	0.09226362	-0.7169996	-0.9726729	1.118785	-29.47409	33.90162
