Time	Pos X	Pos Y	Vel X	Vel Y	Acc X	Acc Y
0.01609261	0.04767143	-0.06295074	-0.0007945499	0.001049213	1.324859E-05	-1.749493E-05
0.03266327	0.04767143	-0.06295074	0	0	-1.324659E-05	1.749229E-05
0.04922525	0.04767143	-0.06295074	0	0	0	0
0.06601698	0.04767143	-0.06295074	0	0	0	0
0.08236184	0.04767143	-0.06295074	0	0	0	0
0.0989254	0.04767143	-0.06295074	0	0	0	0
0.1155687	0.04767143	-0.06295074	0	0	0	0
0.1320742	0.04767143	-0.06295074	0	0	0	0
0.1486267	0.04767143	-0.06295074	0	0	0	0
0.1651911	0.04767143	-0.06295074	0	0	0	0
0.1826428	0.04767143	-0.06295074	0	0	0	0
0.1986443	0.04767143	-0.06295074	0	0	0	0
0.2151518	0.04889378	-0.06295074	0.07404766	0	2.277764	0
0.2314599	0.04889378	-0.06295074	0	0	-2.256474	0
0.248027	0.04889378	-0.06295074	0	0	0	0
0.2646881	0.04889378	-0.06295074	0	0	0	0
0.2811585	0.04889378	-0.06295074	0	0	0	0
0.2977248	0.04889378	-0.06295074	0	0	0	0
0.3142915	0.04889378	-0.06295074	0	0	0	0
0.3308578	0.04889378	-0.06295074	0	0	0	0
0.3474257	0.04889378	-0.06295074	0	0	0	0
0.363992	0.04889378	-0.06295074	0	0	0	0
0.3805575	0.05011613	-0.0617284	0.07378874	0.07378829	2.227125	2.227111
0.3971243	0.05133847	-0.0617284	0.07378298	0	-0.0001738275	-2.227083
0.4136906	0.05256081	-0.05928371	0.07378484	0.1475699	5.59923E-05	4.453861
0.4310796	0.05622784	-0.05806136	0.2108824	0.07029421	4.037589	-2.275806
0.4478038	0.06111723	-0.05561668	0.2923533	0.1461762	2.38825	2.224416
0.4642142	0.06233957	-0.05439433	0.07448592	0.07448614	-6.575222	-2.163601
0.4808401	0.06722894	-0.05194964	0.294081	0.1470406	6.647079	2.196202
0.4978517	0.0770077	-0.04950495	0.5748285	0.1437072	8.346253	-0.09909594
0.5143478	0.09045349	-0.04583792	0.8150907	0.2222975	7.170363	2.345442
0.530481	0.1161227	-0.04217089	1.591077	0.2272965	23.78187	0.1532034
0.5470482	0.1405696	-0.03728151	1.475628	0.2951257	-3.530499	2.074265
0.5636165	0.1760176	-0.03116979	2.139506	0.3688803	20.0353	2.225854
0.5817373	0.2456912	-0.01894634	3.844935	0.6745502	49.16313	8.811677
0.5983072	0.2860286	-0.01527931	2.434384	0.2213074	-40.66075	-13.06524
0.6149244	0.2933627	-0.01527931	0.4413521	5.604557E-08	-60.05443	-6.668478
0.631439	0.3019191	-0.01405696	0.5181128	0.07401597	2.316826	2.233982
0.6480061	0.3031414	-0.01405696	0.07378125	5.621515E-08	-13.43134	-2.237367
0.6645728	0.3043638	-0.01405696	0.07378131	0	1.798907E-06	-1.69661E-06
0.6811392	0.3043638	-0.01405696	0	0	-2.22682	0
0.6977075	0.3068085	-0.01405696	0.1475537	0	4.453156	0
0.714273	0.3141425	-0.01283462	0.4427305	0.07378848	8.908631	2.226985
0.7308381	0.3239213	-0.01283462	0.590322	5.622182E-08	4.454831	-2.227195
0.7475268	0.3324777	-0.01283462	0.5127058	0	-2.33405	-1.690686E-06
0.7645392	0.3434788	-0.01283462	0.6466518	0	3.974526	0
0.7805387	0.3459235	-0.01283462	0.1527982	0	-14.95989	0
0.7971058	0.3483682	-0.01283462	0.1475625	0	-0.160768	0
0.8136721	0.3508129	-0.01405696	0.1475694	-0.07378487	0.0002086755	-2.2269
0.8302397	0.3520352	-0.01405696	0.0737812	0	-2.226973	2.226872
0.8468052	0.3532576	-0.01405696	0.07378843	5.622061E-08	0.0002181226	1.696815E-06
0.8633715	0.3532576	-0.01405696	0	0	-2.227115	-1.696876E-06
0.8801171	0.3532576	-0.01405696	0	0	0	0
0.8971318	0.3532576	-0.01405696	0	0	0	0
0.9197071	0.3532576	-0.01405696	0	0	0	0
0.9366729	0.3532576	-0.01405696	0	0	0	0
0.9528421	0.3532576	-0.01405696	0	0	0	0
0.9694096	0.3532576	-0.01405696	0	0	0	0
0.985976	0.3520352	-0.01405696	-0.07378471	-5.621778E-08	-2.226867	-1.696686E-06
1.002705	0.3275883	-0.01161227	-1.461318	0.1461317	-41.67305	4.388909
1.01911	0.2676934	-0.009167584	-3.651044	0.1490222	-66.08654	0.08723556
1.035719	0.1564601	0.003055861	-6.697335	0.735971	-92.2742	17.77907
1.052271	0.03544799	0.01161227	-7.310987	0.5169384	-18.50541	-6.605188
1.068807	-0.07211833	0.01650165	-6.504838	0.2956745	24.36346	-6.687044
1.085376	-0.1833517	0.01038993	-6.713624	-0.3688804	-6.306847	-20.07436
1.102286	-0.1833517	0.01038993	0	0	200.5332	11.01831
1.11851	-0.1992421	0.004278206	-0.9794618	-0.3767164	-29.56043	-11.36941
1.135076	-0.2041315	-0.001833517	-0.2951472	-0.3689335	20.86987	0.23736
1.151642	-0.2065762	-0.006722894	-0.1475657	-0.2951319	4.454257	2.227456
1.168336	-0.2090209	-0.01283462	-0.1464433	-0.3661067	0.03374565	-2.133899
1.184835	-0.2114656	-0.02383572	-0.1481734	-0.6667818	-0.05212434	-9.058489
1.201343	-0.2139103	-0.02994744	-0.148093	-0.370231	0.002436525	8.984572
1.217909	-0.2175773	-0.03728151	-0.2213636	-0.4427296	-2.215391	-2.192051
1.234872	-0.2187997	-0.04461557	-0.07205751	-0.4323354	4.452989	0.310003
1.251042	-0.220022	-0.04706026	-0.07559608	-0.1511942	-0.1067989	8.485224
1.267609	-0.2212444	-0.04706026	-0.07377754	0	0.05554969	4.618432
1.284175	-0.2212443	-0.0482826	8.995071E-07	-0.07378656	2.226678	-2.226923
1.300743	-0.2212443	-0.0482826	0	0	-2.714767E-05	2.226923
1.317947	-0.2212443	-0.0482826	0	0	0	0
1.333876	-0.2224667	-0.04706027	-0.07674001	0.0767379	-2.316151	2.316088
1.350443	-0.2249114	-0.04217088	-0.1475625	0.2951259	-2.179431	6.720488
1.367009	-0.2261337	-0.04217089	-0.07378408	-2.248719E-07	2.226709	-8.907214
1.383575	-0.2273561	-0.04094854	-0.07378906	0.07378861	-0.0001504426	2.227128
1.400143	-0.2298008	-0.04583792	-0.1475519	-0.2951047	-2.226207	-11.13342
1.41671	-0.2346901	-0.05683902	-0.2951259	-0.6640324	-4.453665	-11.13394
1.433276	-0.2530253	-0.1045105	-1.106825	-2.877744	-24.49845	-66.81355
1.449843	-0.2750275	-0.1790735	-1.328093	-4.500762	-6.678312	-48.98594
1.466411	-0.2823616	-0.2181885	-0.4426557	-2.360834	26.72207	64.58199
1.483064	-0.287251	-0.2426354	-0.2936078	-1.468035	4.486539	26.87444
1.499576	-0.2896957	-0.2536365	-0.1480526	-0.6662365	4.388808	24.17596
1.516115	-0.2896957	-0.2560812	0	-0.1478174	4.479517	15.68542
1.532676	-0.2896957	-0.2560812	0	0	0	4.465799
1.549243	-0.2896957	-0.2560812	0	0	0	0
1.565811	-0.2896957	-0.2560812	0	0	0	0
1.582377	-0.2896957	-0.2560812	0	0	0	0
1.598945	-0.2896957	-0.2560812	0	0	0	0
1.615509	-0.2896957	-0.2560812	0	0	0	0
1.632076	-0.2896957	-0.2560812	0	0	0	0
1.648668	-0.2896957	-0.2560812	0	0	0	0
1.66522	-0.2896957	-0.2560812	0	0	0	0
1.68221	-0.2896957	-0.2560812	0	0	0	0
1.699214	-0.2896957	-0.2560812	0	0	0	0
1.714913	-0.2896957	-0.2560812	0	0	0	0
1.731747	-0.2896957	-0.2560812	0	0	0	0
1.748043	-0.2896957	-0.2560812	0	0	0	0
1.764609	-0.2896957	-0.2560812	0	0	0	0
1.781175	-0.287251	-0.2536365	0.1475763	0.1475781	4.454263	4.454317
1.797783	-0.2738052	-0.2426354	0.8095917	0.6623926	19.95604	15.51876
1.814309	-0.2664711	-0.2365237	0.4437764	0.3698146	-11.04029	-8.829991
1.830876	-0.2542477	-0.2206332	0.7378303	0.9591788	8.885624	17.80922
1.847828	-0.2408019	-0.202298	0.7931501	1.081568	1.650395	3.651315
1.864009	-0.2285784	-0.1839629	0.7554529	1.13318	-1.137765	1.557738
1.880575	-0.2029092	-0.1534042	1.549443	1.844575	24.24618	21.72396
1.897898	-0.180907	-0.131402	1.270139	1.27014	-8.241631	-16.95027
1.913709	-0.1589048	-0.1069551	1.391601	1.546221	3.665831	8.33241
1.930275	-0.1356802	-0.08006356	1.401916	1.623273	0.3186069	2.379833
1.946842	-0.113678	-0.05806137	1.328094	1.328093	-2.228071	-8.908926
1.963409	-0.1002322	-0.04461557	0.811596	0.8115956	-15.58821	-15.58821
1.979975	-0.09167584	-0.03483682	0.5164952	0.5902807	-8.906448	-6.679515
1.996974	-0.0880088	-0.0262804	0.2157209	0.5033478	-8.960875	-2.589963
2.013108	-0.08434177	-0.02139103	0.2272803	0.3030407	0.3488732	-6.045476
2.029674	-0.08067474	-0.01527931	0.2213649	0.3689415	-0.1808981	2.015319
2.046242	-0.07700771	-0.009167584	0.221339	0.368899	-0.0007829927	-0.001281751
2.062811	-0.07578535	-0.007945239	0.07377207	0.07377134	-4.453258	-8.906331
2.079375	-0.07456302	-0.006722894	0.07379514	0.07379571	0.0006961884	0.0007355402
2.096003	-0.07334068	-0.00550055	0.07350991	0.07351002	-0.008593312	-0.008607005
2.112537	-0.07334068	-0.00550055	0	0	-2.216699	-2.216702
2.129075	-0.07334068	-0.00550055	0	0	0	0
2.145642	-0.06722894	-0.003055861	0.3689262	0.1475702	11.14416	4.457656
2.163062	-0.05745019	0.0006111722	0.5613348	0.2105007	5.661273	1.851614
2.178775	-0.04644909	0.003055861	0.7001391	0.1555865	4.189273	-1.657374
2.195341	-0.03789268	0.00550055	0.5164957	0.1475702	-5.68925	-0.2483432
2.212097	-0.03055861	0.00550055	0.4377028	0	-2.364585	-4.428598
2.228475	-0.02933627	0.00550055	0.07463135	2.843142E-08	-10.9576	8.580682E-07
2.245154	-0.02811392	0.00550055	0.07328736	-2.791933E-08	-0.04065642	-1.704643E-06
2.261608	-0.02689158	0.00550055	0.07428758	2.830042E-08	0.03018795	1.696789E-06
2.278175	-0.02689158	0.00550055	0	0	-2.249741	-8.570561E-07
2.294741	-0.02689158	0.00550055	0	0	0	0
2.311309	-0.02689158	0.00550055	0	0	0	0
2.327875	-0.02689158	0.00550055	0	0	0	0
2.344443	-0.02689158	0.00550055	0	0	0	0
2.361211	-0.02689158	0.00550055	0	0	0	0
2.377575	-0.02689158	0.00550055	0	0	0	0
2.394239	-0.02689158	0.004278206	0	-0.07335123	0	-2.220856
2.410751	-0.02689158	0.004278206	0	0	0	2.210961
2.427274	-0.02689158	0.004278206	0	0	0	0
2.444282	-0.02689158	0.004278206	0	0	0	0
2.460408	-0.02689158	0.004278206	0	0	0	0
2.476978	-0.02689158	0.004278206	0	0	0	0
2.493541	-0.02689158	0.003055861	0	-0.07379572	0	-2.227207
2.510341	-0.0220022	0.0006111722	0.2910357	-0.1455178	8.723092	-2.149698
2.526675	-0.01833517	0.0006111722	0.2245155	-3.563785E-09	-2.007671	4.391927
2.543242	-0.01711282	0.0006111722	0.07377765	3.51327E-09	-4.581551	2.151012E-07
2.559809	-0.01589048	0.0006111722	0.07378201	-3.513472E-09	0.0001315406	-2.120644E-07
2.576377	-0.01222344	0.0006111722	0.2213393	3.513371E-09	4.453289	2.120705E-07
2.593376	-0.007334067	-0.0006111723	0.2876273	-0.07190683	1.974826	-2.142222
2.609896	-0.002444689	-0.001833517	0.2959583	-0.07398956	0.248541	-0.0621348
2.626077	0.003667033	-0.003055861	0.3777267	-0.07554533	2.500505	-0.04757618
2.642644	0.0110011	-0.00550055	0.4426916	-0.1475639	1.983825	-2.199222
2.659416	0.01589048	-0.00550055	0.2915073	0	-4.534657	4.426065
2.675777	0.01711282	-0.00550055	0.07471194	0	-6.543085	0
2.698931	0.01833517	-0.006722894	0.0527935	-0.0527935	-0.5546997	-1.336069
2.7155	0.01955751	-0.006722894	0.07377128	0	0.5281059	1.329052
2.732067	0.01955751	-0.006722894	0	0	-2.22631	0
2.748977	0.01955751	-0.006722894	0	0	0	0
2.765198	0.01955751	-0.006722894	0	0	0	0
2.781765	0.01955751	-0.006722894	0	0	0	0
2.798333	0.01955751	-0.006722894	0	0	0	0
2.815035	0.01955751	-0.006722894	0	0	0	0
2.832027	0.01955751	-0.006722894	0	0	0	0
2.84804	0.01955751	-0.006722894	0	0	0	0
2.8646	0.01955751	-0.006722894	0	0	0	0
2.881166	0.01955751	-0.006722894	0	0	0	0
2.897732	0.01955751	-0.006722894	0	0	0	0
2.914299	0.01955751	-0.006722894	0	0	0	0
2.931095	0.01955751	-0.006722894	0	0	0	0
2.947431	0.01955751	-0.006722894	0	0	0	0
2.963998	0.01955751	-0.006722894	0	0	0	0
2.980647	0.01955751	-0.006722894	0	0	0	0
2.99713	0.01955751	-0.006722894	0	0	0	0
3.014163	0.01955751	-0.006722894	0	0	0	0
3.030265	0.01955751	-0.006722894	0	0	0	0
3.047174	0.01955751	-0.006722894	0	0	0	0
3.063694	0.01955751	-0.006722894	0	0	0	0
3.079964	0.01955751	-0.006722894	0	0	0	0
3.096738	0.01955751	-0.006722894	0	0	0	0
3.113097	0.01955751	-0.006722894	0	0	0	0
3.129747	0.01955751	-0.006722894	0	0	0	0
3.14623	0.01955751	-0.006722894	0	0	0	0
3.162797	0.01955751	-0.006722894	0	0	0	0
3.179364	0.01955751	-0.006722894	0	0	0	0
3.19593	0.01955751	-0.006722894	0	0	0	0
3.212801	0.01955751	-0.006722894	0	0	0	0
3.229066	0.01955751	-0.006722894	0	0	0	0
3.245632	0.01955751	-0.006722894	0	0	0	0
3.262197	0.01955751	-0.006722894	0	0	0	0
3.278849	0.01955751	-0.006722894	0	0	0	0
3.295379	0.01955751	-0.006722894	0	0	0	0
3.311897	0.01955751	-0.006722894	0	0	0	0
3.328464	0.01955751	-0.006722894	0	0	0	0
3.345408	0.01955751	-0.006722894	0	0	0	0
3.361598	0.01955751	-0.006722894	0	0	0	0
3.378912	0.01955751	-0.006722894	0	0	0	0
3.394731	0.01955751	-0.006722894	0	0	0	0
3.411464	0.01955751	-0.006722894	0	0	0	0
3.427865	0.01955751	-0.006722894	0	0	0	0
3.444471	0.01955751	-0.006722894	0	0	0	0
3.460997	0.01955751	-0.006722894	0	0	0	0
3.477564	0.01955751	-0.006722894	0	0	0	0
3.49413	0.01955751	-0.006722894	0	0	0	0
3.510698	0.01955751	-0.006722894	0	0	0	0
3.527264	0.01955751	-0.006722894	0	0	0	0
3.54383	0.01955751	-0.006722894	0	0	0	0
3.5604	0.01955751	-0.006722894	0	0	0	0
3.577074	0.01955751	-0.006722894	0	0	0	0
3.593592	0.01955751	-0.006722894	0	0	0	0
3.610097	0.01955751	-0.006722894	0	0	0	0
3.626664	0.01955751	-0.006722894	0	0	0	0
3.643231	0.01955751	-0.006722894	0	0	0	0
3.659797	0.01955751	-0.006722894	0	0	0	0
3.676366	0.01955751	-0.006722894	0	0	0	0
3.692931	0.01955751	-0.006722894	0	0	0	0
3.70964	0.01955751	-0.006722894	0	0	0	0
3.726168	0.01955751	-0.006722894	0	0	0	0
3.742631	0.01955751	-0.006722894	0	0	0	0
3.759198	0.01955751	-0.006722894	0	0	0	0
3.775765	0.01955751	-0.006722894	0	0	0	0
3.793226	0.01955751	-0.006722894	0	0	0	0
3.808897	0.01955751	-0.006722894	0	0	0	0
3.825464	0.01955751	-0.006722894	0	0	0	0
3.842031	0.01955751	-0.006722894	0	0	0	0
3.858598	0.01955751	-0.006722894	0	0	0	0
3.875164	0.01955751	-0.006722894	0	0	0	0
3.891768	0.01955751	-0.006722894	0	0	0	0
3.908316	0.01955751	-0.006722894	0	0	0	0
3.924865	0.01955751	-0.006722894	0	0	0	0
3.941431	0.01955751	-0.006722894	0	0	0	0
3.958347	0.01955751	-0.006722894	0	0	0	0
3.974564	0.01955751	-0.006722894	0	0	0	0
3.991361	0.01955751	-0.006722894	0	0	0	0
4.007698	0.01955751	-0.006722894	0	0	0	0
4.02438	0.02077986	-0.006722894	0.0732727	0	2.219119	0
4.040896	0.02077986	-0.006722894	0	0	-2.207087	0
4.057397	0.02077986	-0.006722894	0	0	0	0
4.073965	0.02077986	-0.00794524	0	-0.07377877	0	-2.231079
4.09094	0.02077986	-0.00794524	0	0	0	2.199521
4.107437	0.0220022	-0.007945239	0.0740985	5.645686E-08	2.213773	1.68671E-06
4.123947	0.0220022	-0.007945239	0	0	-2.244955	-1.710468E-06
4.140231	0.0220022	-0.007945239	0	0	0	0
4.156969	0.0220022	-0.007945239	0	0	0	0
4.173495	0.0220022	-0.007945239	0	0	0	0
4.189996	0.0220022	-0.007945239	0	0	0	0
4.206497	0.0220022	-0.007945239	0	0	0	0
4.223063	0.0220022	-0.007945239	0	0	0	0
4.23963	0.0220022	-0.007945239	0	0	0	0
4.256196	0.0220022	-0.007945239	0	0	0	0
4.272764	0.0220022	-0.007945239	0	0	0	0
4.28933	0.0220022	-0.007945239	0	0	0	0
4.306076	0.0220022	-0.007945239	0	0	0	0
4.322464	0.0220022	-0.007945239	0	0	0	0
4.339031	0.0220022	-0.007945239	0	0	0	0
4.355598	0.0220022	-0.007945239	0	0	0	0
4.372165	0.0220022	-0.007945239	0	0	0	0
4.388731	0.0220022	-0.007945239	0	0	0	0
4.405648	0.0220022	-0.007945239	0	0	0	0
4.422189	0.0220022	-0.007945239	0	0	0	0
4.438431	0.0220022	-0.007945239	0	0	0	0
4.454998	0.0220022	-0.007945239	0	0	0	0
4.471563	0.0220022	-0.007945239	0	0	0	0
4.4882	0.0220022	-0.007945239	0	0	0	0
4.504697	0.0220022	-0.007945239	0	0	0	0
4.521263	0.0220022	-0.007945239	0	0	0	0
4.537831	0.0220022	-0.007945239	0	0	0	0
4.554754	0.0220022	-0.007945239	0	0	0	0
4.570964	0.0220022	-0.007945239	0	0	0	0
4.587531	0.0220022	-0.007945239	0	0	0	0
4.608784	0.0220022	-0.007945239	0	0	0	0
4.626018	0.0220022	-0.007945239	0	0	0	0
4.642586	0.0220022	-0.007945239	0	0	0	0
4.659153	0.0220022	-0.007945239	0	0	0	0
4.675834	0.0220022	-0.007945239	0	0	0	0
4.692345	0.0220022	-0.007945239	0	0	0	0
4.709376	0.0220022	-0.007945239	0	0	0	0
4.72542	0.0220022	-0.007945239	0	0	0	0
4.741986	0.0220022	-0.007945239	0	0	0	0
4.758903	0.0220022	-0.007945239	0	0	0	0
4.775119	0.0220022	-0.007945239	0	0	0	0
4.791686	0.0220022	-0.007945239	0	0	0	0
4.808253	0.0220022	-0.007945239	0	0	0	0
4.82482	0.0220022	-0.007945239	0	0	0	0
4.841386	0.0220022	-0.007945239	0	0	0	0
4.857954	0.0220022	-0.007945239	0	0	0	0
4.87452	0.0220022	-0.007945239	0	0	0	0
4.891086	0.0220022	-0.007945239	0	0	0	0
4.908011	0.0220022	-0.007945239	0	0	0	0
4.92422	0.0220022	-0.007945239	0	0	0	0
4.940786	0.0220022	-0.007945239	0	0	0	0
4.957353	0.0220022	-0.007945239	0	0	0	0
4.97409	0.0220022	-0.007945239	0	0	0	0
4.990601	0.0220022	-0.007945239	0	0	0	0
5.007054	0.0220022	-0.007945239	0	0	0	0
5.023621	0.0220022	-0.007945239	0	0	0	0
5.040187	0.0220022	-0.007945239	0	0	0	0
5.057117	0.0220022	-0.007945239	0	0	0	0
5.07332	0.0220022	-0.007945239	0	0	0	0
5.090148	0.0220022	-0.007945239	0	0	0	0
5.106453	0.0220022	-0.007945239	0	0	0	0
5.123021	0.0220022	-0.007945239	0	0	0	0
5.139588	0.0220022	-0.007945239	0	0	0	0
5.156156	0.0220022	-0.007945239	0	0	0	0
5.172722	0.0220022	-0.007945239	0	0	0	0
5.189287	0.0220022	-0.007945239	0	0	0	0
5.205854	0.0220022	-0.007945239	0	0	0	0
5.222421	0.0220022	-0.007945239	0	0	0	0
5.238988	0.0220022	-0.007945239	0	0	0	0
5.255556	0.0220022	-0.007945239	0	0	0	0
5.27212	0.0220022	-0.007945239	0	0	0	0
5.288688	0.0220022	-0.007945239	0	0	0	0
5.305255	0.0220022	-0.007945239	0	0	0	0
5.321832	0.0220022	-0.007945239	0	0	0	0
5.338388	0.0220022	-0.007945239	0	0	0	0
5.354954	0.0220022	-0.007945239	0	0	0	0
5.371521	0.0220022	-0.007945239	0	0	0	0
5.388088	0.0220022	-0.007945239	0	0	0	0
5.404876	0.0220022	-0.007945239	0	0	0	0
5.421888	0.0220022	-0.007945239	0	0	0	0
5.437894	0.0220022	-0.007945239	0	0	0	0
5.454354	0.0220022	-0.007945239	0	0	0	0
5.470922	0.0220022	-0.007945239	0	0	0	0
5.487487	0.0220022	-0.007945239	0	0	0	0
5.504055	0.0220022	-0.009167584	0	-0.07378089	0	-2.226808
5.520621	0.0220022	-0.009167584	0	0	0	2.226744
5.537188	0.0220022	-0.009167584	0	0	0	0
5.553755	0.0220022	-0.009167584	0	0	0	0
5.570322	0.0220022	-0.009167584	0	0	0	0
5.586997	0.0220022	-0.009167584	0	0	0	0
5.603507	0.0220022	-0.009167584	0	0	0	0
5.620023	0.0220022	-0.009167584	0	0	0	0
5.636589	0.0220022	-0.009167584	0	0	0	0
5.653154	0.0220022	-0.009167584	0	0	0	0
5.670063	0.0220022	-0.009167584	0	0	0	0
5.686564	0.0220022	-0.009167584	0	0	0	0
5.703088	0.0220022	-0.009167584	0	0	0	0
5.719585	0.0220022	-0.009167584	0	0	0	0
5.736116	0.0220022	-0.009167584	0	0	0	0
5.752614	0.0220022	-0.009167584	0	0	0	0
5.769132	0.0220022	-0.009167584	0	0	0	0
5.785688	0.0220022	-0.009167584	0	0	0	0
5.802255	0.0220022	-0.009167584	0	0	0	0
5.818821	0.0220022	-0.009167584	0	0	0	0
5.835389	0.0220022	-0.009167584	0	0	0	0
5.851954	0.0220022	-0.009167584	0	0	0	0
5.86852	0.0220022	-0.009167584	0	0	0	0
5.885088	0.0220022	-0.009167584	0	0	0	0
5.901715	0.0220022	-0.009167584	0	0	0	0
5.918238	0.0220022	-0.009167584	0	0	0	0
5.934787	0.0220022	-0.009167584	0	0	0	0
5.951355	0.0220022	-0.009167584	0	0	0	0
5.968264	0.0220022	-0.009167584	0	0	0	0
5.984488	0.0220022	-0.009167584	0	0	0	0
6.001283	0.0220022	-0.009167584	0	0	0	0
6.017621	0.0220022	-0.009167584	0	0	0	0
6.034189	0.0220022	-0.009167584	0	0	0	0
6.050807	0.0220022	-0.009167584	0	0	0	0
6.067322	0.0220022	-0.009167584	0	0	0	0
6.083888	0.0220022	-0.009167584	0	0	0	0
6.100453	0.0220022	-0.009167584	0	0	0	0
6.117022	0.0220022	-0.009167584	0	0	0	0
6.133588	0.0220022	-0.009167584	0	0	0	0
6.150155	0.0220022	-0.009167584	0	0	0	0
6.166722	0.0220022	-0.009167584	0	0	0	0
6.183288	0.0220022	-0.009167584	0	0	0	0
6.19992	0.0220022	-0.009167584	0	0	0	0
6.216421	0.0220022	-0.009167584	0	0	0	0
6.232988	0.0220022	-0.009167584	0	0	0	0
6.249554	0.0220022	-0.009167584	0	0	0	0
6.27036	0.0220022	-0.009167584	0	0	0	0
6.286973	0.0220022	-0.009167584	0	0	0	0
6.303502	0.0220022	-0.009167584	0	0	0	0
6.320061	0.0220022	-0.01038993	0	-0.07381696	0	-2.230947
6.336629	0.0220022	-0.01038993	0	0	0	2.228313
6.353197	0.02322455	-0.01038993	0.07377882	-5.621312E-08	2.226585	-1.696467E-06
6.370036	0.02322455	-0.01161227	0	-0.07258995	-2.208502	-2.172912
6.386329	0.02322455	-0.01283462	0	-0.07502023	0	-0.0733503
6.403065	0.02322455	-0.01405696	0	-0.07303876	0	0.05999159
6.419588	0.02444689	-0.01772399	0.07397897	-0.2219366	2.224367	-4.476995
6.436028	0.02444689	-0.02016868	-1.132969E-07	-0.1487001	-2.244288	2.221761
6.452612	0.02566924	-0.02139103	0.0737067	-0.07370681	2.231895	2.270851
6.469162	0.02566924	-0.02383572	0	-0.1477189	-2.224537	-2.233753
6.485728	0.02566923	-0.02750275	-1.124327E-07	-0.221349	-3.395083E-06	-2.223377
6.502295	0.02689158	-0.0287251	0.07378519	-0.07378508	2.226941	4.45368
6.519157	0.02689158	-0.0287251	0	0	-2.207211	2.207208
6.535679	0.02689158	-0.0287251	0	0	0	0
6.552174	0.02689158	-0.0287251	0	0	0	0
6.568698	0.02689158	-0.0287251	0	0	0	0
6.585126	0.02689158	-0.0287251	0	0	0	0
6.601714	0.02689158	-0.0287251	0	0	0	0
6.618261	0.02689158	-0.0287251	0	0	0	0
6.634829	0.02689158	-0.0287251	0	0	0	0
6.65174	0.02689158	-0.0287251	0	0	0	0
6.667962	0.02444689	-0.0287251	-0.150702	0	-4.548393	0
6.684528	0.01589048	-0.02750275	-0.5164959	0.07378508	-11.15624	2.25035
6.701095	-0.001222345	-0.02383572	-1.032932	0.2213425	-15.58652	4.453421
6.717788	-0.02566923	-0.02016868	-1.464489	0.2196736	-12.97513	-0.05017867
6.734228	-0.07823005	-0.009167584	-3.197146	0.6691701	-52.29395	13.56642
6.750793	-0.1087887	-0.001833517	-1.844734	0.4427361	40.97569	-6.860546
6.767361	-0.1442367	0.00550055	-2.139584	0.4426724	-8.89896	-0.001923976
6.783929	-0.1527931	0.006722894	-0.5164511	0.07377874	48.98483	-11.13291
6.800495	-0.1625718	0.007945239	-0.5902807	0.07378508	-2.228212	0.0001913577
6.817061	-0.1674612	0.009167584	-0.2951484	0.07378726	8.907751	6.588842E-05
6.833629	-0.1760176	0.01038993	-0.516452	0.07377871	-6.67915	-0.0002581455
6.850385	-0.1857964	0.01283462	-0.583596	0.1458989	-2.014898	2.164226
6.86692	-0.1967975	0.01405696	-0.6652912	0.0739212	-2.453912	-2.162023
6.883477	-0.2016868	0.01527931	-0.295309	0.07382759	11.18024	-0.002828936
6.899894	-0.2065762	0.01650165	-0.297824	0.07445593	-0.0762724	0.0190559
6.916461	-0.2114656	0.01772399	-0.2951323	0.07378296	0.08160636	-0.02040317
6.933029	-0.2175773	0.02139103	-0.3688939	0.2213363	-2.22613	4.453167
6.949595	-0.220022	0.02505806	-0.1475708	0.2213554	6.679639	0.0005765467
6.966161	-0.2273561	0.03850385	-0.4427217	0.8116595	-8.90831	17.8167
6.982728	-0.2334678	0.05806137	-0.3689054	1.180494	2.227875	11.13192
6.999294	-0.2346902	0.06539543	-0.07378587	0.4427105	8.906982	-22.26698
7.016062	-0.2322455	0.07395184	0.1457957	0.5102828	6.587265	2.027111
7.032569	-0.2285784	0.08495294	0.2221551	0.666464	2.294822	4.693701
7.049058	-0.2212444	0.1008434	0.4447719	0.9636722	6.746744	9.007352
7.066083	-0.2139103	0.1179562	0.4307824	1.005159	-0.4174148	1.237869
7.082442	-0.2102433	0.1301797	0.2241672	0.7472285	-6.189166	-7.726311
7.099106	-0.2065762	0.1424031	0.2200591	0.7335224	-0.1244039	-0.415056
7.115631	-0.2053539	0.1448478	0.07396627	0.147937	-4.401806	-17.6438
7.132144	-0.2041315	0.1534042	0.07402451	0.5181661	0.001762622	11.20611
7.149137	-0.2029092	0.1644053	0.07193191	0.6473881	-0.06245441	3.856691
7.165277	-0.2029092	0.1900746	-9.232724E-07	1.59046	-2.171062	28.46362
7.181844	-0.2029092	0.198631	8.994359E-07	0.5164651	5.572883E-05	-32.83713
7.198707	-0.2029092	0.2071874	8.83642E-07	0.507397	-4.724367E-07	-0.2712508
7.214977	-0.2029092	0.2084097	-9.158583E-07	0.07512877	-5.431059E-05	-13.04626
7.231543	-0.2029092	0.2084097	0	0	2.789233E-05	-2.288036
7.251876	-0.2029092	0.2084097	0	0	0	0
7.268443	-0.2029092	0.2084097	0	0	0	0
7.285247	-0.2029092	0.2084097	0	0	0	0
7.301576	-0.2029092	0.2084097	0	0	0	0
7.318144	-0.2029092	0.2084097	0	0	0	0
7.334771	-0.2029092	0.2084097	0	0	0	0
7.351279	-0.2029092	0.2084097	0	0	0	0
7.367844	-0.2029092	0.2084097	0	0	0	0
7.384411	-0.2004645	0.2071874	0.1475657	-0.07378285	4.453926	-2.226963
7.400976	-0.1967975	0.2035204	0.2213677	-0.2213686	2.227508	-4.454466
7.417544	-0.1796846	0.1876299	1.032903	-0.9591236	24.49324	-22.26645
7.43411	-0.1735729	0.1790735	0.3689249	-0.5164957	-20.03919	13.35873
7.450858	-0.1564601	0.1656277	1.021787	-0.8028322	19.59709	-8.59502
7.467371	-0.1356802	0.1497372	1.258403	-0.9623087	7.113963	-4.794726
7.483891	-0.113678	0.1338467	1.331889	-0.9619198	2.224666	0.0117739
7.500376	-0.08678646	0.1179562	1.631207	-0.9638948	9.068798	-0.05983898
7.516943	-0.06356192	0.1008434	1.401837	-1.032932	-6.939492	-2.088685
7.533931	-0.03911502	0.08739763	1.439126	-0.7915189	1.111299	7.194643
7.550076	-0.01955751	0.07395184	1.211313	-0.8327783	-6.875685	-1.245267
7.566642	-0.006111722	0.06417308	0.811683	-0.5903151	-12.21699	7.412278
7.58321	0.006111722	0.05439433	0.7377874	-0.5902297	-2.230271	0.002577895
7.599778	0.006111722	0.05317198	0	-0.07377435	-22.26518	15.58576
7.616466	0.007334067	0.05317198	0.07324749	0	2.202499	2.218342
7.63291	0.007334067	0.05194964	2.831847E-08	-0.07433485	-2.210804	-2.243624
7.649521	0.008556412	0.0507273	0.07358387	-0.07358398	2.226083	0.02271555
7.666493	0.008556412	0.04828261	0	-0.1440459	-2.191094	-2.098133
7.68261	0.009778756	0.04583792	0.07584371	-0.1516874	2.292167	-0.2309427
7.699176	0.009778757	0.04339323	5.621636E-08	-0.1475659	-2.320558	0.1261038
7.715744	0.009778756	0.04217089	-5.621312E-08	-0.07377882	-3.393129E-06	2.226899
7.732308	0.009778756	0.04217089	0	0	1.696638E-06	2.22681
7.748876	0.009778757	0.04094854	5.621312E-08	-0.0737786	1.696638E-06	-2.226803
7.76557	0.0110011	0.0397262	0.07322021	-0.07322037	2.20133	0.01678285
7.782094	0.0110011	0.03728151	0	-0.1479451	-2.204207	-2.2495
7.798596	0.01222344	0.03483682	0.07407297	-0.1481458	2.242854	-0.006077103
7.815143	0.01222345	0.02994744	5.62844E-08	-0.2954892	-2.241331	-4.458379
7.832125	0.01344579	0.0262804	0.0719805	-0.2159416	2.146854	2.372548
7.848277	0.01466813	0.02139103	0.07567801	-0.3027121	0.1115944	-2.618813
7.864843	0.01589048	0.01894634	0.07378291	-0.1475659	-0.0579213	4.741825
7.881409	0.01711282	0.01772399	0.07378732	-0.07378732	0.0001333491	2.22677
7.899676	0.01711282	0.01650165	0	-0.06691486	-2.11832	0.1972977
7.916244	0.01711282	0.01650165	0	0	0	1.920917
7.932812	0.01711282	0.01527931	0	-0.07377871	0	-2.226582
7.949378	0.01711282	0.01527931	0	0	0	2.226646
7.966202	0.01711282	0.01527931	0	0	0	0
7.982512	0.01833517	0.01283462	0.07494566	-0.1498913	2.26193	-4.523859
7.999252	0.01833517	0.01283462	0	0	-2.267673	4.535347
8.015645	0.01833517	0.01161227	0	-0.07456428	0	-2.250452
8.032211	0.01833517	0.01038993	0	-0.07378508	0	0.02364106
8.051785	0.01833517	0.009167583	-9.515834E-08	-0.06244686	-2.633015E-06	0.3137268
8.068355	0.01833517	0.009167583	0	0	2.632807E-06	1.727757
8.08492	0.01955751	0.009167584	0.07378945	5.622121E-08	2.22697	1.69676E-06
8.102314	0.01955751	0.00794524	0	-0.07027363	-2.172873	-2.069345
8.118053	0.01955751	0.00794524	0	0	0	2.120924
8.134621	0.01955751	0.00794524	0	0	0	0
8.151187	0.01955751	0.00794524	0	0	0	0
8.167759	0.01955751	0.00794524	0	0	0	0
8.184375	0.01955751	0.006722894	0	-0.07356492	0	-2.216621
8.200887	0.01955751	0.006722894	0	0	0	2.220641
8.217895	0.01955751	0.006722894	0	0	0	0
8.234396	0.01955751	0.006722894	0	0	0	0
8.250587	0.01955751	0.006722894	0	0	0	0
8.267429	0.01955751	0.006722894	0	0	0	0
8.28372	0.01955751	0.006722894	0	0	0	0
8.300287	0.01955751	0.006722894	0	0	0	0
8.316982	0.02077986	0.00550055	0.07321619	-0.07321608	2.20118	-2.201176
8.333421	0.02077986	0.004278206	-1.1331E-07	-0.07435872	-2.209736	-0.03448581
8.349998	0.0220022	0.004278206	0.0737385	0	2.233471	2.252254
8.366554	0.0220022	0.004278206	0	0	-2.225497	0
8.384631	0.0220022	0.004278206	0	0	0	0
8.4012	0.02322455	0.003055861	0.07377234	-0.07377236	2.129316	-2.129316
8.417768	0.02322455	0.003055861	0	0	-2.226326	2.226326
8.434334	0.02322455	0.003055861	0	0	0	0
8.451068	0.02322455	0.003055861	0	0	0	0
8.467466	0.02322455	0.003055861	0	0	0	0
8.484094	0.02444689	0.003055861	0.07351424	-1.40029E-08	2.225968	-4.239997E-07
8.5006	0.02444689	0.003055861	0	0	-2.218728	4.226206E-07
8.517166	0.02444689	0.003055861	0	0	0	0
8.533733	0.02566923	0.003055861	0.07378083	0	2.226774	0
8.550299	0.02566923	0.001833517	0	-0.07378936	-2.226838	-2.227095
8.566867	0.02566923	0.001833517	0	0	0	2.227031
8.583433	0.02566923	0.001833517	0	0	0	0
8.600001	0.02689158	0.001833517	0.07377659	7.026438E-09	2.226582	2.120583E-07
8.616685	0.02689158	0.001833517	0	0	-2.218727	-2.113103E-07
8.633197	0.02811392	0.0006111722	0.0740281	-0.07402802	2.230065	-2.230062
8.649699	0.02811392	0.0006111722	0	0	-2.242304	2.242302
8.666265	0.02933627	-0.0006111723	0.07378508	-0.07378511	2.231269	-2.23127
8.683231	0.03055861	-0.001833517	0.07204726	-0.07204728	-0.05182566	0.05182589
8.699741	0.03178096	-0.001833517	0.07403666	-7.051197E-09	0.05942792	2.152215
8.715966	0.0330033	-0.003055861	0.07533761	-0.07533774	0.03974212	-2.301452
8.732533	0.0330033	-0.003055861	0	0	-2.297432	2.297436
8.749268	0.0330033	-0.003055861	0	0	0	0
8.765781	0.0330033	-0.003055861	0	0	0	0
8.782235	0.0330033	-0.003055861	0	0	0	0
8.798804	0.0330033	-0.003055861	0	0	0	0
8.815368	0.0330033	-0.003055861	0	0	0	0
8.831934	0.0330033	-0.003055861	0	0	0	0
8.8485	0.0330033	-0.003055861	0	0	0	0
8.865067	0.0330033	-0.003055861	0	0	0	0
8.881635	0.0330033	-0.003055861	0	0	0	0
8.898377	0.0330033	-0.003055861	0	0	0	0
8.914903	0.0330033	-0.003055861	0	0	0	0
8.931423	0.0330033	-0.003055861	0	0	0	0
8.947926	0.0330033	-0.003055861	0	0	0	0
8.964466	0.0330033	-0.003055861	0	0	0	0
8.981032	0.0330033	-0.003055861	0	0	0	0
8.997599	0.0330033	-0.003055861	0	0	0	0
9.014166	0.0330033	-0.003055861	0	0	0	0
9.03098	0.0330033	-0.003055861	0	0	0	0
9.047298	0.0330033	-0.003055861	0	0	0	0
9.063865	0.0330033	-0.003055861	0	0	0	0
9.080523	0.0330033	-0.003055861	0	0	0	0
9.097015	0.0330033	-0.003055861	0	0	0	0
9.113566	0.0330033	-0.003055861	0	0	0	0
9.130133	0.0330033	-0.003055861	0	0	0	0
9.146699	0.0330033	-0.003055861	0	0	0	0
9.163578	0.0330033	-0.003055861	0	0	0	0
9.179831	0.0330033	-0.003055861	0	0	0	0
9.196398	0.0330033	-0.003055861	0	0	0	0
9.213125	0.0330033	-0.003055861	0	0	0	0
9.229534	0.0330033	-0.003055861	0	0	0	0
9.246099	0.0330033	-0.003055861	0	0	0	0
9.262686	0.0330033	-0.003055861	0	0	0	0
9.279242	0.0330033	-0.003055861	0	0	0	0
9.295798	0.0330033	-0.003055861	0	0	0	0
9.312365	0.0330033	-0.003055861	0	0	0	0
9.328931	0.0330033	-0.003055861	0	0	0	0
9.345501	0.0330033	-0.003055861	0	0	0	0
9.36207	0.0330033	-0.003055861	0	0	0	0
9.378807	0.0330033	-0.003055861	0	0	0	0
9.395197	0.0330033	-0.003055861	0	0	0	0
9.411839	0.0330033	-0.003055861	0	0	0	0
9.428331	0.0330033	-0.003055861	0	0	0	0
9.445374	0.0330033	-0.003055861	0	0	0	0
9.461463	0.0330033	-0.003055861	0	0	0	0
9.478029	0.0330033	-0.003055861	0	0	0	0
9.494596	0.0330033	-0.003055861	0	0	0	0
9.511424	0.0330033	-0.003055861	0	0	0	0
9.527929	0.0330033	-0.003055861	0	0	0	0
9.568361	0.0330033	-0.003055861	0	0	0	0
9.58493	0.0330033	-0.003055861	0	0	0	0
9.601498	0.0330033	-0.003055861	0	0	0	0
9.618064	0.0330033	-0.003055861	0	0	0	0
9.63463	0.0330033	-0.003055861	0	0	0	0
9.651514	0.0330033	-0.003055861	0	0	0	0
9.667763	0.0330033	-0.003055861	0	0	0	0
9.684329	0.0330033	-0.003055861	0	0	0	0
9.700896	0.0330033	-0.003055861	0	0	0	0
9.717538	0.0330033	-0.003055861	0	0	0	0
9.734029	0.0330033	-0.003055861	0	0	0	0
9.750595	0.0330033	-0.003055861	0	0	0	0
9.767162	0.0330033	-0.003055861	0	0	0	0
9.783729	0.0330033	-0.003055861	0	0	0	0
9.800295	0.0330033	-0.003055861	0	0	0	0
9.816861	0.0330033	-0.003055861	0	0	0	0
9.834359	0.0330033	-0.003055861	0	0	0	0
9.850927	0.0330033	-0.003055861	0	0	0	0
9.868155	0.0330033	-0.003055861	0	0	0	0
9.884171	0.0330033	-0.003055861	0	0	0	0
9.900628	0.0330033	-0.003055861	0	0	0	0
9.917195	0.0330033	-0.003055861	0	0	0	0
9.933762	0.0330033	-0.003055861	0	0	0	0
9.950328	0.0330033	-0.003055861	0	0	0	0
9.966894	0.0330033	-0.003055861	0	0	0	0
9.983461	0.0330033	-0.003055861	0	0	0	0
10.00298	0.0330033	-0.003055861	0	0	0	0
10.01955	0.0330033	-0.003055861	0	0	0	0
10.03612	0.0330033	-0.003055861	0	0	0	0
10.05268	0.0330033	-0.003055861	0	0	0	0
10.06925	0.0330033	-0.003055861	0	0	0	0
10.08582	0.0330033	-0.003055861	0	0	0	0
10.10238	0.0330033	-0.003055861	0	0	0	0
10.11895	0.0330033	-0.003055861	0	0	0	0
10.13552	0.0330033	-0.003055861	0	0	0	0
10.15209	0.0330033	-0.003055861	0	0	0	0
10.16888	0.0330033	-0.003055861	0	0	0	0
10.18522	0.0330033	-0.003055861	0	0	0	0
10.20178	0.0330033	-0.003055861	0	0	0	0
10.21842	0.0330033	-0.003055861	0	0	0	0
10.23492	0.0330033	-0.003055861	0	0	0	0
10.25148	0.0330033	-0.003055861	0	0	0	0
10.26805	0.0330033	-0.003055861	0	0	0	0
10.28496	0.0330033	-0.003055861	0	0	0	0
10.30118	0.0330033	-0.003055861	0	0	0	0
10.31775	0.0330033	-0.003055861	0	0	0	0
10.33432	0.0330033	-0.003055861	0	0	0	0
10.35089	0.0330033	-0.003055861	0	0	0	0
10.36751	0.0330033	-0.003055861	0	0	0	0
10.38402	0.0330033	-0.003055861	0	0	0	0
10.40059	0.0330033	-0.003055861	0	0	0	0
10.41715	0.0330033	-0.003055861	0	0	0	0
10.43372	0.0330033	-0.003055861	0	0	0	0
10.45028	0.0330033	-0.003055861	0	0	0	0
10.46685	0.0330033	-0.003055861	0	0	0	0
10.48342	0.0330033	-0.003055861	0	0	0	0
10.49998	0.0330033	-0.003055861	0	0	0	0
10.51655	0.0330033	-0.003055861	0	0	0	0
10.56592	0.0330033	-0.003055861	0	0	0	0
10.58274	0.0330033	-0.003055861	0	0	0	0
10.5993	0.0330033	-0.003055861	0	0	0	0
10.61587	0.0330033	-0.003055861	0	0	0	0
10.63244	0.0330033	-0.003055861	0	0	0	0
10.649	0.0330033	-0.003055861	0	0	0	0
10.66557	0.0330033	-0.003055861	0	0	0	0
10.68214	0.0330033	-0.003055861	0	0	0	0
10.69874	0.0330033	-0.003055861	0	0	0	0
10.71576	0.0330033	-0.003055861	0	0	0	0
10.73184	0.0330033	-0.003055861	0	0	0	0
10.74848	0.0330033	-0.003055861	0	0	0	0
10.76532	0.0330033	-0.003055861	0	0	0	0
10.78162	0.0330033	-0.003055861	0	0	0	0
10.79818	0.0330033	-0.003055861	0	0	0	0
10.81485	0.0330033	-0.003055861	0	0	0	0
10.83134	0.0330033	-0.003055861	0	0	0	0
10.84788	0.0330033	-0.003055861	0	0	0	0
10.86445	0.0330033	-0.003055861	0	0	0	0
10.88101	0.0330033	-0.003055861	0	0	0	0
10.89758	0.0330033	-0.003055861	0	0	0	0
10.91415	0.0330033	-0.003055861	0	0	0	0
10.93072	0.0330033	-0.003055861	0	0	0	0
10.94728	0.0330033	-0.003055861	0	0	0	0
10.96395	0.0330033	-0.003055861	0	0	0	0
10.98042	0.0330033	-0.003055861	0	0	0	0
10.99698	0.0330033	-0.003055861	0	0	0	0
11.01355	0.0330033	-0.003055861	0	0	0	0
11.03012	0.0330033	-0.003055861	0	0	0	0
11.04699	0.0330033	-0.003055861	0	0	0	0
11.06402	0.0330033	-0.003055861	0	0	0	0
11.07981	0.0330033	-0.003055861	0	0	0	0
11.09638	0.0330033	-0.003055861	0	0	0	0
11.11304	0.0330033	-0.003055861	0	0	0	0
11.12951	0.0330033	-0.003055861	0	0	0	0
11.14608	0.0330033	-0.003055861	0	0	0	0
11.16265	0.0330033	-0.003055861	0	0	0	0
11.17959	0.0330033	-0.003055861	0	0	0	0
11.19608	0.0330033	-0.003055861	0	0	0	0
11.21235	0.0330033	-0.003055861	0	0	0	0
11.22892	0.0330033	-0.003055861	0	0	0	0
11.24548	0.0330033	-0.003055861	0	0	0	0
11.26205	0.0330033	-0.003055861	0	0	0	0
11.27866	0.0330033	-0.003055861	0	0	0	0
11.29518	0.0330033	-0.003055861	0	0	0	0
11.31179	0.0330033	-0.003055861	0	0	0	0
11.32831	0.0330033	-0.003055861	0	0	0	0
11.3452	0.0330033	-0.003055861	0	0	0	0
11.36145	0.0330033	-0.003055861	0	0	0	0
11.37801	0.0330033	-0.003055861	0	0	0	0
11.39473	0.0330033	-0.003055861	0	0	0	0
11.41152	0.0330033	-0.003055861	0	0	0	0
11.42809	0.0330033	-0.003055861	0	0	0	0
11.44466	0.0330033	-0.003055861	0	0	0	0
11.46122	0.0330033	-0.003055861	0	0	0	0
11.47829	0.0330033	-0.003055861	0	0	0	0
11.49436	0.0330033	-0.003055861	0	0	0	0
11.51134	0.0330033	-0.003055861	0	0	0	0
11.52749	0.0330033	-0.003055861	0	0	0	0
11.54406	0.0330033	-0.003055861	0	0	0	0
11.56153	0.0330033	-0.003055861	0	0	0	0
11.5781	0.0330033	-0.003055861	0	0	0	0
11.59486	0.0330033	-0.003055861	0	0	0	0
11.61123	0.0330033	-0.003055861	0	0	0	0
11.6278	0.0330033	-0.003055861	0	0	0	0
11.64439	0.0330033	-0.003055861	0	0	0	0
11.66093	0.0330033	-0.003055861	0	0	0	0
11.6775	0.0330033	-0.003055861	0	0	0	0
11.69406	0.0330033	-0.003055861	0	0	0	0
11.71095	0.0330033	-0.003055861	0	0	0	0
11.72719	0.0330033	-0.003055861	0	0	0	0
11.74376	0.0330033	-0.003055861	0	0	0	0
11.76049	0.0330033	-0.003055861	0	0	0	0
11.77699	0.0330033	-0.003055861	0	0	0	0
11.79346	0.0330033	-0.003055861	0	0	0	0
11.81053	0.0330033	-0.003055861	0	0	0	0
11.8266	0.0330033	-0.003055861	0	0	0	0
11.84316	0.0330033	-0.003055861	0	0	0	0
11.85973	0.0330033	-0.003055861	0	0	0	0
11.87657	0.0330033	-0.003055861	0	0	0	0
11.89286	0.0330033	-0.003055861	0	0	0	0
11.90943	0.0330033	-0.003055861	0	0	0	0
11.926	0.0330033	-0.003055861	0	0	0	0
11.94256	0.0330033	-0.003055861	0	0	0	0
11.95913	0.0330033	-0.003055861	0	0	0	0
11.9757	0.0330033	-0.003055861	0	0	0	0
11.99226	0.0330033	-0.003055861	0	0	0	0
12.00883	0.0330033	-0.003055861	0	0	0	0
12.0254	0.0330033	-0.003055861	0	0	0	0
12.0422	0.0330033	-0.003055861	0	0	0	0
12.05869	0.0330033	-0.003055861	0	0	0	0
12.07521	0.0330033	-0.003055861	0	0	0	0
12.09172	0.0330033	-0.003055861	0	0	0	0
12.10824	0.0330033	-0.003055861	0	0	0	0
12.1248	0.0330033	-0.003055861	0	0	0	0
12.14137	0.0330033	-0.003055861	0	0	0	0
12.15826	0.0330033	-0.003055861	0	0	0	0
12.1745	0.0330033	-0.003055861	0	0	0	0
12.19131	0.0330033	-0.003055861	0	0	0	0
12.20763	0.0330033	-0.003055861	0	0	0	0
12.22432	0.0330033	-0.003055861	0	0	0	0
12.24083	0.0330033	-0.003055861	0	0	0	0
12.25735	0.0330033	-0.003055861	0	0	0	0
12.2739	0.0330033	-0.003055861	0	0	0	0
12.29046	0.0330033	0.003055861	0	0.3689255	0	11.14253
12.30739	0.0330033	0.02505806	0	1.299847	0	27.79447
12.3239	0.0330033	0.03483681	0	0.5924976	0	-21.15845
12.34016	0.03055861	0.06661777	-0.150278	1.953614	-4.585551	41.53283
12.35673	0.02933627	0.07761887	-0.07378508	0.6640661	2.329681	-39.27472
12.3733	0.02933627	0.09106466	0	0.8115893	2.226902	4.452388
12.38995	0.02811392	0.1020658	-0.07342159	0.6607951	-2.21046	-4.539872
12.40643	0.02933627	0.1350691	0.0741479	2.001993	4.453784	40.4786
12.423	0.03055861	0.1815182	0.07378508	2.803835	-0.01097745	24.26039
12.43956	0.03178095	0.2316343	0.07377648	3.024841	-0.0002597121	6.669972
12.45613	0.03422565	0.2707493	0.1475789	2.361259	2.227426	-20.02753
12.4727	0.03667033	0.2988632	0.1475617	1.69696	-0.0005199038	-20.04972
12.48926	0.03789268	0.312309	0.07378095	0.8115898	-2.226707	-26.72053
12.50583	0.03789268	0.3306442	0	1.10684	-2.226841	8.911186
12.5224	0.03789268	0.3355336	-2.248719E-07	0.2951399	-6.787234E-06	-24.49928
12.53904	0.03789268	0.3367559	2.238282E-07	0.07344431	1.351107E-05	-6.675607
12.55555	0.03789268	0.3367559	0	0	-6.75068E-06	-2.215087
12.57211	0.03789268	0.3367559	0	0	0	0
12.58867	0.03789268	0.3367559	0	0	0	0
12.60523	0.03789268	0.3367559	0	0	0	0
12.6218	0.03789268	0.3367559	0	0	0	0
12.63836	0.03789268	0.3367559	0	0	0	0
12.65493	0.03789268	0.3367559	0	0	0	0
12.67331	0.03789268	0.3367559	0	0	0	0
12.68988	0.03789268	0.3367559	0	0	0	0
12.70644	0.03789268	0.3367559	0	0	0	0
12.72322	0.03911503	0.3294218	0.07283343	-0.437001	2.183974	-13.10386
12.73958	0.04155971	0.3196431	0.1495152	-0.5980625	2.314326	-4.860984
12.75625	0.0440044	0.2927515	0.1465913	-1.612505	-0.08852904	-30.71494
12.77276	0.0440044	0.269527	0	-1.406532	-4.416887	6.206108
12.78928	0.04644909	0.2438577	0.1480562	-1.554588	4.483314	-4.483326
12.80584	0.04889378	0.2108544	0.1475702	-1.992198	-0.01469385	-13.22955
12.82241	0.05011613	0.1766288	0.07378519	-2.065983	-2.226963	-2.226962
12.83897	0.05378316	0.1460702	0.2213679	-1.844734	4.454439	6.677877
12.85554	0.05378316	0.1057328	2.24846E-07	-2.434628	-6.681081	-17.80355
12.87211	0.05378316	0.09595404	-2.248719E-07	-0.5902811	-1.357251E-05	55.66251
12.88884	0.05378316	0.08250825	0	-0.8035409	6.753023E-06	-6.404305
12.90536	0.05378316	0.07517419	2.25456E-07	-0.4438601	6.779299E-06	10.81534
12.92188	0.05256081	0.07150716	-0.07401978	-0.2220584	-2.240506	6.713697
12.93838	0.05256081	0.07028481	0	-0.07405827	2.241729	4.482265
12.95494	0.05256081	0.06906246	0	-0.07382748	0	0.006980726
12.97151	0.05256081	0.06784012	2.24859E-07	-0.07378072	6.788406E-06	0.001411437
12.98841	0.05256081	0.06661778	0	-0.07231543	-6.718193E-06	0.04377903
13.00464	0.05256081	0.06539543	-2.295364E-07	-0.07531594	-6.92782E-06	-0.09056064
13.02121	0.05011613	0.0617284	-0.147553	-0.2213299	-4.498859	-4.451941
13.03778	0.05011613	0.06050605	0	-0.07378497	4.453157	4.452915
13.05434	0.05011613	0.05928371	0	-0.07378519	0	-6.746157E-06
13.07097	0.05011613	0.05806137	0	-0.07348883	0	0.008926744
13.08747	0.04889378	0.05561668	-0.07408351	-0.1481672	-2.235973	-2.253928
13.10404	0.04767144	0.05194964	-0.07378519	-0.2213554	0.009021824	-2.213409
13.12061	0.04644909	0.04706026	-0.07377693	-0.2951066	0.0002493686	-2.225816
13.13717	0.04522675	0.04461558	-0.07378475	-0.1475699	-0.0002358771	4.452665
13.15374	0.04522675	0.04094854	-2.248719E-07	-0.2213556	2.226949	-2.226984
13.17826	0.0440044	0.03850385	-0.04984711	-0.09969437	-1.213171	2.960984
13.19483	0.0440044	0.02994744	0	-0.5163472	1.213035	-10.1393
13.2114	0.0440044	0.0262804	0	-0.2213681	0	8.901974
13.22809	0.0440044	0.02139103	0	-0.2929815	0	-2.153548
13.24453	0.04522675	0.017724	0.07432862	-0.2229855	2.243307	2.112543
13.2611	0.04522675	0.01650165	-2.24859E-07	-0.07378095	-2.251544	4.519653
13.27766	0.04522675	0.01527931	0	-0.07379358	6.786843E-06	-0.0003813937
13.29423	0.04522675	0.01527931	0	0	0	2.227159
13.31164	0.04644909	0.01527931	0.07020808	0	2.066195	0
13.32795	0.04644909	0.01527931	0	0	-2.082325	0
13.34452	0.04644909	0.01527931	0	0	0	0
13.36122	0.04644909	0.01527931	0	0	0	0
13.3777	0.04644909	0.01527931	0	0	0	0
13.39422	0.04644909	0.01527931	0	0	0	0
13.41079	0.04644909	0.01527931	0	0	0	0
13.42735	0.04644909	0.01527931	0	0	0	0
13.44447	0.04644909	0.01527931	0	0	0	0
13.46077	0.04644909	0.01527931	0	0	0	0
13.47785	0.04644909	0.01527931	0	0	0	0
13.49442	0.04644909	0.01527931	0	0	0	0
13.51099	0.04644909	0.01527931	0	0	0	0
13.52755	0.04644909	0.01527931	0	0	0	0
13.54412	0.04644909	0.01527931	0	0	0	0
13.56104	0.04644909	0.01527931	0	0	0	0
13.57725	0.04644909	0.01527931	0	0	0	0
13.59395	0.04644909	0.01527931	0	0	0	0
13.61039	0.04644909	0.01527931	0	0	0	0
13.62695	0.04644909	0.01527931	0	0	0	0
13.64352	0.04644909	0.01527931	0	0	0	0
13.66009	0.04644909	0.01527931	0	0	0	0
13.67665	0.04644909	0.01527931	0	0	0	0
13.69322	0.04644909	0.01527931	0	0	0	0
13.70979	0.04644909	0.01527931	0	0	0	0
13.72635	0.04644909	0.01527931	0	0	0	0
13.74292	0.04644909	0.01527931	0	0	0	0
13.7596	0.04644909	0.01527931	0	0	0	0
13.77616	0.04644909	0.01527931	0	0	0	0
13.79262	0.04644909	0.01527931	0	0	0	0
13.80919	0.04644909	0.01527931	0	0	0	0
13.82576	0.04644909	0.01527931	0	0	0	0
13.84232	0.04644909	0.01527931	0	0	0	0
13.85889	0.04644909	0.01527931	0	0	0	0
13.87545	0.04644909	0.01527931	0	0	0	0
13.89237	0.04644909	0.01527931	0	0	0	0
13.90859	0.04644909	0.01527931	0	0	0	0
13.92516	0.04644909	0.01527931	0	0	0	0
13.94172	0.04644909	0.01527931	0	0	0	0
13.95829	0.04644909	0.01527931	0	0	0	0
13.97485	0.04644909	0.01527931	0	0	0	0
13.99142	0.04644909	0.01527931	0	0	0	0
14.00799	0.04644909	0.01527931	0	0	0	0
14.02456	0.04644909	0.01527931	0	0	0	0
14.04112	0.04644909	0.01527931	0	0	0	0
14.05801	0.04644909	0.01527931	0	0	0	0
14.07426	0.04644909	0.01527931	0	0	0	0
14.0913	0.04644909	0.01527931	0	0	0	0
14.10739	0.04644909	0.01527931	0	0	0	0
14.12434	0.04644909	0.01527931	0	0	0	0
14.14089	0.04644909	0.01527931	0	0	0	0
14.15795	0.04644909	0.01405696	2.183238E-07	-0.07163658	6.496471E-06	-2.131627
14.1741	0.04644909	0.01405696	0	0	-6.572946E-06	2.15672
14.19059	0.04644909	0.01405696	0	0	0	0
14.20721	0.04644909	0.01405696	0	0	0	0
14.22372	0.04644909	0.01405696	0	0	0	0
14.2403	0.04522675	0.01405696	-0.07374275	5.618563E-08	-2.228447	1.697885E-06
14.25686	0.04522675	0.01405696	0	0	2.22556	-1.695686E-06
14.27354	0.04522675	0.01405696	0	0	0	0
14.30163	0.04522675	0.01405696	0	0	0	0
14.31898	0.0440044	0.01405696	-0.07043959	0	-1.550372	0
14.33555	0.0440044	0.01405696	0	0	2.076388	0
14.35212	0.0440044	0.01405696	0	0	0	0
14.37129	0.0440044	0.01405696	0	0	0	0
14.38785	0.04278206	0.01405696	-0.07378519	0	-2.064615	0
14.40442	0.04278206	0.01405696	0	0	2.226778	0
14.42099	0.04278206	0.01405696	0	0	0	0
14.43756	0.04278206	0.01405696	0	0	0	0
14.45412	0.04278206	0.01405696	0	0	0	0
14.471	0.04278206	0.01405696	0	0	0	0
14.48726	0.04278206	0.01405696	0	0	0	0
14.50398	0.04278206	0.01405696	0	0	0	0
14.52039	0.04278206	0.01405696	0	0	0	0
14.53696	0.04278206	0.01405696	0	0	0	0
14.55352	0.04155971	0.01283462	-0.07378519	-0.07378514	-2.22697	-2.226968
14.57018	0.04155971	0.01283462	0	0	2.220833	2.220831
14.58666	0.04155971	0.01283462	0	0	0	0
14.60336	0.04155971	0.01283462	0	0	0	0
14.61997	0.04155971	0.01283462	0	0	0	0
14.63654	0.04155971	0.01283462	0	0	0	0
14.65318	0.04155971	0.01283462	0	0	0	0
14.66968	0.04155971	0.01283462	0	0	0	0
14.68678	0.04155971	0.01283462	0	0	0	0
14.70281	0.04155971	0.01283462	0	0	0	0
14.71938	0.04155971	0.01283462	0	0	0	0
14.73594	0.04155971	0.01283462	0	0	0	0
14.75251	0.04155971	0.01283462	0	0	0	0
14.76907	0.04155971	0.01283462	0	0	0	0
14.78564	0.04155971	0.01283462	0	0	0	0
14.80221	0.04155971	0.01283462	0	0	0	0
14.81878	0.04155971	0.01283462	0	0	0	0
14.83534	0.04155971	0.01283462	0	0	0	0
14.85191	0.04155971	0.01283462	0	0	0	0
14.86847	0.04155971	0.01283462	0	0	0	0
14.88519	0.04155971	0.01283462	0	0	0	0
14.90161	0.04155971	0.01283462	0	0	0	0
14.91818	0.04155971	0.01283462	0	0	0	0
14.93474	0.04155971	0.01283462	0	0	0	0
14.95131	0.04155971	0.01283462	0	0	0	0
14.96788	0.04155971	0.01283462	0	0	0	0
14.98515	0.04155971	0.01283462	0	0	0	0
15.00101	0.04155971	0.01283462	0	0	0	0
15.01772	0.04155971	0.01283462	0	0	0	0
15.03414	0.04155971	0.01283462	0	0	0	0
15.05071	0.04155971	0.01283462	0	0	0	0
15.06728	0.04155971	0.01283462	0	0	0	0
15.08418	0.04155971	0.01283462	0	0	0	0
15.11532	0.04155971	0.01283462	0	0	0	0
15.13189	0.04155971	0.01283462	0	0	0	0
15.14845	0.04155971	0.01283462	0	0	0	0
15.16502	0.04155971	0.01283462	0	0	0	0
15.18185	0.04155971	0.01283462	0	0	0	0
15.19815	0.04155971	0.01283462	0	0	0	0
15.21472	0.04155971	0.01283462	0	0	0	0
15.23131	0.04155971	0.01283462	0	0	0	0
15.24785	0.04155971	0.01283462	0	0	0	0
15.26442	0.04155971	0.01283462	0	0	0	0
15.28098	0.04155971	0.01283462	0	0	0	0
15.29755	0.04155971	0.01283462	0	0	0	0
15.31422	0.04155971	0.01283462	0	0	0	0
15.33069	0.04155971	0.01283462	0	0	0	0
15.34784	0.04155971	0.01283462	0	0	0	0
15.36382	0.04155971	0.01283462	0	0	0	0
15.38039	0.04155971	0.01283462	0	0	0	0
15.39695	0.04155971	0.01283462	0	0	0	0
15.41407	0.04155971	0.01283462	0	0	0	0
15.43008	0.04155971	0.01283462	0	0	0	0
15.44665	0.04155971	0.01283462	0	0	0	0
15.46345	0.04155971	0.01283462	0	0	0	0
15.47978	0.04155971	0.01283462	0	0	0	0
15.49635	0.04155971	0.01283462	0	0	0	0
15.51303	0.04155971	0.01283462	0	0	0	0
15.52949	0.04155971	0.01283462	0	0	0	0
15.54605	0.04155971	0.01283462	0	0	0	0
15.56262	0.04155971	0.01283462	0	0	0	0
15.57919	0.04155971	0.01283462	0	0	0	0
15.59575	0.04155971	0.01283462	0	0	0	0
15.61232	0.04155971	0.01283462	0	0	0	0
15.62889	0.04155971	0.01283462	0	0	0	0
15.64545	0.04155971	0.01283462	0	0	0	0
15.66202	0.04155971	0.01283462	0	0	0	0
15.67877	0.04155971	0.01283462	0	0	0	0
15.6953	0.04155971	0.01283462	0	0	0	0
15.71181	0.04155971	0.01283462	0	0	0	0
15.72828	0.04155971	0.01283462	0	0	0	0
15.74485	0.04155971	0.01283462	0	0	0	0
15.76142	0.04155971	0.01283462	0	0	0	0
15.77798	0.04155971	0.01283462	0	0	0	0
15.79485	0.04155971	0.01283462	0	0	0	0
15.81136	0.04155971	0.01283462	0	0	0	0
15.82769	0.04155971	0.01283462	0	0	0	0
15.84425	0.04155971	0.01283462	0	0	0	0
15.86082	0.04155971	0.01283462	0	0	0	0
15.87742	0.04155971	0.01283462	0	0	0	0
15.89395	0.04155971	0.01283462	0	0	0	0
15.91052	0.04155971	0.01283462	0	0	0	0
15.92708	0.04155971	0.01283462	0	0	0	0
15.94365	0.04155971	0.01283462	0	0	0	0
15.96022	0.04155971	0.01283462	0	0	0	0
15.97678	0.04155971	0.01283462	0	0	0	0
15.99346	0.04155971	0.01283462	0	0	0	0
16.01001	0.04155971	0.01283462	0	0	0	0
16.02649	0.04155971	0.01283462	0	0	0	0
16.04305	0.04155971	0.01283462	0	0	0	0
16.05962	0.04155971	0.01283462	0	0	0	0
16.07654	0.04155971	0.01283462	0	0	0	0
16.09275	0.04155971	0.01283462	0	0	0	0
16.11101	0.04155971	0.01283462	0	0	0	0
16.12757	0.04155971	0.01283462	0	0	0	0
16.14414	0.04155971	0.01283462	0	0	0	0
16.16071	0.04155971	0.01283462	0	0	0	0
16.17727	0.04155971	0.01283462	0	0	0	0
16.19462	0.04155971	0.01283462	0	0	0	0
16.21041	0.04155971	0.01283462	0	0	0	0
16.22698	0.04155971	0.01283462	0	0	0	0
16.24367	0.04155971	0.01283462	0	0	0	0
16.26011	0.04155971	0.01283462	0	0	0	0
16.27669	0.04155971	0.01283462	0	0	0	0
16.29325	0.04155971	0.01283462	0	0	0	0
16.30981	0.04155971	0.01283462	0	0	0	0
16.32638	0.04155971	0.01283462	0	0	0	0
16.34323	0.04155971	0.01283462	0	0	0	0
16.35951	0.04155971	0.01283462	0	0	0	0
16.37608	0.04155971	0.01283462	0	0	0	0
16.39277	0.04155971	0.01283462	0	0	0	0
16.40927	0.04155971	0.01283462	0	0	0	0
16.42578	0.04155971	0.01283462	0	0	0	0
16.44278	0.04155971	0.01283462	0	0	0	0
16.45891	0.04155971	0.01283462	0	0	0	0
16.47547	0.04155971	0.01283462	0	0	0	0
16.49204	0.04155971	0.01283462	0	0	0	0
16.50885	0.04155971	0.01283462	0	0	0	0
16.52517	0.04155971	0.01283462	0	0	0	0
16.54185	0.04155971	0.01283462	0	0	0	0
16.55831	0.04155971	0.01283462	0	0	0	0
16.57487	0.04155971	0.01283462	0	0	0	0
16.59144	0.04155971	0.01283462	0	0	0	0
16.60801	0.04155971	0.01283462	0	0	0	0
16.62493	0.04155971	0.01283462	0	0	0	0
16.64114	0.04155971	0.01283462	0	0	0	0
16.65771	0.04155971	0.01283462	0	0	0	0
16.67447	0.04155971	0.01283462	0	0	0	0
16.69101	0.04155971	0.01283462	0	0	0	0
16.70741	0.04155971	0.01283462	0	0	0	0
16.72402	0.04155971	0.01283462	0	0	0	0
16.74131	0.04155971	0.01283462	0	0	0	0
16.75788	0.04155971	0.01283462	0	0	0	0
16.77444	0.04155971	0.01283462	0	0	0	0
16.79106	0.04155971	0.01283462	0	0	0	0
16.80759	0.04155971	0.01283462	0	0	0	0
16.82414	0.04155971	0.01283462	0	0	0	0
16.84071	0.04155971	0.01283462	0	0	0	0
16.85728	0.04155971	0.01283462	0	0	0	0
16.87384	0.04155971	0.01283462	0	0	0	0
16.89063	0.04155971	0.01283462	0	0	0	0
16.90698	0.04155971	0.01283462	0	0	0	0
16.92355	0.04155971	0.01283462	0	0	0	0
16.94016	0.04155971	0.01283462	0	0	0	0
16.95669	0.04155971	0.01283462	0	0	0	0
16.97325	0.04155971	0.01283462	0	0	0	0
16.98981	0.04155971	0.01283462	0	0	0	0
17.00638	0.04155971	0.01283462	0	0	0	0
17.02323	0.04155971	0.01283462	0	0	0	0
17.03974	0.04155971	0.01283462	0	0	0	0
17.05626	0.04155971	0.01283462	0	0	0	0
17.07265	0.04155971	0.01283462	0	0	0	0
17.08921	0.04155971	0.01283462	0	0	0	0
17.10578	0.04155971	0.01283462	0	0	0	0
17.12235	0.04155971	0.01283462	0	0	0	0
17.13931	0.04155971	0.01283462	0	0	0	0
17.15548	0.04155971	0.01283462	0	0	0	0
17.17205	0.04155971	0.01283462	0	0	0	0
17.18862	0.04155971	0.01283462	0	0	0	0
17.20538	0.04155971	0.01283462	0	0	0	0
17.22175	0.04155971	0.01283462	0	0	0	0
17.24095	0.04155971	0.01283462	0	0	0	0
17.25752	0.04155971	0.01283462	0	0	0	0
17.27409	0.04155971	0.01283462	0	0	0	0
17.29093	0.04155971	0.01283462	0	0	0	0
17.30722	0.04155971	0.01283462	0	0	0	0
17.32378	0.04155971	0.01283462	0	0	0	0
17.34389	0.04155971	0.01283462	0	0	0	0
17.36048	0.04155971	0.01283462	0	0	0	0
17.378	0.04155971	0.01283462	0	0	0	0
17.39651	0.04155971	0.01283462	0	0	0	0
17.41352	0.04155971	0.01283462	0	0	0	0
17.43003	0.04155971	0.01283462	0	0	0	0
17.44621	0.04155971	0.01283462	0	0	0	0
17.46278	0.04155971	0.01283462	0	0	0	0
17.47956	0.04155971	0.01283462	0	0	0	0
17.49607	0.04155971	0.01283462	0	0	0	0
17.51248	0.04155971	0.01283462	0	0	0	0
17.52909	0.04155971	0.01283462	0	0	0	0
17.54561	0.04155971	0.01283462	0	0	0	0
17.56218	0.04155971	0.01283462	0	0	0	0
17.57875	0.04155971	0.01283462	0	0	0	0
17.59531	0.04155971	0.01283462	0	0	0	0
17.61188	0.04155971	0.01283462	0	0	0	0
17.62845	0.04155971	0.01283462	0	0	0	0
17.64501	0.04155971	0.01283462	0	0	0	0
17.66158	0.04155971	0.01283462	0	0	0	0
17.67822	0.04155971	0.01283462	0	0	0	0
17.69473	0.04155971	0.01283462	0	0	0	0
17.71128	0.04155971	0.01283462	0	0	0	0
17.72785	0.04155971	0.01283462	0	0	0	0
17.74442	0.04155971	0.01283462	0	0	0	0
17.76098	0.04155971	0.01283462	0	0	0	0
17.77776	0.05989488	0.03483682	1.092748	1.311298	32.76982	39.3238
17.7943	0.08189708	0.06050605	1.330353	1.552078	7.131508	7.226826
17.81068	0.1051216	0.08617529	1.417834	1.567079	2.657461	0.4556789
17.82725	0.1283462	0.1093998	1.401836	1.401836	-0.4855491	-5.015334
17.84381	0.149126	0.1265127	1.254274	1.032932	-4.453427	-11.13353
17.86079	0.1662388	0.1411808	1.007869	0.8638868	-7.345203	-5.039151
17.87736	0.1919081	0.16685	1.54922	1.54922	16.13644	20.42823
17.89393	0.2016868	0.1754064	0.5902467	0.5164651	-28.9402	-31.16682
17.91085	0.216355	0.1888522	0.8667111	0.7944854	8.254855	8.301311
17.92737	0.2310231	0.202298	0.8881321	0.8141204	0.6405858	0.5871781
17.94363	0.2395795	0.2096321	0.5261571	0.4509918	-11.0433	-11.0785
17.9602	0.2444689	0.2132991	0.2951238	0.2213431	-7.037416	-6.99524
17.97677	0.2615817	0.2267449	1.032694	0.811402	22.25736	17.80596
17.99333	0.2701381	0.234079	0.5165858	0.4427872	-15.57618	-11.12482
18.0099	0.2762499	0.2389683	0.3688612	0.2950898	-4.458596	-4.457773
18.03204	0.2762499	0.2401907	0	0.05521861	-9.529861	-6.197289
18.04861	0.2762499	0.2401907	0	0	0	-1.426693
18.06517	0.2762499	0.2401907	0	0	0	0
18.08198	0.2762499	0.2401907	0	0	0	0
18.09849	0.2762499	0.2401907	0	0	0	0
18.11487	0.2762499	0.2401907	0	0	0	0
18.13144	0.2762499	0.2401907	0	0	0	0
18.14801	0.2762499	0.2401907	0	0	0	0
18.16457	0.2762499	0.2401907	0	0	0	0
18.18315	0.2762499	0.2389683	0	-0.06581096	0	-1.872769
18.19972	0.2750275	0.2353013	-0.07377223	-0.2213167	-2.099207	-4.424954
18.21658	0.2701381	0.2304119	-0.2900144	-0.2900144	-6.468857	-2.055083
18.23309	0.2676935	0.2255225	-0.1480387	-0.2960791	4.254225	-0.1817258
18.2496	0.25547	0.2120768	-0.7403662	-0.8144026	-17.93636	-15.69543
18.26613	0.2444689	0.198631	-0.6653296	-0.8131795	2.270752	0.03701299
18.28267	0.2310231	0.1827405	-0.8129018	-0.9607006	-4.4617	-4.460154
18.29914	0.2151326	0.163183	-0.9648144	-1.187466	-4.601949	-6.869487
18.31569	0.1967975	0.1399584	-1.108372	-1.403938	-4.348612	-6.557296
18.33453	0.1784623	0.1204009	-0.9730647	-1.037936	3.823858	10.34339
18.3511	0.1515707	0.09595405	-1.622992	-1.475447	-18.35339	-12.35494
18.36769	0.145459	0.08861998	-0.3682685	-0.4419225	37.83278	31.16312
18.38423	0.1344579	0.07761887	-0.6651762	-0.6651766	-8.96069	-6.73782
18.4008	0.1246791	0.06906246	-0.5903156	-0.5165259	2.261379	4.490423
18.41737	0.1161227	0.06050606	-0.5164655	-0.5164653	2.228927	0.001827759
18.43393	0.1112334	0.05683902	-0.2951573	-0.2213683	6.679479	8.906558
18.45078	0.1075663	0.05317199	-0.217659	-0.2176588	2.319411	0.1110211
18.46707	0.1038993	0.04950495	-0.2251531	-0.2251533	-0.2261708	-0.2261847
18.48538	0.09778756	0.04461557	-0.3337122	-0.2669695	-3.137438	-1.208519
18.50195	0.09167584	0.0397262	-0.3688616	-0.2950894	-1.007622	-0.806107
18.51852	0.09045349	0.03850385	-0.07378118	-0.07378095	8.905032	6.678717
18.53508	0.08800881	0.03605916	-0.1475784	-0.1475787	-2.227334	-2.227348
18.55165	0.08311943	0.03239213	-0.2951233	-0.2213426	-4.45317	-2.226329
18.56833	0.08311943	0.03239213	0	0	8.875165	6.656377
18.58484	0.08189708	0.03116979	-0.07403689	-0.07403655	-2.230329	-2.230319
18.60135	0.07456301	0.02505806	-0.4443222	-0.3702685	-11.21526	-8.972321
18.61792	0.06722895	0.02139103	-0.4426848	-0.2213425	0.0495071	4.50289
18.63448	0.04033737	0.02139103	-1.623366	0	-35.63508	6.680515
18.6519	0.01466813	0.03239213	-1.473888	0.6316663	4.398827	18.58863
18.66847	0.03789268	0.03972619	1.401836	0.442685	84.62186	-5.561015
18.68503	0.03789268	0.03972619	0	0	-42.30751	-13.36026
18.7016	0.03789268	0.03972619	0	0	0	0
18.71844	0.03789268	0.03972619	0	0	0	0
18.73473	0.03789268	0.03972619	0	0	0	0
18.7513	0.03789268	0.03972619	0	0	0	0
18.76787	0.03789268	0.03972619	0	0	0	0
18.78489	0.03789268	0.03972619	0	0	0	0
18.80202	0.03789268	0.03972619	0	0	0	0
18.81859	0.03789268	0.03972619	0	0	0	0
18.83516	0.03789268	0.03972619	0	0	0	0
18.85173	0.03789268	0.03972619	0	0	0	0
18.86829	0.03789268	0.03972619	0	0	0	0
18.88507	0.03789268	0.03972619	0	0	0	0
18.90157	0.03789268	0.03972619	0	0	0	0
18.91808	0.03789268	0.03972619	0	0	0	0
18.9346	0.03789268	0.03972619	0	0	0	0
18.95113	-0.0220022	0.09350935	-3.625279	3.255353	-109.7143	98.51895
18.96955	-0.02933627	0.09595405	-0.3980089	0.1326698	92.344	-89.35137
18.98612	-0.03055861	0.09717638	-0.07378083	0.07378028	9.265215	-1.68284
19.00269	-0.03055861	0.09717638	0	0	2.22671	-2.226693
19.01925	-0.02933627	0.0947317	0.07378083	-0.1475614	2.22671	-4.453413
19.03582	-0.02566923	0.08617529	0.2213426	-0.516466	4.453424	-11.13356
19.05239	-0.02444689	0.0812859	0.07378083	-0.2951238	-4.453424	6.68012
19.06922	-0.02322455	0.07761887	0.0726352	-0.2179053	-0.0343049	2.312225
19.08552	-0.02322455	0.07761887	0	0	-2.192261	6.576773
19.10223	-0.02322455	0.07761887	0	0	0	0
19.1196	-0.02322455	0.07761887	0	0	0	0
19.13617	-0.02322455	0.07761887	0	0	0	0
19.15274	-0.02322455	0.07761887	0	0	0	0
19.16931	-0.02322455	0.07761887	0	0	0	0
19.18587	-0.02322455	0.07761887	0	0	0	0
19.20244	-0.02322455	0.07761887	0	0	0	0
19.219	-0.02322455	0.07761887	0	0	0	0
19.23557	-0.02322455	0.07761887	0	0	0	0
19.25214	-0.02322455	0.07761887	0	0	0	0
19.26885	-0.02322455	0.07761887	0	0	0	0
19.28613	-0.02322455	0.07761887	0	0	0	0
19.3027	-0.02322455	0.07761887	0	0	0	0
19.31939	-0.02322455	0.07761887	0	0	0	0
19.33591	-0.02322455	0.07761887	0	0	0	0
19.35241	-0.02322455	0.07761887	0	0	0	0
19.36897	-0.02322455	0.07761887	0	0	0	0
19.38593	-0.02322455	0.07761887	0	0	0	0
19.4021	-0.0220022	0.07639652	0.07559109	-0.07559133	2.281475	-2.281482
19.41896	-0.01955751	0.07517418	0.1449418	-0.07247081	2.099172	0.09445475
19.43523	-0.01955751	0.07517418	0	0	-4.374605	2.187299
19.45238	-0.01833517	0.07395184	0.07125421	-0.0712541	2.132047	-2.132044
19.46895	-0.01711282	0.07272951	0.07377234	-0.07377178	0.07466923	-0.07465597
19.48552	-0.01466813	0.07028481	0.1475617	-0.1475624	2.22684	-2.226876
19.50209	-0.01466813	0.06906246	0	-0.07378072	-4.453422	2.226734
19.51866	-0.01344579	0.06661777	0.07378089	-0.1475619	2.226712	-2.22672
19.53522	-0.0110011	0.06417309	0.1475617	-0.1475614	2.226708	1.349154E-05
19.55179	-0.009778756	0.0617284	0.07378089	-0.1475619	-2.226708	-1.349154E-05
19.56836	-0.008556412	0.05928371	0.07378083	-0.1475617	-1.798872E-06	6.745769E-06
19.58493	-0.007334067	0.05683902	0.07377237	-0.1475447	-0.0002554251	0.000512649
19.60149	-0.007334067	0.05683902	0	0	-2.226583	4.453164
19.62109	-0.006111722	0.05561668	0.06235266	-0.06235254	1.724014	-1.72401
19.63766	-0.006111722	0.05561668	0	0	-1.723741	1.723738
19.65423	-0.006111722	0.05439433	0	-0.07379816	0	-2.227361
19.6708	-0.004889378	0.05439433	0.07377237	2.248331E-07	2.226583	2.227368
19.68736	-0.004889378	0.05439433	0	0	-2.226326	-6.785086E-06
19.70393	-0.004889378	0.05439433	0	0	0	0
19.72049	-0.004889378	0.05317198	0	-0.07378095	0	-2.22697
19.73717	-0.004889378	0.05317198	0	0	0	2.219686
19.75369	-0.003667034	0.05194964	0.07395965	-0.07395954	2.227746	-2.227743
19.77156	-0.002444689	0.0507273	0.06842415	-0.06842423	-0.1609559	0.1609502
19.78823	-0.002444689	0.0507273	0	0	-1.98133	1.981332
19.80472	-0.002444689	0.0507273	0	0	0	0
19.82126	-0.002444689	0.0507273	0	0	0	0
19.83783	-0.001222345	0.04950495	0.07378086	-0.07378072	2.228892	-2.228888
19.85439	-0.001222345	0.04950495	0	0	-2.226711	2.226707
19.87096	-0.001222345	0.04950495	0	0	0	0
19.88753	-0.001222345	0.04950495	0	0	0	0
19.90409	-0.001222345	0.04950495	0	0	0	0
19.92112	-0.001222345	0.04950495	0	0	0	0
19.93769	0	0.04828261	0.07378086	-0.07378095	2.196492	-2.196495
19.95425	0	0.04828261	0	0	-2.226839	2.226841
19.97083	0	0.04828261	0	0	0	0
19.98738	0	0.04828261	0	0	0	0
20.00395	0	0.04706026	0	-0.07378095	0	-2.227611
20.02052	0	0.04706026	0	0	0	2.226713
20.03709	0	0.04706026	0	0	0	0
20.05365	0	0.04583792	0	-0.07378072	0	-2.226707
20.07171	0	0.04583792	0	0	0	2.130907
20.08828	0.001222344	0.04461557	0.07378085	-0.07378095	2.13091	-2.130913
20.10495	0.001222344	0.04461557	0	0	-2.219683	2.219686
20.12147	0.001222344	0.04461557	0	0	0	0
20.13799	0.001222344	0.04461557	0	0	0	0
20.15454	0.001222344	0.04339323	7.034942E-09	-0.07386599	2.126823E-07	-2.233136
20.17111	0.001222344	0.04339323	0	0	-2.124373E-07	2.230564
20.18768	0.002444689	0.04339323	0.07378086	0	2.226711	0
20.20425	0.002444689	0.04339323	0	0	-2.226583	0
20.22104	0.002444689	0.04339323	0	0	0	0
20.23881	0.002444689	0.04217089	0	-0.06876911	0	-1.989671
20.25538	0.002444689	0.04217089	0	0	0	2.002489
20.27194	0.002444689	0.04217089	0	0	0	0
20.28852	0.002444689	0.04217089	0	0	0	0
20.30508	0.002444689	0.04217089	0	0	0	0
20.32165	0.002444689	0.04217089	0	0	0	0
20.33821	0.002444689	0.04217089	0	0	0	0
20.35514	0.002444689	0.04217089	0	0	0	0
20.37134	0.002444689	0.04217089	0	0	0	0
20.38859	0.002444689	0.04217089	0	0	0	0
20.40516	0.002444689	0.04217089	0	0	0	0
20.42172	0.002444689	0.04217089	0	0	0	0
20.43829	0.002444689	0.04217089	0	0	0	0
20.45486	0.002444689	0.04217089	0	0	0	0
20.47142	0.002444689	0.04217089	0	0	0	0
20.48803	0.002444689	0.04217089	0	0	0	0
20.50865	0.002444689	0.04217089	0	0	0	0
20.52528	0.002444689	0.04217089	0	0	0	0
20.54304	0.002444689	0.04217089	0	0	0	0
20.5596	0.002444689	0.04217089	0	0	0	0
20.57617	0.002444689	0.04217089	0	0	0	0
20.59274	0.002444689	0.04217089	0	0	0	0
20.60977	0.002444689	0.04094854	0	-0.07176498	0	-2.135872
20.62716	0.001222344	0.03972619	-0.07030834	-0.07030843	-2.042772	0.04231933
20.64372	0.001222345	0.03850385	7.026843E-09	-0.07378072	2.070773	-0.1022684
20.66034	0.001222345	0.03850385	0	0	-2.11778E-07	2.223635
20.6773	0.001222345	0.03850385	0	0	0	0
20.69468	0.001222345	0.03850385	0	0	0	0
20.71137	0.001222345	0.03850385	0	0	0	0
20.72787	0.001222345	0.03850385	0	0	0	0
20.74438	0.001222345	0.03850385	0	0	0	0
20.76094	0.001222345	0.03850385	0	0	0	0
20.77751	0.001222345	0.03850385	0	0	0	0
20.79408	0.001222345	0.03850385	0	0	0	0
20.81065	0.001222345	0.03850385	0	0	0	0
20.82721	0.001222345	0.03850385	0	0	0	0
20.84397	0.001222345	0.03850385	0	0	0	0
20.86065	0.001222345	0.03850385	0	0	0	0
20.87753	0.001222345	0.03850385	0	0	0	0
20.89401	0.001222345	0.03850385	0	0	0	0
20.91036	0.001222345	0.03850385	0	0	0	0
20.92692	0.001222345	0.03850385	0	0	0	0
20.94349	0.001222345	0.03850385	0	0	0	0
20.96006	0.001222345	0.03850385	0	0	0	0
20.97663	0.001222345	0.03850385	0	0	0	0
20.99319	0.001222345	0.03850385	0	0	0	0
21.00976	0.001222345	0.03850385	0	0	0	0
21.02655	0.001222345	0.03850385	0	0	0	0
21.04313	0.001222345	0.03850385	0	0	0	0
21.05969	0.001222345	0.03850385	0	0	0	0
21.07625	0.001222345	0.03850385	0	0	0	0
21.09282	0.001222345	0.03850385	0	0	0	0
21.10939	0.001222345	0.03850385	0	0	0	0
21.12619	0.001222345	0.03850385	0	0	0	0
21.1427	0.001222345	0.03850385	0	0	0	0
21.15909	0.001222345	0.03850385	0	0	0	0
21.17683	0.001222345	0.03850385	0	0	0	0
21.1934	0.001222345	0.03850385	0	0	0	0
21.20997	0.001222345	0.03850385	0	0	0	0
21.22675	0.001222345	0.03850385	0	0	0	0
21.24328	0.001222345	0.03850385	0	0	0	0
21.25979	0.001222344	0.03605916	-7.052826E-09	-0.1481073	-2.135061E-07	-4.483567
21.27629	0.002444689	0.03483682	0.07407936	-0.07407945	2.244376	2.242815
21.29282	0.002444689	0.03239213	0	-0.1478852	-2.242691	-2.234406
21.30937	0.002444689	0.03116979	0	-0.07385737	0	2.23777
21.32635	0.002444689	0.03116979	0	0	0	2.202772
21.34781	0.003667034	0.02994744	0.05695526	-0.05695524	1.481639	-1.481639
21.36438	0.003667034	0.0287251	0	-0.07378095	-1.497691	-0.4424474
21.38094	0.003667034	0.0287251	0	0	0	2.226713
21.39912	0.003667034	0.0287251	0	0	0	0
21.41568	0.003667034	0.0287251	0	0	0	0
21.43242	0.003667034	0.0287251	0	0	0	0
21.44893	0.003667034	0.0287251	0	0	0	0
21.46545	0.003667034	0.0287251	0	0	0	0
21.48195	0.003667034	0.0287251	0	0	0	0
21.49919	0.003667034	0.0287251	0	0	0	0
21.51576	0.003667034	0.0287251	0	0	0	0
21.53233	0.003667034	0.0287251	0	0	0	0
21.54889	0.003667034	0.0287251	0	0	0	0
21.56546	0.003667034	0.0287251	0	0	0	0
21.58203	0.003667034	0.0287251	0	0	0	0
21.5986	0.003667034	0.0287251	0	0	0	0
21.61516	0.003667034	0.0287251	0	0	0	0
21.63173	0.003667034	0.0287251	0	0	0	0
21.6483	0.003667034	0.02750275	1.405369E-08	-0.07378083	4.241166E-07	-2.226582
21.66526	0.003667034	0.02750275	0	0	-4.190989E-07	2.200239
21.68208	0.003667034	0.02750275	0	0	0	0
21.6984	0.003667034	0.02750275	0	0	0	0
21.71511	0.003667034	0.02750275	0	0	0	0
21.73153	0.003667034	0.02750275	0	0	0	0
21.7481	0.003667034	0.02750275	0	0	0	0
21.76467	0.003667034	0.02750275	0	0	0	0
21.78123	0.003667034	0.02750275	0	0	0	0
21.7978	0.003667034	0.02750275	0	0	0	0
21.81437	0.003667034	0.02750275	0	0	0	0
21.83179	0.003667034	0.02750275	0	0	0	0
21.84872	0.003667034	0.02750275	0	0	0	0
21.86492	0.003667034	0.02750275	0	0	0	0
21.88174	0.003667034	0.02750275	0	0	0	0
21.89824	0.003667034	0.02750275	0	0	0	0
21.91462	0.003667034	0.02750275	0	0	0	0
21.93118	0.003667034	0.02750275	0	0	0	0
21.9478	0.003667034	0.02750275	0	0	0	0
21.96432	0.003667034	0.02750275	0	0	0	0
21.98141	0.003667034	0.02750275	0	0	0	0
21.99798	0.003667034	0.02750275	0	0	0	0
22.01455	0.003667034	0.02750275	0	0	0	0
22.03112	0.003667034	0.02750275	0	0	0	0
22.04769	0.003667034	0.02750275	0	0	0	0
22.06425	0.003667034	0.02750275	0	0	0	0
22.08082	0.003667034	0.02750275	0	0	0	0
22.0974	0.003667034	0.02750275	0	0	0	0
22.11396	0.003667034	0.02750275	0	0	0	0
22.13052	0.003667034	0.02750275	0	0	0	0
22.14709	0.003667034	0.02750275	0	0	0	0
22.16365	0.003667034	0.02750275	0	0	0	0
22.18022	0.003667034	0.02750275	0	0	0	0
22.19679	0.003667034	0.02750275	0	0	0	0
22.21336	0.003667034	0.02750275	0	0	0	0
22.23005	0.003667034	0.02750275	0	0	0	0
22.24649	0.003667034	0.02750275	0	0	0	0
22.26305	0.003667034	0.02750275	0	0	0	0
22.28007	0.003667034	0.02750275	0	0	0	0
22.29758	0.003667034	0.02750275	0	0	0	0
22.31435	0.003667034	0.02750275	0	0	0	0
22.33114	0.003667034	0.02750275	0	0	0	0
22.34763	0.003667034	0.02750275	0	0	0	0
22.36414	0.003667034	0.02750275	0	0	0	0
22.38065	0.003667034	0.02750275	0	0	0	0
22.39719	0.003667034	0.02750275	0	0	0	0
22.41376	0.003667034	0.02750275	0	0	0	0
22.43032	0.003667034	0.02750275	0	0	0	0
22.4472	0.003667034	0.02750275	0	0	0	0
22.46346	0.003667034	0.02750275	0	0	0	0
22.48052	0.004889378	0.0287251	0.07164454	0.07164454	2.150723	2.150723
22.49709	0.004889378	0.0287251	0	0	-2.130352	-2.130352
22.51365	0.004889378	0.0287251	0	0	0	0
22.53022	0.004889378	0.0287251	0	0	0	0
22.54679	0.004889378	0.0287251	0	0	0	0
22.56335	0.004889378	0.0287251	0	0	0	0
22.57992	0.004889378	0.0287251	0	0	0	0
22.59649	0.004889378	0.0287251	0	0	0	0
22.61305	0.004889378	0.0287251	0	0	0	0
22.62984	0.004889378	0.0287251	0	0	0	0
22.64834	0.004889378	0.0287251	0	0	0	0
22.66491	0.004889378	0.0287251	0	0	0	0
22.68148	0.004889378	0.0287251	0	0	0	0
22.69805	0.004889378	0.0287251	0	0	0	0
22.71461	0.004889378	0.0287251	0	0	0	0
22.73118	0.004889378	0.0287251	0	0	0	0
22.74775	0.004889378	0.0287251	0	0	0	0
22.76443	0.004889378	0.0287251	0	0	0	0
22.78088	0.004889378	0.0287251	0	0	0	0
22.79814	-0.0220022	0.01405696	-1.557893	-0.8497598	-46.2113	-25.20616
22.81471	-0.04767143	-0.004278206	-1.549398	-1.106713	0.2511241	-7.595706
22.83128	-0.0794524	-0.02750275	-1.918303	-1.401836	-11.13357	-8.906843
22.84784	-0.110011	-0.05194964	-1.844521	-1.475617	2.226726	-2.226705
22.86451	-0.1466814	-0.08250826	-2.200758	-1.833965	-10.7204	-10.78392
22.88099	-0.1796846	-0.1106222	-2.001993	-1.705402	5.996325	3.878478
22.89754	-0.2016868	-0.131402	-1.329433	-1.255576	20.35884	13.61654
22.91411	-0.216355	-0.1436255	-0.8853696	-0.7378091	13.40881	15.63432
22.93068	-0.223689	-0.1521819	-0.4426852	-0.5164651	13.36024	6.680175
22.94724	-0.2273561	-0.159516	-0.2213695	-0.4427371	6.679708	2.225242
22.96454	-0.2322455	-0.16685	-0.2826282	-0.4239423	-1.808911	0.5549942
22.98111	-0.2334678	-0.1705171	-0.07378072	-0.2213431	6.166717	5.982222
22.99767	-0.2334678	-0.1717394	-8.994359E-07	-0.07378072	2.226679	4.453441
23.01461	-0.2359125	-0.1766288	-0.1443865	-0.2887729	-4.310176	-6.417915
23.03081	-0.2359125	-0.1778511	9.196586E-07	-0.07544052	4.35762	6.438385
23.04763	-0.2359125	-0.1790735	-8.860724E-07	-0.0726854	-5.468594E-05	0.08343788
23.06394	-0.2359125	-0.1802958	1.826631E-06	-0.07491835	8.187426E-05	-0.06739456
23.08688	-0.2359125	-0.1815182	-6.496882E-07	-0.05329457	-6.30888E-05	0.5509058
23.10368	-0.2359125	-0.1815182	0	0	1.634863E-05	1.341094
23.12234	-0.2359125	-0.1815182	0	0	0	0
23.1389	-0.2359125	-0.1815182	0	0	0	0
23.16332	-0.2359125	-0.1815182	0	0	0	0
23.17989	-0.2359125	-0.1815182	0	0	0	0
23.19646	-0.2359125	-0.1815182	0	0	0	0
23.21302	-0.2346901	-0.1815182	0.07378072	8.994359E-07	2.226835	2.714659E-05
23.22959	-0.2334678	-0.1827405	0.07377313	-0.07377223	-0.0002291181	-2.226349
23.24627	-0.2322455	-0.1827405	0.07329044	0	-0.0145184	2.218914
23.26278	-0.2322455	-0.1827405	0	0	-2.20797	0
23.28196	-0.2310231	-0.1827405	0.06374963	0	1.786189	0
23.29853	-0.2285784	-0.1827405	0.1475597	-8.994359E-07	2.344874	-2.516481E-05
23.31509	-0.2261337	-0.1815182	0.1475632	0.07378162	0.000108382	2.226761
23.33184	-0.2224667	-0.1802958	0.2189724	0.07299082	2.143535	-0.02373808
23.34835	-0.2151326	-0.1778511	0.4442708	0.14809	6.774949	2.258307
23.36537	-0.2065762	-0.1741841	0.5025794	0.2153917	1.738837	2.007022
23.3814	-0.1931304	-0.16685	0.8388221	0.4575388	10.17242	7.325727
23.39793	-0.1699059	-0.1497372	1.405235	1.035436	17.39782	17.75058
23.41493	-0.1540154	-0.131402	0.9348271	1.078647	-14.03135	1.288911
23.43345	-0.1405696	-0.1167339	0.7260749	0.792082	-5.877574	-8.068462
23.45001	-0.1246791	-0.09595405	0.9591517	1.254275	6.643075	13.17325
23.46658	-0.1161227	-0.08861998	0.516466	0.4426852	-13.36028	-24.49382
23.48346	-0.0990099	-0.07028481	1.01402	1.08645	14.87748	19.24936
23.49972	-0.08434177	-0.05194964	0.9021966	1.127746	-3.374842	1.246309
23.51628	-0.05989488	-0.02994744	1.475617	1.328056	17.46877	6.102262
23.53285	-0.05378316	-0.02505806	0.3689043	0.2951235	-33.40066	-31.17395
23.54951	-0.0440044	-0.017724	0.5871375	0.4403531	6.568898	4.371463
23.56598	-0.03789268	-0.01405696	0.3709115	0.2225469	-6.526089	-6.573782
23.58474	-0.03422565	-0.01161227	0.1954636	0.1303091	-4.978903	-2.617545
23.60131	-0.02689158	-0.00550055	0.4426851	0.3689043	6.997909	6.753729
23.61788	-0.02444689	-0.004278206	0.1475618	0.07378086	-8.90684	-8.906843
23.63456	-0.01955751	-0.001833517	0.2930318	0.1465159	4.374681	2.187341
23.65101	-0.01711282	0.0006111722	0.1486398	0.1486398	-4.358011	0.06410334
23.66758	-0.01344579	0.003055861	0.2213426	0.1475617	2.202163	-0.03265552
23.68414	-0.01222344	0.003055861	0.07378934	0	-4.453424	-4.453678
23.70071	-0.0110011	0.003055861	0.07378089	0	-0.0002547799	0
23.71728	-0.0110011	0.004278206	-5.621474E-08	0.07378086	-2.226714	2.226711
23.74169	-0.008556412	0.00550055	0.1001423	0.05007113	2.443725	-0.5785772
23.75826	-0.006111723	0.006722894	0.1475447	0.07377237	1.156684	0.578343
23.77483	-0.004889378	0.006722895	0.07378089	5.621474E-08	-2.226068	-2.226325
23.79139	-0.004889378	0.006722895	0	0	-2.226712	-1.696564E-06
23.80796	-0.004889378	0.006722895	0	0	0	0
23.82453	-0.004889378	0.006722895	0	0	0	0
23.8411	-0.004889378	0.006722895	0	0	0	0
23.85766	-0.004889378	0.006722895	0	0	0	0
23.87423	-0.004889378	0.006722895	0	0	0	0
23.89293	-0.004889378	0.006722895	0	0	0	0
23.9095	-0.004889378	0.006722895	0	0	0	0
23.92629	-0.004889378	0.006722895	0	0	0	0
23.94263	-0.004889378	0.006722895	0	0	0	0
23.9592	-0.004889378	0.006722895	0	0	0	0
23.97577	-0.004889378	0.006722895	0	0	0	0
23.99283	-0.004889378	0.006722895	0	0	0	0
24.0089	-0.004889378	0.006722895	0	0	0	0
24.02547	-0.004889378	0.006722895	0	0	0	0
24.04381	-0.004889378	0.006722895	0	0	0	0
24.0618	-0.004889378	0.006722895	0	0	0	0
24.07838	-0.004889378	0.006722895	0	0	0	0
24.09493	-0.004889378	0.006722895	0	0	0	0
24.1115	-0.003667034	0.006722894	0.07377236	-5.620827E-08	2.227608	-1.697248E-06
24.12841	-0.003667034	0.006722894	0	0	-2.203747	1.679068E-06
24.14463	-0.003667034	0.006722894	0	0	0	0
24.21052	-0.003667034	0.006722894	0	0	0	0
24.23091	-0.003667034	0.006722894	0	0	0	0
24.24751	-0.003667034	0.006722894	0	0	0	0
24.26453	-0.003667034	0.006722894	0	0	0	0
24.28061	-0.003667034	0.006722894	0	0	0	0
24.29718	-0.003667034	0.006722894	0	0	0	0
24.31375	-0.003667034	0.006722894	0	0	0	0
24.33031	-0.003667034	0.006722894	0	0	0	0
24.34688	-0.003667034	0.006722894	0	0	0	0
24.36345	-0.003667034	0.006722894	0	0	0	0
24.38002	-0.003667034	0.006722894	0	0	0	0
24.39773	-0.003667034	0.006722894	0	0	0	0
24.4143	-0.003667034	0.007945239	0	0.07378083	0	2.152251
24.43086	-0.003667034	0.007945239	0	0	0	-2.22671
24.44766	-0.003667034	0.007945239	0	0	0	0
24.46417	-0.003667034	0.007945239	0	0	0	0
24.48056	-0.003667034	0.007945239	0	0	0	0
24.4972	-0.003667034	0.007945239	0	0	0	0
24.5137	-0.003667034	0.007945239	0	0	0	0
24.53027	-0.003667034	0.007945239	0	0	0	0
24.54866	-0.003667034	0.007945239	0	0	0	0
24.56523	-0.003667034	0.007945239	0	0	0	0
24.5818	-0.003667034	0.007945239	0	0	0	0
24.59837	-0.003667034	0.007945239	0	0	0	0
24.61493	-0.003667034	0.007945239	0	0	0	0
24.6315	-0.003667034	0.007945239	0	0	0	0
24.64807	-0.003667034	0.007945239	0	0	0	0
24.66463	-0.003667034	0.007945239	0	0	0	0
24.6812	-0.002444689	0.00794524	0.07378086	5.621474E-08	2.226711	1.696564E-06
24.69987	-0.002444689	0.00794524	0	0	-2.093771	-1.595275E-06
24.71685	-0.002444689	0.00794524	0	0	0	0
24.73301	-0.002444689	0.00794524	0	0	0	0
24.74957	-0.002444689	0.00794524	0	0	0	0
24.76614	-0.002444689	0.00794524	0	0	0	0
24.78289	-0.002444689	0.00794524	0	0	0	0
24.7994	-0.002444689	0.00794524	0	0	0	0
24.81592	-0.002444689	0.00794524	0	0	0	0
24.83244	-0.002444689	0.00794524	0	0	0	0
24.85061	-0.002444689	0.00794524	0	0	0	0
24.86796	-0.002444689	0.00794524	0	0	0	0
24.88374	-0.002444689	0.00794524	0	0	0	0
24.90031	-0.002444689	0.00794524	0	0	0	0
24.91688	-0.002444689	0.00794524	0	0	0	0
24.93344	-0.002444689	0.00794524	0	0	0	0
24.95001	-0.002444689	0.00794524	0	0	0	0
24.96658	-0.002444689	0.00794524	0	0	0	0
24.98314	-0.002444689	0.00794524	0	0	0	0
25.00105	-0.002444689	0.00794524	0	0	0	0
25.01867	-0.002444689	0.00794524	0	0	0	0
25.03524	-0.002444689	0.00794524	0	0	0	0
25.05181	-0.002444689	0.00794524	0	0	0	0
25.0686	-0.002444689	0.00794524	0	0	0	0
25.0851	-0.002444689	0.00794524	0	0	0	0
25.1016	-0.002444689	0.00794524	0	0	0	0
25.11807	-0.002444689	0.00794524	0	0	0	0
25.13464	-0.002444689	0.00794524	0	0	0	0
25.15652	-0.002444689	0.00794524	0	0	0	0
25.17308	0	0.009167584	0.1475617	0.07378083	3.838303	1.919151
25.18965	0.001222344	0.009167584	0.07378086	0	-2.226711	-2.22671
25.20621	0.001222344	0.009167584	0	0	-2.226839	0
25.22278	0.001222344	0.009167584	0	0	0	0
25.23935	0.001222344	0.009167584	0	0	0	0
25.25621	0.002444689	0.009167584	0.07247914	0	2.168204	0
25.27248	0.002444689	0.01038993	1.431238E-08	0.07513904	-2.18755	2.267831
25.28923	0.002444689	0.01038993	0	0	-4.334206E-07	-2.275429
25.30818	0.003667033	0.01038993	0.0645313	-4.916738E-08	1.807801	-1.377391E-06
25.32474	0.003667033	0.01038993	0	0	-1.817317	1.384641E-06
25.34131	0.003667033	0.01038993	0	0	0	0
25.35788	0.003667033	0.01038993	0	0	0	0
25.37444	0.003667033	0.01038993	0	0	0	0
25.39133	0.003667033	0.01038993	0	0	0	0
25.40786	0.003667033	0.01038993	0	0	0	0
25.42434	0.003667033	0.01038993	0	0	0	0
25.44134	0.003667033	0.01038993	0	0	0	0
25.45976	0.003667033	0.01038993	0	0	0	0
25.47637	0.003667033	0.01038993	0	0	0	0
25.4929	0.003667033	0.01038993	0	0	0	0
25.50947	0.003667033	0.01038993	0	0	0	0
25.52642	0.003667033	0.01038993	0	0	0	0
25.54785	0.003667033	0.01038993	0	0	0	0
25.56441	0.003667033	0.01038993	0	0	0	0
25.58098	0.003667033	0.01038993	0	0	0	0
25.59941	0.003667033	0.01038993	0	0	0	0
25.62833	0.003667033	0.01038993	0	0	0	0
25.6449	0.003667033	0.01038993	0	0	0	0
25.66147	0.003667033	0.01038993	0	0	0	0
25.67804	0.003667033	0.01038993	0	0	0	0
25.69504	0.003667033	0.01038993	0	0	0	0
25.71219	0.003667033	0.01038993	0	0	0	0
25.72876	0.003667033	0.01038993	0	0	0	0
25.74533	0.003667033	0.01038993	0	0	0	0
25.76189	0.003667033	0.01038993	0	0	0	0
25.78014	0.003667033	0.01038993	0	0	0	0
25.79671	0.003667033	0.01038993	0	0	0	0
25.81328	0.003667033	0.01038993	0	0	0	0
25.82985	0.003667033	0.01038993	0	0	0	0
25.84665	0.003667033	0.01038993	0	0	0	0
25.86298	0.003667033	0.01038993	0	0	0	0
25.87966	0.003667033	0.01038993	0	0	0	0
25.89765	0.003667033	0.01038993	0	0	0	0
25.91422	0.003667033	0.01038993	0	0	0	0
25.93182	0.003667033	0.01038993	0	0	0	0
25.94839	0.003667033	0.01038993	0	0	0	0
25.96496	0.003667033	0.01038993	0	0	0	0
25.98152	0.003667033	0.01038993	0	0	0	0
25.99809	0.003667033	0.01038993	0	0	0	0
26.01466	0.003667033	0.01038993	0	0	0	0
26.0313	0.003667033	0.01038993	0	0	0	0
26.04779	0.003667033	0.01038993	0	0	0	0
26.06436	0.003667033	0.01038993	0	0	0	0
26.08286	0.003667033	0.01038993	0	0	0	0
26.09942	0.003667033	0.01038993	0	0	0	0
26.11599	0.003667033	0.01038993	0	0	0	0
26.13256	0.003667033	0.01038993	0	0	0	0
26.14913	0.003667033	0.01038993	0	0	0	0
26.16588	0.003667033	0.01038993	0	0	0	0
26.18226	0.003667033	0.01038993	0	0	0	0
26.19883	0.003667033	0.01038993	0	0	0	0
26.21542	0.003667033	0.01038993	0	0	0	0
26.23412	0.003667033	0.01038993	0	0	0	0
26.25068	0.003667033	0.01038993	0	0	0	0
26.26725	0.003667033	0.01038993	0	0	0	0
26.28382	0.003667033	0.01038993	0	0	0	0
26.30047	0.003667033	0.01038993	0	0	0	0
26.31695	0.003667033	0.01038993	0	0	0	0
26.33352	0.003667033	0.01038993	0	0	0	0
26.35009	0.003667033	0.01038993	0	0	0	0
26.36665	0.003667033	0.01038993	0	0	0	0
26.38409	0.003667033	0.01038993	0	0	0	0
26.40066	0.003667033	0.01038993	0	0	0	0
26.41722	0.003667033	0.01038993	0	0	0	0
26.43379	0.003667033	0.01038993	0	0	0	0
26.45036	0.003667033	0.01038993	0	0	0	0
26.4671	0.003667033	0.01038993	0	0	0	0
26.4836	0.003667033	0.01038993	0	0	0	0
26.50012	0.003667033	0.01038993	0	0	0	0
26.51663	0.003667033	0.01038993	0	0	0	0
26.53319	0.003667033	0.01038993	0	0	0	0
26.55093	0.003667033	0.01038993	0	0	0	0
26.5677	0.003667033	0.01038993	0	0	0	0
26.5842	0.003667033	0.01038993	0	0	0	0
26.60071	0.003667033	0.01038993	0	0	0	0
26.61722	0.003667033	0.01038993	0	0	0	0
26.63377	0.003667033	0.01038993	0	0	0	0
26.65034	0.003667033	0.01038993	0	0	0	0
26.6669	0.003667033	0.01038993	0	0	0	0
26.68347	0.003667033	0.01038993	0	0	0	0
26.70103	0.003667033	0.01038993	0	0	0	0
26.7176	0.003667033	0.01038993	0	0	0	0
26.73431	0.003667033	0.01038993	0	0	0	0
26.75082	0.003667033	0.01038993	0	0	0	0
26.7673	0.003667033	0.01038993	0	0	0	0
26.78386	0.003667033	0.01038993	0	0	0	0
26.80069	0.003667033	0.01038993	0	0	0	0
26.81726	0.003667033	0.01038993	0	0	0	0
26.83387	0.003667033	0.01038993	0	0	0	0
26.8513	0.003667033	0.01038993	0	0	0	0
26.86786	0.003667033	0.01038993	0	0	0	0
26.88443	0.003667033	0.01038993	0	0	0	0
26.901	0.003667033	0.01038993	0	0	0	0
26.91756	0.003667033	0.01038993	0	0	0	0
26.93413	0.003667033	0.01038993	0	0	0	0
26.9507	0.003667033	0.01038993	0	0	0	0
26.96746	0.003667033	0.01038993	0	0	0	0
26.98397	0.003667033	0.01038993	0	0	0	0
27.00165	0.003667033	0.01038993	0	0	0	0
27.01822	0.003667033	0.01038993	0	0	0	0
27.03478	0.003667033	0.01038993	0	0	0	0
27.05135	0.003667033	0.01038993	0	0	0	0
27.06805	0.003667033	0.01038993	0	0	0	0
27.08458	0.003667033	0.01038993	0	0	0	0
27.10107	0.003667033	0.01038993	0	0	0	0
27.11762	0.003667033	0.01038993	0	0	0	0
27.13419	0.003667033	0.01038993	0	0	0	0
27.15689	0.003667033	0.01038993	0	0	0	0
27.17364	0.003667033	0.01038993	0	0	0	0
27.19064	0.003667033	0.01038993	0	0	0	0
27.20666	0.003667033	0.01038993	0	0	0	0
27.22317	0.003667033	0.01038993	0	0	0	0
27.23973	0.003667033	0.01038993	0	0	0	0
27.2567	0.003667033	0.01038993	0	0	0	0
27.27285	0.003667033	0.01038993	0	0	0	0
27.2897	0.003667033	0.01038993	0	0	0	0
27.30805	0.003667033	0.01038993	0	0	0	0
27.32472	0.003667033	0.01038993	0	0	0	0
27.34118	0.003667033	0.01038993	0	0	0	0
27.35775	0.003667033	0.01038993	0	0	0	0
27.37432	0.003667033	0.01038993	0	0	0	0
27.39088	0.003667033	0.01038993	0	0	0	0
27.40745	0.003667033	0.01038993	0	0	0	0
27.42402	0.003667033	0.01038993	0	0	0	0
27.44059	0.003667033	0.01038993	0	0	0	0
27.45769	0.003667033	0.01038993	0	0	0	0
27.47433	0.007334067	0.00550055	0.220328	-0.2937706	6.52924	-8.705651
27.49085	0.009778756	0.003055861	0.1480047	-0.1480048	-2.180962	4.395678
27.50739	0.01344579	-0.0006111723	0.2217	-0.2216999	2.229259	-2.229257
27.52396	0.01589048	-0.003055861	0.1475617	-0.1475617	-2.239301	2.2393
27.54052	0.01833517	-0.00550055	0.1475617	-0.1475617	-1.798872E-06	-4.497179E-07
27.55709	0.02077986	-0.00794524	0.1475618	-0.1475617	3.597743E-06	0
27.57366	0.02077986	-0.009167584	0	-0.07378934	-4.45368	2.226583
27.59022	0.0220022	-0.009167584	0.07378072	0	2.226835	2.227095
27.61006	0.0220022	-0.01038993	0	-0.06161526	-2.026633	-1.692468
27.62693	0.02322455	-0.01405696	0.07247103	-0.2174128	1.974418	-4.244585
27.64344	0.02444689	-0.02505806	0.07404499	-0.6664061	0.04716008	-13.45307
27.65976	0.02322455	-0.04461557	-0.07486675	-1.19787	-4.535152	-16.1859
27.67855	0.01711282	-0.07272951	-0.325343	-1.496578	-7.133558	-8.507191
27.69547	0.007334067	-0.1265127	-0.5778725	-3.178298	-7.072176	-47.09716
27.71168	0.004889378	-0.1436255	-0.1507907	-1.055535	12.88935	64.06513
27.72825	0	-0.1741841	-0.2950895	-1.844308	-4.401821	-24.06147
27.74503	-0.004889378	-0.202298	-0.2914327	-1.675739	0.1096601	5.05515
27.76575	-0.008556412	-0.2389684	-0.1769518	-1.769519	3.052792	-2.500776
27.78232	-0.0110011	-0.2670823	-0.1475617	-1.696959	0.7881379	1.94578
27.79889	-0.01222344	-0.276861	-0.07378078	-0.5902476	2.226713	33.40063
27.81557	-0.01589048	-0.2951962	-0.2198493	-1.099244	-4.393437	-15.30955
27.83208	-0.01833517	-0.3135314	-0.148056	-1.110422	2.162993	-0.3367608
27.84859	-0.01955751	-0.3257548	-0.07402799	-0.7402788	2.241653	11.20836
27.86515	-0.02077986	-0.3294218	-0.07380633	-0.2214205	0.006702125	15.68808
27.88172	-0.02077986	-0.3318665	0	-0.1475614	2.227864	2.229454
27.89829	-0.02077986	-0.3318665	0	0	0	4.453413
27.92729	-0.02077986	-0.3318665	0	0	0	0
27.94386	-0.02077986	-0.3318665	0	0	0	0
27.96043	-0.02077986	-0.3318665	0	0	0	0
27.977	-0.02077986	-0.3318665	0	0	0	0
27.99594	-0.02077986	-0.3318665	0	0	0	0
28.01251	-0.02077986	-0.3318665	0	0	0	0
28.02908	-0.02077986	-0.3318665	0	0	0	0
28.04572	-0.02077986	-0.3318665	0	0	0	0
28.06224	-0.01711282	-0.3306442	0.2219558	0.07398515	6.69286	2.23095
28.08282	-0.01344579	-0.3257548	0.1782148	0.2376208	-1.179067	4.41091
28.09938	-0.003667033	-0.3098643	0.5902469	0.9591512	11.09292	19.42537
28.11595	0.003667034	-0.2915291	0.4426851	1.106713	-4.453424	4.453414
28.13252	0.009778757	-0.269527	0.3689044	1.328055	-2.226708	6.680118
28.14909	0.01344579	-0.2524141	0.2213426	1.032932	-4.453424	-8.906826
28.16565	0.01344579	-0.2365237	-5.621474E-08	0.9591512	-6.680134	-2.226707
28.18222	0.01466813	-0.2157438	0.07378083	1.254274	2.226712	8.906827
28.19879	0.01466813	-0.1961863	5.621474E-08	1.180494	-2.226708	-2.226679
28.21535	0.01589048	-0.16685	0.07378078	1.770741	2.226707	17.81368
28.23525	0.01589048	-0.1570713	0	0.4915987	-2.023666	-35.08443
28.25182	0.01711282	-0.1399584	0.07376397	1.032694	2.022993	14.83967
28.26838	0.01711282	-0.1326244	0	0.4427872	-2.226201	-17.80343
28.28496	0.01711282	-0.1265126	-1.123648E-07	0.3686923	-3.390591E-06	-2.235803
28.30151	0.01711282	-0.1204009	1.125072E-07	0.3691591	6.787041E-06	0.01408868
28.31845	0.01833517	-0.1045104	0.07217709	0.9383025	2.155107	16.99385
28.33465	0.01833517	-0.09962107	0	0.3018655	-2.178434	-19.20881
28.35121	0.01955751	-0.08739763	0.07378934	0.7378931	2.252248	13.30873
28.36797	0.01955751	-0.07639653	1.111372E-07	0.6563954	-2.214217	-2.445529
28.38778	0.02077986	-0.0727295	0.06169822	0.185095	1.687054	-12.88709
28.40451	0.02077986	-0.0617284	0	0.6577427	-1.688643	12.93608
28.42104	0.02077986	-0.05194964	1.12702E-07	0.5916772	3.389256E-06	-1.986772
28.43748	0.02077986	-0.04339323	-1.132509E-07	0.5202393	-6.852405E-06	-2.166476
28.45454	0.02077986	-0.03850385	1.091741E-07	0.2865784	6.637908E-06	-6.973226
28.47062	0.02077986	-0.03728151	-1.15885E-07	0.07604858	-6.792296E-06	-6.353801
28.48718	0.02077986	-0.03483682	0	0.1475617	3.550347E-06	2.190934
28.50375	0.02077986	-0.03483682	0	0	0	-4.45342
28.52059	0.02077986	-0.03361448	0	0.07257751	0	2.172386
28.54031	0.02077986	-0.03361448	0	0	0	-1.985469
28.5591	0.02077986	-0.03361448	0	0	0	0
28.57567	0.02077986	-0.03361448	0	0	0	0
28.59224	0.02077986	-0.03361448	0	0	0	0
28.6088	0.02077985	-0.03239213	-1.124424E-07	0.07378967	-3.393519E-06	2.226977
28.62537	0.02077985	-0.03239213	0	0	3.393715E-06	-2.227105
28.64217	0.02077985	-0.03239213	0	0	0	0
28.65868	0.02077985	-0.03239213	0	0	0	0
28.67507	0.02077986	-0.03116978	1.136595E-07	0.07458792	3.454912E-06	2.267251
28.6941	0.02077986	-0.03116978	0	0	-3.209129E-06	-2.105959
28.71067	0.02077986	-0.03116978	0	0	0	0
28.72723	0.02077986	-0.03116978	0	0	0	0
28.7438	0.02077986	-0.03116978	0	0	0	0
28.76037	0.02077986	-0.03116978	0	0	0	0
28.77694	0.02077986	-0.02994744	0	0.07377234	0	2.226454
28.79378	0.02077986	-0.02994744	0	0	0	-2.208024
28.81007	0.02077986	-0.02994744	0	0	0	0
28.82664	0.02077986	-0.02994744	0	0	0	0
28.84599	0.02077986	-0.02994744	0	0	0	0
28.86256	0.02077986	-0.0287251	1.124295E-07	0.07378072	3.129403E-06	2.053639
28.87935	0.02077986	-0.0287251	0	0	-3.370429E-06	-2.21181
28.89569	0.02077986	-0.0287251	0	0	0	0
28.91238	0.02077986	-0.0287251	0	0	0	0
28.92883	0.02077986	-0.02750275	-1.132509E-07	0.07432011	-3.418116E-06	2.243114
28.94539	0.02077986	-0.02750275	0	0	3.430359E-06	-2.251149
28.96196	0.02077986	-0.02750275	0	0	0	0
28.97853	0.02077986	-0.02750275	0	0	0	0
28.99747	0.02077986	-0.02750275	0	0	0	0
29.01404	0.02077986	-0.02750275	0	0	0	0
29.03061	0.02077986	-0.02750275	0	0	0	0
29.04718	0.02077986	-0.02750275	0	0	0	0
29.06374	0.02077986	-0.02750275	0	0	0	0
29.08048	0.02077986	-0.02750275	0	0	0	0
29.09688	0.02077986	-0.02750275	0	0	0	0
29.11344	0.02077986	-0.02750275	0	0	0	0
29.13001	0.02077986	-0.02750275	0	0	0	0
29.14887	0.02077986	-0.02750275	0	0	0	0
29.16543	0.02077986	-0.02750275	0	0	0	0
29.182	0.02077986	-0.02628041	1.124295E-07	0.07378072	3.393129E-06	2.226707
29.19857	0.02077986	-0.02628041	0	0	-3.393129E-06	-2.226707
29.21514	0.02077986	-0.02628041	0	0	0	0
29.2317	0.02077986	-0.02628041	0	0	0	0
29.24827	0.02077986	-0.02628041	0	0	0	0
29.26484	0.02077986	-0.02628041	0	0	0	0
29.28141	0.02077986	-0.02628041	0	0	0	0
29.29815	0.02077986	-0.02628041	0	0	0	0
29.31797	0.02077986	-0.02628041	0	0	0	0
29.33454	0.02077986	-0.02628041	0	0	0	0
29.3511	0.02077986	-0.02628041	0	0	0	0
29.36767	0.02077986	-0.02628041	0	0	0	0
29.38424	0.02077986	-0.02628041	0	0	0	0
29.4008	0.02077986	-0.02628041	0	0	0	0
29.41737	0.02077986	-0.02628041	0	0	0	0
29.43394	0.02077986	-0.02628041	0	0	0	0
29.45176	0.02077986	-0.02628041	0	0	0	0
29.47053	0.02077986	-0.02628041	0	0	0	0
29.48709	0.02077986	-0.02628041	0	0	0	0
29.50379	0.02077986	-0.02628041	0	0	0	0
29.52029	0.02077986	-0.02628041	0	0	0	0
29.53679	0.02077986	-0.02628041	0	0	0	0
29.55336	0.02077986	-0.02628041	0	0	0	0
29.56993	0.02077986	-0.02628041	0	0	0	0
29.58649	0.02077986	-0.02628041	0	0	0	0
29.60337	0.02077986	-0.02628041	0	0	0	0
29.61963	0.02077986	-0.02628041	0	0	0	0
29.63879	0.02077986	-0.02628041	0	0	0	0
29.6554	0.02077986	-0.02628041	0	0	0	0
29.67193	0.02077986	-0.02628041	0	0	0	0
29.68849	0.02077986	-0.02628041	0	0	0	0
29.70506	0.02077986	-0.02628041	0	0	0	0
29.72196	0.02077986	-0.02628041	0	0	0	0
29.73819	0.02077986	-0.02628041	0	0	0	0
29.75476	0.02077986	-0.02628041	0	0	0	0
29.77133	0.02077986	-0.02628041	0	0	0	0
29.79281	0.02077986	-0.02628041	0	0	0	0
29.80938	0.02077986	-0.02628041	0	0	0	0
29.82601	0.02077986	-0.02628041	0	0	0	0
29.84252	0.02077986	-0.02628041	0	0	0	0
29.85908	0.02077986	-0.02628041	0	0	0	0
29.87606	0.02077986	-0.02628041	0	0	0	0
29.89221	0.02077986	-0.02628041	0	0	0	0
29.90878	0.02077986	-0.02628041	0	0	0	0
29.92534	0.02077986	-0.02628041	0	0	0	0
29.94905	0.02077986	-0.02628041	0	0	0	0
29.96562	0.02077986	-0.02505806	-1.123777E-07	0.07374699	-2.789824E-06	1.8308
29.98218	0.02077986	-0.02383572	0	0.07381483	3.391567E-06	0.002047566
29.99875	0.02077986	-0.02383572	0	0	0	-2.228249
30.01532	0.02077986	-0.02383572	0	0	0	0
30.03189	0.02077986	-0.02383572	0	0	0	0
30.04868	0.02077986	-0.02383572	0	0	0	0
30.06502	0.0220022	-0.02383572	0.0748058	0	2.257644	0
30.08159	0.0220022	-0.02383572	0	0	-2.273215	0
30.10076	0.0220022	-0.02383572	0	0	0	0
30.11733	0.0220022	-0.02383572	0	0	0	0
30.13389	0.0220022	-0.02261337	0	0.07378072	0	2.226707
30.15046	0.0220022	-0.02261337	0	0	0	-2.226707
30.16703	0.0220022	-0.02261337	0	0	0	0
30.1836	0.0220022	-0.02261337	0	0	0	0
30.20029	0.0220022	-0.02261337	0	0	0	0
30.21673	0.0220022	-0.02261337	0	0	0	0
30.2333	0.0220022	-0.02261337	0	0	0	0
30.25221	0.0220022	-0.02261337	0	0	0	0
30.26878	0.0220022	-0.02261337	0	0	0	0
30.28535	0.0220022	-0.02261337	0	0	0	0
30.30191	0.0220022	-0.02261337	0	0	0	0
30.31848	0.02322454	-0.02139103	0.07378072	0.07378095	2.226707	2.226713
30.34566	0.02322454	-0.02139103	0	0	-1.686534	-1.686539
30.3624	0.02322454	-0.02139103	0	0	0	0
30.3788	0.02322454	-0.02139103	0	0	0	0
30.39541	0.02322454	-0.02139103	0	0	0	0
30.41504	0.02322454	-0.02139103	0	0	0	0
30.43161	0.02322454	-0.02139103	0	0	0	0
30.44818	0.02322454	-0.02139103	0	0	0	0
30.46474	0.02322454	-0.02139103	0	0	0	0
30.4815	0.02322454	-0.02139103	0	0	0	0
30.50082	0.02322454	-0.02139103	0	0	0	0
30.51739	0.02322454	-0.02139103	0	0	0	0
30.53395	0.02322454	-0.02139103	0	0	0	0
30.55055	0.02322454	-0.02139103	0	0	0	0
30.57121	0.02322454	-0.02139103	0	0	0	0
30.59013	0.02322454	-0.02139103	0	0	0	0
30.6067	0.02322454	-0.02139103	0	0	0	0
30.62327	0.02322454	-0.02139103	0	0	0	0
30.63984	0.02322454	-0.02139103	0	0	0	0
30.6564	0.02322454	-0.02139103	0	0	0	0
30.67312	0.02322454	-0.02139103	0	0	0	0
30.68963	0.02322454	-0.02139103	0	0	0	0
30.7061	0.02322454	-0.02139103	0	0	0	0
30.72417	0.02322454	-0.02139103	0	0	0	0
30.74074	0.02322454	-0.02139103	0	0	0	0
30.7573	0.02322454	-0.02139103	0	0	0	0
30.77419	0.02322454	-0.02139103	0	0	0	0
30.7907	0.02322454	-0.02139103	0	0	0	0
30.807	0.02322454	-0.02139103	0	0	0	0
30.82372	0.02322454	-0.02139103	0	0	0	0
30.84014	0.02322454	-0.02139103	0	0	0	0
30.8567	0.02322454	-0.02139103	0	0	0	0
30.87747	0.02322454	-0.02139103	0	0	0	0
30.89404	0.02322454	-0.02139103	0	0	0	0
30.91061	0.02322454	-0.02139103	0	0	0	0
30.92717	0.02322454	-0.02139103	0	0	0	0
30.94374	0.02322454	-0.02139103	0	0	0	0
30.9603	0.02322454	-0.02139103	0	0	0	0
31.02708	0.02322454	-0.02139103	0	0	0	0
31.04562	0.02322454	-0.02139103	0	0	0	0
31.06243	0.02322454	-0.02139103	0	0	0	0
31.07876	0.02322454	-0.02139103	0	0	0	0
31.09533	0.02322454	-0.02139103	0	0	0	0
31.11189	0.02322454	-0.02139103	0	0	0	0
31.12846	0.02322454	-0.02139103	0	0	0	0
31.14503	0.02322454	-0.02139103	0	0	0	0
31.16159	0.02322454	-0.02139103	0	0	0	0
31.17816	0.02322454	-0.02139103	0	0	0	0
31.19473	0.02322454	-0.02139103	0	0	0	0
31.21307	0.02322454	-0.02139103	0	0	0	0
31.22963	0.02322454	-0.02139103	0	0	0	0
31.2462	0.02322454	-0.02139103	0	0	0	0
31.26529	0.02322454	-0.02139103	0	0	0	0
31.28256	0.02322454	-0.02139103	0	0	0	0
31.29843	0.02322454	-0.02139103	0	0	0	0
31.31509	0.02322454	-0.02139103	0	0	0	0
31.33162	0.02322454	-0.02139103	0	0	0	0
31.34813	0.02322454	-0.02139103	0	0	0	0
31.36883	0.02322454	-0.02139103	0	0	0	0
31.3854	0.02322454	-0.02139103	0	0	0	0
31.40197	0.02322454	-0.02139103	0	0	0	0
31.41854	0.02322454	-0.02139103	0	0	0	0
31.43519	0.02322454	-0.02139103	0	0	0	0
31.45167	0.02322454	-0.02139103	0	0	0	0
31.46824	0.02322454	-0.02139103	0	0	0	0
31.4848	0.02322454	-0.02139103	0	0	0	0
31.50137	0.02322454	-0.02139103	0	0	0	0
31.52049	0.02322454	-0.02139103	0	0	0	0
31.53726	0.02322454	-0.02139103	0	0	0	0
31.55363	0.02322454	-0.02139103	0	0	0	0
31.57028	0.02322454	-0.02139103	0	0	0	0
31.5868	0.02322454	-0.02139103	0	0	0	0
31.60333	0.02322454	-0.02139103	0	0	0	0
31.62031	0.02322454	-0.02139103	0	0	0	0
31.63682	0.02322454	-0.02139103	0	0	0	0
31.65303	0.02322454	-0.02139103	0	0	0	0
31.6762	0.02322454	-0.02139103	0	0	0	0
31.69287	0.02322454	-0.02139103	0	0	0	0
31.70933	0.02322454	-0.02139103	0	0	0	0
31.7259	0.02322454	-0.02139103	0	0	0	0
31.74247	0.02322454	-0.02139103	0	0	0	0
31.75904	0.02322454	-0.02139103	0	0	0	0
31.77594	0.02322454	-0.02139103	0	0	0	0
31.79217	0.02322454	-0.02139103	0	0	0	0
31.80873	0.02322454	-0.02139103	0	0	0	0
31.8273	0.02322454	-0.02139103	0	0	0	0
31.84398	0.02322454	-0.02139103	0	0	0	0
31.86044	0.02322454	-0.02139103	0	0	0	0
31.87701	0.02322454	-0.02139103	0	0	0	0
31.9334	0.02322454	-0.02139103	0	0	0	0
31.95056	0.02322454	-0.02139103	0	0	0	0
31.96653	0.02322454	-0.02139103	0	0	0	0
31.98501	0.02322454	-0.02139103	0	0	0	0
32.00159	0.02322454	-0.02139103	0	0	0	0
32.01815	0.02322454	-0.02139103	0	0	0	0
32.03472	0.02322454	-0.02139103	0	0	0	0
32.05128	0.02322454	-0.02139103	0	0	0	0
32.06785	0.02322454	-0.02139103	0	0	0	0
32.08442	0.02322454	-0.02139103	0	0	0	0
32.10099	0.02322454	-0.02139103	0	0	0	0
32.11768	0.02322454	-0.02139103	0	0	0	0
32.1342	0.02322454	-0.02139103	0	0	0	0
32.1526	0.02322454	-0.02139103	0	0	0	0
32.16916	0.02322454	-0.02139103	0	0	0	0
32.18573	0.02322454	-0.02139103	0	0	0	0
32.20351	0.02322454	-0.02139103	0	0	0	0
32.22007	0.02322454	-0.02139103	0	0	0	0
32.23674	0.02322454	-0.02139103	0	0	0	0
32.25321	0.02322454	-0.02139103	0	0	0	0
32.27027	0.02322454	-0.02139103	0	0	0	0
32.28634	0.02322454	-0.02139103	0	0	0	0
32.3064	0.02322454	-0.02139103	0	0	0	0
32.32297	0.02322454	-0.02139103	0	0	0	0
32.33981	0.02322454	-0.02139103	0	0	0	0
32.35633	0.02322454	-0.02139103	0	0	0	0
32.37267	0.02322454	-0.02139103	0	0	0	0
32.38923	0.02322454	-0.02139103	0	0	0	0
32.4058	0.02322454	-0.02139103	0	0	0	0
32.42245	0.02322454	-0.02139103	0	0	0	0
32.43893	0.02322454	-0.02139103	0	0	0	0
32.45751	0.02322454	-0.02139103	0	0	0	0
32.47408	0.02322454	-0.02139103	0	0	0	0
32.49092	0.02322454	-0.02139103	0	0	0	0
32.50743	0.02444689	-0.01894634	0.07401956	0.148039	2.218843	4.437683
32.52378	0.03178096	-0.00794524	0.448782	0.6731728	11.40621	15.98289
32.54034	0.03789268	0.004278206	0.3689043	0.7378086	-2.427201	1.964054
32.55691	0.0440044	0.01650165	0.3689043	0.7378087	0	3.597743E-06
32.57349	0.04889378	0.02750275	0.2948516	0.6634166	-2.233887	-2.244124
32.59004	0.05622784	0.05072729	0.4431955	1.403452	4.477544	22.33688
32.61029	0.06478426	0.07395184	0.4226517	1.147197	-0.5583641	-6.964813
32.62704	0.09534287	0.1497372	1.823943	4.523378	37.87402	91.25121
32.64354	0.1087887	0.1815182	0.814967	1.926287	-30.34266	-78.10161
32.65998	0.1393473	0.2450801	1.858213	3.865083	31.66751	58.85174
32.67699	0.1625718	0.2976409	1.365981	3.09143	-14.71667	-23.13051
32.69355	0.184574	0.3379782	1.328055	2.434767	-1.129776	-19.56138
32.71012	0.1919081	0.3526464	0.4426861	0.8853705	-26.72048	-46.76089
32.72669	0.1955751	0.3587581	0.2213422	0.3689036	-6.680174	-15.587
32.74326	0.1980198	0.3648698	0.1475614	0.3689054	-2.226707	5.396615E-05
32.76282	0.1992421	0.3673145	0.06248629	0.1249726	-2.354761	-6.751719
32.77938	0.2016868	0.3722039	0.1475624	0.2951247	2.354786	4.709572
32.79615	0.2016868	0.3734262	-8.889963E-07	0.07292259	-4.427472	-6.666928
32.81252	0.2016868	0.3746486	9.103356E-07	0.07467483	5.43102E-05	0.05288865
32.83447	0.2016868	0.3746486	0	0	-2.375699E-05	-1.948786
32.85117	0.2016868	0.3746486	0	0	0	0
32.8676	0.2016868	0.3746486	0	0	0	0
32.88972	0.2016868	0.3734262	-6.733753E-07	-0.05523697	-1.746352E-05	-1.432533
32.92368	0.2016868	0.3734262	0	0	1.20058E-05	0.9848358
32.94025	0.2016868	0.3734262	0	0	0	0
32.95682	0.2016868	0.3734262	0	0	0	0
32.97338	0.2016868	0.3734262	0	0	0	0
32.98995	0.2016868	0.3734262	0	0	0	0
33.00652	0.2016868	0.3734262	0	0	0	0
33.0233	0.2016868	0.3722039	8.877841E-07	-0.07282315	2.66187E-05	-2.183479
33.03965	0.2016868	0.3709816	0	-0.07476194	-2.679338E-05	-0.0585128
33.05634	0.2016868	0.3685369	-8.928571E-07	-0.1464839	-2.702426E-05	-2.170822
33.0774	0.1992422	0.3648698	-0.116076	-0.174115	-3.074817	-0.731945
33.09766	0.1955751	0.3526464	-0.1810004	-0.6033336	-1.571228	-10.38747
33.1152	0.188241	0.3343112	-0.4181344	-1.045337	-6.273415	-11.69327
33.13177	0.184574	0.3208654	-0.2213422	-0.811588	5.769814	6.85337
33.14834	0.180907	0.3147537	-0.2213422	-0.3689036	0	13.36024
33.16491	0.1760176	0.3013079	-0.2951229	-0.8115898	-2.226707	-13.36029
33.18147	0.1699059	0.2866398	-0.3689054	-0.8853705	-2.226761	-2.226707
33.19804	0.1564601	0.2524141	-0.8115898	-2.065864	-13.36024	-35.62736
33.21461	0.1479037	0.2255225	-0.516466	-1.62318	8.906855	13.36024
33.23533	0.141792	0.2120768	-0.2949463	-0.6488819	5.94067	26.12852
33.25201	0.1234568	0.16685	-1.099373	-2.711785	-21.50915	-55.15889
33.26846	0.1197898	0.1570713	-0.2228297	-0.5942145	26.45413	63.90842
33.28503	0.1149004	0.1399584	-0.2951243	-1.032932	-2.189165	-13.28487
33.30202	0.110011	0.1265126	-0.2878322	-0.7915415	0.2173227	7.194071
33.31853	0.106344	0.1142892	-0.2221107	-0.7403653	1.962021	1.527793
33.33473	0.1014546	0.09962108	-0.3017224	-0.90517	-2.433505	-5.037612
33.35155	0.0990099	0.09228701	-0.1453864	-0.4361574	4.734582	14.20388
33.36806	0.09534287	0.08495294	-0.222058	-0.4441169	-2.300446	-0.2388146
33.39034	0.09412052	0.07761887	-0.05485904	-0.3291529	4.309754	2.963336
33.40709	0.09167584	0.07028481	-0.1460149	-0.4380451	-2.335871	-2.790367
33.42348	0.08923115	0.06539542	-0.1491416	-0.2982836	-0.09436297	4.218011
33.44011	0.08923115	0.0617284	0	-0.2204286	4.515658	2.357268
33.45661	0.08678646	0.05683902	-0.148176	-0.2963516	-4.471961	-2.291362
33.47364	0.08556411	0.05317198	-0.07178085	-0.2153432	2.278591	2.416187
33.48975	0.08311943	0.0507273	-0.1517905	-0.1517905	-2.414695	1.918025
33.50631	0.08189708	0.04583792	-0.07378118	-0.2951236	2.387585	-4.386913
33.52288	0.08067474	0.04217089	-0.07378072	-0.2213424	1.37164E-05	2.22672
33.54867	0.07823005	0.03605916	-0.09478795	-0.2369696	-0.49594	-0.3689278
33.56524	0.07456302	0.02628041	-0.2213422	-0.5902469	-2.987701	-8.340196
33.58181	0.07334068	0.02261337	-0.07378072	-0.2213425	4.453413	11.13356
33.59937	0.07334067	0.02016868	-4.241314E-07	-0.1391663	2.161496	2.407465
33.61594	0.07211833	0.01650165	-0.07378072	-0.2213426	-2.161496	-2.407468
33.63251	0.06967364	0.01405696	-0.1475619	-0.1475617	-2.22672	2.226714
33.64907	0.06967364	0.01038993	0	-0.2213426	4.453427	-2.226714
33.66564	0.06845129	0.007945239	-0.07378118	-0.1475617	-2.22672	2.226712
33.68221	0.06722894	0.00550055	-0.07378072	-0.1475617	1.37164E-05	1.798872E-06
33.70274	0.0660066	0.003055861	-0.05954835	-0.1190969	0.3836827	0.7673652
33.7193	0.0660066	0.0006111722	0	-0.1475617	1.605331	-0.7673664
33.73632	0.06478426	-0.0006111722	-0.07182912	-0.07182924	-2.138752	2.254977
33.75243	0.06356191	-0.001833517	-0.07585976	-0.07585944	-0.1216591	-0.1216456
33.769	0.06356191	-0.003055861	0	-0.07378084	2.321254	0.06360366
33.78557	0.06233957	-0.004278206	-0.0737805	-0.07378088	-2.2267	-1.124295E-06
33.80214	0.06233957	-0.00550055	0	-0.07378086	2.2267	4.497179E-07
33.8187	0.06111722	-0.00794524	-0.07378118	-0.1475617	-2.22672	-2.226711
33.83527	0.06111723	-0.009167584	4.497179E-07	-0.07378083	2.226734	2.226712
33.85786	0.05867254	-0.01038993	-0.1082353	-0.05411762	-2.764357	0.5022013
33.87442	0.05867254	-0.01283462	0	-0.1475617	2.764345	-2.386574
33.89099	0.05745019	-0.01283462	-0.07378095	0	-2.226713	4.45342
33.90794	0.05745019	-0.01283462	0	0	2.20137	0
33.92412	0.05745019	-0.01405696	0	-0.07553753	0	-2.279989
33.94069	0.05745019	-0.01405696	0	0	0	2.306547
33.95726	0.05745019	-0.01405696	0	0	0	0
33.97382	0.05745019	-0.01405696	0	0	0	0
33.99039	0.05622785	-0.01527931	-0.07378072	-0.07378089	-2.226707	-2.226712
34.01858	0.05622785	-0.01527931	0	0	1.648583	1.648587
34.03514	0.05622785	-0.01527931	0	0	0	0
34.05204	0.05622785	-0.01527931	0	0	0	0
34.06828	0.05622785	-0.01650165	0	-0.07527136	0	-2.271694
34.08485	0.05622785	-0.01650165	0	0	0	2.294411
34.10141	0.05622785	-0.01650165	0	0	0	0
34.11798	0.05622785	-0.01650165	0	0	0	0
34.1367	0.0550055	-0.01650165	-0.06528742	0	-1.850038	0
34.15849	0.0550055	-0.01772399	0	-0.05609772	1.611554	-1.384716
34.17506	0.05378316	-0.01894634	-0.07378095	-0.07378095	-1.923544	-0.4610196
34.19163	0.05378316	-0.01894634	0	0	2.226713	2.226713
34.20819	0.05378316	-0.01894634	0	0	0	0
34.22476	0.05378316	-0.02016868	2.24859E-07	-0.07378083	6.786257E-06	-2.22671
34.24133	0.05378316	-0.02016868	0	0	-6.786257E-06	2.22671
34.25821	0.05378316	-0.02016868	0	0	0	0
34.27471	0.05378316	-0.02016868	0	0	0	0
34.29103	0.05378316	-0.02016868	0	0	0	0
34.31104	0.05378316	-0.02016868	0	0	0	0
34.32761	0.05378316	-0.02016868	0	0	0	0
34.34476	0.05378316	-0.02016868	0	0	0	0
34.36078	0.05378316	-0.02016868	0	0	0	0
34.37731	0.05378316	-0.02016868	0	0	0	0
34.39388	0.05378316	-0.02016868	0	0	0	0
34.41045	0.05378316	-0.02016868	0	0	0	0
34.42701	0.05378316	-0.02016868	0	0	0	0
34.44358	0.05378316	-0.02016868	0	0	0	0
34.46384	0.05378316	-0.02016868	0	0	0	0
34.48041	0.05378316	-0.02016868	0	0	0	0
34.49697	0.05378316	-0.02016868	0	0	0	0
34.51354	0.05378316	-0.02016868	0	0	0	0
34.53011	0.05378316	-0.02016868	0	0	0	0
34.54689	0.05378316	-0.02016868	0	0	0	0
34.56341	0.05378316	-0.02016868	0	0	0	0
34.57993	0.05378316	-0.02016868	0	0	0	0
34.59644	0.05378316	-0.02016868	0	0	0	0
34.61671	0.05378316	-0.02016868	0	0	0	0
34.63327	0.05378316	-0.02016868	0	0	0	0
34.65075	0.05378316	-0.02016868	0	0	0	0
34.66731	0.05378316	-0.02016868	0	0	0	0
34.68388	0.05378316	-0.02016868	0	0	0	0
34.70045	0.05256081	-0.02016868	-0.07378118	0	-2.22672	0
34.71702	0.05256081	-0.017724	2.247555E-07	0.1474937	2.226214	4.450346
34.73358	0.05133847	-0.01650165	-0.07381494	0.07381494	-2.227746	-2.223631
34.75015	0.05011613	-0.01650165	-0.07378072	0	0.001033015	-2.228252
34.77185	0.04889378	-0.01527931	-0.05632477	0.05632456	0.4561376	1.471805
34.78842	0.04767143	-0.01405696	-0.07378072	0.07378083	-0.4561376	0.4561461
34.80508	0.04767144	-0.01161227	2.23572E-07	0.1467171	2.220323	2.194904
34.82159	0.04644909	-0.01161227	-0.07405377	0	-2.232641	-4.423348
34.83812	0.04644909	-0.01038993	0	0.07393405	2.241398	2.237775
34.85468	0.04522675	-0.01038993	-0.07379794	5.622769E-08	-2.229793	-2.233904
34.87125	0.04522675	-0.01038993	0	0	2.227483	-1.69715E-06
34.88782	0.04522675	-0.01038993	0	0	0	0
34.90759	0.04522675	-0.01038993	0	0	0	0
34.92823	0.04522675	-0.01038993	0	0	0	0
34.94479	0.04522675	-0.01038993	0	0	0	0
34.96238	0.04522675	-0.01038993	0	0	0	0
34.97895	0.04522675	-0.009167585	2.24859E-07	0.07378078	6.583139E-06	2.160061
34.99552	0.04522675	-0.009167585	0	0	-6.786257E-06	-2.226708
35.01208	0.04522675	-0.009167585	0	0	0	0
35.02865	0.04522675	-0.009167585	0	0	0	0
35.04522	0.04522675	-0.009167585	0	0	0	0
35.06179	0.04522675	-0.009167585	0	0	0	0
35.07876	0.04522675	-0.009167585	0	0	0	0
35.09882	0.04522675	-0.009167585	0	0	0	0
35.11538	0.04522675	-0.009167585	0	0	0	0
35.13195	0.04522675	-0.009167585	0	0	0	0
35.14852	0.04522675	-0.009167585	0	0	0	0
35.16533	0.04522675	-0.009167585	0	0	0	0
35.18165	0.04522675	-0.009167585	0	0	0	0
35.19822	0.04522675	-0.009167585	0	0	0	0
35.21479	0.04522675	-0.009167585	0	0	0	0
35.23871	0.04522675	-0.009167585	0	0	0	0
35.25939	0.04522675	-0.009167585	0	0	0	0
35.27596	0.04522675	-0.009167585	0	0	0	0
35.29253	0.04522675	-0.009167585	0	0	0	0
35.30909	0.04522675	-0.009167585	0	0	0	0
35.32566	0.04522675	-0.009167585	0	0	0	0
35.34222	0.04522675	-0.009167585	0	0	0	0
35.35879	0.04522675	-0.009167585	0	0	0	0
35.37536	0.04522675	-0.009167585	0	0	0	0
35.39199	0.04522675	-0.009167585	0	0	0	0
35.42556	0.04278206	-0.007945239	-0.07282515	0.03641257	-1.45077	0.7253848
35.44743	0.03911502	-0.006722894	-0.1676183	0.05587276	-1.709629	0.3509716
35.47448	0.03911502	-0.006722894	0	0	3.426398	-1.142133
35.49104	0.03911502	-0.006722894	0	0	0	0
35.50761	0.03911502	-0.006722894	0	0	0	0
35.52507	0.03911502	-0.006722894	0	0	0	0
35.54163	0.03911502	-0.006722894	0	0	0	0
35.5582	0.03911502	-0.006722894	0	0	0	0
35.57899	0.03911502	-0.006722894	0	0	0	0
35.59556	0.03911502	-0.006722894	0	0	0	0
35.61213	0.03911502	-0.006722894	0	0	0	0
35.62869	0.03911502	-0.006722894	0	0	0	0
35.64526	0.03911502	-0.006722894	0	0	0	0
35.66266	0.03911502	-0.006722894	0	0	0	0
35.67923	0.03911502	-0.006722894	0	0	0	0
35.69579	0.03911502	-0.006722894	0	0	0	0
35.71236	0.03911502	-0.006722894	0	0	0	0
35.73204	0.03911502	-0.006722894	0	0	0	0
35.74861	0.03911502	-0.006722894	0	0	0	0
35.76518	0.03911502	-0.006722894	0	0	0	0
35.78417	0.03911502	-0.006722894	0	0	0	0
35.8008	0.03911502	-0.006722894	0	0	0	0
35.81831	0.03911502	-0.006722894	0	0	0	0
35.83488	0.03911502	-0.006722894	0	0	0	0
35.85144	0.03911502	-0.006722894	0	0	0	0
35.86801	0.03911502	-0.006722894	0	0	0	0
35.88816	0.03911502	-0.006722894	0	0	0	0
35.90473	0.03911502	-0.006722894	0	0	0	0
35.9213	0.03911502	-0.006722894	0	0	0	0
35.93786	0.03911502	-0.006722894	0	0	0	0
35.95443	0.03911502	-0.006722894	0	0	0	0
35.971	0.03911502	-0.006722894	0	0	0	0
35.98756	0.03911502	-0.006722894	0	0	0	0
36.00444	0.03911502	-0.006722894	0	0	0	0
36.02094	0.03911502	-0.006722894	0	0	0	0
36.0404	0.03911502	-0.006722894	0	0	0	0
36.05696	0.03911502	-0.006722894	0	0	0	0
36.07353	0.03911502	-0.006722894	0	0	0	0
36.0901	0.03911502	-0.006722894	0	0	0	0
36.10667	0.03911502	-0.006722894	0	0	0	0
36.12323	0.03911502	-0.006722894	0	0	0	0
36.14056	0.03911502	-0.006722894	0	0	0	0
36.15712	0.03911502	-0.006722894	0	0	0	0
36.17408	0.03911502	-0.006722894	0	0	0	0
36.19355	0.03911502	-0.006722894	0	0	0	0
36.21011	0.03911502	-0.006722894	0	0	0	0
36.22668	0.03911502	-0.006722894	0	0	0	0
36.24325	0.03911502	-0.006722894	0	0	0	0
36.25982	0.03911502	-0.006722894	0	0	0	0
36.27664	0.03911502	-0.006722894	0	0	0	0
36.29295	0.03911502	-0.006722894	0	0	0	0
36.30967	0.03911502	-0.006722894	0	0	0	0
36.32608	0.03911502	-0.006722894	0	0	0	0
36.35213	0.03911502	-0.006722894	0	0	0	0
36.36871	0.03911502	-0.006722894	0	0	0	0
36.38527	0.03911502	-0.006722894	0	0	0	0
36.40183	0.03911502	-0.006722894	0	0	0	0
36.4184	0.03911502	-0.006722894	0	0	0	0
36.43497	0.03911502	-0.006722894	0	0	0	0
36.45153	0.03911502	-0.006722894	0	0	0	0
36.4681	0.03911502	-0.006722894	0	0	0	0
36.48606	0.03911502	-0.006722894	0	0	0	0
36.50953	0.03911502	-0.006722894	0	0	0	0
36.52631	0.03911502	-0.006722894	0	0	0	0
36.54282	0.03911502	-0.006722894	0	0	0	0
36.55934	0.03911502	-0.006722894	0	0	0	0
36.5775	0.03911502	-0.006722894	0	0	0	0
36.59436	0.03911502	-0.006722894	0	0	0	0
36.61103	0.03911502	-0.006722894	0	0	0	0
36.6272	0.03911502	-0.006722894	0	0	0	0
36.64377	0.03911502	-0.006722894	0	0	0	0
36.6637	0.03911502	-0.006722894	0	0	0	0
36.68027	0.03911502	-0.006722894	0	0	0	0
36.7003	0.03911502	-0.006722894	0	0	0	0
36.71687	0.03911502	-0.006722894	0	0	0	0
36.73343	0.03911502	-0.006722894	0	0	0	0
36.75	0.03911502	-0.006722894	0	0	0	0
36.76664	0.03911502	-0.006722894	0	0	0	0
36.78313	0.03911502	-0.006722894	0	0	0	0
36.7997	0.03911502	-0.006722894	0	0	0	0
36.821	0.03911502	-0.006722894	0	0	0	0
36.83757	0.03911502	-0.006722894	0	0	0	0
36.85413	0.03911502	-0.006722894	0	0	0	0
36.87073	0.03911502	-0.006722894	0	0	0	0
36.88726	0.03911502	-0.006722894	0	0	0	0
36.90383	0.03911502	-0.006722894	0	0	0	0
36.92145	0.03911502	-0.006722894	0	0	0	0
36.93802	0.03911502	-0.006722894	0	0	0	0
36.95459	0.03911502	-0.006722894	0	0	0	0
36.97432	0.03911502	-0.006722894	0	0	0	0
36.99088	0.03911502	-0.006722894	0	0	0	0
37.00745	0.03911502	-0.006722894	0	0	0	0
37.02402	0.03911502	-0.006722894	0	0	0	0
37.04085	0.03911502	-0.006722894	0	0	0	0
37.05738	0.03911502	-0.006722894	0	0	0	0
37.07372	0.03911502	-0.006722894	0	0	0	0
37.09029	0.03911502	-0.006722894	0	0	0	0
37.1069	0.03911502	-0.006722894	0	0	0	0
37.12725	0.03911502	-0.006722894	0	0	0	0
37.14392	0.03911502	-0.006722894	0	0	0	0
37.16039	0.03911502	-0.006722894	0	0	0	0
37.17696	0.03911502	-0.006722894	0	0	0	0
37.19352	0.03911502	-0.006722894	0	0	0	0
37.21009	0.03911502	-0.006722894	0	0	0	0
37.22665	0.03911502	-0.006722894	0	0	0	0
37.24322	0.03911502	-0.006722894	0	0	0	0
37.25979	0.03911502	-0.006722894	0	0	0	0
37.28028	0.03911502	-0.006722894	0	0	0	0
37.29685	0.03911502	-0.006722894	0	0	0	0
37.31342	0.03911502	-0.006722894	0	0	0	0
37.32999	0.03911502	-0.006722894	0	0	0	0
37.34659	0.03911502	-0.006722894	0	0	0	0
37.36312	0.03911502	-0.006722894	0	0	0	0
37.37969	0.03911502	-0.006722894	0	0	0	0
37.39626	0.03911502	-0.006722894	0	0	0	0
37.41313	0.03911502	-0.00550055	0	0.07242997	0	2.165745
37.43404	0.03911502	-0.00550055	0	0	0	-1.916725
37.45065	0.03911502	-0.004278206	0	0.07361134	0	1.962051
37.46718	0.03911502	-0.004278206	0	0	0	-2.221595
37.48375	0.03911502	-0.003055861	0	0.07378086	0	2.229277
37.50039	0.04033737	-0.003055861	0.07344273	0	2.211414	-2.221596
37.51696	0.04155971	-0.003055861	0.07378072	1.405369E-08	0.01017707	4.231667E-07
37.53421	0.0440044	-0.001833517	0.1417205	0.07086028	2.009026	2.095386
37.55022	0.04522675	-0.0006111722	0.07634755	0.07634746	-1.965494	0.1649767
37.56666	0.04644909	0.0006111722	0.07434586	0.07434577	-0.0616822	-0.06168243
37.59212	0.04767144	0.001833517	0.04801179	0.04801173	-0.6284887	-0.6284878
37.61198	0.04767144	0.001833517	0	0	-1.059428	-1.059427
37.62854	0.04767144	0.001833517	0	0	0	0
37.64511	0.04767144	0.001833517	0	0	0	0
37.66167	0.04767144	0.001833517	0	0	0	0
37.67824	0.04767144	0.001833517	0	0	0	0
37.69482	0.04767144	0.001833517	0	0	0	0
37.71137	0.04767144	0.001833517	0	0	0	0
37.72794	0.04522675	0.0006111722	-0.1475619	-0.07378086	-4.454966	-2.22748
37.74888	0.04033737	-0.0006111722	-0.2334646	-0.05836617	-2.290133	0.4109499
37.76545	0.02811392	-0.00550055	-0.7378086	-0.2951234	-13.44562	-6.311858
37.78202	0.0220022	-0.009167584	-0.3689044	-0.2213426	11.13355	2.22671
37.83868	0.01466813	-0.01405696	-0.1294232	-0.08628214	3.270058	1.844218
37.85525	0.002444689	-0.02505806	-0.7378086	-0.6640278	-8.307356	-7.888975
37.87194	0.002444689	-0.02505806	0	0	22.18538	19.96684
37.88839	0.002444689	-0.02505806	0	0	0	0
37.91483	0.002444689	-0.02505806	0	0	0	0
37.9314	0.002444689	-0.02505806	0	0	0	0
37.94797	0.002444689	-0.02505806	0	0	0	0
37.96453	0	-0.02505806	-0.1475617	0	-4.453422	0
37.9811	-0.009778756	-0.01283462	-0.5902469	0.7378086	-13.36026	22.26711
37.99767	-0.02689158	0.01038993	-1.032932	1.401836	-13.36026	20.04039
38.01424	-0.05989488	0.05439433	-1.992083	2.656111	-28.94725	37.85409
38.03106	-0.09656522	0.09962108	-2.180292	2.689027	-5.637315	0.9859247
38.04757	-0.1185674	0.1338467	-1.33235	2.072545	25.43864	-18.49474
38.06856	-0.1307909	0.1546266	-0.5822829	0.9898805	19.99854	-28.86636
38.08513	-0.1332355	0.1619606	-0.1475614	0.4426852	11.57421	-14.56875
38.1017	-0.1332355	0.1619606	0	0	4.453413	-13.36027
38.11826	-0.1332355	0.1619606	0	0	0	0
38.13483	-0.1332356	0.163183	-8.994359E-07	0.07378072	-2.714503E-05	2.226707
38.15166	-0.1332356	0.1656277	0	0.1452875	2.693417E-05	2.141316
38.16796	-0.1332355	0.1692947	9.137427E-07	0.224862	2.757681E-05	2.401563
38.18467	-0.1332355	0.1790735	0	0.5855289	-2.768198E-05	10.92646
38.20118	-0.1344579	0.1974086	-0.07403643	1.110548	-2.229291	15.80872
38.22253	-0.1393473	0.2218555	-0.2290024	1.145008	-4.093038	0.9101637
38.2391	-0.149126	0.2499695	-0.5901099	1.696569	-9.522399	14.54465
38.25573	-0.1540154	0.2573035	-0.293974	0.4409601	8.918919	-37.81598
38.27224	-0.1552377	0.2609705	-0.07403553	0.2221075	6.636228	-6.603464
38.2888	-0.1564601	0.2621929	-0.07383172	0.07383172	0.00616379	-4.484264
38.30536	-0.1564601	0.2621929	0	0	2.229016	-2.229016
38.32193	-0.1564601	0.2621929	0	0	0	0
38.33879	-0.1564601	0.2621929	0	0	0	0
38.35506	-0.1564601	0.2621929	0	0	0	0
38.37624	-0.1564601	0.2621929	0	0	0	0
38.39283	-0.1564601	0.2621929	0	0	0	0
38.40938	-0.1564601	0.2634152	-9.000576E-07	0.07383353	-2.716067E-05	2.228044
38.42595	-0.1564601	0.2573035	8.994359E-07	-0.3689054	5.432759E-05	-13.3665
38.44252	-0.1527931	0.2084097	0.2213422	-2.951234	6.680093	-77.93484
38.45908	-0.1466813	0.1106222	0.3689054	-5.902469	4.453468	-89.06843
38.47565	-0.1283462	-0.00794524	1.106712	-7.156743	22.26704	-37.85408
38.4924	-0.106344	-0.1216233	1.313239	-6.785067	6.198043	11.15428
38.50892	-0.08923115	-0.2132991	1.036033	-5.550178	-8.331561	37.1152
38.53034	-0.0770077	-0.2915292	0.5706683	-3.652278	-12.26673	50.02745
38.55049	-0.07578536	-0.3159761	0.06066446	-1.213291	-12.26892	58.67358
38.56706	-0.07578536	-0.3196431	0	-0.221344	-1.652241	27.0164
38.58363	-0.0770077	-0.3233101	-0.07378072	-0.2213404	-2.226707	0.0001088317
38.60189	-0.0770077	-0.3257548	0	-0.1338486	2.118188	2.511821
38.61846	-0.0770077	-0.3281995	0	-0.1475614	0	-0.3936846
38.63503	-0.0770077	-0.3281995	0	0	0	4.453413
38.65159	-0.0770077	-0.3318665	0	-0.2213422	0	-6.68012
38.66816	-0.0770077	-0.3355336	0	-0.2213422	0	0
38.68957	-0.0770077	-0.3453123	0	-0.4566979	0	-6.196976
38.70614	-0.07578535	-0.3599805	0.07378118	-0.8853705	1.942677	-11.28706
38.72307	-0.07578536	-0.3624251	-4.400913E-07	-0.1444027	-2.202643	22.12052
38.74057	-0.07456301	-0.3660921	0.06982603	-0.2094751	2.02776	-1.889701
38.75714	-0.07456301	-0.3770933	0	-0.6640301	-2.049314	-13.34067
38.77371	-0.07334067	-0.3770933	0.07378072	0	2.226707	20.04047
38.79028	-0.07334067	-0.3770933	0	0	-2.226707	0
38.80684	-0.07334067	-0.3770933	0	0	0	0
38.83098	-0.07334067	-0.3770933	0	0	0	0
38.85509	-0.07334067	-0.3770933	0	0	0	0
38.87877	-0.07334067	-0.3770933	0	0	0	0
38.89533	-0.07334067	-0.3770933	0	0	0	0
38.9119	-0.07334067	-0.3783156	0	-0.07377893	0	-2.226652
38.92847	-0.07211833	-0.3770933	0.07378072	0.07377893	2.226707	4.453305
38.94592	-0.06967364	-0.3734262	0.1400484	0.2100736	1.947715	4.005924
38.96249	-0.06722895	-0.3563134	0.1475614	1.032932	0.2208216	24.18515
38.98077	-0.06356192	-0.3416453	0.2005614	0.8022442	1.520757	-6.619243
38.9977	-0.06111722	-0.3245324	0.1444357	1.011051	-1.594043	5.930373
39.02678	-0.05867254	-0.3025303	0.08408034	0.7567219	-1.312033	-5.528712
39.04334	-0.05622785	-0.234079	0.1475617	4.13173	1.390827	73.94383
39.05991	-0.05622785	-0.198631	0	2.139646	-4.45342	-60.12122
39.07666	-0.05745019	-0.1692947	-0.07295758	1.750985	-2.189512	-11.66401
39.09323	-0.05745019	-0.1460702	0	1.401837	2.189512	-10.4782
39.1098	-0.05622785	-0.1265127	0.0737805	1.180493	2.2267	-6.68015
39.12639	-0.05378316	-0.1118445	0.1473247	0.8839458	2.21778	-8.942617
39.14548	-0.05133847	-0.09717639	0.1280952	0.7685717	-0.5389593	-3.233682
39.16204	-0.04889378	-0.08373059	0.1475617	0.8115898	0.5460107	1.206606
39.18579	-0.04644909	-0.08006356	0.102966	0.1544491	-1.106321	-16.30221
39.20235	-0.04278206	-0.07028481	0.2213426	0.5902463	2.936663	10.81117
39.21896	-0.04278206	-0.06906246	0	0.07361168	-6.672452	-15.57413
39.23549	-0.04278206	-0.06661777	0	0.1479025	0	2.2421
39.25206	-0.04155971	-0.06539543	0.07378072	0.07378072	2.229273	-2.239577
39.26862	-0.04033737	-0.06295074	0.07378095	0.1475619	6.745769E-06	2.22672
39.28519	-0.04033737	-0.06050605	0	0.1475617	-2.226713	-6.745769E-06
39.30176	-0.03789268	-0.05561667	0.1475619	0.2951233	4.453427	4.45342
39.31833	-0.03789268	-0.05439433	0	0.07378072	-4.453427	-6.680134
39.34066	-0.03667033	-0.05317198	0.05473688	0.05473705	1.407173	-0.489574
39.35722	-0.03667033	-0.05194964	0	0.07378072	-1.407173	0.489574
39.37407	-0.03667033	-0.05194964	0	0	0	-2.208149
39.39036	-0.03667033	-0.0507273	0	0.07504231	0	2.264781
39.40693	-0.03544799	-0.04950495	0.07378072	0.07378072	2.245579	-0.0383974
39.42349	-0.03544799	-0.04950495	0	0	-2.226707	-2.226707
39.44013	-0.03422565	-0.04706027	0.07347642	0.1469526	2.212937	4.425867
39.45663	-0.0330033	-0.04706026	0.07408779	2.257948E-07	0.01845125	-4.435032
39.47861	-0.0330033	-0.04706026	0	0	-1.925225	-5.867441E-06
39.50041	-0.0330033	-0.04706026	0	0	0	0
39.51698	-0.0330033	-0.04706026	0	0	0	0
39.53355	-0.0330033	-0.04706026	0	0	0	0
39.55021	-0.0330033	-0.04706026	0	0	0	0
39.56672	-0.0330033	-0.04706026	0	0	0	0
39.58324	-0.0330033	-0.04706026	0	0	0	0
39.59981	-0.0330033	-0.04706026	0	0	0	0
39.61638	-0.0330033	-0.04706026	0	0	0	0
39.63295	-0.0330033	-0.04706026	0	0	0	0
39.65474	-0.0330033	-0.04706026	0	0	0	0
39.67131	-0.0330033	-0.04706026	0	0	0	0
39.68787	-0.0330033	-0.04706026	0	0	0	0
39.70444	-0.0330033	-0.04706026	0	0	0	0
39.721	-0.0330033	-0.04583792	2.24859E-07	0.07378095	6.787038E-06	2.22697
39.73757	-0.03178096	-0.04583792	0.07378072	0	2.2267	-2.226713
39.75434	-0.03178096	-0.04461557	0	0.07290778	-2.213455	2.187267
39.77071	-0.03055861	-0.04461557	0.07467505	0	2.253698	-2.200361
39.78727	-0.03055862	-0.04339323	-2.24859E-07	0.07378072	-2.267278	2.240117
39.80864	-0.02933627	-0.04339323	0.05720972	1.74355E-07	1.50817	-1.945005
39.82541	-0.02933627	-0.04094854	-1.11074E-07	0.1457826	-1.500171	3.822746
39.84448	-0.02811392	-0.04094854	0.06409886	0	1.788522	-4.067699
39.86105	-0.02811392	-0.04094854	0	0	-1.798665	0
39.87794	-0.02811392	-0.04094854	0	0	0	0
39.89445	-0.02811392	-0.03972619	2.255862E-07	0.07401956	6.752233E-06	2.215549
39.91096	-0.02811392	-0.03972619	0	0	-6.831011E-06	-2.241398
39.92747	-0.02811392	-0.03972619	0	0	0	0
39.94399	-0.02811392	-0.03972619	0	0	0	0
39.9659	-0.02811392	-0.03972619	0	0	0	0
39.98247	-0.02811392	-0.03972619	0	0	0	0
39.99903	-0.02811392	-0.03972619	0	0	0	0
40.0156	-0.02811392	-0.03972619	0	0	0	0
40.03283	-0.02811392	-0.03972619	0	0	0	0
40.04957	-0.02811392	-0.03972619	0	0	0	0
40.06597	-0.02811392	-0.03972619	0	0	0	0
40.08253	-0.02811392	-0.03972619	0	0	0	0
40.0991	-0.02811392	-0.03972619	0	0	0	0
40.12627	-0.02811392	-0.03972619	0	0	0	0
40.14294	-0.02811392	-0.03972619	0	0	0	0
40.15951	-0.02811392	-0.03972619	0	0	0	0
40.17614	-0.02811392	-0.03972619	0	0	0	0
40.1927	-0.02811392	-0.03972619	0	0	0	0
40.20927	-0.02811392	-0.03972619	0	0	0	0
40.22584	-0.02811392	-0.03972619	0	0	0	0
40.2424	-0.02811392	-0.03972619	0	0	0	0
40.25897	-0.02811392	-0.03972619	0	0	0	0
40.27999	-0.02811392	-0.03972619	0	0	0	0
40.29763	-0.02811392	-0.03972619	0	0	0	0
40.3142	-0.02811392	-0.03972619	0	0	0	0
40.33078	-0.02811392	-0.03972619	0	0	0	0
40.34733	-0.02811392	-0.03972619	0	0	0	0
40.36829	-0.02811392	-0.03972619	0	0	0	0
40.38486	-0.02811392	-0.03972619	0	0	0	0
40.40142	-0.02689158	-0.0397262	0.07378072	-2.24859E-07	2.226707	-6.786257E-06
40.41799	-0.02689158	-0.03850385	-1.124295E-07	0.07378095	-2.22671	2.22672
40.44012	-0.02689158	-0.03850385	0	0	2.905433E-06	-1.906667
40.45686	-0.02566923	-0.03850385	0.07300767	0	1.878167	0
40.47326	-0.02566923	-0.03850385	0	0	-2.203376	0
40.48982	-0.02566923	-0.03850385	0	0	0	0
40.50639	-0.02566923	-0.03728151	0	0.07378095	0	2.226713
40.52296	-0.02566924	-0.03605916	-1.124295E-07	0.07378095	-3.393129E-06	0
40.54346	-0.02444689	-0.03605916	0.05962601	-1.817199E-07	1.608586	-1.990458
40.56002	-0.02322455	-0.03483682	0.07378095	0.07378095	0.3818701	1.990458
40.57659	-0.02322455	-0.03483682	0	0	-2.226713	-2.226713
40.5983	-0.0220022	-0.03361447	0.05630481	0.05630481	1.470995	1.470995
40.61487	-0.0220022	-0.03361447	0	0	-1.470995	-1.470995
40.63144	-0.0220022	-0.03361447	0	0	0	0
40.648	-0.02077986	-0.03361448	0.07378083	-2.24859E-07	2.22671	-6.786257E-06
40.66457	-0.02077985	-0.03239213	1.124295E-07	0.07378118	-2.226707	2.226727
40.68114	-0.01955751	-0.03116979	0.07378072	0.07378061	2.226703	-1.708928E-05
40.69803	-0.01833517	-0.02994744	0.0723482	0.0723482	-0.04280977	-0.04280644
40.71455	-0.01711282	-0.02994744	0.07401945	0	0.05002368	-2.165523
40.73323	-0.01711282	-0.02994744	0	0	-2.10316	0
40.7547	-0.01711282	-0.02994744	0	0	0	0
40.77159	-0.01589048	-0.0287251	0.07238089	0.072381	1.886855	1.886858
40.78783	-0.01466813	-0.02872509	0.07523607	1.146469E-07	0.08616956	-2.184459
40.80461	-0.01344579	-0.02750275	0.07287478	0.07287461	-0.07151064	2.206979
40.82096	-0.01344579	-0.0262804	-5.693578E-08	0.0747273	-2.19962	0.05592055
40.83814	-0.01222344	-0.0262804	0.07115932	0	2.121943	-2.228337
40.8541	-0.01222344	-0.0262804	0	0	-2.147593	0
40.87067	-0.0110011	-0.02505806	0.07378089	0.07378072	2.268499	2.268493
40.88723	-0.0110011	-0.02505806	0	0	-2.226712	-2.226707
40.90929	-0.009778756	-0.02505806	0.05540899	8.44339E-08	1.434439	2.185843E-06
40.92586	-0.009778756	-0.02505806	0	0	-1.434439	-2.185843E-06
40.94243	-0.009778756	-0.02505806	0	0	0	0
40.959	-0.009778756	-0.02505806	0	0	0	0
40.97556	-0.009778756	-0.02383572	0	0.07378083	0	2.22671
40.99213	-0.007334067	-0.02383572	0.1475617	0	4.453422	-2.22671
41.01129	-0.007334067	-0.02383572	0	0	-4.13009	0
41.02786	-0.007334067	-0.02383572	0	0	0	0
41.04443	-0.007334067	-0.02383572	0	0	0	0
41.06533	-0.007334067	-0.02383572	0	0	0	0
41.08189	-0.007334067	-0.02383572	0	0	0	0
41.09846	-0.007334067	-0.02383572	0	0	0	0
41.11503	-0.006111722	-0.02383572	0.07378086	0	2.226711	0
41.1316	-0.006111723	-0.02261337	-5.621474E-08	0.07378083	-2.226713	2.22671
41.14816	-0.006111723	-0.02261337	0	0	1.696564E-06	-2.22671
41.16473	-0.006111723	-0.02261337	0	0	0	0
41.18138	-0.006111723	-0.02261337	0	0	0	0
41.19788	-0.006111723	-0.02261337	0	0	0	0
41.22022	-0.006111723	-0.02261337	0	0	0	0
41.23679	-0.004889378	-0.02139103	0.07378086	0.07378083	1.896011	1.896011
41.26088	-0.004889378	-0.02139103	0	0	-1.814883	-1.814883
41.29179	-0.002444689	-0.02139103	0.07906979	0	1.437525	0
41.30981	0	-0.02016868	0.1356893	0.06784463	1.157036	1.386425
41.32674	0	-0.01894634	0	0.07220148	-3.882778	0.1246723
41.34472	0.001222344	-0.01894634	0.06800303	0	1.948261	-2.068545
41.37477	0.002444689	-0.01894634	0.04066375	0	-0.5691572	0
41.39134	0.002444689	-0.01772399	-1.405369E-08	0.07378095	-0.8721069	1.582364
41.40791	0.002444689	-0.01772399	0	0	4.241411E-07	-2.226713
41.42448	0.002444689	-0.01772399	0	0	0	0
41.44108	0.002444689	-0.01772399	0	0	0	0
41.45765	0.002444689	-0.01772399	0	0	0	0
41.48334	0.002444689	-0.01772399	0	0	0	0
41.50706	0.002444689	-0.02139103	0	-0.1545732	0	-3.128026
41.53597	0.002444689	-0.02139103	0	0	0	2.93669
41.56502	0.002444689	-0.02139103	0	0	0	0
41.58159	0.002444689	-0.02139103	0	0	0	0
41.59816	0.002444689	-0.02139103	0	0	0	0
41.61472	0.002444689	-0.02139103	0	0	0	0
41.63129	0.002444689	-0.02139103	0	0	0	0
41.64786	0.002444689	-0.02139103	0	0	0	0
41.66442	0.002444689	-0.02139103	0	0	0	0
41.68664	0.002444689	-0.02139103	0	0	0	0
41.70321	0.002444689	-0.02139103	0	0	0	0
41.71978	0.002444689	-0.02139103	0	0	0	0
