Time	Pos X	Pos Y	Vel X	Vel Y	Acc X	Acc Y
0.01696344	0.04522675	-0.02994744	-0.009921987	0.006569963	0.002184656	-0.001446596
0.03313383	0.04522675	-0.02994744	0	0	-0.002184466	0.001446471
0.04969896	0.04522675	-0.02994744	0	0	0	0
0.06651477	0.04522675	-0.02994744	0	0	0	0
0.08283318	0.04522675	-0.02994744	0	0	0	0
0.09939989	0.04522675	-0.02994744	0	0	0	0
0.1159974	0.04522675	-0.02994744	0	0	0	0
0.132529	0.04522675	-0.02994744	0	0	0	0
0.1490965	0.04522675	-0.02994744	0	0	0	0
0.1657358	0.04522675	-0.02994744	0	0	0	0
0.1822299	0.04522675	-0.02994744	0	0	0	0
0.1987966	0.04522675	-0.02994744	0	0	0	0
0.215363	0.04522675	-0.02994744	0	0	0	0
0.2319301	0.04522675	-0.02994744	0	0	0	0
0.2484964	0.04522675	-0.02994744	0	0	0	0
0.2650722	0.04522675	-0.02994744	0	0	0	0
0.2816302	0.04522675	-0.02994744	0	0	0	0
0.2981965	0.04522675	-0.02994744	0	0	0	0
0.3147624	0.04522675	-0.02994744	0	0	0	0
0.3313299	0.04522675	-0.02994744	0	0	0	0
0.3478966	0.04522675	-0.02994744	0	0	0	0
0.3644629	0.04522675	-0.02994744	0	0	0	0
0.3810292	0.04522675	-0.02994744	0	0	0	0
0.397639	0.04522675	-0.02994744	0	0	0	0
0.4141631	0.04522675	-0.02994744	0	0	0	0
0.4307298	0.04522675	-0.02994744	0	0	0	0
0.4472969	0.04522675	-0.02994744	0	0	0	0
0.4639102	0.04522675	-0.02994744	0	0	0	0
0.4810169	0.04522675	-0.02994744	0	0	0	0
0.497014	0.04522675	-0.02994744	0	0	0	0
0.5135882	0.04522675	-0.02994744	0	0	0	0
0.5301297	0.04522675	-0.02994744	0	0	0	0
0.5466968	0.04522675	-0.02994744	0	0	0	0
0.5632631	0.04522675	-0.02994744	0	0	0	0
0.5798322	0.04522675	-0.02994744	0	0	0	0
0.5963966	0.04522675	-0.02994744	0	0	0	0
0.6129633	0.04522675	-0.02994744	0	0	0	0
0.629528	0.04522675	-0.02994744	0	0	0	0
0.6460966	0.04522675	-0.02994744	0	0	0	0
0.662693	0.04522675	-0.02750275	-2.244649E-07	0.1473031	-6.768129E-06	4.441525
0.6792297	0.04278206	-0.02505806	-0.147834	0.147834	-4.461824	0.01602414
0.695796	0.04033737	-0.02139103	-0.1475696	0.2213546	0.007985567	2.220961
0.7123631	0.03911502	-0.01894634	-0.07378148	0.1475627	2.226999	-2.22711
0.7289298	0.03789268	-0.01772399	-0.07378334	0.07378334	-5.599099E-05	-2.226711
0.7454962	0.03789268	-0.01772399	0	0	2.226882	-2.226882
0.7624031	0.03789268	-0.01772399	0	0	0	0
0.7786295	0.03789268	-0.01772399	0	0	0	0
0.7954939	0.03667033	-0.017724	-0.0724808	-1.104486E-07	-2.190363	-3.337747E-06
0.811763	0.03667033	-0.017724	0	0	2.187542	3.333448E-06
0.8284446	0.03667033	-0.017724	0	0	0	0
0.8448964	0.03667033	-0.017724	0	0	0	0
0.8619041	0.03667033	-0.01650165	0	0.07187026	0	2.147979
0.8780299	0.03667033	-0.01650165	0	0	0	-2.169115
0.8946562	0.03667033	-0.01650165	0	0	0	0
0.9111633	0.03544799	-0.01650165	-0.07404976	1.128391E-07	-2.234898	3.405601E-06
0.9277296	0.03544799	-0.01650165	0	0	2.23895	-3.411776E-06
0.9445663	0.03544799	-0.01650165	0	0	0	0
0.960863	0.03544799	-0.01650165	0	0	0	0
0.9774293	0.03544799	-0.01650165	0	0	0	0
0.9939945	0.03544799	-0.01650165	0	0	0	0
1.010564	0.03422565	-0.01527931	-0.07377223	0.07377234	-2.226462	2.226466
1.027129	0.0330033	-0.01283462	-0.07379051	0.1475808	-0.000551583	2.227561
1.044202	0.0330033	-0.01283462	0	0	2.193618	-4.387232
1.060384	0.0330033	-0.01283462	0	0	0	0
1.076829	0.0330033	-0.01283462	0	0	0	0
1.093396	0.0330033	-0.01283462	0	0	0	0
1.109963	0.0330033	-0.01283462	0	0	0	0
1.12653	0.0330033	-0.01283462	0	0	0	0
1.143097	0.0330033	-0.01283462	0	0	0	0
1.162625	0.0330033	-0.01283462	0	0	0	0
1.179196	0.0330033	-0.01283462	0	0	0	0
1.195881	0.0330033	-0.01283462	0	0	0	0
1.212325	0.0330033	-0.01283462	0	0	0	0
1.228892	0.02322455	-0.001833517	-0.590251	0.6640325	-17.8802	20.11522
1.245462	0.006111722	0.02016868	-1.032769	1.327845	-13.3542	20.0324
1.262029	-0.01955751	0.05194964	-1.549487	1.918413	-15.59382	17.82247
1.278682	-0.05989488	0.09717639	-2.422098	2.715686	-26.26749	23.99965
1.295161	-0.09900991	0.1546266	-2.373678	3.486339	1.461394	23.25971
1.311728	-0.1259015	0.1900746	-1.623191	2.13966	22.71055	-40.75193
1.328735	-0.1405696	0.2071874	-0.8625001	1.006252	22.65739	-33.75889
1.344862	-0.1466813	0.2145215	-0.3789666	0.4547597	14.59333	-16.64436
1.361428	-0.149126	0.2194108	-0.1475708	0.2951399	7.077703	-4.882293
1.377993	-0.149126	0.2206332	8.995718E-07	0.07379278	4.454189	-6.680965
1.39456	-0.152793	0.2267449	-0.2213485	0.3689142	-6.68094	8.907584
1.4112	-0.1564601	0.2328566	-0.220379	0.3672968	0.0291988	-0.04871013
1.427692	-0.1650165	0.241413	-0.5187954	0.5187963	-9.006744	4.572527
1.444271	-0.1723506	0.2511918	-0.4423837	0.5898453	2.310505	2.148353
1.460859	-0.1747953	0.2548589	-0.1473759	0.2210638	8.894715	-11.11905
1.477666	-0.1747953	0.2560812	0	0.07272605	4.413089	-4.441892
1.494375	-0.1747953	0.2560812	0	0	0	-2.169926
1.510528	-0.1760176	0.2560812	-0.07567064	0	-2.302691	0
1.527094	-0.1796846	0.2585258	-0.2213597	0.1475731	-4.452685	4.510268
1.543661	-0.1833517	0.2634152	-0.221339	0.2951187	0.0006251282	4.453077
1.560228	-0.1857964	0.2646376	-0.1475666	0.07378465	2.226471	-6.679922
1.576794	-0.1857964	0.2646376	0	0	4.453809	-2.226945
1.593361	-0.1857964	0.2646376	0	0	0	0
1.609927	-0.1857964	0.2646376	0	0	0	0
1.626502	-0.1857964	0.2646376	0	0	0	0
1.6431	-0.1857964	0.2646376	0	0	0	0
1.659677	-0.1857964	0.2646376	0	0	0	0
1.676193	-0.180907	0.2585258	0.2960227	-0.370029	8.945149	-11.18146
1.692759	-0.1674612	0.241413	0.811654	-1.033013	15.58606	-20.04011
1.709328	-0.145459	0.2108544	1.32794	-1.844362	15.58149	-24.48646
1.725894	-0.113678	0.163183	1.918413	-2.87762	17.82026	-31.18336
1.742461	-0.0770077	0.1093998	2.213489	-3.246451	8.905789	-11.13182
1.759027	-0.05133846	0.0727295	1.549488	-2.213553	-20.04047	31.17427
1.775594	-0.03789268	0.04950495	0.8116124	-1.401877	-22.27008	24.49751
1.792161	-0.03055861	0.04094854	0.442698	-0.516481	-11.13418	26.72206
1.808728	-0.02811392	0.03605916	0.1475628	-0.2951255	-8.907356	6.680644
1.825387	-0.02566923	0.03239213	0.1467444	-0.2201167	-0.02463181	2.257491
1.841918	-0.02444689	0.02994744	0.07394513	-0.1478905	-2.193417	2.176151
1.858428	-0.02322454	0.0287251	0.0740357	-0.07403559	0.002741147	2.235274
1.874992	-0.0220022	0.02628041	0.07379506	-0.1475904	-0.007275939	-2.223928
1.891561	-0.02077986	0.02505806	0.07377245	-0.07377245	-0.0006822491	2.227917
1.908128	-0.02077986	0.02383572	0	-0.07378296	-2.226361	-0.0003170375
1.924694	-0.02077986	0.02383572	0	0	0	2.22687
1.941378	-0.02077986	0.02383572	0	0	0	0
1.957826	-0.02077986	0.02383572	0	0	0	0
1.974392	-0.01955751	0.02383572	0.07378656	1.124384E-07	2.234964	3.405711E-06
1.990961	-0.01711282	0.02261337	0.147549	-0.07377446	2.226148	-2.226513
2.007528	-0.0110011	0.01894634	0.3689097	-0.2213459	6.680436	-4.453555
2.024093	-0.006111722	0.01527931	0.2951616	-0.2213712	-2.22588	-0.0007641258
2.040661	-0.001222345	0.01283462	0.2951064	-0.1475532	-0.001665815	2.227914
2.057227	0.002444689	0.01161227	0.2213649	-0.07378827	-2.225572	2.226277
2.073846	0.003667033	0.01161227	0.07355009	0	-4.454297	2.223558
2.090491	0.003667033	0.01161227	0	0	-2.211075	0
2.106928	0.003667033	0.01161227	0	0	0	0
2.123494	0.003667033	0.01161227	0	0	0	0
2.140061	0.003667033	0.01161227	0	0	0	0
2.156627	0.003667033	0.01161227	0	0	0	0
2.173194	0.004889378	0.01161227	0.07378299	0	2.226887	0
2.189761	0.004889378	0.01038993	2.810818E-08	-0.07378296	-2.226838	-2.226838
2.206329	0.004889378	0.01038993	0	0	-8.483005E-07	2.226758
2.223158	0.004889378	0.01038993	0	0	0	0
2.239461	0.004889378	0.01038993	0	0	0	0
2.256028	0.004889378	0.01038993	0	0	0	0
2.272595	0.004889378	0.01038993	0	0	0	0
2.289162	0.004889378	0.01038993	0	0	0	0
2.305728	0.004889378	0.01038993	0	0	0	0
2.322295	0.004889378	0.01038993	0	0	0	0
2.338862	0.004889378	0.01038993	0	0	0	0
2.355428	0.004889378	0.01038993	0	0	0	0
2.371995	0.004889378	0.01038993	0	0	0	0
2.388561	0.004889378	0.01038993	0	0	0	0
2.405128	0.004889378	0.01038993	0	0	0	0
2.421694	0.004889378	0.01038993	0	0	0	0
2.438261	0.004889378	0.01038993	0	0	0	0
2.454828	0.004889378	0.01038993	0	0	0	0
2.47188	0.006111722	0.01038993	0.0716836	-5.461683E-08	2.132255	-1.624597E-06
2.487964	0.007334067	0.01038993	0.07599773	0	0.1301951	1.648268E-06
2.50555	0.007334067	0.01038993	0	0	-2.257106	0
2.52212	0.007334067	0.01038993	0	0	0	0
2.538687	0.007334067	0.01038993	0	0	0	0
2.555254	0.007334067	0.01038993	0	0	0	0
2.572039	0.007334067	0.01038993	0	0	0	0
2.588387	0.007334067	0.01038993	0	0	0	0
2.604954	0.007334067	0.01038993	0	0	0	0
2.682204	0.007334067	0.01038993	0	0	0	0
2.698777	0.007334067	0.01038993	0	0	0	0
2.71553	0.007334067	0.01038993	0	0	0	0
2.731907	0.007334067	0.01038993	0	0	0	0
2.748474	0.007334067	0.01038993	0	0	0	0
2.765041	0.007334067	0.01038993	0	0	0	0
2.781608	0.007334067	0.01038993	0	0	0	0
2.798174	0.007334067	0.01038993	0	0	0	0
2.814941	0.008556412	0.009167585	0.07290276	-0.07290265	2.187101	-2.187097
2.831307	0.0110011	0.00550055	0.1493739	-0.2240608	2.308002	-4.56216
2.847873	0.01222344	0.003055861	0.07378827	-0.1475766	-2.295216	2.322504
2.864439	0.01344579	0.003055861	0.07378827	0	0	4.454319
2.881008	0.01344579	0.003055861	0	0	-2.226902	0
2.897701	0.01344579	0.003055861	0	0	0	0
2.914363	0.01344579	0.003055861	0	0	0	0
2.931025	0.01344579	0.003055861	0	0	0	0
2.947274	0.01344579	0.003055861	0	0	0	0
2.964386	0.01344579	0.003055861	0	0	0	0
2.980407	0.01466813	0.003055861	0.07629517	0	2.302692	0
2.996974	0.01466813	0.003055861	0	0	-2.341187	0
3.01402	0.01466813	0.003055861	0	0	0	0
3.030108	0.01466813	0.003055861	0	0	0	0
3.046869	0.01466813	0.003055861	0	0	0	0
3.063242	0.01466813	0.003055861	0	0	0	0
3.079808	0.01466813	0.003055861	0	0	0	0
3.096374	0.01466813	0.003055861	0	0	0	0
3.112941	0.01466813	0.003055861	0	0	0	0
3.129626	0.01466813	0.003055861	0	0	0	0
3.146074	0.01466813	0.003055861	0	0	0	0
3.162641	0.01466813	0.003055861	0	0	0	0
3.179208	0.01466813	0.003055861	0	0	0	0
3.195774	0.01466813	0.003055861	0	0	0	0
3.212341	0.01466813	0.003055861	0	0	0	0
3.228908	0.01466813	0.003055861	0	0	0	0
3.245474	0.01466813	0.003055861	0	0	0	0
3.262041	0.01466813	0.003055861	0	0	0	0
3.278607	0.01466813	0.003055861	0	0	0	0
3.295174	0.01466813	0.003055861	0	0	0	0
3.311737	0.01466813	0.003055861	0	0	0	0
3.328307	0.01466813	0.003055861	0	0	0	0
3.344993	0.01466813	0.003055861	0	0	0	0
3.361616	0.01466813	0.003055861	0	0	0	0
3.378095	0.01466813	0.003055861	0	0	0	0
3.394605	0.01466813	0.003055861	0	0	0	0
3.411141	0.01466813	0.003055861	0	0	0	0
3.427874	0.01466813	0.003055861	0	0	0	0
3.444274	0.01466813	0.003055861	0	0	0	0
3.46084	0.01466813	0.003055861	0	0	0	0
3.477473	0.01466813	0.003055861	0	0	0	0
3.493971	0.01466813	0.003055861	0	0	0	0
3.51054	0.01466813	0.003055861	0	0	0	0
3.527107	0.01466813	0.003055861	0	0	0	0
3.543674	0.01466813	0.003055861	0	0	0	0
3.56112	0.01466813	0.003055861	0	0	0	0
3.576807	0.01466813	0.003055861	0	0	0	0
3.593374	0.01466813	0.003055861	0	0	0	0
3.60994	0.01466813	0.003055861	0	0	0	0
3.626505	0.01466813	0.003055861	0	0	0	0
3.643073	0.01466813	0.0006111722	5.620989E-08	-0.147549	1.696491E-06	-4.453229
3.65967	0.01466813	0.0006111722	0	0	-1.694832E-06	4.448875
3.676341	0.01466813	0.0006111722	0	0	0	0
3.692774	0.01466813	0.0006111722	0	0	0	0
3.709341	0.01466813	0.0006111722	0	0	0	0
3.725907	0.01466813	0.0006111722	0	0	0	0
3.742474	0.01466813	0.0006111722	0	0	0	0
3.75904	0.01466813	0.0006111722	0	0	0	0
3.775876	0.01466813	0.0006111722	0	0	0	0
3.792174	0.01466813	0.0006111722	0	0	0	0
3.808741	0.01466813	0.0006111722	0	0	0	0
3.82564	0.01466813	0.0006111722	0	0	0	0
3.841874	0.01466813	0.0006111722	0	0	0	0
3.858651	0.01466813	0.0006111722	0	0	0	0
3.875005	0.01466813	0.0006111722	0	0	0	0
3.892008	0.01466813	0.0006111722	0	0	0	0
3.90814	0.01466813	0.0006111722	0	0	0	0
3.924707	0.01466813	0.0006111722	0	0	0	0
3.941313	0.01466813	0.0006111722	0	0	0	0
3.957838	0.01466813	0.0006111722	0	0	0	0
3.974405	0.01466813	0.0006111722	0	0	0	0
3.990973	0.01466813	0.0006111722	0	0	0	0
4.00754	0.01466813	0.0006111722	0	0	0	0
4.024107	0.01466813	0.0006111722	0	0	0	0
4.040674	0.01466813	0.0006111722	0	0	0	0
4.057249	0.01466813	0.0006111722	0	0	0	0
4.073806	0.01466813	0.0006111722	0	0	0	0
4.090374	0.01466813	0.0006111722	0	0	0	0
4.106941	0.01466813	0.0006111722	0	0	0	0
4.123583	0.01466813	0.0006111722	0	0	0	0
4.140073	0.01466813	0.0006111722	0	0	0	0
4.15664	0.01466813	0.0006111722	0	0	0	0
4.173207	0.01466813	0.0006111722	0	0	0	0
4.189774	0.01466813	0.0006111722	0	0	0	0
4.20634	0.01466813	0.0006111722	0	0	0	0
4.222909	0.01466813	0.0006111722	0	0	0	0
4.239472	0.01466813	0.0006111722	0	0	0	0
4.256041	0.01466813	0.0006111722	0	0	0	0
4.272701	0.01466813	0.0006111722	0	0	0	0
4.289178	0.01466813	0.0006111722	0	0	0	0
4.306057	0.01466813	0.0006111722	0	0	0	0
4.322465	0.01466813	0.0006111722	0	0	0	0
4.339036	0.01466813	0.0006111722	0	0	0	0
4.355602	0.01466813	0.0006111722	0	0	0	0
4.372169	0.01466813	0.0006111722	0	0	0	0
4.388736	0.01466813	0.0006111722	0	0	0	0
4.405418	0.01466813	0.0006111722	0	0	0	0
4.421869	0.01466813	0.0006111722	0	0	0	0
4.438436	0.01466813	0.0006111722	0	0	0	0
4.455091	0.01466813	0.0006111722	0	0	0	0
4.471569	0.01466813	0.0006111722	0	0	0	0
4.488159	0.01466813	0.0006111722	0	0	0	0
4.504758	0.01466813	0.0006111722	0	0	0	0
4.521269	0.01466813	0.0006111722	0	0	0	0
4.537836	0.01466813	0.0006111722	0	0	0	0
4.554524	0.01466813	0.0006111722	0	0	0	0
4.57097	0.01466813	0.0006111722	0	0	0	0
4.587536	0.01466813	0.0006111722	0	0	0	0
4.604103	0.01466813	0.0006111722	0	0	0	0
4.620669	0.01466813	0.0006111722	0	0	0	0
4.637236	0.01466813	0.0006111722	0	0	0	0
4.653803	0.01466813	0.0006111722	0	0	0	0
4.670369	0.01466813	0.0006111722	0	0	0	0
4.686936	0.01466813	0.0006111722	0	0	0	0
4.703503	0.01466813	0.0006111722	0	0	0	0
4.720656	0.01466813	0.0006111722	0	0	0	0
4.736636	0.01466813	0.0006111722	0	0	0	0
4.753203	0.01466813	0.0006111722	0	0	0	0
4.76977	0.01466813	0.0006111722	0	0	0	0
4.786336	0.01466813	0.0006111722	0	0	0	0
4.802903	0.01466813	0.0006111722	0	0	0	0
4.820021	0.01466813	0.0006111722	0	0	0	0
4.836037	0.01466813	0.0006111722	0	0	0	0
4.852603	0.01466813	0.0006111722	0	0	0	0
4.869171	0.01466813	0.0006111722	0	0	0	0
4.885736	0.01466813	0.0006111722	0	0	0	0
4.902304	0.01466813	0.0006111722	0	0	0	0
4.91887	0.01466813	0.0006111722	0	0	0	0
4.935436	0.01466813	0.0006111722	0	0	0	0
4.952112	0.01466813	0.0006111722	0	0	0	0
4.96864	0.01466813	0.0006111722	0	0	0	0
4.98524	0.01466813	0.0006111722	0	0	0	0
5.001709	0.01466813	0.0006111722	0	0	0	0
5.018282	0.01466813	0.0006111722	0	0	0	0
5.034836	0.01466813	0.0006111722	0	0	0	0
5.051404	0.01466813	0.0006111722	0	0	0	0
5.06797	0.01466813	0.0006111722	0	0	0	0
5.084538	0.01466813	0.0006111722	0	0	0	0
5.101104	0.01466813	0.0006111722	0	0	0	0
5.117671	0.01466813	0.0006111722	0	0	0	0
5.134263	0.01466813	0.0006111722	0	0	0	0
5.150877	0.01466813	0.0006111722	0	0	0	0
5.16737	0.01466813	0.0006111722	0	0	0	0
5.18441	0.01466813	0.0006111722	0	0	0	0
5.201485	0.01466813	0.0006111722	0	0	0	0
5.217071	0.01466813	0.0006111722	0	0	0	0
5.233638	0.01466813	0.0006111722	0	0	0	0
5.25021	0.01466813	0.0006111722	0	0	0	0
5.266771	0.01466813	0.0006111722	0	0	0	0
5.283418	0.01466813	0.0006111722	0	0	0	0
5.299903	0.01466813	0.0006111722	0	0	0	0
5.317049	0.01466813	0.0006111722	0	0	0	0
5.333037	0.01466813	0.0006111722	0	0	0	0
5.349605	0.01466813	0.0006111722	0	0	0	0
5.366171	0.01466813	0.0006111722	0	0	0	0
5.383175	0.01466813	0.0006111722	0	0	0	0
5.399745	0.01466813	0.0006111722	0	0	0	0
5.416311	0.01466813	0.0006111722	0	0	0	0
5.432879	0.01466813	0.0006111722	0	0	0	0
5.449648	0.01466813	0.0006111722	0	0	0	0
5.466011	0.01466813	0.0006111722	0	0	0	0
5.482579	0.01466813	0.0006111722	0	0	0	0
5.499146	0.01466813	0.0006111722	0	0	0	0
5.515816	0.01466813	0.0006111722	0	0	0	0
5.532279	0.01466813	0.0006111722	0	0	0	0
5.54891	0.01466813	0.0006111722	0	0	0	0
5.565412	0.01466813	0.0006111722	0	0	0	0
5.581978	0.01466813	0.0006111722	0	0	0	0
5.598546	0.01466813	0.0006111722	0	0	0	0
5.615111	0.01466813	0.0006111722	0	0	0	0
5.631681	0.01466813	0.0006111722	0	0	0	0
5.648247	0.01466813	0.0006111722	0	0	0	0
5.664815	0.01466813	0.0006111722	0	0	0	0
5.681382	0.01466813	0.0006111722	0	0	0	0
5.697948	0.01466813	0.0006111722	0	0	0	0
5.714513	0.01466813	0.0006111722	0	0	0	0
5.731303	0.01466813	0.0006111722	0	0	0	0
5.747646	0.01466813	0.0006111722	0	0	0	0
5.764214	0.01466813	0.0006111722	0	0	0	0
5.780926	0.01466813	0.0006111722	0	0	0	0
5.797344	0.01466813	0.0006111722	0	0	0	0
5.813911	0.01466813	0.0006111722	0	0	0	0
5.830786	0.01466813	0.0006111722	0	0	0	0
5.847042	0.01955751	0.00550055	0.3007676	0.3007676	9.078097	9.078098
5.863612	0.04033737	0.04461557	1.254058	2.36058	29.04034	62.7486
5.880177	0.06111722	0.09350935	1.254419	2.951574	0.01088286	17.83573
5.89687	0.07823005	0.159516	1.025172	3.954235	-6.892974	30.14799
5.913311	0.08800881	0.205965	0.594766	2.825139	-12.98988	-34.07668
5.929878	0.09534287	0.2218555	0.442698	0.9591797	-4.606989	-56.53034
5.946444	0.1002322	0.234079	0.2951484	0.7378709	-4.453313	-6.679496
5.963011	0.1038993	0.2450801	0.2213426	0.6640292	-2.227558	-2.228643
5.979586	0.1051216	0.2573035	0.07374978	0.7374889	-4.4534	2.216537
5.996171	0.106344	0.2646376	0.07369755	0.4421898	-0.001575037	-8.905224
6.012712	0.1075663	0.2670823	0.07390241	0.1478039	0.006184324	-8.886885
6.029275	0.1075663	0.2670823	0	0	-2.232468	-4.464908
6.045866	0.1075663	0.2670823	0	0	0	0
6.062433	0.1075663	0.2670823	0	0	0	0
6.079	0.1075663	0.2670823	0	0	0	0
6.095996	0.1075663	0.2670823	0	0	0	0
6.112133	0.1075663	0.2670823	0	0	0	0
6.128699	0.1075663	0.2670823	0	0	0	0
6.145482	0.1075663	0.2670823	0	0	0	0
6.161833	0.1075663	0.2670823	0	0	0	0
6.178521	0.1075663	0.2670823	0	0	0	0
6.195119	0.1075663	0.2670823	0	0	0	0
6.211535	0.1075663	0.2670823	0	0	0	0
6.228105	0.1075663	0.2634152	-4.496532E-07	-0.2213103	-1.363157E-05	-6.709187
6.24496	0.1026769	0.2463024	-0.2900887	-1.015312	-8.678943	-23.75518
6.261537	0.09289818	0.2181885	-0.5898902	-1.695933	-8.967499	-20.35837
6.277802	0.08189708	0.1778511	-0.6763701	-2.480024	-2.633198	-23.87452
6.294369	0.06233957	0.1081775	-1.180528	-4.205629	-15.35584	-52.55917
6.311714	0.04155971	0.03239213	-1.198035	-4.369303	-0.5162511	-4.826471
6.327502	0.02566923	-0.03361448	-1.006455	-4.180661	5.782043	5.693391
6.344068	0.0220022	-0.05317198	-0.2213616	-1.180596	24.26547	92.72526
6.360633	0.02077986	-0.0592837	-0.07378945	-0.3689466	4.454186	24.49808
6.377199	0.01833517	-0.06661778	-0.1475787	-0.4427367	-2.22722	-2.227246
6.393768	0.01833517	-0.06784012	-1.124133E-07	-0.07377011	4.453866	11.13527
6.410336	0.01833517	-0.06784012	0	0	3.392396E-06	2.226226
6.426902	0.01833517	-0.06784012	0	0	0	0
6.443469	0.01833517	-0.06784012	0	0	0	0
6.460034	0.01833517	-0.06784012	0	0	0	0
6.476601	0.01833517	-0.06784012	0	0	0	0
6.493168	0.01833517	-0.06784012	0	0	0	0
6.509733	0.01833517	-0.06784012	0	0	0	0
6.526302	0.01833517	-0.06784012	0	0	0	0
6.542868	0.01833517	-0.06784012	0	0	0	0
6.559464	0.01833517	-0.06784012	0	0	0	0
6.576002	0.01833517	-0.06784012	0	0	0	0
6.592569	0.01833517	-0.06784012	0	0	0	0
6.609135	0.01833517	-0.06784012	0	0	0	0
6.625701	0.01833517	-0.06784012	0	0	0	0
6.642269	0.01833517	-0.06784012	0	0	0	0
6.658835	0.01833517	-0.06784012	0	0	0	0
6.6754	0.01833517	-0.06784012	0	0	0	0
6.691969	0.01833517	-0.06539543	1.124133E-07	0.1475407	3.39264E-06	4.452786
6.708535	0.02077986	-0.06295074	0.1475787	0.1475789	4.453866	0.00115351
6.725318	0.0220022	-0.05806137	0.07283125	0.2913248	-2.241399	4.310407
6.742354	0.0220022	-0.05439433	1.09333E-07	0.2152465	-2.153514	-2.249526
6.758235	0.02322455	-0.05317198	0.07697329	0.07697341	2.338434	-4.200718
6.774801	0.02444689	-0.04950495	0.07378296	0.2213488	-0.0983248	4.449594
6.791368	0.02444689	-0.04706027	0	0.1475617	-2.226806	-2.226931
6.808116	0.02566923	-0.04461557	0.07298677	0.1459738	2.190828	-0.04766356
6.824944	0.02566924	-0.04339323	1.106837E-07	0.07263508	-2.173774	-2.184258
6.841069	0.02566924	-0.04217089	0	0.07580569	-3.358809E-06	0.09621534
6.857635	0.02566924	-0.04094854	0	0.07378519	0	-0.06180602
6.874201	0.02689158	-0.04094854	0.07378709	2.248784E-07	2.227059	-2.226995
6.890769	0.02689158	-0.04094854	0	0	-2.226995	-6.787136E-06
6.907334	0.02689158	-0.0397262	0	0.07378687	0	2.226988
6.923902	0.02689158	-0.0397262	0	0	0	-2.226956
6.940469	0.02689158	-0.0397262	0	0	0	0
6.957036	0.02689158	-0.03850385	1.124327E-07	0.07378307	3.393324E-06	2.226841
6.973602	0.02689158	-0.03850385	0	0	-3.393324E-06	-2.226841
6.990169	0.02689158	-0.03850385	0	0	0	0
7.006735	0.02689158	-0.03728151	-1.12436E-07	0.07378497	-3.393519E-06	2.226963
7.023302	0.02689158	-0.03728151	0	0	3.39347E-06	-2.226931
7.039934	0.02689158	-0.03605916	0	0.07349116	0	2.213635
7.056435	0.02689158	-0.03605916	0	0	0	-2.218032
7.073	0.02689158	-0.03361447	0	0.1475789	0	4.463125
7.089567	0.02689158	-0.03361447	0	0	0	-4.454325
7.106134	0.02689158	-0.03239213	0	0.0737786	0	2.226675
7.122917	0.02689158	-0.03116978	0	0.0728355	0	-0.02827893
7.139269	0.02811392	-0.03116979	0.07475115	-1.139081E-07	2.255994	-2.198183
7.155835	0.02811392	-0.03116979	0	0	-2.270798	3.460311E-06
7.172402	0.02811392	-0.03116979	0	0	0	0
7.189539	0.02811393	-0.02994744	2.173883E-07	0.07132955	6.449963E-06	2.116365
7.205534	0.02811393	-0.02994744	0	0	-6.561452E-06	-2.152947
7.222099	0.02811393	-0.02994744	0	0	0	0
7.239135	0.02811393	-0.02994744	0	0	0	0
7.255579	0.02811393	-0.02994744	0	0	0	0
7.273214	0.02811393	-0.02994744	0	0	0	0
7.289784	0.02811393	-0.02994744	0	0	0	0
7.306351	0.02811393	-0.02994744	0	0	0	0
7.322915	0.02811393	-0.02994744	0	0	0	0
7.339484	0.02811393	-0.02994744	0	0	0	0
7.35605	0.02811393	-0.02994744	0	0	0	0
7.37262	0.02811393	-0.02994744	0	0	0	0
7.392419	0.02811393	-0.02994744	0	0	0	0
7.408989	0.02811393	-0.02994744	0	0	0	0
7.425555	0.02811393	-0.02994744	0	0	0	0
7.442302	0.02811393	-0.02994744	0	0	0	0
7.458685	0.02811393	-0.02994744	0	0	0	0
7.475255	0.02811393	-0.02994744	0	0	0	0
7.491992	0.02811393	-0.02994744	0	0	0	0
7.508389	0.02811393	-0.02994744	0	0	0	0
7.524954	0.02811393	-0.02994744	0	0	0	0
7.541522	0.02811393	-0.02994744	0	0	0	0
7.55809	0.02811393	-0.0287251	0	0.07377882	0	2.226553
7.574654	0.02811393	-0.0287251	0	0	0	-2.226842
7.591569	0.02811393	-0.0287251	0	0	0	0
7.60779	0.02811392	-0.02750275	-1.148323E-07	0.07535765	-3.465496E-06	2.2742
7.624592	0.02811392	-0.02750275	0	0	3.477305E-06	-2.28195
7.640923	0.02811392	-0.0262804	-1.140578E-07	0.07484949	-3.442369E-06	2.259027
7.65749	0.02811392	-0.0262804	0	0	3.467017E-06	-2.275202
7.674313	0.02689158	-0.02628041	-0.0726599	-1.107214E-07	-2.176095	-3.315999E-06
7.690623	0.02689158	-0.02505806	0	0.07494359	2.192975	2.261903
7.70719	0.02689158	-0.02505806	0	0	0	-2.279516
7.723915	0.02689158	-0.02383572	2.227433E-07	0.07308654	6.690729E-06	2.195362
7.74075	0.02689158	-0.02383572	0	0	-6.637113E-06	-2.177769
7.756889	0.02689158	-0.02383572	0	0	0	0
7.773804	0.02689158	-0.02383572	0	0	0	0
7.790362	0.02689158	-0.02261337	-1.124878E-07	0.07381919	-3.360551E-06	2.205334
7.806656	0.02689158	-0.02261337	0	0	3.424009E-06	-2.246978
7.823156	0.02689158	-0.02261337	0	0	0	0
7.839722	0.02566924	-0.02139103	-0.07378508	0.07378497	-2.231462	2.231459
7.856289	0.02566924	-0.02139103	0	0	2.226902	-2.226899
7.872856	0.02566923	-0.02016868	-1.12436E-07	0.07378531	-3.393422E-06	2.226909
7.88945	0.02566923	-0.02016868	0	0	3.39064E-06	-2.225084
7.905989	0.02566923	-0.02016868	0	0	0	0
7.922556	0.02566923	-0.02016868	0	0	0	0
7.939123	0.02566923	-0.02016868	0	0	0	0
7.955794	0.02566923	-0.02016868	0	0	0	0
7.972364	0.02566923	-0.02016868	0	0	0	0
7.988931	0.02566923	-0.02016868	0	0	0	0
8.005497	0.02566923	-0.02016868	0	0	0	0
8.022742	0.02566923	-0.02016868	0	0	0	0
8.03863	0.02566923	-0.02016868	0	0	0	0
8.055196	0.02566923	-0.02016868	0	0	0	0
8.07176	0.02566923	-0.02016868	0	0	0	0
8.08833	0.02566923	-0.02016868	0	0	0	0
8.105179	0.02566923	-0.02016868	0	0	0	0
8.121464	0.02566923	-0.02016868	0	0	0	0
8.13803	0.02566923	-0.02016868	0	0	0	0
8.154596	0.02566923	-0.02016868	0	0	0	0
8.171161	0.02566923	-0.02016868	0	0	0	0
8.18791	0.02566923	-0.02016868	0	0	0	0
8.204465	0.02566923	-0.02016868	0	0	0	0
8.220907	0.02566923	-0.02016868	0	0	0	0
8.23743	0.02566923	-0.02016868	0	0	0	0
8.253996	0.02566923	-0.02016868	0	0	0	0
8.270573	0.02566923	-0.02016868	0	0	0	0
8.287129	0.02566923	-0.02016868	0	0	0	0
8.303696	0.02566923	-0.02016868	0	0	0	0
8.320461	0.02566923	-0.02016868	0	0	0	0
8.337117	0.02566923	-0.02016868	0	0	0	0
8.353395	0.02566923	-0.02016868	0	0	0	0
8.369961	0.02566923	-0.02016868	0	0	0	0
8.386528	0.02566923	-0.02016868	0	0	0	0
8.403094	0.02566923	-0.02016868	0	0	0	0
8.419783	0.02566923	-0.02016868	0	0	0	0
8.436228	0.02566923	-0.02016868	0	0	0	0
8.453432	0.02566923	-0.02016868	0	0	0	0
8.470705	0.02566923	-0.02016868	0	0	0	0
8.487276	0.02566923	-0.02016868	0	0	0	0
8.503842	0.02566923	-0.02016868	0	0	0	0
8.52041	0.02566923	-0.02016868	0	0	0	0
8.536976	0.02566923	-0.02016868	0	0	0	0
8.553543	0.02566923	-0.02016868	0	0	0	0
8.570108	0.02566923	-0.02016868	0	0	0	0
8.586676	0.02566923	-0.02016868	0	0	0	0
8.603242	0.02566923	-0.02016868	0	0	0	0
8.619808	0.02566923	-0.02016868	0	0	0	0
8.636374	0.02566923	-0.02016868	0	0	0	0
8.652942	0.02566923	-0.02016868	0	0	0	0
8.66954	0.02566923	-0.02016868	0	0	0	0
8.686076	0.02566923	-0.02016868	0	0	0	0
8.702642	0.02566923	-0.02016868	0	0	0	0
8.719209	0.02566923	-0.02016868	0	0	0	0
8.736014	0.02566923	-0.02016868	0	0	0	0
8.752424	0.02566923	-0.02016868	0	0	0	0
8.768909	0.02566923	-0.02016868	0	0	0	0
8.785631	0.02566923	-0.02016868	0	0	0	0
8.802196	0.02566923	-0.02016868	0	0	0	0
8.818608	0.02566923	-0.02016868	0	0	0	0
8.835175	0.02566923	-0.02016868	0	0	0	0
8.851742	0.02566923	-0.02016868	0	0	0	0
8.868388	0.02566923	-0.02016868	0	0	0	0
8.884874	0.02566923	-0.02016868	0	0	0	0
8.901441	0.02566923	-0.02016868	0	0	0	0
8.918008	0.02566923	-0.02016868	0	0	0	0
8.934574	0.02566923	-0.02016868	0	0	0	0
8.951141	0.02566923	-0.02016868	0	0	0	0
8.967942	0.02566923	-0.02016868	0	0	0	0
8.984537	0.02566923	-0.02016868	0	0	0	0
9.000839	0.02566923	-0.02016868	0	0	0	0
9.017406	0.02566923	-0.02016868	0	0	0	0
9.033972	0.02566923	-0.02016868	0	0	0	0
9.050538	0.02566923	-0.02016868	0	0	0	0
9.067106	0.02566923	-0.02016868	0	0	0	0
9.083672	0.02566923	-0.02016868	0	0	0	0
9.100239	0.02566923	-0.02016868	0	0	0	0
9.116806	0.02566923	-0.02016868	0	0	0	0
9.133371	0.02566923	-0.02016868	0	0	0	0
9.149939	0.02566923	-0.02016868	0	0	0	0
9.166505	0.02566923	-0.02016868	0	0	0	0
9.183071	0.02566923	-0.02016868	0	0	0	0
9.199638	0.02566923	-0.02016868	0	0	0	0
9.216205	0.02566923	-0.02016868	0	0	0	0
9.233114	0.02566923	-0.02016868	0	0	0	0
9.249339	0.02566923	-0.02016868	0	0	0	0
9.265905	0.02566923	-0.02016868	0	0	0	0
9.282473	0.02566923	-0.02016868	0	0	0	0
9.299197	0.02566923	-0.02016868	0	0	0	0
9.316357	0.02566923	-0.02016868	0	0	0	0
9.332171	0.02566923	-0.02016868	0	0	0	0
9.34874	0.02566923	-0.02016868	0	0	0	0
9.365305	0.02566923	-0.02016868	0	0	0	0
9.381936	0.02566923	-0.02016868	0	0	0	0
9.39844	0.02566923	-0.02016868	0	0	0	0
9.415168	0.02566923	-0.02016868	0	0	0	0
9.431995	0.02566923	-0.02016868	0	0	0	0
9.478657	0.02566923	-0.02016868	0	0	0	0
9.495227	0.02566923	-0.02016868	0	0	0	0
9.511793	0.02566923	-0.02016868	0	0	0	0
9.52836	0.02566923	-0.02016868	0	0	0	0
9.545053	0.02566923	-0.02016868	0	0	0	0
9.56149	0.02566923	-0.02016868	0	0	0	0
9.578061	0.02566923	-0.02016868	0	0	0	0
9.594642	0.02566923	-0.02016868	0	0	0	0
9.611238	0.02566923	-0.02016868	0	0	0	0
9.627762	0.02566923	-0.02016868	0	0	0	0
9.644326	0.02566923	-0.02016868	0	0	0	0
9.660892	0.02566923	-0.02016868	0	0	0	0
9.677462	0.02566923	-0.02016868	0	0	0	0
9.694425	0.02566923	-0.02016868	0	0	0	0
9.710595	0.02566923	-0.02016868	0	0	0	0
9.727227	0.02566923	-0.02016868	0	0	0	0
9.743729	0.02566923	-0.02016868	0	0	0	0
9.760293	0.02566923	-0.02016868	0	0	0	0
9.776862	0.02566923	-0.02016868	0	0	0	0
9.793428	0.02566923	-0.02016868	0	0	0	0
9.809995	0.02566923	-0.02016868	0	0	0	0
9.826561	0.02566923	-0.02016868	0	0	0	0
9.843399	0.02566923	-0.02016868	0	0	0	0
9.859694	0.02566923	-0.02016868	0	0	0	0
9.876703	0.02566923	-0.02016868	0	0	0	0
9.892883	0.02566923	-0.02016868	0	0	0	0
9.909395	0.02566923	-0.02016868	0	0	0	0
9.925961	0.02566923	-0.02016868	0	0	0	0
9.942531	0.02566923	-0.02016868	0	0	0	0
9.959094	0.02566923	-0.02016868	0	0	0	0
9.97566	0.02566923	-0.02016868	0	0	0	0
9.992229	0.02566923	-0.02016868	0	0	0	0
10.00879	0.02566923	-0.02016868	0	0	0	0
10.02536	0.02566923	-0.02016868	0	0	0	0
10.04193	0.02566923	-0.02016868	0	0	0	0
10.05849	0.02566923	-0.02016868	0	0	0	0
10.07506	0.02566923	-0.02016868	0	0	0	0
10.09163	0.02566923	-0.02016868	0	0	0	0
10.10819	0.02566923	-0.02016868	0	0	0	0
10.12476	0.02566923	-0.02016868	0	0	0	0
10.14159	0.02566923	-0.02016868	0	0	0	0
10.15823	0.02566923	-0.02016868	0	0	0	0
10.17446	0.02566923	-0.02016868	0	0	0	0
10.19103	0.02566923	-0.02016868	0	0	0	0
10.20764	0.02566923	-0.02016868	0	0	0	0
10.22416	0.02566923	-0.02016868	0	0	0	0
10.24073	0.02566923	-0.02016868	0	0	0	0
10.25729	0.02566923	-0.02016868	0	0	0	0
10.27386	0.02566923	-0.02016868	0	0	0	0
10.29043	0.02566923	-0.02016868	0	0	0	0
10.30711	0.02566923	-0.02016868	0	0	0	0
10.32356	0.02566923	-0.02016868	0	0	0	0
10.34013	0.02566923	-0.02016868	0	0	0	0
10.35669	0.02566923	-0.02016868	0	0	0	0
10.37338	0.02566923	-0.02016868	0	0	0	0
10.38983	0.02566923	-0.02016868	0	0	0	0
10.40666	0.02566923	-0.02016868	0	0	0	0
10.42296	0.02566923	-0.02016868	0	0	0	0
10.43953	0.02566923	-0.02016868	0	0	0	0
10.45609	0.02566923	-0.02016868	0	0	0	0
10.47266	0.02566923	-0.02016868	0	0	0	0
10.48923	0.02566923	-0.02016868	0	0	0	0
10.50651	0.02566923	-0.02016868	0	0	0	0
10.52236	0.02566923	-0.02016868	0	0	0	0
10.53893	0.02566923	-0.02016868	0	0	0	0
10.55645	0.02566923	-0.02016868	0	0	0	0
10.57213	0.02566923	-0.02016868	0	0	0	0
10.58904	0.02566923	-0.02016868	0	0	0	0
10.60566	0.02566923	-0.02016868	0	0	0	0
10.62223	0.02566923	-0.02016868	0	0	0	0
10.63902	0.02566923	-0.02016868	0	0	0	0
10.65558	0.02566923	-0.02016868	0	0	0	0
10.67193	0.02933627	-0.02139103	0.2242995	-0.07476653	6.814482	-2.271495
10.6885	0.03422565	-0.02383572	0.2951233	-0.1475618	2.15165	-2.211542
10.70507	0.04033737	-0.03116979	0.3689255	-0.4427106	2.227419	-8.907866
10.72208	0.04889378	-0.04950495	0.5028329	-1.077499	3.987392	-18.90225
10.73823	0.05745019	-0.07884122	0.5297616	-1.816326	0.8118926	-22.27542
10.75521	0.06845129	-0.1155116	0.6478791	-2.159597	3.565101	-10.36083
10.77161	0.09167583	-0.1570713	1.416349	-2.534519	23.02349	-11.23271
10.78817	0.1234568	-0.1925193	1.919076	-2.140508	15.25356	11.95492
10.80469	0.1381249	-0.1961863	0.8881298	-0.2220324	-31.16875	58.00154
10.82103	0.1576824	-0.1912969	1.196404	0.2991001	9.380684	15.85789
10.8376	0.1906857	-0.1680724	1.992197	1.401917	24.17852	33.50682
10.85417	0.2456912	-0.1204009	3.32033	2.87762	40.08545	44.53936
10.87073	0.3129202	-0.07150716	4.058648	2.951744	22.28505	2.23732
10.8873	0.3581469	-0.04706026	2.729578	1.475448	-40.11257	-44.55598
10.90386	0.3850385	-0.03361448	1.62346	0.8117295	-33.38367	-20.03163
10.92043	0.400929	-0.02505806	0.9590408	0.5164067	-20.05279	-8.913117
10.937	0.4094854	-0.02139103	0.5164651	0.2213426	-13.35619	-8.904537
10.95357	0.4168195	-0.01650165	0.4426097	0.2950724	-2.228767	2.224977
10.97013	0.4192642	-0.01405696	0.1476124	0.1476128	-8.903804	-4.450725
10.9867	0.4204865	-0.01283462	0.07377223	0.0737724	-2.228759	-2.228763
11.00327	0.4204865	-0.01161227	0	0.07378083	-2.226322	0.0002545257
11.01983	0.4204865	-0.01161227	0	0	0	-2.226966
11.03727	0.4204865	-0.01161227	0	0	0	0
11.05384	0.4204865	-0.01161227	0	0	0	0
11.07041	0.4204865	-0.01161227	0	0	0	0
11.08698	0.4204865	-0.01161227	0	0	0	0
11.10354	0.4204865	-0.01161227	0	0	0	0
11.1201	0.4204865	-0.01161227	0	0	0	0
11.13687	0.4204865	-0.01161227	0	0	0	0
11.15324	0.4204865	-0.01161227	0	0	0	0
11.16981	0.4143748	-0.01283462	-0.3689691	-0.07379358	-11.2042	-2.240832
11.18637	0.3984843	-0.017724	-0.959039	-0.2950895	-17.80886	-6.678917
11.20308	0.3764821	-0.02139103	-1.316688	-0.2194477	-10.74684	2.272933
11.21986	0.3373671	-0.02628041	-2.332124	-0.2915156	-30.32732	-2.152402
11.23607	0.3239213	-0.02750275	-0.829203	-0.07538203	45.56018	6.551965
11.25312	0.2860286	-0.0287251	-2.222844	-0.07170477	-41.89859	0.1105537
11.26921	0.2640264	-0.02994744	-1.367576	-0.07597622	25.81132	-0.1289088
11.28577	0.2456913	-0.03239213	-1.106776	-0.1475703	7.986584	-2.192454
11.30278	0.2249114	-0.03605916	-1.221782	-0.2156086	-3.425462	-2.026512
11.31891	0.2041315	-0.03850385	-1.288619	-0.1516022	-2.017205	1.931773
11.33547	0.1857964	-0.0397262	-1.106903	-0.07379369	5.55877	2.380189
11.35239	0.1723506	-0.0397262	-0.7949342	0	9.318415	2.204196
11.36861	0.1589048	-0.03972619	-0.8289592	2.296713E-07	-1.026875	6.931495E-06
11.38517	0.1515707	-0.0397262	-0.4427098	-2.248719E-07	11.78079	-1.386379E-05
11.40196	0.1430143	-0.0397262	-0.5097464	0	-2.009979	6.742402E-06
11.41856	0.1393473	-0.0397262	-0.2208726	0	8.651989	0
11.43487	0.1381249	-0.03972619	-0.07492802	2.283555E-07	4.433841	6.93751E-06
11.45144	0.1356802	-0.03972619	-0.1475793	0	-2.209666	-6.945358E-06
11.46801	0.1295685	-0.04094854	-0.3689249	-0.07378519	-6.680798	-2.227034
11.48504	0.1197898	-0.04217088	-0.5741838	-0.07177281	-6.109443	0.05989783
11.50114	0.1112333	-0.04217089	-0.531362	-2.313444E-07	1.292401	2.166163
11.51771	0.09778756	-0.04217089	-0.8115893	0	-8.577506	7.081244E-06
11.53429	0.08800881	-0.04217089	-0.5896696	0	6.694273	0
11.5514	0.0794524	-0.04217089	-0.5001699	0	2.656532	0
11.56741	0.07334067	-0.04217088	-0.3817375	2.326811E-07	3.576149	7.025969E-06
11.58407	0.06845129	-0.04217088	-0.2934347	0	2.702633	-7.121535E-06
11.60055	0.0660066	-0.04217089	-0.1483042	-2.259907E-07	4.378409	-6.817863E-06
11.61711	0.06478426	-0.04217089	-0.07384874	0	2.253751	6.840694E-06
11.63381	0.06478426	-0.04217089	0	0	2.22077	0
11.65024	0.06478426	-0.04217089	0	0	0	0
11.66681	0.06478426	-0.04217089	0	0	0	0
11.68338	0.06478426	-0.04217089	0	0	0	0
11.7003	0.06478426	-0.04217089	0	0	0	0
11.71693	0.06478426	-0.04217089	0	0	0	0
11.73345	0.06478426	-0.04217089	0	0	0	0
11.74964	0.06478426	-0.04217089	0	0	0	0
11.76679	0.06478426	-0.04217089	0	0	0	0
11.7829	0.06478426	-0.04217089	0	0	0	0
11.79947	0.06478426	-0.04217089	0	0	0	0
11.81591	0.06478426	-0.04217089	0	0	0	0
11.83248	0.06478426	-0.04217089	0	0	0	0
11.84904	0.06478426	-0.04217089	0	0	0	0
11.86561	0.06478426	-0.04217089	0	0	0	0
11.88217	0.06478426	-0.04094854	0	0.07378095	0	2.226906
11.89874	0.06478426	-0.04094854	0	0	0	-2.226585
11.91531	0.06478426	-0.04094854	0	0	0	0
11.93187	0.06478426	-0.04094854	0	0	0	0
11.94844	0.06478426	-0.04094854	0	0	0	0
11.96511	0.06478426	-0.04094854	0	0	0	0
11.98157	0.06356192	-0.04094854	-0.07424659	0	-2.240895	0
11.99814	0.06356192	-0.04094854	0	0	2.247753	0
12.01471	0.06233957	-0.04094854	-0.07378922	-2.248849E-07	-2.227027	-6.787234E-06
12.03127	0.06111722	-0.0397262	-0.07378118	0.07378095	0.0002426368	2.226848
12.04784	0.06111722	-0.03850385	0	0.07378095	2.22672	0
12.06441	0.05989488	-0.03728151	-0.07378497	0.07378497	-2.226899	0.0001214273
12.08101	0.05867254	-0.03605916	-0.07362837	0.07362837	0.004721554	-0.004721554
12.09754	0.05867253	-0.03483682	-2.253389E-07	0.07393843	2.222166	0.009358
12.11411	0.05745019	-0.03483682	-0.07378497	0	-2.229266	-2.233909
12.13067	0.05622784	-0.03361447	-0.07378095	0.07378095	0.0001214273	2.226778
12.14764	0.05622784	-0.03361447	0	0	2.200055	-2.200055
12.16428	0.05622784	-0.03361447	0	0	0	0
12.18037	0.05622784	-0.03361447	0	0	0	0
12.19694	0.05622784	-0.03361447	0	0	0	0
12.21351	0.0550055	-0.03239213	-0.07378519	0.07378497	-2.22697	2.226963
12.23007	0.0550055	-0.03116978	2.24846E-07	0.07377682	2.226848	-0.0002459957
12.24713	0.0550055	-0.03116978	0	0	-6.687889E-06	-2.19444
12.26334	0.05378316	-0.03116978	-0.07538215	-1.148694E-07	-2.265972	-3.452952E-06
12.27993	0.05378316	-0.02994744	0	0.07367481	2.297788	2.245749
12.29634	0.05378316	-0.02994744	0	0	0	-2.2327
12.31291	0.05256081	-0.02994744	-0.07378497	0	-2.237719	0
12.32947	0.05256081	-0.02994744	0	0	2.226899	0
12.34604	0.05256081	-0.02994744	0	0	0	0
12.36261	0.05256081	-0.02994744	0	0	0	0
12.37917	0.05256081	-0.02994744	0	0	0	0
12.39574	0.05256081	-0.02994744	0	0	0	0
12.41231	0.05256081	-0.02994744	0	0	0	0
12.42888	0.05256081	-0.02994744	0	0	0	0
12.44559	0.05256081	-0.02994744	0	0	0	0
12.46225	0.05256081	-0.02994744	0	0	0	0
12.4786	0.05256081	-0.02994744	0	0	0	0
12.49515	0.05256081	-0.02994744	0	0	0	0
12.5117	0.05256081	-0.02994744	0	0	0	0
12.52827	0.05256081	-0.02994744	0	0	0	0
12.54524	0.05256081	-0.02994744	0	0	0	0
12.56182	0.05256081	-0.02994744	0	0	0	0
12.57797	0.05256081	-0.02994744	0	0	0	0
12.5947	0.05256081	-0.02994744	0	0	0	0
12.61126	0.05256081	-0.02994744	0	0	0	0
12.62767	0.05256081	-0.02994744	0	0	0	0
12.64424	0.05256081	-0.02994744	0	0	0	0
12.6608	0.05256081	-0.02994744	0	0	0	0
12.67737	0.05256081	-0.02994744	0	0	0	0
12.69438	0.05256081	-0.02994744	0	0	0	0
12.71117	0.05256081	-0.02994744	0	0	0	0
12.72751	0.05256081	-0.02994744	0	0	0	0
12.74446	0.05256081	-0.02994744	0	0	0	0
12.76108	0.05256081	-0.02994744	0	0	0	0
12.77721	0.05256081	-0.02994744	0	0	0	0
12.79378	0.05256081	-0.02994744	0	0	0	0
12.81037	0.05256081	-0.02994744	0	0	0	0
12.82698	0.05256081	-0.02994744	0	0	0	0
12.84348	0.05256081	-0.02994744	0	0	0	0
12.86005	0.05256081	-0.02994744	0	0	0	0
12.87661	0.05256081	-0.02994744	0	0	0	0
12.89318	0.05256081	-0.02994744	0	0	0	0
12.90975	0.05256081	-0.02994744	0	0	0	0
12.92631	0.05256081	-0.02994744	0	0	0	0
12.94288	0.05256081	-0.02994744	0	0	0	0
12.95998	0.05256081	-0.02994744	0	0	0	0
12.97659	0.05256081	-0.02994744	0	0	0	0
12.99312	0.05256081	-0.02994744	0	0	0	0
13.00968	0.05256081	-0.02994744	0	0	0	0
13.02625	0.05256081	-0.02994744	0	0	0	0
13.04282	0.05256081	-0.02994744	0	0	0	0
13.05938	0.05256081	-0.02994744	0	0	0	0
13.07595	0.05256081	-0.02994744	0	0	0	0
13.09265	0.05256081	-0.02994744	0	0	0	0
13.10914	0.05256081	-0.02994744	0	0	0	0
13.12565	0.05256081	-0.02994744	0	0	0	0
13.14222	0.05256081	-0.02994744	0	0	0	0
13.15879	0.05256081	-0.02994744	0	0	0	0
13.17535	0.05256081	-0.02994744	0	0	0	0
13.19191	0.05256081	-0.02994744	0	0	0	0
13.20848	0.05256081	-0.02994744	0	0	0	0
13.22505	0.05256081	-0.02994744	0	0	0	0
13.24161	0.05256081	-0.02994744	0	0	0	0
13.25818	0.05256081	-0.02994744	0	0	0	0
13.27475	0.05256081	-0.02994744	0	0	0	0
13.29132	0.05256081	-0.02994744	0	0	0	0
13.30788	0.05256081	-0.02994744	0	0	0	0
13.32445	0.05256081	-0.02994744	0	0	0	0
13.34101	0.05256081	-0.02994744	0	0	0	0
13.35758	0.05256081	-0.02994744	0	0	0	0
13.37491	0.05256081	-0.02994744	0	0	0	0
13.39071	0.05256081	-0.02994744	0	0	0	0
13.40783	0.05256081	-0.02994744	0	0	0	0
13.42437	0.05256081	-0.02994744	0	0	0	0
13.44044	0.05256081	-0.02994744	0	0	0	0
13.45698	0.05256081	-0.02994744	0	0	0	0
13.47355	0.05256081	-0.02994744	0	0	0	0
13.49018	0.05256081	-0.02994744	0	0	0	0
13.50668	0.05256081	-0.02994744	0	0	0	0
13.52325	0.05256081	-0.02994744	0	0	0	0
13.53996	0.05256081	-0.02994744	0	0	0	0
13.55638	0.05256081	-0.02994744	0	0	0	0
13.57295	0.05256081	-0.02994744	0	0	0	0
13.58952	0.05256081	-0.02994744	0	0	0	0
13.60662	0.05256081	-0.02994744	0	0	0	0
13.62265	0.05256081	-0.02994744	0	0	0	0
13.63921	0.05256081	-0.02994744	0	0	0	0
13.65589	0.05256081	-0.02994744	0	0	0	0
13.67235	0.05256081	-0.02994744	0	0	0	0
13.68891	0.05256081	-0.02994744	0	0	0	0
13.70655	0.05256081	-0.02994744	0	0	0	0
13.72312	0.05256081	-0.02994744	0	0	0	0
13.73969	0.05256081	-0.02994744	0	0	0	0
13.75633	0.05256081	-0.02994744	0	0	0	0
13.77282	0.05256081	-0.02994744	0	0	0	0
13.78993	0.05256081	-0.02994744	0	0	0	0
13.80595	0.05256081	-0.02994744	0	0	0	0
13.82252	0.05256081	-0.02994744	0	0	0	0
13.8391	0.05256081	-0.02994744	0	0	0	0
13.85565	0.05256081	-0.02994744	0	0	0	0
13.87222	0.05256081	-0.02994744	0	0	0	0
13.88878	0.05256081	-0.02994744	0	0	0	0
13.90563	0.05256081	-0.02994744	0	0	0	0
13.92192	0.05256081	-0.02994744	0	0	0	0
13.93853	0.05256081	-0.02994744	0	0	0	0
13.95509	0.05256081	-0.02994744	0	0	0	0
13.97162	0.05256081	-0.02994744	0	0	0	0
13.98818	0.05256081	-0.02994744	0	0	0	0
14.00475	0.05256081	-0.02994744	0	0	0	0
14.02137	0.05256081	-0.02994744	0	0	0	0
14.03855	0.05256081	-0.02994744	0	0	0	0
14.05461	0.05256081	-0.02994744	0	0	0	0
14.07102	0.05256081	-0.02994744	0	0	0	0
14.08758	0.05256081	-0.02994744	0	0	0	0
14.10415	0.05256081	-0.02994744	0	0	0	0
14.12072	0.05256081	-0.02994744	0	0	0	0
14.13728	0.05256081	-0.02994744	0	0	0	0
14.15399	0.05256081	-0.02994744	0	0	0	0
14.17064	0.05256081	-0.02994744	0	0	0	0
14.18699	0.05256081	-0.02994744	0	0	0	0
14.20355	0.05256081	-0.02994744	0	0	0	0
14.22012	0.05256081	-0.02994744	0	0	0	0
14.23668	0.05256081	-0.02994744	0	0	0	0
14.25327	0.05256081	-0.02994744	0	0	0	0
14.26985	0.05256081	-0.02994744	0	0	0	0
14.28638	0.05256081	-0.02994744	0	0	0	0
14.30296	0.05256081	-0.02994744	0	0	0	0
14.31953	0.05256081	-0.02994744	0	0	0	0
14.33609	0.05256081	-0.02994744	0	0	0	0
14.35265	0.05256081	-0.02994744	0	0	0	0
14.36938	0.05256081	-0.02994744	0	0	0	0
14.38579	0.05256081	-0.02994744	0	0	0	0
14.40235	0.05256081	-0.02994744	0	0	0	0
14.41892	0.05256081	-0.02994744	0	0	0	0
14.43548	0.05256081	-0.02994744	0	0	0	0
14.45205	0.05256081	-0.02994744	0	0	0	0
14.46864	0.05256081	-0.02994744	0	0	0	0
14.48524	0.05256081	-0.02994744	0	0	0	0
14.50175	0.05256081	-0.02994744	0	0	0	0
14.51832	0.05256081	-0.02994744	0	0	0	0
14.53488	0.05256081	-0.02994744	0	0	0	0
14.55145	0.05256081	-0.02994744	0	0	0	0
14.56802	0.05256081	-0.02994744	0	0	0	0
14.58459	0.05256081	-0.02994744	0	0	0	0
14.60115	0.05256081	-0.02994744	0	0	0	0
14.61802	0.05256081	-0.02994744	0	0	0	0
14.63428	0.05256081	-0.02994744	0	0	0	0
14.65094	0.05256081	-0.02994744	0	0	0	0
14.66794	0.05256081	-0.02994744	0	0	0	0
14.68451	0.05256081	-0.02994744	0	0	0	0
14.70108	0.05256081	-0.02994744	0	0	0	0
14.71765	0.05256081	-0.02994744	0	0	0	0
14.73421	0.05256081	-0.02994744	0	0	0	0
14.75078	0.05256081	-0.02994744	0	0	0	0
14.77517	0.05256081	-0.02994744	0	0	0	0
14.79174	0.05256081	-0.02994744	0	0	0	0
14.80831	0.05256081	-0.02994744	0	0	0	0
14.82488	0.05256081	-0.02994744	0	0	0	0
14.84152	0.05256081	-0.02994744	0	0	0	0
14.85801	0.05256081	-0.02994744	0	0	0	0
14.87458	0.05256081	-0.02994744	0	0	0	0
14.89114	0.05256081	-0.02994744	0	0	0	0
14.908	0.05256081	-0.02994744	0	0	0	0
14.92428	0.05256081	-0.02994744	0	0	0	0
14.94132	0.05256081	-0.02994744	0	0	0	0
14.95741	0.05256081	-0.02994744	0	0	0	0
14.97398	0.05256081	-0.02994744	0	0	0	0
14.99054	0.05256081	-0.02994744	0	0	0	0
15.00711	0.05256081	-0.02994744	0	0	0	0
15.02367	0.05256081	-0.02994744	0	0	0	0
15.04024	0.05256081	-0.02994744	0	0	0	0
15.05681	0.05256081	-0.02994744	0	0	0	0
15.07337	0.05256081	-0.02994744	0	0	0	0
15.08994	0.05256081	-0.02994744	0	0	0	0
15.10651	0.05256081	-0.02994744	0	0	0	0
15.12307	0.05256081	-0.02994744	0	0	0	0
15.13964	0.05256081	-0.02994744	0	0	0	0
15.15621	0.05256081	-0.02994744	0	0	0	0
15.17277	0.05256081	-0.02994744	0	0	0	0
15.18934	0.05256081	-0.02994744	0	0	0	0
15.20591	0.05256081	-0.02994744	0	0	0	0
15.22247	0.05256081	-0.02994744	0	0	0	0
15.23904	0.05256081	-0.02994744	0	0	0	0
15.25561	0.05256081	-0.02994744	0	0	0	0
15.27217	0.05256081	-0.02994744	0	0	0	0
15.28875	0.05256081	-0.02994744	0	0	0	0
15.30543	0.05256081	-0.02994744	0	0	0	0
15.32228	0.05256081	-0.02994744	0	0	0	0
15.33844	0.05256081	-0.02994744	0	0	0	0
15.35553	0.05256081	-0.02994744	0	0	0	0
15.37157	0.05256081	-0.02994744	0	0	0	0
15.38853	0.05256081	-0.02994744	0	0	0	0
15.40471	0.05256081	-0.02994744	0	0	0	0
15.42127	0.05256081	-0.02994744	0	0	0	0
15.43784	0.05256081	-0.02994744	0	0	0	0
15.45447	0.05256081	-0.02994744	0	0	0	0
15.47097	0.05256081	-0.02994744	0	0	0	0
15.48754	0.05256081	-0.02994744	0	0	0	0
15.50413	0.05256081	-0.02994744	0	0	0	0
15.52067	0.05256081	-0.02994744	0	0	0	0
15.53763	0.05256081	-0.02994744	0	0	0	0
15.55381	0.05256081	-0.02994744	0	0	0	0
15.57037	0.05256081	-0.02994744	0	0	0	0
15.58694	0.05256081	-0.02994744	0	0	0	0
15.60385	0.05256081	-0.02994744	0	0	0	0
15.6203	0.05256081	-0.02994744	0	0	0	0
15.63664	0.05256081	-0.02994744	0	0	0	0
15.65321	0.05256081	-0.02994744	0	0	0	0
15.66977	0.05256081	-0.02994744	0	0	0	0
15.68641	0.05256081	-0.02994744	0	0	0	0
15.70301	0.05256081	-0.02994744	0	0	0	0
15.71947	0.05256081	-0.02994744	0	0	0	0
15.73604	0.05256081	-0.02994744	0	0	0	0
15.75261	0.05256081	-0.02994744	0	0	0	0
15.76917	0.05256081	-0.02994744	0	0	0	0
15.78602	0.05256081	-0.02994744	0	0	0	0
15.80231	0.05256081	-0.02994744	0	0	0	0
15.82002	0.05256081	-0.02994744	0	0	0	0
15.83659	0.04278206	-0.04094854	-0.5902129	-0.6639893	-17.21559	-19.36753
15.85316	0.03789268	-0.04828261	-0.2951403	-0.442711	8.905309	6.678194
15.86998	0.0220022	-0.07395184	-0.944365	-1.525512	-19.44199	-32.42609
15.88629	-0.002444689	-0.1142892	-1.499001	-2.473353	-16.73848	-28.60505
15.90285	-0.03667034	-0.1766288	-2.066221	-3.763474	-17.2548	-39.24542
15.91969	-0.06600661	-0.2365237	-1.742752	-3.558117	9.685394	6.148815
15.93599	-0.08434176	-0.2817504	-1.124645	-2.774126	18.65342	23.65954
15.95256	-0.1002323	-0.3245325	-0.9592069	-2.582479	5.033201	5.830565
15.96912	-0.106344	-0.3428676	-0.3689253	-1.106775	17.81576	44.53942
15.9857	-0.110011	-0.3538687	-0.2211898	-0.6635699	4.457254	13.37171
16.00228	-0.1124557	-0.3612028	-0.1474435	-0.4423297	2.224004	6.672051
16.01882	-0.1124557	-0.3648698	9.008879E-07	-0.2216995	4.451675	6.661316
16.03539	-0.113678	-0.3673145	-0.07378118	-0.1475614	-2.228544	2.239296
16.05196	-0.113678	-0.3685369	-4.497179E-07	-0.07378072	2.226707	2.226707
16.06853	-0.113678	-0.3685369	0	0	1.357251E-05	2.226707
16.08509	-0.113678	-0.3685369	0	0	0	0
16.10318	-0.113678	-0.3685369	0	0	0	0
16.11975	-0.113678	-0.3685369	0	0	0	0
16.13816	-0.113678	-0.3697592	4.044993E-07	-0.06636377	1.156158E-05	-1.89684
16.15532	-0.113678	-0.3709815	4.342208E-07	-0.07123652	8.353933E-07	-0.1369604
16.17255	-0.113678	-0.3709815	0	0	-1.262935E-05	2.071921
16.18912	-0.113678	-0.3709815	0	0	0	0
16.20576	-0.113678	-0.3709815	0	0	0	0
16.22231	-0.113678	-0.3709815	0	0	0	0
16.23882	-0.1112334	-0.3697592	0.1480895	0.07404318	4.4807	2.240302
16.30483	-0.106344	-0.3636475	0.0740665	0.09258343	-0.8970158	0.2246719
16.3214	-0.05011613	-0.2524141	3.393139	6.712513	40.19007	80.15958
16.33796	-0.04155971	-0.2230779	0.5165849	1.771148	-86.81457	-149.1307
16.35453	-0.03667033	-0.1974086	0.2950896	1.54922	-6.685127	-6.698172
16.3711	-0.0330033	-0.1729617	0.2213426	1.475617	-2.22556	-2.221223
16.38766	-0.03055861	-0.1534042	0.1475955	1.180765	-2.225948	-8.899673
16.40423	-0.02689158	-0.1375137	0.2213173	0.9590417	2.225054	-6.692016
16.4208	-0.02566923	-0.124068	0.07379783	0.8117758	-4.452402	-4.44475
16.43736	-0.02322455	-0.1106222	0.1475617	0.8115889	2.226454	-0.005641911
16.45393	-0.0220022	-0.1008434	0.07378083	0.5902472	-2.22671	-6.680107
16.4705	-0.0220022	-0.0947317	0	0.3689466	-2.226838	-6.67925
16.48706	-0.02077986	-0.09106467	0.07378083	0.2213426	2.226838	-4.454952
16.50363	-0.01955751	-0.08984232	0.07377245	0.07377268	-0.0002529518	-4.453413
16.5202	-0.01955751	-0.08739763	0	0.1475954	-2.226585	2.228103
16.53679	-0.01955751	-0.08739763	0	0	0	-4.451877
16.55333	-0.01955751	-0.08739763	0	0	0	0
16.5699	-0.01955751	-0.08739763	0	0	0	0
16.58663	-0.01955751	-0.08739763	0	0	0	0
16.60303	-0.01955751	-0.08739763	0	0	0	0
16.6199	-0.01955751	-0.08739763	0	0	0	0
16.63616	-0.01955751	-0.08739763	0	0	0	0
16.65278	-0.01955751	-0.08739763	0	0	0	0
16.6693	-0.01955751	-0.08739763	0	0	0	0
16.68588	-0.01955751	-0.08739763	0	0	0	0
16.70243	-0.01955751	-0.08739763	0	0	0	0
16.719	-0.01955751	-0.08739763	0	0	0	0
16.73557	-0.01833517	-0.08495294	0.07378095	0.1475619	2.226713	4.453427
16.75213	-0.01466813	-0.08128591	0.2213425	0.2213426	4.453415	2.226707
16.7687	-0.01222344	-0.07761887	0.1475617	0.2213426	-2.226707	0
16.78527	-0.009778756	-0.07517418	0.1475617	0.1475619	0	-2.226707
16.80188	-0.004889378	-0.06906247	0.2942764	0.3678449	4.421496	6.6386
16.8184	-0.002444689	-0.06661777	0.1479876	0.1479883	-4.415005	-6.635285
16.83497	-0.001222344	-0.06539543	0.07378086	0.07378072	-2.242793	-2.242816
16.85154	0	-0.06417309	0.07378086	0.07378072	0	0
16.8681	0.001222344	-0.06295074	0.07378086	0.07378118	0	1.37164E-05
16.88467	0.001222344	-0.06295074	0	0	-2.226711	-2.22672
16.90289	0.001222344	-0.06295074	0	0	0	0
16.91956	0.002444689	-0.06295075	0.07331662	-4.468882E-07	2.101182	-1.280738E-05
16.93603	0.002444689	-0.0617284	0	0.07424273	-2.212573	2.240535
16.95259	0.002444689	-0.0617284	0	0	0	-2.247766
16.96916	0.002444689	-0.0617284	0	0	0	0
16.98573	0.002444689	-0.0617284	0	0	0	0
17.00229	0.002444689	-0.0617284	0	0	0	0
17.01911	0.003667033	-0.0617284	0.07270938	0	2.178323	0
17.03556	0.003667033	-0.0617284	0	0	-2.185692	0
17.05199	0.003667033	-0.0617284	0	0	0	0
17.06856	0.003667033	-0.0617284	0	0	0	0
17.08513	0.003667033	-0.0617284	0	0	0	0
17.10181	0.003667033	-0.0617284	0	0	0	0
17.11826	0.003667033	-0.0617284	0	0	0	0
17.13483	0.003667033	-0.0617284	0	0	0	0
17.1514	0.003667033	-0.0617284	0	0	0	0
17.16813	0.003667033	-0.0617284	0	0	0	0
17.18453	0.003667033	-0.0617284	0	0	0	0
17.2011	0.003667033	-0.0617284	0	0	0	0
17.21766	0.003667033	-0.0617284	0	0	0	0
17.23423	0.003667033	-0.0617284	0	0	0	0
17.2508	0.003667033	-0.0617284	0	0	0	0
17.26737	0.003667033	-0.0617284	0	0	0	0
17.28408	0.003667033	-0.0617284	0	0	0	0
17.3007	0.003667033	-0.0617284	0	0	0	0
17.31706	0.003667033	-0.0617284	0	0	0	0
17.33363	0.003667033	-0.0617284	0	0	0	0
17.3502	0.003667033	-0.0617284	0	0	0	0
17.36676	0.003667033	-0.0617284	0	0	0	0
17.38333	0.003667033	-0.0617284	0	0	0	0
17.3999	0.003667033	-0.0617284	0	0	0	0
17.41671	0.003667033	-0.0617284	0	0	0	0
17.43303	0.003667033	-0.0617284	0	0	0	0
17.4496	0.003667033	-0.0617284	0	0	0	0
17.46617	0.003667033	-0.0617284	0	0	0	0
17.48273	0.003667033	-0.0617284	0	0	0	0
17.4993	0.003667033	-0.0617284	0	0	0	0
17.51587	0.003667033	-0.0617284	0	0	0	0
17.53243	0.003667033	-0.0617284	0	0	0	0
17.549	0.003667033	-0.0617284	0	0	0	0
17.56557	0.003667033	-0.0617284	0	0	0	0
17.58213	0.003667033	-0.0617284	0	0	0	0
17.59939	0.003667033	-0.0617284	0	0	0	0
17.61527	0.003667033	-0.0617284	0	0	0	0
17.63195	0.003667033	-0.0617284	0	0	0	0
17.64852	0.003667033	-0.0617284	0	0	0	0
17.66509	0.003667033	-0.0617284	0	0	0	0
17.6817	0.003667033	-0.0617284	0	0	0	0
17.69822	0.003667033	-0.0617284	0	0	0	0
17.71479	0.003667033	-0.0617284	0	0	0	0
17.73136	0.003667033	-0.0617284	0	0	0	0
17.74792	0.003667033	-0.0617284	0	0	0	0
17.76449	0.003667033	-0.0617284	0	0	0	0
17.78106	0.003667033	-0.0617284	0	0	0	0
17.79762	0.003667033	-0.0617284	0	0	0	0
17.81419	0.003667033	-0.0617284	0	0	0	0
17.83076	0.003667033	-0.0617284	0	0	0	0
17.84732	0.003667033	-0.0617284	0	0	0	0
17.86389	0.003667034	-0.06050605	1.405369E-08	0.07378072	4.241411E-07	2.226707
17.88046	0.004889378	-0.05928371	0.07378934	0.07378945	2.227095	0.000263325
17.89703	0.006111722	-0.05806137	0.07377237	0.07377223	-0.0005122288	-0.0005196491
17.91359	0.007334067	-0.05683902	0.07378936	0.07378945	0.0005126785	0.0005196491
17.93016	0.008556412	-0.05561667	0.07378086	0.07378095	-0.000256354	-0.0002565788
17.94676	0.0110011	-0.05561667	0.1472396	0	2.214567	-2.224281
17.96333	0.01222344	-0.05317198	0.07378089	0.1475617	-2.214566	4.448555
17.9799	0.01344579	-0.05317198	0.07378089	0	0	-4.45342
17.99659	0.01466813	-0.05194964	0.07322445	0.07322456	-0.01673003	2.201557
18.01303	0.01466813	-0.05194964	0	0	-2.210045	-2.210049
18.0296	0.01589048	-0.05194964	0.07378089	0	2.235333	0
18.04627	0.01589048	-0.05194964	0	0	-2.219557	0
18.06284	0.01589048	-0.05194964	0	0	0	0
18.0794	0.01589048	-0.05194964	0	0	0	0
18.09616	0.01589048	-0.05194964	0	0	0	0
18.11263	0.01589048	-0.05194964	0	0	0	0
18.12911	0.01589048	-0.05194964	0	0	0	0
18.14567	0.01589048	-0.05194964	0	0	0	0
18.16316	0.01589048	-0.05194964	0	0	0	0
18.17973	0.01589048	-0.05194964	0	0	0	0
18.1963	0.01589048	-0.05194964	0	0	0	0
18.21287	0.01589048	-0.05194964	0	0	0	0
18.22943	0.01589048	-0.05194964	0	0	0	0
18.24642	0.01589048	-0.05194964	0	0	0	0
18.26299	0.01589048	-0.05194964	0	0	0	0
18.27955	0.01589048	-0.05194964	0	0	0	0
18.29612	0.01589048	-0.05194964	0	0	0	0
18.31269	0.01589048	-0.05194964	0	0	0	0
18.32926	0.01589048	-0.05194964	0	0	0	0
18.34582	0.01589048	-0.05194964	0	0	0	0
18.36239	0.01589048	-0.05194964	0	0	0	0
18.37895	0.01589048	-0.05194964	0	0	0	0
18.39556	0.01589048	-0.05194964	0	0	0	0
18.41209	0.01589048	-0.05194964	0	0	0	0
18.42865	0.01589048	-0.05194964	0	0	0	0
18.44522	0.01589048	-0.05194964	0	0	0	0
18.46179	0.01589048	-0.05194964	0	0	0	0
18.47835	0.01589048	-0.05194964	0	0	0	0
18.49492	0.01589048	-0.05194964	0	0	0	0
18.51149	0.01589048	-0.05194964	0	0	0	0
18.52805	0.01589048	-0.05194964	0	0	0	0
18.54462	0.01589048	-0.05194964	0	0	0	0
18.56119	0.01589048	-0.05194964	0	0	0	0
18.5778	0.01589048	-0.05194964	0	0	0	0
18.59442	0.01589048	-0.05194964	0	0	0	0
18.61089	0.01589048	-0.05194964	0	0	0	0
18.62745	0.01589048	-0.05194964	0	0	0	0
18.64402	0.01589048	-0.05194964	0	0	0	0
18.66059	0.01589048	-0.05194964	0	0	0	0
18.67715	0.01589048	-0.05194964	0	0	0	0
18.69372	0.01589048	-0.05194964	0	0	0	0
18.71029	0.01589048	-0.05194964	0	0	0	0
18.72686	0.01589048	-0.05194964	0	0	0	0
18.74342	0.01589048	-0.05194964	0	0	0	0
18.76007	0.01589048	-0.05194964	0	0	0	0
18.7767	0.01589048	-0.05194964	0	0	0	0
18.79379	0.01589048	-0.05194964	0	0	0	0
18.80969	0.01589048	-0.05194964	0	0	0	0
18.82626	0.01589048	-0.05194964	0	0	0	0
18.84282	0.01589048	-0.05194964	0	0	0	0
18.85939	0.01589048	-0.05194964	0	0	0	0
18.87596	0.01589048	-0.05194964	0	0	0	0
18.89252	0.01589048	-0.05194964	0	0	0	0
18.90909	0.01589048	-0.05194964	0	0	0	0
18.92583	0.01589048	-0.05194964	0	0	0	0
18.94237	0.01589048	-0.05194964	0	0	0	0
18.95879	0.01589048	-0.05194964	0	0	0	0
18.97589	0.01589048	-0.05194964	0	0	0	0
18.99246	0.01589048	-0.05194964	0	0	0	0
19.00903	0.01589048	-0.05194964	0	0	0	0
19.0256	0.01589048	-0.05194964	0	0	0	0
19.04216	0.01589048	-0.05194964	0	0	0	0
19.05948	0.01589048	-0.05194964	0	0	0	0
19.0753	0.01589048	-0.05194964	0	0	0	0
19.09187	0.01589048	-0.05194964	0	0	0	0
19.10843	0.01589048	-0.05194964	0	0	0	0
19.12563	0.01589048	-0.05194964	0	0	0	0
19.14157	0.01589048	-0.05194964	0	0	0	0
19.15825	0.01589048	-0.05194964	0	0	0	0
19.1747	0.01589048	-0.05194964	0	0	0	0
19.19127	0.01589048	-0.05194964	0	0	0	0
19.20783	0.01589048	-0.05194964	0	0	0	0
19.22474	0.01589048	-0.05194964	0	0	0	0
19.24096	0.01589048	-0.05194964	0	0	0	0
19.25753	0.01589048	-0.05194964	0	0	0	0
19.2741	0.01589048	-0.05194964	0	0	0	0
19.29074	0.01589048	-0.05194964	0	0	0	0
19.30723	0.01589048	-0.05194964	0	0	0	0
19.3238	0.01589048	-0.05194964	0	0	0	0
19.34047	0.01589048	-0.05194964	0	0	0	0
19.35694	0.01589048	-0.05194964	0	0	0	0
19.3735	0.01589048	-0.05194964	0	0	0	0
19.3903	0.01589048	-0.05194964	0	0	0	0
19.40714	0.01589048	-0.05194964	0	0	0	0
19.42342	0.01589048	-0.05194964	0	0	0	0
19.43977	0.01589048	-0.05194964	0	0	0	0
19.45725	0.01589048	-0.05194964	0	0	0	0
19.47381	0.01589048	-0.05194964	0	0	0	0
19.49038	0.01589048	-0.05194964	0	0	0	0
19.50695	0.01589048	-0.05194964	0	0	0	0
19.52408	0.01589048	-0.05194964	0	0	0	0
19.54065	0.01589048	-0.05194964	0	0	0	0
19.55722	0.01589048	-0.05194964	0	0	0	0
19.57379	0.01589048	-0.05194964	0	0	0	0
19.59035	0.01589048	-0.05194964	0	0	0	0
19.60697	0.01589048	-0.05194964	0	0	0	0
19.62349	0.01589048	-0.05194964	0	0	0	0
19.64005	0.01589048	-0.05194964	0	0	0	0
19.65662	0.01589048	-0.05194964	0	0	0	0
19.67319	0.01589048	-0.05194964	0	0	0	0
19.68981	0.01589048	-0.05194964	0	0	0	0
19.70632	0.01589048	-0.05194964	0	0	0	0
19.72302	0.01589048	-0.05194964	0	0	0	0
19.73953	0.01589048	-0.05194964	0	0	0	0
19.75624	0.01589048	-0.05194964	0	0	0	0
19.773	0.01589048	-0.05194964	0	0	0	0
19.78917	0.01589048	-0.05194964	0	0	0	0
19.80576	0.01589048	-0.05194964	0	0	0	0
19.82229	0.01589048	-0.05194964	0	0	0	0
19.83886	0.01589048	-0.05194964	0	0	0	0
19.85542	0.01589048	-0.05194964	0	0	0	0
19.87199	0.01589048	-0.05194964	0	0	0	0
19.88856	0.01589048	-0.05194964	0	0	0	0
19.90512	0.01589048	-0.05194964	0	0	0	0
19.92169	0.01589048	-0.05194964	0	0	0	0
19.93826	0.01589048	-0.05194964	0	0	0	0
19.95482	0.01589048	-0.05194964	0	0	0	0
19.97142	0.01589048	-0.05194964	0	0	0	0
19.9882	0.01589048	-0.05194964	0	0	0	0
20.00452	0.01589048	-0.05194964	0	0	0	0
20.02302	0.01589048	-0.05194964	0	0	0	0
20.03959	0.01589048	-0.05194964	0	0	0	0
20.05615	0.01589048	-0.05194964	0	0	0	0
20.07272	0.01589048	-0.05194964	0	0	0	0
20.08929	0.01589048	-0.05194964	0	0	0	0
20.10586	0.01589048	-0.05194964	0	0	0	0
20.12247	0.01589048	-0.05194964	0	0	0	0
20.13899	0.01589048	-0.05194964	0	0	0	0
20.15556	0.01589048	-0.05194964	0	0	0	0
20.17212	0.01589048	-0.05194964	0	0	0	0
20.18868	0.01589048	-0.05194964	0	0	0	0
20.20538	0.01589048	-0.05194964	0	0	0	0
20.22182	0.01589048	-0.05194964	0	0	0	0
20.23839	0.01589048	-0.05194964	0	0	0	0
20.25549	0.01589048	-0.05194964	0	0	0	0
20.27152	0.01589048	-0.05194964	0	0	0	0
20.28809	0.01589048	-0.05194964	0	0	0	0
20.30465	0.01589048	-0.05194964	0	0	0	0
20.32122	0.01589048	-0.05194964	0	0	0	0
20.33779	0.01589048	-0.05194964	0	0	0	0
20.35435	0.01589048	-0.05194964	0	0	0	0
20.37092	0.01589048	-0.05194964	0	0	0	0
20.38749	0.01589048	-0.05194964	0	0	0	0
20.40432	0.01589048	-0.05194964	0	0	0	0
20.42062	0.01589048	-0.05194964	0	0	0	0
20.43719	0.01589048	-0.05194964	0	0	0	0
20.45375	0.01589048	-0.05194964	0	0	0	0
20.47032	0.01589048	-0.05194964	0	0	0	0
20.48689	0.01466813	-0.06050605	-0.07378939	-0.5165257	-2.227096	-15.58967
20.50355	0.01344579	-0.08128591	-0.07335021	-1.246953	0.01321627	-21.98108
20.52002	0.01344579	-0.124068	0	-2.597582	2.213714	-40.76207
20.53659	0.01955751	-0.1900746	0.3688618	-3.983708	11.1644	-41.95412
20.55319	0.0330033	-0.2548588	0.8101903	-3.903643	13.30706	2.414136
20.56972	0.05867254	-0.3196431	1.552436	-3.918056	22.40361	-0.4350173
20.58637	0.08923115	-0.3807603	1.835645	-3.67129	8.534981	7.436713
20.60286	0.09534287	-0.3917614	0.3706537	-0.6671776	-44.21099	90.65907
20.61965	0.0990099	-0.4027625	0.218376	-0.6551266	-4.575469	0.3620945
20.63599	0.0990099	-0.4039848	0	-0.07480558	-6.590979	17.51513
20.65256	0.0990099	-0.4039848	0	0	0	2.27334
20.66912	0.0990099	-0.4039848	0	0	0	0
20.68663	0.0990099	-0.4039848	0	0	0	0
20.70226	0.0990099	-0.4039848	0	0	0	0
20.72372	0.0990099	-0.4039848	0	0	0	0
20.74029	0.0990099	-0.4039848	0	0	0	0
20.75685	0.0990099	-0.4039848	0	0	0	0
20.77342	0.0990099	-0.4039848	0	0	0	0
20.78999	0.0990099	-0.4039848	0	0	0	0
20.80965	0.0990099	-0.4039848	0	0	0	0
20.82622	0.0990099	-0.4039848	0	0	0	0
20.84279	0.0990099	-0.4039848	0	0	0	0
20.85936	0.0990099	-0.4039848	0	0	0	0
20.87593	0.09900991	-0.4015402	4.496662E-07	0.1475445	1.357095E-05	4.4529
20.89278	0.0990099	-0.3990955	-4.420335E-07	0.14504	-2.667812E-05	-0.07492805
20.90935	0.0990099	-0.3954284	0	0.2213695	1.322639E-05	2.283906
20.92567	0.09778756	-0.3880944	-0.07486675	0.4492005	-2.276123	6.926592
20.94219	0.09656522	-0.3770933	-0.07400224	0.6660202	0.02632136	6.60139
20.95876	0.09656522	-0.3624251	0	0.8853705	2.23674	6.629929
20.97532	0.09534287	-0.347757	-0.07378072	0.8853705	-2.226707	0
20.99189	0.09412052	-0.3294218	-0.07378967	1.106842	-0.0002700712	6.684406
21.00846	0.09045349	-0.3110867	-0.2213426	1.106711	-4.453413	-0.003954148
21.02502	0.0880088	-0.2927515	-0.1475619	1.106714	2.226707	0.0001079323
21.04159	0.08189709	-0.2719716	-0.3689036	1.254274	-6.680107	4.453359
21.06091	0.0794524	-0.2573035	-0.1265774	0.7594635	6.753601	-13.79031
21.07747	0.07578536	-0.2426354	-0.2213171	0.8852677	-2.640244	3.505958
21.09404	0.07334066	-0.234079	-0.1475624	0.5164669	2.225796	-11.12979
21.11061	0.06967364	-0.2255226	-0.2213422	0.5164651	-2.226679	-5.396615E-05
21.12718	0.06356192	-0.2120768	-0.3689041	0.8115898	-4.453427	8.906881
21.14374	0.05867254	-0.1961863	-0.2951576	0.9592617	2.225803	4.457003
21.16031	0.05378316	-0.1851852	-0.2951233	0.6640274	0.001032612	-8.910701
21.17688	0.04889378	-0.1741841	-0.2951233	0.6640274	0	0
21.19344	0.0440044	-0.1619606	-0.2951236	0.7378091	-7.195487E-06	2.226735
21.21028	0.03911502	-0.1472925	-0.2904423	0.8713266	0.140153	3.997352
21.22709	0.03422565	-0.1338467	-0.2908045	0.7997119	-0.01076505	-2.128376
21.24314	0.02933627	-0.1204009	-0.3045915	0.8376275	-0.4194992	1.153657
21.25971	0.02811392	-0.1155116	-0.07376385	0.2950554	7.075549	-16.63143
21.27628	0.02689158	-0.1118445	-0.07380644	0.2214191	-0.001285368	-2.222476
21.29303	0.02566923	-0.1093998	-0.07295769	0.1459152	0.02547617	-2.26632
21.30941	0.02566923	-0.1081775	0	0.0746318	2.201994	-2.15146
21.32598	0.02566923	-0.1081775	0	0	0	-2.265171
21.34254	0.02566923	-0.1081775	0	0	0	0
21.35911	0.02566923	-0.1081775	0	0	0	0
21.37568	0.02566923	-0.1081775	0	0	0	0
21.39224	0.02566923	-0.1069551	0	0.07378922	0	2.227219
21.40884	0.02566923	-0.1069551	0	0	0	-2.224914
21.42554	0.02566923	-0.1069551	0	0	0	0
21.44208	0.02566923	-0.1069551	0	0	0	0
21.45851	0.02566923	-0.1069551	0	0	0	0
21.47508	0.02566923	-0.1069551	0	0	0	0
21.49164	0.02566923	-0.1069551	0	0	0	0
21.50821	0.02566923	-0.1045105	0	0.1475614	0	4.45367
21.52478	0.02566923	-0.1020658	0	0.1475619	0	1.349154E-05
21.54149	0.02566923	-0.1008434	0	0.07311573	0	-2.236619
21.55791	0.02566923	-0.1008434	0	0	0	-2.206637
21.57448	0.02566923	-0.09595405	0	0.2951233	0	8.94753
21.59105	0.0220022	-0.0837306	-0.2213425	0.7378086	-6.68013	13.36027
21.60761	0.02077986	-0.08128591	-0.07378095	0.1475619	4.453417	-17.81368
21.62418	0.02077986	-0.08128591	0	0	2.226841	-4.453683
21.64075	0.02077986	-0.08128591	0	0	0	0
21.65754	0.02077986	-0.08128591	0	0	0	0
21.67388	0.02077986	-0.08128591	0	0	0	0
21.69045	0.02077986	-0.08128591	0	0	0	0
21.77843	0.02077986	-0.08128591	0	0	0	0
21.80349	0.02077986	-0.08128591	0	0	0	0
21.8204	0.02077986	-0.08128591	0	0	0	0
21.83785	0.02077986	-0.08128591	0	0	0	0
21.85516	0.02077986	-0.08128591	0	0	0	0
21.87295	0.02077986	-0.08128591	0	0	0	0
21.88962	0.02077986	-0.08128591	0	0	0	0
21.90608	0.02077986	-0.08128591	0	0	0	0
21.92265	0.02077986	-0.08128591	0	0	0	0
21.93921	0.02077986	-0.08128591	0	0	0	0
21.95578	0.02077986	-0.08128591	0	0	0	0
21.97235	0.02077986	-0.08128591	0	0	0	0
21.98891	0.02077986	-0.08128591	0	0	0	0
22.00548	0.02077986	-0.08128591	0	0	0	0
22.02205	0.02077986	-0.08128591	0	0	0	0
22.03882	0.02077986	-0.08128591	0	0	0	0
22.05518	0.02077986	-0.08128591	0	0	0	0
22.07175	0.02077986	-0.08128591	0	0	0	0
22.08832	0.02077986	-0.08128591	0	0	0	0
22.10517	0.02077986	-0.08128591	0	0	0	0
22.12145	0.02077986	-0.08128591	0	0	0	0
22.13802	0.02077986	-0.08128591	0	0	0	0
22.15458	0.02077986	-0.08128591	0	0	0	0
22.17115	0.02077986	-0.08128591	0	0	0	0
22.18772	0.02077986	-0.08128591	0	0	0	0
22.20744	0.02077986	-0.08128591	0	0	0	0
22.22401	0.02077986	-0.08128591	0	0	0	0
22.24092	0.02077986	-0.08128591	0	0	0	0
22.25715	0.02077986	-0.08128591	0	0	0	0
22.27371	0.02077986	-0.08128591	0	0	0	0
22.29028	0.02077986	-0.08128591	0	0	0	0
22.30705	0.02077986	-0.08128591	0	0	0	0
22.32341	0.02077986	-0.08128591	0	0	0	0
22.33998	0.02077986	-0.08128591	0	0	0	0
22.35655	0.02077986	-0.08128591	0	0	0	0
22.37312	0.02077986	-0.08128591	0	0	0	0
22.38968	0.02077986	-0.08128591	0	0	0	0
22.40625	0.02077986	-0.08128591	0	0	0	0
22.42281	0.02077986	-0.08128591	0	0	0	0
22.43938	0.02077986	-0.08128591	0	0	0	0
22.45595	0.01589048	-0.08128592	-0.2950894	-4.496662E-07	-8.905302	-1.357017E-05
22.47252	0.01466813	-0.08128591	-0.07378089	4.497179E-07	6.678719	2.71419E-05
22.48908	0.01466813	-0.08128591	0	0	2.226712	-1.357251E-05
22.50628	0.01466813	-0.08128591	0	0	0	0
22.52242	0.01466813	-0.08128591	0	0	0	0
22.53882	0.01466813	-0.08128591	0	0	0	0
22.55542	0.01466813	-0.08128591	0	0	0	0
22.57191	0.01466813	-0.08006356	-5.646175E-08	0.07410537	-1.705983E-06	2.239082
22.58848	0.01833517	-0.07639653	0.2213426	0.2213422	6.69478	4.453357
22.6052	0.01955751	-0.0727295	0.07313264	0.2193977	-4.453248	-0.05842563
22.62161	0.0220022	-0.07028481	0.1488988	0.148899	2.286758	-2.127777
22.63818	0.02322455	-0.06906246	0.07378083	0.07378072	-2.277289	-2.277299
22.65591	0.02322455	-0.06784012	0	0.06894668	-2.151293	-0.1409504
22.67248	0.02444689	-0.06661777	0.07378083	0.07378118	2.151293	0.1409637
22.68904	0.02444689	-0.06661777	0	0	-2.22671	-2.22672
22.70561	0.02444689	-0.06661777	0	0	0	0
22.72218	0.02444689	-0.06661777	0	0	0	0
22.73971	0.02444689	-0.06661777	0	0	0	0
22.75566	0.02444689	-0.06661777	0	0	0	0
22.7719	0.02444689	-0.06661777	0	0	0	0
22.78861	0.02444689	-0.06661777	0	0	0	0
22.80501	0.02444689	-0.06661777	0	0	0	0
22.82484	0.02444689	-0.06661777	0	0	0	0
22.84141	0.02444689	-0.06661777	0	0	0	0
22.85798	0.02444689	-0.06661777	0	0	0	0
22.87704	0.02444689	-0.06661777	0	0	0	0
22.89361	0.02444689	-0.06661777	0	0	0	0
22.9102	0.02444689	-0.06661777	0	0	0	0
22.92674	0.02444689	-0.06661777	0	0	0	0
22.94331	0.02444689	-0.06661777	0	0	0	0
22.95988	0.02444689	-0.06661777	0	0	0	0
22.97675	0.02444689	-0.06661777	0	0	0	0
22.99301	0.02444689	-0.06661777	0	0	0	0
23.00958	0.02444689	-0.06661777	0	0	0	0
23.02614	0.02444689	-0.06661777	0	0	0	0
23.04271	0.02444689	-0.06661777	0	0	0	0
23.05981	0.02444689	-0.06661777	0	0	0	0
23.07635	0.02444689	-0.06661777	0	0	0	0
23.09241	0.02444689	-0.06661777	0	0	0	0
23.109	0.02444689	-0.06661777	0	0	0	0
23.12634	0.02444689	-0.06661777	0	0	0	0
23.14211	0.02077986	-0.06539543	-0.2323924	0.07746396	-7.01806	2.339348
23.15911	0.01589048	-0.06295075	-0.2876394	0.1438194	-1.685502	2.024403
23.17525	0.01466813	-0.0617284	-0.07576077	0.07576112	6.394878	-2.054122
23.1919	0.01222344	-0.06050605	-0.146818	0.07340886	-2.167341	-0.07174692
23.20858	0.01222344	-0.0592837	-5.584186E-08	0.07329178	4.405108	-0.003513032
23.22748	0.01222344	-0.0592837	0	0	1.569235E-06	-2.059602
23.24405	0.01222345	-0.05806137	1.124295E-07	0.0737805	3.169279E-06	2.079802
23.26088	0.01222345	-0.05806137	0	0	-3.366194E-06	-2.209025
23.27719	0.01222345	-0.05806137	0	0	0	0
23.29375	0.01222345	-0.05806137	0	0	0	0
23.31065	0.01222344	-0.05683902	-5.511697E-08	0.07233992	-1.647125E-06	2.161819
23.32716	0.01222344	-0.05683902	0	0	1.64957E-06	-2.165028
23.34345	0.01222344	-0.05683902	0	0	0	0
23.36072	0.01222344	-0.05683902	0	0	0	0
23.37659	0.01222344	-0.05683902	0	0	0	0
23.39315	0.01222344	-0.05683902	0	0	0	0
23.40972	0.01222344	-0.05683902	0	0	0	0
23.42629	0.01222344	-0.05683902	0	0	0	0
23.44285	0.01222344	-0.05683902	0	0	0	0
23.45942	0.01222344	-0.05561667	0	0.07378118	0	2.226849
23.47615	0.01222344	-0.05439433	0	0.07304905	0	-0.02198544
23.49255	0.01344579	-0.05317198	0.07453603	0.07453609	2.249631	0.04488151
23.50912	0.01344579	-0.05194964	-5.621474E-08	0.07378072	-2.260957	-0.02291317
23.52568	0.01466813	-0.0482826	0.07378939	0.2213683	2.227098	4.454459
23.54225	0.01589048	-0.04461557	0.07378078	0.2213424	-0.0002597271	-0.0007825543
23.55882	0.01711282	-0.04094854	0.07377234	0.2213171	-0.0002547505	-0.000762228
23.57539	0.01711282	-0.03850385	0	0.1475619	-2.226326	-2.22581
23.59195	0.01833517	-0.03850385	0.07378945	-2.248849E-07	2.227098	-4.45369
23.60852	0.01833517	-0.03850385	0	0	-2.227098	6.787429E-06
23.62589	0.01833517	-0.03850385	0	0	0	0
23.64165	0.01833517	-0.03850385	0	0	0	0
23.65822	0.01833517	-0.03850385	0	0	0	0
23.67479	0.01833517	-0.03850385	0	0	0	0
23.69135	0.01833517	-0.03850385	0	0	0	0
23.70792	0.01833517	-0.03850385	0	0	0	0
23.72449	0.01833517	-0.03850385	0	0	0	0
23.74105	0.01833517	-0.03850385	0	0	0	0
23.75762	0.01833517	-0.03850385	0	0	0	0
23.77419	0.01833517	-0.03850385	0	0	0	0
23.79075	0.01833517	-0.03850385	0	0	0	0
23.80732	0.01833517	-0.03850385	0	0	0	0
23.82389	0.01833517	-0.03850385	0	0	0	0
23.84045	0.01833517	-0.03850385	0	0	0	0
23.85702	0.01833517	-0.03850385	0	0	0	0
23.87359	0.01833517	-0.03850385	0	0	0	0
23.89016	0.01833517	-0.03850385	0	0	0	0
23.90672	0.01833517	-0.03850385	0	0	0	0
23.92329	0.01833517	-0.03850385	0	0	0	0
23.93986	0.01833517	-0.03850385	0	0	0	0
23.95642	0.01833517	-0.03850385	0	0	0	0
23.97299	0.01833517	-0.03850385	0	0	0	0
23.98956	0.01833517	-0.03850385	0	0	0	0
24.00613	0.01833517	-0.03850385	0	0	0	0
24.02269	0.01833517	-0.03850385	0	0	0	0
24.03926	0.01833517	-0.03850385	0	0	0	0
24.05599	0.01833517	-0.03850385	0	0	0	0
24.07265	0.01833517	-0.03850385	0	0	0	0
24.08896	0.01833517	-0.03850385	0	0	0	0
24.10552	0.01833517	-0.03850385	0	0	0	0
24.12218	0.01833517	-0.03850385	0	0	0	0
24.13866	0.01833517	-0.03850385	0	0	0	0
24.15529	0.01833517	-0.03850385	0	0	0	0
24.17636	0.01833517	-0.03850385	0	0	0	0
24.19293	0.01833517	-0.03850385	0	0	0	0
24.2095	0.01833517	-0.03850385	0	0	0	0
24.2289	0.01833517	-0.03850385	0	0	0	0
24.24547	0.01833517	-0.03850385	0	0	0	0
24.26204	0.01833517	-0.03850385	0	0	0	0
24.27861	0.01833517	-0.03850385	0	0	0	0
24.29773	0.01833517	-0.03850385	0	0	0	0
24.31429	0.01833517	-0.03850385	0	0	0	0
24.33086	0.01833517	-0.03850385	0	0	0	0
24.34743	0.01833517	-0.03850385	0	0	0	0
24.36469	0.01833517	-0.03850385	0	0	0	0
24.38075	0.01833517	-0.03850385	0	0	0	0
24.39713	0.01833517	-0.03850385	0	0	0	0
24.4137	0.01833517	-0.03850385	0	0	0	0
24.43026	0.01833517	-0.03850385	0	0	0	0
24.44683	0.01833517	-0.03850385	0	0	0	0
24.46362	0.01833517	-0.03850385	0	0	0	0
24.47996	0.01833517	-0.03850385	0	0	0	0
24.49653	0.01833517	-0.03850385	0	0	0	0
24.5131	0.01833517	-0.03850385	0	0	0	0
24.52966	0.01833517	-0.03850385	0	0	0	0
24.54623	0.01833517	-0.03850385	0	0	0	0
24.5628	0.01833517	-0.03850385	0	0	0	0
24.57936	0.01833517	-0.03850385	0	0	0	0
24.59593	0.01833517	-0.03850385	0	0	0	0
24.6125	0.01833517	-0.03850385	0	0	0	0
24.62907	0.01833517	-0.03850385	0	0	0	0
24.64587	0.01833517	-0.03850385	0	0	0	0
24.6622	0.01833517	-0.03850385	0	0	0	0
24.67877	0.01833517	-0.03850385	0	0	0	0
24.6957	0.01833517	-0.03850385	0	0	0	0
24.7119	0.01833517	-0.03850385	0	0	0	0
24.72847	0.01833517	-0.03850385	0	0	0	0
24.74503	0.01833517	-0.03850385	0	0	0	0
24.7616	0.01833517	-0.03850385	0	0	0	0
24.77817	0.01833517	-0.03850385	0	0	0	0
24.79473	0.01833517	-0.03850385	0	0	0	0
24.8113	0.01833517	-0.03850385	0	0	0	0
24.82787	0.01833517	-0.03850385	0	0	0	0
24.84444	0.01833517	-0.03850385	0	0	0	0
24.861	0.01833517	-0.03850385	0	0	0	0
24.87757	0.01833517	-0.03850385	0	0	0	0
24.89413	0.01833517	-0.03850385	0	0	0	0
24.9107	0.01833517	-0.03850385	0	0	0	0
24.92732	0.01833517	-0.03850385	0	0	0	0
24.94399	0.01833517	-0.03850385	0	0	0	0
24.9604	0.01833517	-0.03850385	0	0	0	0
24.97697	0.01833517	-0.03850385	0	0	0	0
24.99353	0.01833517	-0.03850385	0	0	0	0
25.0101	0.01833517	-0.03850385	0	0	0	0
25.02667	0.01833517	-0.03850385	0	0	0	0
25.04324	0.01833517	-0.03850385	0	0	0	0
25.0598	0.01833517	-0.03850385	0	0	0	0
25.07637	0.01833517	-0.03850385	0	0	0	0
25.09339	0.01955751	-0.03850385	0.07180508	0	2.137551	0
25.1095	0.01955751	-0.04094854	0	-0.1517548	-2.167207	-4.580232
25.12607	0.0220022	-0.04461557	0.1475618	-0.2213426	4.515811	-2.129587
25.14264	0.02322455	-0.04950495	0.07377234	-0.2950894	-2.226842	-2.225553
25.1592	0.02444689	-0.05317198	0.07378934	-0.2213681	0.0005129033	2.224912
25.17577	0.02444689	-0.05439433	0	-0.07378095	-2.227095	4.454445
25.19234	0.02444689	-0.05439433	0	0	0	2.226841
25.2089	0.02444689	-0.05439433	0	0	0	0
25.22547	0.02444689	-0.05439433	0	0	0	0
25.24204	0.02444689	-0.05439433	0	0	0	0
25.25861	0.01344579	-0.05439433	-0.6640278	2.24859E-07	-20.0404	6.786257E-06
25.27546	-0.01344579	-0.05806136	-1.595624	-0.2175851	-27.87493	-6.510523
25.29174	-0.05256081	-0.06539543	-2.402757	-0.4505172	-24.36074	-7.030308
25.30831	-0.1075663	-0.07517419	-3.320139	-0.5902472	-27.9294	-4.254036
25.32487	-0.1662389	-0.08861998	-3.541074	-0.8114959	-6.667437	-6.676916
25.34221	-0.2249114	-0.1130669	-3.385198	-1.4105	4.597931	-17.6691
25.35877	-0.2921403	-0.1472925	-4.057948	-2.065865	-19.84553	-19.3327
25.37551	-0.3129202	-0.1607383	-1.241836	-0.8035405	84.56693	37.90718
25.39204	-0.322699	-0.16685	-0.5915415	-0.3697124	19.54939	13.04191
25.40848	-0.330033	-0.1717394	-0.4461773	-0.2974534	4.409182	2.191757
25.4257	-0.3361447	-0.1766288	-0.3547716	-0.2838164	2.715181	0.4050823
25.44161	-0.3434788	-0.1839629	-0.4611624	-0.4611624	-3.211251	-5.352929
25.45838	-0.3495905	-0.1900746	-0.3643731	-0.3643731	2.962028	2.962028
25.47474	-0.3532576	-0.1937416	-0.2241046	-0.2241037	4.233067	4.233094
25.49131	-0.3544799	-0.1949639	-0.07379591	-0.07379772	4.564969	4.564887
25.51347	-0.3544799	-0.1949639	0	0	1.905645	1.905692
25.53004	-0.3544799	-0.1949639	0	0	0	0
25.5466	-0.3544799	-0.1949639	0	0	0	0
25.56317	-0.3544799	-0.1949639	0	0	0	0
25.58513	-0.3544799	-0.1961863	-1.35669E-06	-0.05564465	-3.52092E-05	-1.444106
25.6017	-0.3544799	-0.1961863	0	0	3.520746E-05	1.444034
25.61827	-0.3544799	-0.1961863	0	0	0	0
25.63484	-0.3544799	-0.1961863	0	0	0	0
25.65162	-0.3532576	-0.1961863	0.07280838	0	2.182786	0
25.66797	-0.3385894	-0.1912969	0.8973545	0.2991176	24.88485	9.027386
25.68494	-0.3214766	-0.1851852	1.008548	0.3601961	3.337778	1.833434
25.7011	-0.3006968	-0.1778511	1.285501	0.4537058	8.358942	2.822289
25.71767	-0.2835839	-0.16685	1.032932	0.6640283	-7.716286	6.425593
25.73424	-0.2664711	-0.1546266	1.032932	0.7378091	0	2.226707
25.7508	-0.2505806	-0.1411808	0.959153	0.8115898	-2.226652	2.226707
25.76737	-0.2285784	-0.1252903	1.328054	0.9591512	11.13345	4.453413
25.7841	-0.1931304	-0.1008434	2.11867	1.46115	23.74328	15.07572
25.8005	-0.1699059	-0.08739763	1.416019	0.8198006	-21.20727	-19.35708
25.81707	-0.149126	-0.07639652	1.254275	0.6640283	-4.906003	-4.724877
25.83364	-0.1344579	-0.06539542	0.8853705	0.6640279	-11.13356	-1.439097E-05
25.85021	-0.1246791	-0.05683902	0.5902463	0.5164653	-8.906867	-4.453447
25.86718	-0.1149004	-0.05194964	0.5762489	0.2881247	-0.4173705	-6.808636
25.88334	-0.1075663	-0.04828261	0.4537602	0.2268799	-3.69693	-1.848478
25.89991	-0.1014546	-0.04461557	0.3689041	0.2213426	-2.592602	-0.1691793
25.9166	-0.09656522	-0.04094854	0.2929313	0.2196985	-2.284317	-0.04943332
25.93322	-0.09289818	-0.0397262	0.2205808	0.07352678	-2.171666	-4.38748
25.94961	-0.09045349	-0.03850385	0.149211	0.07460551	-2.162158	0.03268037
25.96646	-0.08923115	-0.03728151	0.07252002	0.07252023	-2.307234	-0.06273513
25.98274	-0.0880088	-0.03728151	0.0750953	0	0.07772653	-2.188791
25.99935	-0.08311943	-0.03605916	0.2943435	0.07358588	6.666427	2.237441
26.01587	-0.07823005	-0.03483682	0.2959073	0.07397684	0.047197	0.01179925
26.03244	-0.07089598	-0.03239213	0.4426848	0.1475617	4.435625	2.223739
26.04928	-0.06356192	-0.03116979	0.4354166	0.0725694	-0.2175387	-2.244537
26.06557	-0.05989488	-0.03116979	0.2251267	0	-6.346928	-2.190275
26.08214	-0.0550055	-0.02994744	0.2951238	0.07378107	2.130421	2.24559
26.09871	-0.05133847	-0.0287251	0.2213422	0.07378061	-2.226733	-1.37164E-05
26.11541	-0.04767143	-0.02750275	0.2195482	0.07318275	-0.05392072	-0.01797014
26.13184	-0.04278206	-0.02628041	0.2975556	0.07438879	2.354267	0.03639837
26.14841	-0.03789268	-0.02505806	0.2951233	0.07378095	-0.0737069	-0.01841995
26.16504	-0.0330033	-0.02383572	0.2939728	0.07349316	-0.034654	-0.008668437
26.18154	-0.02933627	-0.02139103	0.2222379	0.1481588	-2.16509	2.253543
26.19811	-0.02566924	-0.02139103	0.2213426	-1.124295E-07	-0.02707405	-4.480472
26.21501	-0.0220022	-0.01894634	0.2169224	0.1446149	-0.1320579	4.320469
26.23149	-0.02077986	-0.01894634	0.0741993	0	-4.275885	-4.332562
26.24781	-0.01955751	-0.01772399	0.07489323	0.07489323	0.0211595	2.283682
26.26438	-0.01711282	-0.01772399	0.1475617	0	2.209545	-2.277192
26.28094	-0.01466813	-0.01650165	0.1475788	0.07378934	0.0005163059	2.227095
26.29761	-0.008556412	-0.01405696	0.3667089	0.1466836	6.594001	2.193513
26.31408	-0.002444689	-0.01161227	0.3711261	0.1484504	0.1333117	0.05332216
26.33064	0.003667033	-0.01038993	0.3688618	0.0737724	-0.06853675	-2.260422
26.34722	0.009778756	-0.00794524	0.3687345	0.1474937	-0.003842184	2.224275
26.36378	0.01466813	-0.00550055	0.2952935	0.1476467	-2.216582	0.00461707
26.38034	0.01711282	-0.004278206	0.1475957	0.07379786	-4.459323	-2.229662
26.40018	0.01955751	-0.003055861	0.1232424	0.06162122	-0.6690508	-0.3345245
26.41675	0.02077986	-0.003055861	0.07377245	-1.405207E-08	-1.358856	-1.692632
26.43356	0.02077986	-0.003055861	0	0	-2.210046	4.209663E-07
26.44988	0.02077986	-0.003055861	0	0	0	0
26.46645	0.0220022	-0.001833517	0.07378072	0.07378086	2.243365	2.24337
26.48301	0.0220022	-0.001833517	0	0	-2.226707	-2.226711
26.49958	0.0220022	-0.001833517	0	0	0	0
26.51615	0.0220022	-0.001833517	0	0	0	0
26.53272	0.0220022	-0.001833517	0	0	0	0
26.54928	0.0220022	-0.001833517	0	0	0	0
26.56585	0.0220022	-0.001833517	0	0	0	0
26.58241	0.0220022	-0.001833517	0	0	0	0
26.59898	0.0220022	-0.001833517	0	0	0	0
26.61555	0.0220022	-0.001833517	0	0	0	0
26.63212	0.0220022	-0.001833517	0	0	0	0
26.64869	0.0220022	-0.001833517	0	0	0	0
26.66539	0.0220022	-0.001833517	0	0	0	0
26.68182	0.0220022	-0.001833517	0	0	0	0
26.69871	0.0220022	-0.001833517	0	0	0	0
26.71498	0.0220022	-0.001833517	0	0	0	0
26.73152	0.0220022	-0.001833517	0	0	0	0
26.74838	0.0220022	-0.001833517	0	0	0	0
26.76465	0.0220022	-0.001833517	0	0	0	0
26.78122	0.0220022	-0.001833517	0	0	0	0
26.79778	0.0220022	-0.001833517	0	0	0	0
26.81435	0.0220022	-0.001833517	0	0	0	0
26.83091	0.0220022	-0.001833517	0	0	0	0
26.84748	0.0220022	-0.001833517	0	0	0	0
26.86405	0.0220022	-0.001833517	0	0	0	0
26.88061	0.0220022	-0.001833517	0	0	0	0
26.89738	0.0220022	-0.001833517	0	0	0	0
26.91391	0.0220022	-0.001833517	0	0	0	0
26.93032	0.0220022	-0.001833517	0	0	0	0
26.94688	0.0220022	-0.001833517	0	0	0	0
26.96348	0.0220022	-0.001833517	0	0	0	0
26.98001	0.0220022	-0.001833517	0	0	0	0
26.99658	0.0220022	-0.001833517	0	0	0	0
27.01315	0.0220022	-0.001833517	0	0	0	0
27.02971	0.0220022	-0.001833517	0	0	0	0
27.04639	0.0220022	-0.001833517	0	0	0	0
27.06292	0.0220022	-0.001833517	0	0	0	0
27.07941	0.0220022	-0.001833517	0	0	0	0
27.09598	0.0220022	-0.001833517	0	0	0	0
27.11255	0.0220022	-0.001833517	0	0	0	0
27.12911	0.0220022	-0.001833517	0	0	0	0
27.14568	0.0220022	-0.001833517	0	0	0	0
27.16225	0.0220022	-0.001833517	0	0	0	0
27.17882	0.0220022	-0.001833517	0	0	0	0
27.19538	0.0220022	-0.001833517	0	0	0	0
27.21195	0.0220022	-0.001833517	0	0	0	0
27.22852	0.0220022	-0.001833517	0	0	0	0
27.24508	0.0220022	-0.001833517	0	0	0	0
27.26165	0.0220022	-0.001833517	0	0	0	0
27.27822	0.0220022	-0.001833517	0	0	0	0
27.29478	0.0220022	-0.001833517	0	0	0	0
27.31135	0.0220022	-0.001833517	0	0	0	0
27.32792	0.0220022	-0.001833517	0	0	0	0
27.34449	0.0220022	-0.001833517	0	0	0	0
27.36105	0.0220022	-0.001833517	0	0	0	0
27.37762	0.0220022	-0.001833517	0	0	0	0
27.39419	0.0220022	-0.001833517	0	0	0	0
27.41075	0.0220022	-0.001833517	0	0	0	0
27.42732	0.0220022	-0.001833517	0	0	0	0
27.45313	0.0220022	-0.001833517	0	0	0	0
27.4697	0.0220022	-0.001833517	0	0	0	0
27.48662	0.0220022	-0.001833517	0	0	0	0
27.51019	0.0220022	-0.001833517	0	0	0	0
27.52675	0.0220022	-0.001833517	0	0	0	0
27.54332	0.0220022	-0.001833517	0	0	0	0
27.55989	0.0220022	-0.001833517	0	0	0	0
27.58179	0.0220022	-0.001833517	0	0	0	0
27.59836	0.0220022	-0.001833517	0	0	0	0
27.61493	0.0220022	-0.001833517	0	0	0	0
27.63149	0.0220022	-0.001833517	0	0	0	0
27.64806	0.0220022	-0.001833517	0	0	0	0
27.66463	0.0220022	-0.001833517	0	0	0	0
27.68119	0.0220022	-0.001833517	0	0	0	0
27.69776	0.0220022	-0.001833517	0	0	0	0
27.71433	0.0220022	-0.001833517	0	0	0	0
27.7309	0.0220022	-0.001833517	0	0	0	0
27.74746	0.0220022	-0.001833517	0	0	0	0
27.76403	0.0220022	-0.001833517	0	0	0	0
27.7806	0.0220022	-0.001833517	0	0	0	0
27.79716	0.0220022	-0.001833517	0	0	0	0
27.81417	0.0220022	-0.001833517	0	0	0	0
27.83063	0.0220022	-0.001833517	0	0	0	0
27.84686	0.0220022	-0.001833517	0	0	0	0
27.86343	0.0220022	-0.001833517	0	0	0	0
27.88	0.0220022	-0.001833517	0	0	0	0
27.89657	0.0220022	-0.001833517	0	0	0	0
27.91328	0.0220022	-0.001833517	0	0	0	0
27.9297	0.0220022	-0.001833517	0	0	0	0
27.94626	0.0220022	-0.001833517	0	0	0	0
27.96283	0.0220022	-0.001833517	0	0	0	0
27.9794	0.0220022	-0.001833517	0	0	0	0
27.99597	0.0220022	-0.001833517	0	0	0	0
28.01253	0.0220022	-0.001833517	0	0	0	0
28.02911	0.0220022	-0.001833517	0	0	0	0
28.04567	0.0220022	-0.001833517	0	0	0	0
28.06223	0.0220022	-0.001833517	0	0	0	0
28.0788	0.0220022	-0.001833517	0	0	0	0
28.09538	0.0220022	-0.001833517	0	0	0	0
28.11214	0.0220022	-0.001833517	0	0	0	0
28.12867	0.0220022	-0.001833517	0	0	0	0
28.14521	0.0220022	-0.001833517	0	0	0	0
28.16179	0.0220022	-0.001833517	0	0	0	0
28.1782	0.0220022	-0.001833517	0	0	0	0
28.19477	0.0220022	-0.001833517	0	0	0	0
28.21185	0.0220022	-0.001833517	0	0	0	0
28.2279	0.0220022	-0.001833517	0	0	0	0
28.24447	0.0220022	-0.001833517	0	0	0	0
28.26104	0.0220022	-0.001833517	0	0	0	0
28.2776	0.0220022	-0.001833517	0	0	0	0
28.29417	0.0220022	-0.001833517	0	0	0	0
28.31074	0.0220022	-0.001833517	0	0	0	0
28.3273	0.0220022	-0.001833517	0	0	0	0
28.34387	0.0220022	-0.001833517	0	0	0	0
28.36044	0.0220022	-0.001833517	0	0	0	0
28.37735	0.0220022	-0.001833517	0	0	0	0
28.39357	0.0220022	-0.001833517	0	0	0	0
28.41045	0.0220022	-0.001833517	0	0	0	0
28.42671	0.0220022	-0.001833517	0	0	0	0
28.44328	0.0220022	-0.001833517	0	0	0	0
28.45984	0.0220022	-0.001833517	0	0	0	0
28.47642	0.0220022	-0.001833517	0	0	0	0
28.49587	0.0220022	-0.001833517	0	0	0	0
28.51243	0.0220022	-0.001833517	0	0	0	0
28.529	0.0220022	-0.001833517	0	0	0	0
28.54557	0.0220022	-0.001833517	0	0	0	0
28.56214	0.0220022	-0.001833517	0	0	0	0
28.58396	0.0220022	-0.001833517	0	0	0	0
28.60052	0.0220022	-0.001833517	0	0	0	0
28.61709	0.0220022	-0.001833517	0	0	0	0
28.63863	0.0220022	-0.001833517	0	0	0	0
28.65558	0.0220022	-0.001833517	0	0	0	0
28.67176	0.0220022	-0.001833517	0	0	0	0
28.68833	0.0220022	-0.001833517	0	0	0	0
28.7049	0.0220022	-0.001833517	0	0	0	0
28.72146	0.0220022	-0.001833517	0	0	0	0
28.73803	0.0220022	-0.001833517	0	0	0	0
28.75464	0.0220022	-0.001833517	0	0	0	0
28.77117	0.0220022	-0.001833517	0	0	0	0
28.78773	0.0220022	-0.001833517	0	0	0	0
28.8052	0.0220022	-0.001833517	0	0	0	0
28.82087	0.0220022	-0.001833517	0	0	0	0
28.83749	0.0220022	-0.001833517	0	0	0	0
28.85442	0.0220022	-0.001833517	0	0	0	0
28.87057	0.0220022	-0.001833517	0	0	0	0
28.88786	0.0220022	-0.001833517	0	0	0	0
28.90391	0.0220022	-0.001833517	0	0	0	0
28.92027	0.0220022	-0.001833517	0	0	0	0
28.93684	0.0220022	-0.001833517	0	0	0	0
28.9534	0.0220022	-0.001833517	0	0	0	0
28.96997	0.0220022	-0.001833517	0	0	0	0
28.98654	0.0220022	-0.001833517	0	0	0	0
29.00311	0.0220022	-0.001833517	0	0	0	0
29.01967	0.0220022	-0.001833517	0	0	0	0
29.03624	0.0220022	-0.001833517	0	0	0	0
29.0528	0.0220022	-0.001833517	0	0	0	0
29.06937	0.0220022	-0.001833517	0	0	0	0
29.08594	0.0220022	-0.001833517	0	0	0	0
29.1025	0.0220022	-0.001833517	0	0	0	0
29.11907	0.0220022	-0.001833517	0	0	0	0
29.13637	0.0220022	-0.001833517	0	0	0	0
29.1522	0.0220022	-0.001833517	0	0	0	0
29.16889	0.0220022	-0.001833517	0	0	0	0
29.18534	0.0220022	-0.001833517	0	0	0	0
29.2019	0.0220022	-0.001833517	0	0	0	0
29.21847	0.0220022	-0.001833517	0	0	0	0
29.23504	0.0220022	-0.001833517	0	0	0	0
29.2516	0.0220022	-0.001833517	0	0	0	0
29.26817	0.0220022	-0.001833517	0	0	0	0
29.28474	0.0220022	-0.001833517	0	0	0	0
29.3013	0.0220022	-0.001833517	0	0	0	0
29.31795	0.0220022	-0.001833517	0	0	0	0
29.33444	0.0220022	-0.001833517	0	0	0	0
29.35101	0.0220022	-0.001833517	0	0	0	0
29.36764	0.0220022	-0.001833517	0	0	0	0
29.38438	0.0220022	-0.001833517	0	0	0	0
29.40071	0.0220022	-0.001833517	0	0	0	0
29.41734	0.0220022	-0.001833517	0	0	0	0
29.43384	0.0220022	-0.001833517	0	0	0	0
29.45049	0.0220022	-0.001833517	0	0	0	0
29.46697	0.0220022	-0.001833517	0	0	0	0
29.48354	0.0220022	-0.001833517	0	0	0	0
29.5001	0.0220022	-0.001833517	0	0	0	0
29.51667	0.0220022	-0.001833517	0	0	0	0
29.53324	0.0220022	-0.001833517	0	0	0	0
29.55413	0.0220022	-0.001833517	0	0	0	0
29.5707	0.0110011	-0.01038993	-0.6639512	-0.5164065	-17.72502	-13.78613
29.58726	-0.003667034	-0.02016868	-0.8854723	-0.5903147	-6.685519	-2.230554
29.60387	-0.01711282	-0.0287251	-0.8094461	-0.5151021	2.291573	2.26705
29.6204	-0.0330033	-0.03850385	-0.9615868	-0.5917457	-4.591352	-2.312973
29.63699	-0.05745019	-0.05194964	-1.473243	-0.8102835	-15.44892	-6.598525
29.65353	-0.08434176	-0.06906246	-1.625986	-1.034719	-4.610079	-6.773861
29.67049	-0.1075663	-0.08495294	-1.369823	-0.9372469	7.64826	2.910217
29.68666	-0.1222345	-0.09717639	-0.9066645	-0.7555536	13.97895	5.483829
29.70323	-0.1271238	-0.1057328	-0.2951233	-0.5164664	18.67566	7.301405
29.7198	-0.1283462	-0.1106222	-0.07378072	-0.2951229	6.680134	6.680161
29.73636	-0.1222345	-0.1191786	0.368989	-0.5165854	13.36436	-6.68452
29.75293	-0.106344	-0.1301797	0.9591521	-0.6640274	17.81321	-4.450322
29.7695	-0.08311943	-0.1411808	1.401836	-0.6640283	13.36021	-2.878195E-05
29.78606	-0.04522675	-0.1534042	2.287207	-0.7378082	26.72055	-2.226679
29.80263	-0.03055861	-0.1607383	0.8853705	-0.4426844	-42.3075	8.906855
29.8192	0.009778756	-0.1778511	2.434768	-1.032933	46.76092	-17.81374
29.83586	0.02933627	-0.1925192	1.174141	-0.8806046	-37.94317	4.584871
29.85233	0.04155971	-0.205965	0.7418225	-0.8160052	-13.04739	1.949615
29.8689	0.05133847	-0.2206332	0.5902469	-0.8853705	-4.58697	-2.099129
29.88548	0.05622785	-0.234079	0.2949877	-0.8112162	-8.908888	2.237467
29.90204	0.05867253	-0.2450801	0.1475954	-0.6641803	-4.447796	4.437039
29.91866	0.05867254	-0.2560812	2.240593E-07	-0.661666	-4.447009	0.07575714
29.93517	0.05867254	-0.269527	0	-0.8145908	-6.762512E-06	-4.615546
29.95177	0.06111722	-0.2841951	0.1472734	-0.8836411	4.448562	-2.085742
29.9683	0.06478426	-0.3000856	0.2218791	-0.9614758	2.25212	-2.349598
29.98493	0.06845129	-0.3098643	0.2205049	-0.5880118	-0.04144391	11.26338
30.00143	0.07089598	-0.3159761	0.1481418	-0.3703551	-2.184049	6.56927
30.018	0.07334068	-0.3196431	0.1475619	-0.221344	-0.01753509	4.505984
30.03466	0.07456302	-0.3220878	0.07337524	-0.1467487	-2.232788	2.245087
30.05113	0.07456302	-0.3220878	0	0	-2.214597	4.429139
30.07699	0.07456302	-0.3220878	0	0	0	0
30.09356	0.07456302	-0.3220878	0	0	0	0
30.11045	0.07456302	-0.3220878	0	0	0	0
30.12697	0.07456302	-0.3220878	0	0	0	0
30.14987	0.07456302	-0.3220878	0	0	0	0
30.16644	0.07456302	-0.3220878	0	0	0	0
30.183	0.07456302	-0.3220878	0	0	0	0
30.19957	0.07456302	-0.3220878	0	0	0	0
30.21614	0.07456302	-0.3220878	0	0	0	0
30.2327	0.07334068	-0.3196431	-0.07378072	0.1475597	-2.226835	4.453616
30.24927	0.07089598	-0.3135314	-0.1475624	0.3689054	-2.226734	6.680229
30.26599	0.06722895	-0.3025303	-0.2193722	0.6581184	-2.157538	8.68945
30.28241	0.06356192	-0.2878622	-0.2233483	0.8933913	-0.1199982	7.10055
30.29897	0.05745019	-0.2511918	-0.3689468	2.213682	-4.414245	40.02848
30.31585	0.05256081	-0.2181885	-0.2896219	1.954947	2.37164	-7.735612
30.33289	0.04767143	-0.1912969	-0.2869954	1.578475	0.07743438	-11.09935
30.34867	0.04033737	-0.1680724	-0.4646721	1.471462	-5.413713	-3.260613
30.36524	0.03178096	-0.1472925	-0.516466	1.254273	-1.601019	-6.713619
30.38181	0.02566923	-0.1252903	-0.3689044	1.328057	4.453416	2.226791
30.39852	0.01711282	-0.1020658	-0.5119278	1.389518	-4.297408	1.846725
30.41504	0.0110011	-0.08006357	-0.3698838	1.331581	4.273614	-1.743121
30.43151	0.006111723	-0.06295075	-0.297004	1.039514	2.209436	-8.854357
30.44807	0.002444689	-0.05317198	-0.2213426	0.5902472	2.290718	-13.60197
30.46464	0.001222345	-0.04828261	-0.07378085	0.2951233	4.453423	-8.906855
30.48121	0	-0.04339323	-0.07378086	0.2951236	-4.497179E-07	7.195487E-06
30.49778	0	-0.04217089	0	0.07378072	2.226711	-6.680141
30.51434	0	-0.0397262	0	0.1475617	0	2.226713
30.53091	0	-0.03605916	0	0.2213681	0	2.227611
30.54748	-0.001222344	-0.03361447	-0.07378086	0.1475619	-2.226839	-2.227604
30.56404	-0.001222345	-0.03116979	-7.026843E-09	0.1475616	2.226711	-9.893794E-06
30.58061	-0.001222344	-0.02994744	7.026843E-09	0.07378083	4.241411E-07	-2.226707
30.59718	-0.001222344	-0.02750275	0	0.1475617	-2.120705E-07	2.22671
30.61653	-0.001222344	-0.02505806	0	0.1263528	0	-0.5905238
30.63309	-0.001222344	-0.02016868	0	0.2951233	0	4.699117
30.64966	-0.001222344	-0.01650165	0	0.2213426	0	-2.226707
30.66632	-0.001222344	-0.009167584	0	0.4401515	0	6.584712
30.68279	-0.001222344	-0.004278206	0	0.2968665	0	-4.324598
30.6997	-0.001222345	0.00550055	-6.885735E-09	0.5783941	-2.063037E-07	8.434855
30.71593	-0.001222344	0.009167584	7.173855E-09	0.2259734	4.243193E-07	-10.63608
30.73249	-0.001222344	0.02139103	0	0.7378935	-2.187615E-07	15.61063
30.74906	-0.002444689	0.0262804	-0.07378086	0.2951233	-2.226839	-13.3636
30.76563	-0.002444689	0.0262804	0	0	2.226711	-8.90684
30.78219	-0.002444689	0.0262804	0	0	0	0
30.79876	-0.002444689	0.0262804	0	0	0	0
30.81533	-0.002444689	0.0262804	0	0	0	0
30.83189	-0.002444689	0.0262804	0	0	0	0
30.84852	-0.002444689	0.0262804	0	0	0	0
30.86552	-0.002444689	0.0262804	0	0	0	0
30.88159	-0.002444689	0.0262804	0	0	0	0
30.89816	-0.002444689	0.0262804	0	0	0	0
30.91473	-0.002444689	0.0262804	0	0	0	0
30.93129	-0.002444689	0.0262804	0	0	0	0
30.94786	-0.002444689	0.0262804	0	0	0	0
30.96443	-0.002444689	0.0262804	0	0	0	0
30.981	-0.002444689	0.0262804	0	0	0	0
30.99756	-0.002444689	0.0262804	0	0	0	0
31.01413	-0.002444689	0.0262804	0	0	0	0
31.0307	-0.002444689	0.0262804	0	0	0	0
31.04726	-0.002444689	0.0262804	0	0	0	0
31.06383	-0.002444689	0.0262804	0	0	0	0
31.0804	-0.002444689	0.0262804	0	0	0	0
31.09697	-0.001222344	0.02628041	0.07378086	1.124295E-07	2.226711	3.393129E-06
31.11353	-0.001222344	0.02750275	0	0.07378095	-2.226711	2.22671
31.1301	-0.001222344	0.0287251	0	0.07378083	0	-3.372885E-06
31.14667	-0.001222344	0.03239213	0	0.2213425	0	4.453421
31.16323	-0.001222344	0.03483682	0	0.1475617	0	-2.226711
31.1798	-0.001222344	0.03605916	0	0.07378095	0	-2.226707
31.19637	-0.001222344	0.03605916	0	0	0	-2.226713
31.21313	-0.001222345	0.03728151	-6.947656E-09	0.07294928	-2.084925E-07	2.189138
31.2295	-0.001222345	0.03728151	0	0	2.096807E-07	-2.201613
31.24607	-0.001222345	0.03850385	0	0.07378095	0	2.239476
31.26264	0	0.0397262	0.07378936	0.07378945	2.227095	0.0002565788
31.2792	0.001222344	0.03972619	0.07378086	-2.24859E-07	-0.0002565788	-2.227105
31.29658	0.001222344	0.03972619	0	0	-2.173414	6.623826E-06
31.31237	0.002444689	0.0397262	0.07741731	2.359417E-07	2.334041	7.113363E-06
31.3289	0.002444689	0.0397262	0	0	-2.395336	-7.30017E-06
31.34547	0.002444689	0.0397262	0	0	0	0
31.36204	0.002444689	0.0397262	0	0	0	0
31.37879	0.003667034	0.03972619	0.07295772	-2.223503E-07	2.189642	-6.673284E-06
31.39517	0.004889378	0.0397262	0.07462279	2.274249E-07	0.05025193	1.357424E-05
31.41174	0.006111723	0.0397262	0.07378089	0	-0.02555254	-6.902636E-06
31.4283	0.006111723	0.03850385	0	-0.07378095	-2.226712	-2.226713
31.44487	0.007334067	0.03728151	0.07378083	-0.07378095	2.22671	0
31.46144	0.007334067	0.03728151	0	0	-2.22671	2.226713
31.47801	0.008556412	0.03605916	0.07378086	-0.07378072	2.226711	-2.226707
31.49468	0.009778757	0.03483682	0.07332504	-0.07332487	-0.01371424	0.01371491
31.51116	0.009778757	0.03483682	0	0	-2.211426	2.211421
31.52771	0.009778757	0.03483682	0	0	0	0
31.54427	0.01222345	0.03361448	0.1475617	-0.07378095	4.456757	-2.228381
31.56084	0.01711282	0.03116979	0.2951574	-0.1475788	4.454702	-2.227351
31.57758	0.0220022	0.02750275	0.2920302	-0.2190228	-0.09388511	-2.144948
31.59397	0.0220022	0.02750275	0	0	-8.813997	6.610501
31.61055	0.02322455	0.02505806	0.0737471	-0.1474936	2.237153	-4.47429
31.62711	0.02444689	0.02505806	0.07381461	-2.249626E-07	0.002037447	4.45136
31.64367	0.02444689	0.02505806	0	0	-2.228114	6.790556E-06
31.66497	0.02444689	0.02383572	8.745858E-08	-0.05739382	2.30965E-06	-1.515685
31.68154	0.02566924	0.02383572	0.07378095	-1.124295E-07	1.94854	1.515758
31.69811	0.02566924	0.02383572	0	0	-2.226713	3.393129E-06
31.71468	0.02566924	0.02261337	0	-0.07377223	0	-2.226322
31.73165	0.02566924	0.02261337	0	0	0	2.199607
31.74781	0.02566924	0.02261337	0	0	0	0
31.76437	0.02689158	0.02139103	0.07378083	-0.07378095	2.254351	-2.254354
31.78094	0.02811392	0.02016868	0.07378072	-0.07378083	-3.372885E-06	3.372885E-06
31.79751	0.02811392	0.01894634	1.124295E-07	-0.07378083	-2.226703	0
31.81408	0.02933627	0.017724	0.07378083	-0.07378083	2.226707	0
31.83064	0.02933627	0.01650165	-1.124295E-07	-0.07378095	-2.226713	-3.372885E-06
31.84721	0.02933627	0.01650165	0	0	3.393129E-06	2.226713
31.86378	0.02933627	0.01527931	0	-0.07374687	0	-2.225173
31.88035	0.02933627	0.01405696	1.124554E-07	-0.07379783	3.393519E-06	-0.001537633
31.89691	0.02933627	0.01283462	1.124554E-07	-0.07379783	0	0
31.91348	0.02933627	0.01283462	0	0	-3.394496E-06	2.227607
31.93004	0.02933627	0.01161227	-1.124295E-07	-0.07378083	-3.393324E-06	-2.226838
31.94661	0.03055861	0.01161227	0.07378072	-1.124295E-07	2.22671	2.226707
31.96318	0.03055861	0.01038993	0	-0.07378083	-2.226707	-2.226707
31.97975	0.03055861	0.01038993	0	0	0	2.22671
31.9966	0.03055861	0.01038993	0	0	0	0
32.01686	0.03055861	0.01038993	0	0	0	0
32.03343	0.03055861	0.009167584	0	-0.07378083	0	-2.003439
32.05	0.03055861	0.009167584	0	0	0	2.22671
32.06696	0.03055861	0.009167584	0	0	0	0
32.08313	0.03055861	0.009167584	0	0	0	0
32.10006	0.03055861	0.009167584	0	0	0	0
32.11626	0.03055861	0.009167584	0	0	0	0
32.13507	0.03055861	0.009167584	0	0	0	0
32.15164	0.03055861	0.009167584	0	0	0	0
32.17597	0.03055861	0.009167584	0	0	0	0
32.19254	0.03055861	0.009167584	0	0	0	0
32.2091	0.03055861	0.009167584	0	0	0	0
32.22598	0.03055861	0.009167584	0	0	0	0
32.24882	0.03055861	0.009167584	0	0	0	0
32.26539	0.03055861	0.009167584	0	0	0	0
32.28196	0.03055861	0.009167584	0	0	0	0
32.29852	0.03055861	0.009167584	0	0	0	0
32.31509	0.03055861	0.009167584	0	0	0	0
32.33166	0.03055861	0.009167584	0	0	0	0
32.34822	0.03055861	0.009167584	0	0	0	0
32.36479	0.03055861	0.009167584	0	0	0	0
32.38136	0.03055861	0.009167584	0	0	0	0
32.39793	0.03055861	0.009167584	0	0	0	0
32.41449	0.03055861	0.009167584	0	0	0	0
32.43106	0.03055861	0.009167584	0	0	0	0
32.44763	0.03055861	0.009167584	0	0	0	0
32.4642	0.03055861	0.009167584	0	0	0	0
32.48076	0.03055861	0.009167584	0	0	0	0
32.49733	0.03055861	0.009167584	0	0	0	0
32.51468	0.03055861	0.007945239	0	-0.07047074	0	-2.078007
32.53046	0.03178096	0.00794524	0.07741753	5.898541E-08	2.336466	2.126813
32.5471	0.03178096	0.00794524	0	0	-2.387874	-1.819352E-06
32.56395	0.03178096	0.00794524	0	0	0	0
32.58016	0.03178096	0.00794524	0	0	0	0
32.59673	0.03178096	0.006722895	0	-0.07378086	0	-2.25081
32.67244	0.0330033	0.00550055	0.01614499	-0.01614502	0.1749613	0.6245924
32.69576	0.0330033	0.004278206	0	-0.05241785	-0.1630321	-0.3662829
32.71247	0.0330033	0.004278206	0	0	0	1.309542
32.7293	0.0330033	0.004278206	0	0	0	0
32.74585	0.0330033	0.004278206	0	0	0	0
32.76236	0.0330033	0.004278206	0	0	0	0
32.7839	0.0330033	0.004278206	0	0	0	0
32.80046	0.0330033	0.004278206	0	0	0	0
32.81703	0.0330033	0.004278206	0	0	0	0
32.8336	0.0330033	0.004278206	0	0	0	0
32.85017	0.0330033	0.004278206	0	0	0	0
32.86673	0.0330033	0.004278206	0	0	0	0
32.8833	0.0330033	0.004278206	0	0	0	0
32.89995	0.0330033	0.004278206	0	0	0	0
32.91648	0.0330033	0.004278206	0	0	0	0
32.93301	0.0330033	0.004278206	0	0	0	0
32.94957	0.0330033	0.004278206	0	0	0	0
32.96662	0.0330033	0.004278206	0	0	0	0
32.9827	0.0330033	0.004278206	0	0	0	0
32.99927	0.0330033	0.004278206	0	0	0	0
33.01583	0.0330033	0.004278206	0	0	0	0
33.0324	0.0330033	0.004278206	0	0	0	0
33.04897	0.0330033	0.004278206	0	0	0	0
33.0657	0.0330033	0.003055861	0	-0.07305752	0	-2.194019
33.0821	0.0330033	0.003055861	0	0	0	2.20488
33.09867	0.0330033	0.003055861	0	0	0	0
33.11524	0.0330033	0.003055861	0	0	0	0
33.13181	0.0330033	0.003055861	0	0	0	0
33.14837	0.0330033	0.003055861	0	0	0	0
33.16504	0.0330033	0.003055861	0	0	0	0
33.18151	0.0330033	0.003055861	0	0	0	0
33.19807	0.0330033	0.003055861	0	0	0	0
33.21464	0.0330033	0.003055861	0	0	0	0
33.2312	0.0330033	0.003055861	0	0	0	0
33.24777	0.0330033	0.003055861	0	0	0	0
33.26434	0.0330033	0.003055861	0	0	0	0
33.28091	0.0330033	0.003055861	0	0	0	0
33.29747	0.0330033	0.003055861	0	0	0	0
33.31404	0.0330033	0.003055861	0	0	0	0
33.33061	0.0330033	0.003055861	0	0	0	0
33.34718	0.0330033	0.003055861	0	0	0	0
33.36374	0.0330033	0.003055861	0	0	0	0
33.38031	0.0330033	0.003055861	0	0	0	0
33.39688	0.0330033	0.003055861	0	0	0	0
33.4135	0.0330033	0.003055861	0	0	0	0
33.43008	0.0330033	0.003055861	0	0	0	0
33.44715	0.0330033	0.003055861	0	0	0	0
33.46315	0.0330033	0.003055861	0	0	0	0
33.47971	0.0330033	0.003055861	0	0	0	0
33.49628	0.0330033	0.003055861	0	0	0	0
33.51939	0.0330033	0.003055861	0	0	0	0
33.53595	0.0330033	0.003055861	0	0	0	0
33.55252	0.0330033	0.003055861	0	0	0	0
33.56909	0.0330033	0.003055861	0	0	0	0
33.58574	0.0330033	0.003055861	0	0	0	0
33.60909	0.0330033	0.003055861	0	0	0	0
33.62566	0.0330033	0.003055861	0	0	0	0
33.64222	0.0330033	0.003055861	0	0	0	0
33.65879	0.0330033	0.003055861	0	0	0	0
33.6755	0.0330033	0.003055861	0	0	0	0
33.69192	0.0330033	0.003055861	0	0	0	0
33.70851	0.0330033	0.003055861	0	0	0	0
33.72506	0.0330033	0.003055861	0	0	0	0
33.74162	0.0330033	0.003055861	0	0	0	0
33.75821	0.0330033	0.003055861	0	0	0	0
33.77476	0.0330033	0.003055861	0	0	0	0
33.79132	0.0330033	0.003055861	0	0	0	0
33.80789	0.0330033	0.003055861	0	0	0	0
33.8246	0.0330033	0.003055861	0	0	0	0
33.8448	0.0330033	0.003055861	0	0	0	0
33.86137	0.0330033	0.003055861	0	0	0	0
33.87793	0.0330033	0.003055861	0	0	0	0
33.8945	0.0330033	0.003055861	0	0	0	0
33.91107	0.0330033	0.003055861	0	0	0	0
33.92764	0.0330033	0.003055861	0	0	0	0
33.9442	0.0330033	0.003055861	0	0	0	0
33.96077	0.0330033	0.003055861	0	0	0	0
33.97734	0.0330033	0.003055861	0	0	0	0
33.99428	0.0330033	0.003055861	0	0	0	0
34.01047	0.0330033	0.003055861	0	0	0	0
34.02735	0.0330033	0.003055861	0	0	0	0
34.0436	0.0330033	0.003055861	0	0	0	0
34.06017	0.0330033	0.003055861	0	0	0	0
34.07674	0.0330033	0.003055861	0	0	0	0
34.09331	0.0330033	0.003055861	0	0	0	0
34.10987	0.0330033	0.003055861	0	0	0	0
34.12643	0.0330033	0.003055861	0	0	0	0
34.143	0.0330033	0.003055861	0	0	0	0
34.15977	0.0330033	0.003055861	0	0	0	0
34.17614	0.0330033	0.003055861	0	0	0	0
34.19283	0.0330033	0.003055861	0	0	0	0
34.20945	0.0330033	0.003055861	0	0	0	0
34.22584	0.0330033	0.003055861	0	0	0	0
34.2424	0.0330033	0.003055861	0	0	0	0
34.25897	0.0330033	0.003055861	0	0	0	0
34.27558	0.0330033	0.003055861	0	0	0	0
34.29211	0.0330033	0.003055861	0	0	0	0
34.30867	0.0330033	0.003055861	0	0	0	0
34.32526	0.0330033	0.003055861	0	0	0	0
34.34181	0.0330033	0.003055861	0	0	0	0
34.35838	0.0330033	0.003055861	0	0	0	0
34.37494	0.0330033	0.003055861	0	0	0	0
34.39151	0.0330033	0.003055861	0	0	0	0
34.40808	0.0330033	0.003055861	0	0	0	0
34.42464	0.0330033	0.003055861	0	0	0	0
34.44121	0.0330033	0.003055861	0	0	0	0
34.45778	0.0330033	0.003055861	0	0	0	0
34.47435	0.0330033	0.003055861	0	0	0	0
34.49094	0.0330033	0.003055861	0	0	0	0
34.50748	0.0330033	0.003055861	0	0	0	0
34.52405	0.0330033	0.003055861	0	0	0	0
34.54062	0.0330033	0.003055861	0	0	0	0
34.55718	0.0330033	0.003055861	0	0	0	0
34.57375	0.0330033	0.003055861	0	0	0	0
34.59032	0.0330033	0.003055861	0	0	0	0
34.60688	0.03422565	-0.01405696	0.07378095	-1.032932	2.226713	-31.17395
34.62345	0.03422565	-0.05561667	0	-2.508549	-2.226713	-44.53421
34.64003	0.03178096	-0.1265127	-0.1474937	-4.277321	-4.450346	-53.36935
34.65659	0.02322455	-0.2181885	-0.516704	-5.536114	-11.14279	-37.99044
34.67315	0.01466813	-0.3074197	-0.516466	-5.386003	0.007184549	4.53138
34.68972	0.008556412	-0.3502017	-0.3689043	-2.582329	4.453422	84.61507
34.70629	0.004889378	-0.3783156	-0.2213426	-1.69696	4.453421	26.72048
34.72285	0.003667033	-0.3917614	-0.07378086	-0.811588	4.453422	26.72059
34.73942	0.003667034	-0.3954284	1.405369E-08	-0.221344	2.226711	17.8136
34.75599	0.003667034	-0.3954284	0	0	-4.241411E-07	6.680174
34.77266	0.006111722	-0.3917614	0.1466836	0.220025	4.413707	6.620549
34.78912	0.02933627	-0.3465347	1.410279	2.746334	38.1354	76.24414
34.80569	0.06967364	-0.2230779	2.434768	7.451868	31.01197	142.4397
34.82226	0.09778756	-0.06295075	1.69696	9.665292	-22.2671	66.80128
34.84707	0.113678	0.0397262	0.6404665	4.138399	-25.53272	-133.5707
34.86364	0.1210121	0.1069551	0.4426848	4.057947	-4.779872	-1.944305
34.8802	0.1210121	0.1252903	0	1.106713	-13.36025	-89.06843
34.89677	0.1210121	0.1338467	4.497179E-07	0.516466	1.357251E-05	-17.81368
34.91623	0.1210121	0.1387361	-3.828906E-07	0.2512689	-2.311132E-05	-7.361269
34.9328	0.1210121	0.1497372	4.497179E-07	0.6640283	2.311132E-05	11.45726
34.94936	0.1222344	0.1546266	0.07378072	0.2951229	2.226693	-11.13359
34.96593	0.1222344	0.1705171	0	0.9591512	-2.226707	20.04041
34.98252	0.1222345	0.1851852	4.492008E-07	0.8843524	1.354911E-05	-2.256134
34.99907	0.1246791	0.1998533	0.1477315	0.886391	4.458533	0.06152501
35.01563	0.1295685	0.2181885	0.2951224	1.106712	4.450829	6.653123
35.0322	0.1442367	0.2597482	0.8853714	2.508549	17.81375	42.30754
35.04877	0.1515707	0.276861	0.4426852	1.032934	-13.36029	-44.53416
35.06574	0.1564601	0.2866398	0.2880914	0.5761811	-4.6094	-13.61863
35.0819	0.1662389	0.3000856	0.6050142	0.8318976	9.564749	7.717537
35.09847	0.1821293	0.3184207	0.9591503	1.106711	10.81989	8.396349
35.11504	0.1967975	0.3392006	0.8853714	1.254276	-2.226652	4.453521
35.13181	0.2041315	0.351424	0.4372486	0.7287462	-13.44081	-15.76252
35.14817	0.2053538	0.3526464	0.07470692	0.07470965	-10.94153	-19.73886
35.17531	0.2053538	0.3526464	0	0	-1.71729	-1.717352
35.19282	0.2053538	0.3526464	0	0	0	0
35.20939	0.2053538	0.3526464	0	0	0	0
35.22596	0.2053538	0.3526464	0	0	0	0
35.2517	0.2053538	0.3526464	0	0	0	0
35.26826	0.2053538	0.3526464	0	0	0	0
35.28483	0.2053538	0.3526464	0	0	0	0
35.30169	0.2053539	0.3514241	1.767934E-06	-0.07251004	5.289355E-05	-2.169376
35.31797	0.2004645	0.3379782	-0.3003794	-0.8260469	-9.06552	-22.74179
35.33473	0.1906857	0.3171984	-0.5833976	-1.239718	-8.566163	-12.52065
35.3511	0.1784623	0.2866398	-0.7467483	-1.866873	-4.9305	-18.92975
35.36766	0.1442367	0.2084097	-2.065863	-4.721974	-40.05073	-86.6861
35.38423	0.1173451	0.1485149	-1.62318	-3.615262	13.36021	33.40065
35.4008	0.08678646	0.09106466	-1.844522	-3.467701	-6.680132	4.453388
35.41737	0.06722895	0.0507273	-1.180493	-2.434768	20.04043	31.17399
35.434	0.0550055	0.02383572	-0.7349322	-1.61685	13.42079	24.63659
35.4505	0.04644909	0.004278206	-0.5184953	-1.185133	6.532079	13.02926
35.46707	0.0440044	-0.001833517	-0.1475619	-0.3689043	11.21675	24.68213
35.48371	0.04278206	-0.00550055	-0.07344251	-0.220328	2.231789	4.473742
35.5002	0.04278206	-0.00550055	0	0	2.216499	6.649511
35.51677	0.04278206	-0.006722894	2.24859E-07	-0.07378083	6.801919E-06	-2.231849
35.53333	0.04278206	-0.006722894	0	0	-6.787038E-06	2.226966
35.54995	0.04278206	-0.006722894	0	0	0	0
35.56646	0.04278206	-0.006722894	0	0	0	0
35.58311	0.04278206	-0.006722894	0	0	0	0
35.5996	0.04278206	-0.006722894	0	0	0	0
35.61617	0.04278206	-0.006722894	0	0	0	0
35.63273	0.04278206	-0.006722894	0	0	0	0
35.6493	0.04278206	-0.006722894	0	0	0	0
35.66587	0.04278206	-0.006722894	0	0	0	0
35.68243	0.04278206	-0.006722894	0	0	0	0
35.699	0.04278206	-0.006722894	0	0	0	0
35.71557	0.04278206	-0.006722894	0	0	0	0
35.73214	0.04278206	-0.006722894	0	0	0	0
35.7487	0.04278206	-0.006722894	0	0	0	0
35.76541	0.04278206	-0.006722894	0	0	0	0
35.78183	0.04278206	-0.006722894	0	0	0	0
35.7984	0.04278206	-0.006722894	0	0	0	0
35.81497	0.04278206	-0.006722894	0	0	0	0
35.83154	0.04278206	-0.006722894	0	0	0	0
35.8481	0.04278206	-0.006722894	0	0	0	0
35.86509	0.04278206	-0.006722894	0	0	0	0
35.88124	0.04278206	-0.006722894	0	0	0	0
35.8978	0.04278206	-0.006722894	0	0	0	0
35.91456	0.04278206	-0.006722894	0	0	0	0
35.93094	0.04278206	-0.006722894	0	0	0	0
35.94751	0.04278206	-0.006722894	0	0	0	0
35.97078	0.04278206	-0.006722894	0	0	0	0
35.98734	0.04278206	-0.006722894	0	0	0	0
36.00391	0.04278206	-0.006722894	0	0	0	0
36.02048	0.04278206	-0.006722894	0	0	0	0
36.03738	0.04278206	-0.006722894	0	0	0	0
36.05362	0.04278206	-0.006722894	0	0	0	0
36.07019	0.04278206	-0.006722894	0	0	0	0
36.08725	0.04278206	-0.006722894	0	0	0	0
36.10331	0.04278206	-0.006722894	0	0	0	0
36.11988	0.04278206	-0.006722894	0	0	0	0
36.1369	0.04278206	-0.006722894	0	0	0	0
36.15302	0.04278206	-0.006722894	0	0	0	0
36.16958	0.04278206	-0.006722894	0	0	0	0
36.18615	0.04278206	-0.006722894	0	0	0	0
36.20271	0.04278206	-0.006722894	0	0	0	0
36.21951	0.04278206	-0.006722894	0	0	0	0
36.236	0.04278206	-0.006722894	0	0	0	0
36.25241	0.04278206	-0.006722894	0	0	0	0
36.26898	0.04278206	-0.006722894	0	0	0	0
36.2858	0.04278206	-0.006722894	0	0	0	0
36.30211	0.04278206	-0.006722894	0	0	0	0
36.31868	0.04278206	-0.006722894	0	0	0	0
36.33525	0.04278206	-0.006722894	0	0	0	0
36.35181	0.04278206	-0.006722894	0	0	0	0
36.36871	0.04278206	-0.006722894	0	0	0	0
36.38577	0.04278206	-0.006722894	0	0	0	0
36.40152	0.04278206	-0.006722894	0	0	0	0
36.41808	0.04278206	-0.006722894	0	0	0	0
36.43465	0.04278206	-0.006722894	0	0	0	0
36.45122	0.04278206	-0.006722894	0	0	0	0
36.46778	0.04278206	-0.006722894	0	0	0	0
36.48435	0.04278206	-0.007945239	-2.24859E-07	-0.07378083	-6.786257E-06	-2.22671
36.50104	0.04278206	-0.007945239	0	0	6.761348E-06	2.218537
36.51754	0.04278206	-0.007945239	0	0	0	0
36.53405	0.04278206	-0.007945239	0	0	0	0
36.55062	0.04278206	-0.007945239	0	0	0	0
36.56756	0.04278206	-0.007945239	0	0	0	0
36.58382	0.04278206	-0.007945239	0	0	0	0
36.60035	0.04278206	-0.007945239	0	0	0	0
36.61689	0.04278206	-0.007945239	0	0	0	0
36.63346	0.04278206	-0.007945239	0	0	0	0
36.65002	0.04278206	-0.007945239	0	0	0	0
36.66659	0.04278206	-0.007945239	0	0	0	0
36.68316	0.04278206	-0.007945239	0	0	0	0
36.69973	0.04278206	-0.007945239	0	0	0	0
36.71629	0.04278206	-0.007945239	0	0	0	0
36.73286	0.04278206	-0.007945239	0	0	0	0
36.74943	0.04278206	-0.007945239	0	0	0	0
36.766	0.04278206	-0.007945239	0	0	0	0
36.78256	0.04278206	-0.007945239	0	0	0	0
36.79913	0.04278206	-0.007945239	0	0	0	0
36.8157	0.04278206	-0.007945239	0	0	0	0
36.83226	0.04278206	-0.007945239	0	0	0	0
36.84883	0.04278206	-0.007945239	0	0	0	0
36.8654	0.04278206	-0.007945239	0	0	0	0
36.88197	0.04278206	-0.007945239	0	0	0	0
36.89853	0.04278206	-0.007945239	0	0	0	0
36.9151	0.04278206	-0.007945239	0	0	0	0
36.93167	0.04278206	-0.007945239	0	0	0	0
36.94823	0.04278206	-0.007945239	0	0	0	0
36.9648	0.04278206	-0.007945239	0	0	0	0
36.98137	0.04278206	-0.007945239	0	0	0	0
36.99794	0.04278206	-0.007945239	0	0	0	0
37.01963	0.04278206	-0.007945239	0	0	0	0
37.03619	0.04278206	-0.007945239	0	0	0	0
37.05276	0.04278206	-0.007945239	0	0	0	0
37.06933	0.04278206	-0.007945239	0	0	0	0
37.0859	0.04278206	-0.007945239	0	0	0	0
37.10246	0.04278206	-0.007945239	0	0	0	0
37.11903	0.04278206	-0.007945239	0	0	0	0
37.14404	0.04278206	-0.007945239	0	0	0	0
37.16061	0.04278206	-0.007945239	0	0	0	0
37.17718	0.04278206	-0.007945239	0	0	0	0
37.19392	0.04278206	-0.007945239	0	0	0	0
37.21921	0.04155971	-0.009167584	-0.04833771	-0.04833767	-1.150067	-1.150066
37.24376	0.04155971	-0.01038993	0	-0.0497949	0.969951	-0.02924089
37.26032	0.04155971	-0.01038993	0	0	0	1.211118
37.27695	0.04155971	-0.01038993	0	0	0	0
37.3028	0.04155971	-0.01038993	0	0	0	0
37.31937	0.04155971	-0.01038993	0	0	0	0
37.33594	0.04155971	-0.01038993	0	0	0	0
37.3525	0.04155971	-0.01038993	0	0	0	0
37.36907	0.04155971	-0.01038993	0	0	0	0
37.38564	0.04155971	-0.01038993	0	0	0	0
37.40221	0.04155971	-0.01038993	0	0	0	0
37.41877	0.04155971	-0.01038993	0	0	0	0
37.43534	0.04155971	-0.01038993	0	0	0	0
37.45191	0.04155971	-0.01038993	0	0	0	0
37.46848	0.04155971	-0.01038993	0	0	0	0
37.48504	0.04155971	-0.01038993	0	0	0	0
37.50161	0.04155971	-0.01038993	0	0	0	0
37.51818	0.04155971	-0.01038993	0	0	0	0
37.53474	0.04155971	-0.01038993	0	0	0	0
37.55131	0.04155971	-0.01038993	0	0	0	0
37.56788	0.04155971	-0.01038993	0	0	0	0
37.58445	0.04155971	-0.01038993	0	0	0	0
37.60101	0.04155971	-0.01038993	0	0	0	0
37.61758	0.04155971	-0.01038993	0	0	0	0
37.63415	0.04155971	-0.01038993	0	0	0	0
37.65071	0.04155971	-0.01038993	0	0	0	0
37.66728	0.04155971	-0.01038993	0	0	0	0
37.68385	0.04155971	-0.01038993	0	0	0	0
37.70064	0.04155971	-0.01038993	0	0	0	0
37.71716	0.04155971	-0.01038993	0	0	0	0
37.73355	0.04155971	-0.01038993	0	0	0	0
37.75012	0.04155971	-0.01038993	0	0	0	0
37.76669	0.04155971	-0.01038993	0	0	0	0
37.78325	0.04155971	-0.01038993	0	0	0	0
37.79982	0.04155971	-0.01038993	0	0	0	0
37.81639	0.04155971	-0.01038993	0	0	0	0
37.83295	0.04155971	-0.01038993	0	0	0	0
37.84954	0.04155971	-0.01038993	0	0	0	0
37.86609	0.04155971	-0.01038993	0	0	0	0
37.88265	0.04155971	-0.01038993	0	0	0	0
37.89938	0.04155971	-0.01038993	0	0	0	0
37.91589	0.04155971	-0.01038993	0	0	0	0
37.93235	0.04155971	-0.01038993	0	0	0	0
37.94892	0.04155971	-0.01038993	0	0	0	0
37.96587	0.04155971	-0.01038993	0	0	0	0
37.98206	0.04155971	-0.01038993	0	0	0	0
37.99862	0.04155971	-0.01038993	0	0	0	0
38.01519	0.04155971	-0.01038993	0	0	0	0
38.03176	0.04155971	-0.01038993	0	0	0	0
38.04832	0.04155971	-0.01038993	0	0	0	0
38.06489	0.04155971	-0.01038993	0	0	0	0
38.0862	0.04155971	-0.01038993	0	0	0	0
38.10277	0.04155971	-0.01038993	0	0	0	0
38.11934	0.04155971	-0.01038993	0	0	0	0
38.1359	0.04155971	-0.01038993	0	0	0	0
38.15306	0.04155971	-0.01038993	0	0	0	0
38.16911	0.04155971	-0.01038993	0	0	0	0
38.1856	0.04155971	-0.01038993	0	0	0	0
38.20217	0.04155971	-0.01038993	0	0	0	0
38.21874	0.04155971	-0.01038993	0	0	0	0
38.23531	0.04155971	-0.01038993	0	0	0	0
38.25187	0.04155971	-0.01038993	0	0	0	0
38.26844	0.04155971	-0.01038993	0	0	0	0
38.28501	0.04155971	-0.01038993	0	0	0	0
38.30157	0.04155971	-0.01038993	0	0	0	0
38.31816	0.04155971	-0.01038993	0	0	0	0
38.33471	0.04155971	-0.01038993	0	0	0	0
38.35165	0.04155971	-0.01038993	0	0	0	0
38.36866	0.04155971	-0.01038993	0	0	0	0
38.38441	0.04155971	-0.01038993	0	0	0	0
38.40097	0.04155971	-0.01038993	0	0	0	0
38.42638	0.04155971	-0.01038993	0	0	0	0
38.44295	0.04155971	-0.01038993	0	0	0	0
38.45951	0.04155971	-0.01038993	0	0	0	0
38.47613	0.04155971	-0.01038993	0	0	0	0
38.50135	0.04155971	-0.01038993	0	0	0	0
38.51819	0.04155971	-0.01038993	0	0	0	0
38.53448	0.04155971	-0.01038993	0	0	0	0
38.55105	0.04155971	-0.01038993	0	0	0	0
38.56763	0.04155971	-0.01038993	0	0	0	0
38.58418	0.04155971	-0.01038993	0	0	0	0
38.60076	0.04155971	-0.01038993	0	0	0	0
38.61737	0.04155971	-0.01038993	0	0	0	0
38.63388	0.04155971	-0.01038993	0	0	0	0
38.65045	0.04155971	-0.01038993	0	0	0	0
38.66702	0.04155971	-0.01038993	0	0	0	0
38.68359	0.04155971	-0.01038993	0	0	0	0
38.70015	0.04155971	-0.01038993	0	0	0	0
38.71672	0.04155971	-0.01038993	0	0	0	0
38.73329	0.04155971	-0.01038993	0	0	0	0
38.74985	0.04155971	-0.01038993	0	0	0	0
38.76642	0.04155971	-0.01038993	0	0	0	0
38.78372	0.04155971	-0.01038993	0	0	0	0
38.79972	0.04155971	-0.01038993	0	0	0	0
38.81612	0.04155971	-0.01038993	0	0	0	0
38.83268	0.04155971	-0.01038993	0	0	0	0
38.84925	0.04155971	-0.01038993	0	0	0	0
38.86582	0.04155971	-0.01038993	0	0	0	0
38.88239	0.04155971	-0.01038993	0	0	0	0
38.89895	0.04155971	-0.01038993	0	0	0	0
38.91588	0.04155971	-0.01038993	0	0	0	0
38.93208	0.04155971	-0.01038993	0	0	0	0
38.94865	0.04155971	-0.01038993	0	0	0	0
38.96522	0.04155971	-0.01038993	0	0	0	0
38.98178	0.04155971	-0.01038993	0	0	0	0
38.99835	0.04155971	-0.01038993	0	0	0	0
39.01492	0.04155971	-0.01038993	0	0	0	0
39.03149	0.04155971	-0.01038993	0	0	0	0
39.04805	0.04155971	-0.01038993	0	0	0	0
39.06462	0.04155971	-0.01038993	0	0	0	0
39.08119	0.04155971	-0.01038993	0	0	0	0
39.09776	0.04155971	-0.01038993	0	0	0	0
39.11432	0.04155971	-0.01038993	0	0	0	0
39.13089	0.04155971	-0.01038993	0	0	0	0
39.15153	0.04155971	-0.01038993	0	0	0	0
39.16809	0.04155971	-0.01038993	0	0	0	0
39.18466	0.04155971	-0.01038993	0	0	0	0
39.20127	0.04155971	-0.01038993	0	0	0	0
39.2178	0.04155971	-0.01038993	0	0	0	0
39.23436	0.04155971	-0.01038993	0	0	0	0
39.25093	0.04155971	-0.01038993	0	0	0	0
39.2675	0.04155971	-0.01038993	0	0	0	0
39.28407	0.04155971	-0.01038993	0	0	0	0
39.30063	0.04155971	-0.01038993	0	0	0	0
39.3172	0.04155971	-0.01038993	0	0	0	0
39.33391	0.04155971	-0.01038993	0	0	0	0
39.35033	0.04155971	-0.01038993	0	0	0	0
39.3669	0.04155971	-0.01038993	0	0	0	0
39.38347	0.04155971	-0.01038993	0	0	0	0
39.40009	0.04155971	-0.01038993	0	0	0	0
39.4166	0.04155971	-0.01038993	0	0	0	0
39.43317	0.04155971	-0.01038993	0	0	0	0
39.44974	0.04155971	-0.01038993	0	0	0	0
39.46678	0.04155971	-0.01038993	0	0	0	0
39.48287	0.04155971	-0.01038993	0	0	0	0
39.49944	0.04155971	-0.01038993	0	0	0	0
39.51601	0.04155971	-0.01038993	0	0	0	0
39.53257	0.05011613	-0.009167584	0.5164662	0.07378083	15.58698	2.22671
39.54914	0.0794524	-0.004278206	1.770741	0.2951234	37.85408	6.680133
39.56576	0.1381249	-0.0006111723	3.530102	0.2206314	53.01217	-2.244557
39.58228	0.2077986	0.006722895	4.21911	0.4441168	20.79432	6.744805
39.59884	0.2725828	0.01038993	3.910386	0.2213426	-9.332363	-6.734194
39.61541	0.3202542	0.01283462	2.877452	0.1475617	-31.174	-2.226713
39.63198	0.3434788	0.01527931	1.401837	0.1475618	-44.53413	3.597743E-06
39.64872	0.3508129	0.01650165	0.4380465	0.07300761	-28.93404	-2.238196
39.66511	0.3532576	0.01650165	0.1491411	0	-8.71918	-2.203374
39.68168	0.3557022	0.01650165	0.1475597	-1.124295E-07	-0.04798267	-3.411194E-06
39.69825	0.3593693	0.01650165	0.221344	1.124295E-07	2.226815	6.786257E-06
39.71505	0.3630363	0.01405696	0.2182286	-0.1454849	-0.09335661	-4.359629
39.73138	0.3715927	0.009167585	0.5240672	-0.2994674	9.231292	-4.647737
39.74825	0.3813715	0.003055861	0.5797027	-0.3623138	1.675994	-1.89322
39.76461	0.3838162	0.001833517	0.1493827	-0.07469235	-12.94833	8.654527
39.78113	0.3838162	0.001833517	0	0	-4.542369	2.271216
39.79764	0.3838162	0.001833517	0	0	0	0
39.81421	0.3838162	0.001833517	0	0	0	0
39.83077	0.3862608	0.001833517	0.1475614	-7.026843E-09	4.453413	-2.120705E-07
39.8513	0.3899279	0.001833517	0.1786797	0	0.8389868	1.894523E-07
39.86786	0.3911502	0.0006111722	0.07378072	-0.07378085	-2.828206	-1.989222
39.88443	0.3911502	0.0006111722	0	0	-2.226707	2.226711
39.9131	0.3911502	0.0006111722	0	0	0	0
39.93015	0.3911502	0.0006111722	0	0	0	0
39.94672	0.3911502	0.0006111722	0	0	0	0
39.96328	0.3911502	0.0006111722	0	0	0	0
39.99243	0.3911502	0.0006111722	0	0	0	0
40.00997	0.3911502	0.0006111722	0	0	0	0
40.02746	0.3911502	0.0006111722	0	0	0	0
40.0458	0.3911502	0.0006111722	0	0	0	0
40.06308	0.3862609	0.0006111723	-0.2830026	3.36913E-09	-7.945532	9.459111E-08
40.08121	0.3752597	0.0006111722	-0.60675	-3.210349E-09	-9.143336	-1.858189E-07
40.09845	0.3642587	0.0006111722	-0.6381631	0	-0.8881326	9.076507E-08
40.11705	0.3447011	0.0006111722	-1.051454	0	-11.53185	0
40.1356	0.322699	-0.0006111722	-1.185559	-0.06586439	-3.608937	-1.772503
40.15444	0.2982521	-0.0006111723	-1.298076	-3.090701E-09	-3.00916	1.761473
40.17411	0.2481359	-0.00550055	-2.547042	-0.2484919	-32.43279	-6.452765
40.19068	0.2102432	-0.006722894	-2.287208	-0.07378083	7.169147	4.820488
40.20725	0.1735729	-0.006722895	-2.213424	-2.810737E-08	2.226787	2.226709
40.22903	0.1515707	-0.006722895	-1.010113	0	31.37778	7.329333E-07
40.2456	0.1344579	-0.00550055	-1.032933	0.07378086	-0.5950525	1.923924
40.26217	0.1320132	-0.00550055	-0.1475614	2.810737E-08	26.72056	-2.22671
40.27873	0.1307909	-0.00550055	-0.07378072	-2.810737E-08	2.226707	-1.696564E-06
40.2953	0.1307909	-0.00550055	0	0	2.226707	8.482821E-07
40.31187	0.1295685	-0.00550055	-0.07378072	0	-2.226707	0
40.32915	0.1271238	-0.00550055	-0.1414709	0	-1.99984	0
40.345	0.1185674	-0.006722894	-0.5397035	-0.07710062	-12.01868	-2.326901
40.36157	0.1087887	-0.00794524	-0.5902476	-0.07378089	-1.558987	0.1023939
40.37867	0.09778756	-0.009167584	-0.643147	-0.07146079	-1.571005	0.06890237
40.3947	0.08678646	-0.009167584	-0.6864725	0	-1.307718	2.156939
40.41127	0.07089598	-0.01161227	-0.9591512	-0.1475618	-8.366231	-4.527439
40.42783	0.06478427	-0.01283462	-0.3689041	-0.07378078	17.81369	2.226715
40.4444	0.0550055	-0.01283462	-0.5902474	0	-6.680154	2.226708
40.46097	0.05378316	-0.01283462	-0.07378072	0	15.587	0
40.47754	0.05378316	-0.01283462	0	0	2.226707	0
40.4941	0.05378316	-0.01283462	0	0	0	0
40.51067	0.05378316	-0.01283462	0	0	0	0
40.52724	0.05378316	-0.01283462	0	0	0	0
40.54388	0.05378316	-0.01283462	0	0	0	0
40.56037	0.05378316	-0.01283462	0	0	0	0
40.57701	0.05378316	-0.01283462	0	0	0	0
40.59399	0.05378316	-0.01283462	0	0	0	0
40.61007	0.05378316	-0.01283462	0	0	0	0
40.62664	0.05378316	-0.01283462	0	0	0	0
40.64321	0.05378316	-0.01283462	0	0	0	0
40.66009	0.05378316	-0.01283462	0	0	0	0
40.67634	0.05378316	-0.01283462	0	0	0	0
40.69291	0.05378316	-0.01283462	0	0	0	0
40.70947	0.05378316	-0.01283462	0	0	0	0
40.72604	0.05378316	-0.01283462	0	0	0	0
40.74261	0.05378316	-0.01283462	0	0	0	0
40.75946	0.05378316	-0.01283462	0	0	0	0
40.77574	0.05378316	-0.01283462	0	0	0	0
40.90262	0.05378316	-0.01283462	0	0	0	0
40.92001	0.05378316	-0.01283462	0	0	0	0
40.93658	0.05378316	-0.01283462	0	0	0	0
40.95315	0.05378316	-0.01283462	0	0	0	0
40.9701	0.05378316	-0.01283462	0	0	0	0
40.98666	0.05378316	-0.01283462	0	0	0	0
41.00323	0.05378316	-0.01283462	0	0	0	0
41.02016	0.05378316	-0.01283462	0	0	0	0
41.03636	0.05378316	-0.01283462	0	0	0	0
41.05293	0.05378316	-0.01283462	0	0	0	0
41.06949	0.05378316	-0.01283462	0	0	0	0
41.08606	0.05378316	-0.01283462	0	0	0	0
41.10263	0.05378316	-0.01283462	0	0	0	0
41.11919	0.05378316	-0.01283462	0	0	0	0
41.13576	0.05378316	-0.01283462	0	0	0	0
41.15232	0.05378316	-0.01283462	0	0	0	0
41.17332	0.05378316	-0.01283462	0	0	0	0
41.19164	0.05378316	-0.01283462	0	0	0	0
41.21053	0.05378316	-0.01283462	0	0	0	0
41.2294	0.05378316	-0.01283462	0	0	0	0
41.24847	0.05378316	-0.01283462	0	0	0	0
41.26796	0.05378316	-0.01283462	0	0	0	0
41.28626	0.05378316	-0.01283462	0	0	0	0
41.30283	0.05378316	-0.01283462	0	0	0	0
41.32035	0.05378316	-0.01283462	0	0	0	0
41.33694	0.05378316	-0.01283462	0	0	0	0
41.35349	0.05378316	-0.01283462	0	0	0	0
41.37034	0.05378316	-0.01283462	0	0	0	0
41.38662	0.05378316	-0.01283462	0	0	0	0
41.40928	0.05378316	-0.01283462	0	0	0	0
41.42585	0.05378316	-0.01283462	0	0	0	0
41.44352	0.05378316	-0.01283462	0	0	0	0
41.46009	0.05378316	-0.01283462	0	0	0	0
41.47665	0.05378316	-0.01283462	0	0	0	0
41.49322	0.05378316	-0.01283462	0	0	0	0
41.50979	0.05378316	-0.01283462	0	0	0	0
41.52636	0.05378316	-0.01283462	0	0	0	0
41.54299	0.05378316	-0.01283462	0	0	0	0
41.55949	0.05378316	-0.01283462	0	0	0	0
41.57631	0.05378316	-0.01283462	0	0	0	0
41.59262	0.05378316	-0.01283462	0	0	0	0
41.60919	0.05378316	-0.01283462	0	0	0	0
41.62624	0.05378316	-0.01283462	0	0	0	0
41.64232	0.05378316	-0.01283462	0	0	0	0
41.65889	0.05378316	-0.01283462	0	0	0	0
41.67581	0.05378316	-0.01283462	0	0	0	0
41.69202	0.05378316	-0.01283462	0	0	0	0
41.70859	0.05378316	-0.01283462	0	0	0	0
41.72515	0.05378316	-0.01283462	0	0	0	0
41.74172	0.05378316	-0.01283462	0	0	0	0
41.75829	0.05378316	-0.01283462	0	0	0	0
41.78025	0.05378316	-0.01283462	0	0	0	0
41.79681	0.05378316	-0.01283462	0	0	0	0
41.81338	0.05378316	-0.01283462	0	0	0	0
41.82995	0.05378316	-0.01283462	0	0	0	0
41.84654	0.05378316	-0.01283462	0	0	0	0
41.86402	0.05378316	-0.01283462	0	0	0	0
41.88059	0.05378316	-0.01283462	0	0	0	0
41.89716	0.05378316	-0.01283462	0	0	0	0
41.91372	0.05378316	-0.01283462	0	0	0	0
41.93029	0.05378316	-0.01283462	0	0	0	0
41.94686	0.05378316	-0.01283462	0	0	0	0
41.96898	0.05378316	-0.01283462	0	0	0	0
41.98588	0.05378316	-0.01283462	0	0	0	0
42.0025	0.05378316	-0.01283462	0	0	0	0
42.02007	0.05378316	-0.01283462	0	0	0	0
42.03664	0.05378316	-0.01283462	0	0	0	0
42.05336	0.05378316	-0.01283462	0	0	0	0
42.06977	0.05378316	-0.01283462	0	0	0	0
42.08635	0.05378316	-0.01283462	0	0	0	0
42.11332	0.05378316	-0.01283462	0	0	0	0
42.13056	0.05378316	-0.01283462	0	0	0	0
42.14713	0.05378316	-0.01283462	0	0	0	0
42.1637	0.05378316	-0.01283462	0	0	0	0
42.19106	0.05378316	-0.01283462	0	0	0	0
42.20763	0.05378316	-0.01283462	0	0	0	0
42.2242	0.05378316	-0.01283462	0	0	0	0
42.24076	0.05378316	-0.01283462	0	0	0	0
42.25758	0.05378316	-0.01283462	0	0	0	0
42.2739	0.05378316	-0.01283462	0	0	0	0
42.29046	0.05378316	-0.01283462	0	0	0	0
42.30703	0.05378316	-0.01283462	0	0	0	0
42.3236	0.05378316	-0.01283462	0	0	0	0
42.34157	0.05378316	-0.01283462	0	0	0	0
42.35889	0.05378316	-0.01283462	0	0	0	0
42.37882	0.05378316	-0.01283462	0	0	0	0
42.39655	0.05378316	-0.01283462	0	0	0	0
42.4137	0.05378316	-0.01283462	0	0	0	0
42.43375	0.05378316	-0.01283462	0	0	0	0
42.45058	0.05378316	-0.01283462	0	0	0	0
42.46984	0.05378316	-0.01283462	0	0	0	0
42.4941	0.05378316	-0.01283462	0	0	0	0
42.51067	0.05378316	-0.01283462	0	0	0	0
42.52723	0.05378316	-0.01283462	0	0	0	0
42.54403	0.05378316	-0.01283462	0	0	0	0
42.56037	0.05378316	-0.01283462	0	0	0	0
42.57693	0.05378316	-0.01283462	0	0	0	0
42.5935	0.05378316	-0.01283462	0	0	0	0
42.61007	0.05378316	-0.01283462	0	0	0	0
42.62663	0.05378316	-0.01283462	0	0	0	0
42.6432	0.05378316	-0.01283462	0	0	0	0
42.65977	0.05378316	-0.01283462	0	0	0	0
42.67633	0.05378316	-0.01283462	0	0	0	0
42.6929	0.05378316	-0.01283462	0	0	0	0
42.70947	0.05378316	-0.01283462	0	0	0	0
42.72629	0.05378316	-0.01283462	0	0	0	0
42.7426	0.05378316	-0.01283462	0	0	0	0
42.75917	0.05378316	-0.01283462	0	0	0	0
42.77595	0.05378316	-0.01283462	0	0	0	0
42.79251	0.05378316	-0.01283462	0	0	0	0
42.80887	0.05378316	-0.01283462	0	0	0	0
42.82553	0.05378316	-0.01283462	0	0	0	0
42.84201	0.05378316	-0.01283462	0	0	0	0
42.85887	0.05378316	-0.01283462	0	0	0	0
42.87514	0.05378316	-0.01283462	0	0	0	0
42.89171	0.05378316	-0.01283462	0	0	0	0
42.90837	0.05378316	-0.01283462	0	0	0	0
42.92488	0.05378316	-0.01283462	0	0	0	0
42.94141	0.05378316	-0.01283462	0	0	0	0
42.95798	0.05378316	-0.01283462	0	0	0	0
42.97489	0.05378316	-0.01283462	0	0	0	0
42.99111	0.05378316	-0.01283462	0	0	0	0
43.00768	0.05378316	-0.01283462	0	0	0	0
