Time	Pos X	Pos Y	Vel X	Vel Y	Acc X	Acc Y
0.03267472	0.03911502	0.006722894	-0.0006521082	-0.0001120811	1.087773E-05	1.86961E-06
0.06628817	0.03911502	0.006722894	0	0	-1.087775E-05	-1.869613E-06
0.1017443	0.03911502	0.006722894	0	0	0	0
0.1358627	0.03911502	0.006722894	0	0	0	0
0.1859994	0.03911502	0.006722894	0	0	0	0
0.2199591	0.03911502	0.006722894	0	0	0	0
0.2538035	0.03911502	0.006722894	0	0	0	0
0.2887931	0.03911502	0.006722894	0	0	0	0
0.322298	0.03911502	0.006722894	0	0	0	0
0.3559987	0.03911502	0.006722894	0	0	0	0
0.3910992	0.03911502	0.006722894	0	0	0	0
0.4246396	0.03911502	0.006722894	0	0	0	0
0.4577276	0.03911502	0.006722894	0	0	0	0
0.4919822	0.03911502	0.006722894	0	0	0	0
0.5253051	0.03911502	0.006722894	0	0	0	0
0.5594065	0.03911502	0.006722894	0	0	0	0
0.5931833	0.03911502	0.006722894	0	0	0	0
0.6265003	0.03911502	0.006722894	0	0	0	0
0.6601994	0.03911502	0.0006111722	0	-0.1813616	0	-2.706241
0.6941512	0.04278206	-0.0482826	0.1080072	-1.440096	1.596538	-18.60633
0.728108	0.04033737	-0.1900746	-0.07199389	-4.175647	-2.650636	-40.28281
0.7615624	0.0440044	-0.2426354	0.1096129	-1.57112	2.694014	38.63639
0.7958493	0.04644909	-0.2463024	0.07130101	-0.1069516	-0.5655624	21.61412
0.8345764	0.1002323	-0.2279672	1.388773	0.4734452	18.0441	7.949116
0.8682811	0.1540154	-0.2132991	1.595719	0.4351968	2.857119	-0.5280616
0.9025281	0.1796846	-0.2120768	0.7495314	0.03569147	-12.45279	-5.879256
0.9367309	0.2126879	-0.2267449	0.9649298	-0.4288576	3.146806	-6.786706
0.9716676	0.2456913	-0.2487471	0.9446613	-0.6297736	-0.2931546	-2.905952
1.009336	0.2566923	-0.2634152	0.2920474	-0.3893983	-8.9885	3.310707
1.042913	0.259137	-0.2658599	0.07280901	-0.07280812	-3.077209	4.44363
1.076487	0.259137	-0.2658599	0	0	-1.08427	1.084257
1.111155	0.2738051	-0.2524141	0.4230939	0.3878369	6.199919	5.683272
1.145463	0.2896957	-0.2365237	0.4631791	0.4631778	0.581147	1.092275
1.184248	0.2994744	-0.2243002	0.2521231	0.315155	-2.887498	-2.025129
1.219142	0.3129202	-0.2145215	0.3853327	0.2802418	1.807959	-0.473852
1.286377	0.3129202	-0.2145215	0	0	-3.773009	-2.744005
1.323912	0.3129202	-0.2145215	0	0	0	0
1.395126	0.3129202	-0.2145215	0	0	0	0
1.430434	0.3129202	-0.2145215	0	0	0	0
1.465451	0.3116978	-0.2145215	-0.03490805	0	-0.4963816	0
1.501107	0.3068085	-0.2145215	-0.1371235	0	-1.44632	0
1.539081	0.2970297	-0.2132991	-0.257513	0.03218864	-1.635048	0.437164
1.574166	0.2786945	-0.2084097	-0.5225968	0.1393593	-3.628372	1.466914
1.609741	0.25547	-0.1974086	-0.6528258	0.3092337	-1.843035	2.404106
1.650648	0.2310231	-0.1827405	-0.5976285	0.3585767	0.7217037	0.6451591
1.694843	0.2114656	-0.1692947	-0.4425204	0.3042331	1.822611	-0.6385695
1.741123	0.1821293	-0.1399584	-0.6338866	0.6338863	-2.115112	3.643556
1.78088	0.1466813	-0.09962108	-0.8916159	1.014597	-2.995562	4.424968
1.815493	0.1320132	-0.08250826	-0.423781	0.4944111	6.290677	-6.994614
1.850143	0.1283462	-0.07639653	-0.1058291	0.1763823	4.590502	-4.591612
1.888608	0.1259015	-0.07395185	-0.06355742	0.06355742	0.5781568	-1.543124
1.922872	0.1234568	-0.07150715	-0.07134899	0.07134899	-0.1071328	0.1071328
1.958447	0.1210121	-0.07028481	-0.06871773	0.03435886	0.03767572	-0.5296431
1.993595	0.1161227	-0.06295075	-0.1391105	0.2086657	-0.9953283	2.464635
2.028356	0.110011	-0.05683902	-0.1758198	0.1758198	-0.5251029	-0.4698392
2.066808	0.1075663	-0.05439433	-0.0635783	0.0635782	1.533082	-1.533083
2.101937	0.106344	-0.05317199	-0.03479577	0.03479598	0.3911706	-0.3911664
2.138096	0.1051216	-0.05194964	-0.03380417	0.03380427	0.01390978	-0.01391135
2.173763	0.1051216	-0.05194964	0	0	0.4706367	-0.4706381
2.208833	0.1051216	-0.0507273	-2.124463E-07	0.03485405	-3.003311E-06	0.4927247
2.254213	0.1026769	-0.04950495	-0.05387184	0.02693592	-0.6696281	-0.09842291
2.290698	0.1014546	-0.04828261	-0.03350328	0.03350318	0.2488093	0.08022147
2.325263	0.1014546	-0.04828261	0	0	0.4715472	-0.4715457
2.361013	0.1002323	-0.0482826	-0.03419125	1.042035E-07	-0.4862557	1.481945E-06
2.402156	0.1002323	-0.0482826	0	0	0.4446596	-1.355174E-06
2.437	0.09289818	-0.04828261	-0.2104806	-1.069122E-07	-2.769943	-1.406973E-06
2.471754	0.08434177	-0.04828261	-0.2462024	0	-0.5132601	1.536139E-06
2.506586	0.07823005	-0.04828261	-0.1754642	-1.06951E-07	1.016568	-1.536976E-06
2.540905	0.07823005	-0.04828261	0	0	2.537409	1.546631E-06
2.580998	0.07823005	-0.04828261	0	0	0	0
2.617584	0.07456301	-0.0482826	-0.1002297	2.036441E-07	-1.307122	2.655776E-06
2.652215	0.06722895	-0.04583792	-0.2117773	0.07059234	-1.566298	0.9912218
2.688738	0.06478426	-0.04583792	-0.06693681	0	2.035608	-0.9921148
2.723479	0.06478426	-0.04583792	0	0	0.9392884	0
2.761832	0.06356191	-0.04583792	-0.03187047	9.712993E-08	-0.4360166	1.328825E-06
2.803375	0.06233957	-0.04583792	-0.02942412	0	0.03061919	-1.215708E-06
2.848332	0.06233957	-0.04583792	0	0	0.3401645	0
2.889293	0.06233957	-0.04583792	0	0	0	0
2.934855	0.06111723	-0.04583792	-0.02682809	-8.176305E-08	-0.3100687	-9.449857E-07
2.970313	0.05622784	-0.04461557	-0.1378919	0.03447308	-1.370818	0.425489
3.005648	0.05378316	-0.04461557	-0.0691859	0	0.9705179	-0.4869551
3.040395	0.05378316	-0.04461557	0	0	0.9872142	0
3.078626	0.05133847	-0.04339323	-0.06394615	0.03197293	-0.8762471	0.4381216
3.113479	0.05011612	-0.04339323	-0.03507101	1.068844E-07	0.3950959	-0.4374812
3.149857	0.05011613	-0.04217089	1.024053E-07	0.03360122	0.4923549	0.471718
3.184472	0.04767143	-0.04094854	-0.07062465	0.03531232	-0.9948103	0.02410232
3.220071	0.04644909	-0.03972619	-0.03433666	0.03433676	0.5168197	-0.01389415
3.258184	0.04522675	-0.0397262	-0.03207173	-9.774361E-08	0.03072682	-0.4658268
3.294252	0.04155971	-0.03728151	-0.1016708	0.0677806	-0.938238	0.9137253
3.329081	0.03789268	-0.03361447	-0.1052849	0.1052849	-0.05097723	0.5289951
3.363999	0.03667033	-0.03239213	-0.03500601	0.03500601	1.007617	-1.007617
3.400212	0.03667033	-0.03116978	0	0.03375486	0.4921377	-0.0175895
3.438901	0.03667033	-0.03116978	0	0	0	-0.4506533
3.473171	0.03667033	-0.03116978	0	0	0	0
3.508565	0.03667033	-0.03116978	0	0	0	0
3.542974	0.03667033	-0.03116978	0	0	0	0
3.585949	0.03667033	-0.03116978	0	0	0	0
3.627361	0.03667033	-0.03116978	0	0	0	0
3.662874	0.03667033	-0.03116978	0	0	0	0
3.701036	0.03667033	-0.03116978	0	0	0	0
3.735408	0.03667033	-0.03116978	0	0	0	0
3.77013	0.03667033	-0.03116978	0	0	0	0
3.810494	0.03667033	-0.03116978	0	0	0	0
3.876758	0.03667033	-0.03116978	0	0	0	0
3.943215	0.03667033	-0.03116978	0	0	0	0
3.990934	0.03667033	-0.03116978	0	0	0	0
4.033593	0.03667033	-0.03116978	0	0	0	0
4.073039	0.03667033	-0.03116978	0	0	0	0
4.114594	0.03667033	-0.03116978	0	0	0	0
4.15002	0.03667033	-0.03116978	0	0	0	0
4.185017	0.03667033	-0.03116978	0	0	0	0
4.219634	0.03667033	-0.03116978	0	0	0	0
4.261272	0.03667033	-0.03116978	0	0	0	0
4.296901	0.03667033	-0.03116978	0	0	0	0
4.331462	0.03667033	-0.03116978	0	0	0	0
4.365952	0.03667033	-0.03116978	0	0	0	0
4.401363	0.03667033	-0.03116978	0	0	0	0
4.436967	0.03667033	-0.03116978	0	0	0	0
4.471289	0.03667033	-0.03116978	0	0	0	0
4.506477	0.03422564	-0.03116978	-0.06947383	0	-0.9994798	0
4.540787	0.04033737	-0.03361447	0.1781332	-0.07125322	3.562766	-1.025248
4.575954	0.04033737	-0.03361447	0	0	-2.563913	1.025564
4.611421	0.04033737	-0.03361447	0	0	0	0
4.647167	0.04033737	-0.03361447	0	0	0	0
4.686152	0.04033737	-0.03361447	0	0	0	0
4.721242	0.04033737	-0.03361447	0	0	0	0
4.755917	0.04033737	-0.03361447	0	0	0	0
4.790792	0.04033737	-0.03361447	0	0	0	0
4.826031	0.04033737	-0.03361447	0	0	0	0
4.860642	0.04033737	-0.03361447	0	0	0	0
4.895827	0	0.003055861	-1.146457	1.042233	-16.4258	14.93255
4.930713	0	0.003055861	0	0	16.36142	-14.87401
4.965427	0	0.003055861	0	0	0	0
5.000663	0	0.003055861	0	0	0	0
5.03931	0	0.003055861	0	0	0	0
5.073772	0	0.003055861	0	0	0	0
5.108912	0	0.003055861	0	0	0	0
5.149075	0	0.003055861	0	0	0	0
5.192749	0	0.003055861	0	0	0	0
5.235797	0	0.003055861	0	0	0	0
5.279607	0	0.003055861	0	0	0	0
5.316341	0	0.003055861	0	0	0	0
5.350787	0	0.003055861	0	0	0	0
5.391866	0	0.003055861	0	0	0	0
5.426269	0	0.003055861	0	0	0	0
5.460536	0	0.003055861	0	0	0	0
5.495971	0	0.003055861	0	0	0	0
5.530457	0	0.003055861	0	0	0	0
5.565151	0	0.003055861	0	0	0	0
5.60091	0	0.003055861	0	0	0	0
5.636855	0	0.003055861	0	0	0	0
5.671957	0	0.003055861	0	0	0	0
5.707093	0	0.003055861	0	0	0	0
5.74126	0	0.003055861	0	0	0	0
5.777902	0	0.003055861	0	0	0	0
5.813626	-0.007334067	0.01283462	-0.2052971	0.2737294	-2.836918	3.782557
5.851177	-0.02811392	0.03483682	-0.553378	0.5859297	-4.750331	4.26066
5.886166	-0.07211833	0.0727295	-1.257685	1.083007	-9.709317	6.85252
5.924699	-0.113678	0.1179562	-1.078529	1.173694	2.436768	1.233463
5.966092	-0.149126	0.1509595	-0.8563904	0.7973288	2.779304	-4.708916
6.001687	-0.1625718	0.1644053	-0.3777446	0.3777446	6.217208	-5.450047
6.038833	-0.1821293	0.1827405	-0.5265024	0.493596	-2.045033	1.592657
6.077668	-0.1931304	0.1937416	-0.283274	0.2832744	3.201147	-2.76806
6.113784	-0.1967975	0.1961863	-0.1015361	0.06769045	2.424751	-2.876325
6.150052	-0.2102433	0.2059651	-0.3707324	0.2696235	-3.719009	2.789751
6.185026	-0.2359125	0.2169661	-0.7339594	0.3145536	-5.098505	0.6306708
6.219603	-0.2762499	0.2353013	-1.166599	0.530273	-6.22051	3.101622
6.25946	-0.2811393	0.237746	-0.1226723	0.06133579	14.02481	-6.300017
6.347988	-0.2811393	0.237746	0	0	0.9554996	-0.4777469
6.433293	-0.2811393	0.237746	0	0	0	0
6.477875	-0.2652487	0.234079	0.356438	-0.08225528	2.744224	-0.6332852
6.513892	-0.2383572	0.2230778	0.7466368	-0.3054427	4.841275	-2.769131
6.549237	-0.1906857	0.198631	1.348743	-0.6916624	8.437346	-5.412118
6.584763	-0.1515707	0.1815182	1.101017	-0.4816952	-3.495426	2.962652
6.623587	-0.1234568	0.1717394	0.7241448	-0.2518765	-5.068905	3.091044
6.659658	-0.1051216	0.163183	0.5083036	-0.2372083	-2.881921	0.1958506
6.696492	-0.09045349	0.1546266	0.3982202	-0.232295	-1.509946	0.06739187
6.731905	-0.08067474	0.1460702	0.2761325	-0.241616	-1.689853	-0.1290143
6.766967	-0.0660066	0.131402	0.4183505	-0.4183505	2.01799	-2.507759
6.806376	-0.05867254	0.124068	0.1861005	-0.1861004	-3.118664	3.118665
6.841331	-0.05011613	0.1167339	0.24479	-0.2098199	0.7892275	-0.3189686
6.876461	-0.04522675	0.1118445	0.1391776	-0.1391777	-1.506927	1.007957
6.912429	-0.04278206	0.1069551	0.06796885	-0.1359375	-1.001554	0.0455741
6.948681	-0.04033737	0.1032881	0.06743591	-0.1011541	-0.007379412	0.4816317
6.987113	-0.03544799	0.0947317	0.1272195	-0.2226342	0.8004807	-1.626574
7.022937	-0.03178095	0.08739763	0.1023631	-0.204726	-0.3347374	0.2411668
7.058493	-0.03178095	0.08739763	0	0	-1.434075	2.868147
7.09442	-0.03178095	0.08739763	0	0	0	0
7.130692	-0.03178095	0.08739763	0	0	0	0
7.169981	-0.03178095	0.08617528	0	-0.03111176	0	-0.4117407
7.205952	-0.03055861	0.08495294	0.03398162	-0.03398141	0.4515249	-0.03813006
7.241536	-0.03055861	0.08495294	0	0	-0.4749075	0.4749046
7.277074	-0.03055861	0.0837306	-5.241178E-08	-0.03439471	-7.369261E-07	-0.4836004
7.313875	-0.03055861	0.0837306	0	0	7.245247E-07	0.4754621
7.353887	-0.03055861	0.0837306	0	0	0	0
7.391369	-0.03055861	0.0837306	0	0	0	0
7.428272	-0.03055861	0.08250826	5.047356E-08	-0.03312277	6.785434E-07	-0.4452873
7.464212	-0.02933627	0.08128591	0.03401053	-0.03401068	0.4668975	-0.0121893
7.505811	-0.02933627	0.08006357	0	-0.02938408	-0.4386249	0.05966813
7.541461	-0.02933627	0.07884122	0	-0.03428706	0	-0.06346979
7.577067	-0.02933627	0.07884122	0	0	0	0.4811803
7.614981	-0.02933627	0.07884122	0	0	0	0
7.654087	-0.02811392	0.07761887	0.03125729	-0.03125743	0.4058375	-0.4058394
7.69034	-0.02077986	0.07150715	0.2023025	-0.1685855	2.269743	-1.822321
7.726439	-0.02077986	0.07150715	0	0	-2.796053	2.330045
7.762239	-0.02077986	0.07150715	0	0	0	0
7.798832	-0.02077986	0.07150715	0	0	0	0
7.837988	-0.02077986	0.07150715	0	0	0	0
7.873409	-0.02077986	0.07028481	0	-0.03450907	0	-0.4627287
7.909382	-0.02077986	0.07028481	0	0	0	0.4833612
7.944367	-0.02077986	0.07028481	0	0	0	0
7.980159	-0.02077986	0.07028481	0	0	0	0
8.021152	-0.02077986	0.06906246	0	-0.02981816	0	-0.3883327
8.056671	-0.02077986	0.06906246	0	0	0	0.3897195
8.09277	-0.02077986	0.06906246	0	0	0	0
8.128275	-0.02077986	0.06906246	0	0	0	0
8.164052	-0.02077986	0.06784012	0	-0.0341655	0	-0.4792979
8.203767	-0.02077986	0.06784012	0	0	0	0.4525717
8.239328	-0.02077986	0.06784012	0	0	0	0
8.274523	-0.01833517	0.06539543	0.06946243	-0.06946253	0.9817184	-0.9817199
8.31073	-0.01711282	0.0617284	0.0337597	-0.101279	-0.500027	-0.4455995
8.346491	-0.01589048	0.05928371	0.03418104	-0.06836209	0.005854613	0.4573827
8.391788	-0.01344579	0.05317198	0.05397062	-0.1349266	0.2441422	-0.8212009
8.427458	-0.009778756	0.04217089	0.1028036	-0.3084108	0.6031228	-2.142654
8.463561	-0.004889378	0.02994744	0.1354276	-0.3385692	0.454541	-0.4201883
8.499664	-0.001222344	0.01894634	0.1015707	-0.3047121	-0.4688901	0.4688916
8.53818	-0.001222344	0.017724	0	-0.03173597	-1.361186	3.658252
8.573357	-0.001222344	0.017724	0	0	0	0.4306551
8.618368	-0.001222344	0.017724	0	0	0	0
8.656199	-0.001222344	0.017724	0	0	0	0
8.731775	-0.001222344	0.017724	0	0	0	0
8.802638	-0.001222344	0.017724	0	0	0	0
8.83864	-0.001222344	0.017724	0	0	0	0
8.877825	-0.001222344	0.017724	0	0	0	0
8.91423	-0.001222344	0.017724	0	0	0	0
8.949934	-0.001222344	0.017724	0	0	0	0
8.985185	-0.001222344	0.017724	0	0	0	0
9.021552	-0.001222344	0.017724	0	0	0	0
9.058706	-0.001222344	0.017724	0	0	0	0
9.095484	-0.001222344	0.017724	0	0	0	0
9.131854	-0.001222344	0.017724	0	0	0	0
9.167572	-0.001222344	0.017724	0	0	0	0
9.203883	-0.001222344	0.017724	0	0	0	0
9.239428	-0.001222344	0.017724	0	0	0	0
9.274831	-0.001222344	0.017724	0	0	0	0
9.311119	-0.001222344	0.017724	0	0	0	0
9.346622	-0.001222344	0.017724	0	0	0	0
9.382301	-0.001222344	0.017724	0	0	0	0
9.419058	-0.001222344	0.017724	0	0	0	0
9.454212	-0.001222344	0.017724	0	0	0	0
9.490323	-0.001222344	0.017724	0	0	0	0
9.52592	-0.001222344	0.017724	0	0	0	0
9.562242	-0.001222344	0.017724	0	0	0	0
9.598385	-0.001222344	0.017724	0	0	0	0
9.634769	-0.001222344	0.017724	0	0	0	0
9.671041	-0.001222344	0.017724	0	0	0	0
9.707139	-0.001222344	0.017724	0	0	0	0
9.743328	-0.001222344	0.017724	0	0	0	0
9.779449	-0.001222344	0.017724	0	0	0	0
9.81531	-0.001222344	0.017724	0	0	0	0
9.850837	-0.001222344	0.017724	0	0	0	0
9.886715	-0.001222344	0.017724	0	0	0	0
9.921996	-0.001222344	0.017724	0	0	0	0
9.957576	-0.001222344	0.017724	0	0	0	0
9.995963	-0.001222344	0.017724	0	0	0	0
10.03402	-0.001222344	0.017724	0	0	0	0
10.07292	-0.001222344	0.017724	0	0	0	0
10.1256	-0.001222344	0.017724	0	0	0	0
10.16276	-0.001222344	0.017724	0	0	0	0
10.20648	-0.001222344	0.017724	0	0	0	0
10.24494	-0.001222344	0.017724	0	0	0	0
10.28188	-0.001222344	0.017724	0	0	0	0
10.32025	-0.001222344	0.017724	0	0	0	0
10.3576	-0.001222344	0.017724	0	0	0	0
10.39728	-0.001222344	0.017724	0	0	0	0
10.43314	-0.001222344	0.017724	0	0	0	0
10.46877	-0.001222344	0.017724	0	0	0	0
10.50534	-0.001222344	0.017724	0	0	0	0
10.54918	-0.001222344	0.017724	0	0	0	0
10.58461	-0.001222344	0.017724	0	0	0	0
10.62112	-0.001222344	0.017724	0	0	0	0
10.65742	-0.001222344	0.017724	0	0	0	0
10.69412	-0.001222344	0.017724	0	0	0	0
10.73069	-0.001222344	0.017724	0	0	0	0
10.7661	0.004889378	0.01283462	0.1726131	-0.1380905	2.398149	-1.91852
10.80271	0.03544799	-0.03728151	0.8346713	-1.368861	9.192875	-17.08961
10.83863	0.07334067	-0.1497372	1.05469	-3.130049	3.033101	-24.27908
10.87467	0.1026769	-0.2450801	0.8139849	-2.645451	-3.344614	6.733519
10.91163	0.1075663	-0.269527	0.1323069	-0.6615335	-9.338672	27.17874
10.95318	0.1087887	-0.2719716	0.02941746	-0.05883492	-1.310585	7.677056
10.98918	0.1087887	-0.273194	0	-0.03395372	-0.3793264	0.3208332
11.02928	0.1087887	-0.273194	0	0	0	0.4461927
11.07014	0.1087887	-0.2744164	1.823518E-07	-0.02991737	2.252521E-06	-0.3695576
11.11826	0.110011	-0.2915292	0.02539751	-0.355568	0.2854069	-3.659555
11.15655	0.1161227	-0.308642	0.1596525	-0.4470266	1.553705	-1.058431
11.19321	0.1197898	-0.3220878	0.1000199	-0.3667388	-0.79569	1.071297
11.26887	0.1197898	-0.3220878	0	0	-0.8904832	3.265098
11.31602	0.1197898	-0.3220878	0	0	0	0
11.38746	0.1197898	-0.3220878	0	0	0	0
11.42512	0.1197898	-0.3220878	0	0	0	0
11.46885	0.1197898	-0.3220878	0	0	0	0
11.50614	0.1197898	-0.3220878	0	0	0	0
11.54301	0.1197898	-0.3220878	0	0	0	0
11.5808	0.1197898	-0.3220878	0	0	0	0
11.62439	0.1197898	-0.3220878	0	0	0	0
11.66327	0.1197898	-0.3184207	0	0.09429719	0	1.143333
11.70124	0.1149004	-0.3025303	-0.1287775	0.4185264	-1.675576	4.218678
11.74008	0.1014546	-0.2658599	-0.3462239	0.9442469	-2.831215	6.845033
11.78835	0.08923115	-0.2291896	-0.2532445	0.7597337	1.067466	-2.118337
11.82682	0.06722895	-0.1521819	-0.571899	2.001647	-3.673693	14.31772
11.86444	0.05745019	-0.1204009	-0.2599115	0.8447124	4.099942	-15.2037
11.90204	0.04889378	-0.08006357	-0.2275611	1.072788	0.4300554	3.03195
11.94593	0.0440044	-0.05317199	-0.1114031	0.6127173	1.425434	-5.645758
11.98862	0.04033737	-0.04339323	-0.08590626	0.2290833	0.2945043	-4.431207
12.0312	0.03911502	-0.03850385	-0.02870214	0.1148085	0.6708292	-1.340094
12.06778	0.03911502	-0.03850385	0	0	0.3625894	-1.450357
12.10807	0.03911503	-0.03605916	9.245343E-08	0.06067173	1.2028E-06	0.7893264
12.14596	0.03911502	-0.03483682	-9.830754E-08	0.03225677	-2.439775E-06	-0.3634188
12.18298	0.03789268	-0.03361447	-0.03302132	0.03302132	-0.4408054	0.01020618
12.22017	0.03789268	-0.03361447	0	0	0.4449703	-0.4449703
12.26003	0.03667033	-0.0287251	-0.03066973	0.1226791	-0.3980585	1.592236
12.29734	0.03667033	-0.02505806	0	0.09827901	0.3974436	-0.3161961
12.33472	0.03667033	-0.02383572	0	0.03269946	0	-0.8779799
12.37274	0.03667033	-0.02383572	0	0	0	-0.4337162
12.41521	0.03667033	-0.02383572	0	0	0	0
12.45197	0.03667033	-0.02383572	0	0	0	0
12.48918	0.03667033	-0.02383572	0	0	0	0
12.52572	0.03667033	-0.02383572	0	0	0	0
12.56253	0.03667033	-0.02383572	0	0	0	0
12.6005	0.03667033	-0.02383572	0	0	0	0
12.63726	0.03667033	-0.02383572	0	0	0	0
12.67395	0.03544799	-0.02139103	-0.0333087	0.06661745	-0.4534875	0.9069758
12.71166	0.03178096	-0.01650165	-0.0972622	0.1296829	-0.8595907	0.8476548
12.81541	0.03055861	-0.01405696	-0.01178097	0.02356193	0.6042848	-0.7501917
12.85305	0.02689158	-0.009167584	-0.09742979	0.1299064	-0.6057472	0.7521161
12.89073	0.02689158	-0.009167584	0	0	1.293639	-1.724852
12.93058	0.02689158	-0.009167584	0	0	0	0
12.96699	0.02689158	-0.009167584	0	0	0	0
13.00464	0.02689158	-0.009167584	0	0	0	0
13.04122	0.02689158	-0.009167584	0	0	0	0
13.07735	0.02689158	-0.009167584	0	0	0	0
13.11406	0.02689158	-0.009167584	0	0	0	0
13.15046	0.02689158	-0.009167584	0	0	0	0
13.18792	0.02689158	-0.009167584	0	0	0	0
13.2251	0.02689158	-0.009167584	0	0	0	0
13.26181	0.02689158	-0.009167584	0	0	0	0
13.29876	0.02689158	-0.009167584	0	0	0	0
13.33535	0.02689158	-0.009167584	0	0	0	0
13.37201	0.02689158	-0.009167584	0	0	0	0
13.41159	0.02689158	-0.009167584	0	0	0	0
13.44828	0.02689158	-0.009167584	0	0	0	0
13.48491	0.02689158	-0.009167584	0	0	0	0
13.5223	0.02689158	-0.009167584	0	0	0	0
13.56801	0.02689158	-0.009167584	0	0	0	0
13.61255	0.02689158	-0.009167584	0	0	0	0
13.65145	0.02689158	-0.009167584	0	0	0	0
13.69195	0.02689158	-0.009167584	0	0	0	0
13.72994	0.02689158	-0.009167584	0	0	0	0
13.80564	0.02689158	-0.009167584	0	0	0	0
13.87741	0.02689158	-0.009167584	0	0	0	0
13.91453	0.02689158	-0.009167584	0	0	0	0
13.95569	0.02689158	-0.009167584	0	0	0	0
13.99299	0.02689158	-0.009167584	0	0	0	0
14.02995	0.02689158	-0.009167584	0	0	0	0
14.06624	0.02689158	-0.009167584	0	0	0	0
14.10318	0.02689158	-0.009167584	0	0	0	0
14.13976	0.02689158	-0.009167584	0	0	0	0
14.17748	0.02689158	-0.009167584	0	0	0	0
14.21443	0.02689158	-0.009167584	0	0	0	0
14.25125	0.02689158	-0.009167584	0	0	0	0
14.28816	0.02689158	-0.009167584	0	0	0	0
14.32471	0.02689158	-0.009167584	0	0	0	0
14.3622	0.02689158	-0.009167584	0	0	0	0
14.39989	0.02689158	-0.009167584	0	0	0	0
14.43624	0.02689158	-0.009167584	0	0	0	0
14.47236	0.02689158	-0.009167584	0	0	0	0
14.50932	0.02689158	-0.009167584	0	0	0	0
14.54589	0.02689158	-0.009167584	0	0	0	0
14.5822	0.02689158	-0.009167584	0	0	0	0
14.61889	0.02689158	-0.009167584	0	0	0	0
14.65541	0.02689158	-0.009167584	0	0	0	0
14.69322	0.02689158	-0.009167584	0	0	0	0
14.73033	0.02689158	-0.009167584	0	0	0	0
14.76695	0.02689158	-0.009167584	0	0	0	0
14.80414	0.02689158	-0.009167584	0	0	0	0
14.84076	0.02689158	-0.009167584	0	0	0	0
14.87747	0.02689158	-0.009167584	0	0	0	0
14.91517	0.02689158	-0.009167584	0	0	0	0
14.95187	0.02689158	-0.009167584	0	0	0	0
14.98909	0.02689158	-0.009167584	0	0	0	0
15.03392	0.02689158	-0.009167584	0	0	0	0
15.07036	0.02689158	-0.009167584	0	0	0	0
15.10768	0.02689158	-0.009167584	0	0	0	0
15.14389	0.02689158	-0.009167584	0	0	0	0
15.18787	0.02689158	-0.009167584	0	0	0	0
15.22651	0.02689158	-0.009167584	0	0	0	0
15.26429	0.02689158	-0.009167584	0	0	0	0
15.30158	0.02689158	-0.009167584	0	0	0	0
15.33796	0.02689158	-0.009167584	0	0	0	0
15.37435	0.02689158	-0.009167584	0	0	0	0
15.41181	0.02689158	-0.009167584	0	0	0	0
15.4489	0.02689158	-0.009167584	0	0	0	0
15.48557	0.02689158	-0.009167584	0	0	0	0
15.52287	0.02689158	-0.009167584	0	0	0	0
15.5594	0.02689158	-0.009167584	0	0	0	0
15.59643	0.02689158	-0.009167584	0	0	0	0
15.6335	0.02689158	-0.009167584	0	0	0	0
15.67029	0.02689158	-0.009167584	0	0	0	0
15.70743	0.02689158	-0.009167584	0	0	0	0
15.74375	0.02689158	-0.009167584	0	0	0	0
15.78009	0.02689158	-0.009167584	0	0	0	0
15.8169	0.02689158	-0.009167584	0	0	0	0
15.85277	0.02689158	-0.009167584	0	0	0	0
15.88948	0.02689158	-0.009167584	0	0	0	0
15.92617	0.04278206	-0.009167584	0.4331602	0	5.901786	0
15.96249	0.1283462	-0.001833517	2.35561	0.2019094	26.33185	2.765559
16.00034	0.2212444	0.00550055	2.454353	0.1937647	1.331229	-0.1098061
16.03734	0.2603594	0.01161227	1.057362	0.1652128	-18.66552	-0.381488
16.0779	0.2921403	0.01405696	0.783558	0.06027372	-3.530547	-1.353131
16.11469	0.3190319	0.01527931	0.7307808	0.03321727	-0.6822436	-0.3497552
16.15149	0.3349224	0.01527931	0.431802	2.530741E-08	-4.062275	-0.4513283
16.18961	0.3422565	0.01527931	0.1924021	-2.443239E-08	-3.19546	-6.639166E-07
16.2319	0.3495905	0.01527931	0.1734318	0	-0.235931	3.03862E-07
16.26851	0.3679257	0.01527931	0.5008548	0	4.150081	0
16.30544	0.3887056	0.01527931	0.5626234	0	0.839914	0
16.34389	0.3984843	0.01650165	0.2543219	0.03179033	-4.08974	0.4217112
16.42133	0.3984843	0.017724	3.848807E-07	0.0157859	-2.194643	-0.1381087
16.4961	0.3984843	0.017724	0	0	-2.528644E-06	-0.1037125
16.53839	0.3984843	0.017724	0	0	0	0
16.57774	0.397262	0.017724	-0.03106896	0	-0.3805771	0
16.61568	0.3838162	0.01405696	-0.3543515	-0.0966413	-4.182847	-1.25041
16.65318	0.369148	0.009167585	-0.3911861	-0.1303953	-0.4882551	-0.4474208
16.69555	0.3532575	0.006722894	-0.3750091	-0.05769364	0.2025407	0.9102477
16.73407	0.3447011	0.00550055	-0.222135	-0.0317336	1.889842	0.32092
16.77181	0.3410341	0.004278206	-0.09716861	-0.0323896	1.638737	-0.008602377
16.81104	0.3410341	0.004278206	0	0	1.26253	0.420844
16.85214	0.3373671	0.004278206	-0.0892189	0	-1.110709	0
16.89078	0.3324777	0.003055861	-0.1265153	-0.03162869	-0.4676773	-0.3966072
16.92877	0.3288107	0.003055861	-0.0965392	0	0.3911718	0.4127373
16.96622	0.3251436	0.003055861	-0.09790091	0	-0.01804995	0
17.00765	0.3190319	0.003055861	-0.1475418	0	-0.629319	0
17.04599	0.3153649	0.003055861	-0.09563162	-6.071942E-09	0.6507551	-7.611894E-08
17.08311	0.3104755	0.003055861	-0.1317142	6.272239E-09	-0.4781294	1.635724E-07
17.12134	0.3031414	0.001833517	-0.1918653	-0.03197747	-0.7983312	-0.4244085
17.16202	0.2970297	0.001833517	-0.1502397	-2.861738E-09	0.5275395	0.4052649
17.20911	0.2970297	0.001833517	0	0	1.711809	3.260622E-08
17.24639	0.2958074	0.001833517	-0.03278724	0	-0.3886229	0
17.28439	0.294585	0.001833517	-0.0321628	3.063245E-09	0.008294361	4.068867E-08
17.32579	0.2933627	0.001833517	-0.02952525	-2.811902E-09	0.0332165	-7.39898E-08
17.36316	0.2921403	0.001833517	-0.03271527	3.115787E-09	-0.04050104	7.52589E-08
17.40133	0.2921403	0.001833517	0	0	0.4330823	-4.124655E-08
17.43871	0.290918	0.001833517	-0.03270525	-3.114833E-09	-0.4328841	-4.122768E-08
17.48205	0.2896956	0.001833517	-0.0282038	0	0.05576955	3.859043E-08
17.52108	0.2896956	0.001833517	0	0	0.3424086	0
17.55924	0.287251	0.001833517	-0.06406274	0	-0.8299519	0
17.59686	0.2860286	0.0006111722	-0.03249379	-0.03249306	0.4165925	-0.4287873
17.63859	0.2848063	0.0006111722	-0.02928706	0	0.04040983	0.4094633
17.67667	0.2823616	0.0006111722	-0.0642015	0	-0.4374426	0
17.716	0.2811393	0.0006111722	-0.03108025	0	0.4278903	0
17.75513	0.2799169	0.0006111722	-0.03123249	0	-0.00194014	0
17.79723	0.2762499	0.0006111723	-0.0871174	1.382826E-09	-0.6879823	1.702355E-08
17.83441	0.2762499	0.0006111723	0	0	1.098951	-1.744379E-08
17.87187	0.2725828	0.0006111722	-0.09788596	-1.553769E-09	-1.311403	-2.081623E-08
17.91134	0.2689158	0.0006111722	-0.0929051	0	0.06474294	2.019642E-08
17.9525	0.2640264	0.0006111722	-0.1187994	0	-0.3211598	0
17.99027	0.251803	0.0006111723	-0.3236173	1.541058E-09	-2.594997	1.952486E-08
18.02774	0.2444689	0.0006111722	-0.1957328	-1.553453E-09	1.699663	-4.112794E-08
18.06612	0.2334678	0.0006111722	-0.2866386	0	-1.198501	2.048072E-08
18.10753	0.2139103	0.001833517	-0.4722412	0.02951507	-2.326024	0.3698911
18.14519	0.1919081	0.001833517	-0.5843118	0	-1.417375	-0.3732817
18.18287	0.1650165	0.001833517	-0.713653	0	-1.716847	0
18.22105	0.1540154	0.003055861	-0.2881138	0.03201262	5.609179	0.4219693
18.26218	0.1466813	0.003055861	-0.1783058	0	1.384452	-0.4036127
18.29963	0.1320132	0.003055861	-0.3917441	-6.218242E-09	-2.716359	-7.913754E-08
18.33754	0.1051216	0.006722895	-0.7093086	0.09672395	-4.214216	1.283568
18.37583	0.09534287	0.00794524	-0.2553741	0.03192173	5.956809	-0.850375
18.4174	0.09534287	0.00794524	0	0	3.197898	-0.3997367
18.45479	0.08923115	0.007945239	-0.1634514	-2.490722E-08	-2.070142	-3.154546E-07
18.49339	0.06967364	0.00794524	-0.506634	2.412576E-08	-4.515888	6.452176E-07
18.53099	0.0440044	0.00794524	-0.6827697	0	-2.311536	-3.166169E-07
18.57161	0.01466813	0.007945239	-0.7220964	-2.2924E-08	-0.5027561	-2.930623E-07
18.60938	0.006111723	0.00794524	-0.2265325	2.465693E-08	6.32115	6.069171E-07
18.64647	0.003667034	0.007945239	-0.06591182	-2.51096E-08	2.145571	-6.647811E-07
18.69209	0.003667034	0.007945239	0	0	0.7969553	3.03606E-07
18.73652	0.003667034	0.007945239	0	0	0	0
18.7741	0.003667034	0.007945239	0	0	0	0
18.81414	0.003667034	0.007945239	0	0	0	0
18.85228	0.003667034	0.007945239	0	0	0	0
18.89515	0.003667034	0.007945239	0	0	0	0
18.96795	0.003667034	0.007945239	0	0	0	0
19.04034	0.003667034	0.007945239	0	0	0	0
19.08181	0.004889378	0.00794524	0.02947569	2.245797E-08	0.2588915	1.972533E-07
19.12011	0.004889378	0.00794524	0	0	-0.3695036	-2.815304E-07
19.15725	0.004889378	0.00794524	0	0	0	0
19.19574	0.004889378	0.00794524	0	0	0	0
19.24414	0.004889378	0.00794524	0	0	0	0
19.28199	0.004889378	0.009167584	0	0.03228841	0	0.3743488
19.32042	0.003667033	0.009167584	-0.03181397	0	-0.4170755	-0.4232953
19.35856	0.004889378	0.0006111722	0.03204624	-0.2243236	0.8340676	-2.929854
19.40005	0.04033737	-0.0287251	0.8544415	-0.707124	10.32772	-6.063054
19.43753	0.04033737	-0.0287251	0	0	-10.81983	8.954342
19.47492	0.04033737	-0.0287251	0	0	0	0
19.51325	0.04033737	-0.0287251	0	0	0	0
19.55384	0.04033737	-0.0287251	0	0	0	0
19.59171	0.04033737	-0.0287251	0	0	0	0
19.6292	0.04033737	-0.0287251	0	0	0	0
19.66756	0.04033737	-0.0287251	0	0	0	0
19.70733	0.04033737	-0.0287251	0	0	0	0
19.74566	0.04033737	-0.0287251	0	0	0	0
19.78309	0.04033737	-0.0287251	0	0	0	0
19.82099	0.01833517	-0.01405696	-0.5804604	0.3869737	-7.705297	5.136866
19.86311	0.01955751	-0.01283462	0.02901922	0.02901922	7.615961	-4.472942
19.90132	0.02077986	-0.01283462	0.03199188	-2.437506E-08	0.0370057	-0.3612508
19.93922	0.02077986	-0.01405696	0	-0.03225101	-0.4203433	-0.4237477
19.97709	0.02077986	-0.01405696	0	0	0	0.4256468
20.01849	0.02077986	-0.01405696	0	0	0	0
20.05613	0.02077986	-0.01405696	0	0	0	0
20.09451	0.02077986	-0.01405696	0	0	0	0
20.13226	0.02077986	-0.01405696	0	0	0	0
20.16951	0.02077986	-0.01405696	0	0	0	0
20.20876	0.02077986	-0.01405696	0	0	0	0
20.24604	0.02077986	-0.01405696	0	0	0	0
20.2837	0.02077986	-0.01405696	0	0	0	0
20.32713	0.02077986	-0.01405696	0	0	0	0
20.3673	0.02077986	-0.01405696	0	0	0	0
20.40497	0.02077986	-0.01405696	0	0	0	0
20.44293	0.02077986	-0.01405696	0	0	0	0
20.48081	0.02077986	-0.01405696	0	0	0	0
20.51881	0.02077986	-0.01405696	0	0	0	0
20.55628	0.02077986	-0.01405696	0	0	0	0
20.59413	0.02077986	-0.01405696	0	0	0	0
20.63206	0.02077986	-0.01405696	0	0	0	0
20.66949	0.02077986	-0.01405696	0	0	0	0
20.70889	0.02077986	-0.01405696	0	0	0	0
20.74697	0.02077986	-0.01405696	0	0	0	0
20.78431	0.02077986	-0.01405696	0	0	0	0
20.82285	0.02077986	-0.01405696	0	0	0	0
20.86025	0.02077986	-0.01405696	0	0	0	0
20.89888	0.02077986	-0.01405696	0	0	0	0
20.9375	0.02077986	-0.01405696	0	0	0	0
20.9752	0.02077986	-0.01405696	0	0	0	0
21.0137	0.02077986	-0.01405696	0	0	0	0
21.05266	0.02077986	-0.01405696	0	0	0	0
21.09278	0.02077986	-0.01405696	0	0	0	0
21.13033	0.02077986	-0.01405696	0	0	0	0
21.16775	-0.004889378	-0.08006357	-0.6859015	-1.763747	-9.148982	-23.52596
21.20609	-0.03055861	-0.1460702	-0.6695225	-1.721629	0.2161853	0.5559042
21.24912	-0.03667033	-0.1754064	-0.1420347	-0.6817663	6.482631	12.77953
21.28662	-0.03667034	-0.1925193	-9.934006E-08	-0.4563377	1.763744	2.799307
21.32514	-0.03667033	-0.1974086	9.67085E-08	-0.126928	2.578867E-06	4.333129
21.36259	-0.03667033	-0.1974086	0	0	-1.272988E-06	1.670771
21.40389	-0.03789268	-0.1790735	-0.02959543	0.4439321	-0.375812	5.637189
21.44992	-0.05378316	-0.1118445	-0.3452626	1.460726	-3.614811	11.64365
21.48841	-0.06722895	-0.07761887	-0.3492602	0.8890259	-0.04729635	-6.763906
21.52716	-0.08556411	-0.05683902	-0.4732624	0.5363641	-1.605414	-4.565792
21.5682	-0.1992421	-0.03605916	-2.769518	0.5062561	-28.77938	-0.3773494
21.60621	-0.2811393	-0.04583792	-2.154857	-0.2572963	7.775406	-9.658866
21.64449	-0.3190319	-0.05317198	-0.9899669	-0.1916066	15.27073	0.861137
21.6821	-0.3214766	-0.05317199	-0.06499008	-9.90328E-08	12.18784	2.52468
21.72623	-0.3214766	-0.05317199	0	0	0.7950515	1.211511E-06
21.76374	-0.326366	-0.05928371	-0.1303553	-0.1629444	-1.596816	-1.996023
21.80286	-0.3361447	-0.0727295	-0.2499581	-0.343692	-1.56079	-2.358717
21.84052	-0.3605916	-0.1069551	-0.6492024	-0.9088839	-5.199955	-7.361338
21.88316	-0.3728151	-0.1130669	-0.2866617	-0.1433307	4.51497	9.533964
21.92214	-0.3899279	-0.1167339	-0.43901	-0.09407379	-1.866529	0.6034818
21.99837	-0.3911502	-0.1167339	-0.01603511	0	3.671351	0.8165448
22.07962	-0.3911502	-0.1167339	0	0	0.1018218	0
22.11847	-0.3874832	-0.1167339	0.09438282	-1.917649E-07	0.785831	-1.596634E-06
22.15729	-0.3862608	-0.1167339	0.03149108	1.919439E-07	-0.8097391	4.940298E-06
22.20071	-0.3740374	-0.124068	0.2814737	-0.1688844	3.039562	-2.053484
22.23964	-0.3422565	-0.1375137	0.8164629	-0.3454264	6.496397	-2.143756
22.27875	-0.2884733	-0.1876299	1.375304	-1.281534	7.161735	-11.99653
22.31737	-0.2884733	-0.1876299	0	0	-17.69287	16.48655
22.35932	-0.2884733	-0.1876299	0	0	0	0
22.39854	-0.2884733	-0.1876299	0	0	0	0
22.43738	-0.2884733	-0.1876299	0	0	0	0
22.47632	-0.2884733	-0.1876299	0	0	0	0
22.51574	-0.2884733	-0.1876299	0	0	0	0
22.5571	-0.2884733	-0.1876299	0	0	0	0
22.597	-0.3019191	-0.1424031	-0.3369727	1.133453	-4.147103	13.94934
22.63522	-0.2872509	-0.1362914	0.3837497	0.1598958	9.225246	-12.46153
22.67854	-0.2750275	-0.131402	0.2821802	0.1128721	-1.245624	-0.5766883
22.71843	-0.2603594	-0.131402	0.3677295	0	1.028161	-1.356535
22.75717	-0.2444689	-0.1289573	0.4102009	0.06310777	0.5401645	0.8026258
22.79651	-0.2114656	-0.1289573	0.8388637	0	5.489967	-0.8082333
22.83901	-0.1662388	-0.1289573	1.064027	0	2.750989	0
22.87792	-0.1283462	-0.1265127	0.9740475	0.06284167	-1.105298	0.7719391
22.9168	-0.1234568	-0.1265126	0.125733	3.831911E-07	-10.90528	-0.8078397
22.9552	-0.1234568	-0.1265126	0	0	-1.626859	-4.958107E-06
22.99801	-0.1210121	-0.1252903	0.0571025	0.02855116	0.7031367	0.3515673
23.03658	-0.1173451	-0.124068	0.09507359	0.03169139	0.4665742	0.03858594
23.07633	-0.1112333	-0.1228456	0.1537648	0.03075289	0.7493996	-0.01198331
23.11621	-0.1002323	-0.1228456	0.2758366	-3.736251E-07	1.532989	-0.3862024
23.15902	-0.09167583	-0.1228456	0.1998943	3.481196E-07	-0.9184265	8.728595E-06
23.19793	-0.09167583	-0.1228456	0	0	-2.446362	-4.260386E-06
23.23629	-0.09167583	-0.1228456	0	0	0	0
23.27473	-0.09167583	-0.1228456	0	0	0	0
23.31763	-0.09167583	-0.1228456	0	0	0	0
23.35619	-0.09167583	-0.1228456	0	0	0	0
23.3951	-0.09045348	-0.1228456	0.03141949	-1.91511E-07	0.4055956	-2.472224E-06
23.43384	-0.08923115	-0.1228456	0.03155214	0	0.001708433	2.466516E-06
23.47612	-0.08923115	-0.1228456	0	0	-0.3894347	0
23.51523	-0.08556411	-0.1228456	0.09376162	1.905023E-07	1.151999	2.3406E-06
23.55984	-0.07456302	-0.1191786	0.2466112	0.08220345	1.82574	0.9818919
23.59846	-0.06478426	-0.1142892	0.2531671	0.1265834	0.07876412	0.5331904
23.63995	-0.05989488	-0.1106222	0.1178432	0.08838256	-1.689094	-0.476818
23.67879	-0.0550055	-0.1081775	0.1258996	0.06294969	0.1002958	-0.3166203
23.71806	-0.0550055	-0.1081775	0	0	-1.61183	-0.8059135
23.75772	-0.05256081	-0.1069551	0.06164193	0.03082111	0.7809328	0.3904682
23.8002	-0.05011613	-0.1045105	0.05755111	0.05755102	-0.04980423	0.3254266
23.83872	-0.04522675	-0.1008434	0.1269471	0.09521051	0.8568082	0.4649685
23.87766	-0.03911503	-0.09350935	0.1569582	0.1883498	0.387471	1.202516
23.91664	-0.0330033	-0.08617529	0.156774	0.1881288	-0.002362835	-0.002835937
23.97307	-0.02811392	-0.08006357	0.08663788	0.1082973	-0.7350341	-0.8366417
24.01248	-0.02322455	-0.07150715	0.1240716	0.2171254	0.3905755	1.13549
24.05103	-0.0220022	-0.06784012	0.03171325	0.09513946	-1.184819	-1.564896
24.08995	-0.0220022	-0.06539543	-4.784726E-08	0.06279876	-0.4093481	-0.4174464
24.13181	-0.0220022	-0.06295075	0	0.05840862	5.922874E-07	-0.05434432
24.1702	-0.02077986	-0.05561667	0.03183925	0.1910357	0.3967707	1.652757
24.21173	-0.01955751	-0.04828261	0.02942971	0.176578	-0.03014731	-0.1808895
24.25091	-0.01955751	-0.04583792	0	0.06240424	-0.3646377	-1.414626
24.29375	-0.01833517	-0.0397262	0.02853468	0.1426734	0.3479322	0.9787472
24.34004	-0.01711282	-0.03483682	0.02640328	0.1056132	-0.02391277	-0.4157891
24.37977	-0.01711282	-0.03239213	0	0.06153835	-0.3069384	-0.5123705
24.42057	-0.01711282	-0.03116979	0	0.02995514	0	-0.3921817
24.46626	-0.01711282	-0.03116979	0	0	0	-0.3463245
24.5065	-0.01711282	-0.03116979	0	0	0	0
24.58074	-0.01711282	-0.03116979	0	0	0	0
24.66031	-0.01711282	-0.03116979	0	0	0	0
24.69919	-0.01711282	-0.03116979	0	0	0	0
24.73834	-0.01711282	-0.03116979	0	0	0	0
24.77693	-0.01711282	-0.03116979	0	0	0	0
24.8163	-0.01711282	-0.03116979	0	0	0	0
24.85444	-0.01711282	-0.03116979	0	0	0	0
24.89358	-0.01711282	-0.03116979	0	0	0	0
24.93215	-0.01711282	-0.03116979	0	0	0	0
24.97123	-0.01711282	-0.03116979	0	0	0	0
25.01298	-0.01711282	-0.03116979	0	0	0	0
25.05142	-0.01711282	-0.03116979	0	0	0	0
25.09029	-0.01711282	-0.03116979	0	0	0	0
25.13241	-0.01711282	-0.03116979	0	0	0	0
25.17432	-0.01711282	-0.03116979	0	0	0	0
25.21562	-0.01711282	-0.03116979	0	0	0	0
25.25661	-0.01711282	-0.03116979	0	0	0	0
25.30244	-0.01711282	-0.03116979	0	0	0	0
25.34275	-0.01711282	-0.03116979	0	0	0	0
25.38703	-0.01711282	-0.03116979	0	0	0	0
25.42865	-0.01711282	-0.03116979	0	0	0	0
25.46949	-0.01711282	-0.03116979	0	0	0	0
25.51879	-0.01711282	-0.03116979	0	0	0	0
25.55815	-0.01711282	-0.03116979	0	0	0	0
25.59807	-0.01711282	-0.03116979	0	0	0	0
25.63642	-0.01711282	-0.03116979	0	0	0	0
25.67488	-0.01711282	-0.03116979	0	0	0	0
25.7144	-0.01711282	-0.03116979	0	0	0	0
25.75302	-0.01711282	-0.03116979	0	0	0	0
25.79194	-0.01711282	-0.03116979	0	0	0	0
25.83064	-0.01711282	-0.03116979	0	0	0	0
25.87685	-0.01711282	-0.03116979	0	0	0	0
25.91585	-0.01711282	-0.03116979	0	0	0	0
25.95383	-0.01711282	-0.03116979	0	0	0	0
25.99411	-0.01711282	-0.03116979	0	0	0	0
26.03398	-0.01711282	-0.03116979	0	0	0	0
26.07716	-0.01711282	-0.03116979	0	0	0	0
26.11604	-0.01711282	-0.03116979	0	0	0	0
26.15455	-0.01711282	-0.03116979	0	0	0	0
26.19356	-0.01711282	-0.03116979	0	0	0	0
26.23338	-0.01711282	-0.03116979	0	0	0	0
26.27224	-0.02689158	-0.05806137	-0.2516015	-0.6919042	-3.197549	-8.793259
26.31145	-0.04889378	-0.1472925	-0.5612285	-2.276093	-3.966033	-20.29198
26.35076	-0.07334066	-0.234079	-0.6218926	-2.207719	-0.7726533	0.8708489
26.39367	-0.0770077	-0.2609705	-0.08544827	-0.6266191	6.52404	19.22876
26.43298	-0.08067473	-0.2744163	-0.09328828	-0.3420578	-0.09534959	3.460811
26.47157	-0.08311943	-0.2903068	-0.06335458	-0.4118038	0.3842772	-0.8953726
26.53885	-0.08800881	-0.312309	-0.07267021	-0.3270158	-0.08799175	0.800874
26.58314	-0.08923114	-0.3171984	-0.02760048	-0.1104026	0.4039648	1.941528
26.66009	-0.08923114	-0.3171984	0	0	0.2276433	0.9105785
26.74074	-0.08923114	-0.3171984	0	0	0	0
26.78466	-0.08923114	-0.3171984	0	0	0	0
26.82467	-0.08923114	-0.3171984	0	0	0	0
26.86376	-0.08923114	-0.3171984	0	0	0	0
26.90428	-0.08923114	-0.3171984	0	0	0	0
26.94357	-0.08923114	-0.3171984	0	0	0	0
26.98297	-0.08923114	-0.3171984	0	0	0	0
27.02372	-0.08923114	-0.3171984	0	0	0	0
27.06333	-0.08923114	-0.3171984	0	0	0	0
27.10323	-0.08923114	-0.3171984	0	0	0	0
27.14273	-0.08923114	-0.3171984	0	0	0	0
27.18168	-0.08923114	-0.3171984	0	0	0	0
27.22108	-0.08923114	-0.3171984	0	0	0	0
27.26072	-0.08923114	-0.3171984	0	0	0	0
27.30088	-0.08923114	-0.3159761	0	0.03043306	0	0.3813501
27.34188	-0.08800881	-0.3135314	0.02981555	0.05963147	0.3673608	0.3597569
27.38152	-0.08556411	-0.3061973	0.06167169	0.1850152	0.3950562	1.554917
27.42587	-0.07945239	-0.2793057	0.137784	0.6062495	0.9061235	5.014829
27.46495	-0.07334067	-0.241413	0.1563989	0.9696736	0.2231065	4.355772
27.50607	-0.06967364	-0.2267449	0.08918598	0.3567435	-0.8381242	-7.643046
27.54546	-0.06233957	-0.1815182	0.1861794	1.148106	1.204749	9.829473
27.58805	-0.05867254	-0.1607383	0.08611404	0.4879796	-1.220667	-8.05269
27.62899	-0.0550055	-0.1448478	0.08955571	0.3880743	0.04120258	-1.196035
27.66818	-0.05378316	-0.131402	0.03119306	0.3431233	-0.7283184	-0.5609521
27.70826	-0.05256081	-0.1301797	0.03049542	0.03049533	-0.008800765	-3.943866
27.75372	-0.05256081	-0.1289573	-8.195045E-08	0.02688958	-0.3565026	-0.04215241
27.79484	-0.05256081	-0.1289573	0	0	9.465047E-07	-0.3105671
27.83441	-0.05256081	-0.1289573	0	0	0	0
27.87606	-0.05256081	-0.1289573	0	0	0	0
27.91981	-0.05256081	-0.1289573	0	0	0	0
27.95871	-0.05256081	-0.1289573	0	0	0	0
27.99852	-0.05256081	-0.1289573	0	0	0	0
28.03839	-0.05256081	-0.1289573	0	0	0	0
28.0778	-0.05256081	-0.1289573	0	0	0	0
28.11755	-0.05256081	-0.1289573	0	0	0	0
28.16449	-0.05256081	-0.1289573	0	0	0	0
28.20429	-0.05011613	-0.1252903	0.06142628	0.09213927	0.7081304	1.062194
28.24814	-0.04522675	-0.1142892	0.1115073	0.2508917	0.5987204	1.897891
28.28907	-0.03789268	-0.09350935	0.1791949	0.5077187	0.7984294	3.02948
28.32968	-0.0330033	-0.08128591	0.1204003	0.3010007	-0.7210763	-2.535259
28.36922	-0.03178095	-0.07884122	0.0309117	0.0618234	-1.116479	-2.984027
28.41243	-0.03178095	-0.07884122	0	0	-0.3735538	-0.7471077
28.45191	-0.03178096	-0.07639653	-9.435842E-08	0.06192177	-1.141147E-06	0.7488661
28.49175	-0.03055861	-0.0727295	0.03067937	0.09203801	0.3867672	0.3796668
28.53114	-0.02689158	-0.06050605	0.09309869	0.310329	0.7878118	2.755113
28.57399	-0.02322455	-0.04583792	0.0855736	0.3422943	-0.09150045	0.3886776
28.61412	-0.01955751	-0.03239213	0.09138182	0.3350666	0.06999448	-0.08710042
28.65403	-0.01833517	-0.02628041	0.03062357	0.1531181	-0.7590626	-2.273113
28.69363	-0.01833517	-0.02505806	4.704512E-08	0.03087303	-0.3851636	-1.537522
28.73668	-0.01833517	-0.02505806	0	0	-5.692536E-07	-0.3735687
28.77684	-0.01833517	-0.02505806	0	0	0	0
28.81669	-0.01833517	-0.02505806	0	0	0	0
28.85659	-0.01833517	-0.02505806	0	0	0	0
28.89622	-0.01833517	-0.02505806	0	0	0	0
28.93563	-0.01833517	-0.02505806	0	0	0	0
28.98269	-0.01833517	-0.02505806	0	0	0	0
29.02355	-0.01833517	-0.02505806	0	0	0	0
29.0681	-0.01833517	-0.02383572	0	0.02743522	0	0.3212211
29.11009	-0.01833517	-0.02383572	0	0	0	-0.3170158
29.15065	-0.01833517	-0.02383572	0	0	0	0
29.22776	-0.01833517	-0.02383572	0	0	0	0
29.30797	-0.01833517	-0.02383572	0	0	0	0
29.34803	-0.01711282	-0.02383572	0.03051575	4.650076E-08	0.2537356	3.866494E-07
29.38799	-0.01711282	-0.02383572	0	0	-0.3813382	-5.810938E-07
29.43109	-0.01711282	-0.02383572	0	0	0	0
29.47105	-0.01711282	-0.02383572	0	0	0	0
29.5111	-0.01711282	-0.02383572	0	0	0	0
29.5505	-0.01711282	-0.02383572	0	0	0	0
29.5911	-0.01711282	-0.02383572	0	0	0	0
29.6303	-0.01711282	-0.02383572	0	0	0	0
29.66961	-0.01711282	-0.02383572	0	0	0	0
29.7097	-0.01711282	-0.02383572	0	0	0	0
29.7508	-0.01711282	-0.02383572	0	0	0	0
29.79345	-0.01711282	-0.02383572	0	0	0	0
29.83284	-0.01711282	-0.02383572	0	0	0	0
29.8725	-0.01711282	-0.02383572	0	0	0	0
29.91212	-0.01711282	-0.02383572	0	0	0	0
29.95118	-0.01711282	-0.02383572	0	0	0	0
29.99437	-0.01711282	-0.02383572	0	0	0	0
30.04054	-0.01711282	-0.02383572	0	0	0	0
30.0887	-0.01711282	-0.02383572	0	0	0	0
30.13395	-0.01711282	-0.02383572	0	0	0	0
30.17473	-0.01711282	-0.02383572	0	0	0	0
30.21613	-0.01711282	-0.02383572	0	0	0	0
30.25575	-0.01711282	-0.02383572	0	0	0	0
30.29685	-0.01711282	-0.02383572	0	0	0	0
30.33626	-0.01711282	-0.02383572	0	0	0	0
30.37858	-0.01711282	-0.02383572	0	0	0	0
30.42238	-0.01711282	-0.02383572	0	0	0	0
30.46178	-0.01711282	-0.02383572	0	0	0	0
30.51016	-0.01711282	-0.02383572	0	0	0	0
30.55035	-0.01711282	-0.02383572	0	0	0	0
30.59167	-0.01711282	-0.02383572	0	0	0	0
30.63162	-0.01711282	-0.02383572	0	0	0	0
30.67253	-0.01711282	-0.02383572	0	0	0	0
30.71464	-0.01711282	-0.02383572	0	0	0	0
30.7605	-0.01711282	-0.02383572	0	0	0	0
30.80201	-0.01711282	-0.02383572	0	0	0	0
30.8427	-0.01711282	-0.02383572	0	0	0	0
30.88187	-0.01711282	-0.02383572	0	0	0	0
30.92153	-0.01711282	-0.02383572	0	0	0	0
30.96072	-0.01711282	-0.02383572	0	0	0	0
31.00079	-0.01711282	-0.02383572	0	0	0	0
31.04097	-0.02077986	-0.03483682	-0.09128202	-0.273846	-1.137555	-3.412664
31.08431	-0.001222344	-0.06417309	0.4511712	-0.6767569	6.494821	-4.824073
31.12511	-0.001222344	-0.06417309	0	0	-5.361735	8.042603
31.16489	-0.001222344	-0.06417309	0	0	0	0
31.20541	-0.001222344	-0.06417309	0	0	0	0
31.24794	-0.001222344	-0.06417309	0	0	0	0
31.28768	-0.001222344	-0.06417309	0	0	0	0
31.32907	-0.03789268	-0.001833517	-0.886064	1.506309	-10.92192	18.56726
31.36908	-0.06845129	0.04706026	-0.7637658	1.222025	1.502507	-3.492595
31.41227	-0.1038993	0.08739763	-0.8207089	0.9339102	-0.6843938	-3.462822
31.4517	-0.110011	0.1057328	-0.1549922	0.464976	8.057141	-5.67549
31.49189	-0.09778756	0.1705171	0.3041292	1.611883	5.766105	14.40401
31.53207	-0.08311942	0.2316343	0.3651108	1.521295	0.7587972	-1.127198
31.57512	-0.07211832	0.2719716	0.255504	0.9368473	-1.316899	-7.021995
31.61596	-0.06478426	0.3208654	0.1795797	1.197199	-0.904974	3.103242
31.65569	-0.06722895	0.3563134	-0.06153253	0.8922205	-2.992572	-3.785249
31.69723	-0.08800881	0.3954284	-0.5003504	0.9418365	-5.400125	0.6105779
31.75291	-0.1051216	0.4162083	-0.3073145	0.3731675	1.985646	-5.849562
31.83283	-0.1051216	0.4162083	0	0	2.266282	-2.751913
31.91282	-0.1051216	0.4162083	0	0	0	0
31.95977	-0.1051216	0.4162083	0	0	0	0
32.00106	-0.1038993	0.4162083	0.02960518	0	0.3355087	0
32.0415	-0.1026769	0.414986	0.03022048	-0.03022066	0.007527938	-0.3697368
32.08221	-0.1026769	0.414986	0	0	-0.3723674	0.3723697
32.12727	-0.09167584	0.3758709	0.2441684	-0.8681539	2.846919	-10.12237
32.16782	-0.07823005	0.308642	0.3315525	-1.657762	1.020729	-9.223382
32.20874	-0.07211833	0.2585259	0.1493568	-1.224726	-2.236235	5.315009
32.24908	-0.06478426	0.2169662	0.1818216	-1.030323	0.3995336	2.392449
32.2935	-0.05745019	0.1790735	0.1650994	-0.8530133	-0.1972928	2.091931
32.33556	-0.04644909	0.1375138	0.2615757	-0.988175	1.115602	-1.562939
32.37589	-0.03544799	0.1093998	0.2727841	-0.6971147	0.1360468	3.532884
32.41679	-0.03178095	0.1008434	0.0896643	-0.2092167	-2.254438	6.006648
32.46061	-0.02689158	0.0947317	0.1115607	-0.139451	0.2584424	0.8234422
32.50334	-0.02077986	0.08739763	0.1430492	-0.1716589	0.3638115	-0.372124
32.54433	-0.0110011	0.07884122	0.2385707	-0.2087495	1.141053	-0.4430658
32.58492	-0.002444689	0.06906246	0.2107896	-0.2409023	-0.3405338	-0.3941203
32.62943	0.003667033	0.06295074	0.1373116	-0.1373117	-0.8634105	1.217252
32.67003	0.004889378	0.0617284	0.03010714	-0.03010699	-1.259603	1.259606
32.71043	0.007334067	0.05928371	0.06050991	-0.06050999	0.3753369	-0.3753397
32.75196	0.007334067	0.05928371	0	0	-0.7385376	0.7385386
32.80508	0.007334067	0.05928371	0	0	0	0
32.84655	0.0110011	0.05317198	0.0884271	-0.1473785	0.9348538	-1.558089
32.8877	0.01344579	0.04583792	0.05941043	-0.1782314	-0.3512118	-0.3734373
32.92918	0.01466813	0.04583792	0.02946487	0	-0.3623881	2.156878
32.97521	0.01466813	0.04583792	0	0	-0.3366914	0
33.01638	0.01466813	0.04583792	0	0	0	0
33.05698	0.01466813	0.04583792	0	0	0	0
33.09804	0.01466813	0.04583792	0	0	0	0
33.13831	0.01466813	0.04583792	0	0	0	0
33.17818	0.01466813	0.04583792	0	0	0	0
33.21935	0.01466813	0.04583792	0	0	0	0
33.25994	0.01466813	0.04583792	0	0	0	0
33.30072	0.01466813	0.04583792	0	0	0	0
33.34176	0.01466813	0.04583792	0	0	0	0
33.38248	0.01466813	0.04583792	0	0	0	0
33.42313	0.01466813	0.04583792	0	0	0	0
33.46346	0.01466813	0.04583792	0	0	0	0
33.50455	0.01466813	0.04583792	0	0	0	0
33.54565	0.01466813	0.04583792	0	0	0	0
33.58593	0.01466813	0.04583792	0	0	0	0
33.62651	0.01466813	0.04583792	0	0	0	0
33.66698	0.01466813	0.04461557	0	-0.03020642	0	-0.3726847
33.70783	0.01466813	0.04461557	0	0	0	0.3714609
33.74873	0.01466813	0.04461557	0	0	0	0
33.79282	0.01466813	0.04461557	0	0	0	0
33.83362	0.01466813	0.04461557	0	0	0	0
33.87383	0.01466813	0.04217089	0	-0.06080269	0	-0.7505679
33.91491	0.01466813	0.04094854	0	-0.02975215	0	0.3819668
33.95905	0.01466813	0.03972619	-2.1103E-08	-0.02769735	-2.476398E-07	0.02411267
34.0018	0.01466813	0.03972619	0	0	2.42867E-07	0.3187591
34.0426	0.01466813	0.03850385	2.282755E-08	-0.0299607	2.731969E-07	-0.3585654
34.08393	0.01466813	0.03850385	0	0	-2.779684E-07	0.364828
34.12848	0.01466813	0.03728151	0	-0.02743883	0	-0.3195293
34.17694	0.01466813	0.03605916	0	-0.02521877	0	0.02386711
34.2205	0.01466813	0.03605916	0	0	0	0.274029
34.26276	0.01466813	0.03605916	0	0	0	0
34.3498	0.01466813	0.03605916	0	0	0	0
34.42725	0.01466813	0.03605916	0	0	0	0
34.47242	0.01466813	0.03605916	0	0	0	0
34.5135	0.01466813	0.03605916	0	0	0	0
34.55389	0.01466813	0.03605916	0	0	0	0
34.59563	0.01466813	0.03605916	0	0	0	0
34.63615	0.01466813	0.03605916	0	0	0	0
34.67632	0.01466813	0.03605916	0	0	0	0
34.71773	0.01466813	0.03605916	0	0	0	0
34.75834	0.01466813	0.03605916	0	0	0	0
34.79926	0.01466813	0.03605916	0	0	0	0
34.84006	0.01466813	0.03605916	0	0	0	0
34.88061	0.01466813	0.03605916	0	0	0	0
34.92197	0.01466813	0.03605916	0	0	0	0
34.9621	0.01466813	0.03605916	0	0	0	0
35.00325	0.01466813	0.03605916	0	0	0	0
35.04438	0.01466813	0.03605916	0	0	0	0
35.08654	0.01466813	0.03605916	0	0	0	0
35.13529	0.01466813	0.03605916	0	0	0	0
35.17565	0.01466813	0.03605916	0	0	0	0
35.21664	0.01466813	0.03605916	0	0	0	0
35.25726	0.01466813	0.03605916	0	0	0	0
35.29849	0.01466813	0.03605916	0	0	0	0
35.3399	0.01466813	0.03605916	0	0	0	0
35.3804	0.01466813	0.03605916	0	0	0	0
35.42198	0.01466813	0.03605916	0	0	0	0
35.46213	0.01466813	0.03605916	0	0	0	0
35.5039	0.01466813	0.03605916	0	0	0	0
35.54493	0.01466813	0.03605916	0	0	0	0
35.58568	0.01466813	0.03605916	0	0	0	0
35.62648	0.01466813	0.03605916	0	0	0	0
35.66672	0.01466813	0.03605916	0	0	0	0
35.70914	0.01466813	0.03605916	0	0	0	0
35.75109	0.01466813	0.03605916	0	0	0	0
35.7986	0.01466813	0.03605916	0	0	0	0
35.83961	0.01466813	0.03605916	0	0	0	0
35.8799	0.01466813	0.03605916	0	0	0	0
35.92312	0.01466813	0.03605916	0	0	0	0
35.9633	-0.01589048	0.00794524	-0.7605389	-0.6996959	-9.119093	-8.389565
36.00415	-0.1601271	-0.1546266	-3.531407	-3.980314	-34.19804	-40.48938
36.04519	-0.2346901	-0.2597482	-1.816734	-2.561298	20.93968	17.32911
36.0859	-0.2456912	-0.2793057	-0.2702025	-0.4803601	18.9163	25.45285
36.13213	-0.2456912	-0.2793057	0	0	3.107755	5.524899
36.17247	-0.2456912	-0.2805281	0	-0.03030068	0	-0.3500106
36.21342	-0.2456912	-0.2805281	0	0	0	0.3727774
36.25422	-0.2456912	-0.2805281	0	0	0	0
36.3001	-0.2469136	-0.2841951	-0.02664474	-0.07993423	-0.3073872	-0.9221616
36.38203	-0.248136	-0.2854174	-0.01492003	-0.01491967	0.09173994	0.508706
36.46613	-0.248136	-0.2854174	0	0	0.08986505	0.08986285
36.51702	-0.248136	-0.2854174	0	0	0	0
36.55942	-0.248136	-0.2854174	0	0	0	0
36.60359	-0.248136	-0.2854174	0	0	0	0
36.64482	-0.248136	-0.2854174	0	0	0	0
36.68599	-0.248136	-0.2854174	0	0	0	0
36.72769	-0.248136	-0.2854174	0	0	0	0
36.77035	-0.248136	-0.2854174	0	0	0	0
36.81345	-0.248136	-0.2854174	0	0	0	0
36.85491	-0.248136	-0.2854174	0	0	0	0
36.89644	-0.2469136	-0.2854174	0.02943574	0	0.3546956	0
36.9384	-0.2469136	-0.2854174	0	0	-0.3525565	0
36.97979	-0.2469136	-0.2854174	0	0	0	0
37.02585	-0.2469136	-0.2841951	0	0.02654102	0	0.3035191
37.06767	-0.2456913	-0.2829728	0.02922793	0.02922828	0.3326066	0.03058045
37.11005	-0.2444689	-0.2805281	0.02884191	0.05768311	-0.004584486	0.337936
37.15171	-0.2420242	-0.2756387	0.05868174	0.1173635	0.3550603	0.710129
37.19723	-0.2371348	-0.2683046	0.1074186	0.1611279	0.5590547	0.5020163
37.2387	-0.2298008	-0.2597482	0.1768538	0.2063302	0.7982296	0.5196471
37.27986	-0.2187997	-0.2401907	0.2672729	0.475151	1.094263	3.253301
37.32238	-0.2016868	-0.2157438	0.4024422	0.5749175	1.615253	1.192196
37.36756	-0.1796846	-0.194964	0.4869762	0.4599217	0.9638588	-1.311185
37.40971	-0.1479037	-0.1656277	0.7540219	0.6960207	3.057896	2.703531
37.45234	-0.1259015	-0.1460702	0.5160832	0.4587404	-2.806488	-2.798722
37.49548	-0.09656521	-0.1118445	0.6800182	0.7933547	1.911255	3.90114
37.54779	-0.08189708	-0.09228701	0.2804231	0.3738975	-4.186542	-4.394636
37.5891	-0.07089598	-0.07639653	0.2663346	0.3847058	-0.1504982	0.1154569
37.63051	-0.06233957	-0.06539543	0.206596	0.2656234	-0.7221636	-1.439554
37.67151	-0.06111722	-0.0617284	0.02981305	0.08943906	-2.144994	-2.13773
37.71661	-0.05989488	-0.05928371	0.02710231	0.05420455	-0.03148301	-0.4092205
37.75841	-0.05867254	-0.0592837	0.02924696	8.913495E-08	0.02468089	-0.6237926
37.80082	-0.05867254	-0.05806137	-8.782827E-08	0.02881804	-0.3473132	0.3422175
37.84294	-0.05867254	-0.05806137	0	0	1.038974E-06	-0.3409059
37.88829	-0.05867254	-0.05806137	0	0	0	0
37.92968	-0.0574502	-0.05806137	0.02953541	9.001405E-08	0.3405256	1.037808E-06
37.97244	-0.0574502	-0.05806137	0	0	-0.3509919	-1.069706E-06
38.01404	-0.0574502	-0.05806137	0	0	0	0
38.05991	-0.0574502	-0.05806137	0	0	0	0
38.10194	-0.0574502	-0.05806137	0	0	0	0
38.14337	-0.05500551	-0.05683902	0.05900574	0.02950278	0.7070116	0.3535047
38.18485	-0.05011612	-0.05317198	0.1178704	0.08840279	0.7099616	0.7103881
38.23045	-0.04278206	-0.04461557	0.1608182	0.1876212	0.4931666	1.139319
38.27305	-0.03667033	-0.03605916	0.143472	0.2008607	-0.1966613	0.1501019
38.31445	-0.03544799	-0.03361447	0.02952734	0.05905467	-1.356551	-1.688251
38.35585	-0.03544799	-0.03361447	0	0	-0.3566189	-0.7132379
38.40036	-0.03544799	-0.03361447	0	0	0	0
38.44146	-0.03544799	-0.03361447	0	0	0	0
38.48265	-0.03544799	-0.03361447	0	0	0	0
38.52449	-0.03422565	-0.03239213	0.02921496	0.02921505	0.3518412	0.3518422
38.57041	-0.03422565	-0.03239213	0	0	-0.3329071	-0.3329081
38.61185	-0.03422564	-0.03116978	8.989805E-08	0.02949735	1.029093E-06	0.3376661
38.66006	-0.03422564	-0.03116978	0	0	-1.002733E-06	-0.3290168
38.70259	-0.03422564	-0.03116978	0	0	0	0
38.74899	-0.03422564	-0.03116978	0	0	0	0
38.79285	-0.03422564	-0.03116978	0	0	0	0
38.83467	-0.03422564	-0.03116978	0	0	0	0
38.87611	-0.03422564	-0.03116978	0	0	0	0
38.92183	-0.03422564	-0.03116978	0	0	0	0
38.96577	-0.03422564	-0.03116978	0	0	0	0
39.04797	-0.03422564	-0.03116978	0	0	0	0
39.13335	-0.03422564	-0.03116978	0	0	0	0
39.17495	-0.03422565	-0.03239213	-8.95436E-08	-0.02938105	-7.052009E-07	-0.2313905
39.21746	-0.03422565	-0.03239213	0	0	1.064501E-06	0.3492841
39.26169	-0.03422565	-0.03239213	0	0	0	0
39.30364	-0.03422565	-0.03239213	0	0	0	0
39.34526	-0.03422565	-0.03239213	0	0	0	0
39.38653	-0.03422565	-0.03239213	0	0	0	0
39.42825	-0.03422565	-0.03239213	0	0	0	0
39.4698	-0.03422565	-0.03239213	0	0	0	0
39.51201	-0.03422565	-0.03239213	0	0	0	0
39.55322	-0.03422565	-0.03239213	0	0	0	0
39.5949	-0.03422565	-0.03239213	0	0	0	0
39.63616	-0.03422565	-0.03239213	0	0	0	0
39.67709	-0.03422565	-0.03239213	0	0	0	0
39.71894	-0.03422565	-0.03239213	0	0	0	0
39.7601	-0.03422565	-0.03239213	0	0	0	0
39.80211	-0.03422565	-0.03239213	0	0	0	0
39.85045	-0.03422565	-0.03239213	0	0	0	0
39.89233	-0.03422565	-0.03239213	0	0	0	0
39.93373	-0.03422565	-0.03239213	0	0	0	0
39.97537	-0.03422565	-0.03239213	0	0	0	0
40.02019	-0.03422565	-0.03239213	0	0	0	0
40.06176	-0.03422565	-0.03239213	0	0	0	0
40.10352	-0.03422565	-0.03239213	0	0	0	0
40.14539	-0.03422565	-0.03239213	0	0	0	0
40.18713	-0.03422565	-0.03239213	0	0	0	0
40.22931	-0.03422565	-0.03239213	0	0	0	0
40.27071	-0.03422565	-0.03239213	0	0	0	0
40.31242	-0.03422565	-0.03239213	0	0	0	0
40.35464	-0.03422565	-0.03239213	0	0	0	0
40.3995	-0.03422565	-0.03239213	0	0	0	0
40.44777	-0.03422565	-0.03239213	0	0	0	0
40.48928	-0.03422565	-0.03239213	0	0	0	0
40.53263	-0.03422565	-0.03239213	0	0	0	0
40.57416	-0.03422565	-0.03239213	0	0	0	0
40.61623	-0.03422565	-0.03239213	0	0	0	0
40.65795	-0.03422565	-0.03239213	0	0	0	0
40.69956	-0.03422565	-0.03239213	0	0	0	0
40.74532	-0.03422565	-0.03239213	0	0	0	0
40.83182	-0.03422565	-0.03239213	0	0	0	0
40.87386	-0.03422565	-0.03239213	0	0	0	0
40.91595	-0.03422565	-0.03239213	0	0	0	0
40.95826	-0.03422565	-0.03239213	0	0	0	0
41.00076	-0.09778756	0.001833517	-1.495591	0.8053179	-17.63653	9.496593
41.04218	-0.2640264	0.08495294	-4.013124	2.006562	-29.99801	14.31359
41.084	-0.3630363	0.131402	-2.367711	1.110778	19.76697	-10.76139
41.132	-0.3813715	0.1399584	-0.3819495	0.1782431	22.10802	-10.38217
41.17407	-0.3838162	0.1424031	-0.05811273	0.05811238	3.595285	-1.33371
41.21634	-0.3850385	0.1436255	-0.02891704	0.02891704	0.3461701	-0.346166
41.25903	-0.3850385	0.1436255	0	0	0.3403416	-0.3403416
41.35169	-0.3850385	0.1436255	0	0	0	0
41.43605	-0.3850385	0.1436255	0	0	0	0
41.48227	-0.3850385	0.1436255	0	0	0	0
41.52786	-0.3850385	0.1436255	0	0	0	0
41.57042	-0.3838162	0.1436255	0.02872263	0	0.3258522	0
41.61332	-0.3825938	0.1436255	0.02849024	0	-0.002719341	0
41.65919	-0.3801492	0.1411808	0.05330278	-0.05330278	0.2795213	-0.6004729
41.70216	-0.3777044	0.1387361	0.05689012	-0.05688977	0.04038125	-0.04037734
41.74437	-0.3728151	0.1350691	0.1158354	-0.08687691	0.6919907	-0.3520353
41.78726	-0.365481	0.131402	0.170987	-0.08549351	0.6480643	0.0162557
41.83393	-0.3642587	0.1301797	0.02618959	-0.02618959	-1.616669	0.6621307
41.8768	-0.3593692	0.127735	0.1140536	-0.05702611	0.9812559	-0.3443789
41.91993	-0.3532575	0.1252903	0.1417078	-0.05668347	0.321566	0.003984266
41.96192	-0.3447011	0.1191786	0.2037986	-0.1455705	0.729506	-1.044335
42.00804	-0.330033	0.1093998	0.3180187	-0.2120125	1.296363	-0.7540973
42.05049	-0.298252	0.08984231	0.7486689	-0.4607195	4.862069	-2.807918
42.09306	-0.2664711	0.06661777	0.7465891	-0.5455842	-0.02446353	-0.9981947
42.13499	-0.2395795	0.0507273	0.6413852	-0.3790002	-1.245082	1.971512
42.18142	-0.1906857	0.0287251	1.053094	-0.4738925	4.659658	-1.073976
42.22428	-0.1405696	0.009167584	1.169141	-0.4562503	1.299602	0.1975733
42.26685	-0.1259015	0.004278206	0.3446109	-0.1148701	-9.651516	3.996016
42.31749	-0.1234568	0.004278206	0.04826839	0	-3.179227	1.232352
42.36297	-0.1210121	0.004278206	0.05375886	0	0.05711941	0
42.40624	-0.1210121	0.004278206	0	0	-0.605767	0
42.45099	-0.1197898	0.004278206	0.02731495	0	0.3103254	0
42.49491	-0.1075663	0.004278206	0.2783202	0	2.830818	0
42.54213	-0.1038993	0.004278206	0.07766125	0	-2.201731	0
42.58603	-0.1014546	0.004278206	0.05568833	0	-0.2411483	0
42.62848	-0.1014546	0.003055861	0	-0.02879496	-0.6449179	-0.33347
42.67083	-0.09656521	0.003055861	0.1154393	-5.497177E-09	1.36124	0.339545
42.71675	-0.09412052	0.003055861	0.05324079	1.014126E-08	-0.7046227	1.771617E-07
42.75925	-0.09289818	0.003055861	0.0287613	-5.478427E-09	-0.2768638	-1.766592E-07
42.80244	-0.08923115	0.001833517	0.0849047	-0.02830156	0.6551954	-0.3302802
42.84623	-0.08923115	0.001833517	0	0	-0.9761099	0.3253699
42.89216	-0.08800881	0.001833517	0.02661376	0	0.2966258	0
42.93478	-0.08434176	0.0006111722	0.08604484	-0.02868155	0.671183	-0.3239142
42.9772	-0.08189708	0.0006111722	0.05762606	0	-0.3341773	0.3372672
43.02238	-0.0770077	-0.0006111722	0.1082077	-0.02705194	0.5773615	-0.3087827
43.06903	-0.07456301	-0.0006111722	0.05240933	0	-0.6076192	0.2945833
43.11292	-0.07456302	-0.001833517	-1.697631E-07	-0.0278514	-0.5788917	-0.3076339
43.15721	-0.07211833	-0.001833517	0.05519908	0	0.626007	0.3158588
43.20003	-0.06967364	-0.001833517	0.05708706	0	0.02167296	0
43.24614	-0.06845129	-0.001833517	0.02650824	0	-0.3438301	0
43.28901	-0.06233957	-0.001833517	0.1425782	0	1.304482	0
43.33194	-0.0550055	-0.0006111722	0.1708354	0.02847257	0.3293522	0.3318622
43.37453	-0.0440044	0.0006111723	0.2582957	0.02869953	1.022668	0.00265389
43.42073	-0.04155971	0.0006111722	0.05291556	-1.259912E-09	-2.313077	-0.3232261
43.46323	-0.04033737	0.0006111722	0.02876139	0	-0.2723151	1.42043E-08
43.50605	-0.04033737	0.0006111722	0	0	-0.3371021	0
43.54889	-0.04033737	0.0006111722	0	0	0	0
43.5954	-0.04033737	0.0006111722	0	0	0	0
43.63861	-0.04033737	0.0006111722	0	0	0	0
43.68969	-0.04033737	0.0006111722	0	0	0	0
43.73466	-0.04033737	0.0006111722	0	0	0	0
43.78358	-0.04033737	0.0006111722	0	0	0	0
43.87108	-0.04033737	0.0006111722	0	0	0	0
43.95734	-0.04033737	0.0006111722	0	0	0	0
44.00473	-0.04033737	0.0006111722	0	0	0	0
44.04924	-0.04033737	0.0006111722	0	0	0	0
44.09533	-0.04033737	0.0006111722	0	0	0	0
44.13892	-0.04033737	0.0006111722	0	0	0	0
44.18169	-0.04033737	0.0006111722	0	0	0	0
44.22526	-0.04033737	0.0006111722	0	0	0	0
44.27611	-0.04033737	0.0006111722	0	0	0	0
44.33631	-0.04033737	0.0006111722	0	0	0	0
44.37851	-0.04033737	0.0006111722	0	0	0	0
44.42126	-0.04033737	0.0006111722	0	0	0	0
44.46487	-0.04033737	0.0006111722	0	0	0	0
44.50822	-0.04033737	0.0006111722	0	0	0	0
44.55046	-0.04033737	0.0006111722	0	0	0	0
44.59301	-0.04033737	0.0006111722	0	0	0	0
44.63561	-0.04033737	0.0006111722	0	0	0	0
44.6777	-0.04033737	0.0006111722	0	0	0	0
44.72079	-0.04033737	0.0006111722	0	0	0	0
44.76981	-0.04033737	0.0006111722	0	0	0	0
44.81385	-0.04033737	0.0006111722	0	0	0	0
44.85712	-0.04033737	0.0006111722	0	0	0	0
44.89972	-0.04033737	0.0006111722	0	0	0	0
44.94184	-0.04033737	0.0006111722	0	0	0	0
44.98404	-0.04033737	0.0006111722	0	0	0	0
45.02769	-0.04033737	0.0006111722	0	0	0	0
45.06992	-0.04033737	0.0006111722	0	0	0	0
45.11272	-0.04033737	0.0006111722	0	0	0	0
45.15508	-0.04033737	0.0006111722	0	0	0	0
45.19803	-0.04033737	0.0006111722	0	0	0	0
45.24584	-0.04033737	0.0006111722	0	0	0	0
45.28949	-0.04033737	0.0006111722	0	0	0	0
45.33257	-0.04033737	0.0006111722	0	0	0	0
45.37651	-0.04033737	0.0006111722	0	0	0	0
45.41962	-0.04033737	0.0006111722	0	0	0	0
45.46176	-0.04033737	0.0006111722	0	0	0	0
45.50672	-0.04033737	0.0006111722	0	0	0	0
45.54926	-0.04033737	0.0006111722	0	0	0	0
45.59131	-0.04033737	0.0006111722	0	0	0	0
45.63372	-0.04033737	0.0006111722	0	0	0	0
45.6759	-0.04033737	0.0006111722	0	0	0	0
45.7197	-0.04033737	0.0006111722	0	0	0	0
45.76197	-0.03055861	-0.0006111723	0.2313367	-0.02891709	2.68798	-0.3359976
45.80474	0.1222344	-0.03483682	3.572085	-0.8001469	39.28218	-9.068506
45.84783	0.2896957	-0.0947317	3.886238	-1.389969	3.658692	-6.869172
45.89078	0.2921403	-0.0947317	0.05691974	0	-44.506	16.15482
45.93913	0.2921403	-0.0947317	0	0	-0.6234298	0
45.9815	0.2921403	-0.0947317	0	0	0	0
46.02422	0.2921403	-0.0947317	0	0	0	0
46.06718	0.2921403	-0.0947317	0	0	0	0
46.10991	0.2921403	-0.09839873	0	-0.08581406	0	-1.001364
46.15264	0.2994744	-0.1020658	0.1716595	-0.08582956	2.008727	-0.0001813454
46.19685	0.3055861	-0.1069551	0.1382235	-0.110579	-0.3845834	-0.2846698
46.28268	0.3055861	-0.1069551	0	0	-1.062875	0.850301
46.3792	0.3055861	-0.1069551	0	0	0	0
46.42317	0.3055861	-0.1069551	0	0	0	0
46.46774	0.3019191	-0.1069551	-0.08227464	0	-0.9292461	0
46.51548	0.2469136	-0.0947317	-1.152074	0.2560164	-11.58849	2.773271
46.55854	0.09534287	-0.04217088	-3.520276	1.220741	-26.08117	10.62458
46.60257	0.04767143	-0.02383572	-1.082628	0.4163955	27.99013	-9.235846
46.64804	0.04767143	-0.02383572	0	0	12.09583	-4.652244
46.69512	0.04767143	-0.02383572	0	0	0	0
46.74006	0.04767143	-0.02383572	0	0	0	0
46.78409	0.04767143	-0.02383572	0	0	0	0
46.82852	0.04767143	-0.02383572	0	0	0	0
46.87282	0.04767143	-0.02383572	0	0	0	0
46.91658	0.04767143	-0.02383572	0	0	0	0
46.95992	0.04644909	-0.01894634	-0.02820436	0.1128176	-0.3238405	1.295364
47.00375	0.04522675	-0.017724	-0.0278877	0.0278877	0.003632611	-0.9743063
47.05325	0.04522675	-0.01650165	-7.524753E-08	0.0246903	0.298781	-0.0342562
47.09692	0.0440044	-0.01650165	-0.02799246	-4.265583E-08	-0.3004313	-0.2649918
47.14013	0.03911502	-0.01527931	-0.1131463	0.02828658	-0.9801351	0.3255837
47.1834	0.03667033	-0.01405696	-0.05650329	0.02825167	0.6549904	-0.000403742
47.23079	0.0330033	-0.01283462	-0.07737994	0.02579332	-0.2302835	-0.02711725
47.28057	0.03055861	-0.01161227	-0.04911187	0.02455594	0.2909196	-0.01273448
47.32584	0.02933627	-0.01161227	-0.02699719	-4.113921E-08	0.2326523	-0.2583354
47.37028	0.02933627	-0.01161227	0	0	0.3009249	4.585592E-07
47.41999	0.02933627	-0.01161227	0	0	0	0
47.46304	0.02933627	-0.01161227	0	0	0	0
47.50702	0.02933627	-0.01161227	0	0	0	0
47.55001	0.02933627	-0.01161227	0	0	0	0
47.59337	0.02933627	-0.01161227	0	0	0	0
47.63661	0.02933627	-0.01161227	0	0	0	0
47.67965	0.02933627	-0.01161227	0	0	0	0
47.7241	0.02933627	-0.01161227	0	0	0	0
47.76718	0.02933627	-0.01161227	0	0	0	0
47.81094	0.02933627	-0.01161227	0	0	0	0
47.85471	0.02933627	-0.01161227	0	0	0	0
47.89864	0.02933627	-0.01161227	0	0	0	0
47.94164	0.02933627	-0.01161227	0	0	0	0
47.98484	0.02933627	-0.01161227	0	0	0	0
48.02996	0.02933627	-0.01161227	0	0	0	0
48.0734	0.02933627	-0.01161227	0	0	0	0
48.11686	0.02933627	-0.01161227	0	0	0	0
48.1605	0.02933627	-0.01161227	0	0	0	0
48.20388	0.02933627	-0.01161227	0	0	0	0
48.24731	0.02933627	-0.01161227	0	0	0	0
48.29077	0.02933627	-0.01161227	0	0	0	0
48.33527	0.02933627	-0.01161227	0	0	0	0
48.37865	0.02933627	-0.01161227	0	0	0	0
48.42223	0.02933627	-0.01161227	0	0	0	0
48.46535	0.02933627	-0.01161227	0	0	0	0
48.50912	0.02933627	-0.01161227	0	0	0	0
48.55239	0.02933627	-0.01161227	0	0	0	0
48.60485	0.02933627	-0.01161227	0	0	0	0
48.65456	0.02933627	-0.01161227	0	0	0	0
48.70185	0.02933627	-0.01161227	0	0	0	0
48.79155	0.02933627	-0.01161227	0	0	0	0
48.88031	0.02933627	-0.01161227	0	0	0	0
48.92432	0.02933627	-0.01161227	0	0	0	0
48.96776	0.02933627	-0.01161227	0	0	0	0
49.01295	0.02933627	-0.01161227	0	0	0	0
49.05597	0.02933627	-0.01161227	0	0	0	0
49.09967	0.02933627	-0.01161227	0	0	0	0
49.14495	0.02933627	-0.01161227	0	0	0	0
49.18865	0.02933627	-0.01161227	0	0	0	0
49.23252	0.02933627	-0.01161227	0	0	0	0
49.27538	0.02933627	-0.01161227	0	0	0	0
49.31934	0.02933627	-0.01161227	0	0	0	0
49.36272	0.02933627	-0.01161227	0	0	0	0
49.40605	0.02933627	-0.01161227	0	0	0	0
49.44977	0.02933627	-0.01161227	0	0	0	0
49.49271	0.02933627	-0.01161227	0	0	0	0
49.53712	0.02933627	-0.01161227	0	0	0	0
49.58004	0.02933627	-0.01161227	0	0	0	0
49.62558	0.02933627	-0.01161227	0	0	0	0
49.67008	0.02933627	-0.01161227	0	0	0	0
49.71358	0.02933627	-0.01161227	0	0	0	0
49.75761	0.02933627	-0.01161227	0	0	0	0
49.80172	0.02933627	-0.01161227	0	0	0	0
49.8457	0.02933627	-0.01161227	0	0	0	0
49.8891	0.02933627	-0.01161227	0	0	0	0
49.93901	0.02933627	-0.01161227	0	0	0	0
49.98365	0.02933627	-0.01161227	0	0	0	0
50.02906	0.02933627	-0.01161227	0	0	0	0
50.07392	0.02933627	-0.01161227	0	0	0	0
50.11802	0.02933627	-0.01161227	0	0	0	0
50.16177	0.02933627	-0.01161227	0	0	0	0
50.20638	0.02933627	-0.01161227	0	0	0	0
50.25452	0.02933627	-0.01161227	0	0	0	0
50.29876	0.02933627	-0.01161227	0	0	0	0
50.3424	0.02933627	-0.01161227	0	0	0	0
50.38602	0.02933627	-0.01161227	0	0	0	0
50.42937	0.02933627	-0.01161227	0	0	0	0
50.473	0.02933627	-0.01161227	0	0	0	0
50.51673	0.02933627	-0.01161227	0	0	0	0
50.55999	0.02933627	-0.01161227	0	0	0	0
50.60349	0.02933627	-0.01161227	0	0	0	0
50.64779	0.02933627	-0.01161227	0	0	0	0
50.69135	0.02933627	-0.01161227	0	0	0	0
50.73586	0.02933627	-0.01161227	0	0	0	0
50.78064	0.02933627	-0.01161227	0	0	0	0
50.82455	0.02933627	-0.01161227	0	0	0	0
50.86884	0.02933627	-0.01161227	0	0	0	0
50.91381	0.02322455	-0.01650165	-0.1359138	-0.108731	-1.522736	-1.218188
50.96163	0.008556411	-0.03728151	-0.3067542	-0.4345684	-1.841253	-3.511751
51.00542	0.004889378	-0.04339323	-0.08373612	-0.1395602	2.43443	3.220263
51.04889	0.004889378	-0.04339323	0	0	0.9596031	1.599339
51.09197	-0.002444689	0.06661777	-0.1702303	2.553455	-1.966806	29.50209
51.13922	-0.007334067	0.1301797	-0.1034814	1.345259	0.7389283	-13.37506
51.18294	-0.009778756	0.1705171	-0.05592151	0.922705	0.5228363	-4.64522
51.22709	-0.01711282	0.1851852	-0.1661121	0.3322243	-1.254051	-6.720108
51.2704	-0.01955751	0.1888522	-0.05644358	0.08466523	1.25388	-2.830431
51.31733	-0.007334067	0.1998533	0.2604489	0.2344042	3.511496	1.659262
51.36058	0.05011613	0.2499695	1.328413	1.158829	11.84266	10.25094
51.40424	0.07089598	0.276861	0.4759975	0.6159969	-9.808865	-6.246437
51.44818	0.08556412	0.2988632	0.3337816	0.500672	-1.623456	-1.316483
51.49673	0.08800881	0.3013079	0.05035827	0.05035827	-3.064329	-4.868723
51.58466	0.08800881	0.3013079	0	0	-0.3689937	-0.3689937
51.67336	0.08800881	0.3013079	0	0	0	0
51.72459	0.08800881	0.3013079	0	0	0	0
51.76868	0.08678646	0.2976409	-0.02772123	-0.08316369	-0.2908061	-0.8724183
51.81327	0.08556411	0.2951962	-0.02741309	-0.05482585	0.003474551	0.3195369
51.85882	0.08434176	0.2915291	-0.02683457	-0.08050388	0.006417912	-0.2848642
51.90689	0.08189708	0.2866398	-0.05085782	-0.101715	-0.256603	-0.2265656
51.95184	0.07945239	0.2829728	-0.05439325	-0.08159029	-0.0380098	0.2163629
51.99846	0.07945239	0.2829728	0	0	0.5940204	0.8910351
52.04764	0.07945239	0.2829728	0	0	0	0
52.09583	0.07089598	0.2573035	-0.1775797	-0.5327394	-1.823831	-5.471495
52.1422	0.006111723	0.1644053	-1.396957	-2.003184	-12.89545	-15.55059
52.18674	0.006111723	0.1644053	0	0	15.36541	22.03342
52.23147	0.006111723	0.1644053	0	0	0	0
52.27891	0.006111723	0.1644053	0	0	0	0
52.3238	0.006111723	0.1644053	0	0	0	0
52.36982	0.006111723	0.1644053	0	0	0	0
52.41552	0.006111723	0.1644053	0	0	0	0
52.46668	0.006111723	0.1644053	0	0	0	0
52.51087	-0.007334067	0.1644053	-0.3042497	-3.371817E-07	-3.1908	-3.536172E-06
52.55538	-0.007334067	0.1607383	0	-0.08238713	3.429976	-0.9287921
52.6004	-0.007334067	0.1607383	0	0	0	0.9202476
52.64933	-0.007334067	0.1607383	0	0	0	0
52.69432	0	0.1692947	0.1629997	0.1901667	1.735415	2.024655
52.73975	0.003667033	0.1717394	0.08072647	0.05381722	-0.9099032	-1.50796
52.78389	0.003667033	0.1717394	0	0	-0.9012759	-0.6008459
52.83364	0.003667033	0.1717394	0	0	0	0
52.87895	0.006111722	0.16685	0.05395812	-0.107916	0.5676538	-1.135305
52.92354	0.007334067	0.163183	0.02741063	-0.08223175	-0.295297	0.2856953
52.96806	0.008556412	0.159516	0.02745996	-0.08237973	0.0005536042	-0.001660729
53.01616	0.008556412	0.1558489	0	-0.07623864	-0.2965015	0.06630899
53.06088	0.008556412	0.1558489	0	0	0	0.8212995
53.10555	0.008556412	0.1558489	0	0	0	0
53.15163	0.0110011	0.1485149	0.05305577	-0.1591673	0.5846505	-1.753952
53.20072	0.02077986	0.1289573	0.1992106	-0.3984211	1.5358	-2.514088
53.24476	0.02933627	0.1155116	0.1942843	-0.305304	-0.05289814	0.9998813
53.28976	0.03055861	0.1142892	0.02716196	-0.02716196	-1.876879	3.123694
53.33679	0.03055861	0.1142892	0	0	-0.2951439	0.2951439
53.38671	0.03055861	0.1118445	3.730755E-08	-0.04896557	3.847951E-07	-0.5050374
53.43175	0.03055861	0.1093998	0	-0.05428268	-3.928638E-07	-0.05599139
53.47585	0.03055861	0.1069551	0	-0.05543749	0	-0.0129559
53.52073	0.03055861	0.1020658	-4.149934E-08	-0.1089344	-4.66381E-07	-0.6012134
53.56784	0.03055861	0.09962107	3.953694E-08	-0.05189161	8.808747E-07	0.6200629
53.61246	0.03055861	0.09962107	0	0	-4.310406E-07	0.565734
53.65654	0.03055861	0.09839873	0	-0.02772843	0	-0.3126248
53.70119	0.03055861	0.09717638	0	-0.02737796	0	0.003949809
53.74942	0.03055861	0.09350935	-3.861762E-08	-0.07602729	-4.157787E-07	-0.5237855
53.7935	0.02933627	0.08739763	-0.02773318	-0.1386665	-0.3004412	-0.6785885
53.8397	0.02933627	0.08617529	-4.031384E-08	-0.02645556	0.307195	1.24294
53.88508	0.02933627	0.08128591	0	-0.1077348	4.401696E-07	-0.8874532
53.94259	0.02933627	0.07884122	0	-0.0425114	0	0.6339136
53.98868	0.02933627	0.07761887	0	-0.02651921	0	0.1543654
54.03453	0.03055861	0.07761887	0.02665808	0	0.2899331	0.2884227
54.08205	0.03055861	0.07761887	0	0	-0.285503	0
54.17327	0.03055861	0.07761887	0	0	0	0
54.26013	0.03422565	0.07639653	0.04221929	-0.01407307	0.2370835	-0.07902768
54.31009	0.03422565	0.07639653	0	0	-0.3085801	0.1028598
54.35471	0.03422565	0.07639653	0	0	0	0
54.3992	0.03422565	0.07639653	0	0	0	0
54.44355	0.03422565	0.07639653	0	0	0	0
54.48764	0.03422565	0.07639653	0	0	0	0
54.53191	0.03422565	0.07639653	0	0	0	0
54.5764	0.03422565	0.07639653	0	0	0	0
54.62119	0.03422565	0.07639653	0	0	0	0
54.6658	0.03422565	0.07639653	0	0	0	0
54.71032	0.03422565	0.07639653	0	0	0	0
54.75499	0.03422565	0.07639653	0	0	0	0
54.80119	0.03422565	0.07639653	0	0	0	0
54.84839	0.03422565	0.07639653	0	0	0	0
54.89286	0.03422565	0.07639653	0	0	0	0
54.94408	0.03422565	0.07639653	0	0	0	0
54.98891	0.03422565	0.07639653	0	0	0	0
55.03416	0.03422565	0.07639653	0	0	0	0
55.07817	0.03422565	0.07639653	0	0	0	0
55.123	0.03422565	0.07639653	0	0	0	0
55.16697	0.03422565	0.07639653	0	0	0	0
55.2117	0.03422565	0.07639653	0	0	0	0
55.25586	0.03422565	0.07639653	0	0	0	0
55.30074	0.03422565	0.07639653	0	0	0	0
55.34494	0.03422565	0.07639653	0	0	0	0
55.39037	0.03422565	0.07639653	0	0	0	0
55.4352	0.03422565	0.07639653	0	0	0	0
55.47968	0.03422565	0.07639653	0	0	0	0
55.52559	0.03422565	0.07639653	0	0	0	0
55.57653	0.03422565	0.07639653	0	0	0	0
55.62228	0.03422565	0.07639653	0	0	0	0
55.66677	0.03422565	0.07639653	0	0	0	0
55.71159	0.03422565	0.07639653	0	0	0	0
55.7562	0.03422565	0.07639653	0	0	0	0
55.80116	0.03422565	0.07639653	0	0	0	0
55.84705	0.03422565	0.07639653	0	0	0	0
55.89206	0.03422565	0.07639653	0	0	0	0
55.9365	0.03422565	0.07639653	0	0	0	0
55.98049	0.03422565	0.07639653	0	0	0	0
56.02553	0.03422565	0.07639653	0	0	0	0
56.06977	0.03422565	0.07639653	0	0	0	0
56.11435	0.03422565	0.07639653	0	0	0	0
56.15896	0.03422565	0.07639653	0	0	0	0
56.20375	0.01466813	0.1265126	-0.4366651	1.118954	-4.884329	12.51609
56.24828	-0.01955751	0.1998533	-0.7685495	1.646892	-3.715631	5.910565
56.29656	-0.04033737	0.2756387	-0.4304476	1.569867	3.643034	-0.8299406
56.34139	-0.04522675	0.3135314	-0.1090641	0.8452471	3.451829	-7.782803
56.38707	-0.04522675	0.3208655	-8.155011E-08	0.16055	1.204976	-7.564768
56.43246	-0.04522675	0.3220878	8.206408E-08	0.02692621	1.79646E-06	-1.467169
56.4814	-0.04522675	0.3220878	0	0	-8.699343E-07	-0.2854359
56.52718	-0.04522675	0.3220878	0	0	0	0
56.61648	-0.04522675	0.3220878	0	0	0	0
56.7115	-0.04522675	0.3220878	0	0	0	0
56.75688	-0.04522675	0.3220878	0	0	0	0
56.80342	-0.04522675	0.3220878	0	0	0	0
56.8574	-0.04522675	0.3220878	0	0	0	0
56.90369	-0.04522675	0.3208655	-8.046823E-08	-0.02640259	-8.0246E-07	-0.2632967
56.94865	-0.04522674	0.312309	1.657297E-07	-0.1903287	2.698019E-06	-1.796423
56.99414	-0.04155971	0.3000856	0.08060457	-0.2686816	0.8911459	-0.8662542
57.04354	-0.03544799	0.2817504	0.1237278	-0.3711833	0.4544522	-1.080209
57.08896	-0.02566924	0.2487471	0.2153067	-0.7266603	0.9658762	-3.749191
57.13429	-0.01222344	0.2010757	0.2966198	-1.051652	0.8960341	-3.581263
57.17967	-0.008556412	0.1705171	0.08080111	-0.6733427	-2.379125	4.170375
57.22892	-0.004889378	0.1521819	0.07445519	-0.3722758	-0.06705679	3.181348
57.27372	-0.004889378	0.1436255	0	-0.1910247	-0.7917081	1.927307
57.31931	-0.004889378	0.1399585	-1.021338E-08	-0.08042914	-1.129981E-07	1.223599
57.36448	-0.003667034	0.1387361	0.0270588	-0.02705908	0.2981132	0.5879903
57.41361	-0.003667033	0.127735	4.739122E-09	-0.2239207	-0.2869343	-2.087541
57.45933	-0.001222345	0.1069551	0.05347188	-0.4545108	0.5637601	-2.431138
57.51149	0.05745019	0.04217088	1.124975	-1.242159	10.94781	-8.047604
57.55659	0.05745019	0.04217088	0	0	-11.56673	12.7716
57.60563	0.05745019	0.04217088	0	0	0	0
57.6512	0.05745019	0.04217088	0	0	0	0
57.69775	0.05745019	0.04217088	0	0	0	0
57.74456	0.05745019	0.04217088	0	0	0	0
57.79463	0.05745019	0.04217088	0	0	0	0
57.84243	0.05622784	0.03972619	-0.02557308	-0.05114608	-0.2612967	-0.5225927
57.88875	0.05745019	0.0397262	0.02638818	8.042185E-08	0.5520744	0.5434142
57.93536	0.05745019	0.03850385	0	-0.02622397	-0.2839464	-0.2821803
57.98411	0.05745019	0.03850385	0	0	0	0.2750002
58.03008	0.05867254	0.03850385	0.02659388	0	0.2807889	0
58.07542	0.05867254	0.03850385	0	0	-0.2912528	0
58.12093	0.05867254	0.03850385	0	0	0	0
58.16987	0.05867254	0.03850385	0	0	0	0
58.21622	0.05867254	0.03850385	0	0	0	0
58.26237	0.05867254	0.03850385	0	0	0	0
58.3084	0.05867254	0.03850385	0	0	0	0
58.35386	0.05867254	0.03850385	0	0	0	0
58.40057	0.05867254	0.03850385	0	0	0	0
58.44647	0.05745019	0.03728151	-0.02663154	-0.02663154	-0.2875684	-0.2875684
58.49192	0.05378316	0.03239213	-0.08069252	-0.1075901	-0.5918464	-0.8863143
58.5417	0.05256081	0.02994744	-0.02455407	-0.04910811	0.5895268	0.6141369
58.58699	0.04767144	0.02505806	-0.1079435	-0.1079435	-0.8770674	-0.618815
58.63253	0.04644909	0.02261337	-0.02684348	-0.05368689	0.8928594	0.5973309
58.67835	0.04644909	0.02139103	-8.129891E-08	-0.02667584	0.2938259	0.2956609
58.72819	0.04644909	0.02139103	0	0	8.498972E-07	0.2788687
58.77353	0.04522675	0.02016868	-0.0269585	-0.02695862	-0.2832468	-0.2832481
58.81973	0.0440044	0.02016868	-0.02646009	0	0.005444918	0.2945091
58.86602	0.0440044	0.02016868	0	0	0.2860942	0
58.92548	0.0440044	0.02016868	0	0	0	0
59.01691	0.0440044	0.02016868	0	0	0	0
59.1103	0.0440044	0.01894634	3.988737E-08	-0.01308786	2.15815E-07	-0.07081331
59.15802	0.0440044	0.01894634	0	0	-2.826544E-07	0.09274471
59.20421	0.0440044	0.01894634	0	0	0	0
59.25536	0.0440044	0.01894634	0	0	0	0
59.30177	0.0440044	0.01894634	0	0	0	0
59.3476	0.0440044	0.01894634	0	0	0	0
59.43798	0.0440044	0.01894634	0	0	0	0
59.53042	0.0440044	0.01894634	0	0	0	0
59.5762	0.0440044	0.01894634	0	0	0	0
59.62265	0.0440044	0.01894634	0	0	0	0
59.6678	0.0440044	0.01894634	0	0	0	0
59.71408	0.0440044	0.01894634	0	0	0	0
59.8027	0.0440044	0.01894634	0	0	0	0
59.89011	0.0440044	0.01894634	0	0	0	0
59.93658	0.0440044	0.01894634	0	0	0	0
59.98148	0.0440044	0.01894634	0	0	0	0
60.02754	0.0440044	0.01894634	0	0	0	0
