Time	Pos X	Pos Y	Vel X	Vel Y	Acc X	Acc Y
0.02623823	-0.02115474	-0.3053719	0.0002445159	0.003529625	-2.826944E-06	-4.080737E-05
0.06234259	-0.02115474	-0.3053719	0	0	2.827404E-06	4.081401E-05
0.09552537	-0.02099691	-0.3055005	0.004756252	-0.003877211	0.06864552	-0.0559586
0.1193335	-0.02099691	-0.3055005	0	0	-0.08345635	0.06803212
0.1440294	-0.02047082	-0.3059295	0.02130267	-0.01736905	0.4391938	-0.358095
0.1646143	-0.02047082	-0.3059295	0	0	-0.4704564	0.3835848
0.1887426	-0.02044452	-0.3059509	0.001090185	-0.0008880819	0.02438173	-0.01986174
0.2082467	-0.02044452	-0.3059509	0	0	-0.02498571	0.02035375
0.2358161	-0.02044452	-0.3059509	0	0	0	0
0.2544166	-0.02044452	-0.3059509	0	0	0	0
0.2779207	-0.0203393	-0.3060367	0.004476609	-0.003650454	0.106321	-0.08669952
0.2965244	-0.0203393	-0.3060367	0	0	-0.106313	0.08669302
0.3305278	-0.01960275	-0.3066804	0.02166101	-0.01892868	0.4117506	-0.3598121
0.3490166	-0.01960275	-0.3066804	0	0	-0.4126517	0.3605997
0.3721126	-0.01910294	-0.307131	0.0216407	-0.01951296	0.5204002	-0.4692338
0.3886805	-0.01910294	-0.307131	0	0	-0.5456026	0.4919583
0.4153296	-0.01878726	-0.3074315	0.0118456	-0.01127714	0.2740955	-0.260942
0.4324616	-0.01878726	-0.3074315	0	0	-0.2705637	0.2575797
0.4544393	-0.0185242	-0.3076462	0.01196976	-0.009768838	0.3060564	-0.2497808
0.4711611	-0.0185242	-0.3076462	0	0	-0.3093002	0.2524282
0.4945386	-0.01773498	-0.3083334	0.03375963	-0.02939381	0.8419008	-0.7330256
0.5114605	-0.01773498	-0.3083334	0	0	-0.83772	0.7293854
0.5345226	-0.01639327	-0.3094291	0.05817842	-0.04751148	1.455042	-1.188262
0.5571192	-0.01639327	-0.3094291	0	0	-1.274204	1.04058
0.5783985	-0.01636696	-0.3094506	0.001236404	-0.001009781	0.02817956	-0.02301447
0.5949652	-0.01636696	-0.3094506	0	0	-0.03266933	0.0266813
0.6203228	-0.01639327	-0.3094721	-0.001037556	-0.0008473799	-0.02474835	-0.02021217
0.6381373	-0.01639327	-0.3094721	0	0	0.02403303	0.01962797
0.6661776	-0.01641958	-0.3095796	-0.0009382214	-0.003832598	-0.0204607	-0.08358117
0.6833368	-0.01641958	-0.3095796	0	0	0.02075733	0.08479291
0.7063238	-0.01660374	-0.309859	-0.008011551	-0.01215585	-0.1995592	-0.3027893
0.7257347	-0.01660374	-0.309859	0	0	0.188961	0.2867086
0.7476567	-0.0240743	-0.3160176	-0.3407791	-0.2809348	-8.244742	-6.79688
0.7642246	-0.0240743	-0.3160176	0	0	8.853734	7.298926
0.785978	-0.04276339	-0.3315095	-0.859133	-0.7121591	-22.41919	-18.58389
0.8025451	-0.04276339	-0.3315095	0	0	22.41965	18.58426
0.8262557	-0.07253044	-0.3565259	-1.255432	-1.055069	-31.16939	-26.19487
0.8428236	-0.07253044	-0.3565259	0	0	31.16879	26.19436
0.8659512	-0.102586	-0.382151	-1.299555	-1.107993	-32.73815	-27.91235
0.8838482	-0.102586	-0.382151	0	0	31.67744	27.008
0.9089168	-0.1162109	-0.3939544	-0.5435044	-0.4708427	-12.64974	-10.95858
0.9263852	-0.1162109	-0.3939544	0	0	12.77724	11.06904
0.9514131	-0.1158993	-0.3935023	0.01244853	0.01806506	0.2929323	0.4250976
0.9685581	-0.1158993	-0.3935023	0	0	-0.2951779	-0.4283563
0.9903021	-0.1159253	-0.3934344	-0.001194138	0.003119492	-0.03070631	0.0802153
1.00687	-0.1159253	-0.3934344	0	0	0.03116855	-0.08142282
1.03108	-0.1159253	-0.3934344	0	0	0	0
1.049385	-0.1159253	-0.3934344	0	0	0	0
1.071392	-0.1159253	-0.3934344	0	0	0	0
1.088425	-0.1159253	-0.3934344	0	0	0	0
1.112718	-0.1158993	-0.3934571	0.001068845	-0.0009311375	0.02586387	-0.02253162
1.134452	-0.1158993	-0.3934571	0	0	-0.02322241	0.02023048
1.158817	-0.1158733	-0.3934796	0.001065655	-0.0009271355	0.02311658	-0.02011175
1.175385	-0.1158733	-0.3934796	0	0	-0.02603436	0.02265026
1.197081	-0.1158474	-0.3935023	0.001196422	-0.001042577	0.03126812	-0.02724742
1.215218	-0.1158474	-0.3935023	0	0	-0.03003572	0.02617349
1.238181	-0.1158214	-0.3935249	0.001130747	-0.0009837665	0.02751209	-0.02393591
1.255683	-0.1158214	-0.3935249	0	0	-0.02794343	0.02431118
1.28036	-0.1158214	-0.3935249	0	0	0	0
1.296927	-0.1158214	-0.3935249	0	0	0	0
1.321193	-0.1157954	-0.3935474	0.001070006	-0.0009309203	0.02620459	-0.02279837
1.337761	-0.1157954	-0.3935474	0	0	-0.02620329	0.02279724
1.363173	-0.1157954	-0.3935474	0	0	0	0
1.389448	-0.1157954	-0.3935474	0	0	0	0
1.411276	-0.1157954	-0.3935474	0	0	0	0
1.427842	-0.1157954	-0.3935474	0	0	0	0
1.453238	-0.1157954	-0.3935474	0	0	0	0
1.471542	-0.1157954	-0.3935474	0	0	0	0
1.493662	-0.1157954	-0.3935474	0	0	0	0
1.51023	-0.1157954	-0.3935474	0	0	0	0
1.531055	-0.1157954	-0.3935927	0	-0.002170914	0	-0.05805692
1.548915	-0.1157954	-0.3935927	0	0	0	0.05611674
1.573948	-0.1157954	-0.3935927	0	0	0	0
1.591193	-0.1157954	-0.3935927	0	0	0	0
1.613129	-0.1157695	-0.3936153	0.001183674	-0.001031172	0.03021068	-0.0263184
1.629696	-0.1157695	-0.3936153	0	0	-0.03074243	0.02678164
1.656823	-0.1157695	-0.3936153	0	0	0	0
1.674862	-0.1157695	-0.3936153	0	0	0	0
1.696521	-0.1157695	-0.3936153	0	0	0	0
1.713367	-0.1157695	-0.3936153	0	0	0	0
1.739452	-0.1157695	-0.3936153	0	0	0	0
1.756426	-0.1157695	-0.3936153	0	0	0	0
1.779781	-0.1157695	-0.3936153	0	0	0	0
1.796424	-0.1157695	-0.3936153	0	0	0	0
1.818283	-0.1157695	-0.3936153	0	0	0	0
1.834849	-0.1157695	-0.3936153	0	0	0	0
1.861122	-0.1157695	-0.3936153	0	0	0	0
1.880579	-0.1157695	-0.3936153	0	0	0	0
1.903201	-0.1157695	-0.3936153	0	0	0	0
1.920012	-0.1157695	-0.3936153	0	0	0	0
1.940788	-0.1157695	-0.3936153	0	0	0	0
1.957766	-0.1157695	-0.3936153	0	0	0	0
1.983893	-0.1157695	-0.3936153	0	0	0	0
2.001019	-0.1157695	-0.3936153	0	0	0	0
2.022631	-0.1157695	-0.3936153	0	0	0	0
2.039197	-0.1157695	-0.3936153	0	0	0	0
2.062707	-0.1157954	-0.3935927	-0.001104447	0.0009621528	-0.02755848	0.02400791
2.080476	-0.1157954	-0.3935927	0	0	0.02675593	-0.02330875
2.102089	-0.1158214	-0.3935249	-0.001201379	0.003137031	-0.030506	0.07965699
2.125027	-0.1158214	-0.3935249	0	0	0.02696616	-0.07041379
2.151906	-0.1158474	-0.3933214	-0.0009660205	0.0075685	-0.01939135	0.1519258
2.170841	-0.1158474	-0.3933214	0	0	0.02108613	-0.1652039
2.194225	-0.1158214	-0.3932084	0.001110382	0.00483279	0.02623863	0.1142002
2.210987	-0.1158214	-0.3932084	0	0	-0.02765818	-0.1203786
2.243819	-0.1158214	-0.3931632	0	0.00137611	0	0.02774729
2.260627	-0.1158214	-0.3931632	0	0	0	-0.0277217
2.282869	-0.1158214	-0.3931632	0	0	0	0
2.299436	-0.1158214	-0.3931632	0	0	0	0
2.320735	-0.1157954	-0.3931858	0.001219104	-0.001060638	0.03219574	-0.02801075
2.337845	-0.1157954	-0.3931858	0	0	-0.03174008	0.02761432
2.359121	-0.1157695	-0.3932084	0.001220375	-0.001061744	0.0317915	-0.02765906
2.376162	-0.1157695	-0.3932084	0	0	-0.03184947	0.02770949
2.399451	-0.1157435	-0.393231	0.001114895	-0.000971254	0.02764435	-0.02408271
2.416018	-0.1157435	-0.393231	0	0	-0.02797293	0.02436896
2.438698	-0.1157176	-0.3932536	0.001144875	-0.0009960579	0.02917153	-0.02537965
2.455266	-0.1157176	-0.3932536	0	0	-0.02917011	0.02537842
2.477438	-0.1156916	-0.3932762	0.001171073	-0.00101885	0.03022835	-0.0262991
2.495191	-0.1156916	-0.3932762	0	0	-0.02933192	0.02551919
2.518278	-0.1156916	-0.3933214	0	-0.001958268	0	-0.04795043
2.534844	-0.1156916	-0.3933214	0	0	0	0.04938505
2.561135	-0.1156656	-0.393344	0.0009876058	-0.0008603648	0.02304399	-0.02007505
2.577703	-0.1156656	-0.393344	0	0	-0.02304335	0.02007449
2.602025	-0.1156656	-0.3933892	0	-0.001857552	0	-0.04542805
2.625777	-0.1156656	-0.3933892	0	0	0	0.03863904
2.651363	-0.1156656	-0.3934344	0	-0.001767027	0	-0.03581518
2.671937	-0.1156656	-0.3934344	0	0	0	0.0382807
2.698047	-0.1156397	-0.3934571	0.0009944414	-0.0008663197	0.02130121	-0.01855681
2.714613	-0.1156397	-0.3934571	0	0	-0.02330188	0.02029971
2.736304	-0.1156397	-0.3934571	0	0	0	0
2.752872	-0.1156397	-0.3934571	0	0	0	0
2.77784	-0.1156137	-0.3934796	0.001039966	-0.0009047851	0.02503793	-0.02178336
2.794407	-0.1156137	-0.3934796	0	0	-0.02503864	0.02178398
2.81771	-0.1156137	-0.3935249	0	-0.001940056	0	-0.04865894
2.834277	-0.1156137	-0.3935249	0	0	0	0.04865924
2.857756	-0.1155877	-0.3935474	0.001105883	-0.000962134	0.02761533	-0.02402574
2.875566	-0.1155877	-0.3935474	0	0	-0.0267839	0.02330238
2.899857	-0.1155618	-0.3935701	0.001068934	-0.0009312152	0.02538996	-0.02211878
2.922029	-0.1155618	-0.3935701	0	0	-0.02300614	0.02004208
2.944876	-0.1155618	-0.3935701	0	0	0	0
2.961443	-0.1155618	-0.3935701	0	0	0	0
2.985005	-0.115406	-0.3937057	0.006612116	-0.005756155	0.1647698	-0.1434398
3.001838	-0.115406	-0.3937057	0	0	-0.1636864	0.1424966
3.026478	-0.1153021	-0.3938414	0.004215349	-0.005505564	0.101641	-0.1327508
3.044771	-0.1153021	-0.3938414	0	0	-0.09818328	0.1282348
3.076719	-0.1152502	-0.3938866	0.001625724	-0.001415133	0.03235882	-0.02816717
3.093285	-0.1152502	-0.3938866	0	0	-0.03351048	0.02916965
3.1191	-0.1152242	-0.3939092	0.00100583	-0.0008762411	0.02373301	-0.02067531
3.136896	-0.1152242	-0.3939092	0	0	-0.02306365	0.02009218
3.158777	-0.1152242	-0.3939092	0	0	0	0
3.175445	-0.1152242	-0.3939092	0	0	0	0
3.197575	-0.1152242	-0.3939092	0	0	0	0
3.215037	-0.1152242	-0.3939092	0	0	0	0
3.239089	-0.1152502	-0.3939318	-0.00107953	-0.0009392068	-0.0260042	-0.02262403
3.255656	-0.1152502	-0.3939318	0	0	0.02657689	0.02312228
3.279287	-0.1152502	-0.3939318	0	0	0	0
3.296414	-0.1152502	-0.3939318	0	0	0	0
3.320101	-0.1152502	-0.3939318	0	0	0	0
3.337126	-0.1152502	-0.3939318	0	0	0	0
3.362749	-0.1152502	-0.3939318	0	0	0	0
3.379317	-0.1152502	-0.3939318	0	0	0	0
3.402964	-0.1152502	-0.3939318	0	0	0	0
3.420253	-0.1152502	-0.3939318	0	0	0	0
3.442754	-0.1152502	-0.3939318	0	0	0	0
3.460061	-0.1152502	-0.3939318	0	0	0	0
3.484092	-0.1152502	-0.3939318	0	0	0	0
3.500658	-0.1152502	-0.3939318	0	0	0	0
3.524191	-0.1152761	-0.3939544	-0.00110369	-0.000961217	-0.02752419	-0.02397115
3.540758	-0.1152761	-0.3939544	0	0	0.02752386	0.02397087
3.563561	-0.1152761	-0.3939544	0	0	0	0
3.580265	-0.1152761	-0.3939544	0	0	0	0
3.602207	-0.1152761	-0.3939544	0	0	0	0
3.618775	-0.1152761	-0.3939544	0	0	0	0
3.642701	-0.1152761	-0.3939544	0	0	0	0
3.664362	-0.1152761	-0.3939544	0	0	0	0
3.687967	-0.1152761	-0.3939544	0	0	0	0
3.704534	-0.1152761	-0.3939544	0	0	0	0
3.726745	-0.1152761	-0.3939544	0	0	0	0
3.743858	-0.1152761	-0.3939544	0	0	0	0
3.765078	-0.1152761	-0.3939544	0	0	0	0
3.781644	-0.1152761	-0.3939544	0	0	0	0
3.803744	-0.1152761	-0.3939544	0	0	0	0
3.820313	-0.1152761	-0.3939544	0	0	0	0
3.842217	-0.1152761	-0.3939544	0	0	0	0
3.859908	-0.1152761	-0.3939544	0	0	0	0
3.883146	-0.1152761	-0.3939544	0	0	0	0
3.90551	-0.1152761	-0.3939544	0	0	0	0
3.92645	-0.1152761	-0.3939544	0	0	0	0
3.943018	-0.1152761	-0.3939544	0	0	0	0
3.964445	-0.1152761	-0.3939544	0	0	0	0
3.981012	-0.1152761	-0.3939544	0	0	0	0
4.003402	-0.1152761	-0.3939544	0	0	0	0
4.020041	-0.1152761	-0.3939544	0	0	0	0
4.042197	-0.1152761	-0.3939544	0	0	0	0
4.058763	-0.1152761	-0.3939544	0	0	0	0
4.087019	-0.1152761	-0.3939544	0	0	0	0
4.103586	-0.1152761	-0.3939544	0	0	0	0
4.127187	-0.1152761	-0.3939544	0	0	0	0
4.144974	-0.1152761	-0.3939544	0	0	0	0
4.165589	-0.1153021	-0.393977	-0.001259498	-0.001097227	-0.03279724	-0.02857171
4.182157	-0.1153021	-0.393977	0	0	0.03387312	0.02950898
4.208982	-0.1153021	-0.393977	0	0	0	0
4.225548	-0.1153021	-0.393977	0	0	0	0
4.249493	-0.1153021	-0.393977	0	0	0	0
4.267215	-0.1153021	-0.393977	0	0	0	0
4.291027	-0.1153021	-0.393977	0	0	0	0
4.307812	-0.1153021	-0.393977	0	0	0	0
4.330924	-0.1153021	-0.393977	0	0	0	0
4.349151	-0.1153021	-0.393977	0	0	0	0
4.376083	-0.1153021	-0.393977	0	0	0	0
4.393303	-0.1153021	-0.393977	0	0	0	0
4.415175	-0.1153021	-0.393977	0	0	0	0
4.435575	-0.1153021	-0.393977	0	0	0	0
4.459245	-0.1152761	-0.3939544	0.001096983	0.0009556498	0.02489223	0.02168516
4.475863	-0.1152761	-0.3939544	0	0	-0.02722886	-0.02372075
4.49879	-0.1152761	-0.3939544	0	0	0	0
4.516043	-0.1152761	-0.3939544	0	0	0	0
4.537511	-0.1153021	-0.393977	-0.001209478	-0.001053652	-0.03123526	-0.02721098
4.554079	-0.1153021	-0.393977	0	0	0.03179875	0.02770187
4.578508	-0.1152761	-0.3939544	0.001062853	0.0009259169	0.02592511	0.02258497
4.596028	-0.1152761	-0.3939544	0	0	-0.02533662	-0.0220723
4.672855	-0.1152242	-0.3939996	0.0006760337	-0.0005884626	0.007165397	-0.006237215
4.692773	-0.1152242	-0.3939996	0	0	-0.006987754	0.006082584
4.71736	-0.1141853	-0.3949043	0.04225223	-0.03679672	0.9493892	-0.8268063
4.734551	-0.1141853	-0.3949043	0	0	-1.011349	0.880766
4.755938	-0.09614997	-0.4105715	0.8433017	-0.7325701	21.85963	-18.98931
4.778861	-0.09614997	-0.4105715	0	0	-19.03223	16.53316
4.800417	-0.06794787	-0.4351584	1.308295	-1.140587	29.41384	-25.64332
4.816988	-0.06794787	-0.4351584	0	0	-34.31418	29.9155
4.840094	-0.05583664	-0.4438275	0.5241467	-0.375178	13.21029	-9.455771
4.856661	-0.05583664	-0.4438275	0	0	-13.21141	9.456567
4.880558	-0.05169075	-0.4400925	0.1734919	0.1562968	4.28757	3.86262
4.900982	-0.05169075	-0.4400925	0	0	-3.914477	-3.526505
4.923888	-0.03409205	-0.4313528	0.7682909	0.3815417	17.73108	8.805447
4.942385	-0.03409205	-0.4313528	0	0	-18.55649	-9.215356
4.964363	0.009499714	-0.4420756	1.983436	-0.4878867	49.00469	-12.0542
4.984493	0.009499714	-0.4420756	0	0	-47.10295	11.58641
5.01251	0.04171263	-0.461371	1.149781	-0.6887169	23.88054	-14.3044
5.033906	0.04171263	-0.461371	0	0	-23.26893	13.93805
5.055185	0.06682142	-0.48425	1.179961	-1.075173	27.64961	-25.19416
5.071752	0.06682142	-0.48425	0	0	-31.17789	28.4091
5.093942	0.08513582	-0.5012438	0.8253589	-0.7658429	21.29608	-19.76044
5.110771	0.08513582	-0.5012438	0	0	-21.15269	19.62738
5.135653	0.1036795	-0.5187786	0.745271	-0.7047225	17.86735	-16.89523
5.15222	0.1036795	-0.5187786	0	0	-17.98061	17.00233
5.173367	0.1142633	-0.5290655	0.5004894	-0.4864565	13.27082	-12.89873
5.189933	0.1142633	-0.5290655	0	0	-13.27082	12.89873
5.212617	0.124355	-0.5391853	0.4448906	-0.4461253	11.33468	-11.36614
5.231556	0.124355	-0.5391853	0	0	-10.68867	10.71833
5.256504	0.1404636	-0.5552691	0.6456966	-0.6447012	14.71282	-14.69014
5.273071	0.1404636	-0.5552691	0	0	-15.55338	15.5294
5.299032	0.1496877	-0.5676832	0.3553001	-0.4781752	8.354374	-11.24361
5.3156	0.1496877	-0.5676832	0	0	-8.35428	11.24348
5.338283	0.1562424	-0.5797335	0.2889682	-0.5312461	7.362089	-13.53464
5.358928	0.1562424	-0.5797335	0	0	-6.669348	12.26109
5.380584	0.165985	-0.5896301	0.4498779	-0.4569893	10.63524	-10.80335
5.402644	0.165985	-0.5896301	0	0	-10.29093	10.4536
5.428308	0.1729392	-0.5967656	0.2709752	-0.2780397	5.677992	-5.826021
5.445354	0.1729392	-0.5967656	0	0	-6.344421	6.509825
5.467669	0.1729392	-0.5967656	0	0	0	0
5.486053	0.1729392	-0.5967656	0	0	0	0
5.508458	0.1729392	-0.5967656	0	0	0	0
5.525107	0.1729392	-0.5967656	0	0	0	0
5.548357	0.1729392	-0.5967656	0	0	0	0
5.565224	0.1729392	-0.5967656	0	0	0	0
5.590365	0.1729648	-0.5967394	0.001015884	0.001045519	0.02418344	0.0248889
5.608984	0.1729648	-0.5967394	0	0	-0.02321475	-0.02389196
5.642137	0.1729648	-0.5967394	0	0	0	0
5.664409	0.1729648	-0.5967394	0	0	0	0
5.686949	0.1729903	-0.5967656	0.001133118	-0.001166173	0.02528566	-0.02602328
5.704206	0.1729903	-0.5967656	0	0	-0.02847258	0.02930317
5.728076	0.1729903	-0.5967656	0	0	0	0
5.745386	0.1729903	-0.5967656	0	0	0	0
5.771136	0.1729903	-0.5967656	0	0	0	0
5.788485	0.1729903	-0.5967656	0	0	0	0
5.812755	0.1729903	-0.5967656	0	0	0	0
5.831627	0.1729903	-0.5967656	0	0	0	0
5.855334	0.1729903	-0.5967656	0	0	0	0
5.87232	0.1729903	-0.5967656	0	0	0	0
5.894664	0.1729903	-0.5967656	0	0	0	0
5.911231	0.1729903	-0.5967656	0	0	0	0
5.933743	0.1729903	-0.5967656	0	0	0	0
5.950664	0.1729903	-0.5967656	0	0	0	0
5.973171	0.1729648	-0.5967394	-0.001134775	0.001167878	-0.02878076	0.02962034
5.99011	0.1729648	-0.5967394	0	0	0.02876754	-0.02960674
6.014477	0.1729137	-0.5966867	-0.002096339	0.002159938	-0.05075141	0.05229113
6.031044	0.1729137	-0.5966867	0	0	0.05121374	-0.05276748
6.053523	0.1728882	-0.5966604	-0.001135508	0.001171966	-0.02908143	0.03001516
6.071279	0.1728882	-0.5966604	0	0	0.02822153	-0.02912765
6.095554	0.1727349	-0.5965025	-0.006312245	0.006501925	-0.1501814	0.1546943
6.116756	0.1727349	-0.5965025	0	0	0.1388011	-0.142972
6.148414	0.1725817	-0.5963447	-0.00484017	0.004985616	-0.09156622	0.09431775
6.165139	0.1725817	-0.5963447	0	0	0.1000382	-0.1030443
6.187785	0.1725562	-0.5963184	-0.001127822	0.001163354	-0.02864564	0.02954813
6.204584	0.1725562	-0.5963184	0	0	0.02859231	-0.02949312
6.225294	0.1724796	-0.5962921	-0.003699834	0.001269255	-0.09863992	0.03383913
6.242375	0.1724796	-0.5962921	0	0	0.09790187	-0.03358594
6.265719	0.1724285	-0.5962394	-0.002188189	0.002254575	-0.05412857	0.05577074
6.28337	0.1724285	-0.5962394	0	0	0.05337807	-0.05499747
6.309564	0.1724285	-0.5962394	0	0	0	0
6.32613	0.1724285	-0.5962394	0	0	0	0
6.348619	0.1724285	-0.5962394	0	0	0	0
6.367537	0.1724285	-0.5962394	0	0	0	0
6.391273	0.1724029	-0.5962132	-0.001076028	0.001107417	-0.02522743	0.02596335
6.40784	0.1724029	-0.5962132	0	0	0.0266983	-0.02747713
6.433657	0.1724029	-0.5962132	0	0	0	0
6.454112	0.1724029	-0.5962132	0	0	0	0
6.477129	0.1724029	-0.5962132	0	0	0	0
6.496518	0.1724029	-0.5962132	0	0	0	0
6.521214	0.1723774	-0.5961869	-0.001034828	0.001064395	-0.02347397	0.02414466
6.537816	0.1723774	-0.5961869	0	0	0.02505764	-0.02577357
6.561034	0.1723518	-0.5961606	-0.001100027	0.001132116	-0.02762451	0.02843037
6.57906	0.1723518	-0.5961606	0	0	0.02667117	-0.02744921
6.601177	0.1723518	-0.5961606	0	0	0	0
6.61788	0.1723518	-0.5961606	0	0	0	0
6.640232	0.1723263	-0.5961342	-0.001142667	0.001178667	-0.02925798	0.03017976
6.660904	0.1723263	-0.5961342	0	0	0.02655878	-0.02739552
6.687076	0.1723263	-0.5961342	0	0	0	0
6.70406	0.1723263	-0.5961342	0	0	0	0
6.728655	0.1722497	-0.5960554	-0.003115246	0.003206122	-0.0749231	0.07710872
6.745222	0.1722497	-0.5960554	0	0	0.07568254	-0.07789032
6.767782	0.172173	-0.5959765	-0.003396998	0.003498056	-0.08682112	0.08940398
6.784494	0.172173	-0.5959765	0	0	0.0864975	-0.08907073
6.805334	0.1720453	-0.595845	-0.006128587	0.006309491	-0.1632011	0.1680185
6.821902	0.1720453	-0.595845	0	0	0.1638335	-0.1686696
6.846575	0.1718154	-0.5956084	-0.009318289	0.00959067	-0.2259489	0.2325536
6.863142	0.1718154	-0.5956084	0	0	0.2259489	-0.2325536
6.884745	0.1712278	-0.5950039	-0.02720165	0.02798042	-0.7126386	0.7330409
6.901424	0.1712278	-0.5950039	0	0	0.7105703	-0.7309135
6.927869	0.1691829	-0.5929039	-0.07732514	0.07941227	-1.7931	1.841498
6.94556	0.1691829	-0.5929039	0	0	1.751954	-1.799242
6.970863	0.1676995	-0.5913312	-0.05862673	0.06215136	-1.363587	1.445565
6.987431	0.1676995	-0.5913312	0	0	1.400205	-1.484385
7.009923	0.1676739	-0.5913051	-0.001136845	0.001163345	-0.02910537	0.02978382
7.02649	0.1676739	-0.5913051	0	0	0.02910537	-0.02978382
7.049543	0.1676228	-0.5912527	-0.002219723	0.002272727	-0.05602542	0.05736324
7.067491	0.1676228	-0.5912527	0	0	0.05413847	-0.05543123
7.090209	0.1657802	-0.5893685	-0.08110479	0.08293542	-1.994384	2.0394
7.106776	0.1657802	-0.5893685	0	0	2.064513	-2.111112
7.133054	0.1536992	-0.5770653	-0.4597372	0.4681948	-10.7303	10.9277
7.14962	0.1536992	-0.5770653	0	0	10.73066	-10.92807
7.174774	0.140025	-0.5633008	-0.5436077	0.5471964	-13.02993	13.11595
7.191543	0.140025	-0.5633008	0	0	12.96665	-13.05225
7.214782	0.1271524	-0.5504246	-0.55393	0.5540859	-13.84562	13.84952
7.231349	0.1271524	-0.5504246	0	0	13.91561	-13.91953
7.257887	0.116782	-0.5401892	-0.3907769	0.3856888	-9.065571	8.947534
7.274635	0.116782	-0.5401892	0	0	9.027821	-8.910275
7.303166	0.103289	-0.5270761	-0.4729304	0.4596147	-10.44491	10.15083
7.319734	0.103289	-0.5270761	0	0	10.48666	-10.1914
7.344259	0.09205488	-0.5163612	-0.458065	0.4368936	-11.14707	10.63186
7.365806	0.09205488	-0.5163612	0	0	9.94237	-9.482843
7.388428	0.08199993	-0.5068099	-0.4444746	0.4222103	-10.06306	9.558984
7.409719	0.08199993	-0.5068099	0	0	10.12152	-9.614514
7.436628	0.08173853	-0.5065164	-0.009714125	0.01090915	-0.2015353	0.226328
7.453429	0.08173853	-0.5065164	0	0	0.2222416	-0.2495815
7.477957	0.08111113	-0.5058806	-0.02557964	0.02592198	-0.6189358	0.6272191
7.495556	0.08111113	-0.5058806	0	0	0.6072012	-0.6153275
7.517518	0.07166652	-0.4970359	-0.4300583	0.4027434	-10.87082	10.18037
7.53453	0.07166652	-0.4970359	0	0	11.03455	-10.33369
7.558174	0.05683346	-0.4832641	-0.6273633	0.5824775	-15.43098	14.32694
7.577662	0.05683346	-0.4832641	0	0	14.54525	-13.50459
7.604487	0.03509085	-0.4633127	-0.8105225	0.7437485	-17.50068	16.05891
7.627994	0.03509085	-0.4633127	0	0	16.1035	-14.77683
7.654806	0.01247304	-0.4429863	-0.8435832	0.7581187	-16.76496	15.06648
7.674455	0.01247304	-0.4429863	0	0	18.15695	-16.31745
7.696532	-0.005973613	-0.4266096	-0.8355384	0.7417805	-20.02413	17.77717
7.714749	-0.005973613	-0.4266096	0	0	20.73596	-18.40913
7.738699	-0.01939231	-0.4147828	-0.5602771	0.4938118	-13.28719	11.71094
7.762461	-0.01939231	-0.4147828	0	0	11.74282	-10.34978
7.785588	-0.03283031	-0.403116	-0.5810505	0.5044651	-12.39196	10.75864
7.802156	-0.03283031	-0.403116	0	0	14.63795	-12.7086
7.825484	-0.04000496	-0.3969192	-0.3075515	0.2656343	-7.708829	6.658166
7.842699	-0.04000496	-0.3969192	0	0	7.585886	-6.551979
7.865543	-0.04047788	-0.3965115	-0.02070136	0.01784633	-0.5167705	0.4455002
7.882899	-0.04047788	-0.3965115	0	0	0.5149561	-0.443936
7.906112	-0.04042533	-0.3965568	0.002263574	-0.00195144	0.0557959	-0.04810195
7.928693	-0.04042533	-0.3965568	0	0	-0.04942948	0.04261343
7.951353	-0.0401626	-0.3968739	0.01159471	-0.01399381	0.256291	-0.3093212
7.968653	-0.0401626	-0.3968739	0	0	-0.2901551	0.3501922
7.991821	-0.03987359	-0.3971684	0.01247466	-0.012712	0.3082582	-0.3141229
8.009575	-0.03987359	-0.3971684	0	0	-0.3048422	0.310642
8.031311	-0.03982104	-0.397259	0.002417583	-0.004170871	0.0612198	-0.1056178
8.047884	-0.03982104	-0.397259	0	0	-0.0631073	0.1088742
8.071395	-0.03982104	-0.3973497	0	-0.003854754	0	-0.09616717
8.092793	-0.03982104	-0.3973497	0	0	0	0.08583386
8.117882	-0.03976849	-0.3974403	0.002094559	-0.003612394	0.04505701	-0.07770786
8.134448	-0.03976849	-0.3974403	0	0	-0.05028399	0.0867226
8.165426	-0.03976849	-0.3974403	0	0	0	0
8.187225	-0.03976849	-0.3974403	0	0	0	0
8.214507	-0.03982104	-0.3974856	-0.001926157	-0.001661525	-0.03924457	-0.03385282
8.231309	-0.03982104	-0.3974856	0	0	0.04369327	0.03769033
8.253815	-0.03979477	-0.3976443	0.001167455	-0.007048763	0.02970051	-0.1793232
8.274083	-0.03979477	-0.3976443	0	0	-0.02729345	0.16479
8.300922	-0.03976849	-0.3977123	0.0009789568	-0.002533934	0.02078125	-0.05379023
8.318943	-0.03976849	-0.3977123	0	0	-0.02182254	0.05648552
8.340907	-0.03974222	-0.3977349	0.001196248	-0.001031219	0.02991764	-0.02579033
8.357473	-0.03974222	-0.3977349	0	0	-0.0310469	0.02676381
8.380411	-0.03971595	-0.3977576	0.001145467	-0.0009887432	0.0289962	-0.0250289
8.397367	-0.03971595	-0.3977576	0	0	-0.02871338	0.02478478
8.422685	-0.03968967	-0.3977802	0.001037772	-0.000894606	0.02454899	-0.02116233
8.442822	-0.03968967	-0.3977802	0	0	-0.02283078	0.01968114
8.465632	-0.0396634	-0.3978029	0.001151837	-0.000994241	0.02681948	-0.02315
8.483399	-0.0396634	-0.3978029	0	0	-0.02838582	0.02450204
8.505423	-0.03958457	-0.3978709	0.003579108	-0.003086704	0.08994959	-0.07757457
8.521989	-0.03958457	-0.3978709	0	0	-0.09274829	0.07998823
8.545767	-0.0395583	-0.3979389	0.001104993	-0.002860165	0.02738911	-0.07089402
8.562579	-0.0395583	-0.3979389	0	0	-0.02722308	0.07046428
8.585774	-0.03950575	-0.3979843	0.002265503	-0.001955534	0.05662683	-0.04887908
8.602341	-0.03950575	-0.3979843	0	0	-0.05697724	0.04918154
8.629091	-0.0394532	-0.3980296	0.001964405	-0.001694519	0.04534969	-0.03911917
8.652198	-0.0394532	-0.3980296	0	0	-0.03940068	0.03398748
8.677441	-0.03919045	-0.3983017	0.01040899	-0.01077794	0.215287	-0.2229178
8.694008	-0.03919045	-0.3983017	0	0	-0.2489592	0.2577835
8.716403	-0.03656265	-0.4006615	0.117338	-0.1053728	3.011574	-2.704476
8.73297	-0.03656265	-0.4006615	0	0	-3.011574	2.704476
8.755392	-0.03640496	-0.4009795	0.007032779	-0.01418086	0.1803782	-0.3637138
8.773182	-0.03640496	-0.4009795	0	0	-0.1748939	0.3526553
8.796734	-0.03648381	-0.4010476	-0.00334774	-0.00289394	-0.08097716	-0.07000038
8.813301	-0.03648381	-0.4010476	0	0	0.08344489	0.0721336
8.835449	-0.03651008	-0.4010703	-0.001186475	-0.00102534	-0.0306461	-0.02648406
8.852015	-0.03651008	-0.4010703	0	0	0.03064685	0.02648472
8.877958	-0.03651008	-0.4010703	0	0	0	0
8.896263	-0.03651008	-0.4010703	0	0	0	0
8.921169	-0.03653637	-0.4010476	-0.001055238	0.0009117973	-0.02442059	0.02110106
8.9392	-0.03653637	-0.4010476	0	0	0.02457627	-0.02123556
8.964297	-0.03653637	-0.4010476	0	0	0	0
8.98401	-0.03653637	-0.4010476	0	0	0	0
9.007586	-0.03651008	-0.4010703	0.001114785	-0.0009632499	0.02575261	-0.022252
9.035014	-0.03651008	-0.4010703	0	0	-0.02185663	0.01888562
9.069525	-0.03653637	-0.401093	-0.0007615606	-0.0006580402	-0.01229529	-0.01062396
9.090198	-0.03653637	-0.401093	0	0	0.01380054	0.0119246
9.115973	-0.03656265	-0.4011157	-0.001019631	-0.0008810308	-0.02195177	-0.01896782
9.132541	-0.03656265	-0.4011157	0	0	0.0240802	0.02080693
9.157666	-0.03656265	-0.4011157	0	0	0	0
9.176298	-0.03656265	-0.4011157	0	0	0	0
9.199612	-0.03658893	-0.4011385	-0.001127166	-0.0009740858	-0.02687217	-0.02322268
9.216178	-0.03658893	-0.4011385	0	0	0.02826407	0.02442554
9.237477	-0.03658893	-0.4011385	0	0	0	0
9.254044	-0.03658893	-0.4011385	0	0	0	0
9.27863	-0.03658893	-0.4011385	0	0	0	0
9.300805	-0.03658893	-0.4011385	0	0	0	0
9.325311	-0.03661521	-0.4011612	-0.001072486	-0.0009267007	-0.02297505	-0.01985201
9.34274	-0.03661521	-0.4011612	0	0	0.02557497	0.02209852
9.363983	-0.03661521	-0.4011612	0	0	0	0
9.382094	-0.03661521	-0.4011612	0	0	0	0
9.40669	-0.03661521	-0.4011612	0	0	0	0
9.423736	-0.03661521	-0.4011612	0	0	0	0
9.446276	-0.03664149	-0.4011839	-0.001165843	-0.001008832	-0.02945083	-0.02548453
9.46288	-0.03664149	-0.4011839	0	0	0.02978304	0.02577199
9.49166	-0.03664149	-0.4011839	0	0	0	0
9.511903	-0.03664149	-0.4011839	0	0	0	0
9.541544	-0.03664149	-0.4011839	0	0	0	0
9.567235	-0.03664149	-0.4011839	0	0	0	0
9.595299	-0.03664149	-0.4011839	0	0	0	0
9.616241	-0.03664149	-0.4011839	0	0	0	0
9.645065	-0.03666777	-0.4012066	-0.0009118116	-0.0007878672	-0.01832178	-0.01583126
9.664793	-0.03666777	-0.4012066	0	0	0.01878027	0.01622743
9.688399	-0.03666777	-0.4012066	0	0	0	0
9.705086	-0.03666777	-0.4012066	0	0	0	0
9.726832	-0.03669405	-0.4012293	-0.001208551	-0.00104427	-0.0314456	-0.02717114
9.74396	-0.03669405	-0.4012293	0	0	0.03108843	0.02686252
9.773773	-0.03669405	-0.4012293	0	0	0	0
9.790339	-0.03669405	-0.4012293	0	0	0	0
9.812101	-0.03666777	-0.401252	0.001207704	-0.001043538	0.03150956	-0.02722641
9.828669	-0.03666777	-0.401252	0	0	-0.03150878	0.02722573
9.854082	-0.03666777	-0.401252	0	0	0	0
9.878899	-0.03666777	-0.401252	0	0	0	0
9.902755	-0.03664149	-0.4012748	0.001101683	-0.0009531781	0.02263452	-0.01958343
9.919699	-0.03664149	-0.4012748	0	0	-0.02700197	0.02336215
9.94083	-0.03661521	-0.4012975	0.001243555	-0.001074668	0.03266028	-0.0282247
9.957397	-0.03661521	-0.4012975	0	0	-0.03298747	0.02850746
9.981245	-0.03645752	-0.4015247	0.006611899	-0.009526082	0.1636009	-0.2357077
9.997811	-0.03645752	-0.4015247	0	0	-0.1636009	0.2357077
10.02049	-0.03603702	-0.4019337	0.01854187	-0.01803643	0.4724688	-0.4595894
10.03706	-0.03603702	-0.4019337	0	0	-0.4724688	0.4595894
10.05969	-0.02949145	-0.4076488	0.2891858	-0.2524951	7.37704	-6.441073
10.12206	-0.02949145	-0.4076488	0	0	-3.401993	2.970363
10.14391	0.004578915	-0.4375303	1.559242	-1.367538	18.51373	-16.23752
10.16048	0.004578915	-0.4375303	0	0	-40.58745	35.59734
10.18446	0.006578852	-0.4393001	0.08338977	-0.07379314	2.056504	-1.819839
10.20103	0.006578852	-0.4393001	0	0	-2.056408	1.819753
10.22227	0.006578852	-0.4393001	0	0	0	0
10.23884	0.006578852	-0.4393001	0	0	0	0
10.26056	0.006605167	-0.4392768	0.001211325	0.001072808	0.03163395	0.02801656
10.2801	0.006605167	-0.4392768	0	0	-0.02935783	-0.02600072
10.3023	0.006605167	-0.4392768	0	0	0	0
10.31899	0.006605167	-0.4392768	0	0	0	0
10.33992	0.006605167	-0.4392768	0	0	0	0
10.35651	0.006605167	-0.4392768	0	0	0	0
10.3824	0.006605167	-0.4392768	0	0	0	0
10.40134	0.006605167	-0.4392768	0	0	0	0
10.42239	0.006605167	-0.4392768	0	0	0	0
10.43906	0.006605167	-0.4392768	0	0	0	0
10.46189	0.006605167	-0.4392768	0	0	0	0
10.4786	0.006605167	-0.4392768	0	0	0	0
10.50206	0.006605167	-0.4392768	0	0	0	0
10.51863	0.006605167	-0.4392768	0	0	0	0
10.53899	0.006605167	-0.4392768	0	0	0	0
10.55556	0.006605167	-0.4392768	0	0	0	0
10.5812	0.006578852	-0.4392535	-0.001026021	0.0009075317	-0.024305	0.02149816
10.60136	0.006578852	-0.4392535	0	0	0.0224007	-0.01981377
10.62393	0.006578852	-0.4392535	0	0	0	0
10.64449	0.006578852	-0.4392535	0	0	0	0
10.67018	0.006578852	-0.4392535	0	0	0	0
10.69092	0.006578852	-0.4392535	0	0	0	0
10.71994	0.006578852	-0.4392535	0	0	0	0
10.74542	0.006578852	-0.4392535	0	0	0	0
10.77177	0.006578852	-0.4392535	0	0	0	0
10.79	0.006578852	-0.4392535	0	0	0	0
10.81345	0.006605167	-0.4392768	0.001122022	-0.0009924468	0.02691786	-0.02380928
10.83435	0.006605167	-0.4392768	0	0	-0.02529945	0.02237777
10.86014	0.006605167	-0.4392768	0	0	0	0
10.88235	0.006605167	-0.4392768	0	0	0	0
10.90857	0.006605167	-0.4392768	0	0	0	0
10.92562	0.006605167	-0.4392768	0	0	0	0
10.94732	0.006578852	-0.4393001	-0.001212656	-0.001073987	-0.03129613	-0.02771738
10.96862	0.006578852	-0.4393001	0	0	0.02820178	0.02497687
10.99027	0.006578852	-0.4393001	0	0	0	0
11.00696	0.006578852	-0.4393001	0	0	0	0
11.0307	0.006578852	-0.4393001	0	0	0	0
11.04726	0.006578852	-0.4393001	0	0	0	0
11.07006	0.006578852	-0.4393001	0	0	0	0
11.08755	0.006578852	-0.4393001	0	0	0	0
11.1089	0.006578852	-0.4393001	0	0	0	0
11.12547	0.006578852	-0.4393001	0	0	0	0
11.14801	0.006578852	-0.4393001	0	0	0	0
11.16458	0.006578852	-0.4393001	0	0	0	0
11.18529	0.006578852	-0.4393001	0	0	0	0
11.20211	0.006578852	-0.4393001	0	0	0	0
11.22556	0.006578852	-0.4393001	0	0	0	0
11.2449	0.006578852	-0.4393001	0	0	0	0
11.26709	0.006578852	-0.4393001	0	0	0	0
11.28366	0.006578852	-0.4393001	0	0	0	0
11.30439	0.006578852	-0.4393001	0	0	0	0
11.32096	0.006578852	-0.4393001	0	0	0	0
11.34718	0.006578852	-0.4393001	0	0	0	0
11.36498	0.006578852	-0.4393001	0	0	0	0
11.38816	0.006578852	-0.4393001	0	0	0	0
11.40473	0.006578852	-0.4393001	0	0	0	0
11.42709	0.006578852	-0.4393001	0	0	0	0
11.44841	0.006578852	-0.4393001	0	0	0	0
11.47248	0.006578852	-0.4393001	0	0	0	0
11.48932	0.006578852	-0.4393001	0	0	0	0
11.5101	0.006578852	-0.4393001	0	0	0	0
11.52683	0.006578852	-0.4393001	0	0	0	0
11.54882	0.006578852	-0.4393001	0	0	0	0
11.56539	0.006578852	-0.4393001	0	0	0	0
11.59311	0.006578852	-0.4393001	0	0	0	0
11.60988	0.006578852	-0.4393001	0	0	0	0
11.63423	0.006578852	-0.4393001	0	0	0	0
11.65165	0.006578852	-0.4393001	0	0	0	0
11.6781	0.006578852	-0.4393001	0	0	0	0
11.69545	0.006578852	-0.4393001	0	0	0	0
11.71623	0.006578852	-0.4393001	0	0	0	0
11.7328	0.006578852	-0.4393001	0	0	0	0
11.7549	0.006552538	-0.4393234	-0.001190627	-0.001054477	-0.0307905	-0.02726957
11.77281	0.006552538	-0.4393234	0	0	0.02975576	0.02635315
11.79443	0.006552538	-0.4393234	0	0	0	0
11.811	0.006552538	-0.4393234	0	0	0	0
11.83315	0.006552538	-0.4393234	0	0	0	0
11.84972	0.006552538	-0.4393234	0	0	0	0
11.87262	0.006526223	-0.4393467	-0.001148858	-0.001017466	-0.02910591	-0.02577715
11.89028	0.006526223	-0.4393467	0	0	0.02832372	0.02508442
11.91266	0.006526223	-0.4393467	0	0	0	0
11.92961	0.006526223	-0.4393467	0	0	0	0
11.95218	0.006526223	-0.4393467	0	0	0	0
11.97059	0.006526223	-0.4393467	0	0	0	0
11.99284	0.006526223	-0.4393467	0	0	0	0
12.01084	0.006526223	-0.4393467	0	0	0	0
12.03302	0.006499908	-0.43937	-0.001186276	-0.001050623	-0.02952038	-0.02614468
12.04959	0.006499908	-0.43937	0	0	0.03061456	0.02711374
12.0756	0.006499908	-0.43937	0	0	0	0
12.0936	0.006499908	-0.43937	0	0	0	0
12.11488	0.006499908	-0.43937	0	0	0	0
12.13145	0.006499908	-0.43937	0	0	0	0
12.15266	0.006499908	-0.43937	0	0	0	0
12.16928	0.006499908	-0.43937	0	0	0	0
12.19574	0.006499908	-0.43937	0	0	0	0
12.21397	0.006499908	-0.43937	0	0	0	0
12.24209	0.006499908	-0.43937	0	0	0	0
12.26047	0.006499908	-0.43937	0	0	0	0
12.28535	0.006473594	-0.4393933	-0.001057802	-0.0009368411	-0.02445296	-0.02165673
12.30291	0.006473594	-0.4393933	0	0	0.02492777	0.02207724
12.32417	0.006473594	-0.4393933	0	0	0	0
12.34074	0.006473594	-0.4393933	0	0	0	0
12.36147	0.006473594	-0.4393933	0	0	0	0
12.38049	0.006473594	-0.4393933	0	0	0	0
12.41	0.006447279	-0.4394166	-0.0008918314	-0.0007898352	-0.01837669	-0.016275
12.42656	0.006447279	-0.4394166	0	0	0.01935654	0.01714278
12.44768	0.006420964	-0.4394399	-0.001246117	-0.001103622	-0.03306715	-0.02928588
12.46425	0.006420964	-0.4394399	0	0	0.03306548	0.0292844
12.48663	0.006368335	-0.4394865	-0.002351444	-0.002081203	-0.0603694	-0.05343141
12.50364	0.006368335	-0.4394865	0	0	0.05969995	0.0528389
12.53138	0.005078904	-0.4406289	-0.04648353	-0.04118141	-1.038844	-0.9203487
12.54794	0.005078904	-0.4406289	0	0	1.04913	0.9294612
12.56948	-0.01684051	-0.4601884	-1.01799	-0.9083925	-26.71939	-23.84277
12.58857	-0.01684051	-0.4601884	0	0	25.0561	22.35854
12.61464	-0.03569536	-0.4772914	-0.7234079	-0.6561951	-16.01867	-14.53036
12.6316	-0.03569536	-0.4772914	0	0	16.81105	15.24911
12.65844	-0.05108709	-0.4913893	-0.5734783	-0.5252716	-13.09101	-11.99058
12.67758	-0.05108709	-0.4913893	0	0	12.47403	11.42546
12.70206	-0.0583285	-0.4980805	-0.2957417	-0.2732705	-6.77994	-6.264781
12.71945	-0.0583285	-0.4980805	0	0	7.063795	6.527069
12.7392	-0.05830227	-0.4980562	0.001327861	0.001231289	0.0357603	0.03315955
12.75576	-0.05830227	-0.4980562	0	0	-0.03656224	-0.03390317
12.77233	-0.05830227	-0.4980562	0	0	0	0
12.79573	-0.05830227	-0.4980562	0	0	0	0
12.8155	-0.05830227	-0.4980562	0	0	0	0
12.83737	-0.05830227	-0.4980562	0	0	0	0
12.85394	-0.05830227	-0.4980562	0	0	0	0
12.87599	-0.05830227	-0.4980562	0	0	0	0
12.8944	-0.05830227	-0.4980562	0	0	0	0
12.91993	-0.05830227	-0.4980562	0	0	0	0
12.9365	-0.05830227	-0.4980562	0	0	0	0
12.95849	-0.05830227	-0.4981048	0	-0.002210554	0	-0.05733487
12.97505	-0.05830227	-0.4981048	0	0	0	0.05733487
12.99734	-0.05830227	-0.498202	0	-0.004361336	0	-0.1122421
13.01397	-0.05830227	-0.498202	0	0	0	0.112077
13.0349	-0.05977083	-0.4999532	-0.07014169	-0.08364221	-1.867434	-2.226869
13.05147	-0.05977083	-0.4999532	0	0	1.870236	2.23021
13.07567	-0.08003917	-0.5190749	-0.8377179	-0.790322	-20.55147	-19.38872
13.09223	-0.08003917	-0.5190749	0	0	20.55099	19.38827
13.11902	-0.1169118	-0.5546085	-1.376472	-1.326489	-31.74818	-30.59532
13.13559	-0.1169118	-0.5546085	0	0	31.74957	30.59667
13.1567	-0.153031	-0.5906505	-1.710801	-1.707144	-45.40496	-45.3079
13.17722	-0.153031	-0.5906505	0	0	41.09371	41.00586
13.19893	-0.1693363	-0.6073665	-0.7512378	-0.7701569	-17.79175	-18.23982
13.216	-0.1693363	-0.6073665	0	0	19.37358	19.86149
13.24554	-0.1719176	-0.6100522	-0.08737068	-0.09090433	-1.87428	-1.950084
13.26685	-0.1719176	-0.6100522	0	0	1.717949	1.787431
13.28828	-0.1719431	-0.6100788	-0.001192026	-0.001240709	-0.02789026	-0.0290293
13.30624	-0.1719431	-0.6100788	0	0	0.03026685	0.03150295
13.33002	-0.1719176	-0.6101054	0.00107387	-0.001120233	0.02572676	-0.02683748
13.3469	-0.1719176	-0.6101054	0	0	-0.02641289	0.02755324
13.36762	-0.1717132	-0.6102651	0.009859983	-0.007706819	0.26223	-0.2049658
13.38443	-0.1717132	-0.6102651	0	0	-0.2626897	0.2053251
13.40937	-0.1627067	-0.6196769	0.361065	-0.377313	8.647877	-9.037035
13.42623	-0.1627067	-0.6196769	0	0	-8.638012	9.026726
13.44878	-0.1261942	-0.6583995	1.619068	-1.71707	41.08604	-43.57297
13.46547	-0.1261942	-0.6583995	0	0	-41.25677	43.75404
13.48636	-0.07982998	-0.7092463	2.220132	-2.434774	59.08421	-64.79648
13.50457	-0.07982998	-0.7092463	0	0	-56.78824	62.27853
13.52785	-0.04187025	-0.7526304	1.630229	-1.863184	39.28614	-44.90003
13.5464	-0.04187025	-0.7526304	0	0	-38.97443	44.54378
13.5678	-0.01413064	-0.7856597	1.296216	-1.543393	32.45108	-38.63923
13.58436	-0.01413064	-0.7856597	0	0	-34.14085	40.65121
13.60796	0.01510411	-0.8219153	1.23868	-1.536157	30.83764	-38.24348
13.6261	0.01510411	-0.8219153	0	0	-29.67512	36.80178
13.65088	0.04231683	-0.8576939	1.098203	-1.443889	25.5877	-33.64206
13.66785	0.04231683	-0.8576939	0	0	-26.30729	34.58815
13.69068	0.04510098	-0.9093136	0.1219716	-2.261421	3.065225	-56.83097
13.70724	0.04510098	-0.9093136	0	0	-3.096318	57.40745
13.73116	0.03177877	-0.9620569	-0.5570136	-2.205249	-13.75904	-54.47282
13.74818	0.03177877	-0.9620569	0	0	13.60488	53.8625
13.77076	0.02178603	-1.011662	-0.4426578	-2.197407	-11.17839	-55.49088
13.78734	0.02178603	-1.011662	0	0	11.30554	56.12207
13.80969	0.02389019	-1.02204	0.09414478	-0.4643284	2.418313	-11.92728
13.82626	0.02389019	-1.02204	0	0	-2.419083	11.93108
13.85188	0.02389019	-1.022218	0	-0.00692687	0	-0.1641732
13.86845	0.02389019	-1.022218	0	0	0	0.1641732
13.89215	0.01555138	-1.039202	-0.3518381	-0.7166073	-8.737424	-17.79597
13.91106	0.01555138	-1.039202	0	0	8.256954	16.81738
13.93588	0.005499945	-1.075716	-0.4049211	-1.470975	-9.258811	-33.63489
13.95245	0.005499945	-1.075716	0	0	9.782968	35.53901
13.97516	0.001868419	-1.082618	-0.1598963	-0.3039208	-4.070786	-7.737492
13.99173	0.001868419	-1.082618	0	0	4.070884	7.73768
14.01475	0.001894735	-1.082569	0.00114294	0.002153833	0.0288688	0.05440232
14.03655	0.001894735	-1.082569	0	0	-0.02550076	-0.04805537
14.06109	0.00192105	-1.082321	0.001072069	0.01010626	0.02313391	0.2180804
14.08825	0.00192105	-1.082321	0	0	-0.0207342	-0.1954586
14.11044	0.001789472	-1.081676	-0.005929862	0.02904865	-0.1201645	0.5886505
14.12893	0.001789472	-1.081676	0	0	0.1457721	-0.7140949
14.15283	-0.001999997	-1.074493	-0.1585487	0.3005397	-3.740165	7.089734
14.16998	-0.001999997	-1.074493	0	0	3.862873	-7.322336
14.19159	-0.01715621	-1.0468	-0.7013744	1.281511	-18.09879	33.06906
14.21018	-0.01715621	-1.0468	0	0	17.44661	-31.87743
14.23237	-0.03495944	-1.016081	-0.8021671	1.384147	-19.66781	33.937
14.2491	-0.03495944	-1.016081	0	0	20.60995	-35.56267
14.27142	-0.04573125	-0.9981748	-0.4825508	0.8021452	-12.35722	20.54144
14.28832	-0.04573125	-0.9981748	0	0	12.30224	-20.45004
14.31376	-0.04625645	-0.9970681	-0.02064381	0.04350189	-0.4875361	1.027366
14.3332	-0.04625645	-0.9970681	0	0	0.459969	-0.9692748
14.3646	-0.04625645	-0.9970681	0	0	0	0
14.38754	-0.04625645	-0.9970681	0	0	0	0
14.41036	-0.04625645	-0.9970681	0	0	0	0
14.42722	-0.04625645	-0.9970681	0	0	0	0
14.45501	-0.04617767	-0.9971957	0.002834682	-0.004589753	0.06348526	-0.1027917
14.47157	-0.04617767	-0.9971957	0	0	-0.06390428	0.1034701
14.4936	-0.04578377	-0.997749	0.01788108	-0.02511743	0.4632867	-0.6507754
14.51017	-0.04578377	-0.997749	0	0	-0.4632867	0.6507754
14.53354	-0.0444444	-0.9999243	0.05731228	-0.09308305	1.435067	-2.330746
14.55236	-0.0444444	-0.9999243	0	0	-1.358507	2.206403
14.57532	-0.04391911	-1.00078	0.02288155	-0.03725282	0.5477364	-0.8917546
14.59204	-0.04391911	-1.00078	0	0	-0.5766311	0.9387974
14.61383	-0.04213295	-1.003697	0.08198047	-0.1338856	2.128687	-3.476443
14.63056	-0.04213295	-1.003697	0	0	-2.128528	3.476185
14.65912	-0.03514342	-1.015247	0.2446769	-0.4043408	5.401994	-8.927067
14.67729	-0.03514342	-1.015247	0	0	-5.235858	8.652519
14.69915	-0.03330347	-1.018325	0.08414708	-0.1407558	2.102075	-3.516217
14.71572	-0.03330347	-1.018325	0	0	-2.189444	3.662362
14.73787	-0.03346119	-1.01806	-0.007121034	0.01193808	-0.183933	0.3083552
14.75466	-0.03346119	-1.01806	0	0	0.1828744	-0.3065804
14.77969	-0.03356634	-1.017884	-0.004200469	0.007038631	-0.1004335	0.1682941
14.79672	-0.03356634	-1.017884	0	0	0.09987099	-0.1673516
14.81943	-0.03388176	-1.017356	-0.01388597	0.02326399	-0.3493989	0.5853685
14.83806	-0.03388176	-1.017356	0	0	0.3358668	-0.5626975
14.86236	-0.03411834	-1.01696	-0.009736723	0.01629411	-0.2268317	0.3795959
14.87959	-0.03411834	-1.01696	0	0	0.2344577	-0.3923578
14.90757	-0.03467031	-1.016037	-0.019731	0.03299073	-0.4364586	0.7297699
14.92596	-0.03467031	-1.016037	0	0	0.4255512	-0.7115325
14.95086	-0.0382445	-1.010095	-0.1435172	0.2385837	-3.314875	5.510665
14.97236	-0.0382445	-1.010095	0	0	3.09253	-5.141037
14.99458	-0.03848099	-1.009704	-0.01064659	0.01760798	-0.2435376	0.4027771
15.01114	-0.03848099	-1.009704	0	0	0.2745435	-0.4540566
15.03389	-0.03850727	-1.009661	-0.001155478	0.001907997	-0.02939509	0.04853898
15.05252	-0.03850727	-1.009661	0	0	0.02792557	-0.04611242
15.07838	-0.03871748	-1.009313	-0.00812765	0.01343566	-0.1826502	0.3019354
15.09495	-0.03871748	-1.009313	0	0	0.1915547	-0.3166552
15.11604	-0.04638775	-0.9967704	-0.3637328	0.594793	-9.659891	15.79631
15.13261	-0.04638775	-0.9967704	0	0	9.659402	-15.79551
15.157	-0.05562676	-0.981739	-0.3787703	0.6162397	-9.247252	15.0448
15.17487	-0.05562676	-0.981739	0	0	8.961405	-14.57974
15.19703	-0.05979705	-0.9747681	-0.1882095	0.3146063	-4.701431	7.858794
15.21364	-0.05979705	-0.9747681	0	0	4.855145	-8.11574
15.23522	-0.05969216	-0.9746041	0.004860329	0.007600866	0.1272738	0.1990382
15.25443	-0.05969216	-0.9746041	0	0	-0.1191449	-0.1863258
15.27919	-0.0595086	-0.9742351	0.007414201	0.01490514	0.1686191	0.3389835
15.29576	-0.0595086	-0.9742351	0	0	-0.1794137	-0.3606844
15.31686	-0.05924637	-0.9737434	0.0124246	0.02329312	0.3298011	0.6182975
15.3363	-0.05924637	-0.9737434	0	0	-0.3064722	-0.5745614
15.36166	-0.05906281	-0.973375	0.007236527	0.01452592	0.1615234	0.3242269
15.38172	-0.05906281	-0.973375	0	0	-0.1593157	-0.3197954
15.40489	-0.05901036	-0.9732113	0.002263773	0.007064502	0.05237265	0.1634381
15.42145	-0.05901036	-0.9732113	0	0	-0.05697062	-0.1777869
15.4431	-0.05901036	-0.9732113	0	0	0	0
15.46067	-0.05901036	-0.9732113	0	0	0	0
15.48346	-0.05898413	-0.9732522	0.001151013	-0.001794534	0.02851901	-0.04446373
15.50019	-0.05898413	-0.9732522	0	0	-0.02912533	0.04540903
15.52166	-0.05898413	-0.9732522	0	0	0	0
15.57202	-0.05898413	-0.9732522	0	0	0	0
15.59505	-0.05895791	-0.9734569	0.00113846	-0.008886428	0.01551287	-0.1210881
15.61179	-0.05895791	-0.9734569	0	0	-0.02862327	0.2234234
15.6328	-0.05895791	-0.9735387	0	-0.003895787	0	-0.1032068
15.6528	-0.05895791	-0.9735387	0	0	0	0.09499846
15.67844	-0.05893168	-0.9736615	0.001022799	-0.004790884	0.02240828	-0.1049624
15.69593	-0.05893168	-0.9736615	0	0	-0.023717	0.1110926
15.72474	-0.05895791	-0.9737025	-0.0009102042	-0.00142116	-0.01966008	-0.03069654
15.74136	-0.05895791	-0.9737025	0	0	0.02003313	0.031279
15.77277	-0.05893168	-0.9737434	0.0008349019	-0.001303585	0.01738158	-0.02713897
15.78934	-0.05893168	-0.9737434	0	0	-0.01740162	0.02717026
15.81004	-0.05893168	-0.9737434	0	0	0	0
15.8266	-0.05893168	-0.9737434	0	0	0	0
15.8469	-0.05890546	-0.9737844	0.00129217	-0.002017834	0.03505573	-0.05474251
15.86644	-0.05890546	-0.9737844	0	0	-0.03244042	0.05065848
15.88958	-0.05890546	-0.9737844	0	0	0	0
15.91173	-0.05890546	-0.9737844	0	0	0	0
15.93761	-0.05890546	-0.9737844	0	0	0	0
15.95552	-0.05890546	-0.9737844	0	0	0	0
15.9803	-0.05893168	-0.9738253	-0.001058234	-0.001652523	-0.02478754	-0.03870785
15.99789	-0.05893168	-0.9738253	0	0	0.02497836	0.03900585
16.01992	-0.05893168	-0.9738253	0	0	0	0
16.03658	-0.05893168	-0.9738253	0	0	0	0
16.05739	-0.05893168	-0.9738253	0	0	0	0
16.0754	-0.05893168	-0.9738253	0	0	0	0
16.10165	-0.05893168	-0.9738253	0	0	0	0
16.11821	-0.05893168	-0.9738253	0	0	0	0
16.13993	-0.05893168	-0.9738253	0	0	0	0
16.15716	-0.05893168	-0.9738253	0	0	0	0
16.17959	-0.05893168	-0.9738253	0	0	0	0
16.19692	-0.05893168	-0.9738253	0	0	0	0
16.2198	-0.05893168	-0.9738253	0	0	0	0
16.23636	-0.05893168	-0.9738253	0	0	0	0
16.25701	-0.05893168	-0.9738253	0	0	0	0
16.27693	-0.05893168	-0.9738253	0	0	0	0
16.30302	-0.05893168	-0.9738253	0	0	0	0
16.31959	-0.05893168	-0.9738253	0	0	0	0
16.34076	-0.05893168	-0.9738253	0	0	0	0
16.35732	-0.05893168	-0.9738253	0	0	0	0
16.38079	-0.05893168	-0.9738253	0	0	0	0
16.39827	-0.05893168	-0.9738253	0	0	0	0
16.42107	-0.05893168	-0.9738253	0	0	0	0
16.43764	-0.05893168	-0.9738253	0	0	0	0
16.45901	-0.05893168	-0.9738253	0	0	0	0
16.48008	-0.05893168	-0.9738253	0	0	0	0
16.50645	-0.05893168	-0.9738253	0	0	0	0
16.52386	-0.05893168	-0.9738253	0	0	0	0
16.54471	-0.05893168	-0.9738253	0	0	0	0
16.56135	-0.05893168	-0.9738253	0	0	0	0
16.58612	-0.05893168	-0.9738253	0	0	0	0
16.61125	-0.05893168	-0.9738253	0	0	0	0
16.63259	-0.05893168	-0.9738253	0	0	0	0
16.64978	-0.05893168	-0.9738253	0	0	0	0
16.67361	-0.05893168	-0.9738253	0	0	0	0
16.6905	-0.05893168	-0.9738253	0	0	0	0
16.71283	-0.05893168	-0.9738253	0	0	0	0
16.72939	-0.05893168	-0.9738253	0	0	0	0
16.75175	-0.05893168	-0.9738253	0	0	0	0
16.76831	-0.05893168	-0.9738253	0	0	0	0
16.79045	-0.05893168	-0.9738253	0	0	0	0
16.80702	-0.05893168	-0.9738253	0	0	0	0
16.83128	-0.05893168	-0.9738253	0	0	0	0
16.84785	-0.05893168	-0.9738253	0	0	0	0
16.86926	-0.05893168	-0.9738253	0	0	0	0
16.8866	-0.05893168	-0.9738253	0	0	0	0
16.91127	-0.05893168	-0.9738253	0	0	0	0
16.92843	-0.05893168	-0.9738253	0	0	0	0
16.94985	-0.05893168	-0.9738253	0	0	0	0
16.96642	-0.05893168	-0.9738253	0	0	0	0
16.991	-0.05893168	-0.9738253	0	0	0	0
17.00823	-0.05893168	-0.9738253	0	0	0	0
17.03396	-0.05893168	-0.9738253	0	0	0	0
17.05082	-0.05893168	-0.9738253	0	0	0	0
17.07845	-0.05893168	-0.9738253	0	0	0	0
17.09572	-0.05893168	-0.9738253	0	0	0	0
17.11852	-0.05893168	-0.9738253	0	0	0	0
17.13628	-0.05893168	-0.9738253	0	0	0	0
17.15874	-0.05893168	-0.9738253	0	0	0	0
17.1753	-0.05893168	-0.9738253	0	0	0	0
17.1975	-0.05893168	-0.9738253	0	0	0	0
17.21407	-0.05893168	-0.9738253	0	0	0	0
17.24582	-0.05893168	-0.9738253	0	0	0	0
17.26318	-0.05893168	-0.9738253	0	0	0	0
17.28883	-0.05893168	-0.9738253	0	0	0	0
17.30539	-0.05893168	-0.9738253	0	0	0	0
17.32936	-0.05893168	-0.9738253	0	0	0	0
17.35297	-0.05893168	-0.9738253	0	0	0	0
17.37547	-0.05893168	-0.9738253	0	0	0	0
17.39858	-0.05893168	-0.9738253	0	0	0	0
17.42093	-0.05893168	-0.9738253	0	0	0	0
17.43906	-0.05893168	-0.9738253	0	0	0	0
17.4623	-0.05893168	-0.9738253	0	0	0	0
17.47936	-0.05893168	-0.9738253	0	0	0	0
17.50282	-0.05893168	-0.9738253	0	0	0	0
17.51939	-0.05893168	-0.9738253	0	0	0	0
17.54436	-0.05893168	-0.9738253	0	0	0	0
17.56093	-0.05893168	-0.9738253	0	0	0	0
17.58345	-0.05893168	-0.9738253	0	0	0	0
17.60007	-0.05893168	-0.9738253	0	0	0	0
17.62362	-0.05893168	-0.9738253	0	0	0	0
17.64447	-0.05893168	-0.9738253	0	0	0	0
17.66854	-0.05893168	-0.9738253	0	0	0	0
17.6851	-0.05893168	-0.9738253	0	0	0	0
17.70839	-0.05893168	-0.9738253	0	0	0	0
17.72495	-0.05893168	-0.9738253	0	0	0	0
17.7487	-0.05893168	-0.9738253	0	0	0	0
17.76527	-0.05893168	-0.9738253	0	0	0	0
17.78729	-0.05893168	-0.9738253	0	0	0	0
17.80505	-0.05893168	-0.9738253	0	0	0	0
17.82677	-0.05893168	-0.9738253	0	0	0	0
17.84334	-0.05893168	-0.9738253	0	0	0	0
17.86568	-0.05893168	-0.9738253	0	0	0	0
17.88225	-0.05893168	-0.9738253	0	0	0	0
17.90791	-0.05893168	-0.9738253	0	0	0	0
17.92663	-0.05893168	-0.9738253	0	0	0	0
17.95295	-0.05893168	-0.9738253	0	0	0	0
17.97501	-0.05893168	-0.9738253	0	0	0	0
18.00153	-0.05893168	-0.9738253	0	0	0	0
18.0216	-0.05893168	-0.9738253	0	0	0	0
18.04864	-0.05893168	-0.9738253	0	0	0	0
18.0727	-0.05893168	-0.9738253	0	0	0	0
18.09696	-0.05893168	-0.9738253	0	0	0	0
18.11544	-0.05893168	-0.9738253	0	0	0	0
18.13768	-0.05893168	-0.9738253	0	0	0	0
18.15425	-0.05893168	-0.9738253	0	0	0	0
18.1855	-0.05893168	-0.9738253	0	0	0	0
18.20206	-0.05893168	-0.9738253	0	0	0	0
18.22356	-0.05893168	-0.9738253	0	0	0	0
18.24013	-0.05893168	-0.9738253	0	0	0	0
18.2698	-0.05893168	-0.9738253	0	0	0	0
18.28637	-0.05893168	-0.9738253	0	0	0	0
18.30947	-0.05893168	-0.9738253	0	0	0	0
18.32649	-0.05893168	-0.9738253	0	0	0	0
18.34813	-0.05893168	-0.9738253	0	0	0	0
18.36476	-0.05893168	-0.9738253	0	0	0	0
18.38819	-0.05893168	-0.9738253	0	0	0	0
18.40529	-0.05893168	-0.9738253	0	0	0	0
18.43263	-0.05893168	-0.9738253	0	0	0	0
18.44919	-0.05893168	-0.9738253	0	0	0	0
18.47362	-0.05893168	-0.9738253	0	0	0	0
18.49509	-0.05893168	-0.9738253	0	0	0	0
18.52036	-0.05893168	-0.9738253	0	0	0	0
18.53693	-0.05893168	-0.9738253	0	0	0	0
18.5589	-0.05893168	-0.9738253	0	0	0	0
18.57711	-0.05893168	-0.9738253	0	0	0	0
18.59966	-0.05893168	-0.9738253	0	0	0	0
18.61623	-0.05893168	-0.9738253	0	0	0	0
18.63728	-0.05893168	-0.9738253	0	0	0	0
18.65714	-0.05893168	-0.9738253	0	0	0	0
18.68345	-0.05893168	-0.9738253	0	0	0	0
18.70002	-0.05893168	-0.9738253	0	0	0	0
18.72322	-0.05893168	-0.9738253	0	0	0	0
18.73978	-0.05893168	-0.9738253	0	0	0	0
18.76306	-0.05893168	-0.9738253	0	0	0	0
18.78238	-0.05893168	-0.9738253	0	0	0	0
18.81051	-0.05893168	-0.9738253	0	0	0	0
18.82883	-0.05893168	-0.9738253	0	0	0	0
18.85151	-0.05893168	-0.9738253	0	0	0	0
18.86808	-0.05893168	-0.9738253	0	0	0	0
18.89096	-0.05893168	-0.9738253	0	0	0	0
18.90759	-0.05893168	-0.9738253	0	0	0	0
18.93168	-0.05893168	-0.9738253	0	0	0	0
18.94825	-0.05893168	-0.9738253	0	0	0	0
18.9695	-0.05893168	-0.9738253	0	0	0	0
18.98607	-0.05893168	-0.9738253	0	0	0	0
19.01102	-0.05893168	-0.9738253	0	0	0	0
19.0278	-0.05893168	-0.9738253	0	0	0	0
19.05076	-0.05893168	-0.9738253	0	0	0	0
19.06884	-0.05893168	-0.9738253	0	0	0	0
19.09864	-0.05893168	-0.9738253	0	0	0	0
19.12573	-0.05893168	-0.9738253	0	0	0	0
19.15332	-0.05893168	-0.9738253	0	0	0	0
19.17367	-0.05893168	-0.9738253	0	0	0	0
19.20254	-0.05893168	-0.9738253	0	0	0	0
19.22485	-0.05893168	-0.9738253	0	0	0	0
19.25173	-0.05898413	-0.9735796	-0.001951046	0.009139528	-0.03966305	0.1857986
19.27005	-0.05898413	-0.9735796	0	0	0.04316259	-0.2021918
19.2942	-0.07697916	-0.9261778	-0.7450508	1.962585	-17.54182	46.20801
19.31236	-0.07697916	-0.9261778	0	0	17.61142	-46.39134
19.3369	-0.117379	-0.7955675	-1.64616	5.321943	-38.5571	124.6529
19.35347	-0.117379	-0.7955675	0	0	40.04371	-129.459
19.37732	-0.1449499	-0.6988583	-1.156039	4.05498	-28.60299	100.3293
19.39391	-0.1449499	-0.6988583	0	0	28.58141	-100.2536
19.42044	-0.1428106	-0.6668644	0.08065127	1.206155	1.87025	27.96995
19.43784	-0.1428106	-0.6668644	0	0	-1.835982	-27.45746
19.45934	-0.1271006	-0.6495603	0.7308403	0.8049967	18.78841	20.69482
19.4759	-0.1271006	-0.6495603	0	0	-19.20078	-21.14903
19.49944	-0.1051372	-0.6148008	0.9333829	1.477183	23.27743	36.83913
19.51862	-0.1051372	-0.6148008	0	0	-21.85235	-34.58377
19.54327	-0.09309851	-0.545725	0.488336	2.801983	11.1404	63.92159
19.55984	-0.09309851	-0.545725	0	0	-11.84715	-67.97677
19.58395	-0.09098494	-0.4641897	0.08764008	3.380891	2.154179	83.10176
19.60099	-0.09098494	-0.4641897	0	0	-2.129816	-82.16189
19.62598	-0.08897499	-0.4304724	0.08042993	1.349225	1.913964	32.10705
19.64454	-0.08897499	-0.4304724	0	0	-1.84674	-30.97935
19.66922	-0.08534481	-0.4253627	0.1470833	0.2070313	3.401288	4.78758
19.68651	-0.08534481	-0.4253627	0	0	-3.504067	-4.932249
19.71089	-0.08531869	-0.4253858	0.001071537	-0.0009474513	0.02571374	-0.02273606
19.72846	-0.08531869	-0.4253858	0	0	-0.02554538	0.02258718
19.75181	-0.08508357	-0.4249473	0.01007136	0.01878319	0.246156	0.4590836
19.76901	-0.08508357	-0.4249473	0	0	-0.2483441	-0.4631644
19.79771	-0.08006532	-0.4202474	0.1748759	0.1637805	3.809587	3.56788
19.8177	-0.08006532	-0.4202474	0	0	-3.591841	-3.363949
19.84325	-0.06527555	-0.4073979	0.5789232	0.5029747	12.71298	11.04518
19.86015	-0.06527555	-0.4073979	0	0	-13.63778	-11.84865
19.88553	-0.06456801	-0.4068734	0.02788283	0.02067048	0.659507	0.4889147
19.90236	-0.06456801	-0.4068734	0	0	-0.6605201	-0.4896657
19.92564	-0.06454181	-0.4069418	0.001125812	-0.002939851	0.02806569	-0.0732884
19.9423	-0.06454181	-0.4069418	0	0	-0.02818766	0.0736069
19.9651	-0.06443699	-0.407033	0.0045993	-0.004001381	0.1165695	-0.1014153
19.99131	-0.06443699	-0.407033	0	0	-0.09384906	0.08164848
20.0126	-0.06443699	-0.4070786	0	-0.002142137	0	-0.04509524
20.02945	-0.06443699	-0.4070786	0	0	0	0.05616607
20.05181	-0.06443699	-0.4070786	0	0	0	0
20.06988	-0.06443699	-0.4070786	0	0	0	0
20.09571	-0.06443699	-0.4070786	0	0	0	0
20.11417	-0.06443699	-0.4070786	0	0	0	0
20.14236	-0.06443699	-0.4070786	0	0	0	0
20.16087	-0.06443699	-0.4070786	0	0	0	0
20.18389	-0.06443699	-0.4070786	0	0	0	0
20.20046	-0.06443699	-0.4070786	0	0	0	0
20.22699	-0.06443699	-0.4070786	0	0	0	0
20.2436	-0.06443699	-0.4070786	0	0	0	0
20.27008	-0.06443699	-0.4070786	0	0	0	0
20.29165	-0.06443699	-0.4070786	0	0	0	0
20.32056	-0.06446319	-0.4071014	-0.0009063386	-0.0007895996	-0.01795377	-0.01564127
20.34156	-0.06446319	-0.4071014	0	0	0.01815683	0.01581818
20.37092	-0.06446319	-0.4071014	0	0	0	0
20.39234	-0.06446319	-0.4071014	0	0	0	0
20.4201	-0.06443699	-0.4072154	0.0009437577	-0.004105628	0.01918651	-0.08346704
20.43713	-0.06443699	-0.4072154	0	0	-0.0210688	0.09165559
20.46012	-0.06443699	-0.4072154	0	0	0	0
20.47668	-0.06443699	-0.4072154	0	0	0	0
20.4986	-0.06443699	-0.4072154	0	0	0	0
20.5162	-0.06443699	-0.4072154	0	0	0	0
20.53897	-0.06446319	-0.4072382	-0.00115061	-0.001002408	-0.0284969	-0.02482642
20.55582	-0.06446319	-0.4072382	0	0	0.02903875	0.02529847
20.58493	-0.06446319	-0.4072382	0	0	0	0
20.60276	-0.06446319	-0.4072382	0	0	0	0
20.62647	-0.06446319	-0.4072382	0	0	0	0
20.64304	-0.06446319	-0.4072382	0	0	0	0
20.67019	-0.06446319	-0.4072382	0	0	0	0
20.68987	-0.06446319	-0.4072382	0	0	0	0
20.71184	-0.06446319	-0.4072382	0	0	0	0
20.73206	-0.06446319	-0.4072382	0	0	0	0
20.75406	-0.06448939	-0.407261	-0.001191008	-0.001036248	-0.02821014	-0.0245445
20.77063	-0.06448939	-0.407261	0	0	0.03088034	0.02686774
20.79649	-0.06448939	-0.407261	0	0	0	0
20.81305	-0.06448939	-0.407261	0	0	0	0
20.83519	-0.06448939	-0.407261	0	0	0	0
20.85205	-0.06448939	-0.407261	0	0	0	0
20.88791	-0.06448939	-0.407261	0	0	0	0
20.90582	-0.06448939	-0.407261	0	0	0	0
20.92842	-0.06448939	-0.4073066	0	-0.002017065	0	-0.04978921
20.94499	-0.06448939	-0.4073066	0	0	0	0.05149103
20.96646	-0.06448939	-0.4073523	0	-0.002125633	0	-0.05588987
21.02702	-0.06448939	-0.4073523	0	0	0	0.02591429
21.0507	-0.06454181	-0.4074435	-0.002212776	-0.003851206	-0.02626516	-0.04571295
21.06801	-0.06454181	-0.4074435	0	0	0.05398223	0.09395286
21.09099	-0.06456801	-0.4074663	-0.001139917	-0.0009930924	-0.02829222	-0.0246481
21.10812	-0.06456801	-0.4074663	0	0	0.02842003	0.02475945
21.13142	-0.06456801	-0.4074663	0	0	0	0
21.14799	-0.06456801	-0.4074663	0	0	0	0
21.16979	-0.06459422	-0.4074891	-0.001202186	-0.001045676	-0.0313313	-0.02725235
21.18755	-0.06459422	-0.4074891	0	0	0.03038722	0.02643118
21.21249	-0.06459422	-0.4074891	0	0	0	0
21.22906	-0.06459422	-0.4074891	0	0	0	0
21.25181	-0.06459422	-0.4074891	0	0	0	0
21.26838	-0.06459422	-0.4074891	0	0	0	0
21.29175	-0.06459422	-0.4074891	0	0	0	0
21.31142	-0.06459422	-0.4074891	0	0	0	0
21.33598	-0.06459422	-0.4074891	0	0	0	0
21.35482	-0.06459422	-0.4074891	0	0	0	0
21.37664	-0.06459422	-0.4074891	0	0	0	0
21.39321	-0.06459422	-0.4074891	0	0	0	0
21.41714	-0.06459422	-0.4074891	0	0	0	0
21.43791	-0.06459422	-0.4074891	0	0	0	0
21.46651	-0.06459422	-0.4074891	0	0	0	0
21.48701	-0.06459422	-0.4074891	0	0	0	0
21.51412	-0.06456801	-0.4075119	0.0009668065	-0.0008409403	0.02030789	-0.01766406
21.53474	-0.06456801	-0.4075119	0	0	-0.02025596	0.01761888
21.56362	-0.06456801	-0.4075119	0	0	0	0
21.5834	-0.06456801	-0.4075119	0	0	0	0
21.60724	-0.06459422	-0.4075347	-0.001099375	-0.0009575	-0.02520615	-0.02195328
21.6238	-0.06459422	-0.4075347	0	0	0.02720613	0.02369517
21.6464	-0.06459422	-0.4075347	0	0	0	0
21.66748	-0.06459422	-0.4075347	0	0	0	0
21.68985	-0.06459422	-0.4075347	0	0	0	0
21.70642	-0.06459422	-0.4075347	0	0	0	0
21.73337	-0.06459422	-0.4075347	0	0	0	0
21.74994	-0.06459422	-0.4075347	0	0	0	0
21.77801	-0.06459422	-0.4075347	0	0	0	0
21.7947	-0.06459422	-0.4075347	0	0	0	0
21.81787	-0.06462043	-0.4075575	-0.001130723	-0.0009837963	-0.02836616	-0.02468025
21.83602	-0.06462043	-0.4075575	0	0	0.02736196	0.02380654
21.85933	-0.06462043	-0.4075575	0	0	0	0
21.8821	-0.06462043	-0.4075575	0	0	0	0
21.90388	-0.06462043	-0.4075575	0	0	0	0
21.92143	-0.06462043	-0.4075575	0	0	0	0
21.94363	-0.06462043	-0.4075575	0	0	0	0
21.96157	-0.06462043	-0.4075575	0	0	0	0
21.9875	-0.06462043	-0.4075575	0	0	0	0
22.00406	-0.06462043	-0.4075575	0	0	0	0
22.02877	-0.06462043	-0.4075575	0	0	0	0
22.04534	-0.06462043	-0.4075575	0	0	0	0
22.07019	-0.06462043	-0.4075575	0	0	0	0
22.08718	-0.06462043	-0.4075575	0	0	0	0
22.11251	-0.06462043	-0.4075575	0	0	0	0
22.12907	-0.06462043	-0.4075575	0	0	0	0
22.15055	-0.06462043	-0.4075575	0	0	0	0
22.16712	-0.06462043	-0.4075575	0	0	0	0
22.1891	-0.06462043	-0.4075575	0	0	0	0
22.20567	-0.06462043	-0.4075575	0	0	0	0
22.23412	-0.06462043	-0.4075575	0	0	0	0
22.25191	-0.06462043	-0.4075575	0	0	0	0
22.27692	-0.06462043	-0.4075575	0	0	0	0
22.29349	-0.06462043	-0.4075575	0	0	0	0
22.31669	-0.06462043	-0.4075575	0	0	0	0
22.33582	-0.06462043	-0.4075575	0	0	0	0
22.3573	-0.06462043	-0.4075575	0	0	0	0
22.37518	-0.06462043	-0.4075575	0	0	0	0
22.39601	-0.06462043	-0.4075575	0	0	0	0
22.41322	-0.06462043	-0.4075575	0	0	0	0
22.43405	-0.06462043	-0.4075575	0	0	0	0
22.45062	-0.06462043	-0.4075575	0	0	0	0
22.4758	-0.06462043	-0.4075575	0	0	0	0
22.49237	-0.06462043	-0.4075575	0	0	0	0
22.51401	-0.06462043	-0.4075575	0	0	0	0
22.53105	-0.06462043	-0.4075575	0	0	0	0
22.55481	-0.06462043	-0.4075575	0	0	0	0
22.57242	-0.06462043	-0.4075575	0	0	0	0
22.59531	-0.06462043	-0.4075575	0	0	0	0
22.62158	-0.06462043	-0.4075575	0	0	0	0
22.64905	-0.06462043	-0.4075575	0	0	0	0
22.67134	-0.06462043	-0.4075575	0	0	0	0
22.69647	-0.06462043	-0.4075575	0	0	0	0
22.71511	-0.06462043	-0.4075575	0	0	0	0
22.74432	-0.06462043	-0.4075575	0	0	0	0
22.76421	-0.06462043	-0.4075575	0	0	0	0
22.78668	-0.06462043	-0.4075575	0	0	0	0
22.80735	-0.06462043	-0.4075575	0	0	0	0
22.83264	-0.06462043	-0.4075575	0	0	0	0
22.8492	-0.06462043	-0.4075575	0	0	0	0
22.87641	-0.06462043	-0.4075575	0	0	0	0
22.89692	-0.06462043	-0.4075575	0	0	0	0
22.91814	-0.06462043	-0.4075575	0	0	0	0
22.93557	-0.06462043	-0.4075575	0	0	0	0
22.95632	-0.06462043	-0.4075575	0	0	0	0
22.97289	-0.06462043	-0.4075575	0	0	0	0
22.99492	-0.06462043	-0.4075575	0	0	0	0
23.01425	-0.06462043	-0.4075575	0	0	0	0
23.03869	-0.06462043	-0.4075575	0	0	0	0
23.05526	-0.06462043	-0.4075575	0	0	0	0
23.0868	-0.06462043	-0.4075575	0	0	0	0
23.10538	-0.06462043	-0.4075575	0	0	0	0
23.12858	-0.06462043	-0.4075575	0	0	0	0
23.14514	-0.06462043	-0.4075575	0	0	0	0
23.16656	-0.06462043	-0.4075575	0	0	0	0
23.18332	-0.06462043	-0.4075575	0	0	0	0
23.20676	-0.06462043	-0.4075575	0	0	0	0
23.22854	-0.06462043	-0.4075575	0	0	0	0
23.25351	-0.06462043	-0.4075575	0	0	0	0
23.27008	-0.06462043	-0.4075575	0	0	0	0
23.29224	-0.06462043	-0.4075575	0	0	0	0
23.30881	-0.06462043	-0.4075575	0	0	0	0
23.32971	-0.06462043	-0.4075575	0	0	0	0
23.34785	-0.06462043	-0.4075575	0	0	0	0
23.37035	-0.06462043	-0.4075575	0	0	0	0
23.38705	-0.06462043	-0.4075575	0	0	0	0
23.40852	-0.06391283	-0.4081736	0.03295881	-0.02869303	0.8634773	-0.7517195
23.42509	-0.06391283	-0.4081736	0	0	-0.8665083	0.7543582
23.44908	-0.05384265	-0.4169616	0.4197216	-0.3662838	10.34822	-9.030718
23.47181	-0.05384265	-0.4169616	0	0	-8.98257	7.838934
23.49463	-0.03514342	-0.4333936	0.8196455	-0.7202653	17.99541	-15.8135
23.51143	-0.03514342	-0.4333936	0	0	-20.68696	18.17872
23.53156	-0.01726144	-0.4492604	0.8884019	-0.7882829	24.05259	-21.34197
23.54813	-0.01726144	-0.4492604	0	0	-24.21012	21.48174
23.57287	-0.008841875	-0.4567408	0.3402666	-0.3023118	8.236654	-7.317902
23.58951	-0.008841875	-0.4567408	0	0	-8.222608	7.305422
23.61146	-0.0031842	-0.4618207	0.257778	-0.2314529	6.680667	-5.998416
23.62803	-0.0031842	-0.4618207	0	0	-6.692909	6.009407
23.65262	-0.003236831	-0.4617734	-0.002140212	0.001924494	-0.05199904	0.04675792
23.67462	-0.003236831	-0.4617734	0	0	0.04593823	-0.04130799
23.69821	-0.003368408	-0.461655	-0.005576317	0.00501551	-0.1223057	0.1100055
23.71993	-0.003368408	-0.461655	0	0	0.1230625	-0.1106862
23.74063	-0.003421039	-0.4616077	-0.002541797	0.002285603	-0.0599152	0.05387618
23.76342	-0.003421039	-0.4616077	0	0	0.05844373	-0.05255302
23.78852	-0.003499986	-0.4615367	-0.003145901	0.002830005	-0.06570364	0.05910599
23.80514	-0.003499986	-0.4615367	0	0	0.07540268	-0.06783111
23.82544	-0.003789456	-0.4612764	-0.01425833	0.01282119	-0.3861097	0.3471926
23.84201	-0.003789456	-0.4612764	0	0	0.3867289	-0.3477494
23.86473	-0.004421024	-0.4605195	-0.02780214	0.03332021	-0.7077262	0.8481933
23.88278	-0.004421024	-0.4605195	0	0	0.6818697	-0.8172049
23.90513	-0.01544614	-0.4497532	-0.4934554	0.4818713	-12.21438	11.92764
23.92169	-0.01544614	-0.4497532	0	0	12.682	-12.38428
23.94255	-0.04050415	-0.4269099	-1.201208	1.095039	-32.09393	29.25728
23.95927	-0.04050415	-0.4269099	0	0	31.9701	-29.14441
23.98304	-0.06658563	-0.4012975	-1.09692	1.077194	-27.09167	26.60447
24.00541	-0.06658563	-0.4012975	0	0	23.77241	-23.3449
24.0277	-0.06307412	-0.3518715	0.1575022	2.216908	3.526649	49.63905
24.04427	-0.06307412	-0.3518715	0	0	-4.052835	-57.04531
24.06578	-0.04538986	-0.3137541	0.8221731	1.772147	21.59272	46.54187
24.08272	-0.04538986	-0.3137541	0	0	-21.38597	-46.09621
24.10844	-0.02988584	-0.2888935	0.6026968	0.9664202	14.12799	22.65414
24.12601	-0.02988584	-0.2888935	0	0	-13.92196	-22.32377
24.14871	-0.01805067	-0.2575388	0.5212125	1.380842	12.94177	34.28647
24.16528	-0.01805067	-0.2575388	0	0	-13.27111	-35.15899
24.18817	-0.0123941	-0.2228379	0.2471598	1.516232	6.264585	38.43085
24.20528	-0.0123941	-0.2228379	0	0	-6.178854	-37.90493
24.22807	-0.01844528	-0.2050849	-0.2655971	0.7792094	-6.656917	19.53008
24.24463	-0.01844528	-0.2050849	0	0	6.749522	-19.80176
24.26521	-0.02136517	-0.2028254	-0.141865	0.1097797	-3.818767	2.955085
24.28178	-0.02136517	-0.2028254	0	0	3.818767	-2.955085
24.31077	-0.02102322	-0.2031306	0.01179637	-0.01052822	0.2589472	-0.2311094
24.32734	-0.02102322	-0.2031306	0	0	-0.2589472	0.2311094
24.34779	-0.0209443	-0.2032323	0.003857627	-0.004973776	0.1041939	-0.1343409
24.36436	-0.0209443	-0.2032323	0	0	-0.1041939	0.1343409
24.38838	-0.02086539	-0.2035376	0.003285661	-0.0127102	0.0809584	-0.3131782
24.40668	-0.02086539	-0.2035376	0	0	-0.07764154	0.3003474
24.42816	-0.02296964	-0.2067149	-0.09796949	-0.1479269	-2.462803	-3.718656
24.44484	-0.02296964	-0.2067149	0	0	2.567441	3.876652
24.46601	-0.02299595	-0.2067353	-0.001242258	-0.0009628378	-0.03281939	-0.02543736
24.48258	-0.02299595	-0.2067353	0	0	0.0329156	0.02551192
24.50562	-0.02354828	-0.2071633	-0.02397393	-0.0185808	-0.6052799	-0.4691174
24.52287	-0.02354828	-0.2071633	0	0	0.5949937	0.4611452
24.54449	-0.0244688	-0.2089785	-0.04258154	-0.0839668	-1.095436	-2.160097
24.56106	-0.0244688	-0.2089785	0	0	1.115134	2.19894
24.58444	-0.02189124	-0.2110199	0.1102181	-0.08729152	2.758677	-2.184842
24.6053	-0.02189124	-0.2110199	0	0	-2.490884	1.972753
24.6286	-0.02231209	-0.2112242	-0.01806193	-0.008766039	-0.4089856	-0.198494
24.64525	-0.02231209	-0.2112242	0	0	0.4522063	0.2194704
24.67024	-0.02993842	-0.2165007	-0.3050813	-0.21108	-7.326759	-5.069245
24.68726	-0.02993842	-0.2165007	0	0	7.261894	5.024366
24.71109	-0.05995438	-0.2384669	-1.259666	-0.9218444	-30.84237	-22.57096
24.72769	-0.05995438	-0.2384669	0	0	31.15225	22.79773
24.74867	-0.09771413	-0.2521333	-1.800217	-0.6515548	-47.90054	-17.3367
24.76524	-0.09771413	-0.2521333	0	0	47.95164	17.3552
24.78583	-0.1438933	-0.2444577	-2.242401	0.3727171	-60.34306	10.02983
24.80284	-0.1438933	-0.2444577	0	0	59.62993	-9.911296
24.82716	-0.1859072	-0.2366462	-1.7275	0.321188	-41.79546	7.770883
24.84957	-0.1859072	-0.2366462	0	0	36.96614	-6.872986
24.87045	-0.2275925	-0.2329686	-1.996812	0.1761663	-46.12929	4.069703
24.88702	-0.2275925	-0.2329686	0	0	53.32914	-4.7049
24.91358	-0.2499755	-0.2335673	-0.842618	-0.02253884	-19.53631	-0.5225686
24.93173	-0.2499755	-0.2335673	0	0	18.84382	0.5040455
24.95374	-0.2618959	-0.2352198	-0.5415714	-0.07507785	-13.48432	-1.869327
24.97031	-0.2618959	-0.2352198	0	0	14.03834	1.94613
24.99131	-0.2686109	-0.2296067	-0.3197328	0.2672682	-8.510538	7.114055
25.00999	-0.2686109	-0.2296067	0	0	8.058072	-6.735833
25.03471	-0.2761539	-0.2260035	-0.3051704	0.1457771	-7.032534	3.359376
25.05137	-0.2761539	-0.2260035	0	0	7.374161	-3.522568
25.08316	-0.2841498	-0.2328241	-0.2515545	-0.2145791	-5.191789	-4.42866
25.10021	-0.2841498	-0.2328241	0	0	5.150831	4.393722
25.12707	-0.2868149	-0.2350545	-0.09921981	-0.08303507	-2.259469	-1.890904
25.14855	-0.2868149	-0.2350545	0	0	2.052628	1.717803
25.17094	-0.2868149	-0.2350545	0	0	0	0
25.18751	-0.2868149	-0.2350545	0	0	0	0
25.21118	-0.2867907	-0.2350752	0.001022361	-0.0008731618	0.02540821	-0.02170024
25.23167	-0.2867907	-0.2350752	0	0	-0.02314985	0.01977145
25.25413	-0.2867665	-0.2350958	0.00107873	-0.0009201713	0.02511391	-0.0214225
25.2707	-0.2867665	-0.2350958	0	0	-0.02763978	0.02357711
25.29222	-0.2867665	-0.2350958	0	0	0	0
25.30885	-0.2867665	-0.2350958	0	0	0	0
25.33462	-0.2867423	-0.2351165	0.0009390496	-0.0008020086	0.0221502	-0.01891769
25.35119	-0.2867423	-0.2351165	0	0	-0.02218013	0.01894326
25.37444	-0.2867423	-0.2351165	0	0	0	0
25.39101	-0.2867423	-0.2351165	0	0	0	0
25.41451	-0.2867423	-0.2351165	0	0	0	0
25.43199	-0.2867423	-0.2351165	0	0	0	0
25.4531	-0.2867423	-0.2351165	0	0	0	0
25.47005	-0.2867423	-0.2351165	0	0	0	0
25.48991	-0.2866939	-0.2351578	0.002438592	-0.002080682	0.06623451	-0.05651332
25.50648	-0.2866939	-0.2351578	0	0	-0.06694548	0.05711994
25.52402	-0.2866939	-0.2351578	0	0	0	0
25.54693	-0.2865728	-0.2352612	0.005282899	-0.004509063	0.1305936	-0.1114644
25.56533	-0.2865728	-0.2352612	0	0	-0.1278685	0.1091384
25.59357	-0.2865002	-0.2353232	0.002572499	-0.002196177	0.05516504	-0.04709515
25.61078	-0.2865002	-0.2353232	0	0	-0.0566075	0.04832659
25.63604	-0.286476	-0.2353438	0.0009591607	-0.0008181771	0.02258292	-0.01926354
25.65578	-0.286476	-0.2353438	0	0	-0.02131645	0.01818322
25.67947	-0.286476	-0.2353438	0	0	0	0
25.69871	-0.286476	-0.2353438	0	0	0	0
25.72238	-0.2864518	-0.2353645	0.001022279	-0.0008724619	0.023824	-0.02033255
25.74232	-0.2864518	-0.2353645	0	0	-0.02343954	0.02000443
25.76534	-0.2864518	-0.2353645	0	0	0	0
25.7819	-0.2864518	-0.2353645	0	0	0	0
25.80421	-0.2864518	-0.2353645	0	0	0	0
25.82153	-0.2864518	-0.2353645	0	0	0	0
25.84496	-0.2864275	-0.2353851	0.001034456	-0.0008824053	0.02539106	-0.02165892
25.8667	-0.2864275	-0.2353851	0	0	-0.02290246	0.01953611
25.88874	-0.2864033	-0.2354058	0.001097915	-0.0009376893	0.02507398	-0.02141478
25.90531	-0.2864033	-0.2354058	0	0	-0.02843708	0.02428709
25.92978	-0.2863307	-0.2354678	0.002969578	-0.002534129	0.0723675	-0.06175577
25.95425	-0.2863307	-0.2354678	0	0	-0.06067949	0.05178165
25.97714	-0.2861369	-0.2356332	0.008462023	-0.007222202	0.1786477	-0.152473
25.99371	-0.2861369	-0.2356332	0	0	-0.2144291	0.1830118
26.01459	-0.2860158	-0.2357365	0.005800676	-0.004949273	0.1549037	-0.1321675
26.03116	-0.2860158	-0.2357365	0	0	-0.1549037	0.1321675
26.05806	-0.2859189	-0.2358192	0.003601338	-0.003073489	0.08284579	-0.07070306
26.081	-0.2859189	-0.2358192	0	0	-0.07225941	0.06166833
26.10653	-0.285822	-0.2359019	0.003794776	-0.003238575	0.07829506	-0.06681933
26.1231	-0.285822	-0.2359019	0	0	-0.09013934	0.07692759
26.14837	-0.2854344	-0.2362327	0.01533842	-0.01308943	0.3666173	-0.3128622
26.16493	-0.2854344	-0.2362327	0	0	-0.3666173	0.3128622
26.18719	-0.2804602	-0.2404756	0.2235503	-0.1906857	5.75888	-4.912255
26.20376	-0.2804602	-0.2404756	0	0	-5.758314	4.911772
26.22694	-0.2684641	-0.2506958	0.5173924	-0.4407938	13.01394	-11.08726
26.24708	-0.2684641	-0.2506958	0	0	-11.94148	10.17357
26.27049	-0.2394975	-0.2753227	1.237416	-1.052032	28.41336	-24.15661
26.28706	-0.2394975	-0.2753227	0	0	-30.95387	26.31652
26.3144	-0.2036377	-0.3057793	1.31172	-1.114077	29.87616	-25.37456
26.3317	-0.2036377	-0.3057793	0	0	-29.38218	24.95501
26.35649	-0.1603996	-0.3426016	1.744054	-1.485265	41.42932	-35.28188
26.37306	-0.1603996	-0.3426016	0	0	-42.16872	35.91156
26.3944	-0.1282397	-0.370212	1.507064	-1.293867	39.75725	-34.13298
26.41097	-0.1282397	-0.370212	0	0	-39.75725	34.13298
26.49209	-0.09351591	-0.4002074	0.4280472	-0.3697597	4.381749	-3.785083
26.50866	-0.09351591	-0.4002074	0	0	-4.381749	3.785083
26.52989	-0.09325504	-0.4004344	0.01228726	-0.01069367	0.3250777	-0.2829169
26.54667	-0.09325504	-0.4004344	0	0	-0.323267	0.281341
26.5708	-0.09325504	-0.4004344	0	0	0	0
26.58755	-0.09325504	-0.4004344	0	0	0	0
26.60966	-0.09322895	-0.4004118	0.001180403	0.001026027	0.03037404	0.02640165
26.62622	-0.09322895	-0.4004118	0	0	-0.03052385	-0.02653186
26.65078	-0.09322895	-0.4004118	0	0	0	0
26.67272	-0.09322895	-0.4004118	0	0	0	0
26.69511	-0.09322895	-0.4004118	0	0	0	0
26.71588	-0.09322895	-0.4004118	0	0	0	0
26.73643	-0.09322895	-0.4004118	0	0	0	0
26.75305	-0.09322895	-0.4004118	0	0	0	0
26.77588	-0.09322895	-0.4004118	0	0	0	0
26.79307	-0.09322895	-0.4004118	0	0	0	0
26.8158	-0.09322895	-0.4004118	0	0	0	0
26.83237	-0.09322895	-0.4004118	0	0	0	0
26.86161	-0.09322895	-0.4004118	0	0	0	0
26.87979	-0.09322895	-0.4004118	0	0	0	0
26.90306	-0.09320287	-0.4004344	0.001121241	-0.0009748811	0.02705386	-0.02352241
26.91968	-0.09320287	-0.4004344	0	0	-0.02811082	0.02444139
26.94229	-0.09320287	-0.4004344	0	0	0	0
26.96295	-0.09320287	-0.4004344	0	0	0	0
26.98699	-0.09320287	-0.4004344	0	0	0	0
27.00665	-0.09320287	-0.4004344	0	0	0	0
27.03002	-0.09320287	-0.4004344	0	0	0	0
27.04675	-0.09320287	-0.4004344	0	0	0	0
27.06962	-0.09320287	-0.4004344	0	0	0	0
27.09164	-0.09320287	-0.4004344	0	0	0	0
27.11521	-0.09320287	-0.4004344	0	0	0	0
27.13177	-0.09320287	-0.4004344	0	0	0	0
27.15442	-0.09320287	-0.4004344	0	0	0	0
27.17114	-0.09320287	-0.4004344	0	0	0	0
27.19449	-0.09320287	-0.4004344	0	0	0	0
27.21106	-0.09320287	-0.4004344	0	0	0	0
27.23287	-0.09320287	-0.4004344	0	0	0	0
27.24944	-0.09320287	-0.4004344	0	0	0	0
27.27221	-0.09320287	-0.4004344	0	0	0	0
27.29103	-0.09320287	-0.4004344	0	0	0	0
27.31298	-0.09320287	-0.4004344	0	0	0	0
27.32955	-0.09320287	-0.4004344	0	0	0	0
27.35181	-0.09320287	-0.4004799	0	-0.002039615	0	-0.0525193
27.36915	-0.09320287	-0.4004799	0	0	0	0.05149502
27.39377	-0.09320287	-0.4004799	0	0	0	0
27.41056	-0.09320287	-0.4004799	0	0	0	0
27.43264	-0.09320287	-0.4004799	0	0	0	0
27.44921	-0.09320287	-0.4004799	0	0	0	0
27.47253	-0.09320287	-0.4004799	0	0	0	0
27.4927	-0.09320287	-0.4004799	0	0	0	0
27.51398	-0.09320287	-0.4004799	0	0	0	0
27.53054	-0.09320287	-0.4004799	0	0	0	0
27.55248	-0.09320287	-0.4004799	0	0	0	0
27.57099	-0.09320287	-0.4004799	0	0	0	0
27.59465	-0.09320287	-0.4004799	0	0	0	0
27.61266	-0.09320287	-0.4004799	0	0	0	0
27.63804	-0.09320287	-0.4004799	0	0	0	0
27.65689	-0.09320287	-0.4004799	0	0	0	0
27.68922	-0.09320287	-0.4004799	0	0	0	0
27.70762	-0.09320287	-0.4004799	0	0	0	0
27.72997	-0.09320287	-0.4004799	0	0	0	0
27.74654	-0.09320287	-0.4004799	0	0	0	0
27.76829	-0.09320287	-0.4004799	0	0	0	0
27.78866	-0.09320287	-0.4004799	0	0	0	0
27.81109	-0.09320287	-0.4004799	0	0	0	0
27.82766	-0.09320287	-0.4004799	0	0	0	0
27.84995	-0.09320287	-0.4004799	0	0	0	0
27.86652	-0.09320287	-0.4004799	0	0	0	0
27.89192	-0.09320287	-0.4004799	0	0	0	0
27.90849	-0.09320287	-0.4004799	0	0	0	0
27.93058	-0.09320287	-0.4004799	0	0	0	0
27.94715	-0.09320287	-0.4004799	0	0	0	0
27.96966	-0.09320287	-0.4004799	0	0	0	0
27.98863	-0.09320287	-0.4004799	0	0	0	0
28.01081	-0.09320287	-0.4004799	0	0	0	0
28.02738	-0.09320287	-0.4004799	0	0	0	0
28.04904	-0.09320287	-0.4004799	0	0	0	0
28.06561	-0.09320287	-0.4004799	0	0	0	0
28.09309	-0.09322895	-0.4005026	-0.000949048	-0.0008262491	-0.02154375	-0.01875617
28.11101	-0.09322895	-0.4005026	0	0	0.02090561	0.0182006
28.13424	-0.09322895	-0.4005026	0	0	0	0
28.15106	-0.09322895	-0.4005026	0	0	0	0
28.17371	-0.09322895	-0.4005026	0	0	0	0
28.19036	-0.09322895	-0.4005026	0	0	0	0
28.21597	-0.09322895	-0.4005026	0	0	0	0
28.23382	-0.09322895	-0.4005026	0	0	0	0
28.2558	-0.09322895	-0.4005026	0	0	0	0
28.27237	-0.09322895	-0.4005026	0	0	0	0
28.29348	-0.09320287	-0.4005253	0.00123528	-0.001075445	0.0327804	-0.02853889
28.31051	-0.09320287	-0.4005253	0	0	-0.03238374	0.02819355
28.33429	-0.09320287	-0.4005253	0	0	0	0
28.35121	-0.09320287	-0.4005253	0	0	0	0
28.37384	-0.09320287	-0.4005253	0	0	0	0
28.39063	-0.09320287	-0.4005253	0	0	0	0
28.41629	-0.09320287	-0.4005253	0	0	0	0
28.43297	-0.09320287	-0.4005253	0	0	0	0
28.45453	-0.09320287	-0.4005253	0	0	0	0
28.4711	-0.09320287	-0.4005253	0	0	0	0
28.49566	-0.09320287	-0.4005253	0	0	0	0
28.52167	-0.09320287	-0.4005253	0	0	0	0
28.54436	-0.09320287	-0.4005253	0	0	0	0
28.56093	-0.09320287	-0.4005253	0	0	0	0
28.58339	-0.09320287	-0.4005253	0	0	0	0
28.59995	-0.09320287	-0.4005253	0	0	0	0
28.62527	-0.09320287	-0.4005253	0	0	0	0
28.64336	-0.09320287	-0.4005253	0	0	0	0
28.66966	-0.09320287	-0.4005253	0	0	0	0
28.68623	-0.09320287	-0.4005253	0	0	0	0
28.70771	-0.09320287	-0.4005253	0	0	0	0
28.72666	-0.09320287	-0.4005253	0	0	0	0
28.7544	-0.09320287	-0.4005253	0	0	0	0
28.77242	-0.09320287	-0.4005253	0	0	0	0
28.805	-0.09320287	-0.4005253	0	0	0	0
28.82337	-0.09320287	-0.4005253	0	0	0	0
28.84839	-0.09320287	-0.4005253	0	0	0	0
28.86557	-0.09320287	-0.4005253	0	0	0	0
28.8882	-0.09320287	-0.4005253	0	0	0	0
28.9084	-0.09320287	-0.4005253	0	0	0	0
28.93487	-0.09320287	-0.4005253	0	0	0	0
28.95152	-0.09320287	-0.4005253	0	0	0	0
28.97377	-0.09320287	-0.4005253	0	0	0	0
28.99067	-0.09320287	-0.4005253	0	0	0	0
29.01414	-0.09320287	-0.4005253	0	0	0	0
29.03132	-0.09320287	-0.4005253	0	0	0	0
29.05551	-0.09320287	-0.4005253	0	0	0	0
29.07399	-0.09320287	-0.4005253	0	0	0	0
29.09712	-0.09320287	-0.4005253	0	0	0	0
29.1171	-0.09320287	-0.4005253	0	0	0	0
29.14378	-0.09315069	-0.4005707	0.001956058	-0.001702717	0.04192542	-0.03649541
29.16352	-0.09315069	-0.4005707	0	0	-0.04213557	0.03667834
29.18718	-0.09304634	-0.4006615	0.00441075	-0.003838228	0.1016128	-0.08842327
29.20428	-0.09304634	-0.4006615	0	0	-0.1082126	0.09416644
29.22748	-0.09299416	-0.4007523	0.002249073	-0.003915564	0.05580774	-0.0971595
29.24613	-0.09299416	-0.4007523	0	0	-0.05374484	0.09356805
29.2703	-0.09291589	-0.4008659	0.003239021	-0.004700203	0.07565624	-0.1097862
29.288	-0.09291589	-0.4008659	0	0	-0.0773623	0.1122619
29.30993	-0.09291589	-0.4009113	0	-0.002070652	0	-0.05223838
29.33597	-0.09291589	-0.4009113	0	0	0	0.04316401
29.36116	-0.09291589	-0.4009113	0	0	0	0
29.37773	-0.09291589	-0.4009113	0	0	0	0
29.39859	-0.09291589	-0.4009113	0	0	0	0
29.41516	-0.09291589	-0.4009113	0	0	0	0
29.43968	-0.09291589	-0.4009113	0	0	0	0
29.45699	-0.09291589	-0.4009113	0	0	0	0
29.48131	-0.09291589	-0.4009113	0	0	0	0
29.49801	-0.09291589	-0.4009113	0	0	0	0
29.51939	-0.09294198	-0.4008886	-0.001220311	0.00106211	-0.0320458	0.02789138
29.53596	-0.09294198	-0.4008886	0	0	0.03215694	-0.02798811
29.55951	-0.09294198	-0.4008886	0	0	0	0
29.57608	-0.09294198	-0.4008886	0	0	0	0
29.59795	-0.09294198	-0.4008886	0	0	0	0
29.61455	-0.09294198	-0.4008886	0	0	0	0
29.63807	-0.09294198	-0.4008886	0	0	0	0
29.66037	-0.09294198	-0.4008886	0	0	0	0
29.68509	-0.09294198	-0.4008886	0	0	0	0
29.70166	-0.09294198	-0.4008886	0	0	0	0
29.7237	-0.09294198	-0.4008886	0	0	0	0
29.74027	-0.09294198	-0.4008886	0	0	0	0
29.76284	-0.09294198	-0.4008886	0	0	0	0
29.78421	-0.09294198	-0.4008886	0	0	0	0
29.80487	-0.09294198	-0.4008886	0	0	0	0
29.82249	-0.09294198	-0.4008886	0	0	0	0
29.84594	-0.09294198	-0.4008886	0	0	0	0
29.86251	-0.09294198	-0.4008886	0	0	0	0
29.8903	-0.09294198	-0.4008886	0	0	0	0
29.91101	-0.09294198	-0.4008886	0	0	0	0
29.93225	-0.09294198	-0.4008886	0	0	0	0
29.94906	-0.09294198	-0.4008886	0	0	0	0
29.97659	-0.09294198	-0.4008886	0	0	0	0
29.99477	-0.09294198	-0.4008886	0	0	0	0
30.01575	-0.09294198	-0.4008886	0	0	0	0
30.03232	-0.09294198	-0.4008886	0	0	0	0
30.05552	-0.09294198	-0.4008886	0	0	0	0
30.07527	-0.09294198	-0.4008886	0	0	0	0
30.10087	-0.09294198	-0.4008886	0	0	0	0
30.11779	-0.09294198	-0.4008886	0	0	0	0
30.13977	-0.09294198	-0.4008886	0	0	0	0
30.15641	-0.09294198	-0.4008886	0	0	0	0
30.18695	-0.09294198	-0.4008886	0	0	0	0
30.20867	-0.09294198	-0.4008886	0	0	0	0
30.22935	-0.09294198	-0.4008886	0	0	0	0
30.24592	-0.09294198	-0.4008886	0	0	0	0
30.27029	-0.09294198	-0.4008886	0	0	0	0
30.28842	-0.09294198	-0.4008886	0	0	0	0
30.30849	-0.09291589	-0.4009113	0.00129998	-0.00113145	0.03402545	-0.02961439
30.32664	-0.09291589	-0.4009113	0	0	-0.03401526	0.02960552
30.34957	-0.09291589	-0.4009113	0	0	0	0
30.36613	-0.09291589	-0.4009113	0	0	0	0
30.3896	-0.09294198	-0.4008886	-0.00111217	0.0009679878	-0.02778506	0.024183
30.40901	-0.09294198	-0.4008886	0	0	0.02593964	-0.02257682
30.43424	-0.09291589	-0.4009113	0.001034068	-0.0009000113	0.02316087	-0.02015829
30.45363	-0.09291589	-0.4009113	0	0	-0.02317373	0.02016949
30.47996	-0.09291589	-0.4009113	0	0	0	0
30.50181	-0.09291589	-0.4009113	0	0	0	0
30.5323	-0.09291589	-0.4009113	0	0	0	0
30.5531	-0.09291589	-0.4009113	0	0	0	0
30.57814	-0.09291589	-0.4009113	0	0	0	0
30.59538	-0.09291589	-0.4009113	0	0	0	0
30.61663	-0.09291589	-0.4009113	0	0	0	0
30.6332	-0.09291589	-0.4009113	0	0	0	0
30.65842	-0.09291589	-0.4009113	0	0	0	0
30.67711	-0.09291589	-0.4009113	0	0	0	0
30.70099	-0.09291589	-0.4009113	0	0	0	0
30.71755	-0.09291589	-0.4009113	0	0	0	0
30.74216	-0.09291589	-0.4009113	0	0	0	0
30.76058	-0.09291589	-0.4009113	0	0	0	0
30.78386	-0.09291589	-0.4009113	0	0	0	0
30.80042	-0.09291589	-0.4009113	0	0	0	0
30.82117	-0.09291589	-0.4009113	0	0	0	0
30.84176	-0.09291589	-0.4009113	0	0	0	0
30.86643	-0.09291589	-0.4009113	0	0	0	0
30.883	-0.09291589	-0.4009113	0	0	0	0
30.9053	-0.09291589	-0.4009113	0	0	0	0
30.92187	-0.09291589	-0.4009113	0	0	0	0
30.94454	-0.09291589	-0.4009113	0	0	0	0
30.96151	-0.09291589	-0.4009113	0	0	0	0
30.98351	-0.09291589	-0.4009113	0	0	0	0
31.00008	-0.09291589	-0.4009113	0	0	0	0
31.02707	-0.09291589	-0.4009113	0	0	0	0
31.04364	-0.09291589	-0.4009113	0	0	0	0
31.06903	-0.09291589	-0.4009113	0	0	0	0
31.08649	-0.09291589	-0.4009113	0	0	0	0
31.10989	-0.09291589	-0.4009113	0	0	0	0
31.12645	-0.09291589	-0.4009113	0	0	0	0
31.14756	-0.09291589	-0.4009113	0	0	0	0
31.1647	-0.09291589	-0.4009113	0	0	0	0
31.18713	-0.09291589	-0.4009113	0	0	0	0
31.2037	-0.09291589	-0.4009113	0	0	0	0
31.22526	-0.09291589	-0.4009113	0	0	0	0
31.24272	-0.09291589	-0.4009113	0	0	0	0
31.2643	-0.09291589	-0.4009113	0	0	0	0
31.28146	-0.09291589	-0.4009113	0	0	0	0
31.30448	-0.09291589	-0.4009113	0	0	0	0
31.32545	-0.09291589	-0.4009113	0	0	0	0
31.34999	-0.09291589	-0.4009113	0	0	0	0
31.36655	-0.09291589	-0.4009113	0	0	0	0
31.38984	-0.09291589	-0.4009113	0	0	0	0
31.40872	-0.09291589	-0.4009113	0	0	0	0
31.4312	-0.09291589	-0.4009113	0	0	0	0
31.45254	-0.09291589	-0.4009113	0	0	0	0
31.47705	-0.09291589	-0.4009113	0	0	0	0
31.49362	-0.09291589	-0.4009113	0	0	0	0
31.51527	-0.09291589	-0.4009113	0	0	0	0
31.53195	-0.09291589	-0.4009113	0	0	0	0
31.55619	-0.09291589	-0.4009113	0	0	0	0
31.57467	-0.09291589	-0.4009113	0	0	0	0
31.59798	-0.09291589	-0.4009113	0	0	0	0
31.61455	-0.09291589	-0.4009113	0	0	0	0
31.63463	-0.09291589	-0.4009113	0	0	0	0
31.65375	-0.09291589	-0.4009113	0	0	0	0
31.67751	-0.09291589	-0.4009113	0	0	0	0
31.69699	-0.09291589	-0.4009113	0	0	0	0
31.72105	-0.09291589	-0.4009113	0	0	0	0
31.74304	-0.09291589	-0.4009113	0	0	0	0
31.76789	-0.09291589	-0.4009113	0	0	0	0
31.78847	-0.09291589	-0.4009113	0	0	0	0
31.81129	-0.09291589	-0.4009113	0	0	0	0
31.83087	-0.09291589	-0.4009113	0	0	0	0
31.86477	-0.09291589	-0.4009113	0	0	0	0
31.935	-0.09291589	-0.4009113	0	0	0	0
31.95815	-0.09291589	-0.4009113	0	0	0	0
31.97754	-0.09291589	-0.4009113	0	0	0	0
32.0021	-0.09291589	-0.4009113	0	0	0	0
32.02122	-0.09291589	-0.4009113	0	0	0	0
32.0462	-0.09291589	-0.4009113	0	0	0	0
32.06966	-0.09291589	-0.4009113	0	0	0	0
32.09839	-0.09291589	-0.4009113	0	0	0	0
32.12142	-0.09291589	-0.4009113	0	0	0	0
32.14381	-0.09291589	-0.4009113	0	0	0	0
32.16039	-0.09291589	-0.4009113	0	0	0	0
32.18258	-0.09291589	-0.4009113	0	0	0	0
32.20452	-0.09291589	-0.4009113	0	0	0	0
32.22718	-0.09291589	-0.4009113	0	0	0	0
32.24374	-0.09291589	-0.4009113	0	0	0	0
32.26444	-0.09291589	-0.4009113	0	0	0	0
32.28227	-0.09291589	-0.4009113	0	0	0	0
32.30659	-0.09291589	-0.4009113	0	0	0	0
32.32351	-0.09291589	-0.4009113	0	0	0	0
32.34513	-0.09291589	-0.4009113	0	0	0	0
32.36204	-0.09291589	-0.4009113	0	0	0	0
32.38377	-0.09291589	-0.4009113	0	0	0	0
32.40034	-0.09291589	-0.4009113	0	0	0	0
32.42101	-0.09291589	-0.4009113	0	0	0	0
32.43791	-0.09291589	-0.4009113	0	0	0	0
32.46517	-0.09291589	-0.4009113	0	0	0	0
32.48285	-0.09291589	-0.4009113	0	0	0	0
32.50864	-0.09291589	-0.4009113	0	0	0	0
32.52521	-0.09291589	-0.4009113	0	0	0	0
32.54638	-0.09291589	-0.4009113	0	0	0	0
32.56294	-0.09291589	-0.4009113	0	0	0	0
32.58557	-0.09291589	-0.4009113	0	0	0	0
32.60213	-0.09291589	-0.4009113	0	0	0	0
32.63028	-0.09291589	-0.4009113	0	0	0	0
32.64796	-0.09291589	-0.4009113	0	0	0	0
32.67249	-0.09291589	-0.4009113	0	0	0	0
32.69119	-0.09291589	-0.4009113	0	0	0	0
32.71454	-0.09291589	-0.4009113	0	0	0	0
32.73133	-0.09291589	-0.4009113	0	0	0	0
32.75395	-0.09291589	-0.4009113	0	0	0	0
32.77726	-0.09291589	-0.4009113	0	0	0	0
32.80284	-0.09291589	-0.4009113	0	0	0	0
32.81941	-0.09291589	-0.4009113	0	0	0	0
32.8418	-0.09291589	-0.4009113	0	0	0	0
32.85839	-0.09291589	-0.4009113	0	0	0	0
32.87944	-0.09291589	-0.4009113	0	0	0	0
32.89631	-0.09291589	-0.4009113	0	0	0	0
32.9215	-0.09291589	-0.4009113	0	0	0	0
32.93807	-0.09291589	-0.4009113	0	0	0	0
32.95894	-0.09291589	-0.4009113	0	0	0	0
32.97551	-0.09291589	-0.4009113	0	0	0	0
33.00018	-0.09291589	-0.4009113	0	0	0	0
33.01683	-0.09291589	-0.4009113	0	0	0	0
33.03803	-0.09291589	-0.4009113	0	0	0	0
33.0546	-0.09291589	-0.4009113	0	0	0	0
33.07763	-0.09291589	-0.4009113	0	0	0	0
33.09645	-0.09291589	-0.4009113	0	0	0	0
33.12108	-0.09291589	-0.4009113	0	0	0	0
33.13765	-0.09291589	-0.4009113	0	0	0	0
33.15859	-0.09291589	-0.4009113	0	0	0	0
33.17834	-0.09291589	-0.4009113	0	0	0	0
33.20049	-0.09291589	-0.4009113	0	0	0	0
33.21737	-0.09291589	-0.4009113	0	0	0	0
33.24016	-0.09291589	-0.4009113	0	0	0	0
33.25673	-0.09291589	-0.4009113	0	0	0	0
33.27998	-0.09291589	-0.4009113	0	0	0	0
33.29889	-0.09291589	-0.4009113	0	0	0	0
33.3264	-0.09291589	-0.4009113	0	0	0	0
33.34296	-0.09291589	-0.4009113	0	0	0	0
33.3644	-0.09291589	-0.4009113	0	0	0	0
33.38344	-0.09291589	-0.4009113	0	0	0	0
33.40712	-0.09291589	-0.4009113	0	0	0	0
33.42412	-0.09291589	-0.4009113	0	0	0	0
33.44693	-0.09291589	-0.4009113	0	0	0	0
33.46349	-0.09291589	-0.4009113	0	0	0	0
33.48685	-0.09291589	-0.4009113	0	0	0	0
33.50341	-0.09291589	-0.4009113	0	0	0	0
33.52879	-0.09291589	-0.4009113	0	0	0	0
33.54535	-0.09291589	-0.4009113	0	0	0	0
33.56745	-0.09291589	-0.4009113	0	0	0	0
33.58402	-0.09291589	-0.4009113	0	0	0	0
33.61567	-0.09291589	-0.4009113	0	0	0	0
33.63224	-0.09291589	-0.4009113	0	0	0	0
33.65965	-0.09291589	-0.4009113	0	0	0	0
33.67761	-0.09291589	-0.4009113	0	0	0	0
33.70176	-0.09291589	-0.4009113	0	0	0	0
33.71833	-0.09291589	-0.4009113	0	0	0	0
33.74082	-0.09294198	-0.400934	-0.001160082	-0.001009689	-0.029701	-0.02585056
33.75739	-0.09294198	-0.400934	0	0	0.029701	0.02585056
33.77924	-0.09291589	-0.4009113	0.00119369	0.00103894	0.03106509	0.02703781
33.79581	-0.09291589	-0.4009113	0	0	-0.03106509	-0.02703781
33.81821	-0.09291589	-0.4009113	0	0	0	0
33.83478	-0.09291589	-0.4009113	0	0	0	0
33.85734	-0.09294198	-0.400934	-0.001156551	-0.001006616	-0.02955864	-0.02572665
33.87967	-0.09294198	-0.400934	0	0	0.02576553	0.02242528
33.90135	-0.09291589	-0.4009113	0.001203139	0.001047164	0.02733538	0.02379161
33.91826	-0.09291589	-0.4009113	0	0	-0.03117173	-0.02713062
33.94253	-0.09294198	-0.400934	-0.001075278	-0.0009358788	-0.02611429	-0.02272883
33.9591	-0.09294198	-0.400934	0	0	0.02633386	0.02291994
33.98309	-0.09294198	-0.400934	0	0	0	0
34.00048	-0.09294198	-0.400934	0	0	0	0
34.02214	-0.09294198	-0.400934	0	0	0	0
34.03926	-0.09294198	-0.400934	0	0	0	0
34.06868	-0.09294198	-0.400934	0	0	0	0
34.08665	-0.09294198	-0.400934	0	0	0	0
34.10872	-0.09294198	-0.400934	0	0	0	0
34.12529	-0.09294198	-0.400934	0	0	0	0
34.15107	-0.09294198	-0.400934	0	0	0	0
34.16895	-0.09294198	-0.400934	0	0	0	0
34.19059	-0.09294198	-0.400934	0	0	0	0
34.2074	-0.09294198	-0.400934	0	0	0	0
34.23037	-0.09294198	-0.400934	0	0	0	0
34.24728	-0.09294198	-0.400934	0	0	0	0
34.27212	-0.09294198	-0.400934	0	0	0	0
34.28868	-0.09294198	-0.400934	0	0	0	0
34.31005	-0.09294198	-0.400934	0	0	0	0
34.32662	-0.09294198	-0.400934	0	0	0	0
34.3503	-0.09294198	-0.400934	0	0	0	0
34.36686	-0.09294198	-0.400934	0	0	0	0
34.38963	-0.09294198	-0.400934	0	0	0	0
34.4062	-0.09294198	-0.400934	0	0	0	0
34.42939	-0.09294198	-0.400934	0	0	0	0
34.45127	-0.09294198	-0.400934	0	0	0	0
34.47411	-0.09294198	-0.400934	0	0	0	0
34.49068	-0.09294198	-0.400934	0	0	0	0
34.51141	-0.09294198	-0.400934	0	0	0	0
34.52807	-0.09294198	-0.400934	0	0	0	0
34.55	-0.09294198	-0.400934	0	0	0	0
34.56656	-0.09294198	-0.400934	0	0	0	0
34.59259	-0.09294198	-0.400934	0	0	0	0
34.61038	-0.09294198	-0.400934	0	0	0	0
34.63461	-0.09294198	-0.400934	0	0	0	0
34.65227	-0.09294198	-0.400934	0	0	0	0
34.67553	-0.09294198	-0.400934	0	0	0	0
34.6921	-0.09294198	-0.400934	0	0	0	0
34.71329	-0.09294198	-0.400934	0	0	0	0
34.73034	-0.09294198	-0.400934	0	0	0	0
34.75445	-0.09294198	-0.400934	0	0	0	0
34.77779	-0.09294198	-0.400934	0	0	0	0
34.79862	-0.09294198	-0.400934	0	0	0	0
34.81529	-0.09294198	-0.400934	0	0	0	0
34.84016	-0.09294198	-0.400934	0	0	0	0
34.85743	-0.09294198	-0.400934	0	0	0	0
34.87953	-0.09294198	-0.400934	0	0	0	0
34.8961	-0.09294198	-0.400934	0	0	0	0
34.91858	-0.09294198	-0.400934	0	0	0	0
34.93514	-0.09294198	-0.400934	0	0	0	0
34.9576	-0.09294198	-0.400934	0	0	0	0
34.97622	-0.09294198	-0.400934	0	0	0	0
34.99977	-0.09294198	-0.400934	0	0	0	0
35.01634	-0.09294198	-0.400934	0	0	0	0
35.04142	-0.09294198	-0.400934	0	0	0	0
35.05843	-0.09294198	-0.400934	0	0	0	0
35.08157	-0.09294198	-0.400934	0	0	0	0
35.10063	-0.09294198	-0.400934	0	0	0	0
35.12284	-0.09294198	-0.400934	0	0	0	0
35.1394	-0.09294198	-0.400934	0	0	0	0
35.16083	-0.09294198	-0.400934	0	0	0	0
35.17754	-0.09294198	-0.400934	0	0	0	0
35.19973	-0.09294198	-0.400934	0	0	0	0
35.21629	-0.09294198	-0.400934	0	0	0	0
35.24083	-0.09294198	-0.400934	0	0	0	0
35.26631	-0.09294198	-0.400934	0	0	0	0
35.28974	-0.09294198	-0.400934	0	0	0	0
35.30631	-0.09294198	-0.400934	0	0	0	0
35.3282	-0.09294198	-0.400934	0	0	0	0
35.34476	-0.09294198	-0.400934	0	0	0	0
35.36701	-0.09294198	-0.400934	0	0	0	0
35.38446	-0.09294198	-0.400934	0	0	0	0
35.40743	-0.09294198	-0.400934	0	0	0	0
35.4254	-0.09294198	-0.400934	0	0	0	0
35.44906	-0.09294198	-0.400934	0	0	0	0
35.46563	-0.09294198	-0.400934	0	0	0	0
35.48846	-0.09294198	-0.400934	0	0	0	0
35.50502	-0.09294198	-0.400934	0	0	0	0
35.52554	-0.09294198	-0.400934	0	0	0	0
35.54211	-0.09294198	-0.400934	0	0	0	0
35.56346	-0.09294198	-0.400934	0	0	0	0
35.58215	-0.09294198	-0.400934	0	0	0	0
35.60527	-0.09294198	-0.400934	0	0	0	0
35.62184	-0.09294198	-0.400934	0	0	0	0
35.64291	-0.09294198	-0.400934	0	0	0	0
35.66145	-0.09294198	-0.400934	0	0	0	0
35.68694	-0.09294198	-0.400934	0	0	0	0
35.70351	-0.09294198	-0.400934	0	0	0	0
35.72689	-0.09294198	-0.400934	0	0	0	0
35.74394	-0.09294198	-0.400934	0	0	0	0
35.76412	-0.09294198	-0.400934	0	0	0	0
35.83459	-0.09294198	-0.400934	0	0	0	0
35.88266	-0.09294198	-0.400934	0	0	0	0
35.91129	-0.09294198	-0.400934	0	0	0	0
35.94564	-0.09294198	-0.400934	0	0	0	0
35.96508	-0.09294198	-0.400934	0	0	0	0
35.98959	-0.09294198	-0.400934	0	0	0	0
36.00817	-0.09294198	-0.400934	0	0	0	0
36.0337	-0.09294198	-0.400934	0	0	0	0
36.05027	-0.09294198	-0.400934	0	0	0	0
36.07748	-0.09294198	-0.400934	0	0	0	0
36.09892	-0.09294198	-0.400934	0	0	0	0
36.12433	-0.09294198	-0.400934	0	0	0	0
36.14392	-0.09294198	-0.400934	0	0	0	0
36.1673	-0.09294198	-0.400934	0	0	0	0
36.18528	-0.09294198	-0.400934	0	0	0	0
36.22219	-0.09294198	-0.400934	0	0	0	0
36.23876	-0.09294198	-0.400934	0	0	0	0
36.26056	-0.09294198	-0.400934	0	0	0	0
36.27853	-0.09294198	-0.400934	0	0	0	0
36.30058	-0.09294198	-0.400934	0	0	0	0
36.31729	-0.09294198	-0.400934	0	0	0	0
36.34013	-0.09294198	-0.400934	0	0	0	0
36.35669	-0.09294198	-0.400934	0	0	0	0
36.37927	-0.09294198	-0.400934	0	0	0	0
36.39584	-0.09294198	-0.400934	0	0	0	0
36.41756	-0.09294198	-0.400934	0	0	0	0
36.43494	-0.09294198	-0.400934	0	0	0	0
36.45668	-0.09294198	-0.400934	0	0	0	0
36.47325	-0.09294198	-0.400934	0	0	0	0
36.4955	-0.09294198	-0.400934	0	0	0	0
36.51207	-0.09294198	-0.400934	0	0	0	0
36.53439	-0.09294198	-0.400934	0	0	0	0
36.55148	-0.09294198	-0.400934	0	0	0	0
36.57411	-0.09294198	-0.400934	0	0	0	0
36.59068	-0.09294198	-0.400934	0	0	0	0
36.61425	-0.09294198	-0.400934	0	0	0	0
36.63081	-0.09294198	-0.400934	0	0	0	0
36.65688	-0.09294198	-0.400934	0	0	0	0
36.67685	-0.09294198	-0.400934	0	0	0	0
36.6999	-0.09294198	-0.400934	0	0	0	0
36.71646	-0.09294198	-0.400934	0	0	0	0
36.73842	-0.09294198	-0.400934	0	0	0	0
36.75499	-0.09294198	-0.400934	0	0	0	0
36.77855	-0.09294198	-0.400934	0	0	0	0
36.79523	-0.09294198	-0.400934	0	0	0	0
36.81776	-0.09294198	-0.400934	0	0	0	0
36.83515	-0.09294198	-0.400934	0	0	0	0
36.85736	-0.09294198	-0.400934	0	0	0	0
36.87393	-0.09294198	-0.400934	0	0	0	0
36.89726	-0.09294198	-0.400934	0	0	0	0
36.92145	-0.09294198	-0.400934	0	0	0	0
36.94619	-0.09294198	-0.400934	0	0	0	0
36.96275	-0.09294198	-0.400934	0	0	0	0
36.98621	-0.09294198	-0.400934	0	0	0	0
37.00278	-0.09294198	-0.400934	0	0	0	0
37.0238	-0.09294198	-0.400934	0	0	0	0
37.04609	-0.09294198	-0.400934	0	0	0	0
37.07001	-0.09294198	-0.400934	0	0	0	0
37.0896	-0.09294198	-0.400934	0	0	0	0
37.11259	-0.09294198	-0.400934	0	0	0	0
37.13286	-0.09294198	-0.400934	0	0	0	0
37.15607	-0.09294198	-0.400934	0	0	0	0
37.17314	-0.09294198	-0.400934	0	0	0	0
37.1959	-0.09294198	-0.400934	0	0	0	0
37.21247	-0.09294198	-0.400934	0	0	0	0
37.24009	-0.09294198	-0.400934	0	0	0	0
37.25665	-0.09294198	-0.400934	0	0	0	0
37.27939	-0.09294198	-0.400934	0	0	0	0
37.29666	-0.09294198	-0.400934	0	0	0	0
37.31945	-0.09294198	-0.400934	0	0	0	0
37.34602	-0.09294198	-0.400934	0	0	0	0
37.3671	-0.09294198	-0.400934	0	0	0	0
37.38367	-0.09294198	-0.400934	0	0	0	0
37.41288	-0.09294198	-0.400934	0	0	0	0
37.42953	-0.09294198	-0.400934	0	0	0	0
37.45633	-0.09294198	-0.400934	0	0	0	0
37.47323	-0.09294198	-0.400934	0	0	0	0
37.49537	-0.09294198	-0.400934	0	0	0	0
37.51289	-0.09294198	-0.400934	0	0	0	0
37.53833	-0.09294198	-0.400934	0	0	0	0
37.556	-0.09294198	-0.400934	0	0	0	0
37.57862	-0.09294198	-0.400934	0	0	0	0
37.59518	-0.09294198	-0.400934	0	0	0	0
37.61619	-0.09294198	-0.400934	0	0	0	0
37.63276	-0.09294198	-0.400934	0	0	0	0
37.6624	-0.09294198	-0.400934	0	0	0	0
37.68015	-0.09294198	-0.400934	0	0	0	0
37.70243	-0.09294198	-0.400934	0	0	0	0
37.72012	-0.09294198	-0.400934	0	0	0	0
37.7441	-0.09294198	-0.400934	0	0	0	0
37.76081	-0.09294198	-0.400934	0	0	0	0
37.78547	-0.09294198	-0.400934	0	0	0	0
37.80586	-0.09294198	-0.400934	0	0	0	0
37.82697	-0.09294198	-0.400934	0	0	0	0
37.84354	-0.09294198	-0.400934	0	0	0	0
37.8662	-0.09294198	-0.400934	0	0	0	0
37.88998	-0.09294198	-0.400934	0	0	0	0
37.91229	-0.09294198	-0.400934	0	0	0	0
37.92886	-0.09294198	-0.400934	0	0	0	0
37.95597	-0.09294198	-0.400934	0	0	0	0
37.97261	-0.09294198	-0.400934	0	0	0	0
37.99348	-0.09294198	-0.400934	0	0	0	0
38.01558	-0.09294198	-0.400934	0	0	0	0
38.03947	-0.09294198	-0.400934	0	0	0	0
38.05604	-0.09294198	-0.400934	0	0	0	0
38.07965	-0.09294198	-0.400934	0	0	0	0
38.09636	-0.09294198	-0.400934	0	0	0	0
38.12106	-0.09294198	-0.400934	0	0	0	0
38.13807	-0.09294198	-0.400934	0	0	0	0
38.16306	-0.09294198	-0.400934	0	0	0	0
38.17963	-0.09294198	-0.400934	0	0	0	0
38.20624	-0.09294198	-0.400934	0	0	0	0
38.22281	-0.09294198	-0.400934	0	0	0	0
38.24485	-0.09294198	-0.400934	0	0	0	0
38.26227	-0.09294198	-0.400934	0	0	0	0
38.28633	-0.09294198	-0.400934	0	0	0	0
38.3029	-0.09294198	-0.400934	0	0	0	0
38.32714	-0.09294198	-0.400934	0	0	0	0
38.34371	-0.09294198	-0.400934	0	0	0	0
38.36496	-0.09294198	-0.400934	0	0	0	0
38.38152	-0.09294198	-0.400934	0	0	0	0
38.40441	-0.09294198	-0.400934	0	0	0	0
38.42241	-0.09294198	-0.400934	0	0	0	0
38.44358	-0.09294198	-0.400934	0	0	0	0
38.46015	-0.09294198	-0.400934	0	0	0	0
38.48149	-0.09294198	-0.400934	0	0	0	0
38.49864	-0.09294198	-0.400934	0	0	0	0
38.52104	-0.09294198	-0.400934	0	0	0	0
38.53761	-0.09294198	-0.400934	0	0	0	0
38.56036	-0.09294198	-0.400934	0	0	0	0
38.57693	-0.09294198	-0.400934	0	0	0	0
38.59879	-0.09294198	-0.400934	0	0	0	0
38.61583	-0.09294198	-0.400934	0	0	0	0
38.63966	-0.09294198	-0.400934	0	0	0	0
38.65962	-0.09294198	-0.400934	0	0	0	0
38.68215	-0.09294198	-0.400934	0	0	0	0
38.69923	-0.09294198	-0.400934	0	0	0	0
38.7277	-0.09294198	-0.400934	0	0	0	0
38.74454	-0.09294198	-0.400934	0	0	0	0
38.76731	-0.09294198	-0.400934	0	0	0	0
38.78387	-0.09294198	-0.400934	0	0	0	0
38.80857	-0.09294198	-0.400934	0	0	0	0
38.83154	-0.09294198	-0.400934	0	0	0	0
38.85516	-0.09294198	-0.400934	0	0	0	0
38.87225	-0.09294198	-0.400934	0	0	0	0
38.89436	-0.09294198	-0.400934	0	0	0	0
38.91129	-0.09294198	-0.400934	0	0	0	0
38.9346	-0.09294198	-0.400934	0	0	0	0
38.95119	-0.09294198	-0.400934	0	0	0	0
38.97446	-0.09294198	-0.400934	0	0	0	0
38.99103	-0.09294198	-0.400934	0	0	0	0
39.01406	-0.09294198	-0.400934	0	0	0	0
39.03062	-0.09294198	-0.400934	0	0	0	0
39.05621	-0.09294198	-0.400934	0	0	0	0
39.07325	-0.09294198	-0.400934	0	0	0	0
39.09541	-0.09296807	-0.4009567	-0.001176917	-0.001024634	-0.03002061	-0.0261362
39.11386	-0.09296807	-0.4009567	0	0	0.02897463	0.02522556
39.13715	-0.09390719	-0.4015474	-0.04033184	-0.02536631	-0.9662539	-0.6077157
39.15372	-0.09390719	-0.4015474	0	0	1.012037	0.6365105
39.17914	-0.1176904	-0.4162044	-0.9354291	-0.5764816	-22.27626	-13.72831
39.19571	-0.1176904	-0.4162044	0	0	22.27626	13.72831
39.2205	-0.1721475	-0.4231485	-2.196921	-0.2801403	-53.12329	-6.774015
39.23706	-0.1721475	-0.4231485	0	0	53.12329	6.774015
39.25983	-0.2444337	-0.3963982	-3.175167	1.175004	-80.72456	29.87297
39.27692	-0.2444337	-0.3963982	0	0	79.67368	-29.48408
39.30209	-0.2814076	-0.3697442	-1.468559	1.058665	-34.74809	25.04943
39.32309	-0.2814076	-0.3697442	0	0	31.80552	-22.92817
39.34486	-0.2964469	-0.3559516	-0.6908087	0.6335462	-16.15301	14.81405
39.36148	-0.2964469	-0.3559516	0	0	17.99397	-16.50242
39.38416	-0.2980107	-0.3545169	-0.06895632	0.06326351	-1.754658	1.609799
39.40073	-0.2980107	-0.3545169	0	0	1.757046	-1.611989
39.42766	-0.2983473	-0.3542081	-0.01249889	0.01146755	-0.2873375	0.263628
39.44486	-0.2983473	-0.3542081	0	0	0.2831902	-0.2598229
39.46565	-0.2998132	-0.352819	-0.07050889	0.06681623	-1.855771	1.758582
39.48222	-0.2998132	-0.352819	0	0	1.887418	-1.788571
39.50431	-0.2997651	-0.3527749	0.002174335	0.001994939	0.05623966	0.05159954
39.52364	-0.2997651	-0.3527749	0	0	-0.05249967	-0.04816812
39.54846	-0.2994528	-0.3525325	0.01257947	0.009764425	0.2849419	0.2211773
39.57239	-0.2994528	-0.3525325	0	0	-0.2580105	-0.2002727
39.59428	-0.2993567	-0.3524003	0.004390192	0.006038726	0.0958094	0.1317862
39.61085	-0.2993567	-0.3524003	0	0	-0.1141502	-0.1570141
39.63339	-0.2993567	-0.3524003	0	0	0	0
39.65261	-0.2993567	-0.3524003	0	0	0	0
39.67747	-0.299549	-0.3520037	-0.007730995	0.01594982	-0.1753902	0.3618477
39.69674	-0.299549	-0.3520037	0	0	0.175178	-0.3614098
39.72225	-0.3073379	-0.3447717	-0.3053429	0.2835084	-6.819204	6.331574
39.74318	-0.3073379	-0.3447717	0	0	6.57444	-6.104313
39.76598	-0.3230842	-0.329791	-0.6908433	0.6572542	-15.79869	15.03055
39.78278	-0.3230842	-0.329791	0	0	17.44706	-16.59877
39.80526	-0.3235337	-0.329291	-0.02000064	0.02224547	-0.509182	0.5663316
39.82222	-0.3235337	-0.329291	0	0	0.5070645	-0.5639765
39.84402	-0.3235337	-0.329291	0	0	0	0
39.86059	-0.3235337	-0.329291	0	0	0	0
39.88439	-0.3235337	-0.329291	0	0	0	0
39.90117	-0.3235337	-0.329291	0	0	0	0
39.92308	-0.3235573	-0.3292693	-0.001078571	0.0009928839	-0.02787822	0.02566344
39.94318	-0.3235573	-0.3292693	0	0	0.02567338	-0.02363376
39.96666	-0.3235337	-0.329291	0.001006386	-0.0009264335	0.0230913	-0.0212568
39.98438	-0.3235337	-0.329291	0	0	-0.0244276	0.02248694
40.00719	-0.3235337	-0.329291	0	0	0	0
40.02399	-0.3235337	-0.329291	0	0	0	0
40.04667	-0.3235337	-0.329291	0	0	0	0
40.06539	-0.3235337	-0.329291	0	0	0	0
40.09491	-0.3235101	-0.3293128	0.0008016445	-0.0007360187	0.01661892	-0.01525843
40.11186	-0.3235101	-0.3293128	0	0	-0.01725056	0.01583836
40.13483	-0.3235101	-0.3293128	0	0	0	0
40.15154	-0.3235101	-0.3293128	0	0	0	0
40.17537	-0.3235101	-0.3293128	0	0	0	0
40.19193	-0.3235101	-0.3293128	0	0	0	0
40.21312	-0.3235101	-0.3293128	0	0	0	0
40.22969	-0.3235101	-0.3293128	0	0	0	0
40.25207	-0.3235101	-0.3293128	0	0	0	0
40.26864	-0.3235101	-0.3293128	0	0	0	0
40.29079	-0.3235101	-0.3293128	0	0	0	0
40.30958	-0.3235101	-0.3293128	0	0	0	0
40.33189	-0.3235101	-0.3293128	0	0	0	0
40.34874	-0.3235101	-0.3293128	0	0	0	0
40.37783	-0.3234864	-0.3293345	0.0008135246	-0.0007469262	0.01770679	-0.01625724
40.3944	-0.3234864	-0.3293345	0	0	-0.01781923	0.01636048
40.41611	-0.3234864	-0.3293345	0	0	0	0
40.43274	-0.3234864	-0.3293345	0	0	0	0
40.45617	-0.3234864	-0.3293345	0	0	0	0
40.4736	-0.3234864	-0.3293345	0	0	0	0
40.49617	-0.3234627	-0.3293563	0.001048534	-0.0009640171	0.02621274	-0.02409988
40.51381	-0.3234627	-0.3293563	0	0	-0.02607597	0.02397413
40.53835	-0.3234391	-0.329378	0.0009642663	-0.0008853276	0.02285916	-0.02098782
40.55582	-0.3234391	-0.329378	0	0	-0.02295257	0.02107358
40.57838	-0.3234154	-0.3293997	0.00104739	-0.00096418	0.0261617	-0.02408328
40.59495	-0.3234154	-0.3293997	0	0	-0.02676614	0.0246397
40.61807	-0.3232971	-0.3295084	0.005117245	-0.004700905	0.1289365	-0.1184462
40.63464	-0.3232971	-0.3295084	0	0	-0.1289365	0.1184462
40.664	-0.3228239	-0.3299432	0.01612039	-0.01481086	0.3510144	-0.3225
40.68279	-0.3228239	-0.3299432	0	0	-0.3348279	0.3076284
40.70554	-0.3208582	-0.3317925	0.08637094	-0.08125602	2.07893	-1.955815
40.72211	-0.3208582	-0.3317925	0	0	-2.196297	2.066231
40.7463	-0.3208345	-0.3318143	0.0009793342	-0.0008992628	0.02402682	-0.02206236
40.76481	-0.3208345	-0.3318143	0	0	-0.02293635	0.02106105
40.79136	-0.3203605	-0.3322497	0.01785426	-0.01639952	0.3962735	-0.3639857
40.80906	-0.3203605	-0.3322497	0	0	-0.4034816	0.3706064
40.83871	-0.3109199	-0.3410032	0.3183817	-0.2952126	6.723746	-6.234448
40.86029	-0.3109199	-0.3410032	0	0	-6.215046	5.762768
40.88293	-0.3030527	-0.3482189	0.3474884	-0.3187131	7.858856	-7.20807
40.90036	-0.3030527	-0.3482189	0	0	-8.670474	7.952478
40.92397	-0.3030527	-0.3482189	0	0	0	0
40.94345	-0.3030527	-0.3482189	0	0	0	0
40.96656	-0.3030527	-0.3482189	0	0	0	0
40.98396	-0.3030527	-0.3482189	0	0	0	0
41.00733	-0.3030527	-0.348175	0	0.001881378	0	0.04614876
41.0246	-0.3030527	-0.348175	0	0	0	-0.04629171
41.04774	-0.3030527	-0.348175	0	0	0	0
41.06557	-0.3030527	-0.348175	0	0	0	0
41.09163	-0.3030527	-0.3482189	0	-0.001686686	0	-0.03843486
41.10925	-0.3030527	-0.3482189	0	0	0	0.03861612
41.13192	-0.3030527	-0.3482189	0	0	0	0
41.14849	-0.3030527	-0.3482189	0	0	0	0
41.17044	-0.3030527	-0.3482189	0	0	0	0
41.188	-0.3030527	-0.3482189	0	0	0	0
41.21027	-0.3030527	-0.3482189	0	0	0	0
41.23452	-0.3030527	-0.3482189	0	0	0	0
41.26102	-0.3030527	-0.3482189	0	0	0	0
41.28051	-0.3030527	-0.3482189	0	0	0	0
41.30951	-0.3030527	-0.3482189	0	0	0	0
41.32607	-0.3030527	-0.3482189	0	0	0	0
41.34722	-0.3030527	-0.3482189	0	0	0	0
41.36389	-0.3030527	-0.3482189	0	0	0	0
41.3905	-0.3030287	-0.348197	0.0009016577	0.0008266129	0.02083421	0.01910019
41.40717	-0.3030287	-0.348197	0	0	-0.02083421	-0.01910019
41.42934	-0.3030287	-0.348197	0	0	0	0
41.44595	-0.3030287	-0.348197	0	0	0	0
41.46724	-0.3030287	-0.348197	0	0	0	0
41.48854	-0.3030287	-0.348197	0	0	0	0
41.51106	-0.3029808	-0.348153	0.002128757	0.001951471	0.04858022	0.04453439
41.52763	-0.3029808	-0.348153	0	0	-0.05445364	-0.04991866
41.54893	-0.3029568	-0.348131	0.001124664	0.001030942	0.02969621	0.02722153
41.5655	-0.3029568	-0.348131	0	0	-0.02969621	-0.02722153
41.59095	-0.3029088	-0.3480871	0.001884605	0.001727652	0.04485951	0.04112354
41.60751	-0.3029088	-0.3480871	0	0	-0.04485951	-0.04112354
41.63081	-0.302789	-0.3479772	0.005146065	0.00471744	0.1291042	0.1183509
41.64797	-0.302789	-0.3479772	0	0	-0.1271931	-0.116599
41.66994	-0.3019496	-0.34734	0.03821449	0.02900991	0.9765744	0.7413505
41.68882	-0.3019496	-0.34734	0	0	-0.9356216	-0.7102619
41.71339	-0.3004856	-0.3483728	0.0595829	-0.0420354	1.371317	-0.9674563
41.73104	-0.3004856	-0.3483728	0	0	-1.411085	0.9955124
41.75186	-0.2999813	-0.3487465	0.02422047	-0.01794957	0.6295112	-0.4665251
41.76843	-0.2999813	-0.3487465	0	0	-0.6478166	0.480091
41.7959	-0.2993087	-0.3490984	0.02448322	-0.01280569	0.5559227	-0.2907695
41.81669	-0.2993087	-0.3490984	0	0	-0.5073218	0.2653493
41.8413	-0.2859189	-0.3611712	0.5440246	-0.4905177	11.98326	-10.80466
41.85787	-0.2859189	-0.3611712	0	0	-13.21101	11.91165
41.87981	-0.258849	-0.3848463	1.23391	-1.079167	32.045	-28.02627
41.89762	-0.258849	-0.3848463	0	0	-31.04244	27.14944
41.92673	-0.2260184	-0.4108229	1.127666	-0.8922454	24.03144	-19.01445
41.94775	-0.2260184	-0.4108229	0	0	-22.49188	17.7963
41.97008	-0.2018197	-0.4329992	1.083809	-0.9932286	25.00122	-22.91173
41.98722	-0.2018197	-0.4329992	0	0	-27.46123	25.16614
42.01572	-0.190326	-0.4435704	0.4033498	-0.3709756	8.838564	-8.12915
42.03891	-0.190326	-0.4435704	0	0	-7.8028	7.17652
42.06065	-0.178934	-0.4540782	0.5240119	-0.4833386	11.661	-10.75588
42.08645	-0.178934	-0.4540782	0	0	-11.02372	10.16807
42.11123	-0.1720453	-0.4604485	0.2779896	-0.2570729	5.496553	-5.082977
42.13042	-0.1720453	-0.4604485	0	0	-6.321966	5.846283
42.15511	-0.1651401	-0.4668477	0.279733	-0.2592359	6.375442	-5.908289
42.17191	-0.1651401	-0.4668477	0	0	-6.742399	6.248358
42.19729	-0.1543159	-0.4768128	0.4264999	-0.3926495	10.11072	-9.308257
42.21831	-0.1543159	-0.4768128	0	0	-9.191417	8.461912
42.24237	-0.140412	-0.489601	0.5779937	-0.5316105	12.822	-11.79305
42.25893	-0.140412	-0.489601	0	0	-14.22834	13.08654
42.28088	-0.1280326	-0.4908333	0.5639861	-0.05614029	14.64252	-1.457546
42.29745	-0.1280326	-0.4908333	0	0	-14.64252	1.457546
42.32127	-0.1131982	-0.4831198	0.6227985	0.3238359	15.42107	8.018478
42.33784	-0.1131982	-0.4831198	0	0	-15.42107	-8.018478
42.35858	-0.1090395	-0.4793274	0.2004765	0.1828194	5.373042	4.899806
42.37515	-0.1090395	-0.4793274	0	0	-5.373042	-4.899806
42.39889	-0.1090135	-0.4793034	0.001095181	0.001009198	0.02716903	0.02503599
42.41579	-0.1090135	-0.4793034	0	0	-0.0269497	-0.02483387
42.43838	-0.1088574	-0.4791596	0.006906846	0.006365301	0.1749192	0.1612043
42.45494	-0.1088574	-0.4791596	0	0	-0.1763846	-0.1625548
42.47768	-0.09961654	-0.4706775	0.4064506	0.3730757	10.34151	9.492338
42.49658	-0.09961654	-0.4706775	0	0	-9.76256	-8.960927
42.51881	-0.0866509	-0.4588414	0.5830958	0.5322968	14.17556	12.94059
42.53878	-0.0866509	-0.4588414	0	0	-13.81803	-12.61421
42.56802	-0.08030064	-0.4530663	0.2171515	0.1974852	4.41313	4.013456
42.58612	-0.08030064	-0.4530663	0	0	-4.586655	-4.171265
42.60899	-0.08032679	-0.4530427	-0.001143531	0.001028201	-0.02791153	0.02509652
42.62632	-0.08032679	-0.4530427	0	0	0.02844656	-0.02557759
42.65195	-0.08037908	-0.4529957	-0.002039737	0.001835705	-0.04747446	0.04272566
42.67309	-0.08037908	-0.4529957	0	0	0.04361021	-0.03924794
42.69575	-0.08040523	-0.4529722	-0.001154119	0.001037721	-0.02635184	0.02369413
42.71236	-0.08040523	-0.4529722	0	0	0.02939046	-0.0264263
42.73612	-0.08037908	-0.4529487	0.00110075	0.0009897338	0.02726847	0.02451831
42.75269	-0.08037908	-0.4529487	0	0	-0.02729684	-0.02454383
42.77742	-0.08037908	-0.4529487	0	0	0	0
42.83494	-0.08037908	-0.4529487	0	0	0	0
42.85699	-0.08037908	-0.4529016	0	0.002133507	0	0.02681013
42.87356	-0.08037908	-0.4529016	0	0	0	-0.05523813
42.90195	-0.08037908	-0.4529016	0	0	0	0
42.91852	-0.08037908	-0.4529016	0	0	0	0
42.94121	-0.08037908	-0.4529016	0	0	0	0
42.95778	-0.08037908	-0.4529016	0	0	0	0
42.9858	-0.08037908	-0.4529487	0	-0.001679501	0	-0.03766865
43.00257	-0.08037908	-0.4529487	0	0	0	0.03749223
43.02532	-0.08037908	-0.4529487	0	0	0	0
43.04189	-0.08037908	-0.4529487	0	0	0	0
43.06387	-0.08037908	-0.4529487	0	0	0	0
43.08442	-0.08037908	-0.4529487	0	0	0	0
43.11128	-0.08040523	-0.4529722	-0.0009736498	-0.0008754527	-0.02053391	-0.01846297
43.12932	-0.08040523	-0.4529722	0	0	0.02168718	0.01949993
43.15473	-0.08040523	-0.4529722	0	0	0	0
43.1713	-0.08040523	-0.4529722	0	0	0	0
43.19905	-0.08040523	-0.4529722	0	0	0	0
43.21732	-0.08040523	-0.4529722	0	0	0	0
43.24057	-0.08043137	-0.4529957	-0.001124449	-0.001011331	-0.02708265	-0.02435817
43.25716	-0.08043137	-0.4529957	0	0	0.02821822	0.02537951
43.27898	-0.08045752	-0.4530192	-0.001198586	-0.001079377	-0.0312049	-0.02810131
43.29957	-0.08045752	-0.4530192	0	0	0.02826322	0.0254522
43.32527	-0.08048366	-0.4530427	-0.001017446	-0.0009150924	-0.02197918	-0.01976811
43.34417	-0.08048366	-0.4530427	0	0	0.0228139	0.02051886
43.36728	-0.08050981	-0.4530663	-0.001131452	-0.00101734	-0.02692967	-0.02421369
43.38385	-0.08050981	-0.4530663	0	0	0.02851407	0.0256383
43.40522	-0.08053596	-0.4530898	-0.001223405	-0.001101727	-0.0322482	-0.02904084
43.42693	-0.08053596	-0.4530898	0	0	0.02839634	0.02557209
43.45052	-0.0805621	-0.4531133	-0.001108624	-0.0009970984	-0.02447526	-0.02201308
43.46708	-0.0805621	-0.4531133	0	0	0.02761228	0.02483452
43.48996	-0.08058824	-0.4531368	-0.001142633	-0.001027686	-0.02896572	-0.02605181
43.50718	-0.08058824	-0.4531368	0	0	0.02849453	0.02562802
43.53053	-0.08064053	-0.4531839	-0.002239345	-0.002015347	-0.05519801	-0.04967664
43.54884	-0.08064053	-0.4531839	0	0	0.05376233	0.04838456
43.57085	-0.08074512	-0.453278	-0.004749829	-0.004274406	-0.1177994	-0.1060085
43.5885	-0.08074512	-0.453278	0	0	0.1197364	0.1077517
43.61065	-0.08098041	-0.4534898	-0.01062744	-0.009565063	-0.2670807	-0.2403819
43.62721	-0.08098041	-0.4534898	0	0	0.2745559	0.2471099
43.65588	-0.0812157	-0.4537016	-0.008208635	-0.007388292	-0.181483	-0.1633462
43.67571	-0.0812157	-0.4537016	0	0	0.1692633	0.1523477
43.70659	-0.08132027	-0.4537957	-0.003385883	-0.00304838	-0.06676111	-0.0601064
43.72316	-0.08132027	-0.4537957	0	0	0.07135533	0.06424268
43.74588	-0.08142483	-0.4538898	-0.004602108	-0.004143668	-0.117139	-0.1054702
43.76245	-0.08142483	-0.4538898	0	0	0.1171277	0.10546
43.78622	-0.08145098	-0.4539134	-0.00109973	-0.0009903522	-0.02725866	-0.02454755
43.80279	-0.08145098	-0.4539134	0	0	0.02726123	0.02454987
43.83016	-0.08147712	-0.4539369	-0.0009553269	-0.0008603116	-0.02174466	-0.01958197
43.84672	-0.08147712	-0.4539369	0	0	0.02174655	0.01958367
43.87062	-0.08150326	-0.4539605	-0.001093451	-0.0009849785	-0.02702126	-0.02434071
43.88721	-0.08150326	-0.4539605	0	0	0.02700599	0.02432695
43.9076	-0.08150326	-0.4539605	0	0	0	0
43.92422	-0.08150326	-0.4539605	0	0	0	0
43.94637	-0.0815294	-0.453984	-0.001180419	-0.001063017	-0.03044769	-0.02741941
43.96627	-0.0815294	-0.453984	0	0	0.0280722	0.02528018
43.99028	-0.0815294	-0.453984	0	0	0	0
44.00685	-0.0815294	-0.453984	0	0	0	0
44.0286	-0.08155555	-0.4540076	-0.001201949	-0.001082405	-0.03136723	-0.02824749
44.04722	-0.08155555	-0.4540076	0	0	0.02977264	0.0268115
44.07152	-0.08155555	-0.4540076	0	0	0	0
44.08888	-0.08155555	-0.4540076	0	0	0	0
44.11112	-0.08158168	-0.4540311	-0.001175225	-0.001057301	-0.02967427	-0.02669669
44.13033	-0.08158168	-0.4540311	0	0	0.0283551	0.0255099
44.15806	-0.08163396	-0.4540782	-0.001885414	-0.001698136	-0.04016987	-0.03617979
44.17557	-0.08163396	-0.4540782	0	0	0.04167721	0.03753741
44.19709	-0.08166011	-0.4541017	-0.001214516	-0.001093722	-0.03111289	-0.02801844
44.21366	-0.08166011	-0.4541017	0	0	0.03188245	0.02871147
44.23747	-0.08171239	-0.4541488	-0.002195975	-0.001977848	-0.0543898	-0.04898725
44.25431	-0.08171239	-0.4541488	0	0	0.05402737	0.04866082
44.2763	-0.0817908	-0.4542194	-0.003565148	-0.003211173	-0.0918057	-0.08269055
44.29287	-0.0817908	-0.4542194	0	0	0.09245049	0.08327132
44.31507	-0.08189537	-0.4543136	-0.004710458	-0.004242567	-0.1215133	-0.1094434
44.33191	-0.08189537	-0.4543136	0	0	0.1206584	0.1086734
44.35601	-0.08194765	-0.4543607	-0.002168868	-0.001953434	-0.05296775	-0.04770645
44.37258	-0.08194765	-0.4543607	0	0	0.05332543	0.04802861
44.39556	-0.08197378	-0.4543842	-0.001137378	-0.001024548	-0.02876017	-0.02590711
44.41213	-0.08197378	-0.4543842	0	0	0.02876017	0.02590711
44.43575	-0.08199993	-0.4544078	-0.001106655	-0.0009965888	-0.02753446	-0.02479592
44.45384	-0.08199993	-0.4544078	0	0	0.02652977	0.02389115
44.47856	-0.08202606	-0.4544313	-0.00105734	-0.0009524499	-0.02469928	-0.02224907
44.49649	-0.08202606	-0.4544313	0	0	0.02479429	0.02233465
44.5182	-0.08202606	-0.4544313	0	0	0	0
44.53696	-0.08202606	-0.4544313	0	0	0	0
44.55879	-0.08202606	-0.4544313	0	0	0	0
44.57536	-0.08202606	-0.4544313	0	0	0	0
44.6011	-0.08202606	-0.4544313	0	0	0	0
44.61766	-0.08202606	-0.4544313	0	0	0	0
44.64153	-0.08202606	-0.4544313	0	0	0	0
44.66986	-0.08202606	-0.4544313	0	0	0	0
44.69445	-0.0820522	-0.4544549	-0.001062752	-0.0009573251	-0.02008175	-0.0180896
44.71102	-0.0820522	-0.4544549	0	0	0.02581966	0.0232583
44.73376	-0.0820522	-0.4544549	0	0	0	0
44.75033	-0.0820522	-0.4544549	0	0	0	0
44.77251	-0.0820522	-0.4544549	0	0	0	0
44.79062	-0.0820522	-0.4544549	0	0	0	0
44.81307	-0.08207835	-0.4544784	-0.001164574	-0.001048747	-0.02870848	-0.02585318
44.82964	-0.08207835	-0.4544784	0	0	0.02984806	0.02687942
44.85043	-0.08207835	-0.4544784	0	0	0	0
44.867	-0.08207835	-0.4544784	0	0	0	0
44.89008	-0.08207835	-0.4544784	0	0	0	0
44.90772	-0.08207835	-0.4544784	0	0	0	0
44.93009	-0.08210448	-0.454502	-0.001168411	-0.001053835	-0.02920404	-0.02634024
44.9468	-0.08210448	-0.454502	0	0	0.02989965	0.02696764
44.96893	-0.08210448	-0.454502	0	0	0	0
44.99248	-0.08210448	-0.454502	0	0	0	0
45.01686	-0.08213062	-0.4545255	-0.001071729	-0.0009654114	-0.02235596	-0.0201382
45.03343	-0.08213062	-0.4545255	0	0	0.02616871	0.02357273
45.05513	-0.08213062	-0.4545255	0	0	0	0
45.0717	-0.08213062	-0.4545255	0	0	0	0
45.10225	-0.08213062	-0.4545255	0	0	0	0
45.1199	-0.08213062	-0.4545255	0	0	0	0
45.14361	-0.08215676	-0.4545491	-0.001102738	-0.0009930611	-0.02666508	-0.02401301
45.16018	-0.08215676	-0.4545491	0	0	0.02737982	0.02465666
45.18266	-0.08215676	-0.4545491	0	0	0	0
45.19922	-0.08215676	-0.4545491	0	0	0	0
45.22435	-0.08215676	-0.4545491	0	0	0	0
45.24091	-0.08215676	-0.4545491	0	0	0	0
45.26245	-0.08215676	-0.4545491	0	0	0	0
45.27914	-0.08215676	-0.4545491	0	0	0	0
45.30101	-0.08215676	-0.4545962	0	-0.002152729	0	-0.05582955
45.32306	-0.08215676	-0.4545962	0	0	0	0.04902059
45.34438	-0.0821829	-0.4546197	-0.001225682	-0.001104092	-0.028264	-0.02546016
45.36124	-0.0821829	-0.4546197	0	0	0.03209842	0.0289142
45.38778	-0.08223517	-0.4546668	-0.001969406	-0.00177516	-0.04537422	-0.04089889
45.40505	-0.08223517	-0.4546668	0	0	0.04495541	0.04052138
45.42725	-0.08233973	-0.454761	-0.004708504	-0.004242452	-0.1192912	-0.1074836
45.44382	-0.08233973	-0.454761	0	0	0.121439	0.1094189
45.46538	-0.08241814	-0.4548317	-0.00363671	-0.003277324	-0.09538187	-0.08595607
45.4912	-0.08241814	-0.4548317	0	0	0.0767586	0.06917318
45.51609	-0.08247042	-0.4548788	-0.002100395	-0.00189296	-0.04142074	-0.03733003
45.533	-0.08247042	-0.4548788	0	0	0.05024235	0.04528042
45.55658	-0.08249655	-0.4549024	-0.001108847	-0.000998847	-0.02738881	-0.02467179
45.58521	-0.08249655	-0.4549024	0	0	0.02124059	0.01913348
45.60879	-0.08252269	-0.4549259	-0.001108308	-0.0009983622	-0.02122563	-0.01912001
45.63605	-0.08252269	-0.4549259	0	0	0.02179731	0.01963498
45.66405	-0.08254883	-0.4549495	-0.0009337098	-0.0008421487	-0.01689792	-0.01524089
45.68061	-0.08254883	-0.4549495	0	0	0.02095423	0.01889943
45.70139	-0.08257496	-0.454973	-0.001258091	-0.001133286	-0.03369098	-0.03034877
45.71923	-0.08257496	-0.454973	0	0	0.03257937	0.02934744
45.74139	-0.0826011	-0.4549966	-0.001179474	-0.001062468	-0.02948617	-0.02656109
45.75803	-0.0826011	-0.4549966	0	0	0.03040235	0.02738638
45.7801	-0.0826011	-0.4549966	0	0	0	0
45.79934	-0.0826011	-0.4549966	0	0	0	0
45.82489	-0.08262724	-0.4550201	-0.001022927	-0.0009226168	-0.02284106	-0.02060123
45.84145	-0.08262724	-0.4550201	0	0	0.02428712	0.02190549
45.86282	-0.08267951	-0.4550672	-0.00244655	-0.002205242	-0.06449601	-0.05813466
45.87939	-0.08267951	-0.4550672	0	0	0.06449601	0.05813466
45.90765	-0.08273178	-0.4551144	-0.001849774	-0.001667328	-0.04126518	-0.03719513
45.9296	-0.08273178	-0.4551144	0	0	0.03683585	0.03320267
45.95396	-0.08281019	-0.455185	-0.003219413	-0.002901541	-0.06951811	-0.06265417
45.97172	-0.08281019	-0.455185	0	0	0.07643782	0.06889064
45.99585	-0.08291473	-0.4552793	-0.004333004	-0.003905632	-0.1034302	-0.09322874
46.01242	-0.08291473	-0.4552793	0	0	0.1064746	0.09597282
46.03687	-0.08458716	-0.456788	-0.06839564	-0.06170047	-1.667396	-1.504176
46.05439	-0.08458716	-0.456788	0	0	1.629659	1.470133
46.08418	-0.08526644	-0.4574013	-0.0228003	-0.02058759	-0.4819352	-0.4351647
46.10257	-0.08526644	-0.4574013	0	0	0.4732352	0.427309
46.12713	-0.08526644	-0.4574013	0	0	0	0
46.1438	-0.08526644	-0.4574013	0	0	0	0
46.16467	-0.08526644	-0.4574013	0	0	0	0
46.18137	-0.08526644	-0.4574013	0	0	0	0
46.2058	-0.08526644	-0.4574013	0	0	0	0
46.22325	-0.08526644	-0.4574013	0	0	0	0
46.24378	-0.08526644	-0.4574013	0	0	0	0
46.26035	-0.08526644	-0.4574013	0	0	0	0
46.28863	-0.08526644	-0.4574013	0	0	0	0
46.31226	-0.08526644	-0.4574013	0	0	0	0
46.34813	-0.08526644	-0.4574013	0	0	0	0
46.3647	-0.08526644	-0.4574013	0	0	0	0
46.38723	-0.08526644	-0.4574013	0	0	0	0
46.4076	-0.08526644	-0.4574013	0	0	0	0
46.43109	-0.08526644	-0.4574013	0	0	0	0
46.44933	-0.08526644	-0.4574013	0	0	0	0
46.47604	-0.08526644	-0.4574013	0	0	0	0
46.49261	-0.08526644	-0.4574013	0	0	0	0
46.51683	-0.08526644	-0.4574013	0	0	0	0
46.5334	-0.08526644	-0.4574013	0	0	0	0
46.55705	-0.08526644	-0.4574013	0	0	0	0
46.57362	-0.08526644	-0.4574013	0	0	0	0
46.59603	-0.08526644	-0.4574013	0	0	0	0
46.6126	-0.08526644	-0.4574013	0	0	0	0
46.63506	-0.08526644	-0.4574013	0	0	0	0
46.65467	-0.08526644	-0.4574013	0	0	0	0
46.67742	-0.08526644	-0.4574013	0	0	0	0
46.69399	-0.08526644	-0.4574013	0	0	0	0
46.71621	-0.08526644	-0.4574013	0	0	0	0
46.73278	-0.08526644	-0.4574013	0	0	0	0
46.75434	-0.08526644	-0.4574013	0	0	0	0
46.77193	-0.08526644	-0.4574013	0	0	0	0
46.79513	-0.08526644	-0.4574013	0	0	0	0
46.81179	-0.08526644	-0.4574013	0	0	0	0
46.83379	-0.08526644	-0.4574013	0	0	0	0
46.85114	-0.08526644	-0.4574013	0	0	0	0
46.87424	-0.08526644	-0.4574013	0	0	0	0
46.89365	-0.08526644	-0.4574013	0	0	0	0
46.91779	-0.08526644	-0.4574013	0	0	0	0
46.93436	-0.08526644	-0.4574013	0	0	0	0
46.95698	-0.08526644	-0.4574013	0	0	0	0
46.97355	-0.08526644	-0.4574013	0	0	0	0
46.99517	-0.08526644	-0.4574013	0	0	0	0
47.01174	-0.08526644	-0.4574013	0	0	0	0
47.03379	-0.08526644	-0.4574013	0	0	0	0
47.05202	-0.08526644	-0.4574013	0	0	0	0
47.08293	-0.08526644	-0.4574013	0	0	0	0
47.10023	-0.08526644	-0.4574013	0	0	0	0
47.12617	-0.08526644	-0.4574013	0	0	0	0
47.14282	-0.08526644	-0.4574013	0	0	0	0
47.17239	-0.08526644	-0.4574013	0	0	0	0
47.18993	-0.08526644	-0.4574013	0	0	0	0
47.21432	-0.08526644	-0.4574013	0	0	0	0
47.23123	-0.08526644	-0.4574013	0	0	0	0
47.25381	-0.08526644	-0.4574013	0	0	0	0
47.27043	-0.08526644	-0.4574013	0	0	0	0
47.2937	-0.08526644	-0.4574013	0	0	0	0
47.31061	-0.08526644	-0.4574013	0	0	0	0
47.33469	-0.08526644	-0.4574013	0	0	0	0
47.35129	-0.08526644	-0.4574013	0	0	0	0
47.37331	-0.08526644	-0.4574013	0	0	0	0
47.38988	-0.08526644	-0.4574013	0	0	0	0
47.41698	-0.08526644	-0.4574013	0	0	0	0
47.43898	-0.08526644	-0.4574013	0	0	0	0
47.46465	-0.08526644	-0.4574013	0	0	0	0
47.48616	-0.08526644	-0.4574013	0	0	0	0
47.50862	-0.08526644	-0.4574013	0	0	0	0
47.52978	-0.08526644	-0.4574013	0	0	0	0
47.55147	-0.08526644	-0.4574013	0	0	0	0
47.56804	-0.08526644	-0.4574013	0	0	0	0
47.59013	-0.08526644	-0.4574013	0	0	0	0
47.6067	-0.08526644	-0.4574013	0	0	0	0
47.62847	-0.08526644	-0.4574013	0	0	0	0
47.64783	-0.08526644	-0.4574013	0	0	0	0
47.6743	-0.08526644	-0.4574013	0	0	0	0
47.69087	-0.08526644	-0.4574013	0	0	0	0
47.71259	-0.08526644	-0.4574013	0	0	0	0
47.72955	-0.08526644	-0.4574013	0	0	0	0
47.75221	-0.08526644	-0.4574013	0	0	0	0
47.7696	-0.08526644	-0.4574013	0	0	0	0
47.79061	-0.08526644	-0.4574013	0	0	0	0
47.80727	-0.08526644	-0.4574013	0	0	0	0
47.83338	-0.08526644	-0.4574013	0	0	0	0
47.85007	-0.08526644	-0.4574013	0	0	0	0
47.87227	-0.08526644	-0.4574013	0	0	0	0
47.88884	-0.08526644	-0.4574013	0	0	0	0
47.90968	-0.08526644	-0.4574013	0	0	0	0
47.92624	-0.08526644	-0.4574013	0	0	0	0
47.95037	-0.08526644	-0.4574013	0	0	0	0
47.96724	-0.08526644	-0.4574013	0	0	0	0
47.98963	-0.08526644	-0.4574013	0	0	0	0
48.01664	-0.08526644	-0.4574013	0	0	0	0
48.04417	-0.08526644	-0.4574013	0	0	0	0
48.06073	-0.08526644	-0.4574013	0	0	0	0
48.08712	-0.08526644	-0.4574013	0	0	0	0
48.10585	-0.08526644	-0.4574013	0	0	0	0
48.13071	-0.08526644	-0.4574013	0	0	0	0
48.14801	-0.08526644	-0.4574013	0	0	0	0
48.17104	-0.08526644	-0.4574013	0	0	0	0
48.19223	-0.08526644	-0.4574013	0	0	0	0
48.21772	-0.08526644	-0.4574013	0	0	0	0
48.29673	-0.08526644	-0.4574013	0	0	0	0
48.3191	-0.08526644	-0.4574013	0	0	0	0
48.33854	-0.08526644	-0.4574013	0	0	0	0
48.36292	-0.08526644	-0.4574013	0	0	0	0
48.38047	-0.08526644	-0.4574013	0	0	0	0
48.40494	-0.08526644	-0.4574013	0	0	0	0
48.4215	-0.08526644	-0.4574013	0	0	0	0
48.44698	-0.08526644	-0.4574013	0	0	0	0
48.46981	-0.08526644	-0.4574013	0	0	0	0
48.49818	-0.08526644	-0.4574013	0	0	0	0
48.51475	-0.08526644	-0.4574013	0	0	0	0
48.54007	-0.08526644	-0.4574013	0	0	0	0
48.56305	-0.08526644	-0.4574013	0	0	0	0
48.58976	-0.08526644	-0.4574013	0	0	0	0
48.60633	-0.08526644	-0.4574013	0	0	0	0
48.62849	-0.08526644	-0.4574013	0	0	0	0
48.64969	-0.08526644	-0.4574013	0	0	0	0
48.67544	-0.08526644	-0.4574013	0	0	0	0
48.69473	-0.08526644	-0.4574013	0	0	0	0
48.71964	-0.08526644	-0.4574013	0	0	0	0
48.73658	-0.08526644	-0.4574013	0	0	0	0
48.76513	-0.08526644	-0.4574013	0	0	0	0
48.78191	-0.08526644	-0.4574013	0	0	0	0
48.81155	-0.08526644	-0.4574013	0	0	0	0
48.83079	-0.08526644	-0.4574013	0	0	0	0
48.85856	-0.08526644	-0.4574013	0	0	0	0
48.87939	-0.08526644	-0.4574013	0	0	0	0
48.90524	-0.08526644	-0.4574013	0	0	0	0
48.92181	-0.08526644	-0.4574013	0	0	0	0
48.94418	-0.08526644	-0.4574013	0	0	0	0
48.9624	-0.08526644	-0.4574013	0	0	0	0
48.99094	-0.08526644	-0.4574013	0	0	0	0
49.00751	-0.08526644	-0.4574013	0	0	0	0
49.02891	-0.08526644	-0.4574013	0	0	0	0
49.04548	-0.08526644	-0.4574013	0	0	0	0
49.06907	-0.08526644	-0.4574013	0	0	0	0
49.09124	-0.08526644	-0.4574013	0	0	0	0
49.11663	-0.08526644	-0.4574013	0	0	0	0
49.13407	-0.08526644	-0.4574013	0	0	0	0
49.16153	-0.08526644	-0.4574013	0	0	0	0
49.1781	-0.08526644	-0.4574013	0	0	0	0
49.19937	-0.08526644	-0.4574013	0	0	0	0
49.21756	-0.08526644	-0.4574013	0	0	0	0
49.24065	-0.08526644	-0.4574013	0	0	0	0
49.26012	-0.08526644	-0.4574013	0	0	0	0
49.2833	-0.08526644	-0.4574013	0	0	0	0
49.30005	-0.08526644	-0.4574013	0	0	0	0
49.32363	-0.08526644	-0.4574013	0	0	0	0
49.34019	-0.08526644	-0.4574013	0	0	0	0
49.36514	-0.08526644	-0.4574013	0	0	0	0
49.38181	-0.08526644	-0.4574013	0	0	0	0
49.40516	-0.08526644	-0.4574013	0	0	0	0
49.42177	-0.08526644	-0.4574013	0	0	0	0
49.44607	-0.08526644	-0.4574013	0	0	0	0
49.46421	-0.08526644	-0.4574013	0	0	0	0
49.48945	-0.08526644	-0.4574013	0	0	0	0
49.50612	-0.08526644	-0.4574013	0	0	0	0
49.53427	-0.08526644	-0.4574013	0	0	0	0
49.55083	-0.08526644	-0.4574013	0	0	0	0
49.57447	-0.08529257	-0.4574249	-0.001105311	-0.000998467	-0.02749056	-0.02483322
49.59105	-0.08529257	-0.4574249	0	0	0.02748795	0.02483086
49.61563	-0.08537094	-0.4574485	-0.003188225	-0.0009589831	-0.07747257	-0.0233029
49.63229	-0.08537094	-0.4574485	0	0	0.07729345	0.02324902
49.65758	-0.08547544	-0.4575429	-0.004132857	-0.003734158	-0.09851811	-0.08901402
49.68087	-0.08547544	-0.4575429	0	0	0.08508629	0.07687797
49.70423	-0.08550156	-0.4575665	-0.001118167	-0.001010369	-0.02396932	-0.02165853
49.72114	-0.08550156	-0.4575665	0	0	0.02776554	0.02508877
49.74232	-0.08550156	-0.4575665	0	0	0	0
49.76031	-0.08550156	-0.4575665	0	0	0	0
49.78819	-0.08550156	-0.4575665	0	0	0	0
49.80476	-0.08550156	-0.4575665	0	0	0	0
49.83599	-0.08550156	-0.4575665	0	0	0	0
49.85255	-0.08550156	-0.4575665	0	0	0	0
49.87743	-0.08547544	-0.4575901	0.001050093	-0.0009476595	0.02533833	-0.02286665
49.89524	-0.08547544	-0.4575901	0	0	-0.02460234	0.02220245
49.9194	-0.08547544	-0.4575901	0	0	0	0
49.93603	-0.08547544	-0.4575901	0	0	0	0
49.95824	-0.08547544	-0.4575901	0	0	0	0
49.97493	-0.08547544	-0.4575901	0	0	0	0
49.99712	-0.08547544	-0.4575901	0	0	0	0
50.0174	-0.08547544	-0.4575901	0	0	0	0
50.03963	-0.08547544	-0.4575901	0	0	0	0
50.0562	-0.08547544	-0.4575901	0	0	0	0
50.08239	-0.08550156	-0.4576137	-0.0009973283	-0.0009011797	-0.02332444	-0.02107582
50.10346	-0.08550156	-0.4576137	0	0	0.02110118	0.0190669
50.12894	-0.08550156	-0.4576137	0	0	0	0
50.14551	-0.08550156	-0.4576137	0	0	0	0
50.16812	-0.08555381	-0.4576609	-0.002310995	-0.002087903	-0.05898865	-0.05329417
50.18608	-0.08555381	-0.4576609	0	0	0.05696948	0.05146993
50.21042	-0.08555381	-0.4577081	0	-0.001939351	0	-0.0458504
50.23067	-0.08555381	-0.4577081	0	0	0	0.04348925
50.2513	-0.08557993	-0.4577317	-0.001265974	-0.001143927	-0.03096358	-0.0279785
50.26813	-0.08557993	-0.4577317	0	0	0.03379507	0.03053702
50.29322	-0.08557993	-0.4577317	0	0	0	0
50.30979	-0.08557993	-0.4577317	0	0	0	0
50.33656	-0.08557993	-0.4577317	0	0	0	0
50.35313	-0.08557993	-0.4577317	0	0	0	0
50.37581	-0.08557993	-0.4577317	0	0	0	0
50.39241	-0.08557993	-0.4577317	0	0	0	0
50.41451	-0.08557993	-0.4577317	0	0	0	0
50.43218	-0.08557993	-0.4577317	0	0	0	0
50.45441	-0.08557993	-0.4577317	0	0	0	0
50.47139	-0.08557993	-0.4577317	0	0	0	0
50.49324	-0.08557993	-0.4577317	0	0	0	0
50.5098	-0.08557993	-0.4577317	0	0	0	0
50.53433	-0.08560605	-0.4577081	-0.001064954	0.0009622861	-0.02591399	0.02341572
