Time	Pos X	Pos Y	Vel X	Vel Y	Acc X	Acc Y
0.01656671	0.1197898	-0.1876299	7.230749	-11.32572	436.4625	-683.6428
0.03313382	0.1442367	-0.1937416	1.475628	-0.3689072	-173.6932	330.6835
0.04970054	0.17724	-0.198631	1.992145	-0.295133	15.58882	2.226552
0.06641647	0.2114656	-0.1998533	2.047486	-0.07312436	1.662741	6.670403
0.08283397	0.2444689	-0.198631	2.010253	0.07445364	-1.123732	4.454051
0.09940108	0.2493583	-0.1961863	0.295125	0.1475625	-51.99782	2.216454
0.1159654	0.2493583	-0.1961863	0	0	-8.907698	-4.453849
0.1325337	0.2505806	-0.1961863	0.07377692	8.993784E-07	2.226714	2.714479E-05
0.1490996	0.2505806	-0.1949639	-1.799014E-06	0.07378656	-2.226663	2.226873
0.1656671	0.2505806	-0.1925192	0	0.14756	5.429607E-05	2.226555
0.1822331	0.251803	-0.1912969	0.07378656	0.07378566	2.226953	-2.226583
0.1988013	0.251803	-0.1888522	1.798757E-06	0.147552	-2.226846	2.22629
0.2153669	0.251803	-0.1876299	0	0.07378919	-5.428764E-05	-2.22621
0.231934	0.251803	-0.1876299	0	0	0	-2.227084
0.2485007	0.2579147	-0.1888522	0.3689152	-0.07378305	11.1341	-2.22682
0.2650678	0.2640264	-0.1937416	0.3689066	-0.2951253	-0.0002599421	-6.680254
0.2819424	0.2738051	-0.198631	0.5794941	-0.289748	6.297152	0.1607969
0.2981996	0.2823616	-0.1998533	0.5263152	-0.07518854	-1.60507	6.475928
0.3149033	0.2835839	-0.2010757	0.07317974	-0.07317796	-13.74766	0.06099902
0.3313516	0.2860286	-0.2010757	0.1486267	9.059399E-07	2.27579	2.207375
0.3479006	0.2933627	-0.2047427	0.4431766	-0.2215883	8.926499	-6.715384
0.3644673	0.3019191	-0.2096321	0.5164791	-0.2951319	2.213526	-2.220809
0.3814935	0.3080308	-0.2120768	0.3589606	-0.1435836	-4.689034	4.511316
0.3975999	0.3080308	-0.2132991	0	-0.07589158	-10.83405	2.04306
0.4141639	0.3080308	-0.2132991	0	0	0	2.322948
0.4335385	0.3080308	-0.2132991	0	0	0	0
0.45029	0.3080308	-0.2132991	0	0	0	0
0.4666755	0.3080308	-0.2132991	0	0	0	0
0.4833855	0.3092531	-0.2132991	0.0731485	0	2.210222	0
0.4998077	0.3092531	-0.2132991	0	0	-2.207773	0
0.5163748	0.3092531	-0.2132991	0	0	0	0
0.5329424	0.3092531	-0.2132991	0	0	0	0
0.5495095	0.3092531	-0.2132991	0	0	0	0
0.5660754	0.3092531	-0.2132991	0	0	0	0
0.5826409	0.3092531	-0.2132991	0	0	0	0
0.5992056	0.3080308	-0.2132991	-0.07379007	0	-2.227273	0
0.6157747	0.3068085	-0.2132991	-0.0737725	0	0.0005304528	0
0.6324275	0.3068085	-0.2132991	0	0	2.220602	0
0.6489089	0.3043638	-0.2132991	-0.1483294	0	-4.476622	0
0.6655633	0.3019191	-0.2132991	-0.1467911	0	0.04642201	0
0.6820416	0.2982521	-0.2132991	-0.2225349	-9.042899E-07	-2.286075	-2.7293E-05
0.6989865	0.2958074	-0.2120768	-0.1442745	0.07213724	2.341501	2.158326
0.7153013	0.290918	-0.2108544	-0.299688	0.07492109	-4.672721	0.08370026
0.73211	0.2848063	-0.2096321	-0.3636043	0.07272174	-1.929632	-0.0663982
0.7483081	0.2750275	-0.2047427	-0.6037007	0.3018503	-7.274166	6.941875
0.7648728	0.25547	-0.1974086	-1.180672	0.4427522	-17.61057	4.300669
0.7814407	0.2383572	-0.1888522	-1.032892	0.5164455	4.460253	2.224194
0.7980082	0.2187997	-0.1790735	-1.180473	0.590237	-4.453878	2.226966
0.8146985	0.1943528	-0.1656277	-1.46474	0.8056067	-8.547367	6.475769
0.8314444	0.1674612	-0.1521819	-1.605858	0.8029284	-4.220527	-0.08009933
0.847706	0.145459	-0.1387361	-1.353018	0.8268444	7.660074	0.7245609
0.8642746	0.1124557	-0.1216233	-1.991911	1.032843	-19.46051	6.274653
0.8812432	0.1038993	-0.1167339	-0.5042512	0.2881435	44.35849	-22.20516
0.8974077	0.0904535	-0.1069551	-0.8318106	0.6049531	-9.886189	9.561745
0.9144852	0.08189708	-0.09962108	-0.5010344	0.4294578	9.950553	-5.279325
0.9306098	0.0770077	-0.0947317	-0.3032246	0.3032246	5.95775	-3.801965
0.9471082	0.07211833	-0.09106467	-0.2963538	0.2222654	0.210612	-2.481654
0.9636745	0.06967364	-0.08984232	-0.1475699	0.07378516	4.499769	-4.490586
0.9802495	0.06845129	-0.08861998	-0.07374623	0.07374623	2.227541	-0.00117442
0.9968088	0.06478426	-0.08495294	-0.2214494	0.2214494	-4.457722	4.457722
1.013373	0.06356191	-0.08373059	-0.07379392	0.07379392	4.45771	-4.45771
1.029942	0.05745019	-0.07639653	-0.368872	0.4426466	-8.905858	11.13248
1.046749	0.05133847	-0.06784012	-0.36364	0.5090956	0.1567608	1.990939
1.063113	0.04644909	-0.06050605	-0.2987914	0.448187	1.954982	-1.836205
1.079642	0.04278205	-0.05561667	-0.2218471	0.2957962	2.339201	-4.632866
1.096209	0.04033737	-0.05194964	-0.1475699	0.2213554	2.244304	-2.249249
1.112945	0.03789268	-0.04583792	-0.1460692	0.3651729	0.04506352	4.318484
1.129478	0.03544799	-0.04094854	-0.1478662	0.2957322	-0.05401292	-2.08721
1.146129	0.03422564	-0.03605916	-0.07341066	0.2936422	2.243722	-0.06298161
1.162474	0.0330033	-0.03239213	-0.07478243	0.2243484	-0.04157379	-2.100061
1.179041	0.03178096	-0.0287251	-0.07378307	0.221349	0.03036463	-0.0911351
1.195608	0.03055861	-0.02628041	-0.07378307	0.1475659	0	-2.226842
1.212175	0.03055861	-0.02505806	0	0.07377989	2.226794	-2.226883
1.228997	0.02933627	-0.02261337	-0.07266299	0.1453259	-2.176219	2.142765
1.245308	0.02689158	-0.01894634	-0.1498804	0.2248207	-2.330525	2.399261
1.261873	0.02444689	-0.01527931	-0.1475809	0.2213712	0.06994332	-0.1049227
1.278515	0.02322455	-0.01405696	-0.07345052	0.07345063	2.232384	-4.454525
1.295076	0.02322455	-0.01283462	0	0.07380792	2.212173	0.01076089
1.311575	0.02322455	-0.01283462	0	0	0	-2.232548
1.328142	0.02322455	-0.01283462	0	0	0	0
1.344709	0.02322455	-0.01283462	0	0	0	0
1.361275	0.02322455	-0.01283462	0	0	0	0
1.377842	0.02322455	-0.01283462	0	0	0	0
1.394858	0.02322455	-0.01283462	0	0	0	0
1.410975	0.02322455	-0.01283462	0	0	0	0
1.42754	0.02322455	-0.01283462	0	0	0	0
1.444108	0.02322455	-0.01283462	0	0	0	0
1.460836	0.02322455	-0.01283462	0	0	0	0
1.477241	0.02322455	-0.01283462	0	0	0	0
1.493809	0.02322455	-0.01283462	0	0	0	0
1.510408	0.02322455	-0.01283462	0	0	0	0
1.526941	0.02322455	-0.01283462	0	0	0	0
1.543507	0.02322455	-0.01283462	0	0	0	0
1.560074	0.02322455	-0.01283462	0	0	0	0
1.576642	0.02322455	-0.01283462	0	0	0	0
1.593208	0.02322455	-0.01283462	0	0	0	0
1.610175	0.02322455	-0.01283462	0	0	0	0
1.626342	0.02322455	-0.01283462	0	0	0	0
1.642912	0.02322455	-0.01283462	0	0	0	0
1.659827	0.02322455	-0.01283462	0	0	0	0
1.676046	0.02322455	-0.01283462	0	0	0	0
1.692614	0.02322455	-0.01283462	0	0	0	0
1.709185	0.02322455	-0.01283462	0	0	0	0
1.725919	0.02322455	-0.01283462	0	0	0	0
1.742396	0.02322455	-0.01283462	0	0	0	0
1.759076	0.02322455	-0.01283462	0	0	0	0
1.775555	0.02322455	-0.01283462	0	0	0	0
1.792132	0.02322455	-0.01283462	0	0	0	0
1.808574	0.02322455	-0.01283462	0	0	0	0
1.8257	0.02322455	-0.01283462	0	0	0	0
1.842154	0.02322455	-0.01283462	0	0	0	0
1.858275	0.02322455	-0.01283462	0	0	0	0
1.874857	0.02322455	-0.01283462	0	0	0	0
1.89142	0.02322455	-0.01283462	0	0	0	0
1.907983	0.02322455	-0.01283462	0	0	0	0
1.924647	0.02322455	-0.01283462	0	0	0	0
1.941109	0.02322455	-0.01283462	0	0	0	0
1.958387	0.02322455	-0.01283462	0	0	0	0
1.974242	0.02322455	-0.01283462	0	0	0	0
1.990808	0.02322455	-0.01283462	0	0	0	0
2.00775	0.02322455	-0.01283462	0	0	0	0
2.023942	0.02322455	-0.01283462	0	0	0	0
2.040508	0.02322455	-0.01283462	0	0	0	0
2.057074	0.02322455	-0.01283462	0	0	0	0
2.073642	0.02322455	-0.01283462	0	0	0	0
2.090209	0.02322455	-0.01283462	0	0	0	0
2.106774	0.02322455	-0.01283462	0	0	0	0
2.123343	0.02322455	-0.01283462	0	0	0	0
2.140567	0.02322455	-0.01283462	0	0	0	0
2.156651	0.02322455	-0.01283462	0	0	0	0
2.173159	0.02322455	-0.01283462	0	0	0	0
2.189609	0.02322455	-0.01283462	0	0	0	0
2.206176	0.02322455	-0.01283462	0	0	0	0
2.22274	0.02322455	-0.01283462	0	0	0	0
2.239309	0.02322455	-0.01283462	0	0	0	0
2.25654	0.02322455	-0.01283462	0	0	0	0
2.272442	0.02322455	-0.01283462	0	0	0	0
2.289006	0.02322455	-0.01283462	0	0	0	0
2.305575	0.02322455	-0.01283462	0	0	0	0
2.322454	0.02322455	-0.01283462	0	0	0	0
2.338706	0.02322455	-0.01283462	0	0	0	0
2.355275	0.02322455	-0.01283462	0	0	0	0
2.371841	0.02322455	-0.01283462	0	0	0	0
2.388497	0.02322455	-0.01283462	0	0	0	0
2.4055	0.02322455	-0.01283462	0	0	0	0
2.421542	0.02322455	-0.01283462	0	0	0	0
2.438109	0.02322455	-0.01283462	0	0	0	0
2.455007	0.02322455	-0.01283462	0	0	0	0
2.471242	0.02322455	-0.01283462	0	0	0	0
2.487887	0.02322455	-0.01283462	0	0	0	0
2.504375	0.02322455	-0.01283462	0	0	0	0
2.520942	0.02322455	-0.01283462	0	0	0	0
2.537509	0.02322455	-0.01283462	0	0	0	0
2.554074	0.02322455	-0.01283462	0	0	0	0
2.57064	0.02322455	-0.01283462	0	0	0	0
2.587692	0.02322455	-0.01283462	0	0	0	0
2.603831	0.02322455	-0.01283462	0	0	0	0
2.620342	0.02322455	-0.01283462	0	0	0	0
2.636909	0.02322455	-0.01283462	0	0	0	0
2.653542	0.02322455	-0.01283462	0	0	0	0
2.670311	0.02322455	-0.01283462	0	0	0	0
2.686885	0.02322455	-0.01283462	0	0	0	0
2.703175	0.02322455	-0.01283462	0	0	0	0
2.719951	0.02322455	-0.01283462	0	0	0	0
2.736309	0.02322455	-0.01283462	0	0	0	0
2.753383	0.02322455	-0.01283462	0	0	0	0
2.769442	0.02322455	-0.01283462	0	0	0	0
2.786349	0.02322455	-0.01283462	0	0	0	0
2.802575	0.02322455	-0.01283462	0	0	0	0
2.819142	0.02322455	-0.01283462	0	0	0	0
2.835709	0.02322455	-0.01283462	0	0	0	0
2.853219	0.02322455	-0.01283462	0	0	0	0
2.869052	0.02322455	-0.01283462	0	0	0	0
2.885639	0.02322455	-0.01283462	0	0	0	0
2.902272	0.02322455	-0.01283462	0	0	0	0
2.918542	0.02322455	-0.01283462	0	0	0	0
2.935339	0.02322455	-0.01283462	0	0	0	0
2.951675	0.02322455	-0.01283462	0	0	0	0
2.968242	0.02322455	-0.01283462	0	0	0	0
2.985031	0.02322455	-0.01283462	0	0	0	0
3.001432	0.02322455	-0.01283462	0	0	0	0
3.017942	0.02322455	-0.01283462	0	0	0	0
3.034508	0.02322455	-0.01283462	0	0	0	0
3.051075	0.02322455	-0.01283462	0	0	0	0
3.067947	0.02322455	-0.01283462	0	0	0	0
3.084426	0.02322455	-0.01283462	0	0	0	0
3.100988	0.02322455	-0.01283462	0	0	0	0
3.117727	0.02322455	-0.01283462	0	0	0	0
3.133909	0.02322455	-0.01283462	0	0	0	0
3.15074	0.02322455	-0.01283462	0	0	0	0
3.167043	0.02322455	-0.01283462	0	0	0	0
3.183608	0.02322455	-0.01283462	0	0	0	0
3.200175	0.02322455	-0.01283462	0	0	0	0
3.216741	0.02322455	-0.01283462	0	0	0	0
3.233497	0.02322455	-0.01283462	0	0	0	0
3.250126	0.02322455	-0.01283462	0	0	0	0
3.266442	0.02322455	-0.01283462	0	0	0	0
3.283071	0.02322455	-0.01283462	0	0	0	0
3.299576	0.02322455	-0.01283462	0	0	0	0
3.316301	0.02322455	-0.01283462	0	0	0	0
3.333205	0.02322455	-0.01283462	0	0	0	0
3.349276	0.02322455	-0.01283462	0	0	0	0
3.365841	0.02322455	-0.01283462	0	0	0	0
3.382878	0.02322455	-0.01283462	0	0	0	0
3.398975	0.02322455	-0.01283462	0	0	0	0
3.415541	0.02322455	-0.01283462	0	0	0	0
3.432109	0.02322455	-0.01283462	0	0	0	0
3.449438	0.02322455	-0.01283462	0	0	0	0
3.465599	0.02322455	-0.01283462	0	0	0	0
3.482227	0.02322455	-0.01283462	0	0	0	0
3.498375	0.02322455	-0.01283462	0	0	0	0
3.514943	0.02322455	-0.01283462	0	0	0	0
3.531508	0.02322455	-0.01283462	0	0	0	0
3.548606	0.02322455	-0.01283462	0	0	0	0
3.564709	0.02322455	-0.01283462	0	0	0	0
3.581205	0.02322455	-0.01283462	0	0	0	0
3.597775	0.02322455	-0.01283462	0	0	0	0
3.61434	0.02322455	-0.01283462	0	0	0	0
3.630908	0.02322455	-0.01283462	0	0	0	0
3.647475	0.02322455	-0.01283462	0	0	0	0
3.66417	0.02322455	-0.01283462	0	0	0	0
3.680609	0.02322455	-0.01283462	0	0	0	0
3.697175	0.02322455	-0.01283462	0	0	0	0
3.713742	0.02322455	-0.01283462	0	0	0	0
3.730308	0.02322455	-0.01283462	0	0	0	0
3.746875	0.02322455	-0.01283462	0	0	0	0
3.763441	0.02322455	-0.01283462	0	0	0	0
3.780008	0.02322455	-0.01283462	0	0	0	0
3.796574	0.02322455	-0.01283462	0	0	0	0
3.813141	0.02322455	-0.01283462	0	0	0	0
3.829707	0.02322455	-0.01283462	0	0	0	0
3.846369	0.02322455	-0.01283462	0	0	0	0
3.863039	0.02322455	-0.01283462	0	0	0	0
3.87941	0.02322455	-0.01283462	0	0	0	0
3.895976	0.02322455	-0.01283462	0	0	0	0
3.918125	0.01589048	-0.01283462	-0.3311264	0	-8.552791	0
3.934694	-0.02689158	-0.001833517	-2.582107	0.6639704	-58.13857	17.1491
3.951645	-0.05256081	0.00550055	-1.51427	0.4326485	31.8565	-6.900965
3.967954	-0.0990099	0.01650165	-2.848144	0.6745604	-40.10433	7.273336
3.984395	-0.1307909	0.02383572	-1.933018	0.4460811	27.94307	-6.976543
4.00132	-0.1564601	0.0287251	-1.516617	0.2888794	12.47965	-4.711371
4.017972	-0.17724	0.03239213	-1.247952	0.2202269	8.001562	-2.044658
4.034094	-0.2029092	0.03972619	-1.592152	0.4549007	-10.50238	7.160475
4.050663	-0.2212444	0.04461557	-1.106618	0.2950981	14.85222	-4.888275
4.067485	-0.2383572	0.05072729	-1.017239	0.3632994	2.676707	2.042476
4.083793	-0.2530253	0.05561667	-0.8994527	0.2998179	3.555203	-1.916095
4.10036	-0.259137	0.05806137	-0.368916	0.1475664	16.1382	-4.631285
4.11693	-0.2628041	0.05806136	-0.221304	-4.496403E-07	4.454621	-4.453255
4.133959	-0.2664711	0.05928371	-0.2153425	0.07178106	0.177429	2.136424
4.15006	-0.2713605	0.0617284	-0.3036619	0.1518312	-2.665828	2.41623
4.166627	-0.2750275	0.0617284	-0.2213503	2.248654E-07	2.519629	-4.64768
4.183236	-0.2799169	0.06417309	-0.2943875	0.1471931	-2.201543	4.436799
4.19976	-0.2848063	0.06661777	-0.2958808	0.1479404	-0.04506843	0.02255445
4.21633	-0.290918	0.06784012	-0.3688612	0.07377268	-2.205249	-2.241128
4.232896	-0.2970297	0.07150715	-0.3689249	0.2213549	-0.001922039	4.453912
4.249463	-0.2994744	0.0727295	-0.1475675	0.0737833	6.680867	-4.453913
4.266027	-0.3068084	0.07639652	-0.442759	0.2213804	-8.909796	4.454938
4.282596	-0.3165872	0.08006356	-0.5901966	0.2213235	-4.449868	-0.001716648
4.299163	-0.3190319	0.08128591	-0.1475614	0.07378118	13.35818	-4.452644
4.31573	-0.3190319	0.08128591	0	0	4.453477	-2.226752
4.332369	-0.3190319	0.08128591	0	0	0	0
4.348862	-0.3190319	0.08128591	0	0	0	0
4.365537	-0.3190319	0.08128591	0	0	0	0
4.381996	-0.3190319	0.08128591	0	0	0	0
4.398561	-0.3190319	0.08128591	0	0	0	0
4.415143	-0.3190319	0.08128591	0	0	0	0
4.432105	-0.3190319	0.08128591	0	0	0	0
4.448261	-0.3190319	0.08128591	0	0	0	0
4.465785	-0.3165872	0.0812859	0.1395106	-4.251816E-07	4.142243	-1.262417E-05
4.481396	-0.3141425	0.08128591	0.1565984	4.772596E-07	0.5157109	2.723573E-05
4.497963	-0.3116978	0.0812859	0.1475614	-4.497179E-07	-0.2808392	-2.880744E-05
4.514528	-0.3116978	0.0812859	0	0	-4.45367	1.35733E-05
4.531942	-0.3104755	0.08006357	0.07019099	-0.07019228	2.065691	-2.065729
4.547661	-0.298252	0.07884122	0.7776278	-0.07776287	21.35141	-0.2284909
4.564229	-0.2848063	0.07517418	0.8115664	-0.2213363	1.051167	-4.446836
4.58102	-0.2762499	0.0727295	0.5095863	-0.1455961	-9.052549	2.270486
4.597364	-0.2566923	0.06784012	1.196577	-0.2991442	20.73282	-4.633958
4.613928	-0.220022	0.05683902	2.213873	-0.6641614	30.91293	-11.0919
4.630496	-0.1894634	0.04828261	1.844467	-0.5164514	-11.14967	4.458284
4.647062	-0.1552377	0.03728151	2.065984	-0.6640661	6.685492	-4.455085
4.663927	-0.1234568	0.02750275	1.884458	-0.579833	-5.429864	2.519605
4.680195	-0.09534287	0.02139103	1.728146	-0.375684	-4.717701	6.161496
4.697024	-0.07456302	0.01527931	1.234799	-0.363176	-14.9062	0.3779202
4.713329	-0.05622785	0.01038993	1.124514	-0.2998705	-3.328487	1.91062
4.729897	-0.05256082	0.01038993	0.221336	0	-27.47504	9.122181
4.746463	-0.04644909	0.00794524	0.368926	-0.1475702	4.454338	-4.453741
4.76303	-0.04033737	0.00794524	0.3689147	0	-0.0003409009	4.453869
4.779596	-0.03544799	0.006722894	0.2951403	-0.07378514	-2.226611	-2.226936
4.796162	-0.03055861	0.00550055	0.2951491	-0.07378723	0.0002635537	-6.318992E-05
4.812727	-0.02811392	0.00550055	0.1475787	0	-4.454132	2.227128
4.829296	-0.02689158	0.00550055	0.07377234	2.810414E-08	-2.227479	8.481845E-07
4.845862	-0.02689158	0.00550055	0	0	-2.22639	-8.481601E-07
4.862621	-0.02689158	0.00550055	0	0	0	0
4.878992	-0.02689158	0.00550055	0	0	0	0
4.895742	-0.02322455	0.004278206	0.218923	-0.07297433	6.609774	-2.203258
4.912229	-0.02077986	0.003055861	0.1482787	-0.07413936	-2.125445	-0.03505157
4.928694	-0.01589048	0.001833517	0.2969611	-0.07424027	4.512115	-0.003062369
4.94532	-0.01344579	0.001833517	0.1470412	7.002054E-09	-4.530589	2.243546
4.962147	-0.01344579	0.001833517	0	0	-4.395459	-2.093103E-07
4.978395	-0.01344579	0.001833517	0	0	0	0
4.994963	-0.01344579	0.001833517	0	0	0	0
5.011529	-0.01344579	0.001833517	0	0	0	0
5.028096	-0.01344579	0.001833517	0	0	0	0
5.044663	-0.01344579	0.001833517	0	0	0	0
5.061228	-0.01344579	0.001833517	0	0	0	0
5.078032	-0.01344579	0.001833517	0	0	0	0
5.09446	-0.01344579	-0.0006111723	-5.669119E-08	-0.1488124	-1.705935E-06	-4.478021
5.110929	-0.01466813	-0.003055861	-0.07422084	-0.1484418	-2.256157	0.01126431
5.127523	-0.01711282	-0.006722894	-0.14732	-0.22098	-2.210877	-2.193912
5.144063	-0.01955751	-0.00794524	-0.1478128	-0.0739064	-0.0148735	4.438818
5.160629	-0.02077986	-0.009167584	-0.07378519	-0.07378508	2.23612	0.003664596
5.177196	-0.0220022	-0.01038993	-0.07378072	-0.07378083	0.0001349193	0.0001281733
5.19376	-0.02322455	-0.01161227	-0.07379369	-0.07379363	-0.0003915133	-0.0003863411
5.210329	-0.02444689	-0.01527931	-0.07377446	-0.2213235	0.000580386	-4.452653
5.226895	-0.02566923	-0.017724	-0.07378508	-0.1475702	-0.0003204194	2.225847
5.243463	-0.02689158	-0.02016869	-0.07377882	-0.1475575	0.0001888843	0.0003827155
5.260028	-0.02933627	-0.02628041	-0.1475788	-0.3689468	-2.227383	-6.681828
5.276596	-0.03178096	-0.03116979	-0.1475574	-0.2951148	0.0006444737	2.228348
5.293163	-0.02077986	-0.0397262	0.6640469	-0.5164809	24.49427	-6.680841
5.309729	-0.02077986	-0.0397262	0	0	-20.04213	15.58832
5.326296	-0.02077986	-0.0397262	0	0	0	0
5.342863	-0.02077986	-0.0397262	0	0	0	0
5.359497	-0.02077986	-0.0397262	0	0	0	0
5.376321	-0.02077986	-0.0397262	0	0	0	0
5.392634	-0.02077986	-0.0397262	0	0	0	0
5.409202	-0.02077986	-0.0397262	0	0	0	0
5.425767	-0.02077986	-0.0397262	0	0	0	0
5.442334	-0.02077986	-0.0397262	0	0	0	0
5.458901	-0.02077986	-0.0397262	0	0	0	0
5.47612	-0.02077986	-0.0397262	0	0	0	0
5.492132	-0.02077986	-0.0397262	0	0	0	0
5.508601	-0.02077986	-0.0397262	0	0	0	0
5.525701	-0.02077986	-0.0397262	0	0	0	0
5.541735	-0.04155971	-0.0287251	-1.296015	0.6861258	-39.11494	20.70791
5.558305	-0.04522675	-0.0287251	-0.221298	1.124068E-07	32.96252	-21.04408
5.575112	-0.04522675	-0.0287251	0	0	6.630127	-3.367728E-06
5.59171	-0.04522675	-0.0287251	0	0	0	0
5.608285	-0.04522675	-0.0287251	0	0	0	0
5.624571	-0.04522675	-0.0287251	0	0	0	0
5.641141	-0.04522675	-0.0287251	0	0	0	0
5.657704	-0.04522675	-0.0287251	0	0	0	0
5.674299	-0.04522675	-0.0287251	0	0	0	0
5.691275	-0.04522675	-0.0287251	0	0	0	0
5.707404	-0.04522675	-0.0287251	0	0	0	0
5.724137	-0.04522675	-0.0287251	0	0	0	0
5.740677	-0.04522675	-0.0287251	0	0	0	0
5.757102	-0.04522675	-0.0287251	0	0	0	0
5.773779	-0.04522675	-0.0287251	0	0	0	0
5.790235	-0.04522675	-0.0287251	0	0	0	0
5.80689	-0.04522675	-0.0287251	0	0	0	0
5.823368	-0.04522675	-0.0287251	0	0	0	0
5.840268	-0.04522675	-0.0287251	0	0	0	0
5.856498	-0.04522675	-0.0287251	0	0	0	0
5.873068	-0.04155971	-0.0287251	0.2213044	-1.124101E-07	6.747045	-3.427116E-06
5.889634	-0.04155971	-0.0287251	0	0	-6.678788	3.392445E-06
5.907005	-0.04033737	-0.0287251	0.07036418	0	2.073378	0
5.922768	-0.03667033	-0.0287251	0.2326384	0	4.897446	0
5.939333	-0.0330033	-0.0287251	0.2213681	1.124424E-07	-0.3486225	3.478161E-06
5.955899	-0.02566923	-0.02628041	0.4427234	0.1475744	6.681188	4.45425
5.972469	-0.01833517	-0.02139103	0.4426214	0.295081	-0.003075982	4.451629
5.989071	-0.0110011	-0.017724	0.441757	0.2208784	-0.02606068	-2.236927
6.005602	-0.007334067	-0.01527931	0.2218214	0.147881	-6.63786	-2.203131
6.022169	-0.003667034	-0.01283462	0.2213553	0.1475702	-0.01408098	-0.009388371
6.038736	-0.003667034	-0.01283462	0	0	-6.68071	-4.453806
6.055301	-0.002444689	-0.01283462	0.07378936	5.622121E-08	2.227095	1.696857E-06
6.071869	-0.002444689	-0.01161227	-1.405328E-08	0.07377871	-2.227064	2.22674
6.088437	-0.001222344	-0.01161227	0.07377875	5.621312E-08	2.226583	-2.22658
6.105002	-0.001222344	-0.01161227	0	0	-2.226743	-1.696589E-06
6.121569	-0.001222344	-0.01161227	0	0	0	0
6.138135	-0.001222344	-0.01161227	0	0	0	0
6.154892	-0.001222344	-0.01161227	0	0	0	0
6.171381	-0.001222344	-0.01161227	0	0	0	0
6.187847	-0.001222344	-0.01161227	0	0	0	0
6.204533	-0.001222344	-0.01161227	0	0	0	0
6.220966	-0.001222344	-0.01161227	0	0	0	0
6.237533	-0.001222344	-0.01161227	0	0	0	0
6.2541	-0.001222344	-0.01161227	0	0	0	0
6.270666	-0.001222344	-0.01161227	0	0	0	0
6.287233	-0.001222344	-0.009167584	0	0.1475617	0	4.453548
6.303803	0	-0.009167584	0.07377024	0	2.22623	-4.4531
6.320369	0	-0.009167584	0	0	-2.226326	0
6.336936	0	-0.009167584	0	0	0	0
6.353512	0	-0.009167584	0	0	0	0
6.37007	0	-0.009167584	0	0	0	0
6.386698	0	-0.009167584	0	0	0	0
6.404059	0	-0.009167584	0	0	0	0
6.419769	0	-0.009167584	0	0	0	0
6.436714	0	-0.009167584	0	0	0	0
6.452903	0	-0.009167584	0	0	0	0
6.469468	0	-0.009167584	0	0	0	0
6.486035	0	-0.009167584	0	0	0	0
6.502603	0	-0.009167584	0	0	0	0
6.519169	0	-0.009167584	0	0	0	0
6.535735	0	-0.009167584	0	0	0	0
6.552906	0	-0.009167584	0	0	0	0
6.568869	0	-0.009167584	0	0	0	0
6.585433	0	-0.009167584	0	0	0	0
6.602359	0	-0.009167584	0	0	0	0
6.618567	0	-0.009167584	0	0	0	0
6.635365	0	-0.009167584	0	0	0	0
6.651701	0	-0.009167584	0	0	0	0
6.668709	0	-0.009167584	0	0	0	0
6.684835	0	-0.009167584	0	0	0	0
6.701402	0	-0.009167584	0	0	0	0
6.717968	0	-0.009167584	0	0	0	0
6.734723	0	-0.009167584	0	0	0	0
6.751101	0	-0.009167584	0	0	0	0
6.767669	0	-0.009167584	0	0	0	0
6.784345	0	-0.009167584	0	0	0	0
6.800802	0	-0.009167584	0	0	0	0
6.817379	0	-0.009167584	0	0	0	0
6.833932	0	-0.009167584	0	0	0	0
6.8505	0	-0.009167584	0	0	0	0
6.867069	0	-0.009167584	0	0	0	0
6.883645	0	-0.009167584	0	0	0	0
6.9002	0	-0.009167584	0	0	0	0
6.917476	0	-0.009167584	0	0	0	0
6.933336	0	-0.009167584	0	0	0	0
6.949903	0	-0.009167584	0	0	0	0
6.96647	0	-0.009167584	0	0	0	0
6.983039	0	-0.009167584	0	0	0	0
6.999629	0	-0.009167584	0	0	0	0
7.016436	0	-0.009167584	0	0	0	0
7.032757	0	-0.009167584	0	0	0	0
7.049409	0	-0.009167584	0	0	0	0
7.066042	0	-0.009167584	0	0	0	0
7.082436	0	-0.009167584	0	0	0	0
7.099005	0	-0.009167584	0	0	0	0
7.115579	0	-0.009167584	0	0	0	0
7.132146	0	-0.009167584	0	0	0	0
7.148716	0	-0.009167584	0	0	0	0
7.165283	0	-0.009167584	0	0	0	0
7.182061	0	-0.009167584	0	0	0	0
7.198757	0	-0.009167584	0	0	0	0
7.214982	0	-0.009167584	0	0	0	0
7.23155	0	-0.009167584	0	0	0	0
7.248502	0	-0.009167584	0	0	0	0
7.264682	0	-0.009167584	0	0	0	0
7.28125	0	-0.009167584	0	0	0	0
7.298063	0	-0.009167584	0	0	0	0
7.314664	0	-0.009167584	0	0	0	0
7.330948	0	-0.009167584	0	0	0	0
7.347517	0	-0.009167584	0	0	0	0
7.364351	0	-0.009167584	0	0	0	0
7.38065	0	-0.009167584	0	0	0	0
7.397216	0	-0.009167584	0	0	0	0
7.413851	0	-0.009167584	0	0	0	0
7.430822	0	-0.009167584	0	0	0	0
7.446917	0	-0.009167584	0	0	0	0
7.463799	0	-0.009167584	0	0	0	0
7.48005	0	-0.009167584	0	0	0	0
7.496721	0	-0.009167584	0	0	0	0
7.513358	0	-0.009167584	0	0	0	0
7.52975	0	-0.009167584	0	0	0	0
7.546317	0	-0.009167584	0	0	0	0
7.563365	0	-0.009167584	0	0	0	0
7.579449	0	-0.009167584	0	0	0	0
7.596017	0	-0.009167584	0	0	0	0
7.612586	0	-0.009167584	0	0	0	0
7.629331	0	-0.009167584	0	0	0	0
7.645716	0	-0.009167584	0	0	0	0
7.662283	0	-0.009167584	0	0	0	0
7.678849	0	-0.009167584	0	0	0	0
7.695416	0	-0.009167584	0	0	0	0
7.711982	0	-0.009167584	0	0	0	0
7.728722	0	-0.009167584	0	0	0	0
7.745386	0	-0.009167584	0	0	0	0
7.761995	0	-0.009167584	0	0	0	0
7.77825	0	-0.009167584	0	0	0	0
7.794833	0	-0.009167584	0	0	0	0
7.811383	0	-0.009167584	0	0	0	0
7.827949	0	-0.009167584	0	0	0	0
7.844516	0	-0.009167584	0	0	0	0
7.861084	0	-0.009167584	0	0	0	0
7.877646	0	-0.009167584	0	0	0	0
7.894216	0	-0.009167584	0	0	0	0
7.910784	0	-0.009167584	0	0	0	0
7.92735	0	-0.009167584	0	0	0	0
7.944197	0	-0.009167584	0	0	0	0
7.960482	0	-0.009167584	0	0	0	0
7.97705	0	-0.009167584	0	0	0	0
7.993712	0	-0.009167584	0	0	0	0
8.010183	0	-0.009167584	0	0	0	0
8.02675	0	-0.009167584	0	0	0	0
8.043386	0	-0.009167584	0	0	0	0
8.059918	0	-0.009167584	0	0	0	0
8.076449	0	-0.009167584	0	0	0	0
8.093016	0.001222344	-0.009167584	0.0737851	0	2.229341	0
8.109581	0.02689158	-0.0287251	1.549577	-1.18063	44.54332	-35.63455
8.126869	0.07945239	-0.06295075	3.040269	-1.979711	44.03359	-23.60407
8.143004	0.1686835	-0.1179563	5.530211	-3.409034	74.49693	-42.76413
8.159551	0.2139103	-0.1460702	2.733354	-1.699111	-85.57932	52.32089
8.175848	0.2334678	-0.1619606	1.200043	-0.9750351	-46.68525	22.04619
8.19275	0.2383572	-0.1656277	0.2892789	-0.2169594	-27.43322	22.83408
8.209024	0.2395795	-0.1680724	0.07510713	-0.1502152	-6.455542	2.011798
8.225549	0.2408019	-0.1705171	0.07397325	-0.1479456	-0.03457086	0.06919714
8.242638	0.2420242	-0.1717394	0.07152847	-0.07152934	-0.07273255	2.273399
8.258683	0.2420242	-0.1729618	0	-0.07617942	-2.158734	-0.1403397
8.27525	0.2420242	-0.1729618	0	0	0	2.335875
8.291817	0.2444689	-0.1754064	0.1475699	-0.147569	4.453798	-4.453771
8.308784	0.2469136	-0.1778511	0.144079	-0.144079	-0.1041022	0.1040756
8.324996	0.25547	-0.1827405	0.5277967	-0.3015986	11.56498	-4.747531
8.34157	0.2640264	-0.1864075	0.5162588	-0.2212539	-0.3519202	2.450624
8.358083	0.2689158	-0.1876299	0.2960944	-0.0740236	-6.654151	4.449823
8.37465	0.2725828	-0.1827405	0.221344	0.2951238	-2.25968	11.1592
8.391217	0.290918	-0.1179563	1.106714	3.910385	26.72054	109.1088
8.407784	0.2933627	-0.07395184	0.1475682	2.656264	-28.94793	-37.85052
8.42435	0.2896957	0.1142892	-0.2213549	11.36291	-11.13476	262.7821
8.440917	0.2762499	0.2206332	-0.8115898	6.418935	-17.81384	-149.2137
8.457808	0.2725828	0.2536365	-0.2170933	1.953842	17.76806	-133.4509
8.474049	0.2713605	0.2621929	-0.07526682	0.5268696	4.280701	-43.06984
8.490702	0.2713605	0.2646376	-1.7896E-06	0.1468009	2.288165	-11.55464
8.507186	0.2713605	0.2646376	0	0	5.400558E-05	-4.430078
8.524274	0.2713605	0.2646376	0	0	0	0
8.540322	0.2713605	0.2646376	0	0	0	0
8.557216	0.2713605	0.2646376	0	0	0	0
8.573719	0.2713605	0.2646376	0	0	0	0
8.590276	0.2713605	0.2658599	1.800012E-06	0.07382748	5.444669E-05	2.233131
8.606588	0.2713605	0.2658599	0	0	-5.476263E-05	-2.246089
8.623181	0.2713605	0.2670822	-1.79608E-06	0.07366443	-5.458285E-05	2.238661
8.63972	0.2713605	0.2719716	1.801984E-06	0.2956352	0.0001085992	6.69967
8.656283	0.2701381	0.2854175	-0.07379772	0.8117785	-2.229456	15.59249
8.673053	0.2689158	0.304975	-0.07289297	1.166261	0.0271428	10.63463
8.689418	0.2689158	0.3074196	0	0.1493827	2.199914	-30.68944
8.706727	0.2689158	0.3074196	0	0	0	-4.43611
8.722755	0.2689158	0.3074196	0	0	0	0
8.739118	0.2676934	0.3074196	-0.0747053	0	-2.306389	0
8.758096	0.2676934	0.3074196	0	0	2.113883	0
8.774665	0.2676934	0.3074196	0	0	0	0
8.791232	0.2676934	0.3074196	0	0	0	0
8.807798	0.2676934	0.3074196	0	0	0	0
8.824364	0.2676934	0.3074196	0	0	0	0
8.840929	0.2676934	0.3074196	0	0	0	0
8.857498	0.2676934	0.3074196	0	0	0	0
8.874065	0.2676934	0.3074196	0	0	0	0
8.890743	0.2676934	0.3074196	0	0	0	0
8.907275	0.2689158	0.3061973	0.07393821	-0.07393821	2.226397	-2.226397
8.923768	0.2689158	0.304975	0	-0.07411169	-2.23887	-0.005253003
8.940333	0.2689158	0.304975	0	0	0	2.241857
8.956944	0.2689158	0.3025303	0	-0.1471735	0	-4.436089
8.973465	0.2689158	0.3000856	0	-0.1479788	0	-0.02430621
8.99042	0.2689158	0.2976409	1.757692E-06	-0.1441852	5.250622E-05	0.1133246
9.006601	0.2689158	0.2951962	0	-0.1510819	-5.304419E-05	-0.2081301
9.023512	0.2689158	0.2915291	-1.762351E-06	-0.2168502	-5.325682E-05	-1.987466
9.039732	0.2689158	0.2829728	0	-0.5275183	5.319397E-05	-9.377061
9.0563	0.2664711	0.269527	-0.147553	-0.811543	-4.500174	-8.662388
9.072873	0.2652487	0.2585258	-0.07375525	-0.663799	2.22677	4.458025
9.089433	0.2640264	0.2487471	-0.07381292	-0.5905169	-0.001740509	2.211788
9.105997	0.2603594	0.2365236	-0.2213822	-0.7379383	-4.45506	-4.450596
9.122636	0.2530253	0.2218555	-0.4407831	-0.8815636	-6.60784	-4.325657
9.139664	0.2432466	0.202298	-0.5742789	-1.14856	-3.965227	-7.930586
9.155698	0.2273561	0.1766288	-0.9910412	-1.600912	-12.60548	-13.68197
9.172266	0.2114656	0.1509596	-0.959096	-1.549309	0.9798437	1.582823
9.189166	0.1919081	0.124068	-1.157245	-1.591212	-5.920494	-1.252041
9.205399	0.1747953	0.09962107	-1.054234	-1.506047	3.109057	2.570451
9.221963	0.1601271	0.08006357	-0.8855225	-1.180697	5.144121	9.92014
9.238532	0.1466813	0.0617284	-0.8114963	-1.106586	2.23418	2.236763
9.255098	0.141792	0.05561667	-0.2951408	-0.3689258	15.58319	22.26197
9.271737	0.1356802	0.04706026	-0.3673178	-0.5142458	-2.173677	-4.376447
9.288229	0.1320132	0.04339323	-0.2223542	-0.2223538	4.375513	8.810333
9.304795	0.1271238	0.03728151	-0.2951408	-0.3689255	-2.201772	-4.433753
9.321362	0.1210121	0.0287251	-0.3689249	-0.5164957	-2.226936	-4.453933
9.337929	0.1087887	0.017724	-0.7378086	-0.6640276	-11.13325	-4.452651
9.355049	0.1051216	0.01283462	-0.2141914	-0.2855886	15.54332	11.23378
9.371062	0.1026769	0.01038993	-0.1526678	-0.1526676	1.856839	4.011677
9.387629	0.1014546	0.009167584	-0.07378542	-0.07378508	2.421234	2.421239
9.404196	0.0990099	0.006722894	-0.1475614	-0.1475617	-2.226629	-2.226648
9.420762	0.09412052	0.003055861	-0.2951403	-0.2213553	-4.454068	-2.227158
9.437329	0.0904535	0.0006111722	-0.2213422	-0.1475617	2.227297	2.227158
9.453896	0.08678646	-0.001833517	-0.2213558	-0.1475702	-0.0004115037	-0.0002558969
9.47064	0.08311942	-0.004278206	-0.2189978	-0.1459985	0.0707869	0.04718187
9.48703	0.08189708	-0.004278206	-0.07457924	0	4.358562	4.406245
9.503596	0.08189709	-0.00550055	4.497438E-07	-0.07378511	2.262999	-2.238889
9.520288	0.08189709	-0.00550055	0	0	-1.35227E-05	2.218538
9.536733	0.08189709	-0.00550055	0	0	0	0
9.553299	0.08067474	-0.00550055	-0.07378542	0	-2.235212	0
9.570188	0.08067474	-0.00550055	0	0	2.205519	0
9.586432	0.08067474	-0.00550055	0	0	0	0
9.602996	0.08067474	-0.00550055	0	0	0	0
9.619565	0.08067474	-0.00550055	0	0	0	0
9.636131	0.08067474	-0.00550055	0	0	0	0
9.652864	0.08067474	-0.00550055	0	0	0	0
9.669264	0.08067474	-0.00550055	0	0	0	0
9.68659	0.07945239	-0.00550055	-0.07054858	0	-2.091773	0
9.702397	0.07945239	-0.00550055	0	0	2.129222	0
9.718962	0.07945239	-0.00550055	0	0	0	0
9.73561	0.07945239	-0.00550055	0	0	0	0
9.752097	0.07945239	-0.00550055	0	0	0	0
9.768663	0.07823005	-0.005500551	-0.07378452	-2.810899E-08	-2.232282	-8.504115E-07
9.785231	0.07578536	-0.00550055	-0.1475619	2.810737E-08	-2.22667	1.696662E-06
9.802835	0.07456302	-0.006722894	-0.06943222	-0.06943233	2.286361	-2.031846
9.819406	0.07334066	-0.006722894	-0.07376888	0	-0.1268961	2.031675
9.836582	0.07334066	-0.006722894	0	0	2.185957	0
9.852539	0.07211833	-0.006722895	-0.07660238	-2.918248E-08	-2.311931	-8.807543E-07
9.869517	0.07089598	-0.006722894	-0.07199454	2.742691E-08	0.1399065	1.718814E-06
9.886643	0.07089598	-0.006722894	0	0	2.111008	-8.042056E-07
9.902765	0.07089598	-0.006722894	0	0	0	0
9.918806	0.07089598	-0.006722894	0	0	0	0
9.935372	0.07089598	-0.006722894	0	0	0	0
9.95194	0.07089598	-0.006722894	0	0	0	0
9.968506	0.06967364	-0.006722894	-0.07378497	0	-2.226899	0
9.985079	0.06967364	-0.006722894	0	0	2.226514	0
10.00166	0.06845129	-0.006722894	-0.07372176	0	-2.223647	0
10.01821	0.06845129	-0.006722894	0	0	2.22544	0
10.035	0.06845129	-0.006722894	0	0	0	0
10.05158	0.06722895	-0.006722895	-0.07374252	-2.809282E-08	-2.209654	-8.417858E-07
10.06791	0.06722894	-0.00794524	-4.56311E-07	-0.07486252	2.24115	-2.275202
10.08447	0.06722894	-0.00794524	0	0	1.387211E-05	2.275862
10.10104	0.0660066	-0.007945239	-0.07378072	5.621474E-08	-2.226771	1.696613E-06
10.11761	0.0660066	-0.007945239	0	0	2.226771	-1.696613E-06
10.13436	0.06478426	-0.00794524	-0.07296588	-5.55939E-08	-2.18995	-1.668559E-06
10.15086	0.06478426	-0.00794524	0	0	2.194472	1.672004E-06
10.16731	0.06478426	-0.00794524	0	0	0	0
10.18408	0.06356192	-0.00794524	-0.07287047	0	-2.193238	0
10.2006	0.06233957	-0.007945239	-0.07397706	5.636399E-08	-0.03323339	1.692737E-06
10.21701	0.06233957	-0.007945239	0	0	2.246794	-1.711859E-06
10.23366	0.06233957	-0.007945239	0	0	0	0
10.25026	0.06233957	-0.007945239	0	0	0	0
10.2667	0.06233957	-0.007945239	0	0	0	0
10.28358	0.05989488	-0.007945239	-0.1448763	0	-4.348221	0
10.29984	0.05989488	-0.007945239	0	0	4.372501	0
10.32452	0.05989488	-0.007945239	0	0	0	0
10.34109	0.05989488	-0.007945239	0	0	0	0
10.35765	0.05989488	-0.007945239	0	0	0	0
10.37426	0.05989488	-0.007945239	0	0	0	0
10.39079	0.05989488	-0.007945239	0	0	0	0
10.40735	0.05989488	-0.007945239	0	0	0	0
10.42392	0.05989488	-0.007945239	0	0	0	0
10.44049	0.05989488	-0.007945239	0	0	0	0
10.45722	0.05989488	-0.007945239	0	0	0	0
10.47362	0.05989488	-0.007945239	0	0	0	0
10.49019	0.05867254	-0.00794524	-0.07377201	-5.620827E-08	-2.237715	-1.704957E-06
10.50675	0.05867254	-0.00794524	0	0	2.226379	1.69632E-06
10.52332	0.05745019	-0.00794524	-0.07376419	0	-2.226016	0
10.53989	0.0550055	-0.00794524	-0.1475532	0	-2.226635	0
10.55646	0.0550055	-0.00794524	0	0	4.453292	0
10.57339	0.0550055	-0.00794524	0	0	0	0
10.58978	0.0550055	-0.00794524	0	0	0	0
10.60631	0.0550055	-0.00794524	0	0	0	0
10.62313	0.0550055	-0.00794524	0	0	0	0
10.63929	0.0550055	-0.00794524	0	0	0	0
10.65586	0.0550055	-0.00794524	0	0	0	0
10.67276	0.0550055	-0.00794524	0	0	0	0
10.6938	0.0550055	-0.00794524	0	0	0	0
10.71037	0.0550055	-0.00794524	0	0	0	0
10.72694	0.0550055	-0.00794524	0	0	0	0
10.74722	0.0550055	-0.00794524	0	0	0	0
10.76379	0.0550055	-0.00794524	0	0	0	0
10.78036	0.0550055	-0.00794524	0	0	0	0
10.79693	0.0550055	-0.00794524	0	0	0	0
10.81434	0.0550055	-0.00794524	0	0	0	0
10.83006	0.0550055	-0.00794524	0	0	0	0
10.84663	0.0550055	-0.00794524	0	0	0	0
10.86319	0.0550055	-0.00794524	0	0	0	0
10.87976	0.0550055	-0.00794524	0	0	0	0
10.89681	0.0550055	-0.00794524	0	0	0	0
10.91299	0.0550055	-0.00794524	0	0	0	0
10.92946	0.0550055	-0.00794524	0	0	0	0
10.94606	0.0550055	-0.00794524	0	0	0	0
10.96267	0.0550055	-0.00794524	0	0	0	0
10.97916	0.0550055	-0.00794524	0	0	0	0
10.99572	0.0550055	-0.00794524	0	0	0	0
11.01229	0.0550055	-0.00794524	0	0	0	0
11.02886	0.0550055	-0.00794524	0	0	0	0
11.04542	0.0550055	-0.00794524	0	0	0	0
11.06199	0.0550055	-0.00794524	0	0	0	0
11.07856	0.0550055	-0.00794524	0	0	0	0
11.09512	0.0550055	-0.00794524	0	0	0	0
11.11169	0.0550055	-0.00794524	0	0	0	0
11.12826	0.0550055	-0.00794524	0	0	0	0
11.14482	0.0550055	-0.00794524	0	0	0	0
11.16139	0.0550055	-0.00794524	0	0	0	0
11.17796	0.0550055	-0.00794524	0	0	0	0
11.19464	0.0550055	-0.00794524	0	0	0	0
11.21109	0.05256081	-0.004278206	-0.1485881	0.2228822	-4.484655	6.726985
11.22779	0.05011613	0.0006111722	-0.1464071	0.2928142	0.06579077	2.109521
11.24448	0.04889378	0.001833517	-0.07324548	0.07324538	2.19137	-6.576629
11.26079	0.04767144	0.001833517	-0.07492364	7.135694E-09	-0.05084898	-2.219365
11.27736	0.04767144	0.001833517	0	0	2.278579	-2.170109E-07
11.29392	0.04767144	0.001833517	0	0	0	0
11.31049	0.04767144	0.001833517	0	0	0	0
11.3272	0.04767144	0.001833517	0	0	0	0
11.34427	0.04767144	0.001833517	0	0	0	0
11.36019	0.04767144	0.001833517	0	0	0	0
11.37676	0.04767144	0.001833517	0	0	0	0
11.39345	0.04767144	0.001833517	0	0	0	0
11.40989	0.04767144	0.001833517	0	0	0	0
11.42646	0.04767144	0.001833517	0	0	0	0
11.44302	0.04767144	0.001833517	0	0	0	0
11.45973	0.04767144	0.001833517	0	0	0	0
11.47616	0.04767144	0.001833517	0	0	0	0
11.49272	0.04767144	0.001833517	0	0	0	0
11.50929	0.04767144	0.001833517	0	0	0	0
11.52586	0.04767144	0.001833517	0	0	0	0
11.54242	0.04767144	0.001833517	0	0	0	0
11.55899	0.04767144	0.001833517	0	0	0	0
11.57555	0.04767144	0.001833517	0	0	0	0
11.59212	0.04767144	0.001833517	0	0	0	0
11.60879	0.04767144	0.001833517	0	0	0	0
11.6253	0.04767144	0.001833517	0	0	0	0
11.64231	0.04767144	0.001833517	0	0	0	0
11.65839	0.04767144	0.001833517	0	0	0	0
11.67496	0.04767144	0.001833517	0	0	0	0
11.69152	0.04767144	0.001833517	0	0	0	0
11.70809	0.04767144	0.001833517	0	0	0	0
11.72466	0.04767144	0.001833517	0	0	0	0
11.74122	0.04767144	0.001833517	0	0	0	0
11.75779	0.04767144	0.001833517	0	0	0	0
11.77469	0.04767144	0.001833517	0	0	0	0
11.79126	0.04767144	0.001833517	0	0	0	0
11.8081	0.04767144	0.001833517	0	0	0	0
11.82444	0.04767144	0.001833517	0	0	0	0
11.84096	0.04767144	0.001833517	0	0	0	0
11.85752	0.04767144	0.001833517	0	0	0	0
11.87409	0.04767144	0.001833517	0	0	0	0
11.89066	0.04767144	0.001833517	0	0	0	0
11.90722	0.04767144	0.001833517	0	0	0	0
11.92379	0.04767144	0.001833517	0	0	0	0
11.94036	0.04767144	0.001833517	0	0	0	0
11.95692	0.04767144	0.001833517	0	0	0	0
11.97349	0.04767144	0.001833517	0	0	0	0
11.99018	0.04767144	0.001833517	0	0	0	0
12.00662	0.04767144	0.001833517	0	0	0	0
12.02319	0.04767144	0.001833517	0	0	0	0
12.03976	0.04767144	0.001833517	0	0	0	0
12.05655	0.04767144	0.001833517	0	0	0	0
12.07289	0.04767144	0.001833517	0	0	0	0
12.08983	0.04767144	0.001833517	0	0	0	0
12.10632	0.04767144	0.001833517	0	0	0	0
12.12285	0.04767144	0.001833517	0	0	0	0
12.13916	0.04767144	0.001833517	0	0	0	0
12.15583	0.04767144	0.001833517	0	0	0	0
12.1723	0.04767144	0.001833517	0	0	0	0
12.18886	0.04767144	0.001833517	0	0	0	0
12.20561	0.04767144	0.001833517	0	0	0	0
12.222	0.04767144	0.001833517	0	0	0	0
12.23856	0.04767144	0.001833517	0	0	0	0
12.25513	0.04767144	0.001833517	0	0	0	0
12.27224	0.04767144	0.001833517	0	0	0	0
12.28871	0.04767144	0.001833517	0	0	0	0
12.30482	0.04767144	0.001833517	0	0	0	0
12.32139	0.04767144	0.001833517	0	0	0	0
12.33796	0.04767144	0.001833517	0	0	0	0
12.35452	0.04767144	0.001833517	0	0	0	0
12.37109	0.04767144	0.001833517	0	0	0	0
12.38766	0.04767144	0.001833517	0	0	0	0
12.40423	0.04767144	0.001833517	0	0	0	0
12.42079	0.04767144	0.001833517	0	0	0	0
12.43736	0.04767144	0.001833517	0	0	0	0
12.45472	0.04767144	0.001833517	0	0	0	0
12.47049	0.04767144	0.001833517	0	0	0	0
12.48716	0.04767144	0.001833517	0	0	0	0
12.50362	0.04767144	0.001833517	0	0	0	0
12.52019	0.04767144	0.001833517	0	0	0	0
12.53681	0.04767144	0.001833517	0	0	0	0
12.55332	0.04767144	0.001833517	0	0	0	0
12.56989	0.04767144	0.001833517	0	0	0	0
12.58684	0.04767144	0.001833517	0	0	0	0
12.60302	0.04767144	0.001833517	0	0	0	0
12.61971	0.04767144	0.001833517	0	0	0	0
12.63616	0.04767144	0.001833517	0	0	0	0
12.65272	0.04767144	0.001833517	0	0	0	0
12.66929	0.04767144	0.001833517	0	0	0	0
12.68586	0.04767144	0.001833517	0	0	0	0
12.70255	0.04767144	0.001833517	0	0	0	0
12.71899	0.04767144	0.001833517	0	0	0	0
12.73556	0.04767144	0.001833517	0	0	0	0
12.75212	0.04767144	0.001833517	0	0	0	0
12.76878	0.04767144	0.001833517	0	0	0	0
12.78525	0.04767144	0.001833517	0	0	0	0
12.80182	0.04767144	0.001833517	0	0	0	0
12.81839	0.04767144	0.001833517	0	0	0	0
12.83521	0.04767144	0.001833517	0	0	0	0
12.85152	0.04889378	0.001833517	0.07494117	-7.137363E-09	2.261533	-2.153874E-07
12.86809	0.05745019	-0.01038993	0.5165552	-0.737936	13.4331	-22.44668
12.8849	0.07089598	-0.03850385	0.7999846	-1.672696	8.493051	-28.01035
12.90122	0.09656522	-0.08984233	1.572297	-3.144593	23.3091	-44.42324
12.91779	0.1161227	-0.1326244	1.180494	-2.58233	-11.91137	17.09363
12.93439	0.1283462	-0.1570713	0.7362405	-1.472481	-13.39333	33.45966
12.95092	0.1356802	-0.1778511	0.4436045	-1.25688	-8.831517	6.506674
12.96776	0.1430143	-0.1925192	0.4357126	-0.8714244	-0.2365303	11.5526
12.98406	0.1466813	-0.2010757	0.2249682	-0.5249267	-6.360646	10.45792
13.00062	0.149126	-0.2047427	0.1475614	-0.2213431	-2.35512	9.236609
13.01719	0.1527931	-0.2096321	0.2213558	-0.2951417	2.227182	-2.227311
13.03375	0.1576824	-0.2181885	0.2951739	-0.5165543	2.22809	-6.683015
13.05032	0.1637942	-0.2267449	0.3688842	-0.5164362	2.224709	0.00356377
13.06689	0.1662389	-0.2304119	0.1475445	-0.2213167	-6.679469	8.905956
13.08346	0.1686835	-0.2328566	0.1475699	-0.1475708	0.0007689956	2.22559
13.10083	0.1699059	-0.2328566	0.07036611	8.578095E-07	-2.274886	4.348344
13.11694	0.1711282	-0.234079	0.0758593	-0.07586022	0.1640518	-2.265561
13.13315	0.1747953	-0.237746	0.2261857	-0.2261857	4.650361	-4.650332
13.14972	0.1784623	-0.2426354	0.2213558	-0.2951408	-0.1473472	-2.103653
13.16629	0.180907	-0.2438577	0.1475445	-0.07377223	-2.227567	6.680724
13.18286	0.1870187	-0.2511918	0.3689258	-0.4427107	6.681108	-11.13427
13.19947	0.1980198	-0.2585258	0.6622366	-0.4414899	8.840435	0.03679578
13.21599	0.2041315	-0.2646376	0.3699258	-0.3699276	-8.822213	2.159818
13.23255	0.2102432	-0.2670823	0.3689886	-0.1475954	-0.02832696	6.720054
13.24912	0.2114656	-0.2683046	0.07376888	-0.07376798	-8.910005	2.228181
13.26598	0.2126879	-0.2683046	0.07252412	0	-0.03724134	2.207011
13.28239	0.2126879	-0.2683046	0	0	-2.179935	0
13.29882	0.2126879	-0.2683046	0	0	0	0
13.31562	0.2126879	-0.2683046	0	0	0	0
13.33219	0.2126879	-0.2683046	0	0	0	0
13.34876	0.2126879	-0.2683046	0	0	0	0
13.36577	0.2126879	-0.2683046	0	0	0	0
13.38189	0.2126879	-0.2683046	0	0	0	0
13.39846	0.2126879	-0.2683046	0	0	0	0
13.41503	0.2114656	-0.2683046	-0.07377223	0	-2.226514	0
13.43159	0.2114656	-0.2683046	0	0	2.226514	0
13.44816	0.2102432	-0.2670823	-0.07377313	0.07377223	-2.226542	2.226514
13.46515	0.2090209	-0.2646376	-0.07192902	0.1438598	0.05494545	2.08826
13.48129	0.2029092	-0.2585258	-0.3786699	0.3786708	-9.257725	7.086815
13.49786	0.2004645	-0.2548588	-0.1475699	0.2213549	7.065924	-4.809963
13.51442	0.1943528	-0.2487471	-0.3689691	0.3689691	-6.682611	4.455519
13.53099	0.184574	-0.2401907	-0.5902798	0.516493	-6.679937	4.452792
13.54772	0.1699059	-0.2267449	-0.8767404	0.8036806	-8.603304	8.625136
13.56441	0.1369026	-0.1912969	-1.977399	2.123873	-32.93359	39.5024
13.58069	0.1173451	-0.1729617	-1.201379	1.126292	23.53755	-30.25771
13.59726	0.09778755	-0.1570713	-1.180562	0.9592065	0.6337759	-5.087029
13.61382	0.08434177	-0.1436255	-0.8114954	0.8114954	11.13814	-4.4578
13.63039	0.07089598	-0.131402	-0.8117295	0.7379365	-0.007064373	-2.220077
13.64696	0.05622785	-0.1155116	-0.8854215	0.9592055	-2.224284	6.678681
13.66395	0.04767144	-0.1057328	-0.5035949	0.5755378	11.37847	-11.43333
13.68009	0.04033737	-0.09717639	-0.45435	0.5300748	1.486301	-1.372154
13.69666	0.03544799	-0.09106467	-0.2950726	0.3688404	4.869083	-4.928912
13.71323	0.03055861	-0.08617529	-0.2951233	0.2951238	-0.001530708	-2.224579
13.72979	0.02689158	-0.0812859	-0.2213936	0.2951918	2.225424	0.002051849
13.74636	0.02566924	-0.07639653	-0.07378497	0.2951399	4.455479	-0.001566143
13.76317	0.0220022	-0.0727295	-0.2181406	0.2181406	-4.325043	-2.306978
13.78587	0.01955751	-0.06906246	-0.1076806	0.1615211	2.795493	-1.432911
13.80244	0.01833517	-0.06417308	-0.07376374	0.2950554	0.863592	3.40005
13.81901	0.01833517	-0.06295074	0	0.07378497	2.226002	-6.677379
13.83599	0.01711282	-0.06295075	-0.07195423	-4.385842E-07	-2.144426	-2.199
13.85259	0.01711282	-0.06295075	0	0	2.142234	1.30576E-05
13.86915	0.01711282	-0.06295075	0	0	0	0
13.88527	0.01711282	-0.06295075	0	0	0	0
13.90205	0.01711282	-0.06295075	0	0	0	0
13.91841	0.01711282	-0.06295075	0	0	0	0
13.93497	0.01711282	-0.06050605	-1.124554E-07	0.1475961	-3.416131E-06	4.483624
13.95154	0.01711282	-0.05806136	0	0.1475617	3.394301E-06	-0.001039418
13.96841	0.01711282	-0.05561667	1.103585E-07	0.1448436	3.299666E-06	-0.08127005
13.98467	0.01711282	-0.05561667	0	0	-3.330626E-06	-4.371387
14.00124	0.01711282	-0.05439433	0	0.07376798	0	2.247214
14.0178	0.01711282	-0.05439433	0	0	0	-2.226386
14.03437	0.01711282	-0.05439433	0	0	0	0
14.05094	0.01711282	-0.05317198	0	0.07378519	0	2.22697
14.06794	0.01711282	-0.05317198	0	0	0	-2.197744
14.08407	0.01711282	-0.05194964	0	0.0757965	0	2.287609
14.10115	0.01711282	-0.0507273	0	0.07158063	0	-0.1269722
14.11759	0.01711282	-0.0507273	0	0	0	-2.135659
14.13377	0.01711282	-0.0507273	0	0	0	0
14.15064	0.01711282	-0.0507273	0	0	0	0
14.1669	0.01711282	-0.0507273	0	0	0	0
14.18347	0.01711282	-0.0507273	0	0	0	0
14.20004	0.01711282	-0.0507273	0	0	0	0
14.21665	0.01711282	-0.0507273	0	0	0	0
14.23327	0.01711282	-0.0507273	0	0	0	0
14.24974	0.01711282	-0.0507273	0	0	0	0
14.26637	0.01711282	-0.0507273	0	0	0	0
14.28287	0.01711282	-0.0507273	0	0	0	0
14.29944	0.01711282	-0.0507273	0	0	0	0
14.31638	0.01711282	-0.0507273	0	0	0	0
14.33257	0.01711282	-0.0507273	0	0	0	0
14.34914	0.01589048	-0.0507273	-0.07378508	0	-2.252315	0
14.3657	0.01589048	-0.04950495	0	0.07378519	2.226966	2.22697
14.41221	0.01466813	-0.04950495	-0.02628578	0	-0.4167821	-1.169924
14.42878	0.01466813	-0.04950495	0	0	0.4167506	0
14.44534	0.01466813	-0.04950495	0	0	0	0
14.46191	0.01466813	-0.04950495	0	0	0	0
14.47848	0.01466813	-0.04950495	0	0	0	0
14.49567	0.01466813	-0.04950495	0	0	0	0
14.51161	0.01466813	-0.04950495	0	0	0	0
14.52824	0.01466813	-0.0482826	-5.598593E-08	0.07348063	-1.718897E-06	2.256025
14.54474	0.01466813	-0.0482826	0	0	1.689659E-06	-2.21765
14.56131	0.01466813	-0.04706027	5.620827E-08	0.07377201	1.699745E-06	2.230874
14.57788	0.01344579	-0.04706026	-0.07378514	2.248719E-07	-2.226778	-2.226373
14.59444	0.01344579	-0.04706026	0	0	2.227096	-6.787429E-06
14.61101	0.01344579	-0.04706026	0	0	0	0
14.62768	0.01344579	-0.04706026	0	0	0	0
14.64432	0.01344579	-0.04706026	0	0	0	0
14.66071	0.01344579	-0.04706026	0	0	0	0
14.67728	0.01344579	-0.04706026	0	0	0	0
14.69384	0.01344579	-0.04706026	0	0	0	0
14.71041	0.01344579	-0.04706026	0	0	0	0
14.72698	0.01344579	-0.04706026	0	0	0	0
14.74354	0.01344579	-0.04706026	0	0	0	0
14.76011	0.01344579	-0.04706026	0	0	0	0
14.77711	0.01344579	-0.04583792	-5.477997E-08	0.07189783	-1.631938E-06	2.141893
14.79368	0.01344579	-0.04461557	0	0.07377223	1.631799E-06	0.05583493
14.81025	0.01344579	-0.04461557	0	0	0	-2.226258
14.82682	0.01344579	-0.04339323	0	0.07378497	0	2.226835
14.84338	0.01466813	-0.04094854	0.07378939	0.1475789	2.22716	2.227297
14.85995	0.01466813	-0.03850385	0	0.1475617	-2.227096	-0.0005199038
14.87652	0.01711282	-0.03605916	0.1475362	0.1475362	4.452268	-0.0007685016
14.8932	0.01711282	-0.03361448	0	0.1465577	-4.437072	-0.02942695
14.90965	0.01955751	-0.03116979	0.1486225	0.1486226	4.486083	0.06232818
14.92621	0.02077986	-0.0287251	0.07378519	0.1475702	-2.26675	-0.03187872
14.94278	0.02077986	-0.02750275	-1.124295E-07	0.07378107	-2.226909	-2.227023
14.95954	0.02077986	-0.02750275	0	0	3.373708E-06	-2.213973
14.97592	0.0220022	-0.02628041	0.07464027	0.07464004	2.252648	2.252641
14.99248	0.0220022	-0.02628041	0	0	-2.265821	-2.265814
15.00905	0.0220022	-0.02628041	0	0	0	0
15.02562	0.0220022	-0.02628041	0	0	0	0
15.04218	0.0220022	-0.02628041	0	0	0	0
15.05891	0.0220022	-0.02628041	0	0	0	0
15.07532	0.0220022	-0.02628041	0	0	0	0
15.0922	0.0220022	-0.02628041	0	0	0	0
15.10845	0.0220022	-0.02628041	0	0	0	0
15.12502	0.0220022	-0.02628041	0	0	0	0
15.14158	0.0220022	-0.02628041	0	0	0	0
15.15815	0.0220022	-0.02628041	0	0	0	0
15.17472	0.0220022	-0.02628041	0	0	0	0
15.19128	0.0220022	-0.02628041	0	0	0	0
15.20785	0.0220022	-0.02628041	0	0	0	0
15.22442	0.0220022	-0.02628041	0	0	0	0
15.2411	0.0220022	-0.02628041	0	0	0	0
15.25764	0.0220022	-0.02628041	0	0	0	0
15.27412	0.0220022	-0.02628041	0	0	0	0
15.29068	0.0220022	-0.02628041	0	0	0	0
15.30725	0.0220022	-0.02628041	0	0	0	0
15.32381	0.0220022	-0.02628041	0	0	0	0
15.34038	0.0220022	-0.02628041	0	0	0	0
15.35695	0.0220022	-0.02628041	0	0	0	0
15.37351	0.0220022	-0.02628041	0	0	0	0
15.39008	0.0220022	-0.02628041	0	0	0	0
15.40665	0.0220022	-0.02628041	0	0	0	0
15.42322	0.0220022	-0.02628041	0	0	0	0
15.44008	0.0220022	-0.02628041	0	0	0	0
15.45635	0.0220022	-0.02628041	0	0	0	0
15.47292	0.0220022	-0.02628041	0	0	0	0
15.48948	0.0220022	-0.02628041	0	0	0	0
15.50611	0.0220022	-0.02628041	0	0	0	0
15.52283	0.0220022	-0.02628041	0	0	0	0
15.53919	0.0220022	-0.02628041	0	0	0	0
15.55626	0.0220022	-0.02628041	0	0	0	0
15.57232	0.0220022	-0.02628041	0	0	0	0
15.58889	0.0220022	-0.02628041	0	0	0	0
15.60562	0.0220022	-0.02628041	0	0	0	0
15.62202	0.0220022	-0.02628041	0	0	0	0
15.63859	0.0220022	-0.02628041	0	0	0	0
15.65515	0.0220022	-0.02628041	0	0	0	0
15.67172	0.0220022	-0.02628041	0	0	0	0
15.6884	0.0220022	-0.02628041	0	0	0	0
15.70499	0.0220022	-0.02628041	0	0	0	0
15.72197	0.0220022	-0.02628041	0	0	0	0
15.73799	0.0220022	-0.02628041	0	0	0	0
15.75532	0.0220022	-0.02628041	0	0	0	0
15.77194	0.0220022	-0.02628041	0	0	0	0
15.78897	0.0220022	-0.02628041	0	0	0	0
15.80503	0.0220022	-0.02628041	0	0	0	0
15.82159	0.0220022	-0.02628041	0	0	0	0
15.83816	0.0220022	-0.02628041	0	0	0	0
15.85482	0.0220022	-0.02628041	0	0	0	0
15.87129	0.0220022	-0.02628041	0	0	0	0
15.88788	0.0220022	-0.02628041	0	0	0	0
15.90442	0.0220022	-0.02628041	0	0	0	0
15.92099	0.0220022	-0.02628041	0	0	0	0
15.93756	0.0220022	-0.02628041	0	0	0	0
15.95428	0.0220022	-0.02628041	0	0	0	0
15.97069	0.0220022	-0.02628041	0	0	0	0
15.98757	0.0220022	-0.02628041	0	0	0	0
16.00408	0.0220022	-0.02628041	0	0	0	0
16.02039	0.0220022	-0.02628041	0	0	0	0
16.03695	0.0220022	-0.02628041	0	0	0	0
16.05415	0.0220022	-0.02628041	0	0	0	0
16.07016	0.0220022	-0.02628041	0	0	0	0
16.08665	0.0220022	-0.02628041	0	0	0	0
16.10322	0.0220022	-0.02628041	0	0	0	0
16.11979	0.0220022	-0.02628041	0	0	0	0
16.13669	0.0220022	-0.02628041	0	0	0	0
16.15292	0.0220022	-0.02628041	0	0	0	0
16.16951	0.0220022	-0.02628041	0	0	0	0
16.18624	0.0220022	-0.02628041	0	0	0	0
16.20272	0.0220022	-0.02628041	0	0	0	0
16.21919	0.0220022	-0.02628041	0	0	0	0
16.23575	0.0220022	-0.02628041	0	0	0	0
16.25232	0.0220022	-0.02628041	0	0	0	0
16.26889	0.0220022	-0.02628041	0	0	0	0
16.2855	0.0220022	-0.02628041	0	0	0	0
16.30202	0.0220022	-0.02628041	0	0	0	0
16.32212	0.0220022	-0.02628041	0	0	0	0
16.33868	0.0220022	-0.02628041	0	0	0	0
16.35526	0.0220022	-0.02628041	0	0	0	0
16.37182	0.0220022	-0.02628041	0	0	0	0
16.38839	0.0220022	-0.02628041	0	0	0	0
16.40496	0.0220022	-0.02628041	0	0	0	0
16.42152	0.0220022	-0.02628041	0	0	0	0
16.43809	0.0220022	-0.02628041	0	0	0	0
16.45465	0.0220022	-0.02628041	0	0	0	0
16.47189	0.0220022	-0.02628041	0	0	0	0
16.48844	0.0220022	-0.02628041	0	0	0	0
16.50451	0.0220022	-0.02628041	0	0	0	0
16.52168	0.0220022	-0.02628041	0	0	0	0
16.53749	0.0220022	-0.02628041	0	0	0	0
16.55406	0.0220022	-0.02628041	0	0	0	0
16.57066	0.0220022	-0.02628041	0	0	0	0
16.58721	0.0220022	-0.02628041	0	0	0	0
16.60379	0.0220022	-0.02628041	0	0	0	0
16.62032	0.0220022	-0.02628041	0	0	0	0
16.63729	0.0220022	-0.02628041	0	0	0	0
16.65345	0.0220022	-0.02628041	0	0	0	0
16.67005	0.0220022	-0.02628041	0	0	0	0
16.68662	0.0220022	-0.02628041	0	0	0	0
16.7034	0.0220022	-0.02628041	0	0	0	0
16.71972	0.0220022	-0.02628041	0	0	0	0
16.73629	0.0220022	-0.02628041	0	0	0	0
16.75285	0.0220022	-0.02628041	0	0	0	0
16.76962	0.0220022	-0.02628041	0	0	0	0
16.78666	0.0220022	-0.02628041	0	0	0	0
16.80271	0.0220022	-0.02628041	0	0	0	0
16.81939	0.0220022	-0.02628041	0	0	0	0
16.83584	0.0220022	-0.02628041	0	0	0	0
16.85282	0.0220022	-0.02628041	0	0	0	0
16.86897	0.0220022	-0.02628041	0	0	0	0
16.88554	0.0220022	-0.02628041	0	0	0	0
16.90253	0.0220022	-0.02628041	0	0	0	0
16.91869	0.0220022	-0.02628041	0	0	0	0
16.93524	0.0220022	-0.02628041	0	0	0	0
16.95181	0.0220022	-0.02628041	0	0	0	0
16.96877	0.0220022	-0.02628041	0	0	0	0
16.98494	0.0220022	-0.02628041	0	0	0	0
17.00151	0.0220022	-0.02628041	0	0	0	0
17.0183	0.01589048	-0.04461557	-0.3639187	-1.091756	-10.90899	-32.72695
17.03464	0.002444689	-0.07028481	-0.8227667	-1.570737	-13.84727	-14.45485
17.05121	-0.009778756	-0.09106466	-0.7378935	-1.254418	2.579146	9.612357
17.06801	-0.03422565	-0.1338467	-1.455013	-2.546274	-21.49178	-38.71637
17.08434	-0.05378316	-0.1582936	-1.19745	-1.496813	7.77326	31.67278
17.10091	-0.07211832	-0.1815182	-1.106458	-1.401513	2.765419	2.896343
17.11748	-0.08923115	-0.2010757	-1.033289	-1.180902	2.208361	6.658429
17.13441	-0.1051216	-0.2157438	-0.9386196	-0.8664173	2.826709	9.39009
17.15091	-0.1185674	-0.2279672	-0.8145903	-0.7405372	3.709473	3.764828
17.16745	-0.1320132	-0.2389683	-0.8129004	-0.6650994	0.05113702	2.282762
17.18374	-0.1442367	-0.2487471	-0.7504217	-0.6003376	1.90314	1.972686
17.20052	-0.1589048	-0.2573035	-0.874199	-0.5099492	-3.743147	2.733433
17.217	-0.1699059	-0.2658599	-0.6675628	-0.5192166	6.213046	-0.2786478
17.23344	-0.1821293	-0.2719716	-0.7434573	-0.3717282	-2.305363	4.480093
17.25001	-0.184574	-0.2756387	-0.1475614	-0.2213422	18.05276	4.555968
17.26657	-0.1906857	-0.280528	-0.3689045	-0.2951229	-6.680148	-2.226707
17.28328	-0.1955751	-0.2854174	-0.2926641	-0.292665	2.291311	0.07386787
17.29971	-0.2016868	-0.2915292	-0.3720744	-0.3720753	-2.396744	-2.396744
17.31628	-0.2077986	-0.2988632	-0.3688612	-0.4426316	0.0973846	-2.13838
17.33284	-0.2151326	-0.3061973	-0.4426861	-0.442688	-2.227914	-0.001700735
17.34941	-0.223689	-0.312309	-0.5165849	-0.3689886	-2.230527	2.224508
17.36598	-0.2322455	-0.3196431	-0.5164065	-0.4426334	0.005384333	-2.222733
17.38254	-0.2359125	-0.3220878	-0.221394	-0.1475972	8.904007	8.904721
17.39911	-0.2359125	-0.3220878	0	0	6.682455	4.455007
17.41748	-0.2359125	-0.3220878	0	0	0	0
17.4342	-0.2359125	-0.3220878	0	0	0	0
17.45076	-0.2359125	-0.3220878	0	0	0	0
17.46725	-0.2359125	-0.3220878	0	0	0	0
17.48467	-0.2359125	-0.3220878	0	0	0	0
17.50135	-0.2359125	-0.3233101	1.786735E-06	-0.07328116	5.24093E-05	-2.149515
17.5178	-0.2359125	-0.3233101	0	0	-5.392378E-05	2.21163
17.53437	-0.2359125	-0.3233101	0	0	0	0
17.55094	-0.2359125	-0.3233101	0	0	0	0
17.5675	-0.2359125	-0.3233101	0	0	0	0
17.58407	-0.2359125	-0.3233101	0	0	0	0
17.60136	-0.2359125	-0.3233101	0	0	0	0
17.6172	-0.2346901	-0.3233101	0.07714691	0	2.328432	0
17.63377	-0.2346901	-0.3233101	0	0	-2.380507	0
17.65052	-0.2334678	-0.3220878	0.0729733	0.0729742	2.190486	2.190513
17.66702	-0.2285784	-0.3196431	0.2962484	0.1481242	6.714107	2.259836
17.68391	-0.2175773	-0.3098643	0.6514296	0.579048	10.63673	12.90502
17.70004	-0.1992422	-0.2903068	1.137083	1.212889	14.71124	19.2001
17.7166	-0.1686835	-0.2585259	1.844309	1.91808	21.63178	21.56951
17.73317	-0.1576824	-0.2463024	0.6641812	0.737979	-35.61839	-35.61757
17.74973	-0.1259015	-0.2071874	1.918302	2.360989	37.85381	48.98817
17.76652	-0.1087887	-0.1876299	1.019319	1.164936	-26.95142	-35.85751
17.78309	-0.09656522	-0.1729617	0.7378086	0.8853705	-8.439637	-8.381333
17.79985	-0.08556412	-0.159516	0.6563202	0.802169	-2.444968	-2.49637
17.8165	-0.07578536	-0.1460702	0.5873395	0.8075918	-2.064609	0.1623066
17.83279	-0.06722894	-0.131402	0.5252345	0.9004014	-1.885405	2.817541
17.84936	-0.05745019	-0.1179563	0.5902465	0.8115889	1.978582	-2.702926
17.86631	-0.04767144	-0.1057328	0.5768322	0.7210407	-0.4001899	-2.70134
17.88284	-0.03422565	-0.08617529	0.8137443	1.183628	7.077098	13.81853
17.89935	-0.03055861	-0.08006357	0.2221097	0.3701826	-17.91021	-24.62496
17.91574	-0.02444689	-0.07150716	0.3728969	0.5220556	4.583214	4.616219
17.93221	-0.01955751	-0.06539543	0.2967291	0.3709115	-2.317425	-4.598596
17.94881	-0.01466813	-0.05806137	0.2945808	0.4418711	-0.06495084	2.145391
17.96533	-0.01222344	-0.05439433	0.1480218	0.2220328	-4.42596	-6.638936
17.98189	-0.009778756	-0.05194964	0.1475617	0.1475617	-0.01390801	-2.251042
17.99864	-0.009778756	-0.05072729	0	0.07298295	-4.429201	-2.238549
18.01503	-0.008556411	-0.04950495	0.07459677	0.0745966	2.251335	0.04869996
18.0316	-0.008556412	-0.04828261	-5.621474E-08	0.07378072	-2.263716	-0.02475858
18.04825	-0.008556412	-0.04828261	0	0	1.692181E-06	-2.220953
18.06479	-0.008556412	-0.04828261	0	0	0	0
18.0813	-0.008556412	-0.04828261	0	0	0	0
18.09786	-0.008556412	-0.04828261	0	0	0	0
18.11466	-0.008556412	-0.04828261	0	0	0	0
18.13124	-0.008556412	-0.04828261	0	0	0	0
18.14756	-0.008556412	-0.04828261	0	0	0	0
18.16413	-0.008556412	-0.04828261	0	0	0	0
18.18069	-0.008556412	-0.04828261	0	0	0	0
18.19726	-0.008556412	-0.04828261	0	0	0	0
18.21383	-0.008556412	-0.04828261	0	0	0	0
18.2305	-0.008556412	-0.04828261	0	0	0	0
18.24704	-0.008556412	-0.04828261	0	0	0	0
18.26368	-0.008556412	-0.04828261	0	0	0	0
18.28009	-0.008556412	-0.04828261	0	0	0	0
18.29732	-0.008556412	-0.04828261	0	0	0	0
18.31323	-0.008556412	-0.04828261	0	0	0	0
18.32985	-0.008556412	-0.04828261	0	0	0	0
18.34657	-0.008556412	-0.04828261	0	0	0	0
18.36293	-0.008556412	-0.04828261	0	0	0	0
18.3795	-0.008556412	-0.04828261	0	0	0	0
18.39606	-0.008556412	-0.04828261	0	0	0	0
18.41263	-0.008556412	-0.04828261	0	0	0	0
18.4292	-0.008556412	-0.04828261	0	0	0	0
18.44576	-0.008556412	-0.04828261	0	0	0	0
18.46233	-0.008556412	-0.04828261	0	0	0	0
18.4789	-0.008556412	-0.04828261	0	0	0	0
18.49585	-0.008556412	-0.04828261	0	0	0	0
18.51203	-0.008556412	-0.04828261	0	0	0	0
18.5286	-0.008556412	-0.04828261	0	0	0	0
18.54516	-0.008556412	-0.04828261	0	0	0	0
18.56173	-0.008556412	-0.04828261	0	0	0	0
18.5783	-0.008556412	-0.04828261	0	0	0	0
18.65049	-0.008556412	-0.04828261	0	0	0	0
18.66917	-0.008556412	-0.04828261	0	0	0	0
18.68574	-0.008556412	-0.04828261	0	0	0	0
18.70231	-0.008556412	-0.04828261	0	0	0	0
18.71887	-0.008556412	-0.04828261	0	0	0	0
18.73544	-0.008556412	-0.04828261	0	0	0	0
18.75254	-0.008556412	-0.04828261	0	0	0	0
18.76867	-0.008556412	-0.04828261	0	0	0	0
18.78562	-0.008556412	-0.04828261	0	0	0	0
18.80171	-0.008556412	-0.04828261	0	0	0	0
18.81986	-0.008556412	-0.04828261	0	0	0	0
18.83644	-0.008556412	-0.04706026	0	0.07376397	0	2.123987
18.853	-0.008556412	-0.04706026	0	0	0	-2.225816
18.86957	-0.008556412	-0.04706026	0	0	0	0
18.88614	-0.008556412	-0.04706026	0	0	0	0
18.9027	-0.008556412	-0.04706026	0	0	0	0
18.91927	-0.008556412	-0.04706026	0	0	0	0
18.9362	-0.008556412	-0.04706026	0	0	0	0
18.9524	-0.008556412	-0.04706026	0	0	0	0
18.96909	-0.008556412	-0.04706026	0	0	0	0
18.98623	-0.008556412	-0.04706026	0	0	0	0
19.0021	-0.008556412	-0.04706026	0	0	0	0
19.01867	-0.007334067	-0.04706026	0.07378089	2.24859E-07	2.274902	6.933125E-06
19.03523	-0.007334067	-0.04706026	0	0	-2.226712	-6.786257E-06
19.0518	-0.007334067	-0.04706026	0	0	0	0
19.06856	-0.007334067	-0.04706026	0	0	0	0
19.08493	-0.007334067	-0.04706026	0	0	0	0
19.10169	-0.007334067	-0.04706026	0	0	0	0
19.11807	-0.007334067	-0.04706026	0	0	0	0
19.13531	-0.007334067	-0.04706026	0	0	0	0
19.15135	-0.007334067	-0.04706026	0	0	0	0
19.16776	-0.007334067	-0.04706026	0	0	0	0
19.18433	-0.007334067	-0.04706026	0	0	0	0
19.20113	-0.007334067	-0.04706026	0	0	0	0
19.21746	-0.007334067	-0.04706026	0	0	0	0
19.23403	-0.007334067	-0.04706026	0	0	0	0
19.25079	-0.006111722	-0.04706026	0.07291619	-2.222238E-07	2.187769	-6.667579E-06
19.26716	-0.006111722	-0.04706026	0	0	-2.200615	6.706728E-06
19.2838	-0.004889378	-0.04583792	0.07349316	0.07349305	2.226873	2.22687
19.30091	-0.004889378	-0.04461557	2.721139E-08	0.07142904	-2.177909	-0.06116531
19.31686	-0.003667034	-0.04339323	0.07661213	0.076612	2.316826	0.1567378
19.33433	-0.002444689	-0.04217089	0.06999351	0.06999359	-0.1980516	-0.1980452
19.35	-0.001222345	-0.04094854	0.07801101	0.07801088	0.2419826	0.2419761
19.36713	-0.001222345	-0.04094854	0	0	-2.378197	-2.378193
19.3837	0	-0.03850385	0.07378086	0.1475619	2.189282	4.378569
19.40026	0	-0.03728151	0	0.07378095	-2.226711	-2.226713
19.41683	0	-0.03728151	0	0	0	-2.226713
19.43357	0	-0.03728151	0	0	0	0
19.44996	0	-0.03728151	0	0	0	0
19.46663	0	-0.03728151	0	0	0	0
19.4831	0	-0.03728151	0	0	0	0
19.50028	0	-0.03728151	0	0	0	0
19.51719	0	-0.03605916	0	0.07231543	0	2.121307
19.53376	0	-0.03605916	0	0	0	-2.160348
19.55033	0	-0.03605916	0	0	0	0
19.56689	0	-0.03605916	0	0	0	0
19.58363	0	-0.03605916	0	0	0	0
19.60002	0	-0.03605916	0	0	0	0
19.61698	0	-0.03605916	0	0	0	0
19.63355	0	-0.03605916	0	0	0	0
19.65011	0	-0.03605916	0	0	0	0
19.66668	0	-0.03605916	0	0	0	0
19.68325	0	-0.03605916	0	0	0	0
19.69981	0	-0.03605916	0	0	0	0
19.71638	0	-0.03605916	0	0	0	0
19.73295	0	-0.03605916	0	0	0	0
19.74973	0	-0.03605916	0	0	0	0
19.7668	0	-0.03605916	0	0	0	0
19.78337	0	-0.03605916	0	0	0	0
19.79994	0	-0.03605916	0	0	0	0
19.8165	0	-0.03605916	0	0	0	0
19.83307	0	-0.03605916	0	0	0	0
19.84964	0	-0.03605916	0	0	0	0
19.8663	0	-0.03605916	0	0	0	0
19.88277	0	-0.03605916	0	0	0	0
19.89934	0	-0.03605916	0	0	0	0
19.9159	0	-0.03605916	0	0	0	0
19.93247	0	-0.03605916	0	0	0	0
19.94915	0	-0.03605916	0	0	0	0
19.96568	0	-0.03605916	0	0	0	0
19.98217	0	-0.03605916	0	0	0	0
19.99914	0	-0.03605916	0	0	0	0
20.01534	0	-0.03605916	0	0	0	0
20.03187	0	-0.03605916	0	0	0	0
20.04854	0	-0.03605916	0	0	0	0
20.065	0	-0.03605916	0	0	0	0
20.08157	0	-0.03605916	0	0	0	0
20.09814	0	-0.03605916	0	0	0	0
20.1147	0	-0.03605916	0	0	0	0
20.13127	0	-0.03605916	0	0	0	0
20.14794	0	-0.03605916	0	0	0	0
20.16467	0	-0.03605916	0	0	0	0
20.18097	0	-0.03605916	0	0	0	0
20.19761	0	-0.03605916	0	0	0	0
20.2142	0	-0.03605916	0	0	0	0
20.23067	0	-0.03605916	0	0	0	0
20.24724	0	-0.03605916	0	0	0	0
20.26385	0	-0.03605916	0	0	0	0
20.28037	0	-0.03605916	0	0	0	0
20.29694	0	-0.03605916	0	0	0	0
20.3135	0	-0.03605916	0	0	0	0
20.33007	0	-0.03605916	0	0	0	0
20.34663	0	-0.03605916	0	0	0	0
20.3632	0	-0.03605916	0	0	0	0
20.37977	0	-0.03605916	0	0	0	0
20.39634	0	-0.03605916	0	0	0	0
20.4129	0	-0.03605916	0	0	0	0
20.42947	0	-0.03605916	0	0	0	0
20.44605	0	-0.03605916	0	0	0	0
20.4626	0	-0.03605916	0	0	0	0
20.47917	0	-0.03605916	0	0	0	0
20.49582	0	-0.03605916	0	0	0	0
20.5123	0	-0.03605916	0	0	0	0
20.52887	0	-0.03605916	0	0	0	0
20.54544	0	-0.03605916	0	0	0	0
20.56201	0	-0.03605916	0	0	0	0
20.57857	0	-0.03605916	0	0	0	0
20.59514	0	-0.03605916	0	0	0	0
20.61171	0	-0.03605916	0	0	0	0
20.62827	0	-0.03605916	0	0	0	0
20.64486	0	-0.03605916	0	0	0	0
20.66141	0	-0.03605916	0	0	0	0
20.67797	0	-0.03605916	0	0	0	0
20.6949	0	-0.03605916	0	0	0	0
20.71111	0	-0.03605916	0	0	0	0
20.72767	0	-0.03605916	0	0	0	0
20.74424	0	-0.03605916	0	0	0	0
20.76081	0	-0.03605916	0	0	0	0
20.77737	0	-0.03605916	0	0	0	0
20.79395	0	-0.03605916	0	0	0	0
20.81192	0	-0.03605916	0	0	0	0
20.82848	0	-0.03605916	0	0	0	0
20.84505	0	-0.03605916	0	0	0	0
20.8617	0	-0.03605916	0	0	0	0
20.87818	0	-0.03605916	0	0	0	0
20.89475	0	-0.03605916	0	0	0	0
20.91132	0	-0.03605916	0	0	0	0
20.92789	0	-0.03605916	0	0	0	0
20.94445	0	-0.03605916	0	0	0	0
20.96102	0	-0.03605916	0	0	0	0
20.97758	0	-0.03605916	0	0	0	0
20.99461	0	-0.03605916	0	0	0	0
21.01072	0	-0.03605916	0	0	0	0
21.02729	0	-0.03605916	0	0	0	0
21.04436	0	-0.03605916	0	0	0	0
21.06042	0	-0.03605916	0	0	0	0
21.07699	0	-0.03605916	0	0	0	0
21.09356	0	-0.03605916	0	0	0	0
21.11023	0	-0.03605916	0	0	0	0
21.12669	0.007334067	-0.03850385	0.4455577	-0.1485192	13.44928	-4.483093
21.14326	0.04767144	-0.04706027	2.434768	-0.5164662	60.22865	-11.14057
21.15982	0.09167584	-0.05683902	2.656723	-0.5903826	6.699367	-2.231059
21.17639	0.1332355	-0.06661777	2.508549	-0.5902467	-4.472416	0.004103699
21.24382	0.1613495	-0.0727295	0.416932	-0.09063742	-24.90087	5.94789
21.26058	0.1747953	-0.07639653	0.8018952	-0.2186989	4.572118	-1.520956
21.27715	0.1796847	-0.07761888	0.2950907	-0.07377268	-15.20263	4.347355
21.29372	0.1833517	-0.07884122	0.2213413	-0.07378028	-2.225635	-0.0002291181
21.31059	0.1919081	-0.08006357	0.5070672	-0.07243849	8.544041	0.04012344
21.32685	0.2016868	-0.08250825	0.6014653	-0.1503659	2.849106	-2.351989
21.34342	0.2224667	-0.08739763	1.254274	-0.2951233	19.88726	-4.409913
21.35999	0.2285784	-0.08861998	0.3689045	-0.07378118	-26.72051	6.68012
21.37655	0.2469136	-0.09228701	1.106713	-0.2213426	22.2671	-4.453413
21.39312	0.251803	-0.09350935	0.2951247	-0.07378072	-24.49377	4.453427
21.40969	0.25547	-0.09350936	0.2213422	-4.497179E-07	-2.226761	2.226693
21.42626	0.2628041	-0.09473169	0.4426844	-0.07377983	6.68012	-2.226666
21.44282	0.2750275	-0.09595404	0.7378091	-0.07378118	8.906881	-4.069947E-05
21.45939	0.287251	-0.09839874	0.7378091	-0.1475624	0	-2.22672
21.47596	0.2933627	-0.09962108	0.3689461	-0.07378922	-11.13295	2.226606
21.49252	0.2933627	-0.09962108	0	0	-11.1361	2.227219
21.50909	0.294585	-0.09962107	0.07377223	4.496662E-07	2.22645	1.357095E-05
21.52588	0.294585	-0.09962107	0	0	-2.211429	-1.347939E-05
21.54222	0.2970297	-0.09962107	0.1495937	0	4.515007	0
21.55906	0.298252	-0.1008434	0.07258572	-0.07258572	-2.320765	-2.187494
21.57536	0.2994744	-0.1008434	0.07500695	-4.571922E-07	0.07306844	2.190502
21.59192	0.3006968	-0.1008434	0.07379102	-4.497697E-07	-0.03700134	2.258699E-07
21.60857	0.3006968	-0.1008434	0	0	-2.221646	1.354134E-05
21.63076	0.3006967	-0.1020658	-1.343277E-06	-0.05509384	-3.458888E-05	-1.418645
21.65721	0.3031414	-0.1020658	0.09242388	-5.633473E-07	1.900292	1.132735
21.67378	0.3031414	-0.1020658	0	0	-2.148381	1.309493E-05
21.69048	0.3031414	-0.1020658	0	0	0	0
21.70983	0.3031414	-0.1020658	0	0	0	0
21.72649	0.3031414	-0.1020658	0	0	0	0
21.74299	0.3031414	-0.1020658	0	0	0	0
21.75953	0.3031414	-0.1020658	0	0	0	0
21.77609	0.3031414	-0.1020658	0	0	0	0
21.79268	0.3031414	-0.1020658	0	0	0	0
21.80923	0.3031414	-0.1020658	0	0	0	0
21.8258	0.298252	-0.1020658	-0.2950907	4.496662E-07	-8.909446	1.357642E-05
21.84452	0.2860286	-0.09962108	-0.6526743	0.1305345	-10.13059	3.698123
21.86109	0.2505806	-0.08984232	-2.139645	0.5902472	-42.12919	13.02469
21.8778	0.2359125	-0.08617529	-0.8778914	0.2194728	37.91827	-11.14253
21.89464	0.2041315	-0.07884122	-1.887445	0.4355641	-30.09421	6.441555
21.91079	0.1723506	-0.06906246	-1.967455	0.6053709	-2.42516	5.147001
21.92736	0.1307909	-0.06172839	-2.508549	0.4426855	-16.53683	-4.971963
21.94393	0.1124557	-0.05683902	-1.106712	0.2951229	42.30753	-4.453448
21.96049	0.09900991	-0.05317198	-0.8115898	0.2213428	8.906813	-2.226686
21.97769	0.09167584	-0.0507273	-0.426435	0.1421449	11.40666	-2.345508
21.99363	0.08556412	-0.0507273	-0.3835649	-2.337952E-07	1.293897	-4.290196
22.01019	0.08189707	-0.04950495	-0.221318	0.07377268	4.99173	2.269717
22.02676	0.08067474	-0.0482826	-0.07378877	0.07378945	4.452442	0.0005059327
22.04355	0.0794524	-0.04828261	-0.07280011	-4.437408E-07	0.02963997	-2.212212
22.06009	0.07823005	-0.04828261	-0.07390881	0	-0.03326527	1.331395E-05
22.07646	0.0770077	-0.04828261	-0.07466613	0	-0.02301233	0
22.09303	0.07456302	-0.04706027	-0.1475614	0.07378095	-2.213107	2.239995
22.10959	0.06967364	-0.04583792	-0.2951233	0.07378095	-4.453427	0
22.12643	0.06478426	-0.04217089	-0.2904425	0.2178316	0.1401396	4.312703
22.14293	0.05622785	-0.03850385	-0.5186754	0.2222895	-6.847484	0.133746
22.15929	0.0550055	-0.0372815	-0.07468399	0.07468399	13.51012	-4.491457
22.17586	0.04767143	-0.03483682	-0.442685	0.1475614	-11.17383	2.212821
22.19243	0.04155971	-0.03116979	-0.3689041	0.2213424	2.226714	2.226714
22.20899	0.03667033	-0.0287251	-0.2951236	0.1475618	2.2267	-2.226703
22.22559	0.02444689	-0.02261337	-0.7366214	0.3683109	-13.3137	6.656856
22.24213	0.01344579	-0.01894634	-0.6650996	0.2216997	2.158533	-4.424733
22.2587	0.002444689	-0.01283462	-0.6640277	0.3689044	0.032377	4.446228
22.27526	-0.007334067	-0.009167584	-0.5902469	0.2213426	2.22671	-4.453424
22.29183	-0.01466813	-0.006722895	-0.4427361	0.1475787	4.452139	-2.226326
22.3084	-0.02077986	-0.00550055	-0.3689044	0.07378086	2.228374	-2.227351
22.32519	-0.02322455	-0.004278206	-0.1455839	0.07279198	6.694355	-0.02964328
22.34177	-0.02566923	-0.003055861	-0.1474089	0.0737045	-0.05467946	0.02733996
22.3581	-0.02689158	-0.003055861	-0.07488447	-1.426388E-08	2.203889	-2.239749
22.37469	-0.02811392	-0.001833517	-0.07367904	0.07367908	0.03662449	2.238588
22.39123	-0.02933627	-0.0006111723	-0.07388291	0.07388293	-0.006152591	0.006152141
22.40798	-0.03055861	-0.0006111723	-0.0729578	0	0.0277823	-2.218807
22.42436	-0.03055861	-0.0006111723	0	0	2.201998	0
22.44093	-0.03055861	-0.0006111723	0	0	0	0
22.4575	-0.03055861	-0.0006111723	0	0	0	0
22.47406	-0.03055861	-0.0006111723	0	0	0	0
22.49063	-0.03055861	-0.0006111723	0	0	0	0
22.5072	-0.03055861	-0.0006111723	0	0	0	0
22.52376	-0.03055861	-0.0006111723	0	0	0	0
22.54033	-0.03055861	-0.0006111723	0	0	0	0
22.5569	-0.03055861	-0.0006111723	0	0	0	0
22.57356	-0.03055861	-0.0006111723	0	0	0	0
22.59003	-0.03055861	-0.0006111723	0	0	0	0
22.60666	-0.03055861	-0.0006111723	0	0	0	0
22.62361	-0.03055861	-0.0006111723	0	0	0	0
22.64018	-0.03055861	-0.0006111723	0	0	0	0
22.65712	-0.03055861	-0.0006111723	0	0	0	0
22.67331	-0.03055861	-0.0006111723	0	0	0	0
22.69064	-0.03055861	-0.0006111723	0	0	0	0
22.70647	-0.03055861	-0.0006111723	0	0	0	0
22.72301	-0.03055861	-0.0006111723	0	0	0	0
22.73958	-0.02933627	-0.0006111723	0.07378095	0	2.228381	0
22.75615	-0.02811392	-0.0006111722	0.07378083	3.513421E-09	-3.372885E-06	1.060353E-07
22.7737	-0.02689158	-0.0006111722	0.069621	0	-0.121902	-1.029593E-07
22.78962	-0.02689158	-0.0006111722	0	0	-2.079737	0
22.80805	-0.02566924	-0.0006111722	0.06632782	0	1.93108	0
22.8247	-0.02566924	-0.0006111722	0	0	-1.890658	0
22.84118	-0.02566924	-0.0006111722	0	0	0	0
22.85775	-0.02566924	-0.0006111722	0	0	0	0
22.87432	-0.02566924	-0.0006111722	0	0	0	0
22.89089	-0.02444689	-0.0006111723	0.07377245	-3.513017E-09	2.226457	-1.060231E-07
22.90745	-0.02444689	-0.0006111723	0	0	-2.226457	1.060231E-07
22.92402	-0.0220022	-0.0006111722	0.1475787	3.513826E-09	4.454446	1.060597E-07
22.94058	-0.01955751	-0.0006111722	0.1475618	0	-0.0005095598	-1.060536E-07
22.95778	-0.01833517	-0.0006111722	0.07109611	3.385576E-09	-2.264974	1.002834E-07
22.97394	-0.01833517	-0.0006111722	0	0	-2.131696	-1.015107E-07
22.99028	-0.01833517	-0.0006111722	0	0	0	0
23.00685	-0.01466813	-0.0006111722	0.2213426	-3.513421E-09	6.724648	-1.067419E-07
23.02342	-0.01344579	-0.0006111723	0.07378083	-3.513421E-09	-4.453422	0
23.03999	-0.01222344	-0.0006111722	0.07378089	3.513421E-09	1.798872E-06	2.120705E-07
23.05655	-0.0110011	-0.0006111722	0.07378083	0	-1.798872E-06	-1.060353E-07
23.07312	-0.009778757	-0.0006111723	0.07378934	-3.513826E-09	0.0002565788	-1.060536E-07
23.08969	-0.008556412	-0.0006111722	0.07378089	3.513421E-09	-0.0002547799	2.120949E-07
23.10666	-0.008556412	-0.0006111722	0	0	-2.199991	-1.047628E-07
23.12282	-0.008556412	-0.0006111722	0	0	0	0
23.13961	-0.008556412	-0.0006111722	0	0	0	0
23.15611	-0.008556412	-0.0006111722	0	0	0	0
23.17252	-0.008556412	-0.0006111722	0	0	0	0
23.18913	-0.008556412	-0.0006111722	0	0	0	0
23.20565	-0.008556412	-0.0006111722	0	0	0	0
23.22222	-0.008556412	-0.0006111722	0	0	0	0
23.23878	-0.008556412	-0.0006111722	0	0	0	0
23.25535	-0.008556412	-0.0006111722	0	0	0	0
23.27192	-0.008556412	-0.0006111722	0	0	0	0
23.28849	-0.008556412	-0.0006111722	0	0	0	0
23.30505	-0.008556412	-0.0006111722	0	0	0	0
23.32162	-0.007334067	-0.0006111723	0.07378086	-3.513421E-09	2.226839	-1.060414E-07
23.33819	-0.007334067	-0.0006111723	0	0	-2.226711	1.060353E-07
23.35503	-0.006111722	0.0006111722	0.07258589	0.07258587	2.172761	2.17276
23.37132	-0.004889378	0.0006111722	0.07502463	0	0.07360552	-2.190772
23.38789	-0.003667033	0.001833517	0.07378086	0.07378085	-0.03785058	2.245322
23.40445	-0.001222344	0.003055861	0.1475787	0.07378936	2.227351	0.0002568037
23.42102	0	0.004278206	0.07378086	0.07378086	-2.227351	-0.000256354
23.43806	0.001222345	0.00550055	0.07170869	0.07170869	-0.06164729	-0.06164751
23.45415	0.001222345	0.00550055	0	0	-2.164297	-2.164297
23.47072	0.002444689	0.00550055	0.07378085	0	2.259487	0
23.48729	0.002444689	0.00550055	0	0	-2.226711	0
23.50385	0.002444689	0.00550055	0	0	0	0
23.52042	0.002444689	0.00550055	0	0	0	0
23.53699	0.002444689	0.00550055	0	0	0	0
23.55355	0.002444689	0.00550055	0	0	0	0
23.57111	0.002444689	0.00550055	0	0	0	0
23.58881	0.002444689	0.00550055	0	0	0	0
23.60558	0.002444689	0.00550055	0	0	0	0
23.62194	0.002444689	0.00550055	0	0	0	0
23.63851	0.002444689	0.00550055	0	0	0	0
23.65804	0.002444689	0.00550055	0	0	0	0
23.6746	0.002444689	0.00550055	0	0	0	0
23.69117	0.002444689	0.00550055	0	0	0	0
23.70774	0.002444689	0.00550055	0	0	0	0
23.72744	0.002444689	0.00550055	0	0	0	0
23.74401	0.002444689	0.00550055	0	0	0	0
23.76136	0.002444689	0.00550055	0	0	0	0
23.77792	0.002444689	0.00550055	0	0	0	0
23.79482	0.002444689	0.00550055	0	0	0	0
23.81106	0.002444689	0.00550055	0	0	0	0
23.82762	0.002444689	0.00550055	0	0	0	0
23.84431	0.002444689	0.00550055	0	0	0	0
23.86076	0.002444689	0.00550055	0	0	0	0
23.87732	0.002444689	0.00550055	0	0	0	0
23.89389	0.002444689	0.00550055	0	0	0	0
23.91046	0.002444689	0.00550055	0	0	0	0
23.92798	0.002444689	0.00550055	0	0	0	0
23.94359	0.002444689	0.00550055	0	0	0	0
23.96016	0.002444689	0.00550055	0	0	0	0
23.97672	0.003667034	0.00550055	0.07379786	-2.811384E-08	2.227352	-8.485263E-07
23.99329	0.004889378	0.00550055	0.07377239	2.810414E-08	-0.0007688371	1.69676E-06
24.00995	0.004889378	0.00550055	0	0	-2.220193	-8.457988E-07
24.02642	0.008556412	0.003055861	0.2226241	-0.1484161	6.719582	-4.479721
24.04316	0.01344579	0.0006111723	0.2920636	-0.1460318	2.090755	0.07178725
24.05956	0.01711282	-0.0006111722	0.2237121	-0.0745707	-2.062973	2.156825
24.07612	0.02077986	-0.001833517	0.2213681	-0.07378936	-0.07112183	0.02370788
24.09269	0.02444689	-0.003055861	0.2212916	-0.07376387	-0.002310068	0.0007691982
24.10926	0.02566923	-0.003055861	0.07378083	0	-4.45137	2.225942
24.12583	0.02566923	-0.003055861	0	0	-2.22671	0
24.14281	0.02566923	-0.003055861	0	0	0	0
24.15896	0.02566923	-0.003055861	0	0	0	0
24.17552	0.02566923	-0.003055861	0	0	0	0
24.19209	0.02566923	-0.003055861	0	0	0	0
24.20951	0.02566923	-0.003055861	0	0	0	0
24.22522	0.02566923	-0.003055861	0	0	0	0
24.24179	0.02566923	-0.003055861	0	0	0	0
24.25835	0.02566923	-0.003055861	0	0	0	0
24.27492	0.02566923	-0.003055861	0	0	0	0
24.29149	0.02566923	-0.003055861	0	0	0	0
24.30805	0.02566923	-0.003055861	0	0	0	0
24.32479	0.02566923	-0.003055861	0	0	0	0
24.34119	0.02566923	-0.003055861	0	0	0	0
24.35775	0.02566923	-0.003055861	0	0	0	0
24.37432	0.02566923	-0.003055861	0	0	0	0
24.39089	0.02566923	-0.003055861	0	0	0	0
24.40746	0.02566923	-0.003055861	0	0	0	0
24.42402	0.02566923	-0.003055861	0	0	0	0
24.44059	0.02566923	-0.003055861	0	0	0	0
24.45768	0.02566923	-0.003055861	0	0	0	0
24.47372	0.02566923	-0.003055861	0	0	0	0
24.49029	0.02566923	-0.003055861	0	0	0	0
24.50724	0.02566923	-0.003055861	0	0	0	0
24.52343	0.02566923	-0.003055861	0	0	0	0
24.53999	0.02566923	-0.003055861	0	0	0	0
24.55665	0.02566923	-0.003055861	0	0	0	0
24.57312	0.02566923	-0.003055861	0	0	0	0
24.5901	0.02566923	-0.003055861	0	0	0	0
24.60626	0.02566923	-0.003055861	0	0	0	0
24.62283	0.02566923	-0.003055861	0	0	0	0
24.63939	0.02566923	-0.003055861	0	0	0	0
24.65596	0.02566923	-0.003055861	0	0	0	0
24.67253	0.02566923	-0.003055861	0	0	0	0
24.68909	0.02566923	-0.003055861	0	0	0	0
24.70566	0.02566923	-0.003055861	0	0	0	0
24.72223	0.02566923	-0.003055861	0	0	0	0
24.73879	0.02566923	-0.003055861	0	0	0	0
24.75536	0.02566923	-0.003055861	0	0	0	0
24.77193	0.02566923	-0.003055861	0	0	0	0
24.79014	0.02566923	-0.003055861	0	0	0	0
24.80671	0.02566923	-0.003055861	0	0	0	0
24.82331	0.02566923	-0.003055861	0	0	0	0
24.84016	0.02566923	-0.003055861	0	0	0	0
24.85641	0.02566923	-0.003055861	0	0	0	0
24.87298	0.02566923	-0.003055861	0	0	0	0
24.88974	0.02566923	-0.003055861	0	0	0	0
24.90631	0.02566923	-0.003055861	0	0	0	0
24.9233	0.02566923	-0.003055861	0	0	0	0
24.93985	0.02566923	-0.003055861	0	0	0	0
24.95601	0.02566923	-0.003055861	0	0	0	0
24.97258	0.02566923	-0.003055861	0	0	0	0
24.98914	0.02566923	-0.003055861	0	0	0	0
25.00571	0.02566923	-0.003055861	0	0	0	0
25.02228	0.02566923	-0.003055861	0	0	0	0
25.03884	0.02566923	-0.003055861	0	0	0	0
25.05541	0.02566923	-0.003055861	0	0	0	0
25.07248	0.02566923	-0.003055861	0	0	0	0
25.08854	0.02566923	-0.003055861	0	0	0	0
25.10511	0.02566923	-0.003055861	0	0	0	0
25.12168	0.02566923	-0.003055861	0	0	0	0
25.13824	0.02566923	-0.003055861	0	0	0	0
25.15481	0.02566923	-0.003055861	0	0	0	0
25.17141	0.02566923	-0.003055861	0	0	0	0
25.18794	0.02566923	-0.003055861	0	0	0	0
25.20451	0.02566923	-0.003055861	0	0	0	0
25.22108	0.02566923	-0.003055861	0	0	0	0
25.23764	0.02566923	-0.003055861	0	0	0	0
25.25471	0.02566923	-0.004278206	0	-0.07161254	0	-2.129039
25.27077	0.0220022	-0.007945239	-0.2282809	-0.2282808	-6.889929	-4.728531
25.28734	0.01589048	-0.01405696	-0.3688617	-0.3688619	-4.307956	-4.307964
25.30391	0.008556411	-0.01894634	-0.4427362	-0.2951573	-2.229537	2.224407
25.32048	-0.006111722	-0.02994744	-0.8853703	-0.6640279	-13.35949	-11.13318
25.33704	-0.01466813	-0.03483682	-0.5165254	-0.2951573	11.1324	11.13318
25.35361	-0.05745019	-0.05317198	-2.58233	-1.106713	-62.3497	-24.49421
25.37055	-0.106344	-0.0727295	-2.886759	-1.154704	-9.08621	-1.432369
25.38674	-0.1589048	-0.0947317	-3.24582	-1.358715	-10.83772	-6.157786
25.40331	-0.2065762	-0.1118445	-2.877121	-1.032813	11.25365	9.947404
25.41988	-0.2444689	-0.1289573	-2.287208	-1.032932	17.8026	-0.003586744
25.43644	-0.2725828	-0.1399584	-1.696959	-0.6640274	17.81373	11.13356
25.45301	-0.2933627	-0.1472925	-1.254418	-0.4427362	13.35668	6.678966
25.46958	-0.3055861	-0.1521819	-0.7378073	-0.2951229	15.59225	4.455235
25.48614	-0.3153649	-0.1546266	-0.5902494	-0.1475624	4.453305	4.453386
25.50297	-0.322699	-0.1570713	-0.4358105	-0.1452711	4.624505	0.06861025
25.51927	-0.3324777	-0.1595159	-0.599845	-0.1499603	-4.95114	-0.1415385
25.53905	-0.3544799	-0.1607383	-1.112391	-0.06180011	-14.20532	2.443376
25.55562	-0.3764821	-0.1607383	-1.327904	0	-5.929081	1.700218
25.57256	-0.3874832	-0.1607383	-0.6493734	0	20.24847	0
25.58875	-0.397262	-0.1607383	-0.6039452	0	1.371103	0
25.60532	-0.4021513	-0.1607383	-0.2950889	0	9.427669	0
25.62189	-0.4058184	-0.1607383	-0.2213677	0	2.224912	0
25.63846	-0.4070407	-0.1607383	-0.07377893	0	4.454493	0
25.66116	-0.4082631	-0.1607383	-0.05383695	0	0.5077873	0
25.6783	-0.4082631	-0.1607383	0	0	1.351241	0
25.69606	-0.4082631	-0.1607383	0	0	0	0
25.71276	-0.4082631	-0.1607383	0	0	0	0
25.73355	-0.4082631	-0.1607383	0	0	0	0
25.75012	-0.4082631	-0.1607383	0	0	0	0
25.76984	-0.4082631	-0.1607383	0	0	0	0
25.78641	-0.4033737	-0.1607383	0.2950889	0	8.132014	0
25.80297	-0.3984843	-0.159516	0.2951569	0.07378922	0.002050714	2.226963
25.81954	-0.3923726	-0.1582936	0.3689036	0.07378072	2.22581	-0.000256354
25.83612	-0.3801491	-0.1546266	0.7373864	0.2212157	11.11763	4.448317
25.85267	-0.3630363	-0.1509596	1.033646	0.2214952	8.941647	0.008434046
25.86924	-0.3471458	-0.1460702	0.9590408	0.2950898	-2.252237	2.22173
25.88581	-0.3288107	-0.1411808	1.106713	0.2951229	4.45649	0.0009983163
25.90237	-0.3080308	-0.1362914	1.254418	0.2951578	4.458026	0.0010533
25.91894	-0.2848063	-0.131402	1.401997	0.2951578	4.45444	0
25.93551	-0.2566923	-0.124068	1.696962	0.4426852	8.902578	4.452644
25.95207	-0.2298008	-0.1179562	1.623365	0.3689466	-2.221303	-2.225566
25.96864	-0.2053539	-0.1118445	1.475617	0.3689045	-4.459286	-0.001268278
25.98521	-0.184574	-0.1032881	1.254274	0.516466	-6.680146	4.453413
26.00177	-0.1601271	-0.09350935	1.475788	0.5903151	6.685687	2.2289
26.01834	-0.149126	-0.08984233	0.6640265	0.2213417	-24.50042	-11.13628
26.03491	-0.1393473	-0.08373059	0.5901796	0.3688625	-2.228575	4.45193
26.05147	-0.1320132	-0.07884122	0.4427362	0.2951573	-4.449851	-2.224426
26.06804	-0.1234568	-0.07272951	0.5164655	0.3689036	2.225284	2.225796
26.08461	-0.1173451	-0.06784012	0.3689045	0.2951238	-4.4534	-2.22668
26.10159	-0.110011	-0.06295075	0.4317499	0.2878331	1.872956	-0.2172827
26.11774	-0.1038993	-0.05683902	0.378491	0.378491	-1.607356	2.736061
26.13431	-0.0990099	-0.05194964	0.2950894	0.2950896	-2.549202	-2.549195
26.15089	-0.09289818	-0.04583792	0.3687343	0.3687343	2.221968	2.221961
26.16744	-0.08556411	-0.03728151	0.4429402	0.5167634	2.239669	4.467787
26.18468	-0.07456301	-0.02505806	0.6383075	0.7092305	5.781379	5.695557
26.20125	-0.0550055	-0.009167584	1.180358	0.9590407	16.03512	7.389972
26.21781	-0.04889378	-0.00550055	0.3689468	0.2213681	-24.48843	-22.263
26.2348	-0.03911502	0.001833517	0.575731	0.4317982	6.163418	6.272088
26.25168	-0.03422565	0.006722894	0.2896544	0.2896545	-8.447567	-4.197368
26.26751	-0.02689158	0.01038993	0.4631612	0.2315805	5.30361	-1.775156
26.28408	-0.02322455	0.01283462	0.2212916	0.1475278	-7.463763	-2.593753
26.30065	-0.0220022	0.01405696	0.07379783	0.07379789	-4.451369	-2.225172
26.31731	-0.0220022	0.01405696	0	0	-2.220958	-2.22096
26.33378	-0.0220022	0.01405696	0	0	0	0
26.35092	-0.0220022	0.01405696	0	0	0	0
26.36781	-0.0220022	0.01405696	0	0	0	0
26.38436	-0.02077986	0.01405696	0.07385737	-5.627305E-08	2.208929	-1.683017E-06
26.40088	-0.02077986	0.01527931	0	0.07398532	-2.233262	2.237133
26.41746	-0.02077986	0.01527931	0	0	0	-2.234682
26.43376	-0.02077986	0.01527931	0	0	0	0
26.45048	-0.02077986	0.01527931	0	0	0	0
26.46698	-0.02077986	0.01527931	0	0	0	0
26.48351	-0.02077986	0.01527931	0	0	0	0
26.50007	-0.02077986	0.01527931	0	0	0	0
26.51706	-0.02077986	0.01527931	0	0	0	0
26.53363	-0.02077986	0.01527931	0	0	0	0
26.5502	-0.02077986	0.01527931	0	0	0	0
26.56679	-0.02077986	0.01527931	0	0	0	0
26.58335	-0.02077986	0.01527931	0	0	0	0
26.60041	-0.02077986	0.01527931	0	0	0	0
26.61646	-0.01589048	0.01650165	0.304483	0.07612084	9.196197	2.299052
26.63303	-0.01222344	0.01772399	0.2213681	0.07378922	-2.547716	-0.07147108
26.6496	-0.0110011	0.017724	0.07378083	1.124295E-07	-4.454449	-2.227088
26.6678	-0.009778757	0.01894634	0.0671691	0.0671691	-0.1901823	1.932073
26.6845	-0.008556411	0.01894634	0.07317439	-1.115052E-07	0.1720588	-1.924477
26.70101	-0.007334067	0.02016868	0.07402796	0.0740281	0.02569714	2.22866
26.71755	-0.007334067	0.02016868	0	0	-2.239712	-2.239717
26.73407	-0.007334067	0.02016868	0	0	0	0
26.75367	-0.007334067	0.02016868	0	0	0	0
26.77024	-0.007334067	0.02016868	0	0	0	0
26.7868	-0.007334067	0.02016868	0	0	0	0
26.80337	-0.007334067	0.02016868	0	0	0	0
26.81993	-0.007334067	0.02016868	0	0	0	0
26.83728	-0.007334067	0.02016868	0	0	0	0
26.85307	-0.007334067	0.02016868	0	0	0	0
26.86963	-0.007334067	0.02016868	0	0	0	0
26.8862	-0.007334067	0.02016868	0	0	0	0
26.90277	-0.007334067	0.02016868	0	0	0	0
26.91933	-0.007334067	0.02016868	0	0	0	0
26.9359	-0.007334067	0.02016868	0	0	0	0
26.95247	-0.007334067	0.02016868	0	0	0	0
26.96939	-0.007334067	0.02016868	0	0	0	0
26.9856	-0.007334067	0.02016868	0	0	0	0
27.00217	-0.007334067	0.02016868	0	0	0	0
27.01873	-0.007334067	0.02016868	0	0	0	0
27.0353	-0.006111722	0.02016868	0.07378086	0	2.226711	0
27.05187	-0.004889378	0.02016868	0.07378934	0	0.0002556794	0
27.06843	-0.001222344	0.02016868	0.2213426	0	4.453423	0
27.085	0.003667033	0.01772399	0.2950895	-0.1475448	2.225557	-4.452655
27.1017	0.006111722	0.01772399	0.146449	0	-4.468744	4.435803
27.11822	0.006111723	0.01650165	2.817874E-08	-0.07396819	-4.408671	-2.226724
27.13475	0.007334067	0.01650165	0.07393405	1.12663E-07	2.236483	2.23752
27.15248	0.007334067	0.01527931	2.627145E-08	-0.06896167	-2.15816	-2.013019
27.16905	0.0110011	0.01161227	0.2213171	-0.2213171	6.453497	-4.442611
27.18562	0.0110011	0.01161227	0	0	-6.678978	6.67898
27.20218	0.0110011	0.01038993	0	-0.07378939	0	-2.227096
27.21937	0.0110011	0.01038993	0	0	0	2.18607
27.23532	0.0110011	0.01038993	0	0	0	0
27.25188	0.0110011	0.009167584	-5.622121E-08	-0.07378934	-1.729311E-06	-2.26969
27.26845	0.0110011	0.009167584	0	0	1.696857E-06	2.227095
27.28502	0.0110011	0.009167584	0	0	0	0
27.30158	0.0110011	0.009167584	0	0	0	0
27.31815	0.0110011	0.009167584	0	0	0	0
27.33472	0.0110011	0.009167584	0	0	0	0
27.35128	0.0110011	0.009167584	0	0	0	0
27.36792	0.0110011	0.00794524	5.596347E-08	-0.07345104	1.685294E-06	-2.211918
27.38441	0.0110011	0.006722895	0	-0.07412221	-1.689078E-06	-0.02025691
27.40098	0.0110011	0.00550055	0	-0.07378086	0	0.01032546
27.41755	0.0110011	0.00550055	0	0	0	2.226711
27.43442	0.0110011	0.00550055	0	0	0	0
27.45069	0.0110011	0.00550055	0	0	0	0
27.46782	0.0110011	0.00550055	0	0	0	0
27.48501	0.0110011	0.00550055	0	0	0	0
27.50096	0.0110011	0.00550055	0	0	0	0
27.51752	0.0110011	0.00550055	0	0	0	0
27.53418	0.0110011	0.00550055	0	0	0	0
27.55066	0.0110011	0.00550055	0	0	0	0
27.56723	0.0110011	0.00550055	0	0	0	0
27.58424	0.0110011	0.00550055	0	0	0	0
27.60244	0.0110011	0.00550055	0	0	0	0
27.6202	0.0110011	0.00550055	0	0	0	0
27.63677	0.0110011	0.00550055	0	0	0	0
27.65334	0.0110011	0.00550055	0	0	0	0
27.67037	0.0110011	0.00550055	0	0	0	0
27.68647	0.0110011	0.00550055	0	0	0	0
27.7141	0.0110011	0.00550055	0	0	0	0
27.73108	0.0110011	0.00550055	0	0	0	0
27.74761	0.0110011	0.00550055	0	0	0	0
27.76381	0.0110011	0.00550055	0	0	0	0
27.79043	0.0110011	0.004278206	0	-0.04591021	0	-1.072216
27.807	0.01344579	0.003055861	0.1475447	-0.07377237	3.415875	-0.6450498
27.82357	0.01466813	0.003055861	0.07378083	0	-2.226069	2.226326
27.84014	0.01466813	0.003055861	0	0	-2.22671	0
27.85713	0.01466813	0.003055861	0	0	0	0
27.87327	0.01466813	0.003055861	0	0	0	0
27.88984	0.01466813	0.003055861	0	0	0	0
27.9064	0.01466813	0.003055861	0	0	0	0
27.92297	0.01466813	0.003055861	0	0	0	0
27.93953	0.01466813	0.003055861	0	0	0	0
27.9561	0.01466813	0.003055861	0	0	0	0
27.97267	0.01466813	0.003055861	0	0	0	0
27.98923	0.01466813	0.003055861	0	0	0	0
28.04233	0.01466813	0.003055861	0	0	0	0
28.0589	0.01466813	0.003055861	0	0	0	0
28.07547	0.01466813	0.003055861	0	0	0	0
28.09274	0.01466813	0.003055861	0	0	0	0
28.10859	0.01589048	0.003055861	0.07710074	0	2.327307	0
28.12516	0.01589048	0.003055861	0	0	-2.378103	0
28.14177	0.01589048	0.003055861	0	0	0	0
28.15829	0.01589048	0.003055861	0	0	0	0
28.17486	0.01589048	0.003055861	0	0	0	0
28.19143	0.01589048	0.003055861	0	0	0	0
28.20799	0.01589048	0.003055861	0	0	0	0
28.22456	0.01589048	0.003055861	0	0	0	0
28.24113	0.01589048	0.003055861	0	0	0	0
28.25769	0.01589048	0.003055861	0	0	0	0
28.27427	0.01589048	0.003055861	0	0	0	0
28.29083	0.01589048	0.003055861	0	0	0	0
28.3074	0.01589048	0.003055861	0	0	0	0
28.32396	0.01589048	0.003055861	0	0	0	0
28.34053	0.01589048	0.003055861	0	0	0	0
28.3571	0.01589048	0.003055861	0	0	0	0
28.37366	0.01589048	0.003055861	0	0	0	0
28.39023	0.01589048	0.003055861	0	0	0	0
28.40687	0.01589048	0.003055861	0	0	0	0
28.42358	0.01589048	0.003055861	0	0	0	0
28.4402	0.01589048	0.003055861	0	0	0	0
28.45689	0.01589048	0.003055861	0	0	0	0
28.4737	0.01589048	0.003055861	0	0	0	0
28.48992	0.01589048	0.003055861	0	0	0	0
28.5062	0.01589048	0.003055861	0	0	0	0
28.52276	0.01589048	0.003055861	0	0	0	0
28.53933	0.01589048	0.003055861	0	0	0	0
28.55589	0.01589048	0.003055861	0	0	0	0
28.57255	0.01589048	0.003055861	0	0	0	0
28.58903	0.01589048	0.003055861	0	0	0	0
28.60573	0.01589048	0.003055861	0	0	0	0
28.62216	0.01589048	0.003055861	0	0	0	0
28.6388	0.01589048	0.003055861	0	0	0	0
28.65582	0.01589048	0.003055861	0	0	0	0
28.67233	0.01589048	0.003055861	0	0	0	0
28.68843	0.01589048	0.003055861	0	0	0	0
28.70535	0.01589048	0.003055861	0	0	0	0
28.72157	0.01589048	0.003055861	0	0	0	0
28.73813	0.01589048	0.003055861	0	0	0	0
28.75489	0.01589048	0.003055861	0	0	0	0
28.77523	0.01589048	0.003055861	0	0	0	0
28.7918	0.01589048	0.003055861	0	0	0	0
28.80837	0.01589048	0.003055861	0	0	0	0
28.82494	0.01589048	0.003055861	0	0	0	0
28.8415	0.01589048	0.003055861	0	0	0	0
28.85807	0.01589048	0.003055861	0	0	0	0
28.87479	0.01589048	0.003055861	0	0	0	0
28.8912	0.01589048	0.003055861	0	0	0	0
28.90849	0.01589048	0.003055861	0	0	0	0
28.92506	0.01589048	0.003055861	0	0	0	0
28.94162	0.01589048	0.003055861	0	0	0	0
28.95821	0.01589048	0.003055861	0	0	0	0
28.97476	0.01589048	0.003055861	0	0	0	0
28.99132	0.01589048	0.003055861	0	0	0	0
29.00789	0.01589048	0.003055861	0	0	0	0
29.02446	0.01589048	0.003055861	0	0	0	0
29.04103	0.01589048	0.003055861	0	0	0	0
29.05759	0.01589048	0.003055861	0	0	0	0
29.07416	0.01589048	0.003055861	0	0	0	0
29.09073	0.01589048	0.003055861	0	0	0	0
29.10729	0.01589048	0.003055861	0	0	0	0
29.12386	0.01589048	0.003055861	0	0	0	0
29.14043	0.01589048	0.003055861	0	0	0	0
29.157	0.01589048	0.003055861	0	0	0	0
29.17356	0.01589048	0.003055861	0	0	0	0
29.19013	0.01589048	0.003055861	0	0	0	0
29.2067	0.01589048	0.003055861	0	0	0	0
29.22339	0.01589048	0.003055861	0	0	0	0
29.2399	0.01589048	0.001833517	0	-0.07401947	0	-2.229036
29.25649	0.009778757	0.0006111723	-0.3683954	-0.07367907	-11.12844	0.01028283
29.27296	0	-0.0006111722	-0.593733	-0.07421663	-6.816006	-0.01626008
29.28962	-0.01344579	-0.001833517	-0.807314	-0.07339219	-6.447742	0.02488871
29.30614	-0.02322455	-0.003055861	-0.5919507	-0.07399383	6.49183	-0.01813566
29.32266	-0.02933627	-0.004278205	-0.3698409	-0.07396817	6.72147	0.0007765152
29.33923	-0.03178095	-0.004278205	-0.1475617	0	6.716908	2.235194
29.3558	-0.03178095	-0.004278205	0	0	4.45342	0
29.37236	-0.03178095	-0.004278205	0	0	0	0
29.38893	-0.03667033	0.00550055	-0.2951236	0.5902469	-8.90736	17.81471
29.4055	-0.04522675	0.02383572	-0.5164065	1.106586	-6.677948	15.58223
29.42206	-0.05622785	0.05439433	-0.6641043	1.844734	-4.457529	22.27736
29.43863	-0.06845129	0.0947317	-0.7378086	2.434768	-2.224526	17.8083
29.4552	-0.07578535	0.1216233	-0.4426848	1.623179	8.906854	-24.49381
29.47191	-0.0794524	0.1375138	-0.2193981	0.9507232	6.709067	-20.2052
29.48833	-0.08189708	0.1460702	-0.1488986	0.5211458	2.127804	-12.96542
29.5049	-0.08434177	0.1546266	-0.1475619	0.516466	0.04052255	-0.1418754
29.52149	-0.08678646	0.1619606	-0.1473244	0.4419729	0.007160485	-2.246395
29.53857	-0.09045349	0.1790735	-0.2147652	1.002239	-2.003081	16.64066
29.55511	-0.09534287	0.2047427	-0.2954976	1.551363	-2.40126	16.33282
29.57168	-0.09900991	0.2463024	-0.2213431	2.50855	2.239405	28.90628
29.58825	-0.1002323	0.2756387	-0.07378072	1.770741	4.453441	-22.26712
29.60485	-0.1051216	0.3135314	-0.2944454	2.281952	-6.652014	15.41063
29.62138	-0.1124557	0.3587581	-0.4437577	2.736508	-4.506513	13.71933
29.63795	-0.1173451	0.383205	-0.2951233	1.475615	4.491222	-38.0999
29.65451	-0.1185674	0.3954284	-0.07378072	0.7378109	6.680134	-22.26696
29.67108	-0.1197898	0.4015402	-0.07378118	0.3689036	-1.37164E-05	-11.13364
29.68765	-0.1210121	0.4052072	-0.07378118	0.221344	0	-4.453359
29.70421	-0.1210121	0.4064296	0	0.07378922	2.226849	-4.453468
29.73672	-0.1210121	0.4064296	0	0	0	-1.503568
29.7627	-0.1222345	0.4052072	-0.04706002	-0.04705973	-0.8046506	-0.8046457
29.79977	-0.1222344	0.4039848	4.019603E-07	-0.03297361	0.7464517	0.2234279
29.82895	-0.1210121	0.4027625	0.04189445	-0.04189445	0.6323826	-0.1346584
29.84551	-0.1185674	0.4027625	0.1475614	0	2.309967	0.9158469
29.86208	-0.1173451	0.4003178	0.07378967	-0.1475784	-2.226565	-4.454182
29.88456	-0.113678	0.3978731	0.1631519	-0.1087677	2.288903	0.9940882
29.90112	-0.1051216	0.3880944	0.5164655	-0.5902476	9.049248	-12.33191
29.91769	-0.09656521	0.3734262	0.5164664	-0.8853705	2.698308E-05	-8.906827
29.93431	-0.08311942	0.34409	0.8092601	-1.765657	8.823833	-26.52893
29.95084	-0.06478425	0.2951962	1.108628	-2.956342	9.029733	-35.91425
29.96739	-0.04278206	0.2401907	1.329586	-3.323965	6.67814	-11.11088
29.98396	-0.01589048	0.1717394	1.623179	-4.131728	8.865763	-24.39237
30.00052	0.003667034	0.1081775	1.18063	-3.837046	-13.35693	8.894019
30.01709	0.01466813	0.06295074	0.6640278	-2.729892	-15.59197	33.41589
30.03497	0.02077986	0.03361448	0.3419381	-1.641303	-9.351926	31.60737
30.05153	0.02444689	0.00794524	0.2213173	-1.54922	-3.502053	2.673503
30.0681	0.02566924	0.0006111722	0.07378083	-0.4426852	-4.452402	33.39336
30.08467	0.02566923	-0.009167584	-1.124165E-07	-0.5901789	-2.226585	-4.451113
30.10124	0.02566924	-0.01527931	1.124424E-07	-0.3689468	6.786257E-06	6.676797
30.1178	0.02566923	-0.02016868	-1.124295E-07	-0.2951233	-6.787038E-06	2.228127
30.13437	0.02566924	-0.02383572	1.124295E-07	-0.2213426	6.786257E-06	2.226705
30.15111	0.02566923	-0.02994744	-1.112511E-07	-0.365038	-6.715132E-06	-4.31389
30.1675	0.02444689	-0.03728151	-0.07457935	-0.4474763	-2.250936	-2.488137
30.18453	0.02322455	-0.04461557	-0.071789	-0.430734	0.08350167	0.5010167
30.2011	0.02077986	-0.05683902	-0.1475448	-0.7377236	-2.254903	-9.137674
30.21767	0.02077986	-0.06050605	1.124295E-07	-0.2213426	4.452658	15.58351
30.23423	0.01833517	-0.06661778	-0.1475618	-0.3689045	-4.453427	-4.453427
30.2508	0.01833517	-0.07150715	-1.124295E-07	-0.2951229	4.45342	2.226734
30.26737	0.01833517	-0.0727295	1.124295E-07	-0.07378118	6.786257E-06	6.680106
30.28394	0.01833517	-0.0727295	0	0	-3.393129E-06	2.22672
30.30064	0.01833517	-0.0727295	0	0	0	0
30.31707	0.01833517	-0.0727295	0	0	0	0
30.33365	0.01833517	-0.0727295	0	0	0	0
30.35096	0.01833517	-0.0727295	0	0	0	0
30.36767	0.01833517	-0.0727295	0	0	0	0
30.3841	0.01833517	-0.0727295	0	0	0	0
30.40066	0.01833517	-0.0727295	0	0	0	0
30.41723	0.01833517	-0.0727295	0	0	0	0
30.4338	0.01833517	-0.0727295	0	0	0	0
30.45037	0.01833517	-0.0727295	0	0	0	0
30.46737	0.01833517	-0.0727295	0	0	0	0
30.48386	0.01833517	-0.0727295	0	0	0	0
30.50006	0.01833517	-0.0727295	0	0	0	0
30.51663	0.01833517	-0.0727295	0	0	0	0
30.5332	0.01833517	-0.0727295	0	0	0	0
30.54976	0.01833517	-0.0727295	0	0	0	0
30.56633	0.01833517	-0.0727295	0	0	0	0
30.5829	0.01833517	-0.0727295	0	0	0	0
30.59947	0.01833517	-0.0727295	0	0	0	0
30.61603	0.01833517	-0.0727295	0	0	0	0
30.6326	0.01833517	-0.0727295	0	0	0	0
30.64923	0.01833517	-0.0727295	0	0	0	0
30.66578	0.01833517	-0.0727295	0	0	0	0
30.6823	0.01833517	-0.0727295	0	0	0	0
30.69887	0.01833517	-0.0727295	0	0	0	0
30.71544	0.01833517	-0.0727295	0	0	0	0
30.732	0.01833517	-0.0727295	0	0	0	0
30.7489	0.01833517	-0.0727295	0	0	0	0
30.76513	0.01833517	-0.0727295	0	0	0	0
30.7817	0.01833517	-0.0727295	0	0	0	0
30.80303	0.01833517	-0.0727295	0	0	0	0
30.82127	0.01833517	-0.0727295	0	0	0	0
30.83784	0.01833517	-0.0727295	0	0	0	0
30.8544	0.01833517	-0.0727295	0	0	0	0
30.87097	0.01833517	-0.0727295	0	0	0	0
30.88754	0.01833517	-0.0727295	0	0	0	0
30.9041	0.01833517	-0.0727295	0	0	0	0
30.92067	0.01833517	-0.0727295	0	0	0	0
30.93724	0.01833517	-0.0727295	0	0	0	0
30.95381	0.01833517	-0.0727295	0	0	0	0
30.97037	0.01833517	-0.0727295	0	0	0	0
30.98738	0.01833517	-0.0727295	0	0	0	0
31.00395	0.01833517	-0.0727295	0	0	0	0
31.02051	0.01833517	-0.0727295	0	0	0	0
31.03719	0.01833517	-0.0727295	0	0	0	0
31.05365	0.01833517	-0.0727295	0	0	0	0
31.07021	0.01833517	-0.0727295	0	0	0	0
31.08678	0.01833517	-0.0727295	0	0	0	0
31.10335	0.01833517	-0.0727295	0	0	0	0
31.11992	0.01833517	-0.0727295	0	0	0	0
31.13648	0.01833517	-0.0727295	0	0	0	0
31.15305	0.01833517	-0.0727295	0	0	0	0
31.16961	0.01833517	-0.0727295	0	0	0	0
31.18618	0.01833517	-0.0727295	0	0	0	0
31.20275	0.01833517	-0.0727295	0	0	0	0
31.21932	0.01833517	-0.0727295	0	0	0	0
31.23588	0.01833517	-0.0727295	0	0	0	0
31.25245	0.01833517	-0.0727295	0	0	0	0
31.26902	0.01833517	-0.0727295	0	0	0	0
31.28559	0.01833517	-0.0727295	0	0	0	0
31.30225	0.01833517	-0.0727295	0	0	0	0
31.31872	0.01833517	-0.0727295	0	0	0	0
31.33529	0.01833517	-0.0727295	0	0	0	0
31.35185	0.01833517	-0.0727295	0	0	0	0
31.36861	0.01833517	-0.0727295	0	0	0	0
31.38499	0.01833517	-0.0727295	0	0	0	0
31.40155	0.01833517	-0.0727295	0	0	0	0
31.41812	0.01833517	-0.0727295	0	0	0	0
31.43492	0.01833517	-0.0727295	0	0	0	0
31.45125	0.01711282	-0.07272951	-0.0748319	-4.561245E-07	-2.258561	-1.376666E-05
31.46782	0.01711282	-0.07150715	0	0.07379012	2.274536	2.242884
31.48511	0.01711282	-0.07028481	0	0.07068042	0	-0.09184198
31.50168	0.01711282	-0.06539543	0	0.2951233	0	6.62833
31.51825	0.01711282	-0.06417308	-1.124295E-07	0.07378118	-3.393129E-06	-6.68012
31.53481	0.01711282	-0.0617284	1.124295E-07	0.1475612	6.786257E-06	2.226686
31.55138	0.01711282	-0.05928371	0	0.1475617	-3.393129E-06	1.349154E-05
31.56795	0.01711282	-0.05683902	0	0.1475789	0	0.0005199038
31.58463	0.01711282	-0.05439433	0	0.1465494	0	-0.03096629
31.60108	0.01711282	-0.05317198	0	0.07429415	0	-2.180666
31.61765	0.01711282	-0.05194964	0	0.07378072	0	-0.01554896
31.63421	0.01711282	-0.05194964	0	0	0	-2.226835
31.65253	0.01711282	-0.05194964	0	0	0	0
31.67283	0.01711282	-0.05194964	0	0	0	0
31.6894	0.01711282	-0.05194964	0	0	0	0
31.71314	0.01711282	-0.05194964	0	0	0	0
31.72971	0.01711282	-0.05194964	0	0	0	0
31.74664	0.01711282	-0.05194964	0	0	0	0
31.76284	0.01711282	-0.05194964	0	0	0	0
31.77941	0.01711282	-0.05194964	0	0	0	0
31.80277	0.01711282	-0.05194964	0	0	0	0
31.82705	0.01711282	-0.05194964	0	0	0	0
31.84401	0.01711282	-0.05194964	0	0	0	0
31.86019	0.01711282	-0.05194964	0	0	0	0
31.87675	0.01711282	-0.05194964	0	0	0	0
31.89332	0.01711282	-0.05194964	0	0	0	0
31.90989	0.01711282	-0.05194964	0	0	0	0
31.92651	0.01711282	-0.05194964	0	0	0	0
31.94302	0.01711282	-0.05194964	0	0	0	0
31.95959	0.01711282	-0.05194964	0	0	0	0
31.97616	0.01711282	-0.05194964	0	0	0	0
31.99273	0.01711282	-0.05194964	0	0	0	0
32.00929	0.01711282	-0.05194964	0	0	0	0
32.02617	0.01711282	-0.05194964	0	0	0	0
32.04243	0.01711282	-0.05194964	0	0	0	0
32.05918	0.01711282	-0.05194964	0	0	0	0
32.07565	0.01711282	-0.05194964	0	0	0	0
32.09218	0.01711282	-0.05194964	0	0	0	0
32.11061	0.01711282	-0.05194964	0	0	0	0
32.12718	0.01711282	-0.05194964	0	0	0	0
32.14377	0.01711282	-0.05194964	0	0	0	0
32.16031	0.01711282	-0.05194964	0	0	0	0
32.17688	0.01711282	-0.05194964	0	0	0	0
32.19344	0.01711282	-0.05194964	0	0	0	0
32.21001	0.01711282	-0.05194964	0	0	0	0
32.22683	0.01711282	-0.05194964	0	0	0	0
32.24314	0.01711282	-0.05194964	0	0	0	0
32.26035	0.01711282	-0.05194964	0	0	0	0
32.27627	0.01711282	-0.05194964	0	0	0	0
32.29284	0.01711282	-0.05194964	0	0	0	0
32.30994	0.01711282	-0.05194964	0	0	0	0
32.32597	0.01711282	-0.05194964	0	0	0	0
32.34254	0.01711282	-0.05194964	0	0	0	0
32.35911	0.01711282	-0.05194964	0	0	0	0
32.37589	0.01711282	-0.05194964	0	0	0	0
32.3924	0.01711282	-0.05194964	0	0	0	0
32.40881	0.01711282	-0.05194964	0	0	0	0
32.42544	0.01711282	-0.05194964	0	0	0	0
32.44194	0.01711282	-0.05194964	0	0	0	0
32.45851	0.01711282	-0.05194964	0	0	0	0
32.47507	0.01711282	-0.05194964	0	0	0	0
32.49164	0.01711282	-0.05194964	0	0	0	0
32.50821	0.01711282	-0.05194964	0	0	0	0
32.52478	0.01711282	-0.05194964	0	0	0	0
32.54146	0.01711282	-0.05194964	0	0	0	0
32.55791	0.01711282	-0.05194964	0	0	0	0
32.575	0.01711282	-0.05194964	0	0	0	0
32.59104	0.01711282	-0.05194964	0	0	0	0
32.60761	0.01711282	-0.05194964	0	0	0	0
32.6242	0.01711282	-0.05194964	0	0	0	0
32.64074	0.01711282	-0.05194964	0	0	0	0
32.65743	0.01711282	-0.05194964	0	0	0	0
32.67387	0.01711282	-0.05194964	0	0	0	0
32.69044	0.01711282	-0.05194964	0	0	0	0
32.70701	0.01711282	-0.05194964	0	0	0	0
32.72358	0.01711282	-0.05194964	0	0	0	0
32.74014	0.01711282	-0.05194964	0	0	0	0
32.75671	0.01711282	-0.05194964	0	0	0	0
32.77328	0.01711282	-0.05194964	0	0	0	0
32.79	0.01711282	-0.05194964	0	0	0	0
32.80641	0.01711282	-0.05194964	0	0	0	0
32.82298	0.01711282	-0.05194964	0	0	0	0
32.83955	0.01711282	-0.05194964	0	0	0	0
32.86005	0.01711282	-0.05194964	0	0	0	0
32.87661	0.01711282	-0.05194964	0	0	0	0
32.89318	0.01711282	-0.05194964	0	0	0	0
32.90975	0.01711282	-0.05194964	0	0	0	0
32.92664	0.01711282	-0.05194964	0	0	0	0
32.94492	0.01711282	-0.05194964	0	0	0	0
32.96148	0.01711282	-0.05194964	0	0	0	0
32.97853	0.01711282	-0.05194964	0	0	0	0
32.99462	0.01711282	-0.05194964	0	0	0	0
33.01118	0.01711282	-0.05194964	0	0	0	0
33.02775	0.01711282	-0.05194964	0	0	0	0
33.04432	0.01711282	-0.05194964	0	0	0	0
33.06089	0.01711282	-0.05194964	0	0	0	0
33.07745	0.01711282	-0.05194964	0	0	0	0
33.09402	0.01711282	-0.05194964	0	0	0	0
33.11059	0.01711282	-0.05194964	0	0	0	0
33.12716	0.01711282	-0.05194964	0	0	0	0
33.14372	0.01711282	-0.05194964	0	0	0	0
33.16029	0.01711282	-0.05194964	0	0	0	0
33.17686	0.01711282	-0.05194964	0	0	0	0
33.19342	0.01711282	-0.05194964	0	0	0	0
33.20999	0.01711282	-0.05194964	0	0	0	0
33.22686	0.01711282	-0.05194964	0	0	0	0
33.24312	0.01711282	-0.05194964	0	0	0	0
33.26011	0.01711282	-0.05194964	0	0	0	0
33.2763	0.01711282	-0.05194964	0	0	0	0
33.29282	0.01711282	-0.05194964	0	0	0	0
33.30939	0.01711282	-0.05194964	0	0	0	0
33.32595	0.01711282	-0.05194964	0	0	0	0
33.34252	0.01711282	-0.05194964	0	0	0	0
33.35909	0.01711282	-0.05194964	0	0	0	0
33.37583	0.01711282	-0.05194964	0	0	0	0
33.39222	0.01711282	-0.05194964	0	0	0	0
33.40887	0.01955751	-0.05194964	0.1468181	0	4.444281	0
33.42535	0.02077986	-0.05317199	0.07415649	-0.0741566	-2.19293	-2.23805
33.44192	0.02077986	-0.05317199	0	0	-2.24373	2.243733
33.45848	0.02077986	-0.05317199	0	0	0	0
33.47505	0.02077986	-0.05317199	0	0	0	0
33.49162	0.02077986	-0.05317199	0	0	0	0
33.50819	0.02077986	-0.05317199	0	0	0	0
33.52475	0.02077986	-0.05317199	0	0	0	0
33.54132	0.02077986	-0.05317199	0	0	0	0
33.55789	0.01344579	-0.06906246	-0.4426852	-0.959151	-13.36027	-28.94723
33.57616	-0.006111723	-0.1093998	-1.070331	-2.207557	-18.01528	-35.83294
33.59273	-0.03667033	-0.1558489	-1.844522	-2.803673	-22.22155	-17.11029
33.60929	-0.07089598	-0.2084097	-2.065864	-3.172576	-6.680139	-11.1335
33.62586	-0.1002322	-0.2524141	-1.77074	-2.656111	8.906865	15.58692
33.64243	-0.1149004	-0.2780834	-0.8853705	-1.549397	26.72051	33.40071
33.659	-0.1234568	-0.2988632	-0.516466	-1.254276	11.13356	8.906772
33.67569	-0.1271238	-0.3098643	-0.2196237	-0.6588702	8.923786	17.89931
33.69214	-0.1307909	-0.3159761	-0.2229335	-0.3715557	-0.09985371	8.668174
33.70924	-0.1307909	-0.3220878	0	-0.3573831	6.644761	0.4224302
33.72811	-0.1332355	-0.3269771	-0.1295974	-0.2591949	-3.603436	2.730108
33.74467	-0.1344579	-0.3367559	-0.07378072	-0.5902476	1.575368	-9.343613
33.76124	-0.1344579	-0.340423	-8.994359E-07	-0.221344	2.226679	11.13353
33.77781	-0.1344579	-0.3428676	0	-0.1475614	2.714503E-05	2.226761
33.80362	-0.1344579	-0.3428676	0	0	0	3.482073
33.82019	-0.1344579	-0.3428676	0	0	0	0
33.83675	-0.1344579	-0.3428676	0	0	0	0
33.85354	-0.1344579	-0.3428676	0	0	0	0
33.88517	-0.1307908	-0.3428676	0.1159167	0	2.393986	0
33.90462	-0.1234568	-0.3428676	0.377124	0	5.113429	0
33.92119	-0.1222344	-0.3416453	0.07378072	0.07378072	-8.422796	2.048636
33.93776	-0.1222344	-0.3416453	0	0	-2.226707	-2.226707
33.95432	-0.1222344	-0.3416453	0	0	0	0
33.97089	-0.1222344	-0.3416453	0	0	0	0
33.98746	-0.1222344	-0.3416453	0	0	0	0
34.00402	-0.1222344	-0.3416453	0	0	0	0
34.02059	-0.1222344	-0.3416453	0	0	0	0
34.03716	-0.1222344	-0.3416453	0	0	0	0
34.05373	-0.1222344	-0.3416453	0	0	0	0
34.07315	-0.1185674	-0.3355336	0.1887842	0.3146403	5.245219	8.742032
34.09219	-0.1149004	-0.3269772	0.1925667	0.449322	0.09833066	3.501191
34.10897	-0.106344	-0.2951962	0.5098909	1.893882	8.857909	40.32401
34.12533	-0.1038993	-0.2841951	0.1494895	0.6727005	-10.87694	-36.85534
34.1419	-0.09656522	-0.2560812	0.4426852	1.696962	8.906085	31.11287
34.15846	-0.08678646	-0.2267449	0.5902467	1.77074	4.453413	2.226625
34.17506	-0.08311942	-0.2084097	0.2209869	1.104933	-11.13531	-20.07793
34.19159	-0.0770077	-0.1876299	0.3695849	1.256589	4.485212	4.577519
34.20816	-0.07211833	-0.16685	0.2951233	1.254274	-2.249325	-0.06992178
34.22678	-0.06845129	-0.1521819	0.1969455	0.787782	-2.790192	-13.2576
34.24335	-0.06600661	-0.1399585	0.1475614	0.7378082	-1.403484	-1.420245
34.26019	-0.06233957	-0.1301797	0.2177825	0.5807533	2.102093	-4.701494
34.27648	-0.06111723	-0.1228456	0.07500695	0.4500422	-4.308975	-3.944871
34.29305	-0.05989487	-0.1155116	0.0737814	0.4426857	-0.03729188	-0.2238483
34.30962	-0.05867254	-0.1118445	0.07378028	0.2213422	-3.39537E-05	-6.680161
34.32618	-0.05867254	-0.1093998	2.24859E-07	0.1475619	-2.226686	-2.226693
34.34275	-0.05622785	-0.1069551	0.1475617	0.1475619	4.453413	0
34.35932	-0.05622785	-0.1045105	0	0.1475614	-4.45342	-1.349154E-05
34.37836	-0.05500551	-0.1020658	0.0642015	0.1284034	1.803089	-0.538051
34.3951	-0.0550055	-0.1008434	2.225023E-07	0.073007	-1.794241	-1.54817
34.41167	-0.05378316	-0.1008434	0.07378095	4.497179E-07	2.214976	-2.191735
34.42889	-0.05378316	-0.09962107	0	0.07097046	-2.183476	2.100289
34.4448	-0.05256081	-0.09962108	0.07682347	-4.68263E-07	2.318537	-2.141907
34.46149	-0.05256081	-0.09962108	0	0	-2.356243	1.436204E-05
34.47794	-0.05256081	-0.09839873	0	0.07434609	0	2.243769
34.4945	-0.05133847	-0.09717639	0.07378072	0.07378072	2.235199	-0.01712782
34.51107	-0.05133847	-0.09595405	-2.24859E-07	0.07378072	-2.226713	0
34.52915	-0.04889378	-0.09350935	0.1352311	0.1352313	3.903335	1.773719
34.54576	-0.04767143	-0.09106467	0.07356098	0.1471211	-1.777511	0.342696
34.56228	-0.04644909	-0.08861997	0.07400224	0.1480054	0.01331705	0.02668851
34.57885	-0.04278206	-0.08495295	0.2213426	0.2213417	4.453407	2.216613
34.59542	-0.03911502	-0.08006357	0.2213426	0.2951238	0	2.226747
34.61198	-0.03544799	-0.07395184	0.2213426	0.3689045	0	2.226707
34.62855	-0.03178096	-0.07028481	0.2213424	0.2213426	-6.745769E-06	-4.453427
34.64545	-0.02933627	-0.06539543	0.144664	0.2893275	-2.291211	2.03144
34.66195	-0.02566924	-0.06050605	0.2222636	0.2963516	2.323504	0.2103182
34.68198	-0.02322455	-0.05683902	0.1220687	0.1831032	-2.743131	-3.10051
34.69854	-0.0220022	-0.05561668	0.07378095	0.0737805	-1.319541	-2.987418
34.71511	-0.02077986	-0.05439433	0.07378072	0.07378095	-6.745769E-06	1.349154E-05
34.73168	-0.02077986	-0.05317199	0	0.07378072	-2.226707	-6.745769E-06
34.74825	-0.01955751	-0.05317198	0.07378095	2.24859E-07	2.226713	-2.2267
34.76482	-0.01833517	-0.05194964	0.07376385	0.07376397	-0.0005157671	2.225938
34.78159	-0.01833517	-0.05194964	0	0	-2.21219	-2.212193
34.79794	-0.01833517	-0.0507273	0	0.07474428	0	2.256306
34.88721	-0.01589048	-0.04828261	0.02738485	0.0273849	0.2592645	-0.4483722
34.91498	-0.01222344	-0.04339323	0.1320636	0.1760847	0.8943942	1.270518
34.93155	-0.01222344	-0.04217089	0	0.07378095	-2.978806	-2.307548
34.95407	-0.01222344	-0.04217089	0	0	0	-1.887502
34.97064	-0.01222344	-0.04217089	0	0	0	0
34.98782	-0.01222344	-0.04217089	0	0	0	0
35.00439	-0.01222344	-0.04217089	0	0	0	0
35.02111	-0.01222344	-0.04217089	0	0	0	0
35.03752	-0.01222344	-0.04217089	0	0	0	0
35.05413	-0.01222344	-0.04217089	0	0	0	0
35.07438	-0.01222344	-0.04217089	0	0	0	0
35.09094	-0.01222344	-0.04217089	0	0	0	0
35.10818	-0.01222344	-0.04217089	0	0	0	0
35.12407	-0.0110011	-0.04217089	0.07689709	0	2.321026	0
35.14064	-0.0110011	-0.04217089	0	0	-2.369034	0
35.1572	-0.0110011	-0.04217089	0	0	0	0
35.17377	-0.0110011	-0.04217089	0	0	0	0
35.19034	-0.0110011	-0.04217089	0	0	0	0
35.20691	-0.0110011	-0.04217089	0	0	0	0
35.22543	-0.0110011	-0.04217089	0	0	0	0
35.242	-0.0110011	-0.04094854	5.621474E-08	0.07378095	1.601952E-06	2.102536
35.25856	-0.0110011	-0.04094854	0	0	-1.696564E-06	-2.226713
35.27528	-0.009778756	-0.0397262	0.07314087	0.07314076	2.197781	2.197778
35.2917	-0.009778756	-0.0397262	0	0	-2.207396	-2.207393
35.30848	-0.009778756	-0.0397262	0	0	0	0
35.32498	-0.009778756	-0.0397262	0	0	0	0
35.34154	-0.009778756	-0.0397262	0	0	0	0
35.35796	-0.009778756	-0.0397262	0	0	0	0
35.37736	-0.008556412	-0.0397262	0.06301478	0	1.759019	0
35.39418	-0.008556412	-0.03850385	0	0.07269298	-1.740119	2.007377
35.41072	-0.008556412	-0.03850385	0	0	0	-2.178828
35.42723	-0.007334067	-0.03728151	0.07403658	0.07403666	2.239585	2.239588
35.44363	-0.007334067	-0.03728151	0	0	-2.24997	-2.249973
35.4602	-0.006111722	-0.03605916	0.07378089	0.07378095	2.238308	2.23831
35.47688	-0.006111722	-0.03483682	-2.792093E-08	0.07329133	-2.219303	-0.01472744
35.49363	-0.003667033	-0.03361447	0.1459487	0.07297441	4.366036	-0.009480557
35.51016	-0.003667033	-0.03361447	0	0	-4.385051	-2.192528
35.52854	-0.003667033	-0.03361447	0	0	0	0
35.54511	-0.003667033	-0.03361447	0	0	0	0
35.56174	-0.003667033	-0.03361447	0	0	0	0
35.57825	-0.003667033	-0.03361447	0	0	0	0
35.59481	-0.003667033	-0.03361447	0	0	0	0
35.61137	-0.003667033	-0.03361447	0	0	0	0
35.62794	-0.003667033	-0.03361447	0	0	0	0
35.64451	-0.003667033	-0.03361447	0	0	0	0
35.66169	-0.003667033	-0.03361447	0	0	0	0
35.67764	-0.003667033	-0.03361447	0	0	0	0
35.69421	-0.003667033	-0.03361447	0	0	0	0
35.71077	-0.003667033	-0.03361447	0	0	0	0
35.72734	-0.003667033	-0.03361447	0	0	0	0
35.74889	-0.003667033	-0.03361447	0	0	0	0
35.76546	-0.003667033	-0.03361447	0	0	0	0
35.78203	-0.003667033	-0.03361447	0	0	0	0
35.7986	-0.003667033	-0.03361447	0	0	0	0
35.81517	-0.003667033	-0.03361447	0	0	0	0
35.83507	-0.003667033	-0.03361447	0	0	0	0
35.86064	-0.003667033	-0.03361447	0	0	0	0
35.87721	-0.003667033	-0.03361447	0	0	0	0
35.89378	-0.003667033	-0.03361447	0	0	0	0
35.9104	-0.003667033	-0.03361447	0	0	0	0
35.94126	-0.003667033	-0.03361447	0	0	0	0
35.95782	-0.003667033	-0.03361447	0	0	0	0
35.97439	-0.003667033	-0.03361447	0	0	0	0
35.99366	-0.003667033	-0.03361447	0	0	0	0
36.01023	-0.003667033	-0.03361447	0	0	0	0
36.0268	-0.003667033	-0.03361447	0	0	0	0
36.04337	-0.003667033	-0.03361447	0	0	0	0
36.06022	-0.003667033	-0.03361447	0	0	0	0
36.0765	-0.003667033	-0.03361447	0	0	0	0
36.09307	-0.003667033	-0.03361447	0	0	0	0
36.10963	-0.003667033	-0.03361447	0	0	0	0
36.1262	-0.003667033	-0.03361447	0	0	0	0
36.14277	-0.003667033	-0.03361447	0	0	0	0
36.15934	-0.003667033	-0.03361447	0	0	0	0
36.1759	-0.003667033	-0.03361447	0	0	0	0
36.19247	-0.003667033	-0.03361447	0	0	0	0
36.20904	-0.003667033	-0.03361447	0	0	0	0
36.22561	-0.003667033	-0.03361447	0	0	0	0
36.24217	-0.003667033	-0.03361447	0	0	0	0
36.25901	-0.003667033	-0.03361447	0	0	0	0
36.27531	-0.003667033	-0.03361447	0	0	0	0
36.29187	-0.003667033	-0.03361447	0	0	0	0
36.30844	-0.003667033	-0.03361447	0	0	0	0
36.32501	-0.003667033	-0.03361447	0	0	0	0
36.34158	-0.003667033	-0.03361447	0	0	0	0
36.35814	-0.003667033	-0.03361447	0	0	0	0
36.37504	-0.003667033	-0.03361447	0	0	0	0
36.39128	-0.003667033	-0.03361447	0	0	0	0
36.40784	-0.003667033	-0.03361447	0	0	0	0
36.42441	-0.003667033	-0.03361447	0	0	0	0
36.44098	-0.003667033	-0.03361447	0	0	0	0
36.45755	-0.003667033	-0.03361447	0	0	0	0
36.47411	-0.003667033	-0.03361447	0	0	0	0
36.49068	-0.003667033	-0.03361447	0	0	0	0
36.50725	-0.003667033	-0.03361447	0	0	0	0
36.52382	-0.003667033	-0.03361447	0	0	0	0
36.54038	-0.003667033	-0.03361447	0	0	0	0
36.55695	-0.003667033	-0.03361447	0	0	0	0
36.57375	-0.003667033	-0.03361447	0	0	0	0
36.59008	-0.003667033	-0.03361447	0	0	0	0
36.60665	-0.003667033	-0.03361447	0	0	0	0
36.62321	-0.003667033	-0.03361447	0	0	0	0
36.63978	-0.003667033	-0.03361447	0	0	0	0
36.65635	-0.003667033	-0.03361447	0	0	0	0
36.67305	-0.003667033	-0.03361447	0	0	0	0
36.68948	-0.003667033	-0.03361447	0	0	0	0
36.70605	-0.003667033	-0.03361447	0	0	0	0
36.72261	-0.003667033	-0.03361447	0	0	0	0
36.73918	-0.003667033	-0.03361447	0	0	0	0
36.75575	-0.003667033	-0.03361447	0	0	0	0
36.77232	-0.003667033	-0.03361447	0	0	0	0
36.78888	-0.003667033	-0.03361447	0	0	0	0
36.8055	-0.003667033	-0.03361447	0	0	0	0
36.82202	-0.003667033	-0.03361447	0	0	0	0
36.83858	-0.003667033	-0.03361447	0	0	0	0
36.85515	-0.003667033	-0.03361447	0	0	0	0
36.87197	-0.003667033	-0.03361447	0	0	0	0
36.8885	-0.003667033	-0.03361447	0	0	0	0
36.90565	-0.003667033	-0.03361447	0	0	0	0
36.92142	-0.003667033	-0.03361447	0	0	0	0
36.93824	-0.003667033	-0.03361447	0	0	0	0
36.95456	-0.003667033	-0.03361447	0	0	0	0
36.97123	-0.003667033	-0.03361447	0	0	0	0
36.9926	-0.003667033	-0.03361447	0	0	0	0
37.00917	-0.003667033	-0.03361447	0	0	0	0
37.02574	-0.003667033	-0.03361447	0	0	0	0
37.0423	-0.003667033	-0.03361447	0	0	0	0
37.05887	-0.003667033	-0.03361447	0	0	0	0
37.07544	-0.003667033	-0.03361447	0	0	0	0
37.09201	-0.003667033	-0.03361447	0	0	0	0
37.10857	-0.003667033	-0.03361447	0	0	0	0
37.12809	-0.003667033	-0.03361447	0	0	0	0
37.14465	-0.003667033	-0.03361447	0	0	0	0
37.16153	-0.003667033	-0.03361447	0	0	0	0
37.17855	-0.003667033	-0.03361447	0	0	0	0
37.19436	-0.003667033	-0.03361447	0	0	0	0
37.21092	-0.003667033	-0.03361447	0	0	0	0
37.22749	-0.003667033	-0.03361447	0	0	0	0
37.24406	-0.003667033	-0.03361447	0	0	0	0
37.26062	-0.003667033	-0.03361447	0	0	0	0
37.27719	-0.003667033	-0.03361447	0	0	0	0
37.29376	-0.003667033	-0.03361447	0	0	0	0
37.31033	-0.003667033	-0.03361447	0	0	0	0
37.32689	0.006111723	-0.02505806	0.5902469	0.5164658	17.81574	15.58877
37.34346	0.03055861	0.001833517	1.475617	1.623179	26.72053	33.40067
37.3601	0.0660066	0.04461557	2.129837	2.570493	19.69903	28.5243
37.37662	0.1161227	0.1118445	3.034798	4.071071	27.29294	45.25628
37.39316	0.1589048	0.1864075	2.585902	4.506859	-13.57899	13.18248
37.40973	0.1870187	0.2499694	1.69735	3.837488	-26.83818	-20.21797
37.42629	0.1992421	0.2866398	0.7378091	2.213426	-28.96234	-49.01991
37.44705	0.2041315	0.3098643	0.2355675	1.118944	-13.45663	-29.32462
37.46423	0.2077986	0.3306442	0.2133836	1.20917	-0.5846952	2.378082
37.48023	0.2090209	0.3367559	0.07640286	0.3820134	-4.127908	-24.92634
37.49675	0.2090209	0.3379782	-1.804273E-06	0.07400043	-2.349721	-9.472519
37.51332	0.2090209	0.3379782	0	0	5.453467E-05	-2.236685
37.52988	0.2090209	0.3379782	0	0	0	0
37.54645	0.2090209	0.3379782	0	0	0	0
37.56331	0.2090209	0.3379782	0	0	0	0
37.57959	0.2090209	0.3379782	0	0	0	0
37.59786	0.2090209	0.3392006	0	0.06689555	0	1.936425
37.61443	0.2053539	0.3453123	-0.2213422	0.3689054	-6.353172	8.668573
37.63099	0.2029092	0.3502017	-0.1475606	0.2951229	2.226734	-2.226761
37.64756	0.1919081	0.3673145	-0.6640283	1.032932	-15.58703	22.26712
37.66413	0.1870187	0.3746486	-0.2951238	0.4426861	11.13356	-17.81365
37.6812	0.184574	0.3783156	-0.1431768	0.2147652	4.516611	-6.77493
37.69726	0.1796846	0.3819827	-0.3044472	0.2283347	-4.867149	0.409528
37.71383	0.1735729	0.3856497	-0.3688196	0.2212912	-1.972743	-0.215853
37.7304	0.1686835	0.386872	-0.2951918	0.07379772	2.222092	-4.451363
37.74696	0.1650165	0.3880944	-0.2213422	0.07378253	2.229042	-0.0004585402
37.78199	0.1637942	0.3880944	-0.03489379	0	3.613509	-1.429961
37.81219	0.1564601	0.3844273	-0.2429036	-0.1214525	-3.189176	-1.862092
37.83995	0.1552377	0.3819827	-0.04402716	-0.08805432	3.431466	0.5762616
37.86712	0.1552377	0.3807603	0	-0.04498522	0.8014343	0.7839947
37.88369	0.1552377	0.3807603	0	0	0	1.028485
37.90026	0.1552377	0.3807603	0	0	0	0
37.92016	0.1552377	0.3807603	0	0	0	0
37.93673	0.1552377	0.3807603	0	0	0	0
37.95329	0.1552377	0.3807603	0	0	0	0
37.96998	0.1552377	0.3807603	0	0	0	0
37.98643	0.1552377	0.3795379	0	-0.0743302	0	-2.24329
38.00731	0.1540154	0.3746486	-0.05852597	-0.2341039	-1.567774	-4.279962
38.02388	0.149126	0.3526464	-0.2951238	-1.328055	-6.317244	-29.20887
38.04045	0.1405696	0.3269772	-0.516466	-1.549397	-6.68012	-6.680121
38.05701	0.1332356	0.3025303	-0.4426844	-1.475618	2.226733	2.226651
38.07723	0.1234568	0.2780834	-0.4836689	-1.20917	-1.114161	7.243363
38.09388	0.1124557	0.2475248	-0.6608325	-1.835647	-4.805709	-16.99369
38.11037	0.106344	0.2353013	-0.3706965	-0.741393	8.756322	33.02464
38.12693	0.0904535	0.198631	-0.9591508	-2.213426	-17.80263	-44.53372
38.1435	0.08067474	0.1790735	-0.5902472	-1.180493	11.13353	31.17398
38.16007	0.06967364	0.1595159	-0.6640279	-1.180494	-2.226707	-2.878195E-05
38.17664	0.06111722	0.1424031	-0.516466	-1.032931	4.453427	4.453467
38.19343	0.05256082	0.1265127	-0.5095435	-0.9462957	0.2075097	2.59702
38.20996	0.0464491	0.1155116	-0.3697557	-0.6655604	4.19514	8.425082
38.23085	0.04155971	0.1081775	-0.2340191	-0.3510287	3.627169	8.404954
38.24742	0.03789268	0.09717639	-0.2213424	-0.6640274	0.3384038	-8.355473
38.26448	0.03667033	0.0947317	-0.07162062	-0.1432412	4.451476	15.48383
38.28055	0.03422565	0.08861998	-0.1521872	-0.3804679	-2.431785	-7.16034
38.29712	0.03422565	0.08617529	0	-0.1475619	4.663896	7.137587
38.314	0.03422565	0.08617529	0	0	0	4.410771
38.33025	0.03422564	0.08495294	-2.292938E-07	-0.0752359	-6.920102E-06	-2.270624
38.34682	0.03544799	0.0837306	0.07378118	-0.07378072	2.248472	0.04434606
38.36338	0.04155971	0.08128591	0.3689043	-0.1475619	8.906833	-2.22672
38.38354	0.04644909	0.07761887	0.2425664	-0.1819249	-3.440192	-0.9357066
38.40011	0.05256081	0.0727295	0.3689043	-0.2951233	3.440192	-3.082404
38.41668	0.0550055	0.07150716	0.1475617	-0.07378072	-6.680134	6.680134
38.43324	0.05622784	0.07150715	0.07378072	-4.497179E-07	-2.226713	2.226693
38.44981	0.05622784	0.07028481	0	-0.07378072	-2.226707	-2.226693
38.46655	0.05500551	0.06539543	-0.07302386	-0.2920968	-2.192506	-6.554833
38.48294	0.05011613	0.05561668	-0.2982135	-0.5964265	-6.796237	-9.18469
38.49951	0.04278205	0.04706026	-0.4426855	-0.5164662	-4.382879	2.425775
38.51608	0.03178096	0.0397262	-0.6640274	-0.442685	-6.680112	2.22672
38.53544	0.02322454	0.03605916	-0.4418859	-0.1893798	6.18251	7.049839
38.55201	0.009778756	0.03239213	-0.8115894	-0.2213424	-10.28937	-0.8895633
38.56858	0.007334067	0.03116979	-0.1475617	-0.07378072	20.0404	4.45342
38.58514	0.003667034	0.03116979	-0.2213426	-1.124295E-07	-2.226713	2.226703
38.60226	0	0.03116979	-0.2142868	0	0.2094943	3.338171E-06
38.61828	-0.004889378	0.03116979	-0.3051717	0	-2.74291	0
38.63485	-0.01222345	0.03361448	-0.4426852	0.1475618	-4.219635	4.527969
38.65141	-0.01344579	0.03361447	-0.07378078	-2.24859E-07	11.13356	-4.45343
38.66798	-0.01344579	0.03361447	0	0	2.226708	6.786257E-06
38.68646	-0.01344579	0.03361447	0	0	0	0
38.70386	-0.01344579	0.03361447	0	0	0	0
38.71986	-0.01344579	0.03361447	0	0	0	0
38.73616	-0.01344579	0.03361447	0	0	0	0
38.75279	-0.01344579	0.03361447	0	0	0	0
38.76936	-0.01344579	0.03361447	0	0	0	0
38.78592	-0.01344579	0.03361447	0	0	0	0
38.80249	-0.01344579	0.03361447	0	0	0	0
38.81906	-0.01344579	0.03361447	0	0	0	0
38.83898	-0.01344579	0.03361447	0	0	0	0
38.85555	-0.01344579	0.03361447	0	0	0	0
38.87231	-0.01344579	0.03361447	0	0	0	0
38.88868	-0.01344579	0.03361447	0	0	0	0
38.90525	-0.01344579	0.03361447	0	0	0	0
38.92181	-0.01344579	0.03239213	-5.621474E-08	-0.07378072	-1.696564E-06	-2.226707
38.93838	-0.01222344	0.03239213	0.07378089	0	2.226714	2.226707
38.95495	-0.01222344	0.03116978	0	-0.07378095	-2.226712	-2.226713
38.97152	-0.01222344	0.03116978	0	0	0	2.226713
38.99751	-0.01222344	0.03116978	0	0	0	0
39.01435	-0.01222344	0.03116978	0	0	0	0
39.03064	-0.01222345	0.02994744	-5.71624E-08	-0.07502463	-1.725363E-06	-2.264508
39.04738	-0.01222344	0.0287251	5.565093E-08	-0.07304084	3.415724E-06	0.06006435
39.06378	-0.01222344	0.0287251	0	0	-1.679548E-06	2.204377
39.08035	-0.01222344	0.0287251	0	0	0	0
39.09691	-0.01222344	0.0287251	0	0	0	0
39.11388	-0.01222344	0.0287251	0	0	0	0
39.13004	-0.01222344	0.0287251	0	0	0	0
39.15009	-0.01222344	0.0287251	0	0	0	0
39.16695	-0.01222344	0.0287251	0	0	0	0
39.18344	-0.01222344	0.0287251	0	0	0	0
39.19979	-0.01222344	0.0287251	0	0	0	0
39.21635	-0.01222344	0.0287251	0	0	0	0
39.23292	-0.01222344	0.0287251	0	0	0	0
39.24961	-0.01222344	0.0287251	0	0	0	0
39.26605	-0.01222344	0.0287251	0	0	0	0
39.28262	-0.01222344	0.0287251	0	0	0	0
39.29919	-0.0110011	0.02750275	0.07378083	-0.07378083	2.22671	-2.22671
39.31575	-0.0110011	0.02750275	0	0	-2.22671	2.22671
39.33232	-0.0110011	0.02750275	0	0	0	0
39.34889	-0.0110011	0.02750275	0	0	0	0
39.36546	-0.0110011	0.02750275	0	0	0	0
39.38227	-0.009778756	0.02628041	0.07270942	-0.07270937	2.178324	-2.178323
39.39859	-0.008556411	0.02628041	0.07488441	0	0.06564151	2.194373
39.41516	-0.007334067	0.02628041	0.07378081	0	-0.03355402	0
39.43184	-0.003667034	0.02505806	0.2198744	-0.07329144	4.394441	-2.20458
39.44829	-0.001222344	0.02505806	0.1485537	-1.131853E-07	-2.152463	2.211937
39.46692	0.001222345	0.02383572	0.1312701	-0.06563492	-0.4926913	-1.871006
39.48382	0.003667034	0.02261337	0.1446311	-0.07231554	0.3760893	-0.1880474
39.50005	0.006111722	0.02139103	0.1506135	-0.07530686	0.1805478	-0.09027795
39.51662	0.007334067	0.02139103	0.07378083	-1.124295E-07	-2.342547	2.296024
39.53318	0.007334067	0.02139103	0	0	-2.22671	3.393129E-06
39.54975	0.007334067	0.02139103	0	0	0	0
39.56632	0.007334067	0.02139103	0	0	0	0
39.58289	0.007334067	0.02139103	0	0	0	0
39.59945	0.007334067	0.02139103	0	0	0	0
39.6186	0.007334067	0.02139103	0	0	0	0
39.63516	0.007334067	0.02139103	0	0	0	0
39.65203	0.007334067	0.02139103	0	0	0	0
39.67934	0.007334067	0.02139103	0	0	0	0
39.69608	0.007334067	0.02139103	0	0	0	0
39.71697	0.007334067	0.02139103	0	0	0	0
39.745	0.007334067	0.02139103	0	0	0	0
39.76157	0.007334067	0.02139103	0	0	0	0
39.78456	0.007334067	0.02139103	0	0	0	0
39.80117	0.007334067	0.02139103	0	0	0	0
39.8177	0.007334067	0.02139103	0	0	0	0
39.83426	0.007334067	0.02139103	0	0	0	0
39.85083	0.007334067	0.02139103	0	0	0	0
39.86766	0.007334067	0.02139103	0	0	0	0
39.88396	0.007334067	0.02139103	0	0	0	0
39.90053	0.007334067	0.02139103	0	0	0	0
39.9171	0.007334067	0.02139103	0	0	0	0
39.93654	0.007334067	0.02139103	0	0	0	0
39.95311	0.007334067	0.02139103	0	0	0	0
39.96968	0.007334067	0.02139103	0	0	0	0
39.99052	0.007334067	0.02139103	0	0	0	0
40.00709	0.007334067	0.02139103	0	0	0	0
40.02366	0.007334067	0.02139103	0	0	0	0
40.04023	0.007334067	0.02139103	0	0	0	0
40.05679	0.007334067	0.02139103	0	0	0	0
40.07336	0.007334067	0.02139103	0	0	0	0
40.09413	0.007334067	0.02139103	0	0	0	0
40.12095	0.007334067	0.02139103	0	0	0	0
40.13752	0.007334067	0.02139103	0	0	0	0
40.15409	0.007334067	0.02139103	0	0	0	0
40.17065	0.007334067	0.02139103	0	0	0	0
40.19729	0.007334067	0.02139103	0	0	0	0
40.21386	0.007334067	0.02139103	0	0	0	0
40.23042	0.007334067	0.02139103	0	0	0	0
40.2506	0.007334067	0.02139103	0	0	0	0
40.26734	0.007334067	0.02139103	0	0	0	0
40.28391	0.007334067	0.02139103	0	0	0	0
40.30615	0.007334067	0.02139103	0	0	0	0
40.32272	0.007334067	0.02139103	0	0	0	0
40.33928	0.007334067	0.02139103	0	0	0	0
40.35585	0.007334067	0.02139103	0	0	0	0
40.37242	0.007334067	0.02139103	0	0	0	0
40.38928	0.007334067	0.02139103	0	0	0	0
40.40555	0.007334067	0.02139103	0	0	0	0
40.42212	0.007334067	0.02139103	0	0	0	0
40.43884	0.007334067	0.02139103	0	0	0	0
40.45525	0.007334067	0.02139103	0	0	0	0
40.47182	0.007334067	0.02139103	0	0	0	0
40.48839	0.007334067	0.02139103	0	0	0	0
40.50496	0.007334067	0.02139103	0	0	0	0
40.52152	0.007334067	0.02139103	0	0	0	0
40.53809	0.007334067	0.02139103	0	0	0	0
40.55466	0.007334067	0.02139103	0	0	0	0
40.57163	0.007334067	0.02139103	0	0	0	0
40.58779	0.007334067	0.02139103	0	0	0	0
40.60435	0.007334067	0.02139103	0	0	0	0
40.62092	0.007334067	0.02139103	0	0	0	0
40.63749	0.007334067	0.02139103	0	0	0	0
40.65406	0.007334067	0.02139103	0	0	0	0
40.6707	0.007334067	0.02139103	0	0	0	0
40.68719	0.007334067	0.02139103	0	0	0	0
40.70376	0.007334067	0.02139103	0	0	0	0
40.72033	0.007334067	0.02139103	0	0	0	0
40.73689	0.007334067	0.02139103	0	0	0	0
40.75346	0.007334067	0.02139103	0	0	0	0
40.77002	0.007334067	0.02139103	0	0	0	0
40.78659	0.007334067	0.02139103	0	0	0	0
40.8037	0.007334067	0.02139103	0	0	0	0
40.81972	0.007334067	0.02139103	0	0	0	0
40.83629	0.007334067	0.02139103	0	0	0	0
40.85286	0.007334067	0.02139103	0	0	0	0
40.86942	0.007334067	0.02139103	0	0	0	0
40.88599	0.007334067	0.02139103	0	0	0	0
40.90305	0.007334067	0.02139103	0	0	0	0
40.91944	0.007334067	0.02139103	0	0	0	0
40.93571	0.007334067	0.02139103	0	0	0	0
40.95225	0.007334067	0.02139103	0	0	0	0
40.96882	0.007334067	0.02139103	0	0	0	0
40.98539	0.007334067	0.02139103	0	0	0	0
41.00195	0.007334067	0.02139103	0	0	0	0
