Time	Pos X	Pos Y	Vel X	Vel Y	Acc X	Acc Y
0.01726385	-0.007447231	-0.3053076	9.778358E-05	0.004008748	-1.284197E-06	-5.264709E-05
0.04827666	-0.007447231	-0.3053076	0	0	1.28444E-06	5.265708E-05
0.06528668	-0.007447231	-0.3053076	0	0	0	0
0.08141009	-0.007473545	-0.305329	-0.001632069	-0.001328991	-0.04925748	-0.04011029
0.09797996	-0.007473545	-0.305329	0	0	0.04992064	0.04065029
0.1145459	-0.007473545	-0.305329	0	0	0	0
0.1311126	-0.007473545	-0.305329	0	0	0	0
0.1476809	-0.007473545	-0.305329	0	0	0	0
0.1643542	-0.007473545	-0.305329	0	0	0	0
0.1808131	-0.007499859	-0.3053505	-0.001598769	-0.001303709	-0.04825419	-0.03934865
0.1973798	-0.007499859	-0.3053505	0	0	0.04840992	0.03947565
0.2140733	-0.007499859	-0.3053505	0	0	0	0
0.2305105	-0.007526174	-0.3053719	-0.001600909	-0.001303618	-0.04832108	-0.03934778
0.2470804	-0.007526174	-0.3053719	0	0	0.04850197	0.03949507
0.2641745	-0.007526174	-0.3053719	0	0	0	0
0.2802114	-0.007526174	-0.3053719	0	0	0	0
0.2967789	-0.007526174	-0.3053719	0	0	0	0
0.3133496	-0.007526174	-0.3053719	0	0	0	0
0.33024	-0.007526174	-0.3053719	0	0	0	0
0.3464862	-0.007526174	-0.3053719	0	0	0	0
0.3633067	-0.007526174	-0.3053719	0	0	0	0
0.3798024	-0.007526174	-0.3053719	0	0	0	0
0.396182	-0.007526174	-0.3053719	0	0	0	0
0.4127542	-0.007526174	-0.3053719	0	0	0	0
0.4293134	-0.007552488	-0.3053933	-0.001589088	-0.001295815	-0.04796314	-0.03911132
0.4458805	-0.007552488	-0.3053933	0	0	0.04797056	0.03911737
0.4624468	-0.007552488	-0.3053933	0	0	0	0
0.4790155	-0.007552488	-0.3053933	0	0	0	0
0.4955803	-0.007552488	-0.3053933	0	0	0	0
0.5126057	-0.007552488	-0.3053933	0	0	0	0
0.5291222	-0.007552488	-0.3053933	0	0	0	0
0.545428	-0.007552488	-0.3053933	0	0	0	0
0.5618463	-0.007552488	-0.3053933	0	0	0	0
0.5784134	-0.007552488	-0.3053933	0	0	0	0
0.5949774	-0.007552488	-0.3053933	0	0	0	0
0.6115469	-0.007552488	-0.3053933	0	0	0	0
0.6281136	-0.007552488	-0.3053933	0	0	0	0
0.6449088	-0.007552488	-0.3053933	0	0	0	0
0.6613852	-0.007552488	-0.3053933	0	0	0	0
0.6778564	-0.007552488	-0.3053933	0	0	0	0
0.6943805	-0.007552488	-0.3053933	0	0	0	0
0.7109468	-0.007552488	-0.3053933	0	0	0	0
0.7275139	-0.007552488	-0.3053933	0	0	0	0
0.7441402	-0.007552488	-0.3053933	0	0	0	0
0.7606465	-0.007552488	-0.3053933	0	0	0	0
0.7772109	-0.007552488	-0.3053933	0	0	0	0
0.7937804	-0.007552488	-0.3053933	0	0	0	0
0.8103467	-0.007552488	-0.3053933	0	0	0	0
0.8269138	-0.007552488	-0.3053933	0	0	0	0
0.8436712	-0.007552488	-0.3053933	0	0	0	0
0.8601235	-0.007552488	-0.3053933	0	0	0	0
0.876614	-0.007552488	-0.3053933	0	0	0	0
0.8931803	-0.007552488	-0.3053933	0	0	0	0
0.909747	-0.007552488	-0.3053933	0	0	0	0
0.9263114	-0.007578802	-0.3053719	-0.001588622	0.001295411	-0.04794962	0.0390996
0.9428797	-0.007578802	-0.3053719	0	0	0.04794729	-0.0390977
0.9602572	-0.007578802	-0.3053719	0	0	0	0
0.9760107	-0.007578802	-0.3053719	0	0	0	0
0.9925806	-0.007578802	-0.3053719	0	0	0	0
1.009147	-0.007578802	-0.3053719	0	0	0	0
1.025714	-0.007605116	-0.3053505	-0.001588365	0.001293426	-0.04793842	0.03903687
1.042279	-0.007605116	-0.3053505	0	0	0.04794075	-0.03903877
1.058846	-0.007605116	-0.3053505	0	0	0	0
1.076226	-0.007605116	-0.3053505	0	0	0	0
1.092167	-0.007605116	-0.3053505	0	0	0	0
1.108844	-0.007605116	-0.3053505	0	0	0	0
1.167292	-0.007605116	-0.3053505	0	0	0	0
1.183859	-0.007605116	-0.3053505	0	0	0	0
1.200426	-0.007605116	-0.3053505	0	0	0	0
1.216996	-0.007605116	-0.3053505	0	0	0	0
1.233769	-0.007605116	-0.3053505	0	0	0	0
1.250191	-0.007605116	-0.3053505	0	0	0	0
1.266764	-0.007605116	-0.3053505	0	0	0	0
1.283656	-0.007605116	-0.3053505	0	0	0	0
1.299829	-0.007605116	-0.3053505	0	0	0	0
1.316395	-0.007605116	-0.3053505	0	0	0	0
1.332962	-0.007605116	-0.3053505	0	0	0	0
1.349529	-0.007605116	-0.3053505	0	0	0	0
1.366095	-0.007605116	-0.3053505	0	0	0	0
1.382662	-0.007605116	-0.3053505	0	0	0	0
1.399226	-0.007605116	-0.3053505	0	0	0	0
1.415795	-0.007605116	-0.3053505	0	0	0	0
1.432362	-0.007605116	-0.3053505	0	0	0	0
1.448927	-0.007605116	-0.3053505	0	0	0	0
1.465495	-0.007605116	-0.3053505	0	0	0	0
1.482372	-0.007605116	-0.3053505	0	0	0	0
1.499035	-0.007605116	-0.3053505	0	0	0	0
1.515279	-0.007605116	-0.3053505	0	0	0	0
1.532024	-0.007605116	-0.3053505	0	0	0	0
1.548329	-0.007605116	-0.3053505	0	0	0	0
1.564895	-0.007605116	-0.3053505	0	0	0	0
1.58198	-0.007605116	-0.3053505	0	0	0	0
1.598029	-0.007605116	-0.3053505	0	0	0	0
1.614595	-0.007605116	-0.3053505	0	0	0	0
1.631277	-0.007605116	-0.3053505	0	0	0	0
1.6483	-0.007605116	-0.3053505	0	0	0	0
1.664504	-0.007605116	-0.3053505	0	0	0	0
1.680862	-0.007605116	-0.3053505	0	0	0	0
1.697427	-0.007605116	-0.3053505	0	0	0	0
1.713996	-0.007605116	-0.3053505	0	0	0	0
1.730562	-0.007605116	-0.3053505	0	0	0	0
1.747128	-0.007605116	-0.3053505	0	0	0	0
1.763695	-0.007605116	-0.3053505	0	0	0	0
1.780262	-0.007605116	-0.3053505	0	0	0	0
1.796827	-0.007605116	-0.3053505	0	0	0	0
1.813395	-0.007605116	-0.3053505	0	0	0	0
1.829992	-0.007605116	-0.3053505	0	0	0	0
1.846528	-0.007605116	-0.3053505	0	0	0	0
1.863095	-0.007605116	-0.3053505	0	0	0	0
1.879665	-0.007605116	-0.3053505	0	0	0	0
1.896231	-0.007605116	-0.3053505	0	0	0	0
1.913266	-0.007605116	-0.3053505	0	0	0	0
1.92984	-0.007605116	-0.3053505	0	0	0	0
1.945926	-0.007605116	-0.3053505	0	0	0	0
1.9625	-0.007605116	-0.3053505	0	0	0	0
1.979207	-0.007605116	-0.3053505	0	0	0	0
1.995801	-0.007605116	-0.3053505	0	0	0	0
2.012199	-0.007605116	-0.3053505	0	0	0	0
2.029212	-0.007605116	-0.3053505	0	0	0	0
2.045328	-0.007605116	-0.3053505	0	0	0	0
2.061895	-0.007605116	-0.3053505	0	0	0	0
2.078462	-0.007605116	-0.3053505	0	0	0	0
2.095026	-0.007605116	-0.3053505	0	0	0	0
2.111595	-0.007605116	-0.3053505	0	0	0	0
2.128162	-0.007605116	-0.3053505	0	0	0	0
2.144725	-0.007605116	-0.3053505	0	0	0	0
2.161295	-0.007605116	-0.3053505	0	0	0	0
2.177908	-0.007605116	-0.3053505	0	0	0	0
2.194442	-0.007605116	-0.3053505	0	0	0	0
2.211063	-0.007605116	-0.3053505	0	0	0	0
2.228323	-0.007605116	-0.3053505	0	0	0	0
2.244128	-0.007605116	-0.3053505	0	0	0	0
2.260695	-0.007605116	-0.3053505	0	0	0	0
2.277354	-0.007605116	-0.3053505	0	0	0	0
2.293825	-0.007605116	-0.3053505	0	0	0	0
2.310395	-0.007605116	-0.3053505	0	0	0	0
2.326962	-0.007605116	-0.3053505	0	0	0	0
2.343527	-0.007605116	-0.3053505	0	0	0	0
2.360092	-0.007605116	-0.3053505	0	0	0	0
2.376705	-0.007605116	-0.3053505	0	0	0	0
2.393225	-0.007631431	-0.305329	-0.001592909	0.001298907	-0.04807721	0.03920364
2.409795	-0.007631431	-0.305329	0	0	0.04813922	-0.03925421
2.426671	-0.007631431	-0.305329	0	0	0	0
2.443303	-0.007684059	-0.3052861	-0.003164236	0.002578446	-0.09443072	0.07694893
2.459495	-0.007684059	-0.3052861	0	0	0.09639994	-0.07855359
2.476061	-0.007684059	-0.3052861	0	0	0	0
2.492628	-0.007710373	-0.3052647	-0.001588342	0.001293407	-0.04793799	0.03903652
2.509196	-0.007710373	-0.3052647	0	0	0.04793626	-0.03903511
2.526204	-0.007710373	-0.3052647	0	0	0	0
2.54235	-0.007684059	-0.3052861	0.001629738	-0.001327117	0.04915624	-0.04002856
2.558894	-0.007684059	-0.3052861	0	0	-0.0498539	0.04059667
2.575719	-0.007684059	-0.3052861	0	0	0	0
2.592259	-0.007684059	-0.3052861	0	0	0	0
2.60902	-0.007684059	-0.3052861	0	0	0	0
2.625606	-0.007684059	-0.3052861	0	0	0	0
2.641725	-0.007684059	-0.3052861	0	0	0	0
2.658676	-0.007684059	-0.3052861	0	0	0	0
2.674858	-0.007684059	-0.3052861	0	0	0	0
2.691427	-0.007710373	-0.3053076	-0.001588137	-0.001295039	-0.04849076	-0.03954157
2.707994	-0.007710373	-0.3053076	0	0	0.04792764	0.03908237
2.72507	-0.007710373	-0.3053076	0	0	0	0
2.741128	-0.01762975	-0.3128926	-0.6177415	-0.4723645	-18.64401	-14.2564
2.757694	-0.01762975	-0.3128926	0	0	18.93505	14.47894
2.774261	-0.01762975	-0.3128926	0	0	0	0
2.790827	-0.06815742	-0.3538111	-3.050164	-2.470096	-92.06008	-74.55247
2.807394	-0.06815742	-0.3538111	0	0	92.05809	74.55087
2.824174	-0.06815742	-0.3538111	0	0	0	0
2.84071	-0.1311637	-0.4080594	-3.810248	-3.280622	-114.3689	-98.47159
2.857092	-0.1311637	-0.4080594	0	0	115.7473	99.65834
2.873661	-0.1311637	-0.4080594	0	0	0	0
2.890345	-0.1843817	-0.4545491	-3.189756	-2.78647	-95.92468	-83.79678
2.906794	-0.1843817	-0.4545491	0	0	96.27188	84.10008
2.923361	-0.1843817	-0.4545491	0	0	0	0
2.939939	-0.2337776	-0.4466585	-2.979694	0.475982	-89.8989	14.36062
2.956705	-0.2337776	-0.4466585	0	0	89.36215	-14.27488
2.973061	-0.2337776	-0.4466585	0	0	0	0
2.990242	-0.2864518	-0.4001847	-3.065854	2.704964	-91.4173	80.65633
3.006194	-0.2864518	-0.4001847	0	0	92.53365	-81.64127
3.022762	-0.2864518	-0.4001847	0	0	0	0
3.039327	-0.3191747	-0.3694548	-1.975358	1.85505	-59.61815	55.98714
3.055905	-0.3191747	-0.3694548	0	0	59.60057	-55.97063
3.072671	-0.3191747	-0.3694548	0	0	0	0
3.089027	-0.3446001	-0.3454299	-1.554501	1.468875	-46.93249	44.34732
3.105594	-0.3446001	-0.3454299	0	0	47.21663	-44.61581
3.122161	-0.3446001	-0.3454299	0	0	0	0
3.138726	-0.355213	-0.3352134	-0.640659	0.6167279	-19.33624	18.61396
3.155295	-0.355213	-0.3352134	0	0	19.33527	-18.61302
3.171861	-0.355213	-0.3352134	0	0	0	0
3.188521	-0.3561611	-0.334363	-0.05690892	0.05104505	-1.71277	1.536287
3.204995	-0.3561611	-0.334363	0	0	1.717539	-1.540565
3.221622	-0.3561611	-0.334363	0	0	0	0
3.238664	-0.3566464	-0.3339052	-0.0284788	0.02685953	-0.8458405	0.7977471
3.254693	-0.3566464	-0.3339052	0	0	0.8611277	-0.8121651
3.272033	-0.3566464	-0.3339052	0	0	0	0
3.287825	-0.3566464	-0.3339052	0	0	0	0
3.304588	-0.3566464	-0.3339052	0	0	0	0
3.320962	-0.3566464	-0.3339052	0	0	0	0
3.337526	-0.3566233	-0.3339271	0.001394427	-0.001317058	0.0423358	-0.03998685
3.354095	-0.3566233	-0.3339271	0	0	-0.0420857	0.03975062
3.370661	-0.3566233	-0.3339271	0	0	0	0
3.387228	-0.3566233	-0.3339271	0	0	0	0
3.403794	-0.3566233	-0.3339271	0	0	0	0
3.420726	-0.3566233	-0.3339271	0	0	0	0
3.436925	-0.3566002	-0.3339489	0.001427646	-0.001344858	0.0430911	-0.04059226
3.453664	-0.3566002	-0.3339489	0	0	-0.04334344	0.04082996
3.470062	-0.3566002	-0.3339489	0	0	0	0
3.486815	-0.3566002	-0.3339489	0	0	0	0
3.503194	-0.3566002	-0.3339489	0	0	0	0
3.519894	-0.3566002	-0.3339489	0	0	0	0
3.536325	-0.3565771	-0.3339706	0.001405656	-0.001325851	0.04242706	-0.04001829
3.553039	-0.3565771	-0.3339706	0	0	-0.04240996	0.04000217
3.569462	-0.3565771	-0.3339706	0	0	0	0
3.586028	-0.3565309	-0.3340142	0.002790251	-0.002631939	0.08458118	-0.07978225
3.602594	-0.3565309	-0.3340142	0	0	-0.08421418	0.07943607
3.619161	-0.3565309	-0.3340142	0	0	0	0
3.635727	-0.3565077	-0.334036	0.001396025	-0.00131507	0.04213424	-0.03969089
3.652294	-0.3565077	-0.334036	0	0	-0.04213424	0.03969089
3.669179	-0.3565077	-0.334036	0	0	0	0
3.685987	-0.3565077	-0.334036	0	0	0	0
3.701994	-0.3565077	-0.334036	0	0	0	0
3.718561	-0.3565077	-0.334036	0	0	0	0
3.735128	-0.3564615	-0.3340796	0.00279013	-0.002631825	0.08420691	-0.07942921
3.751695	-0.3564615	-0.3340796	0	0	-0.08420873	0.07943093
3.768262	-0.3564615	-0.3340796	0	0	0	0
3.784825	-0.3564153	-0.3341232	0.002790652	-0.002632318	0.08423236	-0.07945322
3.801395	-0.3564153	-0.3341232	0	0	-0.08422569	0.07944693
3.818207	-0.3564153	-0.3341232	0	0	0	0
3.834528	-0.3559992	-0.3339925	0.02549265	0.008012446	0.7693864	0.2418213
3.851094	-0.3559992	-0.3339925	0	0	-0.7751537	-0.243634
3.867661	-0.3559992	-0.3339925	0	0	0	0
3.884229	-0.3524342	-0.3313355	0.2151771	0.1603697	6.494012	4.839932
3.900795	-0.3524342	-0.3313355	0	0	-6.494106	-4.840002
3.917361	-0.3524342	-0.3313355	0	0	0	0
3.933926	-0.3335299	-0.3138834	1.14123	1.053562	34.4466	31.80045
3.950494	-0.3335299	-0.3138834	0	0	-34.44388	-31.79794
3.967062	-0.3335299	-0.3138834	0	0	0	0
3.988439	-0.3208819	-0.3033574	0.5916821	0.4924101	15.59333	12.9771
4.00501	-0.3208819	-0.3033574	0	0	-15.59216	-12.97612
4.02171	-0.3071227	-0.2953646	0.823889	0.4786033	24.76274	14.38486
4.038222	-0.3071227	-0.2953646	0	0	-24.80647	-14.41027
4.054709	-0.3071227	-0.2953646	0	0	0	0
4.071274	-0.2780772	-0.2900839	1.753442	0.3187934	53.05182	9.645355
4.087841	-0.2780772	-0.2900839	0	0	-52.92278	-9.621895
4.104409	-0.2780772	-0.2900839	0	0	0	0
4.121338	-0.2281918	-0.3108911	2.946634	-1.229045	87.96621	-36.69082
4.137543	-0.2281918	-0.3108911	0	0	-88.93085	37.09317
4.154109	-0.2281918	-0.3108911	0	0	0	0
4.170674	-0.1801059	-0.3313572	2.902972	-1.235549	87.6207	-37.2927
4.187242	-0.1801059	-0.3313572	0	0	-87.61817	37.29163
4.203809	-0.1801059	-0.3313572	0	0	0	0
4.220375	-0.1608099	-0.3476476	1.164779	-0.9833451	35.15411	-29.67827
4.236943	-0.1608099	-0.3476476	0	0	-35.1531	29.67741
4.253681	-0.1608099	-0.3476476	0	0	0	0
4.270252	-0.1512312	-0.3558633	0.5780221	-0.4957737	17.35334	-14.88408
4.286641	-0.1512312	-0.3558633	0	0	-17.53686	15.04149
4.303408	-0.1512312	-0.3558633	0	0	0	0
4.319774	-0.146032	-0.3602411	0.3176825	-0.2674906	9.588092	-8.073231
4.336343	-0.146032	-0.3602411	0	0	-9.6457	8.121737
4.353087	-0.146032	-0.3602411	0	0	0	0
4.369531	-0.1390959	-0.3543404	0.421803	0.3588372	12.70955	10.8123
4.386042	-0.1390959	-0.3543404	0	0	-12.79967	-10.88896
4.402607	-0.1390959	-0.3543404	0	0	0	0
4.419734	-0.1230592	-0.3407625	0.9363911	0.7928221	27.79278	23.53155
4.435743	-0.1230592	-0.3407625	0	0	-28.25953	-23.92673
4.45231	-0.1230592	-0.3407625	0	0	0	0
4.468979	-0.1175866	-0.3361079	0.3282962	0.2792217	9.877579	8.401056
4.485441	-0.1175866	-0.3361079	0	0	-9.908997	-8.427778
4.502008	-0.1175866	-0.3361079	0	0	0	0
4.518576	-0.1175347	-0.3361079	0.003133095	0	0.09455426	0
4.535181	-0.1175347	-0.3361079	0	0	-0.0944496	0
4.551709	-0.1175347	-0.3361079	0	0	0	0
4.568274	-0.1174828	-0.3360643	0.003133726	0.002635802	0.0946946	0.0796484
4.584866	-0.1174828	-0.3360643	0	0	-0.09451211	-0.07949491
4.601962	-0.1174828	-0.3360643	0	0	0	0
4.617996	-0.1162368	-0.3350608	0.0777105	0.06258736	2.345645	1.889162
4.634543	-0.1162368	-0.3350608	0	0	-2.385159	-1.920986
4.651503	-0.1162368	-0.3350608	0	0	0	0
4.667674	-0.1035754	-0.3245157	0.7829722	0.6520988	23.63253	19.68236
4.684241	-0.1035754	-0.3245157	0	0	-23.91616	-19.91858
4.700808	-0.1035754	-0.3245157	0	0	0	0
4.717393	-0.1030547	-0.3239522	0.03139555	0.03397493	0.9470152	1.02482
4.733943	-0.1030547	-0.3239522	0	0	-0.9475058	-1.025351
4.75051	-0.1030547	-0.3239522	0	0	0	0
4.767076	-0.1030807	-0.3239305	-0.001571945	0.00130793	-0.04744345	0.03947512
4.783641	-0.1030807	-0.3239305	0	0	0.04744686	-0.03947796
4.800505	-0.1030807	-0.3239305	0	0	0	0
4.816773	-0.1030807	-0.3239305	0	0	0	0
4.833729	-0.1030807	-0.3239305	0	0	0	0
4.84991	-0.1030807	-0.3239305	0	0	0	0
4.866475	-0.1030807	-0.3238872	0	0.002615936	0	0.07988606
4.883042	-0.1030807	-0.3238872	0	0	0	-0.07895365
4.899831	-0.1030807	-0.3238872	0	0	0	0
4.916174	-0.101987	-0.3229774	0.06692026	0.05567084	2.019832	1.680294
4.932743	-0.101987	-0.3229774	0	0	-2.033293	-1.691493
4.94931	-0.101987	-0.3229774	0	0	0	0
4.965874	-0.09022804	-0.3132371	0.7099171	0.5880401	21.42781	17.74913
4.982441	-0.09022804	-0.3132371	0	0	-21.4275	-17.74887
4.999009	-0.09022804	-0.3132371	0	0	0	0
5.015574	-0.08970597	-0.3126773	0.03151581	0.0337975	0.9511902	1.020054
5.032378	-0.08970597	-0.3126773	0	0	-0.9444621	-1.012839
5.04871	-0.08970597	-0.3126773	0	0	0	0
5.065276	-0.08970597	-0.3126773	0	0	0	0
5.082103	-0.08970597	-0.3126773	0	0	0	0
5.09865	-0.08970597	-0.3126773	0	0	0	0
5.114974	-0.08970597	-0.3126773	0	0	0	0
5.131542	-0.08970597	-0.3126773	0	0	0	0
5.148109	-0.08970597	-0.3126773	0	0	0	0
5.164677	-0.08973207	-0.3126988	-0.001575721	-0.001298711	-0.04755398	-0.03919404
5.181385	-0.08973207	-0.3126988	0	0	0.04735364	0.03902891
5.19781	-0.08973207	-0.3126988	0	0	0	0
5.214374	-0.08975817	-0.3127203	-0.001575725	-0.001299085	-0.04776512	-0.03937929
5.230943	-0.08975817	-0.3127203	0	0	0.04755752	0.03920814
5.247883	-0.08975817	-0.3127203	0	0	0	0
5.264261	-0.08978428	-0.3127418	-0.001594026	-0.001315617	-0.04784271	-0.03948663
5.280758	-0.08978428	-0.3127418	0	0	0.04848808	0.04001928
5.297945	-0.08978428	-0.3127418	0	0	0	0
5.313838	-0.08983649	-0.3127849	-0.00328486	-0.002709646	-0.09930161	-0.08191284
5.330341	-0.08983649	-0.3127849	0	0	0.1013961	0.08364056
5.346911	-0.08983649	-0.3127849	0	0	0	0
5.363475	-0.08983649	-0.3127849	0	0	0	0
5.380043	-0.08983649	-0.3127849	0	0	0	0
5.396609	-0.08983649	-0.3127849	0	0	0	0
5.413174	-0.08983649	-0.312828	0	-0.002599669	0	-0.07846607
5.429742	-0.08983649	-0.312828	0	0	0	0.07846043
5.446601	-0.08983649	-0.312828	0	0	0	0
5.462874	-0.08986259	-0.3128495	-0.001604349	-0.001322306	-0.04842352	-0.03991071
5.480021	-0.08986259	-0.3128495	0	0	0.0480062	0.03956676
5.49652	-0.08986259	-0.3128495	0	0	0	0
5.512574	-0.08988869	-0.312828	-0.001625757	0.001340333	-0.04994229	0.04117423
5.529141	-0.08988869	-0.312828	0	0	0.04983717	-0.04108757
5.54571	-0.08988869	-0.312828	0	0	0	0
5.562274	-0.08988869	-0.312828	0	0	0	0
5.578844	-0.08988869	-0.312828	0	0	0	0
5.59541	-0.08988869	-0.312828	0	0	0	0
5.612498	-0.08988869	-0.312828	0	0	0	0
5.628543	-0.08988869	-0.312828	0	0	0	0
5.645618	-0.08988869	-0.312828	0	0	0	0
5.661675	-0.08988869	-0.312828	0	0	0	0
5.678247	-0.08988869	-0.312828	0	0	0	0
5.695639	-0.08988869	-0.312828	0	0	0	0
5.711379	-0.08988869	-0.312828	0	0	0	0
5.727947	-0.08988869	-0.312828	0	0	0	0
5.744742	-0.08988869	-0.312828	0	0	0	0
5.761212	-0.08988869	-0.312828	0	0	0	0
5.77807	-0.08988869	-0.312828	0	0	0	0
5.79425	-0.08988869	-0.312828	0	0	0	0
5.810777	-0.08988869	-0.312828	0	0	0	0
5.827797	-0.08988869	-0.312828	0	0	0	0
5.844258	-0.08988869	-0.312828	0	0	0	0
5.860476	-0.08988869	-0.312828	0	0	0	0
5.877044	-0.08988869	-0.312828	0	0	0	0
5.89361	-0.08988869	-0.312828	0	0	0	0
5.916958	-0.08988869	-0.312828	0	0	0	0
5.933527	-0.08988869	-0.312828	0	0	0	0
5.950273	-0.08988869	-0.312828	0	0	0	0
5.966812	-0.08988869	-0.312828	0	0	0	0
5.983345	-0.08988869	-0.312828	0	0	0	0
5.99991	-0.08988869	-0.312828	0	0	0	0
6.016361	-0.08988869	-0.312828	0	0	0	0
6.032928	-0.08988869	-0.312828	0	0	0	0
6.049494	-0.08988869	-0.312828	0	0	0	0
6.066061	-0.08988869	-0.312828	0	0	0	0
6.082629	-0.08988869	-0.312828	0	0	0	0
6.099194	-0.08988869	-0.312828	0	0	0	0
6.11592	-0.08988869	-0.312828	0	0	0	0
6.132551	-0.08988869	-0.312828	0	0	0	0
6.149369	-0.08988869	-0.312828	0	0	0	0
6.165463	-0.08988869	-0.312828	0	0	0	0
6.18215	-0.08988869	-0.312828	0	0	0	0
6.198594	-0.0899148	-0.3128495	-0.001587647	-0.00130854	-0.04792079	-0.03949636
6.215162	-0.0899148	-0.3128495	0	0	0.04809384	0.03963899
6.231831	-0.0899148	-0.3128495	0	0	0	0
6.248295	-0.0899148	-0.3128495	0	0	0	0
6.26526	-0.0899148	-0.3128495	0	0	0	0
6.281744	-0.0899148	-0.3128495	0	0	0	0
6.298316	-0.0899409	-0.312871	-0.001574818	-0.001300135	-0.04764054	-0.03933099
6.314562	-0.0899409	-0.312871	0	0	0.04798595	0.03961615
6.331151	-0.0899409	-0.312871	0	0	0	0
6.348448	-0.0899409	-0.312871	0	0	0	0
6.364262	-0.0899409	-0.312871	0	0	0	0
6.380827	-0.0899409	-0.312871	0	0	0	0
6.397448	-0.089967	-0.3128926	-0.001570748	-0.001294612	-0.04733171	-0.03901084
6.413961	-0.089967	-0.3128926	0	0	0.04740595	0.03907203
6.430528	-0.089967	-0.3128926	0	0	0	0
6.447146	-0.089967	-0.3128926	0	0	0	0
6.463661	-0.089967	-0.3128926	0	0	0	0
6.480227	-0.089967	-0.3128926	0	0	0	0
6.496795	-0.089967	-0.3128926	0	0	0	0
6.513539	-0.089967	-0.3128926	0	0	0	0
6.529928	-0.089967	-0.3128926	0	0	0	0
6.546493	-0.08999311	-0.3129141	-0.001576084	-0.001300809	-0.04782785	-0.03947436
6.610177	-0.08999311	-0.3129141	0	0	0.01963996	0.01620969
6.626747	-0.08999311	-0.3129141	0	0	0	0
6.643314	-0.08999311	-0.3129141	0	0	0	0
6.659881	-0.08999311	-0.3129141	0	0	0	0
6.67661	-0.08999311	-0.3129141	0	0	0	0
6.69491	-0.08999311	-0.3129141	0	0	0	0
6.71212	-0.08999311	-0.3129141	0	0	0	0
6.728049	-0.08999311	-0.3129141	0	0	0	0
6.744772	-0.089967	-0.3129357	0.001561119	-0.001288458	0.04781096	-0.03946042
6.761184	-0.089967	-0.3129357	0	0	-0.04711398	0.03888517
6.777753	-0.089967	-0.3129357	0	0	0	0
6.794318	-0.08999311	-0.3129141	-0.001576038	0.001300771	-0.04756493	0.03925736
6.810884	-0.08999311	-0.3129141	0	0	0.0475711	-0.03926245
6.827452	-0.08999311	-0.3129141	0	0	0	0
6.844018	-0.08999311	-0.3129141	0	0	0	0
6.86077	-0.08999311	-0.3129141	0	0	0	0
6.877266	-0.08999311	-0.3129141	0	0	0	0
6.893713	-0.08999311	-0.3129141	0	0	0	0
6.910278	-0.08999311	-0.3129141	0	0	0	0
6.926845	-0.08999311	-0.3129141	0	0	0	0
6.94341	-0.089967	-0.3129357	0.001575948	-0.001300697	0.04756493	-0.03925736
6.959978	-0.089967	-0.3129357	0	0	-0.04756425	0.0392568
6.977449	-0.089967	-0.3129357	0	0	0	0
6.993477	-0.08999311	-0.3129141	-0.001628834	0.001344346	-0.04862301	0.04013064
7.009677	-0.08999311	-0.3129141	0	0	0.05054022	-0.041713
7.026247	-0.08999311	-0.3129141	0	0	0	0
7.042811	-0.08999311	-0.3129141	0	0	0	0
7.059389	-0.08999311	-0.3129141	0	0	0	0
7.075944	-0.08999311	-0.3129141	0	0	0	0
7.092512	-0.08999311	-0.3129141	0	0	0	0
7.10924	-0.08999311	-0.3129141	0	0	0	0
7.125646	-0.08999311	-0.3129141	0	0	0	0
7.14221	-0.08999311	-0.3129141	0	0	0	0
7.158778	-0.08999311	-0.3129141	0	0	0	0
7.175344	-0.08999311	-0.3129141	0	0	0	0
7.191918	-0.08999311	-0.3129141	0	0	0	0
7.20848	-0.08999311	-0.3129141	0	0	0	0
7.225046	-0.08999311	-0.3129141	0	0	0	0
7.241611	-0.08999311	-0.3129141	0	0	0	0
7.258178	-0.08999311	-0.3129141	0	0	0	0
7.274747	-0.08999311	-0.3129141	0	0	0	0
7.291312	-0.08999311	-0.3129141	0	0	0	0
7.307879	-0.08999311	-0.3129141	0	0	0	0
7.324447	-0.08999311	-0.3129141	0	0	0	0
7.341117	-0.08999311	-0.3129141	0	0	0	0
7.357757	-0.08999311	-0.3129141	0	0	0	0
7.374147	-0.08999311	-0.3129141	0	0	0	0
7.390714	-0.08999311	-0.3129141	0	0	0	0
7.407279	-0.08999311	-0.3129141	0	0	0	0
7.423845	-0.08999311	-0.3129141	0	0	0	0
7.440411	-0.09001921	-0.3129357	-0.001575453	-0.001300659	-0.04755136	-0.03925736
7.456979	-0.09001921	-0.3129357	0	0	0.04754794	0.03925453
7.473545	-0.09001921	-0.3129357	0	0	0	0
7.490115	-0.08999311	-0.3129572	0.001575135	-0.001298598	0.04753562	-0.03919009
7.50668	-0.08999311	-0.3129572	0	0	-0.04753631	0.03919065
7.523638	-0.08999311	-0.3129572	0	0	0	0
7.539812	-0.08999311	-0.3129572	0	0	0	0
7.556379	-0.08999311	-0.3129572	0	0	0	0
7.572965	-0.08999311	-0.3129572	0	0	0	0
7.590162	-0.08999311	-0.3129572	0	0	0	0
7.606948	-0.08999311	-0.3129572	0	0	0	0
7.624024	-0.08999311	-0.3129572	0	0	0	0
7.64007	-0.08999311	-0.3129572	0	0	0	0
7.656433	-0.08999311	-0.3129572	0	0	0	0
7.673	-0.08999311	-0.3129572	0	0	0	0
7.689567	-0.09001921	-0.3129357	-0.001575407	0.001298823	-0.04754725	0.03919968
7.706132	-0.09001921	-0.3129357	0	0	0.04754862	-0.03920081
7.7227	-0.09001921	-0.3129357	0	0	0	0
7.739278	-0.08999311	-0.3129572	0.001574275	-0.001297889	0.04749529	-0.03915684
7.7562	-0.08999311	-0.3129572	0	0	-0.04699299	0.03874272
7.7724	-0.08999311	-0.3129572	0	0	0	0
7.788964	-0.08999311	-0.3129572	0	0	0	0
7.805532	-0.08999311	-0.3129572	0	0	0	0
7.822567	-0.08999311	-0.3129572	0	0	0	0
7.838666	-0.08999311	-0.3129572	0	0	0	0
7.855677	-0.08999311	-0.3129572	0	0	0	0
7.871799	-0.08999311	-0.3129572	0	0	0	0
7.888367	-0.09001921	-0.3129787	-0.001575362	-0.001300584	-0.04819087	-0.03978533
7.904932	-0.09001921	-0.3129787	0	0	0.04754725	0.03925397
7.921615	-0.09001921	-0.3129787	0	0	0	0
7.938125	-0.09004532	-0.3130002	-0.001581273	-0.001303287	-0.04763928	-0.03926434
7.954631	-0.09004532	-0.3130002	0	0	0.04789385	0.03947416
7.971268	-0.09004532	-0.3130002	0	0	0	0
7.987766	-0.09004532	-0.3130002	0	0	0	0
8.004333	-0.09004532	-0.3130002	0	0	0	0
8.021194	-0.09004532	-0.3130002	0	0	0	0
8.038214	-0.09004532	-0.3130002	0	0	0	0
8.054031	-0.09004532	-0.3130002	0	0	0	0
8.070597	-0.09004532	-0.3130002	0	0	0	0
8.087163	-0.09004532	-0.3130002	0	0	0	0
8.103731	-0.09004532	-0.3130002	0	0	0	0
8.120298	-0.09004532	-0.3130002	0	0	0	0
8.137172	-0.09017583	-0.3130648	-0.007734786	-0.003829198	-0.2312993	-0.1145075
8.153431	-0.09017583	-0.3130648	0	0	0.2334497	0.1155721
8.170516	-0.09017583	-0.3130648	0	0	0	0
8.186562	-0.09273326	-0.3150041	-0.1593857	-0.1208581	-4.810823	-3.647924
8.20313	-0.09273326	-0.3150041	0	0	4.887069	3.70574
8.219768	-0.09273326	-0.3150041	0	0	0	0
8.236263	-0.09534164	-0.3168159	-0.1581244	-0.1098384	-4.772342	-3.315025
8.252976	-0.09534164	-0.3168159	0	0	4.761515	3.307504
8.269397	-0.09534164	-0.3168159	0	0	0	0
8.285962	-0.1066465	-0.3252528	-0.6824396	-0.5093102	-20.68896	-15.44034
8.302532	-0.1066465	-0.3252528	0	0	20.59548	15.37057
8.319585	-0.1066465	-0.3252528	0	0	0	0
8.335663	-0.1643975	-0.3683419	-3.591931	-2.680004	-108.4172	-80.892
8.352232	-0.1643975	-0.3683419	0	0	110.0229	82.09003
8.369034	-0.1643975	-0.3683419	0	0	0	0
8.385366	-0.2283915	-0.4251781	-3.918171	-3.479913	-118.2506	-105.024
8.401933	-0.2283915	-0.4251781	0	0	119.0973	105.776
8.418499	-0.2283915	-0.4251781	0	0	0	0
8.435301	-0.2837618	-0.4780336	-3.295487	-3.14582	-98.76157	-94.27625
8.451801	-0.2837618	-0.4780336	0	0	98.95672	94.46253
8.468199	-0.2837618	-0.4780336	0	0	0	0
8.484766	-0.3177743	-0.5123505	-2.052998	-2.071372	-62.27868	-62.83605
8.501332	-0.3177743	-0.5123505	0	0	61.9614	62.51593
8.517955	-0.3177743	-0.5123505	0	0	0	0
8.534466	-0.3328484	-0.5272749	-0.9129754	-0.9039089	-27.55445	-27.28081
8.551032	-0.3328484	-0.5272749	0	0	27.60132	27.32722
8.567599	-0.3328484	-0.5272749	0	0	0	0
8.584165	-0.3459283	-0.513309	-0.7895959	0.8430808	-23.83142	25.44569
8.600743	-0.3459283	-0.513309	0	0	23.82319	-25.43691
8.617391	-0.3459283	-0.513309	0	0	0	0
8.634028	-0.3642044	-0.4935918	-1.098468	1.185084	-33.00176	35.60398
8.650433	-0.3642044	-0.4935918	0	0	33.24465	-35.86603
8.667083	-0.3642044	-0.4935918	0	0	0	0
8.683716	-0.3666835	-0.4904949	-0.1490489	0.186192	-4.478199	5.594169
8.700368	-0.3666835	-0.4904949	0	0	4.477942	-5.593848
8.716868	-0.3666835	-0.4904949	0	0	0	0
8.733264	-0.3666606	-0.4904707	0.001399634	0.00147416	0.04254717	0.04481267
8.749834	-0.3666606	-0.4904707	0	0	-0.04245732	-0.04471803
8.7664	-0.3666606	-0.4904707	0	0	0	0
8.782967	-0.3666376	-0.4904949	0.001383412	-0.001458969	0.04175386	-0.04403431
8.799567	-0.3666376	-0.4904949	0	0	-0.04171064	0.04398872
8.816694	-0.3666376	-0.4904949	0	0	0	0
8.83274	-0.3666376	-0.4904949	0	0	0	0
8.849263	-0.3666376	-0.4904949	0	0	0	0
8.866221	-0.3666376	-0.4904949	0	0	0	0
8.882758	-0.3665459	-0.4904465	0.005547145	0.002923155	0.1656114	0.0872715
8.898932	-0.3665459	-0.4904465	0	0	-0.1695803	-0.08936296
8.915854	-0.3665459	-0.4904465	0	0	0	0
8.932305	-0.3664771	-0.490374	0.004182971	0.004407609	0.1253404	0.1320716
8.948632	-0.3664771	-0.490374	0	0	-0.127616	-0.1344694
8.965381	-0.3664771	-0.490374	0	0	0	0
8.983191	-0.3664542	-0.4903499	0.001288418	0.001357022	0.03728143	0.03926655
8.99976	-0.3664542	-0.4903499	0	0	-0.03747689	-0.03947241
9.016329	-0.3664542	-0.4903499	0	0	0	0
9.03295	-0.3664083	-0.4903499	0.00275941	0	0.08313797	0
9.049521	-0.3664083	-0.4903499	0	0	-0.08313319	0
9.066088	-0.3664083	-0.4903499	0	0	0	0
9.082652	-0.3664083	-0.4903499	0	0	0	0
9.099222	-0.3664083	-0.4903499	0	0	0	0
9.116095	-0.3664083	-0.4903499	0	0	0	0
9.132589	-0.3663624	-0.4903499	0.002782435	0	0.08338844	0
9.149156	-0.3663624	-0.4903499	0	0	-0.08416057	0
9.165487	-0.3663624	-0.4903499	0	0	0	0
9.182052	-0.3662477	-0.490229	0.006923254	0.007293886	0.2104586	0.2217253
9.19862	-0.3662477	-0.490229	0	0	-0.2089563	-0.2201426
9.215499	-0.3662477	-0.490229	0	0	0	0
9.231751	-0.3640665	-0.4878873	0.134207	0.1440834	4.050726	4.34882
9.248321	-0.3640665	-0.4878873	0	0	-4.088978	-4.389887
9.265107	-0.3640665	-0.4878873	0	0	0	0
9.281665	-0.3512747	-0.4746373	0.7725618	0.8002336	23.16925	23.99913
9.298018	-0.3512747	-0.4746373	0	0	-23.47406	-24.31486
9.314588	-0.3512747	-0.4746373	0	0	0	0
9.331152	-0.3347981	-0.4578733	0.9947014	1.012049	30.02101	30.54458
9.347833	-0.3347981	-0.4578733	0	0	-29.92025	-30.44206
9.364372	-0.3347981	-0.4578733	0	0	0	0
9.380852	-0.3100371	-0.4333936	1.502532	1.485466	45.50498	44.98811
9.397419	-0.3100371	-0.4333936	0	0	-45.4669	-44.95047
9.414429	-0.3100371	-0.4333936	0	0	0	0
9.430552	-0.2771036	-0.4022519	2.042662	1.931531	61.65122	58.29708
9.447303	-0.2771036	-0.4022519	0	0	-62.1359	-58.7554
9.463687	-0.2771036	-0.4022519	0	0	0	0
9.480254	-0.2454987	-0.3738469	1.907676	1.714532	57.89372	52.0322
9.49682	-0.2454987	-0.3738469	0	0	-57.57545	-51.74616
9.513525	-0.2454987	-0.3738469	0	0	0	0
9.530537	-0.1978004	-0.3508145	2.803864	1.353916	83.16073	40.15625
9.5473	-0.1978004	-0.3508145	0	0	-83.01515	-40.08595
9.563086	-0.1978004	-0.3508145	0	0	0	0
9.579652	-0.1440995	-0.3580507	3.241577	-0.4368038	100.1987	-13.50181
9.596219	-0.1440995	-0.3580507	0	0	-97.83381	13.18314
9.612785	-0.1440995	-0.3580507	0	0	0	0
9.629352	-0.1002158	-0.3654743	2.64898	-0.4481122	79.95097	-13.52483
9.645918	-0.1002158	-0.3654743	0	0	-79.95097	13.52483
9.662484	-0.1002158	-0.3654743	0	0	0	0
9.67905	-0.08907942	-0.3727979	0.6722312	-0.442082	20.28915	-13.34283
9.695795	-0.08907942	-0.3727979	0	0	-20.18052	13.27139
9.712186	-0.08907942	-0.3727979	0	0	0	0
9.728868	-0.08889666	-0.3728648	0.01095483	-0.004010533	0.3312275	-0.1212615
9.745318	-0.08889666	-0.3728648	0	0	-0.3306364	0.1210451
9.761885	-0.08889666	-0.3728648	0	0	0	0
9.778603	-0.08270565	-0.3675411	0.3703223	0.3184434	11.12607	9.567408
9.795321	-0.08270565	-0.3675411	0	0	-11.07562	-9.524018
9.811585	-0.08270565	-0.3675411	0	0	0	0
9.828153	-0.06375558	-0.351387	1.143828	0.9750658	34.83867	29.69851
9.844778	-0.06375558	-0.351387	0	0	-34.46031	-29.37597
9.861285	-0.06375558	-0.351387	0	0	0	0
9.878339	-0.06068854	-0.3488125	0.179847	0.1509654	5.358848	4.498271
9.894418	-0.06068854	-0.3488125	0	0	-5.428105	-4.556406
9.910985	-0.06068854	-0.3488125	0	0	0	0
9.927552	-0.06074098	-0.3487245	-0.003165115	0.005308471	-0.09552336	0.16021
9.944389	-0.06074098	-0.3487245	0	0	0.09475158	-0.1589155
9.961114	-0.06074098	-0.3487245	0	0	0	0
9.97725	-0.06050501	-0.3485706	0.01462374	0.009537529	0.4450213	0.2902407
9.994232	-0.06050501	-0.3485706	0	0	-0.4415613	-0.2879841
10.01038	-0.06050501	-0.3485706	0	0	0	0
10.02726	-0.06037391	-0.3484607	0.007767035	0.006511667	0.2351405	0.1971353
10.04352	-0.06037391	-0.3484607	0	0	-0.2343961	-0.1965112
10.06009	-0.06037391	-0.3484607	0	0	0	0
10.07665	-0.06021659	-0.3482849	0.009498528	0.0106164	0.2866909	0.3204312
10.09322	-0.06021659	-0.3482849	0	0	-0.2867157	-0.3204589
10.10979	-0.06021659	-0.3482849	0	0	0	0
10.12639	-0.06019036	-0.3482629	0.001579328	0.00132467	0.04760939	0.03993264
10.14323	-0.06019036	-0.3482629	0	0	-0.04723056	-0.03961489
10.15949	-0.06019036	-0.3482629	0	0	0	0
10.17605	-0.06024281	-0.3482189	-0.003165704	0.002653641	-0.09643769	0.08083858
10.19307	-0.06024281	-0.3482189	0	0	0.09427399	-0.07902487
10.20918	-0.06024281	-0.3482189	0	0	0	0
10.22575	-0.06024281	-0.3482189	0	0	0	0
10.24257	-0.06024281	-0.3482189	0	0	0	0
10.25937	-0.06024281	-0.3482189	0	0	0	0
10.27545	-0.06024281	-0.3482189	0	0	0	0
10.29202	-0.06024281	-0.3482189	0	0	0	0
10.30858	-0.06024281	-0.3482189	0	0	0	0
10.32556	-0.06026903	-0.348197	-0.001544291	0.001295282	-0.04603178	0.03860941
10.34172	-0.06026903	-0.348197	0	0	0.04661081	-0.03909507
10.35828	-0.06026903	-0.348197	0	0	0	0
10.37485	-0.06026903	-0.348197	0	0	0	0
10.39142	-0.06026903	-0.348197	0	0	0	0
10.40808	-0.06026903	-0.348197	0	0	0	0
10.42455	-0.06026903	-0.348197	0	0	0	0
10.44141	-0.06026903	-0.348197	0	0	0	0
10.45768	-0.06026903	-0.348197	0	0	0	0
10.48037	-0.06026903	-0.348197	0	0	0	0
10.49742	-0.06026903	-0.348197	0	0	0	0
10.51351	-0.06026903	-0.348197	0	0	0	0
10.53007	-0.06026903	-0.348197	0	0	0	0
10.54685	-0.06026903	-0.348197	0	0	0	0
10.56523	-0.06026903	-0.348197	0	0	0	0
10.5818	-0.06026903	-0.348197	0	0	0	0
10.59836	-0.06026903	-0.348197	0	0	0	0
10.61493	-0.06029525	-0.348175	-0.001582922	0.001326074	-0.04777956	0.04002675
10.6315	-0.06029525	-0.348175	0	0	0.04777405	-0.04002214
10.64816	-0.06029525	-0.348175	0	0	0	0
10.66463	-0.06029525	-0.348175	0	0	0	0
10.6812	-0.06029525	-0.348175	0	0	0	0
10.70646	-0.06029525	-0.348175	0	0	0	0
10.72303	-0.06029525	-0.348175	0	0	0	0
10.7396	-0.06029525	-0.348175	0	0	0	0
10.75617	-0.06029525	-0.348175	0	0	0	0
10.77273	-0.06029525	-0.348175	0	0	0	0
10.7896	-0.06029525	-0.348175	0	0	0	0
10.80586	-0.06029525	-0.348175	0	0	0	0
10.82243	-0.06029525	-0.348175	0	0	0	0
10.839	-0.06029525	-0.348175	0	0	0	0
10.85576	-0.06029525	-0.348175	0	0	0	0
10.87213	-0.06029525	-0.348175	0	0	0	0
10.8887	-0.06029525	-0.348175	0	0	0	0
10.90544	-0.06029525	-0.348175	0	0	0	0
10.9219	-0.06029525	-0.348175	0	0	0	0
10.9384	-0.06029525	-0.348175	0	0	0	0
10.95496	-0.06029525	-0.348175	0	0	0	0
10.97153	-0.06029525	-0.348175	0	0	0	0
10.9881	-0.06029525	-0.348175	0	0	0	0
11.00514	-0.06029525	-0.348175	0	0	0	0
11.02127	-0.06029525	-0.348175	0	0	0	0
11.0378	-0.06029525	-0.348175	0	0	0	0
11.05437	-0.06029525	-0.348175	0	0	0	0
11.07093	-0.06029525	-0.348175	0	0	0	0
11.08757	-0.06029525	-0.348175	0	0	0	0
11.10406	-0.06029525	-0.348175	0	0	0	0
11.12098	-0.06029525	-0.348175	0	0	0	0
11.1372	-0.06029525	-0.348175	0	0	0	0
11.15404	-0.06029525	-0.348175	0	0	0	0
11.17033	-0.06029525	-0.348175	0	0	0	0
11.1869	-0.06029525	-0.348175	0	0	0	0
11.20359	-0.06029525	-0.348175	0	0	0	0
11.22003	-0.06029525	-0.348175	0	0	0	0
11.2366	-0.06029525	-0.348175	0	0	0	0
11.25318	-0.06029525	-0.348175	0	0	0	0
11.27788	-0.06029525	-0.348175	0	0	0	0
11.29445	-0.06029525	-0.348175	0	0	0	0
11.31101	-0.06032147	-0.348197	-0.00158274	-0.001325921	-0.04776718	-0.04001638
11.32758	-0.06032147	-0.348197	0	0	0.04776718	0.04001638
11.34415	-0.06032147	-0.348197	0	0	0	0
11.36072	-0.06032147	-0.348197	0	0	0	0
11.37728	-0.06032147	-0.348197	0	0	0	0
11.39385	-0.06032147	-0.348197	0	0	0	0
11.41042	-0.06032147	-0.348197	0	0	0	0
11.42698	-0.06032147	-0.348197	0	0	0	0
11.44355	-0.06032147	-0.348197	0	0	0	0
11.46042	-0.06032147	-0.348197	0	0	0	0
11.47668	-0.06032147	-0.348197	0	0	0	0
11.49399	-0.06032147	-0.348197	0	0	0	0
11.50982	-0.06032147	-0.348197	0	0	0	0
11.52639	-0.06032147	-0.348197	0	0	0	0
11.54295	-0.06032147	-0.348197	0	0	0	0
11.55973	-0.06032147	-0.348197	0	0	0	0
11.5761	-0.06032147	-0.348197	0	0	0	0
11.59275	-0.06032147	-0.348197	0	0	0	0
11.6093	-0.06032147	-0.348197	0	0	0	0
11.62588	-0.06032147	-0.348197	0	0	0	0
11.64235	-0.06032147	-0.348197	0	0	0	0
11.65892	-0.06032147	-0.348197	0	0	0	0
11.67575	-0.06032147	-0.348197	0	0	0	0
11.69205	-0.06032147	-0.348197	0	0	0	0
11.70875	-0.06032147	-0.348197	0	0	0	0
11.72518	-0.06032147	-0.348197	0	0	0	0
11.74176	-0.06032147	-0.348197	0	0	0	0
11.75831	-0.06032147	-0.348197	0	0	0	0
11.77488	-0.06032147	-0.348197	0	0	0	0
11.79145	-0.06032147	-0.348197	0	0	0	0
11.80802	-0.06032147	-0.348197	0	0	0	0
11.82458	-0.06032147	-0.348197	0	0	0	0
11.84115	-0.06032147	-0.348197	0	0	0	0
11.85771	-0.06032147	-0.348197	0	0	0	0
11.87432	-0.06032147	-0.348197	0	0	0	0
11.8916	-0.06032147	-0.348197	0	0	0	0
11.90768	-0.06032147	-0.348197	0	0	0	0
11.92398	-0.06032147	-0.348197	0	0	0	0
11.94055	-0.06032147	-0.348197	0	0	0	0
11.95712	-0.06032147	-0.348197	0	0	0	0
11.97368	-0.06032147	-0.348197	0	0	0	0
11.99025	-0.06032147	-0.348197	0	0	0	0
12.00681	-0.06032147	-0.348197	0	0	0	0
12.04885	-0.06032147	-0.348197	0	0	0	0
12.06545	-0.06032147	-0.348197	0	0	0	0
12.08199	-0.06032147	-0.348197	0	0	0	0
12.09856	-0.06032147	-0.348197	0	0	0	0
12.1154	-0.06032147	-0.348197	0	0	0	0
12.13169	-0.06032147	-0.348197	0	0	0	0
12.14826	-0.06032147	-0.348197	0	0	0	0
12.16482	-0.06032147	-0.348197	0	0	0	0
12.18139	-0.06032147	-0.348197	0	0	0	0
12.19796	-0.06032147	-0.348197	0	0	0	0
12.21452	-0.06032147	-0.348197	0	0	0	0
12.23134	-0.06032147	-0.348197	0	0	0	0
12.24792	-0.06032147	-0.348197	0	0	0	0
12.26422	-0.06032147	-0.348197	0	0	0	0
12.281	-0.06032147	-0.348197	0	0	0	0
12.29736	-0.06032147	-0.348197	0	0	0	0
12.31392	-0.06032147	-0.348197	0	0	0	0
12.33369	-0.06032147	-0.348197	0	0	0	0
12.35077	-0.06032147	-0.348197	0	0	0	0
12.36683	-0.06032147	-0.348197	0	0	0	0
12.38387	-0.06032147	-0.348197	0	0	0	0
12.39996	-0.06032147	-0.348197	0	0	0	0
12.41652	-0.06032147	-0.348197	0	0	0	0
12.43309	-0.06032147	-0.348197	0	0	0	0
12.44966	-0.06032147	-0.348197	0	0	0	0
12.46623	-0.06032147	-0.348197	0	0	0	0
12.48279	-0.06032147	-0.348197	0	0	0	0
12.49936	-0.06032147	-0.348197	0	0	0	0
12.51592	-0.06032147	-0.348197	0	0	0	0
12.53309	-0.06032147	-0.348197	0	0	0	0
12.54906	-0.06032147	-0.348197	0	0	0	0
12.56575	-0.06032147	-0.348197	0	0	0	0
12.58219	-0.06032147	-0.348197	0	0	0	0
12.59883	-0.06032147	-0.348197	0	0	0	0
12.61552	-0.06032147	-0.348197	0	0	0	0
12.63189	-0.06032147	-0.348197	0	0	0	0
12.64869	-0.06032147	-0.348197	0	0	0	0
12.66502	-0.06032147	-0.348197	0	0	0	0
12.68159	-0.06032147	-0.348197	0	0	0	0
12.69816	-0.06032147	-0.348197	0	0	0	0
12.71957	-0.06032147	-0.348197	0	0	0	0
12.74166	-0.06032147	-0.348197	0	0	0	0
12.75881	-0.06032147	-0.348197	0	0	0	0
12.77533	-0.06032147	-0.348197	0	0	0	0
12.79136	-0.06032147	-0.348197	0	0	0	0
12.80801	-0.06032147	-0.348197	0	0	0	0
12.82521	-0.06032147	-0.348197	0	0	0	0
12.84123	-0.06032147	-0.348197	0	0	0	0
12.85763	-0.06032147	-0.348197	0	0	0	0
12.87431	-0.06032147	-0.348197	0	0	0	0
12.89088	-0.06032147	-0.348197	0	0	0	0
12.90745	-0.06032147	-0.348197	0	0	0	0
12.92402	-0.06032147	-0.348197	0	0	0	0
12.94061	-0.06032147	-0.348197	0	0	0	0
12.95807	-0.06032147	-0.348197	0	0	0	0
12.97372	-0.06032147	-0.348197	0	0	0	0
12.99028	-0.06032147	-0.348197	0	0	0	0
13.00685	-0.06032147	-0.348197	0	0	0	0
13.02391	-0.06032147	-0.348197	0	0	0	0
13.03999	-0.06032147	-0.348197	0	0	0	0
13.05655	-0.06032147	-0.348197	0	0	0	0
13.07312	-0.06032147	-0.348197	0	0	0	0
13.08969	-0.06032147	-0.348197	0	0	0	0
13.10625	-0.06032147	-0.348197	0	0	0	0
13.12282	-0.06032147	-0.348197	0	0	0	0
13.13974	-0.06032147	-0.348197	0	0	0	0
13.15595	-0.06032147	-0.348197	0	0	0	0
13.17252	-0.06032147	-0.348197	0	0	0	0
13.18909	-0.06032147	-0.348197	0	0	0	0
13.20565	-0.06032147	-0.348197	0	0	0	0
13.22222	-0.06032147	-0.348197	0	0	0	0
13.23879	-0.06032147	-0.348197	0	0	0	0
13.25535	-0.06032147	-0.348197	0	0	0	0
13.27192	-0.06032147	-0.348197	0	0	0	0
13.28848	-0.06032147	-0.348197	0	0	0	0
13.30539	-0.06032147	-0.348197	0	0	0	0
13.32162	-0.06032147	-0.348197	0	0	0	0
13.33819	-0.06032147	-0.348197	0	0	0	0
13.35475	-0.06032147	-0.348197	0	0	0	0
13.37398	-0.06032147	-0.348197	0	0	0	0
13.39055	-0.06032147	-0.348197	0	0	0	0
13.40712	-0.06032147	-0.348197	0	0	0	0
13.42368	-0.06032147	-0.348197	0	0	0	0
13.44056	-0.06032147	-0.348197	0	0	0	0
13.45682	-0.06032147	-0.348197	0	0	0	0
13.47366	-0.06032147	-0.348197	0	0	0	0
13.48995	-0.06032147	-0.348197	0	0	0	0
13.50652	-0.06032147	-0.348197	0	0	0	0
13.52308	-0.06032147	-0.348197	0	0	0	0
13.54024	-0.06032147	-0.348197	0	0	0	0
13.55622	-0.06032147	-0.348197	0	0	0	0
13.57321	-0.06032147	-0.348197	0	0	0	0
13.58935	-0.06032147	-0.348197	0	0	0	0
13.60615	-0.06032147	-0.348197	0	0	0	0
13.62248	-0.06134399	-0.34734	-0.0626136	0.05247569	-1.889737	1.583765
13.63919	-0.06134399	-0.34734	0	0	1.895246	-1.588383
13.65562	-0.06134399	-0.34734	0	0	0	0
13.67218	-0.07826088	-0.333208	-1.021106	0.8530088	-30.94887	25.85399
13.6891	-0.07826088	-0.333208	0	0	30.49665	-25.47622
13.70532	-0.07826088	-0.333208	0	0	0	0
13.72188	-0.1192214	-0.2992925	-2.47295	2.047615	-75.43713	62.46231
13.73879	-0.1192214	-0.2992925	0	0	73.8726	-61.16687
13.75502	-0.1192214	-0.2992925	0	0	0	0
13.77158	-0.1552922	-0.2696777	-2.177361	1.787654	-66.40478	54.51956
13.78815	-0.1552922	-0.2696777	0	0	65.71479	-53.95307
13.80472	-0.1552922	-0.2696777	0	0	0	0
13.82128	-0.1867458	-0.2439595	-1.898436	1.552265	-57.29492	46.84745
13.83785	-0.1867458	-0.2439595	0	0	57.29162	-46.84476
13.85464	-0.1867458	-0.2439595	0	0	0	0
13.87108	-0.215772	-0.2202514	-1.765033	1.441645	-53.11594	43.38405
13.88767	-0.215772	-0.2202514	0	0	53.4272	-43.63829
13.9042	-0.215772	-0.2202514	0	0	0	0
13.92068	-0.2358933	-0.2038022	-1.220917	0.9981067	-36.98788	30.2378
13.93757	-0.2358933	-0.2038022	0	0	36.58516	-29.90857
13.95385	-0.2358933	-0.2038022	0	0	0	0
13.97051	-0.2481464	-0.1937705	-0.7352817	0.6019774	-22.32062	18.27396
13.98751	-0.2481464	-0.1937705	0	0	21.84194	-17.88207
14.00352	-0.2481464	-0.1937705	0	0	0	0
14.02008	-0.2589228	-0.1849349	-0.650463	0.5333232	-19.9713	16.37473
14.03665	-0.2589228	-0.1849349	0	0	19.63158	-16.09619
14.05322	-0.2589228	-0.1849349	0	0	0	0
14.07379	-0.2758615	-0.171015	-0.8232092	0.6764938	-22.16282	18.21288
14.09036	-0.2758615	-0.171015	0	0	22.16168	-18.21194
14.10693	-0.2829612	-0.165167	-0.428538	0.3529881	-12.93256	10.65259
14.1235	-0.2829612	-0.165167	0	0	12.93405	-10.65382
14.14007	-0.2829612	-0.165167	0	0	0	0
14.15663	-0.2968801	-0.1536745	-0.8408208	0.6942458	-25.37749	20.95359
14.17319	-0.2968801	-0.1536745	0	0	25.38625	-20.96083
14.18989	-0.2968801	-0.1536745	0	0	0	0
14.20651	-0.307051	-0.145211	-0.611769	0.5090696	-18.36281	15.28019
14.22289	-0.307051	-0.145211	0	0	18.5331	-15.4219
14.23946	-0.307051	-0.145211	0	0	0	0
14.25603	-0.3072183	-0.1450722	-0.01010363	0.008380109	-0.3049456	0.2529268
14.2726	-0.3072183	-0.1450722	0	0	0.3049281	-0.2529122
14.28916	-0.3072183	-0.1450722	0	0	0	0
14.30573	-0.3072183	-0.1450722	0	0	0	0
14.3223	-0.3072183	-0.1450722	0	0	0	0
14.33924	-0.3072183	-0.1450722	0	0	0	0
14.35543	-0.3071944	-0.145092	0.001476175	-0.001224931	0.0445549	-0.03697168
14.372	-0.3071944	-0.145092	0	0	-0.04505944	0.03739034
14.38856	-0.3071944	-0.145092	0	0	0	0
14.40513	-0.3071705	-0.1451119	0.001442944	-0.001197356	0.04355191	-0.0361394
14.4217	-0.3071705	-0.1451119	0	0	-0.04354814	0.03613627
14.43878	-0.3071705	-0.1451119	0	0	0	0
14.45483	-0.3071705	-0.1451119	0	0	0	0
14.4714	-0.3071705	-0.1451119	0	0	0	0
14.48796	-0.3071705	-0.1451119	0	0	0	0
14.50453	-0.3071227	-0.1451515	0.002887688	-0.002393812	0.08715812	-0.07225163
14.52141	-0.3071227	-0.1451515	0	0	-0.08635278	0.07158403
14.53766	-0.3071227	-0.1451515	0	0	0	0
14.555	-0.3071227	-0.1451515	0	0	0	0
14.5708	-0.3071227	-0.1451515	0	0	0	0
14.58736	-0.3071227	-0.1451515	0	0	0	0
14.60393	-0.3071227	-0.1451515	0	0	0	0
14.6205	-0.3071227	-0.1451515	0	0	0	0
14.6377	-0.3071227	-0.1451515	0	0	0	0
14.65392	-0.307051	-0.145211	0.004421511	-0.003667448	0.1322727	-0.1097144
14.6702	-0.307051	-0.145211	0	0	-0.1360614	0.1128569
14.68676	-0.307051	-0.145211	0	0	0	0
14.70337	-0.3067401	-0.1454688	0.01872308	-0.01552897	0.5644624	-0.4681667
14.7199	-0.3067401	-0.1454688	0	0	-0.5650961	0.4686922
14.73654	-0.3067401	-0.1454688	0	0	0	0
14.75303	-0.3065487	-0.1456275	0.01160869	-0.009625398	0.3503813	-0.2905202
14.7696	-0.3065487	-0.1456275	0	0	-0.3512103	0.2912075
14.78679	-0.3065487	-0.1456275	0	0	0	0
14.80273	-0.3052805	-0.146679	0.07959612	-0.06599592	2.402492	-1.99199
14.81975	-0.3052805	-0.146679	0	0	-2.415005	2.002365
14.83586	-0.3052805	-0.146679	0	0	0	0
14.85243	-0.297674	-0.152978	0.4591861	-0.3802497	14.05281	-11.63706
14.869	-0.297674	-0.152978	0	0	-13.85667	11.47464
14.88556	-0.297674	-0.152978	0	0	0	0
14.90213	-0.26582	-0.1792317	1.92304	-1.584952	58.0525	-47.84634
14.9187	-0.26582	-0.1792317	0	0	-58.03913	47.83532
14.93559	-0.26582	-0.1792317	0	0	0	0
14.9522	-0.2177548	-0.2185904	2.895388	-2.37092	86.43514	-70.77837
14.96876	-0.2177548	-0.2185904	0	0	-87.30759	71.49278
14.98497	-0.2177548	-0.2185904	0	0	0	0
15.00194	-0.1712022	-0.2566194	2.74251	-2.240365	82.65018	-67.51717
15.0181	-0.1712022	-0.2566194	0	0	-82.77388	67.61823
15.03466	-0.1712022	-0.2566194	0	0	0	0
15.05133	-0.1457486	-0.2774545	1.527591	-1.25041	45.97178	-37.63021
15.06817	-0.1457486	-0.2774545	0	0	-45.59751	37.32385
15.08436	-0.1457486	-0.2774545	0	0	0	0
15.10166	-0.1266086	-0.2931696	1.106319	-0.9083551	33.02567	-27.11608
15.11751	-0.1266086	-0.2931696	0	0	-33.38109	27.4079
15.13417	-0.1266086	-0.2931696	0	0	0	0
15.15063	-0.1106514	-0.3063156	0.969539	-0.7987382	29.26917	-24.11291
15.1672	-0.1106514	-0.3063156	0	0	-29.35792	24.18602
15.18376	-0.1106514	-0.3063156	0	0	0	0
15.20057	-0.09594138	-0.3184785	0.8750563	-0.7235332	26.21758	-21.6778
15.2169	-0.09594138	-0.3184785	0	0	-26.41077	21.83753
15.23373	-0.09594138	-0.3184785	0	0	0	0
15.25572	-0.08166011	-0.3303347	0.6494492	-0.5391675	16.72841	-13.88779
15.27229	-0.08166011	-0.3303347	0	0	-16.84302	13.98294
15.28885	-0.07517386	-0.335737	0.391533	-0.326102	11.81615	-9.841496
15.30571	-0.07517386	-0.335737	0	0	-11.71567	9.757806
15.32199	-0.07517386	-0.335737	0	0	0	0
15.33856	-0.07376067	-0.3369156	0.08530025	-0.07113818	2.596864	-2.165717
15.35512	-0.07376067	-0.3369156	0	0	-2.574441	2.147016
15.37169	-0.07376067	-0.3369156	0	0	0	0
15.38825	-0.07376067	-0.3369156	0	0	0	0
15.40482	-0.07376067	-0.3369156	0	0	0	0
15.42139	-0.07376067	-0.3369156	0	0	0	0
15.43805	-0.07373451	-0.3369374	0.001570819	-0.001311401	0.04727815	-0.03947025
15.45457	-0.07373451	-0.3369374	0	0	-0.04733249	0.03951562
15.4714	-0.07373451	-0.3369374	0	0	0	0
15.48765	-0.07373451	-0.3369374	0	0	0	0
15.50422	-0.07373451	-0.3369374	0	0	0	0
15.52079	-0.07373451	-0.3369374	0	0	0	0
15.53819	-0.07376067	-0.3369156	-0.001503919	0.00125555	-0.04427835	0.03696587
15.55476	-0.07376067	-0.3369156	0	0	0.04427462	-0.03696275
15.57165	-0.07376067	-0.3369156	0	0	0	0
15.58789	-0.07376067	-0.3369156	0	0	0	0
15.6049	-0.07376067	-0.3369156	0	0	0	0
15.62142	-0.07376067	-0.3369156	0	0	0	0
15.63759	-0.07378685	-0.3368937	-0.001619002	0.001351242	-0.04952293	0.04133255
15.65416	-0.07378685	-0.3368937	0	0	0.04946089	-0.04128077
15.67072	-0.07378685	-0.3368937	0	0	0	0
15.6873	-0.07378685	-0.3368937	0	0	0	0
15.70386	-0.07378685	-0.3368937	0	0	0	0
15.72042	-0.07378685	-0.3368937	0	0	0	0
15.73699	-0.07378685	-0.3368937	0	0	0	0
15.75368	-0.07378685	-0.3368937	0	0	0	0
15.77012	-0.07378685	-0.3368937	0	0	0	0
15.78687	-0.07378685	-0.3368937	0	0	0	0
15.80326	-0.07378685	-0.3368937	0	0	0	0
15.81982	-0.07378685	-0.3368937	0	0	0	0
15.83661	-0.07378685	-0.3368937	0	0	0	0
15.85321	-0.07378685	-0.3368937	0	0	0	0
15.86952	-0.07378685	-0.3368937	0	0	0	0
15.88609	-0.07386537	-0.3368282	-0.004739577	0.003952121	-0.1441401	0.120192
15.90266	-0.07386537	-0.3368282	0	0	0.1430448	-0.1192787
15.91922	-0.07386537	-0.3368282	0	0	0	0
15.93594	-0.07386537	-0.3368282	0	0	0	0
15.95236	-0.07386537	-0.3368282	0	0	0	0
15.96892	-0.07386537	-0.3368282	0	0	0	0
15.98549	-0.07389154	-0.3368064	-0.00157995	0.001318649	-0.04768436	0.03979805
16.0023	-0.07389154	-0.3368064	0	0	0.04733557	-0.03950695
16.01888	-0.07389154	-0.3368064	0	0	0	0
16.03519	-0.07391771	-0.3367846	-0.00160472	0.001337876	-0.04879287	0.04067924
16.0521	-0.07391771	-0.3367846	0	0	0.04831651	-0.0402821
16.06833	-0.07391771	-0.3367846	0	0	0	0
16.0876	-0.07394388	-0.3367627	-0.001357603	0.001133075	-0.0382346	0.03191114
16.10418	-0.07394388	-0.3367627	0	0	0.03786844	-0.03160555
16.12074	-0.07394388	-0.3367627	0	0	0	0
16.13731	-0.07397006	-0.3367409	-0.001580041	0.001316926	-0.04768848	0.03974719
16.15404	-0.07397006	-0.3367409	0	0	0.04745898	-0.03955591
16.17048	-0.07397006	-0.3367409	0	0	0	0
16.18705	-0.07399623	-0.3367191	-0.001580223	0.001318877	-0.04787034	0.03995327
16.20377	-0.07399623	-0.3367191	0	0	0.04746989	-0.03961904
16.22014	-0.07399623	-0.3367191	0	0	0	0
16.23671	-0.07399623	-0.3367191	0	0	0	0
16.25346	-0.07399623	-0.3367191	0	0	0	0
16.26984	-0.07399623	-0.3367191	0	0	0	0
16.28641	-0.07399623	-0.3367191	0	0	0	0
16.30298	-0.07399623	-0.3367191	0	0	0	0
16.31959	-0.07399623	-0.3367191	0	0	0	0
16.33614	-0.07399623	-0.3367191	0	0	0	0
16.35268	-0.07399623	-0.3367191	0	0	0	0
16.37001	-0.07399623	-0.3367191	0	0	0	0
16.38581	-0.0740224	-0.3366973	-0.001655854	0.001380507	-0.04997377	0.04166378
16.40256	-0.0740224	-0.3366973	0	0	0.05086982	-0.04241083
16.41979	-0.0740224	-0.3366973	0	0	0	0
16.43551	-0.0740224	-0.3366973	0	0	0	0
16.45208	-0.0740224	-0.3366973	0	0	0	0
16.46888	-0.0740224	-0.3366973	0	0	0	0
16.48521	-0.07404857	-0.3366754	-0.001602552	0.001337513	-0.0483707	0.04037087
16.50178	-0.07404857	-0.3366754	0	0	0.04870719	-0.04065171
16.51872	-0.07404857	-0.3366754	0	0	0	0
16.53491	-0.07407475	-0.3366973	-0.001616713	-0.001349331	-0.0487981	-0.04072759
16.55148	-0.07407475	-0.3366973	0	0	0.04934927	0.0411876
16.56848	-0.07407475	-0.3366973	0	0	0	0
16.58497	-0.07407475	-0.3366973	0	0	0	0
16.6012	-0.07407475	-0.3366973	0	0	0	0
16.61775	-0.07407475	-0.3366973	0	0	0	0
16.63431	-0.07407475	-0.3366973	0	0	0	0
16.65088	-0.07407475	-0.3366973	0	0	0	0
16.66745	-0.07407475	-0.3366973	0	0	0	0
16.68401	-0.07407475	-0.3366973	0	0	0	0
16.70058	-0.07407475	-0.3366973	0	0	0	0
16.71725	-0.07407475	-0.3366973	0	0	0	0
16.73371	-0.07410092	-0.3366754	-0.001590295	0.001327283	-0.04799797	0.04005979
16.75032	-0.07410092	-0.3366754	0	0	0.04809487	-0.04014066
16.76685	-0.07410092	-0.3366754	0	0	0	0
16.78341	-0.07410092	-0.3366754	0	0	0	0
16.79998	-0.07410092	-0.3366754	0	0	0	0
16.81696	-0.07410092	-0.3366754	0	0	0	0
16.83751	-0.07410092	-0.3366754	0	0	0	0
16.85409	-0.07410092	-0.3366754	0	0	0	0
16.87631	-0.07410092	-0.3366754	0	0	0	0
16.89288	-0.07410092	-0.3366754	0	0	0	0
16.90968	-0.07410092	-0.3366754	0	0	0	0
16.92601	-0.07410092	-0.3366754	0	0	0	0
16.94258	-0.07410092	-0.3366754	0	0	0	0
16.95914	-0.07410092	-0.3366754	0	0	0	0
16.97571	-0.07410092	-0.3366754	0	0	0	0
16.99263	-0.07410092	-0.3366754	0	0	0	0
17.00929	-0.07410092	-0.3366754	0	0	0	0
17.02548	-0.07410092	-0.3366754	0	0	0	0
17.04198	-0.07410092	-0.3366754	0	0	0	0
17.05854	-0.07410092	-0.3366754	0	0	0	0
17.07511	-0.07410092	-0.3366754	0	0	0	0
17.09168	-0.07410092	-0.3366754	0	0	0	0
17.10824	-0.07410092	-0.3366754	0	0	0	0
17.12482	-0.07410092	-0.3366754	0	0	0	0
17.14191	-0.07410092	-0.3366754	0	0	0	0
17.15794	-0.07410092	-0.3366754	0	0	0	0
17.17451	-0.07410092	-0.3366754	0	0	0	0
17.19146	-0.07410092	-0.3366754	0	0	0	0
17.20765	-0.07410092	-0.3366754	0	0	0	0
17.22421	-0.07410092	-0.3366754	0	0	0	0
17.24078	-0.07410092	-0.3366754	0	0	0	0
17.25748	-0.07410092	-0.3366754	0	0	0	0
17.27391	-0.07410092	-0.3366754	0	0	0	0
17.29048	-0.07410092	-0.3366754	0	0	0	0
17.30705	-0.07410092	-0.3366754	0	0	0	0
17.32362	-0.07410092	-0.3366754	0	0	0	0
17.34018	-0.07410092	-0.3366754	0	0	0	0
17.35674	-0.07410092	-0.3366754	0	0	0	0
17.37331	-0.07410092	-0.3366754	0	0	0	0
17.39055	-0.07410092	-0.3366754	0	0	0	0
17.41042	-0.07410092	-0.3366754	0	0	0	0
17.42727	-0.07410092	-0.3366754	0	0	0	0
17.44377	-0.07410092	-0.3366754	0	0	0	0
17.46039	-0.07410092	-0.3366754	0	0	0	0
17.51547	-0.07410092	-0.3366754	0	0	0	0
17.53204	-0.07410092	-0.3366754	0	0	0	0
17.55139	-0.07410092	-0.3366754	0	0	0	0
17.56796	-0.07410092	-0.3366754	0	0	0	0
17.58453	-0.07410092	-0.3366754	0	0	0	0
17.60125	-0.07410092	-0.3366754	0	0	0	0
17.6178	-0.07410092	-0.3366754	0	0	0	0
17.63444	-0.07410092	-0.3366754	0	0	0	0
17.65098	-0.07410092	-0.3366754	0	0	0	0
17.66736	-0.07410092	-0.3366754	0	0	0	0
17.68393	-0.07410092	-0.3366754	0	0	0	0
17.70049	-0.07410092	-0.3366754	0	0	0	0
17.71706	-0.07410092	-0.3366754	0	0	0	0
17.73363	-0.07410092	-0.3366754	0	0	0	0
17.75019	-0.07410092	-0.3366754	0	0	0	0
17.76695	-0.07410092	-0.3366754	0	0	0	0
17.78333	-0.07410092	-0.3366754	0	0	0	0
17.79989	-0.07410092	-0.3366754	0	0	0	0
17.81694	-0.07410092	-0.3366754	0	0	0	0
17.83337	-0.07410092	-0.3366754	0	0	0	0
17.84963	-0.07410092	-0.3366754	0	0	0	0
17.86616	-0.07410092	-0.3366754	0	0	0	0
17.88278	-0.07410092	-0.3366754	0	0	0	0
17.89929	-0.07410092	-0.3366754	0	0	0	0
17.91586	-0.07410092	-0.3366754	0	0	0	0
17.93243	-0.07410092	-0.3366754	0	0	0	0
17.949	-0.07410092	-0.3366754	0	0	0	0
17.96556	-0.07410092	-0.3366754	0	0	0	0
17.98304	-0.07410092	-0.3366754	0	0	0	0
17.9987	-0.07410092	-0.3366754	0	0	0	0
18.01526	-0.07410092	-0.3366754	0	0	0	0
18.03213	-0.07410092	-0.3366754	0	0	0	0
18.04839	-0.07410092	-0.3366754	0	0	0	0
18.06496	-0.07410092	-0.3366754	0	0	0	0
18.08164	-0.07410092	-0.3366754	0	0	0	0
18.0981	-0.07410092	-0.3366754	0	0	0	0
18.11466	-0.07410092	-0.3366754	0	0	0	0
18.13133	-0.07410092	-0.3366754	0	0	0	0
18.14779	-0.07410092	-0.3366754	0	0	0	0
18.16436	-0.07410092	-0.3366754	0	0	0	0
18.18093	-0.07410092	-0.3366754	0	0	0	0
18.1975	-0.07410092	-0.3366754	0	0	0	0
18.21407	-0.07410092	-0.3366754	0	0	0	0
18.23077	-0.07410092	-0.3366754	0	0	0	0
18.2472	-0.07410092	-0.3366754	0	0	0	0
18.26396	-0.07410092	-0.3366754	0	0	0	0
18.28033	-0.07410092	-0.3366754	0	0	0	0
18.29821	-0.07410092	-0.3366754	0	0	0	0
18.31479	-0.07410092	-0.3366754	0	0	0	0
18.33135	-0.07410092	-0.3366754	0	0	0	0
18.34792	-0.07410092	-0.3366754	0	0	0	0
18.36448	-0.07410092	-0.3366754	0	0	0	0
18.38109	-0.07410092	-0.3366754	0	0	0	0
18.39762	-0.07410092	-0.3366754	0	0	0	0
18.41418	-0.07410092	-0.3366754	0	0	0	0
18.43075	-0.07410092	-0.3366754	0	0	0	0
18.44732	-0.07410092	-0.3366754	0	0	0	0
18.46388	-0.07410092	-0.3366754	0	0	0	0
18.48091	-0.07410092	-0.3366754	0	0	0	0
18.49701	-0.07410092	-0.3366754	0	0	0	0
18.51358	-0.07410092	-0.3366754	0	0	0	0
18.53063	-0.07410092	-0.3366754	0	0	0	0
18.54719	-0.07410092	-0.3366754	0	0	0	0
18.56328	-0.07410092	-0.3366754	0	0	0	0
18.57985	-0.07410092	-0.3366754	0	0	0	0
18.59642	-0.07410092	-0.3366754	0	0	0	0
18.61298	-0.07410092	-0.3366754	0	0	0	0
18.62977	-0.07410092	-0.3366754	0	0	0	0
18.64612	-0.07410092	-0.3366754	0	0	0	0
18.66269	-0.07410092	-0.3366754	0	0	0	0
18.67925	-0.07410092	-0.3366754	0	0	0	0
18.69582	-0.07412709	-0.3366536	-0.001579591	0.001316926	-0.04768314	0.03975405
18.71303	-0.07412709	-0.3366536	0	0	0.04675968	-0.03898415
18.72895	-0.07412709	-0.3366536	0	0	0	0
18.74557	-0.07415326	-0.3366317	-0.001575506	0.00131494	-0.04842697	0.04041784
18.76209	-0.07415326	-0.3366317	0	0	0.04754886	-0.03968496
18.77865	-0.07415326	-0.3366317	0	0	0	0
18.79695	-0.07425794	-0.3365444	-0.005722921	0.004773853	-0.1641748	0.1369487
18.81351	-0.07425794	-0.3365444	0	0	0.1641658	-0.1369412
18.83025	-0.07425794	-0.3365444	0	0	0	0
18.84665	-0.07428411	-0.3365226	-0.001595658	0.001329942	-0.04815704	0.04013773
18.86322	-0.07428411	-0.3365226	0	0	0.04839383	-0.04033508
18.87979	-0.07428411	-0.3365226	0	0	0	0
18.89635	-0.07428411	-0.3365226	0	0	0	0
18.91292	-0.07428411	-0.3365226	0	0	0	0
18.92951	-0.07428411	-0.3365226	0	0	0	0
18.94652	-0.07423177	-0.3365663	0.003078116	-0.002567653	0.09161101	-0.07641857
18.96262	-0.07423177	-0.3365663	0	0	-0.09298873	0.07756782
18.97918	-0.07423177	-0.3365663	0	0	0	0
18.99575	-0.07423177	-0.3365663	0	0	0	0
19.01232	-0.07423177	-0.3365663	0	0	0	0
19.02888	-0.07423177	-0.3365663	0	0	0	0
19.04571	-0.0742056	-0.3365881	0.00155568	-0.001296622	0.04659114	-0.03883259
19.06201	-0.0742056	-0.3365881	0	0	-0.04695323	0.03913438
19.07873	-0.0742056	-0.3365881	0	0	0	0
19.09575	-0.07423177	-0.3366099	-0.001537897	-0.001283551	-0.04558721	-0.03804774
19.11172	-0.07423177	-0.3366099	0	0	0.04662047	0.03891011
19.12831	-0.07423177	-0.3366099	0	0	0	0
19.14485	-0.07423177	-0.3366099	0	0	0	0
19.16142	-0.07423177	-0.3366099	0	0	0	0
19.17811	-0.07423177	-0.3366099	0	0	0	0
19.19455	-0.07423177	-0.3366099	0	0	0	0
19.21119	-0.07423177	-0.3366099	0	0	0	0
19.22772	-0.07423177	-0.3366099	0	0	0	0
19.24428	-0.07423177	-0.3366536	0	-0.002636561	0	-0.07968625
19.26083	-0.07423177	-0.3366536	0	0	0	0.07963116
19.27738	-0.07423177	-0.3366536	0	0	0	0
19.29395	-0.07425794	-0.3366317	-0.001579409	0.001318573	-0.04768863	0.03981295
19.31052	-0.07425794	-0.3366317	0	0	0.04766667	-0.03979461
19.32708	-0.07425794	-0.3366317	0	0	0	0
19.34365	-0.07425794	-0.3366317	0	0	0	0
19.36048	-0.07425794	-0.3366317	0	0	0	0
19.37678	-0.07425794	-0.3366317	0	0	0	0
19.39335	-0.07423177	-0.3366536	0.001579591	-0.001318725	0.04805389	-0.04011788
19.41012	-0.07423177	-0.3366536	0	0	-0.04737762	0.0395533
19.42657	-0.07423177	-0.3366536	0	0	0	0
19.44305	-0.0742056	-0.3366754	0.001588087	-0.001323631	0.04823676	-0.04020417
19.45961	-0.0742056	-0.3366754	0	0	-0.04805302	0.04005102
19.47618	-0.0742056	-0.3366754	0	0	0	0
19.49275	-0.07415326	-0.3367191	0.003159269	-0.002635347	0.09534142	-0.07953036
19.50932	-0.07415326	-0.3367191	0	0	-0.0953524	0.07953952
19.52634	-0.07415326	-0.3367191	0	0	0	0
19.54245	-0.07399623	-0.33685	0.009747588	-0.008130698	0.2941828	-0.2453849
19.55902	-0.07399623	-0.33685	0	0	-0.2983214	0.248837
19.57558	-0.07399623	-0.33685	0	0	0	0
19.59224	-0.07297544	-0.3377017	0.06129739	-0.05114141	1.845179	-1.539463
19.60878	-0.07297544	-0.3377017	0	0	-1.846663	1.540701
19.62528	-0.07297544	-0.3377017	0	0	0	0
19.64185	-0.04208041	-0.3636319	1.864828	-1.565148	56.38774	-47.32616
19.65841	-0.04208041	-0.3636319	0	0	-56.28062	47.23626
19.67499	-0.04208041	-0.3636319	0	0	0	0
19.69155	-0.004157871	-0.3959454	2.290591	-1.951795	69.13416	-58.90867
19.70811	-0.004157871	-0.3959454	0	0	-69.15406	58.92563
19.7251	-0.004157871	-0.3959454	0	0	0	0
19.74217	0.0121573	-0.4100459	0.9554167	-0.8257288	28.05295	-24.24506
19.75781	0.0121573	-0.4100459	0	0	-29.20268	25.23872
19.77438	0.0121573	-0.4100459	0	0	0	0
19.79105	0.0248107	-0.4210297	0.7591288	-0.6589605	22.84087	-19.82698
19.80759	0.0248107	-0.4210297	0	0	-22.85923	19.84292
19.8241	0.0248107	-0.4210297	0	0	0	0
19.84065	0.05386889	-0.4466585	1.755775	-1.548562	53.11169	-46.84356
19.85721	0.05386889	-0.4466585	0	0	-53.01686	46.75993
19.87378	0.05386889	-0.4466585	0	0	0	0
19.89062	0.08312381	-0.4727753	1.737624	-1.55123	52.01937	-46.43928
19.90762	0.08312381	-0.4727753	0	0	-51.34795	45.83987
19.92348	0.08312381	-0.4727753	0	0	0	0
19.94005	0.1150424	-0.4612527	1.926389	0.6954213	59.40025	21.44334
19.95662	0.1150424	-0.4612527	0	0	-58.13853	-20.98786
19.97325	0.1150424	-0.4612527	0	0	0	0
19.99006	0.1431458	-0.4357859	1.671878	1.515029	49.98835	45.29864
20.00658	0.1431458	-0.4357859	0	0	-50.16859	-45.46198
20.02366	0.1431458	-0.4357859	0	0	0	0
20.03945	0.1489929	-0.4305188	0.3704169	0.3336738	11.26937	10.15152
20.05602	0.1489929	-0.4305188	0	0	-11.44807	-10.3125
20.07279	0.1489929	-0.4305188	0	0	0	0
20.0896	0.1539819	-0.4260322	0.2967288	0.2668481	8.835766	7.946001
20.10571	0.1539819	-0.4260322	0	0	-9.011836	-8.104341
20.12228	0.1539819	-0.4260322	0	0	0	0
20.14163	0.1717132	-0.4101373	0.9166176	0.8216821	25.52431	22.88071
20.1582	0.1717132	-0.4101373	0	0	-25.5216	-22.87828
20.17476	0.1717132	-0.4101373	0	0	0	0
20.19133	0.1771751	-0.4051643	0.3297199	0.3002033	9.951538	9.060675
20.2079	0.1771751	-0.4051643	0	0	-9.951538	-9.060675
20.22447	0.1771751	-0.4051643	0	0	0	0
20.24103	0.1772261	-0.4051188	0.003078579	0.002751108	0.09291703	0.08303339
20.2576	0.1772261	-0.4051188	0	0	-0.09292238	-0.08303817
20.27416	0.1772261	-0.4051188	0	0	0	0
20.29073	0.1772516	-0.405096	0.001539289	0.001374655	0.04646119	0.04149193
20.30769	0.1772516	-0.405096	0	0	-0.0459088	-0.04099863
20.32399	0.1772516	-0.405096	0	0	0	0
20.34044	0.1772516	-0.405096	0	0	0	0
20.35707	0.1772516	-0.405096	0	0	0	0
20.37357	0.1772516	-0.405096	0	0	0	0
20.39064	0.1772771	-0.4051188	0.001493746	-0.001333203	0.0444948	-0.03971265
20.4067	0.1772771	-0.4051188	0	0	-0.04507874	0.04023383
20.42414	0.1772771	-0.4051188	0	0	0	0
20.44008	0.1772771	-0.4051188	0	0	0	0
20.45654	0.1772771	-0.4051188	0	0	0	0
20.47297	0.1772771	-0.4051188	0	0	0	0
20.48963	0.1772771	-0.4051188	0	0	0	0
20.5061	0.1772771	-0.4051188	0	0	0	0
20.52269	0.1772771	-0.4051188	0	0	0	0
20.54402	0.1772771	-0.4051188	0	0	0	0
20.56059	0.1772771	-0.4051188	0	0	0	0
20.57715	0.1772771	-0.4051188	0	0	0	0
20.59372	0.1772771	-0.4051188	0	0	0	0
20.61028	0.1772771	-0.4051188	0	0	0	0
20.62685	0.1772771	-0.4051188	0	0	0	0
20.64342	0.1772771	-0.4051188	0	0	0	0
20.65999	0.1772771	-0.4051188	0	0	0	0
20.67655	0.1772516	-0.4051416	-0.001540011	-0.001376295	-0.04648031	-0.04153907
20.69312	0.1772516	-0.4051416	0	0	0.04648031	0.04153907
20.70969	0.1772516	-0.4051416	0	0	0	0
20.72625	0.1772516	-0.4051416	0	0	0	0
20.74282	0.1772516	-0.4051416	0	0	0	0
20.75939	0.1772516	-0.4051416	0	0	0	0
20.77596	0.1772516	-0.4051416	0	0	0	0
20.79252	0.1772516	-0.4051416	0	0	0	0
20.80924	0.1772516	-0.4051416	0	0	0	0
20.82565	0.1772261	-0.4051643	-0.00155324	-0.001387114	-0.04687959	-0.04186558
20.84222	0.1772261	-0.4051643	0	0	0.04709104	0.04205441
20.85891	0.1772261	-0.4051643	0	0	0	0
20.87536	0.1772261	-0.4051643	0	0	0	0
20.89192	0.1772261	-0.4051643	0	0	0	0
20.90849	0.1772261	-0.4051643	0	0	0	0
20.92552	0.1772006	-0.4051416	-0.001496886	0.001336786	-0.04455036	0.03978547
20.94162	0.1772006	-0.4051416	0	0	0.0451813	-0.04034893
20.9584	0.1772006	-0.4051416	0	0	0	0
20.97475	0.1772006	-0.4051416	0	0	0	0
20.99139	0.1772006	-0.4051416	0	0	0	0
21.00827	0.1772006	-0.4051416	0	0	0	0
21.02504	0.1771751	-0.4051643	-0.001520208	-0.001357614	-0.04518036	-0.0403481
21.04102	0.1771751	-0.4051643	0	0	0.04641162	0.04144767
21.05808	0.1771751	-0.4051643	0	0	0	0
21.07415	0.1771497	-0.4051416	-0.001586233	0.001416578	-0.04787813	0.04275732
21.09072	0.1771497	-0.4051416	0	0	0.04859431	-0.04339691
21.10728	0.1771497	-0.4051416	0	0	0	0
21.12385	0.1771497	-0.4051416	0	0	0	0
21.14042	0.1771497	-0.4051416	0	0	0	0
21.15699	0.1771497	-0.4051416	0	0	0	0
21.17355	0.1771497	-0.4051416	0	0	0	0
21.19012	0.1771497	-0.4051416	0	0	0	0
21.20669	0.1771497	-0.4051416	0	0	0	0
21.22339	0.1771242	-0.4051643	-0.001526632	-0.001363351	-0.04588893	-0.04098088
21.23982	0.1771242	-0.4051643	0	0	0.04607649	0.04114838
21.25665	0.1771242	-0.4051643	0	0	0	0
21.2732	0.1770986	-0.4051871	-0.001542142	-0.001376398	-0.04620681	-0.04124065
21.28952	0.1770986	-0.4051871	0	0	0.04691463	0.0418724
21.30609	0.1770986	-0.4051871	0	0	0	0
21.32265	0.1770732	-0.4052099	-0.001539112	-0.001374496	-0.04645584	-0.04148716
21.33928	0.1770732	-0.4052099	0	0	0.04637574	0.04141563
21.35579	0.1770732	-0.4052099	0	0	0	0
21.37256	0.1769967	-0.4051871	-0.004561142	0.001357768	-0.1370481	0.0407967
21.38917	0.1769967	-0.4051871	0	0	0.1366331	-0.04067316
21.40571	0.1769967	-0.4051871	0	0	0	0
21.42205	0.1769967	-0.4051871	0	0	0	0
21.43864	0.1769967	-0.4051871	0	0	0	0
21.45581	0.1769967	-0.4051871	0	0	0	0
21.47779	0.1768946	-0.4051871	-0.004641532	0	-0.1185569	0
21.49436	0.1768946	-0.4051871	0	0	0.1204107	0
21.51093	0.1768437	-0.4051416	-0.00307787	0.002748676	-0.09288494	0.08295044
21.5275	0.1768437	-0.4051416	0	0	0.09289028	-0.08295521
21.54406	0.1768437	-0.4051416	0	0	0	0
21.56147	0.1767161	-0.4050277	-0.007327002	0.006543525	-0.2156911	0.1926273
21.57726	0.1767161	-0.4050277	0	0	0.2207481	-0.1971435
21.59376	0.1767161	-0.4050277	0	0	0	0
21.61033	0.1743179	-0.4028885	-0.1447597	0.1291194	-4.376667	3.903798
21.6269	0.1743179	-0.4028885	0	0	4.368856	-3.896832
21.64356	0.1743179	-0.4028885	0	0	0	0
21.66003	0.1620404	-0.3920111	-0.7454473	0.6604408	-22.50023	19.93444
21.6766	0.1620404	-0.3920111	0	0	22.56258	-19.98968
21.69316	0.1620404	-0.3920111	0	0	0	0
21.70973	0.1386572	-0.3716159	-1.411415	1.231058	-42.5966	37.1534
21.72663	0.1386572	-0.3716159	0	0	42.17659	-36.78706
21.74286	0.1386572	-0.3716159	0	0	0	0
21.75995	0.107531	-0.3450569	-1.821529	1.554254	-54.66233	46.64168
21.77662	0.107531	-0.3450569	0	0	53.96426	-46.04604
21.79309	0.107531	-0.3450569	0	0	0	0
21.81051	0.08030064	-0.3223061	-1.56284	1.305742	-46.11021	38.52475
21.82622	0.08030064	-0.3223061	0	0	47.16661	-39.40737
21.84279	0.08030064	-0.3223061	0	0	0	0
21.85936	0.05667608	-0.3028863	-1.425981	1.172184	-43.03867	35.37863
21.87604	0.05667608	-0.3028863	0	0	42.88807	-35.25483
21.89249	0.05667608	-0.3028863	0	0	0	0
21.90906	0.04005751	-0.2893823	-1.003214	0.8151932	-30.38376	24.68927
21.92595	0.04005751	-0.2893823	0	0	29.98537	-24.36555
21.94253	0.04005751	-0.2893823	0	0	0	0
21.95916	0.03035909	-0.281556	-0.5833826	0.4707757	-17.56708	14.17621
21.97532	0.03035909	-0.281556	0	0	17.79086	-14.3568
21.99189	0.03035909	-0.281556	0	0	0	0
22.00866	0.02822934	-0.2798424	-0.127031	0.1022078	-3.810988	3.06628
22.02508	0.02822934	-0.2798424	0	0	3.827194	-3.079319
22.04163	0.02822934	-0.2798424	0	0	0	0
22.05815	0.02817675	-0.2798001	-0.003183129	0.002559672	-0.09624987	0.07739807
22.07501	0.02817675	-0.2798001	0	0	0.09537527	-0.07669477
22.09129	0.02817675	-0.2798001	0	0	0	0
22.10816	0.02047082	-0.2736148	-0.4567693	0.3666355	-13.77819	11.05935
22.12442	0.02047082	-0.2736148	0	0	13.78612	-11.06572
22.14113	0.02047082	-0.2736148	0	0	0	0
22.15755	-0.003868402	-0.2542186	-1.482603	1.181502	-44.7502	35.66191
22.17412	-0.003868402	-0.2542186	0	0	44.94946	-35.8207
22.19069	-0.003868402	-0.2542186	0	0	0	0
22.20725	-0.02615193	-0.2366256	-1.345191	1.062039	-40.59796	32.05241
22.22382	-0.02615193	-0.2366256	0	0	40.60029	-32.05426
22.24078	-0.02615193	-0.2366256	0	0	0	0
22.25695	-0.03898025	-0.226559	-0.793503	0.6226736	-23.95073	18.79449
22.27352	-0.03898025	-0.226559	0	0	24.23959	-19.02117
22.29027	-0.03898025	-0.226559	0	0	0	0
22.30665	-0.05268803	-0.2158455	-0.8369429	0.654121	-25.26044	19.74255
22.32322	-0.05268803	-0.2158455	0	0	25.40376	-19.85456
22.33979	-0.05268803	-0.2158455	0	0	0	0
22.35646	-0.05717446	-0.2123479	-0.269036	0.2097401	-8.092968	6.309268
22.37292	-0.05717446	-0.2123479	0	0	8.119989	-6.330334
22.39001	-0.05717446	-0.2123479	0	0	0	0
22.40606	-0.05733184	-0.2122253	-0.009806247	0.007639797	-0.2959191	0.230543
22.42262	-0.05733184	-0.2122253	0	0	0.3007134	-0.2342782
22.43919	-0.05733184	-0.2122253	0	0	0	0
22.45576	-0.0573843	-0.212307	-0.003166464	-0.004933406	-0.09555307	-0.1488733
22.4724	-0.0573843	-0.212307	0	0	0.09533358	0.1485314
22.48889	-0.0573843	-0.212307	0	0	0	0
22.50545	-0.05948238	-0.2142289	-0.1266697	-0.1160333	-3.83305	-3.511188
22.52224	-0.05948238	-0.2142289	0	0	3.797977	3.47906
22.53859	-0.05948238	-0.2142289	0	0	0	0
22.55515	-0.05977083	-0.217279	-0.01741863	-0.1841858	-0.5292291	-5.596107
22.57172	-0.05977083	-0.217279	0	0	0.525786	5.5597
22.5885	-0.05977083	-0.217279	0	0	0	0
22.60485	-0.05822359	-0.2184879	0.09463337	-0.07394351	2.85637	-2.231877
22.62142	-0.05822359	-0.2184879	0	0	-2.87474	2.246231
22.63799	-0.05822359	-0.2184879	0	0	0	0
22.65455	-0.05822359	-0.2184879	0	0	0	0
22.67119	-0.05822359	-0.2184879	0	0	0	0
22.68769	-0.05822359	-0.2184879	0	0	0	0
22.70425	-0.05822359	-0.2184879	0	0	0	0
22.72098	-0.05822359	-0.2184879	0	0	0	0
22.73739	-0.05822359	-0.2184879	0	0	0	0
22.75396	-0.05822359	-0.2184879	0	0	0	0
22.77052	-0.05822359	-0.2184879	0	0	0	0
22.78792	-0.05822359	-0.2184879	0	0	0	0
22.80772	-0.05822359	-0.2184879	0	0	0	0
22.83082	-0.05822359	-0.2184879	0	0	0	0
22.84739	-0.05822359	-0.2184879	0	0	0	0
22.86395	-0.05819736	-0.2185085	0.001583007	-0.001237624	0.0477725	-0.03734941
22.88052	-0.05819736	-0.2185085	0	0	-0.047778	0.03735371
22.89709	-0.05819736	-0.2185085	0	0	0	0
22.91365	-0.05817114	-0.218529	0.001583007	-0.001237624	0.04777525	-0.03735156
22.97142	-0.05817114	-0.218529	0	0	-0.02129501	0.01664882
22.98877	-0.05817114	-0.218529	0	0	0	0
23.00456	-0.05814491	-0.2185494	0.00166123	-0.001297836	0.05013602	-0.03916876
23.02113	-0.05814491	-0.2185494	0	0	-0.05133881	0.04010845
23.03793	-0.05814491	-0.2185494	0	0	0	0
23.05426	-0.05809246	-0.2185904	0.003213596	-0.002511356	0.09700327	-0.07580598
23.07082	-0.05809246	-0.2185904	0	0	-0.09770643	0.07635548
23.08754	-0.05809246	-0.2185904	0	0	0	0
23.10396	-0.05741053	-0.2191235	0.04154879	-0.03247567	1.254017	-0.9801741
23.12053	-0.05741053	-0.2191235	0	0	-1.259673	0.9845951
23.1371	-0.05741053	-0.2191235	0	0	0	0
23.15366	-0.0417389	-0.2314416	0.9465951	-0.7440407	28.57158	-22.45778
23.17023	-0.0417389	-0.2314416	0	0	-28.57652	22.46166
23.18692	-0.0417389	-0.2314416	0	0	0	0
23.20336	-0.02023408	-0.2485518	1.308124	-1.0408	39.48153	-31.41322
23.21993	-0.02023408	-0.2485518	0	0	-39.63211	31.53303
23.23649	-0.02023408	-0.2485518	0	0	0	0
23.25633	-0.003973663	-0.2656858	0.8197252	-0.8637658	22.51766	-23.72745
23.2729	-0.003973663	-0.2656858	0	0	-22.51648	23.7262
23.28947	-0.003973663	-0.2656858	0	0	0	0
23.30603	-0.0284397	-0.2945332	-1.476943	-1.741429	-44.57679	-52.55946
23.3226	-0.0284397	-0.2945332	0	0	44.57679	52.55946
23.33922	-0.0284397	-0.2945332	0	0	0	0
23.35573	-0.05321287	-0.3185433	-1.500321	-1.454109	-45.27977	-43.88509
23.37234	-0.05321287	-0.3185433	0	0	45.30846	43.9129
23.38893	-0.05321287	-0.3185433	0	0	0	0
23.40543	-0.06270715	-0.3263808	-0.5752611	-0.4748805	-17.38042	-14.34761
23.4221	-0.06270715	-0.3263808	0	0	17.34344	14.31709
23.43909	-0.06270715	-0.3263808	0	0	0	0
23.45514	-0.06506592	-0.3283349	-0.1469434	-0.1217324	-4.447562	-3.684496
23.47171	-0.06506592	-0.3283349	0	0	4.504512	3.731675
23.48866	-0.06506592	-0.3283349	0	0	0	0
23.51048	-0.06509212	-0.3282697	-0.001200794	0.002986791	-0.03096561	0.07702221
23.52747	-0.06509212	-0.3282697	0	0	0.03094278	-0.07696543
23.54362	-0.06509212	-0.3282697	0	0	0	0
23.5602	-0.06509212	-0.3282697	0	0	0	0
23.57676	-0.06509212	-0.3282697	0	0	0	0
23.59332	-0.06509212	-0.3282697	0	0	0	0
23.60989	-0.06509212	-0.3282697	0	0	0	0
23.62645	-0.06509212	-0.3282697	0	0	0	0
23.64302	-0.06509212	-0.3282697	0	0	0	0
23.65969	-0.06509212	-0.3282697	0	0	0	0
23.67624	-0.06509212	-0.3282697	0	0	0	0
23.69272	-0.06509212	-0.3282697	0	0	0	0
23.70929	-0.06509212	-0.3282697	0	0	0	0
23.72585	-0.06509212	-0.3282697	0	0	0	0
23.74242	-0.06509212	-0.3282697	0	0	0	0
23.75899	-0.06509212	-0.3282697	0	0	0	0
23.77556	-0.06509212	-0.3282697	0	0	0	0
23.79212	-0.06509212	-0.3282697	0	0	0	0
23.80869	-0.06509212	-0.3282697	0	0	0	0
23.82526	-0.06509212	-0.3282697	0	0	0	0
23.8423	-0.06509212	-0.3282697	0	0	0	0
23.85839	-0.06509212	-0.3282697	0	0	0	0
23.87496	-0.06509212	-0.3282697	0	0	0	0
23.89152	-0.06509212	-0.3282697	0	0	0	0
23.90809	-0.06509212	-0.3282697	0	0	0	0
23.92466	-0.06509212	-0.3282697	0	0	0	0
23.94122	-0.06509212	-0.3282697	0	0	0	0
23.95779	-0.06509212	-0.3282697	0	0	0	0
23.97436	-0.06509212	-0.3282697	0	0	0	0
23.99092	-0.06509212	-0.3282697	0	0	0	0
24.00749	-0.06509212	-0.3282697	0	0	0	0
24.02406	-0.06509212	-0.3282697	0	0	0	0
24.04138	-0.06509212	-0.3282697	0	0	0	0
24.05799	-0.06509212	-0.3282697	0	0	0	0
24.07459	-0.06509212	-0.3282697	0	0	0	0
24.09111	-0.06506592	-0.328248	0.00158604	0.001315011	0.04788609	0.03970311
24.10765	-0.06506592	-0.328248	0	0	-0.04797726	-0.0397787
24.12421	-0.06506592	-0.328248	0	0	0	0
24.14078	-0.06506592	-0.328248	0	0	0	0
24.15735	-0.06506592	-0.328248	0	0	0	0
24.17392	-0.06506592	-0.328248	0	0	0	0
24.2023	-0.06506592	-0.328248	0	0	0	0
24.21939	-0.06506592	-0.328248	0	0	0	0
24.23551	-0.06506592	-0.328248	0	0	0	0
24.25267	-0.06506592	-0.328248	0	0	0	0
24.26879	-0.06506592	-0.328248	0	0	0	0
24.28514	-0.06506592	-0.328248	0	0	0	0
24.30261	-0.06506592	-0.328248	0	0	0	0
24.31827	-0.06506592	-0.328248	0	0	0	0
24.33484	-0.06509212	-0.3282697	-0.001582022	-0.001311679	-0.04909644	-0.04070663
24.35168	-0.06509212	-0.3282697	0	0	0.04735301	0.03926112
24.36797	-0.06509212	-0.3282697	0	0	0	0
24.38454	-0.06509212	-0.3282697	0	0	0	0
24.40111	-0.06509212	-0.3282697	0	0	0	0
24.41769	-0.06509212	-0.3282697	0	0	0	0
24.43424	-0.06509212	-0.3282697	0	0	0	0
24.45081	-0.06509212	-0.3282697	0	0	0	0
24.46737	-0.06509212	-0.3282697	0	0	0	0
24.48406	-0.06509212	-0.3282697	0	0	0	0
24.50051	-0.06509212	-0.3282697	0	0	0	0
24.5171	-0.06509212	-0.3282697	0	0	0	0
24.53364	-0.06509212	-0.3282697	0	0	0	0
24.55021	-0.06509212	-0.3282697	0	0	0	0
24.56677	-0.06509212	-0.3282697	0	0	0	0
24.58334	-0.06509212	-0.3282697	0	0	0	0
24.59991	-0.06509212	-0.3282697	0	0	0	0
24.61647	-0.06509212	-0.3282697	0	0	0	0
24.63304	-0.06509212	-0.3282697	0	0	0	0
24.64977	-0.06509212	-0.3282697	0	0	0	0
24.66617	-0.06509212	-0.3282697	0	0	0	0
24.68274	-0.06509212	-0.3282697	0	0	0	0
24.69931	-0.06509212	-0.3282697	0	0	0	0
24.7163	-0.06509212	-0.3282697	0	0	0	0
24.73254	-0.06509212	-0.3282697	0	0	0	0
24.74901	-0.06509212	-0.3282697	0	0	0	0
24.76558	-0.06509212	-0.3282697	0	0	0	0
24.78214	-0.06509212	-0.3282697	0	0	0	0
24.79872	-0.06509212	-0.3282697	0	0	0	0
24.81528	-0.06509212	-0.3282697	0	0	0	0
24.83184	-0.06509212	-0.3282697	0	0	0	0
24.84841	-0.06509212	-0.3282697	0	0	0	0
24.86506	-0.06509212	-0.3282697	0	0	0	0
24.88154	-0.06509212	-0.3282697	0	0	0	0
24.89826	-0.06509212	-0.3282697	0	0	0	0
24.91467	-0.06509212	-0.3282697	0	0	0	0
24.93214	-0.06509212	-0.3282697	0	0	0	0
24.94781	-0.06509212	-0.3282697	0	0	0	0
24.96485	-0.06509212	-0.3282697	0	0	0	0
24.98094	-0.06509212	-0.3282697	0	0	0	0
24.99751	-0.06509212	-0.3282697	0	0	0	0
25.01407	-0.06509212	-0.3282697	0	0	0	0
25.03064	-0.06509212	-0.3282697	0	0	0	0
25.04721	-0.06509212	-0.3282697	0	0	0	0
25.06378	-0.06509212	-0.3282697	0	0	0	0
25.08034	-0.06509212	-0.3282697	0	0	0	0
25.09726	-0.06509212	-0.3282697	0	0	0	0
25.11348	-0.06509212	-0.3282697	0	0	0	0
25.13022	-0.06509212	-0.3282697	0	0	0	0
25.14661	-0.06509212	-0.3282697	0	0	0	0
25.1637	-0.06509212	-0.3282697	0	0	0	0
25.17974	-0.06509212	-0.3282697	0	0	0	0
25.19631	-0.06509212	-0.3282697	0	0	0	0
25.21288	-0.06509212	-0.3282697	0	0	0	0
25.22944	-0.06509212	-0.3282697	0	0	0	0
25.24601	-0.06509212	-0.3282697	0	0	0	0
25.26258	-0.06509212	-0.3282697	0	0	0	0
25.27915	-0.06509212	-0.3282697	0	0	0	0
25.29576	-0.06509212	-0.3282697	0	0	0	0
25.31228	-0.06509212	-0.3282697	0	0	0	0
25.32884	-0.06509212	-0.3282697	0	0	0	0
25.34541	-0.06509212	-0.3282697	0	0	0	0
25.36198	-0.06509212	-0.3282697	0	0	0	0
25.37854	-0.06509212	-0.3282697	0	0	0	0
25.39511	-0.06509212	-0.3282697	0	0	0	0
25.41168	-0.06509212	-0.3282697	0	0	0	0
25.42824	-0.06509212	-0.3282697	0	0	0	0
25.44481	-0.06509212	-0.3282697	0	0	0	0
25.46169	-0.06509212	-0.3282697	0	0	0	0
25.47794	-0.06454181	-0.3288564	0.03385631	-0.03609041	1.021844	-1.089273
25.49451	-0.06454181	-0.3288564	0	0	-1.031464	1.099528
25.51145	-0.06454181	-0.3288564	0	0	0	0
25.52765	-0.06438457	-0.3292476	0.009706523	-0.02414856	0.2929603	-0.728847
25.54421	-0.06438457	-0.3292476	0	0	-0.2962518	0.7370359
25.56078	-0.06438457	-0.3292476	0	0	0	0
25.57734	-0.06593062	-0.330661	-0.09334111	-0.08533294	-2.817203	-2.575501
25.59396	-0.06593062	-0.330661	0	0	2.81283	2.571505
25.61056	-0.06593062	-0.330661	0	0	0	0
25.62704	-0.09017583	-0.3615035	-1.471235	-1.871569	-44.47622	-56.57853
25.64361	-0.09017583	-0.3615035	0	0	44.51986	56.63404
25.66031	-0.09017583	-0.3615035	0	0	0	0
25.6769	-0.1031588	-0.4450434	-0.7827539	-5.036684	-23.51392	-151.3019
25.69348	-0.1031588	-0.4450434	0	0	23.60318	151.8763
25.70988	-0.1031588	-0.4450434	0	0	0	0
25.72645	-0.1107554	-0.5094302	-0.4585315	-3.886394	-13.90736	-117.8751
25.74301	-0.1107554	-0.5094302	0	0	13.83851	117.2916
25.75958	-0.1107554	-0.5094302	0	0	0	0
25.7762	-0.1170156	-0.5300615	-0.3766947	-1.241446	-11.35103	-37.40878
25.79271	-0.1170156	-0.5300615	0	0	11.36932	37.46907
25.80992	-0.1170156	-0.5300615	0	0	0	0
25.8259	-0.1229815	-0.5543545	-0.3732947	-1.520058	-11.24663	-45.79634
25.84241	-0.1229815	-0.5543545	0	0	11.4896	46.78572
25.85898	-0.1229815	-0.5543545	0	0	0	0
25.87554	-0.1147567	-0.5932449	0.4965607	-2.347964	14.98796	-70.86985
25.89241	-0.1147567	-0.5932449	0	0	-14.85285	70.23102
25.90868	-0.1147567	-0.5932449	0	0	0	0
25.92524	-0.1061521	-0.6052438	0.5194961	-0.724425	15.82325	-22.06514
25.94181	-0.1061521	-0.6052438	0	0	-15.67933	21.86445
25.95865	-0.1061521	-0.6052438	0	0	0	0
25.97495	-0.08040523	-0.633184	1.579913	-1.7145	47.68463	-51.74669
25.99151	-0.08040523	-0.633184	0	0	-48.07206	52.16713
26.00808	-0.08040523	-0.633184	0	0	0	0
26.02478	-0.07713612	-0.6853454	0.1957909	-3.124015	5.88594	-93.91534
26.04121	-0.07713612	-0.6853454	0	0	-5.90932	94.28838
26.05778	-0.07713612	-0.6853454	0	0	0	0
26.07494	-0.09226362	-0.7453706	-0.8818288	-3.499055	-26.15001	-103.762
26.09091	-0.09226362	-0.7453706	0	0	26.61518	105.6078
26.10765	-0.09226362	-0.7453706	0	0	0	0
26.12405	-0.09278544	-0.7984331	-0.03182296	-3.236016	-0.960419	-97.66316
26.14071	-0.09278544	-0.7984331	0	0	0.9626911	97.8942
26.15793	-0.09278544	-0.7984331	0	0	0	0
26.17375	-0.09852209	-0.8377922	-0.3625866	-2.487703	-10.97384	-75.2914
26.19071	-0.09852209	-0.8377922	0	0	11.05939	75.87835
26.20688	-0.09852209	-0.8377922	0	0	0	0
26.22345	-0.107531	-0.8551654	-0.5437157	-1.048528	-16.60823	-32.02812
26.24002	-0.107531	-0.8551654	0	0	16.40843	31.64281
26.2567	-0.107531	-0.8551654	0	0	0	0
26.27315	-0.1127046	-0.8614499	-0.3145958	-0.3821474	-9.495615	-11.53456
26.28972	-0.1127046	-0.8614499	0	0	9.529079	11.57521
26.30629	-0.1127046	-0.8614499	0	0	0	0
26.32285	-0.1136399	-0.8602654	-0.0564735	0.07151906	-1.70457	2.158698
26.33976	-0.1136399	-0.8602654	0	0	1.687087	-2.136558
26.35639	-0.1136399	-0.8602654	0	0	0	0
26.37288	-0.115354	-0.8579715	-0.1039587	0.1391194	-3.138744	4.200325
26.38912	-0.115354	-0.8579715	0	0	3.17624	-4.250504
26.40609	-0.115354	-0.8579715	0	0	0	0
26.42257	-0.1168599	-0.8559612	-0.09141828	0.1220436	-2.733518	3.649253
26.43907	-0.1168599	-0.8559612	0	0	2.772254	-3.700966
26.4556	-0.1168599	-0.8559612	0	0	0	0
26.47218	-0.1168599	-0.8559612	0	0	0	0
26.48852	-0.1168599	-0.8559612	0	0	0	0
26.50592	-0.1168599	-0.8559612	0	0	0	0
26.523	-0.1168339	-0.8559266	0.001519073	0.002026593	0.04404799	0.05876437
26.53958	-0.1168339	-0.8559266	0	0	-0.04513128	-0.06020959
26.55614	-0.1168339	-0.8559266	0	0	0	0
26.57271	-0.1169377	-0.8557881	-0.006267991	0.00835852	-0.1891792	0.2522752
26.58928	-0.1169377	-0.8557881	0	0	0.1891683	-0.2522607
26.60584	-0.1169377	-0.8557881	0	0	0	0
26.62251	-0.1171194	-0.8555459	-0.01090575	0.01453921	-0.3282104	0.43756
26.63898	-0.1171194	-0.8555459	0	0	0.3291551	-0.4388195
26.65557	-0.1171194	-0.8555459	0	0	0	0
26.67211	-0.1171454	-0.8555113	-0.001570071	0.002091025	-0.04739029	0.06311451
26.68868	-0.1171454	-0.8555113	0	0	0.04743125	-0.06316906
26.70524	-0.1171454	-0.8555113	0	0	0	0
26.72181	-0.1172752	-0.8552692	-0.007833636	0.01461403	-0.2364196	0.4410524
26.73838	-0.1172752	-0.8552692	0	0	0.2364196	-0.4410524
26.75538	-0.1172752	-0.8552692	0	0	0	0
26.77151	-0.1173271	-0.8552	-0.003217645	0.004289578	-0.09711432	0.1294672
26.78841	-0.1173271	-0.8552	0	0	0.09740028	-0.1298484
26.80465	-0.1173271	-0.8552	0	0	0	0
26.82434	-0.1174049	-0.8550271	-0.003953537	0.00877639	-0.1100325	0.2442593
26.84091	-0.1174049	-0.8550271	0	0	0.1090254	-0.2420238
26.85748	-0.1174049	-0.8550271	0	0	0	0
26.8766	-0.1179759	-0.8539906	-0.02986646	0.05422216	-0.8369122	1.519403
26.89339	-0.1179759	-0.8539906	0	0	0.8317555	-1.510041
26.90973	-0.1179759	-0.8539906	0	0	0	0
26.9263	-0.13031	-0.837116	-0.7445726	1.018667	-22.62362	30.9519
26.943	-0.13031	-0.837116	0	0	22.37978	-30.6183
26.95943	-0.13031	-0.837116	0	0	0	0
26.976	-0.1444603	-0.8182085	-0.8542134	1.14139	-25.889	34.59257
26.99257	-0.1444603	-0.8182085	0	0	25.78021	-34.44721
27.00914	-0.1444603	-0.8182085	0	0	0	0
27.0257	-0.1446149	-0.8178124	-0.009332547	0.0239106	-0.2816568	0.7216234
27.04245	-0.1446149	-0.8178124	0	0	0.2801731	-0.7178219
27.05884	-0.1446149	-0.8178124	0	0	0	0
27.0754	-0.1446149	-0.8177463	0	0.003987218	0	0.1209961
27.09214	-0.1446149	-0.8177463	0	0	0	-0.119728
27.10853	-0.1446149	-0.8177463	0	0	0	0
27.1251	-0.1446149	-0.8176143	0	0.007969002	0	0.2417575
27.14167	-0.1446149	-0.8176143	0	0	0	-0.2404911
27.15824	-0.1446149	-0.8176143	0	0	0	0
27.1748	-0.1446407	-0.8173834	-0.001556024	0.01393766	-0.0469609	0.4206394
27.19137	-0.1446407	-0.8173834	0	0	0.0469636	-0.4206636
27.20803	-0.1446407	-0.8173834	0	0	0	0
27.2245	-0.1447695	-0.8159661	-0.007823358	0.08606599	-0.236123	2.597626
27.24107	-0.1447695	-0.8159661	0	0	0.236791	-2.604975
27.25764	-0.1447695	-0.8159661	0	0	0	0
27.27459	-0.1525683	-0.7953746	-0.4600839	1.214794	-13.7281	36.24734
27.29077	-0.1525683	-0.7953746	0	0	13.88616	-36.66467
27.30734	-0.1525683	-0.7953746	0	0	0	0
27.32414	-0.1714066	-0.7161154	-1.121083	4.716756	-33.59456	141.3431
27.34079	-0.1714066	-0.7161154	0	0	33.51029	-140.9885
27.35704	-0.1714066	-0.7161154	0	0	0	0
27.3736	-0.1771751	-0.6400002	-0.348268	4.595384	-10.61462	140.0596
27.39058	-0.1771751	-0.6400002	0	0	10.38226	-136.9935
27.40674	-0.1771751	-0.6400002	0	0	0	0
27.4233	-0.1685948	-0.5794224	0.5180324	3.657326	15.83294	111.7811
27.43987	-0.1685948	-0.5794224	0	0	-15.63515	-110.3847
27.45644	-0.1685948	-0.5794224	0	0	0	0
27.473	-0.1598097	-0.5280704	0.53039	3.100321	16.00904	93.57865
27.48957	-0.1598097	-0.5280704	0	0	-16.00812	-93.57327
27.50617	-0.1598097	-0.5280704	0	0	0	0
27.52319	-0.1544444	-0.4877426	0.3152492	2.36954	9.377666	70.48632
27.53963	-0.1544444	-0.4877426	0	0	-9.419889	-70.80368
27.55584	-0.1544444	-0.4877426	0	0	0	0
27.57256	-0.1511283	-0.4586525	0.1983102	1.739661	6.023154	52.83765
27.58897	-0.1511283	-0.4586525	0	0	-5.98536	-52.5061
27.60554	-0.1511283	-0.4586525	0	0	0	0
27.62226	-0.1409022	-0.4475721	0.6114769	0.6625549	18.36771	19.902
27.63881	-0.1409022	-0.4475721	0	0	-18.37824	-19.91341
27.65524	-0.1409022	-0.4475721	0	0	0	0
27.67226	-0.1230074	-0.4280194	1.050971	1.148344	31.41635	34.32709
27.68888	-0.1230074	-0.4280194	0	0	-31.2347	-34.12861
27.70499	-0.1230074	-0.4280194	0	0	0	0
27.72163	-0.1141853	-0.4028431	0.5299985	1.512508	16.18262	46.18192
27.73817	-0.1141853	-0.4028431	0	0	-15.97424	-45.58722
27.75474	-0.1141853	-0.4028431	0	0	0	0
27.7712	-0.1047208	-0.3906568	0.5749234	0.7402532	17.40432	22.40925
27.78777	-0.1047208	-0.3906568	0	0	-17.40633	-22.41184
27.80487	-0.1047208	-0.3906568	0	0	0	0
27.82103	-0.1002679	-0.3868483	0.2755984	0.235716	8.286095	7.086997
27.83768	-0.1002679	-0.3868483	0	0	-8.401239	-7.185479
27.85427	-0.1002679	-0.3868483	0	0	0	0
27.8706	-0.1001116	-0.3869833	0.009569491	-0.008268625	0.2906145	-0.2511087
27.88717	-0.1001116	-0.3869833	0	0	-0.2908504	0.2513125
27.90374	-0.1001116	-0.3869833	0	0	0	0
27.92054	-0.09985103	-0.3872535	0.01550308	-0.01607366	0.4645413	-0.4816383
27.93715	-0.09985103	-0.3872535	0	0	-0.4639845	0.481061
27.95344	-0.09985103	-0.3872535	0	0	0	0
27.97	-0.09961654	-0.3875462	0.01415723	-0.01767259	0.4309625	-0.5379739
27.98659	-0.09961654	-0.3875462	0	0	-0.427094	0.5331449
28.00375	-0.09961654	-0.3875462	0	0	0	0
28.0197	-0.09956443	-0.3875912	0.00326798	-0.002824088	0.09869032	-0.08528514
28.03679	-0.09956443	-0.3875912	0	0	-0.09892394	0.08548703
28.05283	-0.09956443	-0.3875912	0	0	0	0
28.0694	-0.09956443	-0.3875912	0	0	0	0
28.08597	-0.09956443	-0.3875912	0	0	0	0
28.10253	-0.09956443	-0.3875912	0	0	0	0
28.1191	-0.09956443	-0.3875912	0	0	0	0
28.13567	-0.09956443	-0.3875912	0	0	0	0
28.15223	-0.09956443	-0.3875912	0	0	0	0
28.1688	-0.09956443	-0.3875912	0	0	0	0
28.1854	-0.09956443	-0.3875912	0	0	0	0
28.20262	-0.09956443	-0.3875912	0	0	0	0
28.22268	-0.09956443	-0.3875912	0	0	0	0
28.23925	-0.09956443	-0.3875912	0	0	0	0
28.25582	-0.09956443	-0.3875912	0	0	0	0
28.27239	-0.09956443	-0.3875912	0	0	0	0
28.28896	-0.09956443	-0.3875912	0	0	0	0
28.30552	-0.09956443	-0.3875912	0	0	0	0
28.32209	-0.09956443	-0.3875912	0	0	0	0
28.33866	-0.09956443	-0.3875912	0	0	0	0
28.35522	-0.09956443	-0.3875912	0	0	0	0
28.37179	-0.09956443	-0.3875912	0	0	0	0
28.43066	-0.09956443	-0.3875912	0	0	0	0
28.45169	-0.09956443	-0.3875912	0	0	0	0
28.46828	-0.09956443	-0.3875912	0	0	0	0
28.48483	-0.09956443	-0.3875912	0	0	0	0
28.50139	-0.09956443	-0.3875912	0	0	0	0
28.51796	-0.09956443	-0.3875912	0	0	0	0
28.53453	-0.09956443	-0.3875912	0	0	0	0
28.55129	-0.09956443	-0.3875912	0	0	0	0
28.56781	-0.09956443	-0.3875912	0	0	0	0
28.58423	-0.09953837	-0.3876137	0.001587368	-0.00137227	0.04819818	-0.04166703
28.60167	-0.09953837	-0.3876137	0	0	-0.046884	0.04053094
28.61757	-0.09953837	-0.3876137	0	0	0	0
28.63393	-0.09953837	-0.3876137	0	0	0	0
28.6505	-0.09953837	-0.3876137	0	0	0	0
28.66706	-0.09953837	-0.3876137	0	0	0	0
28.68773	-0.09953837	-0.3876137	0	0	0	0
28.7046	-0.09953837	-0.3876137	0	0	0	0
28.72086	-0.09953837	-0.3876137	0	0	0	0
28.73773	-0.09953837	-0.3876137	0	0	0	0
28.75418	-0.09953837	-0.3876137	0	0	0	0
28.77056	-0.09953837	-0.3876137	0	0	0	0
28.78713	-0.09953837	-0.3876137	0	0	0	0
28.8037	-0.09953837	-0.3876137	0	0	0	0
28.82027	-0.09953837	-0.3876137	0	0	0	0
28.83683	-0.09953837	-0.3876137	0	0	0	0
28.8534	-0.09953837	-0.3876137	0	0	0	0
28.86997	-0.09953837	-0.3876137	0	0	0	0
28.88654	-0.09953837	-0.3876137	0	0	0	0
28.9031	-0.09953837	-0.3876137	0	0	0	0
28.91967	-0.09953837	-0.3876137	0	0	0	0
28.93623	-0.09953837	-0.3876137	0	0	0	0
28.9528	-0.09953837	-0.3876137	0	0	0	0
28.96937	-0.09956443	-0.3876362	-0.00157257	-0.001357679	-0.04745753	-0.04097248
28.98593	-0.09956443	-0.3876362	0	0	0.047463	0.0409772
29.0025	-0.09956443	-0.3876362	0	0	0	0
29.01908	-0.09956443	-0.3876362	0	0	0	0
29.03563	-0.09956443	-0.3876362	0	0	0	0
29.0522	-0.09956443	-0.3876362	0	0	0	0
29.06876	-0.09956443	-0.3876362	0	0	0	0
29.08563	-0.09956443	-0.3876362	0	0	0	0
29.1019	-0.09956443	-0.3876362	0	0	0	0
29.11846	-0.09956443	-0.3876362	0	0	0	0
29.13503	-0.09956443	-0.3876362	0	0	0	0
29.1516	-0.09956443	-0.3876362	0	0	0	0
29.16888	-0.09956443	-0.3876813	0	-0.002605604	0	-0.07697564
29.18485	-0.09956443	-0.3876813	0	0	0	0.07837111
29.2013	-0.09956443	-0.3876813	0	0	0	0
29.2205	-0.09956443	-0.3876813	0	0	0	0
29.23749	-0.09956443	-0.3876813	0	0	0	0
29.25364	-0.09956443	-0.3876813	0	0	0	0
29.27027	-0.09959049	-0.3877038	-0.001566172	-0.001354334	-0.04777874	-0.04131624
29.28679	-0.09959049	-0.3877038	0	0	0.04723455	0.04084566
29.30334	-0.09959049	-0.3877038	0	0	0	0
29.3199	-0.09956443	-0.3877263	0.001573026	-0.00136026	0.0475123	-0.04108585
29.33647	-0.09956443	-0.3877263	0	0	-0.04747402	0.04105274
29.35304	-0.09956443	-0.3877263	0	0	0	0
29.36999	-0.09956443	-0.3877263	0	0	0	0
29.38617	-0.09956443	-0.3877263	0	0	0	0
29.40295	-0.09956443	-0.3877263	0	0	0	0
29.4193	-0.09956443	-0.3877263	0	0	0	0
29.43587	-0.09956443	-0.3877263	0	0	0	0
29.45244	-0.09956443	-0.3877263	0	0	0	0
29.46901	-0.09956443	-0.3877263	0	0	0	0
29.48566	-0.09956443	-0.3877263	0	0	0	0
29.50231	-0.09956443	-0.3877263	0	0	0	0
29.51871	-0.09959049	-0.3877488	-0.001589314	-0.001372528	-0.04810128	-0.04154014
29.53527	-0.09959049	-0.3877488	0	0	0.04821818	0.0416411
29.55192	-0.09959049	-0.3877488	0	0	0	0
29.56848	-0.09959049	-0.3877488	0	0	0	0
29.58497	-0.09959049	-0.3877488	0	0	0	0
29.60191	-0.09959049	-0.3877488	0	0	0	0
29.6181	-0.09959049	-0.3877488	0	0	0	0
29.63467	-0.09959049	-0.3877488	0	0	0	0
29.65124	-0.09959049	-0.3877488	0	0	0	0
29.6678	-0.09959049	-0.3877488	0	0	0	0
29.68486	-0.09959049	-0.3877488	0	0	0	0
29.70114	-0.09959049	-0.3877488	0	0	0	0
29.71764	-0.09959049	-0.3877488	0	0	0	0
29.73425	-0.09959049	-0.3877488	0	0	0	0
29.75066	-0.09959049	-0.3877488	0	0	0	0
29.76726	-0.09959049	-0.3877488	0	0	0	0
29.78377	-0.09959049	-0.3877488	0	0	0	0
29.80034	-0.09959049	-0.3877488	0	0	0	0
29.81949	-0.09959049	-0.3877488	0	0	0	0
29.83803	-0.09959049	-0.3877488	0	0	0	0
29.8546	-0.09959049	-0.3877488	0	0	0	0
29.87171	-0.09959049	-0.3877488	0	0	0	0
29.88774	-0.09959049	-0.3877488	0	0	0	0
29.90514	-0.09959049	-0.3877488	0	0	0	0
29.92166	-0.09959049	-0.3877488	0	0	0	0
29.93815	-0.09959049	-0.3877488	0	0	0	0
29.954	-0.09959049	-0.3877488	0	0	0	0
29.97057	-0.09959049	-0.3877488	0	0	0	0
29.98746	-0.09959049	-0.3877488	0	0	0	0
30.0037	-0.09959049	-0.3877488	0	0	0	0
30.02027	-0.09959049	-0.3877488	0	0	0	0
30.037	-0.09959049	-0.3877488	0	0	0	0
30.05341	-0.09959049	-0.3877488	0	0	0	0
30.07017	-0.09959049	-0.3877488	0	0	0	0
30.08654	-0.09959049	-0.3877488	0	0	0	0
30.10311	-0.09959049	-0.3877488	0	0	0	0
30.11968	-0.09959049	-0.3877488	0	0	0	0
30.13624	-0.09959049	-0.3877488	0	0	0	0
30.15281	-0.09959049	-0.3877488	0	0	0	0
30.16959	-0.09956443	-0.3877714	0.00155282	-0.001342787	0.04656399	-0.0402658
30.18646	-0.09956443	-0.3877714	0	0	-0.04614435	0.03990292
30.20251	-0.09956443	-0.3877714	0	0	0	0
30.21908	-0.09956443	-0.3877714	0	0	0	0
30.23564	-0.09956443	-0.3877714	0	0	0	0
30.25221	-0.09956443	-0.3877714	0	0	0	0
30.26878	-0.09956443	-0.3877714	0	0	0	0
30.28534	-0.09956443	-0.3877714	0	0	0	0
30.30216	-0.09956443	-0.3877714	0	0	0	0
30.31848	-0.09956443	-0.3877714	0	0	0	0
30.33504	-0.09956443	-0.3877714	0	0	0	0
30.35182	-0.09956443	-0.3877714	0	0	0	0
30.36818	-0.09959049	-0.3877939	-0.001593393	-0.001377872	-0.04809423	-0.04158906
30.3854	-0.09959049	-0.3877939	0	0	0.04746303	0.04104323
30.40131	-0.09959049	-0.3877939	0	0	0	0
30.41787	-0.09959049	-0.3877939	0	0	0	0
30.43444	-0.09959049	-0.3877939	0	0	0	0
30.45101	-0.09959049	-0.3877939	0	0	0	0
30.46757	-0.09959049	-0.3877939	0	0	0	0
30.48414	-0.09959049	-0.3877939	0	0	0	0
30.50071	-0.09959049	-0.3877939	0	0	0	0
30.51727	-0.09959049	-0.3877939	0	0	0	0
30.53404	-0.09959049	-0.3877939	0	0	0	0
30.55056	-0.09959049	-0.3877939	0	0	0	0
30.56697	-0.09959049	-0.3877939	0	0	0	0
30.58405	-0.09959049	-0.3877939	0	0	0	0
30.60011	-0.09959049	-0.3877939	0	0	0	0
30.61667	-0.09959049	-0.3877939	0	0	0	0
30.63324	-0.09959049	-0.3877939	0	0	0	0
30.65	-0.09959049	-0.3877939	0	0	0	0
30.66637	-0.09959049	-0.3877939	0	0	0	0
30.68294	-0.09959049	-0.3877939	0	0	0	0
30.69951	-0.09959049	-0.3877939	0	0	0	0
30.71608	-0.09959049	-0.3877939	0	0	0	0
30.73264	-0.09959049	-0.3877939	0	0	0	0
30.74921	-0.09959049	-0.3877939	0	0	0	0
30.76578	-0.09959049	-0.3877939	0	0	0	0
30.78234	-0.09959049	-0.3877939	0	0	0	0
30.79906	-0.09959049	-0.3877939	0	0	0	0
30.81548	-0.09959049	-0.3877939	0	0	0	0
30.83276	-0.09959049	-0.3877939	0	0	0	0
30.84869	-0.09959049	-0.3877939	0	0	0	0
30.86518	-0.09959049	-0.3877939	0	0	0	0
30.88176	-0.09959049	-0.3877939	0	0	0	0
30.89843	-0.09959049	-0.3877939	0	0	0	0
30.91488	-0.09959049	-0.3877939	0	0	0	0
30.93144	-0.09959049	-0.3877939	0	0	0	0
30.94801	-0.09959049	-0.3877939	0	0	0	0
30.97089	-0.09959049	-0.3877939	0	0	0	0
30.9875	-0.09959049	-0.3877939	0	0	0	0
31.00408	-0.09959049	-0.3877939	0	0	0	0
31.021	-0.09959049	-0.3877939	0	0	0	0
31.03716	-0.09959049	-0.3877939	0	0	0	0
31.05372	-0.09959049	-0.3877939	0	0	0	0
31.07029	-0.09959049	-0.3877939	0	0	0	0
31.08686	-0.09959049	-0.3877939	0	0	0	0
31.10342	-0.09959049	-0.3877939	0	0	0	0
31.12052	-0.09959049	-0.3877939	0	0	0	0
31.13704	-0.09959049	-0.3877939	0	0	0	0
31.15314	-0.09959049	-0.3877939	0	0	0	0
31.1697	-0.09959049	-0.3877939	0	0	0	0
31.18626	-0.09959049	-0.3877939	0	0	0	0
31.20283	-0.09959049	-0.3877939	0	0	0	0
31.21939	-0.09959049	-0.3877939	0	0	0	0
31.23596	-0.09959049	-0.3877939	0	0	0	0
31.25253	-0.09959049	-0.3877939	0	0	0	0
31.2693	-0.09959049	-0.3877939	0	0	0	0
31.2858	-0.09959049	-0.3877939	0	0	0	0
31.30222	-0.09959049	-0.3877939	0	0	0	0
31.31921	-0.09959049	-0.3877939	0	0	0	0
31.33536	-0.09959049	-0.3877939	0	0	0	0
31.35228	-0.09959049	-0.3877939	0	0	0	0
31.36849	-0.09959049	-0.3877939	0	0	0	0
31.38505	-0.09959049	-0.3877939	0	0	0	0
31.40165	-0.09959049	-0.3877939	0	0	0	0
31.41819	-0.09959049	-0.3877939	0	0	0	0
31.43504	-0.09959049	-0.3877939	0	0	0	0
31.45132	-0.09959049	-0.3877939	0	0	0	0
31.46789	-0.09959049	-0.3877939	0	0	0	0
31.48446	-0.09959049	-0.3877939	0	0	0	0
31.50102	-0.0996426	-0.3877488	-0.003145689	0.002720207	-0.09494256	0.08210074
31.51759	-0.0996426	-0.3877488	0	0	0.09494256	-0.08210074
31.53445	-0.0996426	-0.3877488	0	0	0	0
31.55139	-0.09977287	-0.3875462	-0.00769153	0.01196509	-0.2275721	0.3540154
31.56729	-0.09977287	-0.3875462	0	0	0.2342206	-0.3643581
31.58398	-0.09977287	-0.3875462	0	0	0	0
31.60363	-0.1024818	-0.3845316	-0.1378501	0.1534019	-3.793468	4.221436
31.6202	-0.1024818	-0.3845316	0	0	3.805653	-4.234995
31.63677	-0.1024818	-0.3845316	0	0	0	0
31.65333	-0.1210889	-0.3421635	-1.123125	2.557343	-33.89598	77.18075
31.6699	-0.1210889	-0.3421635	0	0	33.89598	-77.18075
31.68647	-0.1210889	-0.3421635	0	0	0	0
31.70304	-0.1412375	-0.2754492	-1.216173	4.026882	-36.70418	121.5315
31.7196	-0.1412375	-0.2754492	0	0	36.70418	-121.5315
31.7366	-0.1412375	-0.2754492	0	0	0	0
31.75355	-0.1540076	-0.2314416	-0.7532001	2.595642	-22.18504	76.45304
31.76931	-0.1540076	-0.2314416	0	0	23.02856	-79.35993
31.78593	-0.1540076	-0.2314416	0	0	0	0
31.80244	-0.1670599	-0.2060831	-0.7908421	1.53648	-23.86903	46.37374
31.81901	-0.1670599	-0.2060831	0	0	23.91033	-46.45396
31.83587	-0.1670599	-0.2060831	0	0	0	0
31.85214	-0.1917212	-0.1846322	-1.51596	1.318613	-45.75704	39.80041
31.86924	-0.1917212	-0.1846322	0	0	45.4327	-39.5183
31.88536	-0.1917212	-0.1846322	0	0	0	0
31.90183	-0.2121786	-0.1675484	-1.241817	1.037029	-38.10098	31.81776
31.9184	-0.2121786	-0.1675484	0	0	37.58194	-31.38432
31.93497	-0.2121786	-0.1675484	0	0	0	0
31.95153	-0.2309117	-0.1405946	-1.130865	1.627122	-34.13154	49.10947
31.9681	-0.2309117	-0.1405946	0	0	34.13154	-49.10947
31.98467	-0.2309117	-0.1405946	0	0	0	0
32.00124	-0.2208134	-0.1065483	0.6095333	2.055038	18.39575	62.02116
32.0178	-0.2208134	-0.1065483	0	0	-18.39575	-62.02116
32.03496	-0.2208134	-0.1065483	0	0	0	0
32.05114	-0.207975	-0.09456804	0.7933831	0.7403499	23.79913	22.2083
32.0675	-0.207975	-0.09456804	0	0	-24.3794	-22.74977
32.08407	-0.207975	-0.09456804	0	0	0	0
32.10064	-0.207975	-0.09456804	0	0	0	0
32.11766	-0.207975	-0.09456804	0	0	0	0
32.13379	-0.207975	-0.09456804	0	0	0	0
32.15034	-0.2080002	-0.09454861	-0.001522348	0.001174396	-0.04659363	0.03594405
32.1669	-0.2080002	-0.09454861	0	0	0.04596573	-0.03545966
32.18347	-0.2080002	-0.09454861	0	0	0	0
32.20011	-0.2080002	-0.09454861	0	0	0	0
32.2166	-0.2080002	-0.09454861	0	0	0	0
32.23317	-0.2080002	-0.09454861	0	0	0	0
32.25019	-0.2080002	-0.09454861	0	0	0	0
32.2665	-0.2080002	-0.09454861	0	0	0	0
32.28351	-0.2080002	-0.09454861	0	0	0	0
32.29959	-0.2080002	-0.09454861	0	0	0	0
32.316	-0.2080002	-0.09454861	0	0	0	0
32.33257	-0.2080002	-0.09454861	0	0	0	0
32.34913	-0.207975	-0.09456804	0.001521296	-0.001173584	0.0459181	-0.03542292
32.3657	-0.207975	-0.09456804	0	0	-0.0459181	0.03542292
32.38252	-0.207975	-0.09456804	0	0	0	0
32.39883	-0.2079498	-0.09458748	0.001545139	-0.00119152	0.04663775	-0.0359643
32.41539	-0.2079498	-0.09458748	0	0	-0.04700033	0.0362439
32.43196	-0.2079498	-0.09458748	0	0	0	0
32.44889	-0.2079498	-0.09458748	0	0	0	0
32.46569	-0.2079498	-0.09458748	0	0	0	0
32.48203	-0.2079498	-0.09458748	0	0	0	0
32.49859	-0.2079246	-0.09460691	0.001520047	-0.001173314	0.04619955	-0.03566113
32.51516	-0.2079246	-0.09460691	0	0	-0.0458751	0.03541069
32.53172	-0.2079246	-0.09460691	0	0	0	0
32.54829	-0.2078994	-0.09462635	0.001520946	-0.001173314	0.04590753	-0.03541477
32.56492	-0.2078994	-0.09462635	0	0	-0.04581784	0.03534558
32.58151	-0.2078994	-0.09462635	0	0	0	0
32.59799	-0.2078994	-0.09462635	0	0	0	0
32.61456	-0.2078994	-0.09462635	0	0	0	0
32.63181	-0.2078994	-0.09462635	0	0	0	0
32.64769	-0.2078742	-0.09464578	0.001586709	-0.001223577	0.04789248	-0.03693187
32.66426	-0.2078742	-0.09464578	0	0	-0.04890033	0.03770906
32.68082	-0.2078742	-0.09464578	0	0	0	0
32.69739	-0.2077986	-0.09470409	0.004561939	-0.003519493	0.1376796	-0.1062185
32.71396	-0.2077986	-0.09470409	0	0	-0.1376796	0.1062185
32.73098	-0.2077986	-0.09470409	0	0	0	0
32.74709	-0.207597	-0.09489847	0.01251332	-0.01206608	0.3776527	-0.3641552
32.76366	-0.207597	-0.09489847	0	0	-0.3829432	0.3692566
32.78023	-0.207597	-0.09489847	0	0	0	0
32.797	-0.2071686	-0.09522894	0.02554032	-0.01970227	0.7660459	-0.5909417
32.81336	-0.2071686	-0.09522894	0	0	-0.7708083	0.5946155
32.82993	-0.2071686	-0.09522894	0	0	0	0
32.84649	-0.2040415	-0.09783527	0.1887982	-0.1573548	5.698597	-4.749523
32.86306	-0.2040415	-0.09783527	0	0	-5.698597	4.749523
32.87963	-0.2040415	-0.09783527	0	0	0	0
32.89619	-0.1848903	-0.1131367	1.155967	-0.9235974	34.88714	-27.87423
32.91276	-0.1848903	-0.1131367	0	0	-34.88714	27.87423
32.92945	-0.1848903	-0.1131367	0	0	0	0
32.94615	-0.1436356	-0.1480487	2.470234	-2.090442	73.9896	-62.61391
32.96246	-0.1436356	-0.1480487	0	0	-74.81883	63.31565
32.97903	-0.1436356	-0.1480487	0	0	0	0
32.9956	-0.08988869	-0.1929806	3.244168	-2.712094	97.90919	-81.85116
33.01238	-0.08988869	-0.1929806	0	0	-97.28199	81.32684
33.02878	-0.08988869	-0.1929806	0	0	0	0
33.04538	-0.03056942	-0.2398127	3.573935	-2.821598	108.298	-85.50052
33.06187	-0.03056942	-0.2398127	0	0	-108.0232	85.28364
33.07843	-0.03056942	-0.2398127	0	0	0	0
33.09508	0.002552626	-0.2927436	1.990086	-3.180269	59.92294	-95.76023
33.11226	0.002552626	-0.2927436	0	0	-58.84155	94.0321
33.12813	0.002552626	-0.2927436	0	0	0	0
33.1452	-0.004131556	-0.3642754	-0.3916446	-4.191242	-11.88829	-127.2243
33.16127	-0.004131556	-0.3642754	0	0	11.81986	126.4919
33.17783	-0.004131556	-0.3642754	0	0	0	0
33.1944	-0.01031542	-0.4157227	-0.373259	-3.105369	-11.26498	-93.72021
33.21114	-0.01031542	-0.4157227	0	0	11.20692	93.23718
33.22754	-0.01031542	-0.4157227	0	0	0	0
33.24415	-0.01965536	-0.438904	-0.5622064	-1.395372	-17.03213	-42.27301
33.26067	-0.01965536	-0.438904	0	0	16.96938	42.11725
33.27747	-0.01965536	-0.438904	0	0	0	0
33.29449	-0.02883411	-0.446963	-0.5393754	-0.4735713	-15.94789	-14.00224
33.31052	-0.02883411	-0.446963	0	0	16.31972	14.3287
33.32719	-0.02883411	-0.446963	0	0	0	0
33.3435	-0.0288867	-0.4469161	-0.003224712	0.002872807	-0.09778357	0.08711268
33.36007	-0.0288867	-0.4469161	0	0	0.09808992	-0.0873856
33.37708	-0.0288867	-0.4469161	0	0	0	0
33.3932	-0.0288867	-0.4468693	0	0.002906117	0	0.08770678
33.40977	-0.0288867	-0.4468693	0	0	0	-0.08890432
33.42691	-0.0288867	-0.4468693	0	0	0	0
33.44293	-0.02891299	-0.4468459	-0.001641872	0.00146275	-0.04951189	0.04411034
33.45947	-0.02891299	-0.4468459	0	0	0.05044027	-0.04493744
33.47603	-0.02891299	-0.4468459	0	0	0	0
33.4926	-0.02891299	-0.4468459	0	0	0	0
33.50917	-0.02891299	-0.4468459	0	0	0	0
33.52573	-0.02891299	-0.4468459	0	0	0	0
33.5423	-0.02891299	-0.4468459	0	0	0	0
33.55886	-0.02891299	-0.4468459	0	0	0	0
33.57551	-0.02891299	-0.4468459	0	0	0	0
33.59578	-0.02891299	-0.4468459	0	0	0	0
33.61235	-0.02891299	-0.4468459	0	0	0	0
33.62891	-0.02891299	-0.4468459	0	0	0	0
33.64556	-0.02891299	-0.4468459	0	0	0	0
33.66205	-0.02891299	-0.4468459	0	0	0	0
33.68277	-0.02891299	-0.4468459	0	0	0	0
33.69934	-0.02891299	-0.4468459	0	0	0	0
33.71594	-0.02893929	-0.4468224	-0.001583773	0.001410989	-0.04774339	0.04253477
33.73313	-0.02893929	-0.4468224	0	0	0.04687023	-0.04175687
33.74931	-0.02893929	-0.4468224	0	0	0	0
33.7658	-0.02896558	-0.446799	-0.001593773	0.001419798	-0.04877967	0.04345493
33.78218	-0.02896558	-0.446799	0	0	0.04847968	-0.04318768
33.79882	-0.02896558	-0.446799	0	0	0	0
33.8153	-0.02896558	-0.446799	0	0	0	0
33.83187	-0.02896558	-0.446799	0	0	0	0
33.91437	-0.02896558	-0.446799	0	0	0	0
33.93313	-0.02893929	-0.4467756	0.001401885	0.001248856	0.01384477	0.01233349
33.9497	-0.02893929	-0.4467756	0	0	-0.03968207	-0.0353504
33.96663	-0.02893929	-0.4467756	0	0	0	0
33.98481	-0.02896558	-0.446799	-0.0014463	-0.001288423	-0.04118836	-0.03669228
34.00139	-0.02896558	-0.446799	0	0	0.04161331	0.03707084
34.01795	-0.02896558	-0.446799	0	0	0	0
34.03455	-0.02896558	-0.446799	0	0	0	0
34.05117	-0.02896558	-0.446799	0	0	0	0
34.0677	-0.02896558	-0.446799	0	0	0	0
34.08473	-0.02896558	-0.446799	0	0	0	0
34.10078	-0.02896558	-0.446799	0	0	0	0
34.11735	-0.02896558	-0.446799	0	0	0	0
34.13391	-0.02896558	-0.446799	0	0	0	0
34.15048	-0.02896558	-0.446799	0	0	0	0
34.16715	-0.02896558	-0.446799	0	0	0	0
34.18365	-0.02896558	-0.446799	0	0	0	0
34.20018	-0.02896558	-0.446799	0	0	0	0
34.21687	-0.02896558	-0.446799	0	0	0	0
34.23331	-0.02896558	-0.446799	0	0	0	0
34.25036	-0.02896558	-0.446799	0	0	0	0
34.26645	-0.02896558	-0.446799	0	0	0	0
34.28302	-0.02896558	-0.446799	0	0	0	0
34.29958	-0.02896558	-0.446799	0	0	0	0
34.31615	-0.02896558	-0.446799	0	0	0	0
34.33271	-0.02896558	-0.446799	0	0	0	0
34.34951	-0.02896558	-0.446799	0	0	0	0
34.36585	-0.02896558	-0.446799	0	0	0	0
34.38242	-0.02896558	-0.446799	0	0	0	0
34.39898	-0.02896558	-0.446799	0	0	0	0
34.41555	-0.02896558	-0.446799	0	0	0	0
34.43211	-0.02896558	-0.446799	0	0	0	0
34.44868	-0.02896558	-0.446799	0	0	0	0
34.46589	-0.02896558	-0.446799	0	0	0	0
34.48324	-0.02896558	-0.446799	0	0	0	0
34.49981	-0.02896558	-0.446799	0	0	0	0
34.51665	-0.02896558	-0.446799	0	0	0	0
34.53294	-0.02896558	-0.446799	0	0	0	0
34.54951	-0.02896558	-0.446799	0	0	0	0
34.56659	-0.02896558	-0.446799	0	0	0	0
34.58265	-0.02896558	-0.446799	0	0	0	0
34.59921	-0.02896558	-0.446799	0	0	0	0
34.61658	-0.02896558	-0.446799	0	0	0	0
34.63234	-0.02896558	-0.446799	0	0	0	0
34.64891	-0.02896558	-0.446799	0	0	0	0
34.6663	-0.02896558	-0.446799	0	0	0	0
34.68204	-0.02896558	-0.446799	0	0	0	0
34.69882	-0.02896558	-0.446799	0	0	0	0
34.71518	-0.02896558	-0.446799	0	0	0	0
34.73174	-0.02896558	-0.446799	0	0	0	0
34.75093	-0.02896558	-0.446799	0	0	0	0
34.7675	-0.02896558	-0.446799	0	0	0	0
34.78423	-0.02896558	-0.446799	0	0	0	0
34.80091	-0.02896558	-0.446799	0	0	0	0
34.81744	-0.02896558	-0.446799	0	0	0	0
34.83393	-0.02896558	-0.446799	0	0	0	0
34.85059	-0.02896558	-0.446799	0	0	0	0
34.86706	-0.02896558	-0.446799	0	0	0	0
34.88363	-0.02896558	-0.446799	0	0	0	0
34.90032	-0.02896558	-0.446799	0	0	0	0
34.91676	-0.02896558	-0.446799	0	0	0	0
34.93333	-0.02896558	-0.446799	0	0	0	0
34.94989	-0.02896558	-0.446799	0	0	0	0
34.96718	-0.02896558	-0.446799	0	0	0	0
34.98827	-0.02896558	-0.446799	0	0	0	0
35.00484	-0.02896558	-0.446799	0	0	0	0
35.0214	-0.02896558	-0.446799	0	0	0	0
35.03797	-0.02896558	-0.446799	0	0	0	0
35.05461	-0.02896558	-0.446799	0	0	0	0
35.07111	-0.02896558	-0.446799	0	0	0	0
35.08767	-0.02896558	-0.446799	0	0	0	0
35.10424	-0.02896558	-0.446799	0	0	0	0
35.12082	-0.02896558	-0.446799	0	0	0	0
35.13737	-0.02896558	-0.446799	0	0	0	0
35.1541	-0.02896558	-0.446799	0	0	0	0
35.1705	-0.02896558	-0.446799	0	0	0	0
35.18707	-0.02896558	-0.446799	0	0	0	0
35.20367	-0.02896558	-0.446799	0	0	0	0
35.22457	-0.02896558	-0.446799	0	0	0	0
35.24114	-0.02896558	-0.446799	0	0	0	0
35.25774	-0.02896558	-0.446799	0	0	0	0
35.27428	-0.02896558	-0.446799	0	0	0	0
35.29084	-0.02896558	-0.446799	0	0	0	0
35.30741	-0.02896558	-0.446799	0	0	0	0
35.32398	-0.02896558	-0.446799	0	0	0	0
35.34055	-0.02896558	-0.446799	0	0	0	0
35.3572	-0.02896558	-0.446799	0	0	0	0
35.37368	-0.02896558	-0.446799	0	0	0	0
35.39025	-0.02896558	-0.446799	0	0	0	0
35.40683	-0.02896558	-0.446799	0	0	0	0
35.42338	-0.02896558	-0.446799	0	0	0	0
35.44025	-0.02896558	-0.446799	0	0	0	0
35.45676	-0.02896558	-0.446799	0	0	0	0
35.47308	-0.02896558	-0.446799	0	0	0	0
35.48984	-0.02896558	-0.446799	0	0	0	0
35.50634	-0.02896558	-0.446799	0	0	0	0
35.52278	-0.02896558	-0.446799	0	0	0	0
35.53935	-0.02896558	-0.446799	0	0	0	0
35.55591	-0.02896558	-0.446799	0	0	0	0
35.57248	-0.02896558	-0.446799	0	0	0	0
35.58904	-0.02896558	-0.446799	0	0	0	0
35.60561	-0.02896558	-0.446799	0	0	0	0
35.62217	-0.02896558	-0.446799	0	0	0	0
35.63874	-0.02896558	-0.446799	0	0	0	0
35.65555	-0.02896558	-0.446799	0	0	0	0
35.67206	-0.02896558	-0.446799	0	0	0	0
35.68859	-0.02896558	-0.446799	0	0	0	0
35.7051	-0.02896558	-0.446799	0	0	0	0
35.7216	-0.02896558	-0.446799	0	0	0	0
35.73814	-0.02896558	-0.446799	0	0	0	0
35.75471	-0.02896558	-0.446799	0	0	0	0
35.77128	-0.02896558	-0.446799	0	0	0	0
35.78785	-0.02896558	-0.446799	0	0	0	0
35.80467	-0.02896558	-0.446799	0	0	0	0
35.82098	-0.02896558	-0.446799	0	0	0	0
35.83755	-0.02896558	-0.446799	0	0	0	0
35.8542	-0.02896558	-0.446799	0	0	0	0
35.87068	-0.02896558	-0.446799	0	0	0	0
35.88725	-0.02896558	-0.446799	0	0	0	0
35.90382	-0.02896558	-0.446799	0	0	0	0
35.92038	-0.02896558	-0.446799	0	0	0	0
35.93695	-0.02896558	-0.446799	0	0	0	0
35.95352	-0.02896558	-0.446799	0	0	0	0
35.97009	-0.02896558	-0.446799	0	0	0	0
35.98665	-0.02896558	-0.446799	0	0	0	0
36.00322	-0.02896558	-0.446799	0	0	0	0
36.01979	-0.02896558	-0.446799	0	0	0	0
36.03662	-0.02896558	-0.446799	0	0	0	0
36.05292	-0.02896558	-0.446799	0	0	0	0
36.06948	-0.02896558	-0.446799	0	0	0	0
36.08616	-0.02896558	-0.446799	0	0	0	0
36.10267	-0.02896558	-0.446799	0	0	0	0
36.11918	-0.02896558	-0.446799	0	0	0	0
36.13575	-0.02896558	-0.446799	0	0	0	0
36.15248	-0.02896558	-0.446799	0	0	0	0
36.16888	-0.02896558	-0.446799	0	0	0	0
36.18551	-0.02896558	-0.446799	0	0	0	0
36.20208	-0.02896558	-0.446799	0	0	0	0
36.21858	-0.02896558	-0.446799	0	0	0	0
36.23515	-0.02896558	-0.446799	0	0	0	0
36.25173	-0.02896558	-0.446799	0	0	0	0
36.26858	-0.02896558	-0.446799	0	0	0	0
36.28485	-0.02896558	-0.446799	0	0	0	0
36.302	-0.02896558	-0.446799	0	0	0	0
36.31799	-0.02896558	-0.446799	0	0	0	0
36.33455	-0.02896558	-0.446799	0	0	0	0
36.35502	-0.02896558	-0.446799	0	0	0	0
36.37233	-0.02896558	-0.446799	0	0	0	0
36.38816	-0.02896558	-0.446799	0	0	0	0
36.40472	-0.02896558	-0.446799	0	0	0	0
36.42129	-0.02896558	-0.446799	0	0	0	0
36.43786	-0.02896558	-0.446799	0	0	0	0
36.45454	-0.02896558	-0.446799	0	0	0	0
36.47099	-0.02896558	-0.446799	0	0	0	0
36.48756	-0.02896558	-0.446799	0	0	0	0
36.50412	-0.02896558	-0.446799	0	0	0	0
36.52069	-0.02896558	-0.446799	0	0	0	0
36.53725	-0.02896558	-0.446799	0	0	0	0
36.55382	-0.02896558	-0.446799	0	0	0	0
36.57039	-0.02896558	-0.446799	0	0	0	0
36.58728	-0.02896558	-0.446799	0	0	0	0
36.60352	-0.02896558	-0.446799	0	0	0	0
36.62009	-0.02896558	-0.446799	0	0	0	0
36.63814	-0.02896558	-0.446799	0	0	0	0
36.65471	-0.02896558	-0.446799	0	0	0	0
36.67128	-0.02896558	-0.446799	0	0	0	0
36.68784	-0.02896558	-0.446799	0	0	0	0
36.70449	-0.02896558	-0.446799	0	0	0	0
36.72097	-0.02896558	-0.446799	0	0	0	0
36.73754	-0.02896558	-0.446799	0	0	0	0
36.7541	-0.02896558	-0.446799	0	0	0	0
36.77067	-0.02896558	-0.446799	0	0	0	0
36.78724	-0.02896558	-0.446799	0	0	0	0
36.80381	-0.02896558	-0.446799	0	0	0	0
36.82037	-0.02896558	-0.446799	0	0	0	0
36.83694	-0.02896558	-0.446799	0	0	0	0
36.85377	-0.02896558	-0.446799	0	0	0	0
36.87008	-0.02896558	-0.446799	0	0	0	0
36.88665	-0.02896558	-0.446799	0	0	0	0
36.90321	-0.02896558	-0.446799	0	0	0	0
36.91977	-0.02896558	-0.446799	0	0	0	0
36.93634	-0.02896558	-0.446799	0	0	0	0
36.95291	-0.02896558	-0.446799	0	0	0	0
36.96969	-0.02896558	-0.446799	0	0	0	0
36.98604	-0.02896558	-0.446799	0	0	0	0
37.00294	-0.02896558	-0.446799	0	0	0	0
37.01945	-0.02896558	-0.446799	0	0	0	0
37.03574	-0.02896558	-0.446799	0	0	0	0
37.0523	-0.02896558	-0.446799	0	0	0	0
37.06887	-0.02896558	-0.446799	0	0	0	0
37.08549	-0.02896558	-0.446799	0	0	0	0
37.10201	-0.02896558	-0.446799	0	0	0	0
37.11857	-0.02896558	-0.446799	0	0	0	0
37.13514	-0.02896558	-0.446799	0	0	0	0
37.15171	-0.02896558	-0.446799	0	0	0	0
37.16827	-0.02896558	-0.446799	0	0	0	0
37.1851	-0.02896558	-0.446799	0	0	0	0
37.2014	-0.02896558	-0.446799	0	0	0	0
37.21801	-0.02896558	-0.446799	0	0	0	0
37.23454	-0.02896558	-0.446799	0	0	0	0
37.2511	-0.02896558	-0.446799	0	0	0	0
37.26767	-0.02896558	-0.446799	0	0	0	0
37.28424	-0.02896558	-0.446799	0	0	0	0
37.30107	-0.02896558	-0.446799	0	0	0	0
37.31798	-0.02896558	-0.446799	0	0	0	0
37.33396	-0.02896558	-0.446799	0	0	0	0
37.35065	-0.02896558	-0.446799	0	0	0	0
37.36732	-0.02896558	-0.446799	0	0	0	0
37.38364	-0.02896558	-0.446799	0	0	0	0
37.40038	-0.02896558	-0.446799	0	0	0	0
37.41696	-0.02896558	-0.446799	0	0	0	0
37.43334	-0.02893929	-0.4468224	0.001604905	-0.001429715	0.04868837	-0.04337358
37.44991	-0.02893929	-0.4468224	0	0	-0.04871092	0.04339367
37.46647	-0.02893929	-0.4468224	0	0	0	0
37.48304	-0.02893929	-0.4468224	0	0	0	0
37.49973	-0.02893929	-0.4468224	0	0	0	0
37.51618	-0.02893929	-0.4468224	0	0	0	0
37.53274	-0.02893929	-0.4468224	0	0	0	0
37.54943	-0.02893929	-0.4468224	0	0	0	0
37.56587	-0.02893929	-0.4468224	0	0	0	0
37.58244	-0.02896558	-0.446799	-0.001587167	0.001413913	-0.04808903	0.04283968
37.59901	-0.02896558	-0.446799	0	0	0.0479008	-0.04267199
37.61557	-0.02896558	-0.446799	0	0	0	0
37.63223	-0.02899187	-0.4468224	-0.001578333	-0.001406143	-0.04750292	-0.04232053
37.64871	-0.02899187	-0.4468224	0	0	0.04763417	0.04243747
37.66528	-0.02899187	-0.4468224	0	0	0	0
37.68219	-0.02914964	-0.4466819	-0.009327119	0.008307609	-0.2785745	0.2481246
37.69841	-0.02914964	-0.4466819	0	0	0.2815254	-0.250753
37.71552	-0.02914964	-0.4466819	0	0	0	0
37.73173	-0.0309112	-0.4453008	-0.1087063	0.08522945	-3.262357	2.557801
37.74811	-0.0309112	-0.4453008	0	0	3.336068	-2.615592
37.76468	-0.0309112	-0.4453008	0	0	0	0
37.78124	-0.05856453	-0.449495	-1.669158	-0.253166	-50.37529	-7.640566
37.79794	-0.05856453	-0.449495	0	0	50.18463	7.611647
37.81438	-0.05856453	-0.449495	0	0	0	0
37.83094	-0.1218408	-0.4474081	-3.820246	0.1259968	-115.7483	3.817534
37.84751	-0.1218408	-0.4474081	0	0	115.3085	-3.803029
37.86407	-0.1218408	-0.4474081	0	0	0	0
37.88067	-0.199065	-0.4226646	-4.653761	1.491117	-140.3377	44.96577
37.89721	-0.199065	-0.4226646	0	0	140.4669	-45.00719
37.91377	-0.199065	-0.4226646	0	0	0	0
37.93034	-0.2580619	-0.3940901	-3.561058	1.724764	-107.473	52.05347
37.94691	-0.2580619	-0.3940901	0	0	107.473	-52.05347
37.96372	-0.2580619	-0.3940901	0	0	0	0
37.98004	-0.2982992	-0.3761927	-2.465629	1.096697	-74.4214	33.10221
37.99673	-0.2982992	-0.3761927	0	0	74.69662	-33.22462
38.01326	-0.2982992	-0.3761927	0	0	0	0
38.03506	-0.3275026	-0.3748071	-1.339545	0.0635567	-34.94414	1.657977
38.05179	-0.3275026	-0.3748071	0	0	34.76769	-1.649605
38.0683	-0.3421268	-0.3833409	-0.8857765	-0.5168813	-26.64995	-15.55117
38.0853	-0.3421268	-0.3833409	0	0	26.43153	15.42372
38.10133	-0.3421268	-0.3833409	0	0	0	0
38.1179	-0.352411	-0.3935249	-0.6207564	-0.6147069	-19.0436	-18.85801
38.13446	-0.352411	-0.3935249	0	0	18.73447	18.55189
38.15136	-0.352411	-0.3935249	0	0	0	0
38.16759	-0.3544031	-0.3957869	-0.1226711	-0.1392963	-3.702648	-4.204455
38.18416	-0.3544031	-0.3957869	0	0	3.739244	4.246011
38.20088	-0.3544031	-0.3957869	0	0	0	0
38.21739	-0.3544494	-0.3960133	-0.00280333	-0.01371159	-0.08436186	-0.4126289
38.23387	-0.3544494	-0.3960133	0	0	0.08498625	0.4156829
38.25043	-0.3544494	-0.3960133	0	0	0	0
38.26699	-0.3544031	-0.396285	0.002794291	-0.01640409	0.08435129	-0.4951904
38.28357	-0.3544031	-0.396285	0	0	-0.08433187	0.4950764
38.30014	-0.3544031	-0.396285	0	0	0	0
38.31696	-0.3543799	-0.3963076	0.001376488	-0.001346372	0.0412198	-0.04031795
38.3335	-0.3543799	-0.3963076	0	0	-0.04126222	0.04035944
38.35003	-0.3543799	-0.3963076	0	0	0	0
38.37043	-0.3543799	-0.3963076	0	0	0	0
38.38702	-0.3543799	-0.3963076	0	0	0	0
38.40391	-0.3543799	-0.3963076	0	0	0	0
38.42104	-0.3543799	-0.3963076	0	0	0	0
38.43705	-0.3543799	-0.3963076	0	0	0	0
38.45407	-0.3543799	-0.3963076	0	0	0	0
38.47018	-0.3543799	-0.3963076	0	0	0	0
38.48674	-0.3543799	-0.3963076	0	0	0	0
38.50331	-0.3542873	-0.3963982	0.005589094	-0.00546857	0.1686792	-0.1650418
38.51988	-0.3542873	-0.3963982	0	0	-0.1686792	0.1650418
38.53645	-0.3542873	-0.3963982	0	0	0	0
38.55301	-0.3538011	-0.3968739	0.02934679	-0.02870819	0.885688	-0.866415
38.56968	-0.3538011	-0.3968739	0	0	-0.8829434	0.8637301
38.58619	-0.3538011	-0.3968739	0	0	0	0
38.60271	-0.3533611	-0.3973043	0.02662959	-0.02604888	0.8061885	-0.7886081
38.61928	-0.3533611	-0.3973043	0	0	-0.8047016	0.7871536
38.63585	-0.3533611	-0.3973043	0	0	0	0
38.65241	-0.3531757	-0.3974856	0.01118976	-0.01094506	0.3377465	-0.3303605
38.66898	-0.3531757	-0.3974856	0	0	-0.3377465	0.3303605
38.68555	-0.3531757	-0.3974856	0	0	0	0
38.70211	-0.3531062	-0.3975536	0.004194969	-0.004103227	0.1266044	-0.1238356
38.71868	-0.3531062	-0.3975536	0	0	-0.1266044	0.1238356
38.73579	-0.3531062	-0.3975536	0	0	0	0
38.75181	-0.3530599	-0.3975989	0.002893174	-0.002829915	0.08732622	-0.08541684
38.76838	-0.3530599	-0.3975989	0	0	-0.08878813	0.08684678
38.78495	-0.3530599	-0.3975989	0	0	0	0
38.80151	-0.3515531	-0.3990274	0.09095275	-0.08622172	2.74496	-2.602177
38.81808	-0.3515531	-0.3990274	0	0	-2.74496	2.602177
38.83464	-0.3515531	-0.3990274	0	0	0	0
38.85135	-0.3507642	-0.399345	0.0472139	-0.01900863	1.419037	-0.5713138
38.86786	-0.3507642	-0.399345	0	0	-1.421318	0.5722323
38.88438	-0.3507642	-0.399345	0	0	0	0
38.90091	-0.3391343	-0.4065998	0.703601	-0.4389136	21.2911	-13.28161
38.91748	-0.3391343	-0.4065998	0	0	-21.2592	13.26171
38.93441	-0.3391343	-0.4065998	0	0	0	0
38.95317	-0.3194119	-0.4253858	1.05169	-1.001755	29.46711	-28.06797
38.96974	-0.3194119	-0.4253858	0	0	-29.7726	28.35896
38.9863	-0.3194119	-0.4253858	0	0	0	0
39.00297	-0.2922292	-0.432744	1.630615	-0.4413973	49.0652	-13.28164
39.01948	-0.2922292	-0.432744	0	0	-49.14418	13.30302
39.03644	-0.2922292	-0.432744	0	0	0	0
39.05301	-0.250914	-0.4145765	2.493787	1.09659	74.38062	32.70731
39.06958	-0.250914	-0.4145765	0	0	-75.26263	-33.09517
39.08614	-0.250914	-0.4145765	0	0	0	0
39.10271	-0.1987363	-0.3987325	3.149455	0.956345	95.05074	28.86255
39.11928	-0.1987363	-0.3987325	0	0	-95.05074	-28.86255
39.13585	-0.1987363	-0.3987325	0	0	0	0
39.15241	-0.1534679	-0.3854759	2.732405	0.8001723	82.46415	24.14925
39.16961	-0.1534679	-0.3854759	0	0	-80.936	-23.70174
39.18555	-0.1534679	-0.3854759	0	0	0	0
39.20211	-0.1372888	-0.3784749	0.9765733	0.422582	30.04023	12.99898
39.21868	-0.1372888	-0.3784749	0	0	-29.47304	-12.75355
39.23562	-0.1372888	-0.3784749	0	0	0	0
39.25214	-0.1363591	-0.377669	0.05627489	0.04877446	1.681729	1.457585
39.26865	-0.1363591	-0.377669	0	0	-1.703872	-1.476777
39.28495	-0.1363591	-0.377669	0	0	0	0
39.30168	-0.1225667	-0.3657408	0.8241555	0.7127664	24.95062	21.57841
39.31819	-0.1225667	-0.3657408	0	0	-24.79029	-21.43975
39.33521	-0.1225667	-0.3657408	0	0	0	0
39.35121	-0.116107	-0.3601747	0.4035703	0.3477456	12.22199	10.53136
39.36778	-0.116107	-0.3601747	0	0	-12.38945	-10.67566
39.38475	-0.116107	-0.3601747	0	0	0	0
39.40126	-0.116107	-0.3601747	0	0	0	0
39.41748	-0.116107	-0.3601747	0	0	0	0
39.43404	-0.116107	-0.3601747	0	0	0	0
39.45301	-0.116107	-0.3601747	0	0	0	0
39.46958	-0.116107	-0.3601747	0	0	0	0
39.48629	-0.116107	-0.3601747	0	0	0	0
39.5028	-0.116107	-0.3601747	0	0	0	0
39.51933	-0.116107	-0.3601747	0	0	0	0
39.53585	-0.116107	-0.3601747	0	0	0	0
39.55241	-0.116081	-0.3601525	0.001567267	0.001336562	0.04736565	0.04039332
39.56898	-0.116081	-0.3601525	0	0	-0.04730021	-0.04033751
39.58555	-0.116081	-0.3601525	0	0	0	0
39.60212	-0.116081	-0.3601525	0	0	0	0
39.61868	-0.116081	-0.3601525	0	0	0	0
39.63525	-0.116081	-0.3601525	0	0	0	0
39.65224	-0.1161849	-0.360064	-0.006111023	0.005210087	-0.1820832	0.155239
39.66882	-0.1161849	-0.360064	0	0	0.1820625	-0.1552214
39.68538	-0.1161849	-0.360064	0	0	0	0
39.70432	-0.1162628	-0.3599975	-0.004113209	0.003508071	-0.115854	0.09880947
39.72089	-0.1162628	-0.3599975	0	0	0.1158415	-0.09879885
39.73746	-0.1162628	-0.3599975	0	0	0	0
39.75402	-0.1162628	-0.3599975	0	0	0	0
39.77059	-0.1162628	-0.3599975	0	0	0	0
39.78716	-0.1162628	-0.3599975	0	0	0	0
39.80373	-0.1162109	-0.3599533	0.003134084	0.002671325	0.09458686	0.08062074
39.82029	-0.1162109	-0.3599533	0	0	-0.09458686	-0.08062074
39.83752	-0.1162109	-0.3599533	0	0	0	0
39.85375	-0.1161589	-0.3599533	0.003198609	0	0.09559871	0
39.86999	-0.1161589	-0.3599533	0	0	-0.09849598	0
39.88656	-0.1161589	-0.3599533	0	0	0	0
39.9032	-0.116133	-0.3599311	0.001559993	0.00133074	0.04697791	0.04007415
39.91969	-0.116133	-0.3599311	0	0	-0.04708067	-0.04016181
39.93626	-0.116133	-0.3599311	0	0	0	0
39.95282	-0.116133	-0.3599311	0	0	0	0
39.96987	-0.116133	-0.3599311	0	0	0	0
39.98596	-0.116133	-0.3599311	0	0	0	0
40.00259	-0.116107	-0.3599533	0.001561514	-0.001331656	0.04773106	-0.04070494
40.01999	-0.116107	-0.3599533	0	0	-0.04589031	0.03913515
40.03593	-0.116107	-0.3599533	0	0	0	0
40.05257	-0.116081	-0.3599311	0.001561156	0.00133135	0.04791567	0.04086237
40.06879	-0.116081	-0.3599311	0	0	-0.0475096	-0.04051608
40.08536	-0.116081	-0.3599311	0	0	0	0
40.10192	-0.116081	-0.3598869	0	0.00267194	0	0.08064859
40.1185	-0.116081	-0.3598869	0	0	0	-0.0806393
40.13524	-0.116081	-0.3598869	0	0	0	0
40.1522	-0.1160291	-0.3598426	0.003061477	0.002611195	0.09082706	0.07746822
40.1682	-0.1160291	-0.3598426	0	0	-0.09289824	-0.07923477
40.18476	-0.1160291	-0.3598426	0	0	0	0
40.20175	-0.1071408	-0.3522901	0.5232484	0.444609	15.59418	13.25052
40.2179	-0.1071408	-0.3522901	0	0	-15.79167	-13.41833
40.23447	-0.1071408	-0.3522901	0	0	0	0
40.25103	-0.09343765	-0.3407406	0.8271226	0.6971276	24.96261	21.03935
40.26786	-0.09343765	-0.3407406	0	0	-24.76587	-20.87354
40.28416	-0.09343765	-0.3407406	0	0	0	0
40.30073	-0.09127202	-0.3388816	0.1307177	0.1122082	3.97712	3.413964
40.3173	-0.09127202	-0.3388816	0	0	-3.945068	-3.386451
40.33394	-0.09127202	-0.3388816	0	0	0	0
40.35043	-0.09124592	-0.3389035	0.00158265	-0.00132648	0.04776448	-0.04003326
40.367	-0.09124592	-0.3389035	0	0	-0.04787471	0.04012565
40.38383	-0.09124592	-0.3389035	0	0	0	0
40.40032	-0.09124592	-0.3389035	0	0	0	0
40.4167	-0.09124592	-0.3389035	0	0	0	0
40.43377	-0.09124592	-0.3389035	0	0	0	0
40.44984	-0.09124592	-0.3389035	0	0	0	0
40.4667	-0.09124592	-0.3389035	0	0	0	0
40.48297	-0.09124592	-0.3389035	0	0	0	0
40.49953	-0.09124592	-0.3389035	0	0	0	0
40.5161	-0.09124592	-0.3389035	0	0	0	0
40.53304	-0.09124592	-0.3389035	0	0	0	0
40.54955	-0.09124592	-0.3389035	0	0	0	0
40.5658	-0.09124592	-0.3389035	0	0	0	0
40.58237	-0.09124592	-0.3389035	0	0	0	0
40.59893	-0.09124592	-0.3389035	0	0	0	0
40.6155	-0.09124592	-0.3389035	0	0	0	0
40.63213	-0.09124592	-0.3389035	0	0	0	0
40.64872	-0.09124592	-0.3389035	0	0	0	0
40.6652	-0.09124592	-0.3389035	0	0	0	0
40.68177	-0.09124592	-0.3389035	0	0	0	0
40.69833	-0.09124592	-0.3389035	0	0	0	0
40.7149	-0.09124592	-0.3389035	0	0	0	0
40.73146	-0.09124592	-0.3389035	0	0	0	0
40.74803	-0.09124592	-0.3389035	0	0	0	0
40.76462	-0.09124592	-0.3389035	0	0	0	0
40.78116	-0.09124592	-0.3389035	0	0	0	0
40.79773	-0.09124592	-0.3389035	0	0	0	0
40.81429	-0.09124592	-0.3389035	0	0	0	0
40.83093	-0.09124592	-0.3389035	0	0	0	0
40.85294	-0.09124592	-0.3389035	0	0	0	0
40.86951	-0.09124592	-0.3389035	0	0	0	0
40.88607	-0.09124592	-0.3389035	0	0	0	0
40.90264	-0.09124592	-0.3389035	0	0	0	0
40.9192	-0.09124592	-0.3389035	0	0	0	0
40.93577	-0.09124592	-0.3389035	0	0	0	0
40.95234	-0.09124592	-0.3389035	0	0	0	0
40.96891	-0.09124592	-0.3389035	0	0	0	0
40.98547	-0.09124592	-0.3389035	0	0	0	0
41.00204	-0.09124592	-0.3389035	0	0	0	0
41.0186	-0.09124592	-0.3389035	0	0	0	0
41.03517	-0.09124592	-0.3389035	0	0	0	0
41.05237	-0.09124592	-0.3389035	0	0	0	0
41.0683	-0.09124592	-0.3389035	0	0	0	0
41.0849	-0.09124592	-0.3389035	0	0	0	0
41.10144	-0.09124592	-0.3389035	0	0	0	0
41.11809	-0.09124592	-0.3389035	0	0	0	0
41.13457	-0.09124592	-0.3389035	0	0	0	0
41.15113	-0.09124592	-0.3389035	0	0	0	0
41.1677	-0.09124592	-0.3389035	0	0	0	0
41.18427	-0.09127202	-0.3389254	-0.001575725	-0.001318877	-0.04756095	-0.03980836
41.20083	-0.09127202	-0.3389254	0	0	0.04756095	0.03980836
41.2174	-0.09127202	-0.3389254	0	0	0	0
41.23396	-0.09127202	-0.3389254	0	0	0	0
41.25053	-0.09127202	-0.3389254	0	0	0	0
41.2671	-0.09127202	-0.3389254	0	0	0	0
41.28406	-0.09127202	-0.3389254	0	0	0	0
41.30024	-0.09127202	-0.3389254	0	0	0	0
41.3168	-0.09127202	-0.3389254	0	0	0	0
41.33337	-0.09127202	-0.3389254	0	0	0	0
41.35021	-0.09127202	-0.3389254	0	0	0	0
41.36689	-0.09127202	-0.3389254	0	0	0	0
41.38359	-0.09127202	-0.3389254	0	0	0	0
41.39964	-0.09127202	-0.3389254	0	0	0	0
41.4163	-0.09127202	-0.3389254	0	0	0	0
41.43278	-0.09127202	-0.3389254	0	0	0	0
41.44934	-0.09127202	-0.3389254	0	0	0	0
41.46591	-0.09127202	-0.3389254	0	0	0	0
41.48263	-0.09127202	-0.3389254	0	0	0	0
41.49913	-0.09127202	-0.3389254	0	0	0	0
41.51561	-0.09127202	-0.3389254	0	0	0	0
41.53218	-0.09127202	-0.3389254	0	0	0	0
41.54953	-0.09127202	-0.3389254	0	0	0	0
41.56562	-0.09127202	-0.3389254	0	0	0	0
41.58221	-0.09127202	-0.3389254	0	0	0	0
41.59844	-0.09127202	-0.3389254	0	0	0	0
41.61501	-0.09127202	-0.3389254	0	0	0	0
41.63176	-0.09127202	-0.3389254	0	0	0	0
41.64814	-0.09127202	-0.3389254	0	0	0	0
41.66471	-0.09127202	-0.3389254	0	0	0	0
41.68166	-0.09129812	-0.3389472	-0.001539558	-0.001290363	-0.04592989	-0.03849562
41.69795	-0.09129812	-0.3389472	0	0	0.04631466	0.03881811
41.71441	-0.09129812	-0.3389472	0	0	0	0
41.73126	-0.09129812	-0.3389472	0	0	0	0
41.74754	-0.09129812	-0.3389472	0	0	0	0
41.76466	-0.09129812	-0.3389472	0	0	0	0
41.78322	-0.09129812	-0.3389472	0	0	0	0
41.79979	-0.09129812	-0.3389472	0	0	0	0
41.81636	-0.09129812	-0.3389472	0	0	0	0
41.83292	-0.09132421	-0.3389691	-0.001575275	-0.001318877	-0.04754737	-0.03980836
41.84994	-0.09132421	-0.3389691	0	0	0.04691002	0.03927475
41.86606	-0.09132421	-0.3389691	0	0	0	0
41.88263	-0.09132421	-0.3389691	0	0	0	0
41.89942	-0.09132421	-0.3389691	0	0	0	0
41.91576	-0.09132421	-0.3389691	0	0	0	0
41.93232	-0.09132421	-0.3389691	0	0	0	0
41.94935	-0.09132421	-0.3389691	0	0	0	0
41.966	-0.09132421	-0.3389691	0	0	0	0
41.98206	-0.09132421	-0.3389691	0	0	0	0
41.99911	-0.09132421	-0.3389691	0	0	0	0
42.01516	-0.09132421	-0.3389691	0	0	0	0
42.03173	-0.09132421	-0.3389691	0	0	0	0
42.04829	-0.09132421	-0.3389691	0	0	0	0
42.06537	-0.09132421	-0.3389691	0	0	0	0
42.08143	-0.09132421	-0.3389691	0	0	0	0
42.098	-0.09132421	-0.3389691	0	0	0	0
42.11456	-0.09132421	-0.3389691	0	0	0	0
42.13113	-0.09132421	-0.3389691	0	0	0	0
42.14769	-0.09132421	-0.3389691	0	0	0	0
42.16426	-0.09132421	-0.3389691	0	0	0	0
42.18164	-0.09132421	-0.3389691	0	0	0	0
42.19775	-0.09132421	-0.3389691	0	0	0	0
42.21489	-0.09132421	-0.3389691	0	0	0	0
42.23053	-0.09135031	-0.338991	-0.001668731	-0.001398628	-0.05091339	-0.04267248
42.24734	-0.09135031	-0.338991	0	0	0.0514221	0.04309885
42.26366	-0.09135031	-0.338991	0	0	0	0
42.28023	-0.09135031	-0.338991	0	0	0	0
42.2968	-0.09135031	-0.338991	0	0	0	0
42.31337	-0.09135031	-0.338991	0	0	0	0
42.32993	-0.09135031	-0.338991	0	0	0	0
42.34656	-0.09135031	-0.338991	0	0	0	0
42.36356	-0.09135031	-0.338991	0	0	0	0
42.37963	-0.09135031	-0.338991	0	0	0	0
42.39662	-0.09135031	-0.338991	0	0	0	0
42.41333	-0.09135031	-0.338991	0	0	0	0
42.42933	-0.09135031	-0.338991	0	0	0	0
42.4459	-0.09135031	-0.338991	0	0	0	0
42.46279	-0.09135031	-0.338991	0	0	0	0
42.47931	-0.09135031	-0.338991	0	0	0	0
42.4956	-0.09135031	-0.338991	0	0	0	0
42.51262	-0.09135031	-0.338991	0	0	0	0
42.5292	-0.09135031	-0.338991	0	0	0	0
42.5453	-0.09135031	-0.338991	0	0	0	0
42.56187	-0.09135031	-0.338991	0	0	0	0
42.57843	-0.09135031	-0.338991	0	0	0	0
42.59541	-0.09135031	-0.338991	0	0	0	0
42.6116	-0.09135031	-0.338991	0	0	0	0
42.62813	-0.09135031	-0.338991	0	0	0	0
42.64484	-0.09135031	-0.338991	0	0	0	0
42.66127	-0.09135031	-0.338991	0	0	0	0
42.67783	-0.09135031	-0.338991	0	0	0	0
42.6944	-0.09135031	-0.338991	0	0	0	0
42.71097	-0.09135031	-0.338991	0	0	0	0
42.72754	-0.09135031	-0.338991	0	0	0	0
42.7441	-0.09135031	-0.338991	0	0	0	0
42.76067	-0.09135031	-0.338991	0	0	0	0
42.77724	-0.09135031	-0.338991	0	0	0	0
42.7938	-0.09135031	-0.338991	0	0	0	0
