Time	Pos X	Pos Y	Vel X	Vel Y	Acc X	Acc Y
0.0165675	0.02077986	0.003055861	-0.0003264017	-4.800025E-05	5.128309E-06	7.54163E-07
0.04571903	0.02077986	0.003055861	0	0	-5.129336E-06	-7.543141E-07
0.06301367	0.02077986	0.003055861	0	0	0	0
0.07885522	0.02077986	0.003055861	0	0	0	0
0.09542391	0.02077986	0.003055861	0	0	0	0
0.1119898	0.02077986	0.003055861	0	0	0	0
0.1290172	0.02077986	0.003055861	0	0	0	0
0.1451556	0.02077986	0.003055861	0	0	0	0
0.1616904	0.02077986	0.003055861	0	0	0	0
0.1785997	0.02077986	0.003055861	0	0	0	0
0.1948803	0.02077986	0.003055861	0	0	0	0
0.2120735	0.02077986	0.003055861	0	0	0	0
0.2279557	0.02077986	0.003055861	0	0	0	0
0.2445228	0.02077986	0.003055861	0	0	0	0
0.2611163	0.02077986	0.003055861	0	0	0	0
0.2776554	0.02077986	0.003055861	0	0	0	0
0.2942225	0.02077986	0.003055861	0	0	0	0
0.310837	0.02077986	0.003055861	0	0	0	0
0.3273575	0.02077986	0.003055861	0	0	0	0
0.3439243	0.02077986	0.003055861	0	0	0	0
0.360491	0.02077986	0.003055861	0	0	0	0
0.3770577	0.02077986	0.003055861	0	0	0	0
0.3936217	0.02077986	0.003055861	0	0	0	0
0.4101888	0.02077986	0.003055861	0	0	0	0
0.4274779	0.02077986	0.003055861	0	0	0	0
0.443323	0.02077986	0.003055861	0	0	0	0
0.4598889	0.02077986	0.003055861	0	0	0	0
0.4764568	0.02077986	0.003055861	0	0	0	0
0.4931356	0.02077986	0.003055861	0	0	0	0
0.5096317	0.02077986	0.003055861	0	0	0	0
0.5261585	0.02077986	0.003055861	0	0	0	0
0.542724	0.02077986	0.003055861	0	0	0	0
0.5592915	0.02077986	0.003055861	0	0	0	0
0.5758575	0.02077986	0.003055861	0	0	0	0
0.5924242	0.02077986	0.003055861	0	0	0	0
0.6089905	0.02077986	0.003055861	0	0	0	0
0.6255568	0.02077986	0.003055861	0	0	0	0
0.6421244	0.02077986	0.003055861	0	0	0	0
0.6587902	0.02077986	0.003055861	0	0	0	0
0.675405	0.02077986	0.003055861	0	0	0	0
0.6918233	0.02077986	0.003055861	0	0	0	0
0.7083912	0.02077986	0.003055861	0	0	0	0
0.7249575	0.02077986	0.003055861	0	0	0	0
0.741523	0.02077986	0.003055861	0	0	0	0
0.7580889	0.02077986	0.003055861	0	0	0	0
0.7747058	0.02077986	0.003055861	0	0	0	0
0.7912216	0.02077986	0.003055861	0	0	0	0
0.8077875	0.02077986	0.003055861	0	0	0	0
0.8243542	0.02077986	0.003055861	0	0	0	0
0.8409228	0.02077986	0.003055861	0	0	0	0
0.8574892	0.02077986	0.003055861	0	0	0	0
0.8740555	0.02077986	0.003055861	0	0	0	0
0.8906226	0.02077986	0.003055861	0	0	0	0
0.907189	0.02077986	0.003055861	0	0	0	0
0.9237556	0.02077986	0.003055861	0	0	0	0
0.9403239	0.02077986	0.003055861	0	0	0	0
0.9572854	0.02077986	0.003055861	0	0	0	0
0.9734554	0.02077986	0.003055861	0	0	0	0
0.9900229	0.02077986	0.003055861	0	0	0	0
1.00659	0.02077986	0.003055861	0	0	0	0
1.023402	0.02077986	0.003055861	0	0	0	0
1.039722	0.02077986	0.003055861	0	0	0	0
1.056289	0.02077986	0.003055861	0	0	0	0
1.072853	0.02077986	0.003055861	0	0	0	0
1.089422	0.02077986	0.003055861	0	0	0	0
1.105989	0.02077986	0.003055861	0	0	0	0
1.122557	0.02077986	0.003055861	0	0	0	0
1.139125	0.02077986	0.003055861	0	0	0	0
1.155691	0.02077986	0.003055861	0	0	0	0
1.172258	0.02077986	0.003055861	0	0	0	0
1.18897	0.02077986	0.003055861	0	0	0	0
1.205392	0.02077986	0.003055861	0	0	0	0
1.221956	0.02077986	0.003055861	0	0	0	0
1.238526	0.02077986	0.003055861	0	0	0	0
1.255092	0.02077986	0.003055861	0	0	0	0
1.271658	0.02077986	0.003055861	0	0	0	0
1.288224	0.02077986	0.003055861	0	0	0	0
1.304792	0.02077986	0.003055861	0	0	0	0
1.321484	0.02077986	0.003055861	0	0	0	0
1.337925	0.02077986	0.003055861	0	0	0	0
1.35449	0.02077986	0.003055861	0	0	0	0
1.371058	0.02077986	0.003055861	0	0	0	0
1.387675	0.02077986	0.003055861	0	0	0	0
1.404214	0.02077986	0.003055861	0	0	0	0
1.42115	0.02077986	0.003055861	0	0	0	0
1.437324	0.02077986	0.003055861	0	0	0	0
1.45389	0.02077986	0.003055861	0	0	0	0
1.470869	0.02077986	0.003055861	0	0	0	0
1.48711	0.02077986	0.003055861	0	0	0	0
1.503591	0.02077986	0.003055861	0	0	0	0
1.520158	0.02077986	0.003055861	0	0	0	0
1.536723	0.02077986	0.003055861	0	0	0	0
1.553566	0.02077986	0.003055861	0	0	0	0
1.569856	0.02077986	0.003055861	0	0	0	0
1.586422	0.02077986	0.003055861	0	0	0	0
1.60299	0.02077986	0.003055861	0	0	0	0
1.619557	0.02077986	0.003055861	0	0	0	0
1.636124	0.02077986	0.003055861	0	0	0	0
1.65269	0.02077986	0.003055861	0	0	0	0
1.669257	0.02077986	0.003055861	0	0	0	0
1.685825	0.02077986	0.003055861	0	0	0	0
1.702391	0.02077986	0.003055861	0	0	0	0
1.722593	0.02077986	0.003055861	0	0	0	0
1.739164	0.02077986	0.003055861	0	0	0	0
1.75573	0.02077986	0.003055861	0	0	0	0
1.772296	0.02077986	0.003055861	0	0	0	0
1.788864	0.02077986	0.003055861	0	0	0	0
1.805431	0.02077986	0.003055861	0	0	0	0
1.821997	0.02077986	0.003055861	0	0	0	0
1.83913	0.02077986	0.003055861	0	0	0	0
1.855131	0.02077986	0.003055861	0	0	0	0
1.871697	0.02077986	0.003055861	0	0	0	0
1.888264	0.02077986	0.003055861	0	0	0	0
1.904875	0.02077986	0.003055861	0	0	0	0
1.921397	0.02077986	0.003055861	0	0	0	0
1.938166	0.02077986	0.003055861	0	0	0	0
1.95453	0.02077986	0.003055861	0	0	0	0
1.971097	0.02077986	0.003055861	0	0	0	0
1.987664	0.02077986	0.003055861	0	0	0	0
2.00423	0.02077986	0.003055861	0	0	0	0
2.020797	0.02077986	0.003055861	0	0	0	0
2.037364	0.02077986	0.003055861	0	0	0	0
2.054183	0.02077986	0.003055861	0	0	0	0
2.07055	0.02077986	0.003055861	0	0	0	0
2.087065	0.02077986	0.003055861	0	0	0	0
2.104347	0.02077986	0.003055861	0	0	0	0
2.120198	0.02077986	0.003055861	0	0	0	0
2.172414	0.02077986	0.003055861	0	0	0	0
2.189589	0.02077986	0.003055861	0	0	0	0
2.205554	0.02077986	0.003055861	0	0	0	0
2.222119	0.02077986	0.003055861	0	0	0	0
2.239074	0.02077986	0.003055861	0	0	0	0
2.255254	0.02077986	0.003055861	0	0	0	0
2.272197	0.02077986	0.003055861	0	0	0	0
2.288388	0.02077986	0.003055861	0	0	0	0
2.304952	0.02077986	0.003055861	0	0	0	0
2.321517	0.02077986	0.003055861	0	0	0	0
2.338084	0.02077986	0.003055861	0	0	0	0
2.354651	0.02077986	0.003055861	0	0	0	0
2.371219	0.02077986	0.003055861	0	0	0	0
2.387785	0.02077986	0.003055861	0	0	0	0
2.404348	0.02077986	0.003055861	0	0	0	0
2.420915	0.02077986	0.003055861	0	0	0	0
2.437481	0.02077986	0.003055861	0	0	0	0
2.454051	0.02077986	0.003055861	0	0	0	0
2.470746	0.02077986	0.003055861	0	0	0	0
2.487185	0.02077986	-0.0006111722	-1.1331E-07	-0.2230761	-3.419851E-06	-6.732742
2.504159	0.01955751	-0.006722894	-0.07201083	-0.3600543	-2.155175	-4.099554
2.520714	0.01344579	-0.02261337	-0.3691806	-0.9598695	-8.862991	-17.8893
2.536884	0.006111722	-0.0507273	-0.4535594	-1.738644	-2.578433	-23.79766
2.553451	-0.003667034	-0.08495294	-0.5902554	-2.065894	-4.175579	-9.996311
2.570018	-0.01344579	-0.1179562	-0.5902554	-1.992112	0	2.22678
2.586584	-0.02322454	-0.1656277	-0.5902893	-2.87766	-0.001023602	-26.72706
2.603249	-0.02566923	-0.1790735	-0.1466962	-0.8068292	13.34876	62.3162
2.619718	-0.02933627	-0.2010757	-0.2226596	-1.335958	-2.292595	-15.96924
2.636285	-0.03544799	-0.2243002	-0.3689097	-1.401857	-4.426961	-1.994753
2.652851	-0.04033737	-0.2401907	-0.2951446	-0.9592202	2.226332	13.35937
2.66983	-0.04644909	-0.2548588	-0.3599632	-0.8639111	-1.932302	2.841251
2.685982	-0.04767143	-0.2609705	-0.07567678	-0.3783839	8.580708	14.65482
2.702551	-0.04889378	-0.2621929	-0.07377162	-0.07377297	0.05822363	9.309193
2.719116	-0.04889378	-0.2621929	0	0	2.226448	2.226489
2.735949	-0.04889378	-0.2621929	0	0	0	0
2.752249	-0.04889378	-0.2621929	0	0	0	0
2.76885	-0.04889378	-0.2621929	0	0	0	0
2.785589	-0.04889378	-0.2621929	0	0	0	0
2.801949	-0.04889378	-0.2621929	0	0	0	0
2.818516	-0.04889378	-0.2621929	0	0	0	0
2.835083	-0.04889378	-0.2621929	0	0	0	0
2.85165	-0.04889378	-0.2621929	0	0	0	0
2.868216	-0.04889378	-0.2621929	0	0	0	0
2.884782	-0.04889378	-0.2609705	4.497309E-07	0.07378465	1.357359E-05	2.226937
2.901349	-0.04889378	-0.2609705	0	0	-1.35733E-05	-2.226889
2.917915	-0.04889378	-0.2609705	0	0	0	0
2.934483	-0.04889378	-0.2609705	0	0	0	0
2.951152	-0.04889378	-0.2609705	0	0	0	0
2.967863	-0.04889378	-0.2609705	0	0	0	0
2.984183	-0.04889378	-0.2609705	0	0	0	0
3.00075	-0.04889378	-0.2609705	0	0	0	0
3.017316	-0.04889378	-0.2609705	0	0	0	0
3.033882	-0.04889378	-0.2609705	0	0	0	0
3.050448	-0.04522675	-0.2573035	0.2213551	0.2213549	6.680944	6.680937
3.067015	-0.02566924	-0.2255226	1.180528	1.918357	28.94913	51.21783
3.083587	-0.01344579	-0.205965	0.737607	1.180172	-13.36573	-22.27575
3.100607	0.01711282	-0.1644053	1.795379	2.441715	31.48837	37.55437
3.116838	0.04767144	-0.127735	1.882835	2.259402	2.630195	-5.482992
3.133283	0.06111722	-0.1081775	0.8175899	1.189222	-32.60049	-32.7515
3.149952	0.07089598	-0.08984232	0.5866418	1.099954	-6.974194	-2.695723
3.166449	0.0770077	-0.0727295	0.370472	1.037321	-6.51778	-1.888465
3.18322	0.08067474	-0.06295074	0.2186616	0.5830977	-4.563324	-13.65366
3.199551	0.08434177	-0.05806137	0.224545	0.2993929	0.1777381	-8.5708
3.216117	0.08923115	-0.04950495	0.2951318	0.516481	2.145647	6.598883
3.232773	0.09289818	-0.04461557	0.2201703	0.2935602	-2.256369	-6.709996
3.24925	0.09656522	-0.0397262	0.2225468	0.2967289	0.07172726	0.09563575
3.266013	0.09778755	-0.03728151	0.07291874	0.1458388	-4.501371	-4.539338
3.282671	0.0990099	-0.03483682	0.07337989	0.1467591	0.01379818	0.02753661
3.298949	0.1002323	-0.03239213	0.075092	0.1501831	0.05198327	0.1039589
3.315992	0.1002322	-0.03116978	-4.371608E-07	0.07172103	-2.253597	-2.354723
3.332087	0.1014546	-0.03116979	0.07594629	-1.157287E-07	2.29183	-2.164315
3.349192	0.1014546	-0.03116979	0	0	-2.287586	3.485878E-06
3.365222	0.1014546	-0.03116979	0	0	0	0
3.381789	0.1014546	-0.03116979	0	0	0	0
3.398469	0.1014546	-0.03116979	0	0	0	0
3.415729	0.1014546	-0.03116979	0	0	0	0
3.431643	0.1014546	-0.03116979	0	0	0	0
3.448093	0.1014546	-0.03116979	0	0	0	0
3.464844	0.1014546	-0.03116979	0	0	0	0
3.481988	0.1014546	-0.03116979	0	0	0	0
3.498323	0.1014546	-0.03116979	0	0	0	0
3.514318	0.1014546	-0.03116979	0	0	0	0
3.530885	0.1014546	-0.03116979	0	0	0	0
3.547451	0.1014546	-0.03116979	0	0	0	0
3.56447	0.1014546	-0.03116979	0	0	0	0
3.581279	0.1014546	-0.03116979	0	0	0	0
3.597151	0.1014546	-0.03116979	0	0	0	0
3.613718	0.1014546	-0.03116979	0	0	0	0
3.630284	0.1014546	-0.03116979	0	0	0	0
3.646848	0.1014546	-0.03116979	0	0	0	0
3.663419	0.1014546	-0.03116979	0	0	0	0
3.679984	0.1014546	-0.03116979	0	0	0	0
3.696552	0.1014546	-0.03116979	0	0	0	0
3.718166	0.1014546	-0.03116979	0	0	0	0
3.734873	0.1014546	-0.03116979	0	0	0	0
3.751601	0.1014546	-0.03116979	0	0	0	0
3.767888	0.1014546	-0.02994744	-4.574599E-07	0.0750511	-1.385592E-05	2.273209
3.784454	0.09289818	-0.0262804	-0.5165032	0.2213586	-15.72168	4.453412
3.801003	0.08556412	-0.02261337	-0.4431754	0.2215881	2.214341	0.006930645
3.81757	0.07823005	-0.02139103	-0.4426921	0.07378179	0.01459614	-4.463307
3.834136	0.07456301	-0.01894634	-0.2213586	0.1475724	6.680147	2.227101
3.850703	0.07211832	-0.01894634	-0.1475598	1.124279E-07	2.227316	-4.453868
3.86727	0.07089598	-0.01894634	-0.07378497	-1.12436E-07	2.226576	-6.78655E-06
3.884172	0.07089598	-0.01894634	0	0	2.20461	3.359458E-06
3.900403	0.07089598	-0.01894634	0	0	0	0
3.91697	0.07089598	-0.01894634	0	0	0	0
3.933664	0.07089598	-0.01894634	0	0	0	0
3.950103	0.07089598	-0.01894634	0	0	0	0
3.96667	0.07089598	-0.01894634	0	0	0	0
3.983237	0.07089598	-0.01894634	0	0	0	0
3.999803	0.07089598	-0.01894634	0	0	0	0
4.016369	0.07089598	-0.01894634	0	0	0	0
4.032937	0.07089598	-0.01894634	0	0	0	0
4.049502	0.07089598	-0.01894634	0	0	0	0
4.066069	0.07089598	-0.01894634	0	0	0	0
4.082636	0.07089598	-0.01894634	0	0	0	0
4.099203	0.07089598	-0.01894634	0	0	0	0
4.11577	0.07089598	-0.01894634	0	0	0	0
4.132336	0.07089598	-0.01894634	0	0	0	0
4.14903	0.07089598	-0.01894634	0	0	0	0
4.165474	0.07089598	-0.01894634	0	0	0	0
4.182036	0.07089598	-0.01894634	0	0	0	0
4.198604	0.07089598	-0.01894634	0	0	0	0
4.21517	0.07089598	-0.01894634	0	0	0	0
4.23174	0.07089598	-0.01894634	0	0	0	0
4.248306	0.07089598	-0.01894634	0	0	0	0
4.264874	0.07089598	-0.01894634	0	0	0	0
4.281441	0.07089598	-0.01894634	0	0	0	0
4.298007	0.07089598	-0.01894634	0	0	0	0
4.314662	0.07089598	-0.01894634	0	0	0	0
4.331253	0.07089598	-0.01894634	0	0	0	0
4.347903	0.07089598	-0.01894634	0	0	0	0
4.364297	0.07089598	-0.01894634	0	0	0	0
4.383807	0.07089598	-0.01894634	0	0	0	0
4.400377	0.06967364	-0.01894634	-0.07376798	1.124101E-07	-2.044547	3.115547E-06
4.416944	0.06722895	-0.01894634	-0.1475657	-1.124327E-07	-2.227059	-6.785281E-06
4.433747	0.06478426	-0.01894634	-0.1454891	0	0.06222895	3.369274E-06
4.450078	0.06478426	-0.01894634	0	0	4.390996	0
4.466644	0.06478426	-0.01894634	0	0	0	0
4.483212	0.06478426	-0.01894634	0	0	0	0
4.499778	0.06356192	-0.01894634	-0.07378285	0	-2.226803	0
4.516356	0.06356192	-0.01894634	0	0	2.226098	0
4.532956	0.06233957	-0.01894634	-0.07363661	0	-2.219483	0
4.549561	0.06233957	-0.01894634	0	0	2.217666	0
4.566043	0.06233957	-0.01894634	0	0	0	0
4.582613	0.06233957	-0.01894634	0	0	0	0
4.59918	0.06233957	-0.01894634	0	0	0	0
4.615746	0.06111723	-0.01894634	-0.07378519	0	-2.226906	0
4.632643	0.06111723	-0.01894634	0	0	2.204978	0
4.649275	0.06111723	-0.01894634	0	0	0	0
4.66555	0.05989488	-0.01894634	-0.0751063	1.144487E-07	-2.282347	3.477894E-06
4.682011	0.05989488	-0.01894634	0	0	2.294349	-3.496182E-06
4.699076	0.05867254	-0.01894634	-0.07162641	-1.091467E-07	-2.136447	-3.255588E-06
4.715152	0.05745019	-0.01894634	-0.07603504	0	-0.1330239	3.293342E-06
4.731715	0.05622785	-0.01894634	-0.07380196	0	0.06841827	0
4.748281	0.0550055	-0.01894634	-0.07378732	0	0.0004419305	0
4.764847	0.05256081	-0.01894634	-0.1475702	1.12436E-07	-2.226931	3.393568E-06
4.78211	0.05133847	-0.01894634	-0.07080558	-1.078955E-07	2.269148	-6.512962E-06
4.797978	0.05133847	-0.01894634	0	0	2.137132	3.256622E-06
4.814783	0.05133847	-0.01894634	0	0	0	0
4.831113	0.05133847	-0.01894634	0	0	0	0
4.847764	0.05133847	-0.01894634	0	0	0	0
4.864249	0.05133847	-0.01894634	0	0	0	0
4.881139	0.05133847	-0.01894634	0	0	0	0
4.898803	0.05133847	-0.01894634	0	0	0	0
4.915373	0.05133847	-0.01894634	0	0	0	0
4.93194	0.05133847	-0.01894634	0	0	0	0
4.948682	0.05133847	-0.01894634	0	0	0	0
4.965076	0.05133847	-0.01894634	0	0	0	0
4.982108	0.05133847	-0.01894634	0	0	0	0
4.998726	0.05133847	-0.01894634	0	0	0	0
5.014771	0.05133847	-0.01894634	0	0	0	0
5.03134	0.05133847	-0.01894634	0	0	0	0
5.048164	0.05133847	-0.01894634	0	0	0	0
5.064544	0.05133847	-0.01894634	0	0	0	0
5.081042	0.05133847	-0.01894634	0	0	0	0
5.097614	0.05133847	-0.01894634	0	0	0	0
5.114176	0.05133847	-0.01894634	0	0	0	0
5.130742	0.05133847	-0.01894634	0	0	0	0
5.147522	0.05133847	-0.01894634	0	0	0	0
5.163876	0.05133847	-0.01894634	0	0	0	0
5.180443	0.05133847	-0.01894634	0	0	0	0
5.197115	0.05133847	-0.01894634	0	0	0	0
5.213583	0.05133847	-0.01894634	0	0	0	0
5.230889	0.05133847	-0.01894634	0	0	0	0
5.247033	0.05133847	-0.01894634	0	0	0	0
5.263275	0.05133847	-0.01894634	0	0	0	0
5.279842	0.05133847	-0.01894634	0	0	0	0
5.296799	0.05133847	-0.01894634	0	0	0	0
5.312975	0.05133847	-0.01894634	0	0	0	0
5.329539	0.05133847	-0.01894634	0	0	0	0
5.346109	0.05133847	-0.01894634	0	0	0	0
5.362675	0.05133847	-0.01894634	0	0	0	0
5.379242	0.05133847	-0.01894634	0	0	0	0
5.395936	0.05133847	-0.01894634	0	0	0	0
5.412373	0.05133847	-0.01894634	0	0	0	0
5.428962	0.05133847	-0.01894634	0	0	0	0
5.445505	0.05133847	-0.01894634	0	0	0	0
5.462219	0.05133847	-0.01894634	0	0	0	0
5.478652	0.05133847	-0.01894634	0	0	0	0
5.495209	0.05133847	-0.01894634	0	0	0	0
5.511775	0.05133847	-0.01894634	0	0	0	0
5.528788	0.05133847	-0.01894634	0	0	0	0
5.544909	0.05133847	-0.01894634	0	0	0	0
5.561475	0.05133847	-0.01894634	0	0	0	0
5.578223	0.05133847	-0.01894634	0	0	0	0
5.594606	0.05133847	-0.01894634	0	0	0	0
5.611394	0.05133847	-0.01894634	0	0	0	0
5.627742	0.05133847	-0.01894634	0	0	0	0
5.644377	0.05133847	-0.01894634	0	0	0	0
5.661282	0.05133847	-0.01894634	0	0	0	0
5.684079	0.05133847	-0.01894634	0	0	0	0
5.700649	0.05133847	-0.01894634	0	0	0	0
5.717579	0.05133847	-0.01894634	0	0	0	0
5.733864	0.05133847	-0.01894634	0	0	0	0
5.75035	0.05133847	-0.01894634	0	0	0	0
5.766916	0.05133847	-0.01894634	0	0	0	0
5.783867	0.05133847	-0.01894634	0	0	0	0
5.800049	0.05133847	-0.01894634	0	0	0	0
5.816616	0.05133847	-0.01894634	0	0	0	0
5.833183	0.05133847	-0.01894634	0	0	0	0
5.84975	0.05133847	-0.01894634	0	0	0	0
5.866316	0.05133847	-0.01894634	0	0	0	0
5.882882	0.05133847	-0.01894634	0	0	0	0
5.899449	0.05133847	-0.01894634	0	0	0	0
5.916017	0.05133847	-0.01894634	0	0	0	0
5.932583	0.05133847	-0.01894634	0	0	0	0
5.94915	0.05133847	-0.01894634	0	0	0	0
5.965715	0.05133847	-0.01894634	0	0	0	0
5.982283	0.05133847	-0.01894634	0	0	0	0
5.99896	0.05133847	-0.01894634	0	0	0	0
6.015417	0.05133847	-0.01894634	0	0	0	0
6.031983	0.05133847	-0.01894634	0	0	0	0
6.048549	0.05133847	-0.01894634	0	0	0	0
6.065117	0.05133847	-0.01894634	0	0	0	0
6.081744	0.05133847	-0.01894634	0	0	0	0
6.098249	0.05133847	-0.01894634	0	0	0	0
6.114817	0.05133847	-0.01894634	0	0	0	0
6.131384	0.05133847	-0.01894634	0	0	0	0
6.14795	0.05133847	-0.01894634	0	0	0	0
6.164889	0.05133847	-0.01894634	0	0	0	0
6.181087	0.05133847	-0.01894634	0	0	0	0
6.198326	0.05133847	-0.01894634	0	0	0	0
6.214222	0.05133847	-0.01894634	0	0	0	0
6.230784	0.05133847	-0.01894634	0	0	0	0
6.247484	0.05133847	-0.01894634	0	0	0	0
6.263935	0.05133847	-0.01894634	0	0	0	0
6.280486	0.05133847	-0.01894634	0	0	0	0
6.29728	0.05133847	-0.01894634	0	0	0	0
6.313962	0.05133847	-0.01894634	0	0	0	0
6.334309	0.05133847	-0.01894634	0	0	0	0
6.350881	0.05133847	-0.01894634	0	0	0	0
6.367448	0.05133847	-0.01894634	0	0	0	0
6.384012	0.05133847	-0.01894634	0	0	0	0
6.400579	0.05133847	-0.01894634	0	0	0	0
6.417146	0.05133847	-0.01894634	0	0	0	0
6.433713	0.05133847	-0.01894634	0	0	0	0
6.450512	0.05133847	-0.01894634	0	0	0	0
6.466846	0.05133847	-0.01894634	0	0	0	0
6.483422	0.05133847	-0.01894634	0	0	0	0
6.499985	0.05133847	-0.01894634	0	0	0	0
6.516548	0.05133847	-0.01894634	0	0	0	0
6.533835	0.05133847	-0.01894634	0	0	0	0
6.549681	0.05133847	-0.01894634	0	0	0	0
6.566362	0.05133847	-0.01894634	0	0	0	0
6.582813	0.05133847	-0.01650165	0	0.1486054	0	4.485243
6.599381	0.05011613	-0.003055861	-0.07377435	0.8115194	-2.234263	20.07641
6.616016	0.04522675	0.02139103	-0.2939223	1.469611	-6.630243	19.81988
6.632513	0.0330033	0.06417309	-0.7409649	2.593377	-13.49294	33.91827
6.649079	0.01833517	0.1057328	-0.8854212	2.508693	-4.369132	-2.561294
6.665648	0.001222344	0.1424031	-1.032843	2.213234	-4.449131	-8.91685
6.682215	-0.009778757	0.1717394	-0.6640469	1.770793	11.12996	-13.35252
6.69925	-0.01833517	0.1925193	-0.50227	1.219798	4.814468	-16.39757
6.715349	-0.02689158	0.2108544	-0.5315034	1.138936	-0.8822783	-2.440446
6.731915	-0.03422564	0.2353013	-0.4427106	1.475702	2.718303	10.30976
6.74848	-0.04278206	0.2646376	-0.5165405	1.770996	-2.228416	8.912879
6.765047	-0.05011613	0.2915291	-0.4426852	1.623178	2.229117	-4.46148
6.781615	-0.05622785	0.312309	-0.3688937	1.25424	2.227002	-11.13441
6.798185	-0.06356191	0.3318665	-0.4426084	1.18029	-2.224489	-2.231596
6.814749	-0.06478426	0.3355336	-0.07379604	0.2213868	11.13094	-28.94016
6.831315	-0.06478426	0.3355336	0	0	2.227458	-6.682332
6.847879	-0.06478426	0.3355336	0	0	0	0
6.864447	-0.06478426	0.3355336	0	0	0	0
6.881012	-0.06478426	0.3355336	0	0	0	0
6.897579	-0.06478426	0.3355336	0	0	0	0
6.914277	-0.06478426	0.3355336	0	0	0	0
6.930717	-0.06478426	0.3355336	0	0	0	0
6.947282	-0.06478426	0.3355336	0	0	0	0
6.96385	-0.06478426	0.3355336	0	0	0	0
6.980416	-0.06478426	0.3343112	0	-0.07378709	0	-2.226931
6.996984	-0.05378316	0.308642	0.6640083	-1.549352	20.04039	-44.53393
7.013549	-0.0440044	0.2903068	0.5903151	-1.106842	-2.224162	13.35557
7.030115	-0.01711282	0.2316343	1.623319	-3.541786	31.17926	-73.49416
7.046681	0.01589048	0.1546266	1.992198	-4.648462	11.13358	-33.40196
7.063248	0.04644909	0.08617529	1.844574	-4.131847	-4.455476	15.59214
7.080019	0.07578536	0.01772399	1.749193	-4.08145	-2.861031	1.511707
7.09703	0.08311943	-0.006722894	0.4311326	-1.437108	-39.0161	78.27552
7.11309	0.08678646	-0.02750275	0.2283415	-1.293937	-6.132074	4.32926
7.129512	0.0880088	-0.03728151	0.07443199	-0.595457	-4.738349	21.50383
7.146079	0.08923115	-0.04339323	0.07378118	-0.3689045	-0.01972774	6.867412
7.162644	0.08923115	-0.04706026	0	-0.2213743	-2.226881	4.452793
7.179212	0.08923115	-0.04950495	0	-0.1475574	0	2.227925
7.196159	0.08923115	-0.04950495	0	0	0	4.402668
7.212345	0.08923115	-0.04950495	0	0	0	0
7.229183	0.08923115	-0.04950495	0	0	0	0
7.245804	0.08923115	-0.04950495	0	0	0	0
7.262044	0.08923115	-0.04950495	0	0	0	0
7.278611	0.08923115	-0.04950495	0	0	0	0
7.295179	0.08923114	-0.0507273	-4.49705E-07	-0.07377882	-1.357212E-05	-2.226649
7.311803	0.08923115	-0.05194964	4.4817E-07	-0.07352678	2.705082E-05	0.007593531
7.328313	0.08923115	-0.05194964	0	0	-1.352599E-05	2.219074
7.34488	0.08923115	-0.05194964	0	0	0	0
7.361446	0.08923115	-0.05194964	0	0	0	0
7.378099	0.08923115	-0.05194964	0	0	0	0
7.394766	0.08923115	-0.05194964	0	0	0	0
7.411146	0.08923115	-0.05194964	0	0	0	0
7.427713	0.08923115	-0.05194964	0	0	0	0
7.444279	0.08923115	-0.05194964	0	0	0	0
7.461257	0.08923115	-0.05194964	0	0	0	0
7.477881	0.08923115	-0.05194964	0	0	0	0
7.49398	0.08923115	-0.05194964	0	0	0	0
7.510547	0.08923115	-0.05194964	0	0	0	0
7.527113	0.08923115	-0.05194964	0	0	0	0
7.54405	0.08923115	-0.05194964	0	0	0	0
7.560505	0.08923115	-0.05194964	0	0	0	0
7.576813	0.08923115	-0.05194964	0	0	0	0
7.628765	0.08923115	-0.05194964	0	0	0	0
7.645338	0.08923115	-0.05194964	0	0	0	0
7.66216	0.08923115	-0.05194964	0	0	0	0
7.696942	0.08923115	-0.05194964	0	0	0	0
7.713512	0.08923115	-0.05194964	0	0	0	0
7.730083	0.08923115	-0.05194964	0	0	0	0
7.746814	0.08556411	-0.05194964	-0.2191726	-2.226545E-07	-6.581398	-6.685953E-06
7.763811	0.08311943	-0.05194964	-0.1438275	2.191691E-07	2.233864	1.309937E-05
7.779784	0.08067474	-0.05194964	-0.1530552	-2.332298E-07	-0.2798828	-1.372155E-05
7.796347	0.07823005	-0.05072729	-0.1476001	0.07380029	0.1676656	2.268304
7.812912	0.0770077	-0.0507273	-0.07378922	-2.248849E-07	2.228034	-2.227721
7.829479	0.0770077	-0.0507273	0	0	2.227091	6.787429E-06
7.846043	0.0770077	-0.0507273	0	0	0	0
7.862664	0.0770077	-0.0507273	0	0	0	0
7.879231	0.0770077	-0.0507273	0	0	0	0
7.895857	0.07578535	-0.0507273	-0.07351879	0	-2.214849	0
7.912434	0.07578535	-0.0507273	0	0	2.214213	0
7.928878	0.07578535	-0.0507273	0	0	0	0
7.945446	0.07578535	-0.0507273	0	0	0	0
7.962012	0.07578535	-0.0507273	0	0	0	0
7.978579	0.07578535	-0.0507273	0	0	0	0
7.995146	0.07578535	-0.0507273	0	0	0	0
8.011712	0.07578535	-0.0507273	0	0	0	0
8.028278	0.07578535	-0.0507273	0	0	0	0
8.044846	0.07456301	-0.0507273	-0.07378072	0	-2.226771	0
8.061412	0.07456301	-0.0507273	0	0	2.226771	0
8.077979	0.07456301	-0.0507273	0	0	0	0
8.094543	0.07334067	-0.04950495	-0.07379347	0.07379347	-2.227284	2.227284
8.111111	0.07211833	-0.04950495	-0.07378072	0	0.0003847669	-2.227284
8.127692	0.06967364	-0.04828261	-0.1474346	0.0737173	-2.221919	2.223832
8.144245	0.06845129	-0.04706026	-0.07384448	0.07384471	2.220954	0.003845313
8.160811	0.0660066	-0.04706026	-0.1475704	0	-2.226077	-2.229665
8.177379	0.06478426	-0.04583792	-0.07378072	0.07378072	2.227041	2.226771
8.193944	0.06356191	-0.04583792	-0.07378967	2.248849E-07	-0.0002700712	-2.226828
8.210699	0.06356191	-0.04583792	0	0	2.214548	-6.749159E-06
8.227353	0.06233957	-0.04583792	-0.07339603	0	-2.196886	0
8.243644	0.06233957	-0.04583792	0	0	2.227857	0
8.26021	0.06233957	-0.04583792	0	0	0	0
8.276901	0.06233957	-0.04583792	0	0	0	0
8.293344	0.06233957	-0.04583792	0	0	0	0
8.309925	0.06111723	-0.04583792	-0.07371707	-2.24665E-07	-2.232239	-6.803116E-06
8.326475	0.06111722	-0.04461557	-2.250922E-07	0.07385748	2.224971	2.229222
8.343041	0.06111722	-0.04461557	0	0	6.797013E-06	-2.230243
8.35997	0.06111722	-0.04461557	0	0	0	0
8.376178	0.05989488	-0.04461557	-0.07541763	0	-2.275978	0
8.392743	0.05989488	-0.04339323	2.248849E-07	0.07378922	2.301218	2.251523
8.409309	0.05989488	-0.04339323	0	0	-6.787624E-06	-2.227155
8.425876	0.05989488	-0.04339323	0	0	0	0
8.442444	0.05989488	-0.04339323	0	0	0	0
8.45901	0.05989488	-0.04339323	0	0	0	0
8.475575	0.05989488	-0.04339323	0	0	0	0
8.492143	0.05989488	-0.04339323	0	0	0	0
8.508778	0.05989488	-0.04339323	0	0	0	0
8.525277	0.05989488	-0.04339323	0	0	0	0
8.542153	0.05989488	-0.04339323	0	0	0	0
8.558537	0.05989488	-0.04339323	0	0	0	0
8.574979	0.05989488	-0.04339323	0	0	0	0
8.591765	0.05989488	-0.04339323	0	0	0	0
8.60811	0.05989488	-0.04339323	0	0	0	0
8.624679	0.05989488	-0.04339323	0	0	0	0
8.641245	0.05989488	-0.04339323	0	0	0	0
8.657811	0.05989488	-0.04339323	0	0	0	0
8.674376	0.05989488	-0.04339323	0	0	0	0
8.690946	0.05989488	-0.04339323	0	0	0	0
8.707512	0.05989488	-0.04339323	0	0	0	0
8.724078	0.05989488	-0.04339323	0	0	0	0
8.740644	0.05989488	-0.04339323	0	0	0	0
8.757213	0.05989488	-0.04339323	0	0	0	0
8.77378	0.05989488	-0.04339323	0	0	0	0
8.790868	0.05989488	-0.04339323	0	0	0	0
8.806911	0.05989488	-0.04339323	0	0	0	0
8.82348	0.05989488	-0.04339323	0	0	0	0
8.840132	0.05989488	-0.04339323	0	0	0	0
8.856613	0.05989488	-0.04339323	0	0	0	0
8.87318	0.05989488	-0.04339323	0	0	0	0
8.889747	0.05989488	-0.04339323	0	0	0	0
8.906313	0.05989488	-0.04339323	0	0	0	0
8.92288	0.05989488	-0.04339323	0	0	0	0
8.939445	0.05989488	-0.04339323	0	0	0	0
8.956013	0.05989488	-0.04339323	0	0	0	0
8.972597	0.05989488	-0.04339323	0	0	0	0
9.006778	0.05989488	-0.04339323	0	0	0	0
9.023757	0.05989488	-0.04339323	0	0	0	0
9.039915	0.05989488	-0.04339323	0	0	0	0
9.056481	0.05989488	-0.04339323	0	0	0	0
9.07341	0.05989488	-0.04339323	0	0	0	0
9.089615	0.05989488	-0.04339323	0	0	0	0
9.106197	0.05989488	-0.04339323	0	0	0	0
9.122809	0.05989488	-0.04339323	0	0	0	0
9.139315	0.05989488	-0.04339323	0	0	0	0
9.155884	0.05989488	-0.04339323	0	0	0	0
9.172451	0.05989488	-0.04339323	0	0	0	0
9.18937	0.05989488	-0.04339323	0	0	0	0
9.205584	0.05989488	-0.04339323	0	0	0	0
9.22215	0.05989488	-0.04339323	0	0	0	0
9.238893	0.05989488	-0.04339323	0	0	0	0
9.256046	0.05989488	-0.04339323	0	0	0	0
9.272168	0.05989488	-0.04339323	0	0	0	0
9.288722	0.05989488	-0.04339323	0	0	0	0
9.304987	0.05989488	-0.04339323	0	0	0	0
9.321862	0.05989488	-0.04339323	0	0	0	0
9.338434	0.05989488	-0.04339323	0	0	0	0
9.354686	0.05989488	-0.04339323	0	0	0	0
9.371252	0.05989488	-0.04339323	0	0	0	0
9.388157	0.05989488	-0.04339323	0	0	0	0
9.404381	0.05989488	-0.04339323	0	0	0	0
9.420947	0.05989488	-0.04339323	0	0	0	0
9.437689	0.05989488	-0.04339323	0	0	0	0
9.454079	0.05989488	-0.04339323	0	0	0	0
9.470715	0.05989488	-0.04339323	0	0	0	0
9.487212	0.05989488	-0.04339323	0	0	0	0
9.503778	0.05989488	-0.04339323	0	0	0	0
9.520347	0.05989488	-0.04339323	0	0	0	0
9.536913	0.05989488	-0.04339323	0	0	0	0
9.553767	0.05989488	-0.04339323	0	0	0	0
9.570047	0.05989488	-0.04339323	0	0	0	0
9.587305	0.05989488	-0.04339323	0	0	0	0
9.603179	0.05989488	-0.04339323	0	0	0	0
9.619748	0.05989488	-0.04339323	0	0	0	0
9.636368	0.05989488	-0.04339323	0	0	0	0
9.652879	0.05989488	-0.04339323	0	0	0	0
9.669447	0.05989488	-0.04339323	0	0	0	0
9.686017	0.05989488	-0.04339323	0	0	0	0
9.703367	0.05989488	-0.04339323	0	0	0	0
9.719301	0.05989488	-0.04339323	0	0	0	0
9.735715	0.05989488	-0.04339323	0	0	0	0
9.752283	0.05989488	-0.04339323	0	0	0	0
9.768847	0.05989488	-0.04339323	0	0	0	0
9.785439	0.05989488	-0.04339323	0	0	0	0
9.802632	0.05989488	-0.04339323	0	0	0	0
9.81855	0.05989488	-0.04339323	0	0	0	0
9.835115	0.05989488	-0.04339323	0	0	0	0
9.852143	0.05989488	-0.04339323	0	0	0	0
9.869078	0.05989488	-0.04339323	0	0	0	0
9.885225	0.05989488	-0.04339323	0	0	0	0
9.901383	0.05989488	-0.04339323	0	0	0	0
9.918262	0.05989488	-0.04339323	0	0	0	0
9.934516	0.05989488	-0.04339323	0	0	0	0
9.951124	0.05989488	-0.04339323	0	0	0	0
9.967649	0.05989488	-0.04339323	0	0	0	0
9.984216	0.05989488	-0.04339323	0	0	0	0
10.00121	0.05989488	-0.04339323	0	0	0	0
10.01735	0.05989488	-0.04339323	0	0	0	0
10.03394	0.05989488	-0.04339323	0	0	0	0
10.05064	0.05989488	-0.04339323	0	0	0	0
10.06705	0.05989488	-0.04339323	0	0	0	0
10.08361	0.05989488	-0.04339323	0	0	0	0
10.10018	0.05989488	-0.04339323	0	0	0	0
10.11697	0.05989488	-0.04339323	0	0	0	0
10.13331	0.05989488	-0.04339323	0	0	0	0
10.14988	0.05989488	-0.04339323	0	0	0	0
10.16645	0.05989488	-0.04339323	0	0	0	0
10.18315	0.05989488	-0.04339323	0	0	0	0
10.19958	0.05989488	-0.04339323	0	0	0	0
10.21615	0.05989488	-0.04339323	0	0	0	0
10.23363	0.05989488	-0.04339323	0	0	0	0
10.24928	0.05989488	-0.04339323	0	0	0	0
10.26585	0.05989488	-0.04339323	0	0	0	0
10.28241	0.05989488	-0.04339323	0	0	0	0
10.29903	0.05989488	-0.04339323	0	0	0	0
10.31555	0.05989488	-0.04339323	0	0	0	0
10.33211	0.05989488	-0.04339323	0	0	0	0
10.34868	0.05989488	-0.04339323	0	0	0	0
10.36525	0.05989488	-0.04339323	0	0	0	0
10.38181	0.05989488	-0.04339323	0	0	0	0
10.39838	0.05989488	-0.04339323	0	0	0	0
10.41503	0.05989488	-0.04339323	0	0	0	0
10.43151	0.05989488	-0.04339323	0	0	0	0
10.44864	0.05989488	-0.04339323	0	0	0	0
10.46465	0.05989488	-0.04339323	0	0	0	0
10.48175	0.05989488	-0.04339323	0	0	0	0
10.49802	0.05989488	-0.04339323	0	0	0	0
10.51435	0.05989488	-0.04339323	0	0	0	0
10.53113	0.05989488	-0.04339323	0	0	0	0
10.54748	0.05989488	-0.04339323	0	0	0	0
10.56472	0.05989488	-0.04339323	0	0	0	0
10.58062	0.05989488	-0.04339323	0	0	0	0
10.59741	0.05989488	-0.04339323	0	0	0	0
10.61391	0.05989488	-0.04339323	0	0	0	0
10.63046	0.05989488	-0.04339323	0	0	0	0
10.64696	0.05989488	-0.04339323	0	0	0	0
10.66345	0.05989488	-0.04339323	0	0	0	0
10.68002	0.05989488	-0.04339323	0	0	0	0
10.69658	0.05989488	-0.04339323	0	0	0	0
10.71315	0.05989488	-0.04339323	0	0	0	0
10.72971	0.05989488	-0.04339323	0	0	0	0
10.74654	0.05989488	-0.04339323	0	0	0	0
10.76285	0.05989488	-0.04339323	0	0	0	0
10.77942	0.05989488	-0.04339323	0	0	0	0
10.79651	0.05989488	-0.04339323	0	0	0	0
10.81255	0.05989488	-0.04339323	0	0	0	0
10.82912	0.05989488	-0.04339323	0	0	0	0
10.84569	0.05989488	-0.04339323	0	0	0	0
10.86225	0.05989488	-0.04339323	0	0	0	0
10.8789	0.05989488	-0.04339323	0	0	0	0
10.89539	0.05989488	-0.04339323	0	0	0	0
10.91208	0.05989488	-0.04339323	0	0	0	0
10.92852	0.05989488	-0.04339323	0	0	0	0
10.94508	0.05989488	-0.04339323	0	0	0	0
10.96165	0.05989488	-0.04339323	0	0	0	0
10.97821	0.05989488	-0.04339323	0	0	0	0
10.99482	0.05989488	-0.04339323	0	0	0	0
11.01164	0.05989488	-0.04339323	0	0	0	0
11.02799	0.05989488	-0.04339323	0	0	0	0
11.04457	0.05989488	-0.04339323	0	0	0	0
11.06105	0.05989488	-0.04339323	0	0	0	0
11.07761	0.05989488	-0.04339323	0	0	0	0
11.09418	0.05989488	-0.04339323	0	0	0	0
11.11075	0.05989488	-0.04339323	0	0	0	0
11.12731	0.05989488	-0.04339323	0	0	0	0
11.14396	0.05989488	-0.04339323	0	0	0	0
11.16045	0.05989488	-0.04339323	0	0	0	0
11.17701	0.05989488	-0.04339323	0	0	0	0
11.19358	0.05989488	-0.04339323	0	0	0	0
11.21015	0.05989488	-0.04339323	0	0	0	0
11.22671	0.05989488	-0.04339323	0	0	0	0
11.24328	0.06111723	-0.04339323	0.07378095	0	2.226841	0
11.25985	0.06722895	-0.04583792	0.3689043	-0.1475617	8.90684	-4.45342
11.27651	0.08189709	-0.0482826	0.8804039	-0.1467337	15.39367	0.02491829
11.29363	0.1185674	-0.05317199	2.141317	-0.2855093	37.32078	-4.107511
11.30955	0.1515707	-0.05561668	2.073734	-0.1536099	-2.045497	3.992109
11.32611	0.180907	-0.05928371	1.771046	-0.2213809	-9.319413	-2.086591
11.34268	0.2041315	-0.0617284	1.401837	-0.1475617	-11.14372	2.22806
11.35925	0.2175773	-0.06295074	0.8115898	-0.0737805	-17.81368	2.22672
11.37653	0.2212444	-0.06295075	0.2121942	-4.311296E-07	-17.70805	2.179698
11.39238	0.2212444	-0.06295075	0	0	-6.404035	1.301152E-05
11.40911	0.2285784	-0.06784012	0.4383452	-0.29223	13.4527	-8.968459
11.42551	0.2420242	-0.07761887	0.8198946	-0.5962874	11.51651	-9.177526
11.44208	0.25547	-0.08617529	0.8115907	-0.5164664	-0.2518876	2.421266
11.45864	0.2762499	-0.09228701	1.254274	-0.3689045	13.36021	4.453427
11.47521	0.298252	-0.09595404	1.328284	-0.2213804	2.233823	4.452672
11.49178	0.3165872	-0.09717638	1.106585	-0.07377223	-6.691082	4.454951
11.50845	0.3324777	-0.09717638	0.9529525	0	-4.62135	2.219105
11.52502	0.3495905	-0.09595405	1.032874	0.07377603	2.404158	2.219283
11.54148	0.3605916	-0.09350935	0.6684903	0.1485538	-11.03365	2.264294
11.55804	0.3605916	-0.09350935	0	0	-20.24325	-4.498513
11.57478	0.3605916	-0.09350935	0	0	0	0
11.59118	0.3605916	-0.09350935	0	0	0	0
11.60795	0.361814	-0.09717639	0.07285804	-0.2185746	2.195953	-6.587872
11.62431	0.365481	-0.1020658	0.2241812	-0.2989087	4.566942	-2.42449
11.64088	0.365481	-0.1020658	0	0	-6.809114	9.078833
11.65744	0.3679257	-0.1032881	0.1475699	-0.07378497	4.453926	-2.226963
11.68644	0.3679257	-0.1032881	0	0	-3.238965	1.619482
11.70301	0.3679257	-0.1032881	0	0	0	0
11.7198	0.3679257	-0.1032881	0	0	0	0
11.73616	0.3667034	-0.1032881	-0.07473397	0	-2.254632	0
11.75271	0.365481	-0.1020658	-0.07383353	0.07383172	0.0273596	2.243355
11.76948	0.3642586	-0.1020658	-0.07290778	0	0.02778245	-2.215746
11.78584	0.361814	-0.09962107	-0.1493932	0.1493936	-2.308666	4.509358
11.80241	0.3508129	-0.0947317	-0.6640666	0.2951399	-15.62914	4.425891
11.81902	0.3434788	-0.092287	-0.4414392	0.1471473	6.709637	-4.460263
11.83554	0.3214766	-0.08739763	-1.331967	0.2959919	-26.87773	4.492397
11.85211	0.2970297	-0.0837306	-1.475701	0.2213554	-4.344409	-2.25591
11.86867	0.2750275	-0.08128591	-1.328131	0.1475704	4.453925	-2.226963
11.88524	0.2566923	-0.07884122	-1.106776	0.1475699	6.680891	-1.349231E-05
11.90181	0.2346901	-0.07517419	-1.328132	0.2213554	-6.680916	2.226977
11.91837	0.1967975	-0.06539543	-2.287206	0.5902472	-28.94574	11.1335
11.93494	0.1735729	-0.05928371	-1.401918	0.3689253	26.71882	-6.679699
11.95154	0.1637942	-0.05561667	-0.5891276	0.2209234	24.50749	-4.462596
11.96807	0.1589048	-0.05194964	-0.2956846	0.2217634	8.856128	0.02535195
11.98464	0.1527931	-0.04950495	-0.3689258	0.1475702	-2.212588	-2.241351
12.00121	0.1479037	-0.04828261	-0.2951229	0.07378095	2.227439	-2.227027
12.01777	0.1320132	-0.04339323	-0.9592074	0.2951406	-20.04268	6.680839
12.03434	0.1112333	-0.0397262	-1.25413	0.2213169	-8.900531	-2.227938
12.05091	0.09656522	-0.03850385	-0.885421	0.07378519	11.12734	-4.452388
12.06748	0.08556412	-0.03605916	-0.6640657	0.1475702	6.680903	2.226963
12.08404	0.08189708	-0.03361447	-0.2213431	0.1475619	13.36178	-0.0002496006
12.10061	0.08067474	-0.03361448	-0.07378497	-2.248719E-07	4.45344	-4.453562
12.11718	0.08067474	-0.03361448	0	0	2.226963	6.787038E-06
12.13374	0.08067474	-0.03361448	0	0	0	0
12.15031	0.08067474	-0.03361448	0	0	0	0
12.16687	0.08067474	-0.03361448	0	0	0	0
12.18344	0.08067474	-0.03361448	0	0	0	0
12.20001	0.08067474	-0.03361448	0	0	0	0
12.21657	0.08067474	-0.03361448	0	0	0	0
12.23314	0.08067474	-0.03361448	0	0	0	0
12.24971	0.08067474	-0.03361448	0	0	0	0
12.26627	0.08067474	-0.03361448	0	0	0	0
12.28299	0.08067474	-0.03361448	0	0	0	0
12.29956	0.08067474	-0.03361448	0	0	0	0
12.31612	0.08067474	-0.03361448	0	0	0	0
12.33269	0.08067474	-0.03361448	0	0	0	0
12.34926	0.08067474	-0.03361448	0	0	0	0
12.36583	0.08067474	-0.03361448	0	0	0	0
12.3824	0.08067474	-0.03361448	0	0	0	0
12.39896	0.08067474	-0.03361448	0	0	0	0
12.41552	0.08067474	-0.03361448	0	0	0	0
12.43233	0.08067474	-0.03361448	0	0	0	0
12.44866	0.08067474	-0.03361448	0	0	0	0
12.46522	0.08067474	-0.03361448	0	0	0	0
12.48254	0.08067474	-0.03361448	0	0	0	0
12.49853	0.08067474	-0.03361448	0	0	0	0
12.51502	0.08067474	-0.03361448	0	0	0	0
12.53217	0.08067474	-0.03361448	0	0	0	0
12.54824	0.08067474	-0.03361448	0	0	0	0
12.56474	0.08067474	-0.03361448	0	0	0	0
12.58125	0.07823005	-0.03239213	-0.1480306	0.07401528	-4.484609	2.242305
12.59776	0.07578535	-0.03116978	-0.1480904	0.07404521	-0.001812621	0.0009063105
12.61449	0.07456302	-0.0287251	-0.07304445	0.1460899	2.25755	2.167264
12.6311	0.07334067	-0.0287251	-0.07362013	0	-0.01726831	-4.382137
12.64746	0.07089598	-0.02628041	-0.1494111	0.1494109	-2.299087	4.53232
12.66426	0.06967364	-0.02505806	-0.07274227	0.07274249	2.311673	-2.311662
12.68066	0.06967364	-0.02505806	0	0	2.191078	-2.191084
12.69716	0.06967364	-0.02505806	0	0	0	0
12.71372	0.06967364	-0.02505806	0	0	0	0
12.73029	0.06845129	-0.02505806	-0.07378497	0	-2.226963	0
12.74718	0.06722895	-0.02505806	-0.0723726	-2.205675E-07	0.04221592	-6.592792E-06
12.76342	0.0660066	-0.02505806	-0.07525402	1.146739E-07	-0.08696651	1.011819E-05
12.78048	0.06478426	-0.02383572	-0.07165243	0.07165255	0.1081483	2.151576
12.79656	0.06233957	-0.02383572	-0.1520972	1.15885E-07	-2.427966	-2.162599
12.81312	0.05867253	-0.02261337	-0.2213426	0.07378083	-2.121461	2.260407
12.82969	0.05378316	-0.02139103	-0.2951401	0.07378508	-2.227277	0.0001281733
12.84627	0.04644909	-0.01894634	-0.4423542	0.1474514	-4.441397	2.222488
12.86282	0.03789268	-0.01650165	-0.5169123	0.1476892	-2.250296	0.007175663
12.87977	0.03055861	-0.01527931	-0.4327702	0.07212829	2.511725	-2.255569
12.89596	0.01955751	-0.01161227	-0.6795977	0.2265326	-7.44927	4.659931
12.91321	0.01589048	-0.01038993	-0.2125926	0.07086419	13.96681	-4.655604
12.92909	0.01466813	-0.009167585	-0.07697098	0.07697098	4.093657	0.1843297
12.94566	0.01466813	-0.009167585	0	0	2.371868	-2.371868
12.96223	0.01466813	-0.009167585	0	0	0	0
12.97905	0.01466813	-0.009167585	0	0	0	0
12.99545	0.01466813	-0.009167585	0	0	0	0
13.01197	0.01466813	-0.009167585	0	0	0	0
13.02851	0.01466813	-0.009167585	0	0	0	0
13.04602	0.01466813	-0.009167585	0	0	0	0
13.06163	0.01466813	-0.009167585	0	0	0	0
13.07819	0.01466813	-0.009167585	0	0	0	0
13.09476	0.01466813	-0.009167585	0	0	0	0
13.11133	0.01466813	-0.009167585	0	0	0	0
13.1279	0.01466813	-0.009167585	0	0	0	0
13.14446	0.01466813	-0.009167585	0	0	0	0
13.16102	0.01466813	-0.009167585	0	0	0	0
13.17759	0.01466813	-0.009167585	0	0	0	0
13.19415	0.01466813	-0.009167585	0	0	0	0
13.21072	0.01466813	-0.009167585	0	0	0	0
13.22773	0.01466813	-0.009167585	0	0	0	0
13.24386	0.01466813	-0.009167585	0	0	0	0
13.26045	0.01466813	-0.009167585	0	0	0	0
13.27707	0.01466813	-0.009167585	0	0	0	0
13.29356	0.01344579	-0.009167583	-0.07412229	1.129496E-07	-2.239077	3.411969E-06
13.31012	0.01344579	-0.009167583	0	0	2.242243	-3.416792E-06
13.32704	0.01222344	-0.009167584	-0.07227477	-5.506724E-08	-2.158826	-1.644842E-06
13.34326	0.01222344	-0.009167584	0	0	2.181382	1.662028E-06
13.35983	0.01222344	-0.009167584	0	0	0	0
13.37659	0.0110011	-0.009167584	-0.0728955	0	-2.186586	0
13.39296	0.009778757	-0.009167585	-0.07469665	-5.691255E-08	-0.05436166	-1.717723E-06
13.40952	0.009778757	-0.009167585	0	0	2.268386	1.728319E-06
13.42609	0.009778757	-0.009167585	0	0	0	0
13.44278	0.009778757	-0.009167585	0	0	0	0
13.45922	0.009778757	-0.009167585	0	0	0	0
13.47581	0.009778757	-0.009167585	0	0	0	0
13.49236	0.009778757	-0.009167585	0	0	0	0
13.5498	0.009778757	-0.009167585	0	0	0	0
13.56637	0.009778757	-0.009167585	0	0	0	0
13.58294	0.009778757	-0.009167585	0	0	0	0
13.59951	0.009778757	-0.009167585	0	0	0	0
13.61682	0.009778757	-0.009167585	0	0	0	0
13.63264	0.009778757	-0.009167585	0	0	0	0
13.64921	0.009778757	-0.009167585	0	0	0	0
13.66577	0.009778757	-0.009167585	0	0	0	0
13.68234	0.009778757	-0.009167585	0	0	0	0
13.69919	0.009778757	-0.009167585	0	0	0	0
13.71547	0.009778757	-0.009167585	0	0	0	0
13.73205	0.009778757	-0.009167585	0	0	0	0
13.74897	0.009778757	-0.009167585	0	0	0	0
13.76554	0.009778757	-0.009167585	0	0	0	0
13.78211	0.009778757	-0.009167585	0	0	0	0
13.79889	0.009778757	-0.009167585	0	0	0	0
13.81524	0.009778757	-0.009167585	0	0	0	0
13.83185	0.009778757	-0.009167585	0	0	0	0
13.84838	0.009778757	-0.009167585	0	0	0	0
13.86494	0.009778757	-0.009167585	0	0	0	0
13.88151	0.009778757	-0.009167585	0	0	0	0
13.89853	0.009778757	-0.009167585	0	0	0	0
13.91464	0.009778757	-0.009167585	0	0	0	0
13.93176	0.009778757	-0.009167585	0	0	0	0
13.94778	0.009778757	-0.009167585	0	0	0	0
13.96435	0.009778757	-0.009167585	0	0	0	0
13.98091	0.009778757	-0.009167585	0	0	0	0
13.99748	0.009778757	-0.009167585	0	0	0	0
14.01404	0.009778757	-0.009167585	0	0	0	0
14.03061	0.009778757	-0.009167585	0	0	0	0
14.04718	0.009778757	-0.009167585	0	0	0	0
14.06374	0.009778757	-0.009167585	0	0	0	0
14.08035	0.009778757	-0.009167585	0	0	0	0
14.09692	0.009778757	-0.009167585	0	0	0	0
14.11344	0.009778757	-0.009167585	0	0	0	0
14.13001	0.009778757	-0.009167585	0	0	0	0
14.14657	0.009778757	-0.009167585	0	0	0	0
14.16323	0.009778757	-0.009167585	0	0	0	0
14.17981	0.009778757	-0.009167585	0	0	0	0
14.19628	0.009778757	-0.009167585	0	0	0	0
14.21284	0.009778757	-0.009167585	0	0	0	0
14.22971	0.009778757	-0.009167585	0	0	0	0
14.24629	0.009778757	-0.009167585	0	0	0	0
14.26373	0.009778757	-0.009167585	0	0	0	0
14.2803	0.009778757	-0.009167585	0	0	0	0
14.29687	0.009778757	-0.009167585	0	0	0	0
14.31343	0.009778757	-0.009167585	0	0	0	0
14.33	0.009778757	-0.009167585	0	0	0	0
14.34657	0.009778757	-0.009167585	0	0	0	0
14.36346	0.009778757	-0.009167585	0	0	0	0
14.3797	0.009778757	-0.009167585	0	0	0	0
14.39626	0.009778757	-0.009167585	0	0	0	0
14.41283	0.009778757	-0.009167585	0	0	0	0
14.4294	0.009778757	-0.009167585	0	0	0	0
14.44596	0.009778757	-0.009167585	0	0	0	0
14.46255	0.009778757	-0.009167585	0	0	0	0
14.47932	0.009778757	-0.009167585	0	0	0	0
14.49588	0.009778757	-0.009167585	0	0	0	0
14.51229	0.009778757	-0.009167585	0	0	0	0
14.5288	0.009778757	-0.009167585	0	0	0	0
14.54537	0.009778757	-0.009167585	0	0	0	0
14.56193	0.009778757	-0.009167585	0	0	0	0
14.57856	0.009778757	-0.009167585	0	0	0	0
14.59507	0.009778757	-0.009167585	0	0	0	0
14.61213	0.009778757	-0.009167585	0	0	0	0
14.62873	0.009778757	-0.009167585	0	0	0	0
14.64492	0.009778757	-0.009167585	0	0	0	0
14.66134	0.009778757	-0.009167585	0	0	0	0
14.67824	0.009778757	-0.009167585	0	0	0	0
14.69481	0.009778757	-0.009167585	0	0	0	0
14.71105	0.009778757	-0.009167585	0	0	0	0
14.7276	0.009778757	-0.009167585	0	0	0	0
14.74462	0.009778757	-0.009167585	0	0	0	0
14.76104	0.009778757	-0.009167585	0	0	0	0
14.77758	0.009778757	-0.009167585	0	0	0	0
14.79411	0.009778757	-0.009167585	0	0	0	0
14.81043	0.009778757	-0.009167585	0	0	0	0
14.82741	0.009778757	-0.009167585	0	0	0	0
14.84375	0.009778757	-0.009167585	0	0	0	0
14.86014	0.009778757	-0.009167585	0	0	0	0
14.8767	0.009778757	-0.009167585	0	0	0	0
14.89327	0.009778757	-0.009167585	0	0	0	0
14.91592	0.009778757	-0.009167585	0	0	0	0
14.93249	0.009778757	-0.009167585	0	0	0	0
14.94906	0.009778757	-0.009167585	0	0	0	0
14.9662	0.009778757	-0.009167585	0	0	0	0
14.98219	0.009778757	-0.009167585	0	0	0	0
14.99876	0.009778757	-0.009167585	0	0	0	0
15.01533	0.009778757	-0.009167585	0	0	0	0
15.03189	0.009778757	-0.009167585	0	0	0	0
15.04846	0.009778757	-0.009167585	0	0	0	0
15.06503	0.009778757	-0.009167585	0	0	0	0
15.08159	0.009778757	-0.009167585	0	0	0	0
15.09816	0.009778757	-0.009167585	0	0	0	0
15.11473	0.009778757	-0.009167585	0	0	0	0
15.13129	0.009778757	-0.009167585	0	0	0	0
15.14786	0.009778757	-0.009167585	0	0	0	0
15.16442	0.009778757	-0.009167585	0	0	0	0
15.18103	0.009778757	-0.009167585	0	0	0	0
15.19768	0.009778757	-0.009167585	0	0	0	0
15.21423	0.009778757	-0.009167585	0	0	0	0
15.23069	0.009778757	-0.009167585	0	0	0	0
15.24726	0.009778757	-0.009167585	0	0	0	0
15.26386	0.009778757	-0.009167585	0	0	0	0
15.28039	0.009778757	-0.009167585	0	0	0	0
15.29696	0.009778757	-0.009167585	0	0	0	0
15.31394	0.009778757	-0.009167585	0	0	0	0
15.33009	0.009778757	-0.009167585	0	0	0	0
15.34682	0.009778757	-0.009167585	0	0	0	0
15.36322	0.009778757	-0.009167585	0	0	0	0
15.38005	0.009778757	-0.009167585	0	0	0	0
15.39636	0.009778757	-0.009167585	0	0	0	0
15.41328	0.009778757	-0.009167585	0	0	0	0
15.43005	0.009778757	-0.009167585	0	0	0	0
15.44606	0.009778757	-0.009167585	0	0	0	0
15.46339	0.009778757	-0.009167585	0	0	0	0
15.47933	0.009778757	-0.009167585	0	0	0	0
15.49577	0.009778757	-0.009167585	0	0	0	0
15.51232	0.01222345	-0.01650165	0.1477148	-0.4431442	4.477112	-13.43133
15.52915	0.02077986	-0.03361448	0.5086194	-1.017239	10.81431	-17.20244
15.54546	0.03178095	-0.0592837	0.6745111	-1.573859	5.00691	-16.79979
15.56202	0.04644909	-0.0947317	0.8853705	-2.139645	6.413591	-17.20919
15.58086	0.06845129	-0.1436255	1.168269	-2.596154	7.991399	-12.8956
15.59761	0.09656522	-0.2145215	1.677836	-4.231065	14.31802	-45.93837
15.61399	0.09656522	-0.2145215	0	0	-50.63429	127.6864
15.63057	0.106344	-0.237746	0.5899415	-1.401111	17.90082	-42.51442
15.6477	0.1112334	-0.2585259	0.28535	-1.212739	-9.035515	5.587922
15.6638	0.1149004	-0.2793057	0.2277531	-1.290603	-1.732989	-2.342791
15.68026	0.1161227	-0.2915291	0.07427716	-0.742767	-4.713999	16.82673
15.69683	0.1173451	-0.3000856	0.07378497	-0.5164966	-0.01490437	6.851929
15.71346	0.1185674	-0.3049749	0.07346777	-0.2938711	-0.009553074	6.704764
15.72996	0.1185674	-0.3061973	0	-0.07410064	-2.217325	6.632876
15.74652	0.1185674	-0.3061973	0	0	0	2.241458
15.8157	0.1185674	-0.3061973	0	0	0	0
15.83227	0.1185674	-0.3061973	0	0	0	0
15.84884	0.1185674	-0.3061973	0	0	0	0
15.86544	0.1185674	-0.3061973	0	0	0	0
15.88208	0.1185674	-0.3061973	0	0	0	0
15.89899	0.1185674	-0.3061973	0	0	0	0
15.9151	0.1185674	-0.3061973	0	0	0	0
15.93213	0.1197898	-0.3037526	0.0717978	0.1435938	2.166862	4.333671
15.94824	0.1197898	-0.2854174	-4.625518E-07	1.138296	-2.167001	30.02188
15.9648	0.1185674	-0.2609706	-0.07378497	1.475701	-2.258214	10.32648
15.98137	0.1124557	-0.2108544	-0.3689262	3.02519	-8.907892	46.76636
15.99805	0.09412053	-0.1387361	-1.099308	4.323949	-21.96963	39.0662
16.01451	0.07823005	-0.08495294	-0.9655434	3.267991	4.036801	-31.86704
16.03146	0.06845129	-0.05561667	-0.576832	1.730497	11.63456	-46.01889
16.04764	0.06111723	-0.03361448	-0.4532786	1.359836	3.729064	-11.18722
16.0651	0.05378316	-0.02016868	-0.4199153	0.7698446	0.9916091	-17.53545
16.08077	0.05133847	-0.01527931	-0.1560033	0.3120061	7.964422	-13.8168
16.09734	0.05133847	-0.01527931	0	0	4.839396	-9.67878
16.11404	0.05133847	-0.01527931	0	0	0	0
16.13048	0.05133847	-0.01527931	0	0	0	0
16.14704	0.05133847	-0.01527931	0	0	0	0
16.16368	0.05133847	-0.01527931	0	0	0	0
16.18017	0.05133847	-0.01527931	0	0	0	0
16.19674	0.05133847	-0.01527931	0	0	0	0
16.21337	0.05133847	-0.01527931	0	0	0	0
16.22994	0.05133847	-0.01527931	0	0	0	0
16.24655	0.05133847	-0.01527931	0	0	0	0
16.26301	0.05011613	-0.01405696	-0.0742681	0.07426821	-2.246329	2.246333
16.27962	0.05011613	-0.01405696	0	0	2.24594	-2.245944
16.29627	0.04889378	-0.01405696	-0.07340931	5.593142E-08	-2.207112	1.681625E-06
16.31271	0.04889378	-0.01405696	0	0	2.218435	-1.690251E-06
16.32927	0.04889378	-0.01405696	0	0	0	0
16.34584	0.04889378	-0.01405696	0	0	0	0
16.36284	0.04889378	-0.01405696	0	0	0	0
16.37897	0.04889378	-0.01405696	0	0	0	0
16.39561	0.04889378	-0.01405696	0	0	0	0
16.41211	0.04889378	-0.01405696	0	0	0	0
16.42867	0.04889378	-0.01405696	0	0	0	0
16.44524	0.04889378	-0.01405696	0	0	0	0
16.46181	0.04889378	-0.01405696	0	0	0	0
16.4784	0.04889378	-0.01405696	0	0	0	0
16.49495	0.04889378	-0.01405696	0	0	0	0
16.51151	0.04889378	-0.01405696	0	0	0	0
16.52809	0.04889378	-0.01405696	0	0	0	0
16.54465	0.04889378	-0.01405696	0	0	0	0
16.56126	0.04889378	-0.01405696	0	0	0	0
16.57825	0.04889378	-0.01405696	0	0	0	0
16.59434	0.04889378	-0.01405696	0	0	0	0
16.61109	0.04889378	-0.01405696	0	0	0	0
16.62748	0.04889378	-0.01405696	0	0	0	0
16.64404	0.04889378	-0.01405696	0	0	0	0
16.66061	0.04889378	-0.01405696	0	0	0	0
16.67718	0.04889378	-0.01405696	0	0	0	0
16.69421	0.04889378	-0.01405696	0	0	0	0
16.71031	0.04889378	-0.01405696	0	0	0	0
16.72688	0.04889378	-0.01405696	0	0	0	0
16.74344	0.04889378	-0.01405696	0	0	0	0
16.76012	0.04889378	-0.01405696	0	0	0	0
16.77662	0.04889378	-0.01405696	0	0	0	0
16.79318	0.04889378	-0.01405696	0	0	0	0
16.80971	0.04889378	-0.01405696	0	0	0	0
16.82628	0.04889378	-0.01405696	0	0	0	0
16.84284	0.04889378	-0.01405696	0	0	0	0
16.85941	0.04889378	-0.01405696	0	0	0	0
16.87597	0.04889378	-0.01405696	0	0	0	0
16.89254	0.04889378	-0.01405696	0	0	0	0
16.90911	0.04889378	-0.01405696	0	0	0	0
16.92916	0.04889378	-0.01405696	0	0	0	0
16.94573	0.04889378	-0.01405696	0	0	0	0
16.96272	0.04889378	-0.01405696	0	0	0	0
16.97907	0.04889378	-0.01405696	0	0	0	0
16.99543	0.04889378	-0.01405696	0	0	0	0
17.012	0.04889378	-0.01405696	0	0	0	0
17.02888	0.04889378	-0.01405696	0	0	0	0
17.04513	0.04889378	-0.01405696	0	0	0	0
17.0617	0.04889378	-0.01405696	0	0	0	0
17.07841	0.04889378	-0.01405696	0	0	0	0
17.09483	0.04889378	-0.01405696	0	0	0	0
17.1114	0.04889378	-0.01405696	0	0	0	0
17.12796	0.04889378	-0.01405696	0	0	0	0
17.14453	0.04889378	-0.01405696	0	0	0	0
17.16137	0.04889378	-0.01405696	0	0	0	0
17.17783	0.04889378	-0.01405696	0	0	0	0
17.19423	0.04889378	-0.01405696	0	0	0	0
17.21081	0.04889378	-0.01405696	0	0	0	0
17.22785	0.04889378	-0.01405696	0	0	0	0
17.24473	0.04889378	-0.01405696	0	0	0	0
17.2605	0.04889378	-0.01405696	0	0	0	0
17.27731	0.04889378	-0.01405696	0	0	0	0
17.29426	0.04889378	-0.01405696	0	0	0	0
17.3102	0.04889378	-0.01405696	0	0	0	0
17.32677	0.04889378	-0.01405696	0	0	0	0
17.34334	0.04889378	-0.01405696	0	0	0	0
17.35991	0.04889378	-0.01405696	0	0	0	0
17.37653	0.04889378	-0.01405696	0	0	0	0
17.3936	0.04889378	-0.01405696	0	0	0	0
17.4096	0.04889378	-0.01405696	0	0	0	0
17.42638	0.04889378	-0.01405696	0	0	0	0
17.44289	0.04889378	-0.01405696	0	0	0	0
17.45929	0.04889378	-0.01405696	0	0	0	0
17.47586	0.04889378	-0.01405696	0	0	0	0
17.49243	0.04889378	-0.01405696	0	0	0	0
17.50899	0.04889378	-0.01405696	0	0	0	0
17.52608	0.04889378	-0.01405696	0	0	0	0
17.54213	0.04889378	-0.01405696	0	0	0	0
17.55936	0.04889378	-0.01405696	0	0	0	0
17.57526	0.04889378	-0.01405696	0	0	0	0
17.59907	0.04889378	-0.01405696	0	0	0	0
17.61564	0.04889378	-0.01405696	0	0	0	0
17.63221	0.04889378	-0.01405696	0	0	0	0
17.64897	0.04889378	-0.01405696	0	0	0	0
17.66562	0.04889378	-0.01405696	0	0	0	0
17.68191	0.04889378	-0.01405696	0	0	0	0
17.69848	0.04889378	-0.01405696	0	0	0	0
17.71523	0.04889378	-0.01405696	0	0	0	0
17.73161	0.04889378	-0.01405696	0	0	0	0
17.74818	0.04889378	-0.01405696	0	0	0	0
17.76493	0.04889378	-0.01405696	0	0	0	0
17.78131	0.04889378	-0.01405696	0	0	0	0
17.79864	0.04889378	-0.01405696	0	0	0	0
17.81444	0.04889378	-0.01405696	0	0	0	0
17.83163	0.04889378	-0.01405696	0	0	0	0
17.84758	0.04889378	-0.01405696	0	0	0	0
17.86419	0.04889378	-0.01405696	0	0	0	0
17.88071	0.04889378	-0.01405696	0	0	0	0
17.90537	0.04889378	-0.01405696	0	0	0	0
17.92226	0.04889378	-0.01405696	0	0	0	0
17.93898	0.04889378	-0.01405696	0	0	0	0
17.95509	0.04889378	-0.01405696	0	0	0	0
17.97164	0.04889378	-0.01405696	0	0	0	0
17.9882	0.04889378	-0.01405696	0	0	0	0
18.00477	0.04889378	-0.01405696	0	0	0	0
18.02134	0.04889378	-0.01405696	0	0	0	0
18.0384	0.04889378	-0.01405696	0	0	0	0
18.0546	0.04889378	-0.01405696	0	0	0	0
18.07104	0.04889378	-0.01405696	0	0	0	0
18.08796	0.04889378	-0.01405696	0	0	0	0
18.10423	0.04889378	-0.01405696	0	0	0	0
18.12088	0.04889378	-0.01405696	0	0	0	0
18.1373	0.04889378	-0.01405696	0	0	0	0
18.15416	0.04889378	-0.01405696	0	0	0	0
18.17083	0.04889378	-0.01405696	0	0	0	0
18.187	0.04889378	-0.01405696	0	0	0	0
18.20357	0.04889378	-0.01405696	0	0	0	0
18.22042	0.04889378	-0.01405696	0	0	0	0
18.2367	0.04889378	-0.01405696	0	0	0	0
18.25327	0.04889378	-0.01405696	0	0	0	0
18.2701	0.04889378	-0.01405696	0	0	0	0
18.28649	0.04889378	-0.01405696	0	0	0	0
18.30367	0.04889378	-0.01405696	0	0	0	0
18.31987	0.04889378	-0.01405696	0	0	0	0
18.3361	0.04889378	-0.01405696	0	0	0	0
18.3533	0.04889378	-0.01405696	0	0	0	0
18.36931	0.04889378	-0.01405696	0	0	0	0
18.3858	0.04889378	-0.01405696	0	0	0	0
18.40268	0.04889378	-0.01405696	0	0	0	0
18.41893	0.04889378	-0.01405696	0	0	0	0
18.4355	0.04889378	-0.01405696	0	0	0	0
18.45207	0.04889378	-0.01405696	0	0	0	0
18.46864	0.04889378	-0.01405696	0	0	0	0
18.4852	0.04889378	-0.01405696	0	0	0	0
18.50177	0.04889378	-0.01405696	0	0	0	0
18.51834	0.04889378	-0.01405696	0	0	0	0
18.5349	0.04889378	-0.01405696	0	0	0	0
18.55147	0.04889378	-0.01405696	0	0	0	0
18.56822	0.04889378	-0.01405696	0	0	0	0
18.5846	0.04889378	-0.01405696	0	0	0	0
18.60117	0.04889378	-0.01405696	0	0	0	0
18.61774	0.04889378	-0.01405696	0	0	0	0
18.63431	0.04889378	-0.01405696	0	0	0	0
18.65087	0.04889378	-0.01405696	0	0	0	0
18.66744	0.04889378	-0.01405696	0	0	0	0
18.68401	0.04889378	-0.01405696	0	0	0	0
18.70057	0.04889378	-0.01405696	0	0	0	0
18.71714	0.04889378	-0.01405696	0	0	0	0
18.73371	0.04889378	-0.01405696	0	0	0	0
18.75056	0.04889378	-0.01405696	0	0	0	0
18.76684	0.04889378	-0.01405696	0	0	0	0
18.78341	0.04889378	-0.01405696	0	0	0	0
18.79998	0.04889378	-0.01405696	0	0	0	0
18.81654	0.04889378	-0.01405696	0	0	0	0
18.83311	0.04889378	-0.01405696	0	0	0	0
18.84968	0.04889378	-0.01405696	0	0	0	0
18.86624	0.04889378	-0.01405696	0	0	0	0
18.88317	0.04889378	-0.01405696	0	0	0	0
18.8994	0.04889378	-0.01405696	0	0	0	0
18.91594	0.04889378	-0.01405696	0	0	0	0
18.93251	0.04889378	-0.01405696	0	0	0	0
18.94908	0.04889378	-0.01405696	0	0	0	0
18.96564	0.04889378	-0.01405696	0	0	0	0
18.98221	0.04889378	-0.01405696	0	0	0	0
18.99878	0.04889378	-0.01405696	0	0	0	0
19.01535	0.04889378	-0.01405696	0	0	0	0
19.03191	0.04889378	-0.01405696	0	0	0	0
19.04848	0.04889378	-0.01405696	0	0	0	0
19.06505	0.04889378	-0.01405696	0	0	0	0
19.08162	0.04889378	-0.01405696	0	0	0	0
19.0986	0.04889378	-0.01405696	0	0	0	0
19.11475	0.04889378	-0.01405696	0	0	0	0
19.13132	0.04889378	-0.01405696	0	0	0	0
19.14831	0.04889378	-0.01405696	0	0	0	0
19.16445	0.04889378	-0.01405696	0	0	0	0
19.18104	0.04889378	-0.01405696	0	0	0	0
19.19758	0.04889378	-0.01405696	0	0	0	0
19.21912	0.04889378	-0.01405696	0	0	0	0
19.23569	0.04889378	-0.01405696	0	0	0	0
19.25315	0.04889378	-0.01405696	0	0	0	0
19.26882	0.04889378	-0.01405696	0	0	0	0
19.28546	0.04889378	-0.01405696	0	0	0	0
19.30203	0.04889378	-0.01405696	0	0	0	0
19.31852	0.04889378	-0.01405696	0	0	0	0
19.33509	0.04889378	-0.01405696	0	0	0	0
19.35166	0.04889378	-0.01405696	0	0	0	0
19.3687	0.04889378	-0.01405696	0	0	0	0
19.38527	0.04889378	-0.01405696	0	0	0	0
19.40207	0.04889378	-0.01405696	0	0	0	0
19.41908	0.04889378	-0.01405696	0	0	0	0
19.43497	0.04889378	-0.01405696	0	0	0	0
19.45154	0.04889378	-0.01405696	0	0	0	0
19.46811	0.04889378	-0.01405696	0	0	0	0
19.48467	0.04889378	-0.01405696	0	0	0	0
19.50124	0.04889378	-0.01405696	0	0	0	0
19.51796	0.04889378	-0.01405696	0	0	0	0
19.53478	0.04889378	-0.01405696	0	0	0	0
19.55769	0.04889378	-0.01405696	0	0	0	0
19.57426	0.04889378	-0.01405696	0	0	0	0
19.59105	0.04889378	-0.01405696	0	0	0	0
19.6074	0.04889378	-0.01405696	0	0	0	0
19.62396	0.04889378	-0.01405696	0	0	0	0
19.64053	0.04889378	-0.01405696	0	0	0	0
19.6571	0.04889378	-0.01405696	0	0	0	0
19.67459	0.04889378	-0.01405696	0	0	0	0
19.69023	0.04889378	-0.01405696	0	0	0	0
19.70709	0.04889378	-0.01405696	0	0	0	0
19.72336	0.04889378	-0.01405696	0	0	0	0
19.74006	0.04889378	-0.01405696	0	0	0	0
19.7565	0.04889378	-0.01405696	0	0	0	0
19.77318	0.04889378	-0.01405696	0	0	0	0
19.78974	0.04889378	-0.01405696	0	0	0	0
19.8062	0.04644909	-0.01161227	-0.1484674	0.1484676	-4.496024	4.496032
19.82303	0.04644909	-0.009167584	0	0.1453034	4.459703	-0.09504895
19.83933	0.04644909	-0.009167584	0	0	0	-4.385517
19.85629	0.04644909	-0.009167584	0	0	0	0
19.87247	0.04644909	-0.009167584	0	0	0	0
19.88903	0.04644909	-0.009167584	0	0	0	0
19.9056	0.04644909	-0.009167584	0	0	0	0
19.92217	0.04644909	-0.009167584	0	0	0	0
19.93881	0.04644909	-0.009167584	0	0	0	0
19.9553	0.04644909	-0.009167584	0	0	0	0
19.97187	0.04644909	-0.009167584	0	0	0	0
19.98853	0.04644909	-0.009167584	0	0	0	0
20.005	0.04644909	-0.009167584	0	0	0	0
20.02206	0.05011613	-0.01283462	0.2149337	-0.2149336	6.410693	-6.410691
20.03814	0.0660066	-0.03483682	0.9886301	-1.368873	23.3502	-34.82595
20.05485	0.09778755	-0.08739763	1.90188	-3.145417	27.85699	-54.1902
20.07133	0.1405696	-0.1619606	2.595478	-4.523547	20.89554	-41.51795
20.08784	0.1833517	-0.2426354	2.591879	-4.887543	-0.1091076	-11.03369
20.1044	0.1906857	-0.2560812	0.4427371	-0.8116823	-64.98466	123.2438
20.12134	0.1992421	-0.2756387	0.505125	-1.154573	1.862076	-10.23418
20.13754	0.2004645	-0.2793057	0.07545736	-0.2263739	-12.9659	28.00989
20.15411	0.2004645	-0.2805281	8.990219E-07	-0.07374676	-2.302329	4.656963
20.17067	0.2004645	-0.2805281	0	0	-2.713566E-05	2.225938
20.18724	0.2004645	-0.2805281	0	0	0	0
20.20381	0.2004645	-0.2805281	0	0	0	0
20.22577	0.2004645	-0.2744163	0	0.2782487	0	7.221189
20.24234	0.180907	-0.1167339	-1.180087	9.514443	-30.6214	239.6647
20.25913	0.1735729	-0.04583792	-0.4368999	4.223374	22.2781	-158.6075
20.27547	0.1589048	0.08984232	-0.8975649	8.302465	-13.9053	123.1285
20.29216	0.1540154	0.1766288	-0.2929308	5.199532	18.30373	-93.93331
20.30861	0.1527931	0.2218555	-0.07432839	2.750156	6.597054	-73.91805
20.32517	0.1552377	0.2487471	0.1475784	1.623366	6.722314	-34.13432
20.34174	0.1589048	0.2658599	0.2213431	1.032932	2.226349	-17.82035
20.35831	0.1613495	0.2744163	0.1475606	0.5164651	-2.226761	-15.587
20.37488	0.1625718	0.2793057	0.07378162	0.2951229	-2.226652	-6.68012
20.39144	0.1662389	0.2866398	0.2213686	0.4427371	4.454439	4.455263
20.408	0.1662388	0.2903068	-8.99643E-07	0.2213932	-6.682097	-6.681328
20.42457	0.1674612	0.2915291	0.07377223	0.07377223	2.226606	-4.455464
20.44177	0.1686835	0.2964185	0.07106534	0.2842596	-0.08015766	6.233042
20.45771	0.1723506	0.3025303	0.2301386	0.3835644	4.800841	2.997024
20.47433	0.1747953	0.3049749	0.1471211	0.1471211	-2.550399	-7.263822
20.49084	0.1747953	0.3049749	0	0	-4.440378	-4.440378
20.50741	0.1747953	0.3049749	0	0	0	0
20.52398	0.1747953	0.3049749	0	0	0	0
20.54054	0.1747953	0.3049749	0	0	0	0
20.55711	0.1747953	0.3049749	0	0	0	0
20.57392	0.1747953	0.3049749	0	0	0	0
20.59024	0.1747953	0.3049749	0	0	0	0
20.60681	0.1747953	0.3049749	0	0	0	0
20.62338	0.1747953	0.3049749	0	0	0	0
20.64025	0.1747953	0.3049749	0	0	0	0
20.65719	0.1747953	0.2915291	8.799842E-07	-0.7940379	2.602906E-05	-23.48686
20.67308	0.1699059	0.2658599	-0.3076627	-1.615226	-9.372708	-25.01679
20.68964	0.1662388	0.2267449	-0.2213686	-2.361259	2.658692	-22.98504
20.70621	0.1552377	0.1656277	-0.663951	-3.688619	-13.35716	-40.05978
20.72289	0.1344579	0.07395184	-1.24624	-5.498117	-17.51605	-54.43217
20.73935	0.1234568	0.03116978	-0.6683363	-2.599087	17.44118	87.4929
20.75601	0.113678	0.004278206	-0.5870028	-1.614258	2.45578	29.73588
20.77254	0.1075663	-0.01161227	-0.3695853	-0.9609212	6.549609	19.6815
20.7893	0.1038993	-0.02016868	-0.2188977	-0.5107622	4.526656	13.52277
20.80561	0.1014546	-0.02383572	-0.149804	-0.2247056	2.089221	8.649637
20.82218	0.09900991	-0.02628041	-0.1475954	-0.1475959	0.06716348	2.344994
20.83875	0.09900991	-0.02750275	0	-0.07377234	4.454696	2.228127
20.85531	0.09778756	-0.0287251	-0.07378118	-0.07378072	-2.226592	-0.0002529518
20.87959	0.09656521	-0.02872509	-0.05035858	7.673759E-08	0.5735189	1.806575
20.89616	0.09167584	-0.03116978	-0.2950889	-0.1475448	-5.992116	-3.612572
20.91291	0.09045349	-0.03239213	-0.07297464	-0.07297441	6.6662	2.238042
20.92929	0.08678646	-0.03361447	-0.2238163	-0.07460528	-4.552411	-0.0492196
20.94586	0.08189708	-0.03361447	-0.2951233	0	-2.164009	2.264103
20.96243	0.0770077	-0.03483682	-0.2951238	-0.07378095	-1.349154E-05	-2.226713
20.97914	0.07334068	-0.03605916	-0.2194469	-0.07314934	2.274115	0.01898003
20.99556	0.06967364	-0.03605916	-0.2233228	0	-0.1169882	2.207906
21.01215	0.06845129	-0.03605916	-0.07365353	0	4.533206	0
21.0289	0.06845129	-0.03605916	0	0	2.208881	0
21.04526	0.0660066	-0.03605916	-0.149472	0	-4.515234	0
21.06182	0.06478425	-0.03605916	-0.07378118	0	2.299044	0
21.07863	0.06111722	-0.03605916	-0.218202	0	-4.327492	0
21.09496	0.06111722	-0.03605916	0	0	6.58573	0
21.11152	0.06111722	-0.03605916	0	0	0	0
21.1281	0.06111722	-0.03605916	0	0	0	0
21.14466	0.06111722	-0.03605916	0	0	0	0
21.1614	0.06111722	-0.03605916	0	0	0	0
21.17779	0.06111722	-0.03605916	0	0	0	0
21.19436	0.06111722	-0.03605916	0	0	0	0
21.21092	0.06111722	-0.03605916	0	0	0	0
21.22793	0.06111722	-0.03605916	0	0	0	0
21.24406	0.06111722	-0.03605916	0	0	0	0
21.26101	0.06111722	-0.03605916	0	0	0	0
21.27719	0.06111722	-0.03605916	0	0	0	0
21.29376	0.06111722	-0.03605916	0	0	0	0
21.31071	0.06111722	-0.03605916	0	0	0	0
21.32689	0.06111722	-0.03605916	0	0	0	0
21.34346	0.06111722	-0.03605916	0	0	0	0
21.36086	0.06111722	-0.03605916	0	0	0	0
21.37688	0.06111722	-0.03605916	0	0	0	0
21.39338	0.06111722	-0.03605916	0	0	0	0
21.40972	0.06111722	-0.03605916	0	0	0	0
21.42629	0.06111722	-0.03605916	0	0	0	0
21.44286	0.06111722	-0.03605916	0	0	0	0
21.45947	0.06111722	-0.03605916	0	0	0	0
21.47599	0.06111722	-0.03605916	0	0	0	0
21.49256	0.06111722	-0.03605916	0	0	0	0
21.50912	0.06111722	-0.03605916	0	0	0	0
21.52569	0.06111722	-0.03605916	0	0	0	0
21.54226	0.06111722	-0.03605916	0	0	0	0
21.55883	0.06111722	-0.03605916	0	0	0	0
21.57539	0.06111722	-0.03605916	0	0	0	0
21.592	0.06111722	-0.03605916	0	0	0	0
21.60853	0.06111722	-0.03605916	0	0	0	0
21.62523	0.06111722	-0.03605916	0	0	0	0
21.64166	0.06111722	-0.03605916	0	0	0	0
21.65843	0.06111722	-0.03605916	0	0	0	0
21.67486	0.06111722	-0.03605916	0	0	0	0
21.69135	0.06111722	-0.03605916	0	0	0	0
21.70795	0.06111722	-0.03605916	0	0	0	0
21.72474	0.06111722	-0.03605916	0	0	0	0
21.74126	0.06111722	-0.03605916	0	0	0	0
21.75774	0.06111722	-0.03605916	0	0	0	0
21.77426	0.06111722	-0.03605916	0	0	0	0
21.79109	0.06111722	-0.03605916	0	0	0	0
21.80732	0.06111722	-0.03605916	0	0	0	0
21.82389	0.06111722	-0.03605916	0	0	0	0
21.84066	0.06111722	-0.03605916	0	0	0	0
21.85702	0.06111722	-0.03605916	0	0	0	0
21.87359	0.06111722	-0.03605916	0	0	0	0
21.89018	0.06111722	-0.03605916	0	0	0	0
21.9068	0.06111722	-0.03605916	0	0	0	0
21.92329	0.06111722	-0.03605916	0	0	0	0
21.93986	0.06111722	-0.03605916	0	0	0	0
21.95649	0.06111722	-0.03605916	0	0	0	0
21.97337	0.06111722	-0.03605916	0	0	0	0
21.98956	0.06111722	-0.03605916	0	0	0	0
22.0063	0.06111722	-0.03605916	0	0	0	0
22.02269	0.06111722	-0.03605916	0	0	0	0
22.03944	0.06111722	-0.03605916	0	0	0	0
22.05582	0.06111722	-0.03605916	0	0	0	0
22.07239	0.06111722	-0.03605916	0	0	0	0
22.08896	0.06111722	-0.03605916	0	0	0	0
22.10552	0.06111722	-0.03605916	0	0	0	0
22.12209	0.06111722	-0.03605916	0	0	0	0
22.1391	0.06111722	-0.03605916	0	0	0	0
22.15522	0.06111722	-0.03605916	0	0	0	0
22.17179	0.06111722	-0.03605916	0	0	0	0
22.18835	0.06111722	-0.03605916	0	0	0	0
22.20505	0.06111722	-0.03483682	0	0.07319947	0	2.200551
22.22157	0.06111722	-0.03483682	0	0	0	-2.203836
22.23806	0.06111723	-0.03361448	2.259254E-07	0.07413064	6.845236E-06	2.246059
22.25462	0.06111723	-0.03361448	0	0	-6.834966E-06	-2.242689
22.27122	0.05867254	-0.02994744	-0.1473244	0.2209866	-4.442936	6.664401
22.28775	0.05745019	-0.02628041	-0.07390858	0.2217254	2.215823	0.0223001
22.30432	0.05622785	-0.02383572	-0.07378922	0.1475788	0.003605786	-2.239813
22.32111	0.05500551	-0.02139103	-0.07281666	0.1456335	0.02916061	-0.05832478
22.33745	0.05500551	-0.02139103	0	0	2.197611	-4.395229
22.35402	0.05500551	-0.02139103	0	0	0	0
22.37059	0.05500551	-0.02139103	0	0	0	0
22.38716	0.05500551	-0.02139103	0	0	0	0
22.40398	0.05500551	-0.02139103	0	0	0	0
22.42029	0.05500551	-0.02139103	0	0	0	0
22.43733	0.05500551	-0.02139103	0	0	0	0
22.45344	0.05500551	-0.02139103	0	0	0	0
22.47036	0.05500551	-0.02139103	0	0	0	0
22.48701	0.05500551	-0.02139103	0	0	0	0
22.50312	0.05500551	-0.02139103	0	0	0	0
22.51969	0.05500551	-0.02139103	0	0	0	0
22.53625	0.05500551	-0.02139103	0	0	0	0
22.55282	0.05500551	-0.02139103	0	0	0	0
22.56939	0.05500551	-0.02139103	0	0	0	0
22.58596	0.05500551	-0.02139103	0	0	0	0
22.60252	0.05500551	-0.02139103	0	0	0	0
22.61909	0.05500551	-0.02139103	0	0	0	0
22.63565	0.05500551	-0.02139103	0	0	0	0
22.65238	0.05500551	-0.02139103	0	0	0	0
22.67628	0.05500551	-0.02139103	0	0	0	0
22.69285	0.05500551	-0.02139103	0	0	0	0
22.7097	0.05500551	-0.02139103	0	0	0	0
22.72598	0.05500551	-0.02139103	0	0	0	0
22.74255	0.05500551	-0.02139103	0	0	0	0
22.75911	0.05500551	-0.02139103	0	0	0	0
22.77569	0.05500551	-0.02139103	0	0	0	0
22.79225	0.05500551	-0.02139103	0	0	0	0
22.8093	0.05500551	-0.02139103	0	0	0	0
22.82538	0.05500551	-0.02139103	0	0	0	0
22.84215	0.05500551	-0.02139103	0	0	0	0
22.85885	0.05500551	-0.02139103	0	0	0	0
22.87594	0.05500551	-0.02139103	0	0	0	0
22.89178	0.05500551	-0.02139103	0	0	0	0
22.90822	0.05500551	-0.02139103	0	0	0	0
22.92478	0.05500551	-0.02139103	0	0	0	0
22.94135	0.05500551	-0.02139103	0	0	0	0
22.95792	0.05500551	-0.02139103	0	0	0	0
22.97448	0.05500551	-0.02139103	0	0	0	0
22.99104	0.05500551	-0.02139103	0	0	0	0
23.00761	0.05500551	-0.02139103	0	0	0	0
23.02418	0.05500551	-0.02139103	0	0	0	0
23.04074	0.05500551	-0.02139103	0	0	0	0
23.05731	0.05500551	-0.02139103	0	0	0	0
23.07393	0.05500551	-0.02139103	0	0	0	0
23.09055	0.05500551	-0.02139103	0	0	0	0
23.10701	0.05500551	-0.02139103	0	0	0	0
23.12358	0.05500551	-0.02139103	0	0	0	0
23.14025	0.05500551	-0.02139103	0	0	0	0
23.15671	0.05500551	-0.02139103	0	0	0	0
23.17327	0.05500551	-0.02139103	0	0	0	0
23.18996	0.05500551	-0.02139103	0	0	0	0
23.20641	0.05500551	-0.02139103	0	0	0	0
23.22309	0.05500551	-0.02139103	0	0	0	0
23.23954	0.05500551	-0.02139103	0	0	0	0
23.25611	0.05500551	-0.02139103	0	0	0	0
23.27267	0.05500551	-0.02139103	0	0	0	0
23.28925	0.05500551	-0.02139103	0	0	0	0
23.30581	0.05500551	-0.02139103	0	0	0	0
23.32237	0.05500551	-0.02139103	0	0	0	0
23.33894	0.05500551	-0.02139103	0	0	0	0
23.35637	0.05500551	-0.02139103	0	0	0	0
23.37208	0.05500551	-0.02139103	0	0	0	0
23.38889	0.05500551	-0.02139103	0	0	0	0
23.4056	0.05500551	-0.02139103	0	0	0	0
23.42178	0.05500551	-0.02139103	0	0	0	0
23.43881	0.05500551	-0.02139103	0	0	0	0
23.45491	0.05500551	-0.02139103	0	0	0	0
23.47148	0.05500551	-0.02139103	0	0	0	0
23.48804	0.05500551	-0.02139103	0	0	0	0
23.50461	0.05500551	-0.02139103	0	0	0	0
23.52118	0.05500551	-0.02139103	0	0	0	0
23.53783	0.05500551	-0.02139103	0	0	0	0
23.55431	0.05500551	-0.02139103	0	0	0	0
23.57088	0.05500551	-0.02139103	0	0	0	0
23.58784	0.05500551	-0.02139103	0	0	0	0
23.60401	0.05500551	-0.02139103	0	0	0	0
23.62058	0.05500551	-0.02139103	0	0	0	0
23.63714	0.05500551	-0.02139103	0	0	0	0
23.65408	0.05500551	-0.02139103	0	0	0	0
23.67064	0.05500551	-0.02139103	0	0	0	0
23.68684	0.05500551	-0.02139103	0	0	0	0
23.70341	0.05500551	-0.02139103	0	0	0	0
23.71998	0.05500551	-0.02139103	0	0	0	0
23.73654	0.05500551	-0.02139103	0	0	0	0
23.75315	0.05500551	-0.02139103	0	0	0	0
23.76968	0.05500551	-0.02139103	0	0	0	0
23.78628	0.05500551	-0.02139103	0	0	0	0
23.80281	0.05500551	-0.02139103	0	0	0	0
23.81957	0.05500551	-0.02139103	0	0	0	0
23.83594	0.05500551	-0.02139103	0	0	0	0
23.85251	0.05500551	-0.02139103	0	0	0	0
23.86908	0.05500551	-0.02139103	0	0	0	0
23.88579	0.05500551	-0.02139103	0	0	0	0
23.90221	0.05500551	-0.02139103	0	0	0	0
23.91878	0.05500551	-0.02139103	0	0	0	0
23.93535	0.05500551	-0.02139103	0	0	0	0
23.95191	0.05500551	-0.02139103	0	0	0	0
23.96848	0.05500551	-0.02139103	0	0	0	0
23.98505	0.05500551	-0.02139103	0	0	0	0
24.00161	0.05500551	-0.02139103	0	0	0	0
24.01893	0.05500551	-0.02139103	0	0	0	0
24.03502	0.05500551	-0.02139103	0	0	0	0
24.05131	0.05500551	-0.02139103	0	0	0	0
24.06788	0.05500551	-0.02139103	0	0	0	0
24.08445	0.05500551	-0.02139103	0	0	0	0
24.10102	0.05500551	-0.02139103	0	0	0	0
24.11758	0.05500551	-0.02139103	0	0	0	0
24.14109	0.05500551	-0.02139103	0	0	0	0
24.15766	0.05500551	-0.02139103	0	0	0	0
24.17423	0.05500551	-0.02139103	0	0	0	0
24.19103	0.05500551	-0.02139103	0	0	0	0
24.20754	0.05500551	-0.02139103	0	0	0	0
24.22415	0.05500551	-0.02139103	0	0	0	0
24.24075	0.05500551	-0.02139103	0	0	0	0
24.25729	0.05500551	-0.02139103	0	0	0	0
24.27363	0.05500551	-0.02139103	0	0	0	0
24.29069	0.05500551	-0.02139103	0	0	0	0
24.30676	0.05500551	-0.02139103	0	0	0	0
24.32333	0.05500551	-0.02139103	0	0	0	0
24.33989	0.05500551	-0.02139103	0	0	0	0
24.3566	0.05500551	-0.02139103	0	0	0	0
24.37302	0.05500551	-0.02139103	0	0	0	0
24.38959	0.05500551	-0.02139103	0	0	0	0
24.40615	0.05500551	-0.02139103	0	0	0	0
24.42272	0.05500551	-0.02139103	0	0	0	0
24.44005	0.05500551	-0.02139103	0	0	0	0
24.45586	0.05500551	-0.02139103	0	0	0	0
24.47251	0.05500551	-0.02139103	0	0	0	0
24.48899	0.05500551	-0.02139103	0	0	0	0
24.50556	0.05500551	-0.02139103	0	0	0	0
24.52222	0.05500551	-0.02139103	0	0	0	0
24.53869	0.05500551	-0.02139103	0	0	0	0
24.55611	0.05500551	-0.02139103	0	0	0	0
24.57183	0.05500551	-0.02139103	0	0	0	0
24.58839	0.05500551	-0.02139103	0	0	0	0
24.60496	0.04889378	-0.02261337	-0.3689047	-0.07378083	-11.13293	-2.226582
24.62153	0.03544799	-0.02628041	-0.8115891	-0.2213426	-13.36024	-4.453424
24.63809	0.009778756	-0.02994744	-1.549755	-0.2213935	-22.28045	-0.001535514
24.65466	-0.02933627	-0.03483682	-2.360444	-0.2950555	-24.46665	-2.223124
24.67123	-0.07456302	-0.03728151	-2.730206	-0.1475789	-11.15881	4.450597
24.68782	-0.1210121	-0.04094854	-2.799804	-0.221037	-2.099141	-2.215568
24.70436	-0.1332355	-0.04094854	-0.7388288	-2.251701E-07	62.20037	6.670904
24.72101	-0.1674612	-0.04217088	-2.055923	-0.07342546	-39.68145	-2.212158
24.7375	-0.1919081	-0.04339323	-1.48296	-0.07414802	17.29306	-0.02180808
24.75406	-0.2090209	-0.04583792	-1.03317	-0.1475959	13.60993	-2.222418
24.77063	-0.2310231	-0.04828261	-1.327902	-0.1475447	-8.895544	0.00154532
24.78728	-0.2383572	-0.04828261	-0.4404541	0	26.71403	4.441402
24.81013	-0.2579147	-0.0507273	-0.8557647	-0.1069705	-10.51286	-2.707771
24.82695	-0.2970297	-0.05317198	-2.325908	-0.1453692	-37.05844	-0.967931
24.84327	-0.3055861	-0.05317198	-0.5241897	0	54.36658	4.386495
24.86006	-0.3214766	-0.05317199	-0.9467276	-2.21946E-07	-12.7625	-6.703747E-06
24.8764	-0.3434788	-0.0507273	-1.346031	0.1495592	-12.05238	4.514233
24.89297	-0.3495905	-0.04950495	-0.3689461	0.07378922	29.68843	-2.302249
24.90965	-0.3495905	-0.04950495	0	0	11.09649	-2.219298
24.92619	-0.3508129	-0.04950495	-0.07392541	2.252999E-07	-2.225437	6.782386E-06
24.96848	-0.3508129	-0.04950495	0	0	1.256751	-3.830157E-06
24.98504	-0.3508129	-0.04950495	0	0	0	0
25.00161	-0.3508129	-0.04950495	0	0	0	0
25.01833	-0.3508129	-0.04950495	0	0	0	0
25.03475	-0.3508129	-0.04950495	0	0	0	0
25.05131	-0.3508129	-0.04950495	0	0	0	0
25.06802	-0.3508129	-0.04950495	0	0	0	0
25.08445	-0.3398118	-0.0482826	0.6695768	0.07439765	20.20787	2.245325
25.10101	-0.3153649	-0.04583792	1.475786	0.1475784	24.43413	2.217921
25.11758	-0.2725828	-0.04461557	2.582331	0.07378095	33.3975	-2.227341
25.13415	-0.2175773	-0.0397262	3.320139	0.2951233	22.2671	6.680126
25.15071	-0.1625718	-0.03728151	3.320139	0.1475619	0	-4.453413
25.16728	-0.1222344	-0.03483682	2.434768	0.1475617	-26.72054	-6.745769E-06
25.18385	-0.09167583	-0.03361447	1.844522	0.07378095	-17.81368	-2.226707
25.20042	-0.06967364	-0.03239213	1.328055	0.07378072	-15.58699	-6.745769E-06
25.21698	-0.05745019	-0.03116979	0.7378086	0.07378083	-17.81368	3.372885E-06
25.23355	-0.05011613	-0.03116978	0.442685	1.124295E-07	-8.906846	-2.226707
25.25012	-0.0440044	-0.0287251	0.3688618	0.1475447	-2.227861	4.452647
25.26669	-0.04033737	-0.0287251	0.2213426	-1.124295E-07	-4.451882	-4.452655
25.28325	-0.0330033	-0.02750275	0.442736	0.07378945	6.68205	2.227102
25.29982	-0.02933627	-0.02750275	0.2213682	0	-6.681662	-2.227226
25.31639	-0.0220022	-0.02628041	0.4426851	0.07378083	6.679742	2.226838
25.33369	-0.01466813	-0.02383572	0.4237562	0.1412521	-0.5587961	1.991801
25.34952	-0.008556412	-0.02261337	0.3861536	0.0772307	-1.134848	-1.93217
25.36609	-0.003667033	-0.02139103	0.2951235	0.07378083	-2.810057	-0.1064957
25.38324	-0.001222344	-0.02016868	0.142556	0.07127798	-4.525049	-0.07423289
25.39922	0	-0.02016868	0.076475	0	-1.994443	-2.151298
25.41578	0.001222344	-0.01894634	0.07378935	0.07378934	-0.08251126	2.26703
25.43235	0.002444689	-0.01894634	0.07378087	0	-0.0002559042	-2.227095
25.44913	0.003667033	-0.01772399	0.07285815	0.07285827	-0.02767244	2.185031
25.46548	0.004889378	-0.01772399	0.07473593	0	0.05667469	-2.198993
25.48251	0.004889378	-0.01772399	0	0	-2.239037	0
25.49908	0.004889378	-0.01772399	0	0	0	0
25.51564	0.004889378	-0.01772399	0	0	0	0
25.53232	0.004889378	-0.01772399	0	0	0	0
25.54889	0.004889378	-0.01772399	0	0	0	0
25.56567	0.004889378	-0.01772399	0	0	0	0
25.58191	0.004889378	-0.01772399	0	0	0	0
25.59863	0.004889378	-0.01772399	0	0	0	0
25.61508	0.004889378	-0.01772399	0	0	0	0
25.63161	0.004889378	-0.01772399	0	0	0	0
25.64853	0.004889378	-0.01772399	0	0	0	0
25.66475	0.004889378	-0.01772399	0	0	0	0
25.68131	0.004889378	-0.01772399	0	0	0	0
25.69841	0.004889378	-0.01772399	0	0	0	0
25.71446	0.004889378	-0.01772399	0	0	0	0
25.73102	0.004889378	-0.01772399	0	0	0	0
25.74758	0.004889378	-0.01772399	0	0	0	0
25.76415	0.004889378	-0.01772399	0	0	0	0
25.78072	0.004889378	-0.01772399	0	0	0	0
25.79728	0.004889378	-0.01772399	0	0	0	0
25.81385	0.004889378	-0.01772399	0	0	0	0
25.83041	0.004889378	-0.01772399	0	0	0	0
25.84722	0.004889378	-0.01772399	0	0	0	0
25.86377	0.004889378	-0.01772399	0	0	0	0
25.88012	0.004889378	-0.01772399	0	0	0	0
25.89668	0.004889378	-0.01772399	0	0	0	0
25.91325	0.004889378	-0.01772399	0	0	0	0
25.92982	0.004889378	-0.01772399	0	0	0	0
25.94645	0.004889378	-0.01772399	0	0	0	0
25.96295	0.004889378	-0.01772399	0	0	0	0
25.97954	0.004889378	-0.01772399	0	0	0	0
25.99618	0.004889378	-0.01772399	0	0	0	0
26.01315	0.004889378	-0.01772399	0	0	0	0
26.02956	0.004889378	-0.01772399	0	0	0	0
26.04604	0.004889378	-0.01772399	0	0	0	0
26.06235	0.004889378	-0.01772399	0	0	0	0
26.07892	0.004889378	-0.01772399	0	0	0	0
26.09548	0.004889378	-0.01772399	0	0	0	0
26.11205	0.004889378	-0.01772399	0	0	0	0
26.12861	0.004889378	-0.01772399	0	0	0	0
26.14518	0.004889378	-0.01772399	0	0	0	0
26.16175	0.004889378	-0.01772399	0	0	0	0
26.17832	0.004889378	-0.01772399	0	0	0	0
26.19488	0.004889378	-0.01772399	0	0	0	0
26.21145	0.004889378	-0.01772399	0	0	0	0
26.22802	0.004889378	-0.01772399	0	0	0	0
26.24458	0.004889378	-0.01772399	0	0	0	0
26.26123	0.004889378	-0.01772399	0	0	0	0
26.27772	0.004889378	-0.01772399	0	0	0	0
26.29478	0.004889378	-0.01772399	0	0	0	0
26.31092	0.004889378	-0.01772399	0	0	0	0
26.32742	0.004889378	-0.01772399	0	0	0	0
26.34398	0.004889378	-0.01772399	0	0	0	0
26.36055	0.004889378	-0.01772399	0	0	0	0
26.37733	0.004889378	-0.01772399	0	0	0	0
26.39368	0.004889378	-0.01772399	0	0	0	0
26.41025	0.004889378	-0.01772399	0	0	0	0
26.42682	0.004889378	-0.01772399	0	0	0	0
26.44373	0.004889378	-0.01772399	0	0	0	0
26.46021	0.004889378	-0.01772399	0	0	0	0
26.47689	0.004889378	-0.01772399	0	0	0	0
26.49368	0.004889378	-0.01772399	0	0	0	0
26.50965	0.004889378	-0.01772399	0	0	0	0
26.52622	0.004889378	-0.01772399	0	0	0	0
26.54326	0.004889378	-0.01772399	0	0	0	0
26.55935	0.004889378	-0.01772399	0	0	0	0
26.57623	0.004889378	-0.01772399	0	0	0	0
26.59248	0.004889378	-0.01772399	0	0	0	0
26.60927	0.004889378	-0.01772399	0	0	0	0
26.62562	0.004889378	-0.01772399	0	0	0	0
26.64218	0.004889378	-0.01772399	0	0	0	0
26.65899	0.004889378	-0.01772399	0	0	0	0
26.67553	0.004889378	-0.01772399	0	0	0	0
26.69188	0.004889378	-0.01772399	0	0	0	0
26.70845	0.004889378	-0.01772399	0	0	0	0
26.72501	0.004889378	-0.01772399	0	0	0	0
26.74199	0.004889378	-0.01772399	0	0	0	0
26.75815	0.004889378	-0.01772399	0	0	0	0
26.77471	0.004889378	-0.01772399	0	0	0	0
26.79128	0.004889378	-0.01772399	0	0	0	0
26.80785	0.004889378	-0.01772399	0	0	0	0
26.82442	0.004889378	-0.01772399	0	0	0	0
26.84098	0.004889378	-0.01772399	0	0	0	0
26.85755	0.004889378	-0.01772399	0	0	0	0
26.87412	0.004889378	-0.01772399	0	0	0	0
26.89073	0.004889378	-0.01772399	0	0	0	0
26.90726	0.004889378	-0.01772399	0	0	0	0
26.92398	0.004889378	-0.01772399	0	0	0	0
26.9411	0.004889378	-0.01772399	0	0	0	0
26.95696	0.004889378	-0.01772399	0	0	0	0
26.97352	0.004889378	-0.01772399	0	0	0	0
26.99009	0.004889378	-0.01772399	0	0	0	0
27.00688	0.004889378	-0.01772399	0	0	0	0
27.02322	0.004889378	-0.01772399	0	0	0	0
27.03979	0.004889378	-0.01772399	0	0	0	0
27.05635	0.004889378	-0.01772399	0	0	0	0
27.07292	0.004889378	-0.01772399	0	0	0	0
27.09044	0.004889378	-0.01772399	0	0	0	0
27.11356	0.004889378	-0.01772399	0	0	0	0
27.13013	0.004889378	-0.01772399	0	0	0	0
27.1467	0.004889378	-0.01772399	0	0	0	0
27.16327	0.004889378	-0.01772399	0	0	0	0
27.17983	0.004889378	-0.01772399	0	0	0	0
27.19643	0.004889378	-0.01772399	0	0	0	0
27.21297	0.004889378	-0.01772399	0	0	0	0
27.22953	0.004889378	-0.01772399	0	0	0	0
27.24621	0.004889378	-0.01772399	0	0	0	0
27.26267	0.004889378	-0.01772399	0	0	0	0
27.27923	0.004889378	-0.01772399	0	0	0	0
27.2958	0.004889378	-0.01772399	0	0	0	0
27.31237	0.004889378	-0.01772399	0	0	0	0
27.32903	0.004889378	-0.01772399	0	0	0	0
27.34558	0.004889378	-0.01772399	0	0	0	0
27.36229	0.004889378	-0.01772399	0	0	0	0
27.3787	0.004889378	-0.01772399	0	0	0	0
27.3952	0.004889378	-0.01772399	0	0	0	0
27.41177	0.004889378	-0.01772399	0	0	0	0
27.4291	0.004889378	-0.01772399	0	0	0	0
27.4449	0.004889378	-0.01772399	0	0	0	0
27.46205	0.004889378	-0.01772399	0	0	0	0
27.47804	0.004889378	-0.01772399	0	0	0	0
27.49552	0.004889378	-0.01772399	0	0	0	0
27.51131	0.004889378	-0.01772399	0	0	0	0
27.52774	0.004889378	-0.01772399	0	0	0	0
27.5443	0.004889378	-0.01772399	0	0	0	0
27.56102	0.004889378	-0.01772399	0	0	0	0
27.57744	0.004889378	-0.01772399	0	0	0	0
27.594	0.004889378	-0.01772399	0	0	0	0
27.61057	0.004889378	-0.01772399	0	0	0	0
27.62714	0.004889378	-0.01772399	0	0	0	0
27.64387	0.004889378	-0.01772399	0	0	0	0
27.66027	0.004889378	-0.01772399	0	0	0	0
27.67684	0.004889378	-0.01772399	0	0	0	0
27.69341	0.004889378	-0.01772399	0	0	0	0
27.70997	0.004889378	-0.01772399	0	0	0	0
27.72654	0.004889378	-0.01772399	0	0	0	0
27.7431	0.004889378	-0.01772399	0	0	0	0
27.75967	0.004889378	-0.01772399	0	0	0	0
27.77624	0.004889378	-0.01772399	0	0	0	0
27.79284	0.004889378	-0.01772399	0	0	0	0
27.80951	0.004889378	-0.01772399	0	0	0	0
27.82594	0.004889378	-0.01772399	0	0	0	0
27.84265	0.004889378	-0.01772399	0	0	0	0
27.85907	0.004889378	-0.01772399	0	0	0	0
27.87564	0.004889378	-0.01772399	0	0	0	0
27.89221	0.004889378	-0.01772399	0	0	0	0
27.90878	0.004889378	-0.01772399	0	0	0	0
27.92534	0.004889378	-0.01772399	0	0	0	0
27.94191	0.004889378	-0.01772399	0	0	0	0
27.95917	0.004889378	-0.01772399	0	0	0	0
27.97508	0.004889378	-0.01772399	0	0	0	0
27.99169	0.004889378	-0.01772399	0	0	0	0
28.00818	0.004889378	-0.01772399	0	0	0	0
28.02474	0.004889378	-0.01772399	0	0	0	0
28.04168	0.004889378	-0.01772399	0	0	0	0
28.05789	0.004889378	-0.01772399	0	0	0	0
28.07444	0.004889378	-0.01772399	0	0	0	0
28.09101	0.004889378	-0.01772399	0	0	0	0
28.10758	0.004889378	-0.01772399	0	0	0	0
28.12428	0.004889378	-0.01772399	0	0	0	0
28.14071	0.004889378	-0.01772399	0	0	0	0
28.15745	0.004889378	-0.01772399	0	0	0	0
28.17384	0.004889378	-0.01772399	0	0	0	0
28.19041	0.004889378	-0.01772399	0	0	0	0
28.20698	0.004889378	-0.01772399	0	0	0	0
28.22355	0.004889378	-0.01772399	0	0	0	0
28.24012	0.004889378	-0.01772399	0	0	0	0
28.25668	0.004889378	-0.01772399	0	0	0	0
28.27325	0.004889378	-0.01772399	0	0	0	0
28.28982	0.004889378	-0.01772399	0	0	0	0
28.30639	0.004889378	-0.01772399	0	0	0	0
28.32295	0.004889378	-0.01772399	0	0	0	0
28.33976	0.004889378	-0.01772399	0	0	0	0
28.35642	0.004889378	-0.01772399	0	0	0	0
28.37287	0.004889378	-0.01772399	0	0	0	0
28.38938	0.004889378	-0.01772399	0	0	0	0
28.40605	0.004889378	-0.01772399	0	0	0	0
28.42244	0.004889378	-0.01772399	0	0	0	0
28.4392	0.004889378	-0.01772399	0	0	0	0
28.45548	0.004889378	-0.01772399	0	0	0	0
28.47204	0.004889378	-0.01772399	0	0	0	0
28.48861	0.004889378	-0.01772399	0	0	0	0
28.50518	0.004889378	-0.01772399	0	0	0	0
28.52182	0.004889378	-0.01772399	0	0	0	0
28.53831	0.004889378	-0.01772399	0	0	0	0
28.55488	0.004889378	-0.01772399	0	0	0	0
28.57145	0.004889378	-0.01772399	0	0	0	0
28.58853	0.004889378	-0.01772399	0	0	0	0
28.60458	0.004889378	-0.01772399	0	0	0	0
28.6215	0.004889378	-0.01772399	0	0	0	0
28.63771	0.004889378	-0.01772399	0	0	0	0
28.65428	0.004889378	-0.01772399	0	0	0	0
28.67085	0.004889378	-0.01772399	0	0	0	0
28.68741	0.004889378	-0.01772399	0	0	0	0
28.70398	0.004889378	-0.01772399	0	0	0	0
28.72054	0.004889378	-0.01772399	0	0	0	0
28.7411	0.004889378	-0.01772399	0	0	0	0
28.75794	0.004889378	-0.01772399	0	0	0	0
28.77424	0.004889378	-0.01772399	0	0	0	0
28.7909	0.004889378	-0.01772399	0	0	0	0
28.80738	0.004889378	-0.01772399	0	0	0	0
28.82394	0.004889378	-0.01772399	0	0	0	0
28.84086	0.004889378	-0.01772399	0	0	0	0
28.85707	0.004889378	-0.01772399	0	0	0	0
28.87401	0.004889378	-0.01772399	0	0	0	0
28.89021	0.004889378	-0.01772399	0	0	0	0
28.90677	0.004889378	-0.01772399	0	0	0	0
28.92334	0.004889378	-0.01772399	0	0	0	0
28.94024	0.004889378	-0.01772399	0	0	0	0
28.95648	0.004889378	-0.01772399	0	0	0	0
28.97304	0.004889378	-0.01772399	0	0	0	0
28.98961	0.004889378	-0.01772399	0	0	0	0
29.00664	0.004889378	-0.01772399	0	0	0	0
29.02274	0.004889378	-0.01772399	0	0	0	0
29.03931	0.003667033	-0.01038993	-0.07377237	0.4426342	-2.25804	13.54824
29.05587	-0.004889378	0.00794524	-0.5165849	1.106968	-13.36488	20.05078
29.07262	-0.02689158	0.05439433	-1.314136	2.774288	-23.94609	50.06047
29.08912	-0.08923116	0.1680724	-3.778485	6.890177	-74.1352	123.8187
29.10557	-0.1210121	0.2279672	-1.930974	3.639143	56.0581	-98.64449
29.12234	-0.1430143	0.2670823	-1.312343	2.333053	18.61994	-39.3115
29.13871	-0.1564601	0.2927515	-0.8215197	1.568356	14.81392	-23.07994
29.15527	-0.1662388	0.3147537	-0.5903826	1.328362	7.018964	-7.287905
29.1721	-0.1735729	0.3294218	-0.4357126	0.8714235	4.631425	-13.68254
29.18841	-0.1784623	0.3367559	-0.2998874	0.4498329	4.098978	-12.7229
29.20497	-0.1796846	0.3404229	-0.07378162	0.2213422	6.878527	-6.951082
29.22168	-0.1796846	0.3404229	0	0	2.217162	-6.651404
29.23811	-0.1796846	0.3404229	0	0	0	0
29.25467	-0.1796846	0.3404229	0	0	0	0
29.27123	-0.1796846	0.3404229	0	0	0	0
29.28819	-0.1796846	0.3404229	0	0	0	0
29.30452	-0.1796846	0.3404229	0	0	0	0
29.32094	-0.1796846	0.3404229	0	0	0	0
29.33789	-0.1796846	0.3404229	0	0	0	0
29.35458	-0.1796846	0.3404229	0	0	0	0
29.37064	-0.1796846	0.3404229	0	0	0	0
29.3872	-0.1796846	0.3404229	0	0	0	0
29.40433	-0.1735729	0.3294218	0.3568665	-0.64236	10.59281	-19.06707
29.42074	-0.1735729	0.3294218	0	0	-10.64161	19.15491
29.43691	-0.149126	0.2939739	1.511819	-2.192137	46.40411	-67.28594
29.45347	-0.1210121	0.2548588	1.697156	-2.36126	5.66158	-5.16631
29.47025	-0.09167584	0.2084097	1.748	-2.767666	1.524655	-12.18678
29.4866	-0.06111722	0.1619606	1.869052	-2.840959	3.653571	-2.212114
29.50317	-0.03422564	0.1265127	1.623179	-2.139645	-7.469481	21.30553
29.51974	-0.01344579	0.09717639	1.254274	-1.770741	-11.13357	11.13353
29.53631	0.001222344	0.07639653	0.8852684	-1.25413	-11.13598	15.59045
29.55306	0.008556412	0.06539543	0.4378958	-0.6568439	-13.42753	17.92707
29.56944	0.01344579	0.05806136	0.2984217	-0.4476326	-4.20958	6.314373
29.58601	0.01589048	0.05317198	0.1475617	-0.2951233	-4.578263	4.628315
29.60257	0.01589048	0.05194964	0	-0.07378945	-4.453678	6.680254
29.61947	0.01711282	0.04950495	0.0723236	-0.1446474	2.161085	-2.11729
29.63572	0.01833517	0.04706026	0.0752538	-0.1505074	0.08840822	-0.1768029
29.65227	0.01955751	0.04583792	0.07383184	-0.07383172	-0.04335402	2.33776
29.66884	0.02077986	0.04339323	0.07378934	-0.1475787	-0.001283337	-2.226584
29.68541	0.02077986	0.04339323	0	0	-2.227095	4.45419
29.70197	0.02077986	0.04339323	0	0	0	0
29.71854	0.02077986	0.04339323	0	0	0	0
29.73525	0.02077986	0.04217089	0	-0.07313264	0	-2.197534
29.75168	0.0220022	0.04217089	0.07443221	0	2.246239	2.207021
29.76824	0.0220022	0.04217089	0	0	-2.256239	0
29.78482	0.0220022	0.04094854	-1.123777E-07	-0.07374699	-3.390786E-06	-2.225176
29.80138	0.0220022	0.04094854	0	0	3.391762E-06	2.225816
29.81795	0.0220022	0.0397262	1.124165E-07	-0.07377223	3.393519E-06	-2.226963
29.83451	0.0220022	0.0397262	0	0	-3.392543E-06	2.226322
29.85108	0.0220022	0.0397262	0	0	0	0
29.86765	0.0220022	0.0397262	0	0	0	0
29.88426	0.0220022	0.0397262	0	0	0	0
29.90078	0.0220022	0.0397262	0	0	0	0
29.91784	0.0220022	0.0397262	0	0	0	0
29.93392	0.0220022	0.0397262	0	0	0	0
29.95048	0.02322455	0.0397262	0.07383184	0	2.262238	0
29.96704	0.02322455	0.0397262	0	0	-2.229148	0
29.98361	0.02322455	0.0397262	0	0	0	0
30.00018	0.02322455	0.0397262	0	0	0	0
30.01719	0.02322455	0.0397262	0	0	0	0
30.03331	0.02322455	0.0397262	0	0	0	0
30.0538	0.02322455	0.0397262	0	0	0	0
30.07037	0.02322455	0.0397262	0	0	0	0
30.08718	0.02322455	0.0397262	0	0	0	0
30.1035	0.02322455	0.0397262	0	0	0	0
30.12007	0.02322455	0.0397262	0	0	0	0
30.13664	0.02322455	0.0397262	0	0	0	0
30.1535	0.02322455	0.0397262	0	0	0	0
30.16985	0.02322455	0.0397262	0	0	0	0
30.18634	0.02322455	0.0397262	0	0	0	0
30.20333	0.02322455	0.0397262	0	0	0	0
30.21947	0.02322455	0.0397262	0	0	0	0
30.23627	0.02322455	0.0397262	0	0	0	0
30.25293	0.02322455	0.0397262	0	0	0	0
30.26933	0.02444689	0.0397262	0.07454465	0	2.254954	0
30.28588	0.02566923	0.03972619	0.07383184	-2.250144E-07	-0.02163077	-6.828289E-06
30.3023	0.02566923	0.03972619	0	0	-2.239076	6.823945E-06
30.31887	0.02689158	0.04094854	0.07377234	0.07377223	2.236366	2.236363
30.33544	0.02689158	0.04094854	0	0	-2.226454	-2.22645
30.35201	0.02811392	0.04094854	0.07374699	2.247555E-07	2.225304	6.781962E-06
30.36857	0.02933627	0.04094854	0.07381483	0	0.002047566	-6.783133E-06
30.38514	0.02933627	0.04094854	0	0	-2.228377	0
30.4017	0.02933627	0.04094854	0	0	0	0
30.41827	0.02933627	0.04094854	0	0	0	0
30.43484	0.02933627	0.04094854	0	0	0	0
30.45141	0.02933627	0.04094854	0	0	0	0
30.46797	0.02933627	0.04094854	0	0	0	0
30.48497	0.02933627	0.04094854	0	0	0	0
30.50111	0.02933627	0.04094854	0	0	0	0
30.51769	0.02933627	0.04094854	0	0	0	0
30.53454	0.02933627	0.04094854	0	0	0	0
30.55081	0.02933627	0.04094854	0	0	0	0
30.56738	0.02933627	0.04094854	0	0	0	0
30.58394	0.02933627	0.04094854	0	0	0	0
30.60051	0.02933627	0.04094854	0	0	0	0
30.61735	0.02933627	0.04094854	0	0	0	0
30.63364	0.02933627	0.04094854	0	0	0	0
30.65021	0.02933627	0.04094854	0	0	0	0
30.66678	0.02933627	0.04094854	0	0	0	0
30.68334	0.02933627	0.04094854	0	0	0	0
30.70031	0.02933627	0.04094854	0	0	0	0
30.71648	0.02933627	0.04094854	0	0	0	0
30.73373	0.02933627	0.04094854	0	0	0	0
30.74961	0.02933627	0.04094854	0	0	0	0
30.76618	0.02933627	0.04094854	0	0	0	0
30.78278	0.02933627	0.04094854	0	0	0	0
30.79958	0.02933627	0.04094854	0	0	0	0
30.81588	0.02933627	0.04094854	0	0	0	0
30.83244	0.02933627	0.04094854	0	0	0	0
30.84924	0.02933627	0.04094854	0	0	0	0
30.86558	0.02933627	0.04094854	0	0	0	0
30.8822	0.02933627	0.04094854	0	0	0	0
30.89889	0.02933627	0.04094854	0	0	0	0
30.91549	0.02933627	0.04094854	0	0	0	0
30.93184	0.02933627	0.04094854	0	0	0	0
30.94841	0.02933627	0.04094854	0	0	0	0
30.96509	0.02933627	0.04094854	0	0	0	0
30.98174	0.02933627	0.04094854	0	0	0	0
30.99811	0.02933627	0.04094854	0	0	0	0
31.01468	0.02933627	0.04094854	0	0	0	0
31.03124	0.02933627	0.04094854	0	0	0	0
31.04802	0.02933627	0.04094854	0	0	0	0
31.06442	0.02933627	0.04094854	0	0	0	0
31.08108	0.02933627	0.04094854	0	0	0	0
31.0976	0.02933627	0.04094854	0	0	0	0
31.11408	0.02933627	0.04094854	0	0	0	0
31.13065	0.02933627	0.04094854	0	0	0	0
31.14721	0.02933627	0.04094854	0	0	0	0
31.16379	0.02933627	0.04094854	0	0	0	0
31.18035	0.02933627	0.04094854	0	0	0	0
31.19691	0.02933627	0.04094854	0	0	0	0
31.21388	0.02933627	0.04094854	0	0	0	0
31.23005	0.02933627	0.04094854	0	0	0	0
31.24667	0.02933627	0.04094854	0	0	0	0
31.26318	0.02933627	0.04094854	0	0	0	0
31.27999	0.02933627	0.04094854	0	0	0	0
31.29641	0.02933627	0.04094854	0	0	0	0
31.31288	0.02933627	0.04094854	0	0	0	0
31.32948	0.02933627	0.04094854	0	0	0	0
31.34618	0.02933627	0.04094854	0	0	0	0
31.36432	0.02933627	0.04094854	0	0	0	0
31.38119	0.02933627	0.04094854	0	0	0	0
31.39746	0.02933627	0.04094854	0	0	0	0
31.41403	0.02933627	0.04094854	0	0	0	0
31.43062	0.02933627	0.04094854	0	0	0	0
31.44716	0.02933627	0.04094854	0	0	0	0
31.46433	0.02933627	0.04094854	0	0	0	0
31.48037	0.02933627	0.04094854	0	0	0	0
31.49686	0.02933627	0.04094854	0	0	0	0
31.51343	0.02933627	0.04094854	0	0	0	0
31.53003	0.02933627	0.04094854	0	0	0	0
31.54657	0.02933627	0.04094854	0	0	0	0
31.56321	0.02933627	0.04094854	0	0	0	0
31.57972	0.02933627	0.04094854	0	0	0	0
31.59626	0.02933627	0.04094854	0	0	0	0
31.61283	0.02933627	0.04094854	0	0	0	0
31.62939	0.02933627	0.04094854	0	0	0	0
31.646	0.02933627	0.04094854	0	0	0	0
31.66272	0.02933627	0.04094854	0	0	0	0
31.67916	0.02933627	0.04094854	0	0	0	0
31.69574	0.02933627	0.04094854	0	0	0	0
31.71223	0.02933627	0.04094854	0	0	0	0
31.72879	0.02933627	0.04094854	0	0	0	0
31.74582	0.02933627	0.04094854	0	0	0	0
31.76192	0.02933627	0.04094854	0	0	0	0
31.77849	0.02933627	0.04094854	0	0	0	0
31.79506	0.02933627	0.04094854	0	0	0	0
31.81182	0.02933627	0.04094854	0	0	0	0
31.82819	0.02933627	0.04094854	0	0	0	0
31.84523	0.02933627	0.04094854	0	0	0	0
31.86132	0.02933627	0.04094854	0	0	0	0
31.87789	0.02933627	0.04094854	0	0	0	0
31.89474	0.02933627	0.04094854	0	0	0	0
31.91103	0.02933627	0.04094854	0	0	0	0
31.9276	0.02933627	0.04094854	0	0	0	0
31.94424	0.02933627	0.04094854	0	0	0	0
31.96074	0.02933627	0.04094854	0	0	0	0
31.97729	0.02933627	0.04094854	0	0	0	0
32.0009	0.02933627	0.04094854	0	0	0	0
32.01748	0.02933627	0.04094854	0	0	0	0
32.03415	0.02933627	0.04094854	0	0	0	0
32.05082	0.02933627	0.04094854	0	0	0	0
32.06737	0.02933627	0.04094854	0	0	0	0
32.08374	0.02933627	0.04094854	0	0	0	0
32.10031	0.02933627	0.04094854	0	0	0	0
32.11688	0.02933627	0.04094854	0	0	0	0
32.13345	0.02933627	0.04094854	0	0	0	0
32.15001	0.02933627	0.04094854	0	0	0	0
32.16667	0.02933627	0.04094854	0	0	0	0
32.18315	0.02933627	0.04094854	0	0	0	0
32.19971	0.02933627	0.04094854	0	0	0	0
32.21629	0.02933627	0.04094854	0	0	0	0
32.23292	0.02933627	0.04094854	0	0	0	0
32.2497	0.02933627	0.04094854	0	0	0	0
32.26598	0.02933627	0.04094854	0	0	0	0
32.28255	0.02933627	0.04094854	0	0	0	0
32.29912	0.02933627	0.04094854	0	0	0	0
32.31569	0.02933627	0.04094854	0	0	0	0
32.33225	0.02933627	0.04094854	0	0	0	0
32.34882	0.02933627	0.04094854	0	0	0	0
32.36547	0.02933627	0.04094854	0	0	0	0
32.38195	0.02933627	0.04094854	0	0	0	0
32.39852	0.02933627	0.04094854	0	0	0	0
32.41508	0.02933627	0.04094854	0	0	0	0
32.43165	0.02933627	0.04094854	0	0	0	0
32.44822	0.02933627	0.04094854	0	0	0	0
32.46479	0.02933627	0.04094854	0	0	0	0
32.48135	0.02933627	0.04094854	0	0	0	0
32.49822	0.02933627	0.04094854	0	0	0	0
32.51475	0.02933627	0.04094854	0	0	0	0
32.53106	0.02933627	0.04094854	0	0	0	0
32.54762	0.02933627	0.04094854	0	0	0	0
32.56419	0.02933627	0.04094854	0	0	0	0
32.58076	0.02933627	0.04094854	0	0	0	0
32.59732	0.02933627	0.04094854	0	0	0	0
32.61389	0.02933627	0.04094854	0	0	0	0
32.63046	0.02933627	0.04094854	0	0	0	0
32.65186	0.02933627	0.04094854	0	0	0	0
32.66843	0.02933627	0.04094854	0	0	0	0
32.68501	0.02933627	0.04094854	0	0	0	0
32.70156	0.02933627	0.04094854	0	0	0	0
32.71813	0.02933627	0.04094854	0	0	0	0
32.73508	0.02933627	0.04094854	0	0	0	0
32.75208	0.02933627	0.04094854	0	0	0	0
32.76783	0.02933627	0.04094854	0	0	0	0
32.7844	0.02933627	0.04094854	0	0	0	0
32.80096	0.02933627	0.04094854	0	0	0	0
32.81753	0.02933627	0.04094854	0	0	0	0
32.8341	0.02933627	0.04094854	0	0	0	0
32.85066	0.0330033	0.04583792	0.2213425	0.2951233	6.6809	8.907866
32.86723	0.03789268	0.0507273	0.2951236	0.2951236	2.226717	7.195487E-06
32.88387	0.04033737	0.05439433	0.1469526	0.220429	-4.462561	-2.249624
32.90036	0.04155971	0.05561667	0.07408779	0.07408779	-2.199065	-4.416587
32.91693	0.0440044	0.06050605	0.1475279	0.2950556	2.220774	6.6819
32.9335	0.05133847	0.07517419	0.4426852	0.8853705	8.90684	17.81369
32.95034	0.05989489	0.09106467	0.5082739	0.9439369	1.963645	1.753408
32.96685	0.07578537	0.1204009	0.9622533	1.776468	13.61336	24.96487
32.9832	0.1026769	0.1717394	1.645149	3.140739	20.78211	41.51796
32.99976	0.1527931	0.2536365	3.025015	4.943317	41.92438	54.76762
33.01687	0.1662389	0.273194	0.7860692	1.143374	-66.49216	-112.8506
33.0329	0.1833517	0.2976409	1.067592	1.525131	8.496361	11.52145
33.04947	0.1955751	0.3147537	0.73781	1.032932	-10.11706	-15.09972
33.06603	0.1992421	0.3196431	0.2213413	0.2951229	-15.58705	-22.26712
33.0826	0.1992421	0.3196431	0	0	-6.680862	-8.907852
33.09916	0.1992421	0.3196431	0	0	0	0
33.11573	0.1992421	0.3196431	0	0	0	0
33.13237	0.1992421	0.3196431	0	0	0	0
33.14892	0.1992421	0.3196431	0	0	0	0
33.16576	0.1992421	0.3196431	0	0	0	0
33.182	0.1992421	0.3196431	0	0	0	0
33.19856	0.1992421	0.3196431	0	0	0	0
33.21513	0.1992421	0.3196431	0	0	0	0
33.2317	0.1992421	0.3196431	0	0	0	0
33.24826	0.1992421	0.3196431	0	0	0	0
33.26483	0.1992422	0.3184207	8.994359E-07	-0.07378072	2.714503E-05	-2.226707
33.2814	0.1967975	0.3074196	-0.1475624	-0.6640283	-4.453468	-17.81371
33.29796	0.1919081	0.2903068	-0.2951909	-1.03317	-4.45595	-11.142
33.31453	0.1784623	0.2426354	-0.8115898	-2.877453	-15.58674	-55.66698
33.3311	0.1699059	0.2218555	-0.516466	-1.254274	8.906855	48.98763
33.34766	0.1552378	0.1802958	-0.8853696	-2.50855	-11.13353	-37.85412
33.36423	0.1430143	0.1485149	-0.7376401	-1.917861	4.457973	17.82498
33.3808	0.1356802	0.1228456	-0.4426852	-1.549398	8.90073	11.11894
33.39737	0.1222345	0.09595405	-0.8115884	-1.623178	-11.13352	-2.226665
33.41394	0.1197898	0.08984232	-0.1475624	-0.368905	20.04034	37.85403
33.43058	0.1185674	0.08739763	-0.07342523	-0.1468514	2.232066	6.685428
33.44707	0.1149004	0.08250825	-0.2224185	-0.2965578	-4.496627	-4.518147
33.46391	0.1124557	0.07761887	-0.1452212	-0.290442	2.31675	0.183537
33.48021	0.1112334	0.07395185	-0.07498894	-0.2249682	2.119615	1.976005
33.49714	0.106344	0.06784012	-0.2888068	-0.3610078	-6.434516	-4.093899
33.51334	0.1038993	0.06295074	-0.1508965	-0.3017948	4.162621	1.787255
33.53062	0.1026769	0.06050605	-0.07071985	-0.1414388	2.394375	4.788831
33.54651	0.1014546	0.05806137	-0.07691543	-0.1538311	-0.1867463	-0.3735259
33.56304	0.1014546	0.05683902	4.508599E-07	-0.0739683	2.37268	2.463586
33.5796	0.09900991	0.05439433	-0.1475959	-0.1475957	-4.460629	-2.225152
33.59617	0.09778756	0.0507273	-0.07376419	-0.2212917	2.228245	-2.22415
33.61333	0.09656522	0.04950495	-0.0712541	-0.0712541	0.07442664	4.448756
33.6293	0.09289818	0.04461557	-0.2295346	-0.3060462	-4.777466	-7.086857
33.64587	0.09167584	0.04339323	-0.07378072	-0.07378072	4.786069	7.137149
33.66244	0.09045349	0.04094854	-0.07378118	-0.1475619	-1.37164E-05	-2.22672
33.679	0.08923114	0.03972619	-0.07378118	-0.07378095	0	2.226713
33.69599	0.08678646	0.03850385	-0.1439486	-0.07197432	-2.091413	0.05384829
33.71214	0.08678646	0.03728151	0	-0.07568037	4.344378	-0.1118487
33.72909	0.08678646	0.03728151	0	0	0	2.286407
33.74527	0.08678646	0.03728151	0	0	0	0
33.76187	0.08556412	0.03605916	-0.07364462	-0.07364507	-2.246654	-2.246667
33.77891	0.08434177	0.03605916	-0.07173307	0	0.0568269	2.189342
33.79498	0.08311943	0.03483682	-0.07607543	-0.07607566	-0.1311582	-2.29782
33.81155	0.08311943	0.03483682	0	0	2.330846	2.330853
33.82811	0.08311943	0.03483682	0	0	0	0
33.84468	0.08311943	0.03483682	0	0	0	0
33.86136	0.08311943	0.03483682	0	0	0	0
33.87836	0.08311943	0.03483682	0	0	0	0
33.8948	0.08311943	0.03483682	0	0	0	0
33.9113	0.08311943	0.03483682	0	0	0	0
33.92751	0.08311943	0.03483682	0	0	0	0
33.94407	0.08311943	0.03483682	0	0	0	0
33.96495	0.08311943	0.03483682	0	0	0	0
33.98152	0.08311943	0.03483682	0	0	0	0
33.99809	0.08311943	0.03483682	0	0	0	0
34.01498	0.08311943	0.03483682	0	0	0	0
34.03122	0.08311943	0.03483682	0	0	0	0
34.04807	0.08311943	0.03483682	0	0	0	0
34.06436	0.08311943	0.03483682	0	0	0	0
34.08097	0.08311943	0.03483682	0	0	0	0
34.09749	0.08311943	0.03483682	0	0	0	0
34.11406	0.08311943	0.03483682	0	0	0	0
34.13063	0.08311943	0.03483682	0	0	0	0
34.14719	0.08311943	0.03483682	0	0	0	0
34.16376	0.08311943	0.03483682	0	0	0	0
34.18038	0.08311943	0.03483682	0	0	0	0
34.19689	0.08311943	0.03483682	0	0	0	0
34.21346	0.08311943	0.03483682	0	0	0	0
34.23003	0.08311943	0.03483682	0	0	0	0
34.24659	0.08311943	0.03483682	0	0	0	0
34.26316	0.08311943	0.03483682	0	0	0	0
34.27973	0.08311943	0.03483682	0	0	0	0
34.2963	0.08311943	0.03483682	0	0	0	0
34.31334	0.08311943	0.03483682	0	0	0	0
34.32973	0.08311943	0.03483682	0	0	0	0
34.34599	0.08311943	0.03483682	0	0	0	0
34.36256	0.08311943	0.03483682	0	0	0	0
34.37913	0.08311943	0.03483682	0	0	0	0
34.39569	0.08311943	0.03483682	0	0	0	0
34.41226	0.08311943	0.03483682	0	0	0	0
34.42883	0.08311943	0.03483682	0	0	0	0
34.44539	0.08311943	0.03483682	0	0	0	0
34.46199	0.08311943	0.03483682	0	0	0	0
34.47874	0.08311943	0.03483682	0	0	0	0
34.49538	0.08311943	0.03483682	0	0	0	0
34.51166	0.08311943	0.03483682	0	0	0	0
34.52823	0.08311943	0.03483682	0	0	0	0
34.54491	0.08311943	0.03483682	0	0	0	0
34.56136	0.08311943	0.03483682	0	0	0	0
34.57793	0.08311943	0.03483682	0	0	0	0
34.5945	0.08311943	0.03483682	0	0	0	0
34.614	0.08311943	0.03483682	0	0	0	0
34.63057	0.08311943	0.03483682	0	0	0	0
34.64749	0.08311943	0.03483682	0	0	0	0
34.6637	0.08311943	0.03483682	0	0	0	0
34.68047	0.08311943	0.03483682	0	0	0	0
34.69684	0.08311943	0.03483682	0	0	0	0
34.71341	0.08311943	0.03483682	0	0	0	0
34.72997	0.08311943	0.03483682	0	0	0	0
34.74654	0.08311943	0.03483682	0	0	0	0
34.76311	0.08311943	0.03483682	0	0	0	0
34.77967	0.08311943	0.03483682	0	0	0	0
34.79624	0.08311943	0.03483682	0	0	0	0
34.81284	0.08311943	0.03483682	0	0	0	0
34.82947	0.08311943	0.03483682	0	0	0	0
34.84599	0.08311943	0.03483682	0	0	0	0
34.86277	0.08311943	0.03483682	0	0	0	0
34.87907	0.08311943	0.03483682	0	0	0	0
34.89564	0.08311943	0.03483682	0	0	0	0
34.91256	0.08311943	0.03483682	0	0	0	0
34.92877	0.08311943	0.03483682	0	0	0	0
34.94534	0.07945239	0.03483682	-0.221394	0	-6.754	0
34.96229	0.07945239	0.03483682	0	0	6.604885	0
34.97847	0.07945239	0.03483682	0	0	0	0
34.99512	0.07823005	0.03483682	-0.07337524	0	-2.234795	0
35.0116	0.07823005	0.03483682	0	0	2.214469	0
35.02836	0.0770077	0.03483682	-0.07292482	0	-2.194055	0
35.04473	0.0770077	0.03605916	4.551678E-07	0.07467505	2.201142	2.253957
35.0613	0.07578536	0.03605916	-0.07378072	0	-2.240131	-2.267271
35.07787	0.07578536	0.03605916	0	0	2.226707	0
35.09443	0.07578536	0.03605916	0	0	0	0
35.111	0.07456302	0.03605916	-0.07379772	0	-2.227476	0
35.12756	0.07334067	0.03728151	-0.07378118	0.07378072	0.0004992444	2.226963
35.14478	0.07211833	0.03728151	-0.07098575	0	0.08273735	-2.183716
35.1609	0.07211832	0.03850385	-4.623876E-07	0.0758593	2.129591	2.275814
35.17727	0.07089598	0.03850385	-0.07467483	2.275839E-07	-2.298936	-2.335408
35.19383	0.07089598	0.03850385	0	0	2.267264	-6.909862E-06
35.2104	0.07089598	0.03850385	0	0	0	0
35.23059	0.07089598	0.03850385	0	0	0	0
35.24716	0.07089598	0.03850385	0	0	0	0
35.26373	0.07089598	0.03850385	0	0	0	0
35.28031	0.07089598	0.03850385	0	0	0	0
35.29688	0.07089598	0.03850385	0	0	0	0
35.31347	0.07089598	0.03850385	0	0	0	0
35.33	0.07089598	0.03850385	0	0	0	0
35.34657	0.07089598	0.03850385	0	0	0	0
35.36313	0.07089598	0.03850385	0	0	0	0
35.3797	0.07089598	0.03850385	0	0	0	0
35.39627	0.07089598	0.03850385	0	0	0	0
35.41283	0.07089598	0.03850385	0	0	0	0
35.4294	0.07089598	0.03850385	0	0	0	0
35.44597	0.07089598	0.03850385	0	0	0	0
35.46254	0.07089598	0.03850385	0	0	0	0
35.4791	0.07089598	0.03850385	0	0	0	0
35.49567	0.07089598	0.03850385	0	0	0	0
35.51224	0.07089598	0.03850385	0	0	0	0
35.5288	0.07089598	0.03850385	0	0	0	0
35.54537	0.07089598	0.03850385	0	0	0	0
35.56194	0.07089598	0.03850385	0	0	0	0
35.57861	0.07089598	0.03850385	0	0	0	0
35.59507	0.07089598	0.03850385	0	0	0	0
35.61164	0.07089598	0.03850385	0	0	0	0
35.62832	0.07089598	0.03850385	0	0	0	0
35.64478	0.07089598	0.03850385	0	0	0	0
35.66134	0.07089598	0.03850385	0	0	0	0
35.67791	0.07089598	0.03850385	0	0	0	0
35.69448	0.07089598	0.03850385	0	0	0	0
35.71122	0.07089598	0.03850385	0	0	0	0
35.7281	0.07089598	0.03850385	0	0	0	0
35.74417	0.07089598	0.03850385	0	0	0	0
35.76074	0.07089598	0.03850385	0	0	0	0
35.77731	0.07089598	0.03850385	0	0	0	0
35.79387	0.07089598	0.03850385	0	0	0	0
35.81044	0.07089598	0.03850385	0	0	0	0
35.827	0.07089598	0.03850385	0	0	0	0
35.84357	0.07089598	0.03850385	0	0	0	0
35.86013	0.07089598	0.03850385	0	0	0	0
35.87709	0.07089598	0.03850385	0	0	0	0
35.89339	0.07089598	0.03850385	0	0	0	0
35.97924	0.07089598	0.03850385	0	0	0	0
35.99582	0.07089598	0.03850385	0	0	0	0
36.0125	0.07089598	0.03850385	0	0	0	0
36.02924	0.07089598	0.03850385	0	0	0	0
36.04625	0.07089598	0.03850385	0	0	0	0
36.06208	0.07089598	0.03850385	0	0	0	0
36.07865	0.07089598	0.03850385	0	0	0	0
36.09521	0.07089598	0.03850385	0	0	0	0
36.11178	0.07089598	0.03850385	0	0	0	0
36.12835	0.07089598	0.03850385	0	0	0	0
36.14492	0.07089598	0.03850385	0	0	0	0
36.16148	0.07089598	0.03850385	0	0	0	0
36.17822	0.07089598	0.03850385	0	0	0	0
36.19462	0.07089598	0.03850385	0	0	0	0
36.21119	0.07089598	0.03850385	0	0	0	0
36.22775	0.07089598	0.03850385	0	0	0	0
36.24435	0.07089598	0.03850385	0	0	0	0
36.26089	0.07089598	0.03850385	0	0	0	0
36.27745	0.07089598	0.03850385	0	0	0	0
36.29402	0.07089598	0.03850385	0	0	0	0
36.31059	0.07089598	0.03850385	0	0	0	0
36.32715	0.07089598	0.03850385	0	0	0	0
36.34374	0.07089598	0.03850385	0	0	0	0
36.36029	0.07089598	0.03850385	0	0	0	0
36.37685	0.07089598	0.03850385	0	0	0	0
36.39342	0.07089598	0.03850385	0	0	0	0
36.41005	0.07089598	0.03850385	0	0	0	0
36.42655	0.07089598	0.03850385	0	0	0	0
36.44312	0.07089598	0.03850385	0	0	0	0
36.45968	0.07089598	0.03850385	0	0	0	0
36.47688	0.07089598	0.03850385	0	0	0	0
36.49282	0.07089598	0.03850385	0	0	0	0
36.50952	0.07089598	0.03850385	0	0	0	0
36.52595	0.07089598	0.03850385	0	0	0	0
36.54287	0.07089598	0.03850385	0	0	0	0
36.55908	0.07089598	0.03850385	0	0	0	0
36.57565	0.07089598	0.03850385	0	0	0	0
36.59222	0.07089598	0.03850385	0	0	0	0
36.60878	0.07089598	0.03850385	0	0	0	0
36.62679	0.07089598	0.03850385	0	0	0	0
36.6436	0.07089598	0.03850385	0	0	0	0
36.65993	0.07089598	0.03850385	0	0	0	0
36.6765	0.07089598	0.03850385	0	0	0	0
36.69307	0.07089598	0.03850385	0	0	0	0
36.70963	0.07089598	0.03850385	0	0	0	0
36.72626	0.07089598	0.03850385	0	0	0	0
36.74277	0.07089598	0.03850385	0	0	0	0
36.7598	0.07089598	0.03850385	0	0	0	0
36.7759	0.0660066	0.03605916	-0.3037253	-0.1518626	-9.169614	-4.584807
36.79247	0.03667033	0.0287251	-1.770741	-0.4426851	-44.91058	-8.903115
36.80903	0.0220022	0.02383572	-0.8853703	-0.2951236	26.72053	4.453416
36.8256	-0.05745019	0.01527931	-4.795756	-0.516466	-118.0157	-6.680126
36.84235	-0.1149004	0.01405696	-3.430575	-0.07299093	40.97952	13.31207
36.85873	-0.1686835	0.01405696	-3.282638	-5.684299E-08	4.465256	2.203123
36.8753	-0.2102433	0.01405696	-2.507972	5.62018E-08	23.50664	3.43026E-06
36.89186	-0.2371348	0.01405696	-1.623552	0	26.69185	-1.696174E-06
36.90843	-0.25547	0.01283462	-1.106714	-0.07378089	15.60003	-2.226968
36.925	-0.2738052	0.01038993	-1.106968	-0.1475957	-0.007667674	-2.227992
36.94156	-0.2896957	0.009167585	-0.9591512	-0.07378078	4.46162	2.227996
36.95813	-0.3080308	0.009167584	-1.106713	-5.621474E-08	-4.453414	2.226707
36.9747	-0.3214766	0.009167583	-0.811588	-5.621474E-08	8.906881	0
36.99126	-0.330033	0.007945239	-0.5164669	-0.07378083	8.906774	-2.226708
37.00783	-0.3349224	0.00794524	-0.2951229	5.621474E-08	6.680174	2.226712
37.0244	-0.3361447	0.00794524	-0.07378072	0	6.68012	-1.696564E-06
37.04123	-0.3398118	0.00794524	-0.217833	0	-4.312749	0
37.05753	-0.3471459	0.00794524	-0.4500435	0	-7.008935	0
37.07452	-0.3557022	0.007945239	-0.5037054	-5.48261E-08	-1.612279	-1.647259E-06
37.09066	-0.3605916	0.00794524	-0.3028654	5.768918E-08	6.062059	3.396109E-06
37.10723	-0.3642587	0.007945239	-0.221344	-5.621474E-08	2.492171	-3.482126E-06
37.12379	-0.3679257	0.007945239	-0.2213404	0	0.0001088317	1.696564E-06
37.14086	-0.369148	0.00794524	-0.07162215	5.456876E-08	4.451371	1.62242E-06
37.15693	-0.369148	0.00794524	0	0	2.16181	-1.647078E-06
37.1735	-0.369148	0.00794524	0	0	0	0
37.19006	-0.369148	0.00794524	0	0	0	0
37.2071	-0.369148	0.00794524	0	0	0	0
37.22319	-0.369148	0.00794524	0	0	0	0
37.24059	-0.369148	0.00794524	0	0	0	0
37.25632	-0.369148	0.00794524	0	0	0	0
37.27289	-0.3679257	0.007945239	0.07378253	-5.621474E-08	2.284626	-1.740652E-06
37.28946	-0.3019191	0.01527931	3.984164	0.4426852	118.0156	13.36027
37.30602	-0.3019191	0.01527931	0	0	-120.2423	-13.36027
37.32286	-0.1919081	0.02505806	6.531988	0.5806212	195.5151	17.37913
37.33916	-0.1210121	0.02750275	4.35143	0.1500491	-65.80936	-12.99469
37.35572	-0.0660066	0.03116978	3.320139	0.2213425	-31.38458	2.169623
37.37229	-0.02933627	0.03361447	2.213426	0.1475617	-33.40067	-2.226711
37.38907	-0.006111722	0.03483682	1.383991	0.0728417	-24.87205	-2.240608
37.40542	0.009778756	0.03728151	0.9719071	0.1495241	-12.43814	2.314546
37.42199	0.01711282	0.03850385	0.4426851	0.07378072	-16.07746	-2.30104
37.43914	0.02077986	0.0397262	0.2138579	0.07128624	-6.787243	-0.07398892
37.45533	0.02322455	0.0397262	0.1509327	0	-1.887138	-2.137886
37.47169	0.02322455	0.04094854	0	0.07472707	-4.636291	2.295436
37.48826	0.02322455	0.04094854	0	0	0	-2.269639
37.50483	0.02444689	0.04094854	0.07378083	0	2.22671	0
37.52139	0.02444689	0.04094854	0	0	-2.22671	0
37.53796	0.02444689	0.04094854	0	0	0	0
37.55453	0.02444689	0.04094854	0	0	0	0
37.57109	0.02444689	0.04094854	0	0	0	0
37.58766	0.02444689	0.04094854	0	0	0	0
37.60423	0.02444689	0.04094854	0	0	0	0
37.6208	0.02444689	0.04094854	0	0	0	0
37.63759	0.02444689	0.04094854	0	0	0	0
37.65393	0.02444689	0.04094854	0	0	0	0
37.6705	0.02444689	0.04094854	0	0	0	0
37.68707	0.02444689	0.04094854	0	0	0	0
37.70363	0.02444689	0.04094854	0	0	0	0
37.7202	0.02444689	0.04094854	0	0	0	0
37.73677	0.02444689	0.04094854	0	0	0	0
37.75372	0.02444689	0.04094854	0	0	0	0
37.7699	0.02444689	0.04094854	0	0	0	0
37.78658	0.02444689	0.04094854	0	0	0	0
37.80318	0.02444689	0.04094854	0	0	0	0
37.81967	0.02444689	0.04094854	0	0	0	0
37.83617	0.02444689	0.04094854	0	0	0	0
37.85273	0.02444689	0.04094854	0	0	0	0
37.8693	0.02444689	0.04094854	0	0	0	0
37.88626	0.02444689	0.04094854	0	0	0	0
37.90289	0.02444689	0.04094854	0	0	0	0
37.91901	0.02444689	0.04094854	0	0	0	0
37.93864	0.02444689	0.04094854	0	0	0	0
37.95521	0.02444689	0.04094854	0	0	0	0
37.97178	0.02444689	0.04094854	0	0	0	0
37.98835	0.02444689	0.04094854	0	0	0	0
38.00491	0.02444689	0.04094854	0	0	0	0
38.02148	0.02444689	0.04094854	0	0	0	0
38.03805	0.02444689	0.04094854	0	0	0	0
38.05472	0.02444689	0.04094854	0	0	0	0
38.07124	0.02444689	0.04094854	0	0	0	0
38.08775	0.02444689	0.04094854	0	0	0	0
38.10471	0.02444689	0.04094854	0	0	0	0
38.12088	0.02444689	0.04094854	0	0	0	0
38.13745	0.02444689	0.04094854	0	0	0	0
38.15401	0.02444689	0.04094854	0	0	0	0
38.17058	0.02444689	0.04094854	0	0	0	0
38.18716	0.02444689	0.04094854	0	0	0	0
38.20372	0.02444689	0.04094854	0	0	0	0
38.22029	0.02444689	0.04094854	0	0	0	0
38.23686	0.02444689	0.04094854	0	0	0	0
38.25365	0.02444689	0.04094854	0	0	0	0
38.27019	0.02444689	0.04094854	0	0	0	0
38.28745	0.02444689	0.04094854	0	0	0	0
38.30312	0.02444689	0.04094854	0	0	0	0
38.3203	0.02444689	0.04094854	0	0	0	0
38.33626	0.02444689	0.04094854	0	0	0	0
38.35315	0.02444689	0.04094854	0	0	0	0
38.36961	0.02444689	0.04094854	0	0	0	0
38.38596	0.02444689	0.04094854	0	0	0	0
38.40253	0.02444689	0.04094854	0	0	0	0
38.41957	0.02444689	0.04094854	0	0	0	0
38.43565	0.02444689	0.04094854	0	0	0	0
38.45222	0.02444689	0.04094854	0	0	0	0
38.46927	0.02444689	0.04094854	0	0	0	0
38.48536	0.02444689	0.04094854	0	0	0	0
38.50192	0.02444689	0.04094854	0	0	0	0
38.51849	0.02444689	0.04094854	0	0	0	0
38.53506	0.02444689	0.04094854	0	0	0	0
38.55162	0.02444689	0.04094854	0	0	0	0
38.56819	0.02444689	0.04094854	0	0	0	0
38.58476	0.02444689	0.04094854	0	0	0	0
38.60133	0.02444689	0.04094854	0	0	0	0
38.61789	0.02444689	0.04094854	0	0	0	0
38.63446	0.02444689	0.04094854	0	0	0	0
38.65103	0.02444689	0.04094854	0	0	0	0
38.66759	0.02444689	0.04094854	0	0	0	0
38.68416	0.02444689	0.04094854	0	0	0	0
38.70073	0.02444689	0.04094854	0	0	0	0
38.7173	0.02444689	0.04094854	0	0	0	0
38.73432	0.02444689	0.04094854	0	0	0	0
38.75043	0.02444689	0.04094854	0	0	0	0
38.76699	0.02444689	0.04094854	0	0	0	0
38.78357	0.02444689	0.04094854	0	0	0	0
38.80013	0.02444689	0.04094854	0	0	0	0
38.81699	0.02444689	0.04094854	0	0	0	0
38.83326	0.02444689	0.04094854	0	0	0	0
38.84983	0.02444689	0.04094854	0	0	0	0
38.86639	0.02444689	0.04094854	0	0	0	0
38.88296	0.02444689	0.04094854	0	0	0	0
38.89952	0.02444689	0.04094854	0	0	0	0
38.91612	0.02444689	0.04094854	0	0	0	0
38.93266	0.02444689	0.04094854	0	0	0	0
38.94923	0.02444689	0.04094854	0	0	0	0
38.9658	0.02444689	0.04094854	0	0	0	0
38.98236	0.02444689	0.04094854	0	0	0	0
38.99893	0.02444689	0.04094854	0	0	0	0
39.01552	0.02444689	0.04094854	0	0	0	0
39.03222	0.02444689	0.04094854	0	0	0	0
39.04863	0.02444689	0.04094854	0	0	0	0
39.06519	0.02444689	0.04094854	0	0	0	0
39.08176	0.02444689	0.04094854	0	0	0	0
39.09836	0.02444689	0.04094854	0	0	0	0
39.11489	0.02444689	0.04094854	0	0	0	0
39.13146	0.02444689	0.04094854	0	0	0	0
39.14869	0.02444689	0.04094854	0	0	0	0
39.16459	0.02444689	0.04094854	0	0	0	0
39.18116	0.02444689	0.04094854	0	0	0	0
39.19773	0.02444689	0.04094854	0	0	0	0
39.21477	0.02444689	0.04094854	0	0	0	0
39.23086	0.02444689	0.04094854	0	0	0	0
39.25123	0.02444689	0.04094854	0	0	0	0
39.2678	0.02444689	0.04094854	0	0	0	0
39.28437	0.02444689	0.04094854	0	0	0	0
39.30127	0.02444689	0.04094854	0	0	0	0
39.3178	0.02444689	0.04094854	0	0	0	0
39.33406	0.02444689	0.04094854	0	0	0	0
39.3507	0.02444689	0.04094854	0	0	0	0
39.3672	0.02444689	0.04094854	0	0	0	0
39.38376	0.02444689	0.04094854	0	0	0	0
39.40043	0.02444689	0.04094854	0	0	0	0
39.4169	0.02444689	0.04094854	0	0	0	0
39.43348	0.02444689	0.04094854	0	0	0	0
39.45003	0.02444689	0.04094854	0	0	0	0
39.4666	0.02444689	0.04094854	0	0	0	0
39.48317	0.02444689	0.04094854	0	0	0	0
39.49973	0.02444689	0.04094854	0	0	0	0
39.5163	0.02444689	0.04094854	0	0	0	0
39.53287	0.02444689	0.04094854	0	0	0	0
39.54954	0.02444689	0.04094854	0	0	0	0
39.56605	0.02444689	0.04094854	0	0	0	0
39.58257	0.02444689	0.04094854	0	0	0	0
39.59913	0.02444689	0.04094854	0	0	0	0
39.6157	0.02444689	0.04094854	0	0	0	0
39.6324	0.02444689	0.04094854	0	0	0	0
39.64883	0.02444689	0.04094854	0	0	0	0
39.6654	0.02444689	0.04094854	0	0	0	0
39.68197	0.02444689	0.04094854	0	0	0	0
39.69853	0.02444689	0.04094854	0	0	0	0
39.71527	0.02444689	0.04094854	0	0	0	0
39.73183	0.02444689	0.04094854	0	0	0	0
39.74833	0.02444689	0.04094854	0	0	0	0
39.7648	0.02444689	0.04094854	0	0	0	0
39.78143	0.02444689	0.04094854	0	0	0	0
39.798	0.02444689	0.04094854	0	0	0	0
39.8145	0.02444689	0.04094854	0	0	0	0
39.83107	0.02444689	0.04094854	0	0	0	0
39.84763	0.02444689	0.04094854	0	0	0	0
39.8642	0.02444689	0.04094854	0	0	0	0
39.89251	0.02444689	0.04094854	0	0	0	0
39.90908	0.02444689	0.04094854	0	0	0	0
39.92565	0.02444689	0.04094854	0	0	0	0
39.94248	0.02444689	0.04094854	0	0	0	0
39.95903	0.02444689	0.04094854	0	0	0	0
39.97562	0.02444689	0.04094854	0	0	0	0
39.99192	0.02444689	0.04094854	0	0	0	0
40.00857	0.02444689	0.04094854	0	0	0	0
40.0253	0.02444689	0.04094854	0	0	0	0
40.04162	0.02444689	0.04094854	0	0	0	0
40.05819	0.02444689	0.04094854	0	0	0	0
40.07475	0.02444689	0.04094854	0	0	0	0
40.09143	0.02444689	0.04094854	0	0	0	0
40.10788	0.02444689	0.04094854	0	0	0	0
40.12445	0.02444689	0.04094854	0	0	0	0
40.14105	0.02444689	0.04094854	0	0	0	0
40.1582	0.02444689	0.04094854	0	0	0	0
40.17415	0.02444689	0.04094854	0	0	0	0
40.19072	0.02444689	0.04094854	0	0	0	0
40.20729	0.02444689	0.04094854	0	0	0	0
40.22385	0.02444689	0.04094854	0	0	0	0
40.24042	0.02444689	0.04094854	0	0	0	0
40.25699	0.02444689	0.04094854	0	0	0	0
40.27356	0.02444689	0.04094854	0	0	0	0
40.29012	0.02444689	0.04094854	0	0	0	0
40.30669	0.02444689	0.04094854	0	0	0	0
40.32327	0.02444689	0.04094854	0	0	0	0
40.33982	0.02444689	0.04094854	0	0	0	0
40.35656	0.02444689	0.04094854	0	0	0	0
40.37301	0.02444689	0.04094854	0	0	0	0
40.38952	0.02444689	0.04094854	0	0	0	0
40.40609	0.02444689	0.04094854	0	0	0	0
40.42265	0.02444689	0.04094854	0	0	0	0
40.43932	0.02444689	0.04094854	0	0	0	0
40.45644	0.02444689	0.04094854	0	0	0	0
40.47235	0.02444689	0.04094854	0	0	0	0
40.48926	0.02444689	0.04094854	0	0	0	0
40.50549	0.02444689	0.04094854	0	0	0	0
40.52206	0.02444689	0.04094854	0	0	0	0
40.5434	0.02444689	0.04094854	0	0	0	0
40.56015	0.02444689	0.04094854	0	0	0	0
40.57654	0.02444689	0.04094854	0	0	0	0
40.5932	0.02444689	0.04094854	0	0	0	0
40.60967	0.02444689	0.04094854	0	0	0	0
40.62624	0.02444689	0.04094854	0	0	0	0
40.64281	0.02444689	0.04094854	0	0	0	0
40.65938	0.02444689	0.04094854	0	0	0	0
40.67595	0.02444689	0.04094854	0	0	0	0
40.69298	0.02444689	0.04094854	0	0	0	0
40.70908	0.02444689	0.04094854	0	0	0	0
40.72564	0.02444689	0.04094854	0	0	0	0
40.74221	0.02444689	0.04094854	0	0	0	0
40.75899	0.02444689	0.04094854	0	0	0	0
40.77535	0.02444689	0.04094854	0	0	0	0
40.79205	0.02444689	0.04094854	0	0	0	0
40.80909	0.02444689	0.04094854	0	0	0	0
40.82505	0.02444689	0.04094854	0	0	0	0
40.84161	0.02444689	0.04094854	0	0	0	0
40.85818	0.02444689	0.04094854	0	0	0	0
40.87475	0.02444689	0.04094854	0	0	0	0
40.89132	0.02444689	0.04094854	0	0	0	0
40.90788	0.02444689	0.04094854	0	0	0	0
40.92445	0.02444689	0.04094854	0	0	0	0
40.94102	0.02444689	0.04094854	0	0	0	0
40.95758	0.02444689	0.04094854	0	0	0	0
40.97438	0.02444689	0.04094854	0	0	0	0
40.99072	0.02444689	0.04094854	0	0	0	0
41.00728	0.02444689	0.04094854	0	0	0	0
41.02413	0.03055861	0.04583792	0.3627238	0.290179	10.85455	8.68364
41.04042	0.04155971	0.0592837	0.6755382	0.8256576	9.440758	16.16078
41.05724	0.06356191	0.08984232	1.307582	1.816087	19.08831	29.91187
41.07355	0.1002322	0.1460702	2.24916	3.448711	28.42014	49.27839
41.09011	0.1601271	0.2353013	3.615262	5.386002	41.55919	58.93572
41.10668	0.188241	0.2817504	1.696959	2.803672	-57.89448	-77.93488
41.12325	0.2029092	0.3061973	0.8853714	1.475618	-24.49377	-40.08075
41.13982	0.212688	0.3208654	0.5902476	0.8853705	-8.906855	-17.81371
41.15638	0.2175773	0.3269771	0.295122	0.3689036	-8.906907	-15.587
41.17295	0.2187997	0.3306442	0.07378162	0.221344	-6.680066	-4.453359
41.18985	0.2187997	0.3318665	0	0.07233176	-2.204652	-4.4526
41.21013	0.2187997	0.3318665	0	0	0	-1.945351
41.2267	0.2187997	0.3318665	0	0	0	0
41.24327	0.2187997	0.3318665	0	0	0	0
41.25983	0.2187997	0.3318665	0	0	0	0
41.2764	0.2187997	0.3318665	0	0	0	0
41.29297	0.2187997	0.3318665	0	0	0	0
41.30954	0.2187997	0.3318665	0	0	0	0
41.3262	0.2187997	0.3318665	0	0	0	0
41.34267	0.2187997	0.3318665	0	0	0	0
41.35924	0.2187997	0.3318665	0	0	0	0
41.3758	0.2187997	0.3318665	0	0	0	0
41.39247	0.2187997	0.3318665	0	0	0	0
41.40897	0.2187997	0.3306442	0	-0.07407066	0	-2.233143
41.42551	0.2175773	0.3245324	-0.07393394	-0.3696715	-2.23803	-8.948035
41.44207	0.2139103	0.3184207	-0.2213422	-0.3689036	-4.453404	0.023198
41.45864	0.2053539	0.3037526	-0.516466	-0.8853705	-8.906854	-15.587
41.47521	0.1943528	0.2829728	-0.6640292	-1.254274	-4.453469	-11.13353
41.49178	0.17724	0.2548588	-1.032931	-1.69696	-11.13348	-13.36029
41.50842	0.1576824	0.2255226	-1.175082	-1.762623	-4.280266	-1.977157
41.52491	0.1369026	0.1876299	-1.260078	-2.297789	-2.56518	-16.15133
41.54164	0.1222344	0.1595159	-0.8766904	-1.680323	11.5401	18.58592
41.5581	0.1087887	0.1375138	-0.8168561	-1.336673	1.802688	10.35352
41.57461	0.09534287	0.1118445	-0.8144021	-1.554768	0.07443162	-6.614876
41.59118	0.08923114	0.1008434	-0.3689045	-0.6640279	13.4684	26.92909
41.60775	0.08434176	0.09228701	-0.2951233	-0.516466	2.226721	4.453427
41.62431	0.08067474	0.08861998	-0.2213932	-0.2213936	2.225438	8.906327
41.64088	0.07823005	0.08250825	-0.1475619	-0.3689045	2.228488	-4.452401
41.65744	0.0770077	0.08006357	-0.07378072	-0.1475614	2.22672	6.680148
41.67401	0.0770077	0.07884122	0	-0.07378072	2.226707	2.226707
41.69058	0.07578536	0.07761887	-0.07378072	-0.07378118	-2.226707	-1.37164E-05
41.70715	0.07578536	0.07761887	0	0	2.226707	2.22672
41.72397	0.07578536	0.07761887	0	0	0	0
41.74028	0.07578536	0.07761887	0	0	0	0
41.75687	0.07578536	0.07761887	0	0	0	0
41.77341	0.07578536	0.07761887	0	0	0	0
41.79037	0.07578536	0.07761887	0	0	0	0
41.80655	0.07578536	0.07761887	0	0	0	0
41.82311	0.07578536	0.07761887	0	0	0	0
41.83968	0.07578536	0.07761887	0	0	0	0
41.86105	0.07578536	0.07517418	0	-0.1143783	0	-3.014636
41.8781	0.07578536	0.07517418	0	0	0	2.976923
41.89423	0.07578536	0.07517418	0	0	0	0
41.91079	0.07578536	0.07395184	0	-0.07383172	0	-2.258406
41.92775	0.07456301	0.07395184	-0.07205569	0	-2.149649	2.202634
41.94399	0.07456301	0.07395184	0	0	2.170397	0
41.96046	0.07456301	0.07395184	0	0	0	0
41.97702	0.07456301	0.07395184	0	0	0	0
41.99379	0.07456301	0.07395184	0	0	0	0
42.01033	0.07456301	0.07395184	0	0	0	0
42.02673	0.07456301	0.07395184	0	0	0	0
42.04329	0.07456301	0.07395184	0	0	0	0
42.05986	0.07456301	0.07395184	0	0	0	0
42.07643	0.07456301	0.07395184	0	0	0	0
42.09317	0.07456301	0.07395184	0	0	0	0
42.10957	0.07456301	0.07395184	0	0	0	0
42.12625	0.07456301	0.07395184	0	0	0	0
42.14282	0.07456301	0.07395184	0	0	0	0
42.15937	0.07456301	0.07395184	0	0	0	0
42.17583	0.07456301	0.07395184	0	0	0	0
42.1924	0.07456301	0.07395184	0	0	0	0
42.209	0.07456301	0.07395184	0	0	0	0
42.22553	0.07456301	0.07395184	0	0	0	0
42.2421	0.07456301	0.07395184	0	0	0	0
42.25945	0.07456301	0.07395184	0	0	0	0
42.27523	0.07456301	0.07395184	0	0	0	0
42.2918	0.07456301	0.07395184	0	0	0	0
42.30872	0.07456301	0.07395184	0	0	0	0
42.32493	0.07456301	0.07395184	0	0	0	0
42.34179	0.07456301	0.07395184	0	0	0	0
42.35806	0.07456301	0.07395184	0	0	0	0
42.37481	0.07456301	0.07395184	0	0	0	0
42.39119	0.07456301	0.07395184	0	0	0	0
42.40832	0.07456301	0.07395184	0	0	0	0
42.42433	0.07456301	0.07395184	0	0	0	0
42.4409	0.07456301	0.07395184	0	0	0	0
42.45746	0.07456301	0.07395184	0	0	0	0
42.47403	0.07456301	0.07395184	0	0	0	0
42.49068	0.07456301	0.07395184	0	0	0	0
42.50718	0.07456301	0.07395184	0	0	0	0
42.52376	0.07456301	0.07395184	0	0	0	0
42.54029	0.07456301	0.07395184	0	0	0	0
42.55738	0.07456301	0.07395184	0	0	0	0
42.57343	0.07456301	0.07395184	0	0	0	0
42.59	0.07456301	0.07395184	0	0	0	0
42.60656	0.07456301	0.07395184	0	0	0	0
42.62335	0.07456301	0.07395184	0	0	0	0
42.6397	0.07456301	0.07395184	0	0	0	0
42.65636	0.07456301	0.07395184	0	0	0	0
42.67283	0.07456301	0.07395184	0	0	0	0
42.6894	0.07456301	0.07395184	0	0	0	0
42.70596	0.07456301	0.07395184	0	0	0	0
42.72253	0.07456301	0.07395184	0	0	0	0
42.7391	0.07456301	0.07395184	0	0	0	0
42.75566	0.07456301	0.07395184	0	0	0	0
42.77223	0.07456301	0.07395184	0	0	0	0
42.7888	0.07456301	0.07395184	0	0	0	0
42.80537	0.07456301	0.07395184	0	0	0	0
42.82193	0.07456301	0.07395184	0	0	0	0
42.8385	0.07456301	0.07395184	0	0	0	0
42.85507	0.07334067	0.0727295	-0.07378072	-0.07378072	-2.226707	-2.226707
42.87164	0.07211833	0.0727295	-0.07376374	0	0.0005123946	2.22645
42.88821	0.06967364	0.0727295	-0.1475614	0	-2.226963	0
42.90477	0.06845129	0.07028481	-0.07379816	-0.1475959	2.226437	-4.454966
42.92134	0.06478426	0.07028481	-0.2213426	0	-4.453413	4.454966
42.9379	0.06233957	0.06906246	-0.1475617	-0.07378072	2.226714	-2.226707
42.95447	0.06111722	0.06784011	-0.07378118	-0.07378118	2.2267	-1.37164E-05
42.97104	0.06111722	0.06784011	0	0	2.226977	2.226977
42.9876	0.05867254	0.06661777	-0.1475614	-0.07378072	-4.453926	-2.226963
43.00417	0.05745019	0.06661777	-0.07378095	0	2.2267	2.226707
43.02115	0.05745019	0.06661777	0	0	2.199117	0
43.03755	0.05622784	0.06539543	-0.07455344	-0.07455321	-2.23357	-2.233563
43.05387	0.05622784	0.06539543	0	0	2.278887	2.27888
43.07061	0.05622784	0.06539543	0	0	0	0
43.087	0.05500551	0.06539543	-0.07457033	0	-2.250537	0
43.10357	0.05500551	0.06539543	0	0	2.262519	0
43.12014	0.05500551	0.06539543	0	0	0	0
43.1367	0.05500551	0.06539543	0	0	0	0
43.15327	0.05500551	0.06539543	0	0	0	0
43.17306	0.05500551	0.06539543	0	0	0	0
43.18963	0.05500551	0.06539543	0	0	0	0
43.2062	0.05500551	0.06539543	0	0	0	0
43.22276	0.05500551	0.06539543	0	0	0	0
43.23933	0.05500551	0.06539543	0	0	0	0
43.2559	0.05500551	0.06539543	0	0	0	0
43.27246	0.05500551	0.06539543	0	0	0	0
43.28903	0.05500551	0.06539543	0	0	0	0
43.3056	0.05500551	0.06539543	0	0	0	0
43.32217	0.05500551	0.06539543	0	0	0	0
43.33873	0.05500551	0.06539543	0	0	0	0
43.36602	0.05500551	0.06539543	0	0	0	0
43.38263	0.05500551	0.06539543	0	0	0	0
43.39915	0.05500551	0.06539543	0	0	0	0
43.41572	0.05500551	0.06539543	0	0	0	0
43.43229	0.05500551	0.06539543	0	0	0	0
43.44885	0.05500551	0.06539543	0	0	0	0
43.46542	0.05500551	0.06539543	0	0	0	0
43.48227	0.05500551	0.06539543	0	0	0	0
43.49855	0.05500551	0.06539543	0	0	0	0
43.51512	0.05500551	0.06539543	0	0	0	0
43.5319	0.05500551	0.06539543	0	0	0	0
43.54825	0.05500551	0.06539543	0	0	0	0
43.56491	0.05500551	0.06539543	0	0	0	0
43.58225	0.05500551	0.06539543	0	0	0	0
43.59801	0.05500551	0.06539543	0	0	0	0
43.61452	0.05500551	0.06539543	0	0	0	0
43.63108	0.05500551	0.06539543	0	0	0	0
43.64765	0.05500551	0.06539543	0	0	0	0
43.66422	0.05500551	0.06539543	0	0	0	0
43.68079	0.05500551	0.06539543	0	0	0	0
43.69735	0.05500551	0.06539543	0	0	0	0
43.71392	0.05500551	0.06539543	0	0	0	0
43.73049	0.05500551	0.06539543	0	0	0	0
43.74741	0.05500551	0.06539543	0	0	0	0
43.76362	0.05500551	0.06539543	0	0	0	0
43.78019	0.05500551	0.06539543	0	0	0	0
43.79675	0.05500551	0.06539543	0	0	0	0
43.81345	0.05500551	0.06539543	0	0	0	0
43.82988	0.05500551	0.06539543	0	0	0	0
43.84668	0.05500551	0.06539543	0	0	0	0
43.86302	0.05500551	0.06539543	0	0	0	0
43.87959	0.05500551	0.06539543	0	0	0	0
43.89622	0.05500551	0.06539543	0	0	0	0
43.91272	0.05500551	0.06539543	0	0	0	0
43.92929	0.05500551	0.06539543	0	0	0	0
43.94585	0.05500551	0.06539543	0	0	0	0
43.96279	0.05500551	0.06539543	0	0	0	0
43.97899	0.05500551	0.06539543	0	0	0	0
43.99556	0.05500551	0.06539543	0	0	0	0
44.01212	0.05500551	0.06539543	0	0	0	0
44.02881	0.05500551	0.06539543	0	0	0	0
44.04577	0.05500551	0.06539543	0	0	0	0
44.06182	0.05500551	0.06539543	0	0	0	0
44.07839	0.05500551	0.06539543	0	0	0	0
44.09496	0.05500551	0.06539543	0	0	0	0
44.11157	0.05500551	0.06539543	0	0	0	0
44.12809	0.05500551	0.06539543	0	0	0	0
44.14522	0.05500551	0.06539543	0	0	0	0
44.16127	0.05500551	0.06539543	0	0	0	0
44.17779	0.05500551	0.06539543	0	0	0	0
44.19436	0.05500551	0.06539543	0	0	0	0
44.21092	0.05500551	0.06539543	0	0	0	0
44.22749	0.05500551	0.06539543	0	0	0	0
