Time	Pos X	Pos Y	Vel X	Vel Y	Acc X	Acc Y
0.01656356	0.04889378	0.01894634	-0.0004247712	-0.0001645989	3.690788E-06	1.430181E-06
0.04665224	0.04889378	0.017724	0	-0.04062472	-3.691222E-06	0.0003515946
0.06322251	0.05011613	0.01650165	0.07376742	-0.07376742	1.580992	-0.7103181
0.07978883	0.05011613	0.01650165	0	0	-2.226162	2.226162
0.09721848	0.05011612	0.01527931	-2.137329E-07	-0.07013016	-6.287008E-06	-2.062896
0.1130794	0.05133847	0.01405696	0.07706689	-0.07706654	2.314985	-0.2083588
0.1295407	0.05133847	0.01405696	0	0	-2.384333	2.384322
0.1460561	0.05133847	0.01405696	0	0	0	0
0.1626232	0.05133847	0.01405696	0	0	0	0
0.1791883	0.05133847	0.01405696	0	0	0	0
0.1957558	0.05133847	0.01405696	0	0	0	0
0.2123221	0.05133847	0.01405696	0	0	0	0
0.2288885	0.05133847	0.01405696	0	0	0	0
0.2454564	0.05256081	0.01405696	0.07377774	-5.621247E-08	2.226633	-1.696508E-06
0.2620827	0.05256081	0.01283462	0	-0.07351853	-2.222607	-2.214797
0.2785894	0.05256081	0.01283462	0	0	0	2.218889
0.2951581	0.05256081	0.01283462	0	0	0	0
0.3121184	0.05256081	0.01283462	0	0	0	0
0.3291162	0.05256081	0.01283462	0	0	0	0
0.3448547	0.05256081	0.01283462	0	0	0	0
0.3621624	0.05256081	0.01283462	0	0	0	0
0.3781717	0.05256081	0.01283462	0	0	0	0
0.3946855	0.05256081	0.01283462	0	0	0	0
0.4111215	0.05256081	0.01283462	0	0	0	0
0.4276879	0.05256081	0.01283462	0	0	0	0
0.444255	0.05256081	0.01283462	0	0	0	0
0.4608233	0.05256081	0.01283462	0	0	0	0
0.4773892	0.05256081	0.01283462	0	0	0	0
0.4939591	0.05256081	0.01283462	0	0	0	0
0.5105258	0.05256081	0.01283462	0	0	0	0
0.5271343	0.05256081	0.01283462	0	0	0	0
0.5436576	0.05256081	0.01283462	0	0	0	0
0.5602255	0.05256081	0.01283462	0	0	0	0
0.576793	0.05256081	0.01283462	0	0	0	0
0.5933621	0.05256081	0.01283462	0	0	0	0
0.6102075	0.05256081	0.01283462	0	0	0	0
0.626668	0.05256081	0.01283462	0	0	0	0
0.6430575	0.05256081	0.01283462	0	0	0	0
0.6596239	0.05256081	0.01283462	0	0	0	0
0.6761906	0.05256081	0.01283462	0	0	0	0
0.6927572	0.05256081	0.01283462	0	0	0	0
0.7093236	0.05256081	0.01283462	0	0	0	0
0.7258915	0.05256081	0.01283462	0	0	0	0
0.742759	0.05256081	0.01283462	0	0	0	0
0.7596328	0.05256081	0.01283462	0	0	0	0
0.7755912	0.05256081	0.01283462	0	0	0	0
0.7925282	0.05256081	0.01283462	0	0	0	0
0.8087242	0.05256081	0.01283462	0	0	0	0
0.8256233	0.05256081	0.01283462	0	0	0	0
0.8418573	0.05256081	0.01283462	0	0	0	0
0.8584248	0.05256081	0.01283462	0	0	0	0
0.8751186	0.05256081	0.01283462	0	0	0	0
0.891557	0.05256081	0.01283462	0	0	0	0
0.9084104	0.05256081	0.01283462	0	0	0	0
0.9250655	0.05256081	0.01283462	0	0	0	0
0.9412584	0.05256081	0.01283462	0	0	0	0
0.9578247	0.05256081	0.01283462	0	0	0	0
0.9777626	0.05256081	0.01283462	0	0	0	0
0.9943341	0.05256081	0.01283462	0	0	0	0
1.010901	0.05256081	0.01283462	0	0	0	0
1.028005	0.05256081	0.01283462	0	0	0	0
1.044036	0.05256081	0.01283462	0	0	0	0
1.060604	0.05256081	0.01283462	0	0	0	0
1.07717	0.05256081	0.01283462	0	0	0	0
1.093737	0.05256081	0.01283462	0	0	0	0
1.110303	0.05256081	0.01283462	0	0	0	0
1.126869	0.05256081	0.01283462	0	0	0	0
1.143861	0.05256081	0.01283462	0	0	0	0
1.160009	0.05256081	0.01283462	0	0	0	0
1.17657	0.05256081	0.01283462	0	0	0	0
1.193137	0.05256081	0.01283462	0	0	0	0
1.210196	0.05256081	0.01283462	0	0	0	0
1.226266	0.05256081	0.01283462	0	0	0	0
1.243181	0.05256081	0.01283462	0	0	0	0
1.259398	0.05256081	0.01283462	0	0	0	0
1.275967	0.05256081	0.01283462	0	0	0	0
1.292649	0.05256081	0.01283462	0	0	0	0
1.309502	0.05256081	0.01283462	0	0	0	0
1.325726	0.05256081	0.01283462	0	0	0	0
1.343007	0.05256081	0.01283462	0	0	0	0
1.358802	0.05256081	0.01283462	0	0	0	0
1.37538	0.05256081	0.01283462	0	0	0	0
1.392202	0.05256081	0.01283462	0	0	0	0
1.408891	0.05256081	0.01283462	0	0	0	0
1.425068	0.05256081	0.01283462	0	0	0	0
1.441635	0.05256081	0.01283462	0	0	0	0
1.458507	0.01711282	0.004278206	-2.100915	-0.5071175	-62.82686	-15.16511
1.474769	-0.03178095	-0.009167583	-3.006772	-0.8268623	-27.33931	-9.650091
1.491333	-0.1014546	-0.0287251	-4.206236	-1.180698	-36.54052	-10.77926
1.508062	-0.1711282	-0.04828261	-4.164753	-1.169054	1.245954	0.3497393
1.524565	-0.2224667	-0.06661778	-3.110973	-1.111062	31.71005	1.745064
1.541075	-0.2395795	-0.07150715	-1.036498	-0.2961414	62.83885	24.68512
1.557598	-0.2579147	-0.07884122	-1.109683	-0.4438734	-2.215509	-4.472235
1.574165	-0.2664711	-0.0812859	-0.5164576	-0.1475593	17.92744	8.954697
1.59073	-0.2689158	-0.08250826	-0.1475824	-0.07379118	11.13332	2.226455
1.607297	-0.2689158	-0.08250826	0	0	4.454397	2.227199
1.623864	-0.2689158	-0.08250826	0	0	0	0
1.640433	-0.2676934	-0.08006356	0.07377774	0.1475528	2.226553	4.453024
1.656998	-0.2579147	-0.06906246	0.5903053	0.6640943	15.58911	15.58953
1.673565	-0.2249114	-0.01527931	1.992097	3.246381	42.30846	77.93777
1.690133	-0.1821293	0.09962108	2.582219	6.935102	17.80959	111.3238
1.706699	-0.1393473	0.1925193	2.582533	5.60779	0.009476627	-40.05909
1.72333	-0.0990099	0.2511918	2.425432	3.5279	-4.732393	-62.65307
1.739833	-0.07089598	0.2915292	1.703542	2.444214	-21.78686	-32.70596
1.756399	-0.06356192	0.3025303	0.4427299	0.6640934	-38.12696	-53.83084
1.772967	-0.05989487	0.308642	0.2213335	0.3688877	-6.681947	-8.909583
1.789535	-0.05867254	0.312309	0.07377709	0.2213344	-4.45307	-4.452975
1.806102	-0.05745019	0.3159761	0.0737833	0.2213485	0.000187531	0.0004263295
1.822667	-0.0550055	0.3184207	0.1475734	0.1475731	2.227108	-2.226666
1.839235	-0.04767144	0.3281995	0.4426882	0.5902519	8.906968	13.36065
1.855802	-0.04033737	0.3392006	0.4426884	0.6640331	7.195539E-06	2.226739
1.872366	-0.02811392	0.3526464	0.7379361	0.8117282	8.911395	4.457847
1.888935	-0.007334067	0.3722039	1.25413	1.180359	15.57921	11.12563
1.905501	0.02077986	0.4015402	1.697131	1.770918	13.36969	17.82296
1.922066	0.0464491	0.4247647	1.549554	1.401979	-4.454308	-11.13572
1.938954	0.05745019	0.4320988	0.6514419	0.4342938	-26.8471	-28.92681
1.9552	0.05745019	0.4345435	-2.293023E-07	0.1504792	-19.66113	-8.56579
1.971767	0.05745019	0.4345435	0	0	6.988163E-06	-4.585968
1.989001	0.05745019	0.4345435	0	0	0	0
2.0049	0.05745019	0.4345435	0	0	0	0
2.02191	0.05745019	0.4345435	0	0	0	0
2.038034	0.05745019	0.4345435	0	0	0	0
2.0546	0.05745019	0.4345435	0	0	0	0
2.071167	0.05745019	0.4345435	0	0	0	0
2.087734	0.05745019	0.4345435	0	0	0	0
2.1043	0.05745019	0.4308764	0	-0.2213503	0	-6.680559
2.120867	0.05622785	0.4137636	-0.07378497	-1.032991	-2.226931	-24.49644
2.137433	0.05256081	0.3856497	-0.2213492	-1.697009	-4.453691	-20.04096
2.154003	0.05011613	0.3416453	-0.1475381	-2.655689	2.22748	-28.93115
2.170567	0.05011612	0.2976409	-2.249043E-07	-2.656647	4.452798	-0.0288977
2.187134	0.04522675	0.241413	-0.2951276	-3.393969	-8.907923	-22.25484
2.2037	0.04522675	0.2230779	0	-1.106776	8.90729	69.0301
2.220267	0.04644909	0.1949639	0.07378519	-1.697057	2.22697	-17.81573
2.236833	0.05011613	0.1717394	0.2213554	-1.401917	4.453933	8.907849
2.253457	0.05133847	0.1570713	0.07352911	-0.8823475	-4.453906	15.65429
2.269964	0.05133847	0.1472925	0	-0.592396	-2.219337	8.751637
2.286534	0.05133847	0.1350691	0	-0.7376913	0	-4.392641
2.303173	0.05133847	0.131402	0	-0.2203884	0	15.57726
2.319667	0.05133847	0.124068	-2.258568E-07	-0.4446502	-6.816666E-06	-6.768525
2.336234	0.05378316	0.1167339	0.1475659	-0.4426975	4.463479	0.05906236
2.352952	0.05378316	0.1118445	0	-0.2924504	-4.433355	4.513907
2.36937	0.0550055	0.1081775	0.07445166	-0.2233548	2.24681	2.085175
2.386093	0.05500551	0.1020658	2.227687E-07	-0.3654753	-2.246529	-4.288404
2.4025	0.0550055	0.09962107	-2.270515E-07	-0.1490007	-1.357746E-05	6.53411
2.419068	0.0550055	0.09717638	-2.248557E-07	-0.1475598	6.658796E-08	0.04369794
2.435634	0.0550055	0.0947317	0	-0.1475657	6.786208E-06	-0.0001785393
2.452201	0.05622784	0.09350935	0.07378519	-0.07378497	2.226938	2.226803
2.468886	0.05622784	0.09228701	-2.232653E-07	-0.07325782	-2.218993	0.01585332
2.485334	0.05622786	0.08984232	9.059678E-07	-0.1486335	3.408155E-05	-2.274925
2.5019	0.05745019	0.08617529	0.07378558	-0.2213581	2.234963	-2.202852
2.518467	0.05745019	0.0837306	0	-0.147564	-2.226949	2.227206
2.535034	0.05867254	0.08250826	0.07378201	-0.07378179	2.226778	2.226784
2.551601	0.05867254	0.08250826	0	0	-2.226794	2.226787
2.568167	0.05867254	0.08250826	0	0	0	0
2.584734	0.05867254	0.08250826	0	0	0	0
2.601301	0.05867254	0.08250826	0	0	0	0
2.617868	0.05867254	0.08250826	0	0	0	0
2.634433	0.05867254	0.08250826	0	0	0	0
2.651258	0.05867254	0.08250826	0	0	0	0
2.667566	0.05867254	0.08250826	0	0	0	0
2.684133	0.05867254	0.08250826	0	0	0	0
2.7007	0.05867254	0.08250826	0	0	0	0
2.717265	0.05867254	0.08250826	0	0	0	0
2.733833	0.05867254	0.08250826	0	0	0	0
2.750398	0.05867254	0.08250826	0	0	0	0
2.766966	0.05867254	0.08250826	0	0	0	0
2.783909	0.05867254	0.08250826	0	0	0	0
2.800099	0.05867254	0.08250826	0	0	0	0
2.816666	0.05867254	0.08250826	0	0	0	0
2.833233	0.05867254	0.08250826	0	0	0	0
2.850118	0.05867254	0.08250826	0	0	0	0
2.866367	0.05867254	0.08250826	0	0	0	0
2.882933	0.05867254	0.08250826	0	0	0	0
2.899499	0.05867254	0.08250826	0	0	0	0
2.916064	0.05867254	0.08250826	0	0	0	0
2.933337	0.05867254	0.08250826	0	0	0	0
2.94924	0.05867254	0.08250826	0	0	0	0
2.965767	0.05867254	0.08250826	0	0	0	0
2.982334	0.05867254	0.08250826	0	0	0	0
2.999106	0.05867254	0.08250826	0	0	0	0
3.015467	0.05867254	0.08250826	0	0	0	0
3.032217	0.05867254	0.08250826	0	0	0	0
3.048827	0.05867254	0.08250826	0	0	0	0
3.065415	0.05867254	0.08250826	0	0	0	0
3.082407	0.05867254	0.08250826	0	0	0	0
3.098464	0.05867254	0.08250826	0	0	0	0
3.114869	0.05867254	0.08250826	0	0	0	0
3.132163	0.05867254	0.08250826	0	0	0	0
3.148002	0.05867254	0.08250826	0	0	0	0
3.164741	0.05867254	0.08250826	0	0	0	0
3.181261	0.05867254	0.08250826	0	0	0	0
3.1977	0.05867254	0.08250826	0	0	0	0
3.214266	0.05867254	0.08250826	0	0	0	0
3.230834	0.05867254	0.08250826	0	0	0	0
3.2474	0.05867254	0.08250826	0	0	0	0
3.263967	0.05867254	0.08128591	0	-0.07378224	0	-2.226848
3.280841	0.05867254	0.08006357	0	-0.07243702	0	0.04022593
3.2971	0.05867254	0.08006357	0	0	0	2.186232
3.313666	0.05867254	0.07884122	0	-0.07378648	0	-2.247891
3.330235	0.05867254	0.07761887	0	-0.07377117	0	0.0004620719
3.3468	0.05867254	0.07639654	2.248978E-07	-0.07379302	6.787576E-06	-0.0006593007
3.363367	0.05867253	0.07517419	-4.497244E-07	-0.07378224	-2.036204E-05	0.0003254014
3.379933	0.05867254	0.07395185	2.248752E-07	-0.07378604	2.036033E-05	-0.000114683
3.396963	0.05867254	0.07395185	0	0	-6.693454E-06	2.196256
3.413067	0.05745019	0.0727295	-0.07590423	-0.07590469	-2.290827	-2.290841
3.429634	0.05745019	0.07150716	0	-0.07378179	2.323309	0.06497868
3.4462	0.05745019	0.07150716	0	0	0	2.226787
3.462767	0.05745019	0.07150716	0	0	0	0
3.479333	0.05745019	0.07150716	0	0	0	0
3.4959	0.05745019	0.07150716	0	0	0	0
3.512467	0.05745019	0.07150716	0	0	0	0
3.529032	0.05745019	0.07028481	-4.497632E-07	-0.07378861	-1.357466E-05	-2.227073
3.545602	0.05745019	0.06906246	2.248298E-07	-0.07377117	2.035897E-05	0.0005261624
3.562167	0.05745019	0.06906246	0	0	-6.785427E-06	2.226434
3.578732	0.05745019	0.06906246	0	0	0	0
3.595299	0.05745019	0.06539543	-2.248557E-07	-0.2213394	-6.78655E-06	-6.680422
3.611866	0.05745019	0.06539543	0	0	6.78616E-06	6.680037
3.628508	0.05745019	0.06417308	4.477077E-07	-0.07345138	1.348168E-05	-2.211817
3.64501	0.05745019	0.06295074	-2.257524E-07	-0.07407387	-2.031966E-05	-0.01878197
3.661566	0.05745019	0.06295074	0	0	6.828945E-06	2.240713
3.678133	0.05745019	0.06295074	0	0	0	0
3.6947	0.05745019	0.06295074	0	0	0	0
3.711266	0.05745019	0.06295074	0	0	0	0
3.727833	0.05745019	0.06295074	0	0	0	0
3.7444	0.05745019	0.06295074	0	0	0	0
3.761107	0.05745019	0.06295074	0	0	0	0
3.777533	0.05745019	0.06295074	0	0	0	0
3.794155	0.05745019	0.06295074	0	0	0	0
3.810666	0.05745019	0.06295074	0	0	0	0
3.827234	0.05745019	0.06295074	0	0	0	0
3.843801	0.05745019	0.06295074	0	0	0	0
3.860683	0.05745019	0.06295074	0	0	0	0
3.876932	0.05745019	0.06295074	0	0	0	0
3.893499	0.05745019	0.06295074	0	0	0	0
3.910652	0.05745019	0.06295074	0	0	0	0
3.926635	0.05745019	0.06295074	0	0	0	0
3.943259	0.05745019	0.06295074	0	0	0	0
3.959771	0.05745019	0.06295074	0	0	0	0
3.976693	0.05745019	0.06295074	0	0	0	0
3.992903	0.05745019	0.06295074	0	0	0	0
4.009902	0.05745019	0.06295074	0	0	0	0
4.033922	0.05745019	0.06295074	0	0	0	0
4.050491	0.05745019	0.06295074	0	0	0	0
4.067058	0.05745019	0.06295074	0	0	0	0
4.083624	0.05745019	0.06295074	0	0	0	0
4.10034	0.05745019	0.06295074	0	0	0	0
4.116759	0.05745019	0.06295074	0	0	0	0
4.133425	0.05745019	0.06295074	0	0	0	0
4.149892	0.05745019	0.06295074	0	0	0	0
4.16646	0.05745019	0.06295074	0	0	0	0
4.183025	0.05745019	0.06295074	0	0	0	0
4.19964	0.05745019	0.06295074	0	0	0	0
4.216158	0.05745019	0.06295074	0	0	0	0
4.2333	0.05745019	0.06295074	0	0	0	0
4.249363	0.05745019	0.06295074	0	0	0	0
4.265896	0.05745019	0.06295074	0	0	0	0
4.282627	0.05745019	0.06295074	0	0	0	0
4.298995	0.05745019	0.06295074	0	0	0	0
4.31556	0.05745019	0.06295074	0	0	0	0
4.332124	0.05745019	0.06295074	0	0	0	0
4.348779	0.05745019	0.06295074	0	0	0	0
4.365261	0.05745019	0.06295074	0	0	0	0
4.381827	0.05745019	0.06295074	0	0	0	0
4.398913	0.05745019	0.06295074	0	0	0	0
4.414958	0.05745019	0.06295074	0	0	0	0
4.431525	0.05745019	0.06295074	0	0	0	0
4.448092	0.05745019	0.06295074	0	0	0	0
4.464659	0.05745019	0.06295074	0	0	0	0
4.4813	0.05745019	0.06295074	0	0	0	0
4.497824	0.05745019	0.06295074	0	0	0	0
4.514358	0.05745019	0.06295074	0	0	0	0
4.530925	0.05745019	0.06295074	0	0	0	0
4.547492	0.05745019	0.06295074	0	0	0	0
4.564058	0.05745019	0.06295074	0	0	0	0
4.580626	0.05745019	0.06295074	0	0	0	0
4.597191	0.05745019	0.06295074	0	0	0	0
4.613758	0.05745019	0.06295074	0	0	0	0
4.630912	0.05745019	0.06295074	0	0	0	0
4.646892	0.05745019	0.06295074	0	0	0	0
4.663458	0.05745019	0.06295074	0	0	0	0
4.680026	0.05745019	0.06295074	0	0	0	0
4.696592	0.05745019	0.06295074	0	0	0	0
4.713159	0.05745019	0.06295074	0	0	0	0
4.729725	0.05745019	0.06295074	0	0	0	0
4.746507	0.05745019	0.06295074	0	0	0	0
4.762992	0.05745019	0.06295074	0	0	0	0
4.779427	0.05745019	0.06295074	0	0	0	0
4.796059	0.05745019	0.06295074	0	0	0	0
4.812559	0.05745019	0.06295074	0	0	0	0
4.829125	0.05745019	0.06295074	0	0	0	0
4.845691	0.05745019	0.06295074	0	0	0	0
4.862257	0.05745019	0.06295074	0	0	0	0
4.878825	0.05745019	0.06295074	0	0	0	0
4.89552	0.05745019	0.06295074	0	0	0	0
4.911961	0.05745019	0.06295074	0	0	0	0
4.928687	0.05745019	0.06295074	0	0	0	0
4.945095	0.05745019	0.06295074	0	0	0	0
4.961661	0.05745019	0.06295074	0	0	0	0
4.978279	0.05745019	0.06295074	0	0	0	0
4.994795	0.05745019	0.06295074	0	0	0	0
5.011361	0.05745019	0.06295074	0	0	0	0
5.027927	0.05745019	0.06295074	0	0	0	0
5.044825	0.05745019	0.06295074	0	0	0	0
5.061351	0.05745019	0.06295074	0	0	0	0
5.077926	0.05745019	0.06295074	0	0	0	0
5.094494	0.05745019	0.06295074	0	0	0	0
5.110761	0.05745019	0.06295074	0	0	0	0
5.127329	0.05745019	0.06295074	0	0	0	0
5.14412	0.05745019	0.06295074	0	0	0	0
5.160518	0.05745019	0.06295074	0	0	0	0
5.17704	0.05745019	0.06295074	0	0	0	0
5.193593	0.05745019	0.06295074	0	0	0	0
5.210159	0.05745019	0.06295074	0	0	0	0
5.226726	0.05745019	0.06295074	0	0	0	0
5.243294	0.05745019	0.06295074	0	0	0	0
5.260011	0.05745019	0.06295074	0	0	0	0
5.276428	0.05745019	0.06295074	0	0	0	0
5.292994	0.05745019	0.06295074	0	0	0	0
5.309564	0.05745019	0.06295074	0	0	0	0
5.326826	0.05745019	0.06295074	0	0	0	0
5.342699	0.05745019	0.06295074	0	0	0	0
5.359264	0.05745019	0.06295074	0	0	0	0
5.375833	0.05745019	0.06295074	0	0	0	0
5.3924	0.05745019	0.06295074	0	0	0	0
5.408963	0.05745019	0.06295074	0	0	0	0
5.425534	0.05745019	0.06295074	0	0	0	0
5.442258	0.05745019	0.06295074	0	0	0	0
5.458665	0.05745019	0.06295074	0	0	0	0
5.475278	0.05745019	0.06295074	0	0	0	0
5.492284	0.05745019	0.06295074	0	0	0	0
5.508359	0.05745019	0.06295074	0	0	0	0
5.52493	0.05745019	0.06295074	0	0	0	0
5.541493	0.05745019	0.06295074	0	0	0	0
5.55806	0.05745019	0.06295074	0	0	0	0
5.574626	0.05745019	0.06295074	0	0	0	0
5.591345	0.05745019	0.06295074	0	0	0	0
5.607854	0.05745019	0.06295074	0	0	0	0
5.624364	0.05745019	0.06295074	0	0	0	0
5.640893	0.05745019	0.06295074	0	0	0	0
5.657459	0.05745019	0.06295074	0	0	0	0
5.674026	0.05745019	0.06295074	0	0	0	0
5.690592	0.05745019	0.06295074	0	0	0	0
5.70716	0.05745019	0.06295074	0	0	0	0
5.723725	0.05745019	0.06295074	0	0	0	0
5.740293	0.05745019	0.06295074	0	0	0	0
5.756862	0.05745019	0.06295074	0	0	0	0
5.773699	0.05745019	0.06295074	0	0	0	0
5.790249	0.05745019	0.06295074	0	0	0	0
5.806557	0.05745019	0.06295074	0	0	0	0
5.823124	0.05745019	0.06295074	0	0	0	0
5.839776	0.05745019	0.06295074	0	0	0	0
5.856387	0.05745019	0.06295074	0	0	0	0
5.872828	0.05745019	0.06295074	0	0	0	0
5.889394	0.05745019	0.06295074	0	0	0	0
5.905961	0.05745019	0.06295074	0	0	0	0
5.922641	0.05745019	0.06295074	0	0	0	0
5.939094	0.05745019	0.06295074	0	0	0	0
5.956257	0.05745019	0.06295074	0	0	0	0
5.972227	0.05745019	0.06295074	0	0	0	0
5.988793	0.05745019	0.06295074	0	0	0	0
6.005767	0.05745019	0.06295074	0	0	0	0
6.021926	0.05745019	0.06295074	0	0	0	0
6.038494	0.05745019	0.06295074	0	0	0	0
6.055059	0.05745019	0.06295074	0	0	0	0
6.071627	0.05622785	0.06295074	-0.0737786	0	-2.226739	0
6.088192	0.03544799	0.092287	-1.254455	1.770995	-35.63494	53.45182
6.10476	-0.01833517	0.1570713	-3.246264	3.910273	-60.11637	64.56725
6.121656	-0.06845129	0.2132991	-2.966026	3.327737	8.374224	-17.40763
6.137892	-0.09412052	0.2438577	-1.581071	1.882227	41.80103	-43.62871
6.154461	-0.1149004	0.2634152	-1.254094	1.180324	9.967292	-21.39623
6.171027	-0.1283462	0.2817504	-0.8116832	1.10684	13.3518	-2.217729
6.188592	-0.1393473	0.2964185	-0.6262988	0.8350639	5.431624	-7.962837
6.205162	-0.1503484	0.3184207	-0.6639128	1.327827	-1.101907	14.43558
6.221727	-0.1552377	0.3281995	-0.2951578	0.5903156	11.12873	-22.25751
6.238396	-0.1711282	0.3599805	-0.9533069	1.906614	-19.80342	39.60683
6.255484	-0.1894634	0.3929838	-1.07302	1.931434	-3.546386	0.7352773
6.271429	-0.1980198	0.4039849	-0.5366217	0.6899429	16.23853	-37.58402
6.288607	-0.2004645	0.4052072	-0.1423104	0.07115347	11.90428	-18.68129
6.304563	-0.2004645	0.4052072	0	0	4.294999	-2.147447
6.321129	-0.2004645	0.4052072	0	0	0	0
6.337923	-0.2004645	0.4052072	0	0	0	0
6.354262	-0.2004645	0.4052072	0	0	0	0
6.37083	-0.2004645	0.4052072	0	0	0	0
6.387539	-0.2004645	0.4052072	0	0	0	0
6.403963	-0.2004645	0.4052072	0	0	0	0
6.42053	-0.2004645	0.4052072	0	0	0	0
6.437098	-0.1992421	0.4052072	0.0737795	0	2.22667	0
6.453663	-0.1906857	0.3905391	0.5165246	-0.8854724	13.36265	-26.72476
6.470232	-0.1760176	0.3697592	0.8852431	-1.254092	11.12779	-11.1248
6.486798	-0.1613495	0.3465347	0.885447	-1.401958	0.006151964	-4.462494
6.503363	-0.1369026	0.312309	1.475873	-2.066222	17.8214	-20.05012
6.519931	-0.1051216	0.2719716	1.918192	-2.434627	13.34997	-11.11912
6.536496	-0.07334067	0.2328566	1.918578	-2.361327	0.01166799	2.212312
6.553175	-0.03178096	0.1717394	2.491625	-3.664154	17.23727	-39.18912
6.569633	-0.0110011	0.1411808	1.26267	-1.856868	-37.08727	54.54005
6.586199	0.001222344	0.1204009	0.7378511	-1.254346	-15.89235	18.24533
6.602765	0.008556412	0.1057328	0.4427106	-0.8854215	-8.907869	11.13482
6.619438	0.0110011	0.09717639	0.1466249	-0.5131869	-8.907684	11.19861
6.635899	0.01222345	0.09350936	0.07425965	-0.2227785	-2.184049	8.764798
6.652465	0.01466813	0.08861997	0.1475701	-0.2951412	2.219733	-2.19104
6.669029	0.01589048	0.08006357	0.07379369	-0.5165547	-2.226833	-6.683041
6.685598	0.01833517	0.0727295	0.1475447	-0.4426343	2.225873	2.230987
6.702315	0.01955751	0.06661777	0.07312001	-0.3656004	-2.235909	2.314296
6.718732	0.02077986	0.06539543	0.07445804	-0.07445793	0.04038291	8.78695
6.735424	0.02077986	0.06417308	0	-0.07323106	-2.248928	0.03705641
6.751864	0.02077986	0.06417308	0	0	0	2.210245
6.768432	0.02077986	0.06417308	0	0	0	0
6.784998	0.02077986	0.0617284	0	-0.1475699	0	-4.453734
6.801565	0.0220022	0.0592837	0.07378296	-0.1475661	2.22687	0.000114683
6.821298	0.02689158	0.05194964	0.2477834	-0.3716748	4.793503	-6.173924
6.837866	0.02933627	0.0482826	0.1475532	-0.2213299	-2.761114	4.141659
6.854435	0.02933627	0.04706026	-1.124133E-07	-0.07377011	-4.452719	4.452914
6.871003	0.02933627	0.04706026	0	0	3.392347E-06	2.226194
6.888294	0.02933627	0.04706026	0	0	0	0
6.904136	0.02933627	0.04706026	0	0	0	0
6.920702	0.02933627	0.04706026	0	0	0	0
6.937269	0.03055861	0.04706026	0.07378307	0	2.226841	0
6.954183	0.03055861	0.04706026	0	0	-2.203753	0
6.970402	0.03055861	0.04706026	0	0	0	0
6.986969	0.03055861	0.04706026	0	0	0	0
7.003536	0.03055861	0.04706026	0	0	0	0
7.020205	0.03055861	0.04706026	0	0	0	0
7.036669	0.03055861	0.04706026	0	0	0	0
7.053342	0.03055861	0.04706026	0	0	0	0
7.069939	0.03055861	0.04706026	0	0	0	0
7.08649	0.03055861	0.04706026	0	0	0	0
7.102935	0.03055861	0.04706026	0	0	0	0
7.119503	0.03055861	0.04706026	0	0	0	0
7.136207	0.03055861	0.04828261	1.115116E-07	0.07317857	3.351583E-06	2.199449
7.152636	0.02933627	0.0507273	-0.07440197	0.1488037	-2.245589	2.282503
7.169203	0.02933627	0.0507273	0	0	2.254866	-4.509726
7.185768	0.02933627	0.0507273	0	0	0	0
7.202334	0.02933627	0.0507273	0	0	0	0
7.2189	0.02933627	0.0507273	0	0	0	0
7.287813	0.02933627	0.0507273	0	0	0	0
7.304382	0.03055861	0.05072729	0.07377234	-2.248331E-07	0.8630197	-2.630191E-06
7.320952	0.03055861	0.05072729	0	0	-2.226133	6.7845E-06
7.338169	0.03055861	0.05072729	0	0	0	0
7.354738	0.03055861	0.05072729	0	0	0	0
7.371306	0.03055861	0.05072729	0	0	0	0
7.387871	0.03055861	0.05072729	0	0	0	0
7.404484	0.03055861	0.05072729	0	0	0	0
7.421006	0.03055861	0.05072729	0	0	0	0
7.43809	0.03055861	0.05072729	0	0	0	0
7.454139	0.03055861	0.05072729	0	0	0	0
7.470953	0.03055861	0.05072729	0	0	0	0
7.487272	0.03055861	0.05072729	0	0	0	0
7.503838	0.03178096	0.0507273	0.07378732	2.248784E-07	2.243794	6.838312E-06
7.520404	0.0330033	0.0507273	0.07378497	0	-7.106055E-05	-6.787332E-06
7.537164	0.0330033	0.0507273	0	0	-2.214026	0
7.553791	0.0330033	0.0507273	0	0	0	0
7.570302	0.0330033	0.0507273	0	0	0	0
7.586869	0.0330033	0.0507273	0	0	0	0
7.603436	0.0330033	0.0507273	0	0	0	0
7.620003	0.03422565	0.0507273	0.07378095	0	2.226778	0
7.636569	0.03422565	0.0507273	0	0	-2.22681	0
7.653136	0.03422565	0.0507273	0	0	0	0
7.669703	0.03544799	0.0507273	0.07378095	0	2.226713	0
7.686268	0.03544799	0.0507273	0	0	-2.226841	0
7.702836	0.03544799	0.0507273	0	0	0	0
7.719401	0.03544799	0.0507273	0	0	0	0
7.735969	0.03544799	0.0507273	0	0	0	0
7.752535	0.03544799	0.0507273	0	0	0	0
7.769102	0.03544799	0.0507273	0	0	0	0
7.785669	0.03544799	0.0507273	0	0	0	0
7.802236	0.03667033	0.0507273	0.07378285	0	2.226803	0
7.818802	0.03667033	0.0507273	0	0	-2.226867	0
7.835833	0.03789268	0.0507273	0.07177302	0	2.136293	0
7.851954	0.03789268	0.0507273	0	0	-2.164993	0
7.868502	0.03789268	0.0507273	0	0	0	0
7.885098	0.03911502	0.0507273	0.07365353	2.244713E-07	2.222229	6.772609E-06
7.901635	0.03911502	0.0507273	0	0	-2.222932	-6.774753E-06
7.918201	0.03911502	0.0507273	0	0	0	0
7.93505	0.03911502	0.0507273	0	0	0	0
7.951335	0.04033737	0.05072729	0.07505746	-4.575001E-07	2.265304	-1.380778E-05
7.967901	0.04155971	0.0507273	0.07378542	2.248719E-07	-0.03872061	2.077129E-05
7.984468	0.04278206	0.0507273	0.07378072	0	-0.0001418901	-6.786843E-06
8.001918	0.0440044	0.04950495	0.07005097	-0.07005097	-0.1096451	-2.059317
8.017602	0.0440044	0.04950495	0	0	-2.114203	2.114203
8.034168	0.0440044	0.04950495	0	0	0	0
8.051165	0.04522675	0.04950495	0.071918	2.191813E-07	2.142798	6.530512E-06
8.067305	0.04522675	0.04950495	0	0	-2.170365	-6.614525E-06
8.084262	0.04522675	0.0482826	-2.196867E-07	-0.07208405	-6.63761E-06	-2.177946
8.100434	0.04767143	0.04828261	0.1511641	2.303485E-07	4.562806	2.175821
8.117001	0.04767143	0.04828261	0	0	-4.617294	-7.035973E-06
8.133763	0.04767143	0.04828261	0	0	0	0
8.150133	0.04767143	0.04828261	0	0	0	0
8.166701	0.04767143	0.04828261	0	0	0	0
8.183558	0.04889378	0.04828261	0.07251225	0	2.16938	0
8.199834	0.04889378	0.04828261	0	0	-2.18855	0
8.2164	0.04889378	0.04828261	0	0	0	0
8.232969	0.04889378	0.04828261	0	0	0	0
8.249536	0.04889378	0.04828261	0	0	0	0
8.266102	0.04889378	0.04828261	0	0	0	0
8.282946	0.04889378	0.04828261	0	0	0	0
8.299235	0.04889378	0.04828261	0	0	0	0
8.315802	0.04889378	0.04828261	0	0	0	0
8.332368	0.04889378	0.04828261	0	0	0	0
8.348935	0.04889378	0.04828261	0	0	0	0
8.3655	0.04889378	0.04828261	0	0	0	0
8.382065	0.04889378	0.04828261	0	0	0	0
8.399118	0.04889378	0.04828261	0	0	0	0
8.425132	0.04889378	0.04828261	0	0	0	0
8.441812	0.04889378	0.04828261	0	0	0	0
8.45827	0.04889378	0.04828261	0	0	0	0
8.475502	0.04889378	0.04828261	0	0	0	0
8.491463	0.04889378	0.04828261	0	0	0	0
8.507972	0.04889378	0.04828261	0	0	0	0
8.524536	0.04889378	0.04828261	0	0	0	0
8.541105	0.04889378	0.04828261	0	0	0	0
8.557697	0.04889378	0.04828261	0	0	0	0
8.574235	0.04889378	0.04828261	0	0	0	0
8.590804	0.04889378	0.04828261	0	0	0	0
8.60737	0.04889378	0.04828261	0	0	0	0
8.623937	0.04889378	0.04828261	0	0	0	0
8.640501	0.04889378	0.04828261	0	0	0	0
8.65707	0.04889378	0.04828261	0	0	0	0
8.673636	0.04889378	0.04828261	0	0	0	0
8.690204	0.04889378	0.04828261	0	0	0	0
8.706981	0.04889378	0.04828261	0	0	0	0
8.723336	0.04889378	0.04828261	0	0	0	0
8.740324	0.04889378	0.04828261	0	0	0	0
8.756471	0.04889378	0.04828261	0	0	0	0
8.773034	0.04889378	0.04828261	0	0	0	0
8.789603	0.04889378	0.04828261	0	0	0	0
8.80617	0.04889378	0.04828261	0	0	0	0
8.828816	0.04889378	0.04828261	0	0	0	0
8.845886	0.04889378	0.04828261	0	0	0	0
8.862062	0.04889378	0.04828261	0	0	0	0
8.878945	0.04889378	0.04828261	0	0	0	0
8.895087	0.04889378	0.04828261	0	0	0	0
8.911984	0.04889378	0.04828261	0	0	0	0
8.928221	0.04889378	0.04828261	0	0	0	0
8.944787	0.04889378	0.04828261	0	0	0	0
8.961837	0.04889378	0.04828261	0	0	0	0
8.977924	0.04889378	0.04828261	0	0	0	0
8.994491	0.04889378	0.04828261	0	0	0	0
9.011438	0.04889378	0.04828261	0	0	0	0
9.027963	0.04889378	0.04828261	0	0	0	0
9.044188	0.04889378	0.04828261	0	0	0	0
9.06112	0.04889378	0.04828261	0	0	0	0
9.077411	0.04889378	0.04828261	0	0	0	0
9.093888	0.04889378	0.04828261	0	0	0	0
9.110478	0.04889378	0.04828261	0	0	0	0
9.127021	0.04889378	0.04828261	0	0	0	0
9.143588	0.04889378	0.04828261	0	0	0	0
9.160448	0.04889378	0.04828261	0	0	0	0
9.176721	0.04889378	0.04828261	0	0	0	0
9.193285	0.04889378	0.04828261	0	0	0	0
9.210557	0.04889378	0.04828261	0	0	0	0
9.226418	0.04889378	0.04828261	0	0	0	0
9.242985	0.04889378	0.04828261	0	0	0	0
9.259551	0.04889378	0.04828261	0	0	0	0
9.276118	0.04889378	0.04828261	0	0	0	0
9.292686	0.04889378	0.04828261	0	0	0	0
9.309332	0.04889378	0.04828261	0	0	0	0
9.325819	0.04889378	0.04828261	0	0	0	0
9.342524	0.04889378	0.04828261	0	0	0	0
9.358952	0.04889378	0.04828261	0	0	0	0
9.37613	0.04889378	0.04828261	0	0	0	0
9.392367	0.04889378	0.04828261	0	0	0	0
9.408651	0.04889378	0.04828261	0	0	0	0
9.425224	0.04889378	0.04828261	0	0	0	0
9.441784	0.04889378	0.04828261	0	0	0	0
9.458607	0.04889378	0.04828261	0	0	0	0
9.475212	0.04889378	0.04828261	0	0	0	0
9.4918	0.04889378	0.04828261	0	0	0	0
9.508291	0.04889378	0.04828261	0	0	0	0
9.524649	0.04889378	0.04828261	0	0	0	0
9.541191	0.04889378	0.04828261	0	0	0	0
9.557754	0.04889378	0.04828261	0	0	0	0
9.574321	0.04889378	0.04828261	0	0	0	0
9.590887	0.04889378	0.04828261	0	0	0	0
9.607453	0.04889378	0.04828261	0	0	0	0
9.624022	0.04889378	0.04828261	0	0	0	0
9.640589	0.04889378	0.04828261	0	0	0	0
9.657151	0.04889378	0.04828261	0	0	0	0
9.673717	0.04889378	0.04828261	0	0	0	0
9.690285	0.04889378	0.04828261	0	0	0	0
9.706851	0.04889378	0.04828261	0	0	0	0
9.72367	0.04889378	0.04828261	0	0	0	0
9.739991	0.04889378	0.04828261	0	0	0	0
9.75656	0.04889378	0.04828261	0	0	0	0
9.773265	0.04889378	0.04828261	0	0	0	0
9.789684	0.04889378	0.04828261	0	0	0	0
9.806249	0.04889378	0.04828261	0	0	0	0
9.822818	0.04889378	0.04828261	0	0	0	0
9.839385	0.04889378	0.04828261	0	0	0	0
9.855951	0.04889378	0.04828261	0	0	0	0
9.872515	0.04889378	0.04828261	0	0	0	0
9.889085	0.04889378	0.04828261	0	0	0	0
9.905651	0.04889378	0.04828261	0	0	0	0
9.922217	0.04889378	0.04828261	0	0	0	0
9.938784	0.04889378	0.04828261	0	0	0	0
9.95535	0.04889378	0.04828261	0	0	0	0
9.972091	0.04889378	0.04828261	0	0	0	0
9.988732	0.04889378	0.04828261	0	0	0	0
10.00505	0.04889378	0.04828261	0	0	0	0
10.02162	0.04889378	0.04828261	0	0	0	0
10.03818	0.04889378	0.04828261	0	0	0	0
10.05475	0.04889378	0.04828261	0	0	0	0
10.07132	0.04889378	0.04828261	0	0	0	0
10.08789	0.04889378	0.04828261	0	0	0	0
10.10446	0.04889378	0.04828261	0	0	0	0
10.12102	0.04889378	0.04828261	0	0	0	0
10.13758	0.05256081	0.04950495	0.2214316	0.07381047	6.685899	2.228631
10.16211	0.07211833	0.06050605	0.7974933	0.4485899	14.02146	9.122208
10.17868	0.1271238	0.07028481	3.319757	0.590179	61.37959	3.445588
10.19524	0.1430143	0.07150716	0.9592065	0.07378542	-71.2395	-15.58434
10.21196	0.1613495	0.0727295	1.09655	0.07310322	4.126039	-0.02049461
10.22843	0.1955751	0.07639653	2.078306	0.2226757	29.58092	4.506713
10.24494	0.2298008	0.07884122	2.072545	0.1480387	-0.1746762	-2.262972
10.26153	0.2713605	0.08128591	2.50624	0.1474261	13.10403	-0.01850831
10.27809	0.2896957	0.08128591	1.106906	0	-42.2162	-4.447665
10.29464	0.3068085	0.08006357	1.033944	-0.07385299	-2.20326	-2.230171
10.31121	0.3214766	0.08006357	0.8854215	0	-4.484736	2.230043
10.32786	0.3337001	0.07884122	0.7339643	-0.0733967	-4.559175	-2.209394
10.34447	0.3410341	0.07884122	0.4414899	0	-8.791975	2.206353
10.36091	0.3459235	0.07884122	0.2974861	4.53319E-07	-4.357457	1.371712E-05
10.37748	0.3483682	0.07884122	0.1475632	0	-4.542723	-1.373575E-05
10.39404	0.3495905	0.07884122	0.07378497	0	-2.226697	0
10.41061	0.3495905	0.07884122	0	0	-2.226963	0
10.42717	0.3495905	0.07884122	0	0	0	0
10.44396	0.3495905	0.07884122	0	0	0	0
10.46031	0.3495905	0.07884122	0	0	0	0
10.47688	0.3495905	0.07761887	-1.798768E-06	-0.07377693	-5.46487E-05	-2.24143
10.49344	0.3495905	0.07761887	0	0	5.428693E-05	2.226592
10.51001	0.3495905	0.07761887	0	0	0	0
10.52658	0.3495905	0.07761887	0	0	0	0
10.54334	0.3495905	0.07761887	0	0	0	0
10.55971	0.3495905	0.07761887	0	0	0	0
10.57628	0.3495905	0.07761887	0	0	0	0
10.59284	0.3495905	0.07761887	0	0	0	0
10.60941	0.3495905	0.07761887	0	0	0	0
10.62598	0.3495905	0.07761887	0	0	0	0
10.64254	0.3495905	0.07761887	0	0	0	0
10.65911	0.3459235	0.07639653	-0.2213149	-0.07377223	-6.679104	-2.226386
10.67577	0.3373671	0.0727295	-0.5136873	-0.2201514	-8.799503	-4.405559
10.69236	0.3226989	0.06661777	-0.8841	-0.3683744	-11.14092	-4.458111
10.70881	0.3068085	0.0617284	-0.965877	-0.2971931	-2.474874	2.154207
10.72542	0.2896957	0.05683902	-1.030559	-0.2944454	-1.95667	0.08312177
10.74194	0.2750275	0.05317198	-0.8875162	-0.2218793	4.317291	2.190175
10.75893	0.25547	0.04950495	-1.151334	-0.2158751	-7.871864	0.1791535
10.77508	0.2371348	0.04583792	-1.135538	-0.2271075	0.4767327	-0.3390017
10.79837	0.2175773	0.04461557	-0.8395436	-0.05247156	7.504543	4.427656
10.81536	0.180907	0.04094854	-2.158628	-0.2158628	-32.74527	-4.056064
10.83151	0.1723506	0.04094854	-0.5298244	2.30675E-07	49.15314	6.514196
10.84808	0.1576824	0.03972619	-0.8853705	-0.07378118	-10.8674	-2.255157
10.86464	0.145459	0.0397262	-0.7378506	2.248719E-07	4.452287	2.226791
10.88178	0.1369026	0.03850385	-0.4991958	-0.07131378	7.080343	-2.115724
10.89778	0.1295685	0.03850386	-0.4585218	2.32903E-07	1.227508	2.152199
10.91435	0.1234568	0.03850386	-0.3689253	0	2.751626	-7.152756E-06
10.93158	0.1197898	0.03850385	-0.2127927	-2.161732E-07	4.619421	-6.395814E-06
10.94748	0.1173451	0.03850385	-0.1537483	0	1.782015	6.524308E-06
10.96442	0.113678	0.03850385	-0.2164704	0	-1.909889	0
10.98062	0.110011	0.03850385	-0.2262926	0	-0.2963405	0
10.99726	0.1026769	0.03850385	-0.4407822	0	-6.530639	0
11.01375	0.09656522	0.03850385	-0.3708038	0	2.112806	0
11.03031	0.08923115	0.03850385	-0.4427107	0	-2.175792	0
11.04688	0.08189708	0.03850385	-0.4427362	0	-0.0007690841	0
11.06369	0.0770077	0.03850385	-0.290788	0	4.552135	0
11.08001	0.07334067	0.03850385	-0.2246794	0	1.995102	0
11.09658	0.07334067	0.03972619	0	0.07378497	6.831767	2.243559
11.11346	0.07334067	0.03972619	0	0	0	-2.205946
11.1301	0.07334067	0.03972619	0	0	0	0
11.14634	0.07334067	0.03972619	0	0	0	0
11.16285	0.07334067	0.03972619	0	0	0	0
11.17941	0.07334067	0.03972619	0	0	0	0
11.19606	0.07334067	0.03972619	0	0	0	0
11.21254	0.07334067	0.03972619	0	0	0	0
11.22911	0.07334067	0.03972619	0	0	0	0
11.24579	0.07334067	0.03972619	0	0	0	0
11.26248	0.07334067	0.03972619	0	0	0	0
11.27881	0.07334067	0.03972619	0	0	0	0
11.29538	0.07334067	0.03972619	0	0	0	0
11.31194	0.07334067	0.03972619	0	0	0	0
11.32893	0.07334067	0.03972619	0	0	0	0
11.34508	0.07334067	0.03972619	0	0	0	0
11.36164	0.07334067	0.03972619	0	0	0	0
11.37821	0.07334067	0.03972619	0	0	0	0
11.39478	0.07334067	0.03972619	0	0	0	0
11.41135	0.07334067	0.03972619	0	0	0	0
11.42794	0.07334067	0.03972619	0	0	0	0
11.44495	0.07211833	0.0397262	-0.07188149	2.190707E-07	-2.139643	6.520916E-06
11.46104	0.07211833	0.0397262	0	0	2.1717	-6.618616E-06
11.47788	0.07211833	0.0397262	0	0	0	0
11.49419	0.07211833	0.0397262	0	0	0	0
11.51091	0.07211833	0.0397262	0	0	0	0
11.52731	0.07211833	0.0397262	0	0	0	0
11.54455	0.07211833	0.0397262	0	0	0	0
11.56044	0.07211833	0.0397262	0	0	0	0
11.57701	0.07211833	0.0397262	0	0	0	0
11.59358	0.07211833	0.0397262	0	0	0	0
11.61014	0.07211833	0.0397262	0	0	0	0
11.62716	0.07211833	0.0397262	0	0	0	0
11.64328	0.07211833	0.0397262	0	0	0	0
11.65985	0.07211833	0.0397262	0	0	0	0
11.67706	0.07211833	0.0397262	0	0	0	0
11.69322	0.07211833	0.0397262	0	0	0	0
11.71045	0.07211833	0.0397262	0	0	0	0
11.72611	0.07089598	0.0397262	-0.07803036	0	-2.371891	0
11.7431	0.06967364	0.0397262	-0.07194604	0	0.1863225	0
11.75924	0.06967364	0.0397262	0	0	2.171648	0
11.77581	0.06967364	0.0397262	0	0	0	0
11.79252	0.06967364	0.0397262	0	0	0	0
11.80894	0.06967364	0.0397262	0	0	0	0
11.82578	0.06967364	0.0397262	0	0	0	0
11.84208	0.06967364	0.0397262	0	0	0	0
11.85885	0.06967364	0.0397262	0	0	0	0
11.87521	0.06967364	0.0397262	0	0	0	0
11.8919	0.06967364	0.0397262	0	0	0	0
11.90834	0.06967364	0.0397262	0	0	0	0
11.92516	0.06967364	0.0397262	0	0	0	0
11.94148	0.06967364	0.0397262	0	0	0	0
11.95804	0.06967364	0.0397262	0	0	0	0
11.97461	0.06967364	0.0397262	0	0	0	0
11.99141	0.06967364	0.0397262	0	0	0	0
12.00775	0.06967364	0.0397262	0	0	0	0
12.02431	0.06967364	0.0397262	0	0	0	0
12.04088	0.06967364	0.0397262	0	0	0	0
12.05772	0.06967364	0.0397262	0	0	0	0
12.07401	0.06967364	0.0397262	0	0	0	0
12.09058	0.06967364	0.0397262	0	0	0	0
12.11871	0.06967364	0.0397262	0	0	0	0
12.13528	0.06967364	0.0397262	0	0	0	0
12.152	0.06967364	0.0397262	0	0	0	0
12.16842	0.06967364	0.0397262	0	0	0	0
12.18511	0.06967364	0.0397262	0	0	0	0
12.20155	0.06967364	0.0397262	0	0	0	0
12.21811	0.06967364	0.0397262	0	0	0	0
12.23468	0.06967364	0.0397262	0	0	0	0
12.25125	0.06967364	0.0397262	0	0	0	0
12.26781	0.06967364	0.0397262	0	0	0	0
12.28438	0.06967364	0.0397262	0	0	0	0
12.30095	0.06967364	0.0397262	0	0	0	0
12.31842	0.06967364	0.0397262	0	0	0	0
12.33433	0.06967364	0.0397262	0	0	0	0
12.35065	0.06967364	0.0397262	0	0	0	0
12.36802	0.06967364	0.0397262	0	0	0	0
12.38378	0.06967364	0.0397262	0	0	0	0
12.40035	0.06967364	0.0397262	0	0	0	0
12.41691	0.06967364	0.0397262	0	0	0	0
12.43803	0.06967364	0.0397262	0	0	0	0
12.45461	0.06967364	0.0397262	0	0	0	0
12.47117	0.06967364	0.0397262	0	0	0	0
12.48774	0.06967364	0.0397262	0	0	0	0
12.50435	0.06967364	0.0397262	0	0	0	0
12.52087	0.06967364	0.0397262	0	0	0	0
12.53744	0.06967364	0.0397262	0	0	0	0
12.55401	0.06967364	0.0397262	0	0	0	0
12.57057	0.06967364	0.0397262	0	0	0	0
12.58725	0.06967364	0.0397262	0	0	0	0
12.6037	0.06967364	0.0397262	0	0	0	0
12.62027	0.06967364	0.0397262	0	0	0	0
12.63684	0.06967364	0.0397262	0	0	0	0
12.65387	0.06967364	0.0397262	0	0	0	0
12.66997	0.06967364	0.0397262	0	0	0	0
12.68654	0.06967364	0.0397262	0	0	0	0
12.7031	0.06967364	0.0397262	0	0	0	0
12.7199	0.06967364	0.0397262	0	0	0	0
12.73702	0.06967364	0.0397262	0	0	0	0
12.75832	0.06967364	0.0397262	0	0	0	0
12.77489	0.06967364	0.0397262	0	0	0	0
12.79149	0.06967364	0.0397262	0	0	0	0
12.80803	0.06967364	0.0397262	0	0	0	0
12.82459	0.06967364	0.0397262	0	0	0	0
12.84128	0.06967364	0.0397262	0	0	0	0
12.85773	0.06967364	0.0397262	0	0	0	0
12.87429	0.06967364	0.0397262	0	0	0	0
12.89096	0.06967364	0.0397262	0	0	0	0
12.90743	0.06967364	0.0397262	0	0	0	0
12.924	0.06967364	0.0397262	0	0	0	0
12.94099	0.06967364	0.0397262	0	0	0	0
12.95713	0.06967364	0.0397262	0	0	0	0
12.97369	0.06967364	0.0397262	0	0	0	0
12.99039	0.06967364	0.0397262	0	0	0	0
13.00683	0.06967364	0.0397262	0	0	0	0
13.0234	0.06967364	0.0397262	0	0	0	0
13.03996	0.06967364	0.0397262	0	0	0	0
13.05653	0.06967364	0.0397262	0	0	0	0
13.08739	0.06967364	0.0397262	0	0	0	0
13.10396	0.06967364	0.0397262	0	0	0	0
13.12053	0.06967364	0.0397262	0	0	0	0
13.1371	0.06967364	0.0397262	0	0	0	0
13.15366	0.06967364	0.0397262	0	0	0	0
13.17023	0.06967364	0.0397262	0	0	0	0
13.18731	0.06967364	0.0397262	0	0	0	0
13.20337	0.06967364	0.0397262	0	0	0	0
13.21993	0.06967364	0.0397262	0	0	0	0
13.23649	0.06967364	0.0397262	0	0	0	0
13.25306	0.06967364	0.0397262	0	0	0	0
13.26963	0.06967364	0.0397262	0	0	0	0
13.28619	0.06967364	0.0397262	0	0	0	0
13.30276	0.06967364	0.0397262	0	0	0	0
13.31933	0.06967364	0.0397262	0	0	0	0
13.33593	0.06967364	0.0397262	0	0	0	0
13.35246	0.06967364	0.0397262	0	0	0	0
13.36903	0.06967364	0.0397262	0	0	0	0
13.38559	0.06967364	0.0397262	0	0	0	0
13.40216	0.06967364	0.0397262	0	0	0	0
13.41935	0.06967364	0.0397262	0	0	0	0
13.43529	0.06967364	0.0397262	0	0	0	0
13.45186	0.06967364	0.0397262	0	0	0	0
13.46842	0.06967364	0.0397262	0	0	0	0
13.48499	0.06967364	0.0397262	0	0	0	0
13.50156	0.06967364	0.0397262	0	0	0	0
13.51812	0.06967364	0.0397262	0	0	0	0
13.53469	0.06967364	0.0397262	0	0	0	0
13.55126	0.06967364	0.0397262	0	0	0	0
13.56782	0.06967364	0.0397262	0	0	0	0
13.58439	0.06967364	0.0397262	0	0	0	0
13.60096	0.06967364	0.0397262	0	0	0	0
13.61765	0.06967364	0.0397262	0	0	0	0
13.63418	0.06967364	0.0397262	0	0	0	0
13.65066	0.06967364	0.0397262	0	0	0	0
13.66751	0.06967364	0.0397262	0	0	0	0
13.68379	0.06967364	0.0397262	0	0	0	0
13.70041	0.06967364	0.0397262	0	0	0	0
13.71693	0.06967364	0.0397262	0	0	0	0
13.7335	0.06967364	0.0397262	0	0	0	0
13.75006	0.06967364	0.0397262	0	0	0	0
13.76736	0.06967364	0.0397262	0	0	0	0
13.78319	0.06967364	0.0397262	0	0	0	0
13.79976	0.06967364	0.0397262	0	0	0	0
13.8166	0.06967364	0.0397262	0	0	0	0
13.83289	0.06967364	0.0397262	0	0	0	0
13.84946	0.06967364	0.0397262	0	0	0	0
13.86603	0.06967364	0.0397262	0	0	0	0
13.8826	0.06967364	0.0397262	0	0	0	0
13.89916	0.06967364	0.0397262	0	0	0	0
13.91573	0.06967364	0.0397262	0	0	0	0
13.93229	0.06967364	0.0397262	0	0	0	0
13.94914	0.06967364	0.0397262	0	0	0	0
13.96543	0.06967364	0.03850385	0	-0.07504231	0	-2.264847
13.98211	0.06845129	0.03361448	-0.07327875	-0.2931155	-2.222624	-6.614396
13.99856	0.06111722	0.01161227	-0.4458161	-1.337448	-11.24417	-31.52074
14.01513	0.05133847	-0.02628041	-0.5902129	-2.287075	-4.373134	-28.75996
14.03193	0.03422565	-0.08617529	-1.01822	-3.563771	-12.82427	-38.2533
14.04857	0.01955751	-0.1460702	-0.8815645	-3.59972	4.085939	-1.074872
14.06506	0.0110011	-0.1851852	-0.5188853	-2.372048	10.94757	37.05763
14.08687	0.003667033	-0.2145215	-0.3363362	-1.345345	4.766823	26.80984
14.10344	-0.004889378	-0.2597482	-0.5163471	-2.729263	-4.690617	-36.06131
14.12001	-0.006111722	-0.2670823	-0.07378511	-0.4427116	13.35539	69.0023
14.13657	-0.007334067	-0.276861	-0.07379358	-0.5903478	-0.0002556941	-4.456181
14.15334	-0.008556412	-0.2829728	-0.07288307	-0.3644163	0.02731347	6.777466
14.16982	-0.009778756	-0.2890845	-0.07419512	-0.370975	-0.03946477	-0.197279
14.18627	-0.009778757	-0.2939739	-5.659919E-08	-0.297143	2.253154	2.242129
14.20284	-0.0110011	-0.3013079	-0.07378508	-0.4427116	-2.23449	-4.408367
14.21941	-0.0110011	-0.308642	0	-0.4426844	2.226902	0.0008230075
14.23597	-0.0110011	-0.312309	5.621798E-08	-0.2213549	1.696711E-06	6.679928
14.25272	-0.0110011	-0.312309	0	0	-1.687289E-06	6.6436
14.26929	-0.0110011	-0.3159761	-5.62018E-08	-0.2212912	-1.686562E-06	-6.640738
14.28567	-0.01222344	-0.3257548	-0.07464015	-0.5971203	-2.265422	-11.40689
14.30224	-0.01222344	-0.3294218	0	-0.2213695	2.265818	11.4065
14.3188	-0.01222344	-0.3355336	0	-0.3689249	0	-4.453615
14.33537	-0.01222344	-0.3367559	5.62115E-08	-0.07377648	1.696467E-06	8.907596
14.35199	-0.01222344	-0.3367559	0	0	-1.693591E-06	2.222804
14.36892	-0.01222344	-0.3367559	0	0	0	0
14.38507	-0.01222344	-0.3367559	0	0	0	0
14.40204	-0.01222344	-0.3367559	0	0	0	0
14.4182	-0.01222344	-0.3367559	0	0	0	0
14.4352	-0.0110011	-0.3355336	0.07191784	0.07191779	2.168799	2.168798
14.45134	-0.0110011	-0.3330889	5.770282E-08	0.1514676	-2.170358	2.40068
14.46791	-0.009778756	-0.3306442	0.07378083	0.1475614	2.255795	-0.1194277
14.48447	-0.008556411	-0.3233101	0.07379363	0.4427626	0.0003863411	8.909959
14.50104	-0.008556412	-0.3208655	-5.621474E-08	0.1475597	-2.22729	-8.910012
14.51761	-0.007334067	-0.3098643	0.07378083	0.6640283	2.226712	15.58706
14.53436	-0.004889378	-0.2903068	0.1459487	1.167589	2.16606	15.11396
14.55074	-0.002444689	-0.2744163	0.1492108	0.9698723	0.0984518	-5.967097
14.5673	-0.001222345	-0.2597482	0.0737936	0.8855234	-2.288944	-2.560022
14.58387	0	-0.241413	0.07378086	1.106712	-0.0003843172	6.676053
14.60086	0.001222344	-0.2181885	0.0719381	1.366824	-0.05491151	7.750931
14.61701	0.001222344	-0.1876299	0	1.893124	-2.171159	15.88422
14.63389	0.001222344	-0.1497372	0	2.244697	0	10.64633
14.65014	0.001222344	-0.1228456	0	1.65461	0	-17.80937
14.66671	0	-0.1045105	-0.07377661	1.106649	-2.247868	-16.69559
14.68327	-0.001222344	-0.09106466	-0.0737851	0.8116365	-0.0002563392	-8.903492
14.69984	-0.002444689	-0.07884122	-0.07378086	0.7378082	0.0001281733	-2.228208
14.71991	-0.002444689	-0.06539543	0	0.6700379	2.013975	-1.849905
14.73648	-0.002444689	-0.04094854	0	1.475193	0	21.97522
14.75304	-0.002444689	-0.03728151	-1.405611E-08	0.2213806	-4.241899E-07	-37.83794
14.76961	-0.002444689	-0.03239213	1.40553E-08	0.2951576	8.485263E-07	2.226912
14.78618	-0.002444689	-0.03239213	0	0	-4.241777E-07	-8.907617
14.80275	-0.002444689	-0.03239213	0	0	0	0
14.81931	-0.002444689	-0.03239213	0	0	0	0
14.83588	-0.002444689	-0.03116979	0	0.07379358	0	2.227223
14.85251	-0.002444689	-0.0287251	0	0.1469696	0	2.204205
14.86901	-0.001222344	-0.0287251	0.07407508	-1.128778E-07	2.235526	-4.435426
14.88558	-0.001222344	-0.02750275	0	0.07378508	-2.240103	2.231337
14.90215	-0.001222344	-0.02750275	0	0	0	-2.226902
14.91887	-0.001222344	-0.02750275	0	0	0	0
14.93528	-0.001222344	-0.02750275	0	0	0	0
14.95194	-0.001222344	-0.02750275	0	0	0	0
14.96841	-0.001222344	-0.02750275	0	0	0	0
14.98498	-0.001222344	-0.02750275	0	0	0	0
15.00155	-0.001222344	-0.02750275	0	0	0	0
15.01828	-0.001222344	-0.02750275	0	0	0	0
15.03477	-0.001222344	-0.02750275	0	0	0	0
15.05125	-0.001222344	-0.02750275	0	0	0	0
15.06835	-0.001222344	-0.02750275	0	0	0	0
15.08438	-0.001222344	-0.02750275	0	0	0	0
15.10125	-0.001222344	-0.02750275	0	0	0	0
15.11751	-0.001222344	-0.02750275	0	0	0	0
15.13408	-0.001222344	-0.02750275	0	0	0	0
15.15065	0	-0.02750275	0.07378086	1.124295E-07	2.226775	3.393226E-06
15.16721	0	-0.02750275	0	0	-2.226775	-3.393226E-06
15.18412	0	-0.02750275	0	0	0	0
15.20035	0	-0.02750275	0	0	0	0
15.21695	0	-0.02750275	0	0	0	0
15.23348	0	-0.02750275	0	0	0	0
15.25014	0	-0.02750275	0	0	0	0
15.2669	0	-0.02750275	0	0	0	0
15.28318	0	-0.02750275	0	0	0	0
15.29974	0	-0.02750275	0	0	0	0
15.31631	0	-0.02750275	0	0	0	0
15.33288	0	-0.02750275	0	0	0	0
15.34951	0	-0.02750275	0	0	0	0
15.36601	0	-0.02750275	0	0	0	0
15.38276	0	-0.02750275	0	0	0	0
15.39915	0	-0.02750275	0	0	0	0
15.41571	0	-0.02750275	0	0	0	0
15.43228	0	-0.02750275	0	0	0	0
15.44884	0	-0.02750275	0	0	0	0
15.46541	0	-0.02750275	0	0	0	0
15.48198	0	-0.02750275	0	0	0	0
15.49871	0.001222344	-0.02750275	0.07305752	-1.113272E-07	2.19427	-3.343695E-06
15.51511	0.001222344	-0.02750275	0	0	-2.204753	3.359669E-06
15.53168	0.001222344	-0.02750275	0	0	0	0
15.54831	0.001222344	-0.02750275	0	0	0	0
15.56482	0.001222344	-0.02750275	0	0	0	0
15.58153	0.001222344	-0.02750275	0	0	0	0
15.59794	0.001222344	-0.02750275	0	0	0	0
15.61451	0.001222344	-0.02750275	0	0	0	0
15.63108	0.001222344	-0.02750275	0	0	0	0
15.64766	0.001222344	-0.02750275	0	0	0	0
15.66422	0.001222344	-0.02750275	0	0	0	0
15.68084	0.002444689	-0.02750275	0.07354379	2.241364E-07	2.216812	6.75609E-06
15.69735	0.002444689	-0.02750275	0	0	-2.21962	-6.764646E-06
15.71391	0.002444689	-0.02750275	0	0	0	0
15.73048	0.002444689	-0.02750275	0	0	0	0
15.74704	0.003667034	-0.02750275	0.07378513	-1.12436E-07	2.227032	-3.393617E-06
15.76386	0.003667034	-0.02750275	0	0	-2.21011	3.36783E-06
15.78018	0.003667034	-0.02750275	0	0	0	0
15.79675	0.003667034	-0.02750275	0	0	0	0
15.81331	0.003667034	-0.02750275	0	0	0	0
15.82988	0.004889378	-0.02628041	0.07378508	0.07378508	2.226966	2.226966
15.84644	0.004889378	-0.02628041	0	0	-2.226966	-2.226966
15.86302	0.004889378	-0.02505806	2.81009E-08	0.07376385	8.480137E-07	2.226005
15.87958	0.006111722	-0.02383572	0.07378506	0.07378519	2.226644	0.0006439405
15.89615	0.007334067	-0.02261337	0.07378089	0.07378072	-0.0001256998	-0.0001349193
15.91271	0.007334067	-0.02261337	0	0	-2.226776	-2.226771
15.92928	0.007334067	-0.02261337	0	0	0	0
15.94585	0.007334067	-0.02016868	0	0.1475703	0	4.453936
15.96241	0.008556411	-0.01894634	0.07378506	0.07378519	2.226966	-2.226967
15.97935	0.009778757	-0.01650165	0.07217313	0.144346	-0.04811348	2.106132
15.99554	0.009778756	-0.01527931	-5.750913E-08	0.07547969	-2.178442	-2.07863
16.01211	0.0110011	-0.01283462	0.07378089	0.1475617	2.252058	2.200199
16.02887	0.0110011	-0.01161227	0	0.07295775	-2.214221	-2.23892
16.04871	0.0110011	-0.01161227	0	0	0	-1.993583
16.06528	0.0110011	-0.01161227	0	0	0	0
16.08218	0.0110011	-0.01161227	0	0	0	0
16.09841	0.0110011	-0.01161227	0	0	0	0
16.11506	0.0110011	-0.01161227	0	0	0	0
16.13229	0.0110011	-0.01161227	0	0	0	0
16.14839	0.0110011	-0.01161227	0	0	0	0
16.16468	0.0110011	-0.01161227	0	0	0	0
16.18141	0.0110011	-0.01161227	0	0	0	0
16.19855	0.0110011	-0.01161227	0	0	0	0
16.21438	0.0110011	-0.01161227	0	0	0	0
16.23095	0.0110011	-0.01161227	0	0	0	0
16.24751	0.0110011	-0.01161227	0	0	0	0
16.26408	0.0110011	-0.01161227	0	0	0	0
16.28065	0.0110011	-0.01161227	0	0	0	0
16.29721	0.0110011	-0.01161227	0	0	0	0
16.32558	0.0110011	-0.01161227	0	0	0	0
16.34242	0.0110011	-0.01161227	0	0	0	0
16.35872	0.0110011	-0.01161227	0	0	0	0
16.37529	0.0110011	-0.01161227	0	0	0	0
16.39187	0.0110011	-0.01161227	0	0	0	0
16.40842	0.0110011	-0.01161227	0	0	0	0
16.42507	0.0110011	-0.01161227	0	0	0	0
16.44196	0.0110011	-0.01161227	0	0	0	0
16.45812	0.0110011	-0.01161227	0	0	0	0
16.47469	0.0110011	-0.01161227	0	0	0	0
16.49196	0.0110011	-0.01161227	0	0	0	0
16.50782	0.0110011	-0.01161227	0	0	0	0
16.52447	0.0110011	-0.01161227	0	0	0	0
16.54095	0.0110011	-0.01161227	0	0	0	0
16.55752	0.0110011	-0.01161227	0	0	0	0
16.57409	0.0110011	-0.01161227	0	0	0	0
16.59066	0.0110011	-0.01161227	0	0	0	0
16.60722	0.0110011	-0.01161227	0	0	0	0
16.62379	0.0110011	-0.01161227	0	0	0	0
16.64065	0.0110011	-0.01161227	0	0	0	0
16.65692	0.0110011	-0.01161227	0	0	0	0
16.67522	0.0110011	-0.01161227	0	0	0	0
16.69209	0.0110011	-0.01161227	0	0	0	0
16.70836	0.0110011	-0.01161227	0	0	0	0
16.72493	0.0110011	-0.01161227	0	0	0	0
16.7415	0.0110011	-0.01161227	0	0	0	0
16.75806	0.0110011	-0.01161227	0	0	0	0
16.77514	0.0110011	-0.01161227	0	0	0	0
16.7912	0.0110011	-0.01161227	0	0	0	0
16.80787	0.0110011	-0.01161227	0	0	0	0
16.82452	0.0110011	-0.01161227	0	0	0	0
16.84141	0.0110011	-0.01161227	0	0	0	0
16.85746	0.0110011	-0.01161227	0	0	0	0
16.87404	0.0110011	-0.01161227	0	0	0	0
16.8906	0.0110011	-0.01161227	0	0	0	0
16.90774	0.0110011	-0.01161227	0	0	0	0
16.92373	0.0110011	-0.01161227	0	0	0	0
16.9403	0.0110011	-0.01161227	0	0	0	0
16.95693	0.0110011	-0.01161227	0	0	0	0
16.97351	0.0110011	-0.01161227	0	0	0	0
16.99016	0.0110011	-0.01161227	0	0	0	0
17.00656	0.0110011	-0.01161227	0	0	0	0
17.02329	0.0110011	-0.01161227	0	0	0	0
17.03981	0.0110011	-0.01161227	0	0	0	0
17.05653	0.0110011	-0.01161227	0	0	0	0
17.07283	0.0110011	-0.01161227	0	0	0	0
17.0894	0.0110011	-0.01161227	0	0	0	0
17.10596	0.0110011	-0.01161227	0	0	0	0
17.12278	0.0110011	-0.01161227	0	0	0	0
17.13952	0.0110011	-0.01161227	0	0	0	0
17.15566	0.0110011	-0.01161227	0	0	0	0
17.17223	0.0110011	-0.01161227	0	0	0	0
17.18882	0.0110011	-0.01161227	0	0	0	0
17.20536	0.0110011	-0.01161227	0	0	0	0
17.22193	0.0110011	-0.01161227	0	0	0	0
17.23863	0.0110011	-0.01161227	0	0	0	0
17.25506	0.0110011	-0.01161227	0	0	0	0
17.2721	0.0110011	-0.01161227	0	0	0	0
17.28819	0.0110011	-0.01161227	0	0	0	0
17.30476	0.0110011	-0.01161227	0	0	0	0
17.3216	0.0110011	-0.01161227	0	0	0	0
17.34449	0.0110011	-0.01161227	0	0	0	0
17.36106	0.0110011	-0.01161227	0	0	0	0
17.37763	0.0110011	-0.01161227	0	0	0	0
17.39459	0.0110011	-0.01161227	0	0	0	0
17.41086	0.0110011	-0.01161227	0	0	0	0
17.42733	0.0110011	-0.01161227	0	0	0	0
17.4439	0.0110011	-0.01161227	0	0	0	0
17.46046	0.0110011	-0.01161227	0	0	0	0
17.47703	0.0110011	-0.01161227	0	0	0	0
17.4936	0.0110011	-0.01161227	0	0	0	0
17.51016	0.0110011	-0.01161227	0	0	0	0
17.52699	0.0110011	-0.01161227	0	0	0	0
17.54343	0.0110011	-0.01161227	0	0	0	0
17.55986	0.0110011	-0.01161227	0	0	0	0
17.57643	0.0110011	-0.01161227	0	0	0	0
17.59299	0.0110011	-0.01161227	0	0	0	0
17.60956	0.0110011	-0.01161227	0	0	0	0
17.62613	0.0110011	-0.01161227	0	0	0	0
17.64269	0.0110011	-0.01161227	0	0	0	0
17.65926	0.0110011	-0.01161227	0	0	0	0
17.67583	0.0110011	-0.01161227	0	0	0	0
17.69247	0.0110011	-0.01161227	0	0	0	0
17.70896	0.0110011	-0.01161227	0	0	0	0
17.72555	0.0110011	-0.01161227	0	0	0	0
17.7421	0.0110011	-0.01161227	0	0	0	0
17.75878	0.0110011	-0.01161227	0	0	0	0
17.77523	0.0110011	-0.01161227	0	0	0	0
17.7918	0.0110011	-0.01161227	0	0	0	0
17.80836	0.0110011	-0.01161227	0	0	0	0
17.82493	0.0110011	-0.01161227	0	0	0	0
17.8415	0.0110011	-0.01161227	0	0	0	0
17.85808	0.0110011	-0.01161227	0	0	0	0
17.87463	0.0110011	-0.01161227	0	0	0	0
17.89133	0.0110011	-0.01161227	0	0	0	0
17.90802	0.0110011	-0.01161227	0	0	0	0
17.92433	0.0110011	-0.01161227	0	0	0	0
17.9409	0.0110011	-0.01161227	0	0	0	0
17.95746	0.0110011	-0.01161227	0	0	0	0
17.97424	0.0110011	-0.01161227	0	0	0	0
17.9906	0.0110011	-0.01161227	0	0	0	0
18.00716	0.0110011	-0.01161227	0	0	0	0
18.02373	0.0110011	-0.01161227	0	0	0	0
18.04029	0.0110011	-0.01161227	0	0	0	0
18.05686	0.0110011	-0.01161227	0	0	0	0
18.07343	0.0110011	-0.01161227	0	0	0	0
18.09038	0.0110011	-0.01161227	0	0	0	0
18.10656	0.0110011	-0.01161227	0	0	0	0
18.12313	0.0110011	-0.01161227	0	0	0	0
18.14023	0.0110011	-0.01161227	0	0	0	0
18.15626	0.0110011	-0.00550055	0	0.3811923	0	11.50441
18.17283	0.008556412	0.009167585	-0.1475617	0.8853704	-4.526378	15.46539
18.18939	0.002444689	0.04706026	-0.3689893	2.287733	-6.683465	42.32827
18.20596	0.001222344	0.05561667	-0.07378086	0.516466	8.910433	-53.46311
18.22262	0.001222344	0.06539543	0	0.5870031	2.220575	2.122948
18.23909	0	0.07028481	-0.07419944	0.2967977	-2.239472	-8.758921
18.25566	0	0.07150716	0	0.07378118	2.245678	-6.749689
18.27223	0	0.07150716	0	0	0	-2.22672
18.2888	0	0.07150716	0	0	0	0
18.30549	0	0.07150716	0	0	0	0
18.32193	0	0.07150716	0	0	0	0
18.33882	0	0.07150716	0	0	0	0
18.35506	0	0.07150716	0	0	0	0
18.37207	0	0.07150716	0	0	0	0
18.3882	0	0.07150716	0	0	0	0
18.40497	0	0.07150716	0	0	0	0
18.4215	0	0.07150716	0	0	0	0
18.4379	0	0.07150716	0	0	0	0
18.45463	0	0.07150716	0	0	0	0
18.47103	0	0.07150716	0	0	0	0
18.48769	0	0.06661777	0	-0.2934347	0	-8.87529
18.5043	0.001222344	0.06539543	0.07360291	-0.07360277	2.212298	6.607535
18.52073	0.007334067	0.06539543	0.3718582	0	9.026304	2.227491
18.53731	0.02811392	0.0727295	1.253842	0.4425324	26.71983	13.40659
18.55386	0.0770077	0.08984232	2.953615	1.033765	51.31107	17.84755
18.57043	0.1393473	0.1130669	3.762824	1.401836	24.43182	11.11288
18.58726	0.2077986	0.1411808	4.066652	1.670232	9.096761	8.03592
18.60356	0.25547	0.1656277	2.924589	1.49979	-34.46951	-5.144267
18.62013	0.2811393	0.1778511	1.549401	0.7378091	-41.84047	-23.18346
18.63669	0.2921403	0.1864075	0.6640265	0.516466	-26.72064	-6.680148
18.65326	0.294585	0.1888522	0.1475614	0.1475614	-15.58695	-11.13356
18.67344	0.294585	0.1888522	0	0	-4.015607	-4.015607
18.69001	0.294585	0.1888522	0	0	0	0
18.70658	0.294585	0.1888522	0	0	0	0
18.72314	0.294585	0.1888522	0	0	0	0
18.74064	0.294585	0.1888522	0	0	0	0
18.75673	0.294585	0.1888522	0	0	0	0
18.77284	0.294585	0.1888522	0	0	0	0
18.78941	0.294585	0.1888522	0	0	0	0
18.80598	0.294585	0.1888522	0	0	0	0
18.82254	0.294585	0.1888522	0	0	0	0
18.83911	0.294585	0.1888522	0	0	0	0
18.85568	0.294585	0.1888522	0	0	0	0
18.87246	0.2933627	0.1864075	-0.07282493	-0.1456499	-2.183532	-4.367064
18.88881	0.2896957	0.1815182	-0.224312	-0.2990836	-4.572152	-4.630905
18.92475	0.2848063	0.1766288	-0.1360283	-0.1360279	1.688287	3.118184
18.94132	0.259137	0.1497372	-1.549219	-1.622992	-26.91118	-28.31605
18.95789	0.251803	0.1424031	-0.4426844	-0.4426844	33.39335	35.6197
18.97491	0.2383572	0.127735	-0.7898582	-0.8616623	-10.33553	-12.47318
18.99102	0.220022	0.1106222	-1.138025	-1.062157	-10.5077	-6.050951
19.00788	0.2029092	0.09228701	-1.015053	-1.087556	3.729767	-0.7703452
19.02416	0.1906857	0.08006357	-0.7510374	-0.7510378	7.968012	10.15614
19.04076	0.184574	0.07395184	-0.3680993	-0.3680993	11.64693	11.64694
19.05743	0.1821293	0.0727295	-0.1466656	-0.07333326	6.655299	8.859339
19.07397	0.1821293	0.07150715	-9.008879E-07	-0.07390029	4.416436	-0.01707456
19.09055	0.1821293	0.07150715	0	0	2.720451E-05	2.2316
19.10727	0.180907	0.07150716	-0.07309905	4.455629E-07	-2.195392	1.338164E-05
19.12356	0.1796846	0.07028481	-0.07503329	-0.07503375	-0.05859149	-2.27291
19.14032	0.17724	0.06784012	-0.1458819	-0.1458819	-2.14377	-2.143755
19.15669	0.1723506	0.06661778	-0.2985611	-0.07464004	-4.607865	2.150085
19.17341	0.1662388	0.06417309	-0.3655379	-0.1462152	-2.023693	-2.162633
19.18982	0.1564601	0.0617284	-0.5959413	-0.1489855	-6.954791	-0.08362285
19.20639	0.1540154	0.06050605	-0.1475614	-0.07378072	13.5971	2.280582
19.22296	0.1479037	0.06050605	-0.3689045	-2.24859E-07	-6.680148	2.2267
19.23952	0.141792	0.06050605	-0.3688621	2.248331E-07	0.001281622	1.357095E-05
19.25609	0.1344579	0.06295074	-0.4426852	0.1475614	-2.22786	4.45315
19.27266	0.1295685	0.06539543	-0.2951569	0.1475789	4.452672	0.00052665
19.28946	0.1259015	0.06661777	-0.218302	0.07276705	2.303571	-2.242337
19.30579	0.1234568	0.06906246	-0.1496466	0.1496466	2.072026	2.320228
19.32671	0.1197898	0.07028481	-0.1753054	0.0584356	-0.6887479	-2.448331
19.34328	0.1112334	0.07395185	-0.5162877	0.2212662	-9.095081	4.343209
19.35985	0.1087887	0.07395184	-0.1475954	-4.498215E-07	11.12651	-6.677456
19.37644	0.106344	0.07639653	-0.1473075	0.1473075	0.008682952	4.442439
19.39298	0.1014546	0.07761887	-0.2956348	0.07390836	-4.476526	-2.215191
19.40955	0.09656521	0.08006356	-0.2951233	0.1475614	0.01544856	2.224776
19.42669	0.08800881	0.08495294	-0.4990011	0.2851441	-6.047219	4.08084
19.44268	0.08067474	0.08739763	-0.4587954	0.1529315	1.21348	-3.990414
19.45942	0.07334067	0.08984232	-0.4379957	0.1459987	0.6354913	-0.2118166
19.47581	0.07089598	0.09106467	-0.1491585	0.07457969	8.717124	-2.15543
19.4925	0.06967364	0.09106467	-0.07325827	0	2.294768	-2.254843
19.509	0.06967364	0.09106467	0	0	2.207508	0
19.52551	0.06845129	0.09106466	-0.07401978	-4.511723E-07	-2.242052	-1.366597E-05
19.54208	0.06722894	0.09106466	-0.07378072	0	0.007226472	1.363839E-05
19.55865	0.06722894	0.09106466	0	0	2.226707	0
19.57522	0.06722894	0.09106466	0	0	0	0
19.59178	0.06722894	0.09106466	0	0	0	0
19.60835	0.06722894	0.09106466	0	0	0	0
19.62492	0.0660066	0.09106466	-0.07377223	0	-2.22645	0
19.64177	0.06356191	0.09106466	-0.1450733	0	-2.133449	0
19.65805	0.05378316	0.08861997	-0.6006187	-0.1501549	-13.74918	-4.531946
19.67461	0.04644909	0.08495294	-0.4427362	-0.2213677	4.806682	-2.168049
19.69118	0.04155971	0.08373059	-0.2951236	-0.07378118	4.455215	4.454425
19.70775	0.04033737	0.08250825	-0.07378922	-0.07378922	6.680269	-0.0002426368
19.72432	0.04033737	0.08250825	0	0	2.226963	2.226963
19.74089	0.04033737	0.08250825	0	0	0	0
19.75797	0.04033737	0.08250825	0	0	0	0
19.77447	0.04033737	0.08250825	0	0	0	0
19.79058	0.03911502	0.08250825	-0.07583261	0	-2.325037	0
19.80749	0.03667033	0.08250825	-0.1445985	0	-2.082189	0
19.82372	0.03667033	0.08250825	0	0	4.364241	0
19.84028	0.03667033	0.08250825	0	0	0	0
19.85685	0.03667033	0.08250825	0	0	0	0
19.87354	0.03667033	0.08250825	0	0	0	0
19.89029	0.03667033	0.08250825	0	0	0	0
19.90656	0.03667033	0.08250825	0	0	0	0
19.92312	0.03667033	0.08250825	0	0	0	0
19.93968	0.03667033	0.08250825	0	0	0	0
19.95625	0.03667033	0.08250825	0	0	0	0
19.97295	0.03667033	0.08250825	0	0	0	0
19.99155	0.03667033	0.08250825	0	0	0	0
20.00813	0.03667033	0.08250825	0	0	0	0
20.02469	0.03667033	0.08250825	0	0	0	0
20.04126	0.03667033	0.08250825	0	0	0	0
20.05793	0.03667033	0.08250825	0	0	0	0
20.07439	0.03667033	0.08250825	0	0	0	0
20.09096	0.03667033	0.08250825	0	0	0	0
20.10753	0.03667033	0.08250825	0	0	0	0
20.1241	0.03667033	0.08250825	0	0	0	0
20.14067	0.03667033	0.08250825	0	0	0	0
20.15723	0.03667033	0.08250825	0	0	0	0
20.17391	0.03667033	0.08250825	0	0	0	0
20.19036	0.03667033	0.08250825	0	0	0	0
20.20696	0.03667033	0.08250825	0	0	0	0
20.22356	0.03667033	0.08250825	0	0	0	0
20.24025	0.03667033	0.08250825	0	0	0	0
20.25663	0.03667033	0.08250825	0	0	0	0
20.27357	0.03667033	0.08250825	0	0	0	0
20.2898	0.03667033	0.08250825	0	0	0	0
20.30633	0.03667033	0.08250825	0	0	0	0
20.3229	0.03667033	0.08250825	0	0	0	0
20.33946	0.03667033	0.08250825	0	0	0	0
20.35603	0.03667033	0.08250825	0	0	0	0
20.3726	0.03667033	0.08250825	0	0	0	0
20.38917	0.03667033	0.08250825	0	0	0	0
20.40574	0.03667033	0.08250825	0	0	0	0
20.4223	0.03667033	0.08250825	0	0	0	0
20.43886	0.03667033	0.08250825	0	0	0	0
20.45543	0.03667033	0.08250825	0	0	0	0
20.472	0.03667033	0.08250825	0	0	0	0
20.48865	0.03667033	0.08250825	0	0	0	0
20.50513	0.03667033	0.08250825	0	0	0	0
20.52173	0.03667033	0.08250825	0	0	0	0
20.53827	0.03667033	0.08250825	0	0	0	0
20.55483	0.03667033	0.08250825	0	0	0	0
20.5714	0.03667033	0.08250825	0	0	0	0
20.58806	0.03667033	0.08250825	0	0	0	0
20.60467	0.03667033	0.08250825	0	0	0	0
20.62128	0.03667033	0.08250825	0	0	0	0
20.63812	0.03667033	0.08250825	0	0	0	0
20.65646	0.03667033	0.08250825	0	0	0	0
20.67338	0.03667033	0.08250825	0	0	0	0
20.69007	0.03667033	0.08250825	0	0	0	0
20.70616	0.03667033	0.08250825	0	0	0	0
20.72319	0.03667033	0.08250825	0	0	0	0
20.73939	0.03667033	0.08250825	0	0	0	0
20.76318	0.03667033	0.08250825	0	0	0	0
20.77975	0.03667033	0.08250825	0	0	0	0
20.79631	0.03667033	0.08250825	0	0	0	0
20.81288	0.03667033	0.08250825	0	0	0	0
20.82944	0.03667033	0.08250825	0	0	0	0
20.84613	0.03667033	0.08250825	0	0	0	0
20.86258	0.03667033	0.08250825	0	0	0	0
20.87915	0.03667033	0.08250825	0	0	0	0
20.89571	0.03667033	0.08250825	0	0	0	0
20.91231	0.03667033	0.08250825	0	0	0	0
20.92894	0.03667033	0.08250825	0	0	0	0
20.94541	0.03667033	0.08250825	0	0	0	0
20.96235	0.03667033	0.08250825	0	0	0	0
20.97854	0.03667033	0.08250825	0	0	0	0
20.99536	0.03667033	0.08250825	0	0	0	0
21.01168	0.03667033	0.08250825	0	0	0	0
21.02824	0.03667033	0.08250825	0	0	0	0
21.04516	0.03667033	0.08250825	0	0	0	0
21.06138	0.03667033	0.08250825	0	0	0	0
21.07794	0.03667033	0.08250825	0	0	0	0
21.09451	0.03667033	0.08250825	0	0	0	0
21.11139	0.03667033	0.08250825	0	0	0	0
21.12764	0.03667033	0.08250825	0	0	0	0
21.14421	0.03667033	0.08250825	0	0	0	0
21.16101	0.03667033	0.08250825	0	0	0	0
21.17734	0.03667033	0.08250825	0	0	0	0
21.19391	0.03667033	0.08250825	0	0	0	0
21.21055	0.03667033	0.08250825	0	0	0	0
21.22704	0.03667033	0.08250825	0	0	0	0
21.24361	0.03667033	0.08250825	0	0	0	0
21.26033	0.03667033	0.08250825	0	0	0	0
21.28191	0.03667033	0.08250825	0	0	0	0
21.29894	0.03667033	0.08250825	0	0	0	0
21.31511	0.03667033	0.08250825	0	0	0	0
21.33162	0.03667033	0.08250825	0	0	0	0
21.34818	0.03667033	0.08250825	0	0	0	0
21.36475	0.03667033	0.08250825	0	0	0	0
21.3814	0.03667033	0.08250825	0	0	0	0
21.39793	0.03667033	0.08250825	0	0	0	0
21.41445	0.03667033	0.08250825	0	0	0	0
21.43132	0.03667033	0.08250825	0	0	0	0
21.44758	0.03667033	0.08250825	0	0	0	0
21.46415	0.03667033	0.08250825	0	0	0	0
21.48072	0.03789268	0.08250825	0.07378072	0	2.226707	0
21.49731	0.03789268	0.08250825	0	0	-2.224786	0
21.51385	0.03789268	0.08250825	0	0	0	0
21.53042	0.03789268	0.08250825	0	0	0	0
21.54699	0.03789268	0.08250825	0	0	0	0
21.56355	0.03789268	0.08250825	0	0	0	0
21.58012	0.03789268	0.08250825	0	0	0	0
21.59677	0.03789268	0.08250825	0	0	0	0
21.61325	0.03911502	0.08250825	0.07416518	0	2.238438	0
21.62999	0.03911502	0.08128591	0	-0.07304073	-2.232783	-2.198931
21.64639	0.03911502	0.08128591	0	0	0	2.204374
21.66295	0.04033737	0.08006357	0.07378072	-0.07378072	2.238044	-2.238044
21.67952	0.04033737	0.08006357	0	0	-2.226707	2.226707
21.69608	0.04155971	0.08006357	0.07378945	0	2.227098	0
21.71297	0.04155971	0.08006357	0	0	-2.206017	0
21.72922	0.04278206	0.07884122	0.07520964	-0.07520987	2.269701	-2.269708
21.74578	0.04278206	0.07884122	0	0	-2.291863	2.291871
21.76235	0.04278206	0.07884122	0	0	0	0
21.77892	0.04278206	0.07884122	0	0	0	0
21.79554	0.0440044	0.07884122	0.07355232	4.483243E-07	2.216496	1.351023E-05
21.81205	0.0440044	0.07884122	0	0	-2.219686	-1.352968E-05
21.82862	0.0440044	0.07884122	0	0	0	0
21.84519	0.0440044	0.07761887	0	-0.07378118	0	-2.226849
21.86175	0.0440044	0.07761887	0	0	0	2.22672
21.87882	0.0440044	0.07761887	0	0	0	0
21.89489	0.0440044	0.07761887	0	0	0	0
21.91145	0.0440044	0.07761887	0	0	0	0
21.92802	0.0440044	0.07761887	0	0	0	0
21.94553	0.0440044	0.07761887	0	0	0	0
21.96256	0.0440044	0.07761887	0	0	0	0
21.97927	0.0440044	0.07761887	0	0	0	0
21.99523	0.0440044	0.07761887	0	0	0	0
22.012	0.0440044	0.07761887	0	0	0	0
22.02836	0.0440044	0.07761887	0	0	0	0
22.04493	0.0440044	0.07761887	0	0	0	0
22.0615	0.0440044	0.07761887	0	0	0	0
22.07807	0.0440044	0.07761887	0	0	0	0
22.09463	0.0440044	0.07761887	0	0	0	0
22.11138	0.0440044	0.07761887	0	0	0	0
22.12841	0.0440044	0.07761887	0	0	0	0
22.14433	0.0440044	0.07761887	0	0	0	0
22.16091	0.0440044	0.07761887	0	0	0	0
22.17747	0.0440044	0.07761887	0	0	0	0
22.19403	0.0440044	0.07761887	0	0	0	0
22.2106	0.0440044	0.07761887	0	0	0	0
22.22722	0.0440044	0.07761887	0	0	0	0
22.24373	0.0440044	0.07761887	0	0	0	0
22.26106	0.0440044	0.07761887	0	0	0	0
22.27687	0.0440044	0.07761887	0	0	0	0
22.29396	0.0440044	0.07761887	0	0	0	0
22.31	0.0440044	0.07761887	0	0	0	0
22.32729	0.0440044	0.07761887	0	0	0	0
22.34314	0.0440044	0.07761887	0	0	0	0
22.35998	0.0440044	0.07761887	0	0	0	0
22.37627	0.0440044	0.07761887	0	0	0	0
22.39283	0.0440044	0.07761887	0	0	0	0
22.4098	0.03667033	0.07517419	-0.4322838	-0.1440943	-12.89199	-4.297321
22.42597	0.03055861	0.07517418	-0.3780443	-4.608601E-07	1.637043	4.34901
22.44254	0.02322455	0.07272949	-0.4426341	-0.1475449	-1.97306	-4.507125
22.45953	0.01589048	0.07150715	-0.431556	-0.07192586	0.3300616	2.253007
22.47567	0.008556412	0.07028481	-0.454511	-0.0757517	-0.6928613	-0.1154775
22.49223	-0.007334067	0.06906246	-0.9591512	-0.07378072	-15.43082	0.06026825
22.5088	-0.01711282	0.06784012	-0.5903149	-0.07378922	11.13214	-0.000256354
22.52537	-0.02444689	0.06661777	-0.4426851	-0.07378118	4.455731	0.0002426368
22.54193	-0.02933627	0.06661777	-0.2951233	0	4.453424	2.22672
22.5585	-0.03544799	0.06661777	-0.3689043	0	-2.226714	0
22.57507	-0.04644909	0.06539543	-0.6640276	-0.07378072	-8.90684	-2.226707
22.59175	-0.06478426	0.06539543	-1.098869	0	-13.07688	2.218788
22.60996	-0.08800881	0.06295074	-1.275545	-0.134268	-5.063344	-3.847989
22.62653	-0.1552377	0.06539543	-4.057012	0.1475279	-79.97641	8.10257
22.6431	-0.1552377	0.06539543	0	0	122.4268	-4.45189
22.65974	-0.1919081	0.07028481	-2.203786	0.2938378	-66.36522	8.848688
22.67623	-0.2346901	0.08128591	-2.593676	0.6669456	-11.7669	11.26042
22.6928	-0.2823616	0.09350936	-2.877455	0.7378091	-8.583261	2.143351
22.70937	-0.2994744	0.09595404	-1.033049	0.147578	55.6675	-17.81423
22.72598	-0.3080308	0.09717638	-0.5150438	0.07357743	15.61276	-2.230388
22.74285	-0.3092532	0.09717639	-0.07243805	4.415338E-07	13.21711	-2.19716
22.75906	-0.3092532	0.09717639	0	0	2.189461	-1.334549E-05
22.77563	-0.3104755	0.09717639	-0.07378072	0	-2.250937	0
22.7922	-0.3129202	0.09717638	-0.1475614	-4.497179E-07	-2.226707	-1.357251E-05
22.80877	-0.3178096	0.09717639	-0.2951247	4.497179E-07	-4.453468	2.714503E-05
22.82533	-0.3214766	0.09717639	-0.2213677	0	2.22612	-1.35733E-05
22.8419	-0.3275883	0.09595405	-0.3689036	-0.07378072	-4.452901	-2.226835
22.85875	-0.3275883	0.09595405	0	0	11.03822	2.207644
22.87546	-0.3275883	0.09595405	0	0	0	0
22.8916	-0.3275883	0.09595405	0	0	0	0
22.90819	-0.3275883	0.09595405	0	0	0	0
22.92473	-0.3275883	0.09595405	0	0	0	0
22.94151	-0.3275883	0.09595405	0	0	0	0
22.95787	-0.3275883	0.09595405	0	0	0	0
22.97443	-0.3275883	0.09595405	0	0	0	0
22.991	-0.3275883	0.09595405	0	0	0	0
23.00756	-0.3275883	0.09595405	0	0	0	0
23.0243	-0.3251436	0.0947317	0.1460981	-0.07304905	4.387278	-2.193639
23.04075	-0.3153649	0.09350935	0.5942843	-0.07428576	13.50452	-0.03726383
23.05726	-0.3055861	0.092287	0.5922248	-0.07402834	-0.06247107	0.007808658
23.07383	-0.2933627	0.09106466	0.7378922	-0.07378922	4.403855	0.007229108
23.0904	-0.2750275	0.09106466	1.106713	0	11.13167	2.227091
23.10697	-0.251803	0.09106467	1.401674	4.496662E-07	8.901442	1.357017E-05
23.12397	-0.220022	0.09106467	1.869237	0	13.92749	-1.339439E-05
23.1401	-0.188241	0.08984232	1.970479	-0.07578799	3.055843	-2.287549
23.15667	-0.145459	0.08984232	2.582033	0	18.70326	2.31784
23.17324	-0.1295685	0.08861998	0.9587097	-0.07374676	-48.97789	-2.225041
23.18979	-0.1234568	0.08861998	0.3692016	0	-17.79446	2.226066
23.20636	-0.1210121	0.08861997	0.1475624	-4.497179E-07	-6.691782	-1.357799E-05
23.22293	-0.1197898	0.08861998	0.07377178	4.496662E-07	-2.226876	2.71419E-05
23.23949	-0.1197898	0.08861998	0	0	-2.226565	-1.357173E-05
23.25702	-0.1124557	0.08861998	0.418544	0	12.27898	0
23.27263	-0.1087887	0.08861998	0.2348909	0	-5.542662	0
23.2892	-0.1014546	0.08861998	0.4426852	0	6.457476	0
23.30576	-0.09534287	0.08861998	0.3689041	4.497179E-07	-2.22672	1.357251E-05
23.32239	-0.08923115	0.08861998	0.3676348	-4.4817E-07	-0.03824183	-2.70516E-05
23.3389	-0.08067474	0.08861998	0.5182559	0	4.545756	1.35258E-05
23.35546	-0.06967364	0.08861997	0.6641043	-4.497697E-07	4.409582	-1.359834E-05
23.37203	-0.05745019	0.08861998	0.7378086	4.497179E-07	2.224526	2.714815E-05
23.3886	-0.04522675	0.08984232	0.7378935	0.07378922	0.00256354	2.227078
23.40516	-0.03544799	0.09106467	0.5902469	0.07378118	-4.45624	-0.0002426368
23.42173	-0.02444689	0.092287	0.6640276	0.07378028	2.226707	-2.720794E-05
23.4383	-0.01833517	0.09228701	0.3688618	4.496662E-07	-8.907609	-2.226552
23.45487	-0.01344579	0.092287	0.2951235	-4.497179E-07	-2.2253	-2.71419E-05
23.47149	-0.006111722	0.092287	0.4410602	0	4.396283	1.354756E-05
23.48804	0.001222344	0.09228701	0.4431954	4.502363E-07	0.06435678	1.357097E-05
23.50457	0.0110011	0.09350935	0.5917457	0.07396808	4.49153	2.236467
23.52114	0.01711282	0.09350935	0.3689042	0	-6.733896	-2.235192
23.5377	0.01955751	0.09350935	0.1475618	0	-6.680128	0
23.55427	0.02077986	0.09350935	0.07378083	-4.497179E-07	-2.226714	-1.357251E-05
23.57084	0.02077986	0.09350935	0	0	-2.22671	1.357251E-05
23.5874	0.02077986	0.09350935	0	0	0	0
23.60397	0.02077986	0.09350935	0	0	0	0
23.62054	0.02077986	0.09350935	0	0	0	0
23.63711	0.02077986	0.09350935	0	0	0	0
23.65367	0.02077986	0.09350935	0	0	0	0
23.67024	0.02077986	0.09350935	0	0	0	0
23.68689	0.02077986	0.09350935	0	0	0	0
23.70351	0.02077986	0.09350935	0	0	0	0
23.71994	0.02077986	0.09350935	0	0	0	0
23.73657	0.02077986	0.09350935	0	0	0	0
23.75307	0.02077986	0.09350935	0	0	0	0
23.76969	0.02077986	0.09350935	0	0	0	0
23.78621	0.02077986	0.09350935	0	0	0	0
23.80277	0.02077986	0.09350935	0	0	0	0
23.81934	0.02077986	0.09350935	0	0	0	0
23.83591	0.02077986	0.09350935	0	0	0	0
23.85247	0.02077986	0.09350935	0	0	0	0
23.86904	0.02077986	0.09350935	0	0	0	0
23.89008	0.02077986	0.09350935	0	0	0	0
23.90695	0.02077986	0.09350935	0	0	0	0
23.92362	0.02077986	0.09350935	0	0	0	0
23.93978	0.02077986	0.09350935	0	0	0	0
23.95635	0.02077986	0.09350935	0	0	0	0
23.97291	0.02077986	0.09350935	0	0	0	0
23.98997	0.02077986	0.09350935	0	0	0	0
24.00605	0.02077986	0.09350935	0	0	0	0
24.02273	0.02077986	0.09350935	0	0	0	0
24.03944	0.02077986	0.09350935	0	0	0	0
24.05575	0.02077986	0.09350935	0	0	0	0
24.07231	0.02077986	0.09350935	0	0	0	0
24.08888	0.02077986	0.09350935	0	0	0	0
24.10545	0.02077986	0.09350935	0	0	0	0
24.12201	0.02077986	0.09350935	0	0	0	0
24.13858	0.02077986	0.09350935	0	0	0	0
24.15515	0.02077986	0.09350935	0	0	0	0
24.17171	0.02077986	0.09350935	0	0	0	0
24.18832	0.02077986	0.09350935	0	0	0	0
24.20487	0.02077986	0.09350935	0	0	0	0
24.22144	0.02077986	0.09350935	0	0	0	0
24.23827	0.02077986	0.09350935	0	0	0	0
24.25455	0.02077986	0.09350935	0	0	0	0
24.27112	0.02077986	0.09350935	0	0	0	0
24.28768	0.02077986	0.09350935	0	0	0	0
24.30425	0.02077986	0.09350935	0	0	0	0
24.32104	0.02077986	0.09350935	0	0	0	0
24.33741	0.02077986	0.09350935	0	0	0	0
24.35396	0.02077986	0.09350935	0	0	0	0
24.37052	0.02077986	0.09350935	0	0	0	0
24.38709	0.02077986	0.09350935	0	0	0	0
24.40365	0.02077986	0.09350935	0	0	0	0
24.42022	0.02077986	0.09350935	0	0	0	0
24.43679	0.02077986	0.09350935	0	0	0	0
24.45357	0.02077986	0.09350935	0	0	0	0
24.46992	0.02077986	0.09350935	0	0	0	0
24.48649	0.02077986	0.09350935	0	0	0	0
24.50305	0.02077986	0.09350935	0	0	0	0
24.51962	0.02077986	0.09350935	0	0	0	0
24.53663	0.02077986	0.09350935	0	0	0	0
24.55275	0.02077986	0.09350935	0	0	0	0
24.56993	0.02077986	0.09350935	0	0	0	0
24.58589	0.02077986	0.09350935	0	0	0	0
24.60245	0.02077986	0.09350935	0	0	0	0
24.61902	0.02077986	0.09350935	0	0	0	0
24.63602	0.02077986	0.09350935	0	0	0	0
24.65216	0.02077986	0.09350935	0	0	0	0
24.66872	0.02077986	0.09350935	0	0	0	0
24.68534	0.02077986	0.09350935	0	0	0	0
24.70192	0.02077986	0.09350935	0	0	0	0
24.71895	0.02077986	0.09350935	0	0	0	0
24.73499	0.02077986	0.09350935	0	0	0	0
24.75155	0.02077986	0.09350935	0	0	0	0
24.76812	0.02077986	0.09350935	0	0	0	0
24.78541	0.02077986	0.09350935	0	0	0	0
24.80125	0.02077986	0.09350935	0	0	0	0
24.81792	0.02077986	0.09350935	0	0	0	0
24.83439	0.02077986	0.09350935	0	0	0	0
24.8511	0.02077986	0.09350935	0	0	0	0
24.86769	0.02077986	0.09350935	0	0	0	0
24.88409	0.02077986	0.09350935	0	0	0	0
24.91035	0.02077986	0.09350935	0	0	0	0
24.92692	0.02077986	0.09350935	0	0	0	0
24.94354	0.02077986	0.09350935	0	0	0	0
24.96005	0.02077986	0.09350935	0	0	0	0
24.97662	0.02077986	0.09350935	0	0	0	0
24.99319	0.02077986	0.09350935	0	0	0	0
25.00975	0.02077986	0.09350935	0	0	0	0
25.02632	0.02077986	0.09350935	0	0	0	0
25.04289	0.02077986	0.09350935	0	0	0	0
25.05945	0.02077986	0.09350935	0	0	0	0
25.07602	0.02077986	0.09350935	0	0	0	0
25.09259	0.02077986	0.09350935	0	0	0	0
25.10923	0.02077986	0.09350935	0	0	0	0
25.12572	0.02077986	0.09350935	0	0	0	0
25.14268	0.02077986	0.09350935	0	0	0	0
25.15886	0.02077986	0.09350935	0	0	0	0
25.17591	0.02077986	0.09350935	0	0	0	0
25.19199	0.02077986	0.09350935	0	0	0	0
25.20856	0.02077986	0.09350935	0	0	0	0
25.22544	0.02077986	0.09350935	0	0	0	0
25.24169	0.02077986	0.09350935	0	0	0	0
25.25847	0.02077986	0.09350935	0	0	0	0
25.27482	0.02077986	0.09350935	0	0	0	0
25.2918	0.02077986	0.09350935	0	0	0	0
25.30888	0.02077986	0.09350935	0	0	0	0
25.3247	0.02077986	0.09350935	0	0	0	0
25.34133	0.02077986	0.09350935	0	0	0	0
25.35766	0.02077986	0.09350935	0	0	0	0
25.37422	0.02077986	0.09350935	0	0	0	0
25.39079	0.02077986	0.09350935	0	0	0	0
25.40736	0.02077986	0.09350935	0	0	0	0
25.42393	0.02077986	0.09350935	0	0	0	0
25.44049	0.02077986	0.09350935	0	0	0	0
25.45745	0.02077986	0.09350935	0	0	0	0
25.47362	0.02077986	0.09350935	0	0	0	0
25.49019	0.02077986	0.09350935	0	0	0	0
25.50676	0.02077986	0.09350935	0	0	0	0
25.52332	0.02077986	0.09350935	0	0	0	0
25.53989	0.02077986	0.09350935	0	0	0	0
25.5569	0.02077986	0.09350935	0	0	0	0
25.57302	0.02077986	0.09350935	0	0	0	0
25.58986	0.02077986	0.09350935	0	0	0	0
25.60616	0.02077986	0.09350935	0	0	0	0
25.62272	0.02077986	0.09350935	0	0	0	0
25.63929	0.02077986	0.09350935	0	0	0	0
25.65586	0.02077986	0.09350935	0	0	0	0
25.6727	0.02077986	0.09350935	0	0	0	0
25.68899	0.02077986	0.09350935	0	0	0	0
25.70556	0.02077986	0.09350935	0	0	0	0
25.72906	0.02077986	0.09350935	0	0	0	0
25.74563	0.02077986	0.09350935	0	0	0	0
25.7622	0.02077986	0.09350935	0	0	0	0
25.77876	0.02077986	0.09350935	0	0	0	0
25.79533	0.02077986	0.09350935	0	0	0	0
25.8119	0.02077986	0.09350935	0	0	0	0
25.82846	0.02077986	0.09350935	0	0	0	0
25.84503	0.02077986	0.09350935	0	0	0	0
25.86392	0.02077986	0.09350935	0	0	0	0
25.88094	0.02077986	0.09350935	0	0	0	0
25.89705	0.02077986	0.09350935	0	0	0	0
25.91362	0.02077986	0.09350935	0	0	0	0
25.93063	0.02077986	0.09350935	0	0	0	0
25.94675	0.02077986	0.09350935	0	0	0	0
25.96332	0.02077986	0.09350935	0	0	0	0
25.97989	0.02077986	0.09350935	0	0	0	0
25.99646	0.02077986	0.09350935	0	0	0	0
26.01302	0.02077986	0.09350935	0	0	0	0
26.02962	0.02077986	0.09350935	0	0	0	0
26.0463	0.02077986	0.09350935	0	0	0	0
26.06272	0.02077986	0.09350935	0	0	0	0
26.07929	0.02077986	0.09350935	0	0	0	0
26.09586	0.02077986	0.09350935	0	0	0	0
26.11242	0.02077986	0.09350935	0	0	0	0
26.12899	0.02077986	0.09350935	0	0	0	0
26.14556	0.02077986	0.09350935	0	0	0	0
26.16212	0.02077986	0.09350935	0	0	0	0
26.17872	0.02077986	0.09350935	0	0	0	0
26.19526	0.02077986	0.09350935	0	0	0	0
26.21182	0.02077986	0.09350935	0	0	0	0
26.22839	0.02077986	0.09350935	0	0	0	0
26.2459	0.02077986	0.09350935	0	0	0	0
26.26157	0.02077986	0.09350935	0	0	0	0
26.2788	0.02077986	0.09350935	0	0	0	0
26.29466	0.02077986	0.09350935	0	0	0	0
26.31124	0.02077986	0.09350935	0	0	0	0
26.32795	0.02077986	0.09350935	0	0	0	0
26.34442	0.02077986	0.09350935	0	0	0	0
26.36093	0.02077986	0.09350935	0	0	0	0
26.378	0.02077986	0.09350935	0	0	0	0
26.39406	0.02077986	0.09350935	0	0	0	0
26.41096	0.02077986	0.09350935	0	0	0	0
26.4272	0.02077986	0.09350935	0	0	0	0
26.44377	0.02077986	0.09350935	0	0	0	0
26.46033	0.02077986	0.09350935	0	0	0	0
26.4769	0.02077986	0.09350935	0	0	0	0
26.49347	0.02077986	0.09350935	0	0	0	0
26.51509	0.02077986	0.09350935	0	0	0	0
26.53204	0.01344579	0.08495294	-0.4326727	-0.5047845	-11.21774	-13.08735
26.54822	0.0110011	0.08250825	-0.1510573	-0.1510575	8.49917	10.6755
26.56479	0.006111722	0.07761887	-0.2950895	-0.2950894	-4.397528	-4.397519
26.58136	0.003667034	0.07395184	-0.1475617	-0.2213426	4.452141	2.225553
26.59792	0.002444689	0.07395184	-0.07378937	0	2.226582	6.680518
26.61449	0.002444689	0.07395184	0	0	2.227096	0
26.63106	0.002444689	0.07395184	0	0	0	0
26.64763	0.002444689	0.07395184	0	0	0	0
26.66419	0.002444689	0.07395184	0	0	0	0
26.68076	0.002444689	0.07395184	0	0	0	0
26.69732	0.002444689	0.07395184	0	0	0	0
26.71389	0.002444689	0.07395184	0	0	0	0
26.73046	0.002444689	0.07395184	0	0	0	0
26.74702	0.002444689	0.07395184	0	0	0	0
26.76359	0.002444689	0.07395184	0	0	0	0
26.78016	0.002444689	0.07395184	0	0	0	0
26.79673	0.002444689	0.07395184	0	0	0	0
26.81329	0.002444689	0.07395184	0	0	0	0
26.82986	0.002444689	0.07395184	0	0	0	0
26.84643	0.002444689	0.07395184	0	0	0	0
26.863	0.002444689	0.07395184	0	0	0	0
26.87959	0.002444689	0.07395184	0	0	0	0
26.89613	0.002444689	0.07395184	0	0	0	0
26.9127	0.002444689	0.07395184	0	0	0	0
26.92926	0.002444689	0.07395184	0	0	0	0
26.94592	0	0.07028481	-0.1467339	-0.220101	-4.416237	-6.624357
26.96239	-0.003667034	0.05928371	-0.2226241	-0.667872	-2.290501	-13.51453
26.97896	-0.01222344	0.03239213	-0.516466	-1.623179	-8.893765	-28.91445
26.99553	-0.02933627	-0.04950495	-1.033051	-4.943887	-15.59146	-100.2249
27.01209	-0.03544799	-0.131402	-0.3689467	-4.943887	20.04502	0
27.02898	-0.03055861	-0.1864075	0.2894582	-3.256405	19.67925	50.43764
27.04597	-0.02566923	-0.2194109	0.2879302	-1.94353	-0.04510917	38.75918
27.06194	-0.0220022	-0.2389683	0.2295893	-1.224476	-1.770412	21.82044
27.07836	-0.01955751	-0.2585258	0.1488816	-1.191052	-2.491556	1.031833
27.09493	-0.01589048	-0.276861	0.221317	-1.106587	2.195712	2.560354
27.11149	-0.01466813	-0.2927515	0.07379783	-0.9593721	-4.452394	4.443212
27.12806	-0.01222345	-0.3098643	0.1475447	-1.032813	2.225814	-2.21658
27.14463	-0.01222345	-0.3135314	0	-0.2213422	-4.452653	24.48883
27.16119	-0.0110011	-0.3233101	0.07378089	-0.5902476	2.226712	-11.13359
27.18234	-0.0110011	-0.3281995	4.403294E-08	-0.231168	-1.956127	9.520158
27.19891	-0.0110011	-0.3330889	0	-0.2950907	-1.167372E-06	-1.694677
27.21548	-0.0110011	-0.3330889	0	0	0	8.905343
27.23205	-0.0110011	-0.3465347	-1.124295E-07	-0.8115898	-3.393129E-06	-24.49383
27.24936	-0.009778756	-0.3660922	0.07058722	-1.129394	2.083202	-9.37916
27.26518	-0.008556412	-0.383205	0.07728659	-1.082012	0.202199	1.430052
27.2819	-0.007334067	-0.3893167	0.07309919	-0.365497	-0.1286947	22.02125
27.29851	-0.007334067	-0.3893167	0	0	-2.19326	10.96633
27.31488	-0.007334067	-0.3893167	0	0	0	0
27.33158	-0.007334067	-0.3893167	0	0	0	0
27.34869	-0.007334067	-0.3893167	0	0	0	0
27.36458	-0.007334067	-0.3893167	0	0	0	0
27.38115	-0.007334067	-0.3893167	0	0	0	0
27.39772	-0.007334067	-0.3893167	0	0	0	0
27.41429	-0.004889378	-0.3844273	0.1475447	0.2950907	4.452653	8.905343
27.43085	0	-0.3758709	0.2951234	0.5164651	4.453677	6.680706
27.44742	0.004889378	-0.3526464	0.2951235	1.401837	8.994359E-07	26.72059
27.46401	0.009778756	-0.3281995	0.2947162	1.47358	-0.01228141	2.163717
27.48055	0.01466813	-0.3000856	0.2956341	1.699896	0.02770471	6.831391
27.49755	0.01833517	-0.2719716	0.2157295	1.653927	-2.382586	-1.370695
27.51369	0.0220022	-0.2389683	0.2272287	2.045058	0.3470274	11.80367
27.53025	0.02566923	-0.2035204	0.2213425	2.139645	-0.1799764	2.892095
27.54687	0.02811392	-0.1656277	0.1471552	2.280905	-2.235889	4.257358
27.56338	0.02933627	-0.131402	0.07401089	2.072305	-2.20788	-6.296628
27.58062	0.03178095	-0.1008434	0.1417832	1.772291	2.007582	-8.887165
27.59674	0.0330033	-0.08006357	0.07586851	1.289763	-1.976226	-14.46695
27.61308	0.03422565	-0.07028481	0.07477961	0.5982365	-0.03354848	-21.3057
27.62987	0.03544799	-0.06539544	0.07282515	0.2912997	-0.0589927	-9.264437
27.64638	0.03544799	-0.05928371	0	0.3701833	-2.187291	2.369254
27.66278	0.03667033	-0.05317198	0.07449254	0.3724634	2.262909	0.06926458
27.67935	0.03667033	-0.0507273	0	0.1475617	-2.258982	-6.820133
27.69592	0.03667033	-0.04950495	0	0.07378095	0	-2.226707
27.71249	0.03667033	-0.04950495	0	0	0	-2.226713
27.72905	0.03667033	-0.04950495	0	0	0	0
27.74562	0.03667033	-0.04950495	0	0	0	0
27.76218	0.03667033	-0.04950495	0	0	0	0
27.77875	0.03667033	-0.04950495	0	0	0	0
27.79532	0.03667033	-0.04950495	0	0	0	0
27.81189	0.03667033	-0.04950495	0	0	0	0
27.82845	0.03667033	-0.04950495	0	0	0	0
27.84502	0.03667033	-0.04950495	0	0	0	0
27.86159	0.03667033	-0.04828261	0	0.07378072	0	2.22645
27.87836	0.03789268	-0.04706026	0.07286633	0.07286655	2.185398	-0.02741771
27.89491	0.03789268	-0.04706026	0	0	-2.186774	-2.186781
27.9113	0.04033737	-0.04217088	0.1491761	0.2983524	4.52952	9.059047
27.92786	0.04278206	-0.03483682	0.1476129	0.442838	-0.04744166	4.38507
27.94443	0.04644909	-0.02505806	0.2213426	0.5902469	2.225552	4.449579
27.96099	0.04889378	-0.017724	0.1475617	0.442685	-2.226714	-4.453426
27.97756	0.05133847	-0.00794524	0.1475619	0.5902469	6.745769E-06	4.453426
27.99413	0.05378316	0.0006111723	0.1475614	0.516466	-1.349154E-05	-2.226712
28.01089	0.0550055	0.01405696	0.0729163	0.8020783	-2.239517	8.56899
28.02726	0.05622784	0.02505806	0.07468353	0.6721531	0.05334134	-3.921603
28.04382	0.05745019	0.0287251	0.07378945	0.221368	-0.02714918	-13.68824
28.06041	0.05745019	0.02994744	2.246521E-07	0.07371306	-2.226066	-4.45444
28.07696	0.05745019	0.02994744	0	0	-6.780012E-06	-2.224664
28.09352	0.05745019	0.02994744	0	0	0	0
28.11009	0.05745019	0.02994744	0	0	0	0
28.12666	0.05745019	0.02994744	0	0	0	0
28.14346	0.05745019	0.02994744	0	0	0	0
28.15979	0.05745019	0.02994744	0	0	0	0
28.17658	0.05745019	0.02994744	0	0	0	0
28.19322	0.05745019	0.02994744	0	0	0	0
28.20949	0.05745019	0.02994744	0	0	0	0
28.22606	0.05745019	0.02994744	0	0	0	0
28.24277	0.05745019	0.02994744	0	0	0	0
28.25919	0.05745019	0.02994744	0	0	0	0
28.27582	0.05745019	0.02994744	0	0	0	0
28.29232	0.05745019	0.02994744	0	0	0	0
28.30973	0.05745019	0.02994744	0	0	0	0
28.32557	0.05745019	0.02994744	0	0	0	0
28.34202	0.05745019	0.02994744	0	0	0	0
28.35867	0.05745019	0.02994744	0	0	0	0
28.37529	0.05745019	0.02994744	0	0	0	0
28.39222	0.05745019	0.02994744	0	0	0	0
28.40829	0.05745019	0.02994744	0	0	0	0
28.42487	0.05745019	0.02994744	0	0	0	0
28.44143	0.05745019	0.02994744	0	0	0	0
28.45799	0.05745019	0.02994744	0	0	0	0
28.48291	0.05745019	0.02994744	0	0	0	0
28.49948	0.05745019	0.02994744	0	0	0	0
28.51617	0.05745019	0.02994744	0	0	0	0
28.53261	0.05745019	0.02994744	0	0	0	0
28.54918	0.05745019	0.02994744	0	0	0	0
28.56574	0.05745019	0.02994744	0	0	0	0
28.58231	0.05745019	0.02994744	0	0	0	0
28.59908	0.05745019	0.02994744	0	0	0	0
28.61544	0.05745019	0.02994744	0	0	0	0
28.63201	0.05745019	0.02994744	0	0	0	0
28.64858	0.05745019	0.02994744	0	0	0	0
28.66515	0.05745019	0.02994744	0	0	0	0
28.68171	0.05745019	0.02994744	0	0	0	0
28.69828	0.05745019	0.02994744	0	0	0	0
28.71485	0.05745019	0.02994744	0	0	0	0
28.73141	0.05745019	0.02994744	0	0	0	0
28.74822	0.05745019	0.02994744	0	0	0	0
28.76455	0.05745019	0.02994744	0	0	0	0
28.78111	0.05745019	0.02994744	0	0	0	0
28.79768	0.05745019	0.02994744	0	0	0	0
28.81425	0.05745019	0.02994744	0	0	0	0
28.83082	0.05745019	0.02994744	0	0	0	0
28.84738	0.05745019	0.02994744	0	0	0	0
28.86395	0.05745019	0.02994744	0	0	0	0
28.88052	0.05745019	0.02994744	0	0	0	0
28.89725	0.05745019	0.02994744	0	0	0	0
28.91421	0.05745019	0.02994744	0	0	0	0
28.93022	0.05745019	0.02994744	0	0	0	0
28.94681	0.05745019	0.02994744	0	0	0	0
28.96346	0.05745019	0.02994744	0	0	0	0
28.97992	0.05745019	0.02994744	0	0	0	0
28.99665	0.05745019	0.02994744	0	0	0	0
29.01318	0.05745019	0.02994744	0	0	0	0
29.02962	0.05745019	0.02994744	0	0	0	0
29.04618	0.05745019	0.02994744	0	0	0	0
29.06275	0.05745019	0.02994744	0	0	0	0
29.07972	0.05745019	0.02994744	0	0	0	0
29.09588	0.05745019	0.02994744	0	0	0	0
29.11245	0.05745019	0.02994744	0	0	0	0
29.12902	0.05745019	0.02994744	0	0	0	0
29.14558	0.05745019	0.02994744	0	0	0	0
29.16215	0.05745019	0.02994744	0	0	0	0
29.17872	0.05745019	0.02994744	0	0	0	0
29.19529	0.05745019	0.02994744	0	0	0	0
29.21239	0.05745019	0.02994744	0	0	0	0
29.22842	0.05745019	0.02994744	0	0	0	0
29.24502	0.05745019	0.02994744	0	0	0	0
29.26205	0.05745019	0.02994744	0	0	0	0
29.27812	0.05745019	0.02994744	0	0	0	0
29.29469	0.05745019	0.02994744	0	0	0	0
29.31149	0.05745019	0.02994744	0	0	0	0
29.32796	0.05745019	0.02994744	0	0	0	0
29.34439	0.05745019	0.02994744	0	0	0	0
29.36095	0.05745019	0.02994744	0	0	0	0
29.38708	0.05745019	0.02994744	0	0	0	0
29.40365	0.05745019	0.02994744	0	0	0	0
29.42022	0.05745019	0.02994744	0	0	0	0
29.43678	0.05745019	0.02994744	0	0	0	0
29.45336	0.05745019	0.02994744	0	0	0	0
29.46992	0.05745019	0.02994744	0	0	0	0
29.48648	0.05745019	0.02994744	0	0	0	0
29.50305	0.05745019	0.02994744	0	0	0	0
29.52029	0.05745019	0.02994744	0	0	0	0
29.53618	0.05745019	0.02994744	0	0	0	0
29.55276	0.05745019	0.02994744	0	0	0	0
29.56932	0.05745019	0.02994744	0	0	0	0
29.58605	0.05745019	0.02994744	0	0	0	0
29.60257	0.05745019	0.02994744	0	0	0	0
29.61902	0.05745019	0.02994744	0	0	0	0
29.63558	0.05745019	0.02994744	0	0	0	0
29.65215	0.05745019	0.02994744	0	0	0	0
29.66872	0.05745019	0.02994744	0	0	0	0
29.68529	0.05745019	0.02994744	0	0	0	0
29.70185	0.05745019	0.02994744	0	0	0	0
29.71842	0.05745019	0.02994744	0	0	0	0
29.73501	0.05745019	0.02994744	0	0	0	0
29.75211	0.05745019	0.02994744	0	0	0	0
29.76823	0.05745019	0.02994744	0	0	0	0
29.78469	0.05745019	0.02994744	0	0	0	0
29.80138	0.05745019	0.02994744	0	0	0	0
29.81825	0.05745019	0.02994744	0	0	0	0
29.83439	0.05745019	0.02994744	0	0	0	0
29.85096	0.05745019	0.02994744	0	0	0	0
29.86753	0.05745019	0.02994744	0	0	0	0
29.88409	0.05745019	0.02994744	0	0	0	0
29.90066	0.05745019	0.02994744	0	0	0	0
29.91723	0.05745019	0.02994744	0	0	0	0
29.93379	0.05745019	0.02994744	0	0	0	0
29.9506	0.05745019	0.02994744	0	0	0	0
29.96713	0.05745019	0.02994744	0	0	0	0
29.98349	0.05745019	0.02994744	0	0	0	0
30.00006	0.05745019	0.02994744	0	0	0	0
30.01662	0.05745019	0.02994744	0	0	0	0
30.03319	0.05745019	0.02994744	0	0	0	0
30.04987	0.05745019	0.02994744	0	0	0	0
30.06633	0.05745019	0.02994744	0	0	0	0
30.08289	0.05745019	0.02994744	0	0	0	0
30.09946	0.05745019	0.02994744	0	0	0	0
30.11603	0.05745019	0.02994744	0	0	0	0
30.13259	0.05745019	0.02994744	0	0	0	0
30.14916	0.05745019	0.02994744	0	0	0	0
30.16645	0.05745019	0.02994744	0	0	0	0
30.18229	0.05745019	0.02994744	0	0	0	0
30.19896	0.05745019	0.02994744	0	0	0	0
30.21543	0.05745019	0.02994744	0	0	0	0
30.23226	0.05745019	0.02994744	0	0	0	0
30.24856	0.05745019	0.02994744	0	0	0	0
30.26518	0.05745019	0.02994744	0	0	0	0
30.28169	0.05745019	0.02994744	0	0	0	0
30.29826	0.05745019	0.02994744	0	0	0	0
30.31483	0.05745019	0.02994744	0	0	0	0
30.33139	0.05745019	0.02994744	0	0	0	0
30.34803	0.05745019	0.02994744	0	0	0	0
30.36453	0.05745019	0.02994744	0	0	0	0
30.38109	0.05745019	0.02994744	0	0	0	0
30.39766	0.05745019	0.02994744	0	0	0	0
30.41423	0.05745019	0.02994744	0	0	0	0
30.43113	0.05745019	0.02994744	0	0	0	0
30.45234	0.05745019	0.02994744	0	0	0	0
30.46891	0.05745019	0.02994744	0	0	0	0
30.48547	0.05745019	0.02994744	0	0	0	0
30.50204	0.05745019	0.02994744	0	0	0	0
30.51861	0.05745019	0.02994744	0	0	0	0
30.53517	0.05745019	0.02994744	0	0	0	0
30.55201	0.05745019	0.02994744	0	0	0	0
30.56843	0.05745019	0.02994744	0	0	0	0
30.58501	0.05745019	0.02994744	0	0	0	0
30.60144	0.05745019	0.02994744	0	0	0	0
30.61801	0.05745019	0.02994744	0	0	0	0
30.63457	0.05745019	0.02994744	0	0	0	0
30.65141	0.05745019	0.02994744	0	0	0	0
30.66771	0.05745019	0.02994744	0	0	0	0
30.68448	0.05745019	0.02994744	0	0	0	0
30.70085	0.05745019	0.02994744	0	0	0	0
30.71741	0.05745019	0.02994744	0	0	0	0
30.73397	0.05745019	0.02994744	0	0	0	0
30.751	0.05745019	0.02994744	0	0	0	0
30.76711	0.05745019	0.02994744	0	0	0	0
30.78393	0.05745019	0.02994744	0	0	0	0
30.80024	0.05745019	0.02994744	0	0	0	0
30.81688	0.05745019	0.02994744	0	0	0	0
30.83338	0.05745019	0.02994744	0	0	0	0
30.85011	0.05745019	0.02994744	0	0	0	0
30.86666	0.05745019	0.02994744	0	0	0	0
30.88308	0.05745019	0.02994744	0	0	0	0
30.89964	0.05745019	0.02994744	0	0	0	0
30.91621	0.05745019	0.02994744	0	0	0	0
30.93295	0.05745019	0.02994744	0	0	0	0
30.94934	0.05745019	0.02994744	0	0	0	0
30.96663	0.05745019	0.02994744	0	0	0	0
30.98248	0.05745019	0.02994744	0	0	0	0
30.99904	0.05745019	0.02994744	0	0	0	0
31.01561	0.05745019	0.02994744	0	0	0	0
31.03229	0.05745019	0.02994744	0	0	0	0
31.04874	0.05745019	0.02994744	0	0	0	0
31.06538	0.05745019	0.02994744	0	0	0	0
31.08189	0.05745019	0.02994744	0	0	0	0
31.0989	0.05745019	0.02994744	0	0	0	0
31.11542	0.05745019	0.02994744	0	0	0	0
31.13158	0.05745019	0.02994744	0	0	0	0
31.14815	0.05745019	0.02994744	0	0	0	0
31.16471	0.04278206	0.02628041	-0.8854724	-0.221368	-26.72515	-6.681284
31.18128	0.0220022	0.02628041	-1.254419	-1.124424E-07	-11.13611	6.681665
31.19795	-0.01466813	0.02628041	-2.199498	0	-28.43417	3.383003E-06
31.21447	-0.0794524	0.0287251	-3.922579	0.1480218	-51.91899	4.460118
31.23098	-0.1613495	0.03483682	-4.959304	0.3700973	-31.38781	6.72354
31.24755	-0.2505806	0.04339323	-5.386622	0.5165254	-12.91804	4.426599
31.26411	-0.3031414	0.04950495	-3.172577	0.3689043	66.82387	-4.455472
31.28096	-0.3349224	0.05439433	-1.886591	0.2902447	38.48765	-2.354165
31.29777	-0.3557022	0.05683902	-1.23634	0.145452	19.3221	-4.302489
31.31381	-0.3679257	0.05928371	-0.7617527	0.15235	14.4453	0.2099605
31.33038	-0.3789268	0.0617284	-0.6640265	0.1475617	2.996471	-0.1468201
31.34695	-0.3825938	0.06295075	-0.221344	0.07378118	13.36018	-2.2267
31.36351	-0.3850385	0.06295074	-0.1475614	-4.497179E-07	2.226761	-2.226734
31.38008	-0.3874832	0.06417309	-0.1475614	0.07378118	0	2.226734
31.39665	-0.3887056	0.06539543	-0.07378072	0.07378072	2.226707	-1.37164E-05
31.41321	-0.3887056	0.06539543	0	0	2.226835	-2.226835
31.42983	-0.3887056	0.06539543	0	0	0	0
31.44635	-0.3887056	0.06539543	0	0	0	0
31.46305	-0.3911503	0.06539543	-0.1463836	0	-4.407462	0
31.47948	-0.3960396	0.06295075	-0.2975206	-0.1487603	-4.561326	-4.489595
31.49633	-0.3984843	0.06295074	-0.1451057	-4.422337E-07	4.579592	4.469769
31.51261	-0.3997066	0.0617284	-0.07506662	-0.07506845	2.114027	-2.265818
31.52918	-0.3997066	0.0617284	0	0	2.285247	2.285303
31.54574	-0.3997066	0.0617284	0	0	0	0
31.56231	-0.3997066	0.0617284	0	0	0	0
31.57888	-0.3997066	0.0617284	0	0	0	0
31.59545	-0.3997066	0.0617284	0	0	0	0
31.61201	-0.3997066	0.0617284	0	0	0	0
31.62858	-0.3997066	0.0617284	0	0	0	0
31.64575	-0.397262	0.06050606	0.1423956	-0.07119847	4.220972	-2.110505
31.66189	-0.3825938	0.05683902	0.9085926	-0.2271484	23.00074	-4.681516
31.67828	-0.3471458	0.05439433	2.162803	-0.1491589	38.55119	2.397194
31.69539	-0.3129202	0.05317199	2.00001	-0.0714286	-4.859116	2.320129
31.71141	-0.2640264	0.05317199	3.05208	0	31.75335	2.155844
31.72798	-0.2102433	0.05317198	3.246357	-2.24859E-07	5.961787	-6.900255E-06
31.74455	-0.1430143	0.05317198	4.058414	0	24.50935	6.786648E-06
31.76111	-0.1259015	0.05317198	1.032933	0	-91.31448	0
31.77793	-0.1038993	0.05439433	1.30862	0.07270123	8.258935	2.177955
31.79425	-0.09167584	0.05683902	0.7488434	0.1497687	-16.89313	2.325768
31.81082	-0.08923114	0.05806136	0.1475624	0.0737805	-18.2814	-2.310352
31.82738	-0.08800881	0.05806137	0.07378028	4.497179E-07	-2.226748	-2.226686
31.84395	-0.08800881	0.05806137	0	0	-2.226693	-1.357251E-05
31.86052	-0.08678646	0.05806136	0.07378072	-2.24859E-07	2.226707	-6.786257E-06
31.87709	-0.08556411	0.05806137	0.07378118	2.24859E-07	1.37164E-05	1.357251E-05
31.89365	-0.08556411	0.05806137	0	0	-2.22672	-6.786257E-06
31.91022	-0.08434177	0.0592837	0.07378072	0.0737805	2.226707	2.2267
31.92679	-0.08434177	0.0592837	0	0	-2.226707	-2.2267
31.94335	-0.08434177	0.0592837	0	0	0	0
31.95992	-0.08189708	0.06050605	0.1475619	0.07378118	4.453683	2.226849
31.97649	-0.07945239	0.0617284	0.1475619	0.07378095	0	-6.970628E-06
31.99331	-0.07578536	0.06417309	0.2180288	0.1453528	2.110658	2.143753
32.00962	-0.07211832	0.06539543	0.224785	0.07492802	0.2039134	-2.125545
32.02619	-0.06967364	0.06661777	0.147561	0.07378072	-2.348605	-0.03489272
32.04276	-0.06722894	0.06661778	0.1475624	4.497179E-07	4.092433E-05	-2.226693
32.0596	-0.0660066	0.06661777	0.07254464	-4.421836E-07	-2.244914	-2.669026E-05
32.07589	-0.06356192	0.06784012	0.1501193	0.07506011	2.341208	2.265332
32.09261	-0.05867254	0.06906246	0.2923635	0.07309071	4.30931	-0.05966342
32.10902	-0.05622784	0.07028481	0.1490029	0.07450121	-4.327131	0.04257385
32.12559	-0.05378316	0.07028481	0.1475614	4.497179E-07	-0.04371349	-2.259362
32.1424	-0.05011613	0.07028481	0.2181777	-4.432876E-07	2.115857	-2.675689E-05
32.15872	-0.04889378	0.07028481	0.07486698	0	-4.325127	1.337845E-05
32.17529	-0.04644909	0.07150716	0.1475957	0.07379816	2.211249	2.243766
32.19185	-0.04522675	0.07150715	0.07378095	-4.497179E-07	-2.227989	-2.227503
32.20842	-0.04278206	0.07150716	0.1475957	4.498215E-07	2.227989	2.715128E-05
32.22498	-0.03789268	0.07150715	0.2951236	-4.497179E-07	4.452914	-2.715128E-05
32.24191	-0.03178096	0.07150715	0.3610887	0	1.969516	1.34272E-05
32.25851	-0.02933627	0.07150715	0.1472229	0	-6.378114	0
32.27468	-0.02811393	0.07150716	0.07560859	4.608601E-07	-2.185225	1.406259E-05
32.29125	-0.02689158	0.07150716	0.07378095	0	-0.05583329	-1.407898E-05
32.30865	-0.02689158	0.07150716	0	0	-2.171708	0
32.32438	-0.02689158	0.07150716	0	0	0	0
32.34095	-0.02689158	0.07150716	0	0	0	0
32.35752	-0.02689158	0.07150716	0	0	0	0
32.37408	-0.02689158	0.07150716	0	0	0	0
32.39381	-0.02689158	0.07150716	0	0	0	0
32.41038	-0.02689158	0.07150716	0	0	0	0
32.42696	-0.02689158	0.07150716	0	0	0	0
32.44352	-0.02689158	0.07150716	0	0	0	0
32.46008	-0.02566924	0.07150716	0.07378083	0	2.227223	0
32.47702	-0.02444689	0.07150716	0.07218533	0	-0.04762605	0
32.49321	-0.02444689	0.07150716	0	0	-2.178808	0
32.51011	-0.02322455	0.07150715	0.07233187	-4.40886E-07	2.185496	-1.33213E-05
32.52635	-0.02322455	0.07150715	0	0	-2.18298	1.330597E-05
32.54292	-0.0220022	0.07150716	0.07378083	4.497179E-07	2.249239	1.370983E-05
32.55948	-0.02077986	0.07150715	0.07379794	-4.498215E-07	0.0005163357	-2.715128E-05
32.57605	-0.01711282	0.07150715	0.2213425	0	4.453417	1.35772E-05
32.59261	-0.01589048	0.07150715	0.07378095	0	-4.453417	0
32.60918	-0.01344579	0.07150716	0.1475616	4.497179E-07	2.226705	1.357251E-05
32.62575	-0.009778756	0.07150715	0.2213426	-4.497179E-07	2.226715	-2.714503E-05
32.64231	-0.008556412	0.07150716	0.07378083	4.497179E-07	-4.453424	2.714503E-05
32.65889	-0.007334067	0.07150716	0.07376388	0	-0.0005117201	-1.357095E-05
32.67545	-0.007334067	0.07150716	0	0	-2.225942	0
32.6921	-0.007334067	0.07150716	0	0	0	0
32.70858	-0.007334067	0.07150716	0	0	0	0
32.72521	-0.007334067	0.07150716	0	0	0	0
32.74172	-0.006111723	0.07150716	0.07405366	0	2.234944	0
32.75829	-0.006111723	0.07150716	0	0	-2.239068	0
32.77485	-0.006111723	0.07150716	0	0	0	0
32.79142	-0.006111723	0.07150716	0	0	0	0
32.80804	-0.006111723	0.07150716	0	0	0	0
32.82464	-0.006111723	0.07150716	0	0	0	0
32.84121	-0.006111723	0.07150716	0	0	0	0
32.85794	-0.006111723	0.07150716	0	0	0	0
32.87425	-0.006111723	0.07150716	0	0	0	0
32.89107	-0.006111723	0.07150716	0	0	0	0
32.90739	-0.006111723	0.07150716	0	0	0	0
32.92395	-0.006111723	0.07150716	0	0	0	0
32.94052	-0.006111723	0.07150716	0	0	0	0
32.9576	-0.006111723	0.07150716	0	0	0	0
32.97365	-0.006111723	0.07150716	0	0	0	0
32.99047	-0.006111723	0.07150716	0	0	0	0
33.00678	-0.006111723	0.07150716	0	0	0	0
33.02356	-0.006111723	0.07150716	0	0	0	0
33.03992	-0.006111723	0.07150716	0	0	0	0
33.05648	-0.004889378	0.07150716	0.07379789	0	2.241417	0
33.07305	-0.004889378	0.07150716	0	0	-2.227225	0
33.08962	-0.003667034	0.07028481	0.07378085	-0.07378118	2.226454	-2.226464
33.10619	-0.003667034	0.07028481	0	0	-2.226711	2.22672
33.12275	-0.003667034	0.07028481	0	0	0	0
33.13932	-0.003667034	0.07028481	0	0	0	0
33.15589	-0.003667034	0.07028481	0	0	0	0
33.17245	-0.003667034	0.07028481	0	0	0	0
33.18902	-0.003667034	0.07028481	0	0	0	0
33.20559	-0.003667034	0.07028481	0	0	0	0
33.22239	-0.002444689	0.07028481	0.07275891	4.434889E-07	2.180555	1.329118E-05
33.23872	-0.002444689	0.07028481	0	0	-2.195868	-1.338452E-05
33.25623	-0.002444689	0.07028481	0	0	0	0
33.2724	-0.002444689	0.07028481	0	0	0	0
33.28843	-0.002444689	0.07028481	0	0	0	0
33.30499	-0.002444689	0.07028481	0	0	0	0
33.32161	-0.002444689	0.07028481	0	0	0	0
33.3386	-0.001222345	0.07028481	0.07194214	0	2.140658	0
33.35469	-0.001222345	0.07028481	0	0	-2.174723	0
33.37126	-0.001222345	0.07028481	0	0	0	0
33.38802	-0.001222345	0.07028481	0	0	0	0
33.40439	-0.001222345	0.07028481	0	0	0	0
33.42096	-0.001222345	0.07028481	0	0	0	0
33.43752	-0.001222345	0.07028481	0	0	0	0
33.45409	-0.001222345	0.07028481	0	0	0	0
33.47097	-0.001222345	0.07028481	0	0	0	0
33.48722	-0.001222345	0.07028481	0	0	0	0
33.50381	-0.001222345	0.07028481	0	0	0	0
33.52088	-0.001222345	0.07028481	0	0	0	0
33.53693	-0.001222345	0.07028481	0	0	0	0
33.55349	-0.001222345	0.07028481	0	0	0	0
33.57006	-0.001222345	0.07028481	0	0	0	0
33.58663	-0.001222345	0.07028481	0	0	0	0
33.60355	-0.001222345	0.07028481	0	0	0	0
33.62034	-0.001222345	0.07028481	0	0	0	0
33.63633	-0.001222345	0.07028481	0	0	0	0
33.65348	-0.001222345	0.07028481	0	0	0	0
33.66946	-0.001222345	0.07028481	0	0	0	0
33.68603	-0.001222345	0.07028481	0	0	0	0
33.7026	-0.001222345	0.07028481	0	0	0	0
33.71917	-0.001222345	0.07028481	0	0	0	0
33.73578	-0.001222345	0.07028481	0	0	0	0
33.75244	-0.001222345	0.07028481	0	0	0	0
33.76886	-0.001222345	0.07028481	0	0	0	0
33.78543	-0.001222345	0.07028481	0	0	0	0
33.80241	-0.001222345	0.07028481	0	0	0	0
33.81857	-0.001222345	0.07028481	0	0	0	0
33.83513	-0.001222345	0.07028481	0	0	0	0
33.85209	-0.001222345	0.07028481	0	0	0	0
33.86826	-0.001222345	0.07028481	0	0	0	0
33.88483	-0.001222345	0.07028481	0	0	0	0
33.90155	-0.001222345	0.07028481	0	0	0	0
33.9185	-0.001222345	0.07028481	0	0	0	0
33.93458	-0.001222345	0.07028481	0	0	0	0
33.9511	-0.001222345	0.07028481	0	0	0	0
33.96767	-0.001222345	0.07028481	0	0	0	0
33.98442	-0.001222345	0.07028481	0	0	0	0
34.0008	-0.001222345	0.07028481	0	0	0	0
34.01736	-0.001222345	0.07028481	0	0	0	0
34.03393	-0.001222345	0.07028481	0	0	0	0
34.0505	-0.001222345	0.07028481	0	0	0	0
34.06707	-0.001222345	0.07028481	0	0	0	0
34.08363	-0.001222345	0.07028481	0	0	0	0
34.10037	-0.001222345	0.07028481	0	0	0	0
34.11677	-0.001222345	0.07028481	0	0	0	0
34.1335	-0.001222345	0.07028481	0	0	0	0
34.1499	-0.001222345	0.07028481	0	0	0	0
34.16654	-0.001222345	0.07028481	0	0	0	0
34.18306	-0.001222345	0.07028481	0	0	0	0
34.1996	-0.001222345	0.07028481	0	0	0	0
34.21617	-0.001222345	0.07028481	0	0	0	0
34.23309	-0.001222345	0.07028481	0	0	0	0
34.24959	-0.001222345	0.07028481	0	0	0	0
34.26587	-0.001222345	0.07028481	0	0	0	0
34.28243	-0.001222345	0.07028481	0	0	0	0
34.299	-0.001222345	0.07028481	0	0	0	0
34.31556	-0.001222345	0.07028481	0	0	0	0
34.33213	-0.001222345	0.07028481	0	0	0	0
34.34869	-0.001222345	0.07028481	0	0	0	0
34.36526	-0.001222345	0.07028481	0	0	0	0
34.38183	-0.001222345	0.07028481	0	0	0	0
34.3984	-0.001222345	0.07028481	0	0	0	0
34.41496	-0.001222345	0.07028481	0	0	0	0
34.43171	-0.001222345	0.07028481	0	0	0	0
34.44809	-0.001222345	0.07028481	0	0	0	0
34.46524	-0.001222345	0.07028481	0	0	0	0
34.48125	-0.001222345	0.07028481	0	0	0	0
34.4978	-0.001222345	0.07028481	0	0	0	0
34.51436	-0.001222345	0.07028481	0	0	0	0
34.53093	-0.001222345	0.07028481	0	0	0	0
34.5475	-0.001222345	0.07028481	0	0	0	0
34.56406	-0.001222345	0.07028481	0	0	0	0
34.58063	-0.001222345	0.07028481	0	0	0	0
34.59719	-0.001222345	0.07028481	0	0	0	0
34.61376	-0.001222345	0.07028481	0	0	0	0
34.6307	-0.001222345	0.07028481	0	0	0	0
34.64727	-0.001222345	0.07028481	0	0	0	0
34.66346	-0.001222345	0.07028481	0	0	0	0
34.68003	-0.001222345	0.07028481	0	0	0	0
34.6966	-0.001222345	0.07028481	0	0	0	0
34.71316	-0.001222345	0.07028481	0	0	0	0
34.72979	-0.001222345	0.07028481	0	0	0	0
34.7463	-0.001222345	0.07028481	0	0	0	0
34.76344	-0.001222345	0.07028481	0	0	0	0
34.77943	-0.001222345	0.07028481	0	0	0	0
34.796	-0.001222345	0.07028481	0	0	0	0
34.81257	-0.001222345	0.07028481	0	0	0	0
34.82914	-0.001222345	0.07028481	0	0	0	0
34.8457	-0.001222345	0.07028481	0	0	0	0
34.86227	-0.001222345	0.07028481	0	0	0	0
34.87905	-0.001222345	0.07028481	0	0	0	0
34.8954	-0.001222345	0.07028481	0	0	0	0
34.91197	-0.001222345	0.07028481	0	0	0	0
34.92854	-0.001222345	0.07028481	0	0	0	0
34.94511	-0.001222345	0.07028481	0	0	0	0
34.96167	-0.001222345	0.07028481	0	0	0	0
34.97892	-0.001222345	0.07028481	0	0	0	0
34.99562	-0.001222345	0.07028481	0	0	0	0
35.01234	-0.001222345	0.07028481	0	0	0	0
35.029	-0.001222345	0.07028481	0	0	0	0
35.04533	-0.001222345	0.07028481	0	0	0	0
35.06189	-0.001222345	0.07028481	0	0	0	0
35.07846	-0.001222345	0.07028481	0	0	0	0
35.09502	-0.008556411	0.06784012	-0.4427871	-0.1475959	-13.36488	-4.454966
35.11159	-0.02566923	0.06295075	-1.032932	-0.2951233	-17.81266	-4.4529
35.12816	-0.05378316	0.05683902	-1.69696	-0.3689045	-20.0404	-2.226721
35.14473	-0.09412053	0.0507273	-2.434769	-0.3689043	-22.26713	7.195487E-06
35.16146	-0.1283462	0.04950495	-2.045144	-0.07304073	11.69963	8.884176
35.17839	-0.1576824	0.05317198	-1.733226	0.2166532	9.266482	8.606246
35.19442	-0.1821293	0.05683902	-1.524408	0.228661	6.334976	0.3642862
35.21099	-0.1931304	0.05928371	-0.6640274	0.1475619	26.38861	-2.487382
35.22756	-0.1955751	0.05928371	-0.1475614	-2.24859E-07	15.58697	-4.453434
35.24413	-0.1955751	0.05928371	0	0	4.4529	6.785476E-06
35.26069	-0.1955751	0.05928371	0	0	0	0
35.27726	-0.1955751	0.05928371	0	0	0	0
35.29383	-0.1955751	0.0617284	-8.992288E-07	0.1475279	-2.713878E-05	4.452402
35.31039	-0.1919081	0.06539543	0.2213431	0.2213424	6.679405	2.227468
35.32696	-0.180907	0.07884122	0.6640283	0.8115898	13.36027	17.8137
35.34352	-0.1662389	0.09962108	0.8855735	1.254563	6.687016	13.37051
35.36009	-0.1515707	0.1228456	0.8853714	1.401837	-0.006100676	4.445221
35.37666	-0.1356802	0.1644053	0.9591512	2.508549	2.226679	33.40064
35.39323	-0.1283462	0.205965	0.4426844	2.508549	-15.587	1.439097E-05
35.40979	-0.1246791	0.2426354	0.2213431	2.213425	-6.680093	-8.906855
35.42636	-0.1246791	0.2670823	-8.994359E-07	1.475618	-6.680174	-22.26707
35.44292	-0.1246791	0.2793057	8.99643E-07	0.7379771	5.430256E-05	-22.26461
35.45961	-0.1246791	0.2854175	-8.928571E-07	0.3662089	-5.390538E-05	-11.18009
35.47606	-0.1259015	0.2878621	-0.07431024	0.1486205	-2.242403	-6.566077
35.49277	-0.1259015	0.2878621	0	0	2.241139	-4.482279
35.5092	-0.1259015	0.2878621	0	0	0	0
35.52576	-0.1259015	0.2878621	0	0	0	0
35.54233	-0.1259015	0.2878621	0	0	0	0
35.5589	-0.1259015	0.2878621	0	0	0	0
35.57546	-0.1259015	0.2878621	0	0	0	0
35.59231	-0.1259015	0.2878621	0	0	0	0
35.60881	-0.1259015	0.2866398	-9.031792E-07	-0.07408779	-2.708339E-05	-2.221651
35.62535	-0.1234568	0.2841951	0.1477665	-0.1477656	4.471985	-2.229761
35.64173	-0.1161227	0.269527	0.447945	-0.895891	9.119249	-22.72761
35.65829	-0.1075663	0.2511918	0.516466	-1.106713	2.08018	-6.400192
35.67499	-0.09412052	0.2291896	0.8052855	-1.31774	8.682603	-6.343972
35.69143	-0.07334067	0.2035204	1.264171	-1.561623	13.8492	-7.360425
35.708	-0.05011613	0.1741841	1.401836	-1.770741	4.171062	-6.335984
35.72456	-0.01833517	0.1350691	1.918302	-2.360988	15.58698	-17.81368
35.74113	0.004889378	0.1081775	1.402159	-1.623552	-15.57903	22.25841
35.7578	0.03178096	0.08128591	1.612412	-1.612412	6.325059	0.3351181
35.77432	0.03789268	0.07517419	0.3700119	-0.3700116	-37.42678	37.42678
35.79083	0.04644909	0.06417309	0.5183757	-0.6664833	4.492629	-8.977506
35.8074	0.04889378	0.06295074	0.1475614	-0.07378118	-11.21185	17.9208
35.82396	0.04889378	0.06295074	0	0	-4.453413	2.22672
35.84055	0.04889378	0.06295074	0	0	0	0
35.8571	0.04889378	0.06295074	0	0	0	0
35.87371	0.04889378	0.06295074	0	0	0	0
35.89023	0.04889378	0.06295074	0	0	0	0
35.9068	0.04889378	0.06295074	0	0	0	0
35.92336	0.04889378	0.06295074	0	0	0	0
35.93993	0.04889378	0.06295074	0	0	0	0
35.95651	0.04889378	0.06295074	0	0	0	0
35.97306	0.04889378	0.06295074	0	0	0	0
35.98963	0.04889378	0.06295074	0	0	0	0
36.00632	0.04889378	0.06295074	0	0	0	0
36.02368	0.04889378	0.06295074	0	0	0	0
36.03933	0.04889378	0.06295074	0	0	0	0
36.05598	0.04889378	0.06295074	0	0	0	0
36.07246	0.04889378	0.06295074	0	0	0	0
36.08903	0.04889378	0.06295074	0	0	0	0
36.10559	0.04889378	0.06295074	0	0	0	0
36.12223	0.04889378	0.06295074	0	0	0	0
36.13874	0.04889378	0.06295074	0	0	0	0
36.15529	0.04889378	0.06295074	0	0	0	0
36.17186	0.04889378	0.06295074	0	0	0	0
36.18842	0.04889378	0.06295074	0	0	0	0
36.2051	0.04889378	0.06295074	0	0	0	0
36.22155	0.04889378	0.06295074	0	0	0	0
36.23812	0.04889378	0.06295074	0	0	0	0
36.25469	0.04889378	0.06295074	0	0	0	0
36.27126	0.04889378	0.06295074	0	0	0	0
36.28782	0.04889378	0.06295074	0	0	0	0
36.30439	0.04889378	0.06295074	0	0	0	0
36.32129	0.04889378	0.06295074	0	0	0	0
36.33801	0.04889378	0.06295074	0	0	0	0
36.35409	0.04889378	0.06295074	0	0	0	0
36.37066	0.04889378	0.06295074	0	0	0	0
36.38742	0.04889378	0.06295074	0	0	0	0
36.40379	0.04889378	0.06295074	0	0	0	0
36.4204	0.04889378	0.06295074	0	0	0	0
36.43747	0.04889378	0.06295074	0	0	0	0
36.45349	0.04889378	0.06295074	0	0	0	0
36.4701	0.04889378	0.06295074	0	0	0	0
36.48662	0.04889378	0.06295074	0	0	0	0
36.50319	0.04889378	0.06295074	0	0	0	0
36.51988	0.04889378	0.06295074	0	0	0	0
36.53632	0.04889378	0.06295074	0	0	0	0
36.55289	0.04889378	0.06295074	0	0	0	0
36.57016	0.04889378	0.06295074	0	0	0	0
36.58602	0.04889378	0.06295074	0	0	0	0
36.60259	0.04889378	0.06295074	0	0	0	0
36.61916	0.04889378	0.06295074	0	0	0	0
36.63572	0.04889378	0.06295074	0	0	0	0
36.65276	0.04889378	0.06295074	0	0	0	0
36.66885	0.04889378	0.06295074	0	0	0	0
36.68551	0.04889378	0.06295074	0	0	0	0
36.7021	0.04889378	0.06295074	0	0	0	0
36.71859	0.04889378	0.06295074	0	0	0	0
36.73513	0.04889378	0.06295074	0	0	0	0
36.75169	0.04889378	0.06295074	0	0	0	0
36.76826	0.04889378	0.06295074	0	0	0	0
36.7849	0.04889378	0.06295074	0	0	0	0
36.80174	0.04889378	0.06295074	0	0	0	0
36.81796	0.04889378	0.06295074	0	0	0	0
36.835	0.04889378	0.06295074	0	0	0	0
36.85109	0.04889378	0.06295074	0	0	0	0
36.86766	0.04889378	0.06295074	0	0	0	0
36.88422	0.04889378	0.06295074	0	0	0	0
36.90081	0.04889378	0.06295074	0	0	0	0
36.91736	0.04889378	0.06295074	0	0	0	0
36.93393	0.04889378	0.06295074	0	0	0	0
36.9588	0.04889378	0.06295074	0	0	0	0
36.97536	0.04889378	0.06295074	0	0	0	0
36.99193	0.04889378	0.06295074	0	0	0	0
37.0085	0.04889378	0.06295074	0	0	0	0
37.02519	0.04889378	0.06295074	0	0	0	0
37.04163	0.04889378	0.06295074	0	0	0	0
37.0582	0.04889378	0.06295074	0	0	0	0
37.07477	0.04889378	0.06295074	0	0	0	0
37.09134	0.04889378	0.06295074	0	0	0	0
37.1079	0.04889378	0.06295074	0	0	0	0
37.12447	0.04889378	0.06295074	0	0	0	0
37.14104	0.04889378	0.06295074	0	0	0	0
37.15771	0.04889378	0.06295074	0	0	0	0
37.17424	0.04889378	0.06295074	0	0	0	0
37.19074	0.04889378	0.06295074	0	0	0	0
37.20731	0.04889378	0.06295074	0	0	0	0
37.22387	0.04889378	0.06295074	0	0	0	0
37.2409	0.04889378	0.06295074	0	0	0	0
37.25758	0.04889378	0.06295074	0	0	0	0
37.27367	0.04889378	0.06295074	0	0	0	0
37.29014	0.04889378	0.06295074	0	0	0	0
37.30671	0.04889378	0.06295074	0	0	0	0
37.32347	0.04889378	0.06295074	0	0	0	0
37.33984	0.04889378	0.06295074	0	0	0	0
37.35675	0.04889378	0.06295074	0	0	0	0
37.37297	0.04889378	0.06295074	0	0	0	0
37.38966	0.04889378	0.06295074	0	0	0	0
37.40613	0.04889378	0.06295074	0	0	0	0
37.42268	0.04889378	0.06295074	0	0	0	0
37.43924	0.04889378	0.06295074	0	0	0	0
37.45581	0.04889378	0.06295074	0	0	0	0
37.47238	0.04889378	0.06295074	0	0	0	0
37.48895	0.04889378	0.06295074	0	0	0	0
37.50611	0.04889378	0.06295074	0	0	0	0
37.52215	0.04889378	0.06295074	0	0	0	0
37.53864	0.04889378	0.06295074	0	0	0	0
37.55521	0.04889378	0.06295074	0	0	0	0
37.57178	0.04889378	0.06295074	0	0	0	0
37.58834	0.04889378	0.06295074	0	0	0	0
37.60491	0.04889378	0.06295074	0	0	0	0
37.62148	0.04889378	0.06295074	0	0	0	0
37.63877	0.04889378	0.06295074	0	0	0	0
37.65461	0.04889378	0.06295074	0	0	0	0
37.67118	0.04889378	0.06295074	0	0	0	0
37.68775	0.04889378	0.06295074	0	0	0	0
37.70431	0.04889378	0.06295074	0	0	0	0
37.72088	0.04889378	0.06295074	0	0	0	0
37.73745	0.04889378	0.06295074	0	0	0	0
37.75457	0.04889378	0.06295074	0	0	0	0
37.77058	0.04889378	0.06295074	0	0	0	0
37.78714	0.04889378	0.06295074	0	0	0	0
37.80371	0.04889378	0.06295074	0	0	0	0
37.82037	0.04889378	0.06295074	0	0	0	0
37.83684	0.04889378	0.06295074	0	0	0	0
37.85342	0.04889378	0.06295074	0	0	0	0
37.86998	0.04889378	0.06295074	0	0	0	0
37.88654	0.04889378	0.06295074	0	0	0	0
37.90313	0.04889378	0.06295074	0	0	0	0
37.91967	0.04889378	0.06295074	0	0	0	0
37.93624	0.04889378	0.06295074	0	0	0	0
37.95281	0.04889378	0.06295074	0	0	0	0
37.96943	0.04889378	0.06295074	0	0	0	0
38.01833	0.04889378	0.06295074	0	0	0	0
38.03513	0.04889378	0.06295074	0	0	0	0
38.05146	0.04889378	0.06295074	0	0	0	0
38.06803	0.04889378	0.06295074	0	0	0	0
38.08466	0.04889378	0.06295074	0	0	0	0
38.10117	0.04889378	0.06295074	0	0	0	0
38.11773	0.04889378	0.06295074	0	0	0	0
38.1343	0.04889378	0.06295074	0	0	0	0
38.15094	0.04889378	0.06295074	0	0	0	0
38.16743	0.04889378	0.06295074	0	0	0	0
38.18399	0.04889378	0.06295074	0	0	0	0
38.20056	0.04889378	0.06295074	0	0	0	0
38.21713	0.04889378	0.06295074	0	0	0	0
38.2337	0.04889378	0.06295074	0	0	0	0
38.25026	0.04889378	0.06295074	0	0	0	0
38.26683	0.04889378	0.06295074	0	0	0	0
38.2834	0.04889378	0.06295074	0	0	0	0
38.29996	0.04889378	0.06295074	0	0	0	0
38.31653	0.04889378	0.06295074	0	0	0	0
38.3331	0.04889378	0.06295074	0	0	0	0
38.34967	0.04889378	0.06295074	0	0	0	0
38.36623	0.04889378	0.06295074	0	0	0	0
38.3828	0.04889378	0.06295074	0	0	0	0
38.39936	0.04889378	0.06295074	0	0	0	0
38.41593	0.04889378	0.06295074	0	0	0	0
38.4328	0.04889378	0.06295074	0	0	0	0
38.44907	0.04889378	0.06295074	0	0	0	0
38.46577	0.04889378	0.06295074	0	0	0	0
38.4822	0.04889378	0.06295074	0	0	0	0
38.49877	0.04889378	0.06295074	0	0	0	0
38.51534	0.04889378	0.06295074	0	0	0	0
38.5319	0.04889378	0.06295074	0	0	0	0
38.54847	0.04889378	0.06295074	0	0	0	0
38.56523	0.04889378	0.06295074	0	0	0	0
38.5816	0.04889378	0.06295074	0	0	0	0
38.59817	0.04889378	0.06295074	0	0	0	0
38.61474	0.04889378	0.06295074	0	0	0	0
38.63131	0.04889378	0.06295074	0	0	0	0
38.6479	0.04889378	0.06295074	0	0	0	0
38.66444	0.04889378	0.06295074	0	0	0	0
38.68144	0.04889378	0.06295074	0	0	0	0
38.69757	0.04889378	0.06295074	0	0	0	0
38.71414	0.04889378	0.06295074	0	0	0	0
38.7307	0.04889378	0.06295074	0	0	0	0
38.74727	0.04889378	0.06295074	0	0	0	0
38.76384	0.04889378	0.06295074	0	0	0	0
38.7804	0.04889378	0.06295074	0	0	0	0
38.79697	0.04889378	0.06295074	0	0	0	0
38.81353	0.04889378	0.06295074	0	0	0	0
38.83049	0.04889378	0.06295074	0	0	0	0
38.84667	0.04889378	0.06295074	0	0	0	0
38.86323	0.04889378	0.06295074	0	0	0	0
38.8798	0.04889378	0.06295074	0	0	0	0
38.89637	0.04889378	0.06295074	0	0	0	0
38.91293	0.05011612	0.06295074	0.07378095	0	2.226713	0
38.92966	0.05011612	0.06295074	0	0	-2.215744	0
38.94607	0.05011612	0.06295074	0	0	0	0
38.96264	0.05011612	0.06295074	0	0	0	0
38.9792	0.05011612	0.06295074	0	0	0	0
38.99577	0.05011612	0.06295074	0	0	0	0
39.01234	0.05011612	0.06295074	0	0	0	0
39.0289	0.05011612	0.06295074	0	0	0	0
39.04607	0.05011612	0.06295074	0	0	0	0
39.06204	0.05011612	0.06295074	0	0	0	0
39.07861	0.05011612	0.06295074	0	0	0	0
39.09517	0.05011612	0.06295074	0	0	0	0
39.11174	0.05011612	0.06295074	0	0	0	0
39.12857	0.05011612	0.06295074	0	0	0	0
39.14499	0.05011612	0.06295074	0	0	0	0
39.16144	0.05011612	0.06295074	0	0	0	0
39.17801	0.05011612	0.06295074	0	0	0	0
39.19457	0.05011612	0.06295074	0	0	0	0
39.21149	0.05011612	0.06295074	0	0	0	0
39.22771	0.04644909	0.0617284	-0.2260795	-0.07535975	-6.823092	-2.274362
39.24528	0.04033737	0.05928371	-0.3478401	-0.1391358	-3.603387	-1.88739
39.26094	0.02444689	0.05561667	-1.014514	-0.2341188	-20.06021	-2.85804
39.2774	-0.004889378	0.05194964	-1.781818	-0.2227271	-23.88319	0.3545815
39.29397	-0.06356192	0.0507273	-3.541481	-0.07378095	-53.27234	4.50922
39.31085	-0.1650165	0.05439433	-6.011689	0.21729	-73.86221	8.703377
39.32711	-0.25547	0.05806137	-5.563549	0.2255493	13.5249	0.2492652
39.34448	-0.3239213	0.06417309	-3.940293	0.3518119	48.26755	3.754422
39.36024	-0.3630363	0.06661777	-2.482153	0.1551342	44.01182	-5.936428
39.3768	-0.3887056	0.06784011	-1.549397	0.07378072	28.85489	-2.516678
39.39354	-0.4021513	0.06906246	-0.803633	0.07305783	22.39633	-0.02170947
39.40993	-0.4070407	0.07028481	-0.2981453	0.07453632	15.25741	0.04462615
39.4265	-0.4070407	0.07028481	0	0	9.043856	-2.260964
39.44353	-0.4070407	0.07028481	0	0	0	0
39.45964	-0.4070407	0.07028481	0	0	0	0
39.47673	-0.4070407	0.07028481	0	0	0	0
39.49277	-0.4070407	0.07028481	0	0	0	0
39.50934	-0.4070407	0.07028481	0	0	0	0
39.52658	-0.4070407	0.07028481	0	0	0	0
39.54247	-0.4070407	0.07028481	0	0	0	0
39.55925	-0.4070407	0.07028481	0	0	0	0
39.5759	-0.404596	0.07028481	0.1468195	-4.474513E-07	4.391085	-1.338239E-05
39.59217	-0.404596	0.06906246	0	-0.07514767	-4.460291	-2.282929
39.60886	-0.400929	0.06906246	0.219725	0	6.667391	2.2803
39.6253	-0.3911502	0.06784012	0.5946271	-0.07432839	11.31457	-2.243235
39.64203	-0.3740374	0.06784011	1.023038	-4.454105E-07	12.91461	2.240642
39.65844	-0.3471458	0.06784012	1.638649	4.54004E-07	18.57703	2.714126E-05
39.67504	-0.2896957	0.06906246	3.461323	0.07364462	55.2182	2.231061
39.69157	-0.2799169	0.06906246	0.5914715	4.506518E-07	-86.62228	-2.222841
39.70814	-0.2346901	0.07150715	2.729893	0.1475614	64.60464	4.458019
39.7247	-0.1955751	0.07272949	2.361531	0.07379772	-11.11846	-2.22645
39.74127	-0.1711282	0.07517419	1.475617	0.1475624	-26.74003	2.226477
39.75843	-0.1564601	0.07517419	0.8546708	0	-18.40956	-4.374868
39.7744	-0.1503484	0.07517418	0.3826492	-4.664736E-07	-14.24564	-1.40782E-05
39.79097	-0.1466813	0.07639652	0.2213431	0.07378072	-4.957262	2.267444
39.80754	-0.145459	0.07639653	0.07377983	4.497179E-07	-4.453468	-2.226693
39.82412	-0.1442367	0.07639653	0.07369588	0	-0.002532028	-1.356471E-05
39.84067	-0.141792	0.07639652	0.1477665	-4.503401E-07	2.235713	-1.359286E-05
39.85723	-0.1369026	0.07639652	0.2951229	0	4.450299	1.360069E-05
39.8738	-0.1271238	0.07639652	0.5903835	0	8.91201	0
39.89038	-0.1197898	0.07639653	0.442277	4.493041E-07	-4.46832	1.355534E-05
39.90693	-0.1112334	0.07761887	0.5169421	0.07384874	2.253396	2.228746
39.92352	-0.1014546	0.07761887	0.5895689	0	2.191628	-2.228503
39.94006	-0.08434176	0.07884122	1.034361	0.0738828	13.4254	2.230044
39.95663	-0.08067474	0.07884122	0.2213422	4.497179E-07	-24.55392	-2.231315
39.9732	-0.07211833	0.07884122	0.516466	-4.497179E-07	8.906854	-2.714503E-05
39.98977	-0.0660066	0.07884122	0.3689045	4.497179E-07	-4.453413	2.714503E-05
40.00633	-0.06111722	0.07884122	0.2951233	-4.497179E-07	-2.226721	-2.714503E-05
40.0229	-0.05867254	0.07884122	0.1475617	0	-4.45342	1.357251E-05
40.03947	-0.05745019	0.07884122	0.07378118	0	-2.2267	0
40.05603	-0.05622785	0.07884122	0.0737805	0	-2.046217E-05	0
40.07282	-0.0550055	0.07884122	0.0728086	4.437912E-07	-0.02913739	1.33048E-05
40.08917	-0.05378315	0.07884122	0.07477985	-4.558051E-07	0.05949229	-2.714987E-05
40.10573	-0.05256082	0.07884122	0.07379727	4.498215E-07	-0.02985698	2.751879E-05
40.1223	-0.05011612	0.07884122	0.1475621	-4.497179E-07	2.226484	-2.715128E-05
40.13886	-0.04767143	0.07884122	0.1475957	0	0.001011982	1.357408E-05
40.15543	-0.04644909	0.08006356	0.07378072	0.07378072	-2.227996	2.226963
40.17217	-0.04522675	0.08006357	0.07300745	4.450046E-07	-0.0232145	-2.214963
40.18856	-0.04522675	0.08006357	0	0	-2.203369	-1.343026E-05
40.20515	-0.04522675	0.08006357	0	0	0	0
40.22233	-0.04522675	0.08006357	0	0	0	0
40.2389	-0.0440044	0.08006357	0.07376397	0	2.185935	0
40.25547	-0.0440044	0.08006357	0	0	-2.225945	0
40.27236	-0.04155971	0.08006357	0.1447293	0	4.325609	0
40.28886	-0.03911502	0.07884122	0.1481073	-0.074054	0.1011453	-2.21734
40.30539	-0.03422565	0.07884122	0.2958727	0	4.473475	2.241923
40.32187	-0.02933627	0.07884122	0.2966261	4.520076E-07	0.02282174	1.369364E-05
40.33841	-0.02444689	0.07884122	0.2957363	0	-0.02694884	-1.369048E-05
40.35487	-0.01833517	0.07761888	0.3712981	-0.07425949	2.290215	-2.250743
40.37177	-0.01589048	0.07761887	0.1446312	-4.407865E-07	-6.793891	2.225768
40.388	-0.01466813	0.07761887	0.07530668	0	-2.092218	1.330296E-05
40.40461	-0.01344579	0.07761888	0.07357754	4.484788E-07	-0.05264636	1.365459E-05
40.42114	-0.01344579	0.07761888	0	0	-2.220319	-1.353356E-05
40.43769	-0.01222344	0.07761887	0.07383189	-4.500288E-07	2.231848	-1.360382E-05
40.45426	-0.01222344	0.07761887	0	0	-2.229021	1.358659E-05
40.47083	-0.01222344	0.07761887	0	0	0	0
40.4874	-0.01222344	0.07761887	0	0	0	0
40.50396	-0.0110011	0.07639653	0.07378083	-0.07378072	2.22671	-2.226707
40.52072	-0.009778756	0.07639653	0.07295775	0	-0.0247015	2.214216
40.53722	-0.008556412	0.07639653	0.07405366	0	0.03294955	0
40.55374	-0.008556412	0.07639653	0	0	-2.24269	0
40.57024	-0.008556412	0.07639653	0	0	0	0
40.58685	-0.008556412	0.07639653	0	0	0	0
40.60337	-0.008556412	0.07639653	0	0	0	0
40.61993	-0.008556412	0.07639653	0	0	0	0
40.6365	-0.008556412	0.07639653	0	0	0	0
40.65307	-0.008556412	0.07639653	0	0	0	0
40.66964	-0.008556412	0.07639653	0	0	0	0
40.6862	-0.008556412	0.07639653	0	0	0	0
40.70277	-0.008556412	0.07639653	0	0	0	0
40.71936	-0.008556412	0.07639653	0	0	0	0
40.7359	-0.008556412	0.07639653	0	0	0	0
40.75247	-0.008556412	0.07639653	0	0	0	0
40.76904	-0.008556412	0.07639653	0	0	0	0
40.7856	-0.008556412	0.07639653	0	0	0	0
40.80217	-0.008556412	0.07639653	0	0	0	0
40.81874	-0.008556412	0.07639653	0	0	0	0
40.8353	-0.008556412	0.07639653	0	0	0	0
40.85187	-0.008556412	0.07639653	0	0	0	0
40.86844	-0.008556412	0.07639653	0	0	0	0
40.89583	-0.008556412	0.07639653	0	0	0	0
40.9124	-0.008556412	0.07639653	0	0	0	0
40.92897	-0.008556412	0.07639653	0	0	0	0
40.94554	-0.008556412	0.07639653	0	0	0	0
40.9621	-0.008556412	0.07639653	0	0	0	0
40.97906	-0.008556412	0.07639653	0	0	0	0
40.99524	-0.008556412	0.07639653	0	0	0	0
41.012	-0.008556412	0.07639653	0	0	0	0
41.02837	-0.008556412	0.07639653	0	0	0	0
41.04494	-0.008556412	0.07639653	0	0	0	0
41.06151	-0.008556412	0.07639653	0	0	0	0
41.07814	-0.008556412	0.07639653	0	0	0	0
41.09464	-0.008556412	0.07639653	0	0	0	0
41.11121	-0.008556412	0.07639653	0	0	0	0
41.12778	-0.008556412	0.07639653	0	0	0	0
41.14434	-0.008556412	0.07639653	0	0	0	0
41.16091	-0.008556412	0.07639653	0	0	0	0
41.17766	-0.008556412	0.07639653	0	0	0	0
41.19417	-0.007334067	0.07639653	0.07401945	0	2.225456	0
41.21067	-0.006111722	0.07639652	0.07407083	-4.514852E-07	0.001556407	-1.367465E-05
41.22718	-0.006111722	0.07517418	0	-0.07407066	-2.244247	-2.244228
41.24374	-0.006111722	0.07517418	0	0	0	2.240099
41.26031	-0.004889378	0.07517418	0.07378086	0	2.226967	0
41.27687	-0.004889378	0.07517418	0	0	-2.226711	0
41.29374	-0.004889378	0.07517418	0	0	0	0
41.31001	-0.004889378	0.07517418	0	0	0	0
41.32657	-0.004889378	0.07517418	0	0	0	0
41.34314	-0.004889378	0.07517418	0	0	0	0
41.35971	-0.004889378	0.07517418	0	0	0	0
41.37627	-0.004889378	0.07517418	0	0	0	0
41.39284	-0.004889378	0.07517418	0	0	0	0
41.40941	-0.004889378	0.07517418	0	0	0	0
41.42598	-0.004889378	0.07517418	0	0	0	0
41.44254	-0.004889378	0.07517418	0	0	0	0
41.45911	-0.004889378	0.07517418	0	0	0	0
41.47568	-0.004889378	0.07517418	0	0	0	0
41.49224	-0.004889378	0.07517418	0	0	0	0
41.50901	-0.004889378	0.07517418	0	0	0	0
41.52538	-0.004889378	0.07517418	0	0	0	0
41.54375	-0.004889378	0.07517418	0	0	0	0
41.56033	-0.004889378	0.07517418	0	0	0	0
41.57689	-0.004889378	0.07517418	0	0	0	0
41.59346	-0.004889378	0.07517418	0	0	0	0
41.61014	-0.004889378	0.07517418	0	0	0	0
41.62666	-0.004889378	0.07517418	0	0	0	0
41.64316	-0.004889378	0.07517418	0	0	0	0
41.65973	-0.004889378	0.07517418	0	0	0	0
41.6763	-0.004889378	0.07517418	0	0	0	0
41.69338	-0.004889378	0.07517418	0	0	0	0
41.70984	-0.004889378	0.07517418	0	0	0	0
41.726	-0.004889378	0.07517418	0	0	0	0
41.74266	-0.004889378	0.07517418	0	0	0	0
41.75913	-0.004889378	0.07517418	0	0	0	0
41.77573	-0.004889378	0.07517418	0	0	0	0
41.79226	-0.004889378	0.07517418	0	0	0	0
41.80883	-0.004889378	0.07517418	0	0	0	0
41.8254	-0.004889378	0.07517418	0	0	0	0
41.842	-0.004889378	0.07517418	0	0	0	0
41.85926	-0.004889378	0.07517418	0	0	0	0
41.8751	-0.004889378	0.07517418	0	0	0	0
41.89167	-0.004889378	0.07517418	0	0	0	0
41.90823	-0.004889378	0.07517418	0	0	0	0
41.9248	-0.004889378	0.07517418	0	0	0	0
41.94137	-0.004889378	0.07517418	0	0	0	0
41.95794	-0.004889378	0.07517418	0	0	0	0
41.9745	-0.004889378	0.07517418	0	0	0	0
41.99142	-0.004889378	0.07517418	0	0	0	0
42.00763	-0.004889378	0.07517418	0	0	0	0
42.02424	-0.004889378	0.07517418	0	0	0	0
42.04077	-0.004889378	0.07517418	0	0	0	0
42.05733	-0.004889378	0.07517418	0	0	0	0
42.0739	-0.004889378	0.07517418	0	0	0	0
42.09047	-0.004889378	0.07517418	0	0	0	0
42.10703	-0.004889378	0.07517418	0	0	0	0
42.1236	-0.004889378	0.07517418	0	0	0	0
42.14017	-0.004889378	0.07517418	0	0	0	0
42.15714	-0.004889378	0.07517418	0	0	0	0
42.18044	-0.004889378	0.07517418	0	0	0	0
42.19724	-0.004889378	0.07517418	0	0	0	0
42.21358	-0.004889378	0.07517418	0	0	0	0
42.23078	-0.004889378	0.07517418	0	0	0	0
42.2473	-0.004889378	0.07517418	0	0	0	0
42.26329	-0.004889378	0.07517418	0	0	0	0
42.27985	-0.004889378	0.07517418	0	0	0	0
42.29687	-0.004889378	0.07517418	0	0	0	0
42.31298	-0.004889378	0.07517418	0	0	0	0
42.32955	-0.004889378	0.07517418	0	0	0	0
42.34612	-0.004889378	0.07517418	0	0	0	0
42.36268	-0.004889378	0.07517418	0	0	0	0
42.37925	-0.004889378	0.07517418	0	0	0	0
42.39581	-0.004889378	0.07517418	0	0	0	0
42.41238	-0.004889378	0.07517418	0	0	0	0
42.42895	-0.004889378	0.07517418	0	0	0	0
42.44551	-0.004889378	0.07517418	0	0	0	0
42.46214	-0.004889378	0.07517418	0	0	0	0
42.47865	-0.004889378	0.07517418	0	0	0	0
42.49521	-0.004889378	0.07517418	0	0	0	0
42.51178	-0.004889378	0.07517418	0	0	0	0
42.52835	-0.004889378	0.07517418	0	0	0	0
42.54491	-0.004889378	0.07517418	0	0	0	0
42.56148	-0.004889378	0.07517418	0	0	0	0
42.57804	-0.004889378	0.07517418	0	0	0	0
42.59461	-0.004889378	0.07517418	0	0	0	0
42.61126	-0.004889378	0.07517418	0	0	0	0
42.62776	-0.004889378	0.07517418	0	0	0	0
42.64447	-0.004889378	0.07517418	0	0	0	0
42.66088	-0.004889378	0.07517418	0	0	0	0
42.67745	-0.004889378	0.07517418	0	0	0	0
42.69402	-0.004889378	0.07517418	0	0	0	0
42.71106	-0.004889378	0.07517418	0	0	0	0
42.72715	-0.004889378	0.07517418	0	0	0	0
42.74372	-0.004889378	0.07517418	0	0	0	0
42.76032	-0.004889378	0.07517418	0	0	0	0
42.77685	-0.004889378	0.07517418	0	0	0	0
42.79342	-0.004889378	0.07517418	0	0	0	0
42.80998	-0.004889378	0.07517418	0	0	0	0
42.82655	-0.004889378	0.07517418	0	0	0	0
42.84423	-0.004889378	0.07517418	0	0	0	0
42.8608	-0.004889378	0.07517418	0	0	0	0
42.87737	-0.004889378	0.07517418	0	0	0	0
42.89394	-0.004889378	0.07517418	0	0	0	0
42.91051	-0.004889378	0.07517418	0	0	0	0
42.92707	-0.004889378	0.07517418	0	0	0	0
42.94364	-0.004889378	0.07517418	0	0	0	0
42.96021	-0.003667034	0.07517418	0.07378085	0	2.226711	0
42.97678	-0.003667034	0.07517418	0	0	-2.226711	0
