Time	Pos X	Pos Y	Vel X	Vel Y	Acc X	Acc Y
0.01656711	-0.05533818	-0.2982884	0.0006896594	0.003717458	-8.596747E-06	-4.633888E-05
0.0347614	-0.05533818	-0.2982884	0	0	8.596921E-06	4.633982E-05
0.05133482	-0.05533818	-0.2982884	0	0	0	0
0.06789838	-0.05533818	-0.2982884	0	0	0	0
0.08446628	-0.05533818	-0.2982884	0	0	0	0
0.1014585	-0.05536442	-0.2983097	-0.001543849	-0.001257529	-0.04600244	-0.03747088
0.1176056	-0.05536442	-0.2983097	0	0	0.0465866	0.0379467
0.1341704	-0.05536442	-0.2983097	0	0	0	0
0.1510008	-0.05533818	-0.2983311	0.001558696	-0.001267851	0.0466743	-0.03796513
0.1680057	-0.05533818	-0.2983311	0	0	-0.04606714	0.03747125
0.1838693	-0.05533818	-0.2983311	0	0	0	0
0.2010432	-0.05533818	-0.2983738	0	-0.002488464	0	-0.07532239
0.2170553	-0.05533818	-0.2983738	0	0	0	0.07498549
0.2335707	-0.05533818	-0.2983738	0	0	0	0
0.2501358	-0.05533818	-0.2984165	0	-0.002578108	0	-0.07793429
0.2667005	-0.05533818	-0.2984165	0	0	0	0.07781823
0.2832657	-0.05533818	-0.2984165	0	0	0	0
0.29983	-0.05539065	-0.2985447	-0.003167466	-0.007736498	-0.09560869	-0.2335231
0.3163983	-0.05539065	-0.2985447	0	0	0.09559958	0.2335008
0.3329658	-0.05539065	-0.2985447	0	0	0	0
0.3513374	-0.05539065	-0.2986301	0	-0.004652468	0	-0.1331595
0.3679076	-0.05539065	-0.2986301	0	0	0	0.133149
0.3847144	-0.05539065	-0.2986301	0	0	0	0
0.4014773	-0.05544312	-0.2987156	-0.003130167	-0.005097161	-0.093244	-0.1518384
0.4176113	-0.05544312	-0.2987156	0	0	0.09515063	0.1549432
0.4345124	-0.05544312	-0.2987156	0	0	0	0
0.4507444	-0.05544312	-0.298801	0	-0.005263892	0	-0.1588714
0.4673107	-0.05544312	-0.298801	0	0	0	0.160493
0.4838778	-0.05544312	-0.298801	0	0	0	0
0.5004417	-0.05549559	-0.2989292	-0.003167765	-0.007740278	-0.09561315	-0.233626
0.5170096	-0.05549559	-0.2989292	0	0	0.09561092	0.2336205
0.5335779	-0.05549559	-0.2989292	0	0	0	0
0.5501446	-0.05552182	-0.2990361	-0.001583508	-0.006447365	-0.0477896	-0.1945787
0.5667093	-0.05552182	-0.2990361	0	0	0.04779476	0.1945997
0.5836775	-0.05552182	-0.2990361	0	0	0	0
0.5998448	-0.05552182	-0.2990361	0	0	0	0
0.6164083	-0.05552182	-0.2990361	0	0	0	0
0.6329738	-0.05552182	-0.2990361	0	0	0	0
0.6495409	-0.05549559	-0.2990574	0.001583468	-0.0012898	0.04779183	-0.03892842
0.666108	-0.05549559	-0.2990574	0	0	-0.04778951	0.03892653
0.6827509	-0.05549559	-0.2990574	0	0	0	0
0.6992419	-0.05549559	-0.2990574	0	0	0	0
0.7162523	-0.05549559	-0.2990574	0	0	0	0
0.7328597	-0.05549559	-0.2990574	0	0	0	0
0.7489389	-0.05523324	-0.2992711	0.01631634	-0.01329125	0.4991755	-0.4066269
0.7655076	-0.05523324	-0.2992711	0	0	-0.4997678	0.4071094
0.7820735	-0.05523324	-0.2992711	0	0	0	0
0.7986386	-0.05504959	-0.2995062	0.01108649	-0.01419129	0.3346254	-0.4283378
0.8152058	-0.05504959	-0.2995062	0	0	-0.3346133	0.4283224
0.8317748	-0.05504959	-0.2995062	0	0	0	0
0.8483407	-0.05502335	-0.300511	0.001583807	-0.06065376	0.04779862	-1.830505
0.8649126	-0.05502335	-0.300511	0	0	-0.04779466	1.830353
0.8818914	-0.05502335	-0.300511	0	0	0	0
0.8981194	-0.0522419	-0.308183	0.1713983	-0.4727651	5.161529	-14.23696
0.914606	-0.0522419	-0.308183	0	0	-5.239197	14.45119
0.9311736	-0.0522419	-0.308183	0	0	0	0
0.9477454	-0.03553766	-0.3222845	1.00799	-0.8509274	30.41672	-25.67725
0.9643078	-0.03553766	-0.3222845	0	0	-30.42142	25.68122
0.9808741	-0.03553766	-0.3222845	0	0	0	0
0.9974416	-0.01242041	-0.3414629	1.395335	-1.157591	42.11205	-34.93679
1.014008	-0.01242041	-0.3414629	0	0	-42.11212	34.93685
1.030575	-0.01242041	-0.3414629	0	0	0	0
1.047139	0.0002894737	-0.3521138	0.7673415	-0.6430368	23.16083	-19.40891
1.064001	0.0002894737	-0.3521138	0	0	-22.95648	19.23767
1.080616	0.0002894737	-0.3521138	0	0	0	0
1.097061	0.002578942	-0.3540757	0.1392153	-0.1192961	4.210996	-3.608479
1.113408	0.002578942	-0.3540757	0	0	-4.245362	3.637928
1.129974	0.002578942	-0.3540757	0	0	0	0
1.14654	0.002552626	-0.3540978	-0.001588578	-0.001331299	-0.04794717	-0.04018187
1.163107	0.002552626	-0.3540978	0	0	0.04794544	0.04018042
1.179674	0.002552626	-0.3540978	0	0	0	0
1.196649	0.002499995	-0.3541419	-0.003100522	-0.002600143	-0.0924392	-0.07752087
1.212807	0.002499995	-0.3541419	0	0	0.09357663	0.07847474
1.229373	0.002499995	-0.3541419	0	0	0	0
1.245939	0.002499995	-0.3541419	0	0	0	0
1.262507	0.002499995	-0.3541419	0	0	0	0
1.279229	0.002499995	-0.3541419	0	0	0	0
1.295769	0.002499995	-0.3541419	0	0	0	0
1.312208	0.002499995	-0.3541419	0	0	0	0
1.328775	0.002499995	-0.3541419	0	0	0	0
1.345338	0.002499995	-0.3541419	0	0	0	0
1.362132	0.002499995	-0.3541419	0	0	0	0
1.378675	0.002499995	-0.3541419	0	0	0	0
1.39521	0.002473679	-0.3541199	-0.001591544	0.001333785	-0.04811529	0.04032277
1.411857	0.002473679	-0.3541199	0	0	0.04796473	-0.04019659
1.428274	0.002473679	-0.3541199	0	0	0	0
1.444738	0.002421048	-0.3540757	-0.003196718	0.002680815	-0.09721901	0.08152928
1.461307	0.002421048	-0.3540757	0	0	0.09677413	-0.0811562
1.477874	0.002421048	-0.3540757	0	0	0	0
1.494689	0.002394732	-0.3540537	-0.001565051	0.001311582	-0.04688349	0.03929046
1.511379	0.002394732	-0.3540537	0	0	0.04671117	-0.03914605
1.527576	0.002394732	-0.3540537	0	0	0	0
1.550289	0.002315785	-0.3539875	-0.003475898	0.002912958	-0.08933275	0.07486484
1.566861	0.002315785	-0.3539875	0	0	0.08847913	-0.07414947
1.583429	0.002263154	-0.3538993	-0.003176616	0.005324316	-0.09585287	0.1606587
1.599996	0.002263154	-0.3538993	0	0	0.09586873	-0.1606853
1.616561	0.002263154	-0.3538993	0	0	0	0
1.633129	0.002184207	-0.3538331	-0.004765185	0.003993438	-0.1438198	0.1205274
1.649696	0.002184207	-0.3538331	0	0	0.1438131	-0.1205218
1.666304	0.002184207	-0.3538331	0	0	0	0
1.682825	0.002157891	-0.353767	-0.00159283	0.004004589	-0.04807898	0.120877
1.699869	0.002157891	-0.353767	0	0	0.04745521	-0.1193087
1.716595	0.002157891	-0.353767	0	0	0	0
1.732522	0.002131576	-0.3537449	-0.001652248	0.001384658	-0.05059969	0.0424048
1.749415	0.002131576	-0.3537449	0	0	0.05034275	-0.04218948
1.765658	0.002131576	-0.3537449	0	0	0	0
1.782224	0.002131576	-0.3537449	0	0	0	0
1.798791	0.002131576	-0.3537449	0	0	0	0
1.815359	0.002131576	-0.3537449	0	0	0	0
1.831925	0.002131576	-0.3537449	0	0	0	0
1.848491	0.002131576	-0.3537449	0	0	0	0
1.865057	0.002131576	-0.3537449	0	0	0	0
1.881626	0.002131576	-0.3537449	0	0	0	0
1.898497	0.002131576	-0.3537449	0	0	0	0
1.914759	0.002131576	-0.3537449	0	0	0	0
1.931325	0.002131576	-0.3537449	0	0	0	0
1.948209	0.002131576	-0.3537449	0	0	0	0
1.964579	0.002131576	-0.3537449	0	0	0	0
1.981025	0.00210526	-0.3537229	-0.001600139	0.001340988	-0.04876157	0.04086437
1.997621	0.00210526	-0.3537229	0	0	0.04842766	-0.04058455
2.014738	0.00210526	-0.3537229	0	0	0	0
2.030725	0.002078944	-0.3536567	-0.001646051	0.004138394	-0.04972337	0.1250112
2.047675	0.002078944	-0.3536567	0	0	0.04997532	-0.1256446
2.063859	0.002078944	-0.3536567	0	0	0	0
2.080712	0.002078944	-0.3536567	0	0	0	0
2.096992	0.002078944	-0.3536567	0	0	0	0
2.113557	0.002078944	-0.3536567	0	0	0	0
2.130123	0.002078944	-0.3536567	0	0	0	0
2.146689	0.002078944	-0.3536567	0	0	0	0
2.16331	0.002078944	-0.3536567	0	0	0	0
2.179824	0.002078944	-0.3536567	0	0	0	0
2.196838	0.002078944	-0.3536567	0	0	0	0
2.212958	0.002078944	-0.3536567	0	0	0	0
2.229604	0.002078944	-0.3536567	0	0	0	0
2.246594	0.002078944	-0.3536567	0	0	0	0
2.262977	0.002078944	-0.3536567	0	0	0	0
2.279223	-0.002552626	-0.3495162	-0.2850927	0.2548631	-8.737526	7.81105
2.296083	-0.002552626	-0.3495162	0	0	8.611363	-7.698266
2.312626	-0.002552626	-0.3495162	0	0	0	0
2.328923	-0.04562621	-0.3126988	-2.643137	2.259241	-80.48759	68.79737
2.346037	-0.04562621	-0.3126988	0	0	79.11085	-67.62058
2.362059	-0.04562621	-0.3126988	0	0	0	0
2.381549	-0.1143931	-0.2568701	-3.528275	2.864443	-99.35385	80.6608
2.398166	-0.1143931	-0.2568701	0	0	97.71703	-79.33193
2.414948	-0.1143931	-0.2568701	0	0	0	0
2.431469	-0.137263	-0.2382599	-1.384291	1.126458	-41.56562	33.82378
2.448087	-0.137263	-0.2382599	0	0	41.77226	-33.99194
2.464386	-0.137263	-0.2382599	0	0	0	0
2.481087	-0.1382957	-0.2371426	-0.06183621	0.06689674	-1.873825	2.027174
2.497519	-0.1382957	-0.2371426	0	0	1.866274	-2.019006
2.514402	-0.1382957	-0.2371426	0	0	0	0
2.531096	-0.1374695	-0.2364808	0.04949244	0.03964484	1.474031	1.18074
2.547217	-0.1374695	-0.2364808	0	0	-1.508216	-1.208124
2.563786	-0.1374695	-0.2364808	0	0	0	0
2.580353	-0.131293	-0.2315035	0.3728287	0.3004382	11.25167	9.066982
2.596921	-0.131293	-0.2315035	0	0	-11.25191	-9.067179
2.613695	-0.131293	-0.2315035	0	0	0	0
2.630133	-0.1111973	-0.2155794	1.222548	0.9687645	36.81024	29.16895
2.64662	-0.1111973	-0.2155794	0	0	-37.13224	-29.42411
2.663186	-0.1111973	-0.2155794	0	0	0	0
2.679753	-0.08920996	-0.1981308	1.32714	1.053185	40.05431	31.78609
2.696319	-0.08920996	-0.1981308	0	0	-40.05431	-31.78609
2.712886	-0.08920996	-0.1981308	0	0	0	0
2.729462	-0.07810395	-0.1797551	0.6699839	1.10854	20.21477	33.44689
2.746216	-0.07810395	-0.1797551	0	0	-20.10155	-33.25955
2.762586	-0.07810395	-0.1797551	0	0	0	0
2.779153	-0.1037316	-0.1448342	-1.54691	2.107857	-46.96598	63.99698
2.795719	-0.1037316	-0.1448342	0	0	46.68684	-63.61661
2.812575	-0.1037316	-0.1448342	0	0	0	0
2.828852	-0.1200774	-0.1111408	-1.004254	2.070052	-30.31019	62.4779
2.845419	-0.1200774	-0.1111408	0	0	30.57686	-63.02759
2.861986	-0.1200774	-0.1111408	0	0	0	0
2.878551	-0.1121849	-0.09359643	0.4764432	1.059089	14.37991	31.9652
2.895262	-0.1121849	-0.09359643	0	0	-14.31809	-31.82778
2.911685	-0.1121849	-0.09359643	0	0	0	0
2.928252	-0.1105995	-0.08341577	0.09569959	0.6145235	2.900826	18.62731
2.944819	-0.1105995	-0.08341577	0	0	-2.888282	-18.54676
2.961386	-0.1105995	-0.08341577	0	0	0	0
2.978679	-0.123759	-0.06822537	-0.7609556	0.8783902	-22.47345	25.94167
2.995364	-0.123759	-0.06822537	0	0	22.39539	-25.85156
3.011815	-0.123759	-0.06822537	0	0	0	0
3.028382	-0.143584	-0.05296347	-1.196709	0.9212629	-36.24454	27.90215
3.045414	-0.143584	-0.05296347	0	0	35.61801	-27.41983
3.061785	-0.143584	-0.05296347	0	0	0	0
3.07808	-0.1584756	-0.04090676	-0.9138927	0.7399151	-27.97691	22.65095
3.095558	-0.1584756	-0.04090676	0	0	27.05991	-21.90852
3.111216	-0.1584756	-0.04090676	0	0	0	0
3.12778	-0.1504338	-0.0180151	0.4854905	1.381982	15.06704	42.88936
3.144542	-0.1504338	-0.0180151	0	0	-14.56775	-41.46811
3.161138	-0.1504338	-0.0180151	0	0	0	0
3.17748	-0.129068	-0.001062752	1.307481	1.037399	39.69579	31.49595
3.194048	-0.129068	-0.001062752	0	0	-39.72972	-31.52287
3.210614	-0.129068	-0.001062752	0	0	0	0
3.227178	-0.1285245	4.797911E-05	0.03281353	0.06705736	0.9904284	2.024028
3.243748	-0.1285245	4.797911E-05	0	0	-0.9903358	-2.023839
3.260315	-0.1285245	4.797911E-05	0	0	0	0
3.277021	-0.1336718	0.02164431	-0.3081177	1.292748	-9.26043	38.85336
3.293541	-0.1336718	0.02164431	0	0	9.273455	-38.908
3.310029	-0.1336718	0.02164431	0	0	0	0
3.33235	-0.142888	0.05213649	-0.4128928	1.366076	-10.63908	35.19994
3.348922	-0.142888	0.05213649	0	0	10.61606	-35.12377
3.365484	-0.1413923	0.06828059	0.09030857	0.9747682	2.725538	29.41878
3.382156	-0.1413923	0.06828059	0	0	-2.717384	-29.33077
3.398618	-0.1413923	0.06828059	0	0	0	0
3.415192	-0.132586	0.08169164	0.5313336	0.8091667	16.08348	24.49349
3.431753	-0.132586	0.08169164	0	0	-16.03533	-24.42017
3.448321	-0.132586	0.08169164	0	0	0	0
3.476812	-0.1360749	0.0843246	-0.1224566	0.0924137	-2.717682	2.05094
3.49338	-0.1360749	0.0843246	0	0	2.717682	-2.05094
3.510234	-0.1360749	0.08421416	0	-0.006553004	0	-0.1960714
3.526515	-0.1360749	0.08421416	0	0	0	0.1977715
3.54308	-0.1360749	0.08421416	0	0	0	0
3.559814	-0.1363591	0.08371714	-0.01697867	-0.02969977	-0.5098712	-0.8918869
3.576214	-0.1363591	0.08371714	0	0	0.5124173	0.8963407
3.592781	-0.1363591	0.08371714	0	0	0	0
3.610114	-0.1368498	0.08008898	-0.02831117	-0.2093175	-0.8351312	-6.174511
3.625914	-0.1368498	0.08008898	0	0	0.8544634	6.317443
3.642555	-0.1368498	0.08008898	0	0	0	0
3.659047	-0.1355066	0.07913078	0.08144525	-0.05810025	2.458129	-1.753545
3.675772	-0.1355066	0.07913078	0	0	-2.451901	1.749102
3.692181	-0.1355066	0.07913078	0	0	0	0
3.708748	-0.1141594	0.06388073	1.288538	-0.9205085	39.07569	-27.91498
3.725784	-0.1141594	0.06388073	0	0	-38.34624	27.39387
3.741897	-0.1141594	0.06388073	0	0	0	0
3.758531	-0.1005023	0.05412101	0.8210549	-0.58675	25.07265	-17.91766
3.775211	-0.1005023	0.05412101	0	0	-24.64595	17.61272
3.791677	-0.1005023	0.05412101	0	0	0	0
3.808149	-0.100815	0.0531567	-0.01897888	-0.05854586	-0.5762085	-1.777482
3.824713	-0.100815	0.0531567	0	0	0.5744911	1.772184
3.841281	-0.100815	0.0531567	0	0	0	0
3.857915	-0.1167041	0.03294291	-0.9552358	-1.215227	-28.77069	-36.60136
3.874416	-0.1167041	0.03294291	0	0	28.82928	36.67589
3.890982	-0.1167041	0.03294291	0	0	0	0
3.907752	-0.1211148	0.01896851	-0.2630069	-0.8332798	-7.889482	-24.99609
3.924115	-0.1211148	0.01896851	0	0	7.937736	25.14898
3.940681	-0.1211148	0.01896851	0	0	0	0
3.957246	-0.1211926	0.01894979	-0.004696181	-0.001130079	-0.1417484	-0.03411002
3.973814	-0.1211926	0.01894979	0	0	0.1417371	0.03410732
3.990424	-0.1211926	0.01894979	0	0	0	0
4.006948	-0.1212445	0.01898723	-0.003138617	0.002265702	-0.09472501	0.06837999
4.02366	-0.1212445	0.01898723	0	0	0.09443282	-0.06816907
4.040081	-0.1212445	0.01898723	0	0	0	0
4.056648	-0.1212963	0.01902467	-0.003130396	0.002259655	-0.0948948	0.06849916
4.073215	-0.1212963	0.01902467	0	0	0.09447419	-0.06819554
4.089781	-0.1212963	0.01902467	0	0	0	0
4.106346	-0.1214001	0.01913698	-0.006261605	0.006780219	-0.1890001	0.2046539
4.122915	-0.1214001	0.01913698	0	0	0.1889783	-0.2046304
4.139482	-0.1214001	0.01913698	0	0	0	0
4.156049	-0.1218408	0.01953004	-0.02660576	0.02372509	-0.8029866	0.7160454
4.172999	-0.1218408	0.01953004	0	0	0.7937905	-0.707845
4.189207	-0.1218408	0.01953004	0	0	0	0
4.205748	-0.1251322	0.02213061	-0.1989785	0.1572153	-6.075831	4.800587
4.222567	-0.1251322	0.02213061	0	0	5.964581	-4.712687
4.238986	-0.1251322	0.02213061	0	0	0	0
4.255446	-0.140412	0.03368869	-0.9282994	0.7021946	-28.23351	21.3567
4.272016	-0.140412	0.03368869	0	0	28.10471	-21.25928
4.288582	-0.140412	0.03368869	0	0	0	0
4.305146	-0.1533908	0.04515475	-0.7835593	0.6922322	-23.65127	20.89462
4.321715	-0.1533908	0.04515475	0	0	23.64855	-20.89221
4.338563	-0.1533908	0.04515475	0	0	0	0
4.354888	-0.1570383	0.05035512	-0.2234326	0.3185524	-6.735454	9.602876
4.37146	-0.1570383	0.05035512	0	0	6.791884	-9.68333
4.388027	-0.1570383	0.05035512	0	0	0	0
4.417622	-0.1570383	0.05035512	0	0	0	0
4.43419	-0.1570383	0.05035512	0	0	0	0
4.450755	-0.1570383	0.05035512	0	0	0	0
4.467378	-0.1570383	0.05035512	0	0	0	0
4.484622	-0.1570383	0.05035512	0	0	0	0
4.500459	-0.1570383	0.05035512	0	0	0	0
4.517025	-0.1570383	0.05035512	0	0	0	0
4.533607	-0.1570383	0.05035512	0	0	0	0
4.550158	-0.1570127	0.05033656	0.001551291	-0.001121377	0.04682007	-0.03384469
4.566723	-0.1570127	0.05033656	0	0	-0.04684434	0.03386223
4.583459	-0.1570127	0.05033656	0	0	0	0
4.599857	-0.1570127	0.05033656	0	0	0	0
4.616425	-0.1570127	0.05033656	0	0	0	0
4.632992	-0.1570127	0.05033656	0	0	0	0
4.649702	-0.1570127	0.05033656	0	0	0	0
4.66613	-0.1570127	0.05033656	0	0	0	0
4.682692	-0.1570127	0.05033656	0	0	0	0
4.69926	-0.156987	0.050318	0.001549639	-0.001120183	0.04677425	-0.03381157
4.715829	-0.156987	0.050318	0	0	-0.04676415	0.03380427
4.732396	-0.156987	0.050318	0	0	0	0
4.748961	-0.156987	0.05028088	0	-0.002241042	0	-0.06764062
4.765531	-0.156987	0.05028088	0	0	0	0.06763382
4.782093	-0.156987	0.05028088	0	0	0	0
4.798963	-0.1569613	0.05029944	0.001521029	0.001100141	0.04549685	0.03290728
4.815239	-0.1569613	0.05029944	0	0	-0.04588759	-0.03318989
4.832195	-0.1569613	0.05029944	0	0	0	0
4.848358	-0.156987	0.05028088	-0.001587577	-0.001148273	-0.04793661	-0.03467193
4.865187	-0.156987	0.05028088	0	0	0.04812022	0.03480472
4.881492	-0.156987	0.05028088	0	0	0	0
4.898073	-0.1567559	0.05003958	0.01393502	-0.01455242	0.4237307	-0.4425043
4.914624	-0.1567559	0.05003958	0	0	-0.42059	0.4392245
4.931377	-0.1567559	0.05003958	0	0	0	0
4.947757	-0.1525683	0.04567511	0.2556603	-0.2664542	7.716177	-8.041951
4.964325	-0.1525683	0.04567511	0	0	-7.759618	8.087227
4.980893	-0.1525683	0.04567511	0	0	0	0
4.997457	-0.131293	0.025757	1.2844	-1.202467	38.76604	-36.29313
5.014301	-0.131293	0.025757	0	0	-38.44513	35.99268
5.030593	-0.131293	0.025757	0	0	0	0
5.092949	-0.07786855	-0.013419	0.8567584	-0.6282589	10.89357	-7.988229
5.109521	-0.07786855	-0.013419	0	0	-10.85487	7.959852
5.143269	-0.0612129	-0.0258419	0.4935347	-0.3681111	9.807986	-7.315451
5.15984	-0.0612129	-0.0258419	0	0	-9.808266	7.315659
5.176406	-0.04917086	-0.03498227	0.7268803	-0.5517297	21.9354	-16.6498
5.19297	-0.04917086	-0.03498227	0	0	-21.93982	16.65315
5.209595	-0.04917086	-0.03498227	0	0	0	0
5.226107	-0.03448632	-0.04812341	0.8893296	-0.7958581	26.83847	-24.01766
5.243141	-0.03448632	-0.04812341	0	0	-26.51077	23.7244
5.259238	-0.03448632	-0.04812341	0	0	0	0
5.27598	-0.05872189	-0.0742568	-1.447571	-1.560926	-44.0798	-47.53158
5.29237	-0.05872189	-0.0742568	0	0	43.69091	47.11224
5.309315	-0.05872189	-0.0742568	0	0	0	0
5.325505	-0.08333288	-0.09338272	-1.520131	-1.181338	-45.87764	-35.65285
5.342072	-0.08333288	-0.09338272	0	0	46.40589	36.06337
5.358839	-0.08333288	-0.09338272	0	0	0	0
5.375203	-0.07933315	-0.1143899	0.2444283	-1.28377	7.377711	-38.74872
5.39177	-0.07933315	-0.1143899	0	0	-7.422365	38.98325
5.408338	-0.07933315	-0.1143899	0	0	0	0
5.424904	-0.07001694	-0.1365403	0.5623601	-1.337082	16.97231	-40.3538
5.441777	-0.07001694	-0.1365403	0	0	-16.81765	39.98609
5.458185	-0.07001694	-0.1365403	0	0	0	0
5.474604	-0.0529767	-0.1494191	1.03784	-0.7843856	31.61509	-23.89425
5.491173	-0.0529767	-0.1494191	0	0	-31.46154	23.7782
5.508672	-0.0529767	-0.1494191	0	0	0	0
5.524304	-0.04126604	-0.1583364	0.7491397	-0.5704491	22.61136	-17.21792
5.540872	-0.04126604	-0.1583364	0	0	-23.26497	17.71562
5.557438	-0.04126604	-0.1583364	0	0	0	0
5.574005	-0.04126604	-0.1583364	0	0	0	0
5.59057	-0.04126604	-0.1583364	0	0	0	0
5.607139	-0.04126604	-0.1583364	0	0	0	0
5.623893	-0.04129231	-0.1583564	-0.001568014	-0.001190019	-0.04705461	-0.03571133
5.640275	-0.04129231	-0.1583564	0	0	0.04732072	0.03591329
5.657015	-0.04129231	-0.1583564	0	0	0	0
5.673404	-0.04131858	-0.1583763	-0.00160296	-0.00121745	-0.0483851	-0.03674852
5.68997	-0.04131858	-0.1583763	0	0	0.04864063	0.0369426
5.706539	-0.04131858	-0.1583763	0	0	0	0
5.723104	-0.04137112	-0.1584162	-0.003171685	-0.002407998	-0.09572301	-0.07267457
5.739671	-0.04137112	-0.1584162	0	0	0.09572715	0.0726777
5.756238	-0.04137112	-0.1584162	0	0	0	0
5.772806	-0.04701795	-0.162748	-0.3408339	-0.2614594	-10.28639	-7.89086
5.789372	-0.04701795	-0.162748	0	0	10.28654	7.890973
5.80627	-0.04701795	-0.162748	0	0	0	0
5.825126	-0.09557633	-0.2001618	-2.575215	-1.984182	-72.02647	-55.49581
5.841696	-0.09557633	-0.2001618	0	0	72.6925	56.00898
5.858701	-0.09557633	-0.2001618	0	0	0	0
5.87483	-0.1299478	-0.2272176	-2.131095	-1.677506	-64.3175	-50.62797
5.891397	-0.1299478	-0.2272176	0	0	65.18048	51.30727
5.908198	-0.1299478	-0.2272176	0	0	0	0
5.924527	-0.1422691	-0.2370599	-0.7545995	-0.6027737	-22.77681	-18.1941
5.941095	-0.1422691	-0.2370599	0	0	22.93825	18.32306
5.957662	-0.1422691	-0.2370599	0	0	0	0
5.974226	-0.1422434	-0.2370805	0.001556248	-0.001248597	0.04697239	-0.03768652
5.990797	-0.1422434	-0.2370805	0	0	-0.04696698	0.03768218
6.007363	-0.1422434	-0.2370805	0	0	0	0
6.024174	-0.1422434	-0.2370805	0	0	0	0
6.040497	-0.1422434	-0.2370805	0	0	0	0
6.057063	-0.1422434	-0.2370805	0	0	0	0
6.073628	-0.1422434	-0.2370805	0	0	0	0
6.090542	-0.1422434	-0.2370805	0	0	0	0
6.106762	-0.1422434	-0.2370805	0	0	0	0
6.12333	-0.1422176	-0.2371012	0.001556879	-0.001248381	0.04748347	-0.03807456
6.139896	-0.1422176	-0.2371012	0	0	-0.04698669	0.03767622
6.156462	-0.1422176	-0.2371012	0	0	0	0
6.17303	-0.1415986	-0.2375977	0.03735789	-0.02996744	1.127496	-0.9044452
6.189632	-0.1415986	-0.2375977	0	0	-1.126264	0.9034571
6.206164	-0.1415986	-0.2375977	0	0	0	0
6.222727	-0.1199477	-0.2549907	1.307226	-1.050144	39.49935	-31.73132
6.239484	-0.1199477	-0.2549907	0	0	-39.23254	31.51699
6.255991	-0.1199477	-0.2549907	0	0	0	0
6.272427	-0.08954933	-0.2795252	1.849544	-1.492765	56.14496	-45.31454
6.289717	-0.08954933	-0.2795252	0	0	-54.83995	44.26127
6.306314	-0.08954933	-0.2795252	0	0	0	0
6.322127	-0.07106434	-0.2945332	1.168984	-0.9490965	36.06899	-29.28436
6.338902	-0.07106434	-0.2945332	0	0	-35.8716	29.12411
6.355263	-0.07106434	-0.2945332	0	0	0	0
6.376156	-0.07054066	-0.2949595	0.02506469	-0.02040636	0.6727993	-0.547758
6.392725	-0.07054066	-0.2949595	0	0	-0.6690825	0.544732
6.409484	-0.07048829	-0.2949169	0.003124733	0.002544597	0.09375684	0.07635
6.425858	-0.07048829	-0.2949169	0	0	-0.09430599	-0.07679719
6.442522	-0.07048829	-0.2949169	0	0	0	0
6.463524	-0.06873366	-0.2934465	0.08354642	0.07001379	2.218123	1.858837
6.480523	-0.06873366	-0.2934465	0	0	-2.198529	-1.842417
6.496661	-0.06873366	-0.2934465	0	0	0	0
6.513232	-0.06873366	-0.2934465	0	0	0	0
6.530384	-0.06873366	-0.2934465	0	0	0	0
6.546358	-0.06875985	-0.2934678	-0.001639508	-0.001333995	-0.04949327	-0.04027048
6.563277	-0.06875985	-0.2934678	0	0	0.0498434	0.04055537
6.579774	-0.06875985	-0.2934678	0	0	0	0
6.596059	-0.06875985	-0.2934678	0	0	0	0
6.612627	-0.06875985	-0.2934678	0	0	0	0
6.629194	-0.06875985	-0.2934678	0	0	0	0
6.645941	-0.06875985	-0.2934678	0	0	0	0
6.662327	-0.06875985	-0.2934678	0	0	0	0
6.67912	-0.06875985	-0.2934678	0	0	0	0
6.69546	-0.06875985	-0.2934678	0	0	0	0
6.712025	-0.06875985	-0.2934678	0	0	0	0
6.728594	-0.06875985	-0.2934678	0	0	0	0
6.745158	-0.06875985	-0.2934678	0	0	0	0
6.761727	-0.06875985	-0.2934678	0	0	0	0
6.778294	-0.06875985	-0.2934678	0	0	0	0
6.794859	-0.06875985	-0.2934678	0	0	0	0
6.811428	-0.06875985	-0.2934678	0	0	0	0
6.82801	-0.06875985	-0.2934678	0	0	0	0
6.844558	-0.06875985	-0.2934678	0	0	0	0
6.861317	-0.06875985	-0.2934678	0	0	0	0
6.877862	-0.06875985	-0.2934678	0	0	0	0
6.89488	-0.06875985	-0.2934678	0	0	0	0
6.910828	-0.06875985	-0.2934678	0	0	0	0
6.927393	-0.06875985	-0.2934678	0	0	0	0
6.944484	-0.06875985	-0.2934678	0	0	0	0
6.960526	-0.06875985	-0.2934678	0	0	0	0
6.977094	-0.06875985	-0.2934678	0	0	0	0
6.993659	-0.06875985	-0.2934678	0	0	0	0
7.010232	-0.06875985	-0.2934678	0	0	0	0
7.027171	-0.06875985	-0.2934678	0	0	0	0
7.044262	-0.06875985	-0.2934678	0	0	0	0
7.059931	-0.06875985	-0.2934678	0	0	0	0
7.076554	-0.06875985	-0.2934678	0	0	0	0
7.093213	-0.06878604	-0.2934465	-0.001572026	0.001279088	-0.0472338	0.03843205
7.110062	-0.06878604	-0.2934465	0	0	0.04691519	-0.03817282
7.126194	-0.06878604	-0.2934465	0	0	0	0
7.145855	-0.06878604	-0.2934465	0	0	0	0
7.162607	-0.06878604	-0.2934465	0	0	0	0
7.178991	-0.06878604	-0.2934465	0	0	0	0
7.195557	-0.06878604	-0.2934465	0	0	0	0
7.212283	-0.06878604	-0.2934465	0	0	0	0
7.228693	-0.06878604	-0.2934465	0	0	0	0
7.245304	-0.06878604	-0.2934465	0	0	0	0
7.261825	-0.06878604	-0.2934465	0	0	0	0
7.278392	-0.06878604	-0.2934465	0	0	0	0
7.294957	-0.06881224	-0.2934251	-0.001581481	0.001286415	-0.04773333	0.03882745
7.311524	-0.06881224	-0.2934251	0	0	0.04773264	-0.03882689
7.32809	-0.06881224	-0.2934251	0	0	0	0
7.344656	-0.06881224	-0.2934678	0	-0.002572609	0	-0.0776493
7.361226	-0.06881224	-0.2934678	0	0	0	0.07763813
7.378514	-0.06881224	-0.2934678	0	0	0	0
7.394359	-0.06881224	-0.2934678	0	0	0	0
7.410925	-0.06881224	-0.2934678	0	0	0	0
7.428047	-0.06881224	-0.2934678	0	0	0	0
7.444055	-0.06881224	-0.2934678	0	0	0	0
7.460625	-0.06881224	-0.2934678	0	0	0	0
7.477207	-0.06881224	-0.2934678	0	0	0	0
7.493758	-0.06881224	-0.2934678	0	0	0	0
7.510748	-0.06881224	-0.2934678	0	0	0	0
7.527086	-0.06881224	-0.2934678	0	0	0	0
7.543644	-0.06881224	-0.2934678	0	0	0	0
7.560024	-0.06881224	-0.2934678	0	0	0	0
7.576599	-0.06881224	-0.2934678	0	0	0	0
7.593336	-0.06881224	-0.2934678	0	0	0	0
7.609724	-0.06881224	-0.2934678	0	0	0	0
7.626291	-0.06881224	-0.2934678	0	0	0	0
7.64292	-0.06881224	-0.2934678	0	0	0	0
7.659573	-0.06881224	-0.2934678	0	0	0	0
7.676645	-0.06881224	-0.2934678	0	0	0	0
7.692556	-0.06883842	-0.2934465	-0.001645994	0.001339272	-0.04990385	0.04060455
7.709667	-0.06883842	-0.2934465	0	0	0.0498462	-0.04055765
7.726345	-0.06883842	-0.2934465	0	0	0	0
7.742259	-0.06883842	-0.2934465	0	0	0	0
7.758825	-0.06883842	-0.2934465	0	0	0	0
7.775391	-0.06883842	-0.2934465	0	0	0	0
7.791958	-0.06889081	-0.2934038	-0.003161876	0.002572312	-0.09542972	0.0776359
7.808857	-0.06889081	-0.2934038	0	0	0.09447794	-0.07686158
7.825367	-0.06889081	-0.2934038	0	0	0	0
7.841863	-0.068917	-0.2933826	-0.001587567	0.001289926	-0.04809976	0.03908191
7.858227	-0.068917	-0.2933826	0	0	0.04831334	-0.03925545
7.874792	-0.068917	-0.2933826	0	0	0	0
7.891358	-0.06889081	-0.2934038	0.001580895	-0.001284505	0.04771631	-0.03877036
7.907927	-0.06889081	-0.2934038	0	0	-0.04771151	0.03876645
7.924492	-0.06889081	-0.2934038	0	0	0	0
7.941056	-0.06889081	-0.2934038	0	0	0	0
7.957624	-0.06889081	-0.2934038	0	0	0	0
7.974192	-0.06889081	-0.2934038	0	0	0	0
7.990773	-0.06889081	-0.2934038	0	0	0	0
8.007463	-0.06889081	-0.2934038	0	0	0	0
8.023891	-0.06889081	-0.2934038	0	0	0	0
8.040722	-0.06886462	-0.2934251	0.001556037	-0.001266078	0.04678488	-0.03806679
8.057026	-0.06886462	-0.2934251	0	0	-0.04696128	0.03821032
8.073823	-0.06886462	-0.2934251	0	0	0	0
8.094264	-0.06886462	-0.2934251	0	0	0	0
8.110834	-0.06886462	-0.2934251	0	0	0	0
8.127422	-0.06889081	-0.2934038	-0.001578759	0.001284566	-0.04761279	0.03874042
8.143968	-0.06889081	-0.2934038	0	0	0.04764842	-0.03876941
8.160532	-0.06889081	-0.2934038	0	0	0	0
8.177098	-0.06889081	-0.2934038	0	0	0	0
8.193666	-0.06889081	-0.2934038	0	0	0	0
8.210235	-0.06889081	-0.2934038	0	0	0	0
8.226801	-0.06889081	-0.2934038	0	0	0	0
8.243367	-0.06889081	-0.2934038	0	0	0	0
8.259933	-0.06889081	-0.2934038	0	0	0	0
8.276497	-0.06889081	-0.2934038	0	0	0	0
8.293236	-0.06889081	-0.2934038	0	0	0	0
8.309688	-0.06889081	-0.2934038	0	0	0	0
8.3262	-0.06889081	-0.2934038	0	0	0	0
8.342978	-0.06889081	-0.2934038	0	0	0	0
8.359335	-0.06889081	-0.2934038	0	0	0	0
8.37595	-0.06889081	-0.2934038	0	0	0	0
8.392468	-0.06889081	-0.2934038	0	0	0	0
8.409307	-0.06889081	-0.2934038	0	0	0	0
8.425602	-0.06889081	-0.2934038	0	0	0	0
8.442168	-0.06889081	-0.2934038	0	0	0	0
8.458735	-0.06889081	-0.2934038	0	0	0	0
8.476269	-0.06889081	-0.2934038	0	0	0	0
8.492837	-0.06889081	-0.2934038	0	0	0	0
8.50985	-0.06889081	-0.2934038	0	0	0	0
8.526373	-0.06889081	-0.2934038	0	0	0	0
8.542539	-0.06889081	-0.2934038	0	0	0	0
8.559106	-0.06889081	-0.2934038	0	0	0	0
8.575675	-0.068917	-0.2933826	-0.001580577	0.001284247	-0.04769915	0.03875641
8.592239	-0.068917	-0.2933826	0	0	0.04770327	-0.03875975
8.609078	-0.068917	-0.2933826	0	0	0	0
8.62537	-0.068917	-0.2933826	0	0	0	0
8.642097	-0.068917	-0.2933826	0	0	0	0
8.658792	-0.068917	-0.2933826	0	0	0	0
8.67507	-0.068917	-0.2933826	0	0	0	0
8.691745	-0.068917	-0.2933826	0	0	0	0
8.708363	-0.068917	-0.2933826	0	0	0	0
8.724771	-0.06889081	-0.2934038	0.001596009	-0.001296786	0.04832483	-0.03926478
8.741339	-0.06889081	-0.2934038	0	0	-0.0483989	0.03932497
8.757905	-0.06889081	-0.2934038	0	0	0	0
8.774471	-0.06889081	-0.2934038	0	0	0	0
8.791039	-0.06889081	-0.2934038	0	0	0	0
8.80807	-0.06889081	-0.2934038	0	0	0	0
8.824171	-0.06889081	-0.2934038	0	0	0	0
8.840737	-0.06889081	-0.2934038	0	0	0	0
8.857305	-0.06889081	-0.2934038	0	0	0	0
8.873869	-0.06896938	-0.2933399	-0.004743544	0.003857447	-0.1431728	0.116428
8.890439	-0.06896938	-0.2933399	0	0	0.1431604	-0.116418
8.907005	-0.06896938	-0.2933399	0	0	0	0
8.923629	-0.06910034	-0.2932335	-0.007877489	0.006405613	-0.2373469	0.1929996
8.940167	-0.06910034	-0.2932335	0	0	0.2375448	-0.1931606
8.956704	-0.06910034	-0.2932335	0	0	0	0
8.973703	-0.06910034	-0.2932335	0	0	0	0
8.989915	-0.06910034	-0.2932335	0	0	0	0
9.006405	-0.06910034	-0.2932335	0	0	0	0
9.022972	-0.06910034	-0.2932335	0	0	0	0
9.039784	-0.06910034	-0.2932335	0	0	0	0
9.056316	-0.06910034	-0.2932335	0	0	0	0
9.078733	-0.06910034	-0.2932335	0	0	0	0
9.096025	-0.06910034	-0.2932335	0	0	0	0
9.111867	-0.06907415	-0.2932547	0.001653078	-0.001343156	0.04989144	-0.04053768
9.128437	-0.06907415	-0.2932547	0	0	-0.05100121	0.04143939
9.145003	-0.06907415	-0.2932547	0	0	0	0
9.168762	-0.06904795	-0.293276	0.001102587	-0.0008968711	0.02734241	-0.02224098
9.185332	-0.06904795	-0.293276	0	0	-0.02733982	0.02223887
9.202025	-0.06904795	-0.293276	0	0	0	0
9.218465	-0.06904795	-0.293276	0	0	0	0
9.235478	-0.06904795	-0.293276	0	0	0	0
9.251595	-0.06904795	-0.2933187	0	-0.002644231	0	-0.07981224
9.268166	-0.06904795	-0.2933187	0	0	0	0.08089503
9.284732	-0.06904795	-0.2933187	0	0	0	0
9.301296	-0.06904795	-0.2933187	0	0	0	0
9.318697	-0.06904795	-0.2933187	0	0	0	0
9.334431	-0.06904795	-0.2933187	0	0	0	0
9.350997	-0.06902176	-0.2933399	0.00158085	-0.001284468	0.04894271	-0.03976683
9.367565	-0.06902176	-0.2933399	0	0	-0.04771013	0.03876533
9.384131	-0.06902176	-0.2933399	0	0	0	0
9.400698	-0.06902176	-0.2933399	0	0	0	0
9.41734	-0.06902176	-0.2933399	0	0	0	0
9.433846	-0.06902176	-0.2933399	0	0	0	0
9.450396	-0.06904795	-0.2933187	-0.001582398	0.001285727	-0.04787123	0.03889623
9.466963	-0.06904795	-0.2933187	0	0	0.04778163	-0.03882342
9.483529	-0.06904795	-0.2933187	0	0	0	0
9.500094	-0.06904795	-0.2933187	0	0	0	0
9.516664	-0.06904795	-0.2933187	0	0	0	0
9.533623	-0.06904795	-0.2933187	0	0	0	0
9.549796	-0.06904795	-0.2933187	0	0	0	0
9.567182	-0.06904795	-0.2933187	0	0	0	0
9.582932	-0.06904795	-0.2933187	0	0	0	0
9.599704	-0.06904795	-0.2933187	0	0	0	0
9.616061	-0.06904795	-0.2933187	0	0	0	0
9.632738	-0.06904795	-0.2933187	0	0	0	0
9.649196	-0.06907415	-0.2932547	-0.001591745	0.003884293	-0.04803897	0.1172282
9.665763	-0.06907415	-0.2932547	0	0	0.04819851	-0.1176175
9.682677	-0.06907415	-0.2932547	0	0	0	0
9.698897	-0.0691789	-0.2930844	-0.006458358	0.01050425	-0.1949136	0.3170188
9.715462	-0.0691789	-0.2930844	0	0	0.1969945	-0.3204032
9.732029	-0.0691789	-0.2930844	0	0	0	0
9.748712	-0.06930985	-0.2929353	-0.007849569	0.008935717	-0.2360783	0.2687445
9.765162	-0.06930985	-0.2929353	0	0	0.2369073	-0.2696882
9.781738	-0.06930985	-0.2929353	0	0	0	0
9.798295	-0.0691789	-0.2930418	0.00790925	-0.006431441	0.2387154	-0.1941124
9.814863	-0.0691789	-0.2930418	0	0	-0.2387704	0.1941572
9.83143	-0.0691789	-0.2930418	0	0	0	0
9.851891	-0.06855032	-0.293553	0.03072234	-0.02498514	0.8297201	-0.6747752
9.868461	-0.06855032	-0.293553	0	0	-0.829656	0.674723
9.885025	-0.06268094	-0.2983311	0.3543378	-0.2884575	10.69393	-8.705665
9.901869	-0.06268094	-0.2983311	0	0	-10.60632	8.634342
9.918289	-0.06268094	-0.2983311	0	0	0	0
9.934859	-0.02641491	-0.3280742	2.188644	-1.794991	66.34173	-54.4094
9.951294	-0.02641491	-0.3280742	0	0	-66.31297	54.38582
9.968182	-0.02641491	-0.3280742	0	0	0	0
9.984427	0.01086799	-0.358869	2.294919	-1.895546	69.2628	-57.20934
10.001	0.01086799	-0.358869	0	0	-69.93715	57.76633
10.01786	0.01086799	-0.358869	0	0	0	0
10.03412	0.03782406	-0.3808051	1.657313	-1.348677	50.02646	-40.71018
10.05152	0.03782406	-0.3808051	0	0	-49.23977	40.07
10.06726	0.03782406	-0.3808051	0	0	0	0
10.08383	0.07355129	-0.405711	2.156376	-1.503238	66.73723	-46.52339
10.1007	0.07355129	-0.405711	0	0	-64.48746	44.95505
10.11698	0.07355129	-0.405711	0	0	0	0
10.13353	0.1116651	-0.4383917	2.303208	-1.97488	70.1571	-60.15606
10.15082	0.1116651	-0.4383917	0	0	-68.05558	58.35411
10.16666	0.1116651	-0.4383917	0	0	0	0
10.18323	0.1376245	-0.461868	1.56718	-1.417283	48.36528	-43.73925
10.19998	0.1376245	-0.461868	0	0	-47.03899	42.53982
10.21708	0.1376245	-0.461868	0	0	0	0
10.23293	0.1582704	-0.4582747	1.302652	0.2267247	39.53717	6.881384
10.2495	0.1582704	-0.4582747	0	0	-40.18269	-6.993736
10.26668	0.1582704	-0.4582747	0	0	0	0
10.28263	0.1865425	-0.4322337	1.773481	1.633519	53.52991	49.30538
10.29919	0.1865425	-0.4322337	0	0	-54.55218	-50.24697
10.31576	0.1865425	-0.4322337	0	0	0	0
10.33233	0.1946359	-0.4247627	0.4885486	0.4509779	14.74443	13.61054
10.3489	0.1946359	-0.4247627	0	0	-14.74528	-13.61132
10.36546	0.1946359	-0.4247627	0	0	0	0
10.38203	0.1978004	-0.4218815	0.191017	0.1739213	5.76507	5.249107
10.39867	0.1978004	-0.4218815	0	0	-5.752322	-5.2375
10.41516	0.1978004	-0.4218815	0	0	0	0
10.43173	0.2158474	-0.4051643	1.089381	1.009106	32.95252	30.5243
10.44842	0.2158474	-0.4051643	0	0	-32.75409	-30.34049
10.465	0.2158474	-0.4051643	0	0	0	0
10.48153	0.2212393	-0.4002301	0.3261331	0.2984487	9.848954	9.012906
10.49817	0.2212393	-0.4002301	0	0	-9.831964	-8.997358
10.51456	0.2212393	-0.4002301	0	0	0	0
10.53113	0.2212393	-0.4002301	0	0	0	0
10.5477	0.2212393	-0.4002301	0	0	0	0
10.56427	0.2212393	-0.4002301	0	0	0	0
10.58128	0.2211642	-0.4002074	-0.004418103	0.001335156	-0.1315664	0.03975952
10.59803	0.2211642	-0.4002074	0	0	0.1308455	-0.03954166
10.61397	0.2211642	-0.4002074	0	0	0	0
10.63053	0.2210389	-0.4000939	-0.007561964	0.006851287	-0.2327012	0.2108318
10.64715	0.2210389	-0.4000939	0	0	0.2279122	-0.2064929
10.66368	0.2210389	-0.4000939	0	0	0	0
10.68023	0.2208886	-0.4000031	-0.009080973	0.005486215	-0.2744514	0.1658081
10.6968	0.2208886	-0.4000031	0	0	0.2741669	-0.1656363
10.71337	0.2208886	-0.4000031	0	0	0	0
10.73059	0.2208134	-0.399935	-0.004363785	0.003954491	-0.1291603	0.1170459
10.7465	0.2208134	-0.399935	0	0	0.1317107	-0.1193571
10.76307	0.2208134	-0.399935	0	0	0	0
10.78136	0.2207132	-0.3998442	-0.005478198	0.004961817	-0.1571458	0.142333
10.7987	0.2207132	-0.3998442	0	0	0.1537185	-0.1392288
10.81478	0.2207132	-0.3998442	0	0	0	0
10.83121	0.220613	-0.3997988	-0.006098755	0.00276194	-0.1875919	0.08495465
10.84763	0.220613	-0.3997988	0	0	0.1856585	-0.08407908
10.8642	0.220613	-0.3997988	0	0	0	0
10.88076	0.2204376	-0.39964	-0.01058758	0.009590889	-0.3195614	0.2894786
10.89747	0.2204376	-0.39964	0	0	0.3182332	-0.2882754
10.91406	0.2204376	-0.39964	0	0	0	0
10.93265	0.2190089	-0.3983923	-0.07682773	0.06708814	-2.183427	1.90663
10.94922	0.2190089	-0.3983923	0	0	2.18467	-1.907716
10.96579	0.2190089	-0.3983923	0	0	0	0
10.98236	0.2179806	-0.3975083	-0.06206557	0.05336353	-1.873197	1.610561
10.99912	0.2179806	-0.3975083	0	0	1.862102	-1.601022
11.01549	0.2179806	-0.3975083	0	0	0	0
11.03205	0.2178301	-0.3974176	-0.009085725	0.005470684	-0.2758672	0.1661047
11.04862	0.2178301	-0.3974176	0	0	0.2742156	-0.1651103
11.0652	0.2178301	-0.3974176	0	0	0	0
11.08175	0.217805	-0.3974403	-0.001515435	-0.001367851	-0.04573856	-0.04128421
11.09836	0.217805	-0.3974403	0	0	0.04569515	0.04124503
11.11491	0.217805	-0.3974403	0	0	0	0
11.13145	0.2177799	-0.3974176	-0.001515932	0.001369113	-0.0458063	0.04136992
11.14804	0.2177799	-0.3974176	0	0	0.04576278	-0.04133061
11.16533	0.2177799	-0.3974176	0	0	0	0
11.18682	0.2177047	-0.397395	-0.003502813	0.001054103	-0.09031808	0.02717947
11.20339	0.2177047	-0.397395	0	0	0.09204043	-0.02769777
11.21995	0.2176545	-0.3973497	-0.003028924	0.002736557	-0.0914131	0.08258944
11.23654	0.2176545	-0.3973497	0	0	0.09135788	-0.08253955
11.25312	0.2176545	-0.3973497	0	0	0	0
11.27001	0.2175792	-0.3972817	-0.004456345	0.004024915	-0.1331704	0.1202779
11.28622	0.2175792	-0.3972817	0	0	0.134609	-0.1215772
11.30279	0.2175792	-0.3972817	0	0	0	0
11.31946	0.2174036	-0.3971684	-0.01053494	0.006796276	-0.3169509	0.2044705
11.33611	0.2174036	-0.3971684	0	0	0.3161798	-0.2039731
11.35249	0.2174036	-0.3971684	0	0	0	0
11.36916	0.2169017	-0.3967153	-0.0301119	0.02718215	-0.9111916	0.8225371
11.38601	0.2169017	-0.3967153	0	0	0.8984098	-0.8109989
11.40219	0.2169017	-0.3967153	0	0	0	0
11.41876	0.2085795	-0.3892359	-0.5023549	0.4514816	-15.33857	13.78524
11.43532	0.2085795	-0.3892359	0	0	15.16197	-13.62653
11.45189	0.2085795	-0.3892359	0	0	0	0
11.46845	0.1810991	-0.3649635	-1.659008	1.465339	-50.07473	44.2291
11.48502	0.1810991	-0.3649635	0	0	50.07041	-44.22528
11.50159	0.1810991	-0.3649635	0	0	0	0
11.51816	0.1630911	-0.3493842	-1.087155	0.9405298	-32.81229	28.38688
11.53473	0.1630911	-0.3493842	0	0	32.81135	-28.38606
11.55182	0.1630911	-0.3493842	0	0	0	0
11.56795	0.1561397	-0.3434342	-0.4308721	0.3688025	-12.96754	11.09949
11.58442	0.1561397	-0.3434342	0	0	13.21484	-11.31116
11.60099	0.1561397	-0.3434342	0	0	0	0
11.61756	0.1507939	-0.3388816	-0.322708	0.2748273	-9.739907	8.294782
11.63412	0.1507939	-0.3388816	0	0	9.739907	-8.294782
11.65069	0.1507939	-0.3388816	0	0	0	0
11.66726	0.1309826	-0.3224793	-1.19602	0.9902179	-36.09907	29.88741
11.68383	0.1309826	-0.3224793	0	0	36.09076	-29.88054
11.70039	0.1309826	-0.3224793	0	0	0	0
11.71696	0.1088574	-0.309816	-1.335478	0.7643586	-40.31408	23.0737
11.73365	0.1088574	-0.309816	0	0	40.14995	-22.97976
11.75009	0.1088574	-0.309816	0	0	0	0
11.76666	0.09951232	-0.3025437	-0.5640727	0.4389571	-17.09064	13.29981
11.78322	0.09951232	-0.3025437	0	0	17.02424	-13.24813
11.80015	0.09951232	-0.3025437	0	0	0	0
11.81676	0.09893905	-0.3030148	-0.03451874	-0.02836439	-1.029276	-0.8457663
11.83333	0.09893905	-0.3030148	0	0	1.04043	0.8549317
11.91423	0.09893905	-0.3030148	0	0	0	0
11.9359	0.03559023	-0.3555984	-2.923039	-2.426311	-28.49784	-23.65504
11.95247	0.03559023	-0.3555984	0	0	76.43462	63.44566
11.96903	0.02920222	-0.3609718	-0.3856918	-0.3244371	-11.64087	-9.792096
11.9856	0.02920222	-0.3609718	0	0	11.64154	9.79266
12.00217	0.02920222	-0.3609718	0	0	0	0
12.01873	0.0284397	-0.3616143	-0.04603399	-0.03878498	-1.389349	-1.170567
12.0353	0.0284397	-0.3616143	0	0	1.389389	1.1706
12.05187	0.0284397	-0.3616143	0	0	0	0
12.06843	0.02838711	-0.36157	-0.0031747	0.00267523	-0.0958209	0.08074559
12.08508	0.02838711	-0.36157	0	0	0.09558154	-0.08054388
12.10157	0.02838711	-0.36157	0	0	0	0
12.11814	0.02801898	-0.3613041	-0.02222151	0.01604866	-0.6723299	0.4855653
12.1347	0.02801898	-0.3613041	0	0	0.6706657	-0.4843634
12.15127	0.02801898	-0.3613041	0	0	0	0
12.16815	0.01789283	-0.3527969	-0.6000251	0.5040917	-17.94148	15.07296
12.1844	0.01789283	-0.3527969	0	0	18.10931	-15.21395
12.20097	0.01789283	-0.3527969	0	0	0	0
12.21754	-0.002605257	-0.3357588	-1.237409	1.028542	-37.34723	31.04326
12.2341	-0.002605257	-0.3357588	0	0	37.34723	-31.04326
12.25067	-0.002605257	-0.3357588	0	0	0	0
12.26753	-0.0121573	-0.327857	-0.5665821	0.4686952	-16.95068	14.02216
12.2838	-0.0121573	-0.327857	0	0	17.09948	-14.14525
12.30049	-0.0121573	-0.327857	0	0	0	0
12.31694	-0.01242041	-0.3276399	-0.01599788	0.01320415	-0.4828447	0.3985249
12.33391	-0.01242041	-0.3276399	0	0	0.4786427	-0.3950568
12.35007	-0.01242041	-0.3276399	0	0	0	0
12.36705	-0.0123941	-0.3276616	0.001549643	-0.001279558	0.04676563	-0.03861491
12.3832	-0.0123941	-0.3276616	0	0	-0.04676966	0.03861825
12.40058	-0.0123941	-0.3276616	0	0	0	0
12.41634	-0.01242041	-0.3276399	-0.001669986	0.001378927	-0.05040174	0.04161729
12.4329	-0.01242041	-0.3276399	0	0	0.05166728	-0.04266227
12.44947	-0.01242041	-0.3276399	0	0	0	0
12.46616	-0.01242041	-0.3276399	0	0	0	0
12.4826	-0.01242041	-0.3276399	0	0	0	0
12.49917	-0.01242041	-0.3276399	0	0	0	0
12.51574	-0.01244673	-0.3276182	-0.001588179	0.001309579	-0.04793271	0.0395243
12.5323	-0.01244673	-0.3276182	0	0	0.04793271	-0.0395243
12.54887	-0.01244673	-0.3276182	0	0	0	0
12.56544	-0.01244673	-0.3276182	0	0	0	0
12.58214	-0.01244673	-0.3276182	0	0	0	0
12.59929	-0.01244673	-0.3276182	0	0	0	0
12.61531	-0.01247304	-0.3275965	-0.001642253	0.001356027	-0.04951055	0.04088143
12.63198	-0.01247304	-0.3275965	0	0	0.05024441	-0.04148738
12.64827	-0.01247304	-0.3275965	0	0	0	0
12.66484	-0.01247304	-0.3275965	0	0	0	0
12.6814	-0.01247304	-0.3275965	0	0	0	0
12.69797	-0.01247304	-0.3275965	0	0	0	0
12.71454	-0.01247304	-0.3275965	0	0	0	0
12.7311	-0.01247304	-0.3275965	0	0	0	0
12.74767	-0.01247304	-0.3275965	0	0	0	0
12.76466	-0.01247304	-0.3275965	0	0	0	0
12.78166	-0.01247304	-0.3275965	0	0	0	0
12.79737	-0.01247304	-0.3275965	0	0	0	0
12.81422	-0.01247304	-0.3275965	0	0	0	0
12.8305	-0.01247304	-0.3275965	0	0	0	0
12.84775	-0.01247304	-0.3275965	0	0	0	0
12.8638	-0.01244673	-0.3276182	0.001640007	-0.001354173	0.04925734	-0.04067235
12.88052	-0.01244673	-0.3276182	0	0	-0.0500545	0.04133057
12.89677	-0.01244673	-0.3276182	0	0	0	0
12.91334	-0.01244673	-0.3276182	0	0	0	0
12.92991	-0.01244673	-0.3276182	0	0	0	0
12.94667	-0.01244673	-0.3276182	0	0	0	0
12.96321	-0.01244673	-0.3276182	0	0	0	0
12.97991	-0.01244673	-0.3276182	0	0	0	0
12.99617	-0.01244673	-0.3276182	0	0	0	0
13.01276	-0.01244673	-0.3276182	0	0	0	0
13.02931	-0.01244673	-0.3276182	0	0	0	0
13.04622	-0.01244673	-0.3276182	0	0	0	0
13.06574	-0.01244673	-0.3276182	0	0	0	0
13.08275	-0.01244673	-0.3276182	0	0	0	0
13.09888	-0.01244673	-0.3276182	0	0	0	0
13.11576	-0.01244673	-0.3276616	0	-0.002572532	0	-0.07793527
13.13201	-0.01244673	-0.3276616	0	0	0	0.07764588
13.14948	-0.01244673	-0.3276616	0	0	0	0
13.16514	-0.01244673	-0.3276616	0	0	0	0
13.18171	-0.01244673	-0.3276616	0	0	0	0
13.19828	-0.01244673	-0.3276616	0	0	0	0
13.21484	-0.01244673	-0.3276616	0	0	0	0
13.23146	-0.01244673	-0.3276616	0	0	0	0
13.24865	-0.01244673	-0.3276616	0	0	0	0
13.26778	-0.01244673	-0.3276616	0	0	0	0
13.28439	-0.01244673	-0.3276616	0	0	0	0
13.30111	-0.01244673	-0.3276616	0	0	0	0
13.31968	-0.01244673	-0.3276616	0	0	0	0
13.33626	-0.01244673	-0.3276616	0	0	0	0
13.35281	-0.01244673	-0.3276616	0	0	0	0
13.36938	-0.01244673	-0.3276616	0	0	0	0
13.38599	-0.01244673	-0.3276616	0	0	0	0
13.4026	-0.01244673	-0.3276616	0	0	0	0
13.41908	-0.01244673	-0.3276616	0	0	0	0
13.43565	-0.01244673	-0.3276616	0	0	0	0
13.45222	-0.01244673	-0.3276616	0	0	0	0
13.4695	-0.01242041	-0.3276833	0.001522114	-0.001256827	0.04495922	-0.03712335
13.48535	-0.01242041	-0.3276833	0	0	-0.04594015	0.0379333
13.50191	-0.01242041	-0.3276833	0	0	0	0
13.51848	-0.01242041	-0.3276833	0	0	0	0
13.53505	-0.01242041	-0.3276833	0	0	0	0
13.55182	-0.01242041	-0.3276833	0	0	0	0
13.56818	-0.01242041	-0.3276833	0	0	0	0
13.58475	-0.01242041	-0.3276833	0	0	0	0
13.60131	-0.01242041	-0.3276833	0	0	0	0
13.61825	-0.01242041	-0.3276833	0	0	0	0
13.63445	-0.01242041	-0.3276833	0	0	0	0
13.65101	-0.01242041	-0.3276833	0	0	0	0
13.66758	-0.01242041	-0.3276833	0	0	0	0
13.68415	-0.01242041	-0.3276833	0	0	0	0
13.70071	-0.01242041	-0.3276833	0	0	0	0
13.71728	-0.01242041	-0.3276833	0	0	0	0
13.73385	-0.01242041	-0.3276833	0	0	0	0
13.75041	-0.01242041	-0.3276833	0	0	0	0
13.76698	-0.01244673	-0.327705	-0.001588088	-0.001309503	-0.04792996	-0.03952202
13.78355	-0.01244673	-0.327705	0	0	0.04792858	0.03952089
13.80011	-0.01244673	-0.327705	0	0	0	0
13.81681	-0.01244673	-0.327705	0	0	0	0
13.83325	-0.01244673	-0.327705	0	0	0	0
13.85002	-0.01244673	-0.327705	0	0	0	0
13.86638	-0.01244673	-0.327705	0	0	0	0
13.88295	-0.01244673	-0.327705	0	0	0	0
13.89977	-0.01244673	-0.327705	0	0	0	0
13.92382	-0.01244673	-0.327705	0	0	0	0
13.94039	-0.01244673	-0.327705	0	0	0	0
13.95738	-0.01244673	-0.327705	0	0	0	0
13.97352	-0.01244673	-0.327705	0	0	0	0
13.99009	-0.01244673	-0.327705	0	0	0	0
14.00665	-0.01244673	-0.327705	0	0	0	0
14.02322	-0.01244673	-0.327705	0	0	0	0
14.03978	-0.01244673	-0.327705	0	0	0	0
14.05635	-0.01244673	-0.327705	0	0	0	0
14.07292	-0.01244673	-0.327705	0	0	0	0
14.08955	-0.01244673	-0.327705	0	0	0	0
14.10608	-0.01244673	-0.327705	0	0	0	0
14.12291	-0.01244673	-0.327705	0	0	0	0
14.13918	-0.01244673	-0.327705	0	0	0	0
14.15575	-0.01244673	-0.327705	0	0	0	0
14.17232	-0.01244673	-0.327705	0	0	0	0
14.18891	-0.01244673	-0.327705	0	0	0	0
14.20545	-0.01244673	-0.327705	0	0	0	0
14.22202	-0.01244673	-0.327705	0	0	0	0
14.2391	-0.01244673	-0.327705	0	0	0	0
14.2552	-0.01244673	-0.327705	0	0	0	0
14.27192	-0.01244673	-0.327705	0	0	0	0
14.28829	-0.01244673	-0.327705	0	0	0	0
14.30485	-0.01244673	-0.327705	0	0	0	0
14.32142	-0.01244673	-0.327705	0	0	0	0
14.33828	-0.01244673	-0.327705	0	0	0	0
14.35455	-0.01244673	-0.327705	0	0	0	0
14.37141	-0.01244673	-0.327705	0	0	0	0
14.38769	-0.01244673	-0.327705	0	0	0	0
14.40425	-0.01244673	-0.327705	0	0	0	0
14.42094	-0.01244673	-0.327705	0	0	0	0
14.43739	-0.01244673	-0.327705	0	0	0	0
14.4541	-0.01244673	-0.327705	0	0	0	0
14.47056	-0.01244673	-0.327705	0	0	0	0
14.48709	-0.01244673	-0.327705	0	0	0	0
14.50365	-0.01244673	-0.327705	0	0	0	0
14.52022	-0.01244673	-0.327705	0	0	0	0
14.53716	-0.01244673	-0.327705	0	0	0	0
14.55335	-0.01244673	-0.327705	0	0	0	0
14.56992	-0.01244673	-0.327705	0	0	0	0
14.58649	-0.01244673	-0.327705	0	0	0	0
14.60484	-0.01244673	-0.327705	0	0	0	0
14.62141	-0.01244673	-0.327705	0	0	0	0
14.63797	-0.01244673	-0.327705	0	0	0	0
14.65454	-0.01244673	-0.327705	0	0	0	0
14.67111	-0.01244673	-0.327705	0	0	0	0
14.68804	-0.01244673	-0.327705	0	0	0	0
14.70424	-0.01244673	-0.327705	0	0	0	0
14.72081	-0.01244673	-0.327705	0	0	0	0
14.73773	-0.01244673	-0.327705	0	0	0	0
14.75468	-0.01244673	-0.327705	0	0	0	0
14.77057	-0.01244673	-0.327705	0	0	0	0
14.78708	-0.01244673	-0.327705	0	0	0	0
14.80364	-0.01244673	-0.327705	0	0	0	0
14.82023	-0.01244673	-0.327705	0	0	0	0
14.83677	-0.01244673	-0.327705	0	0	0	0
14.85334	-0.01244673	-0.327705	0	0	0	0
14.86991	-0.01244673	-0.327705	0	0	0	0
14.88647	-0.01244673	-0.327705	0	0	0	0
14.90304	-0.01247304	-0.3277268	-0.001588362	-0.001311528	-0.04793961	-0.03958429
14.91961	-0.01247304	-0.3277268	0	0	0.04793824	0.03958315
14.93617	-0.01247304	-0.3277268	0	0	0	0
14.95274	-0.01247304	-0.3277268	0	0	0	0
14.96931	-0.01247304	-0.3277268	0	0	0	0
14.98663	-0.01247304	-0.3277268	0	0	0	0
15.00245	-0.01247304	-0.3277268	0	0	0	0
15.01903	-0.01247304	-0.3277268	0	0	0	0
15.03557	-0.01247304	-0.3277268	0	0	0	0
15.05214	-0.01247304	-0.3277268	0	0	0	0
15.06871	-0.01247304	-0.3277268	0	0	0	0
15.08527	-0.01247304	-0.3277268	0	0	0	0
15.10184	-0.01247304	-0.3277268	0	0	0	0
15.11864	-0.01247304	-0.3277268	0	0	0	0
15.13498	-0.01247304	-0.3277268	0	0	0	0
15.15154	-0.01247304	-0.3277268	0	0	0	0
15.16811	-0.01247304	-0.3277268	0	0	0	0
15.18468	-0.01247304	-0.3277268	0	0	0	0
15.20124	-0.01247304	-0.3277268	0	0	0	0
15.2182	-0.01247304	-0.3277268	0	0	0	0
15.23438	-0.01247304	-0.3277268	0	0	0	0
15.25123	-0.01247304	-0.3277268	0	0	0	0
15.26751	-0.01247304	-0.3277268	0	0	0	0
15.28426	-0.01247304	-0.3277268	0	0	0	0
15.30076	-0.01247304	-0.3277268	0	0	0	0
15.31721	-0.01247304	-0.3277268	0	0	0	0
15.33428	-0.01247304	-0.3277268	0	0	0	0
15.35034	-0.01247304	-0.3277702	0	-0.002703756	0	-0.08160891
15.36691	-0.01247304	-0.3277702	0	0	0	0.08286355
15.38382	-0.01247304	-0.3277702	0	0	0	0
15.40035	-0.01255197	-0.3278353	-0.004774706	-0.003940727	-0.1427777	-0.1178393
15.41661	-0.01255197	-0.3278353	0	0	0.1456139	0.1201801
15.43318	-0.01255197	-0.3278353	0	0	0	0
15.44974	-0.01255197	-0.3278353	0	0	0	0
15.46631	-0.01255197	-0.3278353	0	0	0	0
15.4829	-0.01255197	-0.3278353	0	0	0	0
15.49944	-0.01257828	-0.327857	-0.001590651	-0.001313419	-0.04801147	-0.03964362
15.51601	-0.01257828	-0.327857	0	0	0.04803913	0.03966646
15.53294	-0.01257828	-0.327857	0	0	0	0
15.54914	-0.01255197	-0.3278353	0.001624174	0.001341099	0.04901908	0.04047561
15.56596	-0.01255197	-0.3278353	0	0	-0.04919608	-0.04062176
15.58247	-0.01255197	-0.3278353	0	0	0	0
15.599	-0.01255197	-0.3278353	0	0	0	0
15.61541	-0.01255197	-0.3278353	0	0	0	0
15.63198	-0.01255197	-0.3278353	0	0	0	0
15.64854	-0.0126046	-0.3277919	-0.003176667	0.002621258	-0.09587753	0.07911427
15.66511	-0.0126046	-0.3277919	0	0	0.09587753	-0.07911427
15.68168	-0.0126046	-0.3277919	0	0	0	0
15.69824	-0.01415695	-0.3264242	-0.09370565	0.08255678	-2.828205	2.491712
15.71481	-0.01415695	-0.3264242	0	0	2.828205	-2.491712
15.73159	-0.01415695	-0.3264242	0	0	0	0
15.7481	-0.02546818	-0.3168591	-0.6851133	0.5793525	-20.57962	17.40275
15.76451	-0.02546818	-0.3168591	0	0	20.81214	-17.59937
15.78112	-0.02546818	-0.3168591	0	0	0	0
15.79764	-0.0502209	-0.2935317	-1.497784	1.411543	-45.20452	42.60167
15.81421	-0.0502209	-0.2935317	0	0	45.26054	-42.65446
15.83116	-0.0502209	-0.2935317	0	0	0	0
15.84734	-0.05557429	-0.2536136	-0.3307864	2.466535	-9.983441	74.44231
15.86391	-0.05557429	-0.2536136	0	0	10.10001	-75.31155
15.88048	-0.05557429	-0.2536136	0	0	0	0
15.89704	-0.0284397	-0.2063073	1.637942	2.855581	49.4346	86.18409
15.91373	-0.0284397	-0.2063073	0	0	-49.25738	-85.87512
15.93018	-0.0284397	-0.2063073	0	0	0	0
15.94829	0.01586709	-0.1642071	2.446242	2.324414	70.78401	67.2588
15.96486	0.01586709	-0.1642071	0	0	-70.53487	-67.02206
15.98142	0.01586709	-0.1642071	0	0	0	0
15.99799	0.0529767	-0.135829	2.24007	1.713	67.60933	51.7014
16.01456	0.0529767	-0.135829	0	0	-67.60738	-51.69992
16.03112	0.0529767	-0.135829	0	0	0	0
16.04769	0.06883842	-0.1238278	0.9574155	0.724394	28.89486	21.86225
16.06426	0.06883842	-0.1238278	0	0	-28.89486	-21.86225
16.08102	0.06883842	-0.1238278	0	0	0	0
16.09739	0.07729308	-0.1174077	0.516508	0.3922149	15.58914	11.83775
16.11396	0.07729308	-0.1174077	0	0	-15.68213	-11.90836
16.13055	0.07729308	-0.1174077	0	0	0	0
16.14709	0.08952323	-0.1082085	0.7393203	0.5560986	22.31401	16.78405
16.16366	0.08952323	-0.1082085	0	0	-22.32944	-16.79566
16.18023	0.08952323	-0.1082085	0	0	0	0
16.19711	0.08986259	-0.1079936	0.02010417	0.01273129	0.6010705	0.3806376
16.21336	0.08986259	-0.1079936	0	0	-0.6067799	-0.3842531
16.22993	0.08986259	-0.1079936	0	0	0	0
16.24649	0.08988869	-0.1079741	0.001575362	0.00117916	0.04754452	0.03558713
16.26306	0.08988869	-0.1079741	0	0	-0.04754452	-0.03558713
16.27964	0.08988869	-0.1079741	0	0	0	0
16.29619	0.08988869	-0.107935	0	0.002360767	0	0.07124809
16.31317	0.08988869	-0.107935	0	0	0	-0.07041712
16.32933	0.08988869	-0.107935	0	0	0	0
16.34619	0.09664534	-0.1016327	0.4005914	0.3736536	12.13037	11.31466
16.36246	0.09664534	-0.1016327	0	0	-12.08987	-11.27689
16.37903	0.09664534	-0.1016327	0	0	0	0
16.39574	0.1160551	-0.0740639	1.161413	1.649622	34.89882	49.56885
16.41216	0.1160551	-0.0740639	0	0	-35.05352	-49.78857
16.42873	0.1160551	-0.0740639	0	0	0	0
16.4453	0.1033411	-0.05168094	-0.7674194	1.351038	-23.15943	40.77206
16.46214	0.1033411	-0.05168094	0	0	22.97167	-40.44151
16.47865	0.1033411	-0.05168094	0	0	0	0
16.495	0.1004502	-0.04569681	-0.1768318	0.3660488	-5.381713	11.14036
16.51168	0.1004502	-0.04569681	0	0	5.353125	-11.08118
16.52813	0.1004502	-0.04569681	0	0	0	0
16.5447	0.1004763	-0.04571591	0.001572664	-0.001152852	0.04763309	-0.03491776
16.56126	0.1004763	-0.04571591	0	0	-0.04746308	0.03479314
16.57783	0.1004763	-0.04571591	0	0	0	0
16.59439	0.1004763	-0.04571591	0	0	0	0
16.61126	0.1004763	-0.04571591	0	0	0	0
16.62753	0.1004763	-0.04571591	0	0	0	0
16.64409	0.1004763	-0.04571591	0	0	0	0
16.66066	0.1004763	-0.04571591	0	0	0	0
16.67729	0.1004763	-0.04571591	0	0	0	0
16.6938	0.1004763	-0.04571591	0	0	0	0
16.71036	0.1004763	-0.04571591	0	0	0	0
16.72733	0.1004763	-0.04571591	0	0	0	0
16.74349	0.1004763	-0.04571591	0	0	0	0
16.76006	0.1004763	-0.04571591	0	0	0	0
16.77685	0.1004763	-0.04571591	0	0	0	0
16.79343	0.1004763	-0.04571591	0	0	0	0
16.8099	0.1004763	-0.04571591	0	0	0	0
16.82642	0.1004763	-0.04571591	0	0	0	0
16.8429	0.1004763	-0.04571591	0	0	0	0
16.85946	0.1004763	-0.04571591	0	0	0	0
16.87603	0.1004763	-0.04571591	0	0	0	0
16.8929	0.1004763	-0.04571591	0	0	0	0
16.90957	0.1004763	-0.04571591	0	0	0	0
16.92592	0.1004763	-0.04571591	0	0	0	0
16.94294	0.1004502	-0.04573501	-0.001530893	-0.001122231	-0.04587498	-0.03362897
16.95887	0.1004502	-0.04573501	0	0	0.04646993	0.03406511
16.97543	0.1004502	-0.04573501	0	0	0	0
16.992	0.1004502	-0.04573501	0	0	0	0
17.00857	0.1004502	-0.04573501	0	0	0	0
17.02514	0.1004502	-0.04573501	0	0	0	0
17.0417	0.1004502	-0.04573501	0	0	0	0
17.05827	0.1004502	-0.04573501	0	0	0	0
17.07483	0.1004502	-0.04573501	0	0	0	0
17.09151	0.1004502	-0.04577321	0	-0.002290672	0	-0.06890652
17.10797	0.1004502	-0.04577321	0	0	0	0.0691366
17.12453	0.1004502	-0.04577321	0	0	0	0
17.1411	0.1003981	-0.04581141	-0.00314524	-0.002305969	-0.09492898	-0.0695983
17.15767	0.1003981	-0.04581141	0	0	0.09492352	0.06959429
17.17424	0.1003981	-0.04581141	0	0	0	0
17.19087	0.1003721	-0.04583051	-0.001566172	-0.001148093	-0.04716943	-0.03457788
17.20737	0.1003721	-0.04583051	0	0	0.04726718	0.03464953
17.2246	0.1003721	-0.04583051	0	0	0	0
17.24054	0.100346	-0.04588781	-0.001634305	-0.003595143	-0.04927236	-0.1083893
17.25789	0.100346	-0.04588781	0	0	0.04909169	0.1079919
17.27364	0.100346	-0.04588781	0	0	0	0
17.29021	0.1002939	-0.04592601	-0.003144515	-0.002305663	-0.09729311	-0.07133854
17.30678	0.1002939	-0.04592601	0	0	0.09489074	0.06957705
17.3239	0.1002939	-0.04592601	0	0	0	0
17.33994	0.1000855	-0.04611703	-0.01299173	-0.01190661	-0.391798	-0.3590735
17.35648	0.1000855	-0.04611703	0	0	0.3987243	0.3654213
17.37305	0.1000855	-0.04611703	0	0	0	0
17.38961	0.09946021	-0.04669014	-0.03774827	-0.03459718	-1.139311	-1.044205
17.40618	0.09946021	-0.04669014	0	0	1.139311	1.044205
17.42306	0.09946021	-0.04669014	0	0	0	0
17.43931	0.09961654	-0.04787493	0.0096169	-0.0728816	0.2902721	-2.199824
17.45588	0.09961654	-0.04787493	0	0	-0.2929707	2.220276
17.47245	0.09961654	-0.04787493	0	0	0	0
17.48908	0.07109052	-0.07159597	-1.715317	-1.426386	-51.67022	-42.96679
17.50577	0.07109052	-0.07159597	0	0	51.48387	42.81182
17.52236	0.07109052	-0.07159597	0	0	0	0
17.53871	0.02557337	-0.1173097	-2.78266	-2.794678	-84.4573	-84.82204
17.55562	0.02557337	-0.1173097	0	0	83.663	84.02431
17.57185	0.02557337	-0.1173097	0	0	0	0
17.58841	0.01486733	-0.1572997	-0.6462926	-2.414077	-19.70593	-73.60695
17.60505	0.01486733	-0.1572997	0	0	19.46817	72.71884
17.62155	0.01486733	-0.1572997	0	0	0	0
17.63811	0.02638861	-0.1756721	0.6954261	-1.108966	21.03037	-33.53622
17.65519	0.02638861	-0.1756721	0	0	-20.66796	32.95831
17.67125	0.02638861	-0.1756721	0	0	0	0
17.68812	0.03198908	-0.1801175	0.3319309	-0.2634674	10.08153	-8.002132
17.70438	0.03198908	-0.1801175	0	0	-10.01769	7.951463
17.72095	0.03198908	-0.1801175	0	0	0	0
17.73751	0.02362718	-0.1865295	-0.5047835	-0.3870772	-15.23527	-11.68269
17.75426	0.02362718	-0.1865295	0	0	15.15414	11.62047
17.77065	0.02362718	-0.1865295	0	0	0	0
17.78721	-0.02004994	-0.220313	-2.636357	-2.039173	-79.99827	-61.87719
17.80383	-0.02004994	-0.220313	0	0	79.45107	61.45393
17.82061	-0.02004994	-0.220313	0	0	0	0
17.83691	-0.06008548	-0.252446	-2.45585	-1.971094	-74.23737	-59.58376
17.85348	-0.06008548	-0.252446	0	0	74.71554	59.96755
17.87004	-0.06008548	-0.252446	0	0	0	0
17.88687	-0.07192833	-0.2816406	-0.7038955	-1.735224	-21.07859	-51.96235
17.90318	-0.07192833	-0.2816406	0	0	21.24483	52.37217
17.9201	-0.07192833	-0.2816406	0	0	0	0
17.9424	-0.04791068	-0.3081616	1.077451	-1.189751	27.47274	-30.33617
17.95897	-0.04791068	-0.3081616	0	0	-27.72489	30.6146
17.9758	-0.04428681	-0.3113859	0.2152427	-0.1915111	6.443001	-5.732628
17.9921	-0.04428681	-0.3113859	0	0	-6.496037	5.779817
18.009	-0.04428681	-0.3113859	0	0	0	0
18.02559	-0.04447066	-0.3115365	-0.01108043	-0.009076115	-0.3308279	-0.2709851
18.0418	-0.04447066	-0.3115365	0	0	0.3378308	0.2767212
18.05837	-0.04447066	-0.3115365	0	0	0	0
18.07494	-0.04447066	-0.3115365	0	0	0	0
18.0915	-0.04447066	-0.3115365	0	0	0	0
18.10807	-0.04447066	-0.3115365	0	0	0	0
18.12487	-0.04447066	-0.3115365	0	0	0	0
18.1412	-0.04447066	-0.3115365	0	0	0	0
18.15777	-0.04447066	-0.3115365	0	0	0	0
18.17434	-0.04447066	-0.3115365	0	0	0	0
18.1909	-0.04447066	-0.3115365	0	0	0	0
18.20747	-0.04447066	-0.3115365	0	0	0	0
18.22458	-0.04447066	-0.3115365	0	0	0	0
18.2406	-0.04447066	-0.3115365	0	0	0	0
18.25717	-0.04447066	-0.3115365	0	0	0	0
18.27383	-0.04447066	-0.3115365	0	0	0	0
18.2903	-0.04447066	-0.3115365	0	0	0	0
18.30745	-0.04447066	-0.3115365	0	0	0	0
18.32343	-0.04449692	-0.311558	-0.001642946	-0.001346051	-0.04958707	-0.04062623
18.34	-0.04449692	-0.311558	0	0	0.05047032	0.04134987
18.35715	-0.04449692	-0.311558	0	0	0	0
18.37779	-0.04454945	-0.311601	-0.00254444	-0.002084488	-0.0673339	-0.05516214
18.39436	-0.04454945	-0.311601	0	0	0.06836566	0.05600739
18.41109	-0.04454945	-0.311601	0	0	0	0
18.4275	-0.04454945	-0.311601	0	0	0	0
18.44407	-0.04454945	-0.311601	0	0	0	0
18.46063	-0.04454945	-0.311601	0	0	0	0
18.47788	-0.04454945	-0.311601	0	0	0	0
18.494	-0.04454945	-0.311601	0	0	0	0
18.51056	-0.04454945	-0.311601	0	0	0	0
18.5269	-0.04454945	-0.311601	0	0	0	0
18.54346	-0.04454945	-0.311601	0	0	0	0
18.56014	-0.04457572	-0.3116226	-0.001574741	-0.00129017	-0.04737033	-0.03881008
18.57659	-0.04457572	-0.3116226	0	0	0.0475285	0.03893966
18.59316	-0.04457572	-0.3116226	0	0	0	0
18.60973	-0.04460198	-0.3116441	-0.001585256	-0.001298785	-0.04784311	-0.03919742
18.62629	-0.04460198	-0.3116441	0	0	0.04784587	0.03919968
18.64286	-0.04460198	-0.3116441	0	0	0	0
18.65943	-0.04462824	-0.3116656	-0.001585438	-0.001298935	-0.04785138	-0.03920419
18.71962	-0.04462824	-0.3116656	0	0	0.02065415	0.01692175
18.73632	-0.04462824	-0.3116656	0	0	0	0
18.75284	-0.04465451	-0.3116871	-0.001589832	-0.001302534	-0.04786549	-0.03921575
18.76933	-0.04465451	-0.3116871	0	0	0.0481642	0.03946048
18.78591	-0.04465451	-0.3116871	0	0	0	0
18.80246	-0.04468077	-0.3117086	-0.001587083	-0.001300282	-0.04790377	-0.03924712
18.81903	-0.04468077	-0.3117086	0	0	0.04792308	0.03926294
18.83559	-0.04468077	-0.3117086	0	0	0	0
18.85217	-0.04470703	-0.3117301	-0.001583797	-0.00129759	-0.04777709	-0.03914333
18.86873	-0.04470703	-0.3117301	0	0	0.04779909	0.03916135
18.88529	-0.04470703	-0.3117301	0	0	0	0
18.9061	-0.04470703	-0.3117732	0	-0.002069868	0	-0.05538749
18.92304	-0.04470703	-0.3117732	0	0	0	0.05483891
18.9396	-0.0447333	-0.3117947	-0.001585256	-0.001298785	-0.04731204	-0.03876232
18.95679	-0.0447333	-0.3117947	0	0	0.04695918	0.03847323
18.97281	-0.0447333	-0.3117947	0	0	0	0
18.98938	-0.0447333	-0.3117947	0	0	0	0
19.00637	-0.0447333	-0.3117947	0	0	0	0
19.02244	-0.0447333	-0.3117947	0	0	0	0
19.03901	-0.0447333	-0.3117947	0	0	0	0
19.05557	-0.0447333	-0.3117947	0	0	0	0
19.07214	-0.0447333	-0.3117947	0	0	0	0
19.08871	-0.04475956	-0.3118162	-0.001585621	-0.001299085	-0.04785964	-0.03921096
19.10527	-0.04475956	-0.3118162	0	0	0.04785689	0.03920871
19.12184	-0.04475956	-0.3118162	0	0	0	0
19.13841	-0.04475956	-0.3118162	0	0	0	0
19.15498	-0.04475956	-0.3118162	0	0	0	0
19.17233	-0.04475956	-0.3118162	0	0	0	0
19.18811	-0.04475956	-0.3118162	0	0	0	0
19.20477	-0.04475956	-0.3118162	0	0	0	0
19.22182	-0.04475956	-0.3118162	0	0	0	0
19.23794	-0.04475956	-0.3118162	0	0	0	0
19.25438	-0.04475956	-0.3118162	0	0	0	0
19.27094	-0.04475956	-0.3118162	0	0	0	0
19.28751	-0.04475956	-0.3118162	0	0	0	0
19.30465	-0.04475956	-0.3118162	0	0	0	0
19.32064	-0.04475956	-0.3118162	0	0	0	0
19.33721	-0.04475956	-0.3118162	0	0	0	0
19.35378	-0.04475956	-0.3118162	0	0	0	0
19.37072	-0.04475956	-0.3118162	0	0	0	0
19.38693	-0.0447333	-0.3118378	0.001620136	-0.001327362	0.04887328	-0.04004142
19.40348	-0.0447333	-0.3118378	0	0	-0.04945663	0.04051936
19.42042	-0.0447333	-0.3118378	0	0	0	0
19.43661	-0.0447333	-0.3118378	0	0	0	0
19.45318	-0.0447333	-0.3118378	0	0	0	0
19.46974	-0.0447333	-0.3118378	0	0	0	0
19.49075	-0.04475956	-0.3118593	-0.001250412	-0.001024451	-0.03328303	-0.02726848
19.50732	-0.04475956	-0.3118593	0	0	0.03327965	0.02726571
19.52388	-0.04475956	-0.3118593	0	0	0	0
19.54045	-0.04475956	-0.3118593	0	0	0	0
19.55745	-0.04475956	-0.3118593	0	0	0	0
19.57359	-0.0447333	-0.3118808	0.001627797	-0.001333639	0.049127	-0.0402493
19.59015	-0.0447333	-0.3118808	0	0	-0.04977454	0.04077982
19.60672	-0.0447333	-0.3118808	0	0	0	0
19.62329	-0.0447333	-0.3118808	0	0	0	0
19.64008	-0.0447333	-0.3118808	0	0	0	0
19.65642	-0.0447333	-0.3118808	0	0	0	0
19.67299	-0.04462824	-0.3119669	0.006341023	-0.005196941	0.1927148	-0.1579441
19.68955	-0.04462824	-0.3119669	0	0	-0.1913835	0.156853
19.70612	-0.04462824	-0.3119669	0	0	0	0
19.72296	-0.04168636	-0.3144221	0.1747358	-0.1458292	5.231078	-4.3657
19.7397	-0.04168636	-0.3144221	0	0	-5.202855	4.342145
19.75582	-0.04168636	-0.3144221	0	0	0	0
19.77256	-0.04168636	-0.3144221	0	0	0	0
19.78905	-0.04168636	-0.3144221	0	0	0	0
19.80552	-0.04168636	-0.3144221	0	0	0	0
19.82209	-0.04168636	-0.3144221	0	0	0	0
19.83866	-0.04168636	-0.3144221	0	0	0	0
19.85543	-0.04168636	-0.3144221	0	0	0	0
19.87195	-0.04168636	-0.3144221	0	0	0	0
19.88857	-0.04168636	-0.3144221	0	0	0	0
19.90492	-0.04168636	-0.3144221	0	0	0	0
19.92149	-0.04168636	-0.3144221	0	0	0	0
19.93806	-0.04168636	-0.3144221	0	0	0	0
19.95462	-0.04168636	-0.3144221	0	0	0	0
19.97119	-0.04168636	-0.3144221	0	0	0	0
19.98775	-0.04168636	-0.3144221	0	0	0	0
20.00432	-0.04168636	-0.3144221	0	0	0	0
20.02105	-0.04168636	-0.3144221	0	0	0	0
20.03755	-0.04168636	-0.3144221	0	0	0	0
20.05406	-0.04168636	-0.3144221	0	0	0	0
20.07059	-0.04168636	-0.3144221	0	0	0	0
20.08715	-0.04168636	-0.3144221	0	0	0	0
20.10372	-0.04168636	-0.3144221	0	0	0	0
20.12112	-0.04168636	-0.3144221	0	0	0	0
20.13686	-0.04168636	-0.3144221	0	0	0	0
20.15342	-0.04168636	-0.3144221	0	0	0	0
20.17015	-0.04168636	-0.3144221	0	0	0	0
20.18656	-0.04168636	-0.3144221	0	0	0	0
20.20317	-0.04168636	-0.3144221	0	0	0	0
20.21969	-0.04168636	-0.3144221	0	0	0	0
20.23626	-0.04168636	-0.3144221	0	0	0	0
20.25282	-0.04168636	-0.3144221	0	0	0	0
20.26939	-0.04168636	-0.3144221	0	0	0	0
20.28596	-0.04168636	-0.3144221	0	0	0	0
20.30252	-0.04168636	-0.3144221	0	0	0	0
20.31909	-0.04168636	-0.3144221	0	0	0	0
20.33576	-0.04168636	-0.3144221	0	0	0	0
20.35227	-0.04168636	-0.3144221	0	0	0	0
20.36879	-0.04168636	-0.3144221	0	0	0	0
20.38536	-0.04168636	-0.3144221	0	0	0	0
20.40192	-0.04168636	-0.3144221	0	0	0	0
20.41849	-0.04168636	-0.3144221	0	0	0	0
20.43533	-0.04168636	-0.3144221	0	0	0	0
20.45234	-0.04168636	-0.3144221	0	0	0	0
20.46836	-0.04168636	-0.3144221	0	0	0	0
20.48537	-0.04168636	-0.3144221	0	0	0	0
20.50132	-0.04168636	-0.3144221	0	0	0	0
20.5179	-0.04168636	-0.3144221	0	0	0	0
20.53491	-0.04168636	-0.3144221	0	0	0	0
20.55102	-0.04168636	-0.3144221	0	0	0	0
20.56794	-0.04168636	-0.3144221	0	0	0	0
20.58415	-0.04168636	-0.3144221	0	0	0	0
20.60072	-0.04168636	-0.3144221	0	0	0	0
20.61729	-0.04168636	-0.3144221	0	0	0	0
20.63396	-0.04168636	-0.3144221	0	0	0	0
20.65048	-0.04168636	-0.3144221	0	0	0	0
20.67039	-0.04168636	-0.3144221	0	0	0	0
20.68757	-0.04168636	-0.3144221	0	0	0	0
20.70362	-0.04168636	-0.3144221	0	0	0	0
20.7201	-0.04168636	-0.3144221	0	0	0	0
20.73666	-0.04168636	-0.3144221	0	0	0	0
20.75323	-0.04168636	-0.3144221	0	0	0	0
20.77006	-0.04168636	-0.3144221	0	0	0	0
20.78637	-0.04168636	-0.3144221	0	0	0	0
20.8032	-0.04168636	-0.3144221	0	0	0	0
20.81981	-0.04168636	-0.3144221	0	0	0	0
20.83607	-0.04168636	-0.3144221	0	0	0	0
20.85279	-0.04168636	-0.3144221	0	0	0	0
20.86938	-0.04168636	-0.3144221	0	0	0	0
20.88577	-0.04168636	-0.3144221	0	0	0	0
20.90233	-0.04168636	-0.3144221	0	0	0	0
20.91973	-0.04168636	-0.3144221	0	0	0	0
20.9363	-0.04168636	-0.3144221	0	0	0	0
20.9536	-0.04168636	-0.3144221	0	0	0	0
20.96943	-0.04168636	-0.3144221	0	0	0	0
20.986	-0.04168636	-0.3144221	0	0	0	0
21.00256	-0.04168636	-0.3144221	0	0	0	0
21.01913	-0.04168636	-0.3144221	0	0	0	0
21.0357	-0.04168636	-0.3144221	0	0	0	0
21.05229	-0.04168636	-0.3144221	0	0	0	0
21.06883	-0.04168636	-0.3144221	0	0	0	0
21.0854	-0.04168636	-0.3144221	0	0	0	0
21.10258	-0.04168636	-0.3144221	0	0	0	0
21.11853	-0.04168636	-0.3144221	0	0	0	0
21.1351	-0.04168636	-0.3144221	0	0	0	0
21.15167	-0.04168636	-0.3144221	0	0	0	0
21.16827	-0.04168636	-0.3144221	0	0	0	0
21.18489	-0.04168636	-0.3144221	0	0	0	0
21.20137	-0.04168636	-0.3144221	0	0	0	0
21.21793	-0.04168636	-0.3144221	0	0	0	0
21.23488	-0.04168636	-0.3144221	0	0	0	0
21.25106	-0.04168636	-0.3144221	0	0	0	0
21.26847	-0.04168636	-0.3144221	0	0	0	0
21.2842	-0.04168636	-0.3144221	0	0	0	0
21.30076	-0.04168636	-0.3144221	0	0	0	0
21.31733	-0.04168636	-0.3144221	0	0	0	0
21.33389	-0.04168636	-0.3144221	0	0	0	0
21.3505	-0.04168636	-0.3144221	0	0	0	0
21.36703	-0.04168636	-0.3144221	0	0	0	0
21.3836	-0.04168636	-0.3144221	0	0	0	0
21.40016	-0.04168636	-0.3144221	0	0	0	0
21.41673	-0.04168636	-0.3144221	0	0	0	0
21.4333	-0.04168636	-0.3144221	0	0	0	0
21.45056	-0.04168636	-0.3144221	0	0	0	0
21.46653	-0.04168636	-0.3144221	0	0	0	0
21.483	-0.04168636	-0.3144221	0	0	0	0
21.49956	-0.04168636	-0.3144221	0	0	0	0
21.51613	-0.04168636	-0.3144221	0	0	0	0
21.5327	-0.04168636	-0.3144221	0	0	0	0
21.55007	-0.04168636	-0.3144221	0	0	0	0
21.56654	-0.04066179	-0.3152628	0.06222331	-0.0510559	1.838844	-1.508821
21.5824	-0.04066179	-0.3152628	0	0	-1.924884	1.579419
21.59965	-0.04066179	-0.3152628	0	0	0	0
21.61559	-0.03109524	-0.3231723	0.6003144	-0.4963326	18.08733	-14.95438
21.6321	-0.03109524	-0.3231723	0	0	-18.50201	15.29723
21.6487	-0.03109524	-0.3231723	0	0	0	0
21.66523	-0.01244673	-0.3391658	1.128485	-0.967823	34.05969	-29.21064
21.6818	-0.01244673	-0.3391658	0	0	-34.09895	29.24431
21.69838	-0.01244673	-0.3391658	0	0	0	0
21.71493	0.009683908	-0.3588026	1.337347	-1.186646	40.36819	-35.81924
21.73149	0.009683908	-0.3588026	0	0	-40.38214	35.83162
21.74813	0.009683908	-0.3588026	0	0	0	0
21.76463	0.03443375	-0.3984604	1.499774	-2.403153	45.26588	-72.53147
21.78119	0.03443375	-0.3984604	0	0	-45.35204	72.66952
21.79776	0.03443375	-0.3984604	0	0	0	0
21.81433	0.01123637	-0.4666577	-1.400519	-4.117344	-42.27262	-124.276
21.83089	0.01123637	-0.4666577	0	0	42.27019	124.2688
21.84746	0.01123637	-0.4666577	0	0	0	0
21.86403	-0.02709863	-0.5303853	-2.313905	-3.846608	-69.83379	-116.0909
21.88059	-0.02709863	-0.5303853	0	0	69.83781	116.0976
21.89743	-0.02709863	-0.5303853	0	0	0	0
21.91446	-0.03330347	-0.5700218	-0.3643734	-2.327614	-10.7602	-68.73607
21.93029	-0.03330347	-0.5700218	0	0	11.0868	70.82236
21.9478	-0.03330347	-0.5700218	0	0	0	0
21.96342	-0.0189451	-0.595293	0.9189358	-1.617355	27.73673	-48.8175
21.97999	-0.0189451	-0.595293	0	0	-28.54358	50.23757
21.99678	-0.0189451	-0.595293	0	0	0	0
22.01724	-0.001289473	-0.6130111	0.8628481	-0.8659	23.16339	-23.24531
22.03381	-0.001289473	-0.6130111	0	0	-23.30059	23.383
22.05061	0.009157639	-0.6237118	0.6219252	-0.6370217	18.63884	-19.09128
22.06717	0.009157639	-0.6237118	0	0	-18.64524	19.09783
22.08351	0.009157639	-0.6237118	0	0	0	0
22.10008	0.03438118	-0.6498639	1.522496	-1.578546	46.26059	-47.96365
22.11694	0.03438118	-0.6498639	0	0	-45.54268	47.2193
22.13321	0.03438118	-0.6498639	0	0	0	0
22.14978	0.06021659	-0.6774369	1.559428	-1.664309	47.48733	-50.68114
22.1667	0.06021659	-0.6774369	0	0	-46.56771	49.69968
22.18291	0.06021659	-0.6774369	0	0	0	0
22.19948	0.07954235	-0.6992057	1.166505	-1.313968	35.58621	-40.08481
22.21605	0.07954235	-0.6992057	0	0	-35.20722	39.65791
22.23261	0.07954235	-0.6992057	0	0	0	0
22.24918	0.09273326	-0.7157031	0.7963887	-0.9960128	24.03783	-30.06319
22.26575	0.09273326	-0.7157031	0	0	-24.03644	30.06146
22.28231	0.09273326	-0.7157031	0	0	0	0
22.29888	0.07632513	-0.7487798	-0.9906253	-1.996977	-29.90057	-60.27583
22.31581	0.07632513	-0.7487798	0	0	29.57873	59.62704
22.33201	0.07632513	-0.7487798	0	0	0	0
22.34858	0.05706954	-0.7785071	-1.162403	-1.794549	-35.46727	-54.7553
22.36515	0.05706954	-0.7785071	0	0	35.08342	54.16271
22.38171	0.05706954	-0.7785071	0	0	0	0
22.39828	0.06396525	-0.7990785	0.4162256	-1.241689	12.56244	-37.47641
22.41485	0.06396525	-0.7990785	0	0	-12.56172	37.47425
22.4316	0.06396525	-0.7990785	0	0	0	0
22.44804	0.06391283	-0.7990785	-0.00318762	0	-0.09602567	0
22.46455	0.06391283	-0.7990785	0	0	0.09674834	0
22.48111	0.06391283	-0.7990785	0	0	0	0
22.49805	0.06388663	-0.7990462	-0.001547452	0.001907806	-0.04619168	0.05694829
22.51425	0.06388663	-0.7990462	0	0	0.0467022	-0.05757769
22.53089	0.06388663	-0.7990462	0	0	0	0
22.54768	0.06383421	-0.7989171	-0.00312216	0.00768559	-0.09338835	0.2298872
22.56395	0.06383421	-0.7989171	0	0	0.09444989	-0.2325003
22.58051	0.06383421	-0.7989171	0	0	0	0
22.59742	0.06386042	-0.7988203	0.001550512	0.005729578	0.04631993	0.1711652
22.61372	0.06386042	-0.7988203	0	0	-0.04669509	-0.1725515
22.63052	0.06386042	-0.7988203	0	0	0	0
22.64678	0.06391283	-0.7986912	0.003223515	0.007936217	0.09751041	0.2400683
22.66335	0.06391283	-0.7986912	0	0	-0.09819024	-0.241742
22.69387	0.06391283	-0.7986912	0	0	0	0
22.71121	0.06386042	-0.7985622	-0.003023487	0.007443751	-0.06317463	0.1555344
22.72781	0.06386042	-0.7985622	0	0	0.08909497	-0.2193497
22.74434	0.06386042	-0.7985622	0	0	0	0
22.76091	0.06386042	-0.7984977	0	0.003892758	0	0.117592
22.77748	0.06386042	-0.7984977	0	0	0	-0.1174837
22.79419	0.06386042	-0.7984977	0	0	0	0
22.81061	0.063808	-0.7983041	-0.003192434	0.01178773	-0.09635338	0.3557748
22.82718	0.063808	-0.7983041	0	0	0.09678239	-0.3573588
22.84374	0.063808	-0.7983041	0	0	0	0
22.86031	0.06367695	-0.7980784	-0.007910999	0.01362622	-0.2387682	0.4112639
22.87688	0.06367695	-0.7980784	0	0	0.2387682	-0.4112639
22.89373	0.06367695	-0.7980784	0	0	0	0
22.91001	0.06351969	-0.7977561	-0.009660131	0.01979716	-0.2915433	0.5974795
22.92658	0.06351969	-0.7977561	0	0	0.2940655	-0.6026484
22.94315	0.06351969	-0.7977561	0	0	0	0
22.95971	0.06346728	-0.7975628	-0.00316413	0.01167242	-0.09550463	0.352315
22.97628	0.06346728	-0.7975628	0	0	0.09551013	-0.3523353
22.99285	0.06346728	-0.7975628	0	0	0	0
23.00964	0.06338865	-0.7974661	-0.004681644	0.005756019	-0.140315	0.1725154
23.02598	0.06338865	-0.7974661	0	0	0.1413004	-0.173727
23.04255	0.06338865	-0.7974661	0	0	0	0
23.05918	0.06320518	-0.7972406	-0.01103239	0.01355875	-0.3323269	0.4084281
23.07573	0.06320518	-0.7972406	0	0	0.3324988	-0.4086394
23.09224	0.06320518	-0.7972406	0	0	0	0
23.11068	0.06275958	-0.7966933	-0.02416687	0.0296854	-0.6913514	0.8492224
23.12725	0.06275958	-0.7966933	0	0	0.6902968	-0.8479269
23.14382	0.06275958	-0.7966933	0	0	0	0
23.16039	0.06152751	-0.7951818	-0.07436806	0.09123518	-2.244432	2.753483
23.17706	0.06152751	-0.7951818	0	0	2.236964	-2.744321
23.19352	0.06152751	-0.7951818	0	0	0	0
23.21009	0.05924637	-0.7920707	-0.1376895	0.1877806	-4.169638	5.686543
23.2267	0.05924637	-0.7920707	0	0	4.149505	-5.659086
23.24336	0.05924637	-0.7920707	0	0	0	0
23.25978	0.05725315	-0.78811	-0.1213591	0.2411523	-3.668327	7.28932
23.27649	0.05725315	-0.78811	0	0	3.66368	-7.280086
23.29292	0.05725315	-0.78811	0	0	0	0
23.30949	0.02772973	-0.7506725	-1.782037	2.259732	-53.99333	68.46685
23.32611	0.02772973	-0.7506725	0	0	53.69543	-68.0891
23.34267	0.02772973	-0.7506725	0	0	0	0
23.36373	-0.006657796	-0.693892	-1.633059	2.696499	-43.4131	71.68349
23.38029	-0.006657796	-0.693892	0	0	43.4043	-71.66896
23.39686	-0.01063118	-0.6592624	-0.2398338	2.090246	-7.238199	63.08374
23.41343	-0.01063118	-0.6592624	0	0	7.237782	-63.08011
23.43	-0.01063118	-0.6592624	0	0	0	0
23.44656	-0.002394732	-0.6002708	0.4972101	3.561151	15.0067	107.4819
23.46322	-0.002394732	-0.6002708	0	0	-14.9662	-107.1919
23.48042	-0.002394732	-0.6002708	0	0	0	0
23.49648	0.01152581	-0.5484516	0.8664811	3.225476	26.04998	96.97107
23.51283	0.01152581	-0.5484516	0	0	-26.73212	-99.51033
23.52941	0.01152581	-0.5484516	0	0	0	0
23.54615	0.01363073	-0.5141944	0.1257508	2.046562	3.773878	61.41888
23.56272	0.01363073	-0.5141944	0	0	-3.775391	-61.4435
23.5794	0.01363073	-0.5141944	0	0	0	0
23.59586	0.008157713	-0.5000506	-0.3326115	0.8595616	-10.03823	25.94162
23.61242	0.008157713	-0.5000506	0	0	10.07244	-26.03002
23.62899	0.008157713	-0.5000506	0	0	0	0
23.64556	-0.007710373	-0.4854052	-0.9579099	0.8841016	-28.91144	26.68377
23.66212	-0.007710373	-0.4854052	0	0	28.90978	-26.68224
23.67876	-0.007710373	-0.4854052	0	0	0	0
23.69526	-0.02838711	-0.4586525	-1.253244	1.621517	-37.82735	48.94312
23.71183	-0.02838711	-0.4586525	0	0	37.89716	-49.03345
23.72839	-0.02838711	-0.4586525	0	0	0	0
23.7497	-0.03459146	-0.4315614	-0.2911884	1.271463	-7.688302	33.57068
23.76628	-0.03459146	-0.4315614	0	0	7.685593	-33.55885
23.78284	-0.03837589	-0.4039577	-0.2286128	1.667506	-6.899549	50.32542
23.7994	-0.03837589	-0.4039577	0	0	6.90233	-50.34571
23.81597	-0.03837589	-0.4039577	0	0	0	0
23.83254	-0.04313113	-0.3758798	-0.2870599	1.694984	-8.663486	51.15472
23.84911	-0.04313113	-0.3758798	0	0	8.663486	-51.15472
23.86568	-0.04313113	-0.3758798	0	0	0	0
23.88266	-0.05190072	-0.3587584	-0.5166057	1.008599	-15.39796	30.06233
23.89881	-0.05190072	-0.3587584	0	0	15.59568	-30.44834
23.91537	-0.05190072	-0.3587584	0	0	0	0
23.93194	-0.06320518	-0.3492523	-0.6824169	0.573854	-20.59657	17.31994
23.94851	-0.06320518	-0.3492523	0	0	20.59657	-17.31994
23.96507	-0.06320518	-0.3492523	0	0	0	0
23.98167	-0.06802645	-0.3452105	-0.2904111	0.2434621	-8.755552	7.340094
23.99821	-0.06802645	-0.3452105	0	0	8.764625	-7.3477
24.01538	-0.06802645	-0.3452105	0	0	0	0
24.03625	-0.06802645	-0.3452105	0	0	0	0
24.05281	-0.06802645	-0.3452105	0	0	0	0
24.06938	-0.06802645	-0.3452105	0	0	0	0
24.08595	-0.06802645	-0.3452105	0	0	0	0
24.10252	-0.06802645	-0.3452105	0	0	0	0
24.11908	-0.06800026	-0.3452324	0.00158139	-0.001324122	0.0477292	-0.03996439
24.136	-0.06800026	-0.3452324	0	0	-0.04722894	0.0395455
24.15222	-0.06800026	-0.3452324	0	0	0	0
24.16878	-0.06797406	-0.3452543	0.00158139	-0.001324122	0.04824018	-0.04039223
24.18535	-0.06797406	-0.3452543	0	0	-0.0477292	0.03996439
24.20208	-0.06797406	-0.3452543	0	0	0	0
24.21848	-0.06794787	-0.3452763	0.001596566	-0.001339026	0.04818724	-0.04041421
24.23506	-0.06794787	-0.3452763	0	0	-0.04840738	0.04059885
24.25206	-0.06794787	-0.3452763	0	0	0	0
24.26818	-0.06786928	-0.3453421	0.004873226	-0.004080426	0.1471335	-0.1231971
24.28475	-0.06786928	-0.3453421	0	0	-0.1490563	0.1248071
24.30132	-0.06786928	-0.3453421	0	0	0	0
24.31788	-0.06784309	-0.345364	0.001581572	-0.001324275	0.04773745	-0.03997129
24.33458	-0.06784309	-0.345364	0	0	-0.04755129	0.03981542
24.35102	-0.06784309	-0.345364	0	0	0	0
24.36783	-0.06784309	-0.345364	0	0	0	0
24.38422	-0.06784309	-0.345364	0	0	0	0
24.40072	-0.06784309	-0.345364	0	0	0	0
24.41763	-0.06784309	-0.345364	0	0	0	0
24.43385	-0.06784309	-0.345364	0	0	0	0
24.45042	-0.06784309	-0.345364	0	0	0	0
24.46698	-0.06784309	-0.345364	0	0	0	0
24.48388	-0.06784309	-0.345364	0	0	0	0
24.50012	-0.06784309	-0.345364	0	0	0	0
24.51669	-0.06784309	-0.345364	0	0	0	0
24.53325	-0.06784309	-0.345364	0	0	0	0
24.55053	-0.06784309	-0.345364	0	0	0	0
24.56638	-0.06784309	-0.345364	0	0	0	0
24.58295	-0.06784309	-0.345364	0	0	0	0
24.59958	-0.06784309	-0.345364	0	0	0	0
24.61608	-0.06784309	-0.345364	0	0	0	0
24.63301	-0.06784309	-0.345364	0	0	0	0
24.64929	-0.06784309	-0.345364	0	0	0	0
24.66578	-0.06784309	-0.345364	0	0	0	0
24.68256	-0.06784309	-0.345364	0	0	0	0
24.69896	-0.06784309	-0.345364	0	0	0	0
24.7188	-0.06784309	-0.345364	0	0	0	0
24.73537	-0.06784309	-0.345364	0	0	0	0
24.75194	-0.06784309	-0.345364	0	0	0	0
24.76857	-0.0678169	-0.345386	0.001574956	-0.001320902	0.04744488	-0.03979161
24.78507	-0.0678169	-0.345386	0	0	-0.04753501	0.0398672
24.80164	-0.0678169	-0.345386	0	0	0	0
24.81842	-0.0678169	-0.345386	0	0	0	0
24.83507	-0.0678169	-0.345386	0	0	0	0
24.85134	-0.0678169	-0.345386	0	0	0	0
24.8679	-0.0678169	-0.345386	0	0	0	0
24.88449	-0.0678169	-0.345386	0	0	0	0
24.90129	-0.0678169	-0.345386	0	0	0	0
24.91842	-0.0677907	-0.3454079	0.00152927	-0.001280481	0.04507156	-0.0377391
24.93417	-0.0677907	-0.3454079	0	0	-0.04651764	0.03894992
24.95116	-0.0677907	-0.3454079	0	0	0	0
24.97116	-0.0677907	-0.3454079	0	0	0	0
24.98773	-0.0677907	-0.3454079	0	0	0	0
25.0043	-0.0677907	-0.3454079	0	0	0	0
25.02087	-0.0677907	-0.3454079	0	0	0	0
25.03743	-0.0677907	-0.3454079	0	0	0	0
25.05403	-0.0677907	-0.3454079	0	0	0	0
25.07057	-0.0677907	-0.3454079	0	0	0	0
25.08733	-0.0677907	-0.3454079	0	0	0	0
25.1037	-0.06776451	-0.3454299	0.001599811	-0.001339546	0.04828238	-0.04042757
25.12027	-0.06776451	-0.3454299	0	0	-0.04856755	0.04066634
25.13683	-0.06776451	-0.3454299	0	0	0	0
25.1534	-0.06776451	-0.3454299	0	0	0	0
25.16997	-0.06776451	-0.3454299	0	0	0	0
25.18702	-0.06776451	-0.3454299	0	0	0	0
25.20352	-0.06776451	-0.3454299	0	0	0	0
25.21967	-0.06776451	-0.3454299	0	0	0	0
25.23698	-0.06776451	-0.3454299	0	0	0	0
25.2528	-0.06776451	-0.3454299	0	0	0	0
25.26959	-0.06776451	-0.3454299	0	0	0	0
25.28593	-0.06776451	-0.3454299	0	0	0	0
25.3025	-0.06776451	-0.3454299	0	0	0	0
25.31907	-0.06776451	-0.3454299	0	0	0	0
25.33563	-0.06776451	-0.3454299	0	0	0	0
25.35449	-0.06776451	-0.3454299	0	0	0	0
25.37106	-0.06776451	-0.3454299	0	0	0	0
25.38804	-0.06776451	-0.3454299	0	0	0	0
25.40419	-0.06776451	-0.3454299	0	0	0	0
25.42076	-0.06776451	-0.3454299	0	0	0	0
25.43733	-0.06776451	-0.3454299	0	0	0	0
25.45389	-0.06776451	-0.3454299	0	0	0	0
25.47046	-0.06776451	-0.3454299	0	0	0	0
25.4871	-0.06776451	-0.3454299	0	0	0	0
25.5036	-0.06776451	-0.3454299	0	0	0	0
25.56256	-0.06776451	-0.3454299	0	0	0	0
25.57997	-0.06776451	-0.3454299	0	0	0	0
25.59654	-0.06776451	-0.3454299	0	0	0	0
25.6131	-0.06776451	-0.3454299	0	0	0	0
25.62983	-0.06776451	-0.3454299	0	0	0	0
25.64623	-0.06776451	-0.3454299	0	0	0	0
25.6628	-0.06776451	-0.3454299	0	0	0	0
25.67967	-0.06776451	-0.3454299	0	0	0	0
25.69594	-0.06776451	-0.3454299	0	0	0	0
25.7125	-0.06776451	-0.3454299	0	0	0	0
25.72956	-0.06776451	-0.3454299	0	0	0	0
25.74564	-0.06776451	-0.3454299	0	0	0	0
25.76221	-0.06776451	-0.3454299	0	0	0	0
25.77877	-0.06776451	-0.3454299	0	0	0	0
25.79555	-0.06776451	-0.3454299	0	0	0	0
25.8119	-0.06776451	-0.3454299	0	0	0	0
25.82847	-0.06776451	-0.3454299	0	0	0	0
25.84504	-0.06776451	-0.3454299	0	0	0	0
25.8616	-0.06776451	-0.3454299	0	0	0	0
25.87817	-0.06776451	-0.3454299	0	0	0	0
25.89474	-0.06776451	-0.3454299	0	0	0	0
25.91131	-0.06776451	-0.3454299	0	0	0	0
25.92787	-0.06776451	-0.3454299	0	0	0	0
25.94444	-0.06776451	-0.3454299	0	0	0	0
25.96101	-0.06776451	-0.3454299	0	0	0	0
25.97815	-0.06776451	-0.3454299	0	0	0	0
25.99414	-0.06776451	-0.3454299	0	0	0	0
26.01071	-0.06776451	-0.3454299	0	0	0	0
26.02749	-0.06776451	-0.3454299	0	0	0	0
26.044	-0.06776451	-0.3454299	0	0	0	0
26.0604	-0.06776451	-0.3454299	0	0	0	0
26.07747	-0.06776451	-0.3454299	0	0	0	0
26.09354	-0.06776451	-0.3454299	0	0	0	0
26.1101	-0.06776451	-0.3454299	0	0	0	0
26.12691	-0.06776451	-0.3454299	0	0	0	0
26.14352	-0.06776451	-0.3454299	0	0	0	0
26.1598	-0.06776451	-0.3454299	0	0	0	0
26.17654	-0.06776451	-0.3454299	0	0	0	0
26.19304	-0.06776451	-0.3454299	0	0	0	0
26.20955	-0.06776451	-0.3454299	0	0	0	0
26.26383	-0.06776451	-0.3454299	0	0	0	0
26.2804	-0.06776451	-0.3454299	0	0	0	0
26.29697	-0.06776451	-0.3454299	0	0	0	0
26.31354	-0.06776451	-0.3454299	0	0	0	0
26.3301	-0.06776451	-0.3454299	0	0	0	0
26.34667	-0.06776451	-0.3454299	0	0	0	0
26.36324	-0.06776451	-0.3454299	0	0	0	0
26.3798	-0.06776451	-0.3454299	0	0	0	0
26.39639	-0.06776451	-0.3454299	0	0	0	0
26.41294	-0.06776451	-0.3454299	0	0	0	0
26.43022	-0.06776451	-0.3454299	0	0	0	0
26.44607	-0.06776451	-0.3454299	0	0	0	0
26.46264	-0.06776451	-0.3454299	0	0	0	0
26.47999	-0.06776451	-0.3454299	0	0	0	0
26.49612	-0.06776451	-0.3454299	0	0	0	0
26.51259	-0.06776451	-0.3454299	0	0	0	0
26.52909	-0.06776451	-0.3454299	0	0	0	0
26.54547	-0.06776451	-0.3454299	0	0	0	0
26.56204	-0.06776451	-0.3454299	0	0	0	0
26.57863	-0.06776451	-0.3454299	0	0	0	0
26.5952	-0.06776451	-0.3454299	0	0	0	0
26.61173	-0.06776451	-0.3454299	0	0	0	0
26.6283	-0.06776451	-0.3454299	0	0	0	0
26.64487	-0.06776451	-0.3454299	0	0	0	0
26.6618	-0.06776451	-0.3454299	0	0	0	0
26.67837	-0.06776451	-0.3454299	0	0	0	0
26.69457	-0.06776451	-0.3454299	0	0	0	0
26.71114	-0.06776451	-0.3454299	0	0	0	0
26.72771	-0.06776451	-0.3454299	0	0	0	0
26.7444	-0.06776451	-0.3454299	0	0	0	0
26.76084	-0.06776451	-0.3454299	0	0	0	0
26.7857	-0.06776451	-0.3454299	0	0	0	0
26.80227	-0.06776451	-0.3454299	0	0	0	0
26.81884	-0.06776451	-0.3454299	0	0	0	0
26.83562	-0.06776451	-0.3454299	0	0	0	0
26.85197	-0.06776451	-0.3454299	0	0	0	0
26.86891	-0.06776451	-0.3454299	0	0	0	0
26.88511	-0.06776451	-0.3454299	0	0	0	0
26.90167	-0.06776451	-0.3454299	0	0	0	0
26.91829	-0.06776451	-0.3454299	0	0	0	0
26.93481	-0.06776451	-0.3454299	0	0	0	0
26.95138	-0.06776451	-0.3454299	0	0	0	0
26.96794	-0.06776451	-0.3454299	0	0	0	0
26.98517	-0.06776451	-0.3454299	0	0	0	0
27.00107	-0.06776451	-0.3454299	0	0	0	0
27.01764	-0.06776451	-0.3454299	0	0	0	0
27.03421	-0.06776451	-0.3454299	0	0	0	0
27.05078	-0.06776451	-0.3454299	0	0	0	0
27.06734	-0.06776451	-0.3454299	0	0	0	0
27.08451	-0.06776451	-0.3454299	0	0	0	0
27.10047	-0.06776451	-0.3454299	0	0	0	0
27.11708	-0.06776451	-0.3454299	0	0	0	0
27.13391	-0.06776451	-0.3454299	0	0	0	0
27.15048	-0.06776451	-0.3454299	0	0	0	0
27.16702	-0.06776451	-0.3454299	0	0	0	0
27.18336	-0.06776451	-0.3454299	0	0	0	0
27.19987	-0.06776451	-0.3454299	0	0	0	0
27.21644	-0.06776451	-0.3454299	0	0	0	0
27.23301	-0.06776451	-0.3454299	0	0	0	0
27.24957	-0.06776451	-0.3454299	0	0	0	0
27.26614	-0.06776451	-0.3454299	0	0	0	0
27.28271	-0.06776451	-0.3454299	0	0	0	0
27.29927	-0.06776451	-0.3454299	0	0	0	0
27.31584	-0.06776451	-0.3454299	0	0	0	0
27.33241	-0.06776451	-0.3454299	0	0	0	0
27.34897	-0.06776451	-0.3454299	0	0	0	0
27.36554	-0.06776451	-0.3454299	0	0	0	0
27.3821	-0.06776451	-0.3454299	0	0	0	0
27.39867	-0.06776451	-0.3454299	0	0	0	0
27.41524	-0.06776451	-0.3454299	0	0	0	0
27.43183	-0.06776451	-0.3454299	0	0	0	0
27.44837	-0.06776451	-0.3454299	0	0	0	0
27.46694	-0.06776451	-0.3454299	0	0	0	0
27.48393	-0.06776451	-0.3454299	0	0	0	0
27.50007	-0.06776451	-0.3454299	0	0	0	0
27.51664	-0.06776451	-0.3454299	0	0	0	0
27.53351	-0.06776451	-0.3454299	0	0	0	0
27.54995	-0.06776451	-0.3454299	0	0	0	0
27.56639	-0.06776451	-0.3454299	0	0	0	0
27.58291	-0.06776451	-0.3454299	0	0	0	0
27.59947	-0.06776451	-0.3454299	0	0	0	0
27.61604	-0.06776451	-0.3454299	0	0	0	0
27.63261	-0.06776451	-0.3454299	0	0	0	0
27.64917	-0.06776451	-0.3454299	0	0	0	0
27.66574	-0.06776451	-0.3454299	0	0	0	0
27.68231	-0.06776451	-0.3454299	0	0	0	0
27.69915	-0.06776451	-0.3454299	0	0	0	0
27.71544	-0.06776451	-0.3454299	0	0	0	0
27.73201	-0.06776451	-0.3454299	0	0	0	0
27.74883	-0.06776451	-0.3454299	0	0	0	0
27.76514	-0.06776451	-0.3454299	0	0	0	0
27.78199	-0.06776451	-0.3454299	0	0	0	0
27.79827	-0.06776451	-0.3454299	0	0	0	0
27.81484	-0.06776451	-0.3454299	0	0	0	0
27.83141	-0.06776451	-0.3454299	0	0	0	0
27.84812	-0.06776451	-0.3454299	0	0	0	0
27.86454	-0.06776451	-0.3454299	0	0	0	0
27.88111	-0.06776451	-0.3454299	0	0	0	0
27.89767	-0.06776451	-0.3454299	0	0	0	0
27.91429	-0.06776451	-0.3454299	0	0	0	0
27.93081	-0.06776451	-0.3454299	0	0	0	0
27.94799	-0.06776451	-0.3454299	0	0	0	0
27.96405	-0.06776451	-0.3454299	0	0	0	0
27.98064	-0.06776451	-0.3454299	0	0	0	0
27.99707	-0.06776451	-0.3454299	0	0	0	0
28.0138	-0.06776451	-0.3454299	0	0	0	0
28.03021	-0.06776451	-0.3454299	0	0	0	0
28.04758	-0.06776451	-0.3454299	0	0	0	0
28.06334	-0.06776451	-0.345386	0	0.00278383	0	0.08402582
28.07991	-0.06776451	-0.345386	0	0	0	-0.08611295
28.09664	-0.06776451	-0.345386	0	0	0	0
28.11304	-0.06747635	-0.3451008	0.0175729	0.01739524	0.5304123	0.5250498
28.12991	-0.06747635	-0.3451008	0	0	-0.5281319	-0.5227925
28.14617	-0.06747635	-0.3451008	0	0	0	0
28.16274	-0.04917086	-0.3298128	1.105049	0.9228897	33.66634	28.11668
28.17931	-0.04917086	-0.3298128	0	0	-33.35045	-27.85287
28.19587	-0.04917086	-0.3298128	0	0	0	0
28.21244	-0.01205205	-0.299378	2.240754	1.837261	67.62998	55.45183
28.22901	-0.01205205	-0.299378	0	0	-67.62608	-55.44864
28.24557	-0.01205205	-0.299378	0	0	0	0
28.26214	0.01578816	-0.2769054	1.680632	1.356601	50.72741	40.94701
28.27871	0.01578816	-0.2769054	0	0	-50.72157	-40.94229
28.29527	0.01578816	-0.2769054	0	0	0	0
28.31184	0.03330347	-0.2628964	1.05747	0.8457796	31.92001	25.53009
28.32841	0.03330347	-0.2628964	0	0	-31.91634	-25.52715
28.34513	0.03330347	-0.2628964	0	0	0	0
28.36154	0.051717	-0.2482606	1.122427	0.8921537	33.87881	26.92835
28.37811	0.051717	-0.2482606	0	0	-34.0395	-27.05608
28.39467	0.051717	-0.2482606	0	0	0	0
28.41124	0.08247042	-0.2239473	1.85628	1.46755	56.02264	44.29075
28.4278	0.08247042	-0.2239473	0	0	-56.02586	-44.2933
28.44481	0.08247042	-0.2239473	0	0	0	0
28.46127	0.1124707	-0.2003854	1.823417	1.432095	54.49132	42.79697
28.47793	0.1124707	-0.2003854	0	0	-55.06571	-43.24809
28.49407	0.1124707	-0.2003854	0	0	0	0
28.51064	0.1261165	-0.1891562	0.8236638	0.677796	25.18	20.72072
28.52721	0.1261165	-0.1891562	0	0	-24.85822	-20.45592
28.54377	0.1261165	-0.1891562	0	0	0	0
28.56043	0.1236035	-0.1756721	-0.1508363	0.8093321	-4.539443	24.35699
28.57714	0.1236035	-0.1756721	0	0	4.519984	-24.25258
28.59391	0.1236035	-0.1756721	0	0	0	0
28.61004	0.1213741	-0.1447747	-0.1382088	1.91547	-4.201382	58.22799
28.62661	0.1213741	-0.1447747	0	0	4.226623	-58.57782
28.64331	0.1213741	-0.1447747	0	0	0	0
28.65974	0.1277996	-0.1107888	0.3910408	2.068304	11.80231	62.42514
28.67631	0.1277996	-0.1107888	0	0	-11.85075	-62.68134
28.69287	0.1277996	-0.1107888	0	0	0	0
28.70958	0.1338527	-0.08355127	0.3623616	1.630543	10.89095	49.00677
28.72601	0.1338527	-0.08355127	0	0	-10.93672	-49.21272
28.74257	0.1338527	-0.08355127	0	0	0	0
28.75914	0.1336201	-0.07444971	-0.01404199	0.5493709	-0.4237882	16.58005
28.77571	0.1336201	-0.07444971	0	0	0.4237882	-16.58005
28.79228	0.1336201	-0.07444971	0	0	0	0
28.81237	0.1396379	-0.06991979	0.2995407	0.22548	8.171372	6.151019
28.82942	0.1396379	-0.06991979	0	0	-8.063545	-6.069852
28.8455	0.1407474	-0.06909171	0.069003	0.05150133	2.082395	1.554224
28.86207	0.1407474	-0.06909171	0	0	-2.113662	-1.577561
28.879	0.1407474	-0.06909171	0	0	0	0
28.8952	0.1407474	-0.06909171	0	0	0	0
28.91177	0.1407474	-0.06909171	0	0	0	0
28.92894	0.1407474	-0.06909171	0	0	0	0
28.9449	0.1407474	-0.06909171	0	0	0	0
28.96147	0.1407474	-0.06909171	0	0	0	0
28.97813	0.1407474	-0.06909171	0	0	0	0
28.9946	0.1407474	-0.06913022	0	-0.002337239	0	-0.07054207
29.01117	0.1407474	-0.06913022	0	0	0	0.07072937
29.02816	0.1407474	-0.06913022	0	0	0	0
29.0443	0.1407474	-0.06913022	0	0	0	0
29.06087	0.1407474	-0.06913022	0	0	0	0
29.07744	0.1407474	-0.06913022	0	0	0	0
29.09401	0.1407216	-0.06914947	-0.001557823	-0.001162071	-0.04701519	-0.03507138
29.11057	0.1407216	-0.06914947	0	0	0.04701789	0.0350734
29.12718	0.1407216	-0.06914947	0	0	0	0
29.14371	0.1407216	-0.06914947	0	0	0	0
29.16031	0.1407216	-0.06914947	0	0	0	0
29.17722	0.1407216	-0.06914947	0	0	0	0
29.19341	0.1406958	-0.06916873	-0.001593242	-0.001189639	-0.04814233	-0.03594683
29.20998	0.1406958	-0.06916873	0	0	0.04863567	0.0363152
29.22681	0.1406958	-0.06916873	0	0	0	0
29.24311	0.1406442	-0.06920724	-0.003166513	-0.002363226	-0.09557655	-0.07133052
29.25983	0.1406442	-0.06920724	0	0	0.09590784	0.07157777
29.27654	0.1406442	-0.06920724	0	0	0	0
29.29281	0.1406184	-0.0692265	-0.001585211	-0.001183185	-0.04806589	-0.03587587
29.30938	0.1406184	-0.0692265	0	0	0.04826967	0.03602798
29.32597	0.1406184	-0.0692265	0	0	0	0
29.34251	0.140541	-0.06928427	-0.004680291	-0.003493548	-0.1412596	-0.1054416
29.35908	0.140541	-0.06928427	0	0	0.1413817	0.1055327
29.37564	0.140541	-0.06928427	0	0	0	0
29.39277	0.1404636	-0.06934203	-0.004519226	-0.003372887	-0.1341283	-0.1001055
29.40883	0.1404636	-0.06934203	0	0	0.1361789	0.101636
29.42534	0.1404636	-0.06934203	0	0	0	0
29.44191	0.1400766	-0.0696309	-0.02336105	-0.01743601	-0.706176	-0.5270695
29.45879	0.1400766	-0.0696309	0	0	0.6984044	0.5212689
29.47513	0.1400766	-0.0696309	0	0	0	0
29.49167	0.1398443	-0.06980423	-0.0140371	-0.01047671	-0.4269337	-0.3186457
29.50902	0.1398443	-0.06980423	0	0	0.4141988	0.3091408
29.52474	0.1398443	-0.06980423	0	0	0	0
29.54131	0.1397411	-0.06988127	-0.006229493	-0.004650083	-0.1929148	-0.1440037
29.55806	0.1397411	-0.06988127	0	0	0.1869839	0.1395765
29.57444	0.1397411	-0.06988127	0	0	0	0
29.59101	0.1395605	-0.07001609	-0.01090512	-0.008139033	-0.3309651	-0.2470158
29.60758	0.1395605	-0.07001609	0	0	0.3290981	0.2456224
29.62414	0.1395605	-0.07001609	0	0	0	0
29.64071	0.1390959	-0.07043988	-0.02804637	-0.0255854	-0.8465386	-0.7722577
29.65728	0.1390959	-0.07043988	0	0	0.8464411	0.7721689
29.67384	0.1390959	-0.07043988	0	0	0	0
29.69067	0.1331806	-0.07535658	-0.3515439	-0.2921979	-10.5278	-8.750547
29.70716	0.1331806	-0.07535658	0	0	10.5501	8.76908
29.72355	0.1331806	-0.07535658	0	0	0	0
29.74011	0.1067505	-0.09618171	-1.595508	-1.257152	-48.42852	-38.15837
29.75668	0.1067505	-0.09618171	0	0	48.15807	37.94529
29.77357	0.1067505	-0.09618171	0	0	0	0
29.7898	0.06797406	-0.1295551	-2.388117	-2.055359	-72.08598	-62.04158
29.80637	0.06797406	-0.1295551	0	0	72.79426	62.65118
29.82301	0.06797406	-0.1295551	0	0	0	0
29.83951	0.03758755	-0.1544708	-1.842406	-1.510695	-55.60711	-45.59548
29.85618	0.03758755	-0.1544708	0	0	55.55275	45.5509
29.87264	0.03758755	-0.1544708	0	0	0	0
29.88921	0.03259372	-0.1582567	-0.3014286	-0.2285188	-9.126554	-6.919014
29.90623	0.03259372	-0.1582567	0	0	8.973676	6.803114
29.92265	0.03259372	-0.1582567	0	0	0	0
29.93911	0.03262001	-0.1582766	0.001597312	-0.001211395	0.04857606	-0.03683989
29.95553	0.03262001	-0.1582766	0	0	-0.04857888	0.03684203
29.97224	0.03262001	-0.1582766	0	0	0	0
29.98861	0.03259372	-0.1582966	-0.001606247	-0.001218171	-0.04856888	-0.03683444
30.00535	0.03259372	-0.1582966	0	0	0.04851292	0.03679201
30.02174	0.03259372	-0.1582966	0	0	0	0
30.03864	0.03256743	-0.1590744	-0.001555842	-0.04603634	-0.0467348	-1.382852
30.05487	0.03256743	-0.1590744	0	0	0.04696081	1.389539
30.07219	0.03256743	-0.1590744	0	0	0	0
30.08801	0.03367148	-0.1894392	0.06979042	-1.919448	2.106158	-57.92571
30.10457	0.03367148	-0.1894392	0	0	-2.155285	59.27687
30.12114	0.03367148	-0.1894392	0	0	0	0
30.14162	0.03974222	-0.2472208	0.2963792	-2.820951	7.998974	-76.13459
30.15819	0.03974222	-0.2472208	0	0	-7.998562	76.13067
30.17485	0.03509085	-0.2783839	-0.2792781	-1.871099	-8.405405	-56.31428
30.19142	0.03509085	-0.2783839	0	0	8.40637	56.32075
30.20789	0.03509085	-0.2783839	0	0	0	0
30.22453	0.0189451	-0.3055434	-0.9704257	-1.632398	-29.30437	-49.29424
30.24103	0.0189451	-0.3055434	0	0	29.28919	49.2687
30.25769	0.0189451	-0.3055434	0	0	0	0
30.27416	0.0185242	-0.3058866	-0.02556485	-0.02084178	-0.7715931	-0.6290424
30.29073	0.0185242	-0.3058866	0	0	0.7739545	0.6309676
30.30729	0.0185242	-0.3058866	0	0	0	0
30.32386	0.0185242	-0.3058866	0	0	0	0
30.34043	0.0185242	-0.3058866	0	0	0	0
30.357	0.0185242	-0.3058866	0	0	0	0
30.37356	0.01849789	-0.3058651	-0.00158839	0.001293836	-0.04794047	0.03905029
30.39037	0.01849789	-0.3058651	0	0	0.04760613	-0.03877794
30.4067	0.01849789	-0.3058651	0	0	0	0
30.42344	0.01847158	-0.3058437	-0.001571379	0.001281759	-0.04751457	0.03875719
30.43983	0.01847158	-0.3058437	0	0	0.04742977	-0.03868802
30.45682	0.01847158	-0.3058437	0	0	0	0
30.47296	0.01839266	-0.3057793	-0.004890893	0.003987515	-0.1476159	0.1203504
30.4899	0.01839266	-0.3057793	0	0	0.1478713	-0.1205586
30.50638	0.01839266	-0.3057793	0	0	0	0
30.52266	0.01836636	-0.305715	-0.001616048	0.003952475	-0.04932898	0.1206471
30.53924	0.01836636	-0.305715	0	0	0.04918294	-0.12029
30.55579	0.01836636	-0.305715	0	0	0	0
30.57265	0.01834005	-0.3056935	-0.00156071	0.001273056	-0.04671242	0.03810288
30.58906	0.01834005	-0.3056935	0	0	0.04691866	-0.03827111
30.60558	0.01834005	-0.3056935	0	0	0	0
30.62206	0.01836636	-0.3056721	0.00159648	0.001300425	0.0483768	0.0394057
30.63863	0.01836636	-0.3056721	0	0	-0.04830979	-0.03935112
30.65545	0.01836636	-0.3056721	0	0	0	0
30.67176	0.01834005	-0.3056935	-0.001613287	-0.001314116	-0.04869191	-0.03966237
30.68833	0.01834005	-0.3056935	0	0	0.04907328	0.03997303
30.70556	0.01834005	-0.3056935	0	0	0	0
30.7216	0.01836636	-0.3056721	0.001640146	0.001335994	0.04930106	0.04015857
30.73803	0.01836636	-0.3056721	0	0	-0.05051455	-0.04114702
30.75459	0.01836636	-0.3056721	0	0	0	0
30.77116	0.01836636	-0.3056721	0	0	0	0
30.78773	0.01836636	-0.3056721	0	0	0	0
30.80429	0.01836636	-0.3056721	0	0	0	0
30.82221	0.01834005	-0.3056507	-0.001468639	0.001197955	-0.04259501	0.03474435
30.83878	0.01834005	-0.3056507	0	0	0.04258794	-0.03473859
30.85536	0.01834005	-0.3056507	0	0	0	0
30.87391	0.01834005	-0.3056507	0	0	0	0
30.89048	0.01834005	-0.3056507	0	0	0	0
30.90704	0.01834005	-0.3056507	0	0	0	0
30.92361	0.01831374	-0.3056292	-0.00158832	0.001293687	-0.04794386	0.03905028
30.94062	0.01831374	-0.3056292	0	0	0.04730654	-0.03853118
30.95674	0.01831374	-0.3056292	0	0	0	0
30.98313	0.01831374	-0.3055863	0	0.001626428	0	0.038259
31.00006	0.01831374	-0.3055863	0	0	0	-0.0375431
31.01626	0.01831374	-0.3055434	0	0.002647401	0	0.07989872
31.03283	0.01831374	-0.3055434	0	0	0	-0.08079635
31.0494	0.01831374	-0.3055434	0	0	0	0
31.06649	0.01834005	-0.305522	0.001539394	0.001253836	0.04573501	0.03725117
31.08381	0.01834005	-0.305522	0	0	-0.04473371	-0.03643562
31.09982	0.01834005	-0.305522	0	0	0	0
31.11619	0.01834005	-0.305522	0	0	0	0
31.13276	0.01834005	-0.305522	0	0	0	0
31.14932	0.01834005	-0.305522	0	0	0	0
31.16589	0.01834005	-0.305522	0	0	0	0
31.18246	0.01834005	-0.305522	0	0	0	0
31.19902	0.01834005	-0.305522	0	0	0	0
31.21577	0.01834005	-0.3054791	0	0.00256028	0	0.07685354
31.23255	0.01834005	-0.3054791	0	0	0	-0.0763682
31.24891	0.01834005	-0.3054791	0	0	0	0
31.26548	0.01826113	-0.3054148	-0.004764298	0.003884211	-0.1446947	0.1179659
31.28205	0.01826113	-0.3054148	0	0	0.1437868	-0.1172257
31.29861	0.01826113	-0.3054148	0	0	0	0
31.31551	0.01802436	-0.3052647	-0.01401195	0.008882211	-0.4187355	0.2654375
31.33175	0.01802436	-0.3052647	0	0	0.4228814	-0.2680657
31.34834	0.01802436	-0.3052647	0	0	0	0
31.36487	0.01673528	-0.3042144	-0.0779439	0.06350731	-2.352758	1.916986
31.38144	0.01673528	-0.3042144	0	0	2.354249	-1.9182
31.39801	0.01673528	-0.3042144	0	0	0	0
31.41458	0.01349918	-0.3015806	-0.1953539	0.1589936	-5.896131	4.798713
31.43114	0.01349918	-0.3015806	0	0	5.896131	-4.798713
31.44771	0.01349918	-0.3015806	0	0	0	0
31.46427	0.01347287	-0.3016019	-0.001588488	-0.001290088	-0.0479462	-0.03893942
31.485	0.01347287	-0.3016019	0	0	0.04259323	0.03459202
31.50173	0.01347287	-0.3016019	0	0	0	0
31.51827	0.01349918	-0.3016233	0.001589953	-0.001293079	0.04778957	-0.03886634
31.53471	0.01349918	-0.3016233	0	0	-0.04820688	0.03920574
31.55128	0.01349918	-0.3016233	0	0	0	0
31.56784	0.01347287	-0.3016447	-0.001588306	-0.001291739	-0.04793792	-0.03898699
31.58441	0.01347287	-0.3016447	0	0	0.04793516	0.03898475
31.60098	0.01347287	-0.3016447	0	0	0	0
31.61754	0.01320976	-0.3015592	-0.01588139	0.005164561	-0.4793015	0.1558668
31.63411	0.01320976	-0.3015592	0	0	0.4793015	-0.1558668
31.65123	0.01320976	-0.3015592	0	0	0	0
31.66724	0.004815752	-0.2947463	-0.5242884	0.4255309	-15.82397	12.84329
31.68405	0.004815752	-0.2947463	0	0	15.97478	-12.9657
31.70038	0.004815752	-0.2947463	0	0	0	0
31.71695	-0.002052629	-0.289191	-0.4145763	0.3353169	-12.60408	10.19441
31.73351	-0.002052629	-0.289191	0	0	12.51194	-10.11988
31.75008	-0.002052629	-0.289191	0	0	0	0
31.76664	-0.004868383	-0.2870458	-0.1699984	0.1295162	-5.131153	3.909257
31.7836	-0.004868383	-0.2870458	0	0	5.071878	-3.864098
31.79978	-0.004868383	-0.2870458	0	0	0	0
31.81635	-0.007710373	-0.2848394	-0.1715429	0.1331777	-5.238389	4.066833
31.83291	-0.007710373	-0.2848394	0	0	5.176877	-4.019079
31.84953	-0.007710373	-0.2848394	0	0	0	0
31.86624	-0.007684059	-0.2848606	0.001574722	-0.001269832	0.04725321	-0.03810427
31.88268	-0.007684059	-0.2848606	0	0	-0.04750881	0.03831038
31.89941	-0.007684059	-0.2848606	0	0	0	0
31.91595	-0.007710373	-0.2848818	-0.001591067	-0.00128121	-0.0478203	-0.03850741
31.93232	-0.007710373	-0.2848818	0	0	0.0483497	0.03893371
31.94911	-0.007710373	-0.2848818	0	0	0	0
31.96567	-0.007710373	-0.2848818	0	0	0	0
31.98202	-0.007710373	-0.2848818	0	0	0	0
31.99858	-0.007710373	-0.2848818	0	0	0	0
32.01515	-0.007684059	-0.284903	0.001588685	-0.001281092	0.04794937	-0.03866565
32.03172	-0.007684059	-0.284903	0	0	-0.04795213	0.03866788
32.04828	-0.007684059	-0.284903	0	0	0	0
32.06487	-0.007684059	-0.284903	0	0	0	0
32.08152	-0.007684059	-0.284903	0	0	0	0
32.09825	-0.007684059	-0.284903	0	0	0	0
32.11454	-0.007657745	-0.2849242	0.001615124	-0.001300559	0.04890782	-0.03938244
32.13111	-0.007657745	-0.2849242	0	0	-0.04915196	0.03957903
32.14797	-0.007657745	-0.2849242	0	0	0	0
32.16425	-0.007631431	-0.2849455	0.001616988	-0.001303915	0.0488008	-0.03935222
32.18081	-0.007631431	-0.2849455	0	0	-0.04923728	0.0397042
32.19738	-0.007631431	-0.2849455	0	0	0	0
32.21424	-0.007631431	-0.2849455	0	0	0	0
32.23051	-0.007631431	-0.2849455	0	0	0	0
32.24708	-0.007631431	-0.2849455	0	0	0	0
32.26364	-0.007631431	-0.2849455	0	0	0	0
32.28021	-0.007631431	-0.2849455	0	0	0	0
32.29684	-0.007631431	-0.2849455	0	0	0	0
32.36604	-0.007605116	-0.2849666	0.0003802962	-0.000306229	0.004431166	-0.003568144
32.38265	-0.007605116	-0.2849666	0	0	-0.004431954	0.003568778
32.40106	-0.007605116	-0.2849666	0	0	0	0
32.41763	-0.007605116	-0.2849666	0	0	0	0
32.4342	-0.007605116	-0.2849666	0	0	0	0
32.45076	-0.007578802	-0.2849879	0.001588685	-0.001281092	0.04795213	-0.03866788
32.46733	-0.007578802	-0.2849879	0	0	-0.04794661	0.03866342
32.48441	-0.007578802	-0.2849879	0	0	0	0
32.50046	-0.007578802	-0.2849879	0	0	0	0
32.51703	-0.007578802	-0.2849879	0	0	0	0
32.5336	-0.007578802	-0.2849879	0	0	0	0
32.55053	-0.007578802	-0.2849879	0	0	0	0
32.56673	-0.007578802	-0.2849879	0	0	0	0
32.5833	-0.007578802	-0.2849879	0	0	0	0
32.59986	-0.007578802	-0.2849879	0	0	0	0
32.61654	-0.007578802	-0.2849879	0	0	0	0
32.633	-0.007578802	-0.2849879	0	0	0	0
32.64956	-0.007552488	-0.2850091	0.001588713	-0.001279292	0.04811364	-0.03874293
32.6663	-0.007552488	-0.2850091	0	0	-0.04770581	0.03841453
32.68282	-0.007552488	-0.2850091	0	0	0	0
32.69931	-0.007552488	-0.2850091	0	0	0	0
32.71582	-0.007552488	-0.2850091	0	0	0	0
32.73285	-0.007552488	-0.2850091	0	0	0	0
32.74895	-0.007552488	-0.2850091	0	0	0	0
32.76552	-0.007552488	-0.2850091	0	0	0	0
32.78209	-0.007552488	-0.2850091	0	0	0	0
32.79873	-0.007552488	-0.2850091	0	0	0	0
32.81522	-0.007552488	-0.2850091	0	0	0	0
32.83195	-0.007552488	-0.2850091	0	0	0	0
32.84835	-0.007552488	-0.2850091	0	0	0	0
32.86492	-0.007552488	-0.2850091	0	0	0	0
32.88162	-0.007552488	-0.2850091	0	0	0	0
32.89806	-0.007526174	-0.2850303	0.001600852	-0.001290903	0.04831381	-0.03895952
32.91462	-0.007526174	-0.2850303	0	0	-0.04850367	0.03911262
32.93119	-0.007526174	-0.2850303	0	0	0	0
32.94776	-0.007526174	-0.2850303	0	0	0	0
32.96464	-0.007526174	-0.2850303	0	0	0	0
32.98109	-0.007526174	-0.2850303	0	0	0	0
32.99746	-0.007526174	-0.2850303	0	0	0	0
33.01454	-0.007526174	-0.2850303	0	0	0	0
33.03059	-0.007526174	-0.2850303	0	0	0	0
33.04722	-0.007526174	-0.2850303	0	0	0	0
33.06373	-0.007526174	-0.2850303	0	0	0	0
33.08041	-0.007526174	-0.2850303	0	0	0	0
33.09699	-0.007499859	-0.2850515	0.001587616	-0.001278409	0.04773301	-0.03843643
33.11343	-0.007499859	-0.2850515	0	0	-0.04809153	0.03872513
33.13008	-0.007499859	-0.2850515	0	0	0	0
33.14656	-0.007499859	-0.2850515	0	0	0	0
33.16378	-0.007499859	-0.2850515	0	0	0	0
33.18026	-0.007499859	-0.2850515	0	0	0	0
33.19626	-0.007499859	-0.2850515	0	0	0	0
33.21283	-0.007499859	-0.2850515	0	0	0	0
33.22939	-0.007499859	-0.2850515	0	0	0	0
33.24596	-0.007499859	-0.2850515	0	0	0	0
33.26255	-0.007499859	-0.2850515	0	0	0	0
33.27909	-0.007499859	-0.2850515	0	0	0	0
33.29571	-0.007499859	-0.2850515	0	0	0	0
33.31248	-0.007499859	-0.2850515	0	0	0	0
33.32879	-0.007499859	-0.2850515	0	0	0	0
33.34566	-0.007499859	-0.2850515	0	0	0	0
33.36193	-0.007499859	-0.2850515	0	0	0	0
33.3791	-0.007499859	-0.2850515	0	0	0	0
33.39506	-0.007499859	-0.2850515	0	0	0	0
33.41171	-0.007499859	-0.2850515	0	0	0	0
33.42871	-0.007499859	-0.2850515	0	0	0	0
33.44526	-0.007499859	-0.2850515	0	0	0	0
33.46133	-0.007499859	-0.2850515	0	0	0	0
33.47789	-0.007499859	-0.2850515	0	0	0	0
33.49446	-0.007499859	-0.2850515	0	0	0	0
33.51102	-0.007499859	-0.2850515	0	0	0	0
33.52794	-0.007499859	-0.2850515	0	0	0	0
33.54416	-0.007499859	-0.2850515	0	0	0	0
33.56098	-0.007499859	-0.2850515	0	0	0	0
33.57754	-0.007499859	-0.2850515	0	0	0	0
33.59387	-0.007499859	-0.2850515	0	0	0	0
33.611	-0.007499859	-0.2850515	0	0	0	0
33.62701	-0.007499859	-0.2850515	0	0	0	0
33.64355	-0.007499859	-0.2850515	0	0	0	0
33.66058	-0.007499859	-0.2850515	0	0	0	0
33.67669	-0.007499859	-0.2850515	0	0	0	0
33.69326	-0.007499859	-0.2850515	0	0	0	0
33.70996	-0.007499859	-0.2850515	0	0	0	0
33.72639	-0.007499859	-0.2850515	0	0	0	0
33.74296	-0.007499859	-0.2850515	0	0	0	0
33.75993	-0.007499859	-0.2850515	0	0	0	0
33.77609	-0.007499859	-0.2850515	0	0	0	0
33.79266	-0.007499859	-0.2850515	0	0	0	0
33.80922	-0.007499859	-0.2850515	0	0	0	0
33.82579	-0.007499859	-0.2850515	0	0	0	0
33.84236	-0.007499859	-0.2850515	0	0	0	0
33.85906	-0.007499859	-0.2850515	0	0	0	0
33.87549	-0.007499859	-0.2850515	0	0	0	0
33.89206	-0.007447231	-0.2850939	0.003177399	-0.002560384	0.09630431	-0.07760312
33.90862	-0.007447231	-0.2850939	0	0	-0.09590512	0.07728145
33.92519	-0.007447231	-0.2850939	0	0	0	0
33.94176	-0.01652481	-0.301388	-0.5479239	-0.9835151	-16.53638	-29.68255
33.95892	-0.01652481	-0.301388	0	0	16.24279	29.15556
33.97517	-0.01652481	-0.301388	0	0	0	0
33.99146	-0.03527484	-0.3650745	-1.151372	-3.910763	-35.38811	-120.1997
34.00854	-0.03527484	-0.3650745	0	0	34.5022	117.1906
34.02459	-0.03527484	-0.3650745	0	0	0	0
34.04116	-0.04126604	-0.4411887	-0.3617127	-4.595317	-11.09145	-140.9095
34.05772	-0.04126604	-0.4411887	0	0	10.91777	138.7029
34.07429	-0.04126604	-0.4411887	0	0	0	0
34.09086	-0.051717	-0.4946338	-0.6308216	-3.225953	-19.03823	-97.35944
34.10743	-0.051717	-0.4946338	0	0	19.03823	97.35944
34.12399	-0.051717	-0.4946338	0	0	0	0
34.14056	-0.04969589	-0.5161641	0.1219945	-1.299573	3.681802	-39.2212
34.15713	-0.04969589	-0.5161641	0	0	-3.681802	39.2212
34.17369	-0.04969589	-0.5161641	0	0	0	0
34.19054	-0.04475956	-0.526306	0.293032	-0.6020473	8.770017	-18.01839
34.2071	-0.04475956	-0.526306	0	0	-8.771018	18.02045
34.22367	-0.04475956	-0.526306	0	0	0	0
34.24024	-0.04496966	-0.5261074	-0.01268182	0.01199128	-0.3826941	0.3618559
34.25681	-0.04496966	-0.5261074	0	0	0.3827381	-0.3618975
34.27338	-0.04496966	-0.5261074	0	0	0	0
34.28994	-0.04504845	-0.5259832	-0.004756637	0.007495826	-0.1435721	0.2262505
34.30651	-0.04504845	-0.5259832	0	0	0.1435721	-0.2262505
34.32307	-0.04504845	-0.5259832	0	0	0	0
34.33964	-0.04523228	-0.5256109	-0.01109634	0.0224751	-0.3348882	0.6783
34.35621	-0.04523228	-0.5256109	0	0	0.3348882	-0.6783
34.37318	-0.04523228	-0.5256109	0	0	0	0
34.38934	-0.04544238	-0.5252138	-0.01299863	0.0245678	-0.3922994	0.7414575
34.40611	-0.04544238	-0.5252138	0	0	0.3947079	-0.7460095
34.42248	-0.04544238	-0.5252138	0	0	0	0
34.4393	-0.04686041	-0.5237259	-0.08429196	0.08844601	-2.539843	2.66501
34.45595	-0.04686041	-0.5237259	0	0	2.518135	-2.642232
34.47218	-0.04686041	-0.5237259	0	0	0	0
34.48874	-0.05019464	-0.5200877	-0.2012548	0.2195991	-6.137477	6.696903
34.50531	-0.05019464	-0.5200877	0	0	6.073883	-6.627513
34.52188	-0.05019464	-0.5200877	0	0	0	0
34.53844	-0.06883842	-0.5021942	-1.125859	1.080551	-33.98633	32.61861
34.55501	-0.06883842	-0.5021942	0	0	33.98241	-32.61485
34.57157	-0.06883842	-0.5021942	0	0	0	0
34.58814	-0.09398545	-0.4782252	-1.517877	1.446773	-45.8149	43.66873
34.60471	-0.09398545	-0.4782252	0	0	45.80962	-43.6637
34.62127	-0.09398545	-0.4782252	0	0	0	0
34.63784	-0.1138996	-0.4476424	-1.202299	1.846404	-36.28964	55.731
34.65441	-0.1138996	-0.4476424	0	0	36.28546	-55.72458
34.67097	-0.1138996	-0.4476424	0	0	0	0
34.68754	-0.1082593	-0.4067594	0.3405302	2.468275	10.27841	74.50127
34.70452	-0.1082593	-0.4067594	0	0	-10.14985	-73.56947
34.72074	-0.1082593	-0.4067594	0	0	0	0
34.73748	-0.09359417	-0.3746061	0.8761101	1.920873	26.58798	58.29419
34.7538	-0.09359417	-0.3746061	0	0	-26.49596	-58.09243
34.77037	-0.09359417	-0.3746061	0	0	0	0
34.78817	-0.0715618	-0.340675	1.238082	1.906719	36.02974	55.48789
34.80474	-0.0715618	-0.340675	0	0	-36.02574	-55.48174
34.8213	-0.0715618	-0.340675	0	0	0	0
34.83787	-0.05043089	-0.299891	1.275464	2.461727	38.49359	74.29507
34.85444	-0.05043089	-0.299891	0	0	-38.49359	-74.29507
34.871	-0.05043089	-0.299891	0	0	0	0
34.89301	-0.02759825	-0.260446	1.037697	1.792695	26.90664	46.48311
34.90958	-0.02759825	-0.260446	0	0	-26.90131	-46.47392
34.92646	-0.01641958	-0.2439595	0.6622426	0.9766843	19.79735	29.19739
34.94276	-0.01641958	-0.2439595	0	0	-19.95895	-29.43572
34.95928	-0.01641958	-0.2439595	0	0	0	0
34.97584	0.003815771	-0.2281029	1.221689	0.9573299	36.92592	28.93558
34.99241	0.003815771	-0.2281029	0	0	-36.8749	-28.8956
35.00898	0.003815771	-0.2281029	0	0	0	0
35.02554	0.01823482	-0.2167669	0.8703356	0.6842387	26.26678	20.65036
35.04211	0.01823482	-0.2167669	0	0	-26.26678	-20.65036
35.05868	0.01823482	-0.2167669	0	0	0	0
35.07533	0.04447066	-0.1852981	1.575978	1.890322	47.44839	56.91242
35.09181	0.04447066	-0.1852981	0	0	-47.56311	-57.05002
35.10838	0.04447066	-0.1852981	0	0	0	0
35.12499	0.05281925	-0.1396249	0.5026487	2.749873	15.15078	82.88635
35.14151	0.05281925	-0.1396249	0	0	-15.16997	-82.99133
35.15808	0.05281925	-0.1396249	0	0	0	0
35.17464	0.03482801	-0.1185649	-1.086203	1.27148	-32.78545	38.37776
35.19121	0.03482801	-0.1185649	0	0	32.78545	-38.37776
35.208	0.03482801	-0.1185649	0	0	0	0
35.22451	0.03156846	-0.09462635	-0.1973836	1.449606	-5.927704	43.53368
35.24091	0.03156846	-0.09462635	0	0	5.996399	-44.03818
35.25748	0.03156846	-0.09462635	0	0	0	0
35.27404	0.06066232	-0.05852129	1.756514	2.179808	53.01779	65.7943
35.29105	0.06066232	-0.05852129	0	0	-52.32494	-64.93449
35.30718	0.06066232	-0.05852129	0	0	0	0
35.32375	0.08092812	-0.03974381	1.223246	1.133411	37.40862	34.66133
35.34032	0.08092812	-0.03974381	0	0	-36.91765	-34.20642
35.357	0.08092812	-0.03974381	0	0	0	0
35.37362	0.09487223	-0.02931622	0.8389633	0.6273878	25.18946	18.83701
35.39018	0.09487223	-0.02931622	0	0	-25.28503	-18.90848
35.40659	0.09487223	-0.02931622	0	0	0	0
35.42352	0.1093775	-0.01670936	0.8567991	0.7446626	25.70437	22.34022
35.43972	0.1093775	-0.01670936	0	0	-25.85825	-22.47396
35.45629	0.1093775	-0.01670936	0	0	0	0
35.47292	0.10032	0.009746553	-0.5447068	1.591021	-16.40906	47.92882
35.48942	0.10032	0.009746553	0	0	16.43929	-48.01711
35.50599	0.10032	0.009746553	0	0	0	0
35.523	0.08787835	0.03206643	-0.7312785	1.311889	-21.7767	39.06665
35.53912	0.08787835	0.03206643	0	0	22.07003	-39.59288
35.55597	0.08787835	0.03206643	0	0	0	0
35.57225	0.08257496	0.03637223	-0.325738	0.2644654	-9.831925	7.982501
35.58883	0.08257496	0.03637223	0	0	9.915266	-8.050164
35.60539	0.08257496	0.03637223	0	0	0	0
35.62223	0.08299313	0.04589809	0.02484049	0.5658616	0.7436942	16.94121
35.63853	0.08299313	0.04589809	0	0	-0.7496876	-17.07774
35.65509	0.08299313	0.04589809	0	0	0	0
35.67194	0.0828886	0.04600958	-0.006204278	0.006616835	-0.1856637	0.1980096
35.68829	0.0828886	0.04600958	0	0	0.1869227	-0.1993522
35.70501	0.0828886	0.04600958	0	0	0	0
35.72136	0.08286246	0.045991	-0.001598964	-0.001136778	-0.04835147	-0.03437531
35.73821	0.08286246	0.045991	0	0	0.04816258	0.03424101
35.75449	0.08286246	0.045991	0	0	0	0
35.77106	0.08134641	0.04710571	-0.09153013	0.06729982	-2.786445	2.048803
35.78762	0.08134641	0.04710571	0	0	2.762703	-2.031347
35.80419	0.08134641	0.04710571	0	0	0	0
35.82076	0.05672854	0.06452806	-1.486279	1.051857	-44.86117	31.74877
35.83733	0.05672854	0.06452806	0	0	44.856	-31.74511
35.85425	0.05672854	0.06452806	0	0	0	0
35.87046	0.04181771	0.07501914	-0.9201469	0.6474039	-27.77329	19.54094
35.88702	0.04181771	0.07501914	0	0	28.07717	-19.75475
35.90359	0.04181771	0.07501914	0	0	0	0
35.92016	0.04032024	0.07607047	-0.09038769	0.0634588	-2.727906	1.91519
35.93673	0.04032024	0.07607047	0	0	2.727906	-1.91519
35.95413	0.04032024	0.07607047	0	0	0	0
35.96986	0.04032024	0.07607047	0	0	0	0
35.98728	0.04032024	0.07607047	0	0	0	0
36.00299	0.04032024	0.07607047	0	0	0	0
36.01956	0.04026769	0.07603359	-0.003172366	-0.002226616	-0.09828824	-0.06898642
36.03613	0.04026769	0.07603359	0	0	0.09575322	0.06720716
36.05315	0.04026769	0.07603359	0	0	0	0
36.06927	0.04021515	0.07592294	-0.003259445	-0.00686413	-0.09833628	-0.2070883
36.08583	0.04021515	0.07592294	0	0	0.0997483	0.2100619
36.10239	0.04021515	0.07592294	0	0	0	0
36.11896	0.04005751	0.0757385	-0.009517549	-0.01113488	-0.2872733	-0.3360901
36.13552	0.04005751	0.0757385	0	0	0.2872733	0.3360901
36.15209	0.04005751	0.0757385	0	0	0	0
36.16929	0.03982104	0.07553562	-0.01374746	-0.01179542	-0.4071187	-0.3493107
36.18523	0.03982104	0.07553562	0	0	0.4148992	0.3559864
36.20181	0.03982104	0.07553562	0	0	0	0
36.2251	0.03968967	0.07544339	-0.005641028	-0.003959997	-0.1414812	-0.0993197
36.24167	0.03968967	0.07544339	0	0	0.1415218	0.09934821
36.25854	0.0395583	0.07535116	-0.007787987	-0.005467602	-0.2328969	-0.1635066
36.27485	0.0395583	0.07535116	0	0	0.2347446	0.1648038
36.29137	0.0395583	0.07535116	0	0	0	0
36.30794	0.03950575	0.07531428	-0.003172591	-0.002227066	-0.0958704	-0.06729822
36.3245	0.03950575	0.07531428	0	0	0.09576001	0.06722073
36.34145	0.03950575	0.07531428	0	0	0	0
36.35764	0.03940065	0.07524049	-0.006493231	-0.004558519	-0.1959887	-0.1375922
36.3742	0.03940065	0.07524049	0	0	0.1982485	0.1391787
36.39077	0.03940065	0.07524049	0	0	0	0
36.40734	0.03916417	0.07507447	-0.01427382	-0.01002106	-0.4307848	-0.3024363
36.4239	0.03916417	0.07507447	0	0	0.4307848	0.3024363
36.44047	0.03916417	0.07507447	0	0	0	0
36.45704	0.03905907	0.07500069	-0.006343946	-0.004453557	-0.1914607	-0.1344086
36.47398	0.03905907	0.07500069	0	0	0.1893462	0.1329242
36.49083	0.03905907	0.07500069	0	0	0	0
36.50681	0.03900652	0.07496379	-0.003290272	-0.002309977	-0.1002237	-0.07036331
36.5233	0.03900652	0.07496379	0	0	0.1013305	0.07114036
36.54007	0.03900652	0.07496379	0	0	0	0
36.55644	0.03895397	0.0749269	-0.003211275	-0.002254516	-0.09691646	-0.06804144
36.57301	0.03895397	0.0749269	0	0	0.09751145	0.06845916
36.58957	0.03895397	0.0749269	0	0	0	0
36.60614	0.03884887	0.07485311	-0.006343946	-0.004454006	-0.1914607	-0.1344222
36.62296	0.03884887	0.07485311	0	0	0.1899951	0.1333932
36.63927	0.03884887	0.07485311	0	0	0	0
36.65584	0.03882259	0.07483466	-0.001586155	-0.001113502	-0.04824797	-0.03387071
36.67273	0.03882259	0.07483466	0	0	0.04740094	0.03327608
36.68908	0.03882259	0.07483466	0	0	0	0
36.70554	0.03879631	0.07481621	-0.001596221	-0.001120727	-0.04865014	-0.03415788
36.72211	0.03879631	0.07481621	0	0	0.04833543	0.03393692
36.73869	0.03879631	0.07481621	0	0	0	0
36.75524	0.03874376	0.07477932	-0.003175742	-0.00222957	-0.09584407	-0.06728856
36.77184	0.03874376	0.07477932	0	0	0.09582201	0.06727307
36.78838	0.03874376	0.07477932	0	0	0	0
36.80494	0.03827078	0.07444724	-0.02855579	-0.02004854	-0.8625107	-0.6055543
36.82151	0.03827078	0.07444724	0	0	0.8619148	0.6051359
36.83815	0.03827078	0.07444724	0	0	0	0
36.85471	0.03553766	0.07252806	-0.1650092	-0.1158686	-4.970259	-3.490091
36.87121	0.03553766	0.07252806	0	0	4.990328	3.504184
36.88778	0.03553766	0.07252806	0	0	0	0
36.90434	0.03553766	0.07252806	0	0	0	0
36.92091	0.03553766	0.07252806	0	0	0	0
36.93748	0.03553766	0.07252806	0	0	0	0
36.95404	0.03553766	0.07252806	0	0	0	0
36.97061	0.03553766	0.07252806	0	0	0	0
36.98718	0.03553766	0.07252806	0	0	0	0
37.00375	0.03553766	0.07252806	0	0	0	0
37.02031	0.03553766	0.07252806	0	0	0	0
37.03688	0.03553766	0.07252806	0	0	0	0
37.05344	0.03553766	0.07252806	0	0	0	0
37.07006	0.03553766	0.07252806	0	0	0	0
37.08658	0.03553766	0.07252806	0	0	0	0
37.10314	0.03553766	0.07252806	0	0	0	0
37.11971	0.03553766	0.07252806	0	0	0	0
37.13652	0.03553766	0.07252806	0	0	0	0
37.15284	0.03553766	0.07252806	0	0	0	0
37.16941	0.03553766	0.07252806	0	0	0	0
37.18598	0.03553766	0.07252806	0	0	0	0
37.20255	0.03556395	0.07250961	0.00158638	-0.001113951	0.04787704	-0.03361912
37.21911	0.03556395	0.07250961	0	0	-0.04787704	0.03361912
37.23596	0.03556395	0.07250961	0	0	0	0
37.25246	0.03556395	0.07250961	0	0	0	0
37.26881	0.03556395	0.07250961	0	0	0	0
37.28579	0.03556395	0.07250961	0	0	0	0
37.30195	0.03556395	0.07250961	0	0	0	0
37.31852	0.03556395	0.07250961	0	0	0	0
37.33508	0.03556395	0.07250961	0	0	0	0
37.35175	0.03556395	0.07250961	0	0	0	0
37.36822	0.03556395	0.07250961	0	0	0	0
37.38515	0.03556395	0.07250961	0	0	0	0
37.40135	0.03556395	0.07250961	0	0	0	0
37.41792	0.03556395	0.07250961	0	0	0	0
37.43448	0.03556395	0.07250961	0	0	0	0
37.45169	0.03556395	0.07250961	0	0	0	0
37.46762	0.03556395	0.07250961	0	0	0	0
37.53101	0.03556395	0.07250961	0	0	0	0
37.55051	0.03559023	0.07245424	0.001348004	-0.002840075	0.01626265	-0.03426337
37.56708	0.03559023	0.07245424	0	0	-0.037374	0.07874233
37.58402	0.03559023	0.07245424	0	0	0	0
37.60021	0.03559023	0.07193737	0	-0.03192559	0	-0.963627
37.61936	0.03559023	0.07193737	0	0	0	0.9034003
37.63654	0.03559023	0.07193737	0	0	0	0
37.65264	0.01976059	0.0540283	-0.9830953	-1.112238	-29.54064	-33.4212
37.66983	0.01976059	0.0540283	0	0	29.52372	33.40205
37.68563	0.01976059	0.0540283	0	0	0	0
37.70219	-0.007078829	0.01327329	-1.620404	-2.460544	-50.07415	-76.03641
37.71876	-0.007078829	0.01327329	0	0	48.90951	74.26791
37.73533	-0.007078829	0.01327329	0	0	0	0
37.75209	-0.01386753	-0.02846152	-0.4051031	-2.490446	-12.15467	-74.72308
37.76849	-0.01386753	-0.02846152	0	0	12.219	75.11857
37.78503	-0.01386753	-0.02846152	0	0	0	0
37.80159	-0.008210341	-0.06343645	0.3415473	-2.111577	10.31623	-63.77892
37.81847	-0.008210341	-0.06343645	0	0	-10.21385	63.14593
37.83473	-0.008210341	-0.06343645	0	0	0	0
37.8513	-0.006210446	-0.07433396	0.1207417	-0.6579265	3.678293	-20.04317
37.86786	-0.006210446	-0.07433396	0	0	-3.644412	19.85855
37.88443	-0.006210446	-0.07433396	0	0	0	0
37.90153	-0.005920983	-0.07454617	0.01693016	-0.01241206	0.5029054	-0.3686966
37.91776	-0.005920983	-0.07454617	0	0	-0.5079707	0.3724101
37.93413	-0.005920983	-0.07454617	0	0	0	0
37.95069	-0.003394724	-0.0764375	0.1525204	-0.1141867	4.631336	-3.467319
37.96726	-0.003394724	-0.0764375	0	0	-4.603606	3.446559
37.98383	-0.003394724	-0.0764375	0	0	0	0
38.00039	-0.004447339	-0.07848468	-0.06355061	-0.1235966	-1.918182	-3.730581
38.01696	-0.004447339	-0.07848468	0	0	1.918182	3.730581
38.03352	-0.004447339	-0.07848468	0	0	0	0
38.05009	-0.01268353	-0.1142136	-0.4971375	-2.156602	-15.00364	-65.08636
38.06666	-0.01268353	-0.1142136	0	0	15.00364	65.08636
38.08369	-0.01268353	-0.1142136	0	0	0	0
38.0998	-0.005052588	-0.1489622	0.473693	-2.15703	14.29444	-65.09181
38.11641	-0.005052588	-0.1489622	0	0	-14.47776	65.92661
38.13293	-0.005052588	-0.1489622	0	0	0	0
38.14949	0.002684204	-0.1727202	0.4671013	-1.434364	14.11828	-43.35407
38.1667	0.002684204	-0.1727202	0	0	-13.83122	42.4726
38.18289	0.002684204	-0.1727202	0	0	0	0
38.20327	0.00173684	-0.1912193	-0.04648928	-0.9077944	-1.271189	-24.82245
38.21995	0.00173684	-0.1912193	0	0	1.254569	24.49792
38.2364	-0.00376314	-0.1955339	-0.3342111	-0.2621787	-10.08651	-7.91257
38.25297	-0.00376314	-0.1955339	0	0	10.12147	7.939994
38.26954	-0.00376314	-0.1955339	0	0	0	0
38.28821	-0.003710509	-0.1955339	0.002817989	0	0.07995659	0
38.30478	-0.003710509	-0.1955339	0	0	-0.07994793	0
38.32135	-0.003710509	-0.1955339	0	0	0	0
38.33792	-0.003605247	-0.195615	0.006355078	-0.004896757	0.1917966	-0.1477844
38.35448	-0.003605247	-0.195615	0	0	-0.1918187	0.1478014
38.37148	-0.003605247	-0.195615	0	0	0	0
38.38762	-0.00347367	-0.1957975	0.008154182	-0.01131058	0.246122	-0.3413933
38.40418	-0.00347367	-0.1957975	0	0	-0.2493374	0.3458533
38.42108	-0.00347367	-0.1957975	0	0	0	0
38.43731	-0.004342078	-0.1969131	-0.05350125	-0.06873164	-1.614857	-2.074564
38.45419	-0.004342078	-0.1969131	0	0	1.615973	2.075998
38.47096	-0.004342078	-0.1969131	0	0	0	0
38.48701	-0.03443375	-0.2202514	-1.874608	-1.453898	-57.10835	-44.29177
38.50358	-0.03443375	-0.2202514	0	0	57.47571	44.57669
38.52015	-0.03443375	-0.2202514	0	0	0	0
38.53671	-0.07022643	-0.248427	-2.16045	-1.700679	-65.20252	-51.32661
38.55328	-0.07022643	-0.248427	0	0	65.20252	51.32661
38.5706	-0.07022643	-0.248427	0	0	0	0
38.59069	-0.08267951	-0.2583959	-0.620038	-0.496349	-16.57549	-13.26891
38.60725	-0.08267951	-0.2583959	0	0	16.91707	13.54235
38.62412	-0.08262724	-0.2584377	0.003098852	-0.002478729	0.0926806	-0.07413392
38.64063	-0.08262724	-0.2584377	0	0	-0.09286071	0.07427798
38.65696	-0.08262724	-0.2584377	0	0	0	0
38.67352	-0.08267951	-0.2584795	-0.003155948	-0.002524398	-0.09594256	-0.07674311
38.69009	-0.08267951	-0.2584795	0	0	0.09525765	0.07619526
38.70665	-0.08267951	-0.2584795	0	0	0	0
38.72322	-0.08267951	-0.2584795	0	0	0	0
38.73978	-0.08267951	-0.2584795	0	0	0	0
38.75635	-0.08267951	-0.2584795	0	0	0	0
38.77291	-0.08273178	-0.2585213	-0.003155948	-0.002524398	-0.09525765	-0.07619526
38.7901	-0.08273178	-0.2585213	0	0	0.09351336	0.07480003
38.80605	-0.08273178	-0.2585213	0	0	0	0
38.82261	-0.08273178	-0.2585213	0	0	0	0
38.83918	-0.08273178	-0.2585213	0	0	0	0
38.85575	-0.08273178	-0.2585213	0	0	0	0
38.87231	-0.08273178	-0.2585213	0	0	0	0
38.88888	-0.08273178	-0.2585213	0	0	0	0
38.90545	-0.08273178	-0.2585213	0	0	0	0
38.92201	-0.08273178	-0.2585213	0	0	0	0
38.93858	-0.08273178	-0.2585213	0	0	0	0
38.95514	-0.08273178	-0.2585213	0	0	0	0
38.97173	-0.08273178	-0.2585213	0	0	0	0
38.98828	-0.08273178	-0.2585213	0	0	0	0
39.00484	-0.08273178	-0.2585213	0	0	0	0
39.02141	-0.08273178	-0.2585213	0	0	0	0
39.03798	-0.08273178	-0.2585213	0	0	0	0
39.05455	-0.08273178	-0.2585213	0	0	0	0
39.07155	-0.08273178	-0.2585213	0	0	0	0
39.08786	-0.08273178	-0.2585213	0	0	0	0
39.10442	-0.08273178	-0.2585213	0	0	0	0
39.18019	-0.08270565	-0.2585004	0.000344941	0.0002757168	0.00373592	0.00298618
39.20348	-0.08270565	-0.2585004	0	0	-0.00348214	-0.00278333
39.2229	-0.08270565	-0.2585004	0	0	0	0
39.23947	-0.08270565	-0.2585004	0	0	0	0
39.25603	-0.08270565	-0.2585004	0	0	0	0
39.2726	-0.08270565	-0.2585004	0	0	0	0
39.28917	-0.08270565	-0.2585004	0	0	0	0
39.30618	-0.08270565	-0.2585004	0	0	0	0
39.3223	-0.08270565	-0.2585004	0	0	0	0
39.33887	-0.08270565	-0.2585004	0	0	0	0
39.35543	-0.08270565	-0.2585004	0	0	0	0
39.37205	-0.08270565	-0.2585004	0	0	0	0
39.38857	-0.08270565	-0.2585004	0	0	0	0
39.40513	-0.08270565	-0.2585004	0	0	0	0
39.4217	-0.08270565	-0.2585004	0	0	0	0
39.43826	-0.08270565	-0.2585004	0	0	0	0
39.45483	-0.08270565	-0.2585004	0	0	0	0
39.47164	-0.08270565	-0.2585004	0	0	0	0
39.48796	-0.08270565	-0.2585004	0	0	0	0
39.50453	-0.08270565	-0.2585004	0	0	0	0
39.5211	-0.08270565	-0.2585004	0	0	0	0
39.53767	-0.08270565	-0.2585004	0	0	0	0
39.55423	-0.08270565	-0.2585004	0	0	0	0
39.5708	-0.08270565	-0.2585004	0	0	0	0
39.58755	-0.08270565	-0.2585004	0	0	0	0
39.60395	-0.08270565	-0.2585004	0	0	0	0
39.6205	-0.08270565	-0.2585004	0	0	0	0
39.63707	-0.08270565	-0.2585004	0	0	0	0
39.65363	-0.08270565	-0.2585004	0	0	0	0
39.6702	-0.08273178	-0.2584795	-0.00157761	0.001262808	-0.04761786	0.03811601
39.6868	-0.08273178	-0.2584795	0	0	0.04756857	-0.03807655
39.70389	-0.08273178	-0.2584795	0	0	0	0
39.7199	-0.08270565	-0.2585004	0.001632879	-0.001307048	0.04933152	-0.03948771
39.73668	-0.08270565	-0.2585004	0	0	-0.04979637	0.03985981
39.75346	-0.08270565	-0.2585004	0	0	0	0
39.7696	-0.08273178	-0.2584795	-0.001618989	0.00129593	-0.04918395	0.03936959
39.78617	-0.08273178	-0.2584795	0	0	0.04949368	-0.03961752
39.80273	-0.08273178	-0.2584795	0	0	0	0
39.8193	-0.08273178	-0.2584795	0	0	0	0
39.83594	-0.08273178	-0.2584795	0	0	0	0
39.85244	-0.08273178	-0.2584795	0	0	0	0
39.869	-0.08270565	-0.2585004	0.001577974	-0.001263099	0.04773325	-0.03820837
39.88561	-0.08270565	-0.2585004	0	0	-0.04756311	0.03807218
39.90265	-0.08270565	-0.2585004	0	0	0	0
39.9187	-0.08270565	-0.2585004	0	0	0	0
39.93527	-0.08270565	-0.2585004	0	0	0	0
39.95184	-0.08270565	-0.2585004	0	0	0	0
39.9684	-0.08273178	-0.2584795	-0.00157761	0.001262808	-0.04761238	0.03811162
39.98497	-0.08273178	-0.2584795	0	0	0.04761238	-0.03811162
40.00154	-0.08273178	-0.2584795	0	0	0	0
40.0181	-0.08273178	-0.2584795	0	0	0	0
40.03467	-0.08273178	-0.2584795	0	0	0	0
40.05125	-0.08273178	-0.2584795	0	0	0	0
40.06785	-0.08273178	-0.2584795	0	0	0	0
40.08437	-0.08273178	-0.2584795	0	0	0	0
40.10094	-0.08273178	-0.2584795	0	0	0	0
40.1175	-0.08273178	-0.2584795	0	0	0	0
40.13407	-0.08273178	-0.2584795	0	0	0	0
40.15064	-0.08273178	-0.2584795	0	0	0	0
40.16745	-0.08273178	-0.2584795	0	0	0	0
40.18382	-0.08273178	-0.2584795	0	0	0	0
40.20034	-0.08273178	-0.2584795	0	0	0	0
40.2169	-0.08270565	-0.2585004	0.001577974	-0.001263099	0.04769473	-0.03817753
40.23357	-0.08270565	-0.2585004	0	0	-0.04748667	0.038011
40.25003	-0.08270565	-0.2585004	0	0	0	0
40.26711	-0.08270565	-0.2585004	0	0	0	0
40.28342	-0.08270565	-0.2585004	0	0	0	0
40.29974	-0.08270565	-0.2585004	0	0	0	0
40.3163	-0.08270565	-0.2585004	0	0	0	0
40.33287	-0.08270565	-0.2585004	0	0	0	0
40.34944	-0.08270565	-0.2585004	0	0	0	0
40.3662	-0.08273178	-0.2584795	-0.0015593	0.001248151	-0.04678506	0.03744938
40.38257	-0.08273178	-0.2584795	0	0	0.04705976	-0.03766927
40.39914	-0.08273178	-0.2584795	0	0	0	0
40.41582	-0.08270565	-0.2585004	0.001567146	-0.001254432	0.04713918	-0.03773284
40.43227	-0.08270565	-0.2585004	0	0	-0.04729656	0.03785882
40.44884	-0.08270565	-0.2585004	0	0	0	0
40.46541	-0.08273178	-0.2584795	-0.00157761	0.001262808	-0.04761238	0.03811162
40.48265	-0.08273178	-0.2584795	0	0	0.04666153	-0.03735051
40.49854	-0.08273178	-0.2584795	0	0	0	0
40.51511	-0.08270565	-0.2585004	0.001577974	-0.001263099	0.0486197	-0.03891793
40.53167	-0.08270565	-0.2585004	0	0	-0.04762883	0.03812478
40.54824	-0.08270565	-0.2585004	0	0	0	0
40.5652	-0.08273178	-0.2584795	-0.001541409	0.00123383	-0.04597987	0.03680487
40.58138	-0.08273178	-0.2584795	0	0	0.04651982	-0.03723707
40.59837	-0.08273178	-0.2584795	0	0	0	0
40.61451	-0.08270565	-0.2585004	0.001620138	-0.001296849	0.04890148	-0.03914349
40.63107	-0.08270565	-0.2585004	0	0	-0.04954613	0.0396595
40.64764	-0.08270565	-0.2585004	0	0	0	0
40.66425	-0.08270565	-0.2585004	0	0	0	0
40.68077	-0.08270565	-0.2585004	0	0	0	0
40.69734	-0.08270565	-0.2585004	0	0	0	0
40.71391	-0.08270565	-0.2585004	0	0	0	0
40.73058	-0.08270565	-0.2585004	0	0	0	0
40.74717	-0.08270565	-0.2585004	0	0	0	0
40.76377	-0.08270565	-0.2585004	0	0	0	0
40.78017	-0.08270565	-0.2585004	0	0	0	0
40.79674	-0.08270565	-0.2585004	0	0	0	0
40.81331	-0.08270565	-0.2585004	0	0	0	0
40.82988	-0.08270565	-0.2585004	0	0	0	0
40.84644	-0.08270565	-0.2585004	0	0	0	0
