Time	Pos X	Pos Y	Vel X	Vel Y	Acc X	Acc Y
0.01646052	0.05867254	0.0507273	-0.0009138475	-0.0007900973	1.423717E-05	1.230922E-05
0.04822692	0.05867254	0.0507273	0	0	-1.424057E-05	-1.231216E-05
0.06479719	0.05867254	0.0507273	0	0	0	0
0.08136469	0.05867254	0.0507273	0	0	0	0
0.09793141	0.05867254	0.0507273	0	0	0	0
0.1148139	0.05867254	0.0507273	0	0	0	0
0.1310644	0.05867254	0.0507273	0	0	0	0
0.1476462	0.05867254	0.0507273	0	0	0	0
0.1641983	0.05867254	0.0507273	0	0	0	0
0.1807638	0.05867254	0.0507273	0	0	0	0
0.2393388	0.05867254	0.0507273	0	0	0	0
0.2559091	0.05867254	0.0507273	0	0	0	0
0.272479	0.05867254	0.0507273	0	0	0	0
0.2890437	0.05867254	0.0507273	0	0	0	0
0.3056089	0.05867254	0.0507273	0	0	0	0
0.3221736	0.05867254	0.0507273	0	0	0	0
0.3392357	0.05867254	0.0507273	0	0	0	0
0.355309	0.05867254	0.0507273	0	0	0	0
0.3718757	0.05867254	0.0507273	0	0	0	0
0.3884436	0.05867254	0.0507273	0	0	0	0
0.4050107	0.05867254	0.0507273	0	0	0	0
0.4215778	0.05867254	0.0507273	0	0	0	0
0.4381441	0.05867254	0.0507273	0	0	0	0
0.4547116	0.05867254	0.0507273	0	0	0	0
0.4716403	0.05867254	0.0507273	0	0	0	0
0.4878423	0.05867254	0.0507273	0	0	0	0
0.5045089	0.05867254	0.0507273	0	0	0	0
0.5209729	0.05867254	0.0507273	0	0	0	0
0.5375404	0.05867254	0.0507273	0	0	0	0
0.5549105	0.05867254	0.0507273	0	0	0	0
0.5706758	0.05867254	0.0507273	0	0	0	0
0.5872422	0.05867254	0.0507273	0	0	0	0
0.6040154	0.05867254	0.0507273	0	0	0	0
0.6206235	0.05867254	0.0507273	0	0	0	0
0.6369423	0.05867254	0.0507273	0	0	0	0
0.6535087	0.05867254	0.0507273	0	0	0	0
0.6700758	0.05867254	0.0507273	0	0	0	0
0.6866421	0.05867254	0.0507273	0	0	0	0
0.7032092	0.05867254	0.0507273	0	0	0	0
0.7197744	0.05867254	0.0507273	0	0	0	0
0.7363427	0.05867254	0.0507273	0	0	0	0
0.7530034	0.05867254	0.0507273	0	0	0	0
0.7694757	0.05867254	0.0507273	0	0	0	0
0.7862611	0.05867254	0.0507273	0	0	0	0
0.8026091	0.05867254	0.0507273	0	0	0	0
0.8191754	0.05867254	0.0507273	0	0	0	0
0.8357413	0.05867254	0.0507273	0	0	0	0
0.852308	0.05867254	0.0507273	0	0	0	0
0.8688751	0.05867254	0.0507273	0	0	0	0
0.8854415	0.05867254	0.0507273	0	0	0	0
0.9024014	0.05867254	0.0507273	0	0	0	0
0.9186294	0.05867254	0.0507273	0	0	0	0
0.935142	0.05867254	0.0507273	0	0	0	0
0.9517676	0.05867254	0.0507273	0	0	0	0
0.9684756	0.05867254	0.0507273	0	0	0	0
0.9848422	0.05867254	0.0507273	0	0	0	0
1.001409	0.05867254	0.0507273	0	0	0	0
1.018502	0.05867254	0.0507273	0	0	0	0
1.034543	0.05867254	0.0507273	0	0	0	0
1.05111	0.05867254	0.0507273	0	0	0	0
1.067676	0.05867254	0.0507273	0	0	0	0
1.084537	0.05867254	0.0507273	0	0	0	0
1.100809	0.05867254	0.0507273	0	0	0	0
1.117376	0.05867254	0.0507273	0	0	0	0
1.134259	0.05867254	0.0507273	0	0	0	0
1.151113	0.05867254	0.0507273	0	0	0	0
1.167267	0.05867254	0.0507273	0	0	0	0
1.183643	0.05867254	0.0507273	0	0	0	0
1.20021	0.05867254	0.0507273	0	0	0	0
1.216776	0.05867254	0.0507273	0	0	0	0
1.233435	0.05867254	0.0507273	0	0	0	0
1.249946	0.05867254	0.0507273	0	0	0	0
1.266525	0.05867254	0.0507273	0	0	0	0
1.283043	0.05867254	0.0507273	0	0	0	0
1.299609	0.05867254	0.0507273	0	0	0	0
1.316176	0.05867254	0.0507273	0	0	0	0
1.332743	0.05867254	0.0507273	0	0	0	0
1.349675	0.05867254	0.0507273	0	0	0	0
1.365874	0.05867254	0.0507273	0	0	0	0
1.382444	0.05867254	0.0507273	0	0	0	0
1.399009	0.05867254	0.0507273	0	0	0	0
1.415579	0.05867254	0.0507273	0	0	0	0
1.432143	0.05867254	0.0507273	0	0	0	0
1.448928	0.05867254	0.0507273	0	0	0	0
1.465276	0.05867253	0.04950495	-4.557387E-07	-0.07476894	-1.375467E-05	-2.256604
1.481842	0.05867253	0.04950495	0	0	1.384638E-05	2.271651
1.498943	0.05867253	0.04950495	0	0	0	0
1.514975	0.05867253	0.04950495	0	0	0	0
1.531907	0.05867253	0.04950495	0	0	0	0
1.54811	0.05867253	0.04950495	0	0	0	0
1.564675	0.05867253	0.04950495	0	0	0	0
1.581244	0.05867253	0.04950495	0	0	0	0
1.597809	0.05867253	0.04950495	0	0	0	0
1.614377	0.05867253	0.04950495	0	0	0	0
1.630944	0.05867253	0.04950495	0	0	0	0
1.647511	0.05867253	0.04950495	0	0	0	0
1.664078	0.05867253	0.04950495	0	0	0	0
1.680692	0.05867253	0.04950495	0	0	0	0
1.697211	0.05867253	0.04950495	0	0	0	0
1.713778	0.05867253	0.04950495	0	0	0	0
1.730344	0.05867253	0.04950495	0	0	0	0
1.746911	0.05867253	0.04950495	0	0	0	0
1.763716	0.05867253	0.04950495	0	0	0	0
1.780317	0.05867253	0.04950495	0	0	0	0
1.796804	0.05867253	0.04950495	0	0	0	0
1.813314	0.05867253	0.04950495	0	0	0	0
1.829742	0.05867253	0.04950495	0	0	0	0
1.846309	0.05867253	0.04950495	0	0	0	0
1.862876	0.05867253	0.04950495	0	0	0	0
1.879475	0.05867253	0.04950495	0	0	0	0
1.896009	0.05867253	0.04950495	0	0	0	0
1.912575	0.05867253	0.04950495	0	0	0	0
1.929142	0.05867253	0.04950495	0	0	0	0
1.945709	0.05867253	0.04950495	0	0	0	0
1.962276	0.05867253	0.04950495	0	0	0	0
1.978842	0.05867253	0.04950495	0	0	0	0
1.995408	0.05867253	0.04950495	0	0	0	0
2.011976	0.05867253	0.04950495	0	0	0	0
2.028542	0.05867253	0.04950495	0	0	0	0
2.045109	0.05867253	0.04950495	0	0	0	0
2.061674	0.05867253	0.04950495	0	0	0	0
2.078527	0.05867253	0.04950495	0	0	0	0
2.095252	0.05867253	0.04950495	0	0	0	0
2.111509	0.05867253	0.04950495	0	0	0	0
2.127942	0.05867253	0.04950495	0	0	0	0
2.145519	0.05867253	0.04950495	0	0	0	0
2.161076	0.05867253	0.04950495	0	0	0	0
2.177655	0.05867253	0.04950495	0	0	0	0
2.194306	0.05867253	0.04950495	0	0	0	0
2.212417	0.05867253	0.04950495	0	0	0	0
2.228987	-0.01466813	0.05806137	-4.426151	0.5163845	-127.6252	14.88962
2.245786	-0.01466813	0.05806137	0	0	132.6423	-15.47495
2.26212	-0.106344	0.07761887	-5.612394	1.197311	-169.386	36.13568
2.279481	-0.2065762	0.09595404	-5.773438	1.056117	-4.779416	-4.190294
2.295474	-0.2884733	0.1045105	-5.121	0.5350302	19.56142	-15.62322
2.311822	-0.3312553	0.1020658	-2.616901	-0.1495379	77.42857	-21.16734
2.328388	-0.3373671	0.09595405	-0.3689267	-0.3689249	68.29709	-6.665331
2.344954	-0.3385894	0.07639653	-0.07378604	-1.180579	8.907939	-24.49735
2.361521	-0.3251436	0.03361447	0.8116015	-2.582367	26.7222	-42.30789
2.378089	-0.2896957	-0.0287251	2.139552	-3.762661	40.07706	-35.62083
2.394765	-0.2383572	-0.08006357	3.078638	-3.078638	28.24857	20.57607
2.411222	-0.1735729	-0.1326244	3.936558	-3.193812	25.89336	-3.476142
2.428081	-0.1002323	-0.1839629	4.35041	-3.045286	12.42223	4.458174
2.444355	-0.04278206	-0.2243002	3.529981	-2.478497	-24.76147	17.10635
2.460923	-0.001222344	-0.2475248	2.508441	-1.401776	-31.10387	32.78399
2.477653	0.02811392	-0.2634152	1.75358	-0.9498551	-22.67032	13.5723
2.494167	0.0660066	-0.2866398	2.294603	-1.406371	16.27471	-13.73261
2.510935	0.07945239	-0.2964185	0.8018501	-0.5831627	-44.85129	24.73413
2.527186	0.08311943	-0.3013079	0.2256523	-0.3008704	-17.45033	8.549313
2.543753	0.0880088	-0.3061973	0.2951187	-0.2951187	2.116694	0.1752588
2.560563	0.09045349	-0.3110867	0.1454313	-0.2908635	-4.48469	0.1274849
2.576887	0.09289818	-0.3147537	0.1497602	-0.2246396	0.1306476	1.998671
2.593456	0.09656521	-0.3306442	0.2213294	-0.959096	2.175871	-22.32918
2.610022	0.1038993	-0.3538688	0.4426984	-1.401878	6.680834	-13.36299
2.626589	0.113678	-0.3770933	0.5902802	-1.401916	4.454219	-0.001162121
2.643184	0.1222344	-0.3954284	0.5155835	-1.104821	-2.252489	8.958951
2.659722	0.1283462	-0.4052072	0.3695578	-0.5912924	-4.407191	15.49876
2.676291	0.1307909	-0.4076519	0.1475454	-0.1475445	-6.705896	13.40343
2.692856	0.1307909	-0.4076519	0	0	-4.453056	4.453029
2.709422	0.1307909	-0.4076519	0	0	0	0
2.726108	0.1307909	-0.4076519	0	0	0	0
2.742555	0.1307909	-0.4076519	0	0	0	0
2.759122	0.1307909	-0.4076519	0	0	0	0
2.775945	0.1307909	-0.4076519	0	0	0	0
2.792254	0.1307909	-0.4076519	0	0	0	0
2.808971	0.1307909	-0.4052072	0	0.1462377	0	4.427928
2.826065	0.1307909	-0.3990955	8.717484E-07	0.3575459	2.578327E-05	6.249757
2.842026	0.1307909	-0.3990955	0	0	-2.637299E-05	-10.81683
2.858523	0.1307909	-0.3990955	0	0	0	0
2.883217	0.1307909	-0.3990955	0	0	0	0
2.899788	0.1307909	-0.3990955	0	0	0	0
2.916354	0.1307909	-0.3990955	0	0	0	0
2.932921	0.1307909	-0.3990955	0	0	0	0
2.949832	0.1307909	-0.3990955	0	0	0	0
2.966054	0.1307909	-0.3990955	0	0	0	0
2.982621	0.1307909	-0.3990955	0	0	0	0
2.999189	0.1307909	-0.3978732	0	0.07377754	0	2.226547
3.015756	0.1307909	-0.3954284	-8.994488E-07	0.1475654	-2.714503E-05	2.226889
3.032562	0.1259015	-0.383205	-0.2909245	0.7273092	-8.717243	17.37146
3.048888	0.1197898	-0.3648698	-0.3743561	1.12307	-2.518131	11.94487
3.065503	0.1087887	-0.315976	-0.6621411	2.942851	-8.736542	55.24466
3.082205	0.08067474	-0.2316343	-1.683297	5.04989	-30.65049	63.24379
3.098923	0.03544799	-0.124068	-2.70521	6.434013	-30.5778	41.41592
3.115156	-0.0110011	-0.02750275	-2.861363	5.948622	-4.738866	-14.73043
3.131723	-0.0330033	0.01161227	-1.328094	2.361055	46.74607	-109.3772
3.148862	-0.0440044	0.02994744	-0.6418859	1.06981	20.35894	-38.30967
3.164856	-0.04767143	0.0397262	-0.2292641	0.6113716	12.45331	-13.83609
3.181546	-0.05011612	0.04339323	-0.1464782	0.2197172	2.532875	-11.98286
3.198179	-0.05011613	0.04583792	-2.23979E-07	0.1469844	4.395821	-2.182717
3.214556	-0.05011613	0.04583792	0	0	6.785137E-06	-4.452692
3.231598	-0.05011613	0.04583792	0	0	0	0
3.247699	-0.05011613	0.04583792	0	0	0	0
3.264256	-0.05011613	0.04583792	0	0	0	0
3.281317	-0.05011613	0.04583792	0	0	0	0
3.297388	-0.05011613	0.04583792	0	0	0	0
3.313956	-0.05011613	0.04583792	0	0	0	0
3.330523	-0.05011613	0.04583792	0	0	0	0
3.34709	-0.05011613	0.04583792	0	0	0	0
3.363656	-0.05011613	0.04583792	0	0	0	0
3.380223	-0.05011613	0.04583792	0	0	0	0
3.39679	-0.05011613	0.04583792	0	0	0	0
3.413356	-0.05011613	0.04583792	0	0	0	0
3.429923	-0.05011613	0.04583792	0	0	0	0
3.44649	-0.05011613	0.04583792	0	0	0	0
3.46313	-0.05011613	0.04583792	0	0	0	0
3.479621	-0.05011613	0.04583792	0	0	0	0
3.496186	-0.05011613	0.04583792	0	0	0	0
3.512753	-0.04889378	0.04583792	0.07378224	-2.248622E-07	2.226881	-6.786745E-06
3.529659	-0.04155971	0.04217089	0.4338196	-0.2169098	10.75613	-6.480179
3.546281	-0.02811392	0.03483682	0.8089121	-0.4412248	11.18749	-6.690408
3.562454	-0.02444689	0.03116979	0.2267462	-0.2267462	-17.75195	6.540083
3.579021	-0.01833517	0.0287251	0.3689097	-0.1475639	4.342276	2.418563
3.595587	-0.01589048	0.02750275	0.1475724	-0.07378615	-6.680262	2.226713
3.612961	-0.01589048	0.02750275	0	0	-4.347997	2.173997
3.628723	-0.01589048	0.02750275	0	0	0	0
3.645766	-0.01589048	0.02750275	0	0	0	0
3.661854	-0.01589048	0.02750275	0	0	0	0
3.678486	-0.01589048	0.02750275	0	0	0	0
3.694988	-0.01589048	0.02750275	0	0	0	0
3.711555	-0.01589048	0.02750275	0	0	0	0
3.728121	-0.01589048	0.02750275	0	0	0	0
3.744771	-0.01589048	0.02750275	0	0	0	0
3.761254	-0.01589048	0.02750275	0	0	0	0
3.777821	-0.01589048	0.02750275	0	0	0	0
3.794388	-0.01589048	0.02750275	0	0	0	0
3.810954	-0.01589048	0.02750275	0	0	0	0
3.827521	-0.01589048	0.02750275	0	0	0	0
3.844088	-0.01589048	0.02750275	0	0	0	0
3.860957	-0.01589048	0.02750275	0	0	0	0
3.87722	-0.01589048	0.02750275	0	0	0	0
3.893787	-0.01589048	0.02750275	0	0	0	0
3.91099	-0.01589048	0.02750275	0	0	0	0
3.926921	-0.01589048	0.02750275	0	0	0	0
3.94349	-0.01589048	0.02750275	0	0	0	0
3.960058	-0.01589048	0.02750275	0	0	0	0
3.976981	-0.01589048	0.02750275	0	0	0	0
3.993186	-0.01589048	0.02750275	0	0	0	0
4.009753	-0.01589048	0.02750275	0	0	0	0
4.026322	-0.01589048	0.02750275	0	0	0	0
4.042888	-0.01589048	0.02750275	0	0	0	0
4.059489	-0.01589048	0.02750275	0	0	0	0
4.076021	-0.01589048	0.02750275	0	0	0	0
4.093179	-0.01589048	0.02750275	0	0	0	0
4.109156	-0.01589048	0.02750275	0	0	0	0
4.125721	-0.01589048	0.02750275	0	0	0	0
4.142319	-0.01589048	0.02750275	0	0	0	0
4.158854	-0.01589048	0.02750275	0	0	0	0
4.182128	-0.01589048	0.02750275	0	0	0	0
4.198699	-0.01466813	0.02628041	0.07376167	-0.07376173	1.851216	-1.851217
4.215419	-0.01466813	0.02628041	0	0	-2.215673	2.215675
4.231848	-0.01466813	0.02628041	0	0	0	0
4.248399	-0.01466813	0.02628041	0	0	0	0
4.265192	-0.01466813	0.02628041	0	0	0	0
4.281683	-0.01466813	0.02628041	0	0	0	0
4.29889	-0.01466813	0.02628041	0	0	0	0
4.314666	-0.01466813	0.02628041	0	0	0	0
4.331232	-0.01466813	0.02628041	0	0	0	0
4.347799	-0.01466813	0.02628041	0	0	0	0
4.364366	-0.01466813	0.02628041	0	0	0	0
4.38097	-0.0110011	0.02628041	0.2208468	0	6.657887	0
4.397499	-0.008556411	0.02628041	0.1479066	0	-2.201434	0
4.414066	-0.006111722	0.02628041	0.1475617	0	-0.01042222	0
4.430633	-0.004889378	0.02628041	0.07378299	0	-2.226677	0
4.447197	-0.004889378	0.02628041	0	0	-2.226967	0
4.464068	-0.004889378	0.02628041	0	0	0	0
4.48033	-0.004889378	0.02628041	0	0	0	0
4.496898	-0.004889378	0.02628041	0	0	0	0
4.513464	-0.004889378	0.02628041	0	0	0	0
4.530031	-0.004889378	0.02628041	0	0	0	0
4.546597	-0.004889378	0.02628041	0	0	0	0
4.563164	-0.004889378	0.02628041	0	0	0	0
4.579731	-0.004889378	0.02628041	0	0	0	0
4.596297	-0.004889378	0.02628041	0	0	0	0
4.612864	-0.004889378	0.02628041	0	0	0	0
4.629431	-0.004889378	0.02628041	0	0	0	0
4.645998	-0.004889378	0.02628041	0	0	0	0
4.662565	-0.004889378	0.02628041	0	0	0	0
4.679131	-0.004889378	0.02628041	0	0	0	0
4.695698	-0.004889378	0.02628041	0	0	0	0
4.712265	-0.004889378	0.02628041	0	0	0	0
4.728832	-0.004889378	0.02628041	0	0	0	0
4.745398	-0.004889378	0.02628041	0	0	0	0
4.761963	-0.004889378	0.02628041	0	0	0	0
4.778772	-0.004889378	0.02628041	0	0	0	0
4.795653	-0.004889378	0.02628041	0	0	0	0
4.811665	-0.004889378	0.02628041	0	0	0	0
4.828231	-0.004889378	0.02628041	0	0	0	0
4.844798	-0.004889378	0.02628041	0	0	0	0
4.861493	-0.004889378	0.02628041	0	0	0	0
4.877935	-0.004889378	0.02628041	0	0	0	0
4.894497	-0.004889378	0.02628041	0	0	0	0
4.911064	-0.004889378	0.02628041	0	0	0	0
4.927726	-0.004889378	0.02628041	0	0	0	0
4.94473	-0.004889378	0.02628041	0	0	0	0
4.960763	-0.004889378	0.02628041	0	0	0	0
4.977331	-0.004889378	0.02628041	0	0	0	0
4.993898	-0.004889378	0.02628041	0	0	0	0
5.010522	-0.004889378	0.02628041	0	0	0	0
5.027031	-0.004889378	0.02628041	0	0	0	0
5.043598	-0.004889378	0.02628041	0	0	0	0
5.060581	-0.004889378	0.02628041	0	0	0	0
5.077227	-0.004889378	0.02628041	0	0	0	0
5.093298	-0.004889378	0.02628041	0	0	0	0
5.109867	-0.004889378	0.02628041	0	0	0	0
5.126432	-0.004889378	0.02628041	0	0	0	0
5.142998	-0.004889378	0.02628041	0	0	0	0
5.159727	-0.004889378	0.02628041	0	0	0	0
5.176164	-0.004889378	0.02628041	0	0	0	0
5.192699	-0.004889378	0.02628041	0	0	0	0
5.209265	-0.004889378	0.02628041	0	0	0	0
5.226445	-0.004889378	0.02628041	0	0	0	0
5.2424	-0.004889378	0.02628041	0	0	0	0
5.25897	-0.004889378	0.02628041	0	0	0	0
5.275534	-0.004889378	0.02628041	0	0	0	0
5.292564	-0.004889378	0.02628041	0	0	0	0
5.308666	-0.004889378	0.02628041	0	0	0	0
5.325233	-0.004889378	0.02628041	0	0	0	0
5.3418	-0.004889378	0.02628041	0	0	0	0
5.358716	-0.004889378	0.02628041	0	0	0	0
5.37512	-0.004889378	0.02628041	0	0	0	0
5.3915	-0.004889378	0.02628041	0	0	0	0
5.408066	-0.004889378	0.02628041	0	0	0	0
5.424633	-0.004889378	0.02628041	0	0	0	0
5.4412	-0.004889378	0.02628041	0	0	0	0
5.457767	-0.004889378	0.02628041	0	0	0	0
5.485734	-0.004889378	0.02628041	0	0	0	0
5.502302	-0.004889378	0.02628041	0	0	0	0
5.518868	-0.004889378	0.02628041	0	0	0	0
5.535434	-0.004889378	0.02628041	0	0	0	0
5.552001	-0.004889378	0.02628041	0	0	0	0
5.568571	-0.004889378	0.02628041	0	0	0	0
5.585136	-0.004889378	0.02628041	0	0	0	0
5.601703	-0.004889378	0.02628041	0	0	0	0
5.61827	-0.004889378	0.02628041	0	0	0	0
5.634837	-0.004889378	0.02628041	0	0	0	0
5.651515	-0.004889378	0.02628041	0	0	0	0
5.66797	-0.004889378	0.02628041	0	0	0	0
5.684539	-0.004889378	0.02628041	0	0	0	0
5.701711	-0.004889378	0.02628041	0	0	0	0
5.717669	-0.004889378	0.02628041	0	0	0	0
5.734239	-0.004889378	0.02628041	0	0	0	0
5.751105	-0.004889378	0.02628041	0	0	0	0
5.767372	-0.004889378	0.02628041	0	0	0	0
5.783939	-0.004889378	0.02628041	0	0	0	0
5.800506	-0.004889378	0.02628041	0	0	0	0
5.817124	-0.004889378	0.02628041	0	0	0	0
5.833639	-0.004889378	0.02628041	0	0	0	0
5.850205	-0.004889378	0.02628041	0	0	0	0
5.866772	-0.004889378	0.02628041	0	0	0	0
5.883339	-0.004889378	0.02628041	0	0	0	0
5.899905	-0.004889378	0.02628041	0	0	0	0
5.916472	-0.004889378	0.02628041	0	0	0	0
5.933381	-0.004889378	0.02628041	0	0	0	0
5.949606	-0.004889378	0.02628041	0	0	0	0
5.966596	-0.004889378	0.02628041	0	0	0	0
5.983258	-0.004889378	0.02628041	0	0	0	0
5.999307	-0.004889378	0.02628041	0	0	0	0
6.015873	-0.004889378	0.02628041	0	0	0	0
6.032439	-0.004889378	0.02628041	0	0	0	0
6.049557	-0.004889378	0.02628041	0	0	0	0
6.06557	-0.004889378	0.02628041	0	0	0	0
6.082675	-0.004889378	0.02628041	0	0	0	0
6.098704	-0.004889378	0.02628041	0	0	0	0
6.115271	-0.004889378	0.02628041	0	0	0	0
6.131838	-0.004889378	0.02628041	0	0	0	0
6.148407	-0.004889378	0.02628041	0	0	0	0
6.164971	-0.004889378	0.02628041	0	0	0	0
6.181538	-0.004889378	0.02628041	0	0	0	0
6.198104	-0.004889378	0.02628041	0	0	0	0
6.214745	-0.004889378	0.02628041	0	0	0	0
6.231568	-0.004889378	0.02628041	0	0	0	0
6.24862	-0.004889378	0.02628041	0	0	0	0
6.26437	-0.004889378	0.02628041	0	0	0	0
6.280937	-0.004889378	0.02628041	0	0	0	0
6.297693	-0.004889378	0.02628041	0	0	0	0
6.314071	-0.004889378	0.02628041	0	0	0	0
6.330639	-0.004889378	0.02628041	0	0	0	0
6.347206	-0.004889378	0.02628041	0	0	0	0
6.363771	-0.004889378	0.02628041	0	0	0	0
6.38034	-0.004889378	0.02628041	0	0	0	0
6.396904	-0.004889378	0.02628041	0	0	0	0
6.413471	-0.004889378	0.02628041	0	0	0	0
6.430039	-0.004889378	0.02628041	0	0	0	0
6.446605	-0.004889378	0.02628041	0	0	0	0
6.463172	-0.004889378	0.02628041	0	0	0	0
6.479911	-0.004889378	0.02628041	0	0	0	0
6.496652	-0.004889378	0.02628041	0	0	0	0
6.512975	-0.004889378	0.02628041	0	0	0	0
6.529437	-0.004889378	0.02628041	0	0	0	0
6.546004	-0.004889378	0.02628041	0	0	0	0
6.56257	-0.004889378	0.02628041	0	0	0	0
6.579137	-0.004889378	0.02628041	0	0	0	0
6.595704	-0.004889378	0.02628041	0	0	0	0
6.61227	-0.004889378	0.02628041	0	0	0	0
6.628838	-0.004889378	0.02628041	0	0	0	0
6.645576	-0.004889378	0.02628041	0	0	0	0
6.661971	-0.004889378	0.02628041	0	0	0	0
6.678538	-0.004889378	0.02628041	0	0	0	0
6.695105	-0.004889378	0.02628041	0	0	0	0
6.711743	-0.004889378	0.02628041	0	0	0	0
6.728239	-0.004889378	0.02628041	0	0	0	0
6.744805	-0.004889378	0.02628041	0	0	0	0
6.761598	-0.004889378	0.02628041	0	0	0	0
6.778237	-0.004889378	0.02628041	0	0	0	0
6.794506	-0.004889378	0.02628041	0	0	0	0
6.818079	-0.004889378	0.02628041	0	0	0	0
6.83465	-0.004889378	0.02628041	0	0	0	0
6.851216	-0.004889378	0.02628041	0	0	0	0
6.867805	-0.004889378	0.02628041	0	0	0	0
6.884347	-0.004889378	0.02628041	0	0	0	0
6.900916	-0.004889378	0.02628041	0	0	0	0
6.917606	-0.004889378	0.02628041	0	0	0	0
6.93405	-0.004889378	0.02628041	0	0	0	0
6.950616	-0.004889378	0.02628041	0	0	0	0
6.967183	-0.004889378	0.02628041	0	0	0	0
6.983749	-0.004889378	0.02628041	0	0	0	0
7.000317	-0.004889378	0.02628041	0	0	0	0
7.016883	-0.004889378	0.02628041	0	0	0	0
7.033449	-0.004889378	0.02628041	0	0	0	0
7.050014	-0.004889378	0.02628041	0	0	0	0
7.066581	-0.009778756	0.02628041	-0.2951319	0	-8.90774	0
7.083148	-0.02566923	0.02628041	-0.9591512	0	-20.04043	0
7.100096	-0.04644909	0.0287251	-1.226113	0.1442487	-7.965457	4.304007
7.116282	-0.0770077	0.03605916	-1.887994	0.4531184	-19.97616	9.321977
7.132849	-0.1479037	0.05194964	-4.27929	0.959151	-73.01001	15.44996
7.149416	-0.2077986	0.07150716	-3.615263	1.180494	20.04037	6.680148
7.165983	-0.2542477	0.08250825	-2.803754	0.6640465	24.49175	-15.58664
7.182549	-0.2860286	0.09595405	-1.918522	0.8116832	26.71828	4.456006
7.199117	-0.3129202	0.1081775	-1.623039	0.7377449	8.917798	-2.231497
7.215683	-0.3337001	0.1191786	-1.254348	0.6640661	11.12696	-2.223598
7.23225	-0.3483682	0.127735	-0.885396	0.5164809	11.13548	-4.454323
7.249226	-0.3557023	0.1326244	-0.4320279	0.2880186	13.51618	-6.811101
7.265383	-0.3605917	0.1350691	-0.3026152	0.1513076	3.905853	-4.126124
7.28195	-0.361814	0.1350691	-0.07378105	-8.994618E-07	6.992874	-4.623791
7.298517	-0.361814	0.1350691	0	0	2.226781	2.714659E-05
7.315084	-0.361814	0.1350691	0	0	0	0
7.33165	-0.361814	0.1350691	0	0	0	0
7.348217	-0.361814	0.1350691	0	0	0	0
7.364784	-0.361814	0.1350691	0	0	0	0
7.38135	-0.361814	0.1350691	0	0	0	0
7.397918	-0.361814	0.1350691	0	0	0	0
7.414484	-0.361814	0.1350691	0	0	0	0
7.43105	-0.361814	0.1350691	0	0	0	0
7.447617	-0.361814	0.1350691	0	0	0	0
7.464387	-0.361814	0.1350691	0	0	0	0
7.480803	-0.361814	0.1350691	0	0	0	0
7.497316	-0.361814	0.1350691	0	0	0	0
7.513882	-0.361814	0.1350691	0	0	0	0
7.530485	-0.358147	0.1338467	0.2208636	-0.0736209	6.658778	-2.219583
7.547305	-0.3459235	0.1289573	0.726725	-0.2906895	15.13515	-6.494598
7.563904	-0.330033	0.1228456	0.9573327	-0.3682046	6.900566	-2.319517
7.580149	-0.3068085	0.1142892	1.42961	-0.526699	14.37937	-4.825663
7.596715	-0.2750275	0.1045105	1.918413	-0.5902807	14.89725	-1.937777
7.613282	-0.2383572	0.09350936	2.21349	-0.6640465	8.905828	-2.226355
7.629849	-0.2053539	0.08617529	1.992141	-0.442698	-6.680533	6.680504
7.646417	-0.1735729	0.07761887	1.918246	-0.5164515	-2.23013	-2.225886
7.663229	-0.1503484	0.06906246	1.381361	-0.5089223	-16.0838	0.2255568
7.679943	-0.1307909	0.06295075	1.170154	-0.365673	-6.299723	4.27273
7.696119	-0.1234568	0.06050605	0.4533995	-0.1511332	-21.79289	6.523075
7.712833	-0.1185674	0.05928371	0.2925222	-0.07313056	-4.891326	2.371598
7.729252	-0.1149004	0.05806137	0.2233413	-0.07444712	-2.087943	-0.03973507
7.745819	-0.110011	0.05683902	0.2951408	-0.07378519	2.176716	0.02006731
7.762386	-0.1038993	0.05439433	0.3689045	-0.1475617	2.226259	-2.226643
7.778951	-0.09412053	0.05317199	0.5903142	-0.07378922	6.682542	2.226585
7.795635	-0.08556412	0.0507273	0.5128642	-0.1465326	-2.3294	-2.187844
7.812675	-0.0770077	0.04706026	0.5021298	-0.2151988	-0.3183042	-2.036132
7.82865	-0.07211833	0.04706026	0.3060552	2.331881E-07	-5.938825	6.518076
7.845218	-0.06111723	0.04339323	0.6640086	-0.221336	10.99934	-6.80131
7.861784	-0.04767143	0.03850385	0.8116599	-0.2951491	4.456254	-2.227746
7.878352	-0.02933627	0.03239213	1.106681	-0.3688937	8.904008	-2.225681
7.894918	-0.0110011	0.02628041	1.106745	-0.3689149	0.001931988	-0.0006403984
7.911602	0.009778756	0.02016868	1.245528	-0.3663316	4.173872	0.07769141
7.928051	0.02322455	0.01772399	0.8174242	-0.1486226	-12.92093	6.570848
7.944689	0.03178096	0.01527931	0.5142754	-0.1469358	-9.162232	0.05098369
7.961184	0.03422565	0.01405696	0.1482058	-0.07410289	-11.04848	2.198195
7.977752	0.03422565	0.01405696	0	0	-4.482536	2.241268
7.994459	0.03422565	0.01405696	0	0	0	0
8.010885	0.03422565	0.01405696	0	0	0	0
8.027452	0.03422565	0.01405696	0	0	0	0
8.044018	0.03422565	0.01405696	0	0	0	0
8.060583	0.03422565	0.01405696	0	0	0	0
8.077355	0.03422565	0.01405696	0	0	0	0
8.093718	0.03422565	0.01405696	0	0	0	0
8.113241	0.03422565	0.01405696	0	0	0	0
8.129813	0.03422565	0.01405696	0	0	0	0
8.146379	0.03422565	0.01405696	0	0	0	0
8.162945	0.03422565	0.01405696	0	0	0	0
8.179512	0.03422565	0.01405696	0	0	0	0
8.196079	0.03422565	0.01405696	0	0	0	0
8.212646	0.03422565	0.01405696	0	0	0	0
8.229212	0.03422565	0.01405696	0	0	0	0
8.245778	0.03422565	0.01405696	0	0	0	0
8.262439	0.03422565	0.01405696	0	0	0	0
8.278909	0.03422565	0.01405696	0	0	0	0
8.295858	0.03422565	0.01405696	0	0	0	0
8.312045	0.03422565	0.01405696	0	0	0	0
8.328795	0.03422565	0.01405696	0	0	0	0
8.345263	0.03422565	0.01405696	0	0	0	0
8.361953	0.03422565	0.01405696	0	0	0	0
8.37837	0.03422565	0.01405696	0	0	0	0
8.394878	0.03422565	0.01405696	0	0	0	0
8.411445	0.03422565	0.01405696	0	0	0	0
8.428011	0.03422565	0.01405696	0	0	0	0
8.444577	0.03422565	0.01405696	0	0	0	0
8.461143	0.03422565	0.01405696	0	0	0	0
8.477711	0.03422565	0.01405696	0	0	0	0
8.494276	0.03422565	0.01405696	0	0	0	0
8.511305	0.03422565	0.01405696	0	0	0	0
8.527621	0.03422565	0.01405696	0	0	0	0
8.544714	0.03422565	0.01405696	0	0	0	0
8.560543	0.03422565	0.01405696	0	0	0	0
8.57711	0.03422565	0.01405696	0	0	0	0
8.593679	0.03422565	0.01405696	0	0	0	0
8.610246	0.03422565	0.01405696	0	0	0	0
8.626825	0.03422565	0.01405696	0	0	0	0
8.643512	0.03422565	0.01405696	0	0	0	0
8.660033	0.03422565	0.01405696	0	0	0	0
8.676513	0.03422565	0.01405696	0	0	0	0
8.693079	0.03422565	0.01405696	0	0	0	0
8.709866	0.03422565	0.01405696	0	0	0	0
8.726503	0.03422565	0.01405696	0	0	0	0
8.742779	0.03422565	0.01405696	0	0	0	0
8.760666	0.03422565	0.01405696	0	0	0	0
8.777236	0.03422565	0.01405696	0	0	0	0
8.794154	0.03422565	0.01405696	0	0	0	0
8.810369	0.03422565	0.01405696	0	0	0	0
8.826936	0.03422565	0.01405696	0	0	0	0
8.843502	0.03422565	0.01405696	0	0	0	0
8.86042	0.03422565	0.01405696	0	0	0	0
8.876636	0.03422565	0.01405696	0	0	0	0
8.893203	0.03422565	0.01405696	0	0	0	0
8.909773	0.03422565	0.01405696	0	0	0	0
8.92634	0.03422565	0.01405696	0	0	0	0
8.942904	0.03422565	0.01405696	0	0	0	0
8.959471	0.03422565	0.01405696	0	0	0	0
8.976038	0.03422565	0.01405696	0	0	0	0
8.992604	0.03422565	0.01405696	0	0	0	0
9.009173	0.03422565	0.01405696	0	0	0	0
9.025737	0.03422565	0.01405696	0	0	0	0
9.042303	0.03422565	0.01405696	0	0	0	0
9.058869	0.03422565	0.01405696	0	0	0	0
9.075458	0.03422565	0.01405696	0	0	0	0
9.092151	0.03422565	0.01405696	0	0	0	0
9.108571	0.03422565	0.01405696	0	0	0	0
9.125142	0.03422565	0.01405696	0	0	0	0
9.141699	0.03422565	0.01405696	0	0	0	0
9.158266	0.03422565	0.01405696	0	0	0	0
9.175569	0.03422565	0.01405696	0	0	0	0
9.191399	0.03422565	0.01405696	0	0	0	0
9.207976	0.03422565	0.01405696	0	0	0	0
9.224769	0.03422565	0.01405696	0	0	0	0
9.241103	0.03422565	0.01405696	0	0	0	0
9.257816	0.03422565	0.01405696	0	0	0	0
9.274234	0.03422565	0.01405696	0	0	0	0
9.290832	0.03422565	0.01405696	0	0	0	0
9.307369	0.03422565	0.01405696	0	0	0	0
9.323934	0.03422565	0.01405696	0	0	0	0
9.341141	0.03422565	0.01405696	0	0	0	0
9.357067	0.03422565	0.01405696	0	0	0	0
9.373638	0.03422565	0.01405696	0	0	0	0
9.390203	0.03422565	0.01405696	0	0	0	0
9.418631	0.03422565	0.01405696	0	0	0	0
9.435202	0.03422565	0.01405696	0	0	0	0
9.451769	0.03422565	0.01405696	0	0	0	0
9.468672	0.03422565	0.01405696	0	0	0	0
9.485128	0.03422565	0.01405696	0	0	0	0
9.501528	0.03422565	0.01405696	0	0	0	0
9.518087	0.03422565	0.01405696	0	0	0	0
9.534601	0.03422565	0.01405696	0	0	0	0
9.551358	0.03422565	0.01405696	0	0	0	0
9.567732	0.03422565	0.01405696	0	0	0	0
9.584303	0.03422565	0.01405696	0	0	0	0
9.601171	0.03422565	0.01405696	0	0	0	0
9.617436	0.03422565	0.01405696	0	0	0	0
9.634319	0.03422565	0.01405696	0	0	0	0
9.65057	0.03422565	0.01405696	0	0	0	0
9.667136	0.03422565	0.01405696	0	0	0	0
9.683702	0.03422565	0.01405696	0	0	0	0
9.700479	0.03422565	0.01405696	0	0	0	0
9.716907	0.03422565	0.01405696	0	0	0	0
9.733403	0.03422565	0.01405696	0	0	0	0
9.750465	0.03422565	0.01405696	0	0	0	0
9.766854	0.03422565	0.01405696	0	0	0	0
9.783103	0.03422565	0.01405696	0	0	0	0
9.799669	0.03422565	0.01405696	0	0	0	0
9.816647	0.03422565	0.01405696	0	0	0	0
9.833251	0.03422565	0.01405696	0	0	0	0
9.84937	0.03422565	0.01405696	0	0	0	0
9.865936	0.03422565	0.01405696	0	0	0	0
9.882503	0.03422565	0.01405696	0	0	0	0
9.899069	0.03422565	0.01405696	0	0	0	0
9.915746	0.03422565	0.01405696	0	0	0	0
9.932242	0.03422565	0.01405696	0	0	0	0
9.94877	0.03422565	0.01405696	0	0	0	0
9.965343	0.03422565	0.01405696	0	0	0	0
9.982648	0.03422565	0.01405696	0	0	0	0
9.999325	0.03422565	0.01405696	0	0	0	0
10.01564	0.03422565	0.01405696	0	0	0	0
10.03177	0.03422565	0.01405696	0	0	0	0
10.04817	0.03422565	0.01405696	0	0	0	0
10.06473	0.03422565	0.01405696	0	0	0	0
10.08504	0.03422565	0.01405696	0	0	0	0
10.10161	0.03422565	0.01405696	0	0	0	0
10.11897	0.03422565	0.01405696	0	0	0	0
10.13475	0.03422565	0.01405696	0	0	0	0
10.15131	0.03422565	0.01405696	0	0	0	0
10.16796	0.03422565	0.01405696	0	0	0	0
10.18445	0.03422565	0.01405696	0	0	0	0
10.20117	0.03422565	0.01405696	0	0	0	0
10.21758	0.03422565	0.01405696	0	0	0	0
10.23415	0.03422565	0.01405696	0	0	0	0
10.25071	0.03422565	0.01405696	0	0	0	0
10.26728	0.03422565	0.01405696	0	0	0	0
10.2842	0.03422565	0.01405696	0	0	0	0
10.3006	0.03422565	0.01405696	0	0	0	0
10.31698	0.03422565	0.01405696	0	0	0	0
10.33354	0.03422565	0.01405696	0	0	0	0
10.3506	0.03422565	0.01405696	0	0	0	0
10.36668	0.03422565	0.01405696	0	0	0	0
10.38326	0.03422565	0.01405696	0	0	0	0
10.39981	0.03422565	0.01405696	0	0	0	0
10.41638	0.03422565	0.01405696	0	0	0	0
10.4331	0.03422565	0.01405696	0	0	0	0
10.44964	0.03422565	0.01405696	0	0	0	0
10.46608	0.03422565	0.01405696	0	0	0	0
10.48309	0.03422565	0.01405696	0	0	0	0
10.49963	0.03422565	0.01405696	0	0	0	0
10.51578	0.03544799	0.01405696	0.07572508	5.7696E-08	2.316389	1.764889E-06
10.53273	0.03544799	0.01405696	0	0	-2.288153	-1.743376E-06
10.54891	0.03544799	0.01405696	0	0	0	0
10.56548	0.03544799	0.01405696	0	0	0	0
10.58212	0.03544799	0.01405696	0	0	0	0
10.59861	0.03544799	0.01405696	0	0	0	0
10.61545	0.03544799	0.01405696	0	0	0	0
10.63174	0.03544799	0.01405696	0	0	0	0
10.64833	0.03544799	0.01405696	0	0	0	0
10.66509	0.03544799	0.01405696	0	0	0	0
10.68144	0.03544799	0.01405696	0	0	0	0
10.69807	0.03544799	0.01405696	0	0	0	0
10.71533	0.03544799	0.01405696	0	0	0	0
10.73114	0.03544799	0.01405696	0	0	0	0
10.74771	0.03544799	0.01405696	0	0	0	0
10.76428	0.03544799	0.01405696	0	0	0	0
10.78084	0.03544799	0.01405696	0	0	0	0
10.79741	0.03544799	0.01405696	0	0	0	0
10.81398	0.03544799	0.01405696	0	0	0	0
10.83069	0.03544799	0.01405696	0	0	0	0
10.84711	0.03544799	0.01405696	0	0	0	0
10.86372	0.03544799	0.01405696	0	0	0	0
10.8804	0.03544799	0.01405696	0	0	0	0
10.89681	0.03544799	0.01405696	0	0	0	0
10.9134	0.03544799	0.01405696	0	0	0	0
10.93013	0.03544799	0.01405696	0	0	0	0
10.94651	0.03544799	0.01405696	0	0	0	0
10.96308	0.03544799	0.01405696	0	0	0	0
10.97975	0.03544799	0.01405696	0	0	0	0
10.99621	0.03544799	0.01405696	0	0	0	0
11.01278	0.03544799	0.01405696	0	0	0	0
11.02934	0.03544799	0.01405696	0	0	0	0
11.04613	0.03544799	0.01405696	0	0	0	0
11.06248	0.03544799	0.01405696	0	0	0	0
11.07909	0.03544799	0.01405696	0	0	0	0
11.09561	0.03544799	0.01405696	0	0	0	0
11.11218	0.03544799	0.01405696	0	0	0	0
11.12874	0.03544799	0.01405696	0	0	0	0
11.14531	0.03544799	0.01405696	0	0	0	0
11.16187	0.03544799	0.01405696	0	0	0	0
11.17852	0.03544799	0.01405696	0	0	0	0
11.19501	0.03544799	0.01405696	0	0	0	0
11.21157	0.03544799	0.01405696	0	0	0	0
11.22814	0.03544799	0.01405696	0	0	0	0
11.24486	0.03544799	0.01405696	0	0	0	0
11.26127	0.03544799	0.01405696	0	0	0	0
11.27784	0.03544799	0.01405696	0	0	0	0
11.29441	0.03544799	0.01405696	0	0	0	0
11.31097	0.03544799	0.01405696	0	0	0	0
11.32754	0.03544799	0.01405696	0	0	0	0
11.34411	0.03544799	0.01405696	0	0	0	0
11.36081	0.03544799	0.01405696	0	0	0	0
11.37724	0.03544799	0.01405696	0	0	0	0
11.3938	0.05378316	0.017724	1.106968	0.2213935	33.54739	6.709478
11.4106	0.1576824	0.03728151	6.186615	1.164539	152.2785	28.27377
11.42694	0.2090209	0.04583792	3.141657	0.5236096	-91.89436	-19.34274
11.44423	0.3275883	0.06050605	6.858282	0.8484473	110.5171	9.659329
11.46007	0.4265982	0.07395184	6.248159	0.8485153	-18.41355	0.002052513
11.47674	0.4693803	0.08250825	2.566374	0.513275	-113.2283	-10.30986
11.49321	0.4803814	0.08861998	0.6682985	0.3712768	-57.28898	-4.285882
11.50986	0.4816037	0.08861998	0.07338963	0	-17.96369	-11.21097
11.52634	0.4816037	0.08861998	0	0	-2.214904	0
11.54312	0.4816037	0.08861998	0	0	0	0
11.5596	0.4816037	0.08861998	0	0	0	0
11.57656	0.4816037	0.08861998	0	0	0	0
11.59261	0.4816037	0.08861998	0	0	0	0
11.6094	0.4816037	0.08861998	0	0	0	0
11.62588	0.4816037	0.08861998	0	0	0	0
11.64231	0.4816037	0.08861998	0	0	0	0
11.65939	0.4816037	0.08861998	0	0	0	0
11.67584	0.4816037	0.08861998	0	0	0	0
11.69201	0.4816037	0.08861998	0	0	0	0
11.70863	0.4816037	0.08861998	0	0	0	0
11.7254	0.4816037	0.08861998	0	0	0	0
11.74171	0.4816037	0.08861998	0	0	0	0
11.75827	0.4816037	0.08861998	0	0	0	0
11.77488	0.4816037	0.08861998	0	0	0	0
11.7915	0.471825	0.08861998	-0.588113	0	-17.69835	0
11.80803	0.4571569	0.08861998	-0.8873626	0	-9.025136	0
11.82454	0.4388216	0.09106466	-1.110809	0.1481071	-6.763665	4.483171
11.84111	0.4155971	0.09595404	-1.401755	0.2951064	-8.796726	4.444505
11.85767	0.4021513	0.09839873	-0.8116814	0.1475789	17.80897	-4.452516
11.87424	0.3715927	0.1069551	-1.84463	0.5164962	-31.17713	11.13491
11.89081	0.3581469	0.1106222	-0.8116347	0.2213549	31.17764	-8.907894
11.90737	0.3520352	0.1118445	-0.3689267	0.07378542	13.36172	-4.453913
11.92489	0.3483682	0.1130669	-0.2093058	0.06976859	4.682857	-0.1178432
11.94051	0.3483682	0.1130669	0	0	6.317042	-2.105681
11.95707	0.3483682	0.1130669	0	0	0	0
11.97364	0.3483682	0.1130669	0	0	0	0
11.99021	0.3483682	0.1130669	0	0	0	0
12.00677	0.3483682	0.1130669	0	0	0	0
12.02334	0.3483682	0.1130669	0	0	0	0
12.04042	0.3483682	0.1130669	0	0	0	0
12.05647	0.3483682	0.1130669	0	0	0	0
12.07364	0.3483682	0.1130669	0	0	0	0
12.08961	0.3483682	0.1130669	0	0	0	0
12.10617	0.3422565	0.1081775	-0.3689461	-0.2951578	-11.34278	-9.074248
12.12274	0.3263659	0.09839872	-0.9590426	-0.5901792	-17.80915	-8.903764
12.13931	0.2933627	0.07761887	-1.992194	-1.254346	-31.17968	-20.04403
12.15587	0.2187997	0.03483682	-4.501152	-2.582628	-75.72702	-40.09107
12.17252	0.1283462	0.004278206	-5.434134	-1.835856	-28.09278	22.48584
12.18901	0.05011613	-0.01283462	-4.74437	-1.037831	20.81712	24.08444
12.20584	-0.001222344	-0.02261337	-3.049124	-0.5807855	50.86834	13.71432
12.22291	-0.02689158	-0.02628041	-1.503863	-0.2148376	45.57488	10.79302
12.23871	-0.0330033	-0.02750275	-0.3869232	-0.07738458	33.98614	4.182409
12.25551	-0.03422565	-0.02750275	-0.07275052	0	9.637926	2.373939
12.27186	-0.03422565	-0.02750275	0	0	2.194415	0
12.28841	-0.03422565	-0.02750275	0	0	0	0
12.30497	-0.03422565	-0.02750275	0	0	0	0
12.32154	-0.03422565	-0.02750275	0	0	0	0
12.3381	-0.03422565	-0.02750275	0	0	0	0
12.35467	-0.03422565	-0.02750275	0	0	0	0
12.37124	-0.03422565	-0.02750275	0	0	0	0
12.38821	-0.03422565	-0.02750275	0	0	0	0
12.40437	-0.03422565	-0.02750275	0	0	0	0
12.42122	-0.03422565	-0.02750275	0	0	0	0
12.43752	-0.03422565	-0.02750275	0	0	0	0
12.45416	-0.03422565	-0.02750275	0	0	0	0
12.47064	-0.03422565	-0.02750275	0	0	0	0
12.4872	-0.03422565	-0.02750275	0	0	0	0
12.50396	-0.03422565	-0.02750275	0	0	0	0
12.5205	-0.03422565	-0.02750275	0	0	0	0
12.53697	-0.03422565	-0.02750275	0	0	0	0
12.55349	-0.03422565	-0.02750275	0	0	0	0
12.57004	-0.03422565	-0.02750275	0	0	0	0
12.58661	-0.03422565	-0.02750275	0	0	0	0
12.60318	-0.0330033	-0.0262804	0.07377223	0.07377245	2.226578	2.226585
12.61974	-0.02933627	-0.02383572	0.2213428	0.1475616	4.453434	2.226832
12.63631	-0.02566923	-0.02016868	0.221368	0.2213682	0.0007591676	2.227618
12.65287	-0.02077986	-0.017724	0.2951403	0.1475701	2.226645	-2.227425
12.66944	-0.01711282	-0.01650165	0.2213681	0.07378945	-2.226642	-2.226896
12.69188	-0.01466813	-0.01405696	0.1089621	0.1089621	-2.882098	0.9018279
12.70876	-0.006111723	-0.00794524	0.5066664	0.3619045	10.11358	6.432299
12.72501	-0.004889378	-0.00794524	0.07522282	0	-13.01987	-10.92136
12.74197	-0.001222345	-0.00550055	0.2162756	0.1441837	4.247932	4.342225
12.75815	0	-0.004278206	0.07555091	0.07555091	-4.247078	-2.071342
12.77494	0.001222344	-0.004278206	0.07280851	0	-0.08318485	-2.291674
12.79178	0.002444689	-0.003055861	0.07255711	0.0725571	-0.007474473	2.157182
12.80785	0.002444689	-0.003055861	0	0	-2.204626	-2.204626
12.8246	0.002444689	-0.003055861	0	0	0	0
12.84103	0.002444689	-0.003055861	0	0	0	0
12.85755	0.002444689	-0.003055861	0	0	0	0
12.87417	0.002444689	-0.003055861	0	0	0	0
12.89068	0.002444689	-0.003055861	0	0	0	0
12.90725	0.002444689	-0.003055861	0	0	0	0
12.92418	0.002444689	-0.003055861	0	0	0	0
12.94053	0.002444689	-0.003055861	0	0	0	0
12.95702	0.002444689	-0.003055861	0	0	0	0
12.97352	0.002444689	-0.003055861	0	0	0	0
12.99008	0.002444689	-0.003055861	0	0	0	0
13.00665	0.002444689	-0.003055861	0	0	0	0
13.02321	0.002444689	-0.003055861	0	0	0	0
13.03978	0.002444689	-0.003055861	0	0	0	0
13.05635	0.002444689	-0.003055861	0	0	0	0
13.07292	0.002444689	-0.003055861	0	0	0	0
13.08948	0.002444689	-0.003055861	0	0	0	0
13.10605	0.002444689	-0.003055861	0	0	0	0
13.12261	0.002444689	-0.003055861	0	0	0	0
13.13918	0.002444689	-0.003055861	0	0	0	0
13.15575	0.002444689	-0.003055861	0	0	0	0
13.17232	0.002444689	-0.003055861	0	0	0	0
13.18888	0.002444689	-0.003055861	0	0	0	0
13.20563	0.002444689	-0.003055861	0	0	0	0
13.22201	0.002444689	-0.003055861	0	0	0	0
13.23858	0.002444689	-0.003055861	0	0	0	0
13.25515	0.002444689	-0.003055861	0	0	0	0
13.27243	0.002444689	-0.003055861	0	0	0	0
13.28828	0.002444689	-0.003055861	0	0	0	0
13.30501	0.002444689	-0.003055861	0	0	0	0
13.32141	0.002444689	-0.003055861	0	0	0	0
13.33798	0.002444689	-0.003055861	0	0	0	0
13.36062	0.002444689	-0.003055861	0	0	0	0
13.37719	0.002444689	-0.003055861	0	0	0	0
13.39376	0.002444689	-0.003055861	0	0	0	0
13.41032	0.002444689	-0.003055861	0	0	0	0
13.42689	0.002444689	-0.003055861	0	0	0	0
13.44357	0.002444689	-0.003055861	0	0	0	0
13.46003	0.002444689	-0.003055861	0	0	0	0
13.47659	0.002444689	-0.003055861	0	0	0	0
13.49316	0.002444689	-0.003055861	0	0	0	0
13.50972	0.002444689	-0.003055861	0	0	0	0
13.52629	0.002444689	-0.003055861	0	0	0	0
13.54286	0.002444689	-0.003055861	0	0	0	0
13.55942	0.002444689	-0.003055861	0	0	0	0
13.57599	0.002444689	-0.003055861	0	0	0	0
13.59266	0.002444689	-0.003055861	0	0	0	0
13.60912	0.002444689	-0.003055861	0	0	0	0
13.62569	0.002444689	-0.003055861	0	0	0	0
13.64226	0.002444689	-0.003055861	0	0	0	0
13.65882	0.002444689	-0.003055861	0	0	0	0
13.67539	0.002444689	-0.003055861	0	0	0	0
13.69218	0.002444689	-0.003055861	0	0	0	0
13.71326	0.002444689	-0.003055861	0	0	0	0
13.72983	0.002444689	-0.003055861	0	0	0	0
13.7464	0.002444689	-0.003055861	0	0	0	0
13.76297	0.002444689	-0.003055861	0	0	0	0
13.77978	0.002444689	-0.003055861	0	0	0	0
13.79621	0.002444689	-0.003055861	0	0	0	0
13.81267	0.002444689	-0.003055861	0	0	0	0
13.82923	0.002444689	-0.003055861	0	0	0	0
13.84613	0.002444689	-0.003055861	0	0	0	0
13.86267	0.002444689	-0.003055861	0	0	0	0
13.87893	0.002444689	-0.003055861	0	0	0	0
13.8955	0.002444689	-0.003055861	0	0	0	0
13.91231	0.002444689	-0.003055861	0	0	0	0
13.92863	0.002444689	-0.003055861	0	0	0	0
13.94539	0.002444689	-0.003055861	0	0	0	0
13.96177	0.002444689	-0.003055861	0	0	0	0
13.97834	0.002444689	-0.003055861	0	0	0	0
14.00097	0.002444689	-0.003055861	0	0	0	0
14.01755	0.002444689	-0.003055861	0	0	0	0
14.03411	0.002444689	-0.003055861	0	0	0	0
14.05154	0.002444689	-0.003055861	0	0	0	0
14.06725	0.002444689	-0.003055861	0	0	0	0
14.08381	0.002444689	-0.003055861	0	0	0	0
14.10083	0.002444689	-0.003055861	0	0	0	0
14.11706	0.002444689	-0.003055861	0	0	0	0
14.13351	0.002444689	-0.003055861	0	0	0	0
14.15008	0.002444689	-0.003055861	0	0	0	0
14.16665	0.002444689	-0.003055861	0	0	0	0
14.18332	0.002444689	-0.003055861	0	0	0	0
14.19978	0.002444689	-0.003055861	0	0	0	0
14.21635	0.002444689	-0.003055861	0	0	0	0
14.23298	0.002444689	-0.003055861	0	0	0	0
14.24948	0.002444689	-0.003055861	0	0	0	0
14.26649	0.002444689	-0.003055861	0	0	0	0
14.28299	0.002444689	-0.003055861	0	0	0	0
14.29918	0.002444689	-0.003055861	0	0	0	0
14.31575	0.002444689	-0.003055861	0	0	0	0
14.33231	0.002444689	-0.003055861	0	0	0	0
14.34986	0.002444689	-0.003055861	0	0	0	0
14.36572	0.002444689	-0.003055861	0	0	0	0
14.38201	0.002444689	-0.003055861	0	0	0	0
14.39858	0.002444689	-0.003055861	0	0	0	0
14.41515	0.002444689	-0.003055861	0	0	0	0
14.43171	0.002444689	-0.003055861	0	0	0	0
14.44875	0.002444689	-0.003055861	0	0	0	0
14.46485	0.002444689	-0.003055861	0	0	0	0
14.48141	0.002444689	-0.003055861	0	0	0	0
14.49798	0.002444689	-0.003055861	0	0	0	0
14.51455	0.002444689	-0.003055861	0	0	0	0
14.53111	0.002444689	-0.003055861	0	0	0	0
14.54817	0.002444689	-0.003055861	0	0	0	0
14.56425	0.002444689	-0.003055861	0	0	0	0
14.58086	0.002444689	-0.003055861	0	0	0	0
14.59738	0.002444689	-0.003055861	0	0	0	0
14.61395	0.002444689	-0.003055861	0	0	0	0
14.63062	0.002444689	-0.003055861	0	0	0	0
14.64735	0.002444689	-0.003055861	0	0	0	0
14.67277	0.002444689	-0.003055861	0	0	0	0
14.68934	0.002444689	-0.003055861	0	0	0	0
14.70591	0.002444689	-0.003055861	0	0	0	0
14.72294	0.002444689	-0.003055861	0	0	0	0
14.73965	0.002444689	-0.003055861	0	0	0	0
14.75566	0.002444689	-0.003055861	0	0	0	0
14.77218	0.002444689	-0.003055861	0	0	0	0
14.78874	0.002444689	-0.003055861	0	0	0	0
14.80531	0.002444689	-0.003055861	0	0	0	0
14.82203	0.002444689	-0.003055861	0	0	0	0
14.83844	0.002444689	-0.003055861	0	0	0	0
14.85501	0.002444689	-0.003055861	0	0	0	0
14.87157	0.002444689	-0.003055861	0	0	0	0
14.8882	0.002444689	-0.003055861	0	0	0	0
14.90471	0.002444689	-0.003055861	0	0	0	0
14.92128	0.002444689	-0.003055861	0	0	0	0
14.93784	0.002444689	-0.003055861	0	0	0	0
14.95441	0.002444689	-0.003055861	0	0	0	0
14.97097	0.002444689	-0.003055861	0	0	0	0
14.98754	0.002444689	-0.003055861	0	0	0	0
15.00411	0.002444689	-0.003055861	0	0	0	0
15.02067	0.002444689	-0.003055861	0	0	0	0
15.03724	0.002444689	-0.003055861	0	0	0	0
15.05381	0.002444689	-0.003055861	0	0	0	0
15.07049	0.002444689	-0.003055861	0	0	0	0
15.08694	0.002444689	-0.003055861	0	0	0	0
15.10355	0.002444689	-0.003055861	0	0	0	0
15.12008	0.002444689	-0.003055861	0	0	0	0
15.13664	0.002444689	-0.003055861	0	0	0	0
15.15321	0.002444689	-0.003055861	0	0	0	0
15.16978	0.002444689	-0.003055861	0	0	0	0
15.18634	0.002444689	-0.003055861	0	0	0	0
15.20291	0.002444689	-0.003055861	0	0	0	0
15.21966	0.002444689	-0.003055861	0	0	0	0
15.23606	0.002444689	-0.003055861	0	0	0	0
15.2527	0.002444689	-0.003055861	0	0	0	0
15.26917	0.002444689	-0.003055861	0	0	0	0
15.28574	0.002444689	-0.003055861	0	0	0	0
15.30241	0.002444689	-0.003055861	0	0	0	0
15.31902	0.002444689	-0.003055861	0	0	0	0
15.34375	0.002444689	-0.003055861	0	0	0	0
15.36033	0.002444689	-0.003055861	0	0	0	0
15.37689	0.002444689	-0.003055861	0	0	0	0
15.39346	0.002444689	-0.003055861	0	0	0	0
15.41003	0.002444689	-0.003055861	0	0	0	0
15.42694	0.002444689	-0.003055861	0	0	0	0
15.44316	0.002444689	-0.003055861	0	0	0	0
15.45973	0.002444689	-0.003055861	0	0	0	0
15.47648	0.002444689	-0.003055861	0	0	0	0
15.49286	0.002444689	-0.003055861	0	0	0	0
15.50942	0.002444689	-0.003055861	0	0	0	0
15.52599	0.002444689	-0.003055861	0	0	0	0
15.54292	0.002444689	-0.003055861	0	0	0	0
15.55912	0.002444689	-0.003055861	0	0	0	0
15.57569	0.002444689	-0.003055861	0	0	0	0
15.59249	0.002444689	-0.003055861	0	0	0	0
15.60882	0.002444689	-0.003055861	0	0	0	0
15.62581	0.002444689	-0.003055861	0	0	0	0
15.64196	0.002444689	-0.003055861	0	0	0	0
15.65852	0.002444689	-0.003055861	0	0	0	0
15.67557	0.002444689	-0.003055861	0	0	0	0
15.69166	0.002444689	-0.003055861	0	0	0	0
15.70822	0.002444689	-0.003055861	0	0	0	0
15.72479	0.002444689	-0.003055861	0	0	0	0
15.74143	0.002444689	-0.003055861	0	0	0	0
15.75792	0.002444689	-0.003055861	0	0	0	0
15.77449	0.002444689	-0.003055861	0	0	0	0
15.79113	0.002444689	-0.003055861	0	0	0	0
15.80762	0.002444689	-0.003055861	0	0	0	0
15.82419	0.002444689	-0.003055861	0	0	0	0
15.84076	0.002444689	-0.003055861	0	0	0	0
15.85732	0.002444689	-0.003055861	0	0	0	0
15.87389	0.002444689	-0.003055861	0	0	0	0
15.89053	0.01344579	0.001833517	0.6612111	0.2938716	19.91355	8.850469
15.90714	0.03544799	0.01650165	1.324092	0.882728	19.9335	17.7075
15.92359	0.08434176	0.04094854	2.972624	1.486312	49.85754	18.25455
15.94063	0.1674612	0.08495294	4.878375	2.582669	56.91127	32.74039
15.95673	0.2249114	0.1069551	3.569618	1.367088	-39.50064	-36.6884
15.97329	0.2762499	0.1228456	3.099154	0.9592612	-14.40512	-12.48724
15.99342	0.2994744	0.1265126	1.153992	0.182209	-53.0151	-21.17844
16.00999	0.3092532	0.1289573	0.5901117	0.1475275	-15.36607	-0.9450918
16.02655	0.3092532	0.1289573	0	0	-17.80756	-4.451876
16.04405	0.3092532	0.1289573	0	0	0	0
16.06046	0.3092532	0.1289573	0	0	0	0
16.07625	0.3092532	0.1289573	0	0	0	0
16.09282	0.3092532	0.1289573	0	0	0	0
16.10939	0.3092532	0.1289573	0	0	0	0
16.12596	0.3092532	0.1289573	0	0	0	0
16.14252	0.3092532	0.1289573	0	0	0	0
16.15909	0.3092532	0.1289573	0	0	0	0
16.17584	0.3092532	0.1289573	0	0	0	0
16.19222	0.3092532	0.1289573	0	0	0	0
16.20897	0.3092532	0.1289573	0	0	0	0
16.22535	0.3092532	0.1289573	0	0	0	0
16.24289	0.3092532	0.1289573	0	0	0	0
16.25899	0.3092532	0.1289573	0	0	0	0
16.27534	0.3092532	0.1289573	0	0	0	0
16.29163	0.3092532	0.1289573	0	0	0	0
16.30831	0.3092532	0.1289573	0	0	0	0
16.32495	0.3092532	0.1289573	0	0	0	0
16.34133	0.3092532	0.1289573	0	0	0	0
16.35789	0.2921403	0.1228456	-1.032932	-0.3689036	-31.35807	-11.19929
16.37456	0.2371348	0.1069551	-3.301513	-0.9537703	-68.27335	-17.60166
16.39122	0.1540154	0.08128591	-4.988385	-1.54053	-50.62141	-17.60811
16.40833	0.06967364	0.06417308	-4.929696	-1.000229	1.737843	15.99874
16.42416	0.008556412	0.05317198	-3.860606	-0.6949087	32.45576	9.268998
16.44156	-0.02077986	0.04583792	-1.686105	-0.4215262	65.4382	8.22702
16.45729	-0.02811392	0.04339323	-0.4660802	-0.1553603	36.82044	8.032903
16.47386	-0.02811392	0.04339323	0	0	14.42931	4.809776
16.49043	-0.02811392	0.04339323	0	0	0	0
16.50729	-0.02811392	0.04339323	0	0	0	0
16.52356	-0.02811392	0.04339323	0	0	0	0
16.54012	-0.02811392	0.04339323	0	0	0	0
16.5567	-0.02811392	0.04339323	0	0	0	0
16.57326	-0.02811392	0.04339323	0	0	0	0
16.58983	-0.02811392	0.04339323	0	0	0	0
16.60642	-0.02811392	0.04339323	0	0	0	0
16.62305	-0.02811392	0.04339323	0	0	0	0
16.63952	-0.02811392	0.04339323	0	0	0	0
16.65662	-0.02566924	0.04217089	0.1430012	-0.07150055	4.26036	-2.130178
16.67266	-0.02322454	0.04217088	0.1524227	-2.32266E-07	0.2843423	2.157884
16.68922	-0.02077986	0.04217089	0.1475617	2.24859E-07	-0.1490842	1.401961E-05
16.70579	-0.01589048	0.04217089	0.2951233	0	4.45342	-6.786257E-06
16.72236	-0.01344579	0.04217089	0.1475617	0	-4.453418	0
16.73893	-0.01222344	0.04094854	0.07378089	-0.07378072	-2.22671	-2.226707
16.75591	-0.0110011	0.04094854	0.07199066	-2.194029E-07	-0.0533658	2.199354
16.77206	-0.0110011	0.04094854	0	0	-2.172432	6.620832E-06
16.78879	-0.0110011	0.04094854	0	0	0	0
16.80528	-0.0110011	0.04094854	0	0	0	0
16.82177	-0.0110011	0.04094854	0	0	0	0
16.83833	-0.0110011	0.04094854	0	0	0	0
16.8549	-0.009778757	0.04094854	0.07378078	2.24859E-07	2.227478	6.788602E-06
16.87146	-0.009778757	0.04094854	0	0	-2.226708	-6.786257E-06
16.88803	-0.009778757	0.04094854	0	0	0	0
16.9046	-0.009778756	0.0397262	5.621474E-08	-0.07378095	1.696662E-06	-2.226841
16.92154	-0.009778756	0.0397262	0	0	-1.677445E-06	2.20162
16.93777	-0.009778756	0.0397262	0	0	0	0
16.9543	-0.009778756	0.0397262	0	0	0	0
16.97086	-0.009778756	0.0397262	0	0	0	0
16.98743	-0.009778756	0.0397262	0	0	0	0
17.00426	-0.009778756	0.0397262	0	0	0	0
17.02056	-0.009778756	0.0397262	0	0	0	0
17.03713	-0.009778756	0.0397262	0	0	0	0
17.0537	-0.009778756	0.0397262	0	0	0	0
17.07026	-0.009778756	0.0397262	0	0	0	0
17.08683	-0.009778756	0.0397262	0	0	0	0
17.1034	-0.009778756	0.0397262	0	0	0	0
17.11996	-0.009778756	0.0397262	0	0	0	0
17.13653	-0.009778756	0.0397262	0	0	0	0
17.1531	-0.009778756	0.0397262	0	0	0	0
17.16967	-0.009778756	0.0397262	0	0	0	0
17.18623	-0.009778756	0.0397262	0	0	0	0
17.2028	-0.009778756	0.0397262	0	0	0	0
17.21937	-0.009778756	0.0397262	0	0	0	0
17.23594	-0.009778756	0.0397262	0	0	0	0
17.2525	-0.009778756	0.0397262	0	0	0	0
17.26907	-0.009778756	0.0397262	0	0	0	0
17.28851	-0.009778756	0.0397262	0	0	0	0
17.30508	-0.009778756	0.0397262	0	0	0	0
17.32165	-0.009778756	0.0397262	0	0	0	0
17.33831	-0.009778756	0.0397262	0	0	0	0
17.35478	-0.009778756	0.0397262	0	0	0	0
17.37135	-0.009778756	0.0397262	0	0	0	0
17.38792	-0.009778756	0.0397262	0	0	0	0
17.40448	-0.009778756	0.0397262	0	0	0	0
17.42105	-0.009778756	0.0397262	0	0	0	0
17.43762	-0.009778756	0.0397262	0	0	0	0
17.45418	-0.009778756	0.0397262	0	0	0	0
17.47075	-0.009778756	0.0397262	0	0	0	0
17.48732	-0.009778756	0.0397262	0	0	0	0
17.50388	-0.009778756	0.0397262	0	0	0	0
17.52064	-0.009778756	0.0397262	0	0	0	0
17.53705	-0.009778756	0.0397262	0	0	0	0
17.55419	-0.009778756	0.0397262	0	0	0	0
17.57015	-0.009778756	0.0397262	0	0	0	0
17.58672	-0.009778756	0.0397262	0	0	0	0
17.60332	-0.009778756	0.0397262	0	0	0	0
17.61985	-0.009778756	0.0397262	0	0	0	0
17.63642	-0.009778756	0.0397262	0	0	0	0
17.65298	-0.009778756	0.0397262	0	0	0	0
17.66978	-0.009778756	0.0397262	0	0	0	0
17.68612	-0.009778756	0.0397262	0	0	0	0
17.70268	-0.009778756	0.0397262	0	0	0	0
17.71925	-0.009778756	0.0397262	0	0	0	0
17.73602	-0.009778756	0.0397262	0	0	0	0
17.75238	-0.009778756	0.0397262	0	0	0	0
17.76895	-0.009778756	0.0397262	0	0	0	0
17.78552	-0.009778756	0.0397262	0	0	0	0
17.80208	-0.009778756	0.0397262	0	0	0	0
17.8187	-0.009778756	0.0397262	0	0	0	0
17.83574	-0.009778756	0.0397262	0	0	0	0
17.85178	-0.009778756	0.0397262	0	0	0	0
17.86835	-0.009778756	0.0397262	0	0	0	0
17.88492	-0.009778756	0.0397262	0	0	0	0
17.90157	-0.009778756	0.0397262	0	0	0	0
17.91805	-0.009778756	0.0397262	0	0	0	0
17.93462	-0.008556412	0.0397262	0.07378934	0	2.232364	0
17.95119	-0.008556412	0.0397262	0	0	-2.227223	0
17.96775	-0.008556412	0.0397262	0	0	0	0
17.98432	-0.008556412	0.0397262	0	0	0	0
18.00122	-0.008556412	0.0397262	0	0	0	0
18.01769	-0.008556412	0.0397262	0	0	0	0
18.03402	-0.008556412	0.0397262	0	0	0	0
18.05059	-0.008556412	0.0397262	0	0	0	0
18.06744	-0.008556412	0.0397262	0	0	0	0
18.08372	-0.008556412	0.0397262	0	0	0	0
18.10028	-0.008556412	0.0397262	0	0	0	0
18.11685	-0.008556412	0.0397262	0	0	0	0
18.13342	-0.008556412	0.0397262	0	0	0	0
18.15034	-0.008556412	0.0397262	0	0	0	0
18.16745	-0.008556412	0.0397262	0	0	0	0
18.18394	-0.008556412	0.0397262	0	0	0	0
18.19993	-0.008556412	0.0397262	0	0	0	0
18.21626	-0.008556412	0.0397262	0	0	0	0
18.23282	-0.008556412	0.0397262	0	0	0	0
18.24939	-0.008556412	0.0397262	0	0	0	0
18.26596	-0.008556412	0.0397262	0	0	0	0
18.28253	-0.008556412	0.0397262	0	0	0	0
18.29946	-0.008556412	0.0397262	0	0	0	0
18.31566	-0.008556412	0.0397262	0	0	0	0
18.33228	-0.008556412	0.0397262	0	0	0	0
18.34879	-0.008556412	0.0397262	0	0	0	0
18.36536	-0.008556412	0.0397262	0	0	0	0
18.38226	-0.008556412	0.0397262	0	0	0	0
18.39849	-0.008556412	0.0397262	0	0	0	0
18.41506	-0.008556412	0.0397262	0	0	0	0
18.43177	-0.008556412	0.0397262	0	0	0	0
18.44819	-0.008556412	0.0397262	0	0	0	0
18.46516	-0.008556412	0.0397262	0	0	0	0
18.48132	-0.008556412	0.0397262	0	0	0	0
18.49789	-0.008556412	0.0397262	0	0	0	0
18.51458	-0.008556412	0.0397262	0	0	0	0
18.53116	-0.008556412	0.0397262	0	0	0	0
18.54794	-0.008556412	0.0397262	0	0	0	0
18.56416	-0.008556412	0.0397262	0	0	0	0
18.58072	-0.008556412	0.0397262	0	0	0	0
18.59729	-0.008556412	0.0397262	0	0	0	0
18.61386	-0.008556412	0.0397262	0	0	0	0
18.63042	-0.008556412	0.0397262	0	0	0	0
18.64718	-0.008556412	0.0397262	0	0	0	0
18.66356	-0.008556412	0.0397262	0	0	0	0
18.68012	-0.008556412	0.0397262	0	0	0	0
18.69669	-0.008556412	0.0397262	0	0	0	0
18.71326	-0.008556412	0.0397262	0	0	0	0
18.72983	-0.008556412	0.0397262	0	0	0	0
18.74649	-0.008556412	0.0397262	0	0	0	0
18.76304	-0.008556412	0.0397262	0	0	0	0
18.77953	-0.008556412	0.0397262	0	0	0	0
18.79638	-0.008556412	0.0397262	0	0	0	0
18.81293	-0.008556412	0.0397262	0	0	0	0
18.82939	-0.008556412	0.0397262	0	0	0	0
18.84579	-0.008556412	0.0397262	0	0	0	0
18.86236	-0.008556412	0.0397262	0	0	0	0
18.87908	-0.008556412	0.0397262	0	0	0	0
18.89582	-0.008556412	0.0397262	0	0	0	0
18.91206	-0.008556412	0.0397262	0	0	0	0
18.92863	-0.008556412	0.0397262	0	0	0	0
18.94566	-0.008556412	0.0397262	0	0	0	0
19.05903	-0.008556412	0.0397262	0	0	0	0
19.07599	-0.008556412	0.0397262	0	0	0	0
19.09217	-0.008556412	0.0397262	0	0	0	0
19.10873	-0.008556412	0.0397262	0	0	0	0
19.12575	-0.008556412	0.0397262	0	0	0	0
19.14187	-0.008556412	0.0397262	0	0	0	0
19.1589	-0.008556412	0.0397262	0	0	0	0
19.175	-0.008556412	0.0397262	0	0	0	0
19.19157	-0.008556412	0.0397262	0	0	0	0
19.20813	-0.008556412	0.0397262	0	0	0	0
19.2247	-0.008556412	0.0397262	0	0	0	0
19.24126	-0.008556412	0.0397262	0	0	0	0
19.25783	-0.008556412	0.0397262	0	0	0	0
19.2744	-0.008556412	0.0397262	0	0	0	0
19.29096	-0.008556412	0.0397262	0	0	0	0
19.30802	-0.008556412	0.0397262	0	0	0	0
19.32409	-0.008556412	0.0397262	0	0	0	0
19.34066	-0.008556412	0.0397262	0	0	0	0
19.35753	-0.008556412	0.0397262	0	0	0	0
19.37379	-0.008556412	0.0397262	0	0	0	0
19.39036	-0.008556412	0.0397262	0	0	0	0
19.40693	-0.008556412	0.0397262	0	0	0	0
19.42349	-0.008556412	0.0397262	0	0	0	0
19.44044	-0.008556412	0.0397262	0	0	0	0
19.45663	-0.008556412	0.0397262	0	0	0	0
19.47319	-0.008556412	0.0397262	0	0	0	0
19.48995	-0.008556412	0.0397262	0	0	0	0
19.50633	-0.008556412	0.0397262	0	0	0	0
19.52318	-0.008556412	0.0397262	0	0	0	0
19.54007	-0.008556412	0.0397262	0	0	0	0
19.55606	-0.008556412	0.0397262	0	0	0	0
19.57272	-0.008556412	0.0397262	0	0	0	0
19.58916	-0.008556412	0.0397262	0	0	0	0
19.60573	-0.008556412	0.0397262	0	0	0	0
19.6223	-0.008556412	0.0397262	0	0	0	0
19.63917	-0.008556412	0.0397262	0	0	0	0
19.65543	-0.008556412	0.0397262	0	0	0	0
19.672	-0.008556412	0.0397262	0	0	0	0
19.68857	-0.008556412	0.0397262	0	0	0	0
19.70518	-0.008556412	0.0397262	0	0	0	0
19.7217	-0.008556412	0.0397262	0	0	0	0
19.73827	-0.008556412	0.0397262	0	0	0	0
19.75506	-0.008556412	0.0397262	0	0	0	0
19.7714	-0.008556412	0.0397262	0	0	0	0
19.78797	-0.008556412	0.0397262	0	0	0	0
19.80453	-0.008556412	0.0397262	0	0	0	0
19.82129	-0.008556412	0.0397262	0	0	0	0
19.83768	-0.008556412	0.0397262	0	0	0	0
19.85423	-0.008556412	0.0397262	0	0	0	0
19.8708	-0.008556412	0.0397262	0	0	0	0
19.88737	-0.008556412	0.0397262	0	0	0	0
19.90434	-0.008556412	0.0397262	0	0	0	0
19.92108	-0.008556412	0.0397262	0	0	0	0
19.93707	-0.008556412	0.0397262	0	0	0	0
19.95363	-0.008556412	0.0397262	0	0	0	0
19.9702	-0.008556412	0.0397262	0	0	0	0
19.98677	-0.008556412	0.0397262	0	0	0	0
20.00333	-0.008556412	0.0397262	0	0	0	0
20.02052	-0.008556412	0.0397262	0	0	0	0
20.03646	-0.008556412	0.0397262	0	0	0	0
20.05303	-0.008556412	0.0397262	0	0	0	0
20.06961	-0.008556412	0.0397262	0	0	0	0
20.08617	-0.008556412	0.0397262	0	0	0	0
20.10322	-0.008556412	0.0397262	0	0	0	0
20.1193	-0.01344579	0.03972619	-0.3041577	-2.317424E-07	-9.180027	-6.994402E-06
20.13587	-0.02077986	0.0397262	-0.4426853	2.24859E-07	-4.243797	1.3988E-05
20.15243	-0.02933627	0.03972619	-0.5165254	-2.248849E-07	-2.228628	-1.357408E-05
20.16943	-0.04033737	0.04706026	-0.6473339	0.431556	-3.897773	12.85932
20.18556	-0.05745019	0.06050605	-1.0604	0.8331716	-12.46708	12.12148
20.20213	-0.08800881	0.08739763	-1.844522	1.623179	-23.97536	24.15532
20.2187	-0.1307909	0.1228456	-2.58233	2.139646	-22.26709	15.587
20.23526	-0.1662388	0.1521819	-2.139891	1.770944	13.3536	-11.12806
20.25183	-0.1992422	0.1802958	-1.991855	1.696764	4.467739	-2.238771
20.26885	-0.2273561	0.2035204	-1.651888	1.364603	10.12155	-9.889157
20.28502	-0.248136	0.2218555	-1.285654	1.134401	11.03708	-6.937525
20.30153	-0.259137	0.2316343	-0.6660202	0.5920188	18.96035	-16.5965
20.3181	-0.2664711	0.2353013	-0.4427371	0.2213677	6.749185	-11.20369
20.33467	-0.2713605	0.2389684	-0.2950889	0.2213176	4.456032	-0.001511052
20.35123	-0.2725828	0.2389683	-0.07379772	-8.99643E-07	6.678966	-6.67979
20.3678	-0.2725828	0.2389683	0	0	2.227604	2.715597E-05
20.38437	-0.2725828	0.2389683	0	0	0	0
20.40093	-0.2725828	0.2389683	0	0	0	0
20.4175	-0.2725828	0.2389683	0	0	0	0
20.43406	-0.2725828	0.2389683	0	0	0	0
20.45063	-0.2725828	0.2389683	0	0	0	0
20.4672	-0.2725828	0.2389683	0	0	0	0
20.48377	-0.2725828	0.2389683	0	0	0	0
20.50105	-0.2725828	0.2389683	0	0	0	0
20.5169	-0.2725828	0.2389683	0	0	0	0
20.53347	-0.2725828	0.2389683	0	0	0	0
20.55004	-0.2725828	0.2389683	0	0	0	0
20.56672	-0.2725828	0.2389683	0	0	0	0
20.58316	-0.2713605	0.2389684	0.07434563	9.063225E-07	2.244402	2.736074E-05
20.60036	-0.2652487	0.234079	0.3553241	-0.2842596	8.352059	-8.449618
20.6163	-0.2566923	0.2255225	0.5370544	-0.5370554	5.484949	-7.62983
20.63861	-0.2444689	0.2145215	0.5476969	-0.4929266	0.2782347	1.153694
20.6552	-0.1992421	0.1766288	2.726754	-2.284577	56.01086	-46.05289
20.67241	-0.1992421	0.1766288	0	0	-80.682	67.59841
20.68832	-0.145459	0.1350691	3.380227	-2.611995	102.0566	-78.86193
20.705	-0.1173451	0.1142892	1.68609	-1.24624	-51.99107	41.91341
20.72152	-0.09534287	0.09473169	1.331582	-1.183629	-10.6788	1.886021
20.73804	-0.07334067	0.08006356	1.332043	-0.8880282	0.01394822	8.946482
20.75499	-0.05989488	0.06906246	0.7933229	-0.6490819	-16.09736	7.139898
20.77116	-0.05256081	0.06417309	0.4535459	-0.3023639	-10.25921	10.46879
20.78772	-0.04767143	0.06050605	0.2951576	-0.2213681	-4.838379	2.474226
20.80438	-0.04644909	0.05928371	0.07336684	-0.07336707	-6.675212	4.454373
20.82088	-0.04522674	0.05928371	0.07407968	0	0.02149606	2.21244
20.83742	-0.04522674	0.05928371	0	0	-2.242182	0
20.85447	-0.04522675	0.05806137	-4.370385E-07	-0.07170054	-1.301233E-05	-2.134802
20.87099	-0.04522675	0.05806137	0	0	1.301898E-05	2.135894
20.88713	-0.04522675	0.05806137	0	0	0	0
20.90369	-0.04522675	0.05806137	0	0	0	0
20.92059	-0.04522675	0.05806137	0	0	0	0
20.93705	-0.04522675	0.05806137	0	0	0	0
20.95339	-0.04522675	0.05806137	0	0	0	0
20.97014	-0.04522675	0.05806137	0	0	0	0
20.98693	-0.04522675	0.05806137	0	0	0	0
21.00309	-0.04522675	0.05806137	0	0	0	0
21.01966	-0.04522675	0.05806137	0	0	0	0
21.03636	-0.04522675	0.05806137	0	0	0	0
21.05279	-0.04522675	0.05806137	0	0	0	0
21.06936	-0.04522675	0.05806137	0	0	0	0
21.08592	-0.04522675	0.05806137	0	0	0	0
21.10249	-0.04522675	0.05806137	0	0	0	0
21.11906	-0.04522675	0.05806137	0	0	0	0
21.13591	-0.04522675	0.05806137	0	0	0	0
21.15219	-0.03789268	0.05683902	0.4504119	-0.07506868	13.59346	-2.265577
21.16876	-0.03544799	0.05683902	0.1475614	2.24859E-07	-9.219116	2.285184
21.18533	-0.03422565	0.05683902	0.07378945	0	-2.226572	-6.786648E-06
21.20189	-0.03422565	0.05683902	0	0	-2.227226	0
21.21901	-0.03422565	0.05683902	0	0	0	0
21.23503	-0.03422565	0.05683902	0	0	0	0
21.25204	-0.03422565	0.05683902	0	0	0	0
21.26816	-0.03422565	0.05683902	0	0	0	0
21.28472	-0.03422565	0.05683902	0	0	0	0
21.30129	-0.03422565	0.05683902	0	0	0	0
21.31786	-0.03422565	0.05683902	0	0	0	0
21.33442	-0.03422565	0.05683902	0	0	0	0
21.35099	-0.03422565	0.05683902	0	0	0	0
21.36756	-0.03422565	0.05683902	0	0	0	0
21.38447	-0.03422565	0.05683902	0	0	0	0
21.40069	-0.03422565	0.05683902	0	0	0	0
21.41726	-0.03422565	0.05683902	0	0	0	0
21.43383	-0.03422565	0.05683902	0	0	0	0
21.4504	-0.03422565	0.05683902	0	0	0	0
21.46696	-0.03422565	0.05683902	0	0	0	0
21.48429	-0.03422565	0.05683902	0	0	0	0
21.50009	-0.03422565	0.05683902	0	0	0	0
21.51666	-0.03422565	0.05683902	0	0	0	0
21.53335	-0.03422565	0.05683902	0	0	0	0
21.55052	-0.03422565	0.05683902	0	0	0	0
21.56648	-0.03422565	0.05683902	0	0	0	0
21.58313	-0.03422565	0.05683902	0	0	0	0
21.59949	-0.03422565	0.05683902	0	0	0	0
21.61606	-0.03422565	0.05683902	0	0	0	0
21.63295	-0.03422565	0.05683902	0	0	0	0
21.64944	-0.03422565	0.05683902	0	0	0	0
21.66576	-0.03178096	0.05439433	0.1498037	-0.1498037	4.566562	-4.566562
21.68251	-0.02933627	0.05439433	0.1458988	0	-0.1180624	4.529168
21.69912	-0.02811392	0.05317198	0.07361145	-0.07361168	-2.166793	-2.20649
21.71546	-0.02689158	0.05194964	0.07479696	-0.07479707	0.03598164	-0.03597825
21.73203	-0.02566923	0.05194964	0.07378095	2.24859E-07	-0.03087305	2.272825
21.74875	-0.02444689	0.0507273	0.07311584	-0.07311595	-0.01998207	-2.196661
21.7657	-0.02322454	0.0507273	0.072096	0	-0.03028727	2.171396
21.78173	-0.02077986	0.04950495	0.1525313	-0.07626577	2.438774	-2.312354
21.79829	-0.01589048	0.04706026	0.2951914	-0.1475957	4.377304	-2.188647
21.81486	-0.01589048	0.04706026	0	0	-8.909921	4.454959
21.83143	-0.01222345	0.04461558	0.221317	-0.1475445	6.678975	-4.452644
21.84804	-0.0110011	0.04461557	0.0735945	-2.242909E-07	-4.452379	4.447006
21.86456	-0.0110011	0.04461557	0	0	-2.221214	6.769502E-06
21.88125	-0.0110011	0.04461557	0	0	0	0
21.89769	-0.009778756	0.04461557	0.07433718	0	2.243759	0
21.91426	-0.009778756	0.04461557	0	0	-2.251927	0
21.93117	-0.009778756	0.04461557	0	0	0	0
21.94739	-0.009778757	0.04339323	-5.741783E-08	-0.07535975	-1.732973E-06	-2.274493
21.96489	-0.009778757	0.04339323	0	0	1.703071E-06	2.235246
21.98146	-0.009778757	0.04339323	0	0	0	0
21.99802	-0.009778757	0.04339323	0	0	0	0
22.01459	-0.009778757	0.04339323	0	0	0	0
22.03116	-0.008556411	0.04339323	0.07376397	-2.248072E-07	2.225945	-6.783914E-06
22.04779	-0.008556411	0.04339323	0	0	-2.22198	6.771831E-06
22.06432	-0.007334067	0.04217089	0.07395106	-0.073951	2.230435	-2.230433
22.08136	-0.007334067	0.04217089	0	0	-2.20281	2.202808
22.09743	-0.007334067	0.04217089	0	0	0	0
22.11477	-0.006111722	0.04094854	0.07047848	-0.07047854	2.109558	-2.10956
22.13092	-0.004889378	0.0397262	0.07569816	-0.07569801	0.1558525	-0.1558464
22.14737	-0.004889378	0.0397262	0	0	-2.321865	2.32186
22.16381	-0.004889378	0.0397262	0	0	0	0
22.18041	-0.004889378	0.0397262	0	0	0	0
22.19682	-0.004889378	0.0397262	0	0	0	0
22.21339	-0.004889378	0.0397262	0	0	0	0
22.22996	-0.004889378	0.0397262	0	0	0	0
22.24652	-0.004889378	0.0397262	0	0	0	0
22.26309	-0.004889378	0.0397262	0	0	0	0
22.27966	-0.004889378	0.0397262	0	0	0	0
22.29622	-0.004889378	0.0397262	0	0	0	0
22.31279	-0.004889378	0.0397262	0	0	0	0
22.32936	-0.004889378	0.0397262	0	0	0	0
22.34598	-0.004889378	0.0397262	0	0	0	0
22.36296	-0.004889378	0.0397262	0	0	0	0
22.37906	-0.004889378	0.0397262	0	0	0	0
22.39562	-0.004889378	0.0397262	0	0	0	0
22.41219	-0.004889378	0.0397262	0	0	0	0
22.42875	-0.004889378	0.0397262	0	0	0	0
22.44554	-0.004889378	0.0397262	0	0	0	0
22.46206	-0.004889378	0.0397262	0	0	0	0
22.47846	-0.004889378	0.0397262	0	0	0	0
22.49502	-0.004889378	0.0397262	0	0	0	0
22.51159	-0.004889378	0.0397262	0	0	0	0
22.52839	-0.004889378	0.0397262	0	0	0	0
22.54493	-0.004889378	0.0397262	0	0	0	0
22.56153	-0.004889378	0.0397262	0	0	0	0
22.57786	-0.004889378	0.0397262	0	0	0	0
22.59483	-0.004889378	0.0397262	0	0	0	0
22.6114	-0.004889378	0.0397262	0	0	0	0
22.62799	-0.004889378	0.0397262	0	0	0	0
22.64456	-0.004889378	0.0397262	0	0	0	0
22.6611	-0.004889378	0.0397262	0	0	0	0
22.67781	-0.004889378	0.0397262	0	0	0	0
22.69424	-0.004889378	0.0397262	0	0	0	0
22.71097	-0.004889378	0.0397262	0	0	0	0
22.72737	-0.004889378	0.0397262	0	0	0	0
22.74394	-0.004889378	0.0397262	0	0	0	0
22.76064	-0.004889378	0.0397262	0	0	0	0
22.77708	-0.004889378	0.0397262	0	0	0	0
22.79386	-0.004889378	0.0397262	0	0	0	0
22.81021	-0.004889378	0.0397262	0	0	0	0
22.82702	-0.004889378	0.0397262	0	0	0	0
22.84364	-0.004889378	0.03850385	-2.801063E-08	-0.073527	-8.37743E-07	-2.199049
22.85991	-0.004889378	0.03850385	0	0	8.516868E-07	2.235651
22.87682	-0.004889378	0.03850385	0	0	0	0
22.89304	-0.004889378	0.03850385	0	0	0	0
22.90961	-0.004889378	0.03850385	0	0	0	0
22.92617	-0.004889378	0.03850385	0	0	0	0
22.94274	-0.004889378	0.03850385	0	0	0	0
22.9593	-0.004889378	0.03850385	0	0	0	0
22.97587	-0.004889378	0.03850385	0	0	0	0
22.99244	-0.004889378	0.03850385	0	0	0	0
23.009	-0.004889378	0.03850385	0	0	0	0
23.02557	-0.004889378	0.03850385	0	0	0	0
23.04214	-0.004889378	0.03850385	0	0	0	0
23.05884	-0.004889378	0.03850385	0	0	0	0
23.07562	-0.004889378	0.03850385	0	0	0	0
23.09184	-0.004889378	0.03850385	0	0	0	0
23.10841	-0.004889378	0.03850385	0	0	0	0
23.12497	-0.004889378	0.03850385	0	0	0	0
23.14154	-0.004889378	0.03850385	0	0	0	0
23.15825	-0.004889378	0.03850385	0	0	0	0
23.17474	-0.004889378	0.03850385	0	0	0	0
23.19124	-0.004889378	0.03850385	0	0	0	0
23.20799	-0.004889378	0.03850385	0	0	0	0
23.22468	-0.004889378	0.03850385	0	0	0	0
23.24129	-0.004889378	0.03850385	0	0	0	0
23.26194	-0.004889378	0.03850385	0	0	0	0
23.27851	-0.004889378	0.03850385	0	0	0	0
23.29508	-0.004889378	0.03850385	0	0	0	0
23.31165	-0.004889378	0.03850385	0	0	0	0
23.32821	-0.004889378	0.03850385	0	0	0	0
23.34478	-0.004889378	0.03850385	0	0	0	0
23.36135	-0.004889378	0.03850385	0	0	0	0
23.37791	-0.004889378	0.03850385	0	0	0	0
23.39448	-0.004889378	0.03850385	0	0	0	0
23.41105	-0.004889378	0.03850385	0	0	0	0
23.42762	-0.004889378	0.03850385	0	0	0	0
23.44452	-0.004889378	0.03850385	0	0	0	0
23.46098	-0.004889378	0.03850385	0	0	0	0
23.47731	-0.004889378	0.03850385	0	0	0	0
23.49388	-0.004889378	0.03850385	0	0	0	0
23.51101	-0.004889378	0.03850385	0	0	0	0
23.52702	-0.004889378	0.03850385	0	0	0	0
23.54358	-0.004889378	0.03850385	0	0	0	0
23.56014	-0.004889378	0.03850385	0	0	0	0
23.57671	-0.004889378	0.03850385	0	0	0	0
23.59328	-0.004889378	0.03850385	0	0	0	0
23.61008	-0.004889378	0.03850385	0	0	0	0
23.62659	-0.004889378	0.03850385	0	0	0	0
23.64298	-0.004889378	0.03850385	0	0	0	0
23.65955	-0.004889378	0.03850385	0	0	0	0
23.67611	-0.004889378	0.03850385	0	0	0	0
23.69268	-0.004889378	0.03850385	0	0	0	0
23.70925	-0.004889378	0.03850385	0	0	0	0
23.72582	-0.004889378	0.03850385	0	0	0	0
23.7426	-0.004889378	0.03850385	0	0	0	0
23.75972	-0.004889378	0.03850385	0	0	0	0
23.77566	-0.004889378	0.03850385	0	0	0	0
23.79254	-0.004889378	0.03850385	0	0	0	0
23.80873	-0.004889378	0.03850385	0	0	0	0
23.82522	-0.004889378	0.03850385	0	0	0	0
23.84179	-0.004889378	0.03850385	0	0	0	0
23.85835	-0.004889378	0.03850385	0	0	0	0
23.87492	-0.004889378	0.03850385	0	0	0	0
23.89149	-0.004889378	0.03850385	0	0	0	0
23.90811	-0.004889378	0.03850385	0	0	0	0
23.92883	-0.004889378	0.03850385	0	0	0	0
23.9454	-0.004889378	0.03850385	0	0	0	0
23.96197	-0.004889378	0.03850385	0	0	0	0
23.97854	-0.004889378	0.03850385	0	0	0	0
23.99564	-0.004889378	0.03850385	0	0	0	0
24.01167	-0.004889378	0.03850385	0	0	0	0
24.02824	-0.004889378	0.03850385	0	0	0	0
24.04515	-0.004889378	0.03850385	0	0	0	0
24.06172	-0.004889378	0.03850385	0	0	0	0
24.07829	-0.004889378	0.03850385	0	0	0	0
24.09486	-0.004889378	0.03850385	0	0	0	0
24.11142	-0.004889378	0.03850385	0	0	0	0
24.1284	-0.004889378	0.03850385	0	0	0	0
24.14456	-0.004889378	0.03850385	0	0	0	0
24.16112	-0.004889378	0.03850385	0	0	0	0
24.17809	-0.004889378	0.03850385	0	0	0	0
24.19426	-0.004889378	0.03850385	0	0	0	0
24.21096	-0.004889378	0.03850385	0	0	0	0
24.22739	-0.004889378	0.03850385	0	0	0	0
24.24406	-0.004889378	0.03850385	0	0	0	0
24.26066	-0.004889378	0.03850385	0	0	0	0
24.27709	-0.004889378	0.03850385	0	0	0	0
24.29365	-0.004889378	0.03850385	0	0	0	0
24.3109	-0.004889378	0.03850385	0	0	0	0
24.32679	-0.004889378	0.03850385	0	0	0	0
24.34336	-0.007334067	0.03972619	-0.1475447	0.07377223	-4.545535	2.272764
24.35992	-0.04889378	0.07028481	-2.508838	1.844734	-71.26398	53.44773
24.37684	-0.1124557	0.1155116	-3.756594	2.672961	-37.26268	24.73398
24.39305	-0.1821293	0.1619606	-4.297535	2.865024	-16.32658	5.796795
24.40976	-0.2371348	0.1949639	-3.293219	1.975932	30.51231	-27.01167
24.47449	-0.2566923	0.205965	-0.3021323	0.1699494	36.73008	-22.17718
24.49106	-0.3312553	0.2585258	-4.500115	3.172211	-51.63524	36.92786
24.50763	-0.3324777	0.2597482	-0.07378072	0.07378072	133.5793	-93.50544
24.52419	-0.3337	0.2609705	-0.07378072	0.07378072	0	0
24.54076	-0.3349224	0.2609706	-0.07378253	1.798872E-06	-5.441587E-05	-2.226652
24.55733	-0.3361447	0.2621929	-0.07378072	0.07377893	5.441587E-05	2.226598
24.57392	-0.3361447	0.2621929	0	0	2.22517	-2.225115
24.59066	-0.3361447	0.2621929	0	0	0	0
24.61109	-0.3361447	0.2621929	0	0	0	0
24.62766	-0.3361447	0.2621929	0	0	0	0
24.64423	-0.3361447	0.2621929	0	0	0	0
24.66079	-0.3361447	0.2621929	0	0	0	0
24.67763	-0.3361447	0.2621929	0	0	0	0
24.69392	-0.3361447	0.2621929	0	0	0	0
24.71065	-0.3361447	0.2621929	0	0	0	0
24.72716	-0.3361447	0.2621929	0	0	0	0
24.74368	-0.3361447	0.2621929	0	0	0	0
24.76019	-0.3361447	0.2621929	0	0	0	0
24.77676	-0.3361447	0.2621929	0	0	0	0
24.79333	-0.3361447	0.2621929	0	0	0	0
24.81022	-0.3337001	0.2597482	0.1447125	-0.1447125	4.324861	-4.324861
24.82646	-0.330033	0.2585258	0.2258421	-0.07528009	2.448777	2.095716
24.84302	-0.326366	0.2560812	0.2213422	-0.1475597	-0.1371737	-2.203344
24.85975	-0.3202543	0.2524141	0.3653702	-0.2192239	4.325858	-2.152424
24.87616	-0.3104755	0.2463024	0.5960115	-0.3725069	6.960767	-4.626091
24.89272	-0.2860286	0.2279673	1.475786	-1.106839	26.68221	-22.27116
24.90929	-0.2615817	0.2132991	1.475448	-0.8852686	-0.0101996	6.687014
24.92586	-0.2371348	0.1974086	1.475617	-0.9591521	0.005097709	-2.229681
24.94242	-0.2139103	0.1827405	1.401999	-0.8854733	-2.221936	2.223758
24.95901	-0.1980198	0.1729618	0.9579363	-0.5894983	-13.39412	8.927403
24.97556	-0.1870187	0.1644053	0.664947	-0.5171814	-8.842944	2.182655
24.99218	-0.1735729	0.1570713	0.8087026	-0.4411109	4.333815	2.293303
25.00869	-0.1650165	0.1509596	0.5183167	-0.370225	-8.763864	2.139343
25.02526	-0.1589048	0.1472925	0.3689036	-0.2213431	-4.517358	4.501297
25.04182	-0.1515707	0.1424031	0.4427371	-0.2951578	2.228428	-2.227861
25.05927	-0.1466813	0.1387361	0.2803409	-0.2102557	-4.775499	2.496671
25.07496	-0.1393473	0.1350691	0.4672699	-0.2336345	5.641202	-0.7055322
25.09153	-0.1332355	0.131402	0.3688621	-0.2213176	-3.050014	0.3817447
25.1081	-0.1259015	0.1301797	0.4427353	-0.07378922	2.229499	4.452415
25.12466	-0.1124557	0.127735	0.8115898	-0.1475614	11.13269	-2.226578
25.14123	-0.1038993	0.1252903	0.5164664	-0.1475624	-8.90684	-2.743279E-05
25.15779	-0.09656521	0.1228456	0.4427872	-0.1475954	-2.2239	-0.0009984887
25.17461	-0.09167584	0.1191786	0.2907051	-0.2180288	-4.555755	-2.109895
25.19093	-0.08678646	0.1167339	0.299678	-0.1498394	0.2708021	2.057959
25.20749	-0.08067474	0.1130669	0.3689041	-0.2213417	2.105245	-2.174466
25.2242	-0.07089598	0.1093998	0.5852606	-0.2194737	6.501955	0.05613751
25.24063	-0.05989488	0.1057328	0.6698114	-0.2232696	2.551897	-0.1145655
25.25727	-0.05011612	0.1008434	0.5875415	-0.2937709	-2.487925	-2.132031
25.28229	-0.03667033	0.09228701	0.5374706	-0.3420268	-1.201883	-1.158317
25.29886	-0.0220022	0.08128591	0.8850646	-0.6637986	8.357686	-7.736808
25.31555	-0.02077986	0.08006357	0.07323281	-0.0732327	-24.4056	17.75382
25.332	-0.01833517	0.07761888	0.1486744	-0.148674	2.276831	-2.276824
25.34883	-0.01589048	0.07517419	0.1451881	-0.1451883	-0.1047508	0.1047342
25.36513	-0.01589048	0.07517419	0	0	-4.381786	4.381793
25.3817	-0.01589048	0.07517419	0	0	0	0
25.39828	-0.01589048	0.07517419	0	0	0	0
25.4149	-0.01589048	0.07517419	0	0	0	0
25.43171	-0.01589048	0.07517419	0	0	0	0
25.44796	-0.01589048	0.07517419	0	0	0	0
25.46453	-0.01589048	0.07517419	0	0	0	0
25.48161	-0.01344579	0.07150716	0.1431451	-0.2147177	4.254493	-6.38174
25.49812	-0.01344579	0.06906246	0	-0.148022	-4.261015	1.985337
25.51423	-0.01222344	0.06784012	0.07591339	-0.07591321	2.327377	2.210735
25.53079	-0.01222344	0.06661777	5.621474E-08	-0.07378118	-2.323707	0.0652616
25.54736	-0.01222344	0.06661777	0	0	-1.696564E-06	2.22672
25.56464	-0.01222344	0.06661777	0	0	0	0
25.58049	-0.01222344	0.06661777	0	0	0	0
25.59706	-0.01222344	0.06661777	0	0	0	0
25.61363	-0.01222344	0.06661777	0	0	0	0
25.6302	-0.01222344	0.06661777	0	0	0	0
25.64676	-0.01222344	0.06661777	0	0	0	0
25.66333	-0.01222344	0.06661777	0	0	0	0
25.68003	-0.01222344	0.06539543	-5.57717E-08	-0.07319924	-1.676438E-06	-2.200291
25.69646	-0.01222344	0.06539543	0	0	1.68329E-06	2.209285
25.71303	-0.01222344	0.06539543	0	0	0	0
25.72979	-0.01222344	0.06539543	0	0	0	0
25.74616	-0.01222344	0.06539543	0	0	0	0
25.76275	-0.01222344	0.06539543	0	0	0	0
25.7793	-0.01222344	0.06539543	0	0	0	0
25.79592	-0.01222344	0.06539543	0	0	0	0
25.81243	-0.01222344	0.06539543	0	0	0	0
25.829	-0.01222344	0.06539543	0	0	0	0
25.8462	-0.01222344	0.06539543	0	0	0	0
25.86213	-0.01222344	0.06539543	0	0	0	0
25.87869	-0.01222344	0.06539543	0	0	0	0
25.89526	-0.01222344	0.06539543	0	0	0	0
25.91224	-0.01222344	0.06539543	0	0	0	0
25.92875	-0.01222344	0.06539543	0	0	0	0
25.94526	-0.01222344	0.06539543	0	0	0	0
25.96153	-0.01222344	0.06539543	0	0	0	0
25.97809	-0.01222344	0.06539543	0	0	0	0
25.9953	-0.01222344	0.06539543	0	0	0	0
26.01123	-0.01222344	0.06539543	0	0	0	0
26.02781	-0.0110011	0.06539543	0.07373839	0	2.268389	0
26.04484	-0.0110011	0.06417309	0	-0.07175674	-2.193857	-2.134899
26.06093	-0.0110011	0.06417309	0	0	0	2.166371
26.0775	-0.0110011	0.06417309	0	0	0	0
26.09406	-0.0110011	0.06417309	0	0	0	0
26.11063	-0.0110011	0.06417309	0	0	0	0
26.1272	-0.0110011	0.06295075	0	-0.07378072	0	-2.226835
26.14376	-0.009778756	0.06295074	0.07378089	-4.497179E-07	2.226712	2.226693
26.16062	-0.009778756	0.06295074	0	0	-2.207146	1.345325E-05
26.17706	-0.008556413	0.06295075	0.07435432	4.532138E-07	2.232836	1.360986E-05
26.19347	-0.008556412	0.0617284	5.677689E-08	-0.07451876	-2.263955	-2.268978
26.21003	-0.008556411	0.06050605	5.621474E-08	-0.07378095	-1.705011E-08	0.02237812
26.2266	-0.007334067	0.06050605	0.0737978	-2.249107E-07	2.227477	2.226963
26.24316	-0.007334067	0.05928371	2.810737E-08	-0.07378072	-2.227478	-2.226956
26.25973	-0.007334067	0.05928371	0	0	-8.482821E-07	2.226707
26.2763	-0.007334067	0.05928371	0	0	0	0
26.29287	-0.007334067	0.05928371	0	0	0	0
26.30943	-0.007334067	0.05928371	0	0	0	0
26.326	-0.007334067	0.05928371	0	0	0	0
26.34257	-0.007334067	0.05928371	0	0	0	0
26.35913	-0.007334067	0.05928371	0	0	0	0
26.3766	-0.007334067	0.05928371	0	0	0	0
26.39227	-0.007334067	0.05928371	0	0	0	0
26.40883	-0.007334067	0.05928371	0	0	0	0
26.42543	-0.007334067	0.05928371	0	0	0	0
26.44197	-0.007334067	0.05928371	0	0	0	0
26.45853	-0.007334067	0.05928371	0	0	0	0
26.4751	-0.007334067	0.05928371	0	0	0	0
26.49167	-0.007334067	0.05928371	0	0	0	0
26.50823	-0.007334067	0.05928371	0	0	0	0
26.5248	-0.007334067	0.05928371	0	0	0	0
26.54137	-0.007334067	0.05928371	0	0	0	0
26.55794	-0.007334067	0.05928371	0	0	0	0
26.57458	-0.007334067	0.05928371	0	0	0	0
26.59116	-0.007334067	0.05928371	0	0	0	0
26.60764	-0.007334067	0.05928371	0	0	0	0
26.6242	-0.007334067	0.05928371	0	0	0	0
26.64077	-0.007334067	0.05928371	0	0	0	0
26.65735	-0.007334067	0.05928371	0	0	0	0
26.67396	-0.007334067	0.05928371	0	0	0	0
26.69066	-0.007334067	0.05928371	0	0	0	0
26.70704	-0.007334067	0.05928371	0	0	0	0
26.72361	-0.007334067	0.05928371	0	0	0	0
26.74017	-0.007334067	0.05928371	0	0	0	0
26.75711	-0.007334067	0.05928371	0	0	0	0
26.77365	-0.007334067	0.05928371	0	0	0	0
26.79073	-0.007334067	0.05928371	0	0	0	0
26.80671	-0.007334067	0.05928371	0	0	0	0
26.82301	-0.007334067	0.05928371	0	0	0	0
26.83957	-0.007334067	0.05928371	0	0	0	0
26.85614	-0.007334067	0.05928371	0	0	0	0
26.87287	-0.007334067	0.05928371	0	0	0	0
26.88927	-0.007334067	0.05928371	0	0	0	0
26.90584	-0.007334067	0.05928371	0	0	0	0
26.92241	-0.007334067	0.05928371	0	0	0	0
26.93897	-0.007334067	0.05928371	0	0	0	0
26.95588	-0.007334067	0.05928371	0	0	0	0
26.97293	-0.007334067	0.05928371	0	0	0	0
26.98867	-0.007334067	0.05928371	0	0	0	0
27.00524	-0.006111722	0.05683902	0.07378934	-0.1475787	2.283758	-4.567516
27.02181	-0.006111722	0.05683902	0	0	-2.226967	4.453933
27.03843	-0.006111722	0.05683902	0	0	0	0
27.05566	-0.006111722	0.05683902	0	0	0	0
27.07151	-0.006111722	0.05683902	0	0	0	0
27.08841	-0.006111722	0.05683902	0	0	0	0
27.10464	-0.006111722	0.05683902	0	0	0	0
27.12121	-0.006111722	0.05683902	0	0	0	0
27.13778	-0.006111722	0.05683902	0	0	0	0
27.15486	-0.006111722	0.05683902	0	0	0	0
27.17091	-0.006111722	0.05561668	0	-0.07614774	0	-2.298276
27.18767	-0.006111722	0.05561668	0	0	0	2.320315
27.20404	-0.006111722	0.05561668	0	0	0	0
27.22075	-0.006111722	0.05561668	0	0	0	0
27.2374	-0.006111722	0.05561668	0	0	0	0
27.25397	-0.006111722	0.05561668	0	0	0	0
27.2706	-0.006111722	0.05561668	0	0	0	0
27.28688	-0.006111722	0.05561668	0	0	0	0
27.30356	-0.006111722	0.05561668	0	0	0	0
27.32068	-0.006111722	0.05561668	0	0	0	0
27.33658	-0.006111722	0.05561668	0	0	0	0
27.35315	-0.006111722	0.05561668	0	0	0	0
27.36975	-0.006111722	0.05561668	0	0	0	0
27.38628	-0.006111722	0.05561668	0	0	0	0
27.40285	-0.006111722	0.05561668	0	0	0	0
27.41941	-0.006111722	0.05561668	0	0	0	0
27.43598	-0.006111722	0.05561668	0	0	0	0
27.45283	-0.006111722	0.05561668	0	0	0	0
27.46911	-0.006111722	0.05561668	0	0	0	0
27.48568	-0.006111722	0.05561668	0	0	0	0
27.50293	-0.006111722	0.05561668	0	0	0	0
27.51881	-0.006111722	0.05561668	0	0	0	0
27.53555	-0.006111722	0.05561668	0	0	0	0
27.55276	-0.006111722	0.05561668	0	0	0	0
27.56851	-0.006111722	0.05561668	0	0	0	0
27.58516	-0.006111722	0.05561668	0	0	0	0
27.60165	-0.006111722	0.05561668	0	0	0	0
27.6185	-0.006111722	0.05317198	0	-0.1450241	0	-4.348797
27.63478	-0.007334067	0.04583792	-0.07510378	-0.4506225	-2.266767	-9.223511
27.65135	-0.007334067	0.04339323	0	-0.1475617	2.286777	9.227666
27.66791	-0.007334067	0.04339323	0	0	0	4.45342
27.68482	-0.007334067	0.04339323	0	0	0	0
27.70115	-0.007334067	0.04339323	0	0	0	0
27.71761	-0.007334067	0.04339323	0	0	0	0
27.73418	-0.007334067	0.04339323	0	0	0	0
27.75075	-0.007334067	0.04339323	0	0	0	0
27.76731	-0.007334067	0.04339323	0	0	0	0
27.78388	-0.007334067	0.04339323	0	0	0	0
27.80045	-0.007334067	0.04339323	0	0	0	0
27.81701	-0.007334067	0.04339323	0	0	0	0
27.83358	-0.007334067	0.04339323	0	0	0	0
27.85015	-0.007334067	0.04339323	0	0	0	0
27.86671	-0.007334067	0.04339323	0	0	0	0
27.88591	-0.007334067	0.04339323	0	0	0	0
27.90248	-0.007334067	0.04339323	0	0	0	0
27.91905	-0.007334067	0.04339323	0	0	0	0
27.93562	-0.007334067	0.04339323	0	0	0	0
27.95218	-0.007334067	0.04339323	0	0	0	0
27.96875	-0.007334067	0.04339323	0	0	0	0
27.98532	-0.007334067	0.04339323	0	0	0	0
28.00219	-0.007334067	0.04339323	0	0	0	0
28.01845	-0.007334067	0.04339323	0	0	0	0
28.03502	-0.007334067	0.04339323	0	0	0	0
28.05158	-0.007334067	0.04339323	0	0	0	0
28.06815	-0.007334067	0.04339323	0	0	0	0
28.08472	-0.007334067	0.04339323	0	0	0	0
28.10128	-0.007334067	0.04339323	0	0	0	0
28.11785	-0.007334067	0.04339323	0	0	0	0
28.13442	-0.007334067	0.04339323	0	0	0	0
28.15098	-0.01222344	0.04706026	-0.2951234	0.2213424	-8.907355	6.680511
28.16769	-0.01955751	0.05439433	-0.4389456	0.4389457	-4.322149	6.539424
28.18437	-0.02811392	0.06417309	-0.5131577	0.5864659	-2.22309	4.419099
28.20068	-0.04033737	0.07639653	-0.7491064	0.7491064	-7.151824	4.929784
28.21778	-0.0550055	0.08984232	-0.8581995	0.7866828	-3.26537	1.124736
28.23425	-0.06845129	0.1008434	-0.8160049	0.6676405	1.256939	-3.546163
28.25072	-0.08067474	0.1081775	-0.7420803	0.4452483	2.243578	-6.749498
28.26695	-0.09167583	0.1167339	-0.6779996	0.5273327	1.959794	2.510406
28.28352	-0.1185674	0.1485149	-1.62318	1.918302	-28.82257	42.41661
28.30008	-0.1540154	0.1961863	-2.139891	2.877785	-15.59528	28.95891
28.31673	-0.1980198	0.2573035	-2.643329	3.67129	-15.15802	23.89165
28.33322	-0.2432465	0.3184207	-2.743473	3.707397	-3.022516	1.089762
28.34978	-0.2774722	0.3660922	-2.066104	2.877787	20.49493	-25.10126
28.3666	-0.2958074	0.3905391	-1.090021	1.453362	29.23612	-42.66503
28.38292	-0.298252	0.3966508	-0.1498385	0.3745963	28.37312	-32.55535
28.3997	-0.298252	0.3966508	0	0	4.527087	-11.31772
28.41664	-0.298252	0.3966508	0	0	0	0
28.43262	-0.298252	0.3966508	0	0	0	0
28.44924	-0.298252	0.3954284	0	-0.07355209	0	-2.256435
28.46576	-0.298252	0.3942061	0	-0.07400224	0	-0.01358452
28.48241	-0.298252	0.3942061	0	0	0	2.231209
28.49888	-0.298252	0.3942061	0	0	0	0
28.51545	-0.298252	0.3942061	0	0	0	0
28.53202	-0.298252	0.3942061	0	0	0	0
28.54858	-0.298252	0.3942061	0	0	0	0
28.56515	-0.2970297	0.3917614	0.07377223	-0.1475445	2.226322	-4.452644
28.58174	-0.287251	0.3819827	0.5894315	-0.5894333	15.55099	-13.32626
28.59871	-0.2640264	0.3563134	1.368592	-1.512652	23.21707	-27.50965
28.61486	-0.2346902	0.3281995	1.816325	-1.740647	13.51807	-6.883677
28.63159	-0.1857964	0.2719717	2.923635	-3.362178	33.68236	-49.32405
28.64799	-0.1295685	0.2010757	3.428656	-4.323089	15.24684	-29.01037
28.66455	-0.08311943	0.1399584	2.803673	-3.689044	-18.95807	19.23296
28.68112	-0.05133847	0.1032881	1.918082	-2.213171	-26.72565	44.53936
28.69769	-0.03422565	0.0837306	1.032932	-1.180493	-26.71233	31.16448
28.71426	-0.02933627	0.07395184	0.2951236	-0.5902472	-22.26711	17.81367
28.73082	-0.02689158	0.07150716	0.1475955	-0.1475954	-4.452918	13.36079
28.74739	-0.02689158	0.07150716	0	0	-4.454699	4.454696
28.76395	-0.02689158	0.07028481	2.249107E-07	-0.07379816	6.788211E-06	-2.227361
28.78092	-0.02566923	0.06906246	0.07203905	-0.07203905	2.148412	0.05246218
28.79757	-0.02444689	0.06539543	0.07344262	-0.220328	0.0417591	-4.411878
28.81365	-0.0220022	0.0617284	0.1519528	-0.2279291	2.398574	-0.232223
28.83033	-0.01711282	0.05683902	0.2931658	-0.2931658	4.309697	-1.990965
28.84679	-0.01344579	0.05194964	0.2228305	-0.2971072	-2.122721	-0.118954
28.86335	-0.008556412	0.04706026	0.2951914	-0.2951916	2.191423	0.05801612
28.87992	-0.006111722	0.04217089	0.1475447	-0.2950894	-4.456241	0.003084343
28.89649	-0.002444689	0.0397262	0.2213426	-0.1475617	2.227095	4.452138
28.91305	0.001222344	0.03605916	0.2213681	-0.2213681	0.000769062	-2.227611
28.92962	0.002444689	0.03361448	0.07377238	-0.1475447	-4.454446	2.227995
28.94622	0.002444689	0.03361448	0	0	-2.224278	4.448554
28.96276	0.002444689	0.03361448	0	0	0	0
28.97932	0.002444689	0.03361448	0	0	0	0
28.99589	0.002444689	0.03361448	0	0	0	0
29.01245	0.002444689	0.03361448	0	0	0	0
29.02902	0.002444689	0.03361448	0	0	0	0
29.04559	0.002444689	0.03361448	0	0	0	0
29.06216	0.002444689	0.03361448	0	0	0	0
29.07872	0.002444689	0.03361448	0	0	0	0
29.09542	0.002444689	0.03361448	0	0	0	0
29.11186	0.002444689	0.03361448	0	0	0	0
29.12842	0.002444689	0.03361448	0	0	0	0
29.14499	0.002444689	0.03361448	0	0	0	0
29.16187	0.002444689	0.03361448	0	0	0	0
29.18589	0.002444689	0.03361448	0	0	0	0
29.20246	0.004889378	0.03239213	0.1475447	-0.07377245	3.634293	-1.817149
29.21903	0.006111722	0.03239213	0.07377237	0	-2.226197	2.226201
29.2356	0.007334067	0.03239213	0.07378086	0	0.0002563245	0
29.25217	0.007334067	0.03239213	0	0	-2.226711	0
29.26896	0.007334067	0.03239213	0	0	0	0
29.28545	0.007334067	0.03239213	0	0	0	0
29.30187	0.007334067	0.03239213	0	0	0	0
29.31843	0.007334067	0.03239213	0	0	0	0
29.335	0.007334067	0.03239213	0	0	0	0
29.35188	0.007334067	0.03239213	0	0	0	0
29.36813	0.007334067	0.03239213	0	0	0	0
29.3847	0.007334067	0.03239213	0	0	0	0
29.40127	0.007334067	0.03239213	0	0	0	0
29.41784	0.01222344	0.03239213	0.2951234	0	8.906843	0
29.43462	0.01833517	0.03361448	0.3641667	0.07283343	2.070264	2.183911
29.45097	0.02444689	0.03483682	0.3738103	0.07476194	0.2910607	0.05820607
29.46754	0.02933627	0.03728151	0.2951237	0.1475619	-2.390453	2.21162
29.4841	0.03178095	0.03728151	0.1475614	-2.24859E-07	-4.453437	-4.453434
29.50067	0.0330033	0.03850385	0.07378118	0.07378095	-2.226693	2.22672
29.51724	0.0330033	0.03850385	0	0	-2.22672	-2.226713
29.53383	0.0330033	0.03850385	0	0	0	0
29.55092	0.0330033	0.03850385	0	0	0	0
29.56694	0.0330033	0.03850385	0	0	0	0
29.5835	0.0330033	0.03850385	0	0	0	0
29.60078	0.0330033	0.03850385	0	0	0	0
29.61663	0.0330033	0.03850385	0	0	0	0
29.6332	0.03422565	0.03850385	0.07377223	0	2.275572	0
29.64999	0.03422565	0.03850385	0	0	-2.211808	0
29.66642	0.03422565	0.03850385	0	0	0	0
29.6829	0.03422565	0.03850385	0	0	0	0
29.69947	0.03422565	0.03850385	0	0	0	0
29.71604	0.03422565	0.03850385	0	0	0	0
29.7326	0.03422565	0.03850385	0	0	0	0
29.74917	0.03422565	0.03850385	0	0	0	0
29.76574	0.03422565	0.03850385	0	0	0	0
29.78231	0.03422565	0.03850385	0	0	0	0
29.79887	0.03422565	0.03850385	0	0	0	0
29.81556	0.03422565	0.03850385	0	0	0	0
29.83336	0.03422565	0.03850385	0	0	0	0
29.84993	0.03422565	0.03850385	0	0	0	0
29.93594	0.03422565	0.03850385	0	0	0	0
29.95251	0.03422565	0.03850385	0	0	0	0
29.96907	0.03422565	0.03850385	0	0	0	0
29.98565	0.03422565	0.03850385	0	0	0	0
30.00259	0.03422565	0.03850385	0	0	0	0
30.01878	0.03544799	0.03850385	0.07550204	0	2.278919	0
30.03572	0.03544799	0.03850385	0	0	-2.27905	0
30.05191	0.03544799	0.03850385	0	0	0	0
30.06848	0.03544799	0.03850385	0	0	0	0
30.08512	0.03544799	0.03850385	0	0	0	0
30.10171	0.03667033	0.03850385	0.073662	-2.244971E-07	2.216489	-6.755116E-06
30.11818	0.03667033	0.03850385	0	0	-2.228126	6.790582E-06
30.13474	0.03667033	0.03850385	0	0	0	0
30.15141	0.03667033	0.03850385	0	0	0	0
30.16921	0.03667033	0.03850385	0	0	0	0
30.18577	0.03667033	0.03850385	0	0	0	0
30.20246	0.03667033	0.03850385	0	0	0	0
30.2189	0.03667033	0.03850385	0	0	0	0
30.23554	0.03667033	0.03850385	0	0	0	0
30.25204	0.03667033	0.03850385	0	0	0	0
30.2686	0.03667033	0.03850385	0	0	0	0
30.28517	0.03667033	0.03850385	0	0	0	0
30.30174	0.03667033	0.03850385	0	0	0	0
30.31831	0.03667033	0.03850385	0	0	0	0
30.33487	0.03667033	0.03850385	0	0	0	0
30.35158	0.03667033	0.03850385	0	0	0	0
30.36801	0.03667033	0.03850385	0	0	0	0
30.38457	0.03667033	0.03850385	0	0	0	0
30.40114	0.03667033	0.03850385	0	0	0	0
30.41782	0.03667033	0.03728151	0	-0.07329971	0	-2.205081
30.43427	0.03667033	0.03728151	0	0	0	2.21219
30.46181	0.03667033	0.03728151	0	0	0	0
30.47871	0.03667033	0.03728151	0	0	0	0
30.49494	0.03667033	0.03728151	0	0	0	0
30.51173	0.03667033	0.03728151	0	0	0	0
30.52825	0.03667033	0.03728151	0	0	0	0
30.54476	0.03667033	0.03728151	0	0	0	0
30.56121	0.03667033	0.03728151	0	0	0	0
30.57778	0.03667033	0.03728151	0	0	0	0
30.59435	0.03667033	0.03728151	0	0	0	0
30.6113	0.03667033	0.03728151	0	0	0	0
30.62781	0.03667033	0.03728151	0	0	0	0
30.64433	0.03667033	0.03728151	0	0	0	0
30.66086	0.03667033	0.03728151	0	0	0	0
30.67718	0.03667033	0.03728151	0	0	0	0
30.69387	0.03667033	0.03728151	0	0	0	0
30.71031	0.03667033	0.03728151	0	0	0	0
30.72688	0.03667033	0.03728151	0	0	0	0
30.74344	0.03667033	0.03728151	0	0	0	0
30.76001	0.03667033	0.03728151	0	0	0	0
30.77658	0.03667033	0.03728151	0	0	0	0
30.79315	0.03667033	0.03728151	0	0	0	0
30.80971	0.03667033	0.03728151	0	0	0	0
30.82628	0.03667033	0.03728151	0	0	0	0
30.8429	0.03667033	0.03728151	0	0	0	0
30.85942	0.03667033	0.03728151	0	0	0	0
30.87598	0.03667033	0.03728151	0	0	0	0
30.89255	0.03667033	0.03728151	0	0	0	0
30.9094	0.03667033	0.03728151	0	0	0	0
30.92569	0.03667033	0.03728151	0	0	0	0
30.94225	0.03667033	0.03728151	0	0	0	0
30.95882	0.03667033	0.03728151	0	0	0	0
30.97561	0.03667033	0.03728151	0	0	0	0
30.99195	0.03667033	0.03728151	0	0	0	0
31.00865	0.03667033	0.03728151	0	0	0	0
31.02555	0.03667033	0.03728151	0	0	0	0
31.04165	0.03667033	0.03728151	0	0	0	0
31.05826	0.03667033	0.03728151	0	0	0	0
31.07479	0.03667033	0.03728151	0	0	0	0
31.09135	0.03667033	0.03728151	0	0	0	0
31.10792	0.03667033	0.03728151	0	0	0	0
31.12449	0.03667033	0.03728151	0	0	0	0
31.14105	0.03667033	0.03728151	0	0	0	0
31.15762	0.03667033	0.03728151	0	0	0	0
31.17419	0.03667033	0.03728151	0	0	0	0
31.19075	0.03667033	0.03728151	0	0	0	0
31.21037	0.03667033	0.03728151	0	0	0	0
31.22695	0.03667033	0.03728151	0	0	0	0
31.24351	0.03667033	0.03728151	0	0	0	0
31.26008	0.03667033	0.03728151	0	0	0	0
31.27665	0.03667033	0.03728151	0	0	0	0
31.29382	0.03667033	0.03728151	0	0	0	0
31.30996	0.03667033	0.03728151	0	0	0	0
31.32643	0.03667033	0.03728151	0	0	0	0
31.34291	0.03667033	0.03728151	0	0	0	0
31.35948	0.03667033	0.03728151	0	0	0	0
31.37605	0.03667033	0.03728151	0	0	0	0
31.39261	0.03667033	0.03728151	0	0	0	0
31.40918	0.03667033	0.03728151	0	0	0	0
31.42575	0.03667033	0.03728151	0	0	0	0
31.44232	0.03667033	0.03728151	0	0	0	0
31.45888	0.03667033	0.03728151	0	0	0	0
31.47545	0.03667033	0.03728151	0	0	0	0
31.49201	0.03667033	0.03728151	0	0	0	0
31.50858	0.03667033	0.03728151	0	0	0	0
31.52522	0.03667033	0.03728151	0	0	0	0
31.54171	0.03667033	0.03728151	0	0	0	0
31.55828	0.03667033	0.03728151	0	0	0	0
31.57485	0.03667033	0.03728151	0	0	0	0
31.59148	0.03667033	0.03728151	0	0	0	0
31.60798	0.03667033	0.03605916	0	-0.07407066	0	-2.235457
31.62455	0.03667033	0.03605916	0	0	0	2.239841
31.64112	0.03667033	0.03605916	0	0	0	0
31.65769	0.03667033	0.03605916	0	0	0	0
31.67426	0.03667033	0.03605916	0	0	0	0
31.69128	0.03667033	0.03605916	0	0	0	0
31.70738	0.03667033	0.03605916	0	0	0	0
31.72401	0.03667033	0.03605916	0	0	0	0
31.74076	0.03667033	0.03605916	0	0	0	0
31.75708	0.03667033	0.03605916	0	0	0	0
31.77365	0.03667033	0.03605916	0	0	0	0
31.79022	0.03667033	0.03605916	0	0	0	0
31.80678	0.03667033	0.03605916	0	0	0	0
31.82335	0.03667033	0.03605916	0	0	0	0
31.83992	0.03667033	0.03605916	0	0	0	0
31.85648	0.03667033	0.03605916	0	0	0	0
31.88032	0.03667033	0.03605916	0	0	0	0
31.89689	0.03667033	0.03605916	0	0	0	0
31.91352	0.03667033	0.03605916	0	0	0	0
31.93015	0.03667033	0.03605916	0	0	0	0
31.94668	0.03667033	0.03605916	0	0	0	0
31.96316	0.03667033	0.03605916	0	0	0	0
31.97973	0.03667033	0.03605916	0	0	0	0
31.9963	0.03667033	0.03605916	0	0	0	0
32.01318	0.03667033	0.03605916	0	0	0	0
32.02962	0.03667033	0.03605916	0	0	0	0
32.0463	0.03667033	0.03605916	0	0	0	0
32.06289	0.03667033	0.03605916	0	0	0	0
32.07913	0.03667033	0.03605916	0	0	0	0
32.0957	0.03667033	0.03605916	0	0	0	0
32.11229	0.03667033	0.03605916	0	0	0	0
32.12883	0.03667033	0.03605916	0	0	0	0
32.14581	0.03667033	0.03605916	0	0	0	0
32.16238	0.03667033	0.03605916	0	0	0	0
32.17894	0.03667033	0.03605916	0	0	0	0
32.19577	0.03667033	0.03605916	0	0	0	0
32.21237	0.03667033	0.03605916	0	0	0	0
32.22864	0.03667033	0.03605916	0	0	0	0
32.24529	0.03667033	0.03605916	0	0	0	0
32.26183	0.03667033	0.03605916	0	0	0	0
32.27879	0.03667033	0.03605916	0	0	0	0
32.29564	0.03667033	0.03605916	0	0	0	0
32.31147	0.03667033	0.03605916	0	0	0	0
32.32804	0.03667033	0.03605916	0	0	0	0
32.34461	0.03667033	0.03605916	0	0	0	0
32.36118	0.03667033	0.03605916	0	0	0	0
32.37774	0.03667033	0.03605916	0	0	0	0
32.39431	0.03667033	0.03605916	0	0	0	0
32.41137	0.03667033	0.03605916	0	0	0	0
32.42744	0.03667033	0.03605916	0	0	0	0
32.44459	0.03667033	0.03605916	0	0	0	0
32.46058	0.03667033	0.03605916	0	0	0	0
32.47714	0.03667033	0.03605916	0	0	0	0
32.49371	0.03667033	0.03605916	0	0	0	0
32.51027	0.03667033	0.03605916	0	0	0	0
32.52684	0.03667033	0.03605916	0	0	0	0
32.54373	0.03667033	0.03605916	0	0	0	0
32.55997	0.03667033	0.03605916	0	0	0	0
32.57654	0.03667033	0.03605916	0	0	0	0
32.5934	0.04767144	0.04217089	0.6526076	0.3625597	19.5249	10.84716
32.60968	0.05745019	0.0507273	0.6007596	0.5256648	-1.564776	4.922522
32.62624	0.06845129	0.06784012	0.6640279	1.032932	1.926294	15.44449
32.64321	0.08311943	0.0837306	0.8644704	0.9365094	5.977113	-2.875288
32.65938	0.0904535	0.09106467	0.4536532	0.4536532	-12.39849	-14.57263
32.67595	0.09289818	0.092287	0.147561	0.07378028	-9.350917	-11.60487
32.69251	0.09289818	0.092287	0	0	-4.4534	-2.226693
32.70908	0.09289818	0.092287	0	0	0	0
32.72565	0.09534287	0.09473169	0.1475619	0.1475614	4.453427	4.453413
32.74221	0.1026769	0.1008434	0.4427876	0.3689899	8.910956	6.683495
32.75878	0.1051216	0.1020658	0.147561	0.07378028	-8.910983	-8.910472
32.77608	0.1051216	0.1020658	0	0	-4.356107	-2.178047
32.79191	0.1051216	0.1020658	0	0	0	0
32.80848	0.1026769	0.08861998	-0.1475614	-0.8115889	-4.555151	-25.05336
32.82505	0.09900991	0.03728151	-0.2213422	-3.098796	-2.226707	-69.02805
32.84203	0.09534287	-0.06050605	-0.2158754	-5.756663	0.1629256	-79.21146
32.85818	0.08923115	-0.1546266	-0.37858	-5.830134	-4.911	-2.217617
32.87506	0.08923115	-0.2181885	0	-3.764658	11.46252	62.5378
32.89157	0.09045349	-0.2536365	0.07403643	-2.147061	2.217067	48.43994
32.90814	0.09412053	-0.2780834	0.2213431	-1.475618	4.453414	20.29924
32.92444	0.09778755	-0.2951962	0.2249151	-1.049608	0.1086669	12.95997
32.94101	0.1002323	-0.3037526	0.1475624	-0.5164651	-2.353204	16.21912
32.95776	0.1002322	-0.308642	-4.447006E-07	-0.2918303	-4.428472	6.741459
32.97414	0.1002323	-0.312309	4.549557E-07	-0.2239219	2.715481E-05	2.049715
32.99071	0.1002323	-0.312309	0	0	-1.381009E-05	6.797104
33.00727	0.1002323	-0.312309	0	0	0	0
33.02411	0.1002322	-0.3159761	-4.426847E-07	-0.2178806	-1.325496E-05	-6.523824
33.04041	0.1002322	-0.3208654	0	-0.2998874	1.336025E-05	-2.474971
33.05698	0.0990099	-0.3257548	-0.07378072	-0.2951229	-2.244537	0.1449442
33.07354	0.09900991	-0.3281995	4.497179E-07	-0.1475632	2.22672	4.453359
33.09051	0.0990099	-0.3294218	-4.392006E-07	-0.07205349	-2.65102E-05	2.251926
33.10667	0.0990099	-0.3294218	0	0	1.325663E-05	2.174829
33.12324	0.0990099	-0.3294218	0	0	0	0
33.14001	0.0990099	-0.3294218	0	0	0	0
33.15675	0.0990099	-0.3294218	0	0	0	0
33.17294	0.0990099	-0.3294218	0	0	0	0
33.18951	0.0990099	-0.3294218	0	0	0	0
33.20951	0.09900991	-0.3281995	3.725205E-07	0.06111423	1.018715E-05	1.671263
33.22639	0.09778757	-0.3196431	-0.07242986	0.507009	-1.96412	12.09151
33.24266	0.09778757	-0.3196431	0	0	2.185183	-15.29628
33.25964	0.09778757	-0.3196431	0	0	0	0
33.27578	0.09778757	-0.3196431	0	0	0	0
33.29235	0.09778757	-0.3196431	0	0	0	0
33.30891	0.09778757	-0.3196431	0	0	0	0
33.32548	0.09778757	-0.3196431	0	0	0	0
33.34205	0.09778757	-0.3196431	0	0	0	0
33.35862	0.09778757	-0.3196431	0	0	0	0
33.37518	0.09778757	-0.3196431	0	0	0	0
33.39175	0.09778757	-0.3196431	0	0	0	0
33.40832	0.09778757	-0.3196431	0	0	0	0
33.42488	0.09656522	-0.315976	-0.07378118	0.2213458	-2.22672	6.680229
33.44145	0.09534287	-0.3074197	-0.07378072	0.5164633	1.37164E-05	8.906664
33.45838	0.0880088	-0.2805281	-0.4333072	1.588792	-10.73436	32.01645
33.47459	0.06967364	-0.2194108	-1.131196	3.770656	-21.06232	65.84878
33.49115	0.02933627	-0.1167339	-2.434769	6.197592	-39.77233	74.04642
33.50772	0.01466813	-0.09106466	-0.8853704	1.549398	46.76094	-140.2828
33.52429	-0.003667033	-0.04828261	-1.106713	2.58233	-6.680132	31.17393
33.54086	-0.01833517	-0.01038993	-0.8853703	2.287207	6.680134	-8.906833
33.55742	-0.0220022	0.003055861	-0.2213426	0.8115894	20.0404	-44.53421
33.57399	-0.02322455	0.01161227	-0.07378083	0.516466	4.453424	-8.906842
33.59056	-0.02322455	0.01405696	0	0.1475617	2.22671	-11.13356
33.60712	-0.02322455	0.01650165	0	0.1475617	0	1.798872E-06
33.62369	-0.02322455	0.01650165	0	0	0	-4.453422
33.64026	-0.02322455	0.01650165	0	0	0	0
33.65683	-0.02322455	0.01650165	0	0	0	0
33.67339	-0.02322455	0.01650165	0	0	0	0
33.68996	-0.02322455	0.01650165	0	0	0	0
33.70706	-0.02322455	0.01650165	0	0	0	0
33.72316	-0.02322455	0.01650165	0	0	0	0
33.73966	-0.02322455	0.01650165	0	0	0	0
33.75623	-0.02322455	0.01650165	0	0	0	0
33.77279	-0.02322455	0.01650165	0	0	0	0
33.7902	-0.02322455	0.01650165	0	0	0	0
33.80617	-0.02322455	0.01650165	0	0	0	0
33.82249	-0.02322455	0.01650165	0	0	0	0
33.84084	-0.02322455	0.01650165	0	0	0	0
33.85741	-0.01955751	0.01894634	0.2213425	0.1475618	6.339993	4.226665
33.87397	-0.01955751	0.01894634	0	0	-6.68013	-4.453424
33.89054	-0.01711282	0.02016868	0.1475618	0.07378083	4.453424	2.22671
33.90788	-0.01466813	0.02016868	0.1410345	0	-0.1925381	-2.176348
33.92368	-0.01344579	0.02139103	0.07736122	0.07736122	-1.921664	2.334766
33.94082	-0.01344579	0.02139103	0	0	-2.348012	-2.348012
33.95719	-0.01344579	0.02139103	0	0	0	0
33.97337	-0.01344579	0.02139103	0	0	0	0
33.9901	-0.01344579	0.02139103	0	0	0	0
34.00652	-0.01344579	0.02139103	0	0	0	0
34.02307	-0.01344579	0.02139103	0	0	0	0
34.03963	-0.01344579	0.02139103	0	0	0	0
34.0562	-0.01222344	0.02139103	0.07378083	0	2.226966	0
34.07277	-0.01222344	0.02139103	0	0	-2.22671	0
34.08934	-0.01222344	0.02139103	0	0	0	0
34.1059	-0.01222344	0.02139103	0	0	0	0
34.12249	-0.01222344	0.02139103	0	0	0	0
34.13903	-0.01222344	0.02139103	0	0	0	0
34.1556	-0.01222344	0.02139103	0	0	0	0
34.17216	-0.01222344	0.02139103	0	0	0	0
34.18873	-0.01222344	0.02139103	0	0	0	0
34.2053	-0.01222344	0.02139103	0	0	0	0
34.22195	-0.01222344	0.02139103	0	0	0	0
34.23843	-0.01222344	0.02139103	0	0	0	0
34.255	-0.01222344	0.02139103	0	0	0	0
34.27175	-0.01222344	0.02139103	0	0	0	0
34.28856	-0.01222344	0.02139103	0	0	0	0
34.3049	-0.01222344	0.02139103	0	0	0	0
34.32127	-0.01222344	0.02139103	0	0	0	0
34.33784	-0.01222344	0.02139103	0	0	0	0
34.3544	-0.01222344	0.02139103	0	0	0	0
34.37097	-0.01222344	0.02139103	0	0	0	0
34.38759	-0.01222344	0.02139103	0	0	0	0
34.4042	-0.01222344	0.02139103	0	0	0	0
34.42073	-0.01222344	0.02139103	0	0	0	0
34.43724	-0.01222344	0.02139103	0	0	0	0
34.45396	-0.01222344	0.02139103	0	0	0	0
34.47038	-0.01222344	0.02139103	0	0	0	0
34.48699	-0.01222344	0.02139103	0	0	0	0
34.50351	-0.01222344	0.02139103	0	0	0	0
34.52007	-0.01222344	0.02139103	0	0	0	0
34.53664	-0.01222344	0.02139103	0	0	0	0
34.55365	-0.01222344	0.02139103	0	0	0	0
34.56977	-0.01222344	0.02139103	0	0	0	0
34.58634	-0.01222344	0.02139103	0	0	0	0
34.60297	-0.01222344	0.02139103	0	0	0	0
34.61948	-0.01222344	0.02139103	0	0	0	0
34.63627	-0.01222344	0.02139103	0	0	0	0
34.6529	-0.01222344	0.02139103	0	0	0	0
34.66918	-0.01222344	0.02139103	0	0	0	0
34.68575	-0.01222344	0.02139103	0	0	0	0
34.70232	-0.01222344	0.02139103	0	0	0	0
34.71888	-0.01222344	0.02139103	0	0	0	0
34.7357	-0.01222344	0.02139103	0	0	0	0
34.75201	-0.01222344	0.02139103	0	0	0	0
34.76858	-0.01222344	0.02139103	0	0	0	0
34.78515	-0.01222344	0.02139103	0	0	0	0
34.8018	-0.01222344	0.02139103	0	0	0	0
34.81828	-0.01222344	0.02139103	0	0	0	0
34.83485	-0.01222344	0.02139103	0	0	0	0
34.85142	-0.01222344	0.02139103	0	0	0	0
34.86798	-0.01222344	0.02139103	0	0	0	0
34.88455	-0.01222344	0.02139103	0	0	0	0
34.90112	-0.01222344	0.02139103	0	0	0	0
34.91769	-0.01222344	0.02139103	0	0	0	0
34.93425	-0.01222344	0.02139103	0	0	0	0
34.95082	-0.01222344	0.02139103	0	0	0	0
34.96739	-0.01222344	0.02139103	0	0	0	0
34.98396	-0.01222344	0.02139103	0	0	0	0
35.00052	-0.01222344	0.02139103	0	0	0	0
35.01709	-0.01222344	0.02139103	0	0	0	0
35.03392	-0.01222344	0.02139103	0	0	0	0
35.05022	-0.01222344	0.02139103	0	0	0	0
35.06679	-0.01222344	0.02139103	0	0	0	0
35.08335	-0.01222344	0.02139103	0	0	0	0
35.10016	-0.009778756	0.02016868	0.1454518	-0.07272587	4.358134	-2.179066
35.11657	-0.008556411	0.02016868	0.07450137	-1.135274E-07	-2.136124	2.189574
35.13347	-0.007334067	0.01894634	0.07233182	-0.07233176	-0.06513988	-2.171722
35.15004	-0.007334067	0.01894634	0	0	-2.161084	2.161082
35.16661	-0.007334067	0.01894634	0	0	0	0
35.18317	-0.007334067	0.01894634	0	0	0	0
35.20014	-0.007334067	0.01894634	0	0	0	0
35.21656	-0.007334067	0.01894634	0	0	0	0
35.23287	-0.007334067	0.01894634	0	0	0	0
35.24944	-0.007334067	0.01894634	0	0	0	0
35.26612	-0.007334067	0.01894634	0	0	0	0
35.28257	-0.007334067	0.01894634	0	0	0	0
35.29914	-0.007334067	0.01894634	0	0	0	0
35.31577	-0.007334067	0.01894634	0	0	0	0
35.33247	-0.007334067	0.01894634	0	0	0	0
35.34884	-0.007334067	0.01894634	0	0	0	0
35.36541	-0.007334067	0.01894634	0	0	0	0
35.38197	-0.007334067	0.01894634	0	0	0	0
35.3986	-0.007334067	0.01894634	0	0	0	0
35.41511	-0.007334067	0.01894634	0	0	0	0
35.43167	-0.007334067	0.01894634	0	0	0	0
35.44824	-0.007334067	0.01894634	0	0	0	0
35.46481	-0.007334067	0.01894634	0	0	0	0
35.48138	-0.007334067	0.01894634	0	0	0	0
35.498	-0.007334067	0.01894634	0	0	0	0
35.51451	-0.007334067	0.01894634	0	0	0	0
35.5317	-0.007334067	0.01894634	0	0	0	0
35.54824	-0.007334067	0.01894634	0	0	0	0
35.56454	-0.007334067	0.01894634	0	0	0	0
35.58078	-0.007334067	0.01894634	0	0	0	0
35.59734	-0.007334067	0.01894634	0	0	0	0
35.61391	-0.007334067	0.01894634	0	0	0	0
35.63048	-0.007334067	0.01894634	0	0	0	0
35.64705	-0.007334067	0.01894634	0	0	0	0
35.66361	-0.007334067	0.01894634	0	0	0	0
35.68018	-0.007334067	0.01894634	0	0	0	0
35.69707	-0.007334067	0.01894634	0	0	0	0
35.71331	-0.007334067	0.01894634	0	0	0	0
35.72988	-0.007334067	0.01894634	0	0	0	0
35.74645	-0.007334067	0.01894634	0	0	0	0
35.76319	-0.007334067	0.01894634	0	0	0	0
35.77958	-0.007334067	0.01894634	0	0	0	0
35.80095	-0.007334067	0.01894634	0	0	0	0
35.81783	-0.007334067	0.01894634	0	0	0	0
35.83409	-0.007334067	0.01894634	0	0	0	0
35.85066	-0.007334067	0.01894634	0	0	0	0
35.86723	-0.007334067	0.01894634	0	0	0	0
35.88404	-0.007334067	0.01894634	0	0	0	0
35.90044	-0.007334067	0.01894634	0	0	0	0
35.91692	-0.007334067	0.01894634	0	0	0	0
35.93349	-0.007334067	0.01894634	0	0	0	0
35.95006	-0.007334067	0.01894634	0	0	0	0
35.96663	-0.007334067	0.01894634	0	0	0	0
35.98335	-0.007334067	0.01894634	0	0	0	0
35.99976	-0.007334067	0.01894634	0	0	0	0
36.01633	-0.007334067	0.01894634	0	0	0	0
36.03289	-0.007334067	0.01894634	0	0	0	0
36.04946	-0.007334067	0.01894634	0	0	0	0
36.06603	-0.007334067	0.01894634	0	0	0	0
36.0826	-0.007334067	0.01894634	0	0	0	0
36.09925	-0.007334067	0.01894634	0	0	0	0
36.11573	-0.007334067	0.01894634	0	0	0	0
36.13229	-0.007334067	0.01894634	0	0	0	0
36.14886	-0.007334067	0.01894634	0	0	0	0
36.16542	-0.007334067	0.01894634	0	0	0	0
36.18199	-0.007334067	0.01894634	0	0	0	0
36.19856	-0.007334067	0.01894634	0	0	0	0
36.21513	-0.007334067	0.01894634	0	0	0	0
36.23169	-0.007334067	0.01894634	0	0	0	0
36.24826	-0.007334067	0.01894634	0	0	0	0
36.26483	-0.007334067	0.01894634	0	0	0	0
36.28139	-0.007334067	0.01894634	0	0	0	0
36.29796	-0.007334067	0.01894634	0	0	0	0
36.31453	-0.007334067	0.01894634	0	0	0	0
36.3311	-0.007334067	0.01894634	0	0	0	0
36.34766	-0.007334067	0.01894634	0	0	0	0
36.36433	-0.007334067	0.01894634	0	0	0	0
36.3814	-0.007334067	0.01894634	0	0	0	0
36.39737	-0.007334067	0.01894634	0	0	0	0
36.41394	-0.007334067	0.01894634	0	0	0	0
36.4305	-0.007334067	0.01894634	0	0	0	0
36.44707	-0.007334067	0.01894634	0	0	0	0
36.47728	-0.007334067	0.01894634	0	0	0	0
36.49402	-0.007334067	0.01894634	0	0	0	0
36.51042	-0.007334067	0.01894634	0	0	0	0
36.52699	-0.007334067	0.01894634	0	0	0	0
36.54356	-0.007334067	0.01894634	0	0	0	0
36.56012	-0.007334067	0.01894634	0	0	0	0
36.57669	-0.007334067	0.01894634	0	0	0	0
36.59326	-0.007334067	0.01894634	0	0	0	0
36.60983	-0.007334067	0.01894634	0	0	0	0
36.62639	-0.007334067	0.01894634	0	0	0	0
36.64296	-0.007334067	0.01894634	0	0	0	0
36.65958	-0.007334067	0.01894634	0	0	0	0
36.67609	-0.007334067	0.01894634	0	0	0	0
36.74609	-0.007334067	0.01894634	0	0	0	0
36.76267	-0.007334067	0.01894634	0	0	0	0
36.77923	-0.007334067	0.01894634	0	0	0	0
36.7958	-0.007334067	0.01894634	0	0	0	0
36.81236	-0.007334067	0.01894634	0	0	0	0
36.82893	-0.007334067	0.01894634	0	0	0	0
36.8455	-0.007334067	0.01894634	0	0	0	0
36.86206	-0.007334067	0.01894634	0	0	0	0
36.87863	-0.007334067	0.01894634	0	0	0	0
36.8952	-0.007334067	0.01894634	0	0	0	0
36.91177	-0.007334067	0.01894634	0	0	0	0
36.92834	-0.007334067	0.01894634	0	0	0	0
36.94527	-0.007334067	0.01894634	0	0	0	0
36.96147	-0.007334067	0.01894634	0	0	0	0
36.97803	-0.007334067	0.01894634	0	0	0	0
36.99485	-0.007334067	0.01894634	0	0	0	0
37.01117	-0.007334067	0.01894634	0	0	0	0
37.02774	-0.007334067	0.01894634	0	0	0	0
37.04432	-0.007334067	0.01894634	0	0	0	0
37.06117	-0.007334067	0.01894634	0	0	0	0
37.07744	-0.007334067	0.01894634	0	0	0	0
37.09401	-0.007334067	0.01894634	0	0	0	0
37.11057	-0.007334067	0.01894634	0	0	0	0
37.12714	-0.007334067	0.01894634	0	0	0	0
37.14371	-0.007334067	0.01894634	0	0	0	0
37.16027	-0.007334067	0.01894634	0	0	0	0
37.18307	-0.007334067	0.01894634	0	0	0	0
37.19965	-0.008556411	0.01894634	-0.0737638	-1.124036E-07	-1.873533	-2.854949E-06
37.21621	-0.008556411	0.01772399	0	-0.07378083	2.22594	-2.22645
37.23309	-0.009778756	0.01772399	-0.07243002	0	-2.165746	2.206137
37.24935	-0.009778756	0.01772399	0	0	2.185942	0
37.26591	-0.009778756	0.01772399	0	0	0	0
37.28248	-0.009778756	0.01772399	0	0	0	0
37.29963	-0.009778756	0.01772399	0	0	0	0
37.31562	-0.009778757	0.009167585	-5.825355E-08	-0.5351972	-1.758096E-06	-16.15228
37.33252	-0.006111722	-0.02016868	0.2169957	-1.735965	6.598323	-36.51249
37.34881	0.004889378	-0.07150716	0.6752219	-3.151035	13.80545	-42.63327
37.36531	0.01833517	-0.1252903	0.8145905	-3.258361	4.249202	-3.272258
37.38227	0.0330033	-0.1778511	0.864859	-3.099078	1.502062	4.759511
37.39845	0.04644909	-0.2243002	0.8313048	-2.871781	-1.012668	6.859832
37.41501	0.05622784	-0.2609705	0.5903829	-2.213935	-7.359151	20.09443
37.43214	0.06722895	-0.304975	0.6422882	-2.569154	1.540611	-10.5433
37.44856	0.0770077	-0.3355336	0.5955951	-1.861234	-1.391894	21.10268
37.46471	0.08556412	-0.3550911	0.5296372	-1.2106	-2.024882	19.97421
37.48128	0.09045349	-0.3673145	0.2951909	-0.7379771	-7.165524	14.44505
37.49784	0.09534287	-0.3734262	0.2951233	-0.3689036	-0.002038356	11.13994
37.51441	0.09900991	-0.3783156	0.2213431	-0.2951247	-2.226693	2.226652
37.53098	0.1002323	-0.379538	0.07378118	-0.07378072	-4.453427	6.680175
37.54755	0.1002323	-0.3807603	-4.497179E-07	-0.07377893	-2.226734	5.419101E-05
37.56412	0.1002323	-0.3807603	0	0	1.357095E-05	2.226396
37.5828	0.1002323	-0.3807603	0	0	0	0
37.59937	0.1002323	-0.3807603	0	0	0	0
37.61594	0.1002323	-0.3807603	0	0	0	0
37.6325	0.1002323	-0.3807603	0	0	0	0
37.64907	0.1002323	-0.3807603	0	0	0	0
37.66563	0.1002323	-0.3807603	0	0	0	0
37.6822	0.1002323	-0.3807603	0	0	0	0
37.69901	0.1002323	-0.3807603	0	0	0	0
37.71536	0.1002323	-0.3807603	0	0	0	0
37.73257	0.1002323	-0.379538	4.327775E-07	0.07099975	1.289498E-05	2.115499
37.74847	0.1002323	-0.3636475	-4.687125E-07	0.9996625	-2.722583E-05	28.04647
37.76504	0.09656522	-0.3318666	-0.2213426	1.918301	-6.818275	28.29794
37.78187	0.08311943	-0.2450801	-0.7987157	5.15535	-17.28585	96.91331
37.79831	0.07089598	-0.1961863	-0.7436307	2.974522	1.655607	-65.54585
37.81474	0.05989488	-0.1607383	-0.6697334	2.158029	2.248605	-24.84489
37.83695	0.05011612	-0.1350691	-0.4401515	1.155398	5.941117	-25.94606
37.85352	0.0330033	-0.0837306	-1.032694	3.098082	-15.27651	50.08487
37.87009	0.03178096	-0.07761887	-0.07378072	0.368905	28.93674	-82.35725
37.88666	0.03055861	-0.07028481	-0.07378107	0.4426848	-1.034351E-05	2.226679
37.90322	0.03055861	-0.06661777	1.124554E-07	0.2213936	2.226977	-6.679351
37.91979	0.03055861	-0.06539543	0	0.07376374	-3.39391E-06	-4.455478
37.93636	0.03055861	-0.06539543	0	0	0	-2.225938
37.95293	0.03055861	-0.06539543	0	0	0	0
37.96949	0.03055861	-0.06539543	0	0	0	0
37.98606	0.03055861	-0.06539543	0	0	0	0
38.00263	0.03055861	-0.06539543	0	0	0	0
38.0192	0.03055861	-0.06539543	0	0	0	0
38.03576	0.03055861	-0.06539543	0	0	0	0
38.05258	0.03055861	-0.06539543	0	0	0	0
38.06889	0.03055861	-0.06539543	0	0	0	0
38.08546	0.03055861	-0.06539543	0	0	0	0
38.10202	0.03055861	-0.06539543	0	0	0	0
38.11859	0.03055861	-0.0617284	1.124295E-07	0.2213424	3.393519E-06	6.680896
38.13516	0.03055861	-0.06050605	-1.124295E-07	0.07378095	-6.786257E-06	-4.453413
38.15173	0.03055861	-0.05806136	0	0.1475619	3.393129E-06	2.226713
38.16829	0.03055861	-0.05561667	-1.124295E-07	0.1475619	-3.393129E-06	0
38.18486	0.03055861	-0.05561667	0	0	3.393129E-06	-4.453427
38.20143	0.03055861	-0.05561667	0	0	0	0
38.21799	0.03055861	-0.05561667	0	0	0	0
38.23456	0.03055861	-0.05561667	0	0	0	0
38.25113	0.03055861	-0.05561667	0	0	0	0
38.26807	0.03055861	-0.05561667	0	0	0	0
38.28426	0.03055861	-0.05561667	0	0	0	0
38.30083	0.03055861	-0.05561667	0	0	0	0
38.3174	0.03055861	-0.05561667	0	0	0	0
38.33397	0.03055861	-0.05561667	0	0	0	0
38.35053	0.03055861	-0.05561667	0	0	0	0
38.36723	0.03055861	-0.05561667	0	0	0	0
38.38367	0.03055861	-0.05561667	0	0	0	0
38.40025	0.03055861	-0.05561667	0	0	0	0
38.4168	0.03055861	-0.05561667	0	0	0	0
38.43337	0.03055861	-0.05561667	0	0	0	0
38.44999	0.03055861	-0.05561667	0	0	0	0
38.4665	0.03055861	-0.05561667	0	0	0	0
38.48307	0.03055861	-0.05561667	0	0	0	0
38.49963	0.03055861	-0.05561667	0	0	0	0
38.5162	0.03055861	-0.05561667	0	0	0	0
38.53277	0.03055861	-0.05561667	0	0	0	0
38.54952	0.03055861	-0.05561667	0	0	0	0
38.5665	0.03055861	-0.05561667	0	0	0	0
38.58265	0.03055861	-0.05561667	0	0	0	0
38.59926	0.03055861	-0.05561667	0	0	0	0
38.61595	0.03055861	-0.05561667	0	0	0	0
38.63262	0.03055861	-0.05561667	0	0	0	0
38.64874	0.03055861	-0.05561667	0	0	0	0
38.6655	0.03055861	-0.05561667	0	0	0	0
38.68188	0.03055861	-0.05561667	0	0	0	0
38.69861	0.03055861	-0.05561667	0	0	0	0
38.71517	0.03055861	-0.05561667	0	0	0	0
38.73158	0.02933627	-0.05561667	-0.07450132	-2.270548E-07	-2.259902	-6.887415E-06
38.74815	0.02689158	-0.05439433	-0.1475617	0.07378095	-2.215679	2.23754
38.76543	0.02689158	-0.05439433	0	0	4.359563	-2.179785
38.78146	0.02566923	-0.05317198	-0.07622031	0.07622019	-2.287691	2.287688
38.79785	0.02566923	-0.05317198	0	0	2.350947	-2.350943
38.81441	0.02566923	-0.05317198	0	0	0	0
38.8311	0.02566923	-0.05317198	0	0	0	0
38.84759	0.02566923	-0.05317198	0	0	0	0
38.86411	0.02566923	-0.05317198	0	0	0	0
38.88068	0.02566923	-0.05317198	0	0	0	0
38.89724	0.02566923	-0.05317198	0	0	0	0
38.91381	0.02566923	-0.05194964	0	0.07378072	0	2.226707
38.93038	0.02444689	-0.05194964	-0.07378083	0	-2.22671	-2.226707
38.94727	0.02444689	-0.0507273	0	0.07236465	2.205131	2.162805
38.96351	0.02444689	-0.0507273	0	0	0	-2.184221
38.98008	0.02444689	-0.0507273	0	0	0	0
38.99664	0.02444689	-0.04950495	0	0.07378072	0	2.226707
39.01321	0.02322455	-0.04828261	-0.07378083	0.07378095	-2.22671	6.745769E-06
39.02982	0.02322455	-0.04828261	0	0	2.223638	-2.223641
39.04634	0.02322455	-0.04828261	0	0	0	0
39.06291	0.02322455	-0.04828261	0	0	0	0
39.07948	0.02322455	-0.04706026	0	0.07378095	0	2.226713
39.09605	0.02322455	-0.04583792	0	0.07378072	0	-6.745769E-06
39.1129	0.02322455	-0.04583792	0	0	0	-2.207644
39.12918	0.02322455	-0.04583792	0	0	0	0
39.14575	0.02322455	-0.04461557	0	0.07378095	0	2.246108
39.16232	0.02322455	-0.04461557	0	0	0	-2.226713
39.17888	0.02322455	-0.04461557	0	0	0	0
39.19545	0.02322455	-0.04461557	0	0	0	0
39.21202	0.02322455	-0.04461557	0	0	0	0
39.22858	0.02322455	-0.04461557	0	0	0	0
39.24515	0.02322455	-0.04461557	0	0	0	0
39.26172	0.02322455	-0.04461557	0	0	0	0
39.27851	0.02322455	-0.04461557	0	0	0	0
39.29485	0.02322455	-0.04461557	0	0	0	0
39.31142	0.02322455	-0.04461557	0	0	0	0
39.32803	0.02322455	-0.04461557	0	0	0	0
39.34476	0.02322455	-0.04339323	0	0.07304095	0	2.190761
39.36112	0.02322455	-0.04339323	0	0	0	-2.207175
39.37769	0.02322455	-0.04339323	0	0	0	0
39.39425	0.02322455	-0.04339323	0	0	0	0
39.41082	0.02322455	-0.04339323	0	0	0	0
39.42739	0.02322455	-0.04339323	0	0	0	0
39.44395	0.02322455	-0.04339323	0	0	0	0
39.46061	0.02322455	-0.04339323	0	0	0	0
39.47709	0.02322455	-0.04339323	0	0	0	0
39.49366	0.02322455	-0.04339323	0	0	0	0
39.51022	0.02322455	-0.04339323	0	0	0	0
39.52679	0.02322455	-0.04339323	0	0	0	0
39.54351	0.02322455	-0.04339323	0	0	0	0
39.55992	0.02322455	-0.04339323	0	0	0	0
39.57656	0.02322455	-0.04339323	0	0	0	0
39.59375	0.02322455	-0.04339323	0	0	0	0
39.60962	0.02322455	-0.04339323	0	0	0	0
39.62642	0.02322455	-0.04339323	0	0	0	0
39.64275	0.02322455	-0.04339323	0	0	0	0
39.65932	0.02322455	-0.04339323	0	0	0	0
39.67588	0.02322455	-0.04339323	0	0	0	0
39.69245	0.02322455	-0.04339323	0	0	0	0
39.70939	0.02322455	-0.04339323	0	0	0	0
39.72559	0.02322455	-0.04339323	0	0	0	0
39.74215	0.02322455	-0.04339323	0	0	0	0
39.75872	0.02322455	-0.04339323	0	0	0	0
39.78112	0.02322455	-0.04339323	0	0	0	0
39.79777	0.02322455	-0.04339323	0	0	0	0
39.81443	0.02322455	-0.04339323	0	0	0	0
39.83082	0.02322455	-0.04339323	0	0	0	0
39.84739	0.02322455	-0.04339323	0	0	0	0
39.86396	0.02322455	-0.04339323	0	0	0	0
39.88052	0.02322455	-0.04339323	0	0	0	0
39.89709	0.02322455	-0.04339323	0	0	0	0
39.91375	0.02322455	-0.04339323	0	0	0	0
39.93023	0.02322455	-0.04339323	0	0	0	0
39.94679	0.02322455	-0.04339323	0	0	0	0
39.96336	0.02322455	-0.04339323	0	0	0	0
39.97993	0.02322455	-0.04339323	0	0	0	0
39.99649	0.02322455	-0.04339323	0	0	0	0
40.01329	0.02322455	-0.04339323	0	0	0	0
40.03032	0.02322455	-0.04339323	0	0	0	0
40.04619	0.02322455	-0.04339323	0	0	0	0
40.06276	0.02322455	-0.04339323	0	0	0	0
40.07934	0.02322455	-0.04339323	0	0	0	0
40.09589	0.02322455	-0.04339323	0	0	0	0
40.11246	0.02322455	-0.04339323	0	0	0	0
40.12902	0.02322455	-0.04339323	0	0	0	0
40.14559	0.02322455	-0.04339323	0	0	0	0
40.16216	0.02322455	-0.04339323	0	0	0	0
40.17891	0.02322455	-0.04339323	0	0	0	0
40.19541	0.02322455	-0.04339323	0	0	0	0
40.21192	0.02322455	-0.04339323	0	0	0	0
40.22844	0.02322455	-0.04339323	0	0	0	0
40.24499	0.02322455	-0.04339323	0	0	0	0
40.26156	0.02322455	-0.04339323	0	0	0	0
40.27813	0.02322455	-0.04339323	0	0	0	0
40.29499	0.02322455	-0.04339323	0	0	0	0
40.31126	0.02322455	-0.04339323	0	0	0	0
40.32783	0.02322455	-0.04339323	0	0	0	0
40.34439	0.02322455	-0.04339323	0	0	0	0
40.36132	0.02322455	-0.04339323	0	0	0	0
40.37761	0.02322455	-0.04339323	0	0	0	0
40.3941	0.02322455	-0.04339323	0	0	0	0
40.41068	0.02322455	-0.04339323	0	0	0	0
40.42723	0.02322455	-0.04339323	0	0	0	0
40.44564	0.02322455	-0.04339323	0	0	0	0
40.46221	0.02322455	-0.04339323	0	0	0	0
40.47878	0.02322455	-0.04339323	0	0	0	0
40.49535	0.02322455	-0.04339323	0	0	0	0
40.51191	0.02322455	-0.04339323	0	0	0	0
40.52848	0.02322455	-0.04339323	0	0	0	0
40.54516	0.02322455	-0.04339323	0	0	0	0
40.56161	0.02322455	-0.04339323	0	0	0	0
40.57818	0.02322455	-0.04339323	0	0	0	0
40.59475	0.02322455	-0.04339323	0	0	0	0
40.61132	0.02322455	-0.04339323	0	0	0	0
40.62815	0.02322455	-0.04339323	0	0	0	0
40.64445	0.02322455	-0.04339323	0	0	0	0
40.66151	0.02322455	-0.04339323	0	0	0	0
40.67806	0.02322455	-0.04339323	0	0	0	0
40.69415	0.02322455	-0.04339323	0	0	0	0
40.71072	0.02322455	-0.04339323	0	0	0	0
40.72729	0.02322455	-0.04339323	0	0	0	0
40.74385	0.02322455	-0.04339323	0	0	0	0
40.76117	0.02322455	-0.04339323	0	0	0	0
40.77699	0.02322455	-0.04339323	0	0	0	0
40.79359	0.02322455	-0.04339323	0	0	0	0
40.81012	0.02322455	-0.04339323	0	0	0	0
40.82669	0.02322455	-0.04339323	0	0	0	0
40.84326	0.02322455	-0.04339323	0	0	0	0
40.85983	0.02322455	-0.04339323	0	0	0	0
40.87663	0.02322455	-0.04339323	0	0	0	0
40.89296	0.02322455	-0.04339323	0	0	0	0
40.90952	0.02322455	-0.04339323	0	0	0	0
40.92611	0.02322455	-0.04339323	0	0	0	0
40.94266	0.02322455	-0.04339323	0	0	0	0
40.95922	0.02322455	-0.04339323	0	0	0	0
40.97579	0.02322455	-0.04339323	0	0	0	0
40.99236	0.02322455	-0.04339323	0	0	0	0
41.00896	0.02322455	-0.04339323	0	0	0	0
41.02573	0.02322455	-0.04339323	0	0	0	0
41.04221	0.02322455	-0.04339323	0	0	0	0
41.05863	0.02322455	-0.04339323	0	0	0	0
41.0752	0.02322455	-0.04339323	0	0	0	0
41.09234	0.02322455	-0.04339323	0	0	0	0
41.11429	0.02322455	-0.04339323	0	0	0	0
41.13087	0.02322455	-0.04339323	0	0	0	0
41.1475	0.02322455	-0.04339323	0	0	0	0
41.16399	0.02322455	-0.04339323	0	0	0	0
41.18056	0.02322455	-0.04339323	0	0	0	0
41.19761	0.02322455	-0.04339323	0	0	0	0
41.21369	0.02322455	-0.04339323	0	0	0	0
41.23026	0.02322455	-0.04339323	0	0	0	0
41.24682	0.02322455	-0.04339323	0	0	0	0
41.26345	0.02322455	-0.04339323	0	0	0	0
41.27996	0.02322455	-0.04339323	0	0	0	0
41.29652	0.02322455	-0.04339323	0	0	0	0
41.31309	0.02322455	-0.04339323	0	0	0	0
41.33005	0.02322455	-0.04339323	0	0	0	0
41.34622	0.02322455	-0.04339323	0	0	0	0
41.36279	0.02322455	-0.04339323	0	0	0	0
41.37935	0.02322455	-0.04339323	0	0	0	0
41.3962	0.02322455	-0.04339323	0	0	0	0
41.41248	0.02322455	-0.04339323	0	0	0	0
41.42905	0.02322455	-0.04339323	0	0	0	0
41.44591	0.01711282	-0.0397262	-0.3624777	0.2174864	-10.84347	6.506078
41.46219	-0.01344579	-0.02139103	-1.877374	1.126425	-45.71441	27.42866
41.47876	-0.07700771	0.009167584	-3.836605	1.844522	-59.65164	21.8635
41.49561	-0.1870187	0.05194964	-6.527552	2.538493	-80.51768	20.7648
41.51189	-0.2322455	0.06417308	-2.778515	0.7509493	113.1592	-53.95438
41.52845	-0.2444689	0.06661777	-0.7378082	0.1475619	62.13228	-18.37101
41.54502	-0.2542476	0.06906246	-0.5902458	0.1475614	4.453442	-1.349154E-05
41.56159	-0.2542476	0.06906246	0	0	17.81365	-4.453413
41.57816	-0.2542476	0.06906246	0	0	0	0
41.59472	-0.2542476	0.06906246	0	0	0	0
41.61129	-0.2542476	0.06539543	0	-0.2213422	0	-6.68012
41.62786	-0.2408019	0.03850385	0.811402	-1.622805	24.48534	-42.29137
41.64442	-0.2114656	-0.003055861	1.771148	-2.509127	28.96519	-26.74924
41.66125	-0.180907	-0.03605916	1.816498	-1.961818	1.358357	16.39325
41.67782	-0.1479037	-0.0727295	1.991625	-2.212916	5.244263	-7.519291
41.69413	-0.110011	-0.1106222	2.322501	-2.322502	10.06115	-3.332234
41.71076	-0.07089598	-0.1509596	2.352861	-2.426388	0.9216995	-3.153814
41.72726	-0.04155971	-0.1851852	1.77811	-2.074462	-17.35202	10.62483
41.74406	-0.01711282	-0.2157438	1.455178	-1.818973	-9.69809	7.672675
41.76039	-0.003667034	-0.2316343	0.8231511	-0.9728141	-19.07463	25.53713
41.78199	0.007334067	-0.2438577	0.5094281	-0.5660316	-8.271205	10.72469
41.79856	0.02444689	-0.2536365	1.032694	-0.5901108	13.71025	-0.630908
41.81527	0.02444689	-0.2536365	0	0	-31.03102	17.73201
41.83169	0.02811393	-0.2536365	0.2232448	0	6.737541	0
41.84826	0.0330033	-0.2524141	0.2951235	0.07378072	2.178583	2.236232
41.86483	0.03667033	-0.2487471	0.2213424	0.2213422	-2.226717	4.453413
41.88159	0.04278206	-0.2438577	0.3646225	0.2916984	4.298962	2.11096
41.89796	0.05133847	-0.2328566	0.5227247	0.6720744	4.772082	11.48109
41.9146	0.06233957	-0.2120768	0.660984	1.248525	4.188103	17.46166
41.93128	0.07089598	-0.1876299	0.5129226	1.465495	-4.442925	6.510678
41.94766	0.07578535	-0.1778511	0.2985606	0.5971203	-6.484389	-26.26808
41.96423	0.07578535	-0.1778511	0	0	-9.062746	-18.12546
41.98079	0.07578535	-0.1778511	0	0	0	0
41.99762	0.07211832	-0.198631	-0.2179798	-1.235218	-6.528287	-36.99361
42.01393	0.06722895	-0.234079	-0.2997471	-2.173171	-2.467743	-28.30748
42.03049	0.0660066	-0.2670823	-0.07378118	-1.992083	6.872679	5.507734
42.04706	0.06478426	-0.3061973	-0.07378072	-2.360987	1.37164E-05	-11.13353
42.06363	0.06478426	-0.3343112	0	-1.69696	2.226707	20.04036
42.0802	0.06356192	-0.3648698	-0.07378072	-1.84452	-2.226707	-4.453362
42.09676	0.06356192	-0.3697592	0	-0.2951945	2.226963	46.76412
42.11333	0.06356192	-0.3709815	0	-0.07377893	0	6.683104
42.12989	0.06356192	-0.3709815	0	0	0	2.226909
42.14697	0.06356192	-0.3709815	0	0	0	0
42.16303	0.06356192	-0.3709815	0	0	0	0
42.1796	0.06356192	-0.3709815	0	0	0	0
42.19616	0.06356192	-0.3709815	0	0	0	0
42.21273	0.06722894	-0.3575357	0.2213422	0.8115898	6.68012	24.49383
42.2293	0.09045349	-0.2915291	1.401514	3.983249	35.61355	95.70985
42.24593	0.1222345	-0.1570713	1.911262	8.086103	15.35417	123.5825
42.26243	0.1552377	-0.0006111723	2.000373	9.483255	2.690015	42.17584
42.279	0.184574	0.1057328	1.770741	6.418935	-6.94471	-92.67341
42.29559	0.2065762	0.1582936	1.325919	3.167472	-13.41395	-98.05035
42.31213	0.2212443	0.1912969	0.886798	1.995298	-13.25269	-35.37626
42.32901	0.2322455	0.2120768	0.6515768	1.230754	-7.037415	-22.87386
42.34542	0.2359125	0.2194108	0.2235556	0.4471121	-12.85849	-23.54194
42.36183	0.2371348	0.2206332	0.07446749	0.07446749	-4.542898	-11.35494
42.37853	0.2371348	0.2218555	0	0.07319088	-2.248728	-0.0385502
42.39497	0.2371348	0.2218555	0	0	0	-2.208905
42.41217	0.2371348	0.2218555	0	0	0	0
42.4295	0.2371348	0.2218555	0	0	0	0
42.44531	0.2371348	0.2218555	0	0	0	0
42.46188	0.2371348	0.2218555	0	0	0	0
42.47882	0.2371348	0.2218555	0	0	0	0
42.49501	0.2371348	0.2218555	0	0	0	0
42.51178	0.2371348	0.2218555	0	0	0	0
42.52883	0.2371348	0.2218555	0	0	0	0
42.54472	0.2371348	0.2218555	0	0	0	0
42.56128	0.2371348	0.2218555	0	0	0	0
42.57785	0.2371348	0.2206332	0	-0.07378072	0	-2.226707
42.59489	0.223689	0.2096321	-0.7890616	-0.6455963	-23.47875	-17.01453
42.61098	0.2029092	0.1900746	-1.291443	-1.215476	-15.16366	-17.20099
42.62819	0.1711282	0.1644053	-1.84686	-1.491696	-16.67994	-8.295252
42.64412	0.1234568	0.1216233	-2.992525	-2.685598	-34.57225	-36.02789
42.66075	0.03667033	0.04461557	-5.218016	-4.630071	-68.34571	-59.71556
42.67725	0.001222344	0.01527931	-2.14855	-1.77811	92.64733	86.08226
42.69382	-0.01466813	-0.001833517	-0.9591511	-1.032932	35.97067	22.53623
42.71038	-0.01833517	-0.006722894	-0.2213426	-0.2951234	22.2671	22.2671
42.72695	-0.01955751	-0.00794524	-0.07379783	-0.07379789	4.453424	6.680387
42.74352	-0.01955751	-0.009167584	0	-0.07378083	2.227479	0.0005147614
42.76008	-0.02077986	-0.009167584	-0.07378095	0	-2.226713	2.22671
42.77665	-0.02077986	-0.009167584	0	0	2.226713	0
42.79322	-0.02077986	-0.009167584	0	0	0	0
42.81041	-0.02077986	-0.009167584	0	0	0	0
42.82635	-0.02077986	-0.009167584	0	0	0	0
42.84328	-0.02077986	-0.009167584	0	0	0	0
42.85949	-0.02077986	-0.009167584	0	0	0	0
42.87626	-0.02077986	-0.009167584	0	0	0	0
42.89262	-0.01955751	-0.01038993	0.07467494	-0.074675	2.253694	-2.253696
42.90919	-0.01955751	-0.01038993	0	0	-2.267267	2.267269
42.92576	-0.01833517	-0.01161227	0.07376397	-0.0737638	2.225945	-2.22594
42.94233	-0.01711282	-0.01161227	0.07379783	-5.622769E-08	0.001021984	2.226194
42.95889	-0.01344579	-0.01283462	0.2213937	-0.07379783	4.455477	-2.227734
42.97564	-0.006111722	-0.01283462	0.4378459	0	6.497384	2.215236
42.99202	-0.002444689	-0.009167584	0.2238163	0.2238162	-6.459427	6.754788
43.00859	0.008556412	-0.001833517	0.6640278	0.4426852	13.35944	6.642182
43.02516	0.008556412	-0.001833517	0	0	-20.0404	-13.36026
43.04173	0.008556412	-0.001833517	0	0	0	0
43.05829	0.008556412	-0.001833517	0	0	0	0
43.08036	0.008556412	-0.001833517	0	0	0	0
43.09693	0.008556412	-0.001833517	0	0	0	0
43.11363	0.008556412	-0.001833517	0	0	0	0
43.13026	0.008556412	-0.001833517	0	0	0	0
43.14663	0.008556412	-0.001833517	0	0	0	0
43.16331	0.008556412	-0.001833517	0	0	0	0
43.17977	0.008556412	-0.001833517	0	0	0	0
43.19636	0.008556412	-0.001833517	0	0	0	0
43.2129	0.008556412	-0.001833517	0	0	0	0
43.2297	0.008556412	-0.001833517	0	0	0	0
43.24603	0.008556412	-0.001833517	0	0	0	0
43.2626	0.008556412	-0.001833517	0	0	0	0
43.27945	0.008556412	-0.001833517	0	0	0	0
43.29573	0.003667033	0.003055861	-0.3003096	0.3003095	-9.063361	9.06336
43.3123	0.002444689	0.004278206	-0.07378085	0.07378086	6.896196	-6.896195
43.32916	0.001222344	0.004278206	-0.07251194	0	0.03796356	-2.207397
43.34544	0.001222344	0.004278206	0	0	2.188415	0
43.362	0.001222344	0.004278206	0	0	0	0
43.37902	0.001222344	0.004278206	0	0	0	0
43.39514	0.001222344	0.004278206	0	0	0	0
43.41188	0.001222344	0.004278206	0	0	0	0
43.42838	0.001222344	0.004278206	0	0	0	0
43.44484	0.001222344	0.004278206	0	0	0	0
43.4614	0.001222344	0.004278206	0	0	0	0
43.47797	0.001222344	0.004278206	0	0	0	0
43.49493	0.001222344	0.004278206	0	0	0	0
43.54831	0.001222344	0.004278206	0	0	0	0
43.56495	0.001222344	0.004278206	0	0	0	0
43.58148	0.001222344	0.004278206	0	0	0	0
43.59801	0.001222344	0.004278206	0	0	0	0
43.61458	0.001222344	0.004278206	0	0	0	0
43.63115	0.001222344	0.004278206	0	0	0	0
43.64842	0.001222344	0.004278206	0	0	0	0
43.66442	0.001222344	0.004278206	0	0	0	0
43.68085	0.002444689	0.009167584	0.07436302	0.2974521	2.292582	9.170326
43.69742	0.003667034	0.01527931	0.07379786	0.3689893	-0.01712568	2.167731
43.71399	0.003667034	0.01650165	0	0.07378095	-2.22748	-8.91043
43.73055	0.003667034	0.01650165	0	0	0	-2.226713
43.74712	0.003667034	0.01650165	0	0	0	0
43.767	0.003667034	0.01650165	0	0	0	0
43.78357	0.003667034	0.01650165	0	0	0	0
43.80014	0.003667034	0.01650165	0	0	0	0
