Time	Pos X	Pos Y	Vel X	Vel Y	Acc X	Acc Y
0.01656671	0.0220022	0.02261337	-0.0003371126	-0.0003464769	5.166472E-06	5.309985E-06
0.04753925	0.0220022	0.02261337	0	0	-5.167613E-06	-5.311158E-06
0.06410794	0.0220022	0.02261337	0	0	0	0
0.08067347	0.0220022	0.02261337	0	0	0	0
0.09724216	0.0220022	0.02261337	0	0	0	0
0.1138097	0.0220022	0.02261337	0	0	0	0
0.1303764	0.0220022	0.02261337	0	0	0	0
0.1469506	0.0220022	0.02261337	0	0	0	0
0.1636476	0.0220022	0.02261337	0	0	0	0
0.1800765	0.0220022	0.02261337	0	0	0	0
0.1966429	0.0220022	0.02261337	0	0	0	0
0.2132096	0.0220022	0.02261337	0	0	0	0
0.2297763	0.0220022	0.02261337	0	0	0	0
0.246343	0.0220022	0.02261337	0	0	0	0
0.2629093	0.0220022	0.02261337	0	0	0	0
0.2794764	0.0220022	0.02261337	0	0	0	0
0.2976861	0.0220022	0.02261337	0	0	0	0
0.314254	0.0220022	0.02261337	0	0	0	0
0.3310654	0.0220022	0.02261337	0	0	0	0
0.3473894	0.0220022	0.02261337	0	0	0	0
0.3639565	0.0220022	0.02261337	0	0	0	0
0.3806353	0.0220022	0.02261337	0	0	0	0
0.3970903	0.0220022	0.02261337	0	0	0	0
0.4138027	0.0220022	0.02261337	0	0	0	0
0.4302253	0.0220022	0.02261337	0	0	0	0
0.4469866	0.0220022	0.02261337	0	0	0	0
0.4633595	0.0220022	0.02261337	0	0	0	0
0.4803849	0.0220022	0.02261337	0	0	0	0
0.4964918	0.0220022	0.02261337	0	0	0	0
0.5130581	0.0220022	0.02261337	0	0	0	0
0.5296252	0.0220022	0.02261337	0	0	0	0
0.5461923	0.0220022	0.02261337	0	0	0	0
0.5628818	0.0220022	0.02261337	0	0	0	0
0.5794039	0.0220022	0.02261337	0	0	0	0
0.5958912	0.0220022	0.02261337	0	0	0	0
0.6124552	0.0220022	0.02261337	0	0	0	0
0.6290215	0.0220022	0.02261337	0	0	0	0
0.6455891	0.0220022	0.02261337	0	0	0	0
0.6621554	0.0220022	0.02261337	0	0	0	0
0.6787229	0.0220022	0.02261337	0	0	0	0
0.6953457	0.0220022	0.02261337	0	0	0	0
0.7120999	0.0220022	0.02261337	0	0	0	0
0.7289299	0.0220022	0.02261337	0	0	0	0
0.7450281	0.0220022	0.02261337	0	0	0	0
0.7615589	0.0220022	0.02261337	0	0	0	0
0.7781256	0.0220022	0.02261337	0	0	0	0
0.795046	0.0220022	0.02261337	0	0	0	0
0.8112586	0.0220022	0.02261337	0	0	0	0
0.8280641	0.0220022	0.02261337	0	0	0	0
0.8446277	0.0220022	0.02261337	0	0	0	0
0.8609579	0.0220022	0.02261337	0	0	0	0
0.8778558	0.0220022	0.02261337	0	0	0	0
0.8940921	0.0220022	0.02261337	0	0	0	0
0.9106585	0.0220022	0.02261337	0	0	0	0
0.9272252	0.0220022	0.02261337	0	0	0	0
0.9437927	0.0220022	0.02261337	0	0	0	0
0.9603586	0.0220022	0.02261337	0	0	0	0
0.9841509	0.0220022	0.02261337	0	0	0	0
1.001305	0.0220022	0.02261337	0	0	0	0
1.01729	0.0220022	0.02261337	0	0	0	0
1.033857	0.0220022	0.02261337	0	0	0	0
1.050423	0.0220022	0.02261337	0	0	0	0
1.06699	0.0220022	0.02261337	0	0	0	0
1.083559	0.0220022	0.02261337	0	0	0	0
1.101139	0.0220022	0.02261337	0	0	0	0
1.116691	0.0220022	0.02261337	0	0	0	0
1.133257	0.0220022	0.02261337	0	0	0	0
1.149823	0.0220022	0.02261337	0	0	0	0
1.16639	0.0220022	0.02261337	0	0	0	0
1.182957	0.0220022	0.02261337	0	0	0	0
1.199524	0.0220022	0.02261337	0	0	0	0
1.216191	0.0220022	0.02261337	0	0	0	0
1.232657	0.0220022	0.02261337	0	0	0	0
1.249226	0.0220022	0.02261337	0	0	0	0
1.26579	0.0220022	0.02261337	0	0	0	0
1.282354	0.0220022	0.02261337	0	0	0	0
1.298924	0.0220022	0.02261337	0	0	0	0
1.315488	0.0220022	0.02261337	0	0	0	0
1.332055	0.0220022	0.02261337	0	0	0	0
1.348621	0.0220022	0.02261337	0	0	0	0
1.365191	0.0220022	0.02261337	0	0	0	0
1.381949	0.0220022	0.02261337	0	0	0	0
1.39832	0.0220022	0.02261337	0	0	0	0
1.414972	0.0220022	0.02261337	0	0	0	0
1.431457	0.0220022	0.02261337	0	0	0	0
1.448023	0.0220022	0.02261337	0	0	0	0
1.464932	0.0220022	0.02261337	0	0	0	0
1.481484	0.0220022	0.02261337	0	0	0	0
1.497721	0.0220022	0.02261337	0	0	0	0
1.514327	0.0220022	0.02261337	0	0	0	0
1.531791	0.0220022	0.02261337	0	0	0	0
1.547421	0.0220022	0.02261337	0	0	0	0
1.563988	0.0220022	0.02261337	0	0	0	0
1.580554	0.0220022	0.02261337	0	0	0	0
1.597586	0.0220022	0.02261337	0	0	0	0
1.613691	0.0220022	0.02261337	0	0	0	0
1.630256	0.0220022	0.02261337	0	0	0	0
1.646822	0.0220022	0.02261337	0	0	0	0
1.663385	0.0220022	0.02261337	0	0	0	0
1.680787	0.0220022	0.02261337	0	0	0	0
1.696522	0.0220022	0.02261337	0	0	0	0
1.713088	0.0220022	0.02261337	0	0	0	0
1.729855	0.0220022	0.02261337	0	0	0	0
1.746222	0.0220022	0.02261337	0	0	0	0
1.762789	0.0220022	0.02261337	0	0	0	0
1.779356	0.0220022	0.02261337	0	0	0	0
1.795923	0.0220022	0.02261337	0	0	0	0
1.812489	0.0220022	0.02261337	0	0	0	0
1.829055	0.0220022	0.02261337	0	0	0	0
1.845758	0.0220022	0.02261337	0	0	0	0
1.862543	0.0220022	0.02261337	0	0	0	0
1.878759	0.0220022	0.02261337	0	0	0	0
1.895571	0.0220022	0.02261337	0	0	0	0
1.911892	0.0220022	0.02261337	0	0	0	0
1.928459	0.0220022	0.02261337	0	0	0	0
1.945026	0.0220022	0.02261337	0	0	0	0
1.961589	0.0220022	0.02261337	0	0	0	0
1.978156	0.0220022	0.02261337	0	0	0	0
1.994767	0.0220022	0.02261337	0	0	0	0
2.01135	0.0220022	0.02261337	0	0	0	0
2.027884	0.0220022	0.02261337	0	0	0	0
2.04451	0.0220022	0.02261337	0	0	0	0
2.060988	0.0220022	0.02261337	0	0	0	0
2.077554	0.0220022	0.02261337	0	0	0	0
2.094122	0.0220022	0.02261337	0	0	0	0
2.110689	0.0220022	0.02261337	0	0	0	0
2.127256	0.0220022	0.02261337	0	0	0	0
2.143823	0.0220022	0.02261337	0	0	0	0
2.160389	0.0220022	0.02261337	0	0	0	0
2.176956	0.0220022	0.02261337	0	0	0	0
2.193523	0.0220022	0.02261337	0	0	0	0
2.210089	0.0220022	0.02261337	0	0	0	0
2.226655	0.0220022	0.02261337	0	0	0	0
2.243222	0.0220022	0.02261337	0	0	0	0
2.259788	0.0220022	0.02261337	0	0	0	0
2.276354	0.0220022	0.02261337	0	0	0	0
2.292921	0.0220022	0.02261337	0	0	0	0
2.309488	0.0220022	0.02261337	0	0	0	0
2.326052	0.0220022	0.02261337	0	0	0	0
2.342818	0.0220022	0.02261337	0	0	0	0
2.35957	0.0220022	0.02261337	0	0	0	0
2.375754	0.0220022	0.02261337	0	0	0	0
2.392493	0.0220022	0.02261337	0	0	0	0
2.40889	0.0220022	0.02261337	0	0	0	0
2.425455	0.0220022	0.02261337	0	0	0	0
2.442024	0.0220022	0.02261337	0	0	0	0
2.458588	0.0220022	0.02261337	0	0	0	0
2.475474	0.0220022	0.02261337	0	0	0	0
2.491723	0.0220022	0.02261337	0	0	0	0
2.508289	0.0220022	0.02261337	0	0	0	0
2.525388	0.0220022	0.02261337	0	0	0	0
2.541423	0.0220022	0.02261337	0	0	0	0
2.558195	0.0220022	0.02261337	0	0	0	0
2.574556	0.0220022	0.02261337	0	0	0	0
2.591611	0.0220022	0.02261337	0	0	0	0
2.607689	0.0220022	0.02261337	0	0	0	0
2.624558	0.0220022	0.02261337	0	0	0	0
2.640822	0.0220022	0.02261337	0	0	0	0
2.657388	0.0220022	0.02261337	0	0	0	0
2.674414	0.0220022	0.02261337	0	0	0	0
2.690529	0.0220022	0.02261337	0	0	0	0
2.707088	0.0220022	0.02261337	0	0	0	0
2.723655	0.0220022	0.02261337	0	0	0	0
2.74042	0.0220022	0.02261337	0	0	0	0
2.75698	0.0220022	0.02261337	0	0	0	0
2.773353	0.0220022	0.02261337	0	0	0	0
2.789921	0.0220022	0.02261337	0	0	0	0
2.806559	0.0220022	0.02261337	0	0	0	0
2.823054	0.0220022	0.02261337	0	0	0	0
2.839902	0.0220022	0.02139103	0	-0.0725541	0	-2.176018
2.856758	0.02566923	0.01650165	0.217545	-0.2900601	6.454612	-6.453455
2.872843	0.03178095	0.009167583	0.3799774	-0.455973	4.93103	-5.03669
2.889323	0.03789268	0.001833517	0.3708525	-0.4450227	-0.2802081	0.3362652
2.905888	0.0440044	-0.003055861	0.3689415	-0.2951532	-0.05783022	4.53521
2.922456	0.04767143	-0.006722894	0.2213392	-0.2213394	-4.454837	2.227801
2.939023	0.05378316	-0.01038993	0.3689151	-0.221349	4.453882	-0.0002900702
2.955588	0.05867254	-0.01283462	0.2951531	-0.1475765	-2.226288	2.226601
2.972156	0.06356192	-0.01527931	0.2951193	-0.1475596	-0.001019105	0.0005109016
2.992958	0.07334067	-0.01650165	0.4700867	-0.05876083	4.682091	2.376237
3.009527	0.106344	-0.02139103	1.991854	-0.2950895	40.72038	-6.323824
3.026484	0.106344	-0.02139103	0	0	-59.4119	8.801763
3.043144	0.1344579	-0.02016868	1.687488	0.07336906	50.19707	2.182482
3.059226	0.1650165	-0.017724	1.900142	0.1520112	6.494746	2.401838
3.075793	0.1980198	-0.01527931	1.992111	0.1475639	2.81687	-0.1362165
3.092774	0.2579147	-0.01038993	3.527294	0.2879423	45.7616	4.184482
3.108932	0.2933627	-0.00794524	2.193756	0.1512935	-40.24074	-4.123507
3.125495	0.3239213	-0.006722895	1.844973	0.07379892	-10.65905	-2.368289
3.14213	0.3471459	-0.006722895	1.396191	0	-13.51858	-2.223033
3.15863	0.3605916	-0.006722894	0.8148715	2.822109E-08	-17.54414	8.51708E-07
3.175194	0.3679257	-0.006722895	0.4427754	-2.811304E-08	-11.25369	-1.703772E-06
3.191762	0.3703704	-0.006722895	0.1475551	0	-8.910471	8.485202E-07
3.208328	0.3703704	-0.006722895	0	0	-4.453253	0
3.224894	0.3703704	-0.006722895	0	0	0	0
3.241462	0.3703704	-0.006722895	0	0	0	0
3.25835	0.3703704	-0.006722895	0	0	0	0
3.274846	0.3703704	-0.006722895	0	0	0	0
3.291161	0.3703704	-0.006722895	0	0	0	0
3.30822	0.3703704	-0.006722895	0	0	0	0
3.324294	0.3703704	-0.006722895	0	0	0	0
3.341332	0.3703704	-0.006722895	0	0	0	0
3.357427	0.3703704	-0.006722895	0	0	0	0
3.374138	0.3703704	-0.006722895	0	0	0	0
3.390561	0.3703704	-0.006722895	0	0	0	0
3.407129	0.3703704	-0.006722895	0	0	0	0
3.42391	0.3703704	-0.006722895	0	0	0	0
3.440574	0.3703704	-0.006722895	0	0	0	0
3.456828	0.3703704	-0.006722895	0	0	0	0
3.473396	0.3703704	-0.006722895	0	0	0	0
3.490462	0.3630363	-0.01038993	-0.4297362	-0.2148676	-12.77668	-6.388325
3.506529	0.3508129	-0.01161227	-0.7607768	-0.0760778	-9.991115	4.188806
3.523095	0.3373671	-0.01283462	-0.8116716	-0.07378827	-1.559629	0.07016072
3.539661	0.3153649	-0.01527931	-1.328133	-0.1475702	-15.58807	-2.22692
3.556228	0.2896957	-0.01527931	-1.549442	5.621636E-08	-6.679391	4.453872
3.572796	0.2628041	-0.01527931	-1.623109	0	-2.223285	-1.696601E-06
3.589361	0.220022	-0.01405696	-2.582701	0.07379146	-28.962	2.227143
3.605929	0.1894634	-0.01161227	-1.844362	0.1475489	22.28378	2.226069
3.622892	0.1637942	-0.009167584	-1.51327	0.1441209	9.874066	-0.1022333
3.642926	0.1442367	-0.006722895	-0.976247	0.1220309	14.51566	-0.5970898
3.659498	0.1149004	-0.001833517	-1.770206	0.2950343	-21.68955	4.726146
3.676063	0.1149004	-0.001833517	0	0	53.41954	-8.903255
3.692629	0.1026769	-0.0006111722	-0.7378829	0.07378829	-22.27159	2.227159
3.709612	0.09778756	-0.0006111722	-0.2878937	0	13.41296	-2.199429
3.725764	0.09412052	-0.0006111723	-0.2270342	-3.603764E-09	1.836704	-1.087595E-07
3.74233	0.0904535	-0.0006111722	-0.2213645	3.513775E-09	0.1732927	2.175456E-07
3.758896	0.08800881	-0.0006111722	-0.1475661	0	2.227382	-1.060528E-07
3.776025	0.08434176	0.0006111722	-0.2140905	0.07136333	-1.974296	2.117907
3.79203	0.07823005	0.001833517	-0.3818565	0.07637134	-5.063297	0.1511454
3.808597	0.07334067	0.003055861	-0.2951276	0.07378194	2.66266	-0.07949721
3.825162	0.06722894	0.003055861	-0.3689523	-2.811101E-08	-2.228194	-2.226904
3.841739	0.05989488	0.004278205	-0.442424	0.07373735	-2.216869	2.224886
3.858412	0.05378316	0.00550055	-0.3665673	0.07331347	2.281412	-0.01274806
3.875116	0.04522675	0.006722894	-0.5122494	0.07317849	-4.364814	-0.004044456
3.891429	0.03911502	0.006722894	-0.3746353	-2.854403E-08	4.167925	-2.216362
3.907997	0.0330033	0.00794524	-0.368899	0.07377986	0.1744556	2.243828
3.924581	0.02933627	0.009167584	-0.2211135	0.07370447	4.457833	-0.002274153
3.94113	0.02933627	0.009167584	0	0	6.67346	-2.224485
3.958044	0.02811392	0.009167584	-0.07226967	0	-2.15972	0
3.974638	0.02811392	0.009167584	0	0	2.156785	0
3.99083	0.02811392	0.009167584	0	0	0	0
4.007596	0.02811392	0.009167584	0	0	0	0
4.024208	0.02811392	0.009167584	0	0	0	0
4.040631	0.02811392	0.009167584	0	0	0	0
4.057097	0.02811392	0.009167584	0	0	0	0
4.073668	0.02811392	0.009167584	0	0	0	0
4.09023	0.02811392	0.009167584	0	0	0	0
4.106957	0.02811392	0.009167584	0	0	0	0
4.124028	0.02811392	0.009167584	0	0	0	0
4.13993	0.02811392	0.009167584	0	0	0	0
4.156497	0.02811392	0.009167584	0	0	0	0
4.173236	0.02811392	0.009167584	0	0	0	0
4.189631	0.02811392	0.009167584	0	0	0	0
4.206197	0.02811392	0.009167584	0	0	0	0
4.222764	0.02811392	0.009167584	0	0	0	0
4.239331	0.02811392	0.009167584	0	0	0	0
4.255897	0.02811392	0.009167584	0	0	0	0
4.272461	0.02811392	0.009167584	0	0	0	0
4.289028	0.02811392	0.009167584	0	0	0	0
4.305634	0.02811392	0.009167584	0	0	0	0
4.322161	0.02811392	0.009167584	0	0	0	0
4.339399	0.02811392	0.009167584	0	0	0	0
4.355295	0.02811392	0.009167584	0	0	0	0
4.371861	0.02811392	0.009167584	0	0	0	0
4.388429	0.02811392	0.009167584	0	0	0	0
4.404996	0.02811392	0.009167584	0	0	0	0
4.421562	0.02811392	0.009167584	0	0	0	0
4.438128	0.02811392	0.009167584	0	0	0	0
4.454977	0.02811392	0.009167584	0	0	0	0
4.471652	0.02811392	0.009167584	0	0	0	0
4.487829	0.02811392	0.009167584	0	0	0	0
4.504397	0.02811392	0.009167584	0	0	0	0
4.520967	0.02811392	0.009167584	0	0	0	0
4.53774	0.02811392	0.009167584	0	0	0	0
4.554342	0.02811392	0.009167584	0	0	0	0
4.570665	0.02811392	0.009167584	0	0	0	0
4.587233	0.02811392	0.009167584	0	0	0	0
4.603799	0.02811392	0.009167584	0	0	0	0
4.620578	0.02811392	0.009167584	0	0	0	0
4.637288	0.02811392	0.009167584	0	0	0	0
4.653498	0.02811392	0.009167584	0	0	0	0
4.670066	0.02811392	0.009167584	0	0	0	0
4.686634	0.02811392	0.009167584	0	0	0	0
4.703199	0.02811392	0.009167584	0	0	0	0
4.719766	0.02811392	0.009167584	0	0	0	0
4.736333	0.02811392	0.009167584	0	0	0	0
4.752895	0.02811392	0.009167584	0	0	0	0
4.769931	0.02811392	0.009167584	0	0	0	0
4.786029	0.02811392	0.009167584	0	0	0	0
4.802689	0.02811392	0.009167584	0	0	0	0
4.819162	0.02811392	0.009167584	0	0	0	0
4.835729	0.02811392	0.009167584	0	0	0	0
4.852297	0.02811392	0.009167584	0	0	0	0
4.868862	0.02811392	0.009167584	0	0	0	0
4.885697	0.02811392	0.009167584	0	0	0	0
4.901996	0.02811392	0.009167584	0	0	0	0
4.918602	0.02811392	0.009167584	0	0	0	0
4.935129	0.02811392	0.009167584	0	0	0	0
4.951695	0.02811392	0.009167584	0	0	0	0
4.970342	0.02811392	0.009167584	0	0	0	0
4.986916	0.02811392	0.009167584	0	0	0	0
5.003743	0.02811392	0.009167584	0	0	0	0
5.02005	0.02811392	0.009167584	0	0	0	0
5.037083	0.02811392	0.009167584	0	0	0	0
5.053183	0.02811392	0.009167584	0	0	0	0
5.069884	0.02811392	0.009167584	0	0	0	0
5.086314	0.02811392	0.009167584	0	0	0	0
5.10288	0.02811392	0.009167584	0	0	0	0
5.119445	0.02811392	0.009167584	0	0	0	0
5.136011	0.02811392	0.009167584	0	0	0	0
5.152923	0.02811392	0.009167584	0	0	0	0
5.169145	0.02811392	0.009167584	0	0	0	0
5.185711	0.02811392	0.009167584	0	0	0	0
5.20251	0.02811392	0.009167584	0	0	0	0
5.218845	0.02811392	0.009167584	0	0	0	0
5.235715	0.02811392	0.009167584	0	0	0	0
5.251978	0.02811392	0.009167584	0	0	0	0
5.268552	0.02811392	0.009167584	0	0	0	0
5.285607	0.02811392	0.009167584	0	0	0	0
5.301677	0.02811392	0.009167584	0	0	0	0
5.318244	0.02811392	0.009167584	0	0	0	0
5.33481	0.02811392	0.009167584	0	0	0	0
5.351378	0.02811392	0.009167584	0	0	0	0
5.367946	0.02811392	0.009167584	0	0	0	0
5.384512	0.02811392	0.009167584	0	0	0	0
5.401078	0.02811392	0.009167584	0	0	0	0
5.417646	0.02811392	0.009167584	0	0	0	0
5.434213	0.02811392	0.009167584	0	0	0	0
5.450779	0.02811392	0.009167584	0	0	0	0
5.467347	0.02811392	0.009167584	0	0	0	0
5.48391	0.02811392	0.009167584	0	0	0	0
5.500599	0.02811392	0.009167584	0	0	0	0
5.517046	0.02811392	0.009167584	0	0	0	0
5.534047	0.02811392	0.009167584	0	0	0	0
5.550213	0.02811392	0.009167584	0	0	0	0
5.593109	0.02811392	0.009167584	0	0	0	0
5.60968	0.02811392	0.009167584	0	0	0	0
5.626863	0.02811392	0.009167584	0	0	0	0
5.643432	0.02811392	0.009167584	0	0	0	0
5.660001	0.02811392	0.009167584	0	0	0	0
5.676567	0.02811392	0.009167584	0	0	0	0
5.693134	0.02811392	0.009167584	0	0	0	0
5.709782	0.02811392	0.009167584	0	0	0	0
5.726317	0.02811392	0.009167584	0	0	0	0
5.784468	0.02811392	0.009167584	0	0	0	0
5.801996	0.02811392	0.009167584	0	0	0	0
5.817605	0.02811392	0.009167584	0	0	0	0
5.834533	0.02811392	0.009167584	0	0	0	0
5.850738	0.02811392	0.009167584	0	0	0	0
5.867306	0.02811392	0.009167584	0	0	0	0
5.883872	0.02811392	0.009167584	0	0	0	0
5.900438	0.02811392	0.009167584	0	0	0	0
5.917044	0.02811392	0.009167584	0	0	0	0
5.934006	0.02811392	0.009167584	0	0	0	0
5.950234	0.02811392	0.009167584	0	0	0	0
5.966705	0.02811392	0.009167584	0	0	0	0
5.983271	0.02811392	0.009167584	0	0	0	0
5.999887	0.02811392	0.009167584	0	0	0	0
6.016405	0.02811392	0.009167584	0	0	0	0
6.033041	0.02811392	0.009167584	0	0	0	0
6.049538	0.02811392	0.009167584	0	0	0	0
6.066104	0.02811392	0.009167584	0	0	0	0
6.082671	0.02811392	0.009167584	0	0	0	0
6.099252	0.02811392	0.009167584	0	0	0	0
6.116007	0.02811392	0.009167584	0	0	0	0
6.132371	0.02811392	0.009167584	0	0	0	0
6.148938	0.02811392	0.009167584	0	0	0	0
6.165732	0.02811392	0.009167584	0	0	0	0
6.182072	0.02811392	0.009167584	0	0	0	0
6.198639	0.02811392	0.009167584	0	0	0	0
6.215205	0.02811392	0.009167584	0	0	0	0
6.232263	0.02811392	0.009167584	0	0	0	0
6.248339	0.02811392	0.009167584	0	0	0	0
6.264905	0.02811392	0.009167584	0	0	0	0
6.281471	0.02811392	0.009167584	0	0	0	0
6.298167	0.02811392	0.009167584	0	0	0	0
6.314774	0.02811392	0.009167584	0	0	0	0
6.331172	0.02811392	0.009167584	0	0	0	0
6.34785	0.02811392	0.009167584	0	0	0	0
6.364305	0.02811392	0.009167584	0	0	0	0
6.381195	0.02811392	0.009167584	0	0	0	0
6.397439	0.02811392	0.009167584	0	0	0	0
6.414673	0.02811392	0.009167584	0	0	0	0
6.431351	0.02811392	0.009167584	0	0	0	0
6.447708	0.02811392	0.009167584	0	0	0	0
6.463706	0.02811392	0.009167584	0	0	0	0
6.480583	0.02811392	0.009167584	0	0	0	0
6.496839	0.02811392	0.009167584	0	0	0	0
6.513579	0.02811392	0.009167584	0	0	0	0
6.530042	0.02811392	0.009167584	0	0	0	0
6.546539	0.02811392	0.009167584	0	0	0	0
6.563106	0.02811392	0.009167584	0	0	0	0
6.579672	0.02811392	0.009167584	0	0	0	0
6.596239	0.02811392	0.009167584	0	0	0	0
6.612804	0.02811392	0.009167584	0	0	0	0
6.629371	0.02811392	0.009167584	0	0	0	0
6.645939	0.02811392	0.009167584	0	0	0	0
6.662504	0.02811392	0.009167584	0	0	0	0
6.679071	0.02811392	0.009167584	0	0	0	0
6.695638	0.02811392	0.009167584	0	0	0	0
6.712204	0.02811392	0.009167584	0	0	0	0
6.728774	0.02811392	0.009167584	0	0	0	0
6.74534	0.02811392	0.009167584	0	0	0	0
6.761907	0.02811392	0.009167584	0	0	0	0
6.778473	0.02811392	0.009167584	0	0	0	0
6.79504	0.02811392	0.009167584	0	0	0	0
6.811608	0.02811392	0.009167584	0	0	0	0
6.828175	0.02811392	0.009167584	0	0	0	0
6.845352	0.02811392	0.009167584	0	0	0	0
6.861866	0.02811392	0.009167584	0	0	0	0
6.877965	0.02811392	0.009167584	0	0	0	0
6.894519	0.02811392	0.009167584	0	0	0	0
6.91101	0.02811392	0.009167584	0	0	0	0
6.927844	0.02811392	0.009167584	0	0	0	0
6.944193	0.02811392	0.009167584	0	0	0	0
6.960982	0.02811392	0.009167584	0	0	0	0
6.977271	0.02811392	0.009167584	0	0	0	0
6.993845	0.02811392	0.009167584	0	0	0	0
7.011872	0.02811392	0.009167584	0	0	0	0
7.028856	0.02811392	0.009167584	0	0	0	0
7.045009	0.02811392	0.009167584	0	0	0	0
7.061577	0.02811392	0.009167584	0	0	0	0
7.078143	0.02811392	0.009167584	0	0	0	0
7.09471	0.02811392	0.009167584	0	0	0	0
7.111277	0.02811392	0.009167584	0	0	0	0
7.127842	0.02811392	0.009167584	0	0	0	0
7.144408	0.02811392	0.009167584	0	0	0	0
7.161415	0.02811392	0.009167584	0	0	0	0
7.177543	0.02811392	0.009167584	0	0	0	0
7.194109	0.02811392	0.009167584	0	0	0	0
7.210674	0.02811392	0.009167584	0	0	0	0
7.227286	0.02811392	0.009167584	0	0	0	0
7.243809	0.02811392	0.009167584	0	0	0	0
7.261226	0.02811392	0.009167584	0	0	0	0
7.276942	0.02811392	0.009167584	0	0	0	0
7.293509	0.02811392	0.009167584	0	0	0	0
7.310076	0.02811392	0.009167584	0	0	0	0
7.326748	0.02811392	0.009167584	0	0	0	0
7.343323	0.02811392	0.009167584	0	0	0	0
7.359778	0.02811392	0.009167584	0	0	0	0
7.376461	0.02811392	0.009167584	0	0	0	0
7.393327	0.02811392	0.009167584	0	0	0	0
7.409783	0.02811392	0.009167584	0	0	0	0
7.426426	0.02811392	0.009167584	0	0	0	0
7.442611	0.02811392	0.009167584	0	0	0	0
7.45928	0.02811392	0.009167584	0	0	0	0
7.475743	0.02811392	0.009167584	0	0	0	0
7.492636	0.02811392	0.009167584	0	0	0	0
7.508879	0.02811392	0.009167584	0	0	0	0
7.525446	0.02811392	0.009167584	0	0	0	0
7.542011	0.02811392	0.009167584	0	0	0	0
7.559502	0.02811392	0.009167584	0	0	0	0
7.575142	0.02811392	0.009167584	0	0	0	0
7.59171	0.02811392	0.009167584	0	0	0	0
7.60879	0.02811392	0.009167584	0	0	0	0
7.624842	0.02811392	0.009167584	0	0	0	0
7.641438	0.02811392	0.009167584	0	0	0	0
7.65798	0.02811392	0.009167584	0	0	0	0
7.689472	0.02811392	0.009167584	0	0	0	0
7.706044	0.02811392	0.009167584	0	0	0	0
7.722683	0.02811392	0.009167584	0	0	0	0
7.739671	0.02811392	0.009167584	0	0	0	0
7.755742	0.02811392	0.009167584	0	0	0	0
7.772309	0.02811392	0.009167584	0	0	0	0
7.789042	0.02811392	0.009167584	0	0	0	0
7.8059	0.02811392	0.009167584	0	0	0	0
7.822013	0.02811392	0.009167584	0	0	0	0
7.838578	0.02811392	0.009167584	0	0	0	0
7.855143	0.02811392	0.009167584	0	0	0	0
7.871711	0.02811392	0.009167584	0	0	0	0
7.888278	0.02811392	0.009167584	0	0	0	0
7.905384	0.02811392	0.009167584	0	0	0	0
7.92166	0.02811392	0.009167584	0	0	0	0
7.937978	0.02811392	0.009167584	0	0	0	0
7.954716	0.02811392	0.009167584	0	0	0	0
7.971111	0.02811392	0.009167584	0	0	0	0
7.987688	0.02811392	0.009167584	0	0	0	0
8.004245	0.02811392	0.009167584	0	0	0	0
8.020902	0.02811392	0.009167584	0	0	0	0
8.037599	0.02811392	0.009167584	0	0	0	0
8.053945	0.02811392	0.009167584	0	0	0	0
8.07051	0.02811392	0.009167584	0	0	0	0
8.087076	0.02811392	0.009167584	0	0	0	0
8.103793	0.02811392	0.009167584	0	0	0	0
8.120297	0.02811392	0.009167584	0	0	0	0
8.136777	0.02811392	0.009167584	0	0	0	0
8.153948	0.02811392	0.009167584	0	0	0	0
8.169911	0.02811392	0.009167584	0	0	0	0
8.186478	0.02811392	0.009167584	0	0	0	0
8.203045	0.02811392	0.009167584	0	0	0	0
8.219615	0.02811392	0.009167584	0	0	0	0
8.271349	0.02811392	0.009167584	0	0	0	0
8.287951	0.02811392	0.009167584	0	0	0	0
8.304486	0.02811392	0.009167584	0	0	0	0
8.321053	0.02811392	0.009167584	0	0	0	0
8.337619	0.02811392	0.009167584	0	0	0	0
8.354188	0.02811392	0.009167584	0	0	0	0
8.370828	0.02811392	0.009167584	0	0	0	0
8.395762	0.02811392	0.009167584	0	0	0	0
8.412335	0.02811392	0.009167584	0	0	0	0
8.4289	0.02811392	0.009167584	0	0	0	0
8.445465	0.02811392	0.009167584	0	0	0	0
8.462031	0.02811392	0.009167584	0	0	0	0
8.478598	0.02811392	0.009167584	0	0	0	0
8.49521	0.02811392	0.009167584	0	0	0	0
8.511734	0.02811392	0.009167584	0	0	0	0
8.528707	0.02811392	0.009167584	0	0	0	0
8.544928	0.03544799	-0.001833517	0.452133	-0.6781992	13.62109	-20.43163
8.561847	0.04155971	-0.01283462	0.3612311	-0.6502164	-2.74295	0.8443777
8.578485	0.05011612	-0.0262804	0.5142458	-0.8081006	4.559722	-4.70483
8.594565	0.05989488	-0.04217088	0.6081353	-0.9882197	2.869602	-5.50509
8.611483	0.07334067	-0.05683902	0.7947987	-0.8670532	5.656956	3.672034
8.627698	0.08556411	-0.07028481	0.7538205	-0.8292025	-1.236794	1.142401
8.644353	0.09778756	-0.08250824	0.7339218	-0.7339214	-0.6053707	2.898698
8.661648	0.110011	-0.09595405	0.7067665	-0.7774439	-0.7998645	-1.281964
8.677401	0.1210121	-0.1081775	0.6983584	-0.7759537	-0.2544242	0.0450917
8.69404	0.1307909	-0.1179562	0.5876762	-0.5876762	-3.416909	5.81238
8.710533	0.1369026	-0.1216233	0.3705684	-0.2223409	-6.552704	11.02647
8.727207	0.1405696	-0.124068	0.2199243	-0.1466162	-4.542003	2.283143
8.744123	0.1405696	-0.124068	0	0	-6.547253	4.364835
8.760516	0.1405696	-0.124068	0	0	0	0
8.777406	0.1405696	-0.124068	0	0	0	0
8.793365	0.1442366	-0.1228456	0.2297673	0.07658911	6.994586	2.331528
8.809932	0.1613495	-0.09595405	1.032992	1.623272	24.69485	47.55218
8.826498	0.188241	-0.03361448	1.623271	3.763041	17.81568	64.58206
8.843065	0.2371348	0.1045105	2.951236	8.337237	40.07922	138.0535
8.859632	0.2640264	0.1815182	1.623271	4.648461	-40.07922	-111.3307
8.876197	0.2811392	0.2181885	1.033051	2.213681	-17.81442	-73.48816
8.892799	0.290918	0.241413	0.5889931	1.398857	-13.3882	-24.56668
8.909331	0.2970297	0.2573035	0.369691	0.9611976	-6.618551	-13.20859
8.925898	0.298252	0.2621929	0.07378497	0.2951417	-8.94024	-20.12362
8.942466	0.298252	0.2621929	0	0	-2.226835	-8.907394
8.959048	0.298252	0.2621929	0	0	0	0
8.975596	0.298252	0.2621929	0	0	0	0
8.992163	0.298252	0.2621929	0	0	0	0
9.009157	0.2982521	0.2609706	1.753648E-06	-0.07192586	5.225293E-05	-2.143154
9.025733	0.2982521	0.2597482	0	-0.07374432	-5.223808E-05	-0.05416883
9.041879	0.2982521	0.2585259	0	-0.07570511	0	-0.05992361
9.058432	0.2982521	0.2585259	0	0	0	2.315238
9.074998	0.2982521	0.2585259	0	0	0	0
9.091563	0.2982521	0.2585259	0	0	0	0
9.108219	0.2982521	0.2585259	0	0	0	0
9.1247	0.2982521	0.2585259	0	0	0	0
9.141266	0.2982521	0.2585259	0	0	0	0
9.157832	0.2982521	0.2585259	0	0	0	0
9.17474	0.2982521	0.2585259	0	0	0	0
9.190965	0.2982521	0.2585259	0	0	0	0
9.207941	0.2982521	0.2585259	0	0	0	0
9.224236	0.2982521	0.2585259	0	0	0	0
9.240697	0.2982521	0.2585259	0	0	0	0
9.257233	0.2982521	0.2585259	0	0	0	0
9.273798	0.2982521	0.2585259	0	0	0	0
9.290363	0.2982521	0.2585259	0	0	0	0
9.307067	0.2982521	0.2585259	0	0	0	0
9.323498	0.298252	0.2573035	-1.813802E-06	-0.07439492	-5.474066E-05	-2.245243
9.340069	0.298252	0.2573035	0	0	5.496054E-05	2.254262
9.356632	0.298252	0.2560812	0	-0.07379772	0	-2.22722
9.373199	0.2970297	0.2560812	-0.07378072	1.798872E-06	-2.226963	2.22753
9.389771	0.2970297	0.2548588	1.798458E-06	-0.07376554	2.226505	-2.226046
9.406333	0.2970297	0.2548588	0	0	-5.427912E-05	2.226312
9.422969	0.2958074	0.2548588	-0.07347798	0	-2.213302	0
9.439569	0.2958074	0.2536365	0	-0.07363661	2.210825	-2.215598
9.456031	0.294585	0.2536365	-0.07425088	0	-2.245809	2.227229
9.472597	0.2921403	0.2524141	-0.1475699	-0.07378497	-2.219866	-2.233972
9.489164	0.2884733	0.2524141	-0.221344	-1.798872E-06	-2.226569	2.226845
9.505732	0.2811392	0.2511918	-0.4426844	-0.07377893	-6.680066	-2.226598
9.522298	0.2738052	0.2511918	-0.4427098	0	-0.0007690398	2.226717
9.538865	0.2652488	0.2511918	-0.5164651	0	-2.226002	0
9.555431	0.2566923	0.2511918	-0.5164984	0	-0.001005598	0
9.572098	0.251803	0.2511918	-0.2933666	0	6.714226	0
9.588721	0.2432466	0.2511918	-0.5147161	0	-6.649146	0
9.605206	0.2371348	0.2548588	-0.3707613	0.2224562	4.348068	6.719158
9.621718	0.2285784	0.2597482	-0.518168	0.2960944	-4.467257	2.231654
9.638283	0.2187997	0.2634152	-0.5903487	0.2213822	-2.182186	-2.25872
9.654833	0.2114656	0.2658599	-0.4431426	0.1477145	4.445374	-2.22464
9.671397	0.2065762	0.2658599	-0.2951757	0	4.468352	-4.460729
9.687964	0.2041315	0.2658599	-0.1475606	0	4.455418	0
9.704529	0.2041315	0.2658599	0	0	4.453771	0
9.721699	0.2041315	0.2658599	0	0	0	0
9.737665	0.2041315	0.2658599	0	0	0	0
9.754231	0.2041315	0.2658599	0	0	0	0
9.770798	0.2041315	0.2658599	0	0	0	0
9.787364	0.2041315	0.2658599	0	0	0	0
9.804174	0.2041315	0.2658599	0	0	0	0
9.820498	0.2041315	0.2658599	0	0	0	0
9.837336	0.2041315	0.2658599	0	0	0	0
9.853632	0.2041315	0.2658599	0	0	0	0
9.870197	0.2041315	0.2658599	0	0	0	0
9.886764	0.2041315	0.2658599	0	0	0	0
9.903331	0.2016868	0.2658599	-0.1475624	0	-4.453569	0
9.919897	0.1992422	0.2634152	-0.1475699	-0.1475717	-0.000228913	-4.453852
9.936466	0.1980198	0.2621929	-0.07377313	-0.07377223	2.227128	2.22721
9.953032	0.1967975	0.2609705	-0.07378497	-0.07378497	-0.0003572906	-0.0003844978
9.969598	0.1955751	0.2597482	-0.07378922	-0.07378742	-0.0001281807	-7.398499E-05
9.986461	0.1955751	0.2597482	0	0	2.207395	2.207341
10.00273	0.1955751	0.2585258	0	-0.07512308	0	-2.267219
10.0193	0.1955751	0.2585258	0	0	0	2.28763
10.03587	0.1955751	0.2585258	0	0	0	0
10.05254	0.1955751	0.2585258	0	0	0	0
10.06926	0.1955751	0.2585258	0	0	0	0
10.08557	0.1955751	0.2585258	0	0	0	0
10.10246	0.1955751	0.2585258	0	0	0	0
10.1187	0.1955751	0.2585258	0	0	0	0
10.13527	0.1955751	0.2585258	0	0	0	0
10.15188	0.1955751	0.2585258	0	0	0	0
10.16862	0.1955751	0.2585258	0	0	0	0
10.18497	0.1931304	0.2573035	-0.1495937	-0.07479685	-4.520732	-2.260366
10.20154	0.1931304	0.2560812	-8.993323E-07	-0.07377223	4.545332	0.03113273
10.2181	0.1906857	0.2536365	-0.1475445	-0.1475445	-4.452361	-2.226194
10.23466	0.180907	0.237746	-0.5905187	-0.9595931	-13.3713	-24.51191
10.25123	0.1711282	0.2194108	-0.5902127	-1.106649	0.00923547	-4.439047
10.26814	0.1589048	0.1974086	-0.7231153	-1.301608	-3.970554	-5.824527
10.28437	0.1503484	0.1839629	-0.5270544	-0.8282269	5.91645	14.28502
10.30106	0.1356802	0.1607383	-0.8786436	-1.391186	-10.67736	-17.09641
10.3175	0.1259015	0.1448478	-0.5950757	-0.9669999	8.560065	12.8049
10.33412	0.1185674	0.1338467	-0.4412379	-0.6618558	4.654086	9.231587
10.35126	0.113678	0.124068	-0.2853023	-0.5706055	4.619066	2.702981
10.3672	0.1112334	0.1167339	-0.1533615	-0.460085	3.988756	3.34119
10.38414	0.1075663	0.1093998	-0.2164465	-0.4328921	-1.918486	0.8269667
10.40033	0.1075663	0.1069551	0	-0.1509774	6.532368	8.508202
10.4169	0.106344	0.1045105	-0.07378497	-0.1475699	-2.252377	0.104017
10.43347	0.1051216	0.1020658	-0.07377268	-0.1475454	0.0003707818	0.0007415636
10.45003	0.1051216	0.1020658	0	0	2.226464	4.452928
10.4666	0.1051216	0.1020658	0	0	0	0
10.48317	0.1051216	0.1008434	4.49692E-07	-0.07377648	1.357134E-05	-2.226514
10.49973	0.1051216	0.09962107	-4.497697E-07	-0.07378922	-2.714659E-05	-0.0003845199
10.5163	0.1051216	0.09962107	0	0	1.357486E-05	2.227091
10.53287	0.1051216	0.09962107	0	0	0	0
10.54943	0.1051216	0.09962107	0	0	0	0
10.566	0.1051216	0.09962107	0	0	0	0
10.58334	0.1051216	0.09962107	0	0	0	0
10.59913	0.1051216	0.09962107	0	0	0	0
10.6157	0.1051216	0.09962107	0	0	0	0
10.63238	0.1051216	0.09962107	0	0	0	0
10.64883	0.1051216	0.09839874	4.527411E-07	-0.07427625	1.366415E-05	-2.241726
10.6654	0.1038993	0.09839873	-0.07377223	-4.496662E-07	-2.233793	2.249027
10.68197	0.1038993	0.09839873	0	0	2.22645	1.357095E-05
10.69853	0.1038993	0.09717639	-4.49692E-07	-0.07377648	-1.357212E-05	-2.226643
10.71528	0.1026769	0.09595405	-0.07299453	-0.07299498	-2.19111	0.02345875
10.73167	0.1026769	0.0947317	-4.54691E-07	-0.07459705	2.203156	-0.04835492
10.74824	0.1014546	0.09350935	-0.07377268	-0.07377223	-2.238563	0.02502867
10.76507	0.1014546	0.092287	4.425092E-07	-0.0725985	2.208362	0.03513495
10.78137	0.1002323	0.08984232	-0.07500695	-0.1500139	-2.263793	-2.336468
10.79794	0.09778755	0.08739763	-0.1475624	-0.1475619	-2.207773	0.07461142
10.81454	0.09778756	0.08617529	4.487879E-07	-0.07362814	4.448844	2.229015
10.83107	0.09045349	0.08006357	-0.4436045	-0.3696702	-13.38802	-8.934566
10.84764	0.08311942	0.07395184	-0.4427107	-0.3689258	0.02700374	0.02249006
10.8642	0.07456301	0.07395184	-0.5165254	0	-2.227925	11.13516
10.88077	0.08434177	0.07395184	0.5902132	0	33.4024	0
10.89745	0.08434177	0.07395184	0	0	-17.75034	0
10.9139	0.08434177	0.07395184	0	0	0	0
10.93047	0.08434177	0.07395184	0	0	0	0
10.94731	0.08434177	0.07395184	0	0	0	0
10.9636	0.08434177	0.07395184	0	0	0	0
10.98038	0.08434177	0.07395184	0	0	0	0
10.99674	0.08434177	0.07395184	0	0	0	0
11.01347	0.08434177	0.07395184	0	0	0	0
11.02999	0.08434177	0.07395184	0	0	0	0
11.04649	0.08434177	0.07395184	0	0	0	0
11.06309	0.08434177	0.07395184	0	0	0	0
11.0796	0.08434177	0.07395184	0	0	0	0
11.09623	0.08434177	0.07395184	0	0	0	0
11.11289	0.08434177	0.07395184	0	0	0	0
11.12927	0.08434177	0.07395184	0	0	0	0
11.14583	0.08434177	0.07395184	0	0	0	0
11.1624	0.08434177	0.07395184	0	0	0	0
11.17897	0.08434177	0.07395184	0	0	0	0
11.19553	0.08434177	0.07395184	0	0	0	0
11.2121	0.08434177	0.07395184	0	0	0	0
11.22867	0.08311943	0.07639653	-0.07378497	0.1475704	-2.226963	4.453939
11.24561	0.08311943	0.07639653	0	0	2.201865	-4.403744
11.2618	0.08311942	0.07517418	-4.602356E-07	-0.07550672	-1.389074E-05	-2.278929
11.27866	0.08311942	0.07395184	0	-0.0724913	1.392521E-05	0.09123646
11.29493	0.08311942	0.07395184	0	0	0	2.187792
11.3115	0.08311942	0.07395184	0	0	0	0
11.32869	0.08311942	0.07395184	0	0	0	0
11.34463	0.08311942	0.07395184	0	0	0	0
11.3612	0.08311942	0.07395184	0	0	0	0
11.37777	0.08311942	0.07395184	0	0	0	0
11.39453	0.08311942	0.07395184	0	0	0	0
11.41108	0.08311942	0.07395184	0	0	0	0
11.42777	0.08311942	0.07395184	0	0	0	0
11.44405	0.08311942	0.07395184	0	0	0	0
11.46072	0.08311942	0.07395184	0	0	0	0
11.47717	0.08311942	0.07395184	0	0	0	0
11.4939	0.08311942	0.07395184	0	0	0	0
11.5103	0.08311942	0.07395184	0	0	0	0
11.5271	0.08311942	0.07395184	0	0	0	0
11.54372	0.08311942	0.07395184	0	0	0	0
11.56084	0.08311942	0.07395184	0	0	0	0
11.5768	0.08311942	0.07395184	0	0	0	0
11.59313	0.08189708	0.07395184	-0.07482304	0	-2.316982	0
11.6097	0.07945239	0.07028481	-0.1475619	-0.2213426	-2.21066	-6.726989
11.62627	0.0770077	0.06784012	-0.1475619	-0.1475614	0	2.22672
11.6429	0.07456301	0.06661777	-0.1469524	-0.07347664	0.01835677	2.23126
11.6594	0.07334067	0.06539543	-0.07409208	-0.07409208	2.198992	-0.01857433
11.67602	0.07211833	0.06295074	-0.07352678	-0.147054	0.01706711	-2.20282
11.69272	0.06967364	0.0617284	-0.1463989	-0.07319902	-2.186824	2.216317
11.7091	0.0660066	0.05806136	-0.2239336	-0.2239338	-2.344252	-4.55745
11.72567	0.06478426	0.05683902	-0.07377648	-0.07377648	4.557989	4.557996
11.74223	0.06356192	0.05561667	-0.07378497	-0.07378519	-0.0002563392	-0.000263085
11.7588	0.06111722	0.05317198	-0.1475704	-0.1475702	-2.226976	-2.226963
11.77541	0.06111722	0.05194964	-2.24278E-07	-0.07359032	4.448043	2.229892
11.79198	0.05989489	0.05194964	-0.07375056	2.247684E-07	-2.222463	2.217648
11.80886	0.05989489	0.05194964	0	0	2.204729	-6.719316E-06
11.82507	0.05989489	0.05194964	0	0	0	0
11.84163	0.05989489	0.0507273	0	-0.07378519	0	-2.251466
11.85886	0.05867254	0.0507273	-0.07096632	2.162809E-07	-2.10018	2.183608
11.87477	0.05867254	0.0507273	0	0	2.141891	-6.527747E-06
11.89133	0.05622785	0.04828261	-0.1475702	-0.1475702	-4.544183	-4.544183
11.9079	0.0550055	0.04706026	-0.07378118	-0.0737814	2.22702	2.227013
11.92447	0.05378316	0.04461557	-0.07378519	-0.1475702	-0.0001212025	-2.227013
11.94162	0.05378316	0.04339323	0	-0.07126202	2.188234	2.263056
11.9576	0.05256081	0.04339323	-0.07648399	0	-2.308291	2.150692
11.97417	0.05256081	0.04339323	0	0	2.349887	0
11.99073	0.05133847	0.04217089	-0.07378497	-0.07378475	-2.226963	-2.226956
12.00758	0.05133847	0.04217089	0	0	2.208276	2.208269
12.02387	0.05133847	0.04217089	0	0	0	0
12.04067	0.05133847	0.04217089	0	0	0	0
12.05731	0.05133847	0.04217089	0	0	0	0
12.07433	0.05133847	0.04217089	0	0	0	0
12.09031	0.05133847	0.04094854	-2.33042E-07	-0.07646597	-7.061268E-06	-2.31695
12.1067	0.05011613	0.04094854	-0.0745749	-2.272793E-07	-2.303373	2.361782
12.12351	0.05011613	0.03972619	0	-0.07271773	2.246214	-2.190269
12.14013	0.05011613	0.03972619	0	0	0	2.175465
12.1564	0.05011613	0.03972619	0	0	0	0
12.17297	0.05011613	0.03972619	0	0	0	0
12.18979	0.05011613	0.03972619	0	0	0	0
12.2061	0.04889378	0.0397262	-0.07491926	2.283289E-07	-2.261198	6.891376E-06
12.22267	0.04889378	0.03850385	-2.248719E-07	-0.07378542	2.278439	-2.243971
12.23944	0.04889378	0.03850385	0	0	6.745488E-06	2.213343
12.2558	0.04889378	0.03850385	0	0	0	0
12.27237	0.04767144	0.03728151	-0.07378497	-0.07378497	-2.240765	-2.240765
12.28893	0.04767144	0.03728151	0	0	2.226963	2.226963
12.3055	0.04767144	0.03728151	0	0	0	0
12.32263	0.04767144	0.03728151	0	0	0	0
12.33863	0.04767144	0.03728151	0	0	0	0
12.3552	0.04767144	0.03728151	0	0	0	0
12.37295	0.04767144	0.03728151	0	0	0	0
12.39011	0.04767144	0.03728151	0	0	0	0
12.40609	0.04767144	0.03728151	0	0	0	0
12.42274	0.04767144	0.03728151	0	0	0	0
12.43923	0.04767144	0.03728151	0	0	0	0
12.45579	0.04767144	0.03728151	0	0	0	0
12.47236	0.04767144	0.03728151	0	0	0	0
12.48892	0.04767144	0.03728151	0	0	0	0
12.50549	0.04767144	0.03728151	0	0	0	0
12.52206	0.04767144	0.03728151	0	0	0	0
12.53862	0.04767144	0.03728151	0	0	0	0
12.55521	0.04767144	0.03728151	0	0	0	0
12.57176	0.04767144	0.03728151	0	0	0	0
12.5885	0.04767144	0.03728151	0	0	0	0
12.60489	0.04767144	0.03728151	0	0	0	0
12.62204	0.04767144	0.03728151	0	0	0	0
12.63802	0.04767144	0.03728151	0	0	0	0
12.65459	0.04767144	0.03728151	0	0	0	0
12.67116	0.04767144	0.03728151	0	0	0	0
12.68772	0.04767144	0.03728151	0	0	0	0
12.70433	0.04767144	0.03728151	0	0	0	0
12.72086	0.04767144	0.03728151	0	0	0	0
12.73742	0.04767144	0.03728151	0	0	0	0
12.75399	0.04767144	0.03728151	0	0	0	0
12.77097	0.04767144	0.03728151	0	0	0	0
12.78712	0.04767144	0.03728151	0	0	0	0
12.80408	0.04767144	0.03605916	0	-0.07207956	0	-2.177308
12.82025	0.04767144	0.03605916	0	0	0	2.175491
12.83682	0.04767144	0.03605916	0	0	0	0
12.85339	0.04767144	0.03605916	0	0	0	0
12.87024	0.04767144	0.03605916	0	0	0	0
12.88652	0.04767144	0.03605916	0	0	0	0
12.90309	0.04767144	0.03605916	0	0	0	0
12.91966	0.04767144	0.03605916	0	0	0	0
12.93645	0.04767144	0.03605916	0	0	0	0
12.95279	0.04767144	0.03605916	0	0	0	0
12.96936	0.04767144	0.03605916	0	0	0	0
12.99389	0.04767144	0.03605916	0	0	0	0
13.01073	0.04767144	0.03605916	0	0	0	0
13.02703	0.04767144	0.03605916	0	0	0	0
13.0438	0.04767144	0.03605916	0	0	0	0
13.06016	0.04767144	0.03605916	0	0	0	0
13.07673	0.04767144	0.03605916	0	0	0	0
13.09379	0.04889378	0.03605916	0.07164443	0	2.13047	0
13.11012	0.04889378	0.03605916	0	0	-2.145743	0
13.12643	0.04889378	0.03483681	0	-0.07494162	0	-2.296108
13.143	0.04889378	0.03483681	0	0	0	2.279457
13.15956	0.04889378	0.03483681	0	0	0	0
13.17613	0.04889378	0.03483681	0	0	0	0
13.1927	0.04889378	0.03483681	0	0	0	0
13.20927	0.04889378	0.03483681	0	0	0	0
13.22583	0.04889378	0.03483681	0	0	0	0
13.2424	0.04889378	0.03483681	0	0	0	0
13.25896	0.04889378	0.03483681	0	0	0	0
13.27553	0.04889378	0.03483681	0	0	0	0
13.29209	0.04889378	0.03483681	0	0	0	0
13.30866	0.04889378	0.03483681	0	0	0	0
13.32622	0.04889378	0.03483681	0	0	0	0
13.34184	0.04889378	0.03483681	0	0	0	0
13.35837	0.04889378	0.03483681	0	0	0	0
13.37523	0.04889378	0.03483681	0	0	0	0
13.3915	0.04889378	0.03483681	0	0	0	0
13.40806	0.04889378	0.03483681	0	0	0	0
13.42463	0.04889378	0.03483681	0	0	0	0
13.44141	0.04889378	0.03483681	0	0	0	0
13.45776	0.04889378	0.03483681	0	0	0	0
13.47449	0.04889378	0.03483681	0	0	0	0
13.4909	0.04889378	0.03483681	0	0	0	0
13.50746	0.04889378	0.03483681	0	0	0	0
13.52403	0.04889378	0.03483681	0	0	0	0
13.5406	0.04889378	0.03483681	0	0	0	0
13.55717	0.04889378	0.03483681	0	0	0	0
13.57417	0.04889378	0.03483681	0	0	0	0
13.5903	0.04889378	0.03483681	0	0	0	0
13.60694	0.04889378	0.03483681	0	0	0	0
13.62343	0.04889378	0.03483681	0	0	0	0
13.64	0.04889378	0.03483681	0	0	0	0
13.66229	0.04889378	0.03483681	0	0	0	0
13.67916	0.04889378	0.03483681	0	0	0	0
13.69543	0.04889378	0.03483681	0	0	0	0
13.712	0.04889378	0.03483681	0	0	0	0
13.72916	0.04889378	0.03361448	2.170259E-07	-0.07121034	6.433751E-06	-2.111036
13.74521	0.04889378	0.03361448	0	0	-6.533871E-06	2.143887
13.7617	0.04889378	0.03361448	0	0	0	0
13.77826	0.04889378	0.03361448	0	0	0	0
13.79535	0.04889378	0.03361448	0	0	0	0
13.81162	0.04889378	0.03361448	0	0	0	0
13.82796	0.04889378	0.03361448	0	0	0	0
13.84453	0.04889378	0.03361448	0	0	0	0
13.8611	0.04889378	0.03361448	0	0	0	0
13.87766	0.04889378	0.03361448	0	0	0	0
13.89423	0.04889378	0.03361448	0	0	0	0
13.9108	0.04889378	0.03361448	0	0	0	0
13.97856	0.04889378	0.03361448	0	0	0	0
13.99547	0.04889378	0.03361448	0	0	0	0
14.0117	0.04889378	0.03361448	0	0	0	0
14.02827	0.04889378	0.03361448	0	0	0	0
14.04483	0.04889378	0.03361448	0	0	0	0
14.0614	0.04889378	0.03361448	0	0	0	0
14.07797	0.04889378	0.03361448	0	0	0	0
14.09511	0.04889378	0.03361448	0	0	0	0
14.11115	0.04889378	0.03361448	0	0	0	0
14.12767	0.04889378	0.03361448	0	0	0	0
14.14423	0.04889378	0.03361448	0	0	0	0
14.1608	0.04889378	0.03361448	0	0	0	0
14.17737	0.04889378	0.03361448	0	0	0	0
14.19393	0.04889378	0.03361448	0	0	0	0
14.21069	0.04889378	0.03361448	0	0	0	0
14.22716	0.04889378	0.03361448	0	0	0	0
14.24364	0.04889378	0.03361448	0	0	0	0
14.26025	0.04889378	0.03361448	0	0	0	0
14.27676	0.04889378	0.03361448	0	0	0	0
14.29333	0.04889378	0.03361448	0	0	0	0
14.3099	0.04889378	0.03361448	0	0	0	0
14.32646	0.04889378	0.03361448	0	0	0	0
14.34303	0.04889378	0.03361448	0	0	0	0
14.3596	0.04889378	0.03361448	0	0	0	0
14.37616	0.04889378	0.03361448	0	0	0	0
14.39273	0.04889378	0.03361448	0	0	0	0
14.40948	0.04889378	0.03361448	0	0	0	0
14.42586	0.04889378	0.03361448	0	0	0	0
14.44243	0.04889378	0.03361448	0	0	0	0
14.459	0.04889378	0.03361448	0	0	0	0
14.47566	0.04889378	0.03361448	0	0	0	0
14.49213	0.04889378	0.03361448	0	0	0	0
14.5088	0.04889378	0.03361448	0	0	0	0
14.52526	0.04889378	0.03361448	0	0	0	0
14.54183	0.04889378	0.03361448	0	0	0	0
14.5584	0.04889378	0.03361448	0	0	0	0
14.57496	0.04889378	0.03361448	0	0	0	0
14.59153	0.04889378	0.03361448	0	0	0	0
14.6081	0.04889378	0.03361448	0	0	0	0
14.62466	0.04889378	0.03361448	0	0	0	0
14.64123	0.04889378	0.03361448	0	0	0	0
14.65779	0.04889378	0.03361448	0	0	0	0
14.67436	0.04889378	0.03361448	0	0	0	0
14.69093	0.04889378	0.03361448	0	0	0	0
14.70795	0.04889378	0.03361448	0	0	0	0
14.72406	0.04889378	0.03361448	0	0	0	0
14.74094	0.04889378	0.03361448	0	0	0	0
14.75719	0.04889378	0.03361448	0	0	0	0
14.77376	0.04889378	0.03361448	0	0	0	0
14.79033	0.04889378	0.03361448	0	0	0	0
14.80725	0.04889378	0.03361448	0	0	0	0
14.82382	0.04889378	0.03361448	0	0	0	0
14.84049	0.04889378	0.03361448	0	0	0	0
14.85703	0.04889378	0.03361448	0	0	0	0
14.87343	0.04889378	0.03361448	0	0	0	0
14.89048	0.04889378	0.03361448	0	0	0	0
14.9065	0.04889378	0.03361448	0	0	0	0
14.92297	0.04889378	0.03361448	0	0	0	0
14.93947	0.04889378	0.03361448	0	0	0	0
14.95614	0.04889378	0.03361448	0	0	0	0
14.97256	0.04889378	0.03361448	0	0	0	0
14.98913	0.04889378	0.03361448	0	0	0	0
15.00588	0.04889378	0.03361448	0	0	0	0
15.02235	0.04889378	0.03361448	0	0	0	0
15.03923	0.04889378	0.03361448	0	0	0	0
15.06192	0.04889378	0.03361448	0	0	0	0
15.07849	0.04889378	0.03361448	0	0	0	0
15.09505	0.04889378	0.03361448	0	0	0	0
15.11162	0.04889378	0.03361448	0	0	0	0
15.12819	0.04889378	0.03361448	0	0	0	0
15.14479	0.04889378	0.03361448	0	0	0	0
15.16132	0.04889378	0.03361448	0	0	0	0
15.17789	0.04889378	0.03361448	0	0	0	0
15.19446	0.04889378	0.03361448	0	0	0	0
15.21121	0.04889378	0.03361448	0	0	0	0
15.22778	0.04889378	0.03361448	0	0	0	0
15.24416	0.04889378	0.03361448	0	0	0	0
15.26087	0.04889378	0.03361448	0	0	0	0
15.27736	0.04889378	0.03361448	0	0	0	0
15.29385	0.04889378	0.03361448	0	0	0	0
15.31042	0.04889378	0.03361448	0	0	0	0
15.32699	0.04889378	0.03361448	0	0	0	0
15.34355	0.04889378	0.03361448	0	0	0	0
15.36012	0.04889378	0.03361448	0	0	0	0
15.37669	0.04889378	0.03361448	0	0	0	0
15.39325	0.04889378	0.03361448	0	0	0	0
15.40982	0.04889378	0.03361448	0	0	0	0
15.42638	0.04889378	0.03361448	0	0	0	0
15.44295	0.04889378	0.03361448	0	0	0	0
15.45952	0.04889378	0.03361448	0	0	0	0
15.47616	0.04889378	0.03361448	0	0	0	0
15.49265	0.04889378	0.03361448	0	0	0	0
15.50922	0.04889378	0.03361448	0	0	0	0
15.52578	0.04889378	0.03361448	0	0	0	0
15.54235	0.04889378	0.03361448	0	0	0	0
15.55892	0.04889378	0.03361448	0	0	0	0
15.57548	0.04889378	0.03361448	0	0	0	0
15.59205	0.04889378	0.03361448	0	0	0	0
15.60862	0.04889378	0.03361448	0	0	0	0
15.62518	0.04889378	0.03361448	0	0	0	0
15.64175	0.04889378	0.03361448	0	0	0	0
15.65831	0.04889378	0.03361448	0	0	0	0
15.67488	0.04889378	0.03361448	0	0	0	0
15.69145	0.04889378	0.03361448	0	0	0	0
15.70801	0.04889378	0.03361448	0	0	0	0
15.72464	0.04889378	0.03361448	0	0	0	0
15.74115	0.04889378	0.03361448	0	0	0	0
15.75771	0.04889378	0.03361448	0	0	0	0
15.77428	0.04889378	0.03361448	0	0	0	0
15.79116	0.04889378	0.03361448	0	0	0	0
15.80742	0.04889378	0.03361448	0	0	0	0
15.82398	0.04889378	0.03361448	0	0	0	0
15.84055	0.04889378	0.03361448	0	0	0	0
15.85712	0.04889378	0.03361448	0	0	0	0
15.87368	0.04889378	0.03361448	0	0	0	0
15.89067	0.04889378	0.03361448	0	0	0	0
15.90682	0.04889378	0.03361448	0	0	0	0
15.92338	0.04889378	0.03361448	0	0	0	0
15.94001	0.04889378	0.03361448	0	0	0	0
15.95683	0.04889378	0.03361448	0	0	0	0
15.9734	0.05133847	0.03605916	0.1475022	0.1475022	4.416921	4.416921
15.98965	0.05745019	0.04217088	0.3761579	0.3761579	6.966609	6.966609
16.00622	0.06356192	0.0507273	0.3689258	0.5164959	-0.2203975	4.276771
16.02278	0.08067474	0.07028481	1.033051	1.180629	20.04507	20.04532
16.03935	0.1014546	0.09839873	1.254275	1.69696	6.676929	15.58378
16.05592	0.1307909	0.1228456	1.770741	1.475618	15.58697	-6.680121
16.07248	0.1576824	0.1424031	1.623179	1.180494	-4.453427	-8.906855
16.08905	0.1870187	0.1607383	1.770741	1.106712	4.453442	-2.226748
16.10563	0.2139103	0.1766288	1.621872	0.9583797	-4.491077	-4.474865
16.12218	0.2408019	0.1925193	1.624677	0.9600354	0.08466697	0.04997193
16.13875	0.2615817	0.202298	1.254273	0.5902467	-11.18395	-11.16539
16.15536	0.2738052	0.2096321	0.7357761	0.4414645	-15.62669	-4.484059
16.17188	0.2786945	0.2145215	0.2959406	0.2959415	-13.27426	-4.391894
16.18845	0.2786945	0.2157438	0	0.07379862	-8.944893	-6.714334
16.20502	0.2786945	0.2157438	0	0	0	-2.227375
16.22158	0.2786945	0.2157438	0	0	0	0
16.23815	0.2786945	0.2157438	0	0	0	0
16.25472	0.2786945	0.2157438	0	0	0	0
16.27128	0.2786945	0.2157438	0	0	0	0
16.28785	0.2786945	0.2157438	0	0	0	0
16.3047	0.2786945	0.2157438	0	0	0	0
16.32098	0.2786945	0.2157438	0	0	0	0
16.33819	0.2786945	0.2157438	0	0	0	0
16.35439	0.2786945	0.2157438	0	0	0	0
16.37068	0.2762499	0.2132991	-0.1500842	-0.1500851	-4.618343	-4.618371
16.38726	0.2676935	0.2035204	-0.5161086	-0.5898393	-11.13639	-13.37963
16.40397	0.2566923	0.1912969	-0.6583438	-0.731492	-4.272745	-4.255248
16.4206	0.2395795	0.1741841	-1.029378	-1.029378	-11.13055	-8.936192
16.43695	0.2187997	0.1546266	-1.27051	-1.195774	-7.311488	-5.045392
16.45352	0.1992422	0.1326244	-1.180493	-1.328056	2.734184	-4.017931
16.47009	0.1735729	0.1081775	-1.549399	-1.475618	-11.13359	-4.453427
16.48666	0.1650165	0.1008434	-0.5164065	-0.4426334	31.17397	31.17373
16.50322	0.1564601	0.09350935	-0.5164651	-0.4426852	-0.00176639	-0.001564928
16.51979	0.1503484	0.08861997	-0.3689045	-0.2951238	4.453386	4.453413
16.53636	0.145459	0.0837306	-0.2951238	-0.2951229	2.226707	2.698308E-05
16.55293	0.141792	0.08128591	-0.2213422	-0.1475619	2.226733	4.4534
16.56949	0.1381249	0.08006357	-0.221394	-0.07379772	-0.001565648	2.226464
16.58619	0.1356802	0.07761888	-0.1463316	-0.1463316	2.256167	-2.180167
16.60268	0.1344579	0.07639653	-0.07413922	-0.07413967	2.17489	2.174876
16.61919	0.1332355	0.07639653	-0.07404589	0	0.002828469	2.246982
16.63576	0.1307909	0.07395185	-0.1475614	-0.1475614	-2.22267	-4.461374
16.65232	0.1283462	0.0727295	-0.1475614	-0.07378118	0	2.226693
16.66889	0.1259015	0.07150716	-0.1475614	-0.07378072	0	1.37164E-05
16.68546	0.1197898	0.06784011	-0.3689474	-0.2213686	-6.681828	-4.454466
16.70202	0.1161227	0.06661777	-0.2213422	-0.07378072	4.454992	4.454466
16.71859	0.110011	0.06417308	-0.368905	-0.1475619	-4.453454	-2.22672
16.73563	0.1014546	0.06050606	-0.5021285	-0.2151977	-3.964103	-2.012522
16.75173	0.08923115	0.05683902	-0.7594939	-0.2278483	-7.767303	-0.3817962
16.76829	0.08189708	0.05561668	-0.4426852	-0.07378072	9.699777	4.717109
16.78486	0.07578536	0.05439433	-0.3689041	-0.07378118	2.22672	-1.37164E-05
16.80142	0.06845129	0.05439433	-0.4427872	2.249107E-07	-2.230054	2.226984
16.81799	0.06233957	0.05683902	-0.3689041	0.1475619	2.230054	4.453933
16.83456	0.04889378	0.06661778	-0.8115895	0.5902469	-13.36027	13.36026
16.85113	0.03055861	0.08250826	-1.106713	0.9591512	-8.906849	11.13355
16.86769	0.02322454	0.08739763	-0.4426852	0.2951229	20.0404	-20.04041
16.88426	0.02322454	0.08739763	0	0	13.36027	-8.906827
16.9009	0.02322454	0.08739763	0	0	0	0
16.91739	0.02322454	0.08739763	0	0	0	0
16.93412	0.02322454	0.08739763	0	0	0	0
16.95053	0.02322454	0.08739763	0	0	0	0
16.96709	0.02322454	0.08739763	0	0	0	0
16.98404	0.02322454	0.08739763	0	0	0	0
17.00023	0.02322454	0.08739763	0	0	0	0
17.01679	0.02322454	0.08739763	0	0	0	0
17.03863	0.02322454	0.08739763	0	0	0	0
17.05528	0.02322454	0.08739763	0	0	0	0
17.07177	0.02322454	0.08739763	0	0	0	0
17.08845	0.02322454	0.08739763	0	0	0	0
17.10497	0.02322454	0.08739763	0	0	0	0
17.12147	0.02322454	0.08739763	0	0	0	0
17.13804	0.02322454	0.08739763	0	0	0	0
17.1546	0.02322454	0.08739763	0	0	0	0
17.17117	0.02322454	0.08739763	0	0	0	0
17.18774	0.01833517	0.08739763	-0.2951235	0	-8.906843	0
17.2043	0.0110011	0.08495294	-0.4427361	-0.1475784	-4.455214	-4.454182
17.22087	0.009778756	0.08373059	-0.07378934	-0.07378967	11.13612	2.227206
17.23745	0.007334067	0.08128591	-0.1474429	-0.1474426	-2.222102	-2.222083
17.25401	0.004889378	0.07884122	-0.1476637	-0.1476634	-0.006663087	-0.006663986
17.27057	0.004889378	0.07884122	0	0	4.458296	4.458288
17.28714	0.004889378	0.07884122	0	0	0	0
17.3044	0.004889378	0.07884122	0	0	0	0
17.32028	0.004889378	0.07884122	0	0	0	0
17.33684	0.004889378	0.07884122	0	0	0	0
17.3534	0.004889378	0.07884122	0	0	0	0
17.36997	0.004889378	0.07884122	0	0	0	0
17.38654	0.004889378	0.07884122	0	0	0	0
17.40311	0.004889378	0.07884122	0	0	0	0
17.41967	0.004889378	0.07884122	0	0	0	0
17.43696	0.004889378	0.07884122	0	0	0	0
17.4528	0.004889378	0.07884122	0	0	0	0
17.46937	0.004889378	0.07884122	0	0	0	0
17.48599	0.004889378	0.07884122	0	0	0	0
17.5025	0.004889378	0.07884122	0	0	0	0
17.51907	0.004889378	0.07884122	0	0	0	0
17.53564	0.004889378	0.07884122	0	0	0	0
17.5522	0.004889378	0.07884122	0	0	0	0
17.56877	0.004889378	0.07884122	0	0	0	0
17.58534	0.004889378	0.07884122	0	0	0	0
17.60196	0.004889378	0.07884122	0	0	0	0
17.61847	0.004889378	0.07884122	0	0	0	0
17.63546	0.004889378	0.07884122	0	0	0	0
17.6516	0.004889378	0.07761887	0	-0.07570741	0	-2.284986
17.66817	0.004889378	0.07517418	0	-0.1475789	0	-2.197164
17.6848	0.004889378	0.07150716	0	-0.2204791	0	-2.195962
17.7013	0.004889378	0.06906247	0	-0.1481756	0	2.182377
17.71787	0.004889378	0.06417308	0	-0.2950223	0	-4.440279
17.73444	0.004889378	0.0617284	0	-0.1475782	0	4.44936
17.75151	0.004889378	0.05928371	0	-0.1432092	0	0.1298895
17.76757	0.004889378	0.05683902	2.899188E-08	-0.1522053	8.750271E-07	-0.2715171
17.78428	0.004889378	0.05561667	-2.786039E-08	-0.07313264	-1.734577E-06	2.412526
17.8007	0.004889378	0.05561667	0	0	8.408283E-07	2.207148
17.81727	0.004889378	0.05561667	0	0	0	0
17.83388	0.004889378	0.05561667	0	0	0	0
17.85067	0.004889378	0.05561667	0	0	0	0
17.86711	0.004889378	0.05561667	0	0	0	0
17.88354	0.004889378	0.05561667	0	0	0	0
17.90011	0.004889378	0.05561667	0	0	0	0
17.91667	0.004889378	0.05561667	0	0	0	0
17.93331	0.004889378	0.05561667	0	0	0	0
17.94981	0.004889378	0.05561667	0	0	0	0
17.96638	0.004889378	0.05561667	0	0	0	0
17.98315	0.004889378	0.05561667	0	0	0	0
17.99951	0.004889378	0.05561667	0	0	0	0
18.01608	0.004889378	0.05561667	0	0	0	0
18.03273	0.004889378	0.05561667	0	0	0	0
18.04921	0.004889378	0.05561667	0	0	0	0
18.06577	0.004889378	0.05561667	0	0	0	0
18.08317	0.004889378	0.05561667	0	0	0	0
18.09891	0.004889378	0.05561667	0	0	0	0
18.11547	0.004889378	0.05561667	0	0	0	0
18.13215	0.004889378	0.05561667	0	0	0	0
18.14861	0.004889378	0.05561667	0	0	0	0
18.16517	0.004889378	0.05561667	0	0	0	0
18.18174	0.004889378	0.05561667	0	0	0	0
18.19831	0.004889378	0.05561667	0	0	0	0
18.21487	0.004889378	0.05561667	0	0	0	0
18.23162	0.004889378	0.05561667	0	0	0	0
18.24802	0.004889378	0.05561667	0	0	0	0
18.26506	0.004889378	0.05561667	0	0	0	0
18.28114	0.004889378	0.05561667	0	0	0	0
18.2977	0.004889378	0.05561667	0	0	0	0
18.3143	0.004889378	0.05561667	0	0	0	0
18.33084	0.004889378	0.05561667	0	0	0	0
18.3474	0.004889378	0.05561667	0	0	0	0
18.36397	0.004889378	0.05561667	0	0	0	0
18.38054	0.004889378	0.05561667	0	0	0	0
18.39711	0.004889378	0.05561667	0	0	0	0
18.41367	0.004889378	0.05561667	0	0	0	0
18.43024	0.004889378	0.05561667	0	0	0	0
18.44681	0.004889378	0.05561667	0	0	0	0
18.46338	0.004889378	0.05561667	0	0	0	0
18.47994	0.004889378	0.05561667	0	0	0	0
18.49651	0.004889378	0.05561667	0	0	0	0
18.51308	0.004889378	0.05561667	0	0	0	0
18.52964	0.004889378	0.05561667	0	0	0	0
18.54621	0.004889378	0.05561667	0	0	0	0
18.56303	0.004889378	0.05561667	0	0	0	0
18.57934	0.004889378	0.05561667	0	0	0	0
18.59591	0.004889378	0.05561667	0	0	0	0
18.61248	0.004889378	0.05561667	0	0	0	0
18.62905	0.004889378	0.05561667	0	0	0	0
18.64561	0.004889378	0.05561667	0	0	0	0
18.66218	0.004889378	0.05561667	0	0	0	0
18.67875	0.004889378	0.05561667	0	0	0	0
18.69531	0.004889378	0.05561667	0	0	0	0
18.71188	0.004889378	0.05561667	0	0	0	0
18.72903	0.004889378	0.05561667	0	0	0	0
18.74501	0.004889378	0.05561667	0	0	0	0
18.76158	0.004889378	0.05561667	0	0	0	0
18.77815	0.004889378	0.05561667	0	0	0	0
18.79471	0.004889378	0.05561667	0	0	0	0
18.81128	0.004889378	0.05561667	0	0	0	0
18.82862	0.004889378	0.05561667	0	0	0	0
18.84441	0.004889378	0.05561667	0	0	0	0
18.86098	0.004889378	0.05561667	0	0	0	0
18.87755	0.004889378	0.05561667	0	0	0	0
18.89421	0.004889378	0.05561667	0	0	0	0
18.91068	0.004889378	0.05561667	0	0	0	0
18.92725	0.004889378	0.05561667	0	0	0	0
18.94382	0.004889378	0.05561667	0	0	0	0
18.96038	0.004889378	0.05561667	0	0	0	0
18.97695	0.004889378	0.05561667	0	0	0	0
18.99352	0.004889378	0.05561667	0	0	0	0
19.01008	0.004889378	0.05561667	0	0	0	0
19.02665	0.004889378	0.05561667	0	0	0	0
19.04321	0.004889378	0.05561667	0	0	0	0
19.05978	0.004889378	0.05561667	0	0	0	0
19.07635	0.004889378	0.05561667	0	0	0	0
19.09311	0.004889378	0.05561667	0	0	0	0
19.10948	0.004889378	0.05561667	0	0	0	0
19.12605	0.004889378	0.05561667	0	0	0	0
19.14262	0.004889378	0.05561667	0	0	0	0
19.15918	0.004889378	0.05561667	0	0	0	0
19.17575	0.004889378	0.05561667	0	0	0	0
19.19232	0.004889378	0.05561667	0	0	0	0
19.20889	0.004889378	0.05561667	0	0	0	0
19.22545	0.004889378	0.05561667	0	0	0	0
19.24202	0.004889378	0.05561667	0	0	0	0
19.25873	0.004889378	0.05561667	0	0	0	0
19.27515	0.004889378	0.05561667	0	0	0	0
19.29218	0.004889378	0.05561667	0	0	0	0
19.30829	0.004889378	0.05561667	0	0	0	0
19.32485	0.004889378	0.05561667	0	0	0	0
19.34142	0.004889378	0.05561667	0	0	0	0
19.35808	0.004889378	0.05561667	0	0	0	0
19.44095	0.004889378	0.05561667	0	0	0	0
19.45753	0.01466813	0.05317198	0.590111	-0.1475277	5.933796	-1.483449
19.47409	0.01466813	0.05317198	0	0	-17.80651	4.451626
19.49121	0.01466813	0.05317198	0	0	0	0
19.50723	0.01466813	0.05317198	0	0	0	0
19.5238	0.01466813	0.05317198	0	0	0	0
19.54089	0.01466813	0.05317198	0	0	0	0
19.55693	0.01466813	0.05317198	0	0	0	0
19.57354	0.01466813	0.05317198	0	0	0	0
19.59103	0.01466813	0.05317198	0	0	0	0
19.60662	0.01466813	0.05317198	0	0	0	0
19.63383	0.01466813	0.05317198	0	0	0	0
19.6504	0.01466813	0.05317198	0	0	0	0
19.66696	0.01466813	0.05317198	0	0	0	0
19.68353	0.01466813	0.05317198	0	0	0	0
19.70009	0.01466813	0.05317198	0	0	0	0
19.71699	0.01466813	0.05317198	0	0	0	0
19.73374	0.01466813	0.05317198	0	0	0	0
19.74986	0.01466813	0.05317198	0	0	0	0
19.76636	0.01466813	0.05317198	0	0	0	0
19.78293	0.01466813	0.05317198	0	0	0	0
19.79953	0.01466813	0.05317198	0	0	0	0
19.81631	0.01466813	0.05317198	0	0	0	0
19.83263	0.01466813	0.05317198	0	0	0	0
19.84926	0.01466813	0.05317198	0	0	0	0
19.86576	0.01466813	0.05317198	0	0	0	0
19.88233	0.01466813	0.05317198	0	0	0	0
19.89926	0.01466813	0.05317198	0	0	0	0
19.91547	0.01466813	0.05317198	0	0	0	0
19.93205	0.01466813	0.05317198	0	0	0	0
19.9486	0.01466813	0.05317198	0	0	0	0
19.96517	0.01466813	0.05317198	0	0	0	0
19.98174	0.01466813	0.05317198	0	0	0	0
19.9983	0.01466813	0.05317198	0	0	0	0
20.01487	0.01466813	0.05317198	0	0	0	0
20.03144	0.01466813	0.05317198	0	0	0	0
20.04823	0.01466813	0.05317198	0	0	0	0
20.06481	0.01466813	0.05317198	0	0	0	0
20.08127	0.01466813	0.05317198	0	0	0	0
20.0977	0.01466813	0.05317198	0	0	0	0
20.11427	0.01466813	0.05317198	0	0	0	0
20.13083	0.01466813	0.05317198	0	0	0	0
20.14765	0.01466813	0.05317198	0	0	0	0
20.16397	0.01466813	0.05317198	0	0	0	0
20.18059	0.01466813	0.05317198	0	0	0	0
20.1971	0.01466813	0.05317198	0	0	0	0
20.21367	0.01466813	0.05317198	0	0	0	0
20.23024	0.01466813	0.05317198	0	0	0	0
20.2468	0.01466813	0.05317198	0	0	0	0
20.26382	0.01466813	0.05317198	0	0	0	0
20.28039	0.01466813	0.05317198	0	0	0	0
20.2965	0.01466813	0.05317198	0	0	0	0
20.31314	0.01466813	0.05317198	0	0	0	0
20.32963	0.01466813	0.05317198	0	0	0	0
20.34668	0.01466813	0.05317198	0	0	0	0
20.36277	0.01466813	0.05317198	0	0	0	0
20.37934	0.01466813	0.05317198	0	0	0	0
20.3959	0.01466813	0.05317198	0	0	0	0
20.41295	0.01466813	0.05317198	0	0	0	0
20.43001	0.01466813	0.05317198	0	0	0	0
20.44609	0.01466813	0.05317198	0	0	0	0
20.46304	0.01466813	0.05317198	0	0	0	0
20.47976	0.01466813	0.05317198	0	0	0	0
20.49579	0.01466813	0.05317198	0	0	0	0
20.51236	0.01466813	0.05317198	0	0	0	0
20.52893	0.01466813	0.05317198	0	0	0	0
20.5455	0.01466813	0.05317198	0	0	0	0
20.56206	0.01466813	0.05317198	0	0	0	0
20.57891	0.01466813	0.05317198	0	0	0	0
20.59519	0.01466813	0.05317198	0	0	0	0
20.61176	0.01466813	0.05317198	0	0	0	0
20.62833	0.01466813	0.05317198	0	0	0	0
20.64489	0.01466813	0.05317198	0	0	0	0
20.66146	0.01466813	0.05317198	0	0	0	0
20.67802	0.01466813	0.05317198	0	0	0	0
20.69463	0.01466813	0.05317198	0	0	0	0
20.71116	0.01466813	0.05317198	0	0	0	0
20.72773	0.01466813	0.05317198	0	0	0	0
20.74429	0.01466813	0.05317198	0	0	0	0
20.76086	0.01466813	0.05317198	0	0	0	0
20.77761	0.01466813	0.05317198	0	0	0	0
20.79399	0.01466813	0.05317198	0	0	0	0
20.81096	0.01466813	0.05317198	0	0	0	0
20.82765	0.01466813	0.05317198	0	0	0	0
20.84392	0.01466813	0.05317198	0	0	0	0
20.86046	0.01466813	0.05317198	0	0	0	0
20.87683	0.01466813	0.05317198	0	0	0	0
20.89339	0.01466813	0.05317198	0	0	0	0
20.91004	0.01466813	0.05317198	0	0	0	0
20.92653	0.01466813	0.05317198	0	0	0	0
20.94316	0.01466813	0.05317198	0	0	0	0
20.95966	0.01466813	0.05317198	0	0	0	0
20.97643	0.01466813	0.05317198	0	0	0	0
20.99279	0.01466813	0.05317198	0	0	0	0
21.00936	0.01466813	0.05317198	0	0	0	0
21.02592	0.01466813	0.05317198	0	0	0	0
21.04249	0.01466813	0.05317198	0	0	0	0
21.05906	0.01466813	0.05317198	0	0	0	0
21.07651	0.01466813	0.05317198	0	0	0	0
21.09319	0.01466813	0.05317198	0	0	0	0
21.10964	0.01466813	0.05317198	0	0	0	0
21.12621	0.01466813	0.05317198	0	0	0	0
21.14278	0.01466813	0.05317198	0	0	0	0
21.15934	0.01466813	0.05317198	0	0	0	0
21.17601	0.01466813	0.05317198	0	0	0	0
21.19248	0.01466813	0.05317198	0	0	0	0
21.20904	0.01466813	0.05317198	0	0	0	0
21.22561	0.01466813	0.05317198	0	0	0	0
21.24227	0.01466813	0.05317198	0	0	0	0
21.25875	0.01466813	0.05317198	0	0	0	0
21.27628	0.01466813	0.05317198	0	0	0	0
21.29188	0.01466813	0.05317198	0	0	0	0
21.30844	0.01466813	0.05317198	0	0	0	0
21.32501	0.01466813	0.05317198	0	0	0	0
21.34158	0.01466813	0.05317198	0	0	0	0
21.35815	0.01466813	0.05317198	0	0	0	0
21.37471	0.01466813	0.05317198	0	0	0	0
21.39128	0.01466813	0.05317198	0	0	0	0
21.40784	0.01466813	0.05317198	0	0	0	0
21.42441	0.01466813	0.05317198	0	0	0	0
21.44099	0.01466813	0.05317198	0	0	0	0
21.45764	0.01466813	0.05317198	0	0	0	0
21.47412	0.01466813	0.05317198	0	0	0	0
21.49072	0.01466813	0.05317198	0	0	0	0
21.50725	0.01466813	0.05317198	0	0	0	0
21.52413	0.01466813	0.05317198	0	0	0	0
21.54038	0.01466813	0.05317198	0	0	0	0
21.55695	0.01466813	0.05317198	0	0	0	0
21.57351	0.01466813	0.05317198	0	0	0	0
21.59041	0.01466813	0.05317198	0	0	0	0
21.60665	0.01466813	0.05317198	0	0	0	0
21.62321	0.01466813	0.05317198	0	0	0	0
21.63978	0.01466813	0.05317198	0	0	0	0
21.65635	0.01466813	0.05317198	0	0	0	0
21.67291	0.01466813	0.05317198	0	0	0	0
21.68948	0.01466813	0.05317198	0	0	0	0
21.70605	0.01466813	0.05317198	0	0	0	0
21.72261	0.01466813	0.05317198	0	0	0	0
21.73918	0.01466813	0.05317198	0	0	0	0
21.75575	0.01466813	0.05317198	0	0	0	0
21.77231	0.01466813	0.05317198	0	0	0	0
21.78888	0.01466813	0.05317198	0	0	0	0
21.80545	0.01466813	0.05317198	0	0	0	0
21.82202	0.01466813	0.05317198	0	0	0	0
21.83858	0.01466813	0.05317198	0	0	0	0
21.85534	0.01466813	0.05317198	0	0	0	0
21.87197	0.01466813	0.05317198	0	0	0	0
21.88828	0.01466813	0.05317198	0	0	0	0
21.90528	0.01466813	0.05317198	0	0	0	0
21.92142	0.01466813	0.05317198	0	0	0	0
21.93798	0.01466813	0.05317198	0	0	0	0
21.95476	0.01466813	0.05317198	0	0	0	0
21.97112	0.01466813	0.05317198	0	0	0	0
21.98769	0.01466813	0.05317198	0	0	0	0
22.0046	0.01466813	0.05317198	0	0	0	0
22.02082	0.01466813	0.05317198	0	0	0	0
22.03742	0.01466813	0.05317198	0	0	0	0
22.05397	0.01466813	0.05317198	0	0	0	0
22.07052	0.01466813	0.05317198	0	0	0	0
22.08709	0.01466813	0.05317198	0	0	0	0
22.10367	0.01466813	0.05317198	0	0	0	0
22.12022	0.01466813	0.05317198	0	0	0	0
22.13679	0.01466813	0.05317198	0	0	0	0
22.15396	0.01466813	0.05317198	0	0	0	0
22.16992	0.01466813	0.05317198	0	0	0	0
22.18655	0.01466813	0.05317198	0	0	0	0
22.20305	0.01466813	0.05317198	0	0	0	0
22.2197	0.01466813	0.05317198	0	0	0	0
22.23618	0.01466813	0.05317198	0	0	0	0
22.25275	0.01466813	0.05317198	0	0	0	0
22.26932	0.01466813	0.05317198	0	0	0	0
22.28588	0.01466813	0.05317198	0	0	0	0
22.30245	0.01466813	0.05317198	0	0	0	0
22.31902	0.01466813	0.05317198	0	0	0	0
22.33563	0.01466813	0.05317198	0	0	0	0
22.35215	0.01466813	0.05317198	0	0	0	0
22.36872	0.01466813	0.05317198	0	0	0	0
22.38531	0.01466813	0.05317198	0	0	0	0
22.40185	0.01466813	0.05317198	0	0	0	0
22.42038	0.01466813	0.05317198	0	0	0	0
22.43695	0.01466813	0.05317198	0	0	0	0
22.45352	0.01466813	0.05317198	0	0	0	0
22.47009	0.01466813	0.05317198	0	0	0	0
22.48665	0.01466813	0.05317198	0	0	0	0
22.50343	0.01466813	0.05317198	0	0	0	0
22.51979	0.01466813	0.05317198	0	0	0	0
22.53636	0.01466813	0.05317198	0	0	0	0
22.55348	0.01466813	0.05317198	0	0	0	0
22.56949	0.01466813	0.05317198	0	0	0	0
22.58606	0.01466813	0.05317198	0	0	0	0
22.60262	0.01466813	0.05317198	0	0	0	0
22.61919	0.01466813	0.05317198	0	0	0	0
22.636	0.01466813	0.05317198	0	0	0	0
22.65232	0.01466813	0.05317198	0	0	0	0
22.66889	0.01466813	0.05317198	0	0	0	0
22.68546	0.01466813	0.05317198	0	0	0	0
22.70203	0.01466813	0.05317198	0	0	0	0
22.71859	0.01466813	0.05317198	0	0	0	0
22.7352	0.01466813	0.05317198	0	0	0	0
22.75173	0.01466813	0.05317198	0	0	0	0
22.7683	0.01466813	0.05317198	0	0	0	0
22.78486	0.01466813	0.05317198	0	0	0	0
22.80143	0.01466813	0.05317198	0	0	0	0
22.8181	0.01466813	0.05317198	0	0	0	0
22.83476	0.01466813	0.05317198	0	0	0	0
22.85113	0.01466813	0.05317198	0	0	0	0
22.8677	0.01466813	0.05317198	0	0	0	0
22.88426	0.01466813	0.05317198	0	0	0	0
22.90083	0.01466813	0.05317198	0	0	0	0
22.91761	0.01466813	0.05317198	0	0	0	0
22.93415	0.01466813	0.05317198	0	0	0	0
22.95053	0.01466813	0.05317198	0	0	0	0
22.9671	0.01466813	0.05317198	0	0	0	0
22.98408	0.01466813	0.05317198	0	0	0	0
23.00052	0.01466813	0.05317198	0	0	0	0
23.0168	0.0110011	0.05683902	-0.2253114	0.2253112	-6.886729	6.886722
23.03336	-0.001222344	0.06784011	-0.7378085	0.6640276	-15.60463	13.35814
23.05038	-0.02077986	0.08373059	-1.149397	0.9338849	-12.25597	8.035607
23.0665	-0.04644909	0.1093998	-1.592671	1.592671	-13.37882	19.88335
23.08306	-0.08067473	0.1411808	-2.066339	1.918744	-14.49391	9.977603
23.09963	-0.1295685	0.1876299	-2.950216	2.802705	-26.6739	26.67645
23.1162	-0.1442366	0.2010757	-0.8855735	0.8117758	62.30745	-60.0829
23.13276	-0.1674612	0.2230779	-1.401837	1.328056	-15.58264	15.58315
23.14933	-0.1870187	0.241413	-1.180494	1.106713	6.680121	-6.680146
23.1659	-0.2029092	0.2548588	-0.9591512	0.8115898	6.680148	-8.906827
23.18286	-0.2175773	0.2670822	-0.8645666	0.7204715	2.820634	-2.717264
23.19903	-0.2298008	0.2780834	-0.7560898	0.6804802	3.274025	-1.20701
23.21561	-0.2359125	0.2829728	-0.3685642	0.2948531	11.83314	-11.77517
23.23216	-0.2383572	0.2841951	-0.1476975	0.07384874	6.66577	-6.669926
23.24873	-0.2383572	0.2841951	0	0	4.459572	-2.229786
23.2653	-0.2383572	0.2841951	0	0	0	0
23.28186	-0.2383572	0.2841951	0	0	0	0
23.29856	-0.2383572	0.2841951	0	0	0	0
23.315	-0.2383572	0.2841951	0	0	0	0
23.332	-0.2383572	0.2841951	0	0	0	0
23.34813	-0.2383572	0.2841951	0	0	0	0
23.3647	-0.2383572	0.2841951	0	0	0	0
23.38127	-0.2383572	0.2841951	0	0	0	0
23.3979	-0.2371348	0.2841951	0.07346867	0	2.212703	0
23.41483	-0.2298008	0.2756387	0.4333538	-0.5055823	10.72309	-15.06426
23.4314	-0.2139103	0.2597482	0.9588209	-0.95882	15.68706	-13.53076
23.44754	-0.1943528	0.2389684	1.212029	-1.28778	7.741206	-10.05713
23.4641	-0.1674612	0.2169661	1.623179	-1.328057	12.57208	-1.231581
23.48067	-0.1234568	0.1851852	2.656417	-1.918522	31.185	-17.82132
23.49752	-0.09900989	0.16685	1.450403	-1.087803	-36.08598	24.85654
23.5138	-0.07456302	0.1521819	1.501899	-0.901139	1.554218	5.633851
23.53037	-0.05500551	0.1399585	1.18063	-0.7378931	-9.782068	4.970549
23.5474	-0.04155971	0.1301797	0.7892374	-0.5739922	-11.64797	4.877748
23.5635	-0.03544799	0.1265127	0.3797465	-0.2278467	-12.35989	10.4479
23.58006	-0.03178096	0.124068	0.2213426	-0.1475624	-4.849874	2.458077
23.59663	-0.03055861	0.1228456	0.07378083	-0.07378028	-4.453424	2.226748
23.61328	-0.02933627	0.1216233	0.0734092	-0.07340931	-0.01118763	0.01116744
23.62979	-0.02811392	0.1204009	0.0740621	-0.0740621	0.01969215	-0.01968878
23.64633	-0.02811392	0.1204009	0	0	-2.241004	2.241004
23.6633	-0.02689158	0.1204009	0.07205535	0	2.150373	0
23.67947	-0.02566923	0.1191786	0.07559109	-0.07559086	0.1067088	-2.281337
23.69603	-0.0220022	0.1167339	0.2213425	-0.1475619	4.452093	-2.198412
23.71506	-0.02077986	0.1155116	0.06425319	-0.06425339	-4.413722	2.34071
23.73217	-0.01589048	0.1118445	0.2856839	-0.2142626	6.127274	-4.150948
23.74837	-0.01589048	0.1118445	0	0	-8.576045	6.432024
23.76476	-0.009778756	0.1081775	0.3728535	-0.2237126	11.4411	-6.864674
23.7817	-0.008556411	0.1069551	0.07214464	-0.07214448	-9.020888	4.546852
23.79789	-0.006111722	0.1057328	0.1510039	-0.07550181	2.380113	-0.1013304
23.81446	-0.003667034	0.1045105	0.1475447	-0.07377223	-0.1055941	0.05279772
23.83103	-0.002444689	0.1032881	0.07378936	-0.07378967	-2.225941	-0.0005263949
23.8476	0	0.1020658	0.1475617	-0.07378072	2.226582	0.0002700712
23.86426	0.001222345	0.1008434	0.07334179	-0.07334165	-2.233277	0.01321162
23.88073	0.001222345	0.1008434	0	0	-2.213205	2.213201
23.8973	0.001222345	0.1008434	0	0	0	0
23.91387	0.001222345	0.1008434	0	0	0	0
23.93055	0.001222345	0.1008434	0	0	0	0
23.947	0.001222345	0.1008434	0	0	0	0
23.96442	0.001222345	0.1008434	0	0	0	0
23.98024	0.001222345	0.1008434	0	0	0	0
23.9967	0.001222345	0.1008434	0	0	0	0
24.01327	0.001222345	0.1008434	0	0	0	0
24.02993	0.001222345	0.1008434	0	0	0	0
24.0464	0.001222345	0.1008434	0	0	0	0
24.06317	0.001222345	0.1008434	0	0	0	0
24.07953	0.001222345	0.1008434	0	0	0	0
24.0961	0.001222345	0.1008434	0	0	0	0
24.11307	0.001222345	0.09962107	0	-0.07202329	0	-2.147461
24.12923	0.001222345	0.09962107	0	0	0	2.173793
24.14656	0.001222345	0.09962107	0	0	0	0
24.16237	0.001222345	0.09962107	0	0	0	0
24.17893	0.001222345	0.09962107	0	0	0	0
24.19551	0.001222345	0.09962107	0	0	0	0
24.21207	0.001222345	0.09962107	0	0	0	0
24.22864	0.001222345	0.09962107	0	0	0	0
24.24525	0.001222345	0.09962107	0	0	0	0
24.26177	0.001222345	0.09962107	0	0	0	0
24.27834	0.001222345	0.09962107	0	0	0	0
24.2949	0.001222345	0.09962107	0	0	0	0
24.31196	0.001222345	0.09962107	0	0	0	0
24.32837	0.001222345	0.09962107	0	0	0	0
24.3446	0.001222344	0.09839873	-7.170484E-09	-0.07528893	-2.196424E-07	-2.30621
24.36117	0.001222344	0.09839873	0	0	2.185951E-07	2.295213
24.37783	0.002444689	0.09717639	0.07338378	-0.07338364	2.208751	-2.208747
24.3943	0.003667034	0.0971764	0.07419087	4.522169E-07	0.02435947	2.214864
24.41087	0.006111723	0.0947317	0.1475617	-0.1475619	2.220472	-4.465779
24.42744	0.008556412	0.09350935	0.1475617	-0.07378118	-8.994359E-07	2.226707
24.44401	0.009778757	0.09228701	0.07374693	-0.07374676	-2.227221	0.001038385
24.46057	0.01344579	0.08984231	0.2214189	-0.1476133	4.456493	-2.229169
24.47716	0.01466813	0.08984233	0.07370458	8.985049E-07	-4.456489	4.453468
24.49383	0.01589048	0.08984231	0.07332493	-8.938787E-07	-0.01141651	-5.389878E-05
24.51027	0.01589048	0.08984231	0	0	-2.214353	2.699441E-05
24.52684	0.01589048	0.08984231	0	0	0	0
24.5434	0.01589048	0.08984231	0	0	0	0
24.55997	0.01589048	0.08984231	0	0	0	0
24.57653	0.01589048	0.08984231	0	0	0	0
24.5933	0.01711282	0.08861998	0.0729163	-0.07291563	2.187898	-2.187878
24.60967	0.01711282	0.08861998	0	0	-2.200492	2.200471
24.62626	0.01711282	0.08861998	0	0	0	0
24.64316	0.01711282	0.08861998	0	0	0	0
24.65937	0.01711282	0.08861998	0	0	0	0
24.67594	0.01711282	0.08861998	0	0	0	0
24.6925	0.01711282	0.08739763	0	-0.07378118	0	-2.22672
24.70907	0.01833517	0.08617529	0.07378083	-0.07378072	2.22671	1.37164E-05
24.72564	0.01955751	0.08373059	0.07378083	-0.1475619	0	-2.22672
24.74221	0.02077986	0.08373059	0.07378083	0	0	4.453427
24.75877	0.02077986	0.08250825	1.124295E-07	-0.07378072	-2.226707	-2.226707
24.77534	0.02077986	0.08250825	0	0	-3.393129E-06	2.226707
24.79191	0.02077986	0.08250825	0	0	0	0
24.80847	0.02077986	0.08250825	0	0	0	0
24.82504	0.02077986	0.08250825	0	0	0	0
24.84191	0.02077986	0.08250825	0	0	0	0
24.85817	0.02077986	0.08128591	-1.144991E-07	-0.07513887	-3.45539E-06	-2.267565
24.87474	0.0220022	0.08006357	0.07378095	-0.07378072	2.247024	0.04136268
24.89131	0.0220022	0.08006357	0	0	-2.226713	2.226707
24.90796	0.0220022	0.08006357	0	0	0	0
24.92449	0.0220022	0.08006357	0	0	0	0
24.94107	0.0220022	0.08006357	0	0	0	0
24.95757	0.0220022	0.08006357	0	0	0	0
24.97433	0.0220022	0.08006357	0	0	0	0
24.99071	0.0220022	0.08006357	0	0	0	0
25.00727	0.0220022	0.08006357	0	0	0	0
25.02384	0.0220022	0.07884122	0	-0.07378072	0	-2.226707
25.04041	0.0220022	0.07884122	0	0	0	2.226835
25.05821	0.0220022	0.07884122	0	0	0	0
25.07478	0.0220022	0.07884122	0	0	0	0
25.09135	0.0220022	0.07884122	0	0	0	0
25.10831	0.0220022	0.07884122	0	0	0	0
25.12448	0.0220022	0.07884122	0	0	0	0
25.14105	0.0220022	0.07884122	0	0	0	0
25.15762	0.0220022	0.07884122	0	0	0	0
25.17418	0.0220022	0.07884122	0	0	0	0
25.19075	0.0220022	0.07884122	0	0	0	0
25.20731	0.0220022	0.07884122	0	0	0	0
25.22388	0.0220022	0.07884122	0	0	0	0
25.24068	0.0220022	0.07884122	0	0	0	0
25.25702	0.0220022	0.07884122	0	0	0	0
25.27358	0.0220022	0.07884122	0	0	0	0
25.29015	0.0220022	0.07884122	0	0	0	0
25.30675	0.0220022	0.07884122	0	0	0	0
25.32328	0.0220022	0.07884122	0	0	0	0
25.33985	0.0220022	0.07884122	0	0	0	0
25.35641	0.0220022	0.07884122	0	0	0	0
25.37298	0.0220022	0.07884122	0	0	0	0
25.38955	0.0220022	0.07884122	0	0	0	0
25.40611	0.0220022	0.07884122	0	0	0	0
25.42268	0.0220022	0.07884122	0	0	0	0
25.4395	0.0220022	0.07884122	0	0	0	0
25.45582	0.0220022	0.07884122	0	0	0	0
25.47238	0.0220022	0.07884122	0	0	0	0
25.48918	0.0220022	0.07884122	0	0	0	0
25.50552	0.0220022	0.07884122	0	0	0	0
25.52209	0.0220022	0.07884122	0	0	0	0
25.53887	0.0220022	0.07884122	0	0	0	0
25.55544	0.0220022	0.07884122	0	0	0	0
25.57179	0.0220022	0.07884122	0	0	0	0
25.58835	0.0220022	0.07884122	0	0	0	0
25.60492	0.0220022	0.07884122	0	0	0	0
25.62149	0.0220022	0.07761887	-1.124424E-07	-0.07378967	-3.393715E-06	-2.227105
25.63805	0.0220022	0.07761887	0	0	3.393715E-06	2.227105
25.65462	0.0220022	0.07639652	0	-0.07378118	0	-2.22672
25.67148	0.0220022	0.07639652	0	0	0	2.207532
25.68791	0.0220022	0.07639652	0	0	0	0
25.70445	0.0220022	0.07517419	1.12611E-07	-0.07389939	3.415515E-06	-2.241384
25.72094	0.0220022	0.07517419	0	0	-3.409401E-06	2.237371
25.73745	0.0220022	0.07517419	0	0	0	0
25.75402	0.0220022	0.07517419	0	0	0	0
25.77059	0.0220022	0.07517419	0	0	0	0
25.78716	0.0220022	0.07517419	0	0	0	0
25.80372	0.0220022	0.07517419	0	0	0	0
25.82029	0.0220022	0.07517419	0	0	0	0
25.83686	0.0220022	0.07517419	0	0	0	0
25.85342	0.0220022	0.07517419	0	0	0	0
25.86999	0.0220022	0.07517419	0	0	0	0
25.88656	0.0220022	0.07517419	0	0	0	0
25.90312	0.0220022	0.07517419	0	0	0	0
25.91969	0.0220022	0.07517419	0	0	0	0
25.93626	0.0220022	0.07517419	0	0	0	0
25.95283	0.0220022	0.07517419	0	0	0	0
25.96939	0.0220022	0.07517419	0	0	0	0
25.98596	0.0220022	0.07517419	0	0	0	0
26.00253	0.0220022	0.07517419	0	0	0	0
26.0191	0.0220022	0.07517419	0	0	0	0
26.03572	0.0220022	0.07517419	0	0	0	0
26.05223	0.0220022	0.07517419	0	0	0	0
26.06884	0.0220022	0.07517419	0	0	0	0
26.08536	0.0220022	0.07517419	0	0	0	0
26.10192	0.0220022	0.07517419	0	0	0	0
26.11849	0.0220022	0.07517419	0	0	0	0
26.13529	0.0220022	0.07517419	0	0	0	0
26.15217	0.0220022	0.07517419	0	0	0	0
26.16819	0.0220022	0.07517419	0	0	0	0
26.18476	0.0220022	0.07517419	0	0	0	0
26.20132	0.0220022	0.07517419	0	0	0	0
26.21789	0.0220022	0.07517419	0	0	0	0
26.23446	0.0220022	0.07517419	0	0	0	0
26.25146	0.0220022	0.07517419	0	0	0	0
26.28975	0.0220022	0.07517419	0	0	0	0
26.3065	0.0220022	0.07517419	0	0	0	0
26.323	0.0220022	0.07517419	0	0	0	0
26.33951	0.0220022	0.07517419	0	0	0	0
26.35602	0.0220022	0.07517419	0	0	0	0
26.37259	0.0220022	0.07517419	0	0	0	0
26.38923	0.0220022	0.07517419	0	0	0	0
26.40572	0.0220022	0.07517419	0	0	0	0
26.42229	0.0220022	0.07517419	0	0	0	0
26.43886	0.0220022	0.07517419	0	0	0	0
26.45585	0.0220022	0.07517419	0	0	0	0
26.47203	0.0220022	0.07517419	0	0	0	0
26.48856	0.0220022	0.07517419	0	0	0	0
26.50513	0.0220022	0.07517419	0	0	0	0
26.52169	0.0220022	0.07517419	0	0	0	0
26.53828	0.0220022	0.07517419	0	0	0	0
26.55501	0.0220022	0.07517419	0	0	0	0
26.57139	0.0220022	0.07517419	0	0	0	0
26.58796	0.0220022	0.07517419	0	0	0	0
26.60453	0.0220022	0.07517419	0	0	0	0
26.62119	0.0220022	0.07517419	0	0	0	0
26.63766	0.0220022	0.07517419	0	0	0	0
26.65423	0.0220022	0.07517419	0	0	0	0
26.6709	0.0220022	0.07517419	0	0	0	0
26.68736	0.0220022	0.07517419	0	0	0	0
26.70432	0.0220022	0.07517419	0	0	0	0
26.72049	0.0220022	0.07517419	0	0	0	0
26.73706	0.0220022	0.07517419	0	0	0	0
26.75363	0.0220022	0.07517419	0	0	0	0
26.77079	0.0220022	0.07517419	0	0	0	0
26.78751	0.0220022	0.07517419	0	0	0	0
26.80406	0.0220022	0.07517419	0	0	0	0
26.81989	0.0220022	0.07517419	0	0	0	0
26.83698	0.0220022	0.07517419	0	0	0	0
26.8531	0.0220022	0.07517419	0	0	0	0
26.86972	0.0220022	0.07517419	0	0	0	0
26.88624	0.0220022	0.07517419	0	0	0	0
26.90273	0.0220022	0.07517419	0	0	0	0
26.9193	0.0220022	0.07517419	0	0	0	0
26.936	0.0220022	0.07517419	0	0	0	0
26.95243	0.0220022	0.07517419	0	0	0	0
26.969	0.0220022	0.07517419	0	0	0	0
26.986	0.0220022	0.07517419	0	0	0	0
27.00215	0.0220022	0.07517419	0	0	0	0
27.0187	0.0220022	0.07517419	0	0	0	0
27.04036	0.0220022	0.07517419	0	0	0	0
27.05693	0.0220022	0.07517419	0	0	0	0
27.07359	0.0220022	0.07517419	0	0	0	0
27.09006	0.0220022	0.07517419	0	0	0	0
27.10663	0.0220022	0.07517419	0	0	0	0
27.1232	0.0220022	0.07517419	0	0	0	0
27.14034	0.0220022	0.07517419	0	0	0	0
27.15633	0.0220022	0.07517419	0	0	0	0
27.1729	0.0220022	0.07517419	0	0	0	0
27.18946	0.0220022	0.07517419	0	0	0	0
27.20631	0.0220022	0.07517419	0	0	0	0
27.2226	0.0220022	0.07517419	0	0	0	0
27.23916	0.0220022	0.07517419	0	0	0	0
27.25573	0.0220022	0.07517419	0	0	0	0
27.2724	0.0220022	0.07517419	0	0	0	0
27.28893	0.0220022	0.07517419	0	0	0	0
27.30543	0.0220022	0.07517419	0	0	0	0
27.3222	0.0220022	0.07517419	0	0	0	0
27.33856	0.0220022	0.07517419	0	0	0	0
27.35513	0.0220022	0.07517419	0	0	0	0
27.37219	0.0220022	0.07517419	0	0	0	0
27.38826	0.0220022	0.07517419	0	0	0	0
27.40483	0.0220022	0.07517419	0	0	0	0
27.42139	0.0220022	0.07517419	0	0	0	0
27.43796	0.0220022	0.07517419	0	0	0	0
27.45453	0.0220022	0.07517419	0	0	0	0
27.47109	0.0220022	0.07517419	0	0	0	0
27.48775	0.0220022	0.07517419	0	0	0	0
27.50427	0.0220022	0.07517419	0	0	0	0
27.52117	0.0220022	0.07517419	0	0	0	0
27.53743	0.0220022	0.07517419	0	0	0	0
27.55431	0.0220022	0.07517419	0	0	0	0
27.57049	0.0220022	0.07517419	0	0	0	0
27.58706	0.0220022	0.07517419	0	0	0	0
27.60363	0.0220022	0.07517419	0	0	0	0
27.62031	0.0220022	0.07517419	0	0	0	0
27.63676	0.0220022	0.07517419	0	0	0	0
27.65332	0.0220022	0.07517419	0	0	0	0
27.66989	0.0220022	0.07517419	0	0	0	0
27.68646	0.0220022	0.07517419	0	0	0	0
27.70337	0.0220022	0.07517419	0	0	0	0
27.72316	0.0220022	0.07517419	0	0	0	0
27.73973	0.0220022	0.07517419	0	0	0	0
27.75641	0.0220022	0.07517419	0	0	0	0
27.77318	0.0220022	0.07517419	0	0	0	0
27.78961	0.0220022	0.07517419	0	0	0	0
27.806	0.0220022	0.07517419	0	0	0	0
27.82269	0.0220022	0.07517419	0	0	0	0
27.83913	0.0220022	0.07517419	0	0	0	0
27.85569	0.0220022	0.07517419	0	0	0	0
27.87228	0.0220022	0.07517419	0	0	0	0
27.88883	0.0220022	0.07517419	0	0	0	0
27.90539	0.0220022	0.07517419	0	0	0	0
27.92196	0.0220022	0.07517419	0	0	0	0
27.93853	0.0220022	0.07517419	0	0	0	0
27.9551	0.0220022	0.07517419	0	0	0	0
27.97166	0.0220022	0.07517419	0	0	0	0
27.98823	0.0220022	0.07517419	0	0	0	0
28.0048	0.0220022	0.07517419	0	0	0	0
28.02136	0.0220022	0.07517419	0	0	0	0
28.03793	0.0220022	0.07517419	0	0	0	0
28.0545	0.0220022	0.07517419	0	0	0	0
28.07115	0.0220022	0.07517419	0	0	0	0
28.08763	0.0220022	0.07517419	0	0	0	0
28.10428	0.0220022	0.07517419	0	0	0	0
28.1208	0.0220022	0.07517419	0	0	0	0
28.13747	0.0220022	0.07517419	0	0	0	0
28.1539	0.0220022	0.07517419	0	0	0	0
28.17047	0.0220022	0.07517419	0	0	0	0
28.18764	0.0220022	0.07517419	0	0	0	0
28.2036	0.0220022	0.07517419	0	0	0	0
28.22017	0.0220022	0.07517419	0	0	0	0
28.23674	0.0220022	0.07517419	0	0	0	0
28.25343	0.0220022	0.07517419	0	0	0	0
28.26993	0.0220022	0.07517419	0	0	0	0
28.28643	0.0220022	0.07517419	0	0	0	0
28.303	0.0220022	0.07517419	0	0	0	0
28.31957	0.0220022	0.07517419	0	0	0	0
28.33613	0.0220022	0.07517419	0	0	0	0
28.3527	0.0220022	0.07517419	0	0	0	0
28.36949	0.0220022	0.07517419	0	0	0	0
28.38584	0.0220022	0.07517419	0	0	0	0
28.40248	0.0220022	0.07517419	0	0	0	0
28.41897	0.0220022	0.07517419	0	0	0	0
28.43554	0.0220022	0.07517419	0	0	0	0
28.45211	0.0220022	0.07517419	0	0	0	0
28.46867	0.0220022	0.07517419	0	0	0	0
28.48524	0.0220022	0.07517419	0	0	0	0
28.50197	0.0220022	0.07517419	0	0	0	0
28.51838	0.0220022	0.07517419	0	0	0	0
28.53494	0.0220022	0.07517419	0	0	0	0
28.5518	0.0220022	0.07517419	0	0	0	0
28.56808	0.0220022	0.07517419	0	0	0	0
28.58464	0.0220022	0.07517419	0	0	0	0
28.60135	0.0220022	0.07517419	0	0	0	0
28.61788	0.0220022	0.07517419	0	0	0	0
28.63437	0.0220022	0.07517419	0	0	0	0
28.65091	0.0220022	0.07517419	0	0	0	0
28.66747	0.0220022	0.07517419	0	0	0	0
28.68412	0.0220022	0.07517419	0	0	0	0
28.70067	0.0220022	0.07517419	0	0	0	0
28.71717	0.0220022	0.07517419	0	0	0	0
28.73374	0.0220022	0.07517419	0	0	0	0
28.75045	0.0220022	0.07517419	0	0	0	0
28.76687	0.0220022	0.07517419	0	0	0	0
28.78344	0.0220022	0.07517419	0	0	0	0
28.80001	0.0220022	0.07517419	0	0	0	0
28.81657	0.0220022	0.07517419	0	0	0	0
28.83349	0.0220022	0.07517419	0	0	0	0
28.84998	0.0220022	0.07517419	0	0	0	0
28.86628	0.0220022	0.07517419	0	0	0	0
28.88284	0.0220022	0.07517419	0	0	0	0
28.89941	0.0220022	0.07517419	0	0	0	0
28.91635	0.0220022	0.07517419	0	0	0	0
28.93254	0.0220022	0.07517419	0	0	0	0
28.94911	0.0220022	0.07517419	0	0	0	0
28.96598	0.0220022	0.07517419	0	0	0	0
28.98224	0.0220022	0.07517419	0	0	0	0
28.99904	0.0220022	0.07517419	0	0	0	0
29.01538	0.0220022	0.07517419	0	0	0	0
29.03204	0.0220022	0.07517419	0	0	0	0
29.04959	0.0220022	0.07517419	0	0	0	0
29.06616	0.0220022	0.07517419	0	0	0	0
29.08273	0.0220022	0.07517419	0	0	0	0
29.0993	0.0220022	0.07517419	0	0	0	0
29.11586	0.0220022	0.07517419	0	0	0	0
29.13245	0.0220022	0.07517419	0	0	0	0
29.149	0.0220022	0.07517419	0	0	0	0
29.16574	0.0220022	0.07517419	0	0	0	0
29.18213	0.0220022	0.07517419	0	0	0	0
29.19879	0.0220022	0.07517419	0	0	0	0
29.21527	0.0220022	0.07517419	0	0	0	0
29.23183	0.0220022	0.07517419	0	0	0	0
29.24841	0.0220022	0.07517419	0	0	0	0
29.26588	0.0220022	0.07517419	0	0	0	0
29.28194	0.0220022	0.07517419	0	0	0	0
29.29809	0.0220022	0.07517419	0	0	0	0
29.31466	0.0220022	0.07517419	0	0	0	0
29.33129	0.0220022	0.07517419	0	0	0	0
29.34779	0.0220022	0.07517419	0	0	0	0
29.36451	0.0220022	0.07517419	0	0	0	0
29.38167	0.0220022	0.07517419	0	0	0	0
29.3975	0.0220022	0.07517419	0	0	0	0
29.41407	0.0220022	0.07517419	0	0	0	0
29.43078	0.0220022	0.07517419	0	0	0	0
29.4472	0.0220022	0.07517419	0	0	0	0
29.46377	0.0220022	0.07517419	0	0	0	0
29.48039	0.0220022	0.07517419	0	0	0	0
29.4969	0.0220022	0.07517419	0	0	0	0
29.51366	0.0220022	0.07517419	0	0	0	0
29.53003	0.0220022	0.07517419	0	0	0	0
29.5466	0.0220022	0.07517419	0	0	0	0
29.56327	0.0220022	0.07517419	0	0	0	0
29.57985	0.0220022	0.07517419	0	0	0	0
29.5963	0.0220022	0.07517419	0	0	0	0
29.61287	0.0220022	0.07517419	0	0	0	0
29.62943	0.0220022	0.07517419	0	0	0	0
29.646	0.0220022	0.07517419	0	0	0	0
29.66257	0.0220022	0.07517419	0	0	0	0
29.67913	0.0220022	0.07517419	0	0	0	0
29.6957	0.0220022	0.07517419	0	0	0	0
29.71277	0.0220022	0.07517419	0	0	0	0
29.72934	0.0220022	0.07517419	0	0	0	0
29.74591	0.0220022	0.07517419	0	0	0	0
29.76248	0.0220022	0.07517419	0	0	0	0
29.77943	0.0220022	0.07517419	0	0	0	0
29.79593	0.0220022	0.07517419	0	0	0	0
29.81218	0.0220022	0.07517419	0	0	0	0
29.82875	0.0220022	0.07395184	0	-0.07378118	0	-2.248334
29.84554	0.02444689	0.07150716	0.1455839	-0.1455837	4.364088	-2.152384
29.86188	0.02689158	0.06784012	0.1496115	-0.2244172	0.1215595	-2.379336
29.87845	0.03055861	0.06295075	0.2213426	-0.2951233	2.179782	-2.148634
29.89502	0.0330033	0.06050605	0.1475446	-0.1475451	-2.227101	4.453662
29.91158	0.03422565	0.05928371	0.07379794	-0.07379772	-2.225806	2.22583
29.92815	0.03667034	0.05806137	0.1475619	-0.07378072	2.226457	0.0005129623
29.94472	0.03667033	0.05683902	-2.248331E-07	-0.07377268	-4.453177	0.0002426089
29.96128	0.03789268	0.05683902	0.07379772	2.249107E-07	2.227355	2.226599
29.97816	0.03911502	0.05561668	0.07243826	-0.07243805	-0.04065633	-2.166363
29.99442	0.04155971	0.05439433	0.1503311	-0.07516553	2.350674	-0.08231096
30.01157	0.04155971	0.05439433	0	0	-4.498674	2.249337
30.02755	0.04767144	0.0507273	0.3826033	-0.2295618	11.54899	-6.929386
30.04411	0.0550055	0.04950495	0.4426848	-0.07378118	1.846316	4.78717
30.06068	0.06233957	0.04706027	0.4426852	-0.1475614	1.349154E-05	-2.226693
30.07744	0.06967364	0.04583792	0.4376472	-0.07294119	-0.1511794	2.239154
30.09381	0.07578535	0.04339323	0.3732002	-0.1492805	-1.945013	-2.303926
30.11038	0.07945239	0.04339323	0.2213681	0	-4.609099	4.531642
30.12735	0.08311942	0.04217089	0.216069	-0.07202286	-0.1580077	-2.14757
30.1442	0.08434177	0.04217089	0.07256151	0	-4.243613	2.129764
30.16008	0.08434177	0.04217089	0	0	-2.217095	0
30.17665	0.08434177	0.04217089	0	0	0	0
30.19336	0.08434177	0.04217089	0	0	0	0
30.20978	0.08434177	0.04217089	0	0	0	0
30.22635	0.08434177	0.04217089	0	0	0	0
30.24291	0.08434177	0.03850385	0	-0.2213426	0	-6.680134
30.25948	0.08189708	0.02383572	-0.1475619	-0.8853704	-4.453427	-20.0404
30.27871	0.0660066	-0.03361448	-0.8265887	-2.988436	-18.97179	-58.75896
30.29528	0.04522675	-0.1069551	-1.253986	-4.425832	-11.94006	-40.15611
30.31184	0.04033737	-0.1289573	-0.2951576	-1.328209	28.93582	93.48109
30.32841	0.03178096	-0.1656277	-0.5165254	-2.213681	-6.681665	-26.72668
30.34512	0.02566924	-0.1888522	-0.365788	-1.389994	4.530229	24.75491
30.36154	0.02077986	-0.2071874	-0.2976248	-1.116094	2.057051	8.26584
30.3782	0.01589048	-0.2243002	-0.2934679	-1.027137	0.1256278	2.68844
30.39468	0.01344579	-0.2328566	-0.1484161	-0.519457	4.377926	15.32268
30.41166	0.01222344	-0.2365237	-0.0719664	-0.2158987	2.285026	9.073142
30.42781	0.01222344	-0.2365237	0	0	2.171825	6.515461
30.44464	0.01222344	-0.237746	0	-0.07263597	0	-2.202427
30.46094	0.0110011	-0.2401907	-0.0749808	-0.1499612	-2.263186	-2.33395
30.47751	0.009778756	-0.2463024	-0.07378083	-0.3689036	0.03650699	-6.660992
30.49408	0.008556411	-0.2560812	-0.07378089	-0.5902467	-1.798872E-06	-6.680146
30.51162	0.007334067	-0.2670823	-0.06968146	-0.6271338	0.1201859	-1.081446
30.52772	0.007334067	-0.276861	0	-0.6073777	2.071275	0.5872495
30.54378	0.006111722	-0.280528	-0.07612075	-0.2283618	-2.367093	11.78609
30.56134	0.006111722	-0.2829728	2.650821E-08	-0.1391677	2.263839	2.652641
30.57691	0.006111722	-0.2829728	0	0	-7.999733E-07	4.199847
30.59385	0.006111722	-0.2854175	0	-0.144307	0	-4.438745
30.61004	0.006111723	-0.2890845	2.876303E-08	-0.2265054	8.6817E-07	-2.48104
30.62661	0.006111723	-0.2890845	0	0	-8.781803E-07	6.915565
30.64318	0.006111723	-0.2903068	0	-0.07377043	0	-2.226524
30.65974	0.006111723	-0.2903068	0	0	0	2.226396
30.67631	0.006111723	-0.2903068	0	0	0	0
30.69288	0.006111723	-0.2903068	0	0	0	0
30.70945	0.006111723	-0.2903068	0	0	0	0
30.72601	0.006111723	-0.2903068	0	0	0	0
30.74258	0.006111723	-0.2903068	0	0	0	0
30.75915	0.006111723	-0.2903068	0	0	0	0
30.77585	0.006111723	-0.2903068	0	0	0	0
30.79228	0.006111723	-0.2903068	0	0	0	0
30.80885	0.006111723	-0.2903068	0	0	0	0
30.82541	0.006111723	-0.2903068	0	0	0	0
30.84198	0.006111723	-0.2903068	0	0	0	0
30.85855	0.006111723	-0.2903068	0	0	0	0
30.87511	0.006111723	-0.2903068	0	0	0	0
30.89168	0.006111723	-0.2903068	0	0	0	0
30.90825	0.007334067	-0.2878621	0.07377232	0.1475445	2.226325	4.452644
30.92482	0.009778755	-0.2817504	0.1475617	0.3689054	2.226839	6.680303
30.94146	0.01344579	-0.2597482	0.220328	1.321965	2.191049	28.69732
30.95795	0.01711282	-0.2328566	0.222418	1.631067	0.06308335	9.329793
30.97528	0.01833517	-0.2035204	0.07050945	1.692227	-4.491279	1.808218
30.99108	0.02077986	-0.1815182	0.1547599	1.392839	2.542831	-9.036058
31.00803	0.0220022	-0.1582936	0.07209578	1.369822	-2.524013	-0.7027729
31.02421	0.02322454	-0.1350691	0.07556424	1.435721	0.1046904	1.989058
31.04078	0.02444689	-0.09717638	0.07377245	2.286943	-0.0547189	25.9952
31.05734	0.02444689	-0.08617529	-1.124424E-07	0.6641039	-2.22646	-48.97739
31.07412	0.02566924	-0.07150716	0.07285838	0.8742979	2.185163	6.304114
31.09048	0.02566924	-0.06050605	0	0.6724666	-2.198744	-6.09093
31.10705	0.02689158	-0.05317198	0.07378072	0.4426852	2.240766	-6.978603
31.12384	0.02811392	-0.0482826	0.07277553	0.2911019	-0.03012873	-4.54341
31.14018	0.02811392	-0.04461557	0	0.2244694	-2.196496	-2.01109
31.15728	0.02933627	-0.03605916	0.07147673	0.5003374	2.137607	8.250203
31.17342	0.03055861	-0.03116979	0.07572496	0.3028997	0.1277926	-5.939194
31.18988	0.03055861	-0.03116979	0	0	-2.322823	-9.291287
31.20663	0.03055861	-0.03116979	0	0	0	0
31.22301	0.03055861	-0.03116979	0	0	0	0
31.23958	0.03055861	-0.03116979	0	0	0	0
31.25615	0.03055861	-0.03116979	0	0	0	0
31.27271	0.03055861	-0.03116979	0	0	0	0
31.28928	0.03055861	-0.03116979	0	0	0	0
31.30585	0.03055861	-0.03116979	0	0	0	0
31.32241	0.03055861	-0.03116979	0	0	0	0
31.33898	0.03055861	-0.03116979	0	0	0	0
31.35555	0.03055861	-0.03116979	0	0	0	0
31.37212	0.03055861	-0.03116979	0	0	0	0
31.38868	0.03055861	-0.03116979	0	0	0	0
31.40525	0.03055861	-0.03116979	0	0	0	0
31.42182	0.03055861	-0.03116979	0	0	0	0
31.43838	0.03055861	-0.03116979	0	0	0	0
31.45495	0.03055861	-0.03116979	0	0	0	0
31.47152	0.03055861	-0.03116979	0	0	0	0
31.48808	0.03055861	-0.03116979	0	0	0	0
31.50469	0.03055861	-0.03116979	0	0	0	0
31.52122	0.03055861	-0.03116979	0	0	0	0
31.53778	0.03055861	-0.03116979	0	0	0	0
31.55435	0.03055861	-0.03116979	0	0	0	0
31.57133	0.03055861	-0.03116979	0	0	0	0
31.58749	0.03055861	-0.03116979	0	0	0	0
31.60405	0.03055861	-0.03116979	0	0	0	0
31.62062	0.03055861	-0.03116979	0	0	0	0
31.63736	0.03055861	-0.03116979	0	0	0	0
31.65375	0.03055861	-0.03116979	0	0	0	0
31.67045	0.03055861	-0.03116979	0	0	0	0
31.68689	0.03055861	-0.03116979	0	0	0	0
31.70763	0.03055861	-0.03116979	0	0	0	0
31.7242	0.03055861	-0.03116979	0	0	0	0
31.74079	0.03055861	-0.03116979	0	0	0	0
31.75772	0.03055861	-0.03116979	0	0	0	0
31.77405	0.03055861	-0.03116979	0	0	0	0
31.79064	0.03055861	-0.03116979	0	0	0	0
31.80703	0.03055861	-0.03116979	0	0	0	0
31.8236	0.03055861	-0.03116979	0	0	0	0
31.84016	0.03055861	-0.03116979	0	0	0	0
31.85673	0.03055861	-0.03116979	0	0	0	0
31.8733	0.03055861	-0.03116979	0	0	0	0
31.88987	0.03055861	-0.03116979	0	0	0	0
31.90643	0.03055861	-0.03116979	0	0	0	0
31.923	0.03055861	-0.03116979	0	0	0	0
31.93957	0.03055861	-0.03116979	0	0	0	0
31.95613	0.03055861	-0.03116979	0	0	0	0
31.9727	0.03055861	-0.03116979	0	0	0	0
31.98927	0.03055861	-0.03116979	0	0	0	0
32.00583	0.03055861	-0.03116979	0	0	0	0
32.0224	0.03055861	-0.03116979	0	0	0	0
32.03897	0.03055861	-0.03116979	0	0	0	0
32.05553	0.03055861	-0.03116979	0	0	0	0
32.0724	0.03055861	-0.03116979	0	0	0	0
32.08867	0.03055861	-0.03116979	0	0	0	0
32.10524	0.03055861	-0.03116979	0	0	0	0
32.1218	0.03055861	-0.03116979	0	0	0	0
32.13839	0.03055861	-0.03116979	0	0	0	0
32.15494	0.03055861	-0.03116979	0	0	0	0
32.17197	0.03055861	-0.03116979	0	0	0	0
32.18814	0.03055861	-0.03116979	0	0	0	0
32.20464	0.03055861	-0.03116979	0	0	0	0
32.22121	0.03055861	-0.03116979	0	0	0	0
32.2379	0.03055861	-0.03116979	0	0	0	0
32.25434	0.03178096	-0.03116979	0.07431138	0	2.242722	0
32.27091	0.03178096	-0.03116979	0	0	-2.251015	0
32.2883	0.03178096	-0.03116979	0	0	0	0
32.30434	0.03178096	-0.03116979	0	0	0	0
32.32067	0.03178096	-0.03116979	0	0	0	0
32.3375	0.03178096	-0.03116979	0	0	0	0
32.35374	0.03178096	-0.03116979	0	0	0	0
32.3703	0.03178096	-0.03116979	0	0	0	0
32.38687	0.03178096	-0.03116979	0	0	0	0
32.40359	0.03178096	-0.03116979	0	0	0	0
32.4203	0.03178096	-0.03116979	0	0	0	0
32.43657	0.03178096	-0.03116979	0	0	0	0
32.45314	0.03178096	-0.03116979	0	0	0	0
32.46986	0.03178096	-0.03116979	0	0	0	0
32.48627	0.03178096	-0.03116979	0	0	0	0
32.50284	0.03178096	-0.03116979	0	0	0	0
32.51941	0.03178096	-0.03116979	0	0	0	0
32.53597	0.03178096	-0.03116979	0	0	0	0
32.55254	0.03178096	-0.03116979	0	0	0	0
32.56929	0.03178095	-0.02994744	-2.223503E-07	0.07295791	-6.673666E-06	2.189773
32.58567	0.03178096	-0.02628041	2.274249E-07	0.2238682	1.357424E-05	4.554482
32.60224	0.03178096	-0.02383572	0	0.1475616	-6.902636E-06	-2.316004
32.619	0.03178096	-0.02261337	0	0.0729413	0	-2.239155
32.63537	0.03178096	-0.02016868	0	0.1493152	0	2.305234
32.65201	0.03178095	-0.01894634	-2.238795E-07	0.07345935	-6.781682E-06	-2.297799
32.6685	0.03178096	-0.01650165	2.25847E-07	0.1482101	1.357277E-05	2.255981
32.68507	0.03178096	-0.01650165	0	0	-6.831019E-06	-4.482795
32.70164	0.03178096	-0.01527931	0	0.07378095	0	2.226713
32.7182	0.03178096	-0.01527931	0	0	0	-2.226713
32.73556	0.03055861	-0.01527931	-0.07042421	-5.365728E-08	-2.075934	-1.581686E-06
32.75134	0.03055861	-0.01405696	-1.180564E-07	0.07747351	2.125403	2.338157
32.76791	0.03055861	-0.01405696	0	0	3.649932E-06	-2.395237
32.78471	0.02933627	-0.01283462	-0.07275879	0.0727589	-2.180551	2.180554
32.80104	0.02933627	-0.01161227	-1.140311E-07	0.0748319	2.195861	0.06256319
32.8176	0.02933627	-0.01161227	0	0	3.466208E-06	-2.274668
32.83426	0.02933627	-0.01161227	0	0	0	0
32.8512	0.02933627	-0.01038993	-1.099733E-07	0.07216907	-3.273771E-06	2.148386
32.86731	0.02933627	-0.01038993	0	0	3.327811E-06	-2.183849
32.88387	0.02933627	-0.01038993	0	0	0	0
32.90044	0.02933627	-0.01038993	0	0	0	0
32.91701	0.02933627	-0.01038993	0	0	0	0
32.93357	0.02933627	-0.01038993	0	0	0	0
32.95057	0.02933627	-0.01038993	0	0	0	0
32.96671	0.02933627	-0.01038993	0	0	0	0
32.98343	0.02933627	-0.01038993	0	0	0	0
32.99984	0.02933627	-0.01038993	0	0	0	0
33.0164	0.02933627	-0.01038993	0	0	0	0
33.04071	0.02933627	-0.01038993	0	0	0	0
33.05729	0.02933627	-0.01038993	0	0	0	0
33.07385	0.02933627	-0.01038993	0	0	0	0
33.09042	0.02933627	-0.01038993	0	0	0	0
33.10699	0.02933627	-0.01038993	0	0	0	0
33.12355	0.02933627	-0.01038993	0	0	0	0
33.14012	0.02933627	-0.01038993	0	0	0	0
33.15669	0.02933627	-0.01038993	0	0	0	0
33.17346	0.02933627	-0.01038993	0	0	0	0
33.18982	0.02933627	-0.01038993	0	0	0	0
33.20639	0.02933627	-0.01038993	0	0	0	0
33.22296	0.02933627	-0.01038993	0	0	0	0
33.23952	0.02933627	-0.01038993	0	0	0	0
33.25609	0.02933627	-0.01038993	0	0	0	0
33.27266	0.02933627	-0.01038993	0	0	0	0
33.28934	0.02933627	-0.01038993	0	0	0	0
33.30579	0.02933627	-0.01038993	0	0	0	0
33.32235	0.02933627	-0.01038993	0	0	0	0
33.33944	0.02933627	-0.01038993	0	0	0	0
33.35549	0.02933627	-0.01038993	0	0	0	0
33.37206	0.02933627	-0.01038993	0	0	0	0
33.38865	0.02933627	-0.01038993	0	0	0	0
33.40519	0.02933627	-0.01038993	0	0	0	0
33.42187	0.02933627	-0.01038993	0	0	0	0
33.43832	0.02933627	-0.01038993	0	0	0	0
33.46719	0.02933627	-0.01038993	0	0	0	0
33.48376	0.02933627	-0.01038993	0	0	0	0
33.50032	0.02933627	-0.01038993	0	0	0	0
33.51689	0.02933627	-0.01038993	0	0	0	0
33.53356	0.02933627	-0.01038993	0	0	0	0
33.55025	0.02933627	-0.01038993	0	0	0	0
33.56665	0.02933627	-0.01038993	0	0	0	0
33.58411	0.02933627	-0.01038993	0	0	0	0
33.59972	0.02933627	-0.01038993	0	0	0	0
33.61663	0.02933627	-0.01038993	0	0	0	0
33.63285	0.02933627	-0.01038993	0	0	0	0
33.6495	0.02933627	-0.01038993	0	0	0	0
33.66599	0.02933627	-0.01038993	0	0	0	0
33.68303	0.02933627	-0.01038993	0	0	0	0
33.69912	0.02933627	-0.01038993	0	0	0	0
33.71569	0.02933627	-0.01038993	0	0	0	0
33.73225	0.02933627	-0.01038993	0	0	0	0
33.74882	0.02933627	-0.01038993	0	0	0	0
33.76571	0.02933627	-0.01038993	0	0	0	0
33.78271	0.02933627	-0.01038993	0	0	0	0
33.79852	0.02933627	-0.01038993	0	0	0	0
33.81509	0.02933627	-0.01038993	0	0	0	0
33.83166	0.02933627	-0.01038993	0	0	0	0
33.84822	0.02933627	-0.01038993	0	0	0	0
33.86501	0.02933627	-0.01038993	0	0	0	0
33.88136	0.02933627	-0.01038993	0	0	0	0
33.89799	0.02933627	-0.01038993	0	0	0	0
33.91449	0.02933627	-0.01038993	0	0	0	0
33.93172	0.02933627	-0.01038993	0	0	0	0
33.94762	0.02933627	-0.01038993	0	0	0	0
33.96424	0.02933627	-0.01038993	0	0	0	0
33.98085	0.02933627	-0.01038993	0	0	0	0
33.99733	0.02933627	-0.01038993	0	0	0	0
34.01389	0.02933627	-0.01038993	0	0	0	0
34.03078	0.02933627	-0.01038993	0	0	0	0
34.04703	0.02933627	-0.01038993	0	0	0	0
34.06359	0.02933627	-0.01038993	0	0	0	0
34.08035	0.02933627	-0.01038993	0	0	0	0
34.09673	0.02933627	-0.01038993	0	0	0	0
34.1133	0.02933627	-0.01038993	0	0	0	0
34.12986	0.02933627	-0.01038993	0	0	0	0
34.14643	0.02933627	-0.01038993	0	0	0	0
34.16331	0.02933627	-0.01038993	0	0	0	0
34.17957	0.02933627	-0.01038993	0	0	0	0
34.19613	0.02933627	-0.01038993	0	0	0	0
34.21293	0.02933627	-0.01038993	0	0	0	0
34.22927	0.02933627	-0.01038993	0	0	0	0
34.24589	0.02933627	-0.01038993	0	0	0	0
34.2624	0.02933627	-0.01038993	0	0	0	0
34.27896	0.02933627	-0.01038993	0	0	0	0
34.29571	0.02933627	-0.01038993	0	0	0	0
34.3121	0.02933627	-0.01038993	0	0	0	0
34.32896	0.02933627	-0.01038993	0	0	0	0
34.34523	0.02933627	-0.01038993	0	0	0	0
34.36179	0.02933627	-0.01038993	0	0	0	0
34.37836	0.02933627	-0.01038993	0	0	0	0
34.39493	0.02933627	-0.01038993	0	0	0	0
34.4115	0.02933627	-0.01038993	0	0	0	0
34.42806	0.02933627	-0.01038993	0	0	0	0
34.44463	0.02933627	-0.01038993	0	0	0	0
34.46119	0.02933627	-0.01038993	0	0	0	0
34.47776	0.02933627	-0.01038993	0	0	0	0
34.49433	0.02933627	-0.01038993	0	0	0	0
34.51094	0.02933627	-0.01038993	0	0	0	0
34.52746	0.02933627	-0.01038993	0	0	0	0
34.54418	0.02933627	-0.01038993	0	0	0	0
34.5606	0.02933627	-0.01038993	0	0	0	0
34.57716	0.02933627	-0.01038993	0	0	0	0
34.59373	0.02933627	-0.01038993	0	0	0	0
34.61046	0.02933627	-0.01038993	0	0	0	0
34.62693	0.02933627	-0.01038993	0	0	0	0
34.64342	0.02933627	-0.01038993	0	0	0	0
34.66026	0.02933627	-0.01038993	0	0	0	0
34.67656	0.02933627	-0.01038993	0	0	0	0
34.69313	0.02933627	-0.01038993	0	0	0	0
34.70983	0.02933627	-0.01038993	0	0	0	0
34.72625	0.02933627	-0.01038993	0	0	0	0
34.74298	0.02933627	-0.01038993	0	0	0	0
34.75987	0.02933627	-0.01038993	0	0	0	0
34.77595	0.02933627	-0.01038993	0	0	0	0
34.79252	0.02933627	-0.01038993	0	0	0	0
34.80909	0.02933627	-0.01038993	0	0	0	0
34.82575	0.02933627	-0.01038993	0	0	0	0
34.84222	0.02933627	-0.01038993	0	0	0	0
34.85879	0.02933627	-0.01038993	0	0	0	0
34.87536	0.02933627	-0.01038993	0	0	0	0
34.89193	0.02933627	-0.01038993	0	0	0	0
34.90849	0.02933627	-0.01038993	0	0	0	0
34.92506	0.02933627	-0.01038993	0	0	0	0
34.94163	0.02933627	-0.01038993	0	0	0	0
34.95819	0.02933627	-0.01038993	0	0	0	0
34.97488	0.02933627	-0.01038993	0	0	0	0
34.99133	0.02933627	-0.01038993	0	0	0	0
35.00789	0.02933627	-0.01038993	0	0	0	0
35.03136	0.02933627	-0.01038993	0	0	0	0
35.04793	0.02933627	-0.01038993	0	0	0	0
35.0645	0.02933627	-0.01038993	0	0	0	0
35.08155	0.02933627	-0.01038993	0	0	0	0
35.09763	0.02933627	-0.01038993	0	0	0	0
35.11438	0.02933627	-0.01038993	0	0	0	0
35.13097	0.02933627	-0.01038993	0	0	0	0
35.14773	0.02933627	-0.01038993	0	0	0	0
35.16389	0.02933627	-0.01038993	0	0	0	0
35.18048	0.02933627	-0.01038993	0	0	0	0
35.1973	0.02933627	-0.01038993	0	0	0	0
35.21359	0.02933627	-0.01038993	0	0	0	0
35.2305	0.02933627	-0.01038993	0	0	0	0
35.24672	0.02933627	-0.01038993	0	0	0	0
35.26345	0.02933627	-0.01038993	0	0	0	0
35.27988	0.02933627	-0.01038993	0	0	0	0
35.29658	0.02933627	-0.01038993	0	0	0	0
35.31325	0.02933627	-0.01038993	0	0	0	0
35.32956	0.02933627	-0.01038993	0	0	0	0
35.34612	0.02933627	-0.01038993	0	0	0	0
35.3628	0.02933627	-0.01038993	0	0	0	0
35.37945	0.02933627	-0.01038993	0	0	0	0
35.39596	0.02933627	-0.01038993	0	0	0	0
35.41249	0.02933627	-0.01038993	0	0	0	0
35.42905	0.02933627	-0.01038993	0	0	0	0
35.44552	0.02933627	-0.01038993	0	0	0	0
35.46222	0.02933627	-0.01038993	0	0	0	0
35.47865	0.02933627	-0.01038993	0	0	0	0
35.49522	0.02933627	-0.01038993	0	0	0	0
35.51215	0.02933627	-0.01038993	0	0	0	0
35.52835	0.02933627	-0.01038993	0	0	0	0
35.54492	0.02933627	-0.01038993	0	0	0	0
35.56193	0.02933627	-0.01038993	0	0	0	0
35.57806	0.02933627	-0.01038993	0	0	0	0
35.59493	0.02933627	-0.01038993	0	0	0	0
35.61118	0.02933627	-0.01038993	0	0	0	0
35.62775	0.02933627	-0.01038993	0	0	0	0
35.64447	0.02933627	-0.01038993	0	0	0	0
35.66088	0.02933627	-0.01038993	0	0	0	0
35.67749	0.02933627	-0.01038993	0	0	0	0
35.69402	0.02933627	-0.01038993	0	0	0	0
35.71058	0.02933627	-0.01038993	0	0	0	0
35.72715	0.02933627	-0.01038993	0	0	0	0
35.74372	0.02933627	-0.01038993	0	0	0	0
35.76028	0.02933627	-0.01038993	0	0	0	0
35.77685	0.02933627	-0.01038993	0	0	0	0
35.79342	0.02933627	-0.01038993	0	0	0	0
35.80999	0.02933627	-0.01038993	0	0	0	0
35.82655	0.02933627	-0.01038993	0	0	0	0
35.84337	0.02933627	-0.01038993	0	0	0	0
35.85969	0.02933627	-0.01038993	0	0	0	0
35.87626	0.02933627	-0.01038993	0	0	0	0
35.89282	0.02933627	-0.01038993	0	0	0	0
35.90959	0.02933627	-0.01038993	0	0	0	0
35.92595	0.02933627	-0.01038993	0	0	0	0
35.94278	0.02933627	-0.01038993	0	0	0	0
35.95909	0.02933627	-0.01038993	0	0	0	0
35.97565	0.02933627	-0.01038993	0	0	0	0
35.99222	0.02933627	-0.01038993	0	0	0	0
36.00879	0.02933627	-0.01038993	0	0	0	0
36.02535	0.02933627	-0.01038993	0	0	0	0
36.04193	0.02933627	-0.01038993	0	0	0	0
36.05849	0.02933627	-0.01038993	0	0	0	0
36.07543	0.02933627	-0.01038993	0	0	0	0
36.09162	0.02933627	-0.01038993	0	0	0	0
36.10818	0.02933627	-0.01038993	0	0	0	0
36.12475	0.02933627	-0.01038993	0	0	0	0
36.14135	0.02933627	-0.01038993	0	0	0	0
36.15801	0.02933627	-0.01038993	0	0	0	0
36.17455	0.02933627	-0.01038993	0	0	0	0
36.19101	0.02933627	-0.01038993	0	0	0	0
36.20758	0.02933627	-0.01038993	0	0	0	0
36.22415	0.02933627	-0.01038993	0	0	0	0
36.24072	0.02933627	-0.01038993	0	0	0	0
36.25774	0.02933627	-0.01038993	0	0	0	0
36.27413	0.02933627	-0.01038993	0	0	0	0
36.29041	0.02933627	-0.01038993	0	0	0	0
36.30698	0.02933627	-0.01038993	0	0	0	0
36.32355	0.02933627	-0.01038993	0	0	0	0
36.34011	0.02933627	-0.01038993	0	0	0	0
36.36145	0.02933627	-0.01038993	0	0	0	0
36.37802	0.02933627	-0.01038993	0	0	0	0
36.39459	0.02933627	-0.01038993	0	0	0	0
36.41133	0.02933627	-0.01038993	0	0	0	0
36.42772	0.02933627	-0.01038993	0	0	0	0
36.44462	0.02933627	-0.01038993	0	0	0	0
36.46085	0.02933627	-0.01038993	0	0	0	0
36.47742	0.02933627	-0.01038993	0	0	0	0
36.49399	0.02933627	-0.01038993	0	0	0	0
36.51056	0.02933627	-0.01038993	0	0	0	0
36.52712	0.02933627	-0.01038993	0	0	0	0
36.54369	0.02933627	-0.01038993	0	0	0	0
36.56026	0.02933627	-0.01038993	0	0	0	0
36.57682	0.02933627	-0.01038993	0	0	0	0
36.59339	0.03055861	-0.003055861	0.07378095	0.4426851	2.226713	13.36026
36.60996	0.03544799	0.00794524	0.2951236	0.6640278	6.680134	6.680134
36.62653	0.03911502	0.02261337	0.2213424	0.8853703	-2.22672	6.68013
36.64309	0.04155971	0.04461557	0.1475959	1.328361	-2.225931	13.37104
36.65979	0.04767143	0.08006356	0.3659549	2.122539	6.564392	23.87488
36.67627	0.04889378	0.09350935	0.07419117	0.8160996	-8.79431	-39.37856
36.69306	0.05011612	0.1008434	0.07279162	0.4367519	-0.04206889	-11.40279
36.70936	0.05011613	0.1057328	2.284891E-07	0.2998883	-2.199381	-4.135313
36.72593	0.05011613	0.1204009	0	0.8853701	-6.951033E-06	17.81137
36.74249	0.05011612	0.1448478	-2.249107E-07	1.475956	-6.788601E-06	17.82597
36.75924	0.04889378	0.1778511	-0.0729906	1.970757	-2.191249	14.85444
36.77562	0.04522675	0.2096321	-0.2238165	1.93974	-4.55246	-0.9361867
36.79219	0.04278205	0.2426354	-0.1475959	1.992542	2.313394	1.602604
36.80876	0.04033737	0.2817504	-0.1475275	2.360445	0.002064205	11.10334
36.82533	0.03911502	0.2903068	-0.07378095	0.5164651	2.225419	-55.64502
36.84189	0.03911502	0.3013079	0	0.6641812	2.22697	4.458596
36.85846	0.03789268	0.3074197	-0.07378072	0.3689054	-2.226963	-8.912468
36.87502	0.03789268	0.3074197	0	0	2.226963	-11.13487
36.89159	0.03789268	0.3074197	0	0	0	0
36.90815	0.03789268	0.3074197	0	0	0	0
36.92472	0.03789268	0.3074197	0	0	0	0
36.94138	0.03789268	0.3074197	0	0	0	0
36.95786	0.03789268	0.3074197	0	0	0	0
36.97442	0.03789268	0.3074197	0	0	0	0
36.99119	0.03789268	0.3074197	0	0	0	0
37.00756	0.03789268	0.3074197	0	0	0	0
37.02474	0.03789268	0.3074197	0	0	0	0
37.04081	0.03789268	0.3074197	0	0	0	0
37.05725	0.03789268	0.3074197	0	0	0	0
37.07384	0.03789268	0.3074197	0	0	0	0
37.09049	0.03789268	0.2988632	0	-0.5138638	0	-15.46038
37.10696	0.04033737	0.2805281	0.1484846	-1.113636	4.483854	-18.11159
37.12352	0.04278206	0.2548588	0.1475619	-1.549399	-0.02793291	-13.19235
37.14009	0.04644909	0.2243002	0.2213934	-1.844947	2.228495	-8.920675
37.15665	0.05133847	0.1864075	0.2951236	-2.287206	2.225438	-13.34896
37.17322	0.05378316	0.16685	0.1475619	-1.180494	-4.453421	33.40063
37.19009	0.0550055	0.1509596	0.07244623	-0.9418019	-2.246306	7.138009
37.20636	0.05745019	0.1362914	0.1503311	-0.9019855	2.350569	1.201663
37.22292	0.05867253	0.1265127	0.0737805	-0.5902467	-2.331777	9.495753
37.23949	0.05989488	0.1142892	0.07378095	-0.7378095	1.349154E-05	-4.453454
37.25673	0.05989488	0.1057328	2.161493E-07	-0.4964603	-2.182731	7.140078
37.27262	0.06111723	0.09962108	0.0768972	-0.3844858	2.321023	3.379787
37.28919	0.06111722	0.09350935	-4.497179E-07	-0.3689045	-2.368773	0.4799693
37.30576	0.06111722	0.09228701	2.24859E-07	-0.07378072	2.035877E-05	8.906855
37.32278	0.06111723	0.08984232	2.188621E-07	-0.1436265	-1.78541E-07	-2.07946
37.33889	0.06111722	0.08617529	-2.312485E-07	-0.2276323	-1.358593E-05	-2.535591
37.35569	0.06111722	0.0837306	0	-0.1455176	7.026824E-06	2.495175
37.37202	0.06111722	0.08006356	0	-0.2244438	0	-2.381725
37.38859	0.06111722	0.07761887	0	-0.1475614	0	2.336455
37.40516	0.06111723	0.07395185	2.249107E-07	-0.2213932	6.788601E-06	-2.228502
37.42172	0.06111722	0.0727295	-4.497179E-07	-0.07378118	-2.036268E-05	4.455451
37.43829	0.06111722	0.07150716	2.24859E-07	-0.07378072	2.035877E-05	1.37164E-05
37.45486	0.06111722	0.07150716	0	0	-6.786257E-06	2.226707
37.47187	0.06111722	0.07150716	0	0	0	0
37.48799	0.06111722	0.07150716	0	0	0	0
37.50455	0.06111722	0.07028481	0	-0.07378118	0	-2.257124
37.52112	0.06111722	0.07028481	0	0	0	2.22672
37.53778	0.06111722	0.07028481	0	0	0	0
37.55425	0.06111722	0.06906246	-2.262132E-07	-0.07422508	-6.827915E-06	-2.240375
37.57082	0.06111722	0.06784011	0	-0.07378118	6.847626E-06	0.01343732
37.58738	0.06111722	0.06661778	0	-0.07379727	0	-0.0004857513
37.60395	0.06111722	0.06661778	0	0	0	2.227463
37.62059	0.06111722	0.06661778	0	0	0	0
37.63708	0.06111722	0.06661778	0	0	0	0
37.65365	0.06111722	0.06661778	0	0	0	0
37.67032	0.06111722	0.06661778	0	0	0	0
37.68678	0.06111722	0.06661778	0	0	0	0
37.70335	0.06111722	0.06661778	0	0	0	0
37.71992	0.06111722	0.06661778	0	0	0	0
37.73648	0.06111722	0.06661778	0	0	0	0
37.75305	0.06111722	0.06661778	0	0	0	0
37.76989	0.06111722	0.06661778	0	0	0	0
37.78619	0.06111722	0.06661778	0	0	0	0
37.80291	0.06111722	0.06661778	0	0	0	0
37.81932	0.06111722	0.06661778	0	0	0	0
37.83646	0.06111722	0.06661778	0	0	0	0
37.85283	0.06111722	0.06661778	0	0	0	0
37.86901	0.06111722	0.06661778	0	0	0	0
37.88583	0.06111722	0.06661778	0	0	0	0
37.90215	0.06111722	0.06661778	0	0	0	0
37.91872	0.06111722	0.06661778	0	0	0	0
37.93538	0.06111722	0.06661778	0	0	0	0
37.95188	0.06111722	0.06661778	0	0	0	0
37.96841	0.06111722	0.06661778	0	0	0	0
37.98498	0.06111722	0.06661778	0	0	0	0
38.00155	0.06111722	0.06661778	0	0	0	0
38.01812	0.06111722	0.06661778	0	0	0	0
38.03468	0.06111722	0.06661778	0	0	0	0
38.05146	0.06111722	0.06661778	0	0	0	0
38.06797	0.06111722	0.06661778	0	0	0	0
38.0845	0.06111722	0.06661778	0	0	0	0
38.10101	0.06111722	0.06661778	0	0	0	0
38.11752	0.06111722	0.06661778	0	0	0	0
38.13413	0.06111722	0.06661778	0	0	0	0
38.15072	0.06111722	0.06661778	0	0	0	0
38.16783	0.06111722	0.06661778	0	0	0	0
38.18378	0.06111722	0.06661778	0	0	0	0
38.20035	0.06111722	0.06661778	0	0	0	0
38.21692	0.06111723	0.06417309	4.497179E-07	-0.1475619	1.357251E-05	-4.453427
38.23349	0.06111722	0.06295074	-2.24859E-07	-0.07378118	-2.035877E-05	2.226707
38.25006	0.06111722	0.0617284	0	-0.07376374	6.785476E-06	0.0005261094
38.26662	0.06111722	0.06050605	0	-0.07379794	0	-0.001032103
38.28319	0.06111722	0.05928371	0	-0.07378072	0	0.0005197089
38.29976	0.06233957	0.05806136	0.07378095	-0.07378095	2.226713	-6.745769E-06
38.31632	0.06233957	0.05806136	0	0	-2.226713	2.226713
38.33289	0.06233957	0.05806136	0	0	0	0
38.34946	0.06233957	0.05806136	0	0	0	0
38.36602	0.06233957	0.05806136	0	0	0	0
38.38302	0.06233957	0.05806136	0	0	0	0
38.39916	0.06233957	0.05806136	0	0	0	0
38.41573	0.06233957	0.05806136	0	0	0	0
38.43257	0.06233957	0.05806136	0	0	0	0
38.44886	0.06233957	0.05806136	0	0	0	0
38.46543	0.06233957	0.05806136	0	0	0	0
38.48201	0.06233957	0.05806136	0	0	0	0
38.49866	0.06233957	0.05806136	0	0	0	0
38.51544	0.06233957	0.05806136	0	0	0	0
38.53169	0.06233957	0.05806136	0	0	0	0
38.54826	0.06233957	0.05806136	0	0	0	0
38.56519	0.06233957	0.05806136	0	0	0	0
38.58139	0.06233957	0.05806136	0	0	0	0
38.59799	0.06233957	0.05806136	0	0	0	0
38.61454	0.06233957	0.05806136	0	0	0	0
38.63116	0.06233957	0.05806136	0	0	0	0
38.64766	0.06233957	0.05806136	0	0	0	0
38.66426	0.06233957	0.05806136	0	0	0	0
38.68083	0.06233957	0.05806136	0	0	0	0
38.69737	0.06233957	0.05806136	0	0	0	0
38.71392	0.06233957	0.05806136	0	0	0	0
38.73049	0.06233957	0.05806136	0	0	0	0
38.74706	0.06233957	0.05806136	0	0	0	0
38.76398	0.06233957	0.05806136	0	0	0	0
38.78019	0.06111723	0.05806137	-0.07544848	2.299417E-07	-2.277302	6.940454E-06
38.79702	0.05867254	0.05806137	-0.1452539	2.213424E-07	-2.113302	-2.603384E-07
38.81353	0.05867254	0.05806137	0	0	4.356687	-6.638852E-06
38.82989	0.05745019	0.05683902	-0.07469269	-0.07469269	-2.272017	-2.272017
38.84654	0.05745019	0.05683902	0	0	2.262304	2.262304
38.86303	0.05745019	0.05683902	0	0	0	0
38.87959	0.05745019	0.05683902	0	0	0	0
38.8965	0.05745019	0.05683902	0	0	0	0
38.91272	0.05745019	0.05683902	0	0	0	0
38.92929	0.05622784	0.05561668	-0.07378095	-0.07378072	-2.250289	-2.250282
38.94586	0.05622785	0.05439433	2.24859E-07	-0.07378095	2.22672	-6.745769E-06
38.96243	0.0550055	0.05439433	-0.07378095	2.24859E-07	-2.22672	2.22672
38.97905	0.05500551	0.05317198	2.240336E-07	-0.07351036	2.222626	-2.214474
39.00057	0.05500551	0.05317198	0	0	-5.873494E-06	1.927223
39.01714	0.0550055	0.05194964	-2.24859E-07	-0.07378072	-5.904581E-06	-1.937411
39.0337	0.0550055	0.05194964	0	0	6.786257E-06	2.226707
39.05027	0.0550055	0.05194964	0	0	0	0
39.06684	0.0550055	0.05194964	0	0	0	0
39.0834	0.05378316	0.0507273	-0.07378072	-0.07378095	-2.226707	-2.226713
39.09997	0.05378316	0.0507273	0	0	2.226707	2.226713
39.11654	0.05378316	0.0507273	0	0	0	0
39.13361	0.05378316	0.0507273	0	0	0	0
39.14967	0.05378316	0.0507273	0	0	0	0
39.16624	0.05378316	0.0507273	0	0	0	0
39.1828	0.05378316	0.0507273	0	0	0	0
39.19937	0.05378316	0.0507273	0	0	0	0
39.21618	0.05378316	0.0507273	0	0	0	0
39.2327	0.05378316	0.0507273	0	0	0	0
39.24907	0.05378316	0.0507273	0	0	0	0
39.26564	0.05378316	0.0507273	0	0	0	0
39.28221	0.05378316	0.0507273	0	0	0	0
39.29924	0.05378316	0.0507273	0	0	0	0
39.31534	0.05378316	0.0507273	0	0	0	0
39.33191	0.05378316	0.0507273	0	0	0	0
39.34848	0.05378316	0.0507273	0	0	0	0
39.36504	0.05378316	0.0507273	0	0	0	0
39.38173	0.05378316	0.0507273	0	0	0	0
39.39818	0.05378316	0.0507273	0	0	0	0
39.4149	0.05378316	0.0507273	0	0	0	0
39.43131	0.05378316	0.0507273	0	0	0	0
39.44788	0.05378316	0.0507273	0	0	0	0
39.46445	0.05378316	0.0507273	0	0	0	0
39.48101	0.05378316	0.0507273	0	0	0	0
39.49758	0.05378316	0.0507273	0	0	0	0
39.51415	0.05378316	0.0507273	0	0	0	0
39.53072	0.05378316	0.0507273	0	0	0	0
39.54728	0.05378316	0.0507273	0	0	0	0
39.56385	0.05378316	0.0507273	0	0	0	0
39.58042	0.05378316	0.0507273	0	0	0	0
39.59698	0.05378316	0.0507273	0	0	0	0
39.61355	0.05378316	0.0507273	0	0	0	0
39.64176	0.05378316	0.0507273	0	0	0	0
39.65833	0.05378316	0.0507273	0	0	0	0
39.6749	0.05378316	0.0507273	0	0	0	0
39.69147	0.05378316	0.0507273	0	0	0	0
39.70813	0.05378316	0.0507273	0	0	0	0
39.72487	0.05378316	0.0507273	0	0	0	0
39.74117	0.05378316	0.0507273	0	0	0	0
39.75815	0.05378316	0.0507273	0	0	0	0
39.7743	0.05378316	0.0507273	0	0	0	0
39.79087	0.05378316	0.0507273	0	0	0	0
39.80743	0.05378316	0.0507273	0	0	0	0
39.82406	0.05378316	0.0507273	0	0	0	0
39.84056	0.05378316	0.0507273	0	0	0	0
39.85713	0.05378316	0.0507273	0	0	0	0
39.87399	0.05378316	0.0507273	0	0	0	0
39.89026	0.05378316	0.0507273	0	0	0	0
39.90683	0.05378316	0.0507273	0	0	0	0
39.9234	0.05378316	0.0507273	0	0	0	0
39.93996	0.05378316	0.0507273	0	0	0	0
39.95653	0.05378316	0.0507273	0	0	0	0
39.9731	0.05378316	0.0507273	0	0	0	0
39.98967	0.05378316	0.0507273	0	0	0	0
40.00623	0.05378316	0.0507273	0	0	0	0
40.0228	0.05378316	0.0507273	0	0	0	0
40.03937	0.05378316	0.0507273	0	0	0	0
40.05593	0.05378316	0.0507273	0	0	0	0
40.0725	0.05378316	0.0507273	0	0	0	0
40.08907	0.05378316	0.0507273	0	0	0	0
40.10563	0.05378316	0.0507273	0	0	0	0
40.1222	0.05378316	0.0507273	0	0	0	0
40.13877	0.05378316	0.0507273	0	0	0	0
40.15534	0.05378316	0.0507273	0	0	0	0
40.17229	0.05378316	0.0507273	0	0	0	0
40.18847	0.05378316	0.0507273	0	0	0	0
40.20504	0.05378316	0.0507273	0	0	0	0
40.22161	0.05378316	0.0507273	0	0	0	0
40.23822	0.05378316	0.0507273	0	0	0	0
40.25474	0.05378316	0.0507273	0	0	0	0
40.27131	0.05378316	0.0507273	0	0	0	0
40.28852	0.05378316	0.0507273	0	0	0	0
40.30444	0.05378316	0.0507273	0	0	0	0
40.32103	0.05378316	0.0507273	0	0	0	0
40.33757	0.05378316	0.0507273	0	0	0	0
40.35456	0.05378316	0.0507273	0	0	0	0
40.3707	0.05378316	0.0507273	0	0	0	0
40.38727	0.05378316	0.0507273	0	0	0	0
40.40384	0.05378316	0.0507273	0	0	0	0
40.4204	0.05378316	0.0507273	0	0	0	0
40.43697	0.05378316	0.0507273	0	0	0	0
40.45363	0.05378316	0.0507273	0	0	0	0
40.4701	0.05378316	0.0507273	0	0	0	0
40.48679	0.05378316	0.0507273	0	0	0	0
40.50324	0.05378316	0.0507273	0	0	0	0
40.52004	0.05378316	0.0507273	0	0	0	0
40.53637	0.05378316	0.0507273	0	0	0	0
40.55294	0.05378316	0.0507273	0	0	0	0
40.56951	0.05378316	0.0507273	0	0	0	0
40.58616	0.05378316	0.0507273	0	0	0	0
40.60264	0.05378316	0.0507273	0	0	0	0
40.61921	0.05378316	0.0507273	0	0	0	0
40.63578	0.05378316	0.0507273	0	0	0	0
40.65234	0.05378316	0.0507273	0	0	0	0
40.66891	0.05378316	0.0507273	0	0	0	0
40.6856	0.05378316	0.0507273	0	0	0	0
40.70217	0.05378316	0.0507273	0	0	0	0
40.71861	0.05378316	0.0507273	0	0	0	0
40.73518	0.05378316	0.0507273	0	0	0	0
40.75175	0.05378316	0.0507273	0	0	0	0
40.76837	0.05378316	0.0507273	0	0	0	0
40.78488	0.05378316	0.0507273	0	0	0	0
40.80145	0.05378316	0.0507273	0	0	0	0
40.81802	0.05378316	0.0507273	0	0	0	0
40.83458	0.05378316	0.0507273	0	0	0	0
40.85115	0.05378316	0.0507273	0	0	0	0
40.86772	0.05378316	0.0507273	0	0	0	0
40.88428	0.05378316	0.0507273	0	0	0	0
40.90085	0.05378316	0.0507273	0	0	0	0
40.91742	0.05378316	0.0507273	0	0	0	0
40.93415	0.05378316	0.0507273	0	0	0	0
40.95055	0.05378316	0.0507273	0	0	0	0
40.96712	0.05378316	0.0507273	0	0	0	0
40.98858	0.05378316	0.0507273	0	0	0	0
41.00516	0.05378316	0.0507273	0	0	0	0
41.02172	0.05378316	0.0507273	0	0	0	0
41.03828	0.05378316	0.0507273	0	0	0	0
41.05485	0.05378316	0.0507273	0	0	0	0
41.0717	0.05378316	0.0507273	0	0	0	0
41.08799	0.05378316	0.0507273	0	0	0	0
41.10458	0.05378316	0.0507273	0	0	0	0
41.12112	0.05378316	0.0507273	0	0	0	0
41.13768	0.05378316	0.0507273	0	0	0	0
41.15437	0.05378316	0.0507273	0	0	0	0
41.17083	0.05378316	0.0507273	0	0	0	0
41.1875	0.05378316	0.0507273	0	0	0	0
41.20395	0.05378316	0.0507273	0	0	0	0
41.22052	0.05378316	0.0507273	0	0	0	0
41.23708	0.05378316	0.0507273	0	0	0	0
41.25365	0.05378316	0.0507273	0	0	0	0
41.27022	0.05378316	0.0507273	0	0	0	0
41.2868	0.05378316	0.0507273	0	0	0	0
41.30335	0.05378316	0.0507273	0	0	0	0
41.31992	0.05378316	0.0507273	0	0	0	0
41.33648	0.05378316	0.0507273	0	0	0	0
41.35305	0.05378316	0.0507273	0	0	0	0
41.36966	0.05378316	0.0507273	0	0	0	0
41.38618	0.05378316	0.0507273	0	0	0	0
41.40275	0.05378316	0.0507273	0	0	0	0
41.41931	0.05378316	0.0507273	0	0	0	0
41.43588	0.05378316	0.0507273	0	0	0	0
41.45245	0.05378316	0.0507273	0	0	0	0
41.46901	0.05378316	0.0507273	0	0	0	0
41.48575	0.05378316	0.0507273	0	0	0	0
41.50221	0.05378316	0.0507273	0	0	0	0
41.51871	0.05378316	0.0507273	0	0	0	0
41.53529	0.05378316	0.0507273	0	0	0	0
41.55185	0.05378316	0.0507273	0	0	0	0
41.56842	0.05378316	0.0507273	0	0	0	0
41.58498	0.05378316	0.0507273	0	0	0	0
41.60163	0.05378316	0.0507273	0	0	0	0
41.61815	0.05378316	0.0507273	0	0	0	0
41.63469	0.05378316	0.0507273	0	0	0	0
41.6516	0.05378316	0.0507273	0	0	0	0
41.66816	0.05378316	0.0507273	0	0	0	0
41.68473	0.05378316	0.0507273	0	0	0	0
41.7013	0.05378316	0.0507273	0	0	0	0
41.71786	0.05378316	0.0507273	0	0	0	0
41.73456	0.05378316	0.0507273	0	0	0	0
41.751	0.05378316	0.0507273	0	0	0	0
41.76789	0.05378316	0.0507273	0	0	0	0
41.78441	0.05378316	0.0507273	0	0	0	0
41.8007	0.05378316	0.0507273	0	0	0	0
41.81726	0.05378316	0.0507273	0	0	0	0
41.8339	0.05378316	0.0507273	0	0	0	0
41.8504	0.05378316	0.0507273	0	0	0	0
41.86697	0.05378316	0.0507273	0	0	0	0
41.88393	0.05378316	0.0507273	0	0	0	0
41.90059	0.05378316	0.0507273	0	0	0	0
41.91666	0.05378316	0.0507273	0	0	0	0
41.93344	0.05378316	0.0507273	0	0	0	0
41.94981	0.05378316	0.0507273	0	0	0	0
41.96638	0.05378316	0.0507273	0	0	0	0
41.98296	0.05378316	0.0507273	0	0	0	0
41.99967	0.05378316	0.0507273	0	0	0	0
42.0164	0.05378316	0.0507273	0	0	0	0
42.03263	0.05378316	0.0507273	0	0	0	0
42.0492	0.05378316	0.0507273	0	0	0	0
42.06586	0.05378316	0.0507273	0	0	0	0
42.08237	0.05378316	0.0507273	0	0	0	0
42.0989	0.05378316	0.0507273	0	0	0	0
42.11555	0.05378316	0.0507273	0	0	0	0
42.13218	0.05378316	0.0507273	0	0	0	0
42.1486	0.05378316	0.0507273	0	0	0	0
42.16516	0.05378316	0.0507273	0	0	0	0
42.18216	0.05378316	0.0507273	0	0	0	0
42.1983	0.05378316	0.0507273	0	0	0	0
42.21487	0.05378316	0.0507273	0	0	0	0
42.23182	0.05378316	0.0507273	0	0	0	0
42.2482	0.05378316	0.0507273	0	0	0	0
42.2647	0.05378316	0.0507273	0	0	0	0
42.28113	0.05378316	0.0507273	0	0	0	0
42.29793	0.05378316	0.0507273	0	0	0	0
42.31426	0.05378316	0.0507273	0	0	0	0
42.33083	0.05378316	0.0507273	0	0	0	0
42.34789	0.05378316	0.0507273	0	0	0	0
42.36396	0.05378316	0.0507273	0	0	0	0
42.38052	0.05378316	0.0507273	0	0	0	0
42.39709	0.05378316	0.0507273	0	0	0	0
42.41366	0.05378316	0.0507273	0	0	0	0
42.43023	0.05378316	0.0507273	0	0	0	0
42.44679	0.05378316	0.0507273	0	0	0	0
42.46336	0.05378316	0.0507273	0	0	0	0
42.47992	0.05378316	0.0507273	0	0	0	0
42.49649	0.05378316	0.0507273	0	0	0	0
42.51305	0.05378316	0.0507273	0	0	0	0
42.53035	0.05378316	0.0507273	0	0	0	0
42.54619	0.05378316	0.05317199	0	0.15435	0	4.658293
42.56276	0.05378316	0.05561667	0	0.1475614	0	-0.2094863
42.57974	0.05378316	0.05683902	-2.193044E-07	0.07195838	-6.535849E-06	-2.253171
42.59589	0.05378316	0.05683902	0	0	6.61862E-06	-2.171708
42.61272	0.05378316	0.05806136	0	0.07264332	0	2.203032
42.62902	0.05378316	0.05806136	0	0	0	-2.192632
42.64559	0.05378316	0.05806136	0	0	0	0
42.66227	0.05378316	0.05806136	0	0	0	0
42.67872	0.05378316	0.05928371	0	0.07431138	0	2.242722
42.69529	0.04889378	0.0617284	-0.2951231	0.1475619	-8.938736	2.218623
42.71186	0.04278206	0.06661777	-0.3688196	0.2950552	-2.223908	4.450844
42.72843	0	0.08984232	-2.58233	1.401837	-66.79619	33.39888
42.745	-0.05989488	0.131402	-3.615262	2.508549	-31.17395	33.40065
42.76156	-0.1295685	0.1802958	-4.205509	2.951234	-17.81369	13.36026
42.77813	-0.1833517	0.2194108	-3.246357	2.360988	28.94726	-17.81368
42.79477	-0.212688	0.237746	-1.763029	1.101893	44.66923	-37.91661
42.81126	-0.2310231	0.2487471	-1.111833	0.6670995	19.6554	-13.1236
42.82783	-0.2395795	0.2573035	-0.516466	0.5164651	18.00967	-4.556647
42.84439	-0.2420242	0.2597482	-0.1475945	0.1475954	11.13384	-11.13379
42.86118	-0.2444689	0.2609706	-0.1455846	0.07279362	0.06025873	-2.242549
42.87753	-0.2444689	0.2609706	0	0	4.393245	-2.196663
42.8941	-0.2456913	0.2634152	-0.07378253	0.1475614	-2.24173	4.48335
42.91066	-0.2456913	0.2634152	0	0	2.226761	-4.453413
42.92723	-0.2456913	0.2634152	0	0	0	0
42.9438	-0.2456913	0.2634152	0	0	0	0
42.96943	-0.2456913	0.2634152	0	0	0	0
42.98632	-0.2469136	0.2634152	-0.07239625	0	-1.702695	0
43.00257	-0.2469136	0.2634152	0	0	2.184923	0
43.01966	-0.2469136	0.2634152	0	0	0	0
43.03571	-0.2469136	0.2634152	0	0	0	0
43.05237	-0.2469136	0.2634152	0	0	0	0
43.06884	-0.2469136	0.2634152	0	0	0	0
43.08541	-0.2469136	0.2634152	0	0	0	0
43.10205	-0.2469136	0.2634152	0	0	0	0
43.11876	-0.2469136	0.2634152	0	0	0	0
43.13511	-0.2444689	0.2585259	0.1495946	-0.2991874	4.525194	-9.050332
43.15204	-0.2298008	0.2450801	0.8660271	-0.7938591	21.52779	-14.86419
43.16824	-0.216355	0.2328566	0.8303261	-0.7548421	-1.07758	1.17767
43.1848	-0.1992422	0.2169662	1.032932	-0.9591512	6.184431	-6.236423
43.20137	-0.180907	0.1998533	1.106714	-1.032933	2.226733	-2.226735
43.21794	-0.1601271	0.1839629	1.254274	-0.9591503	4.453388	2.226762
43.23453	-0.1381249	0.1680724	1.326223	-0.9578288	2.169937	0.03985526
43.25107	-0.1197898	0.1521819	1.108244	-0.9604772	-6.578643	-0.07992927
43.26764	-0.1075663	0.1411808	0.737979	-0.6641812	-11.18362	8.949443
43.2842	-0.09289818	0.1289573	0.8853701	-0.7378082	4.448784	-2.222321
43.30077	-0.0880088	0.1265126	0.2951238	-0.1475624	-17.81367	17.81365
43.31742	-0.08311943	0.1204009	0.2935682	-0.3669603	-0.04682387	-6.603955
43.33391	-0.0770077	0.1155115	0.3707828	-0.2966268	2.330072	2.122422
43.35047	-0.07211833	0.1118445	0.2951913	-0.2213927	-2.287411	2.276599
43.36704	-0.06722894	0.1081775	0.2951238	-0.2213426	-0.002038356	0.001511676
43.38381	-0.06233957	0.1045105	0.291565	-0.218674	-0.106753	0.08005019
43.40017	-0.05867254	0.1020658	0.2240772	-0.1493849	-2.036787	2.091149
43.41674	-0.0550055	0.09839873	0.2213426	-0.2213426	-0.0830353	-2.18502
43.43394	-0.05133847	0.09595405	0.2131463	-0.1420974	-0.242698	2.34651
43.44987	-0.04889378	0.0947317	0.153463	-0.07673171	-1.801248	1.972741
43.46672	-0.04889378	0.09350935	-2.211419E-07	-0.07256107	-4.682199	0.1272473
43.48301	-0.04767143	0.09228701	0.07504254	-0.07504208	2.264795	-0.07487714
43.49957	-0.04644909	0.09106466	0.07379794	-0.07379816	-0.03788478	0.03786414
43.51614	-0.04522675	0.09106466	0.0737805	0	-0.0005264555	2.227489
43.53296	-0.04278206	0.08861997	0.145353	-0.145353	2.143773	-4.353681
43.54927	-0.04033737	0.08739763	0.1498388	-0.07491881	0.1353808	2.125708
43.56584	-0.03789268	0.08495294	0.1475619	-0.1475624	-0.06924213	-2.209173
43.58313	-0.03544799	0.0837306	0.1414388	-0.07071899	-0.1808791	2.270005
43.59923	-0.0330033	0.08250825	0.1518269	-0.07591368	0.3111481	-0.1555939
43.61554	-0.03055861	0.08006357	0.1498738	-0.1498736	-0.0602561	-2.281763
43.63329	-0.02811392	0.07884122	0.1377011	-0.06885038	-0.3573353	2.378471
43.64986	-0.02689158	0.07884122	0.07376374	-4.496144E-07	-1.862724	2.005846
43.66643	-0.02566923	0.07761887	0.07378095	-0.07378072	0.0005191396	-2.226437
43.683	-0.02566923	0.07761887	0	0	-2.226713	2.226707
43.69957	-0.02566924	0.07639653	-1.124295E-07	-0.07378072	-3.393129E-06	-2.226707
43.71613	-0.02566924	0.07639653	0	0	3.393129E-06	2.226707
43.7327	-0.02566924	0.07639653	0	0	0	0
43.74927	-0.02566924	0.07639653	0	0	0	0
43.76583	-0.02566924	0.07639653	0	0	0	0
43.7824	-0.02566924	0.07639653	0	0	0	0
43.79946	-0.02566924	0.07639653	0	0	0	0
43.81553	-0.02566924	0.07639653	0	0	0	0
43.8321	-0.02566924	0.07639653	0	0	0	0
43.84897	-0.02566924	0.07639653	0	0	0	0
43.86523	-0.02566924	0.07639653	0	0	0	0
43.8818	-0.02566924	0.07639653	0	0	0	0
43.89837	-0.02566924	0.07639653	0	0	0	0
43.91493	-0.02566924	0.07639653	0	0	0	0
43.93177	-0.02566924	0.07639653	0	0	0	0
43.94815	-0.02566924	0.07639653	0	0	0	0
43.96463	-0.02566924	0.07639653	0	0	0	0
43.9812	-0.02566924	0.07639653	0	0	0	0
43.99777	-0.02566924	0.07639653	0	0	0	0
44.01445	-0.02566924	0.07639653	0	0	0	0
44.0309	-0.02566924	0.07639653	0	0	0	0
44.04747	-0.02566924	0.07639653	0	0	0	0
44.06403	-0.02566924	0.07639653	0	0	0	0
44.0806	-0.02566924	0.07639653	0	0	0	0
44.09717	-0.02566924	0.07639653	0	0	0	0
44.1139	-0.02566924	0.07639653	0	0	0	0
44.13051	-0.02566924	0.07639653	0	0	0	0
44.14762	-0.02566924	0.07639653	0	0	0	0
44.16343	-0.02566924	0.07639653	0	0	0	0
44.18	-0.02566924	0.07639653	0	0	0	0
44.19657	-0.02566924	0.07639653	0	0	0	0
44.21313	-0.02566924	0.07639653	0	0	0	0
44.2297	-0.02566924	0.07639653	0	0	0	0
44.24627	-0.02566924	0.07639653	0	0	0	0
44.26284	-0.02566924	0.07639653	0	0	0	0
44.2794	-0.02566924	0.07639653	0	0	0	0
44.29597	-0.02566924	0.07639653	0	0	0	0
44.31253	-0.02566924	0.07639653	0	0	0	0
44.3292	-0.02566924	0.07639653	0	0	0	0
44.34569	-0.02566924	0.07639653	0	0	0	0
44.36253	-0.02566924	0.07639653	0	0	0	0
44.37905	-0.02566924	0.07639653	0	0	0	0
44.39556	-0.02566924	0.07639653	0	0	0	0
44.41193	-0.02566924	0.07639653	0	0	0	0
44.42874	-0.02566924	0.07639653	0	0	0	0
44.44525	-0.02566924	0.07639653	0	0	0	0
44.46177	-0.02566924	0.07639653	0	0	0	0
44.4782	-0.02566924	0.07639653	0	0	0	0
44.49477	-0.02566924	0.07639653	0	0	0	0
44.51133	-0.02566924	0.07639653	0	0	0	0
44.5279	-0.02566924	0.07639653	0	0	0	0
44.54448	-0.02566924	0.07639653	0	0	0	0
44.56137	-0.02566924	0.07639653	0	0	0	0
44.5776	-0.02566924	0.07639653	0	0	0	0
44.59444	-0.02566924	0.07639653	0	0	0	0
44.61093	-0.02566924	0.07639653	0	0	0	0
44.62746	-0.02566924	0.07639653	0	0	0	0
44.64405	-0.02566924	0.07639653	0	0	0	0
44.66056	-0.02566924	0.07639653	0	0	0	0
44.677	-0.02566924	0.07639653	0	0	0	0
44.69357	-0.02566924	0.07639653	0	0	0	0
44.71014	-0.02566924	0.07639653	0	0	0	0
44.7268	-0.02566924	0.07639653	0	0	0	0
44.74327	-0.02566924	0.07639653	0	0	0	0
44.76017	-0.02566924	0.07639653	0	0	0	0
44.77665	-0.02444689	0.07639652	0.07413944	-4.51903E-07	2.220913	-1.353716E-05
44.79298	-0.0220022	0.06906246	0.1497687	-0.4493059	2.305053	-13.69407
