Time	Pos X	Pos Y	Vel X	Vel Y	Acc X	Acc Y
0.01656632	0.03178096	-0.01161227	-0.0005214002	0.0001905116	8.556449E-06	-3.126395E-06
0.03918938	0.03178096	-0.01161227	0	0	-8.557299E-06	3.126705E-06
0.05576004	0.03178096	-0.01161227	0	0	0	0
0.07232714	0.03178096	-0.01161227	0	0	0	0
0.08889347	0.03178096	-0.01161227	0	0	0	0
0.1094089	0.03178096	-0.01161227	0	0	0	0
0.1259788	0.03178096	-0.01161227	0	0	0	0
0.1425455	0.03178096	-0.01161227	0	0	0	0
0.1591126	0.03178096	-0.01161227	0	0	0	0
0.1756797	0.03178096	-0.01161227	0	0	0	0
0.1922464	0.03178096	-0.01161227	0	0	0	0
0.2090161	0.03178096	-0.01161227	0	0	0	0
0.2257099	0.03178096	-0.01161227	0	0	0	0
0.2419466	0.03178096	-0.01161227	0	0	0	0
0.2585978	0.03178096	-0.01161227	0	0	0	0
0.2750843	0.03178096	-0.01161227	0	0	0	0
0.2920845	0.03178096	-0.01161227	0	0	0	0
0.308596	0.03178096	-0.01161227	0	0	0	0
0.3251062	0.03178096	-0.01161227	0	0	0	0
0.341622	0.03178096	-0.01161227	0	0	0	0
0.3579148	0.03178096	-0.01161227	0	0	0	0
0.3744823	0.03178096	-0.01161227	0	0	0	0
0.39118	0.03178096	-0.01161227	0	0	0	0
0.4076157	0.03178096	-0.01161227	0	0	0	0
0.4241808	0.03178096	-0.01161227	0	0	0	0
0.4407479	0.03178096	-0.01161227	0	0	0	0
0.4573123	0.03178096	-0.01161227	0	0	0	0
0.4738802	0.03178096	-0.01161227	0	0	0	0
0.4904481	0.03178096	-0.01161227	0	0	0	0
0.5071356	0.03178096	-0.01161227	0	0	0	0
0.5242565	0.03178096	-0.01161227	0	0	0	0
0.5401482	0.03178096	-0.01161227	0	0	0	0
0.5567145	0.03178096	-0.01161227	0	0	0	0
0.5732812	0.03178096	-0.01283462	0	-0.07378329	0	-2.22688
0.590778	0.03544799	-0.01527931	0.2095836	-0.1397224	6.152739	-1.935772
0.6068355	0.04033737	-0.01894634	0.3044919	-0.228369	2.828505	-2.64189
0.622981	0.05256081	-0.02383572	0.7570793	-0.3028316	14.05419	-2.312288
0.6395465	0.06356191	-0.02628041	0.6640967	-0.1475772	-2.842546	4.746242
0.656112	0.0770077	-0.02994744	0.8116745	-0.2213657	4.45437	-2.227175
0.6728591	0.08311942	-0.03116978	0.3649415	-0.07298822	-13.41032	4.454093
0.6893702	0.1026769	-0.03483681	1.184508	-0.2220951	24.64254	-4.483312
0.7058738	0.1075663	-0.03605916	0.2962621	-0.07406577	-26.9046	4.483746
0.7223998	0.113678	-0.03728151	0.369823	-0.0739646	2.227118	0.003062827
0.7389464	0.1197898	-0.03728151	0.3693643	0	-0.01386909	2.236428
0.7555124	0.1197898	-0.03850385	4.497535E-07	-0.07378679	-11.15481	-2.228365
0.7720791	0.1210121	-0.03850386	0.07378311	-2.248663E-07	2.22689	2.227007
0.7887563	0.1222344	-0.0397262	0.07329395	-0.07329395	-0.01471449	-2.204723
0.8052129	0.1234568	-0.03972619	0.0742767	2.263705E-07	0.02966011	2.212062
0.8217793	0.1246791	-0.0397262	0.0737856	-2.248711E-07	-0.01487141	-1.366449E-05
0.8385733	0.1246791	-0.0397262	0	0	-2.211771	6.740655E-06
0.8549123	0.1259015	-0.0397262	0.07481158	0	2.257915	0
0.8714794	0.1259015	-0.0397262	0	0	-2.27349	0
0.8880465	0.1259015	-0.0397262	0	0	0	0
0.9046132	0.1259015	-0.0397262	0	0	0	0
0.9211842	0.1259015	-0.0397262	0	0	0	0
0.9379645	0.1259015	-0.0397262	0	0	0	0
0.9543145	0.1259015	-0.0397262	0	0	0	0
0.9708816	0.1271238	-0.03972619	0.07378036	2.248606E-07	2.2414	6.831121E-06
0.9874479	0.1271238	-0.03972619	0	0	-2.226764	-6.786513E-06
1.004015	0.1271238	-0.03972619	0	0	0	0
1.020872	0.1271238	-0.03972619	0	0	0	0
1.037148	0.1271238	-0.03972619	0	0	0	0
1.053715	0.1271238	-0.03972619	0	0	0	0
1.070282	0.1271238	-0.03972619	0	0	0	0
1.086848	0.1271238	-0.03972619	0	0	0	0
1.103415	0.1271238	-0.03972619	0	0	0	0
1.119982	0.1271238	-0.03972619	0	0	0	0
1.136924	0.1271238	-0.03972619	0	0	0	0
1.153115	0.1271238	-0.03972619	0	0	0	0
1.16968	0.1271238	-0.03972619	0	0	0	0
1.186249	0.1271238	-0.03972619	0	0	0	0
1.202815	0.1271238	-0.03972619	0	0	0	0
1.219874	0.1271238	-0.03972619	0	0	0	0
1.235946	0.1271238	-0.03972619	0	0	0	0
1.253051	0.1271238	-0.03972619	0	0	0	0
1.269081	0.1271238	-0.03972619	0	0	0	0
1.285646	0.1271238	-0.03972619	0	0	0	0
1.302213	0.1271238	-0.03972619	0	0	0	0
1.318785	0.1271238	-0.03972619	0	0	0	0
1.335578	0.1271238	-0.03972619	0	0	0	0
1.351913	0.1271238	-0.03972619	0	0	0	0
1.368481	0.1271238	-0.03972619	0	0	0	0
1.385249	0.1271238	-0.03972619	0	0	0	0
1.401831	0.1271238	-0.03972619	0	0	0	0
1.420484	0.1271238	-0.03972619	0	0	0	0
1.437052	0.1271238	-0.03972619	0	0	0	0
1.453621	0.1271238	-0.03972619	0	0	0	0
1.470187	0.1271238	-0.03972619	0	0	0	0
1.486754	0.1271238	-0.03972619	0	0	0	0
1.503321	0.1271238	-0.03972619	0	0	0	0
1.519888	0.1271238	-0.03972619	0	0	0	0
1.536665	0.1271238	-0.03972619	0	0	0	0
1.553021	0.1271238	-0.03972619	0	0	0	0
1.569588	0.1271238	-0.03972619	0	0	0	0
1.586154	0.1271238	-0.03972619	0	0	0	0
1.602721	0.1271238	-0.03972619	0	0	0	0
1.619288	0.1271238	-0.03972619	0	0	0	0
1.635854	0.1271238	-0.03972619	0	0	0	0
1.652421	0.1271238	-0.03972619	0	0	0	0
1.668988	0.1271238	-0.03972619	0	0	0	0
1.685555	0.1271238	-0.03972619	0	0	0	0
1.702121	0.1271238	-0.03972619	0	0	0	0
1.718687	0.1271238	-0.03972619	0	0	0	0
1.735254	0.1271238	-0.03972619	0	0	0	0
1.751826	0.1271238	-0.03972619	0	0	0	0
1.768389	0.1271238	-0.03972619	0	0	0	0
1.784955	0.1271238	-0.03972619	0	0	0	0
1.801522	0.1271238	-0.03972619	0	0	0	0
1.818089	0.1271238	-0.03972619	0	0	0	0
1.834656	0.1271238	-0.03972619	0	0	0	0
1.901479	0.1271238	-0.03972619	0	0	0	0
1.918076	0.1222344	-0.0397262	-0.2945782	-2.244439E-07	-3.531229	-2.690501E-06
1.934613	0.1222344	-0.0397262	0	0	8.890259	6.773634E-06
1.951181	0.1222344	-0.0397262	0	0	0	0
1.967747	0.1197898	-0.03972619	-0.1475736	2.248768E-07	-4.453859	6.786916E-06
1.984314	0.1161227	-0.03972619	-0.2213442	0	-2.226499	-6.787087E-06
2.000902	0.1075663	-0.0397262	-0.5158276	-2.24581E-07	-8.882061	-6.773701E-06
2.017449	0.09534287	-0.03972619	-0.7387335	2.251409E-07	-6.727363	1.357273E-05
2.03457	0.0794524	-0.03850385	-0.9280846	0.07139102	-5.62402	2.120417
2.050581	0.05745019	-0.03605916	-1.374234	0.1526928	-13.46569	2.453852
2.067432	0.02444689	-0.03239213	-1.958542	0.2176157	-17.78095	1.975653
2.083852	-0.01222344	-0.0262804	-2.233223	0.3722039	-8.255779	4.646293
2.100281	-0.04644909	-0.02383572	-2.083252	0.1488037	4.565409	-6.800758
2.116849	-0.07456302	-0.02016868	-1.696887	0.221333	11.70915	2.198063
2.133413	-0.1002323	-0.01650165	-1.549732	0.2213903	4.44151	0.001731114
2.150273	-0.141792	-0.01405696	-2.464988	0.1449993	-27.38346	-2.285536
2.166805	-0.1503484	-0.01405696	-0.5175534	5.63331E-08	58.31964	-4.34228
2.183119	-0.1760176	-0.01405696	-1.573468	-5.708805E-08	-32.14724	-3.453097E-06
2.199683	-0.1857964	-0.01405696	-0.5903656	5.622607E-08	29.90182	3.446536E-06
2.216646	-0.2065762	-0.01405696	-1.225028	-5.490393E-08	-18.93008	-3.314676E-06
2.232816	-0.2298008	-0.01405696	-1.436207	0	-6.373586	1.657052E-06
2.249383	-0.25547	-0.01405696	-1.549419	5.621555E-08	-3.458154	1.717149E-06
2.265992	-0.2848063	-0.01405696	-1.766345	-5.607513E-08	-6.538746	-3.38475E-06
2.283427	-0.3165872	-0.01650165	-1.822818	-0.1402167	-1.658825	-4.118742
2.299081	-0.3471458	-0.01894634	-1.952175	-0.1561741	-3.909417	-0.4822616
2.316039	-0.3520352	-0.01894634	-0.2883101	-1.098341E-07	51.01951	4.788803
2.332215	-0.3593693	-0.01894634	-0.4533933	0	-4.982184	3.314776E-06
2.348783	-0.3630363	-0.01894634	-0.2213344	0	7.087081	0
2.365565	-0.365481	-0.02016868	-0.1456729	-0.07283746	2.268727	-2.184048
2.382192	-0.365481	-0.02016868	0	0	4.360305	2.180182
2.398481	-0.365481	-0.02139103	0	-0.07504208	0	-2.279817
2.415085	-0.365481	-0.02139103	0	0	0	2.281437
2.431618	-0.365481	-0.02139103	0	0	0	0
2.448834	-0.365481	-0.02139103	0	0	0	0
2.464748	-0.365481	-0.02139103	0	0	0	0
2.48205	-0.365481	-0.02139103	0	0	0	0
2.49818	-0.3593693	-0.02383572	0.3789209	-0.1515688	11.33416	-4.533676
2.514448	-0.3434788	-0.02628041	0.976748	-0.1502693	18.4526	0.04011145
2.531017	-0.3202543	-0.03116979	1.401716	-0.295098	12.9416	-4.410481
2.547886	-0.290918	-0.03483682	1.739057	-0.2173819	10.08863	2.324203
2.564149	-0.2469136	-0.03728151	2.705837	-0.1503242	29.1798	2.023966
2.580873	-0.2175773	-0.03728151	1.754081	0	-28.85217	4.557025
2.59749	-0.188241	-0.03850385	1.765455	-0.07356076	0.3411623	-2.206288
2.61385	-0.1735729	-0.03850385	0.8966091	0	-26.34753	2.23071
2.630417	-0.1356802	-0.03850385	2.287273	0	42.23562	0
2.647379	-0.1161227	-0.03850385	1.152999	0	-33.82958	0
2.663548	-0.09778755	-0.03728151	1.133932	0.07559556	-0.5754867	2.281659
2.680921	-0.08678646	-0.03728151	0.633235	0	-14.92729	-2.253732
2.69745	-0.0770077	-0.03728151	0.5916345	0	-1.22711	0
2.714026	-0.07089598	-0.03728151	0.3686976	-2.247328E-07	-6.734259	-6.788508E-06
2.729815	-0.06356192	-0.03728151	0.4645035	2.359417E-07	2.96012	1.423348E-05
2.746386	-0.05622785	-0.03605916	0.4425961	0.07376587	-0.677	2.279559
2.772201	-0.04889378	-0.03605916	0.2840957	0	-3.739447	-1.740333
2.788981	-0.03422564	-0.03605916	0.8741493	0	13.85252	0
2.805459	-0.03422564	-0.03605916	0	0	-26.28429	0
2.821906	-0.02811392	-0.03605916	0.3715994	0	11.28636	0
2.838553	-0.02322454	-0.03605916	0.2937117	2.237833E-07	-2.353534	6.762066E-06
2.85504	-0.01589048	-0.03605916	0.4448425	-2.259548E-07	4.561235	-1.357342E-05
2.871606	-0.0110011	-0.03605916	0.2951446	2.248752E-07	-4.529036	1.363964E-05
2.888173	-0.004889378	-0.03483682	0.368899	0.07377966	2.225974	2.226732
2.904877	0.001222344	-0.03483682	0.3658924	0	-0.09036521	-2.217532
2.921306	0.006111722	-0.03483682	0.2976075	0	-2.060962	0
2.937872	0.0110011	-0.03361448	0.295132	0.07378285	-0.07502583	2.236135
2.954439	0.01344579	-0.03361447	0.1475638	2.248622E-07	-4.453712	-2.226812
2.971005	0.01589048	-0.03361447	0.1475723	0	0.0002563503	-6.786648E-06
2.987572	0.01711282	-0.03361448	0.07378307	-2.248654E-07	-2.227075	-6.786795E-06
3.004139	0.01955751	-0.03361447	0.1475637	2.248622E-07	2.226751	1.35731E-05
3.020704	0.0220022	-0.03361447	0.1475809	0	0.0005199114	-6.786843E-06
3.037637	0.02322454	-0.03361448	0.0721903	-2.200115E-07	-2.250645	-6.568031E-06
3.053839	0.02689158	-0.03361447	0.2263259	2.299214E-07	4.651789	1.357891E-05
3.070406	0.02811392	-0.03361447	0.0737819	0	-4.655069	-7.016336E-06
3.086972	0.02933627	-0.03361447	0.07378519	0	9.939124E-05	0
3.103694	0.03055861	-0.03361448	0.07310031	-2.227846E-07	-0.02057452	-6.692689E-06
3.120106	0.03055861	-0.03361448	0	0	-2.206188	6.723702E-06
3.136673	0.03055861	-0.03361448	0	0	0	0
3.153239	0.03055861	-0.03361448	0	0	0	0
3.170021	0.03055861	-0.03361448	0	0	0	0
3.186678	0.03055861	-0.03361448	0	0	0	0
3.202939	0.03055861	-0.03361448	0	0	0	0
3.219506	0.03055861	-0.03361448	0	0	0	0
3.236085	0.03055861	-0.03361448	0	0	0	0
3.252639	0.03055861	-0.03361448	0	0	0	0
3.269206	0.03055861	-0.03361448	0	0	0	0
3.286245	0.03055861	-0.03361448	0	0	0	0
3.302339	0.03055861	-0.03361448	0	0	0	0
3.318905	0.03055861	-0.03361448	0	0	0	0
3.335484	0.03055861	-0.03361448	0	0	0	0
3.35204	0.03055861	-0.03361448	0	0	0	0
3.368891	0.03055861	-0.03361448	0	0	0	0
3.385356	0.03055861	-0.03361448	0	0	0	0
3.401947	0.03055861	-0.03361448	0	0	0	0
3.418305	0.03055861	-0.03361448	0	0	0	0
3.434872	0.03055861	-0.03361448	0	0	0	0
3.451899	0.03055861	-0.03361448	0	0	0	0
3.468005	0.03055861	-0.03361448	0	0	0	0
3.484571	0.03055861	-0.03361448	0	0	0	0
3.50117	0.03055861	-0.03361448	0	0	0	0
3.517707	0.03055861	-0.03361448	0	0	0	0
3.534282	0.03055861	-0.03361448	0	0	0	0
3.55091	0.03055861	-0.03361448	0	0	0	0
3.567462	0.03055861	-0.03361448	0	0	0	0
3.584372	0.03055861	-0.03361448	0	0	0	0
3.600538	0.03055861	-0.03361448	0	0	0	0
3.617452	0.03055861	-0.03361448	0	0	0	0
3.633671	0.03055861	-0.03361448	0	0	0	0
3.650238	0.03055861	-0.03361448	0	0	0	0
3.666805	0.03055861	-0.03361448	0	0	0	0
3.683437	0.03055861	-0.03361448	0	0	0	0
3.700573	0.03055861	-0.03361448	0	0	0	0
3.716505	0.03055861	-0.03361448	0	0	0	0
3.733189	0.03055861	-0.03361448	0	0	0	0
3.750632	0.03055861	-0.03361448	0	0	0	0
3.766203	0.03055861	-0.03361448	0	0	0	0
3.782771	0.03055861	-0.03361448	0	0	0	0
3.800063	0.03055861	-0.03361448	0	0	0	0
3.815904	0.03055861	-0.03361448	0	0	0	0
3.832472	0.03055861	-0.03361448	0	0	0	0
3.849152	0.03055861	-0.03361448	0	0	0	0
3.865788	0.03055861	-0.03361448	0	0	0	0
3.882171	0.03055861	-0.03361448	0	0	0	0
3.898738	0.03055861	-0.03361448	0	0	0	0
3.915482	0.03055861	-0.03361448	0	0	0	0
3.931871	0.03055861	-0.03361448	0	0	0	0
3.948653	0.03055861	-0.03361448	0	0	0	0
3.965216	0.03055861	-0.03361448	0	0	0	0
3.981571	0.03055861	-0.03361448	0	0	0	0
3.998138	0.03055861	-0.03361448	0	0	0	0
4.015077	0.03055861	-0.03361448	0	0	0	0
4.031271	0.03055861	-0.03361448	0	0	0	0
4.047838	0.03055861	-0.03361448	0	0	0	0
4.064722	0.03055861	-0.03361448	0	0	0	0
4.080999	0.03055861	-0.03361448	0	0	0	0
4.097535	0.03055861	-0.03361448	0	0	0	0
4.114104	0.03055861	-0.03116979	-1.124165E-07	0.1475448	-3.395768E-06	4.456888
4.130672	0.03055861	-0.03116979	0	0	3.392543E-06	-4.452655
4.147237	0.02444689	-0.02383572	-0.3689468	0.4427361	-11.13548	13.36257
4.16386	0.01344579	-0.007945239	-0.6617802	0.9559047	-8.823255	15.46209
4.180371	0.007334067	-0.0006111723	-0.3701721	0.4442066	8.800875	-15.4433
4.196939	0.003667033	0.003055861	-0.2213362	0.2213362	4.499517	-6.737682
4.213505	0.002444689	0.004278206	-0.07378297	0.07378299	4.453166	-4.453166
4.230072	0.002444689	0.004278206	0	0	2.226839	-2.226839
4.246639	0.002444689	0.004278206	0	0	0	0
4.263206	0.002444689	0.004278206	0	0	0	0
4.279772	0.002444689	0.004278206	0	0	0	0
4.296339	0.002444689	0.004278206	0	0	0	0
4.312905	0.002444689	0.004278206	0	0	0	0
4.329865	0.002444689	0.004278206	0	0	0	0
4.346039	0.002444689	0.004278206	0	0	0	0
4.362606	0.002444689	0.004278206	0	0	0	0
4.379173	0.002444689	0.004278206	0	0	0	0
4.395984	0.002444689	0.004278206	0	0	0	0
4.412822	0.002444689	0.004278206	0	0	0	0
4.428871	0.002444689	0.004278206	0	0	0	0
4.445858	0.002444689	0.004278206	0	0	0	0
4.462005	0.002444689	0.004278206	0	0	0	0
4.478572	0.002444689	0.004278206	0	0	0	0
4.495138	0.002444689	0.004278206	0	0	0	0
4.511705	0.002444689	0.004278206	0	0	0	0
4.529787	0.002444689	0.004278206	0	0	0	0
4.546366	0.002444689	0.004278206	0	0	0	0
4.562923	0.002444689	0.004278206	0	0	0	0
4.579489	0.002444689	0.004278206	0	0	0	0
4.596056	0.002444689	0.004278206	0	0	0	0
4.613521	0.002444689	0.004278206	0	0	0	0
4.629246	0.002444689	0.004278206	0	0	0	0
4.645757	0.002444689	0.004278206	0	0	0	0
4.662418	0.002444689	0.004278206	0	0	0	0
4.67942	0.002444689	0.004278206	0	0	0	0
4.695837	0.002444689	0.004278206	0	0	0	0
4.712021	0.002444689	0.004278206	0	0	0	0
4.728593	0.002444689	0.004278206	0	0	0	0
4.745484	0.002444689	0.004278206	0	0	0	0
4.761964	0.002444689	0.004278206	0	0	0	0
4.778593	0.002444689	0.004278206	0	0	0	0
4.795423	0.002444689	0.004278206	0	0	0	0
4.811426	0.002444689	0.004278206	0	0	0	0
4.827993	0.002444689	0.004278206	0	0	0	0
4.84456	0.002444689	0.004278206	0	0	0	0
4.861126	0.002444689	0.004278206	0	0	0	0
4.877692	0.002444689	0.004278206	0	0	0	0
4.89426	0.002444689	0.004278206	0	0	0	0
4.910827	0.002444689	0.004278206	0	0	0	0
4.927393	0.002444689	0.004278206	0	0	0	0
4.943959	0.002444689	0.004278206	0	0	0	0
4.960526	0.002444689	0.004278206	0	0	0	0
4.977211	0.002444689	0.004278206	0	0	0	0
4.993659	0.002444689	0.004278206	0	0	0	0
5.010227	0.002444689	0.004278206	0	0	0	0
5.026793	0.002444689	0.004278206	0	0	0	0
5.04336	0.002444689	0.004278206	0	0	0	0
5.059925	0.002444689	0.004278206	0	0	0	0
5.076495	0.002444689	0.004278206	0	0	0	0
5.09306	0.002444689	0.004278206	0	0	0	0
5.11023	0.002444689	0.004278206	0	0	0	0
5.126429	0.002444689	0.004278206	0	0	0	0
5.14276	0.002444689	0.004278206	0	0	0	0
5.159327	0.002444689	0.004278206	0	0	0	0
5.175894	0.002444689	0.004278206	0	0	0	0
5.192461	0.002444689	0.004278206	0	0	0	0
5.209028	0.002444689	0.004278206	0	0	0	0
5.225594	0.002444689	0.004278206	0	0	0	0
5.24216	0.002444689	0.004278206	0	0	0	0
5.259148	0.002444689	0.004278206	0	0	0	0
5.275583	0.002444689	0.004278206	0	0	0	0
5.291858	0.002444689	0.004278206	0	0	0	0
5.308424	0.002444689	0.004278206	0	0	0	0
5.32537	0.002444689	0.004278206	0	0	0	0
5.341558	0.002444689	0.004278206	0	0	0	0
5.358123	0.002444689	0.004278206	0	0	0	0
5.374688	0.002444689	0.004278206	0	0	0	0
5.391258	0.002444689	0.004278206	0	0	0	0
5.407825	0.002444689	0.004278206	0	0	0	0
5.424626	0.002444689	0.004278206	0	0	0	0
5.440958	0.002444689	0.004278206	0	0	0	0
5.457524	0.002444689	0.004278206	0	0	0	0
5.474091	0.002444689	0.003055861	1.405409E-08	-0.07378299	4.241716E-07	-2.226871
5.490657	0.003667033	0.003055861	0.0737872	0	2.22703	2.226903
5.507223	0.003667033	0.003055861	0	0	-2.227062	0
5.52379	0.003667033	0.003055861	0	0	0	0
5.540358	0.003667033	0.003055861	0	0	0	0
5.55697	0.003667033	0.001833517	0	-0.07358179	0	-2.217703
5.573491	0.003667033	0.001833517	0	0	0	2.220799
5.590058	0.003667033	0.001833517	0	0	0	0
5.606813	0.003667033	0.001833517	0	0	0	0
5.623196	0.003667033	0.001833517	0	0	0	0
5.639761	0.003667033	0.001833517	0	0	0	0
5.656329	0.003667033	0.001833517	0	0	0	0
5.673558	0.003667033	0.001833517	0	0	0	0
5.689462	0.003667033	0.001833517	0	0	0	0
5.706028	0.003667033	0.001833517	0	0	0	0
5.722595	0.003667033	0.001833517	0	0	0	0
5.739161	0.003667033	0.001833517	0	0	0	0
5.75573	0.003667033	0.001833517	0	0	0	0
5.772296	0.003667033	0.001833517	0	0	0	0
5.788861	0.003667033	0.001833517	0	0	0	0
5.805589	0.003667033	0.001833517	0	0	0	0
5.821991	0.003667033	0.001833517	0	0	0	0
5.838558	0.003667033	0.001833517	0	0	0	0
5.855125	0.003667033	0.001833517	0	0	0	0
5.871695	0.003667033	0.001833517	0	0	0	0
5.888302	0.003667033	0.001833517	0	0	0	0
5.905526	0.003667033	0.001833517	0	0	0	0
5.921392	0.003667033	0.0006111722	0	-0.07704039	0	-2.3282
5.937959	0.004889378	0.0006111722	0.07378299	0	2.274933	2.375368
5.954697	0.004889378	0.0006111722	0	0	-2.215425	0
5.971281	0.004889378	0.0006111722	0	0	0	0
5.987662	0.004889378	0.0006111722	0	0	0	0
6.004996	0.004889378	0.0006111722	0	0	0	0
6.020793	0.004889378	0.0006111722	0	0	0	0
6.04158	0.004889378	0.0006111722	0	0	0	0
6.058152	0.004889378	0.0006111722	0	0	0	0
6.074718	0.004889378	0.0006111722	0	0	0	0
6.091286	0.004889378	0.0006111722	0	0	0	0
6.107851	0.004889378	0.0006111722	0	0	0	0
6.124419	0.004889378	0.0006111722	0	0	0	0
6.140986	0.004889378	0.0006111722	0	0	0	0
6.157552	0.004889378	0.0006111722	0	0	0	0
6.174119	0.004889378	0.0006111722	0	0	0	0
6.190686	0.004889378	0.0006111722	0	0	0	0
6.207407	0.004889378	0.0006111722	0	0	0	0
6.223817	0.004889378	0.0006111722	0	0	0	0
6.240384	0.004889378	0.0006111722	0	0	0	0
6.256953	0.004889378	0.0006111722	0	0	0	0
6.273524	0.004889378	0.0006111722	0	0	0	0
6.290084	0.004889378	0.0006111722	0	0	0	0
6.306652	0.004889378	0.0006111722	0	0	0	0
6.323217	0.004889378	0.0006111722	0	0	0	0
6.340216	0.004889378	0.0006111722	0	0	0	0
6.356354	0.0110011	0.0006111722	0.3787144	0	11.4288	0
6.372918	0.0220022	0.0006111722	0.6641616	0	8.728745	0
6.389734	0.04644909	0.00550055	1.453775	0.2907551	23.65528	8.71045
6.406053	0.09289818	0.01405696	2.846355	0.5243285	42.02753	7.049157
6.422822	0.1393473	0.02016868	2.76987	0.3644567	-2.311539	-4.831685
6.439188	0.1967975	0.03116979	3.510439	0.6722118	22.35009	9.287933
6.455756	0.2444689	0.03728151	2.877289	0.3688832	-19.22499	-9.210277
6.472415	0.2823616	0.04461557	2.274505	0.4402267	-18.14089	2.147096
6.489666	0.2921403	0.04461558	0.5668831	4.319162E-07	-50.35777	-12.98227
6.505595	0.2933627	0.04461558	0.07673584	0	-14.77269	-1.301765E-05
6.522243	0.2933627	0.04461558	0	0	-2.355519	0
6.538586	0.2933627	0.04461558	0	0	0	0
6.555658	0.2933627	0.04461558	0	0	0	0
6.571717	0.2933627	0.04461558	0	0	0	0
6.588345	0.2933627	0.04461558	0	0	0	0
6.60524	0.2933627	0.04461558	0	0	0	0
6.621417	0.2933627	0.04461558	0	0	0	0
6.637983	0.2933627	0.04461558	0	0	0	0
6.65455	0.2958074	0.04461557	0.1475657	-2.248654E-07	4.453734	-6.786745E-06
6.671117	0.3068085	0.03850385	0.6640474	-0.3689149	15.5879	-11.13419
6.687684	0.3153649	0.03605916	0.5164651	-0.1475617	-4.454108	6.68055
6.704577	0.3226989	0.03361447	0.4341376	-0.144713	-2.46043	0.08513635
6.720817	0.3288107	0.03239213	0.376347	-0.07526904	-1.744197	2.095912
6.737384	0.330033	0.03239213	0.07378285	0	-9.222718	2.29434
6.753951	0.330033	0.03239213	0	0	-2.226835	0
6.770515	0.3324777	0.03239213	0.1475827	-2.248913E-07	4.454439	-6.78782E-06
6.787083	0.3483682	0.03116979	0.9591254	-0.07377849	24.49382	-2.226761
6.803651	0.3532576	0.02994744	0.2951144	-0.07377882	-20.03931	-1.011836E-05
6.820218	0.3557023	0.02994744	0.1475614	1.124295E-07	-4.453093	2.226621
6.836784	0.3557023	0.02994744	0	0	-4.453541	-3.393226E-06
6.853725	0.3569246	0.02994744	0.07215638	0	2.15348	0
6.869917	0.3569246	0.02994744	0	0	-2.177778	0
6.886724	0.3569246	0.02994744	0	0	0	0
6.903059	0.3569246	0.02994744	0	0	0	0
6.919618	0.3569246	0.02872509	-1.799804E-06	-0.07381931	-5.471505E-05	-2.244148
6.936361	0.3569246	0.02872509	0	0	5.40452E-05	2.216674
6.953025	0.3569246	0.02872509	0	0	0	0
6.969319	0.3569246	0.02872509	0	0	0	0
6.985885	0.3569246	0.02872509	0	0	0	0
7.002452	0.3569246	0.02872509	0	0	0	0
7.019078	0.3569246	0.02872509	0	0	0	0
7.035584	0.3569246	0.02872509	0	0	0	0
7.052149	0.3557023	0.0287251	-0.07378922	2.248849E-07	-2.231201	6.799956E-06
7.068717	0.3520352	0.02750275	-0.2213358	-0.07377882	-4.453157	-2.226752
7.085285	0.3483682	0.02505806	-0.2213312	-0.1475532	0.0001376077	-2.226418
7.102165	0.3422565	0.02505806	-0.3620674	0	-4.207584	4.411391
7.118418	0.3361447	0.02383572	-0.3760489	-0.07520964	-0.4219856	-2.269962
7.134984	0.330033	0.02261337	-0.3689142	-0.07378296	0.217392	0.04347086
7.151764	0.3251436	0.02139103	-0.2913908	-0.07284781	2.324808	0.02804376
7.168139	0.3190319	0.02016868	-0.3732437	-0.07464885	-2.468868	-0.05432355
7.184688	0.3141426	0.01894634	-0.295446	-0.07386162	2.362967	0.02391069
7.201635	0.3116979	0.01894634	-0.1442524	0	4.51373	2.205063
7.217821	0.3116979	0.01894634	0	0	4.353672	0
7.234468	0.3116979	0.01894634	0	0	0	0
7.251168	0.3116979	0.01894634	0	0	0	0
7.267657	0.3116979	0.01894634	0	0	0	0
7.284085	0.3116979	0.01894634	0	0	0	0
7.3378	0.3116979	0.01894634	0	0	0	0
7.354369	0.3116979	0.01894634	0	0	0	0
7.370936	0.3116979	0.01894634	0	0	0	0
7.387504	0.3116979	0.01894634	0	0	0	0
7.40428	0.3116979	0.01894634	0	0	0	0
7.420637	0.3116979	0.01894634	0	0	0	0
7.437203	0.3116979	0.01894634	0	0	0	0
7.453824	0.3116979	0.01894634	0	0	0	0
7.470336	0.3116979	0.01894634	0	0	0	0
7.487335	0.3116979	0.01894634	0	0	0	0
7.503469	0.3116979	0.01894634	0	0	0	0
7.520036	0.3116979	0.01894634	0	0	0	0
7.536602	0.3116979	0.01894634	0	0	0	0
7.55317	0.3116979	0.01894634	0	0	0	0
7.569737	0.3116979	0.01894634	0	0	0	0
7.586302	0.3116979	0.01894634	0	0	0	0
7.602869	0.3116979	0.01894634	0	0	0	0
7.619436	0.3116979	0.01894634	0	0	0	0
7.636003	0.3116979	0.01894634	0	0	0	0
7.65257	0.3116979	0.01894634	0	0	0	0
7.66948	0.3116979	0.01894634	0	0	0	0
7.685704	0.3116979	0.01894634	0	0	0	0
7.702489	0.3116979	0.01894634	0	0	0	0
7.719	0.3116979	0.01894634	0	0	0	0
7.735404	0.3116979	0.01894634	0	0	0	0
7.752036	0.3116979	0.01894634	0	0	0	0
7.768536	0.3116979	0.01894634	0	0	0	0
7.785101	0.3116979	0.01894634	0	0	0	0
7.801668	0.3116979	0.01894634	0	0	0	0
7.818583	0.3116979	0.01894634	0	0	0	0
7.835195	0.3116979	0.01894634	0	0	0	0
7.851373	0.3116979	0.01894634	0	0	0	0
7.867939	0.3116979	0.01894634	0	0	0	0
7.884643	0.3116979	0.01894634	0	0	0	0
7.901073	0.3116979	0.01894634	0	0	0	0
7.917639	0.3116979	0.01894634	0	0	0	0
7.934206	0.3116979	0.01894634	0	0	0	0
7.95131	0.3116979	0.01894634	0	0	0	0
7.96734	0.3116979	0.01894634	0	0	0	0
7.983907	0.3116979	0.01894634	0	0	0	0
8.000689	0.3116979	0.01894634	0	0	0	0
8.02025	0.3116979	0.01894634	0	0	0	0
8.036821	0.3116979	0.01894634	0	0	0	0
8.053388	0.3116979	0.01894634	0	0	0	0
8.069954	0.3116979	0.01894634	0	0	0	0
8.08652	0.3116979	0.01894634	0	0	0	0
8.103086	0.3116979	0.01894634	0	0	0	0
8.119653	0.3116979	0.01894634	0	0	0	0
8.13622	0.3116979	0.01894634	0	0	0	0
8.152786	0.3116979	0.01894634	0	0	0	0
8.169353	0.3116979	0.01894634	0	0	0	0
8.18592	0.3116979	0.01894634	0	0	0	0
8.202486	0.3116979	0.01894634	0	0	0	0
8.219052	0.3116979	0.01894634	0	0	0	0
8.235619	0.3116979	0.01894634	0	0	0	0
8.252185	0.3116979	0.01894634	0	0	0	0
8.268752	0.3116979	0.01894634	0	0	0	0
8.285318	0.3116979	0.01894634	0	0	0	0
8.301885	0.3116979	0.01894634	0	0	0	0
8.318451	0.3116979	0.01894634	0	0	0	0
8.335454	0.3116979	0.01894634	0	0	0	0
8.351584	0.3116979	0.01894634	0	0	0	0
8.368404	0.3116979	0.01894634	0	0	0	0
8.384718	0.3116979	0.01894634	0	0	0	0
8.402024	0.3116979	0.01894634	0	0	0	0
8.417851	0.3116979	0.01894634	0	0	0	0
8.434609	0.3116979	0.01894634	0	0	0	0
8.45099	0.3116979	0.01894634	0	0	0	0
8.467717	0.3116979	0.01894634	0	0	0	0
8.484118	0.3116979	0.01894634	0	0	0	0
8.500915	0.3116979	0.01894634	0	0	0	0
8.517516	0.3116979	0.01894634	0	0	0	0
8.533821	0.3116979	0.01894634	0	0	0	0
8.550387	0.3116979	0.01894634	0	0	0	0
8.566955	0.3116979	0.01894634	0	0	0	0
8.583521	0.3116979	0.01894634	0	0	0	0
8.600236	0.3116979	0.01894634	0	0	0	0
8.616652	0.3116979	0.01894634	0	0	0	0
8.633219	0.3116979	0.01894634	0	0	0	0
8.650157	0.3116979	0.01894634	0	0	0	0
8.666352	0.3116979	0.01894634	0	0	0	0
8.683002	0.3116979	0.01894634	0	0	0	0
8.699487	0.3116979	0.01894634	0	0	0	0
8.716053	0.3116979	0.01894634	0	0	0	0
8.732764	0.3116979	0.01894634	0	0	0	0
8.749187	0.3116979	0.01894634	0	0	0	0
8.765754	0.3116979	0.01894634	0	0	0	0
8.78237	0.3116979	0.01894634	0	0	0	0
8.798887	0.3116979	0.01894634	0	0	0	0
8.815454	0.3116979	0.01894634	0	0	0	0
8.832021	0.3116979	0.01894634	0	0	0	0
8.848587	0.3116979	0.01894634	0	0	0	0
8.865401	0.3116979	0.01894634	0	0	0	0
8.881719	0.3116979	0.01894634	0	0	0	0
8.898288	0.3116979	0.01894634	0	0	0	0
8.914854	0.3116979	0.01894634	0	0	0	0
8.931519	0.3116979	0.01894634	0	0	0	0
8.947987	0.3116979	0.01894634	0	0	0	0
8.964776	0.3116979	0.01894634	0	0	0	0
8.981368	0.3116979	0.01894634	0	0	0	0
8.997949	0.3116979	0.01894634	0	0	0	0
9.014255	0.3116979	0.01894634	0	0	0	0
9.030821	0.3116979	0.01894634	0	0	0	0
9.047586	0.3116979	0.01894634	0	0	0	0
9.064353	0.3116979	0.01894634	0	0	0	0
9.080521	0.3116979	0.01894634	0	0	0	0
9.097101	0.3116979	0.01894634	0	0	0	0
9.113659	0.3104755	0.01894634	-0.07382502	0	-2.227787	0
9.130227	0.3068085	0.01650165	-0.2213294	-0.1475533	-4.452846	-4.454321
9.147116	0.3019191	0.01650165	-0.2895067	1.1029E-07	-2.037771	4.410266
9.163355	0.3006967	0.01527931	-0.07527308	-0.07527147	6.466887	-2.272159
9.179921	0.298252	0.01527931	-0.1475699	0	-2.203807	2.294481
9.196493	0.2958074	0.01527931	-0.147519	0	0.001537409	0
9.213058	0.2921403	0.01527931	-0.2213677	5.622121E-08	-2.228565	1.696613E-06
9.229622	0.2860286	0.01405696	-0.3689886	-0.07379789	-4.455977	-2.227611
9.24619	0.2786946	0.01283462	-0.4426589	-0.07377659	-2.223566	0.0006429273
9.262951	0.2676935	0.01283462	-0.6563585	0	-6.41182	2.213585
9.279453	0.2579147	0.01283462	-0.5925671	-5.643565E-08	1.917776	-1.696639E-06
9.295886	0.2493583	0.01405696	-0.5206922	0.07438464	2.182317	2.258521
9.312453	0.2456912	0.01405696	-0.2213431	-5.621474E-08	9.071187	-2.254082
9.329021	0.2383572	0.01405696	-0.4426844	5.621474E-08	-6.680093	3.393129E-06
9.345585	0.2261337	0.01527931	-0.7379365	0.07379358	-8.911497	2.227285
9.36216	0.2053539	0.01527931	-1.253698	5.618887E-08	-15.56346	-2.226773
9.379108	0.1870187	0.01650165	-1.081804	0.07212017	5.12756	2.151326
9.395289	0.1674612	0.01650165	-1.208673	0	-3.829464	-2.176904
9.411856	0.1479037	0.01772399	-1.180561	0.07378508	0.8584294	2.253167
9.428423	0.1307909	0.01894634	-1.032932	0.07378095	4.455592	-0.0001248003
9.444989	0.1185674	0.02016868	-0.7378511	0.07378497	8.905814	0.0001214273
9.461555	0.1112334	0.02016868	-0.4427103	1.12436E-07	8.90788	-2.22696
9.478122	0.106344	0.02016868	-0.2951408	0	4.453913	-3.393519E-06
9.494688	0.1026769	0.02139103	-0.2213554	0.07378519	2.226976	2.22697
9.511255	0.1014546	0.02139103	-0.07378072	-1.124295E-07	4.453939	-2.226909
9.527822	0.0990099	0.02139103	-0.1475704	-1.12436E-07	-2.227041	-1.953625E-10
9.544386	0.09778756	0.02139103	-0.07379347	1.124489E-07	2.226848	6.78782E-06
9.560955	0.09534287	0.02139103	-0.1475445	0	-2.225873	-3.393812E-06
9.577521	0.09534287	0.02139103	0	0	4.452773	0
9.594094	0.09534287	0.02139103	0	0	0	0
9.610677	0.09534287	0.02139103	0	0	0	0
9.62722	0.09534287	0.02139103	0	0	0	0
9.643786	0.09534287	0.02139103	0	0	0	0
9.660356	0.09534287	0.02139103	0	0	0	0
9.67692	0.09534287	0.02139103	0	0	0	0
9.693487	0.09412052	0.02139103	-0.07378118	0	-2.226913	0
9.710055	0.09412052	0.02139103	0	0	2.226656	0
9.726621	0.09289818	0.02139103	-0.07378922	0	-2.227027	0
9.743186	0.09167583	0.02139103	-0.07378967	0	-1.371798E-05	0
9.75989	0.08923115	0.02139103	-0.1463567	0	-2.181225	0
9.77632	0.08923115	0.02139103	0	0	4.417054	0
9.792992	0.08800881	0.02139103	-0.07332068	0	-2.21499	0
9.809452	0.08800881	0.02139103	0	0	2.213014	0
9.826019	0.08800881	0.02139103	0	0	0	0
9.842586	0.08800881	0.02139103	0	0	0	0
9.859186	0.08556411	0.02139103	-0.1472652	0	-4.440127	0
9.875719	0.08556411	0.02139103	0	0	4.444601	0
9.892595	0.08434177	0.02139103	-0.07242986	1.10371E-07	-2.167967	3.303619E-06
9.908853	0.08434177	0.02139103	0	0	2.186	-3.331099E-06
9.925419	0.08311943	0.02139103	-0.07378497	-1.12436E-07	-2.247927	-3.425465E-06
9.941985	0.08311943	0.02139103	0	0	2.226963	3.393519E-06
9.958551	0.08311943	0.02139103	0	0	0	0
9.975117	0.08311943	0.02139103	0	0	0	0
9.991686	0.08189708	0.02139103	-0.07377268	0	-2.226464	0
10.00865	0.08189708	0.02139103	0	0	2.199871	0
10.02522	0.08067473	0.02139103	-0.07376844	0	-2.199682	0
10.04179	0.08067473	0.02139103	0	0	2.226208	0
10.05845	0.07945239	0.02139103	-0.07337944	0	-2.208621	0
10.07492	0.0770077	0.02139103	-0.1483814	-1.130542E-07	-2.263629	-3.412082E-06
10.09149	0.07456302	0.02139103	-0.1475614	1.124295E-07	0.02481565	6.823967E-06
10.10806	0.07334067	0.02016868	-0.07378542	-0.07378508	2.226629	-2.226906
10.12462	0.07211832	0.02016868	-0.07378542	0	0	2.226966
10.14119	0.06967364	0.02016868	-0.147553	0	-2.226308	0
10.15777	0.06722895	0.02016868	-0.147485	0	0.002048775	0
10.17432	0.06478426	0.02016868	-0.1476639	-1.125072E-07	-0.00539843	-3.395767E-06
10.19089	0.06233957	0.02016868	-0.1475617	0	0.003086581	3.396647E-06
10.20745	0.06233957	0.02016868	0	0	4.453548	0
10.22402	0.06233957	0.02016868	0	0	0	0
10.24059	0.06233957	0.02016868	0	0	0	0
10.25715	0.06233957	0.02016868	0	0	0	0
10.27372	0.06233957	0.02016868	0	0	0	0
10.29029	0.06233957	0.02016868	0	0	0	0
10.30694	0.06233957	0.02016868	0	0	0	0
10.32366	0.06233957	0.02016868	0	0	0	0
10.33999	0.06233957	0.02016868	0	0	0	0
10.35676	0.06233957	0.02016868	0	0	0	0
10.37312	0.06233957	0.02016868	0	0	0	0
10.39011	0.06233957	0.02016868	0	0	0	0
10.40628	0.06233957	0.02016868	0	0	0	0
10.42303	0.06233957	0.02016868	0	0	0	0
10.43939	0.06233957	0.02016868	0	0	0	0
10.45596	0.06233957	0.02016868	0	0	0	0
10.47252	0.06233957	0.02016868	0	0	0	0
10.48909	0.06233957	0.02016868	0	0	0	0
10.50591	0.06233957	0.02016868	0	0	0	0
10.52222	0.06233957	0.02016868	0	0	0	0
10.53879	0.06233957	0.02016868	0	0	0	0
10.55536	0.06233957	0.02016868	0	0	0	0
10.57192	0.06233957	0.02016868	0	0	0	0
10.58849	0.06233957	0.02016868	0	0	0	0
10.60569	0.06233957	0.02016868	0	0	0	0
10.62811	0.06233957	0.02016868	0	0	0	0
10.64475	0.06233957	0.02016868	0	0	0	0
10.66125	0.06233957	0.02016868	0	0	0	0
10.67782	0.06233957	0.02016868	0	0	0	0
10.69438	0.06233957	0.02016868	0	0	0	0
10.71095	0.06233957	0.02016868	0	0	0	0
10.72752	0.06233957	0.02016868	0	0	0	0
10.74408	0.06233957	0.02016868	0	0	0	0
10.76065	0.06233957	0.02016868	0	0	0	0
10.77722	0.06233957	0.02016868	0	0	0	0
10.79378	0.06233957	0.02016868	0	0	0	0
10.81035	0.06233957	0.02016868	0	0	0	0
10.82691	0.06233957	0.02016868	0	0	0	0
10.84348	0.06233957	0.02016868	0	0	0	0
10.86005	0.06233957	0.02016868	0	0	0	0
10.87661	0.06233957	0.02016868	0	0	0	0
10.89318	0.06233957	0.02016868	0	0	0	0
10.90975	0.06233957	0.02016868	0	0	0	0
10.92631	0.06233957	0.02016868	0	0	0	0
10.94288	0.06233957	0.02016868	0	0	0	0
10.95945	0.06233957	0.02016868	0	0	0	0
10.97601	0.06233957	0.02016868	0	0	0	0
10.99258	0.06233957	0.02016868	0	0	0	0
11.00915	0.06233957	0.02016868	0	0	0	0
11.02571	0.06233957	0.02016868	0	0	0	0
11.04228	0.06233957	0.02016868	0	0	0	0
11.05885	0.06233957	0.02016868	0	0	0	0
11.07546	0.06233957	0.02016868	0	0	0	0
11.09198	0.06233957	0.02016868	0	0	0	0
11.10855	0.06233957	0.02016868	0	0	0	0
11.12511	0.06233957	0.02016868	0	0	0	0
11.14168	0.06233957	0.02016868	0	0	0	0
11.15825	0.06233957	0.02016868	0	0	0	0
11.17481	0.06233957	0.02016868	0	0	0	0
11.19138	0.06233957	0.02016868	0	0	0	0
11.20794	0.06233957	0.02016868	0	0	0	0
11.22451	0.06233957	0.02016868	0	0	0	0
11.24108	0.06233957	0.02016868	0	0	0	0
11.25765	0.06233957	0.02016868	0	0	0	0
11.27421	0.06233957	0.02016868	0	0	0	0
11.29078	0.06233957	0.02016868	0	0	0	0
11.30734	0.06233957	0.02016868	0	0	0	0
11.32394	0.06233957	0.02016868	0	0	0	0
11.34103	0.06233957	0.02016868	0	0	0	0
11.35713	0.06233957	0.02016868	0	0	0	0
11.37361	0.06233957	0.02016868	0	0	0	0
11.39018	0.06233957	0.02016868	0	0	0	0
11.40674	0.06233957	0.02016868	0	0	0	0
11.42381	0.06233957	0.02016868	0	0	0	0
11.43988	0.06233957	0.02016868	0	0	0	0
11.45644	0.06233957	0.02016868	0	0	0	0
11.47301	0.06233957	0.02016868	0	0	0	0
11.48958	0.06233957	0.02016868	0	0	0	0
11.50615	0.06233957	0.02016868	0	0	0	0
11.52271	0.06233957	0.02016868	0	0	0	0
11.53928	0.06233957	0.02016868	0	0	0	0
11.55587	0.06233957	0.02016868	0	0	0	0
11.57241	0.06233957	0.02016868	0	0	0	0
11.58898	0.06233957	0.02016868	0	0	0	0
11.60555	0.06233957	0.02016868	0	0	0	0
11.62223	0.06233957	0.02016868	0	0	0	0
11.63888	0.06233957	0.02016868	0	0	0	0
11.65524	0.06233957	0.02016868	0	0	0	0
11.67181	0.06233957	0.02016868	0	0	0	0
11.68858	0.06233957	0.02016868	0	0	0	0
11.70498	0.06233957	0.02016868	0	0	0	0
11.72167	0.06233957	0.02016868	0	0	0	0
11.73839	0.06233957	0.02016868	0	0	0	0
11.75464	0.06233957	0.02016868	0	0	0	0
11.77121	0.06233957	0.02016868	0	0	0	0
11.78778	0.06233957	0.02016868	0	0	0	0
11.80435	0.06233957	0.02016868	0	0	0	0
11.82114	0.06233957	0.02016868	0	0	0	0
11.83769	0.06233957	0.02016868	0	0	0	0
11.85405	0.06233957	0.02016868	0	0	0	0
11.87062	0.06233957	0.02016868	0	0	0	0
11.88718	0.06233957	0.02016868	0	0	0	0
11.90375	0.06233957	0.02016868	0	0	0	0
11.92031	0.06233957	0.02016868	0	0	0	0
11.93688	0.06233957	0.02016868	0	0	0	0
11.95634	0.06233957	0.02016868	0	0	0	0
11.97296	0.06233957	0.02016868	0	0	0	0
11.98948	0.06233957	0.02016868	0	0	0	0
12.00605	0.06233957	0.02016868	0	0	0	0
12.02277	0.06233957	0.02016868	0	0	0	0
12.03918	0.06233957	0.02016868	0	0	0	0
12.05602	0.06233957	0.02016868	0	0	0	0
12.07231	0.06233957	0.02016868	0	0	0	0
12.08912	0.06233957	0.02016868	0	0	0	0
12.10545	0.06233957	0.02016868	0	0	0	0
12.12232	0.06233957	0.02016868	0	0	0	0
12.13859	0.06233957	0.02016868	0	0	0	0
12.15539	0.06233957	0.02016868	0	0	0	0
12.17172	0.06233957	0.02016868	0	0	0	0
12.18828	0.06233957	0.02016868	0	0	0	0
12.20491	0.06233957	0.02016868	0	0	0	0
12.22155	0.06233957	0.02016868	0	0	0	0
12.23798	0.06233957	0.02016868	0	0	0	0
12.25455	0.06233957	0.01894634	2.248719E-07	-0.07378497	6.814893E-06	-2.236103
12.27112	0.05011613	0.017724	-0.737639	-0.07376385	-22.26007	0.0006371953
12.28768	0.03055861	0.01650165	-1.180834	-0.07380219	-13.37603	-0.001156933
12.30425	0.003667034	0.01650165	-1.623366	1.124424E-07	-13.35834	2.227807
12.32081	-0.009778757	0.01650165	-0.8115895	-1.124295E-07	24.50087	-6.787038E-06
12.33739	-0.05622785	0.01650165	-2.803027	0	-60.0948	3.392738E-06
12.35395	-0.09167584	0.01650165	-2.139768	0	20.01548	0
12.37052	-0.1381249	0.01650165	-2.804157	0	-20.0536	0
12.38709	-0.1857964	0.01527931	-2.876957	-0.0737681	-2.197113	-2.226326
12.40384	-0.216355	0.01405696	-1.823942	-0.07295769	31.59906	0.02431907
12.42022	-0.2383572	0.01283462	-1.343603	-0.07464456	14.49877	-0.0509172
12.43697	-0.2481359	0.01161227	-0.5837944	-0.0729743	22.937	0.05042149
12.45375	-0.2542477	0.01038993	-0.3640635	-0.07281268	6.551727	0.004818971
12.47014	-0.2615817	0.01038993	-0.4475015	0	-2.514978	2.194712
12.48665	-0.2676934	0.00794524	-0.370225	-0.1480902	2.349044	-4.501633
12.5031	-0.2689158	0.006722894	-0.07432839	-0.07432856	8.97928	2.238371
12.51962	-0.2689158	0.006722894	0	0	2.254787	2.254792
12.53618	-0.2689158	0.006722894	0	0	0	0
12.55278	-0.2689158	0.006722894	0	0	0	0
12.56932	-0.2689158	0.006722894	0	0	0	0
12.58588	-0.2689158	0.006722894	0	0	0	0
12.60245	-0.2628041	0.004278206	0.3688612	-0.1475447	11.13257	-4.453036
12.62548	-0.2285784	-0.004278206	1.486115	-0.3715287	28.21389	-5.656246
12.64267	-0.03178095	-0.06539542	11.44648	-3.554806	247.6278	-79.14049
12.65862	0.02811392	-0.08495294	3.756464	-1.226601	-232.065	70.2593
12.67519	0.1356802	-0.124068	6.492342	-2.360852	84.14806	-34.88642
12.69175	0.2090209	-0.1595159	4.427105	-2.139767	-62.32896	6.672339
12.70832	0.2456913	-0.1851852	2.213809	-1.549667	-66.80509	17.81131
12.72488	0.2603594	-0.1974086	0.8853204	-0.7377648	-40.09619	24.50468
12.74145	0.2640264	-0.2047427	0.2213131	-0.4426343	-20.03805	8.906287
12.82386	0.2664711	-0.2096321	0.02966533	-0.0593294	-1.936228	3.872551
12.84044	0.2774722	-0.2670823	0.6638355	-3.466702	6.406871	-34.42389
12.85701	0.2786945	-0.2670823	0.07375525	0	-17.80302	104.5922
12.87357	0.2786945	-0.2683046	0	-0.07381897	-2.22613	-2.228053
12.89013	0.2786945	-0.2683046	0	0	0	2.228502
12.9067	0.2786945	-0.2683046	0	0	0	0
12.92358	0.2786945	-0.2683046	0	0	0	0
12.94007	0.2786945	-0.2683046	0	0	0	0
12.9564	0.2786945	-0.2683046	0	0	0	0
12.97297	0.2786945	-0.2683046	0	0	0	0
12.98954	0.2786945	-0.2683046	0	0	0	0
13.00624	0.2786945	-0.2683046	0	0	0	0
13.02267	0.2786945	-0.2683046	0	0	0	0
13.03924	0.2786945	-0.2683046	0	0	0	0
13.0558	0.2786945	-0.2683046	0	0	0	0
13.07237	0.2786945	-0.2683046	0	0	0	0
13.08894	0.2774722	-0.2670823	-0.07378497	0.07378497	-2.226899	2.226899
13.1055	0.2689158	-0.2560812	-0.5164966	0.6640666	-13.36183	17.81576
13.12218	0.25547	-0.2389683	-0.8060663	1.025904	-8.709652	10.88333
13.13864	0.2395795	-0.2145215	-0.9658237	1.485881	-4.821626	13.88253
13.1552	0.2151326	-0.1802958	-1.475448	2.065627	-15.43291	17.55639
13.17189	0.1833517	-0.1362914	-1.904378	2.636833	-12.89725	17.17526
13.18877	0.1271238	-0.06661777	-3.332533	4.129443	-42.5543	44.47488
13.20512	0.1014546	-0.03605916	-1.56918	1.868071	53.06385	-68.05052
13.22166	0.08189708	-0.01650165	-1.1824	1.1824	11.75661	-20.84177
13.23804	0.06845129	-0.004278206	-0.821281	0.7466192	10.97218	-13.24067
13.25461	0.06356191	0.001833517	-0.2950898	0.3688618	15.97381	-11.46774
13.27127	0.06111722	0.00550055	-0.1467003	0.2200505	4.465038	-4.47773
13.28774	0.06111722	0.00550055	0	0	4.427552	-6.64133
13.3044	0.06111722	0.00550055	0	0	0	0
13.32108	0.06111722	0.00550055	0	0	0	0
13.33744	0.06111722	0.00550055	0	0	0	0
13.35438	0.06111722	0.00550055	0	0	0	0
13.37057	0.06111722	0.00550055	0	0	0	0
13.38714	0.06111722	0.00550055	0	0	0	0
13.40395	0.06111722	0.00550055	0	0	0	0
13.42027	0.06111722	0.00550055	0	0	0	0
13.43684	0.06111722	0.00550055	0	0	0	0
13.45341	0.06111722	0.00550055	0	0	0	0
13.46997	0.06111722	0.00550055	0	0	0	0
13.48655	0.06111722	0.00550055	0	0	0	0
13.50311	0.06111722	0.00550055	0	0	0	0
13.51967	0.06111722	0.00550055	0	0	0	0
13.53624	0.06111722	0.00550055	0	0	0	0
13.5528	0.06111722	0.00550055	0	0	0	0
13.57024	0.06111722	0.00550055	0	0	0	0
13.58611	0.06111722	0.00550055	0	0	0	0
13.60267	0.06111722	0.00550055	0	0	0	0
13.61907	0.06111722	0.00550055	0	0	0	0
13.63564	0.06111722	0.00550055	0	0	0	0
13.6522	0.06111722	0.00550055	0	0	0	0
13.66877	0.06111722	0.00550055	0	0	0	0
13.6858	0.06111722	0.00550055	0	0	0	0
13.70222	0.06111722	0.00550055	0	0	0	0
13.71847	0.06111722	0.00550055	0	0	0	0
13.73504	0.06111722	0.00550055	0	0	0	0
13.75175	0.06111722	0.00550055	0	0	0	0
13.76824	0.06111722	0.00550055	0	0	0	0
13.78479	0.06111722	0.00550055	0	0	0	0
13.8014	0.06111722	0.00550055	0	0	0	0
13.81819	0.06111722	0.00550055	0	0	0	0
13.83444	0.06111722	0.00550055	0	0	0	0
13.85107	0.06111722	0.00550055	0	0	0	0
13.86757	0.06111722	0.00550055	0	0	0	0
13.88414	0.06111722	0.00550055	0	0	0	0
13.90106	0.06111722	0.00550055	0	0	0	0
13.91727	0.06111722	0.00550055	0	0	0	0
13.93427	0.06111722	0.00550055	0	0	0	0
13.9504	0.06111722	0.00550055	0	0	0	0
13.96697	0.06111722	0.00550055	0	0	0	0
13.98412	0.06111722	0.00550055	0	0	0	0
14.00069	0.06111722	0.00550055	0	0	0	0
14.01726	0.06111722	0.00550055	0	0	0	0
14.03382	0.06111722	0.00550055	0	0	0	0
14.05039	0.06111722	0.00550055	0	0	0	0
14.06706	0.06111722	0.00550055	0	0	0	0
14.08352	0.06111722	0.00550055	0	0	0	0
14.10014	0.06111722	0.00550055	0	0	0	0
14.11709	0.06111722	0.00550055	0	0	0	0
14.13322	0.06111722	0.00550055	0	0	0	0
14.14979	0.06111722	0.00550055	0	0	0	0
14.16636	0.06111722	0.00550055	0	0	0	0
14.18292	0.06111722	0.00550055	0	0	0	0
14.19949	0.06111722	0.00550055	0	0	0	0
14.21605	0.06111722	0.00550055	0	0	0	0
14.23262	0.06111722	0.00550055	0	0	0	0
14.24919	0.06111722	0.00550055	0	0	0	0
14.26579	0.06111722	0.00550055	0	0	0	0
14.28232	0.06111722	0.00550055	0	0	0	0
14.29936	0.06111722	0.00550055	0	0	0	0
14.31545	0.06111722	0.00550055	0	0	0	0
14.33202	0.06111722	0.00550055	0	0	0	0
14.34876	0.06111722	0.00550055	0	0	0	0
14.36516	0.06111722	0.00550055	0	0	0	0
14.38172	0.06111722	0.00550055	0	0	0	0
14.39829	0.06111722	0.00550055	0	0	0	0
14.41532	0.06111722	0.00550055	0	0	0	0
14.43142	0.06111722	0.00550055	0	0	0	0
14.44813	0.06111722	0.00550055	0	0	0	0
14.46547	0.06111722	0.00550055	0	0	0	0
14.48112	0.06111722	0.00550055	0	0	0	0
14.49769	0.06111722	0.00550055	0	0	0	0
14.51426	0.06111722	0.00550055	0	0	0	0
14.53089	0.06111722	0.00550055	0	0	0	0
14.54739	0.06111722	0.00550055	0	0	0	0
14.56396	0.06111722	0.00550055	0	0	0	0
14.58084	0.06111722	0.00550055	0	0	0	0
14.59709	0.06111722	0.00550055	0	0	0	0
14.61366	0.06111722	0.00550055	0	0	0	0
14.63022	0.06111722	0.00550055	0	0	0	0
14.64819	0.06111722	0.00550055	0	0	0	0
14.66476	0.06111722	0.00550055	0	0	0	0
14.68133	0.06111722	0.00550055	0	0	0	0
14.69814	0.06111722	0.00550055	0	0	0	0
14.71465	0.06111722	0.00550055	0	0	0	0
14.7311	0.06111722	0.00550055	0	0	0	0
14.74771	0.06111722	0.00550055	0	0	0	0
14.76416	0.06111722	0.00550055	0	0	0	0
14.78072	0.06111722	0.00550055	0	0	0	0
14.79729	0.06111722	0.00550055	0	0	0	0
14.81386	0.06111722	0.00550055	0	0	0	0
14.8308	0.06111722	0.00550055	0	0	0	0
14.84699	0.06111722	0.00550055	0	0	0	0
14.86356	0.06111722	0.00550055	0	0	0	0
14.88041	0.06111722	0.00550055	0	0	0	0
14.89669	0.06111722	0.00550055	0	0	0	0
14.91389	0.06111722	0.00550055	0	0	0	0
14.92982	0.06111722	0.00550055	0	0	0	0
14.94655	0.06111722	0.00550055	0	0	0	0
14.96302	0.06111722	0.00550055	0	0	0	0
14.97968	0.06111722	0.00550055	0	0	0	0
14.9962	0.06111722	0.00550055	0	0	0	0
15.01281	0.06111722	0.00550055	0	0	0	0
15.02936	0.06111722	0.00550055	0	0	0	0
15.04579	0.06111722	0.00550055	0	0	0	0
15.06236	0.06111722	0.00550055	0	0	0	0
15.07892	0.06111722	0.00550055	0	0	0	0
15.09549	0.06111722	0.00550055	0	0	0	0
15.11206	0.06111722	0.00550055	0	0	0	0
15.12863	0.06111722	0.00550055	0	0	0	0
15.14519	0.06111722	0.00550055	0	0	0	0
15.16176	0.06111722	0.00550055	0	0	0	0
15.17833	0.06111722	0.00550055	0	0	0	0
15.19489	0.06111722	0.00550055	0	0	0	0
15.21146	0.06111722	0.00550055	0	0	0	0
15.22803	0.06111722	0.00550055	0	0	0	0
15.24459	0.06111722	0.00550055	0	0	0	0
15.26116	0.06111722	0.00550055	0	0	0	0
15.27858	0.06111722	0.00550055	0	0	0	0
15.29429	0.06111722	0.00550055	0	0	0	0
15.31086	0.06111722	0.00550055	0	0	0	0
15.32742	0.06111722	0.00550055	0	0	0	0
15.34399	0.06111722	0.00550055	0	0	0	0
15.36056	0.06111722	0.00550055	0	0	0	0
15.37712	0.06111722	0.00550055	0	0	0	0
15.39369	0.06111722	0.00550055	0	0	0	0
15.41076	0.06111722	0.00550055	0	0	0	0
15.42683	0.06111722	0.00550055	0	0	0	0
15.44367	0.06111722	0.00550055	0	0	0	0
15.45996	0.06111722	0.00550055	0	0	0	0
15.47654	0.06111722	0.00550055	0	0	0	0
15.49309	0.06111722	0.00550055	0	0	0	0
15.50979	0.06111722	0.00550055	0	0	0	0
15.52679	0.06111722	0.00550055	0	0	0	0
15.54284	0.06111722	0.00550055	0	0	0	0
15.55936	0.06111722	0.00550055	0	0	0	0
15.57592	0.06111722	0.00550055	0	0	0	0
15.59249	0.06111722	0.00550055	0	0	0	0
15.60905	0.06111722	0.00550055	0	0	0	0
15.62562	0.06111722	0.00550055	0	0	0	0
15.64219	0.06111722	0.00550055	0	0	0	0
15.65875	0.06111722	0.00550055	0	0	0	0
15.67581	0.06111722	0.00550055	0	0	0	0
15.69189	0.06111722	0.00550055	0	0	0	0
15.70845	0.06111722	0.00550055	0	0	0	0
15.72559	0.06111722	0.00550055	0	0	0	0
15.74159	0.06111722	0.00550055	0	0	0	0
15.7583	0.06111722	0.00550055	0	0	0	0
15.77472	0.06111722	0.00550055	0	0	0	0
15.79216	0.06111722	0.00550055	0	0	0	0
15.80823	0.06111722	0.00550055	0	0	0	0
15.82442	0.06111722	0.00550055	0	0	0	0
15.84099	0.06111722	0.00550055	0	0	0	0
15.8582	0.06111722	0.00550055	0	0	0	0
15.87412	0.06111722	0.00550055	0	0	0	0
15.89102	0.06111722	0.00550055	0	0	0	0
15.90726	0.06111722	0.00550055	0	0	0	0
15.92438	0.06111722	0.00550055	0	0	0	0
15.94055	0.06111722	0.00550055	0	0	0	0
15.95711	0.06111722	0.00550055	0	0	0	0
15.98184	0.06111722	0.00550055	0	0	0	0
15.99841	0.06111722	0.00550055	0	0	0	0
16.01498	0.06111722	0.00550055	0	0	0	0
16.03154	0.06111722	0.00550055	0	0	0	0
16.04859	0.06111722	0.00550055	0	0	0	0
16.06533	0.06111722	0.00550055	0	0	0	0
16.08124	0.06111722	0.00550055	0	0	0	0
16.09953	0.06111722	0.00550055	0	0	0	0
16.1161	0.06111722	0.00550055	0	0	0	0
16.13267	0.06111722	0.00550055	0	0	0	0
16.14976	0.06111722	0.00550055	0	0	0	0
16.16595	0.06111722	0.00550055	0	0	0	0
16.18298	0.06111722	0.00550055	0	0	0	0
16.19934	0.06111722	0.00550055	0	0	0	0
16.2155	0.06111722	0.00550055	0	0	0	0
16.23223	0.06111722	0.00550055	0	0	0	0
16.24863	0.06111722	0.00550055	0	0	0	0
16.2652	0.06111722	0.00550055	0	0	0	0
16.28177	0.06111722	0.00550055	0	0	0	0
16.29872	0.06111722	0.00550055	0	0	0	0
16.3149	0.06111722	0.00550055	0	0	0	0
16.33147	0.06111722	0.00550055	0	0	0	0
16.34813	0.06111722	0.00550055	0	0	0	0
16.36461	0.06111722	0.00550055	0	0	0	0
16.38117	0.06111722	0.00550055	0	0	0	0
16.39774	0.06111722	0.00550055	0	0	0	0
16.4143	0.06111722	0.00550055	0	0	0	0
16.43087	0.06111722	0.00550055	0	0	0	0
16.44744	0.06111722	0.00550055	0	0	0	0
16.46401	0.06111722	0.00550055	0	0	0	0
16.48058	0.06111722	0.00550055	0	0	0	0
16.49714	0.06111722	0.00550055	0	0	0	0
16.51371	0.06111722	0.00550055	0	0	0	0
16.53028	0.06111722	0.00550055	0	0	0	0
16.54684	0.06111722	0.00550055	0	0	0	0
16.56341	0.06111722	0.00550055	0	0	0	0
16.57998	0.06111722	0.00550055	0	0	0	0
16.59654	0.06111722	0.00550055	0	0	0	0
16.6133	0.06111722	0.00550055	0	0	0	0
16.62967	0.06111722	0.00550055	0	0	0	0
16.6464	0.06111722	0.00550055	0	0	0	0
16.66281	0.06111722	0.00550055	0	0	0	0
16.67937	0.06111722	0.00550055	0	0	0	0
16.69612	0.06111722	0.00550055	0	0	0	0
16.71251	0.06111722	0.00550055	0	0	0	0
16.72908	0.06111722	0.00550055	0	0	0	0
16.74565	0.06111722	0.00550055	0	0	0	0
16.76221	0.06111722	0.00550055	0	0	0	0
16.77878	0.06111722	0.00550055	0	0	0	0
16.79537	0.06111722	0.00550055	0	0	0	0
16.81191	0.06111722	0.00550055	0	0	0	0
16.82848	0.06111722	0.00550055	0	0	0	0
16.84505	0.06111722	0.00550055	0	0	0	0
16.86161	0.06111722	0.00550055	0	0	0	0
16.87818	0.06111722	0.00550055	0	0	0	0
16.89475	0.06111722	0.00550055	0	0	0	0
16.91131	0.06111722	0.00550055	0	0	0	0
16.92805	0.06111722	0.00550055	0	0	0	0
16.94445	0.06111722	0.00550055	0	0	0	0
16.96101	0.06111722	0.00550055	0	0	0	0
16.97759	0.06111722	0.00550055	0	0	0	0
16.99431	0.06111722	0.00550055	0	0	0	0
17.01071	0.06111722	0.00550055	0	0	0	0
17.02729	0.06111722	0.00550055	0	0	0	0
17.04385	0.06111722	0.00550055	0	0	0	0
17.06041	0.06111722	0.00550055	0	0	0	0
17.07698	0.06111722	0.00550055	0	0	0	0
17.09355	0.06111722	0.00550055	0	0	0	0
17.11028	0.06111722	0.00550055	0	0	0	0
17.12668	0.06111722	0.00550055	0	0	0	0
17.14327	0.06111722	0.00550055	0	0	0	0
17.15981	0.06111722	0.00550055	0	0	0	0
17.17652	0.06111722	0.00550055	0	0	0	0
17.19295	0.06111722	0.00550055	0	0	0	0
17.20951	0.06111722	0.00550055	0	0	0	0
17.22608	0.06111722	0.00550055	0	0	0	0
17.24265	0.06111722	0.00550055	0	0	0	0
17.26818	0.06111722	0.00550055	0	0	0	0
17.28475	0.06111722	0.00550055	0	0	0	0
17.30132	0.06111722	0.00550055	0	0	0	0
17.31788	0.06111722	0.00550055	0	0	0	0
17.33456	0.06111722	0.00550055	0	0	0	0
17.35145	0.06111722	0.00550055	0	0	0	0
17.36759	0.06111722	0.00550055	0	0	0	0
17.38442	0.06111722	0.00550055	0	0	0	0
17.40072	0.06111722	0.00550055	0	0	0	0
17.41743	0.06111722	0.00550055	0	0	0	0
17.43386	0.06111722	0.00550055	0	0	0	0
17.45048	0.06111722	0.00550055	0	0	0	0
17.46707	0.06111722	0.00550055	0	0	0	0
17.48365	0.06111722	0.00550055	0	0	0	0
17.50013	0.06111722	0.00550055	0	0	0	0
17.51672	0.06111722	0.00550055	0	0	0	0
17.53377	0.06111722	0.00550055	0	0	0	0
17.54982	0.06111722	0.00550055	0	0	0	0
17.56669	0.06111722	0.00550055	0	0	0	0
17.58296	0.06111722	0.00550055	0	0	0	0
17.59957	0.06111722	0.00550055	0	0	0	0
17.61609	0.06111722	0.00550055	0	0	0	0
17.63265	0.06111722	0.00550055	0	0	0	0
17.64922	0.06111722	0.00550055	0	0	0	0
17.66579	0.06111722	0.00550055	0	0	0	0
17.68241	0.06111722	0.00550055	0	0	0	0
17.69892	0.06111722	0.00550055	0	0	0	0
17.71549	0.06111722	0.00550055	0	0	0	0
17.73206	0.06111722	0.00550055	0	0	0	0
17.74862	0.06111722	0.00550055	0	0	0	0
17.76519	0.06111722	0.00550055	0	0	0	0
17.78176	0.06111722	0.00550055	0	0	0	0
17.79832	0.06111722	0.00550055	0	0	0	0
17.81564	0.06111722	0.00550055	0	0	0	0
17.83177	0.06111722	0.00550055	0	0	0	0
17.84831	0.06356191	0.004278205	0.1477488	-0.07387442	4.521798	-2.2609
17.86499	0.06478426	0.003055861	0.07329178	-0.07329144	-2.241054	0.01754684
17.88116	0.0660066	0.001833517	0.0756087	-0.07560885	0.07054207	-0.07055681
17.89772	0.06722895	0.001833517	0.07378118	1.405369E-08	-0.05582965	2.309802
17.91429	0.06845129	0.0006111723	0.07378072	-0.07378086	-1.37164E-05	-2.226711
17.93504	0.06967364	-0.0006111722	0.05892418	-0.05892429	-0.3981754	0.3981762
17.9517	0.07089598	-0.001833517	0.07336684	-0.07336697	0.3861157	-0.3861161
17.96818	0.07211833	-0.001833517	0.07417399	-7.064254E-09	0.02435566	2.213837
17.98512	0.07334067	-0.003055861	0.07213636	-0.0721365	-0.0609626	-2.1582
18.0013	0.07456302	-0.003055861	0.07552896	1.43866E-08	0.1024068	2.17746
18.01787	0.07578536	-0.004278206	0.07378072	-0.07378086	-0.05337965	-2.252777
18.03444	0.07823005	-0.005500551	0.1475619	-0.07378089	2.22672	-8.994359E-07
18.05133	0.08067473	-0.006722894	0.1447448	-0.07237268	-0.08420228	0.04209045
18.06758	0.08189708	-0.006722895	0.07523636	-2.866173E-08	-2.097647	2.184085
18.08414	0.08189708	-0.006722895	0	0	-2.292944	8.735105E-07
18.10073	0.08189708	-0.006722895	0	0	0	0
18.11759	0.08189708	-0.006722895	0	0	0	0
18.13384	0.08189708	-0.006722895	0	0	0	0
18.15041	0.08189708	-0.006722895	0	0	0	0
18.16698	0.08189708	-0.006722895	0	0	0	0
18.18354	0.08189708	-0.006722895	0	0	0	0
18.24631	0.08189708	-0.006722895	0	0	0	0
18.26313	0.08189708	-0.006722895	0	0	0	0
18.27945	0.08189708	-0.006722895	0	0	0	0
18.29615	0.08189708	-0.006722895	0	0	0	0
18.31258	0.08189708	-0.006722895	0	0	0	0
18.32915	0.08189708	-0.006722895	0	0	0	0
18.34572	0.08189708	-0.006722895	0	0	0	0
18.36287	0.08189708	-0.006722895	0	0	0	0
18.37885	0.08189708	-0.006722895	0	0	0	0
18.39615	0.08189708	-0.006722895	0	0	0	0
18.4121	0.08189708	-0.006722895	0	0	0	0
18.42856	0.08189708	-0.006722895	0	0	0	0
18.44512	0.08189708	-0.006722895	0	0	0	0
18.46174	0.08189708	-0.006722895	0	0	0	0
18.47827	0.08189708	-0.006722895	0	0	0	0
18.49482	0.08189708	-0.006722895	0	0	0	0
18.51158	0.08189708	-0.006722895	0	0	0	0
18.52796	0.08189708	-0.006722895	0	0	0	0
18.54463	0.08189708	-0.007945239	0	-0.07333335	0	-2.219337
18.56122	0.0794524	-0.01283462	-0.1473579	-0.2947164	-4.430691	-6.656446
18.57766	0.06722895	-0.02383572	-0.7434577	-0.669112	-18.04642	-11.33451
18.59426	0.05378316	-0.03728151	-0.8097251	-0.8097249	-2.005263	-4.254972
18.61079	0.03789268	-0.05317198	-0.9614758	-0.9614758	-4.580108	-4.580116
18.62736	0.02322455	-0.06784012	-0.8853704	-0.8853705	2.299646	2.299642
18.644	0.01222344	-0.08006357	-0.6612112	-0.734679	6.750759	4.538211
18.66056	0.004889378	-0.08739763	-0.4426342	-0.4426343	6.58227	8.79469
18.67713	0.003667033	-0.08984232	-0.07378089	-0.1475614	11.13137	8.904804
18.6937	0.002444689	-0.08984232	-0.07378083	0	1.798872E-06	4.453413
18.71079	0.002444689	-0.08984232	0	0	2.192135	0
18.72689	0.002444689	-0.08984232	0	0	0	0
18.7434	0.002444689	-0.08984232	0	0	0	0
18.75997	0.002444689	-0.08984232	0	0	0	0
18.77653	0.002444689	-0.08984232	0	0	0	0
18.7931	0.002444689	-0.08984232	0	0	0	0
18.8101	0.002444689	-0.08984232	0	0	0	0
18.82633	0.0110011	-0.0947317	0.5272093	-0.3012628	15.86554	-9.066036
18.84312	0.04278206	-0.1093998	1.892377	-0.8734038	41.33885	-17.32509
18.8598	0.08311942	-0.1424031	2.418341	-1.978643	15.71265	-33.01788
18.87594	0.1466813	-0.2010757	3.939561	-3.636518	46.35883	-50.52335
18.8925	0.2114656	-0.2707493	3.911286	-4.206478	-0.864748	-17.43122
18.90907	0.2579147	-0.3269772	2.803673	-3.39392	-33.43168	24.52586
18.92563	0.2799169	-0.3587581	1.328055	-1.918302	-44.53425	44.53424
18.94246	0.2896957	-0.3746486	0.5810825	-0.9442579	-22.36728	29.16671
18.95878	0.2921403	-0.383205	0.1498385	-0.5244349	-13.01122	12.66664
18.97533	0.2921403	-0.383205	0	0	-4.558346	15.95421
18.99195	0.2921403	-0.383205	0	0	0	0
19.00911	0.2921403	-0.383205	0	0	0	0
19.02503	0.2921403	-0.383205	0	0	0	0
19.0416	0.2921403	-0.383205	0	0	0	0
19.05817	0.2921403	-0.383205	0	0	0	0
19.07499	0.2921403	-0.383205	0	0	0	0
19.0913	0.2921403	-0.383205	0	0	0	0
19.10787	0.2921403	-0.383205	0	0	0	0
19.12443	0.2921403	-0.383205	0	0	0	0
19.14105	0.2921403	-0.383205	0	0	0	0
19.1577	0.2921403	-0.383205	0	0	0	0
19.17427	0.2921403	-0.383205	0	0	0	0
19.1907	0.2921403	-0.383205	0	0	0	0
19.20727	0.2921403	-0.3819827	0	0.07378922	0	2.236102
19.22442	0.2884733	-0.3770933	-0.2138116	0.2850815	-6.341508	6.266789
19.24045	0.2823616	-0.3673145	-0.3812805	0.6100499	-5.047249	9.794034
19.25697	0.2799169	-0.3636475	-0.1479721	0.2219573	7.167513	-11.92267
19.2916	0.2762499	-0.3575357	-0.1058922	0.1764878	0.8226567	-0.8889211
19.30843	0.2664711	-0.3416453	-0.5810166	0.9441509	-9.232841	14.91759
19.32494	0.2628041	-0.3379783	-0.2220836	0.2220818	10.76507	-21.65621
19.3413	0.2566923	-0.3306442	-0.3735918	0.448312	-4.60914	6.882311
19.35796	0.2456912	-0.3135314	-0.6602278	1.02702	-8.680171	17.52496
19.37443	0.2298008	-0.2915292	-0.9648153	1.335899	-9.192998	9.322513
19.391	0.2102433	-0.2646376	-1.180494	1.62318	-6.528372	8.695683
19.40757	0.1919081	-0.2438577	-1.106714	1.254275	2.226708	-11.13356
19.42413	0.1760176	-0.2255226	-0.9591512	1.106713	4.45344	-4.453438
19.4407	0.1601271	-0.2071874	-0.9591512	1.106714	0	2.51842E-05
19.45727	0.1442366	-0.1815182	-0.9591512	1.549398	0	13.36024
19.47392	0.1295685	-0.1570713	-0.8808064	1.468011	2.358342	-2.44992
19.4904	0.1161227	-0.1362914	-0.8157223	1.260662	1.964127	-6.257443
19.50697	0.1075663	-0.1204009	-0.516584	0.9593708	9.051981	-9.117127
19.52353	0.1026769	-0.1118445	-0.2951238	0.5164669	6.684453	-13.36841
19.5401	0.09900991	-0.1081775	-0.2213422	0.2213422	2.226733	-8.90688
19.55667	0.09778756	-0.1032881	-0.07378118	0.2951233	4.4534	2.22672
19.5737	0.09534287	-0.09839873	-0.14353	0.2870599	-2.075866	-0.2399834
19.5898	0.09167584	-0.09106466	-0.2277396	0.4554802	-2.541453	5.082934
19.60637	0.0904535	-0.08739763	-0.07378072	0.2213422	4.712682	-7.166965
19.62294	0.08923114	-0.08495294	-0.07378162	0.1475624	-2.720794E-05	-2.226679
19.63951	0.08800881	-0.0837306	-0.07378028	0.07378028	4.069947E-05	-2.226748
19.65607	0.08800881	-0.08250825	0	0.07377268	2.226565	-0.0002291181
19.67264	0.08800881	-0.08128591	0	0.07378072	0	0.0002426089
19.68921	0.08678646	-0.07884122	-0.07378118	0.1475614	-2.22672	2.226707
19.70578	0.08678646	-0.07884122	0	0	2.22672	-4.453413
19.72252	0.08678646	-0.07761887	4.45106E-07	0.07302453	1.336409E-05	2.192526
19.73891	0.08556411	-0.07639653	-0.07456233	0.07456188	-2.250439	0.04639985
19.75548	0.08556411	-0.07639653	0	0	2.262146	-2.262132
19.77204	0.08556411	-0.07639653	0	0	0	0
19.78861	0.08556411	-0.07639653	0	0	0	0
19.80518	0.08556411	-0.07639653	0	0	0	0
19.82174	0.08556411	-0.07639653	0	0	0	0
19.83831	0.08556411	-0.07639653	0	0	0	0
19.85488	0.08556411	-0.07639653	0	0	0	0
19.87145	0.08556411	-0.07639653	0	0	0	0
19.88801	0.08556411	-0.07639653	0	0	0	0
19.90458	0.08556411	-0.07639653	0	0	0	0
19.92115	0.08556411	-0.07639653	0	0	0	0
19.93771	0.08556411	-0.07639653	0	0	0	0
19.95787	0.08556411	-0.07639653	0	0	0	0
19.97444	0.08556411	-0.07639653	0	0	0	0
19.99101	0.08556411	-0.07639653	0	0	0	0
20.00757	0.08556411	-0.07639653	0	0	0	0
20.02414	0.08556411	-0.07639653	0	0	0	0
20.04087	0.08556411	-0.07639653	0	0	0	0
20.05771	0.08556411	-0.07639653	0	0	0	0
20.07384	0.08556411	-0.07639653	0	0	0	0
20.09041	0.08434176	-0.07517419	-0.07378118	0.07378072	-2.256465	2.256451
20.10698	0.08189708	-0.0727295	-0.1475614	0.1475619	-2.226693	2.22672
20.12354	0.07823005	-0.06906246	-0.2213681	0.2213681	-2.227618	2.227604
20.14011	0.07456302	-0.06417309	-0.2213422	0.2951233	0.0007825543	2.226066
20.15668	0.07089598	-0.05928371	-0.2213426	0.2951233	-1.349154E-05	0
20.17334	0.06722894	-0.05683902	-0.220051	0.1467005	0.0388661	-4.466297
20.18981	0.0660066	-0.05439433	-0.07422508	0.1484504	4.401289	0.05281342
20.20637	0.06478426	-0.05317199	-0.07378922	0.07378922	0.01319473	-2.260174
20.22294	0.06478426	-0.05194964	0	0.07378118	2.227091	-0.0002426368
20.23994	0.06356192	-0.0507273	-0.07189358	0.07189358	-2.141644	-0.0562298
20.25608	0.06233957	-0.04950495	-0.07575216	0.07575193	-0.1164388	0.1164318
20.27264	0.06111722	-0.04706026	-0.07379794	0.1475957	0.05976285	2.197084
20.28921	0.05989488	-0.04461557	-0.07379772	0.1475957	6.747322E-06	0
20.3059	0.05989488	-0.04461557	0	0	2.218917	-4.437841
20.32234	0.05989488	-0.04461557	0	0	0	0
20.33896	0.05989488	-0.04339323	2.241879E-07	0.07356054	6.782011E-06	2.225313
20.35569	0.05989488	-0.04339323	0	0	-6.723047E-06	-2.205966
20.37218	0.05989488	-0.04339323	0	0	0	0
20.38895	0.05989488	-0.04339323	0	0	0	0
20.40559	0.05989488	-0.04339323	0	0	0	0
20.42217	0.05989488	-0.04339323	0	0	0	0
20.43831	0.05989488	-0.04339323	0	0	0	0
20.45501	0.05989488	-0.04339323	0	0	0	0
20.47144	0.05989488	-0.04339323	0	0	0	0
20.48801	0.05989488	-0.04339323	0	0	0	0
20.50458	0.05989488	-0.04339323	0	0	0	0
20.52114	0.05989488	-0.04339323	0	0	0	0
20.53771	0.05989488	-0.04339323	0	0	0	0
20.55428	0.05989488	-0.04339323	0	0	0	0
20.57084	0.05989488	-0.04339323	0	0	0	0
20.58741	0.05989488	-0.04339323	0	0	0	0
20.60441	0.05989488	-0.04339323	0	0	0	0
20.6251	0.05989488	-0.04339323	0	0	0	0
20.64173	0.05989488	-0.04339323	0	0	0	0
20.65828	0.05989488	-0.04339323	0	0	0	0
20.6748	0.05989488	-0.04339323	0	0	0	0
20.69137	0.05989488	-0.04339323	0	0	0	0
20.70793	0.05989488	-0.04339323	0	0	0	0
20.7245	0.05989488	-0.04339323	0	0	0	0
20.74107	0.05989488	-0.04339323	0	0	0	0
20.75763	0.05989488	-0.04339323	0	0	0	0
20.7742	0.05989488	-0.04339323	0	0	0	0
20.79077	0.05989488	-0.04339323	0	0	0	0
20.80733	0.05989488	-0.04339323	0	0	0	0
20.82423	0.05989488	-0.04339323	0	0	0	0
20.84047	0.05989488	-0.04339323	0	0	0	0
20.85719	0.05989488	-0.04339323	0	0	0	0
20.87368	0.05989488	-0.04339323	0	0	0	0
20.89017	0.05989488	-0.04339323	0	0	0	0
20.90705	0.05989488	-0.04339323	0	0	0	0
20.9233	0.05989488	-0.04339323	0	0	0	0
20.93987	0.05989488	-0.04339323	0	0	0	0
20.95644	0.05989488	-0.04339323	0	0	0	0
20.973	0.05989488	-0.04339323	0	0	0	0
20.9899	0.05989488	-0.04339323	0	0	0	0
21.00614	0.05989488	-0.04339323	0	0	0	0
21.0227	0.05989488	-0.04339323	0	0	0	0
21.03927	0.05989488	-0.04339323	0	0	0	0
21.0559	0.05989488	-0.04339323	0	0	0	0
21.0724	0.05989488	-0.04339323	0	0	0	0
21.08903	0.05989488	-0.04339323	0	0	0	0
21.10554	0.05989488	-0.04339323	0	0	0	0
21.1221	0.05989488	-0.04339323	0	0	0	0
21.13867	0.05989488	-0.04339323	0	0	0	0
21.15551	0.05989488	-0.04339323	0	0	0	0
21.1718	0.05989488	-0.04339323	0	0	0	0
21.18837	0.05989488	-0.04339323	0	0	0	0
21.20494	0.05989488	-0.04339323	0	0	0	0
21.2215	0.05989488	-0.04339323	0	0	0	0
21.23809	0.05989488	-0.04339323	0	0	0	0
21.25471	0.05989488	-0.04339323	0	0	0	0
21.27121	0.05989488	-0.04339323	0	0	0	0
21.28818	0.05989488	-0.04339323	0	0	0	0
21.30434	0.05989488	-0.04339323	0	0	0	0
21.32099	0.05989488	-0.04339323	0	0	0	0
21.33747	0.05989488	-0.04339323	0	0	0	0
21.35407	0.05989488	-0.04339323	0	0	0	0
21.37072	0.05989488	-0.04339323	0	0	0	0
21.38775	0.05867254	-0.04339323	-0.07177302	0	-2.13103	0
21.4039	0.05867254	-0.04339323	0	0	2.162877	0
21.42031	0.05867254	-0.04339323	0	0	0	0
21.43687	0.05867254	-0.04339323	0	0	0	0
21.45387	0.05867254	-0.04339323	0	0	0	0
21.47029	0.05745019	-0.04217088	-0.07444086	0.07444108	-2.227397	2.227404
21.48657	0.05622784	-0.04217089	-0.07507747	-2.288103E-07	-0.01946746	-2.276389
21.50314	0.0550055	-0.04094854	-0.07378945	0.07378967	0.03921357	2.246511
21.51971	0.05011612	-0.03850385	-0.2950894	0.1475445	-6.678845	2.225924
21.53627	0.04644909	-0.03605916	-0.2213679	0.1475789	2.224919	0.001039298
21.55313	0.04155971	-0.03361447	-0.2900807	0.1450403	-2.056005	-0.07596031
21.56945	0.03789268	-0.03239213	-0.2246267	0.0748755	1.97268	-2.114655
21.58597	0.03667033	-0.03116978	-0.07399392	0.07399392	4.586235	-0.02684084
21.60254	0.03667033	-0.03116978	0	0	2.236359	-2.236359
21.61911	0.03667033	-0.03116978	0	0	0	0
21.63581	0.03667033	-0.03116978	0	0	0	0
21.65224	0.03667033	-0.03116978	0	0	0	0
21.66881	0.03667033	-0.03116978	0	0	0	0
21.68537	0.03667033	-0.03116978	0	0	0	0
21.70194	0.03667033	-0.03116978	0	0	0	0
21.71851	0.03667033	-0.03116978	0	0	0	0
21.73507	0.03667033	-0.03116978	0	0	0	0
21.75164	0.03667033	-0.03116978	0	0	0	0
21.76821	0.03667033	-0.03116978	0	0	0	0
21.78477	0.03667033	-0.03116978	0	0	0	0
21.80134	0.03667033	-0.03116978	0	0	0	0
21.81791	0.03667033	-0.03116978	0	0	0	0
21.84665	0.03667033	-0.03116978	0	0	0	0
21.86322	0.03667033	-0.03116978	0	0	0	0
21.87979	0.03667033	-0.03116978	0	0	0	0
21.89644	0.03667033	-0.03116978	0	0	0	0
21.91292	0.03667033	-0.03116978	0	0	0	0
21.92949	0.03667033	-0.03116978	0	0	0	0
21.94619	0.03667033	-0.03116978	0	0	0	0
21.96263	0.03667033	-0.03116978	0	0	0	0
21.97919	0.03667033	-0.03116978	0	0	0	0
21.99576	0.03667033	-0.03116978	0	0	0	0
22.01233	0.03667033	-0.03116978	0	0	0	0
22.02923	0.03667033	-0.03116978	0	0	0	0
22.04638	0.03667033	-0.03116978	0	0	0	0
22.06203	0.03667033	-0.03116978	0	0	0	0
22.07873	0.03667033	-0.03116978	0	0	0	0
22.09516	0.03667033	-0.03116978	0	0	0	0
22.11181	0.03667033	-0.03116978	0	0	0	0
22.12829	0.03667033	-0.03116978	0	0	0	0
22.14486	0.03667033	-0.03116978	0	0	0	0
22.16173	0.03667033	-0.03116978	0	0	0	0
22.17799	0.03667033	-0.03116978	0	0	0	0
22.19472	0.03667033	-0.03116978	0	0	0	0
22.21113	0.03667033	-0.03116978	0	0	0	0
22.22784	0.03667033	-0.03116978	0	0	0	0
22.2445	0.03667033	-0.03116978	0	0	0	0
22.26103	0.03667033	-0.03116978	0	0	0	0
22.27751	0.03667033	-0.03116978	0	0	0	0
22.29396	0.03667033	-0.03116978	0	0	0	0
22.31109	0.03667033	-0.03116978	0	0	0	0
22.32721	0.03667033	-0.03116978	0	0	0	0
22.34366	0.03667033	-0.03116978	0	0	0	0
22.36023	0.03667033	-0.03116978	0	0	0	0
22.37686	0.03667033	-0.03116978	0	0	0	0
22.39336	0.03667033	-0.03116978	0	0	0	0
22.40993	0.03667033	-0.03116978	0	0	0	0
22.42699	0.03667033	-0.03116978	0	0	0	0
22.44306	0.03667033	-0.03116978	0	0	0	0
22.45963	0.03667033	-0.03116978	0	0	0	0
22.4762	0.03667033	-0.03116978	0	0	0	0
22.49277	0.03667033	-0.03116978	0	0	0	0
22.50997	0.03667033	-0.03116978	0	0	0	0
22.52598	0.03667033	-0.03116978	0	0	0	0
22.54263	0.03667033	-0.03116978	0	0	0	0
22.55903	0.03667033	-0.03116978	0	0	0	0
22.57747	0.03667033	-0.03116978	0	0	0	0
22.59404	0.03667033	-0.03116978	0	0	0	0
22.61087	0.03667033	-0.03116978	0	0	0	0
22.62717	0.03667033	-0.03116978	0	0	0	0
22.64374	0.03667033	-0.03116978	0	0	0	0
22.6603	0.03667033	-0.03116978	0	0	0	0
22.67687	0.03667033	-0.03116978	0	0	0	0
22.69344	0.03667033	-0.03116978	0	0	0	0
22.71	0.03667033	-0.03116978	0	0	0	0
22.72696	0.03667033	-0.03116978	0	0	0	0
22.74314	0.03667033	-0.03116978	0	0	0	0
22.7597	0.03667033	-0.03116978	0	0	0	0
22.77627	0.03667033	-0.03116978	0	0	0	0
22.79284	0.03667033	-0.03116978	0	0	0	0
22.80941	0.03667033	-0.03116978	0	0	0	0
22.82597	0.03667033	-0.03116978	0	0	0	0
22.84254	0.03667033	-0.03116978	0	0	0	0
22.85911	0.03667033	-0.03116978	0	0	0	0
22.87567	0.03667033	-0.03116978	0	0	0	0
22.89224	0.03667033	-0.03116978	0	0	0	0
22.90881	0.03667033	-0.03116978	0	0	0	0
22.92537	0.03667033	-0.03116978	0	0	0	0
22.94194	0.03667033	-0.03116978	0	0	0	0
22.95851	0.03667033	-0.03116978	0	0	0	0
22.97507	0.03667033	-0.03116978	0	0	0	0
22.99172	0.03667033	-0.03116978	0	0	0	0
23.00821	0.03667033	-0.03116978	0	0	0	0
23.02478	0.03667033	-0.03116978	0	0	0	0
23.04134	0.03667033	-0.03116978	0	0	0	0
23.05791	0.03667033	-0.03116978	0	0	0	0
23.07473	0.03667033	-0.03116978	0	0	0	0
23.09123	0.03667033	-0.03116978	0	0	0	0
23.10761	0.03667033	-0.03116978	0	0	0	0
23.12418	0.03667033	-0.03116978	0	0	0	0
23.14074	0.03667033	-0.03116978	0	0	0	0
23.15731	0.03667033	-0.03116978	0	0	0	0
23.17398	0.03667033	-0.03116978	0	0	0	0
23.19044	0.03667033	-0.03116978	0	0	0	0
23.20701	0.03667033	-0.03116978	0	0	0	0
23.22358	0.03667033	-0.03116978	0	0	0	0
23.28569	0.03667033	-0.03116978	0	0	0	0
23.30226	0.03789268	-0.03239213	0.07377245	-0.07377245	0.9375806	-0.9375806
23.31883	0.03789268	-0.03239213	0	0	-2.226329	2.226329
23.33583	0.03789268	-0.03239213	0	0	0	0
23.35196	0.03789268	-0.03239213	0	0	0	0
23.36853	0.03789268	-0.03239213	0	0	0	0
23.3851	0.03789268	-0.03239213	0	0	0	0
23.40166	0.03789268	-0.03239213	0	0	0	0
23.41823	0.03789268	-0.03239213	0	0	0	0
23.43492	0.03789268	-0.03239213	0	0	0	0
23.45148	0.03789268	-0.03361447	-2.249367E-07	-0.07380622	-6.764072E-06	-2.219427
23.46793	0.03789268	-0.03361447	0	0	6.814491E-06	2.235971
23.4845	0.03789268	-0.03361447	0	0	0	0
23.50106	0.03789268	-0.03361447	0	0	0	0
23.51763	0.03789268	-0.03361447	0	0	0	0
23.53443	0.03789268	-0.03361447	0	0	0	0
23.55076	0.03789268	-0.03361447	0	0	0	0
23.56733	0.03789268	-0.03361447	0	0	0	0
23.5839	0.03789268	-0.03361447	0	0	0	0
23.60072	0.03789268	-0.03361447	0	0	0	0
23.61703	0.03789268	-0.03361447	0	0	0	0
23.63371	0.03789268	-0.03361447	0	0	0	0
23.69077	0.03789268	-0.03361447	0	0	0	0
23.70734	0.03789268	-0.03361447	0	0	0	0
23.72391	0.03789268	-0.03361447	0	0	0	0
23.74048	0.03789268	-0.03361447	0	0	0	0
23.75704	0.03789268	-0.03361447	0	0	0	0
23.77361	0.03789268	-0.03361447	0	0	0	0
23.79018	0.03789268	-0.03361447	0	0	0	0
23.80679	0.03789268	-0.03361447	0	0	0	0
23.82331	0.03789268	-0.03361447	0	0	0	0
23.83988	0.03789268	-0.03361447	0	0	0	0
23.85645	0.03789268	-0.03361447	0	0	0	0
23.87301	0.03789268	-0.03361447	0	0	0	0
23.88958	0.03789268	-0.03361447	0	0	0	0
23.90615	0.03789268	-0.03361447	0	0	0	0
23.92272	0.03789268	-0.03361447	0	0	0	0
23.93946	0.03789268	-0.03361447	0	0	0	0
23.95585	0.03789268	-0.03361447	0	0	0	0
23.97271	0.03789268	-0.03361447	0	0	0	0
23.99389	0.03789268	-0.03361447	0	0	0	0
24.01062	0.03789268	-0.03361447	0	0	0	0
24.02703	0.03789268	-0.03361447	0	0	0	0
24.04359	0.03789268	-0.03361447	0	0	0	0
24.06018	0.03789268	-0.03361447	0	0	0	0
24.07704	0.03789268	-0.03361447	0	0	0	0
24.0933	0.03789268	-0.03361447	0	0	0	0
24.10986	0.03789268	-0.03361447	0	0	0	0
24.12643	0.03789268	-0.03361447	0	0	0	0
24.143	0.03789268	-0.03361447	0	0	0	0
24.15956	0.03789268	-0.03361447	0	0	0	0
24.17613	0.03789268	-0.03361447	0	0	0	0
24.1927	0.03789268	-0.03361447	0	0	0	0
24.20926	0.03789268	-0.03361447	0	0	0	0
24.22583	0.03789268	-0.03361447	0	0	0	0
24.2424	0.03789268	-0.03361447	0	0	0	0
24.25897	0.03789268	-0.03361447	0	0	0	0
24.27553	0.03789268	-0.03361447	0	0	0	0
24.2921	0.03789268	-0.03361447	0	0	0	0
24.30866	0.03789268	-0.03361447	0	0	0	0
24.32523	0.03789268	-0.03361447	0	0	0	0
24.3418	0.03789268	-0.03361447	0	0	0	0
24.35837	0.03789268	-0.03361447	0	0	0	0
24.37493	0.03789268	-0.03361447	0	0	0	0
24.39163	0.03789268	-0.03361447	0	0	0	0
24.40807	0.03789268	-0.03361447	0	0	0	0
24.42562	0.03789268	-0.03361447	0	0	0	0
24.44121	0.03789268	-0.03361447	0	0	0	0
24.45777	0.03789268	-0.03361447	0	0	0	0
24.47433	0.03789268	-0.03361447	0	0	0	0
24.4909	0.03789268	-0.03361447	0	0	0	0
24.50747	0.03789268	-0.03361447	0	0	0	0
24.52403	0.03789268	-0.03361447	0	0	0	0
24.54084	0.03789268	-0.03361447	0	0	0	0
24.55717	0.03789268	-0.03361447	0	0	0	0
24.57385	0.03789268	-0.03361447	0	0	0	0
24.59053	0.03789268	-0.03361447	0	0	0	0
24.60701	0.03789268	-0.03361447	0	0	0	0
24.62348	0.03789268	-0.03361447	0	0	0	0
24.64	0.03789268	-0.03361447	0	0	0	0
24.65657	0.03789268	-0.03361447	0	0	0	0
24.67358	0.03544799	-0.03483682	-0.1436907	-0.07184544	-4.279199	-2.139603
24.6897	0.03178096	-0.03483682	-0.2274704	0	-2.528478	2.1683
24.70662	0.02077986	-0.03605916	-0.6501066	-0.07223392	-12.79053	-2.186064
24.72335	-0.007334067	-0.04094854	-1.680706	-0.2922971	-30.62754	-6.539875
24.7394	-0.06111722	-0.04217088	-3.350905	-0.07615656	-50.9552	6.594116
24.75608	-0.1992422	-0.0507273	-8.280989	-0.5129818	-150.6284	-13.34628
24.77254	-0.2799169	-0.05317198	-4.90227	-0.1485534	101.9641	10.99784
24.78911	-0.3337	-0.05439433	-3.245984	-0.07377245	50.15139	2.264323
24.80567	-0.361814	-0.05683902	-1.696962	-0.1475619	46.74687	-2.226841
24.82224	-0.3728151	-0.05806136	-0.664103	-0.07378922	31.17354	2.226592
24.8388	-0.3728151	-0.05806136	0	0	20.04613	2.227348
24.85537	-0.3728151	-0.05806136	0	0	0	0
24.87194	-0.3728151	-0.05806136	0	0	0	0
24.8885	-0.3728151	-0.05806136	0	0	0	0
24.90507	-0.3728151	-0.05806136	0	0	0	0
24.92164	-0.3728151	-0.05806136	0	0	0	0
24.93821	-0.3728151	-0.05806136	0	0	0	0
24.95477	-0.3728151	-0.05806136	0	0	0	0
24.97137	-0.3728151	-0.05806136	0	0	0	0
24.98796	-0.3728151	-0.05806136	0	0	0	0
25.00463	-0.3728151	-0.05806136	0	0	0	0
25.02104	-0.3728151	-0.05806136	0	0	0	0
25.03774	-0.3728151	-0.05806136	0	0	0	0
25.05438	-0.3728151	-0.05806136	0	0	0	0
25.07074	-0.3728151	-0.05806136	0	0	0	0
25.08756	-0.3728151	-0.05806136	0	0	0	0
25.1043	-0.3728151	-0.05806136	0	0	0	0
25.12044	-0.3728151	-0.05806136	0	0	0	0
25.137	-0.3728151	-0.05806136	0	0	0	0
25.15443	-0.3728151	-0.05806136	0	0	0	0
25.17014	-0.3728151	-0.05806136	0	0	0	0
25.1867	-0.3728151	-0.05806136	0	0	0	0
25.20327	-0.3728151	-0.05806136	0	0	0	0
25.21984	-0.3728151	-0.05806136	0	0	0	0
25.23666	-0.3728151	-0.05806136	0	0	0	0
25.25297	-0.3728151	-0.05806136	0	0	0	0
25.26975	-0.3728151	-0.05806136	0	0	0	0
25.2861	-0.3728151	-0.05806136	0	0	0	0
25.30335	-0.3728151	-0.05806136	0	0	0	0
25.31924	-0.3728151	-0.05806136	0	0	0	0
25.3358	-0.3728151	-0.05806136	0	0	0	0
25.35237	-0.3715927	-0.05806137	0.07378922	-2.248849E-07	2.227091	-6.787429E-06
25.36953	-0.365481	-0.05806137	0.3561121	0	8.370667	6.667671E-06
25.38611	-0.3532576	-0.05806137	0.7372149	0	11.29431	0
25.40207	-0.3312553	-0.05683902	1.37869	0.07659415	19.71382	2.353892
25.41868	-0.2713605	-0.05317198	3.606956	0.2208339	68.42693	4.429401
25.43529	-0.2053539	-0.04461557	3.973189	0.5150429	11.02502	8.856812
25.45177	-0.1259015	-0.03483681	4.820731	0.593321	25.60983	2.365296
25.46848	-0.05011613	-0.0287251	4.535771	0.3657878	-8.585785	-6.855521
25.4851	0.01222344	-0.02383572	3.750733	0.2941752	-23.55419	-2.148657
25.50147	0.05011613	-0.02016868	2.314385	0.2239726	-43.53453	-2.127781
25.5186	0.0770077	-0.01894634	1.569862	0.07135735	-22.22284	-4.555329
25.53461	0.09412052	-0.01650165	1.069374	0.1527678	-15.10564	2.457113
25.55118	0.1026769	-0.01527931	0.5162877	0.07375542	-16.97854	-2.425507
25.56774	0.1075663	-0.01405696	0.2952598	0.07381477	-6.67102	0.00179133
25.58431	0.110011	-0.01405696	0.1475445	5.620827E-08	-4.458827	-2.228117
25.60087	0.1112333	-0.01405696	0.07378072	-5.621474E-08	-2.226066	-3.392738E-06
25.61744	0.1112334	-0.01283462	4.497179E-07	0.07378089	-2.226693	2.226714
25.63429	0.1112334	-0.01283462	0	0	-1.345632E-05	-2.20765
25.6508	0.1112334	-0.01283462	0	0	0	0
25.66714	0.1112334	-0.01283462	0	0	0	0
25.6841	0.1112334	-0.01283462	0	0	0	0
25.70027	0.1112334	-0.01283462	0	0	0	0
25.71694	0.1112334	-0.01283462	0	0	0	0
25.73341	0.1112334	-0.01283462	0	0	0	0
25.7501	0.1112334	-0.01283462	0	0	0	0
25.76732	0.1112334	-0.01283462	0	0	0	0
25.78311	0.1112334	-0.01283462	0	0	0	0
25.80004	0.1112334	-0.01283462	0	0	0	0
25.81642	0.1112334	-0.01283462	0	0	0	0
25.83281	0.1112334	-0.01283462	0	0	0	0
25.84939	0.1112334	-0.01283462	0	0	0	0
25.86636	0.1112334	-0.01283462	0	0	0	0
25.88251	0.1112334	-0.01283462	0	0	0	0
25.89922	0.1112334	-0.01283462	0	0	0	0
25.91612	0.1112334	-0.01283462	0	0	0	0
25.93221	0.1112334	-0.01283462	0	0	0	0
25.94877	0.1112334	-0.01283462	0	0	0	0
25.96534	0.09778757	-0.01038993	-0.8114025	0.1475277	-24.491	4.452908
25.9819	0.09289818	-0.009167584	-0.2951582	0.07378939	15.57939	-2.225299
25.99898	0.07823005	-0.006722894	-0.8589662	0.1431611	-16.75914	2.062068
26.01565	0.06111722	-0.003055861	-1.026433	0.2199498	-4.962168	2.275315
26.03171	0.04522675	0.001833517	-0.9899225	0.3045915	1.115683	2.586502
26.04817	0.03422565	0.004278206	-0.6680269	0.1484504	9.898299	-4.801342
26.06474	0.02933627	0.00550055	-0.2951913	0.07379786	11.28728	-2.260045
26.08131	0.02811392	0.006722895	-0.07377245	0.07377237	6.682819	-0.0007692868
26.09809	0.02811392	0.006722895	0	0	2.211942	-2.211939
26.11474	0.02811392	0.006722895	0	0	0	0
26.13101	0.02811392	0.006722895	0	0	0	0
26.14757	0.02811392	0.006722895	0	0	0	0
26.16414	0.02811392	0.006722895	0	0	0	0
26.18072	0.02811392	0.006722895	0	0	0	0
26.1977	0.02811392	0.006722895	0	0	0	0
26.21384	0.02811392	0.006722895	0	0	0	0
26.23041	0.02811392	0.006722895	0	0	0	0
26.24716	0.02811392	0.006722895	0	0	0	0
26.26369	0.02811392	0.006722895	0	0	0	0
26.28011	0.02811392	0.006722895	0	0	0	0
26.29668	0.02811392	0.006722895	0	0	0	0
26.31328	0.02811392	0.006722895	0	0	0	0
26.32981	0.02811392	0.006722895	0	0	0	0
26.34637	0.02811392	0.006722895	0	0	0	0
26.36305	0.02811392	0.006722895	0	0	0	0
26.37951	0.02811392	0.006722895	0	0	0	0
26.39607	0.02811392	0.006722895	0	0	0	0
26.41314	0.02811392	0.006722895	0	0	0	0
26.42921	0.02811392	0.006722895	0	0	0	0
26.44627	0.02811392	0.006722895	0	0	0	0
26.46234	0.02811392	0.006722895	0	0	0	0
26.47891	0.02811392	0.006722895	0	0	0	0
26.49615	0.02811392	0.006722895	0	0	0	0
26.51204	0.02811392	0.006722895	0	0	0	0
26.52861	0.02811392	0.006722895	0	0	0	0
26.54517	0.02811392	0.006722895	0	0	0	0
26.56174	0.02811392	0.006722895	0	0	0	0
26.57831	0.02811392	0.006722895	0	0	0	0
26.59488	0.02811392	0.006722895	0	0	0	0
26.61676	0.02811392	0.006722895	0	0	0	0
26.63334	0.02811392	0.006722895	0	0	0	0
26.65012	0.02811392	0.006722895	0	0	0	0
26.66647	0.02811392	0.006722895	0	0	0	0
26.68303	0.02811392	0.006722895	0	0	0	0
26.69961	0.02811392	0.006722895	0	0	0	0
26.71654	0.02811392	0.006722895	0	0	0	0
26.73274	0.02811392	0.006722895	0	0	0	0
26.74956	0.02811392	0.006722895	0	0	0	0
26.76587	0.02811392	0.006722895	0	0	0	0
26.78244	0.02811392	0.006722895	0	0	0	0
26.799	0.02811392	0.006722895	0	0	0	0
26.81585	0.02811392	0.006722895	0	0	0	0
26.83214	0.02811392	0.006722895	0	0	0	0
26.84871	0.02811392	0.006722895	0	0	0	0
26.86527	0.02811392	0.006722895	0	0	0	0
26.88183	0.02811392	0.006722895	0	0	0	0
26.8984	0.02811392	0.006722895	0	0	0	0
26.91497	0.02811392	0.006722895	0	0	0	0
26.93154	0.02811392	0.006722895	0	0	0	0
26.9481	0.02811392	0.006722895	0	0	0	0
26.96468	0.02811392	0.006722895	0	0	0	0
26.98169	0.02811392	0.006722895	0	0	0	0
26.99783	0.02811392	0.006722895	0	0	0	0
27.01437	0.02811392	0.006722895	0	0	0	0
27.03094	0.02811392	0.006722895	0	0	0	0
27.04751	0.02811392	0.006722895	0	0	0	0
27.0644	0.02811392	0.006722895	0	0	0	0
27.08064	0.02811392	0.006722895	0	0	0	0
27.09721	0.02811392	0.006722895	0	0	0	0
27.11378	0.02811392	0.006722895	0	0	0	0
27.13035	0.02811392	0.006722895	0	0	0	0
27.14691	0.02811392	0.006722895	0	0	0	0
27.16348	0.02811392	0.006722895	0	0	0	0
27.18004	0.02811392	0.006722895	0	0	0	0
27.19682	0.02811392	0.006722895	0	0	0	0
27.21318	0.02811392	0.006722895	0	0	0	0
27.23051	0.02811392	0.006722895	0	0	0	0
27.24631	0.02811392	0.006722895	0	0	0	0
27.26289	0.02811392	0.006722895	0	0	0	0
27.28456	0.02811392	0.006722895	0	0	0	0
27.30114	0.02811392	0.006722895	0	0	0	0
27.3177	0.02811392	0.006722895	0	0	0	0
27.33427	0.02811392	0.006722895	0	0	0	0
27.35084	0.02811392	0.006722895	0	0	0	0
27.36743	0.02811392	0.006722895	0	0	0	0
27.38397	0.02811392	0.006722895	0	0	0	0
27.40054	0.02811392	0.006722895	0	0	0	0
27.41755	0.02811392	0.006722895	0	0	0	0
27.43391	0.02811392	0.006722895	0	0	0	0
27.45024	0.02811392	0.006722895	0	0	0	0
27.46681	0.02811392	0.006722895	0	0	0	0
27.48354	0.02811392	0.006722895	0	0	0	0
27.49994	0.02811392	0.006722895	0	0	0	0
27.51683	0.02811392	0.006722895	0	0	0	0
27.53307	0.02811392	0.006722895	0	0	0	0
27.54964	0.02811392	0.006722895	0	0	0	0
27.56621	0.02811392	0.006722895	0	0	0	0
27.58278	0.02811392	0.006722895	0	0	0	0
27.59934	0.02811392	0.006722895	0	0	0	0
27.61632	0.02811392	0.006722895	0	0	0	0
27.63247	0.02811392	0.006722895	0	0	0	0
27.64921	0.02811392	0.006722895	0	0	0	0
27.66561	0.02811392	0.006722895	0	0	0	0
27.68217	0.02811392	0.006722895	0	0	0	0
27.69876	0.02811392	0.006722895	0	0	0	0
27.71531	0.02811392	0.006722895	0	0	0	0
27.73187	0.02811392	0.006722895	0	0	0	0
27.74844	0.02811392	0.006722895	0	0	0	0
27.76507	0.02811392	0.006722895	0	0	0	0
27.78194	0.02811392	0.006722895	0	0	0	0
27.79844	0.02811392	0.006722895	0	0	0	0
27.81471	0.02811392	0.006722895	0	0	0	0
27.83128	0.02811392	0.006722895	0	0	0	0
27.84801	0.02811392	0.006722895	0	0	0	0
27.8651	0.02811392	0.006722895	0	0	0	0
27.88097	0.02811392	0.006722895	0	0	0	0
27.89772	0.02811392	0.006722895	0	0	0	0
27.92914	0.02811392	0.006722895	0	0	0	0
27.94602	0.02811392	0.006722895	0	0	0	0
27.96259	0.02811392	0.006722895	0	0	0	0
27.97884	0.02811392	0.006722895	0	0	0	0
27.99541	0.02811392	0.006722895	0	0	0	0
28.01237	0.02811392	0.006722895	0	0	0	0
28.02854	0.02811392	0.006722895	0	0	0	0
28.04511	0.02811392	0.006722895	0	0	0	0
28.06168	0.02811392	0.006722895	0	0	0	0
28.07824	0.02811392	0.006722895	0	0	0	0
28.09555	0.02811392	0.006722895	0	0	0	0
28.11138	0.02811392	0.006722895	0	0	0	0
28.12825	0.02811392	0.006722895	0	0	0	0
28.14483	0.02811392	0.006722895	0	0	0	0
28.16108	0.02811392	0.006722895	0	0	0	0
28.17765	0.02811392	0.006722895	0	0	0	0
28.19422	0.02811392	0.006722895	0	0	0	0
28.21095	0.02811392	0.006722895	0	0	0	0
28.22735	0.02811392	0.006722895	0	0	0	0
28.24391	0.02811392	0.006722895	0	0	0	0
28.26048	0.02811392	0.006722895	0	0	0	0
28.27705	0.02811392	0.006722895	0	0	0	0
28.29423	0.02811392	0.006722895	0	0	0	0
28.31023	0.02811392	0.006722895	0	0	0	0
28.32675	0.02811392	0.006722895	0	0	0	0
28.34332	0.02811392	0.006722895	0	0	0	0
28.35988	0.02811392	0.006722895	0	0	0	0
28.37645	0.02811392	0.006722895	0	0	0	0
28.39302	0.02811392	0.006722895	0	0	0	0
28.40958	0.02811392	0.006722895	0	0	0	0
28.42615	0.02811392	0.006722895	0	0	0	0
28.44272	0.02811392	0.006722895	0	0	0	0
28.45928	0.02811392	0.006722895	0	0	0	0
28.47585	0.02811392	0.006722895	0	0	0	0
28.49242	0.02811392	0.006722895	0	0	0	0
28.50898	0.02811392	0.006722895	0	0	0	0
28.52555	0.02811392	0.006722895	0	0	0	0
28.54212	0.02811392	0.006722895	0	0	0	0
28.55877	0.02811392	0.006722895	0	0	0	0
28.58043	0.02811392	0.006722895	0	0	0	0
28.597	0.02811392	0.006722895	0	0	0	0
28.61357	0.02811392	0.006722895	0	0	0	0
28.63013	0.02811392	0.006722895	0	0	0	0
28.6467	0.02811392	0.006722895	0	0	0	0
28.66327	0.02811392	0.006722895	0	0	0	0
28.67983	0.02811392	0.006722895	0	0	0	0
28.69665	0.02811392	0.006722895	0	0	0	0
28.71297	0.02811392	0.006722895	0	0	0	0
28.72953	0.02811392	0.006722895	0	0	0	0
28.74611	0.02811392	0.006722895	0	0	0	0
28.76267	0.02811392	0.006722895	0	0	0	0
28.77923	0.02811392	0.006722895	0	0	0	0
28.7958	0.02811392	0.006722895	0	0	0	0
28.81288	0.02811392	0.006722895	0	0	0	0
28.82893	0.02811392	0.006722895	0	0	0	0
28.8455	0.02811392	0.006722895	0	0	0	0
28.86207	0.02811392	0.006722895	0	0	0	0
28.87863	0.02811392	0.006722895	0	0	0	0
28.8952	0.02811392	0.006722895	0	0	0	0
28.91177	0.02811392	0.00550055	0	-0.07378089	0	-2.226712
28.92841	0.02811392	0.00550055	0	0	0	2.221724
28.9449	0.02811392	0.00550055	0	0	0	0
28.96147	0.02933627	0.00550055	0.07378095	2.810737E-08	2.231852	8.502399E-07
28.97803	0.02933627	0.004278205	-2.24859E-07	-0.07378089	-2.22672	-2.226713
28.99477	0.02933627	0.003055861	2.225784E-07	-0.07303252	1.343486E-05	0.02247084
29.01117	0.03055861	0.003055861	0.07454453	0	2.249752	2.204126
29.02844	0.03055861	0.001833517	0	-0.0707664	-2.213947	-2.101738
29.0443	0.03178096	0.001833517	0.07706365	7.339485E-09	2.325786	2.135735
29.06087	0.03178096	0.0006111722	0	-0.07378086	-2.3764	-2.275169
29.07744	0.0330033	-0.0006111722	0.07378922	-0.07378935	2.227091	-0.0002561291
29.09424	0.03422565	-0.003055861	0.07275901	-0.1455178	-0.03087664	-2.149796
29.11711	0.03422565	-0.003055861	0	0	-1.833799	3.667593
29.13368	0.03667033	-0.006722894	0.1475447	-0.2213171	3.740433	-5.610651
29.15074	0.03789268	-0.00794524	0.07165265	-0.07165263	-2.25678	4.450528
29.16682	0.04033737	-0.01038993	0.1520608	-0.1520608	2.426584	-2.426584
29.18339	0.04155971	-0.01161227	0.07377223	-0.07377234	-2.398093	2.39809
29.19995	0.04278206	-0.01283462	0.07379794	-0.07379789	0.000776033	-0.0007710858
29.21657	0.04278206	-0.01405696	0	-0.07353538	-2.22377	0.007910162
29.23324	0.04522675	-0.01527931	0.14665	-0.07332499	4.40486	0.006319599
29.24965	0.04522675	-0.01650165	0	-0.07450998	-4.433817	-0.03582708
29.26622	0.04644909	-0.017724	0.07377245	-0.07377245	2.237275	0.02236672
29.28294	0.04644909	-0.017724	0	0	-2.215743	2.215743
29.29935	0.04644909	-0.017724	0	0	0	0
29.31594	0.04644909	-0.017724	0	0	0	0
29.33249	0.04644909	-0.017724	0	0	0	0
29.34944	0.04644909	-0.017724	0	0	0	0
29.36602	0.04767144	-0.017724	0.07369611	0	2.197587	0
29.38219	0.04767144	-0.017724	0	0	-2.250188	0
29.39876	0.04767144	-0.017724	0	0	0	0
29.41532	0.04767144	-0.017724	0	0	0	0
29.43189	0.04767144	-0.017724	0	0	0	0
29.44849	0.04767144	-0.017724	0	0	0	0
29.4656	0.04767144	-0.017724	0	0	0	0
29.48174	0.04767144	-0.017724	0	0	0	0
29.49816	0.04767144	-0.017724	0	0	0	0
29.51472	0.04767144	-0.017724	0	0	0	0
29.53129	0.04767144	-0.017724	0	0	0	0
29.54786	0.04767144	-0.017724	0	0	0	0
29.56442	0.04767144	-0.017724	0	0	0	0
29.58099	0.04767144	-0.017724	0	0	0	0
29.59756	0.04767144	-0.017724	0	0	0	0
29.61447	0.04767144	-0.017724	0	0	0	0
29.63069	0.04767144	-0.017724	0	0	0	0
29.64776	0.04767144	-0.017724	0	0	0	0
29.66458	0.04767144	-0.017724	0	0	0	0
29.68039	0.04767144	-0.017724	0	0	0	0
29.69695	0.04767144	-0.017724	0	0	0	0
29.71352	0.04767144	-0.017724	0	0	0	0
29.73009	0.04767144	-0.017724	0	0	0	0
29.74665	0.04767144	-0.017724	0	0	0	0
29.76322	0.04767144	-0.017724	0	0	0	0
29.77979	0.04767144	-0.017724	0	0	0	0
29.79636	0.04767144	-0.017724	0	0	0	0
29.81302	0.04767144	-0.017724	0	0	0	0
29.82955	0.04767144	-0.017724	0	0	0	0
29.84618	0.04767144	-0.017724	0	0	0	0
29.86263	0.04767144	-0.017724	0	0	0	0
29.87919	0.04767144	-0.017724	0	0	0	0
29.89576	0.04767144	-0.017724	0	0	0	0
29.91239	0.04767144	-0.017724	0	0	0	0
29.9292	0.04767144	-0.017724	0	0	0	0
29.94576	0.04767144	-0.017724	0	0	0	0
29.9621	0.04767144	-0.017724	0	0	0	0
29.97875	0.04767144	-0.017724	0	0	0	0
29.99531	0.04767144	-0.017724	0	0	0	0
30.0118	0.04767144	-0.017724	0	0	0	0
30.02836	0.04767144	-0.017724	0	0	0	0
30.04493	0.04767144	-0.017724	0	0	0	0
30.06179	0.04767144	-0.017724	0	0	0	0
30.07831	0.04767144	-0.017724	0	0	0	0
30.09468	0.04767144	-0.017724	0	0	0	0
30.11119	0.04767144	-0.017724	0	0	0	0
30.12776	0.04767144	-0.017724	0	0	0	0
30.14435	0.05133847	-0.017724	0.2210116	0	6.66554	0
30.1609	0.07456301	-0.01038993	1.403776	0.4432977	35.69383	13.37798
30.17777	0.1356802	-0.0006111722	3.621908	0.5795054	66.37409	4.075799
30.19403	0.216355	0.01283462	4.961502	0.8269168	40.42902	7.466892
30.2106	0.2823616	0.017724	3.984165	0.2951235	-29.772	-16.19969
30.22733	0.3153649	0.02016868	1.972778	0.1461316	-60.40823	-4.474689
30.24373	0.326366	0.02016868	0.6706686	0	-39.3	-4.410516
30.26097	0.3288107	0.02139103	0.1417691	0.07088379	-15.71882	2.106656
30.27686	0.3288107	0.02139103	0	0	-4.278846	-2.1394
30.29343	0.3324777	0.02261337	0.2213404	0.07378083	6.819823	2.273296
30.31	0.3324777	0.02261337	0	0	-6.680066	-2.22671
30.32677	0.3337	0.02261337	0.07285804	0	2.185024	0
30.34313	0.3337	0.02261337	0	0	-2.19886	0
30.3597	0.3337	0.02261337	0	0	0	0
30.37626	0.3349224	0.02261337	0.07378072	0	2.226835	0
30.39283	0.3361447	0.02261337	0.07378253	0	5.441587E-05	0
30.4094	0.3410341	0.02261337	0.2951229	0	6.680065	0
30.42597	0.3471459	0.02261337	0.3689054	1.124295E-07	2.226761	3.393129E-06
30.44253	0.3544799	0.02261337	0.4426826	0	2.226599	-3.393129E-06
30.45911	0.3569246	0.02261337	0.1474614	-1.123519E-07	-8.906716	-3.389616E-06
30.47567	0.3569246	0.02261337	0	0	-4.45065	3.390982E-06
30.49234	0.3569246	0.02261337	0	0	0	0
30.5088	0.3569246	0.02261337	0	0	0	0
30.52537	0.3569246	0.02261337	0	0	0	0
30.54193	0.3569246	0.02261337	0	0	0	0
30.55851	0.3569246	0.02261337	0	0	0	0
30.57555	0.3569246	0.02261337	0	0	0	0
30.59163	0.3569246	0.02261337	0	0	0	0
30.60828	0.3569246	0.02261337	0	0	0	0
30.62477	0.3569246	0.02261337	0	0	0	0
30.64134	0.3569246	0.02261337	0	0	0	0
30.6579	0.3569246	0.02261337	0	0	0	0
30.67474	0.3569246	0.02261337	0	0	0	0
30.69104	0.3581469	0.02261337	0.07500695	0	2.263714	0
30.70761	0.3544799	0.02261337	-0.221344	1.124295E-07	-9.017599	3.421093E-06
30.72417	0.3447011	0.02016868	-0.5902458	-0.1475618	-11.13348	-4.453427
30.74074	0.3337	0.01894634	-0.6641048	-0.07378945	-2.229197	2.226582
30.75731	0.3153649	0.01527931	-1.106713	-0.2213425	-13.3587	-4.453417
30.77387	0.2896956	0.01038993	-1.549577	-0.2951574	-13.36645	-2.227867
30.79044	0.2603594	0.00794524	-1.770739	-0.1475617	-6.675066	4.454705
30.807	0.2273561	0.006722894	-1.992083	-0.07378089	-6.680175	2.226708
30.82357	0.1931304	0.00550055	-2.065864	-0.07378083	-2.226705	1.798872E-06
30.84014	0.1589048	0.00550055	-2.065864	-2.810737E-08	0	2.226709
30.85671	0.1332356	0.00550055	-1.549398	2.810737E-08	15.58697	1.696564E-06
30.87363	0.113678	0.006722894	-1.155876	0.07224218	11.75138	2.157299
30.89015	0.1014546	0.006722895	-0.7397674	2.8182E-08	12.44214	-2.160128
30.90641	0.09289818	0.006722894	-0.5262202	-2.86382E-08	6.513861	-1.733194E-06
30.92298	0.08556411	0.00550055	-0.4426848	-0.07378083	2.544687	-2.247539
30.93954	0.07456302	0.00550055	-0.6640274	0	-6.680133	2.22671
30.95627	0.06478426	0.004278206	-0.5846604	-0.07308251	2.383912	-2.195147
30.97327	0.05745019	0.003055861	-0.431459	-0.07190985	4.542823	0.0347725
30.98924	0.05011613	0.003055861	-0.4591241	1.457556E-08	-0.83904	2.180915
31.00581	0.0440044	0.001833517	-0.3688621	-0.07377238	2.773607	-2.266908
31.02238	0.03911502	0.001833517	-0.2951233	0	2.225311	2.226327
31.03901	0.03422564	0.0006111722	-0.294074	-0.07351848	0.03161183	-2.21484
31.05553	0.03178096	0.0006111722	-0.1479703	0	4.407643	2.217898
31.07208	0.03055861	0.0006111723	-0.07384885	3.51666E-09	2.241118	1.063289E-07
31.08865	0.03055861	0.0006111723	0	0	2.229789	-1.061819E-07
31.10522	0.03055861	0.0006111723	0	0	0	0
31.12178	0.03055861	0.0006111723	0	0	0	0
31.13857	0.03055861	0.0006111723	0	0	0	0
31.15493	0.03055861	0.0006111723	0	0	0	0
31.17159	0.03055861	0.0006111723	0	0	0	0
31.18805	0.03055861	0.0006111723	0	0	0	0
31.21022	0.03055861	0.0006111723	0	0	0	0
31.2268	0.03055861	0.0006111723	0	0	0	0
31.24336	0.03055861	0.0006111723	0	0	0	0
31.25993	0.03055861	0.0006111723	0	0	0	0
31.2765	0.03055861	0.0006111723	0	0	0	0
31.29306	0.03055861	0.0006111723	0	0	0	0
31.31001	0.03055861	0.0006111723	0	0	0	0
31.32619	0.03055861	0.0006111723	0	0	0	0
31.34276	0.03055861	0.0006111723	0	0	0	0
31.35968	0.03055861	0.0006111723	0	0	0	0
31.37589	0.03055861	0.0006111723	0	0	0	0
31.39246	0.03055861	0.0006111723	0	0	0	0
31.40907	0.03055861	0.0006111723	0	0	0	0
31.42579	0.03055861	0.0006111723	0	0	0	0
31.44216	0.03055861	0.0006111723	0	0	0	0
31.45873	0.03055861	0.0006111723	0	0	0	0
31.47571	0.03055861	0.0006111723	0	0	0	0
31.49187	0.03055861	0.0006111723	0	0	0	0
31.5087	0.03055861	0.0006111723	0	0	0	0
31.525	0.03055861	0.0006111723	0	0	0	0
31.54156	0.03055861	0.0006111723	0	0	0	0
31.55831	0.03055861	0.0006111723	0	0	0	0
31.5747	0.03055861	0.0006111723	0	0	0	0
31.5918	0.03055861	0.0006111723	0	0	0	0
31.60789	0.03055861	0.0006111723	0	0	0	0
31.62487	0.03055861	0.0006111723	0	0	0	0
31.64096	0.03055861	0.0006111723	0	0	0	0
31.65788	0.03055861	0.0006111723	0	0	0	0
31.67488	0.03055861	0.0006111723	0	0	0	0
31.69105	0.03055861	0.0006111723	0	0	0	0
31.70723	0.03055861	0.0006111723	0	0	0	0
31.7238	0.03055861	0.0006111723	0	0	0	0
31.74037	0.03055861	0.0006111723	0	0	0	0
31.75743	0.03055861	0.0006111723	0	0	0	0
31.77351	0.03055861	0.0006111723	0	0	0	0
31.79007	0.03055861	0.0006111723	0	0	0	0
31.80671	0.03055861	0.0006111723	0	0	0	0
31.8232	0.03055861	0.0006111723	0	0	0	0
31.83977	0.03055861	0.0006111723	0	0	0	0
31.85894	0.03055861	0.0006111723	0	0	0	0
31.87551	0.03055861	0.0006111723	0	0	0	0
31.89207	0.03055861	0.0006111723	0	0	0	0
31.90864	0.03055861	0.0006111723	0	0	0	0
31.92547	0.03055861	0.0006111723	0	0	0	0
31.94179	0.03055861	0.0006111723	0	0	0	0
31.95834	0.03055861	0.0006111723	0	0	0	0
31.97491	0.03055861	0.0006111723	0	0	0	0
31.99148	0.03055861	0.0006111723	0	0	0	0
32.00848	0.03055861	0.0006111723	0	0	0	0
32.02464	0.03055861	0.0006111723	0	0	0	0
32.04118	0.03055861	0.0006111723	0	0	0	0
32.05775	0.03055861	0.0006111723	0	0	0	0
32.07439	0.03055861	0.0006111723	0	0	0	0
32.09114	0.03055861	0.0006111723	0	0	0	0
32.10752	0.03055861	0.0006111723	0	0	0	0
32.12402	0.03055861	0.0006111723	0	0	0	0
32.14058	0.03055861	0.0006111723	0	0	0	0
32.15724	0.03055861	0.0006111723	0	0	0	0
32.17371	0.03055861	0.0006111723	0	0	0	0
32.19043	0.03055861	0.0006111723	0	0	0	0
32.20684	0.03055861	0.0006111723	0	0	0	0
32.22343	0.03055861	0.0006111723	0	0	0	0
32.23998	0.03055861	0.0006111723	0	0	0	0
32.25655	0.03055861	0.0006111723	0	0	0	0
32.27311	0.03055861	0.0006111723	0	0	0	0
32.28968	0.03055861	0.0006111723	0	0	0	0
32.30625	0.03055861	0.0006111723	0	0	0	0
32.32281	0.03055861	0.0006111723	0	0	0	0
32.33938	0.03055861	0.0006111723	0	0	0	0
32.35595	0.03055861	0.0006111723	0	0	0	0
32.37251	0.03055861	0.0006111723	0	0	0	0
32.38908	0.03055861	0.0006111723	0	0	0	0
32.40565	0.03055861	0.0006111723	0	0	0	0
32.42243	0.03055861	0.0006111723	0	0	0	0
32.43878	0.03055861	0.0006111723	0	0	0	0
32.45535	0.03055861	0.0006111723	0	0	0	0
32.47191	0.03055861	0.0006111723	0	0	0	0
32.48878	0.03055861	0.0006111723	0	0	0	0
32.50512	0.03055861	0.0006111723	0	0	0	0
32.52251	0.03055861	0.0006111723	0	0	0	0
32.5392	0.03055861	0.0006111723	0	0	0	0
32.55569	0.03055861	0.0006111723	0	0	0	0
32.57222	0.03055861	0.0006111723	0	0	0	0
32.58905	0.03055861	0.0006111723	0	0	0	0
32.60535	0.03055861	0.0006111723	0	0	0	0
32.62192	0.03055861	0.0006111723	0	0	0	0
32.63877	0.03055861	0.0006111723	0	0	0	0
32.65505	0.03055861	0.0006111723	0	0	0	0
32.67162	0.03055861	0.0006111723	0	0	0	0
32.68819	0.03055861	0.0006111723	0	0	0	0
32.70475	0.03055861	0.0006111723	0	0	0	0
32.72132	0.03055861	0.0006111723	0	0	0	0
32.73803	0.03055861	0.0006111723	0	0	0	0
32.75446	0.03055861	0.0006111723	0	0	0	0
32.77102	0.03055861	0.0006111723	0	0	0	0
32.78759	0.03055861	0.0006111723	0	0	0	0
32.80416	0.03055861	0.0006111723	0	0	0	0
32.82072	0.03055861	0.0006111723	0	0	0	0
32.83729	0.03055861	0.0006111723	0	0	0	0
32.85386	0.03055861	0.0006111723	0	0	0	0
32.87042	0.03055861	0.0006111723	0	0	0	0
32.88699	0.03055861	0.0006111723	0	0	0	0
32.90364	0.03055861	0.0006111723	0	0	0	0
32.92012	0.03055861	0.0006111723	0	0	0	0
32.93679	0.03055861	0.0006111723	0	0	0	0
32.95326	0.03055861	0.0006111723	0	0	0	0
32.96983	0.03055861	0.0006111723	0	0	0	0
32.98666	0.03055861	0.0006111723	0	0	0	0
33.00296	0.03055861	0.0006111723	0	0	0	0
33.01964	0.03055861	0.0006111723	0	0	0	0
33.03609	0.03055861	0.0006111723	0	0	0	0
33.05315	0.03055861	0.0006111723	0	0	0	0
33.06961	0.03055861	0.0006111723	0	0	0	0
33.08585	0.03055861	0.0006111723	0	0	0	0
33.10244	0.03055861	0.0006111723	0	0	0	0
33.11893	0.03055861	0.0006111723	0	0	0	0
33.13549	0.03055861	0.0006111723	0	0	0	0
33.15206	0.03055861	0.0006111723	0	0	0	0
33.1687	0.03055861	0.0006111723	0	0	0	0
33.20497	0.03055861	0.0006111723	0	0	0	0
33.22154	0.03055861	0.0006111723	0	0	0	0
33.23811	0.03055861	0.0006111723	0	0	0	0
33.25467	0.03055861	0.0006111723	0	0	0	0
33.27131	0.03055861	0.0006111723	0	0	0	0
33.28781	0.03055861	0.0006111723	0	0	0	0
33.30493	0.03055861	0.0006111723	0	0	0	0
33.32108	0.03055861	0.0006111723	0	0	0	0
33.33751	0.03055861	0.0006111723	0	0	0	0
33.35408	0.03055861	0.0006111723	0	0	0	0
33.37118	0.03055861	0.0006111723	0	0	0	0
33.38721	0.03055861	0.0006111723	0	0	0	0
33.40378	0.03055861	0.0006111723	0	0	0	0
33.42037	0.03055861	0.0006111723	0	0	0	0
33.43705	0.03055861	0.0006111723	0	0	0	0
33.45348	0.03055861	0.0006111723	0	0	0	0
33.47005	0.03055861	0.0006111723	0	0	0	0
33.48726	0.03055861	0.0006111723	0	0	0	0
33.50318	0.03055861	0.0006111723	0	0	0	0
33.51975	0.03055861	0.0006111723	0	0	0	0
33.53669	0.03055861	0.0006111723	0	0	0	0
33.55288	0.03055861	0.0006111723	0	0	0	0
33.56945	0.03055861	0.0006111723	0	0	0	0
33.58602	0.03055861	0.0006111723	0	0	0	0
33.60258	0.03055861	0.0006111723	0	0	0	0
33.61915	0.03055861	0.0006111723	0	0	0	0
33.63572	0.03055861	0.0006111723	0	0	0	0
33.65229	0.03055861	0.0006111723	0	0	0	0
33.66889	0.03055861	0.0006111723	0	0	0	0
33.68542	0.03055861	0.0006111723	0	0	0	0
33.70205	0.03055861	0.0006111723	0	0	0	0
33.71857	0.03055861	0.0006111723	0	0	0	0
33.73512	0.03055861	0.0006111723	0	0	0	0
33.75195	0.03055861	0.0006111723	0	0	0	0
33.76825	0.03055861	0.0006111723	0	0	0	0
33.78485	0.03055861	0.0006111723	0	0	0	0
33.80138	0.03055861	0.0006111723	0	0	0	0
33.81833	0.03055861	0.0006111723	0	0	0	0
33.84258	0.03055861	0.0006111723	0	0	0	0
33.8592	0.03055861	0.0006111723	0	0	0	0
33.87582	0.03055861	0.0006111723	0	0	0	0
33.89228	0.03055861	0.0006111723	0	0	0	0
33.90885	0.03055861	0.0006111723	0	0	0	0
33.92542	0.03055861	0.0006111723	0	0	0	0
33.94198	0.03055861	0.0006111723	0	0	0	0
33.95855	0.03055861	0.0006111723	0	0	0	0
33.97515	0.03055861	0.0006111723	0	0	0	0
33.99168	0.03055861	0.0006111723	0	0	0	0
34.00864	0.03055861	0.0006111723	0	0	0	0
34.02521	0.03055861	0.0006111723	0	0	0	0
34.04138	0.03055861	0.0006111723	0	0	0	0
34.05796	0.03055861	0.0006111723	0	0	0	0
34.07452	0.03055861	0.0006111723	0	0	0	0
34.09108	0.03055861	0.0006111723	0	0	0	0
34.10766	0.03055861	0.0006111723	0	0	0	0
34.12428	0.03055861	0.0006111723	0	0	0	0
34.14078	0.03055861	0.0006111723	0	0	0	0
34.15763	0.03055861	0.0006111723	0	0	0	0
34.17392	0.03055861	0.0006111723	0	0	0	0
34.19048	0.03055861	0.0006111723	0	0	0	0
34.20718	0.03055861	0.0006111723	0	0	0	0
34.22385	0.03055861	0.0006111723	0	0	0	0
34.24044	0.03055861	0.0006111723	0	0	0	0
34.25706	0.03055861	0.0006111723	0	0	0	0
34.27355	0.03055861	0.0006111723	0	0	0	0
34.29007	0.03055861	0.0006111723	0	0	0	0
34.30645	0.03055861	0.0006111723	0	0	0	0
34.32301	0.03055861	0.0006111723	0	0	0	0
34.33958	0.03055861	0.0006111723	0	0	0	0
34.35615	0.03055861	0.0006111723	0	0	0	0
34.37271	0.03055861	0.0006111723	0	0	0	0
34.38928	0.03055861	0.0006111723	0	0	0	0
34.40585	0.03055861	0.0006111723	0	0	0	0
34.42242	0.03055861	0.0006111723	0	0	0	0
34.43898	0.03055861	0.0006111723	0	0	0	0
34.4561	0.03055861	0.0006111723	0	0	0	0
34.47211	0.03055861	0.0006111723	0	0	0	0
34.48885	0.03055861	0.0006111723	0	0	0	0
34.51019	0.03055861	0.0006111723	0	0	0	0
34.52676	0.03055861	0.0006111723	0	0	0	0
34.54332	0.03055861	0.0006111723	0	0	0	0
34.60951	0.03055861	0.0006111723	0	0	0	0
34.62608	0.03055861	0.0006111723	0	0	0	0
34.64269	0.03055861	0.0006111723	0	0	0	0
34.65929	0.03055861	0.0006111723	0	0	0	0
34.67579	0.03055861	0.0006111723	0	0	0	0
34.69235	0.03055861	0.0006111723	0	0	0	0
34.70915	0.03055861	0.0006111723	0	0	0	0
34.72623	0.03055861	0.0006111723	0	0	0	0
34.74229	0.03055861	0.0006111723	0	0	0	0
34.75862	0.03055861	0.0006111723	0	0	0	0
34.77518	0.03055861	0.0006111723	0	0	0	0
34.79175	0.03055861	0.0006111723	0	0	0	0
34.80832	0.03055861	0.0006111723	0	0	0	0
34.825	0.03055861	0.0006111723	0	0	0	0
34.84145	0.03055861	0.0006111723	0	0	0	0
34.85802	0.03055861	0.0006111723	0	0	0	0
34.87489	0.03055861	0.0006111723	0	0	0	0
34.89115	0.03055861	0.0006111723	0	0	0	0
34.90776	0.03055861	0.0006111723	0	0	0	0
34.92429	0.03055861	0.0006111723	0	0	0	0
34.94085	0.03055861	0.0006111723	0	0	0	0
34.95742	0.03055861	0.0006111723	0	0	0	0
34.97399	0.03055861	0.0006111723	0	0	0	0
34.99055	0.03055861	0.0006111723	0	0	0	0
35.00712	0.03055861	0.0006111723	0	0	0	0
35.02389	0.03055861	0.0006111723	0	0	0	0
35.04025	0.03055861	0.0006111723	0	0	0	0
35.05685	0.03055861	0.0006111723	0	0	0	0
35.07339	0.03055861	0.0006111723	0	0	0	0
35.08995	0.03055861	0.0006111723	0	0	0	0
35.10652	0.03055861	0.0006111723	0	0	0	0
35.12313	0.03055861	0.0006111723	0	0	0	0
35.13966	0.03055861	0.0006111723	0	0	0	0
35.15622	0.03055861	0.0006111723	0	0	0	0
35.17279	0.03055861	0.0006111723	0	0	0	0
35.1894	0.03055861	0.0006111723	0	0	0	0
35.20592	0.03055861	0.0006111723	0	0	0	0
35.2296	0.03055861	0.0006111723	0	0	0	0
35.24619	0.03055861	0.0006111723	0	0	0	0
35.26274	0.03055861	0.0006111723	0	0	0	0
35.2793	0.03055861	0.0006111723	0	0	0	0
35.29587	0.03055861	0.0006111723	0	0	0	0
35.31244	0.03055861	0.0006111723	0	0	0	0
35.329	0.03055861	0.0006111723	0	0	0	0
35.34557	0.03055861	0.0006111723	0	0	0	0
35.36214	0.03055861	0.0006111723	0	0	0	0
35.3787	0.03055861	0.0006111723	0	0	0	0
35.39528	0.03055861	0.0006111723	0	0	0	0
35.41184	0.03055861	0.0006111723	0	0	0	0
35.42841	0.03055861	0.0006111723	0	0	0	0
35.44498	0.03055861	0.0006111723	0	0	0	0
35.46154	0.03055861	0.0006111723	0	0	0	0
35.47811	0.03911503	0.00794524	0.5165851	0.4427871	15.59236	13.36488
35.49468	0.05011613	0.02383572	0.6638748	0.9589304	4.445214	15.57724
35.51135	0.06111722	0.04706026	0.6599247	1.393175	-0.11883	13.06342
35.52823	0.07456301	0.07884122	0.79637	1.882329	4.066428	14.57807
35.54437	0.09412053	0.127735	1.211743	3.029358	12.57799	34.73338
35.56094	0.1112333	0.1766288	1.032694	2.950555	-5.473681	-2.40906
35.5777	0.1320132	0.2169662	1.240281	2.407604	6.229142	-16.2925
35.59431	0.1552377	0.2573035	1.397974	2.428059	4.725985	0.613003
35.61064	0.1625718	0.269527	0.4490965	0.7484944	-28.80298	-50.98283
35.62739	0.1723506	0.2890845	0.5839275	1.167857	4.076246	12.67827
35.64378	0.1796846	0.3049749	0.4474233	0.9694173	-4.119228	-5.988224
35.66096	0.1833517	0.3159761	0.2133844	0.6401498	-6.970222	-9.806349
35.67691	0.1833517	0.3159761	0	0	-6.439955	-19.31976
35.69352	0.1833517	0.3159761	0	0	0	0
35.71022	0.1833517	0.3159761	0	0	0	0
35.72671	0.1833517	0.3159761	0	0	0	0
35.74329	0.1833517	0.3159761	0	0	0	0
35.75977	0.1833517	0.3159761	0	0	0	0
35.77632	0.1833517	0.3159761	0	0	0	0
35.79288	0.1833517	0.3159761	0	0	0	0
35.80944	0.1833517	0.3159761	0	0	0	0
35.82625	0.1833517	0.3159761	0	0	0	0
35.84265	0.1833517	0.3147537	0	-0.07455321	0	-2.245367
35.86122	0.1821293	0.3049749	-0.06582368	-0.5265911	-1.882531	-12.92811
35.87811	0.1662389	0.2524141	-0.9409518	-3.112379	-24.68097	-72.92616
35.89436	0.1662389	0.2524141	0	0	28.39471	93.92096
35.91092	0.1540154	0.2181885	-0.7378091	-2.065865	-22.48195	-62.94944
35.92749	0.1430143	0.1864075	-0.6640274	-1.918302	2.226735	4.453467
35.94406	0.1271238	0.1460702	-0.9591512	-2.434768	-8.906855	-15.587
35.96062	0.1173451	0.1265126	-0.5902472	-1.180494	11.13355	37.85407
35.97771	0.106344	0.1106222	-0.6438654	-0.9300268	-1.593256	7.442594
35.99381	0.09778756	0.09350936	-0.5313935	-1.062787	3.388947	-4.000262
36.01033	0.08556411	0.07884122	-0.7401947	-0.8882343	-6.401869	5.351806
36.02689	0.07578536	0.06539543	-0.5903826	-0.8117762	4.529158	2.3115
36.04346	0.06722895	0.05561668	-0.516466	-0.5902467	2.231066	6.686545
36.06002	0.05989488	0.04828261	-0.4426852	-0.4426852	2.226707	4.453413
36.07659	0.0550055	0.04217088	-0.2951236	-0.3689045	4.45342	2.226707
36.09316	0.05133847	0.0397262	-0.2213424	-0.1475614	2.22672	6.680148
36.11023	0.05011612	0.03728151	-0.07158884	-0.143177	4.451412	0.1303267
36.12629	0.05011613	0.03605916	2.319626E-07	-0.07611203	2.160562	2.024025
36.14286	0.04767144	0.03605916	-0.1475617	2.24859E-07	-4.522678	2.332792
36.15943	0.04644909	0.03483682	-0.07378095	-0.07378072	2.226707	-2.226713
36.17612	0.04644909	0.03361448	0	-0.07324129	2.21854	0.01622026
36.19275	0.04644909	0.03361448	0	0	0	2.197775
36.20913	0.04644909	0.03361448	0	0	0	0
36.22598	0.04644909	0.03361448	0	0	0	0
36.24233	0.04644909	0.03361448	0	0	0	0
36.25935	0.04644909	0.03361448	0	0	0	0
36.27539	0.04644909	0.03361448	0	0	0	0
36.29196	0.04644909	0.03361448	0	0	0	0
36.30853	0.04644909	0.03361448	0	0	0	0
36.3251	0.04644909	0.03361448	0	0	0	0
36.3417	0.04644909	0.03361448	0	0	0	0
36.35823	0.04644909	0.03361448	0	0	0	0
36.3749	0.04644909	0.03361448	0	0	0	0
36.39163	0.04644909	0.03361448	0	0	0	0
36.40793	0.04644909	0.03361448	0	0	0	0
36.42501	0.04644909	0.03361448	0	0	0	0
36.44106	0.04644909	0.03361448	0	0	0	0
36.45767	0.04644909	0.03361448	0	0	0	0
36.47421	0.04644909	0.03361448	0	0	0	0
36.49076	0.04644909	0.03361448	0	0	0	0
36.50733	0.04644909	0.03361448	0	0	0	0
36.52421	0.04644909	0.03361448	0	0	0	0
36.54062	0.04644909	0.03361448	0	0	0	0
36.55703	0.04644909	0.03361448	0	0	0	0
36.5736	0.04644909	0.03361448	0	0	0	0
36.59016	0.04644909	0.03361448	0	0	0	0
36.60673	0.04644909	0.03361448	0	0	0	0
36.62336	0.04644909	0.03361448	0	0	0	0
36.63986	0.04644909	0.03361448	0	0	0	0
36.65643	0.04644909	0.03361448	0	0	0	0
36.67299	0.04644909	0.03361448	0	0	0	0
36.68995	0.04644909	0.03361448	0	0	0	0
36.70657	0.04644909	0.03361448	0	0	0	0
36.72271	0.04644909	0.03361448	0	0	0	0
36.73927	0.04644909	0.03361448	0	0	0	0
36.75678	0.04644909	0.03361448	0	0	0	0
36.7724	0.04644909	0.03361448	0	0	0	0
36.78897	0.04644909	0.03361448	0	0	0	0
36.80554	0.04644909	0.03361448	0	0	0	0
36.8221	0.04644909	0.03361448	0	0	0	0
36.83866	0.04644909	0.03361448	0	0	0	0
36.85523	0.04644909	0.03361448	0	0	0	0
36.87196	0.04644909	0.03361448	0	0	0	0
36.88843	0.04644909	0.03361448	0	0	0	0
36.90514	0.04644909	0.03361448	0	0	0	0
36.92149	0.04522675	0.03239213	-0.07476217	-0.07476217	-2.261273	-2.261273
36.93806	0.04522675	0.03239213	0	0	2.271231	2.271231
36.95463	0.04522675	0.03239213	0	0	0	0
36.9712	0.04522675	0.03239213	0	0	0	0
36.98776	0.04522675	0.03239213	0	0	0	0
37.00433	0.0440044	0.03239213	-0.07378072	0	-2.226707	0
37.02089	0.0440044	0.03239213	0	0	2.226963	0
37.03746	0.04278206	0.03239213	-0.07376397	0	-2.226201	0
37.05403	0.04278206	0.03239213	0	0	2.225945	0
37.07066	0.04278206	0.03239213	0	0	0	0
37.08725	0.04278206	0.03239213	0	0	0	0
37.10373	0.04278206	0.03239213	0	0	0	0
37.1203	0.04278206	0.03239213	0	0	0	0
37.13686	0.04278206	0.03239213	0	0	0	0
37.15343	0.04278206	0.03239213	0	0	0	0
37.17	0.04278206	0.03239213	0	0	0	0
37.18957	0.04278206	0.03239213	0	0	0	0
37.20614	0.04278206	0.03239213	0	0	0	0
37.22295	0.04278206	0.03239213	0	0	0	0
37.23928	0.04278206	0.03239213	0	0	0	0
37.25615	0.04278206	0.03239213	0	0	0	0
37.27241	0.04278206	0.03239213	0	0	0	0
37.28898	0.04278206	0.03239213	0	0	0	0
37.30571	0.04278206	0.03239213	0	0	0	0
37.32211	0.04278206	0.03239213	0	0	0	0
37.33868	0.04278206	0.03239213	0	0	0	0
37.35525	0.04278206	0.03239213	0	0	0	0
37.37181	0.04278206	0.03239213	0	0	0	0
37.38838	0.04278206	0.03239213	0	0	0	0
37.40495	0.04278206	0.03239213	0	0	0	0
37.42152	0.04278206	0.03239213	0	0	0	0
37.43808	0.04278206	0.03239213	0	0	0	0
37.45465	0.04278206	0.03239213	0	0	0	0
37.47122	0.04278206	0.03239213	0	0	0	0
37.48778	0.04278206	0.03239213	0	0	0	0
37.50435	0.04278206	0.03239213	0	0	0	0
37.52092	0.04278206	0.03239213	0	0	0	0
37.53748	0.04278206	0.03239213	0	0	0	0
37.55405	0.04278206	0.03239213	0	0	0	0
37.57062	0.04278206	0.03239213	0	0	0	0
37.58718	0.04278206	0.03239213	0	0	0	0
37.60375	0.04278206	0.03239213	0	0	0	0
37.62032	0.04278206	0.03239213	0	0	0	0
37.63689	0.04278206	0.03239213	0	0	0	0
37.65345	0.04278206	0.03239213	0	0	0	0
37.67038	0.04278206	0.03239213	0	0	0	0
37.68675	0.04278206	0.03239213	0	0	0	0
37.70317	0.04278206	0.03239213	0	0	0	0
37.71972	0.04278206	0.03239213	0	0	0	0
37.73629	0.04278206	0.03239213	0	0	0	0
37.75286	0.04278206	0.03239213	0	0	0	0
37.7695	0.04278206	0.03239213	0	0	0	0
37.78599	0.04278206	0.03239213	0	0	0	0
37.80256	0.04278206	0.03239213	0	0	0	0
37.81913	0.04278206	0.03239213	0	0	0	0
37.83569	0.04278206	0.03239213	0	0	0	0
37.85226	0.04278206	0.03239213	0	0	0	0
37.86883	0.04278206	0.03239213	0	0	0	0
37.8854	0.04278206	0.03239213	0	0	0	0
37.90196	0.04278206	0.03239213	0	0	0	0
37.91853	0.04278206	0.03239213	0	0	0	0
37.9351	0.04278206	0.03239213	0	0	0	0
37.95166	0.04278206	0.03239213	0	0	0	0
37.96823	0.04278206	0.03239213	0	0	0	0
37.9848	0.04278206	0.03239213	0	0	0	0
38.00149	0.04278206	0.03239213	0	0	0	0
38.01793	0.04278206	0.03239213	0	0	0	0
38.0345	0.04278206	0.03239213	0	0	0	0
38.05107	0.04278206	0.03239213	0	0	0	0
38.06763	0.04278206	0.03239213	0	0	0	0
38.0842	0.04278206	0.03239213	0	0	0	0
38.10077	0.04278206	0.03239213	0	0	0	0
38.11734	0.04278206	0.03239213	0	0	0	0
38.1339	0.04278206	0.03239213	0	0	0	0
38.15047	0.04278206	0.03239213	0	0	0	0
38.16704	0.04278206	0.03239213	0	0	0	0
38.18361	0.04278206	0.03239213	0	0	0	0
38.20017	0.04278206	0.03239213	0	0	0	0
38.21674	0.04278206	0.03239213	0	0	0	0
38.23331	0.04278206	0.03239213	0	0	0	0
38.24987	0.04278206	0.03239213	0	0	0	0
38.26644	0.04278206	0.03239213	0	0	0	0
38.28908	0.04278206	0.03239213	0	0	0	0
38.30565	0.04278206	0.03239213	0	0	0	0
38.32222	0.04278206	0.03239213	0	0	0	0
38.33878	0.04278206	0.03239213	0	0	0	0
38.3557	0.04278206	0.03239213	0	0	0	0
38.37192	0.04278206	0.03239213	0	0	0	0
38.38848	0.04278206	0.03239213	0	0	0	0
38.40505	0.04278206	0.03239213	0	0	0	0
38.42162	0.04278206	0.03239213	0	0	0	0
38.43819	0.04278206	0.03239213	0	0	0	0
38.45485	0.04278206	0.03239213	0	0	0	0
38.47131	0.04278206	0.03239213	0	0	0	0
38.48788	0.04278206	0.03239213	0	0	0	0
38.50484	0.04278206	0.03239213	0	0	0	0
38.52119	0.04278206	0.03239213	0	0	0	0
38.53758	0.04278206	0.03239213	0	0	0	0
38.55416	0.04278206	0.03239213	0	0	0	0
38.57077	0.04278206	0.03239213	0	0	0	0
38.58728	0.04278206	0.03239213	0	0	0	0
38.60385	0.04278206	0.03239213	0	0	0	0
38.62076	0.04278206	0.03239213	0	0	0	0
38.63699	0.04278206	0.03239213	0	0	0	0
38.65355	0.04278206	0.03239213	0	0	0	0
38.67011	0.04278206	0.03239213	0	0	0	0
38.68668	0.04278206	0.03239213	0	0	0	0
38.70332	0.04278206	0.03239213	0	0	0	0
38.71982	0.04278206	0.03239213	0	0	0	0
38.73638	0.04278206	0.03239213	0	0	0	0
38.75295	0.04278206	0.03239213	0	0	0	0
38.76962	0.04278206	0.03239213	0	0	0	0
38.78608	0.04278206	0.03239213	0	0	0	0
38.80288	0.04278206	0.03239213	0	0	0	0
38.81927	0.04278206	0.03239213	0	0	0	0
38.83578	0.04278206	0.03239213	0	0	0	0
38.85235	0.04278206	0.03239213	0	0	0	0
38.86892	0.04278206	0.03239213	0	0	0	0
38.88548	0.04278206	0.03239213	0	0	0	0
38.90244	0.04278206	0.03239213	0	0	0	0
38.91862	0.04278206	0.03239213	0	0	0	0
38.93519	0.04278206	0.03239213	0	0	0	0
38.95194	0.04278206	0.03239213	0	0	0	0
38.96869	0.04278206	0.03239213	0	0	0	0
38.98489	0.04278206	0.03239213	0	0	0	0
39.00146	0.04278206	0.03239213	0	0	0	0
39.01802	0.04278206	0.03239213	0	0	0	0
39.03487	0.04278206	0.03239213	0	0	0	0
39.05116	0.04278206	0.03239213	0	0	0	0
39.06806	0.04278206	0.03239213	0	0	0	0
39.08429	0.04278206	0.03239213	0	0	0	0
39.10086	0.04278206	0.03239213	0	0	0	0
39.11743	0.04278206	0.03239213	0	0	0	0
39.13459	0.04278206	0.03239213	0	0	0	0
39.15116	0.04278206	0.03239213	0	0	0	0
39.16808	0.04278206	0.03239213	0	0	0	0
39.18484	0.04278206	0.03239213	0	0	0	0
39.20086	0.04278206	0.03239213	0	0	0	0
39.21753	0.04278206	0.03239213	0	0	0	0
39.234	0.04278206	0.03239213	0	0	0	0
39.25057	0.04278206	0.03239213	0	0	0	0
39.26748	0.04278206	0.03239213	0	0	0	0
39.28458	0.04278206	0.03239213	0	0	0	0
39.30083	0.04278206	0.03239213	0	0	0	0
39.31683	0.04278206	0.03239213	0	0	0	0
39.33351	0.04278206	0.03239213	0	0	0	0
39.34997	0.04278206	0.03239213	0	0	0	0
39.36654	0.04278206	0.03239213	0	0	0	0
39.38377	0.04278206	0.03239213	0	0	0	0
39.39999	0.04278206	0.03239213	0	0	0	0
39.41639	0.04278206	0.03239213	0	0	0	0
39.4328	0.04278206	0.03239213	0	0	0	0
39.44997	0.04278206	0.03239213	0	0	0	0
39.46608	0.04278206	0.03239213	0	0	0	0
39.4825	0.04278206	0.03239213	0	0	0	0
39.49943	0.04278206	0.03239213	0	0	0	0
39.51564	0.04278206	0.03239213	0	0	0	0
39.5322	0.04278206	0.03239213	0	0	0	0
39.54925	0.04278206	0.03239213	0	0	0	0
39.56574	0.04278206	0.03239213	0	0	0	0
39.5824	0.04278206	0.03239213	0	0	0	0
39.59874	0.04278206	0.03239213	0	0	0	0
39.61553	0.04278206	0.03239213	0	0	0	0
39.6316	0.04278206	0.03239213	0	0	0	0
39.64817	0.04278206	0.03239213	0	0	0	0
39.66482	0.04278206	0.03239213	0	0	0	0
39.6813	0.04278206	0.03239213	0	0	0	0
39.69787	0.04278206	0.03239213	0	0	0	0
39.71444	0.04278206	0.03239213	0	0	0	0
39.731	0.04278206	0.03239213	0	0	0	0
39.74757	0.04278206	0.03239213	0	0	0	0
39.76414	0.04278206	0.03239213	0	0	0	0
39.78083	0.0440044	0.03239213	0.07322456	0	2.201557	0
39.80359	0.0440044	0.03239213	0	0	-1.855881	0
39.82016	0.0440044	0.03239213	0	0	0	0
39.83673	0.0440044	0.03239213	0	0	0	0
39.8533	0.0440044	0.03116978	0	-0.07378107	0	-2.226717
39.86987	0.04522675	0.03116979	0.07378095	2.24859E-07	2.226713	2.226724
39.88647	0.04522675	0.03116979	0	0	-2.223897	-6.777674E-06
39.90317	0.04522675	0.03116979	0	0	0	0
39.91957	0.04644909	0.02994744	0.07453564	-0.07453609	2.252342	-2.252356
39.93613	0.04644909	0.02994744	0	0	-2.261205	2.261219
39.95287	0.04644909	0.02994744	0	0	0	0
39.96932	0.04644909	0.02994744	0	0	0	0
39.98583	0.04644909	0.02994744	0	0	0	0
40.0024	0.04644909	0.02994744	0	0	0	0
40.05487	0.04644909	0.02994744	0	0	0	0
40.07145	0.04644909	0.02994744	0	0	0	0
40.08812	0.04644909	0.02994744	0	0	0	0
40.10484	0.04644909	0.02994744	0	0	0	0
40.12133	0.04644909	0.02994744	0	0	0	0
40.13804	0.04644909	0.02994744	0	0	0	0
40.15427	0.04644909	0.02994744	0	0	0	0
40.1712	0.04644909	0.02994744	0	0	0	0
40.1874	0.04644909	0.02994744	0	0	0	0
40.20397	0.04644909	0.02994744	0	0	0	0
40.2206	0.04644909	0.02994744	0	0	0	0
40.23717	0.04644909	0.02994744	0	0	0	0
40.25376	0.04644909	0.02994744	0	0	0	0
40.27024	0.04644909	0.02994744	0	0	0	0
40.28722	0.04644909	0.02994744	0	0	0	0
40.30338	0.04644909	0.02994744	0	0	0	0
40.31994	0.04644909	0.02994744	0	0	0	0
40.33651	0.04644909	0.02994744	0	0	0	0
40.35307	0.04644909	0.02994744	0	0	0	0
40.37	0.04644909	0.02994744	0	0	0	0
40.38621	0.04644909	0.02994744	0	0	0	0
40.40277	0.04644909	0.02994744	0	0	0	0
40.41934	0.04644909	0.02994744	0	0	0	0
40.43634	0.04644909	0.02994744	0	0	0	0
40.45247	0.04644909	0.02994744	0	0	0	0
40.46904	0.04644909	0.02994744	0	0	0	0
40.4856	0.04644909	0.02994744	0	0	0	0
40.50526	0.05256081	0.02994744	0.3108561	0	8.581409	0
40.52184	0.1259015	0.04461557	4.425833	0.8851666	113.573	24.43052
40.5384	0.1259015	0.04461557	0	0	-133.5565	-26.71131
40.55497	0.2774722	0.05561668	9.148826	0.6640279	276.1121	20.0404
40.57154	0.3935949	0.05806136	7.009181	0.1475614	-64.57458	-15.58699
40.5881	0.4779367	0.06050605	5.090879	0.1475619	-57.89449	1.349154E-05
40.60486	0.4964744	0.05927177	1.106204	-0.07365344	-119.5694	-6.638081
40.6214	0.4964357	0.05959542	-0.002342309	0.01956728	-33.29119	2.799548
40.63781	0.4964521	0.0594588	0.00100109	-0.008329397	0.1014882	-0.846798
40.65485	0.4964521	0.0594588	0	0	-0.0299304	0.2490307
40.67094	0.4964521	0.0594588	0	0	0	0
40.6875	0.4964521	0.0594588	0	0	0	0
40.70407	0.4964521	0.0594588	0	0	0	0
40.72064	0.4964521	0.0594588	0	0	0	0
40.73721	0.4964521	0.0594588	0	0	0	0
40.75377	0.4964521	0.0594588	0	0	0	0
40.77034	0.4964521	0.0594588	0	0	0	0
40.7869	0.4964521	0.0594588	0	0	0	0
40.80354	0.4964521	0.0594588	0	0	0	0
40.82004	0.4964521	0.0594588	0	0	0	0
40.83673	0.4964521	0.0594588	0	0	0	0
40.85317	0.4964521	0.0594588	0	0	0	0
40.8699	0.4964521	0.0594588	0	0	0	0
40.88631	0.4964412	0.05954937	-0.0006613372	0.005521439	-0.0199592	0.1666374
40.90287	0.4963779	0.06007507	-0.0038262	0.03173187	-0.09599096	0.7949679
40.91944	0.4767144	0.06050605	-1.18689	0.02601393	-35.70494	-0.1725677
40.93602	0.4486004	0.06661778	-1.695789	0.3686499	-15.35329	10.3372
40.95257	0.4180418	0.07028481	-1.846222	0.2215462	-4.540609	-4.440108
40.96914	0.3948173	0.07395185	-1.401837	0.2213431	13.41774	-0.006133829
40.98571	0.3874832	0.07395184	-0.4426861	-4.497179E-07	28.94724	-6.680161
41.00252	0.3874832	0.07395184	0	0	13.26257	1.347324E-05
41.01884	0.3874832	0.07395184	0	0	0	0
41.0354	0.3874832	0.07395184	0	0	0	0
41.05214	0.3874832	0.07395184	0	0	0	0
41.06853	0.3874832	0.07395184	0	0	0	0
41.0851	0.3874832	0.07395184	0	0	0	0
41.10167	0.3874832	0.07395184	0	0	0	0
41.11824	0.3874832	0.07395184	0	0	0	0
41.1348	0.3874832	0.07395184	0	0	0	0
41.15151	0.3874832	0.07395184	0	0	0	0
41.16806	0.3874832	0.07395184	0	0	0	0
41.18451	0.3874832	0.07395184	0	0	0	0
41.20107	0.3874832	0.07395184	0	0	0	0
41.21764	0.3874832	0.07395184	0	0	0	0
41.23421	0.3850385	0.07395184	-0.1475597	0	-4.453359	0
41.25077	0.3801491	0.0727295	-0.2951247	-0.07378072	-4.453522	-2.226707
41.26734	0.372815	0.06906246	-0.4426861	-0.2213426	-4.453413	-4.453427
41.28416	0.3605916	0.06539543	-0.7269276	-0.2180787	-8.514706	0.0977732
41.30047	0.3434788	0.05928371	-1.048872	-0.374597	-9.717406	-4.724276
41.31704	0.3190319	0.05317198	-1.475618	-0.3689043	-12.97785	0.1731221
41.33361	0.2933627	0.04583792	-1.549395	-0.442685	-2.226597	-2.226707
41.35017	0.2628041	0.03850385	-1.844524	-0.4426855	-8.906991	-1.349154E-05
41.36674	0.2371348	0.03361447	-1.549398	-0.2951233	8.906908	4.453434
41.38331	0.2041315	0.02383572	-1.992083	-0.5902467	-13.36027	-8.90684
41.39988	0.1857964	0.01894634	-1.106714	-0.2951236	26.72051	8.906833
41.41644	0.1650165	0.01405696	-1.254273	-0.2951233	-4.453359	7.195487E-06
41.43301	0.145459	0.009167584	-1.180494	-0.2951235	2.226651	-3.597743E-06
41.44958	0.1283462	0.00550055	-1.032932	-0.2213426	4.453442	2.226711
41.46614	0.1161227	0.003055861	-0.7378086	-0.1475617	8.90684	2.226712
41.48298	0.1075663	0.0006111722	-0.5082741	-0.1452211	6.871983	0.07007606
41.49928	0.09656522	-0.0006111722	-0.6749055	-0.07498953	-5.028944	2.119591
41.51585	0.09045349	-0.003055861	-0.3689045	-0.1475617	9.310157	-2.208027
41.53241	0.08434176	-0.003055861	-0.3689045	0	0	4.453422
41.54899	0.0770077	-0.00550055	-0.4423792	-0.1474598	-2.216705	-4.44881
41.56555	0.06722895	-0.006722895	-0.5906547	-0.07383189	-4.474964	2.222096
41.5825	0.06111722	-0.00794524	-0.3605205	-0.07210403	6.867976	0.05156526
41.59868	0.05622785	-0.009167584	-0.3021499	-0.07553753	1.761631	-0.1036231
41.61546	0.04889378	-0.01038993	-0.4371492	-0.07285815	-4.095979	0.08129408
41.63286	0.04278206	-0.01038993	-0.3511949	-5.351614E-08	2.514775	2.13162
41.64838	0.03667033	-0.01038993	-0.3938425	0	-1.295458	1.625601E-06
41.66495	0.03055861	-0.01161227	-0.3689044	-0.07378078	0.7772411	-2.299511
41.68151	0.02689158	-0.01161227	-0.2213425	0	4.453427	2.226708
41.69808	0.0220022	-0.01283462	-0.2951233	-0.07378095	-2.22671	-2.226713
41.71465	0.01833517	-0.01283462	-0.2213426	0	2.226707	2.226713
41.73122	0.01344579	-0.01283462	-0.2951235	5.621474E-08	-2.226712	1.696564E-06
41.74778	0.0110011	-0.01283462	-0.1475616	-5.621474E-08	4.453427	-3.393129E-06
41.76435	0.009778756	-0.01405696	-0.07378089	-0.07378078	2.226707	-2.226707
41.78092	0.008556412	-0.01405696	-0.07378083	0	1.798872E-06	2.226708
41.79748	0.008556412	-0.01405696	0	0	2.226966	0
41.81405	0.008556412	-0.01405696	0	0	0	0
41.83062	0.007334067	-0.01405696	-0.07378083	-5.621474E-08	-2.226454	-1.696369E-06
41.84719	0.007334067	-0.01405696	0	0	2.22671	1.696564E-06
41.86375	0.007334067	-0.01405696	0	0	0	0
41.88032	0.007334067	-0.01405696	0	0	0	0
41.89689	0.007334067	-0.01405696	0	0	0	0
41.91346	0.007334067	-0.01405696	0	0	0	0
41.93002	0.007334067	-0.01405696	0	0	0	0
41.94659	0.007334067	-0.01405696	0	0	0	0
41.96316	0.007334067	-0.01405696	0	0	0	0
41.97973	0.007334067	-0.01405696	0	0	0	0
41.9963	0.007334067	-0.01405696	0	0	0	0
42.01286	0.006111722	-0.01405696	-0.07378092	0	-2.226713	0
42.02943	0.006111722	-0.01405696	0	0	2.226713	0
42.046	0.006111722	-0.01405696	0	0	0	0
42.06261	0.006111722	-0.01405696	0	0	0	0
42.07913	0.006111722	-0.01405696	0	0	0	0
42.0957	0.006111722	-0.01405696	0	0	0	0
42.11227	0.006111722	-0.01405696	0	0	0	0
42.12883	0.006111722	-0.01405696	0	0	0	0
42.1454	0.006111722	-0.01405696	0	0	0	0
42.16208	0.006111722	-0.01405696	0	0	0	0
42.17853	0.006111722	-0.01405696	0	0	0	0
42.1951	0.006111722	-0.01405696	0	0	0	0
42.21167	0.006111722	-0.01405696	0	0	0	0
42.22842	0.006111722	-0.01405696	0	0	0	0
42.2448	0.006111722	-0.01405696	0	0	0	0
42.26196	0.006111722	-0.01405696	0	0	0	0
42.27847	0.006111722	-0.01405696	0	0	0	0
42.2945	0.006111722	-0.01405696	0	0	0	0
42.31107	0.006111722	-0.01405696	0	0	0	0
42.32763	0.006111722	-0.01405696	0	0	0	0
42.3442	0.006111722	-0.01405696	0	0	0	0
42.36076	0.006111722	-0.01405696	0	0	0	0
42.37733	0.006111722	-0.01405696	0	0	0	0
42.39408	0.006111722	-0.01405696	0	0	0	0
42.41047	0.006111722	-0.01405696	0	0	0	0
42.4277	0.006111722	-0.01405696	0	0	0	0
42.4436	0.006111722	-0.01405696	0	0	0	0
42.46017	0.006111722	-0.01405696	0	0	0	0
42.47674	0.006111722	-0.01405696	0	0	0	0
42.49372	0.006111722	-0.01405696	0	0	0	0
42.50988	0.006111722	-0.01405696	0	0	0	0
42.52644	0.006111722	-0.01405696	0	0	0	0
42.54327	0.006111722	-0.01405696	0	0	0	0
42.55957	0.006111722	-0.01405696	0	0	0	0
42.57614	0.006111722	-0.01405696	0	0	0	0
42.59271	0.006111722	-0.01405696	0	0	0	0
42.60993	0.006111722	-0.01405696	0	0	0	0
42.62584	0.006111722	-0.01405696	0	0	0	0
42.64241	0.006111722	-0.01405696	0	0	0	0
42.65916	0.006111722	-0.01405696	0	0	0	0
42.67566	0.006111722	-0.01405696	0	0	0	0
42.69211	0.006111722	-0.01405696	0	0	0	0
42.70868	0.006111722	-0.01405696	0	0	0	0
42.72524	0.006111722	-0.01405696	0	0	0	0
42.74181	0.006111722	-0.01405696	0	0	0	0
42.75842	0.006111722	-0.01405696	0	0	0	0
42.77494	0.006111722	-0.01405696	0	0	0	0
42.79158	0.006111722	-0.01405696	0	0	0	0
42.80808	0.006111722	-0.01405696	0	0	0	0
42.82491	0.006111722	-0.01405696	0	0	0	0
42.84183	0.006111722	-0.01405696	0	0	0	0
42.85796	0.006111722	-0.01405696	0	0	0	0
42.87434	0.006111722	-0.01405696	0	0	0	0
42.89109	0.006111722	-0.01405696	0	0	0	0
42.90795	0.006111722	-0.01405696	0	0	0	0
42.92404	0.006111722	-0.01405696	0	0	0	0
42.94067	0.006111722	-0.01405696	0	0	0	0
42.95718	0.006111722	-0.01405696	0	0	0	0
42.97379	0.006111722	-0.01405696	0	0	0	0
42.99062	0.006111722	-0.01405696	0	0	0	0
43.00688	0.006111722	-0.01405696	0	0	0	0
43.02345	0.006111722	-0.01405696	0	0	0	0
43.04051	0.006111722	-0.01405696	0	0	0	0
43.05658	0.006111722	-0.01405696	0	0	0	0
43.07359	0.006111722	-0.01405696	0	0	0	0
43.08971	0.006111722	-0.01405696	0	0	0	0
43.10699	0.006111722	-0.01405696	0	0	0	0
43.12356	0.006111722	-0.01405696	0	0	0	0
43.14013	0.006111722	-0.01405696	0	0	0	0
43.1567	0.006111722	-0.01405696	0	0	0	0
43.1739	0.006111722	-0.01405696	0	0	0	0
43.18983	0.006111722	-0.01405696	0	0	0	0
43.2064	0.006111722	-0.01405696	0	0	0	0
43.22297	0.006111722	-0.01405696	0	0	0	0
43.23953	0.006111722	-0.01405696	0	0	0	0
43.25686	0.006111722	-0.01405696	0	0	0	0
43.27283	0.006111722	-0.01405696	0	0	0	0
43.28923	0.006111722	-0.01405696	0	0	0	0
43.3058	0.006111722	-0.01405696	0	0	0	0
43.32236	0.006111722	-0.01405696	0	0	0	0
43.33893	0.006111722	-0.01405696	0	0	0	0
43.35594	0.006111722	-0.01405696	0	0	0	0
43.37207	0.006111722	-0.01405696	0	0	0	0
43.38863	0.006111722	-0.01405696	0	0	0	0
43.4052	0.006111722	-0.01405696	0	0	0	0
43.42177	0.006111722	-0.01405696	0	0	0	0
43.4387	0.006111722	-0.01405696	0	0	0	0
43.4549	0.006111722	-0.01405696	0	0	0	0
43.47147	0.006111722	-0.01405696	0	0	0	0
43.49578	0.006111722	-0.01405696	0	0	0	0
43.513	0.006111722	-0.01405696	0	0	0	0
43.52892	0.006111722	-0.01405696	0	0	0	0
43.54573	0.006111722	-0.01405696	0	0	0	0
43.56236	0.006111722	-0.01405696	0	0	0	0
43.57887	0.006111722	-0.01405696	0	0	0	0
43.59596	0.006111722	-0.01405696	0	0	0	0
43.61176	0.006111722	-0.01405696	0	0	0	0
43.62867	0.006111722	-0.01405696	0	0	0	0
43.64489	0.006111722	-0.01405696	0	0	0	0
43.66146	0.006111722	-0.01405696	0	0	0	0
43.67821	0.006111722	-0.01405696	0	0	0	0
43.6946	0.006111722	-0.01405696	0	0	0	0
43.7113	0.006111722	-0.01405696	0	0	0	0
43.72773	0.006111722	-0.01405696	0	0	0	0
43.7494	0.006111722	-0.01405696	0	0	0	0
43.76598	0.006111722	-0.01405696	0	0	0	0
43.78254	0.006111722	-0.01405696	0	0	0	0
43.79942	0.006111722	-0.01405696	0	0	0	0
43.81567	0.006111722	-0.01405696	0	0	0	0
43.83224	0.006111722	-0.01405696	0	0	0	0
43.84881	0.006111722	-0.01405696	0	0	0	0
43.86538	0.006111722	-0.01405696	0	0	0	0
43.88194	0.006111722	-0.01405696	0	0	0	0
43.89851	0.006111722	-0.01405696	0	0	0	0
43.91508	0.006111722	-0.01405696	0	0	0	0
43.93164	0.006111722	-0.01405696	0	0	0	0
43.94821	0.006111722	-0.01405696	0	0	0	0
43.96494	0.006111722	-0.01405696	0	0	0	0
43.98135	0.006111722	-0.01405696	0	0	0	0
43.99791	0.006111722	-0.01405696	0	0	0	0
44.01448	0.006111722	-0.01405696	0	0	0	0
44.03111	0.006111722	-0.01405696	0	0	0	0
44.04764	0.006111722	-0.01405696	0	0	0	0
44.06418	0.006111722	-0.01405696	0	0	0	0
44.08075	0.006111722	-0.01405696	0	0	0	0
44.09731	0.006111722	-0.01405696	0	0	0	0
44.11388	0.006111722	-0.01405696	0	0	0	0
44.13053	0.006111722	-0.01405696	0	0	0	0
44.14711	0.006111722	-0.01405696	0	0	0	0
44.16358	0.006111722	-0.01405696	0	0	0	0
44.18015	0.006111722	-0.01405696	0	0	0	0
44.1972	0.006111722	-0.01405696	0	0	0	0
44.21328	0.006111722	-0.01405696	0	0	0	0
44.22985	0.006111722	-0.01405696	0	0	0	0
44.24641	0.006111722	-0.01405696	0	0	0	0
44.26298	0.006111722	-0.01405696	0	0	0	0
