Time	Pos X	Pos Y	Vel X	Vel Y	Acc X	Acc Y
0.0165675	-0.06912652	-0.3439384	0.0008857368	0.004406976	-1.13516E-05	-5.647976E-05
0.04028522	-0.055653	-0.3328812	0.5680786	0.4661987	-0.007269804	-0.00591886
0.05705602	-0.055653	-0.3328812	0	0	-14.03061	-11.51434
0.0737913	-0.05213692	-0.3301824	0.2100998	0.1612647	6.270499	4.812998
0.09055184	-0.05213692	-0.3301824	0	0	-6.272419	-4.814472
0.1070578	-0.05213692	-0.3301824	0	0	0	0
0.1241116	-0.05195321	-0.3303347	0.01077251	-0.008928197	0.3209949	-0.2660387
0.1406807	-0.05195321	-0.3303347	0	0	-0.3203918	0.2655389
0.1572486	-0.05195321	-0.3303347	0	0	0	0
0.1738145	-0.05184823	-0.3304652	0.006337252	-0.007877883	0.1912623	-0.2377596
0.1903816	-0.05184823	-0.3304652	0	0	-0.1912669	0.2377652
0.2069479	-0.05184823	-0.3304652	0	0	0	0
0.2235135	-0.05176949	-0.330661	0.004752882	-0.011818	0.1434536	-0.356696
0.2400818	-0.05176949	-0.330661	0	0	-0.143445	0.3566748
0.2570507	-0.05176949	-0.330661	0	0	0	0
0.2732128	-0.05174325	-0.3307262	0.001623841	-0.004036437	0.04901263	-0.1218324
0.2897807	-0.05174325	-0.3307262	0	0	-0.04961324	0.1233254
0.3065906	-0.05174325	-0.3307262	0	0	0	0
0.3229114	-0.05174325	-0.3307262	0	0	0	0
0.3394813	-0.05174325	-0.3307262	0	0	0	0
0.3561135	-0.05174325	-0.3307262	0	0	0	0
0.3726123	-0.051717	-0.3307915	0.001590701	-0.003955868	0.04801243	-0.1194007
0.3896488	-0.051717	-0.3307915	0	0	-0.04743368	0.1179614
0.4057477	-0.051717	-0.3307915	0	0	0	0
0.4226709	-0.051717	-0.330922	0	-0.007713332	0	-0.2335809
0.4388811	-0.051717	-0.330922	0	0	0	0.2327959
0.4554479	-0.051717	-0.330922	0	0	0	0
0.4720114	-0.05169075	-0.3309873	0.001584707	-0.003940401	0.04783257	-0.1189365
0.488695	-0.05169075	-0.3309873	0	0	-0.0476645	0.1185186
0.5057196	-0.05169075	-0.3309873	0	0	0	0
0.5217341	-0.05166451	-0.3310526	0.001638811	-0.004077371	0.04960218	-0.1234105
0.5387295	-0.05166451	-0.3310526	0	0	-0.04964607	0.1235197
0.5548481	-0.05166451	-0.3310526	0	0	0	0
0.5714141	-0.05163826	-0.3310743	0.001584257	-0.00131328	0.0484711	-0.04018044
0.5880976	-0.05163826	-0.3310743	0	0	-0.04764754	0.03949775
0.6045483	-0.05163826	-0.3310743	0	0	0	0
0.621115	-0.05163826	-0.3311178	0	-0.002626438	0	-0.07954723
0.6376813	-0.05163826	-0.3311178	0	0	0	0.07926947
0.654248	-0.05163826	-0.3311178	0	0	0	0
0.6708147	-0.05161202	-0.3312266	0.001584183	-0.006567894	0.04781228	-0.1982258
0.6873814	-0.05161202	-0.3312266	0	0	-0.04781228	0.1982258
0.7039477	-0.05161202	-0.3312266	0	0	0	0
0.7205148	-0.05158577	-0.3312484	0.001584368	-0.001313186	0.04781777	-0.03963324
0.7370819	-0.05158577	-0.3312484	0	0	-0.04781666	0.03963231
0.7536486	-0.05158577	-0.3312484	0	0	0	0
0.770215	-0.05158577	-0.3312484	0	0	0	0
0.7867813	-0.05158577	-0.3312484	0	0	0	0
0.803348	-0.05158577	-0.3312484	0	0	0	0
0.819912	-0.05158577	-0.3312919	0	-0.002626873	0	-0.0792883
0.8365801	-0.05158577	-0.3312919	0	0	0	0.07904626
0.8530481	-0.05158577	-0.3312919	0	0	0	0
0.8697029	-0.05158577	-0.3312919	0	0	0	0
0.8861812	-0.05158577	-0.3312919	0	0	0	0
0.9027479	-0.05158577	-0.3312919	0	0	0	0
0.919313	-0.05155953	-0.3314007	0.001584331	-0.006568508	0.04781899	-0.1982536
0.9361229	-0.05155953	-0.3314007	0	0	-0.04747055	0.1968091
0.9524472	-0.05155953	-0.3314007	0	0	0	0
0.9690127	-0.05150703	-0.3315313	0.003168818	-0.007883479	0.09634641	-0.2396934
0.9855842	-0.05150703	-0.3315313	0	0	-0.0956279	0.2379059
1.002148	-0.05150703	-0.3315313	0	0	0	0
1.019134	-0.05148079	-0.3315531	0.001545086	-0.00128081	0.04605345	-0.03817632
1.035281	-0.05148079	-0.3315531	0	0	-0.04663281	0.03865658
1.051848	-0.05148079	-0.3315531	0	0	0	0
1.068754	-0.05148079	-0.3315531	0	0	0	0
1.08542	-0.05148079	-0.3315531	0	0	0	0
1.101548	-0.05148079	-0.3315531	0	0	0	0
1.118475	-0.05145454	-0.3315748	0.001550671	-0.001285256	0.0469114	-0.038882
1.134681	-0.05145454	-0.3315748	0	0	-0.04680086	0.03879037
1.151472	-0.05145454	-0.3315748	0	0	0	0
1.167813	-0.05145454	-0.3316184	0	-0.002664619	0	-0.0804256
1.184381	-0.05145454	-0.3316184	0	0	0	0.08096893
1.200948	-0.05145454	-0.3316184	0	0	0	0
1.217513	-0.05145454	-0.3316184	0	0	0	0
1.234418	-0.05145454	-0.3316184	0	0	0	0
1.25067	-0.05145454	-0.3316184	0	0	0	0
1.267214	-0.05145454	-0.3316619	0	-0.002631807	0	-0.08024715
1.283824	-0.05145454	-0.3316619	0	0	0	0.07938039
1.300352	-0.05145454	-0.3316619	0	0	0	0
1.320598	-0.05145454	-0.3317054	0	-0.002149157	0	-0.05844263
1.337168	-0.05145454	-0.3317054	0	0	0	0.0583762
1.353733	-0.05145454	-0.3317054	0	0	0	0
1.3703	-0.05145454	-0.3317054	0	0	0	0
1.386868	-0.05145454	-0.3317054	0	0	0	0
1.403432	-0.05145454	-0.331749	0	-0.002628606	0	-0.07933775
1.420001	-0.05145454	-0.331749	0	0	0	0.07933376
1.436567	-0.05145454	-0.331749	0	0	0	0
1.453287	-0.05145454	-0.331749	0	0	0	0
1.4697	-0.05145454	-0.331749	0	0	0	0
1.486477	-0.05145454	-0.331749	0	0	0	0
1.502832	-0.05148079	-0.3317707	-0.001604947	-0.001332065	-0.04844123	-0.04020499
1.520063	-0.05148079	-0.3317707	0	0	0.0477865	0.03966157
1.535968	-0.05148079	-0.3317707	0	0	0	0
1.552601	-0.05148079	-0.3317707	0	0	0	0
1.569101	-0.05148079	-0.3317707	0	0	0	0
1.585668	-0.05148079	-0.3317707	0	0	0	0
1.602233	-0.05148079	-0.3317707	0	0	0	0
1.618801	-0.05148079	-0.3317707	0	0	0	0
1.635852	-0.05148079	-0.3317707	0	0	0	0
1.651932	-0.05148079	-0.3318143	0	-0.002705929	0	-0.08167244
1.668501	-0.05148079	-0.3318143	0	0	0	0.08288018
1.685415	-0.05148079	-0.3318143	0	0	0	0
1.701635	-0.05150703	-0.331836	-0.001618035	-0.001343118	-0.04883273	-0.04053567
1.718231	-0.05150703	-0.331836	0	0	0.04930691	0.04092928
1.734768	-0.05150703	-0.331836	0	0	0	0
1.751335	-0.05155953	-0.3319231	-0.003168511	-0.005254542	-0.0957133	-0.1587274
1.767901	-0.05155953	-0.3319231	0	0	0.09562893	0.1585875
1.784589	-0.05155953	-0.3319231	0	0	0	0
1.801033	-0.05161202	-0.3319666	-0.003192169	-0.002647794	-0.09634644	-0.07991605
1.817601	-0.05161202	-0.3319666	0	0	0.09669644	0.08020636
1.83465	-0.05161202	-0.3319666	0	0	0	0
1.851253	-0.05166451	-0.3320102	-0.003161506	-0.002622547	-0.09394787	-0.07793206
1.867301	-0.05166451	-0.3320102	0	0	0.09682847	0.08032158
1.884308	-0.05166451	-0.3320102	0	0	0	0
1.900791	-0.05174325	-0.332119	-0.004776886	-0.006604831	-0.1426349	-0.1972162
1.917005	-0.05174325	-0.332119	0	0	0.1460962	0.2020021
1.934461	-0.05174325	-0.332119	0	0	0	0
1.950139	-0.05184823	-0.3322061	-0.006695852	-0.005554373	-0.2020848	-0.1676343
1.966706	-0.05184823	-0.3322061	0	0	0.207656	0.1722558
1.98343	-0.05184823	-0.3322061	0	0	0	0
2.0155	-0.05192696	-0.3322715	-0.002455181	-0.002037001	-0.05031662	-0.04174641
2.032464	-0.05192696	-0.3322715	0	0	0.05007122	0.04154282
2.04945	-0.05195321	-0.3322932	-0.001545043	-0.001282528	-0.04550924	-0.03777687
2.06618	-0.05195321	-0.3322932	0	0	0.04582494	0.03803893
2.08269	-0.05195321	-0.3322932	0	0	0	0
2.099215	-0.05197945	-0.332315	-0.001588154	-0.001316511	-0.04807518	-0.03985224
2.115721	-0.05197945	-0.332315	0	0	0.04808107	0.03985713
2.132287	-0.05197945	-0.332315	0	0	0	0
2.148854	-0.0520057	-0.3323368	-0.001584223	-0.001315051	-0.047814	-0.03969003
2.165421	-0.0520057	-0.3323368	0	0	0.04781365	0.03968975
2.181989	-0.0520057	-0.3323368	0	0	0	0
2.198552	-0.0520057	-0.3323368	0	0	0	0
2.215137	-0.0520057	-0.3323368	0	0	0	0
2.231702	-0.0520057	-0.3323368	0	0	0	0
2.24871	-0.05203194	-0.3323585	-0.001543029	-0.001279104	-0.04596053	-0.03809929
2.264821	-0.05203194	-0.3323585	0	0	0.04659016	0.03862122
2.281387	-0.05203194	-0.3323585	0	0	0	0
2.297954	-0.05203194	-0.3324021	0	-0.002629988	0	-0.07937606
2.31452	-0.05203194	-0.3324021	0	0	0	0.07937778
2.331087	-0.05203194	-0.3324021	0	0	0	0
2.347652	-0.05203194	-0.3324021	0	0	0	0
2.364219	-0.05203194	-0.3324021	0	0	0	0
2.380785	-0.05203194	-0.3324021	0	0	0	0
2.397766	-0.05205819	-0.3324239	-0.001545542	-0.001281187	-0.0460717	-0.03819145
2.413938	-0.05205819	-0.3324239	0	0	0.04661871	0.0386449
2.43085	-0.05205819	-0.3324239	0	0	0	0
2.447777	-0.05205819	-0.3324239	0	0	0	0
2.463844	-0.05205819	-0.3324239	0	0	0	0
2.480855	-0.05205819	-0.3324239	0	0	0	0
2.496751	-0.05208443	-0.3324457	-0.00165099	-0.001370474	-0.05017066	-0.04164628
2.51332	-0.05208443	-0.3324457	0	0	0.0508545	0.04221392
2.529887	-0.05208443	-0.3324457	0	0	0	0
2.546453	-0.05211068	-0.3324674	-0.001584245	-0.00131507	-0.04781503	-0.03969089
2.56395	-0.05211068	-0.3324674	0	0	0.04650849	0.03860633
2.579585	-0.05211068	-0.3324674	0	0	0	0
2.596154	-0.05213692	-0.3324892	-0.001583949	-0.001314824	-0.04918572	-0.04082868
2.61272	-0.05213692	-0.3324892	0	0	0.04780265	0.03968061
2.629329	-0.05213692	-0.3324892	0	0	0	0
2.645851	-0.05216316	-0.332511	-0.001588272	-0.001316796	-0.04793898	-0.03974498
2.66242	-0.05216316	-0.332511	0	0	0.04799804	0.03979395
2.678985	-0.05216316	-0.332511	0	0	0	0
2.700342	-0.05216316	-0.3325545	0	-0.002040167	0	-0.05379883
2.716913	-0.05216316	-0.3325545	0	0	0	0.05379004
2.733477	-0.05216316	-0.3325545	0	0	0	0
2.750047	-0.05216316	-0.3325545	0	0	0	0
2.766616	-0.05216316	-0.3325545	0	0	0	0
2.783245	-0.05218941	-0.3325763	-0.001578272	-0.001308319	-0.04754202	-0.03941027
2.799748	-0.05218941	-0.3325763	0	0	0.04763541	0.0394877
2.816312	-0.05218941	-0.3325763	0	0	0	0
2.832876	-0.05218941	-0.3325763	0	0	0	0
2.849936	-0.05218941	-0.3325763	0	0	0	0
2.866012	-0.05218941	-0.3325763	0	0	0	0
2.882579	-0.05221565	-0.3325981	-0.001584223	-0.001315051	-0.04853166	-0.04028575
2.899393	-0.05221565	-0.3325981	0	0	0.04745883	0.03939521
2.915713	-0.05221565	-0.3325981	0	0	0	0
2.932436	-0.05221565	-0.3325981	0	0	0	0
2.948846	-0.05221565	-0.3325981	0	0	0	0
2.965412	-0.05221565	-0.3325981	0	0	0	0
2.982297	-0.05221565	-0.3326417	0	-0.002580413	0	-0.07714045
2.998545	-0.05221565	-0.3326417	0	0	0	0.0778787
3.015113	-0.05221565	-0.3326417	0	0	0	0
3.031679	-0.05226814	-0.3326852	-0.003168445	-0.002628303	-0.09562594	-0.07932405
3.048246	-0.05226814	-0.3326852	0	0	0.095628	0.07932577
3.064811	-0.05226814	-0.3326852	0	0	0	0
3.082036	-0.05229438	-0.332707	-0.001523657	-0.001264776	-0.04509212	-0.03743062
3.097965	-0.05229438	-0.332707	0	0	0.04595694	0.0381485
3.114511	-0.05229438	-0.332707	0	0	0	0
3.131076	-0.05232063	-0.3327288	-0.001584112	-0.001315146	-0.04784267	-0.03971947
3.147644	-0.05232063	-0.3327288	0	0	0.04781065	0.03969289
3.164478	-0.05232063	-0.3327288	0	0	0	0
3.180775	-0.05237311	-0.3327723	-0.003220683	-0.002671636	-0.09720881	-0.08063709
3.197344	-0.05237311	-0.3327723	0	0	0.09799367	0.08128814
3.21418	-0.05237311	-0.3327723	0	0	0	0
3.230479	-0.05237311	-0.3328159	0	-0.002673151	0	-0.08067355
3.247046	-0.05237311	-0.3328159	0	0	0	0.08133545
3.264497	-0.05237311	-0.3328159	0	0	0	0
3.280176	-0.05239936	-0.3328377	-0.001673887	-0.00138948	-0.05052454	-0.04194003
3.29704	-0.05239936	-0.3328377	0	0	0.05143624	0.04269682
3.313312	-0.05239936	-0.3328377	0	0	0	0
3.329877	-0.0524256	-0.3328595	-0.001584135	-0.001315164	-0.04824214	-0.04005111
3.346706	-0.0524256	-0.3328595	0	0	0.04743756	0.03938314
3.36301	-0.0524256	-0.3328595	0	0	0	0
3.379578	-0.0524256	-0.3328595	0	0	0	0
3.396201	-0.0524256	-0.3328595	0	0	0	0
3.412838	-0.0524256	-0.3328595	0	0	0	0
3.429279	-0.0524256	-0.3328595	0	0	0	0
3.446045	-0.0524256	-0.3328595	0	0	0	0
3.462758	-0.0524256	-0.3328595	0	0	0	0
3.479681	-0.0524256	-0.3328595	0	0	0	0
3.495691	-0.0524256	-0.3328595	0	0	0	0
3.512112	-0.0524256	-0.3328595	0	0	0	0
3.528679	-0.05239936	-0.3328377	0.001583884	0.001314956	0.04801314	0.03986099
3.545246	-0.05239936	-0.3328377	0	0	-0.04780274	-0.03968632
3.561938	-0.05239936	-0.3328377	0	0	0	0
3.582733	-0.05239936	-0.3328377	0	0	0	0
3.599526	-0.05239936	-0.3328377	0	0	0	0
3.616037	-0.05239936	-0.3328377	0	0	0	0
3.632437	-0.05239936	-0.3328377	0	0	0	0
3.649003	-0.05239936	-0.3328377	0	0	0	0
3.665567	-0.05239936	-0.3328377	0	0	0	0
3.682321	-0.05239936	-0.3328377	0	0	0	0
3.698702	-0.05239936	-0.3328377	0	0	0	0
3.715267	-0.05239936	-0.3328377	0	0	0	0
3.731833	-0.05239936	-0.3328377	0	0	0	0
3.749162	-0.05239936	-0.3328377	0	0	0	0
3.764966	-0.05140205	-0.3337091	0.06310176	-0.05513841	1.904497	-1.664152
3.781536	-0.05140205	-0.3337091	0	0	-1.949155	1.703174
3.7981	-0.05140205	-0.3337091	0	0	0	0
3.814667	-0.04102959	-0.342514	0.626101	-0.5314776	18.89767	-16.04164
3.831423	-0.04102959	-0.342514	0	0	-18.78883	15.94925
3.847896	-0.04102959	-0.342514	0	0	0	0
3.864367	-0.0245477	-0.3602411	1.000681	-1.076281	30.37569	-32.67054
3.880936	-0.0245477	-0.3602411	0	0	-30.28692	32.57506
3.897501	-0.0245477	-0.3602411	0	0	0	0
3.914129	0.004631546	-0.3855208	1.754848	-1.520334	52.86823	-45.80302
3.930635	0.004631546	-0.3855208	0	0	-52.96143	45.88377
3.947597	0.004631546	-0.3855208	0	0	0	0
3.963767	0.03114782	-0.4307504	1.639889	-2.797206	49.49695	-84.42834
3.980336	0.03114782	-0.4307504	0	0	-50.08917	85.43852
3.99728	0.03114782	-0.4307504	0	0	0	0
4.013617	0.01323607	-0.5044634	-1.096397	-4.512053	-32.94402	-135.576
4.030262	0.01323607	-0.5044634	0	0	33.24193	136.802
4.04675	0.01323607	-0.5044634	0	0	0	0
4.063297	-0.01523566	-0.5879835	-1.720637	-5.047386	-52.08559	-152.7899
4.079907	-0.01523566	-0.5879835	0	0	51.89309	152.2253
4.096333	-0.01523566	-0.5879835	0	0	0	0
4.112867	-0.03682545	-0.6593738	-1.305755	-4.3177	-39.61701	-131.0003
4.129436	-0.03682545	-0.6593738	0	0	39.44524	130.4323
4.146033	-0.03682545	-0.6593738	0	0	0	0
4.16257	-0.05187447	-0.7093925	-0.9100371	-3.024708	-27.46537	-91.28719
4.179136	-0.05187447	-0.7093925	0	0	27.49109	91.37266
4.195702	-0.05187447	-0.7093925	0	0	0	0
4.212266	-0.06383421	-0.7439437	-0.7220157	-2.085871	-21.79299	-62.95897
4.228837	-0.06383421	-0.7439437	0	0	21.79048	62.95173
4.245403	-0.06383421	-0.7439437	0	0	0	0
4.261969	-0.06362453	-0.7583135	0.01265742	-0.8674619	0.3820292	-26.18193
4.278536	-0.06362453	-0.7583135	0	0	-0.3820182	26.18118
4.295103	-0.06362453	-0.7583135	0	0	0	0
4.311667	-0.06299549	-0.7590533	0.0379758	-0.0446665	1.146244	-1.348193
4.328234	-0.06299549	-0.7590533	0	0	-1.146211	1.348154
4.344804	-0.06299549	-0.7590533	0	0	0	0
4.36137	-0.04861955	-0.7761149	0.8678082	-1.029925	26.18937	-31.08186
4.377937	-0.04861955	-0.7761149	0	0	-26.19163	31.08454
4.394503	-0.04861955	-0.7761149	0	0	0	0
4.411069	-0.03277773	-0.7952782	0.9562691	-1.156766	28.86234	-34.91379
4.427637	-0.03277773	-0.7952782	0	0	-28.86068	34.91178
4.444551	-0.03277773	-0.7952782	0	0	0	0
4.460768	-0.03075346	-0.7977561	0.1248295	-0.152806	3.767797	-4.612224
4.477334	-0.03075346	-0.7977561	0	0	-3.807749	4.661129
4.494203	-0.03075346	-0.7977561	0	0	0	0
4.510798	-0.02780862	-0.8013732	0.1774547	-0.2179652	5.303011	-6.513618
4.527037	-0.02780862	-0.8013732	0	0	-5.404514	6.638292
4.543603	-0.02780862	-0.8013732	0	0	0	0
4.560171	-0.02778232	-0.8014703	0.001587234	-0.005860555	0.04790419	-0.176877
4.576737	-0.02778232	-0.8014703	0	0	-0.0479035	0.1768745
4.593303	-0.02778232	-0.8014703	0	0	0	0
4.60987	-0.02694085	-0.8025716	0.05079002	-0.06647	1.53289	-2.006126
4.626778	-0.02694085	-0.8025716	0	0	-1.517256	1.985665
4.643003	-0.02694085	-0.8025716	0	0	0	0
4.659571	-0.01336762	-0.8194643	0.8192579	-1.019618	24.98267	-31.0925
4.676137	-0.01336762	-0.8194643	0	0	-24.72525	30.77213
4.692973	-0.01336762	-0.8194643	0	0	0	0
4.714999	-0.009368147	-0.8245068	0.1815833	-0.2289353	4.672602	-5.89109
4.732106	-0.009368147	-0.8245068	0	0	-4.640149	5.850174
4.748132	-0.009341833	-0.8244735	0.001641929	0.002075337	0.04955494	0.06263559
4.7647	-0.009341833	-0.8244735	0	0	-0.05037488	-0.06367196
4.781268	-0.009341833	-0.8244735	0	0	0	0
4.797835	-0.009368147	-0.8244402	-0.001588291	0.002007541	-0.04793473	0.0605877
4.814403	-0.009368147	-0.8244402	0	0	0.04793404	-0.06058683
4.830967	-0.009368147	-0.8244402	0	0	0	0
4.847535	-0.009341833	-0.8244069	0.001588246	0.002011081	0.04793611	0.06069803
4.8641	-0.009341833	-0.8244069	0	0	-0.04793542	-0.06069716
4.880669	-0.009341833	-0.8244069	0	0	0	0
4.897233	-0.009368147	-0.8243071	-0.001588611	0.006023836	-0.04794784	0.1818128
4.913803	-0.009368147	-0.8243071	0	0	0.04794508	-0.1818024
4.930367	-0.009368147	-0.8243071	0	0	0	0
4.94723	-0.009578655	-0.8239745	-0.01248351	0.01972345	-0.3734478	0.5900328
4.963502	-0.009578655	-0.8239745	0	0	0.376753	-0.5952548
4.980446	-0.009578655	-0.8239745	0	0	0	0
5.036383	-0.01023648	-0.8230107	-0.01176034	0.0172315	-0.1613642	0.2364341
5.053158	-0.01023648	-0.8230107	0	0	0.1617398	-0.2369846
5.069734	-0.0102628	-0.8229775	-0.001587367	0.002002848	-0.04759518	0.06005285
5.086086	-0.0102628	-0.8229775	0	0	0.04820653	-0.0608242
5.102652	-0.0102628	-0.8229775	0	0	0	0
5.119219	-0.01034174	-0.8228779	-0.004764899	0.006012002	-0.1438132	0.181453
5.136039	-0.01034174	-0.8228779	0	0	0.1427184	-0.1800717
5.152545	-0.01034174	-0.8228779	0	0	0	0
5.168918	-0.01034174	-0.8228779	0	0	0	0
5.185486	-0.01034174	-0.8228779	0	0	0	0
5.202281	-0.01034174	-0.8228779	0	0	0	0
5.218619	-0.01034174	-0.8228779	0	0	0	0
5.2353	-0.01034174	-0.8228779	0	0	0	0
5.251754	-0.01034174	-0.8228779	0	0	0	0
5.268321	-0.01034174	-0.8228779	0	0	0	0
5.285731	-0.01034174	-0.8228779	0	0	0	0
5.301454	-0.01034174	-0.8228779	0	0	0	0
5.318177	-0.01034174	-0.8228779	0	0	0	0
5.334586	-0.01034174	-0.8228779	0	0	0	0
5.351314	-0.01034174	-0.8228779	0	0	0	0
5.368358	-0.01039436	-0.8228114	-0.003087571	0.003899147	-0.09142403	0.115455
5.384381	-0.01039436	-0.8228114	0	0	0.09337255	-0.1179157
5.400853	-0.01039436	-0.8228114	0	0	0	0
5.422946	-0.01042068	-0.8227782	-0.001191005	0.001502741	-0.03088292	0.03896629
5.439517	-0.01042068	-0.8227782	0	0	0.03080446	-0.03886729
5.45612	-0.01044699	-0.822745	-0.001584769	0.001999569	-0.04777135	0.06027512
5.472649	-0.01044699	-0.822745	0	0	0.04783185	-0.06035146
5.489216	-0.01044699	-0.822745	0	0	0	0
5.506275	-0.01094693	-0.82165	-0.02930616	0.06418759	-0.8715182	1.908836
5.52235	-0.01094693	-0.82165	0	0	0.8844743	-1.937213
5.538917	-0.01094693	-0.82165	0	0	0	0
5.55548	-0.0272827	-0.800015	-0.9862278	1.306154	-29.76784	39.42435
5.572778	-0.0272827	-0.800015	0	0	29.12522	-38.57327
5.588871	-0.0272827	-0.800015	0	0	0	0
5.60518	-0.05533818	-0.7646838	-1.720268	2.16639	-53.09135	66.85969
5.621815	-0.05533818	-0.7646838	0	0	52.21914	-65.76128
5.638424	-0.05533818	-0.7646838	0	0	0	0
5.654905	-0.08197378	-0.7242807	-1.616194	2.451583	-48.84221	74.08809
5.671449	-0.08197378	-0.7242807	0	0	48.93882	-74.23464
5.688016	-0.08197378	-0.7242807	0	0	0	0
5.704583	-0.08145098	-0.676672	0.03155762	2.873744	0.9524245	86.73102
5.721817	-0.08145098	-0.676672	0	0	-0.9336275	-85.0193
5.737838	-0.08145098	-0.676672	0	0	0	0
5.754283	-0.07153562	-0.6238465	0.6029348	3.212222	18.5713	98.94131
5.77085	-0.07153562	-0.6238465	0	0	-18.26442	-97.30635
5.787417	-0.07153562	-0.6238465	0	0	0	0
5.80419	-0.0618421	-0.5693789	0.5779329	3.247388	17.33453	97.40223
5.820549	-0.0618421	-0.5693789	0	0	-17.44305	-98.01201
5.837429	-0.0618421	-0.5693789	0	0	0	0
5.853683	-0.05717446	-0.5142682	0.2871523	3.390404	8.666398	102.3241
5.87025	-0.05717446	-0.5142682	0	0	-8.748994	-103.2993
5.886817	-0.05717446	-0.5142682	0	0	0	0
5.90338	-0.04966964	-0.4657554	0.4530964	2.928914	13.67605	88.40498
5.91995	-0.04966964	-0.4657554	0	0	-13.67507	-88.39861
5.936788	-0.04966964	-0.4657554	0	0	0	0
5.95308	-0.04475956	-0.4230794	0.3013691	2.619355	9.096516	79.06254
5.969773	-0.04475956	-0.4230794	0	0	-9.136492	-79.40999
5.986215	-0.04475956	-0.4230794	0	0	0	0
6.00278	-0.0372722	-0.3905439	0.4519768	1.964012	13.6931	59.50178
6.019348	-0.0372722	-0.3905439	0	0	-13.64108	-59.27571
6.036132	-0.0372722	-0.3905439	0	0	0	0
6.054437	-0.03997869	-0.3588911	-0.1478563	1.729206	-4.213805	49.28121
6.071006	-0.03997869	-0.3588911	0	0	4.239675	-49.58376
6.087698	-0.03997869	-0.3588911	0	0	0	0
6.104198	-0.04231683	-0.3371121	-0.1417015	1.319905	-4.269125	39.76557
6.12082	-0.04231683	-0.3371121	0	0	4.278159	-39.84973
6.137273	-0.04231683	-0.3371121	0	0	0	0
6.153838	-0.05113958	-0.3286174	-0.5326191	0.5128152	-16.13112	15.53133
6.170407	-0.05113958	-0.3286174	0	0	16.07494	-15.47724
6.187532	-0.05113958	-0.3286174	0	0	0	0
6.203538	-0.05108709	-0.3287043	0.003279588	-0.00542944	0.09898814	-0.1638773
6.220106	-0.05108709	-0.3287043	0	0	-0.1006821	0.1666817
6.237096	-0.05108709	-0.3287043	0	0	0	0
6.253238	-0.05106084	-0.328726	0.001626104	-0.001345932	0.04907874	-0.04062266
6.270061	-0.05106084	-0.328726	0	0	-0.04932935	0.04083008
6.286391	-0.05106084	-0.328726	0	0	0	0
6.30294	-0.05066713	-0.3291389	0.02379069	-0.02495066	0.7235649	-0.7588439
6.319506	-0.05066713	-0.3291389	0	0	-0.7184283	0.7534569
6.336075	-0.05066713	-0.3291389	0	0	0	0
6.353144	-0.05043089	-0.3294215	0.01384036	-0.01655388	0.4114561	-0.4921253
6.369207	-0.05043089	-0.3294215	0	0	-0.4177331	0.4996329
6.385775	-0.05043089	-0.3294215	0	0	0	0
6.402339	-0.05048339	-0.3295084	-0.003169576	-0.005250166	-0.09566625	-0.158464
6.418907	-0.05048339	-0.3295084	0	0	0.0956635	0.1584594
6.435474	-0.05048339	-0.3295084	0	0	0	0
6.452039	-0.05108709	-0.3302259	-0.03644582	-0.04331712	-1.100032	-1.307426
6.468607	-0.05108709	-0.3302259	0	0	1.1	1.307388
6.485175	-0.05108709	-0.3302259	0	0	0	0
6.501905	-0.05108709	-0.3302259	0	0	0	0
6.518309	-0.05108709	-0.3302259	0	0	0	0
6.534979	-0.05108709	-0.3302259	0	0	0	0
6.551452	-0.05108709	-0.3303129	0	-0.005281002	0	-0.1593374
6.568007	-0.05108709	-0.3303129	0	0	0	0.1598987
6.584722	-0.05108709	-0.3303129	0	0	0	0
6.60114	-0.05108709	-0.3303129	0	0	0	0
6.617708	-0.05108709	-0.3303129	0	0	0	0
6.634273	-0.05108709	-0.3303129	0	0	0	0
6.65084	-0.05108709	-0.3303564	0	-0.002626277	0	-0.07926691
6.667407	-0.05108709	-0.3303564	0	0	0	0.07926235
6.684682	-0.05108709	-0.3303564	0	0	0	0
6.700679	-0.05108709	-0.3304434	0	-0.005438266	0	-0.1634474
6.717108	-0.05108709	-0.3304434	0	0	0	0.1677137
6.734413	-0.05108709	-0.3304434	0	0	0	0
6.750239	-0.05111334	-0.3305087	-0.001658488	-0.004121976	-0.05005831	-0.124414
6.766858	-0.05111334	-0.3305087	0	0	0.05111698	0.1270452
6.783375	-0.05111334	-0.3305087	0	0	0	0
6.79994	-0.05111334	-0.3305522	0	-0.002626655	0	-0.07939716
6.816508	-0.05111334	-0.3305522	0	0	0	0.07927489
6.833413	-0.05111334	-0.3305522	0	0	0	0
6.849854	-0.05108709	-0.3306175	0.001596533	-0.003969808	0.04787824	-0.1190501
6.866209	-0.05108709	-0.3306175	0	0	-0.04868087	0.1210458
6.882774	-0.05108709	-0.3306175	0	0	0	0
6.899339	-0.05108709	-0.330661	0	-0.002626806	0	-0.07928858
6.916152	-0.05108709	-0.330661	0	0	0	0.07869957
6.932783	-0.05108709	-0.330661	0	0	0	0
6.949222	-0.05108709	-0.3307045	0	-0.002645033	0	-0.07998379
6.966096	-0.05108709	-0.3307045	0	0	0	0.07939763
6.982176	-0.05108709	-0.3307045	0	0	0	0
7.00454	-0.05113958	-0.3307915	-0.002347248	-0.003891258	-0.06105698	-0.10122
7.02111	-0.05113958	-0.3307915	0	0	0.06028826	0.09994562
7.037673	-0.05111334	-0.3309438	0.001584496	-0.009194352	0.04782157	-0.2774941
7.062483	-0.05111334	-0.3309438	0	0	-0.0382976	0.2222294
7.079107	-0.05111334	-0.3309438	0	0	0	0
7.09562	-0.05108709	-0.3310526	0.001589572	-0.006589301	0.04796993	-0.1988512
7.11219	-0.05108709	-0.3310526	0	0	-0.04804875	0.199178
7.128755	-0.05108709	-0.3310526	0	0	0	0
7.14532	-0.05111334	-0.3310743	-0.001584539	-0.001313328	-0.04782698	-0.03964087
7.161889	-0.05111334	-0.3310743	0	0	0.04782285	0.03963745
7.178456	-0.05111334	-0.3310743	0	0	0	0
7.195236	-0.05108709	-0.3310961	0.001564321	-0.00129657	0.0469102	-0.038881
7.21159	-0.05108709	-0.3310961	0	0	-0.04721197	0.03913112
7.228155	-0.05108709	-0.3310961	0	0	0	0
7.24472	-0.05106084	-0.3312049	0.001584539	-0.006566638	0.04782767	-0.1982072
7.262012	-0.05106084	-0.3312049	0	0	-0.0468011	0.1939529
7.278014	-0.05106084	-0.3312049	0	0	0	0
7.294425	-0.05100835	-0.3312919	0.003198499	-0.005304274	0.09867804	-0.1636441
7.31099	-0.05100835	-0.3312919	0	0	-0.0969929	0.1608495
7.327556	-0.05100835	-0.3312919	0	0	0	0
7.344121	-0.05100835	-0.3312919	0	0	0	0
7.360688	-0.05100835	-0.3312919	0	0	0	0
7.377256	-0.05100835	-0.3312919	0	0	0	0
7.393821	-0.0509821	-0.3313137	0.001584584	-0.001313365	0.0478256	-0.03963973
7.410388	-0.0509821	-0.3313137	0	0	-0.0478256	0.03963973
7.426954	-0.0509821	-0.3313137	0	0	0	0
7.443521	-0.0509821	-0.3313572	0	-0.002628303	0	-0.07932805
7.460088	-0.0509821	-0.3313572	0	0	0	0.07932348
7.476656	-0.0509821	-0.3313572	0	0	0	0
7.493276	-0.0509821	-0.3313572	0	0	0	0
7.510087	-0.0509821	-0.3313572	0	0	0	0
7.526583	-0.0509821	-0.3313572	0	0	0	0
7.54292	-0.05095585	-0.331379	0.001606645	-0.00133165	0.0489337	-0.04055816
7.559487	-0.05095585	-0.331379	0	0	-0.04882733	0.04047
7.57611	-0.05095585	-0.331379	0	0	0	0
7.59262	-0.05092961	-0.3314007	0.001589622	-0.001317728	0.04797764	-0.03977139
7.60919	-0.05092961	-0.3314007	0	0	-0.04805372	0.03983445
7.625757	-0.05092961	-0.3314007	0	0	0	0
7.642321	-0.05092961	-0.3314443	0	-0.002628681	0	-0.07934289
7.658887	-0.05092961	-0.3314443	0	0	0	0.07934289
7.675456	-0.05092961	-0.3314443	0	0	0	0
7.692238	-0.05092961	-0.3314443	0	0	0	0
7.70887	-0.05092961	-0.3314443	0	0	0	0
7.725457	-0.05092961	-0.3314443	0	0	0	0
7.742135	-0.05092961	-0.3314443	0	0	0	0
7.75829	-0.05092961	-0.3314443	0	0	0	0
7.775041	-0.05092961	-0.3314443	0	0	0	0
7.791514	-0.05092961	-0.3314878	0	-0.002641329	0	-0.07949924
7.808109	-0.05092961	-0.3314878	0	0	0	0.07987641
7.824741	-0.05092961	-0.3314878	0	0	0	0
7.841121	-0.05092961	-0.3314878	0	0	0	0
7.857951	-0.05092961	-0.3314878	0	0	0	0
7.874284	-0.05092961	-0.3314878	0	0	0	0
7.891354	-0.05092961	-0.3314878	0	0	0	0
7.90739	-0.05092961	-0.3314878	0	0	0	0
7.923957	-0.05092961	-0.3314878	0	0	0	0
7.940523	-0.05090336	-0.3315095	0.001584493	-0.00131329	0.04782216	-0.03963687
7.957215	-0.05090336	-0.3315095	0	0	-0.04764252	0.03948798
7.973656	-0.05090336	-0.3315095	0	0	0	0
7.990223	-0.05090336	-0.3315095	0	0	0	0
8.00692	-0.05090336	-0.3315095	0	0	0	0
8.023409	-0.05090336	-0.3315095	0	0	0	0
8.039925	-0.05090336	-0.3315531	0	-0.002636347	0	-0.07987776
8.056489	-0.05090336	-0.3315531	0	0	0	0.07969584
8.073561	-0.05090336	-0.3315531	0	0	0	0
8.09461	-0.05090336	-0.3315531	0	0	0	0
8.111179	-0.05090336	-0.3315531	0	0	0	0
8.127925	-0.05090336	-0.3315531	0	0	0	0
8.144312	-0.05090336	-0.3315531	0	0	0	0
8.161064	-0.05090336	-0.3315531	0	0	0	0
8.177567	-0.05090336	-0.3315531	0	0	0	0
8.194119	-0.05090336	-0.3315531	0	0	0	0
8.21064	-0.05090336	-0.3315531	0	0	0	0
8.23754	-0.05090336	-0.3315531	0	0	0	0
8.254789	-0.05090336	-0.3315531	0	0	0	0
8.270787	-0.05090336	-0.3315531	0	0	0	0
8.287242	-0.05090336	-0.3315531	0	0	0	0
8.303986	-0.05090336	-0.3315531	0	0	0	0
8.321039	-0.05090336	-0.3315531	0	0	0	0
8.337148	-0.05090336	-0.3315531	0	0	0	0
8.353509	-0.05090336	-0.3315531	0	0	0	0
8.370259	-0.05087711	-0.3315748	0.001567037	-0.001298821	0.04732596	-0.0392256
8.3872	-0.05087711	-0.3315748	0	0	-0.04651147	0.03855053
8.403208	-0.05087711	-0.3315748	0	0	0	0
8.419774	-0.05087711	-0.3315748	0	0	0	0
8.436343	-0.05087711	-0.3315748	0	0	0	0
8.45291	-0.05087711	-0.3315748	0	0	0	0
8.469475	-0.05087711	-0.3315748	0	0	0	0
8.486658	-0.05087711	-0.3315748	0	0	0	0
8.50261	-0.05087711	-0.3315748	0	0	0	0
8.519176	-0.05087711	-0.3315748	0	0	0	0
8.535769	-0.05087711	-0.3315748	0	0	0	0
8.552309	-0.05087711	-0.3315748	0	0	0	0
8.568873	-0.05090336	-0.3315966	-0.00158463	-0.001315202	-0.04786694	-0.03972833
8.585443	-0.05090336	-0.3315966	0	0	0.04782423	0.03969289
8.60201	-0.05090336	-0.3315966	0	0	0	0
8.618577	-0.05087711	-0.3316184	0.001584356	-0.001313176	0.04781735	-0.03963288
8.635143	-0.05087711	-0.3316184	0	0	-0.04781735	0.03963288
8.65192	-0.05087711	-0.3316184	0	0	0	0
8.668273	-0.05087711	-0.3316184	0	0	0	0
8.685023	-0.05087711	-0.3316184	0	0	0	0
8.701409	-0.05087711	-0.3316184	0	0	0	0
8.717974	-0.05087711	-0.3316184	0	0	0	0
8.734543	-0.05087711	-0.3316184	0	0	0	0
8.751109	-0.05087711	-0.3316184	0	0	0	0
8.767673	-0.05087711	-0.3316184	0	0	0	0
8.784494	-0.05087711	-0.3316184	0	0	0	0
8.800809	-0.05087711	-0.3316184	0	0	0	0
8.817884	-0.05087711	-0.3316184	0	0	0	0
8.834091	-0.05087711	-0.3316184	0	0	0	0
8.850924	-0.05087711	-0.3316184	0	0	0	0
8.867075	-0.05087711	-0.3316184	0	0	0	0
8.883641	-0.05087711	-0.3316184	0	0	0	0
8.900519	-0.05087711	-0.3316184	0	0	0	0
8.916773	-0.05087711	-0.3316184	0	0	0	0
8.933342	-0.05087711	-0.3316184	0	0	0	0
8.949908	-0.05087711	-0.3316184	0	0	0	0
8.966473	-0.05087711	-0.3316184	0	0	0	0
8.983043	-0.05087711	-0.3316184	0	0	0	0
8.999609	-0.05087711	-0.3316184	0	0	0	0
9.016366	-0.05087711	-0.3316184	0	0	0	0
9.032741	-0.05087711	-0.3316184	0	0	0	0
9.049494	-0.05087711	-0.3316184	0	0	0	0
9.065873	-0.05085086	-0.3316401	0.001602529	-0.001328239	0.04836721	-0.04008863
9.08247	-0.05085086	-0.3316401	0	0	-0.04859661	0.04027877
9.099007	-0.05085086	-0.3316401	0	0	0	0
9.115573	-0.05085086	-0.3316401	0	0	0	0
9.132232	-0.05085086	-0.3316401	0	0	0	0
9.148707	-0.05085086	-0.3316401	0	0	0	0
9.165274	-0.05085086	-0.3316401	0	0	0	0
9.181842	-0.05085086	-0.3316401	0	0	0	0
9.198408	-0.05085086	-0.3316401	0	0	0	0
9.215183	-0.05085086	-0.3316401	0	0	0	0
9.231544	-0.05085086	-0.3316401	0	0	0	0
9.248108	-0.05085086	-0.3316401	0	0	0	0
9.264672	-0.05085086	-0.3316401	0	0	0	0
9.281245	-0.05085086	-0.3316401	0	0	0	0
9.297815	-0.05085086	-0.3316401	0	0	0	0
9.314384	-0.05085086	-0.3316401	0	0	0	0
9.331057	-0.05085086	-0.3316401	0	0	0	0
9.347619	-0.05085086	-0.3316401	0	0	0	0
9.364077	-0.05085086	-0.3316401	0	0	0	0
9.380646	-0.05085086	-0.3316401	0	0	0	0
9.3973	-0.05085086	-0.3316401	0	0	0	0
9.413777	-0.05085086	-0.3316401	0	0	0	0
9.43034	-0.05085086	-0.3316401	0	0	0	0
9.446908	-0.05085086	-0.3316401	0	0	0	0
9.467193	-0.05085086	-0.3316401	0	0	0	0
9.483761	-0.05085086	-0.3316401	0	0	0	0
9.500398	-0.05085086	-0.3316401	0	0	0	0
9.517324	-0.05085086	-0.3316401	0	0	0	0
9.533461	-0.05085086	-0.3316401	0	0	0	0
9.550027	-0.05085086	-0.3316401	0	0	0	0
9.566596	-0.05085086	-0.3316401	0	0	0	0
9.583162	-0.05085086	-0.3316401	0	0	0	0
9.599797	-0.05085086	-0.3316401	0	0	0	0
9.616297	-0.05085086	-0.3316401	0	0	0	0
9.632861	-0.05085086	-0.3316401	0	0	0	0
9.649428	-0.05085086	-0.3316401	0	0	0	0
9.666208	-0.05085086	-0.3316401	0	0	0	0
9.682563	-0.05085086	-0.3316401	0	0	0	0
9.699127	-0.05085086	-0.3316401	0	0	0	0
9.716112	-0.05085086	-0.3316401	0	0	0	0
9.732261	-0.05085086	-0.3316401	0	0	0	0
9.748828	-0.05085086	-0.3316401	0	0	0	0
9.765393	-0.05085086	-0.3316401	0	0	0	0
9.781961	-0.05085086	-0.3316401	0	0	0	0
9.798541	-0.05085086	-0.3316401	0	0	0	0
9.815093	-0.05085086	-0.3316401	0	0	0	0
9.832044	-0.05085086	-0.3316401	0	0	0	0
9.848556	-0.05085086	-0.3316401	0	0	0	0
9.864794	-0.05085086	-0.3316401	0	0	0	0
9.881362	-0.05085086	-0.3316401	0	0	0	0
9.897926	-0.05085086	-0.3316401	0	0	0	0
9.914494	-0.05085086	-0.3316401	0	0	0	0
9.931737	-0.05085086	-0.3316401	0	0	0	0
9.947684	-0.05085086	-0.3316401	0	0	0	0
9.9642	-0.05085086	-0.3316401	0	0	0	0
9.980764	-0.05085086	-0.3316401	0	0	0	0
10.00149	-0.05085086	-0.3316401	0	0	0	0
10.01806	-0.05085086	-0.3316401	0	0	0	0
10.03462	-0.05085086	-0.3316401	0	0	0	0
10.05119	-0.05085086	-0.3316401	0	0	0	0
10.06778	-0.05085086	-0.3316401	0	0	0	0
10.08432	-0.05085086	-0.3316401	0	0	0	0
10.10089	-0.05085086	-0.3316401	0	0	0	0
10.11746	-0.05085086	-0.3316401	0	0	0	0
10.13691	-0.05085086	-0.3316401	0	0	0	0
10.15351	-0.05085086	-0.3316401	0	0	0	0
10.17005	-0.05085086	-0.3316401	0	0	0	0
10.18661	-0.05085086	-0.3316401	0	0	0	0
10.20318	-0.05085086	-0.3316401	0	0	0	0
10.21975	-0.05085086	-0.3316401	0	0	0	0
10.23631	-0.05085086	-0.3316401	0	0	0	0
10.25328	-0.05085086	-0.3316401	0	0	0	0
10.26945	-0.05085086	-0.3316401	0	0	0	0
10.28635	-0.05085086	-0.3316401	0	0	0	0
10.30258	-0.05085086	-0.3316401	0	0	0	0
10.31914	-0.05085086	-0.3316401	0	0	0	0
10.33571	-0.05085086	-0.3316401	0	0	0	0
10.3526	-0.05085086	-0.3316401	0	0	0	0
10.36885	-0.05085086	-0.3316401	0	0	0	0
10.38541	-0.05085086	-0.3316401	0	0	0	0
10.40198	-0.05085086	-0.3316401	0	0	0	0
10.41854	-0.05085086	-0.3316401	0	0	0	0
10.43511	-0.05090336	-0.3315966	-0.003168895	0.002626504	-0.09564295	0.07927261
10.49912	-0.05090336	-0.3315966	0	0	0.03932712	-0.03259586
10.52042	-0.05090336	-0.3315966	0	0	0	0
10.53712	-0.05092961	-0.3315748	-0.001572498	0.001305133	-0.04138869	0.03435155
10.55362	-0.05092961	-0.3315748	0	0	0.04737492	-0.03931997
10.57049	-0.05092961	-0.3315748	0	0	0	0
10.58701	-0.05090336	-0.3315966	0.001588471	-0.00131839	0.04756232	-0.03947552
10.60326	-0.05090336	-0.3315966	0	0	-0.04847169	0.04023026
10.62061	-0.05090336	-0.3315966	0	0	0	0
10.63639	-0.05085086	-0.3316401	0.003325894	-0.002756631	0.1003872	-0.08320487
10.65296	-0.05085086	-0.3316401	0	0	-0.1028019	0.08520626
10.66982	-0.05085086	-0.3316401	0	0	0	0
10.68627	-0.05053588	-0.3319884	0.01915095	-0.02117701	0.5749157	-0.6357384
10.70269	-0.05053588	-0.3319884	0	0	-0.5827234	0.6443721
10.71923	-0.05053588	-0.3319884	0	0	0	0
10.73585	-0.04615141	-0.3406968	0.2638119	-0.5239822	7.956133	-15.80244
10.75248	-0.04615141	-0.3406968	0	0	-7.932405	15.75532
10.76914	-0.04615141	-0.3406968	0	0	0	0
10.78564	-0.02531038	-0.3601747	1.262911	-1.180303	38.08512	-35.59396
10.80206	-0.02531038	-0.3601747	0	0	-38.36538	35.85589
10.81869	-0.02531038	-0.3601747	0	0	0	0
10.83519	-0.01310451	-0.4175585	0.7394294	-3.476304	22.31602	-104.9151
10.85229	-0.01310451	-0.4175585	0	0	-22.00442	103.4501
10.86885	-0.01310451	-0.4175585	0	0	0	0
10.88522	-0.03556395	-0.5216457	-1.372002	-6.358479	-41.67098	-193.1221
10.90146	-0.03556395	-0.5216457	0	0	42.06576	194.9517
10.91859	-0.03556395	-0.5216457	0	0	0	0
10.93459	-0.06338865	-0.6171023	-1.738134	-5.962915	-52.46	-179.9715
10.95152	-0.06338865	-0.6171023	0	0	52.78208	181.0765
10.96812	-0.06338865	-0.6171023	0	0	0	0
10.98429	-0.08594565	-0.6815542	-1.394372	-3.984127	-42.54015	-121.5496
11.00086	-0.08594565	-0.6815542	0	0	42.58476	121.6771
11.01743	-0.08594565	-0.6815542	0	0	0	0
11.03399	-0.09061955	-0.7185637	-0.2821658	-2.234282	-8.516761	-67.43854
11.05056	-0.09061955	-0.7185637	0	0	8.516026	67.43272
11.06713	-0.09061955	-0.7185637	0	0	0	0
11.08369	-0.0732372	-0.7463434	1.049563	-1.677365	31.67862	-50.62736
11.10026	-0.0732372	-0.7463434	0	0	-31.68044	50.63027
11.11683	-0.0732372	-0.7463434	0	0	0	0
11.13416	-0.0584334	-0.7636913	0.8539389	-1.000695	25.18833	-29.51712
11.15021	-0.0584334	-0.7636913	0	0	-25.57904	29.97498
11.16653	-0.0584334	-0.7636913	0	0	0	0
11.18321	-0.05638753	-0.7661125	0.122628	-0.1451248	3.716	-4.397721
11.19975	-0.05638753	-0.7661125	0	0	-3.690934	4.368056
11.21623	-0.05638753	-0.7661125	0	0	0	0
11.2328	-0.0559678	-0.76661	0.0253288	-0.03001986	0.7664543	-0.9084064
11.24965	-0.0559678	-0.76661	0	0	-0.7579241	0.8982963
11.26593	-0.0559678	-0.76661	0	0	0	0
11.28249	-0.03622099	-0.7903118	1.192057	-1.430807	36.29181	-43.56049
11.2994	-0.03622099	-0.7903118	0	0	-35.61451	42.74754
11.3162	-0.03622099	-0.7903118	0	0	0	0
11.33219	-0.02102322	-0.8089808	0.9505531	-1.167663	28.98642	-35.60704
11.34876	-0.02102322	-0.8089808	0	0	-29.197	35.86572
11.36533	-0.02102322	-0.8089808	0	0	0	0
11.38189	-0.02026039	-0.8099284	0.04605255	-0.0572104	1.389949	-1.726713
11.39846	-0.02026039	-0.8099284	0	0	-1.389909	1.726663
11.41515	-0.02026039	-0.8099284	0	0	0	0
11.43161	-0.01973428	-0.8105825	0.03194708	-0.03971942	0.96361	-1.198045
11.44816	-0.01973428	-0.8105825	0	0	-0.9677019	1.203132
11.46473	-0.01973428	-0.8105825	0	0	0	0
11.48129	-0.003947348	-0.8304515	0.9531206	-1.199573	28.76772	-36.20632
11.49812	-0.003947348	-0.8304515	0	0	-28.54098	35.92094
11.51444	-0.003947348	-0.8304515	0	0	0	0
11.53665	0.007447231	-0.8451667	0.5129253	-0.6624023	13.3129	-17.19255
11.55322	0.007447231	-0.8451667	0	0	-13.22582	17.0801
11.56978	0.008289284	-0.8462601	0.05082937	-0.06599721	1.534078	-1.991857
11.58665	0.008289284	-0.8462601	0	0	-1.520381	1.974072
11.60292	0.008289284	-0.8462601	0	0	0	0
11.61948	0.008289284	-0.8462601	0	0	0	0
11.6362	0.008289284	-0.8462601	0	0	0	0
11.65272	0.008289284	-0.8462601	0	0	0	0
11.66919	0.00826297	-0.8462259	-0.001598377	0.002078144	-0.04845807	0.06300321
11.68575	0.00826297	-0.8462259	0	0	0.04839231	-0.06291771
11.70232	0.00826297	-0.8462259	0	0	0	0
11.71888	0.00826297	-0.8462259	0	0	0	0
11.73551	0.00826297	-0.8462259	0	0	0	0
11.75205	0.00826297	-0.8462259	0	0	0	0
11.76858	0.008210341	-0.8461575	-0.003182685	0.004134465	-0.09624198	0.1250231
11.78515	0.008210341	-0.8461575	0	0	0.09614217	-0.1248934
11.80172	0.008210341	-0.8461575	0	0	0	0
11.81829	0.008210341	-0.8461575	0	0	0	0
11.835	0.008210341	-0.8461575	0	0	0	0
11.85142	0.008210341	-0.8461575	0	0	0	0
11.86798	0.008157713	-0.8460891	-0.003176822	0.004126849	-0.09630074	0.1250995
11.88462	0.008157713	-0.8460891	0	0	0.09568389	-0.1242981
11.90112	0.008157713	-0.8460891	0	0	0	0
11.91769	0.0081314	-0.8460549	-0.001588291	0.002065105	-0.04803427	0.06245441
11.93425	0.0081314	-0.8460549	0	0	0.04793611	-0.06232678
11.95141	0.0081314	-0.8460549	0	0	0	0
11.96738	0.008157713	-0.8460208	0.00164678	0.002137422	0.04970277	0.06451122
11.98401	0.008157713	-0.8460208	0	0	-0.05050671	-0.06555468
12.00061	0.008157713	-0.8460208	0	0	0	0
12.01709	0.0081314	-0.8459866	-0.001597395	0.002073322	-0.04829704	0.06268666
12.03365	0.0081314	-0.8459866	0	0	0.04834443	-0.06274818
12.05022	0.0081314	-0.8459866	0	0	0	0
12.06679	0.008105085	-0.8459524	-0.001588622	0.002065461	-0.04794884	0.06234113
12.08337	0.008105085	-0.8459524	0	0	0.04792539	-0.06231064
12.09992	0.008105085	-0.8459524	0	0	0	0
12.11652	0.008078772	-0.8459182	-0.00158528	0.002057598	-0.04782182	0.06206986
12.13305	0.008078772	-0.8459182	0	0	0.04784522	-0.06210023
12.15031	0.008078772	-0.8459182	0	0	0	0
12.16628	0.008078772	-0.8459182	0	0	0	0
12.18275	0.008078772	-0.8459182	0	0	0	0
12.19932	0.008078772	-0.8459182	0	0	0	0
12.21589	0.008078772	-0.8459182	0	0	0	0
12.23245	0.008078772	-0.8459182	0	0	0	0
12.24902	0.008078772	-0.8459182	0	0	0	0
12.26558	0.008026144	-0.8458499	-0.003177188	0.004127325	-0.09589875	0.1245772
12.28215	0.008026144	-0.8458499	0	0	0.09589047	-0.1245665
12.29872	0.008026144	-0.8458499	0	0	0	0
12.31528	0.007841945	-0.8456107	-0.01112018	0.01443664	-0.3356368	0.4357363
12.332	0.007841945	-0.8456107	0	0	0.3340885	-0.4337263
12.34861	0.007841945	-0.8456107	0	0	0	0
12.3651	0.007789316	-0.8454058	-0.003190257	0.01242557	-0.09639034	0.3754258
12.38155	0.007789316	-0.8454058	0	0	0.09683117	-0.3771428
12.39812	0.007789316	-0.8454058	0	0	0	0
12.41468	0.004078925	-0.8397227	-0.2239855	0.3430699	-6.760478	10.35477
12.4315	0.004078925	-0.8397227	0	0	6.710259	-10.27785
12.44782	0.004078925	-0.8397227	0	0	0	0
12.46438	-0.01602494	-0.8129746	-1.213542	1.614613	-36.90197	49.09793
12.48095	-0.01602494	-0.8129746	0	0	36.62582	-48.73051
12.49752	-0.01602494	-0.8129746	0	0	0	0
12.51408	-0.0449434	-0.7754236	-1.745823	2.266973	-52.69208	68.42133
12.53065	-0.0449434	-0.7754236	0	0	52.69056	-68.41936
12.54722	-0.0449434	-0.7754236	0	0	0	0
12.56387	-0.06375558	-0.7295241	-1.129977	2.75701	-34.02148	83.00843
12.58035	-0.06375558	-0.7295241	0	0	34.10276	-83.20673
12.59731	-0.06375558	-0.7295241	0	0	0	0
12.61348	-0.06873366	-0.6671449	-0.3078678	3.857819	-9.292271	116.4392
12.63096	-0.06873366	-0.6671449	0	0	9.150306	-114.6603
12.64662	-0.06873366	-0.6671449	0	0	0	0
12.66318	-0.06483007	-0.6111442	0.2357026	3.381377	7.314572	104.9345
12.68044	-0.06483007	-0.6111442	0	0	-6.96949	-99.98396
12.69632	-0.06483007	-0.6111442	0	0	0	0
12.71288	-0.05649246	-0.5619457	0.5034332	2.97065	15.51745	91.56508
12.72945	-0.05649246	-0.5619457	0	0	-15.19452	-89.65956
12.74602	-0.05649246	-0.5619457	0	0	0	0
12.76311	-0.05116583	-0.5066876	0.3118231	3.234836	9.266287	96.12795
12.77962	-0.05116583	-0.5066876	0	0	-9.282333	-96.29442
12.79572	-0.05116583	-0.5066876	0	0	0	0
12.81229	-0.04386658	-0.4607086	0.4405837	2.775294	13.48666	84.95421
12.82898	-0.04386658	-0.4607086	0	0	-13.2469	-83.44392
12.84542	-0.04386658	-0.4607086	0	0	0	0
12.86542	-0.04008378	-0.4177422	0.1891536	2.148477	5.190974	58.96102
12.88199	-0.04008378	-0.4177422	0	0	-5.172563	-58.7519
12.89855	-0.04008378	-0.4177422	0	0	0	0
12.91512	-0.03892769	-0.3952664	0.06979768	1.356959	2.106741	40.95781
12.93169	-0.03892769	-0.3952664	0	0	-2.106498	-40.95309
12.94825	-0.03892769	-0.3952664	0	0	0	0
12.96484	-0.04588882	-0.3846889	-0.4198358	0.6379396	-12.66593	19.24586
12.98139	-0.04588882	-0.3846889	0	0	12.6714	-19.25416
12.99795	-0.04588882	-0.3846889	0	0	0	0
13.01452	-0.05824982	-0.3740031	-0.7462406	0.6451077	-22.52353	19.47107
13.03179	-0.05824982	-0.3740031	0	0	22.05191	-19.06336
13.04777	-0.05824982	-0.3740031	0	0	0	0
13.06422	-0.05851208	-0.3730657	-0.0159448	0.05699542	-0.4917596	1.757817
13.08079	-0.05851208	-0.3730657	0	0	0.4829247	-1.726236
13.09735	-0.05851208	-0.3730657	0	0	0	0
13.11392	-0.05851208	-0.3730657	0	0	0	0
13.13049	-0.05851208	-0.3730657	0	0	0	0
13.14751	-0.05851208	-0.3730657	0	0	0	0
13.16399	-0.05848585	-0.373088	0.001591067	-0.001354215	0.04748952	-0.04042006
13.18019	-0.05848585	-0.373088	0	0	-0.04868549	0.04143799
13.19756	-0.05848585	-0.373088	0	0	0	0
13.21332	-0.05848585	-0.373088	0	0	0	0
13.22989	-0.05848585	-0.373088	0	0	0	0
13.24646	-0.05848585	-0.373088	0	0	0	0
13.26318	-0.05845963	-0.3731103	0.001567845	-0.001332668	0.04708726	-0.04002417
13.27959	-0.05845963	-0.3731103	0	0	-0.04731629	0.04021885
13.29691	-0.05845963	-0.3731103	0	0	0	0
13.31272	-0.05840718	-0.3731549	0.00331645	-0.002822751	0.1001022	-0.0852006
13.32929	-0.05840718	-0.3731549	0	0	-0.1024225	0.08717547
13.34611	-0.05840718	-0.3731549	0	0	0	0
13.36242	-0.05830227	-0.3732442	0.006432372	-0.005472999	0.1941294	-0.1651754
13.37899	-0.05830227	-0.3732442	0	0	-0.1956725	0.1664884
13.39555	-0.05830227	-0.3732442	0	0	0	0
13.41272	-0.05824982	-0.3732888	0.003055046	-0.002600261	0.09055684	-0.07707622
13.42869	-0.05824982	-0.3732888	0	0	-0.09220679	0.07848055
13.44525	-0.05824982	-0.3732888	0	0	0	0
13.46182	-0.05817114	-0.3733558	0.004750066	-0.004040964	0.1433655	-0.1219636
13.47839	-0.05817114	-0.3733558	0	0	-0.1433697	0.1219671
13.49496	-0.05817114	-0.3733558	0	0	0	0
13.51174	-0.05811869	-0.3734004	0.00312571	-0.002660406	0.09372447	-0.07977231
13.5283	-0.05811869	-0.3734004	0	0	-0.09373788	0.07978372
13.54465	-0.05811869	-0.3734004	0	0	0	0
13.56157	-0.05809246	-0.3734227	0.001550652	-0.001319628	0.04661094	-0.03966663
13.57779	-0.05809246	-0.3734227	0	0	-0.04679202	0.03982073
13.59435	-0.05809246	-0.3734227	0	0	0	0
13.61092	-0.05806623	-0.3734451	0.001583189	-0.00134751	0.04779175	-0.0406773
13.62749	-0.05806623	-0.3734451	0	0	-0.04777113	0.04065974
13.64405	-0.05806623	-0.3734451	0	0	0	0
13.66064	-0.05798755	-0.3735567	0.004744876	-0.006730576	0.1431718	-0.2030883
13.67719	-0.05798755	-0.3735567	0	0	-0.1432007	0.2031292
13.69375	-0.05798755	-0.3735567	0	0	0	0
13.71032	-0.05796132	-0.373579	0.001583189	-0.00134751	0.04778488	-0.04067145
13.72689	-0.05796132	-0.373579	0	0	-0.04778212	0.0406691
13.74403	-0.05796132	-0.373579	0	0	0	0
13.76002	-0.05796132	-0.373579	0	0	0	0
13.77711	-0.05796132	-0.373579	0	0	0	0
13.79357	-0.05796132	-0.373579	0	0	0	0
13.80972	-0.05793509	-0.3736013	0.001623991	-0.001382041	0.04979611	-0.04237726
13.82629	-0.05793509	-0.3736013	0	0	-0.04963356	0.04223892
13.84292	-0.05793509	-0.3736013	0	0	0	0
13.85942	-0.05790887	-0.3736236	0.001588861	-0.001352337	0.04795191	-0.04081361
13.87599	-0.05790887	-0.3736236	0	0	-0.0480404	0.04088893
13.89256	-0.05790887	-0.3736236	0	0	0	0
13.90912	-0.05790887	-0.3736236	0	0	0	0
13.92569	-0.05790887	-0.3736236	0	0	0	0
13.94297	-0.05790887	-0.3736236	0	0	0	0
13.95882	-0.05788264	-0.373646	0.001654968	-0.001408403	0.04995133	-0.04250936
13.97539	-0.05788264	-0.373646	0	0	-0.05105199	0.04344603
13.99246	-0.05788264	-0.373646	0	0	0	0
14.00852	-0.05788264	-0.3736906	0	-0.00277984	0	-0.08390056
14.02509	-0.05788264	-0.3736906	0	0	0	0.08519533
14.04166	-0.05788264	-0.3736906	0	0	0	0
14.06241	-0.05785641	-0.3737129	0.001263845	-0.001075704	0.03386669	-0.02882517
14.07898	-0.05785641	-0.3737129	0	0	-0.03386236	0.02882149
14.09554	-0.05783018	-0.3737352	0.001583414	-0.00134751	0.04778341	-0.04066442
14.11212	-0.05783018	-0.3737352	0	0	-0.04777516	0.0406574
14.12883	-0.05783018	-0.3737352	0	0	0	0
14.14524	-0.05780395	-0.3737576	0.001598373	-0.001360433	0.04826121	-0.04107687
14.16181	-0.05780395	-0.3737576	0	0	-0.04846916	0.04125387
14.17838	-0.05780395	-0.3737576	0	0	0	0
14.20285	-0.05780395	-0.3737576	0	0	0	0
14.21942	-0.05780395	-0.3737576	0	0	0	0
14.23621	-0.05780395	-0.3737576	0	0	0	0
14.25255	-0.05780395	-0.3737576	0	0	0	0
14.26952	-0.05780395	-0.3737576	0	0	0	0
14.28598	-0.05777773	-0.3737799	0.001593413	-0.001356019	0.04765587	-0.04055589
14.30225	-0.05777773	-0.3737799	0	0	-0.04868767	0.04143397
14.31918	-0.05777773	-0.3737799	0	0	0	0
14.33538	-0.05777773	-0.3737799	0	0	0	0
14.35195	-0.05777773	-0.3737799	0	0	0	0
14.36859	-0.05777773	-0.3737799	0	0	0	0
14.38508	-0.0577515	-0.3738022	0.001590515	-0.001353745	0.0480115	-0.04086433
14.40165	-0.0577515	-0.3738022	0	0	-0.048114	0.04095157
14.41822	-0.0577515	-0.3738022	0	0	0	0
14.43478	-0.0577515	-0.3738022	0	0	0	0
14.45135	-0.0577515	-0.3738022	0	0	0	0
14.46792	-0.0577515	-0.3738022	0	0	0	0
14.4846	-0.0577515	-0.3738022	0	0	0	0
14.50105	-0.0577515	-0.3738022	0	0	0	0
14.51762	-0.0577515	-0.3738022	0	0	0	0
14.5975	-0.05772527	-0.3738245	0.0003283735	-0.0002794509	0.003404772	-0.002897513
14.61406	-0.05772527	-0.3738245	0	0	-0.003404805	0.002897542
14.63288	-0.05772527	-0.3738245	0	0	0	0
14.64945	-0.05772527	-0.3738245	0	0	0	0
14.66602	-0.05772527	-0.3738245	0	0	0	0
14.68258	-0.0577515	-0.3738469	-0.001583505	-0.001347588	-0.04779579	-0.04067496
14.69967	-0.0577515	-0.3738469	0	0	0.04705889	0.04004784
14.71609	-0.0577515	-0.3738469	0	0	0	0
14.73228	-0.05772527	-0.3738692	0.001619592	-0.001380138	0.04965542	-0.04231395
14.74885	-0.05772527	-0.3738692	0	0	-0.04943139	0.04212305
14.76611	-0.05772527	-0.3738692	0	0	0	0
14.78216	-0.05772527	-0.3738692	0	0	0	0
14.79855	-0.05772527	-0.3738692	0	0	0	0
14.81518	-0.05772527	-0.3738692	0	0	0	0
14.83172	-0.05772527	-0.3738692	0	0	0	0
14.84825	-0.05772527	-0.3738692	0	0	0	0
14.86496	-0.05772527	-0.3738692	0	0	0	0
14.88138	-0.05769904	-0.3738915	0.001597073	-0.001359327	0.04820392	-0.04102811
14.89795	-0.05769904	-0.3738915	0	0	-0.04840875	0.04120245
14.91452	-0.05769904	-0.3738915	0	0	0	0
14.93558	-0.05769904	-0.3738915	0	0	0	0
14.95215	-0.05769904	-0.3738915	0	0	0	0
14.96871	-0.05769904	-0.3738915	0	0	0	0
14.98528	-0.05769904	-0.3738915	0	0	0	0
15.00185	-0.05769904	-0.3738915	0	0	0	0
15.0189	-0.05769904	-0.3738915	0	0	0	0
15.03498	-0.05769904	-0.3738915	0	0	0	0
15.05155	-0.05769904	-0.3738915	0	0	0	0
15.06811	-0.05769904	-0.3738915	0	0	0	0
15.08469	-0.05769904	-0.3738915	0	0	0	0
15.10125	-0.05769904	-0.3738915	0	0	0	0
15.11781	-0.05769904	-0.3738915	0	0	0	0
15.13454	-0.05769904	-0.3738915	0	0	0	0
15.15095	-0.05769904	-0.3738915	0	0	0	0
15.16751	-0.05769904	-0.3738915	0	0	0	0
15.18408	-0.05769904	-0.3738915	0	0	0	0
15.20086	-0.05769904	-0.3738915	0	0	0	0
15.21788	-0.05767281	-0.3739139	0.001540835	-0.001311274	0.04558538	-0.03879387
15.23445	-0.05767281	-0.3739139	0	0	-0.04586359	0.03903063
15.25102	-0.05767281	-0.3739139	0	0	0	0
15.26758	-0.05767281	-0.3739139	0	0	0	0
15.28415	-0.05767281	-0.3739139	0	0	0	0
15.30072	-0.05767281	-0.3739139	0	0	0	0
15.31728	-0.05767281	-0.3739139	0	0	0	0
15.33385	-0.05767281	-0.3739139	0	0	0	0
15.35042	-0.05767281	-0.3739139	0	0	0	0
15.36698	-0.05767281	-0.3739139	0	0	0	0
15.38355	-0.05767281	-0.3739139	0	0	0	0
15.40024	-0.05767281	-0.3739139	0	0	0	0
15.41668	-0.05767281	-0.3739139	0	0	0	0
15.4333	-0.05767281	-0.3739139	0	0	0	0
15.44996	-0.05767281	-0.3739139	0	0	0	0
15.46638	-0.05767281	-0.3739139	0	0	0	0
15.48295	-0.05767281	-0.3739139	0	0	0	0
15.49952	-0.05767281	-0.3739139	0	0	0	0
15.51608	-0.05769904	-0.3739362	-0.001584053	-0.001348053	-0.04781231	-0.04068901
15.53265	-0.05769904	-0.3739362	0	0	0.04781644	0.04069253
15.54921	-0.05769904	-0.3739362	0	0	0	0
15.56598	-0.05769904	-0.3739362	0	0	0	0
15.58235	-0.05769904	-0.3739362	0	0	0	0
15.59891	-0.05769904	-0.3739362	0	0	0	0
15.61877	-0.05769904	-0.3739362	0	0	0	0
15.63534	-0.05769904	-0.3739362	0	0	0	0
15.65191	-0.05769904	-0.3739362	0	0	0	0
15.66847	-0.05769904	-0.3739362	0	0	0	0
15.68504	-0.05769904	-0.3739362	0	0	0	0
15.70161	-0.05769904	-0.3739362	0	0	0	0
15.71833	-0.05769904	-0.3739362	0	0	0	0
15.73474	-0.05769904	-0.3739362	0	0	0	0
15.75131	-0.05769904	-0.3739362	0	0	0	0
15.76787	-0.05769904	-0.3739362	0	0	0	0
15.78444	-0.05769904	-0.3739362	0	0	0	0
15.80101	-0.05769904	-0.3739362	0	0	0	0
15.81757	-0.05769904	-0.3739362	0	0	0	0
15.83414	-0.05769904	-0.3739362	0	0	0	0
15.85071	-0.05769904	-0.3739362	0	0	0	0
15.86727	-0.05769904	-0.3739362	0	0	0	0
15.88384	-0.05769904	-0.3739362	0	0	0	0
15.90077	-0.05769904	-0.3739362	0	0	0	0
15.91697	-0.05767281	-0.3739585	0.001619401	-0.001378135	0.04887643	-0.0415946
15.93354	-0.05767281	-0.3739585	0	0	-0.04942701	0.04206315
15.9503	-0.05767281	-0.3739585	0	0	0	0
15.96686	-0.05767281	-0.3739585	0	0	0	0
15.98351	-0.05767281	-0.3739585	0	0	0	0
15.99981	-0.05767281	-0.3739585	0	0	0	0
16.0169	-0.05767281	-0.3739585	0	0	0	0
16.03294	-0.05767281	-0.3739585	0	0	0	0
16.04951	-0.05767281	-0.3739585	0	0	0	0
16.06635	-0.05767281	-0.3739585	0	0	0	0
16.08264	-0.05767281	-0.3739585	0	0	0	0
16.09921	-0.05767281	-0.3739585	0	0	0	0
16.11577	-0.05767281	-0.3739585	0	0	0	0
16.13257	-0.05767281	-0.3739585	0	0	0	0
16.1489	-0.05767281	-0.3739585	0	0	0	0
16.16547	-0.05767281	-0.3739585	0	0	0	0
16.18209	-0.05767281	-0.3739585	0	0	0	0
16.19962	-0.05767281	-0.3739585	0	0	0	0
16.21648	-0.05767281	-0.3739585	0	0	0	0
16.23313	-0.05767281	-0.3739585	0	0	0	0
16.24961	-0.05767281	-0.3739585	0	0	0	0
16.26618	-0.05767281	-0.3739585	0	0	0	0
16.28275	-0.05767281	-0.3739585	0	0	0	0
16.29931	-0.05767281	-0.3739585	0	0	0	0
16.31588	-0.05767281	-0.3739585	0	0	0	0
16.33268	-0.05767281	-0.3739585	0	0	0	0
16.34929	-0.05767281	-0.3739585	0	0	0	0
16.36558	-0.05767281	-0.3739585	0	0	0	0
16.38234	-0.05767281	-0.3739585	0	0	0	0
16.39871	-0.05767281	-0.3739585	0	0	0	0
16.41528	-0.05767281	-0.3739585	0	0	0	0
16.43185	-0.05767281	-0.3739585	0	0	0	0
16.44842	-0.05767281	-0.3739585	0	0	0	0
16.46498	-0.05767281	-0.3739585	0	0	0	0
16.48168	-0.05767281	-0.3739585	0	0	0	0
16.49811	-0.05767281	-0.3739585	0	0	0	0
16.51468	-0.05767281	-0.3739585	0	0	0	0
16.53125	-0.05767281	-0.3739585	0	0	0	0
16.54868	-0.05767281	-0.3739585	0	0	0	0
16.56471	-0.05767281	-0.3739585	0	0	0	0
16.5812	-0.05767281	-0.3739585	0	0	0	0
16.59751	-0.05767281	-0.3739585	0	0	0	0
16.61408	-0.05767281	-0.3739585	0	0	0	0
16.63065	-0.05767281	-0.3739585	0	0	0	0
16.64727	-0.05767281	-0.3739585	0	0	0	0
16.66378	-0.05767281	-0.3739585	0	0	0	0
16.68035	-0.05767281	-0.3739585	0	0	0	0
16.69705	-0.05767281	-0.3739585	0	0	0	0
16.71348	-0.05767281	-0.3739585	0	0	0	0
16.73005	-0.05767281	-0.3739585	0	0	0	0
16.74662	-0.05767281	-0.3739585	0	0	0	0
16.76326	-0.05767281	-0.3739585	0	0	0	0
16.77975	-0.05767281	-0.3739585	0	0	0	0
16.79632	-0.05767281	-0.3739585	0	0	0	0
16.81288	-0.05767281	-0.3739585	0	0	0	0
16.82945	-0.05767281	-0.3739585	0	0	0	0
16.84614	-0.05767281	-0.3739585	0	0	0	0
16.86258	-0.05767281	-0.3739585	0	0	0	0
16.87915	-0.05767281	-0.3739585	0	0	0	0
16.89571	-0.05767281	-0.3739585	0	0	0	0
16.91228	-0.05767281	-0.3739585	0	0	0	0
16.92893	-0.05767281	-0.3739585	0	0	0	0
16.94542	-0.05767281	-0.3739585	0	0	0	0
16.96515	-0.05767281	-0.3739585	0	0	0	0
16.98172	-0.05767281	-0.3739585	0	0	0	0
16.99829	-0.05767281	-0.3739585	0	0	0	0
17.01485	-0.05767281	-0.3739585	0	0	0	0
17.03205	-0.05767281	-0.3739585	0	0	0	0
17.04799	-0.05767281	-0.3739585	0	0	0	0
17.06455	-0.05767281	-0.3739585	0	0	0	0
17.08112	-0.05767281	-0.3739585	0	0	0	0
17.0979	-0.05767281	-0.3739585	0	0	0	0
17.11425	-0.05767281	-0.3739585	0	0	0	0
17.13106	-0.05767281	-0.3739585	0	0	0	0
17.14738	-0.05767281	-0.3739585	0	0	0	0
17.16395	-0.05767281	-0.3739585	0	0	0	0
17.18067	-0.05767281	-0.3739585	0	0	0	0
17.19708	-0.05767281	-0.3739585	0	0	0	0
17.21365	-0.0577515	-0.3738915	-0.004747831	0.004040669	-0.1439444	0.1225047
17.23022	-0.0577515	-0.3738915	0	0	0.1432898	-0.1219476
17.24693	-0.0577515	-0.3738915	0	0	0	0
17.26335	-0.05848585	-0.3732219	-0.04474302	0.04080113	-1.350425	1.231452
17.28009	-0.05848585	-0.3732219	0	0	1.349415	-1.230531
17.29661	-0.05848585	-0.3732219	0	0	0	0
17.31305	-0.08176467	-0.3512108	-1.416363	1.339228	-42.97849	40.63786
17.32968	-0.08176467	-0.3512108	0	0	42.82976	-40.49723
17.34618	-0.08176467	-0.3512108	0	0	0	0
17.36283	-0.1079732	-0.294789	-1.573976	3.388467	-47.47809	102.2112
17.37942	-0.1079732	-0.294789	0	0	47.36092	-101.9589
17.39589	-0.1079732	-0.294789	0	0	0	0
17.41263	-0.08947102	-0.2419887	1.105214	3.153986	33.27879	94.9688
17.42902	-0.08947102	-0.2419887	0	0	-33.35542	-95.18747
17.44558	-0.08947102	-0.2419887	0	0	0	0
17.46215	-0.06448939	-0.2115102	1.507894	1.839689	45.51357	55.52832
17.47872	-0.06448939	-0.2115102	0	0	-45.50571	-55.51873
17.49529	-0.06448939	-0.2115102	0	0	0	0
17.51249	-0.05720069	-0.1822125	0.4236562	1.702931	12.54478	50.42507
17.52856	-0.05720069	-0.1822125	0	0	-12.7332	-51.18243
17.54499	-0.05720069	-0.1822125	0	0	0	0
17.56158	-0.05499712	-0.1378646	0.1327941	2.672531	4.021159	80.92735
17.57812	-0.05499712	-0.1378646	0	0	-4.007965	-80.6618
17.59469	-0.05499712	-0.1378646	0	0	0	0
17.61125	-0.03687801	-0.1018666	1.094049	2.173599	33.02608	65.61447
17.62782	-0.03687801	-0.1018666	0	0	-33.02037	-65.60314
17.64438	-0.03687801	-0.1018666	0	0	0	0
17.6613	-0.02394279	-0.06893767	0.7647472	1.9468	22.84342	58.152
17.67752	-0.02394279	-0.06893767	0	0	-23.07879	-58.75116
17.69408	-0.02394279	-0.06893767	0	0	0	0
17.71065	-0.01610387	-0.05537694	0.4732127	0.8186218	14.28405	24.71032
17.72749	-0.01610387	-0.05537694	0	0	-14.16418	-24.50294
17.74378	-0.01610387	-0.05537694	0	0	0	0
17.76035	-0.008210341	-0.03338407	0.4764544	1.327492	14.50045	40.40102
17.77692	-0.008210341	-0.03338407	0	0	-14.37859	-40.0615
17.79365	-0.008210341	-0.03338407	0	0	0	0
17.81005	-0.02194384	-0.00110041	-0.8375376	1.968819	-25.27839	59.42249
17.82662	-0.02194384	-0.00110041	0	0	25.4071	-59.72505
17.84318	-0.02194384	-0.00110041	0	0	0	0
17.85975	-0.03456518	0.02680312	-0.7618251	1.68426	-22.99325	50.834
17.87662	-0.03456518	0.02680312	0	0	22.7834	-50.37005
17.89335	-0.03456518	0.02680312	0	0	0	0
17.90989	-0.03138443	0.03715456	0.1923004	0.6258233	5.780345	18.81158
17.92647	-0.03138443	0.03715456	0	0	-5.806311	-18.89609
17.94345	-0.03138443	0.03715456	0	0	0	0
17.96075	-0.0309112	0.03745255	0.0273515	0.01722307	0.7977338	0.502328
17.97732	-0.0309112	0.03745255	0	0	-0.8075269	-0.5084947
17.99389	-0.0309112	0.03745255	0	0	0	0
18.01045	-0.03093749	0.03743393	-0.001587125	-0.001124199	-0.04790504	-0.03393231
18.02702	-0.03093749	0.03743393	0	0	0.04789953	0.03392841
18.04359	-0.03093749	0.03743393	0	0	0	0
18.06058	-0.0309112	0.0374153	0.001547393	-0.001096057	0.04611116	-0.03266166
18.07677	-0.0309112	0.0374153	0	0	-0.04663063	0.03302962
18.09329	-0.0309112	0.0374153	0	0	0	0
18.10986	-0.0309112	0.0373408	0	-0.004496729	0	-0.1359228
18.12646	-0.0309112	0.0373408	0	0	0	0.1355555
18.14315	-0.0309112	0.0373408	0	0	0	0
18.15966	-0.0309112	0.03726631	0	-0.00451261	0	-0.1359404
18.17612	-0.0309112	0.03726631	0	0	0	0.1368605
18.19269	-0.0309112	0.03726631	0	0	0	0
18.20925	-0.0309112	0.03722906	0	-0.002248624	0	-0.06787141
18.22582	-0.0309112	0.03722906	0	0	0	0.0678636
18.24239	-0.0309112	0.03722906	0	0	0	0
18.25957	-0.03093749	0.03717319	-0.001530046	-0.00325174	-0.04533653	-0.09635176
18.27552	-0.03093749	0.03717319	0	0	0.04617687	0.09813769
18.29209	-0.03093749	0.03717319	0	0	0	0
18.31595	-0.03099008	0.03706143	-0.00220398	-0.00468419	-0.0545211	-0.1158755
18.33268	-0.03099008	0.03706143	0	0	0.05429821	0.1154017
18.34908	-0.03101637	0.03700556	-0.001602812	-0.003406386	-0.04837017	-0.102799
18.36567	-0.03101637	0.03700556	0	0	0.0485827	0.1032507
18.38229	-0.03101637	0.03700556	0	0	0	0
18.39929	-0.03104266	0.03683792	-0.001546069	-0.009858516	-0.04598805	-0.293243
18.41535	-0.03104266	0.03683792	0	0	0.04676004	0.2981656
18.43192	-0.03104266	0.03683792	0	0	0	0
18.44861	-0.03125298	0.03657714	-0.01259515	-0.01561675	-0.3786401	-0.4694766
18.46505	-0.03125298	0.03657714	0	0	0.3801442	0.4713415
18.4817	-0.03125298	0.03657714	0	0	0	0
18.49819	-0.03390805	0.03424792	-0.1609832	-0.1412263	-4.857084	-4.260991
18.5149	-0.03390805	0.03424792	0	0	4.848434	4.253403
18.53131	-0.03390805	0.03424792	0	0	0	0
18.54788	-0.03314575	0.03370733	0.04602304	-0.03263747	1.395646	-0.9897296
18.56445	-0.03314575	0.03370733	0	0	-1.389138	0.9851143
18.58105	-0.03314575	0.03370733	0	0	0	0
18.5976	-0.0303328	0.03148821	0.1700251	-0.1341316	5.128416	-4.045769
18.61415	-0.0303328	0.03148821	0	0	-5.137875	4.053231
18.71338	-0.0303328	0.03148821	0	0	0	0
18.73831	-0.02394279	-0.09078076	0.2562689	-4.903553	2.063977	-39.49298
18.75488	-0.02394279	-0.09078076	0	0	-6.174857	118.1522
18.77205	-0.009420774	-0.1733624	0.845781	-4.809663	25.0697	-142.5627
18.78801	-0.009420774	-0.1733624	0	0	-25.52425	145.1476
18.80458	-0.009420774	-0.1733624	0	0	0	0
18.82138	0.01252566	-0.2560346	1.306341	-4.920982	39.15051	-147.4798
18.83771	0.01252566	-0.2560346	0	0	-39.42772	148.5241
18.85442	0.01252566	-0.2560346	0	0	0	0
18.87084	0.02131256	-0.2976691	0.5349979	-2.534952	16.14813	-76.5138
18.88741	0.02131256	-0.2976691	0	0	-16.21534	76.83228
18.9047	0.02131256	-0.2976691	0	0	0	0
18.92054	0.02283813	-0.3126773	0.09627333	-0.9471123	2.905869	-28.5872
18.93714	0.02283813	-0.3126773	0	0	-2.967718	29.19565
18.95368	0.02283813	-0.3126773	0	0	0	0
18.97049	0.0224962	-0.3129141	-0.0203438	-0.01409123	-0.6100439	-0.4225498
18.98753	0.0224962	-0.3129141	0	0	0.6009357	0.4162409
19.00356	0.0224962	-0.3129141	0	0	0	0
19.02001	0.0224962	-0.3129141	0	0	0	0
19.03654	0.0224962	-0.3129141	0	0	0	0
19.05308	0.0224962	-0.3129141	0	0	0	0
19.07368	0.0224962	-0.3129141	0	0	0	0
19.09025	0.0224962	-0.3129141	0	0	0	0
19.10681	0.0224699	-0.3128926	-0.001587982	0.001300884	-0.04792816	0.03926301
19.12354	0.0224699	-0.3128926	0	0	0.04770298	-0.03907854
19.13995	0.0224699	-0.3128926	0	0	0	0
19.15651	0.0224173	-0.3128495	-0.003175965	0.002599968	-0.09631653	0.07884846
19.1731	0.0224173	-0.3128495	0	0	0.09579566	-0.07842205
19.18965	0.0224173	-0.3128495	0	0	0	0
19.20622	0.0224173	-0.3128495	0	0	0	0
19.22278	0.0224173	-0.3128495	0	0	0	0
19.23935	0.0224173	-0.3128495	0	0	0	0
19.25591	0.0224173	-0.3128495	0	0	0	0
19.27248	0.0224173	-0.3128495	0	0	0	0
19.28905	0.0224173	-0.3128495	0	0	0	0
19.30562	0.0224173	-0.3128495	0	0	0	0
19.32265	0.0224173	-0.3128495	0	0	0	0
19.33875	0.0224173	-0.3128495	0	0	0	0
19.35609	0.0224173	-0.3128495	0	0	0	0
19.37188	0.0224173	-0.3128495	0	0	0	0
19.38923	0.0224173	-0.3128495	0	0	0	0
19.40502	0.0224173	-0.3128495	0	0	0	0
19.42159	0.0224173	-0.3128495	0	0	0	0
19.43851	0.0224173	-0.3128495	0	0	0	0
19.45501	0.0224173	-0.3128926	0	-0.002608981	0	-0.07804734
19.47128	0.0224173	-0.3128926	0	0	0	0.07959602
19.48785	0.0224173	-0.3128926	0	0	0	0
19.50442	0.02225948	-0.3130648	-0.009525813	-0.01039928	-0.2875062	-0.3138689
19.52099	0.02225948	-0.3130648	0	0	0.2874731	0.3138328
19.53766	0.02225948	-0.3130648	0	0	0	0
19.55412	0.02215427	-0.313151	-0.006391788	-0.005234284	-0.1929157	-0.1579801
19.57105	0.02215427	-0.313151	0	0	0.1913952	0.156735
19.58725	0.02215427	-0.313151	0	0	0	0
19.60415	0.02212797	-0.3131295	-0.001556262	0.001274898	-0.04701951	0.03851864
19.62043	0.02212797	-0.3131295	0	0	0.04691138	-0.03843005
19.63717	0.02212797	-0.3131295	0	0	0	0
19.65366	0.02212797	-0.3131295	0	0	0	0
19.67008	0.02212797	-0.3131295	0	0	0	0
19.68665	0.02212797	-0.3131295	0	0	0	0
19.7033	0.02210166	-0.3131079	-0.00158027	0.001294474	-0.04758034	0.03897532
19.7198	0.02210166	-0.3131079	0	0	0.04767617	-0.03905381
19.73679	0.02210166	-0.3131079	0	0	0	0
19.75292	0.02197015	-0.3130002	-0.008155077	0.006676892	-0.2462199	0.2015902
19.76949	0.02197015	-0.3130002	0	0	0.2494375	-0.2042246
19.78605	0.02197015	-0.3130002	0	0	0	0
19.80262	0.02197015	-0.3130002	0	0	0	0
19.81954	0.02197015	-0.3130002	0	0	0	0
19.83615	0.02197015	-0.3130002	0	0	0	0
19.85232	0.0215756	-0.3126773	-0.02440519	0.01997736	-0.7446083	0.6095142
19.86906	0.0215756	-0.3126773	0	0	0.7416304	-0.6070765
19.88545	0.0215756	-0.3126773	0	0	0	0
19.90212	0.02152299	-0.3126342	-0.003156449	0.002583901	-0.09547617	0.07815774
19.91859	0.02152299	-0.3126342	0	0	0.09523442	-0.07795984
19.93515	0.02152299	-0.3126342	0	0	0	0
19.95172	0.02141778	-0.3126773	-0.006351423	-0.002599669	-0.1917526	-0.07848527
19.96829	0.02141778	-0.3126773	0	0	0.1916863	0.07845816
19.98497	0.02141778	-0.3126773	0	0	0	0
20.00142	0.02099691	-0.3125481	-0.02559498	0.007856905	-0.7725469	0.2371491
20.01799	0.02099691	-0.3125481	0	0	0.7753143	-0.2379987
20.03455	0.02099691	-0.3125481	0	0	0	0
20.05112	0.02039191	-0.3124404	-0.03652231	0.006498273	-1.102373	0.1961409
20.06769	0.02039191	-0.3124404	0	0	1.102246	-0.1961183
20.08483	0.02039191	-0.3124404	0	0	0	0
20.10082	0.01728775	-0.31016	-0.1941396	0.142625	-5.859821	4.304925
20.11739	0.01728775	-0.31016	0	0	5.962805	-4.380583
20.13395	0.01728775	-0.31016	0	0	0	0
20.15052	0.006473594	-0.3014308	-0.6528942	0.5270145	-19.70666	15.90716
20.16749	0.006473594	-0.3014308	0	0	19.47014	-15.71625
20.18365	0.006473594	-0.3014308	0	0	0	0
20.20022	-0.008473481	-0.2897012	-0.9022073	0.7080017	-27.56345	21.63025
20.21679	-0.008473481	-0.2897012	0	0	27.22867	-21.36753
20.23355	-0.008473481	-0.2897012	0	0	0	0
20.24992	-0.0242847	-0.2781515	-0.9659323	0.7055866	-29.1519	21.29465
20.26652	-0.0242847	-0.2781515	0	0	29.30202	-21.4043
20.28311	-0.0242847	-0.2781515	0	0	0	0
20.2997	-0.05725315	-0.2929353	-1.987234	-0.891119	-59.88522	-26.85383
20.31619	-0.05725315	-0.2929353	0	0	60.0786	26.94055
20.33327	-0.05725315	-0.2929353	0	0	0	0
20.34932	-0.09320287	-0.322436	-2.240609	-1.83867	-67.62951	-55.49755
20.36589	-0.09320287	-0.322436	0	0	68.70136	56.37713
20.38245	-0.09320287	-0.322436	0	0	0	0
20.40345	-0.1148606	-0.3405437	-1.031233	-0.8621946	-27.45178	-22.95193
20.42002	-0.1148606	-0.3405437	0	0	27.4476	22.94843
20.44309	-0.1164964	-0.3419665	-0.07090218	-0.06166811	-1.788633	-1.555687
20.45966	-0.1164964	-0.3419665	0	0	1.788633	1.555687
20.47626	-0.1163407	-0.3420978	0.009384517	-0.007916642	0.2829484	-0.2386912
20.49279	-0.1163407	-0.3420978	0	0	-0.2832416	0.2389385
20.50936	-0.1163407	-0.3420978	0	0	0	0
20.52593	-0.1163147	-0.3420759	0.001566817	0.001322171	0.04728664	0.03990319
20.5425	-0.1163147	-0.3420759	0	0	-0.04728664	-0.03990319
20.55907	-0.1163147	-0.3420759	0	0	0	0
20.57563	-0.1162887	-0.342054	0.001568531	0.001323237	0.04734109	0.03993767
20.59266	-0.1162887	-0.342054	0	0	-0.04670654	-0.03940236
20.60876	-0.1162887	-0.342054	0	0	0	0
20.62533	-0.1162368	-0.3420103	0.003134445	0.002642847	0.09593415	0.08088809
20.6419	-0.1162368	-0.3420103	0	0	-0.09460319	-0.07976587
20.65846	-0.1162368	-0.3420103	0	0	0	0
20.67503	-0.1162109	-0.3419884	0.001566817	0.001322171	0.04728936	0.03990549
20.6916	-0.1162109	-0.3419884	0	0	-0.04728664	-0.03990319
20.70816	-0.1162109	-0.3419884	0	0	0	0
20.72473	-0.1161589	-0.3419445	0.003134534	0.002644341	0.09460587	0.07981098
20.7413	-0.1161589	-0.3419445	0	0	-0.09459498	-0.07980179
20.75787	-0.1161589	-0.3419445	0	0	0	0
20.77443	-0.116107	-0.3419445	0.003134445	0	0.09460319	0
20.791	-0.116107	-0.3419445	0	0	-0.09459774	0
20.80757	-0.116107	-0.3419445	0	0	0	0
20.82413	-0.1160551	-0.3419884	0.003134084	-0.002644341	0.0945923	-0.07981098
20.84075	-0.1160551	-0.3419884	0	0	-0.09445093	0.0796917
20.85727	-0.1160551	-0.3419884	0	0	0	0
20.87395	-0.1160032	-0.3420321	0.003113386	-0.002624714	0.09377864	-0.0790593
20.8904	-0.1160032	-0.3420321	0	0	-0.09396219	0.07921403
20.90708	-0.1160032	-0.3420321	0	0	0	0
20.92353	-0.1159772	-0.342054	0.00157735	-0.001331059	0.04761	-0.04017606
20.9401	-0.1159772	-0.342054	0	0	-0.04776123	0.04030368
20.95667	-0.1159772	-0.342054	0	0	0	0
20.97323	-0.1159772	-0.342054	0	0	0	0
20.99	-0.1159772	-0.342054	0	0	0	0
21.00637	-0.1159772	-0.342054	0	0	0	0
21.02293	-0.1159512	-0.3420759	0.001567628	-0.001322475	0.04759881	-0.04015509
21.0395	-0.1159512	-0.3420759	0	0	-0.04731383	0.03991468
21.05607	-0.1159512	-0.3420759	0	0	0	0
21.07691	-0.1158993	-0.3421198	0.002491906	-0.00210221	0.06661617	-0.05619843
21.09363	-0.1158993	-0.3421198	0	0	-0.06634217	0.05596728
21.11017	-0.1158993	-0.3421198	0	0	0	0
21.12661	-0.1158993	-0.3421198	0	0	0	0
21.14318	-0.1158993	-0.3421198	0	0	0	0
21.16004	-0.1159253	-0.3420978	-0.001540138	0.001299284	-0.04607303	0.03886792
21.1763	-0.1159253	-0.3420978	0	0	0.04649217	-0.03922151
21.19287	-0.1159253	-0.3420978	0	0	0	0
21.20944	-0.1157435	-0.3419445	0.01097295	0.009255528	0.3311832	0.2793485
21.226	-0.1157435	-0.3419445	0	0	-0.3312023	-0.2793645
21.24257	-0.1157435	-0.3419445	0	0	0	0
21.25914	-0.1155618	-0.3417913	0.01097213	0.009252663	0.3311396	0.2792459
21.27571	-0.1155618	-0.3417913	0	0	-0.3311587	-0.279262
21.29253	-0.1155618	-0.3417913	0	0	0	0
21.30884	-0.1153021	-0.3415723	0.01592288	0.01342471	0.4805811	0.4051818
21.32541	-0.1153021	-0.3415723	0	0	-0.4843453	-0.4083554
21.34197	-0.1153021	-0.3415723	0	0	0	0
21.35854	-0.1106514	-0.3376144	0.2807786	0.2389596	8.474402	7.21223
21.3751	-0.1106514	-0.3376144	0	0	-8.475378	-7.21306
21.39167	-0.1106514	-0.3376144	0	0	0	0
21.41132	-0.08764333	-0.3184353	1.171153	0.9762485	32.33905	26.95715
21.42789	-0.08764333	-0.3184353	0	0	-32.33905	-26.95715
21.44456	-0.08764333	-0.3184353	0	0	0	0
21.46152	-0.05400008	-0.290892	1.983665	1.623998	58.98433	48.28964
21.47809	-0.05400008	-0.290892	0	0	-59.16216	-48.43523
21.49469	-0.05400008	-0.290892	0	0	0	0
21.51122	-0.02959662	-0.2712347	1.476055	1.188982	44.54999	35.8856
21.52783	-0.02959662	-0.2712347	0	0	-44.52948	-35.86909
21.54435	-0.02959662	-0.2712347	0	0	0	0
21.56092	-0.01844528	-0.2623307	0.6731738	0.5375108	20.34805	16.24736
21.57765	-0.01844528	-0.2623307	0	0	-20.2175	-16.14312
21.59405	-0.01844528	-0.2623307	0	0	0	0
21.61062	-0.0181559	-0.2621002	0.01746682	0.01391068	0.5297723	0.4219137
21.62719	-0.0181559	-0.2621002	0	0	-0.5271496	-0.419825
21.64445	-0.0181559	-0.2621002	0	0	0	0
21.66824	-0.0177876	-0.261807	0.01548358	0.0123286	0.3771887	0.3003317
21.6848	-0.0177876	-0.261807	0	0	-0.3836959	-0.305513
21.70151	-0.0177876	-0.261807	0	0	0	0
21.71808	-0.0177876	-0.261807	0	0	0	0
21.7345	-0.0177876	-0.261807	0	0	0	0
21.7542	-0.01776129	-0.2618279	0.001335493	-0.001063553	0.03696847	-0.02944076
21.77103	-0.01776129	-0.2618279	0	0	-0.03656307	0.02911791
21.78735	-0.01776129	-0.2618279	0	0	0	0
21.80391	-0.01768237	-0.2619326	0.004766494	-0.006324876	0.1449797	-0.1923801
21.82064	-0.01768237	-0.2619326	0	0	-0.1431526	0.1899557
21.83704	-0.01768237	-0.2619326	0	0	0	0
21.85405	-0.01760344	-0.2620793	0.004639931	-0.008620206	0.138906	-0.2580638
21.87059	-0.01760344	-0.2620793	0	0	-0.1382979	0.2569341
21.88674	-0.01760344	-0.2620793	0	0	0	0
21.90331	-0.01765606	-0.2621631	-0.003175908	-0.005058427	-0.09706718	-0.1546037
21.9201	-0.01765606	-0.2621631	0	0	0.09520787	0.1516423
21.93644	-0.01765606	-0.2621631	0	0	0	0
21.953	-0.01770867	-0.2623307	-0.003176527	-0.01011918	-0.09652901	-0.307504
21.96957	-0.01770867	-0.2623307	0	0	0.0958733	0.3054152
21.98621	-0.01770867	-0.2623307	0	0	0	0
22.00273	-0.01776129	-0.2624983	-0.003185811	-0.0101484	-0.09609818	-0.3061208
22.01927	-0.01776129	-0.2624983	0	0	0.09635319	0.306933
22.03584	-0.01776129	-0.2624983	0	0	0	0
22.05272	-0.0178139	-0.2626659	-0.003116593	-0.009930022	-0.09317398	-0.296869
22.06897	-0.0178139	-0.2626659	0	0	0.09406436	0.2997059
22.08554	-0.0178139	-0.2626659	0	0	0	0
22.1021	-0.01847158	-0.2633576	-0.03970676	-0.04175783	-1.19849	-1.260399
22.1188	-0.01847158	-0.2633576	0	0	1.193817	1.255484
22.13557	-0.01847158	-0.2633576	0	0	0	0
22.15203	-0.01868204	-0.2636091	-0.01278242	-0.01527927	-0.3846231	-0.459753
22.16884	-0.01868204	-0.2636091	0	0	0.3842261	0.4592785
22.18494	-0.01868204	-0.2636091	0	0	0	0
22.20151	-0.01870834	-0.263714	-0.001587842	-0.006328431	-0.04860383	-0.1937132
22.21807	-0.01870834	-0.263714	0	0	0.04792115	0.1909924
22.23496	-0.01870834	-0.263714	0	0	0	0
22.252	-0.01870834	-0.263714	0	0	0	0
22.26805	-0.01870834	-0.263714	0	0	0	0
22.28434	-0.01870834	-0.263714	0	0	0	0
22.30166	-0.01876096	-0.2637978	-0.003037322	-0.004841307	-0.09036611	-0.1440381
22.31747	-0.01876096	-0.2637978	0	0	0.09167185	0.1461194
22.33404	-0.01876096	-0.2637978	0	0	0	0
22.35061	-0.01881357	-0.2638817	-0.003176415	-0.005063191	-0.09587542	-0.152825
22.36717	-0.01881357	-0.2638817	0	0	0.09586991	0.1528162
22.38374	-0.01881357	-0.2638817	0	0	0	0
22.40061	-0.0189188	-0.2640075	-0.006236598	-0.007457467	-0.1865138	-0.2230255
22.41687	-0.0189188	-0.2640075	0	0	0.1882209	0.2250668
22.43486	-0.0189188	-0.2640075	0	0	0	0
22.45198	-0.01899771	-0.2640704	-0.00460757	-0.003671353	-0.1312306	-0.1045657
22.46799	-0.01899771	-0.2640704	0	0	0.1390487	0.1107953
22.48493	-0.01899771	-0.2640704	0	0	0	0
22.50149	-0.01912924	-0.2642172	-0.007942866	-0.008865325	-0.2371497	-0.2646915
22.51769	-0.01912924	-0.2642172	0	0	0.2424093	0.2705619
22.53453	-0.01912924	-0.2642172	0	0	0	0
22.55082	-0.01926078	-0.2643221	-0.008074936	-0.006438451	-0.2437301	-0.1943352
22.56739	-0.01926078	-0.2643221	0	0	0.2457533	0.1959484
22.58396	-0.01926078	-0.2643221	0	0	0	0
22.60052	-0.0198395	-0.2647836	-0.03493195	-0.02785373	-1.054309	-0.8406757
22.61709	-0.0198395	-0.2647836	0	0	1.054248	0.8406273
22.63366	-0.0198395	-0.2647836	0	0	0	0
22.65022	-0.02147038	-0.2660846	-0.09846301	-0.07855143	-2.971961	-2.37096
22.66679	-0.02147038	-0.2660846	0	0	2.971791	2.370823
22.68346	-0.02147038	-0.2660846	0	0	0	0
22.69992	-0.02147038	-0.2660846	0	0	0	0
22.7624	-0.02147038	-0.2660846	0	0	0	0
22.779	-0.02147038	-0.2660846	0	0	0	0
22.79553	-0.02147038	-0.2660846	0	0	0	0
22.81216	-0.02147038	-0.2660846	0	0	0	0
22.82867	-0.02147038	-0.2660846	0	0	0	0
22.84524	-0.02147038	-0.2660846	0	0	0	0
22.86206	-0.02147038	-0.2660846	0	0	0	0
22.8786	-0.02147038	-0.2660846	0	0	0	0
22.89493	-0.02147038	-0.2660846	0	0	0	0
22.9115	-0.02147038	-0.2660846	0	0	0	0
22.92821	-0.02147038	-0.2660846	0	0	0	0
22.94774	-0.02147038	-0.2660846	0	0	0	0
22.9663	-0.02147038	-0.2660846	0	0	0	0
22.98287	-0.02147038	-0.2660846	0	0	0	0
22.99944	-0.02147038	-0.2660846	0	0	0	0
23.016	-0.02147038	-0.2660846	0	0	0	0
23.03257	-0.02147038	-0.2660846	0	0	0	0
23.05029	-0.02147038	-0.2660846	0	0	0	0
23.06686	-0.02147038	-0.2660846	0	0	0	0
23.08343	-0.02147038	-0.2660846	0	0	0	0
23.09999	-0.02144408	-0.2661056	0.001587912	-0.001266552	0.04792604	-0.0382268
23.11673	-0.02144408	-0.2661056	0	0	-0.04768174	0.03803195
23.13313	-0.02144408	-0.2661056	0	0	0	0
23.14969	-0.02144408	-0.2661056	0	0	0	0
23.16626	-0.02144408	-0.2661056	0	0	0	0
23.18283	-0.02144408	-0.2661056	0	0	0	0
23.19939	-0.02144408	-0.2661056	0	0	0	0
23.21596	-0.02144408	-0.2661056	0	0	0	0
23.23287	-0.02144408	-0.2661056	0	0	0	0
23.24909	-0.02144408	-0.2661056	0	0	0	0
23.26583	-0.02144408	-0.2661056	0	0	0	0
23.28236	-0.02144408	-0.2661056	0	0	0	0
23.29879	-0.02144408	-0.2661056	0	0	0	0
23.31536	-0.02144408	-0.2661056	0	0	0	0
23.33211	-0.02144408	-0.2661056	0	0	0	0
23.34849	-0.02144408	-0.2661056	0	0	0	0
23.36506	-0.02144408	-0.2661056	0	0	0	0
23.38163	-0.02144408	-0.2661056	0	0	0	0
23.39819	-0.02144408	-0.2661056	0	0	0	0
23.41476	-0.02144408	-0.2661056	0	0	0	0
23.43203	-0.02144408	-0.2661056	0	0	0	0
23.44804	-0.02144408	-0.2661056	0	0	0	0
23.46446	-0.02144408	-0.2661056	0	0	0	0
23.48153	-0.02144408	-0.2661056	0	0	0	0
23.49759	-0.02144408	-0.2661056	0	0	0	0
23.51416	-0.02144408	-0.2661056	0	0	0	0
23.53132	-0.02144408	-0.2661056	0	0	0	0
23.54729	-0.02144408	-0.2661056	0	0	0	0
23.56386	-0.02144408	-0.2661056	0	0	0	0
23.58043	-0.02144408	-0.2661056	0	0	0	0
23.597	-0.02144408	-0.2661056	0	0	0	0
23.61356	-0.02144408	-0.2661056	0	0	0	0
23.63013	-0.02144408	-0.2661056	0	0	0	0
23.64669	-0.02144408	-0.2661056	0	0	0	0
23.66347	-0.02144408	-0.2661056	0	0	0	0
23.67983	-0.02144408	-0.2661056	0	0	0	0
23.69639	-0.02144408	-0.2661056	0	0	0	0
23.71296	-0.02144408	-0.2661056	0	0	0	0
23.7302	-0.02144408	-0.2661056	0	0	0	0
23.74623	-0.02144408	-0.2661056	0	0	0	0
23.76335	-0.02144408	-0.2661056	0	0	0	0
23.77923	-0.02144408	-0.2661056	0	0	0	0
23.7958	-0.02144408	-0.2661056	0	0	0	0
23.81237	-0.02144408	-0.2661056	0	0	0	0
23.82947	-0.02144408	-0.2661056	0	0	0	0
23.8455	-0.02147038	-0.2660846	-0.001641592	0.001309368	-0.0495519	0.03952363
23.86206	-0.02147038	-0.2660846	0	0	0.0503697	-0.04017592
23.8791	-0.02147038	-0.2660846	0	0	0	0
23.89519	-0.02168081	-0.2655809	-0.01307635	0.03130371	-0.3946906	0.9448565
23.91176	-0.02168081	-0.2655809	0	0	0.4003606	-0.9584302
23.92899	-0.02168081	-0.2655809	0	0	0	0
23.94489	-0.0284397	-0.2555543	-0.4248924	0.6303133	-12.82402	19.02399
23.96146	-0.0284397	-0.2555543	0	0	13.08387	-19.40947
23.97803	-0.0284397	-0.2555543	0	0	0	0
23.99459	-0.05439366	-0.1872364	-1.566945	4.124628	-47.29322	124.4887
24.01172	-0.05439366	-0.1872364	0	0	46.51665	-122.4445
24.02773	-0.05439366	-0.1872364	0	0	0	0
24.0443	-0.07033117	-0.1157612	-0.9619901	4.314253	-29.52754	132.4227
24.06101	-0.07033117	-0.1157612	0	0	28.9048	-129.6299
24.07743	-0.07033117	-0.1157612	0	0	0	0
24.094	-0.06514453	-0.06510876	0.3131022	3.057737	9.492064	92.69891
24.11057	-0.06514453	-0.06510876	0	0	-9.449445	-92.2827
24.12713	-0.06514453	-0.06510876	0	0	0	0
24.14369	-0.06068854	-0.03446847	0.2690261	1.849878	8.120626	55.83906
24.16026	-0.06068854	-0.03446847	0	0	-8.119691	-55.83263
24.17683	-0.06068854	-0.03446847	0	0	0	0
24.1934	-0.06372937	-0.01205846	-0.1835659	1.352826	-5.540348	40.83073
24.21011	-0.06372937	-0.01205846	0	0	5.515582	-40.64821
24.22654	-0.06372937	-0.01205846	0	0	0	0
24.24357	-0.05890546	-0.002738964	0.2832792	0.5472783	8.467014	16.35776
24.25966	-0.05890546	-0.002738964	0	0	-8.552339	-16.5226
24.27704	-0.05890546	-0.002738964	0	0	0	0
24.293	-0.0584334	-0.002399887	0.02957979	0.02124708	0.8873058	0.6373491
24.30957	-0.0584334	-0.002399887	0	0	-0.9093662	-0.653195
24.32614	-0.0584334	-0.002399887	0	0	0	0
24.3427	-0.0584334	-0.002399887	0	0	0	0
24.35928	-0.0584334	-0.002399887	0	0	0	0
24.37584	-0.0584334	-0.002399887	0	0	0	0
24.39266	-0.05184823	0.002362383	0.3916208	0.2832124	11.7347	8.486305
24.40898	-0.05184823	0.002362383	0	0	-11.81914	-8.547368
24.42619	-0.05184823	0.002362383	0	0	0	0
24.44211	-0.04559994	0.006873711	0.3924172	0.2833295	11.84317	8.550901
24.45868	-0.04559994	0.006873711	0	0	-12.07817	-8.720574
24.4753	-0.04559994	0.006873711	0	0	0	0
24.4918	-0.04612515	0.007399641	-0.03181529	0.0318589	-0.9604085	0.9617249
24.50837	-0.04612515	0.007399641	0	0	0.9619039	-0.9632223
24.52494	-0.04612515	0.007399641	0	0	0	0
24.54189	-0.05092961	0.01083497	-0.2834702	0.2026901	-8.457294	6.047231
24.55807	-0.05092961	0.01083497	0	0	8.556132	-6.117904
24.57487	-0.05092961	0.01083497	0	0	0	0
24.59142	-0.05106084	0.01092879	-0.007931376	0.005669747	-0.2378496	0.1700269
24.60777	-0.05106084	0.01092879	0	0	0.2410623	-0.1723235
24.62453	-0.05106084	0.01092879	0	0	0	0
24.64102	-0.05108709	0.01091002	-0.001591502	-0.00113761	-0.04786356	-0.034213
24.65747	-0.05108709	0.01091002	0	0	0.04831811	0.03453792
24.67456	-0.05108709	0.01091002	0	0	0	0
24.6906	-0.05108709	0.01091002	0	0	0	0
24.70717	-0.05108709	0.01091002	0	0	0	0
24.72374	-0.05108709	0.01091002	0	0	0	0
24.7403	-0.05111334	0.01089126	-0.001584721	-0.001132763	-0.04783249	-0.03419079
24.75724	-0.05111334	0.01089126	0	0	0.04730685	0.03381507
24.77371	-0.05111334	0.01089126	0	0	0	0
24.79	-0.05111334	0.01089126	0	0	0	0
24.80657	-0.05111334	0.01089126	0	0	0	0
24.82327	-0.05111334	0.01089126	0	0	0	0
24.8397	-0.05113958	0.0108725	-0.001597002	-0.00114176	-0.04820038	-0.03446036
24.85627	-0.05113958	0.0108725	0	0	0.0483954	0.03459979
24.87284	-0.05113958	0.0108725	0	0	0	0
24.8894	-0.05113958	0.0108725	0	0	0	0
24.90597	-0.05113958	0.0108725	0	0	0	0
24.92264	-0.05113958	0.0108725	0	0	0	0
24.9391	-0.05116583	0.01085374	-0.001594452	-0.001139719	-0.04812344	-0.03439876
24.95575	-0.05116583	0.01085374	0	0	0.04815948	0.03442453
24.9725	-0.05116583	0.01085374	0	0	0	0
24.98881	-0.05119208	0.01083497	-0.001609329	-0.001150516	-0.04868456	-0.03480479
25.00537	-0.05119208	0.01083497	0	0	0.04895289	0.03499663
25.02194	-0.05119208	0.01083497	0	0	0	0
25.03851	-0.05119208	0.01079745	0	-0.002265378	0	-0.06837317
25.0551	-0.05119208	0.01079745	0	0	0	0.06831811
25.07181	-0.05119208	0.01079745	0	0	0	0
25.08821	-0.05132331	0.0106661	-0.008005199	-0.008011846	-0.2417922	-0.241993
25.10477	-0.05132331	0.0106661	0	0	0.2428696	0.2430713
25.12134	-0.05132331	0.0106661	0	0	0	0
25.13791	-0.0520057	0.01002807	-0.04119848	-0.03852041	-1.243516	-1.162682
25.15465	-0.0520057	0.01002807	0	0	1.236752	1.156358
25.17173	-0.0520057	0.01002807	0	0	0	0
25.18761	-0.05221565	0.006084662	-0.01322236	-0.2483464	-0.401246	-7.536322
25.20418	-0.05221565	0.006084662	0	0	0.4074962	7.653717
25.22074	-0.05221565	0.006084662	0	0	0	0
25.23731	-0.03619471	-0.008980461	0.9671371	-0.9094374	29.18994	-27.44846
25.25406	-0.03619471	-0.008980461	0	0	-29.02784	27.29603
25.27107	-0.03619471	-0.008980461	0	0	0	0
25.28701	-0.03311946	-0.05808011	0.19293	-3.080335	5.856013	-93.49751
25.30372	-0.03311946	-0.05808011	0	0	-5.909038	94.34411
25.32026	-0.03311946	-0.05808011	0	0	0	0
25.33671	-0.03204166	-0.1195067	0.0655391	-3.735238	1.98655	-113.2185
25.35338	-0.03204166	-0.1195067	0	0	-1.979113	112.7946
25.36999	-0.03204166	-0.1195067	0	0	0	0
25.38651	-0.01810328	-0.1736837	0.8434584	-3.278432	25.45563	-98.94326
25.40314	-0.01810328	-0.1736837	0	0	-25.44244	98.89203
25.41954	-0.01810328	-0.1736837	0	0	0	0
25.43622	0.004947328	-0.1966899	1.382109	-1.37945	41.77706	-41.6967
25.45268	0.004947328	-0.1966899	0	0	-41.71453	41.63429
25.46964	0.004947328	-0.1966899	0	0	0	0
25.48581	0.01699836	-0.2060016	0.7453359	-0.5759122	22.49687	-17.38307
25.50238	0.01699836	-0.2060016	0	0	-22.76688	17.5917
25.51894	0.01699836	-0.2060016	0	0	0	0
25.53551	0.02115474	-0.2092234	0.2509083	-0.1944894	7.572864	-5.87004
25.55227	0.02115474	-0.2092234	0	0	-7.52995	5.836776
25.56878	0.02115474	-0.2092234	0	0	0	0
25.58525	0.02118104	-0.2092438	0.001597662	-0.001239031	0.0484434	-0.03756919
25.60178	0.02118104	-0.2092438	0	0	-0.0484182	0.03754965
25.61834	0.02118104	-0.2092438	0	0	0	0
25.63513	0.02118104	-0.2092438	0	0	0	0
25.65148	0.02118104	-0.2092438	0	0	0	0
25.66805	0.02118104	-0.2092438	0	0	0	0
25.68461	0.02118104	-0.2092846	0	-0.002463839	0	-0.07436308
25.70118	0.02118104	-0.2092846	0	0	0	0.07436308
25.71774	0.02118104	-0.2092846	0	0	0	0
25.73431	0.02125995	-0.2093458	0.004764172	-0.003696633	0.1437996	-0.1115775
25.75088	0.02125995	-0.2093458	0	0	-0.1437996	0.1115775
25.76744	0.02125995	-0.2093458	0	0	0	0
25.78401	0.02131256	-0.2094275	0.003175824	-0.004927677	0.09585208	-0.1487262
25.80058	0.02131256	-0.2094275	0	0	-0.09584656	0.1487176
25.81729	0.02131256	-0.2094275	0	0	0	0
25.83371	0.02147038	-0.2099173	0.00961247	-0.02983598	0.2901383	-0.9005554
25.85028	0.02147038	-0.2099173	0	0	-0.2913965	0.9044606
25.86684	0.02147038	-0.2099173	0	0	0	0
25.88341	0.0070262	-0.2214827	-0.8719531	-0.6981658	-26.32014	-21.07433
25.89997	0.0070262	-0.2214827	0	0	26.31711	21.0719
25.91654	0.0070262	-0.2214827	0	0	0	0
25.93311	-0.03877003	-0.257915	-2.764585	-2.199312	-83.43533	-66.37536
25.95007	-0.03877003	-0.257915	0	0	82.46223	65.60123
25.96637	-0.03877003	-0.257915	0	0	0	0
25.98347	-0.06855032	-0.3001261	-1.741406	-2.468302	-52.13855	-73.90218
25.99938	-0.06855032	-0.3001261	0	0	52.75312	74.77328
26.01594	-0.06855032	-0.3001261	0	0	0	0
26.03251	-0.05478722	-0.3290737	0.8308378	-1.747479	25.07618	-52.74207
26.04908	-0.05478722	-0.3290737	0	0	-25.07473	52.73903
26.06564	-0.05478722	-0.3290737	0	0	0	0
26.08221	-0.04775314	-0.3349081	0.4246756	-0.3522462	12.81895	-10.63265
26.09889	-0.04775314	-0.3349081	0	0	-12.77262	10.59422
26.11547	-0.04775314	-0.3349081	0	0	0	0
26.13198	-0.04775314	-0.3348209	0	0.005282326	0	0.1596415
26.14848	-0.04775314	-0.3348209	0	0	0	-0.1600289
26.16504	-0.04775314	-0.3348209	0	0	0	0
26.18214	-0.04775314	-0.3348209	0	0	0	0
26.19818	-0.04775314	-0.3348209	0	0	0	0
26.21491	-0.04775314	-0.3348209	0	0	0	0
26.23162	-0.04772689	-0.3347991	0.00157106	0.001303569	0.04697393	0.03897609
26.24788	-0.04772689	-0.3347991	0	0	-0.04765608	-0.03954211
26.26444	-0.04772689	-0.3347991	0	0	0	0
26.28101	-0.04772689	-0.3347991	0	0	0	0
26.2978	-0.04772689	-0.3347991	0	0	0	0
26.31476	-0.04772689	-0.3347991	0	0	0	0
26.33081	-0.04770063	-0.3348209	0.001635066	-0.001356678	0.04953174	-0.04109841
26.34727	-0.04770063	-0.3348209	0	0	-0.05028424	0.04172279
26.36412	-0.04770063	-0.3348209	0	0	0	0
26.3804	-0.04770063	-0.3348209	0	0	0	0
26.3972	-0.04770063	-0.3348209	0	0	0	0
26.41368	-0.04770063	-0.3348209	0	0	0	0
26.43011	-0.04770063	-0.3348209	0	0	0	0
26.44676	-0.04770063	-0.3348209	0	0	0	0
26.46327	-0.04770063	-0.3348209	0	0	0	0
26.4798	-0.04772689	-0.3347991	-0.001587731	0.001317402	-0.04804503	0.03986483
26.49637	-0.04772689	-0.3347991	0	0	0.04796198	-0.03979592
26.51306	-0.04772689	-0.3347991	0	0	0	0
26.52956	-0.04770063	-0.3348209	0.00159177	-0.001320753	0.0479624	-0.03979627
26.54607	-0.04770063	-0.3348209	0	0	-0.04822013	0.04001012
26.56302	-0.04770063	-0.3348209	0	0	0	0
26.5792	-0.04770063	-0.3348209	0	0	0	0
26.59577	-0.04770063	-0.3348209	0	0	0	0
26.61234	-0.04770063	-0.3348209	0	0	0	0
26.62891	-0.04772689	-0.3348427	-0.001584988	-0.001316926	-0.04783504	-0.0397449
26.64547	-0.04772689	-0.3348427	0	0	0.0478378	0.03974719
26.66233	-0.04772689	-0.3348427	0	0	0	0
26.67861	-0.04772689	-0.3348427	0	0	0	0
26.69517	-0.04772689	-0.3348427	0	0	0	0
26.71174	-0.04772689	-0.3348427	0	0	0	0
26.72831	-0.04772689	-0.3348427	0	0	0	0
26.74488	-0.04772689	-0.3348427	0	0	0	0
26.76144	-0.04772689	-0.3348427	0	0	0	0
26.77812	-0.04772689	-0.3348427	0	0	0	0
26.79457	-0.04772689	-0.3348427	0	0	0	0
26.8117	-0.04772689	-0.3348427	0	0	0	0
26.89983	-0.04772689	-0.3348427	0	0	0	0
26.91653	-0.04772689	-0.3348427	0	0	0	0
26.93297	-0.04770063	-0.3348645	0.001597126	-0.00132701	0.04820412	-0.04005155
26.94954	-0.04770063	-0.3348645	0	0	-0.04838517	0.04020198
26.9661	-0.04770063	-0.3348645	0	0	0	0
26.98305	-0.04770063	-0.3348645	0	0	0	0
26.99924	-0.04770063	-0.3348645	0	0	0	0
27.0158	-0.04770063	-0.3348645	0	0	0	0
27.03318	-0.04770063	-0.3348645	0	0	0	0
27.04918	-0.04770063	-0.3348645	0	0	0	0
27.0655	-0.04770063	-0.3348645	0	0	0	0
27.08207	-0.04770063	-0.3348645	0	0	0	0
27.09864	-0.04770063	-0.3348645	0	0	0	0
27.1152	-0.04770063	-0.3348645	0	0	0	0
27.13177	-0.04770063	-0.3348645	0	0	0	0
27.14834	-0.04770063	-0.3348645	0	0	0	0
27.16491	-0.04770063	-0.3348645	0	0	0	0
27.18147	-0.04770063	-0.3348645	0	0	0	0
27.19804	-0.04770063	-0.3348645	0	0	0	0
27.21542	-0.04770063	-0.3348645	0	0	0	0
27.23159	-0.04770063	-0.3348645	0	0	0	0
27.24816	-0.04770063	-0.3348645	0	0	0	0
27.26473	-0.04770063	-0.3348645	0	0	0	0
27.28129	-0.04770063	-0.3348645	0	0	0	0
27.29786	-0.04770063	-0.3348645	0	0	0	0
27.31442	-0.04770063	-0.3348645	0	0	0	0
27.33172	-0.04770063	-0.3348645	0	0	0	0
27.34756	-0.04770063	-0.3348645	0	0	0	0
27.36413	-0.04770063	-0.3348645	0	0	0	0
27.38069	-0.04770063	-0.3348645	0	0	0	0
27.39726	-0.04770063	-0.3348645	0	0	0	0
27.41383	-0.04770063	-0.3348645	0	0	0	0
27.43039	-0.04772689	-0.3348863	-0.001585171	-0.001317077	-0.04784606	-0.03975405
27.44696	-0.04772689	-0.3348863	0	0	0.04784331	0.03975176
27.46352	-0.04772689	-0.3348863	0	0	0	0
27.48009	-0.04772689	-0.3348863	0	0	0	0
27.49666	-0.04772689	-0.3348863	0	0	0	0
27.51347	-0.04772689	-0.3348863	0	0	0	0
27.52982	-0.04772689	-0.3348863	0	0	0	0
27.54636	-0.04772689	-0.3348863	0	0	0	0
27.56293	-0.04772689	-0.3348863	0	0	0	0
27.57952	-0.04772689	-0.3348863	0	0	0	0
27.59649	-0.04772689	-0.3348863	0	0	0	0
27.61263	-0.04772689	-0.3348863	0	0	0	0
27.62919	-0.04772689	-0.3348863	0	0	0	0
27.64628	-0.04772689	-0.3348863	0	0	0	0
27.66232	-0.04772689	-0.3348863	0	0	0	0
27.67979	-0.04772689	-0.3348863	0	0	0	0
27.69568	-0.04772689	-0.3348863	0	0	0	0
27.71202	-0.04772689	-0.3348863	0	0	0	0
27.72859	-0.04772689	-0.3348863	0	0	0	0
27.74516	-0.04772689	-0.3348863	0	0	0	0
27.76172	-0.04772689	-0.3348863	0	0	0	0
27.77829	-0.04772689	-0.3348863	0	0	0	0
27.79486	-0.04772689	-0.3348863	0	0	0	0
27.81142	-0.04772689	-0.3348863	0	0	0	0
27.82799	-0.04772689	-0.3348863	0	0	0	0
27.84477	-0.04772689	-0.3348863	0	0	0	0
27.86113	-0.04772689	-0.3348863	0	0	0	0
27.87802	-0.04772689	-0.3348863	0	0	0	0
27.89426	-0.04772689	-0.3348863	0	0	0	0
27.91083	-0.04772689	-0.3348863	0	0	0	0
27.92739	-0.04772689	-0.3348863	0	0	0	0
27.94396	-0.04772689	-0.3348863	0	0	0	0
27.96053	-0.04772689	-0.3348863	0	0	0	0
27.97755	-0.04772689	-0.3348863	0	0	0	0
27.99371	-0.04772689	-0.3348863	0	0	0	0
28.01025	-0.04772689	-0.3348863	0	0	0	0
28.02679	-0.04772689	-0.3348863	0	0	0	0
28.04403	-0.04772689	-0.3348863	0	0	0	0
28.05993	-0.04772689	-0.3348863	0	0	0	0
28.0765	-0.04772689	-0.3348863	0	0	0	0
28.09306	-0.04772689	-0.3348863	0	0	0	0
28.10971	-0.04772689	-0.3348863	0	0	0	0
28.12619	-0.04772689	-0.3348863	0	0	0	0
28.14276	-0.04772689	-0.3348863	0	0	0	0
28.15933	-0.04772689	-0.3348863	0	0	0	0
28.17603	-0.04772689	-0.3348863	0	0	0	0
28.19246	-0.04772689	-0.3348863	0	0	0	0
28.20903	-0.04772689	-0.3348863	0	0	0	0
28.22605	-0.04772689	-0.3348863	0	0	0	0
28.24216	-0.04772689	-0.3348863	0	0	0	0
28.25873	-0.04772689	-0.3348863	0	0	0	0
28.27604	-0.04772689	-0.3348863	0	0	0	0
28.29232	-0.04772689	-0.3348863	0	0	0	0
28.30843	-0.04772689	-0.3348863	0	0	0	0
28.32541	-0.04772689	-0.3348863	0	0	0	0
28.34157	-0.04772689	-0.3348863	0	0	0	0
28.35813	-0.04772689	-0.3348863	0	0	0	0
28.3747	-0.04772689	-0.3348863	0	0	0	0
28.39127	-0.04772689	-0.3348863	0	0	0	0
28.40846	-0.04772689	-0.3348863	0	0	0	0
28.4244	-0.04772689	-0.3348863	0	0	0	0
28.44097	-0.04772689	-0.3348863	0	0	0	0
28.45753	-0.04772689	-0.3348863	0	0	0	0
28.47788	-0.04772689	-0.3348863	0	0	0	0
28.49457	-0.04772689	-0.3348863	0	0	0	0
28.51119	-0.04772689	-0.3348863	0	0	0	0
28.5279	-0.04772689	-0.3348863	0	0	0	0
28.54415	-0.04772689	-0.3348863	0	0	0	0
28.56547	-0.04772689	-0.3348863	0	0	0	0
28.5821	-0.04772689	-0.3348863	0	0	0	0
28.59861	-0.04772689	-0.3348863	0	0	0	0
28.61517	-0.04772689	-0.3348863	0	0	0	0
28.63174	-0.04772689	-0.3348863	0	0	0	0
28.64831	-0.04772689	-0.3348863	0	0	0	0
28.66488	-0.04772689	-0.3348863	0	0	0	0
28.68204	-0.04772689	-0.3348863	0	0	0	0
28.698	-0.04772689	-0.3348863	0	0	0	0
28.71457	-0.04772689	-0.3348863	0	0	0	0
28.73114	-0.04772689	-0.3348863	0	0	0	0
28.74771	-0.04772689	-0.3348863	0	0	0	0
28.76428	-0.04772689	-0.3348863	0	0	0	0
28.78084	-0.04772689	-0.3348863	0	0	0	0
28.79779	-0.04772689	-0.3348863	0	0	0	0
28.81398	-0.04772689	-0.3348863	0	0	0	0
28.83055	-0.04772689	-0.3348863	0	0	0	0
28.84711	-0.04772689	-0.3348863	0	0	0	0
28.86403	-0.04772689	-0.3348863	0	0	0	0
28.88024	-0.04772689	-0.3348863	0	0	0	0
28.89681	-0.04772689	-0.3348863	0	0	0	0
28.91338	-0.04772689	-0.3348863	0	0	0	0
28.92996	-0.04772689	-0.3348863	0	0	0	0
28.94651	-0.04772689	-0.3348863	0	0	0	0
28.96308	-0.04772689	-0.3348863	0	0	0	0
28.9803	-0.04772689	-0.3348863	0	0	0	0
28.99621	-0.04772689	-0.3348863	0	0	0	0
29.01278	-0.04772689	-0.3348863	0	0	0	0
29.02935	-0.04772689	-0.3348863	0	0	0	0
29.04619	-0.04772689	-0.3348863	0	0	0	0
29.06273	-0.04772689	-0.3348863	0	0	0	0
29.07905	-0.04772689	-0.3348863	0	0	0	0
29.09562	-0.04772689	-0.3348863	0	0	0	0
29.11218	-0.04772689	-0.3348863	0	0	0	0
29.12875	-0.04772689	-0.3348863	0	0	0	0
29.14531	-0.04772689	-0.3348863	0	0	0	0
29.16194	-0.04772689	-0.3348863	0	0	0	0
29.17845	-0.04772689	-0.3348863	0	0	0	0
29.19501	-0.04772689	-0.3348863	0	0	0	0
29.2116	-0.04772689	-0.3348863	0	0	0	0
29.22815	-0.04772689	-0.3348863	0	0	0	0
29.24923	-0.04772689	-0.3348863	0	0	0	0
29.2658	-0.04772689	-0.3348863	0	0	0	0
29.28237	-0.04772689	-0.3348863	0	0	0	0
29.29893	-0.04772689	-0.3348863	0	0	0	0
29.3155	-0.04772689	-0.3348863	0	0	0	0
29.33207	-0.04772689	-0.3348863	0	0	0	0
29.34887	-0.04772689	-0.3348863	0	0	0	0
29.3652	-0.04772689	-0.3348863	0	0	0	0
29.38177	-0.04772689	-0.3348863	0	0	0	0
29.39859	-0.04772689	-0.3348863	0	0	0	0
29.41518	-0.04772689	-0.3348863	0	0	0	0
29.43146	-0.04772689	-0.3348863	0	0	0	0
29.44803	-0.04772689	-0.3348863	0	0	0	0
29.46474	-0.04772689	-0.3348863	0	0	0	0
29.48176	-0.04772689	-0.3348863	0	0	0	0
29.49782	-0.04772689	-0.3348863	0	0	0	0
29.5143	-0.04772689	-0.3348863	0	0	0	0
29.53091	-0.04772689	-0.3348863	0	0	0	0
29.54743	-0.04772689	-0.3348863	0	0	0	0
29.564	-0.04772689	-0.3348863	0	0	0	0
29.58056	-0.04772689	-0.3348863	0	0	0	0
29.59713	-0.04772689	-0.3348863	0	0	0	0
29.61405	-0.04772689	-0.3348863	0	0	0	0
29.63026	-0.04775314	-0.3349081	-0.001619485	-0.00134375	-0.04887898	-0.04055679
29.64683	-0.04775314	-0.3349081	0	0	0.04940514	0.04099337
29.66349	-0.04775314	-0.3349081	0	0	0	0
29.67996	-0.04772689	-0.3348863	0.00159472	0.001323201	0.04813429	0.0399389
29.69664	-0.04772689	-0.3348863	0	0	-0.04810936	-0.03991821
29.71309	-0.04772689	-0.3348863	0	0	0	0
29.72966	-0.04772689	-0.3348863	0	0	0	0
29.74656	-0.04772689	-0.3348863	0	0	0	0
29.76279	-0.04772689	-0.3348863	0	0	0	0
29.77936	-0.04775314	-0.3349081	-0.001585171	-0.001315278	-0.04832739	-0.04009912
29.79593	-0.04775314	-0.3349081	0	0	0.04784606	0.03969974
29.81249	-0.04775314	-0.3349081	0	0	0	0
29.82906	-0.04772689	-0.3348863	0.001585171	0.001315278	0.04784606	0.03969974
29.84562	-0.04772689	-0.3348863	0	0	-0.04784606	-0.03969974
29.8627	-0.04772689	-0.3348863	0	0	0	0
29.87876	-0.04780566	-0.3348209	-0.004904617	0.004075119	-0.1480302	0.1229944
29.89532	-0.04780566	-0.3348209	0	0	0.1503234	-0.1248998
29.91189	-0.04780566	-0.3348209	0	0	0	0
29.92846	-0.04875081	-0.3335566	-0.05704987	0.07631174	-1.721768	2.303093
29.94502	-0.04875081	-0.3335566	0	0	1.721868	-2.303225
29.96227	-0.04875081	-0.3335566	0	0	0	0
29.97816	-0.06794787	-0.3150903	-1.208548	1.162541	-36.47615	35.08757
29.99472	-0.06794787	-0.3150903	0	0	37.24152	-35.82381
30.01205	-0.06794787	-0.3150903	0	0	0	0
30.02856	-0.1178981	-0.2718242	-3.025448	2.620601	-89.39899	77.43615
30.04457	-0.1178981	-0.2718242	0	0	93.05991	-80.60719
30.06099	-0.1178981	-0.2718242	0	0	0	0
30.07759	-0.1365657	-0.2073061	-1.125097	3.888502	-34.07317	117.7619
30.09413	-0.1365657	-0.2073061	0	0	33.95744	-117.362
30.11081	-0.1365657	-0.2073061	0	0	0	0
30.12726	-0.1239663	-0.1444575	0.7658781	3.820375	23.11558	115.3058
30.14412	-0.1239663	-0.1444575	0	0	-22.99248	-114.6917
30.16039	-0.1239663	-0.1444575	0	0	0	0
30.17696	-0.1186506	-0.09260575	0.320858	3.129779	9.76899	95.29069
30.19353	-0.1186506	-0.09260575	0	0	-9.683514	-94.45692
30.2104	-0.1186506	-0.09260575	0	0	0	0
30.22666	-0.1278255	-0.05648857	-0.5641943	2.220948	-17.0284	67.0322
30.24323	-0.1278255	-0.05648857	0	0	17.1857	-67.65142
30.26022	-0.1278255	-0.05648857	0	0	0	0
30.27636	-0.1304652	-0.05388265	-0.1635878	0.1614955	-4.937659	4.874505
30.29293	-0.1304652	-0.05388265	0	0	5.001583	-4.937611
30.3095	-0.1304652	-0.05388265	0	0	0	0
30.32606	-0.1240181	-0.03503936	0.3891916	1.137514	11.7465	34.33223
30.34266	-0.1240181	-0.03503936	0	0	-11.73502	-34.29866
30.35932	-0.1240181	-0.03503936	0	0	0	0
30.37583	-0.1141334	-0.02168918	0.5986426	0.8085177	18.04733	24.37445
30.39255	-0.1141334	-0.02168918	0	0	-18.01418	-24.32969
30.40895	-0.1141334	-0.02168918	0	0	0	0
30.42546	-0.1087014	-0.01761764	0.3290122	0.2466103	9.998096	7.49405
30.44203	-0.1087014	-0.01761764	0	0	-9.946786	-7.45559
30.45859	-0.1087014	-0.01761764	0	0	0	0
30.47516	-0.1151463	-0.01288984	-0.3890136	0.2853711	-11.74113	8.613012
30.49173	-0.1151463	-0.01288984	0	0	11.74046	-8.612516
30.50842	-0.1151463	-0.01288984	0	0	0	0
30.52492	-0.1236553	-0.006697448	-0.5158048	0.3753722	-15.54107	11.30988
30.5417	-0.1236553	-0.006697448	0	0	15.49832	-11.27876
30.55799	-0.1236553	-0.006697448	0	0	0	0
30.57478	-0.1293009	-0.002625935	-0.3363508	0.2425734	-10.16923	7.333967
30.59129	-0.1293009	-0.002625935	0	0	10.10282	-7.286068
30.60769	-0.1293009	-0.002625935	0	0	0	0
30.62426	-0.129689	-0.002456397	-0.0234321	0.01023447	-0.7106183	0.3103776
30.64128	-0.129689	-0.002456397	0	0	0.6977039	-0.304737
30.65739	-0.129689	-0.002456397	0	0	0	0
30.67396	-0.1304394	-0.002927356	-0.04529451	-0.02843039	-1.38606	-0.8700002
30.69053	-0.1304394	-0.002927356	0	0	1.366991	0.858031
30.70762	-0.1304394	-0.002927356	0	0	0	0
30.72366	-0.1308274	-0.003209963	-0.02419664	-0.01762222	-0.7302559	-0.5318396
30.74023	-0.1308274	-0.003209963	0	0	0.7421321	0.5404889
30.75679	-0.1308274	-0.003209963	0	0	0	0
30.77371	-0.1311895	-0.003436066	-0.02140225	-0.013363	-0.6391515	-0.3990694
30.78993	-0.1311895	-0.003436066	0	0	0.6459212	0.4032963
30.80649	-0.1311895	-0.003436066	0	0	0	0
30.82376	-0.131474	-0.003341855	-0.01647493	0.00545548	-0.4869277	0.1612404
30.83963	-0.131474	-0.003341855	0	0	0.4972431	-0.1646562
30.85619	-0.131474	-0.003341855	0	0	0	0
30.87276	-0.1315516	-0.003398382	-0.004684441	-0.00341274	-0.141393	-0.1030085
30.95146	-0.1315516	-0.003398382	0	0	0.04917205	0.03582314
30.96833	-0.1315516	-0.003398382	0	0	0	0
30.98498	-0.1315775	-0.003379539	-0.001553551	0.001131604	-0.04634998	0.03376126
31.00155	-0.1315775	-0.003379539	0	0	0.04676512	-0.03406365
31.01811	-0.1315775	-0.003379539	0	0	0	0
31.03468	-0.1316292	-0.003341855	-0.003121942	0.002274617	-0.09422582	0.06865203
31.05145	-0.1316292	-0.003341855	0	0	0.09364361	-0.06822784
31.06782	-0.1316292	-0.003341855	0	0	0	0
31.08438	-0.132043	-0.003379539	-0.02498129	-0.002275141	-0.7586532	-0.06909344
31.10095	-0.132043	-0.003379539	0	0	0.7539802	0.06866784
31.11751	-0.132043	-0.003379539	0	0	0	0
31.13408	-0.1360233	-0.006244809	-0.2402769	-0.1729679	-7.252405	-5.220784
31.15065	-0.1360233	-0.006244809	0	0	7.25157	5.220183
31.16722	-0.1360233	-0.006244809	0	0	0	0
31.18378	-0.1360233	-0.006244809	0	0	0	0
31.20035	-0.1360233	-0.006244809	0	0	0	0
31.21765	-0.1360233	-0.006244809	0	0	0	0
31.23348	-0.1519769	-0.01793939	-1.007748	-0.7387142	-30.41741	-22.29701
31.25005	-0.1519769	-0.01793939	0	0	31.10322	22.79973
31.26709	-0.1519769	-0.01793939	0	0	0	0
31.28318	-0.1917973	-0.04755002	-2.474497	-1.84005	-74.68906	-55.5392
31.29975	-0.1917973	-0.04755002	0	0	75.76202	56.33706
31.31631	-0.1917973	-0.04755002	0	0	0	0
31.33703	-0.215546	-0.06566642	-1.14652	-0.8746052	-30.755	-23.46099
31.3536	-0.215546	-0.06566642	0	0	30.75185	23.45859
31.37084	-0.2254435	-0.07323458	-0.5740148	-0.4389264	-16.97688	-12.98154
31.38673	-0.2254435	-0.07323458	0	0	17.3238	13.24683
31.40384	-0.2254435	-0.07323458	0	0	0	0
31.41988	-0.2338772	-0.0797601	-0.5255798	-0.4066628	-15.8529	-12.26605
31.43644	-0.2338772	-0.0797601	0	0	16.12188	12.47416
31.45308	-0.2338772	-0.0797601	0	0	0	0
31.46976	-0.2338523	-0.07977944	0.0014935	-0.001159675	0.04482365	-0.03480472
31.48633	-0.2338523	-0.07977944	0	0	-0.0449291	0.0348866
31.50307	-0.2338523	-0.07977944	0	0	0	0
31.51946	-0.2338274	-0.0797601	0.001519931	0.001180198	0.04587689	0.03562254
31.53609	-0.2338274	-0.0797601	0	0	-0.04603059	-0.03574189
31.5526	-0.2338274	-0.0797601	0	0	0	0
31.57151	-0.2338025	-0.07974078	0.001317059	0.001022277	0.03719062	0.02886668
31.58865	-0.2338025	-0.07974078	0	0	-0.03654115	-0.02836258
31.60465	-0.2338025	-0.07974078	0	0	0	0
31.62121	-0.2337527	-0.07974078	0.003007507	0	0.09235633	0
31.63778	-0.2337527	-0.07974078	0	0	-0.09077196	0
31.65434	-0.2337527	-0.07974078	0	0	0	0
31.67091	-0.2337278	-0.0797601	0.00150313	-0.001166703	0.04537502	-0.03521926
31.68748	-0.2337278	-0.0797601	0	0	-0.04536457	0.03521115
31.70404	-0.2337278	-0.0797601	0	0	0	0
31.72088	-0.2337029	-0.07974078	0.001479499	0.001147674	0.04428683	0.03435408
31.73718	-0.2337029	-0.07974078	0	0	-0.04465138	-0.03463686
31.75404	-0.2337029	-0.07974078	0	0	0	0
31.77031	-0.233678	-0.0797601	0.001530803	-0.001188182	0.04620504	-0.03586352
31.78688	-0.233678	-0.0797601	0	0	-0.04662106	0.03618643
31.80344	-0.233678	-0.0797601	0	0	0	0
31.82237	-0.2336531	-0.07974078	0.001315466	0.001021041	0.03705981	0.02876516
31.83905	-0.2336531	-0.07974078	0	0	-0.03694072	-0.02867272
31.85551	-0.2336531	-0.07974078	0	0	0	0
31.87207	-0.2336281	-0.07972145	0.001503857	0.001166568	0.04554379	0.03532913
31.88864	-0.2336281	-0.07972145	0	0	-0.04538387	-0.03520508
31.90521	-0.2336281	-0.07972145	0	0	0	0
31.92178	-0.2336032	-0.07974078	0.00150313	-0.001166703	0.04536718	-0.03521318
31.93834	-0.2336032	-0.07974078	0	0	-0.04536457	0.03521115
31.95491	-0.2336032	-0.07974078	0	0	0	0
31.97148	-0.2334787	-0.07960548	0.007517451	0.008167818	0.2269032	0.2465336
31.98804	-0.2334787	-0.07960548	0	0	-0.2268902	-0.2465194
32.00461	-0.2334787	-0.07960548	0	0	0	0
32.02122	-0.2330552	-0.07916097	0.02548974	0.02675669	0.7681763	0.8063581
32.03774	-0.2330552	-0.07916097	0	0	-0.7693704	-0.8076115
32.05431	-0.2330552	-0.07916097	0	0	0	0
32.07103	-0.2343503	-0.07680433	-0.07747247	0.1409807	-2.327672	4.235786
32.08744	-0.2343503	-0.07680433	0	0	2.338124	-4.254805
32.10474	-0.2343503	-0.07680433	0	0	0	0
32.12075	-0.239423	-0.07252119	-0.3168428	0.2675246	-9.513049	8.032295
32.13714	-0.239423	-0.07252119	0	0	9.778482	-8.256413
32.15371	-0.239423	-0.07252119	0	0	0	0
32.17028	-0.2409375	-0.06599338	-0.09141146	0.3940195	-2.758803	11.89153
32.18685	-0.2409375	-0.06599338	0	0	2.758486	-11.89016
32.20341	-0.2409375	-0.06599338	0	0	0	0
32.21998	-0.2354703	-0.05907766	0.3299967	0.4174334	9.960468	12.59961
32.23655	-0.2354703	-0.05907766	0	0	-9.959321	-12.59816
32.25402	-0.2354703	-0.05907766	0	0	0	0
32.26968	-0.2292153	-0.04523847	0.3995416	0.8839821	12.05958	26.6817
32.28625	-0.2292153	-0.04523847	0	0	-12.3979	-27.43023
32.30281	-0.2292153	-0.04523847	0	0	0	0
32.31938	-0.2285164	-0.044742	0.04218624	0.02996651	1.273183	0.9043909
32.33595	-0.2285164	-0.044742	0	0	-1.273183	-0.9043909
32.35254	-0.2285164	-0.044742	0	0	0	0
32.36908	-0.2285164	-0.04481838	0	-0.004616437	0	-0.1393404
32.38565	-0.2285164	-0.04481838	0	0	0	0.1394206
32.40264	-0.2285164	-0.04481838	0	0	0	0
32.41878	-0.2283915	-0.04499023	0.007734947	-0.01064732	0.2334681	-0.3213739
32.43562	-0.2283915	-0.04499023	0	0	-0.234494	0.3227862
32.45191	-0.2283915	-0.04499023	0	0	0	0
32.46848	-0.2281169	-0.04531485	0.0165775	-0.01959443	0.5045505	-0.5963733
32.4853	-0.2281169	-0.04531485	0	0	-0.4965371	0.5869017
32.50161	-0.2281169	-0.04531485	0	0	0	0
32.51818	-0.2249184	-0.04810429	0.193063	-0.168371	5.871265	-5.120354
32.53475	-0.2249184	-0.04810429	0	0	-5.826653	5.081448
32.55131	-0.2249184	-0.04810429	0	0	0	0
32.5686	-0.2077986	-0.06193797	0.9900392	-0.8000031	29.24314	-23.62997
32.58445	-0.2077986	-0.06193797	0	0	-29.87944	24.14414
32.60119	-0.2077986	-0.06193797	0	0	0	0
32.61758	-0.1816592	-0.08763848	1.595038	-1.568258	48.13833	-47.33012
32.63443	-0.1816592	-0.08763848	0	0	-47.98365	47.17804
32.65108	-0.1816592	-0.08763848	0	0	0	0
32.672	-0.1398185	-0.1194674	1.999322	-1.520921	53.21457	-40.48129
32.68857	-0.1398185	-0.1194674	0	0	-53.32285	40.56366
32.70514	-0.1108854	-0.1414855	1.746409	-1.329013	52.70673	-40.1097
32.72269	-0.1108854	-0.1414855	0	0	-51.18062	38.94833
32.73827	-0.1108854	-0.1414855	0	0	0	0
32.75527	-0.0755402	-0.1684697	2.079805	-1.587818	63.8492	-48.74541
32.77189	-0.0755402	-0.1684697	0	0	-61.8641	47.22989
32.78797	-0.0755402	-0.1684697	0	0	0	0
32.80454	-0.04163382	-0.1945203	2.046593	-1.57242	62.69012	-48.16551
32.82135	-0.04163382	-0.1945203	0	0	-61.30751	47.10324
32.83767	-0.04163382	-0.1945203	0	0	0	0
32.85424	-0.01420957	-0.2160093	1.655712	-1.297378	50.3521	-39.45474
32.8708	-0.01420957	-0.2160093	0	0	-49.97525	39.15945
32.88737	-0.01420957	-0.2160093	0	0	0	0
32.90395	-0.009841788	-0.2432539	0.2634578	-1.643355	7.948428	-49.57942
32.92052	-0.009841788	-0.2432539	0	0	-7.948428	49.57942
32.93708	-0.009841788	-0.2432539	0	0	0	0
32.95365	-0.02851858	-0.2759767	-1.127593	-1.975605	-34.03475	-59.63075
32.97021	-0.02851858	-0.2759767	0	0	34.03475	59.63075
32.98678	-0.02851858	-0.2759767	0	0	0	0
33.00335	-0.03330347	-0.2871519	-0.2888166	-0.6745373	-8.716503	-20.35758
33.01992	-0.03330347	-0.2871519	0	0	8.716503	20.35758
33.03648	-0.03330347	-0.2871519	0	0	0	0
33.05324	-0.03651008	-0.2897862	-0.191392	-0.1572319	-5.74382	-4.718649
33.07046	-0.03651008	-0.2897862	0	0	5.633536	4.628048
33.08654	-0.03651008	-0.2897862	0	0	0	0
33.10294	-0.03651008	-0.2897862	0	0	0	0
33.11971	-0.03651008	-0.2897862	0	0	0	0
33.13618	-0.03651008	-0.2897862	0	0	0	0
33.15264	-0.03651008	-0.2897862	0	0	0	0
33.1692	-0.03651008	-0.2897862	0	0	0	0
33.18577	-0.03651008	-0.2897862	0	0	0	0
33.20234	-0.03648381	-0.2898075	0.001586155	-0.001282596	0.04787026	-0.03870881
33.21891	-0.03648381	-0.2898075	0	0	-0.04787026	0.03870881
33.23547	-0.03648381	-0.2898075	0	0	0	0
33.25204	-0.03645752	-0.2898287	0.001586745	-0.001282891	0.04789358	-0.03872218
33.26861	-0.03645752	-0.2898287	0	0	-0.04788807	0.03871772
33.28529	-0.03645752	-0.2898287	0	0	0	0
33.30174	-0.03645752	-0.2898287	0	0	0	0
33.31831	-0.03645752	-0.2898287	0	0	0	0
33.33487	-0.03645752	-0.2898287	0	0	0	0
33.35144	-0.03643124	-0.28985	0.00158638	-0.001284394	0.04788256	-0.03876757
33.368	-0.03643124	-0.28985	0	0	-0.04787704	0.0387631
33.38462	-0.03643124	-0.28985	0	0	0	0
33.40113	-0.03624728	-0.2899988	0.01113755	-0.009008733	0.3361706	-0.2719154
33.41785	-0.03624728	-0.2899988	0	0	-0.3351288	0.2710727
33.43427	-0.03624728	-0.2899988	0	0	0	0
33.45084	-0.03246228	-0.2931057	0.228463	-0.1875306	6.926126	-5.685211
33.4674	-0.03246228	-0.2931057	0	0	-6.895027	5.659684
33.48397	-0.03246228	-0.2931057	0	0	0	0
33.50219	0.0003157895	-0.3198399	1.798738	-1.467075	51.70268	-42.16941
33.51913	0.0003157895	-0.3198399	0	0	-51.15856	41.72562
33.53533	0.0003157895	-0.3198399	0	0	0	0
33.5519	0.03698313	-0.3503303	2.213245	-1.840404	67.55022	-56.17079
33.56847	0.03698313	-0.3503303	0	0	-66.78818	55.53711
33.58508	0.03698313	-0.3503303	0	0	0	0
33.6016	0.04762186	-0.3628999	0.6440831	-0.7609826	19.44071	-22.96915
33.61816	0.04762186	-0.3628999	0	0	-19.4676	23.00093
33.63473	0.04762186	-0.3628999	0	0	0	0
33.65129	0.02615193	-0.3810293	-1.295928	-1.094293	-39.11567	-33.02964
33.66786	0.02615193	-0.3810293	0	0	39.11117	33.02584
33.68443	0.02615193	-0.3810293	0	0	0	0
33.701	0.008815561	-0.3951985	-1.046425	-0.8552502	-31.58118	-25.8115
33.71756	0.008815561	-0.3951985	0	0	31.58118	25.8115
33.73413	0.008815561	-0.3951985	0	0	0	0
33.75069	0.00347367	-0.3937283	-0.3225115	0.08875878	-9.734536	2.679054
33.76726	0.00347367	-0.3937283	0	0	9.734536	-2.679054
33.78383	0.00347367	-0.3937283	0	0	0	0
33.80042	-0.02112843	-0.3724187	-1.483278	1.284774	-44.73967	38.75224
33.81696	-0.02112843	-0.3724187	0	0	44.76543	-38.77454
33.83353	-0.02112843	-0.3724187	0	0	0	0
33.85009	-0.07132617	-0.3302259	-3.029941	2.546758	-91.45433	76.87016
33.86666	-0.07132617	-0.3302259	0	0	91.4438	-76.86131
33.88359	-0.07132617	-0.3302259	0	0	0	0
33.89979	-0.1164705	-0.2928501	-2.785854	2.306462	-84.08692	69.61719
33.91636	-0.1164705	-0.2928501	0	0	85.00697	-70.37891
33.93293	-0.1164705	-0.2928501	0	0	0	0
33.94967	-0.1336718	-0.2786797	-1.027626	0.8465542	-30.85397	25.41737
33.9663	-0.1336718	-0.2786797	0	0	30.78697	-25.36218
33.98263	-0.1336718	-0.2786797	0	0	0	0
33.9992	-0.1336201	-0.278722	0.003120143	-0.0025508	0.09486508	-0.07755474
34.0158	-0.1336201	-0.278722	0	0	-0.09406863	0.07690362
34.03233	-0.1336201	-0.278722	0	0	0	0
34.0489	-0.133465	-0.2788911	0.009363485	-0.01020915	0.2828836	-0.3084323
34.06546	-0.133465	-0.2788911	0	0	-0.2826231	0.3081482
34.08203	-0.133465	-0.2788911	0	0	0	0
34.09859	-0.1316809	-0.2803923	0.1077116	-0.09063184	3.251116	-2.735589
34.11518	-0.1316809	-0.2803923	0	0	-3.248871	2.733701
34.13173	-0.1316809	-0.2803923	0	0	0	0
34.1483	-0.1241477	-0.2868123	0.4548118	-0.387604	13.73574	-11.706
34.16487	-0.1241477	-0.2868123	0	0	-13.72625	11.69791
34.18143	-0.1241477	-0.2868123	0	0	0	0
34.198	-0.09961654	-0.3070881	1.480703	-1.22385	44.69286	-36.94011
34.21457	-0.09961654	-0.3070881	0	0	-44.68772	36.93586
34.23113	-0.09961654	-0.3070881	0	0	0	0
34.2477	-0.07404857	-0.3282263	1.543286	-1.275904	46.57646	-38.50685
34.26427	-0.07404857	-0.3282263	0	0	-46.57646	38.50685
34.28156	-0.07404857	-0.3282263	0	0	0	0
34.29757	-0.06857651	-0.3327723	0.3419473	-0.2840789	10.26915	-8.531284
34.31397	-0.06857651	-0.3327723	0	0	-10.55202	8.766283
34.33087	-0.06857651	-0.3327723	0	0	0	0
34.3471	-0.06658563	-0.334472	0.1226261	-0.1046904	3.700861	-3.159564
34.36367	-0.06658563	-0.334472	0	0	-3.738305	3.19153
34.38024	-0.06658563	-0.334472	0	0	0	0
34.3968	-0.06658563	-0.334472	0	0	0	0
34.41337	-0.06658563	-0.334472	0	0	0	0
34.43082	-0.06658563	-0.334472	0	0	0	0
34.4465	-0.06658563	-0.3345156	0	-0.002782847	0	-0.08399615
34.46307	-0.06658563	-0.3345156	0	0	0	0.0863015
34.47988	-0.06658563	-0.3345156	0	0	0	0
34.4964	-0.06655943	-0.334581	0.001585589	-0.00395766	0.04757385	-0.1187452
34.51277	-0.06655943	-0.334581	0	0	-0.0482028	0.1203151
34.52937	-0.06655943	-0.334581	0	0	0	0
34.54636	-0.06640223	-0.3347555	0.009252129	-0.0102664	0.2754247	-0.3056185
34.56247	-0.06640223	-0.3347555	0	0	-0.2795517	0.3101978
34.57904	-0.06640223	-0.3347555	0	0	0	0
34.59613	-0.06593062	-0.3351916	0.02758386	-0.02551177	0.8193703	-0.7578195
34.61217	-0.06593062	-0.3351916	0	0	-0.8324825	0.7699468
34.62884	-0.06593062	-0.3351916	0	0	0	0
34.64905	-0.06572101	-0.3353225	0.01037169	-0.006475026	0.2812534	-0.1755859
34.66562	-0.06572101	-0.3353225	0	0	-0.2820119	0.1760595
34.68218	-0.06574721	-0.3353007	-0.001581658	0.001316774	-0.04773453	0.03974032
34.69875	-0.06574721	-0.3353007	0	0	0.04773453	-0.03974032
34.71552	-0.06574721	-0.3353007	0	0	0	0
34.73204	-0.06561619	-0.3354534	0.007930201	-0.009241153	0.2382368	-0.2776201
34.74845	-0.06561619	-0.3354534	0	0	-0.2408033	0.2806108
34.76524	-0.06561619	-0.3354534	0	0	0	0
34.78158	-0.06333622	-0.3373523	0.139547	-0.1162244	4.212021	-3.508063
34.79837	-0.06333622	-0.3373523	0	0	-4.211536	3.507659
34.81471	-0.06333622	-0.3373523	0	0	0	0
34.83128	-0.06336243	-0.3372867	-0.001582108	0.003955719	-0.04808023	0.1202142
34.84785	-0.06336243	-0.3372867	0	0	0.04774261	-0.1193701
34.86441	-0.06336243	-0.3372867	0	0	0	0
34.88113	-0.06367695	-0.3369811	-0.01881543	0.01828681	-0.5653774	0.5494931
34.89755	-0.06367695	-0.3369811	0	0	0.5678508	-0.5518971
34.91412	-0.06367695	-0.3369811	0	0	0	0
34.93068	-0.06506592	-0.3356061	-0.08385753	0.08301366	-2.531117	2.505646
34.94725	-0.06506592	-0.3356061	0	0	2.530825	-2.505357
34.96381	-0.06506592	-0.3356061	0	0	0	0
35.03411	-0.0670572	-0.3340796	-0.02832657	0.02171415	-0.326115	0.2499884
35.05496	-0.0670572	-0.3340796	0	0	0.3107742	-0.2382286
35.07257	-0.06648083	-0.3346464	0.03273929	-0.0321963	0.8513448	-0.8372252
35.08914	-0.06648083	-0.3346464	0	0	-0.9579648	0.9420769
35.10571	-0.06648083	-0.3346464	0	0	0	0
35.12227	-0.06346728	-0.3371557	0.1819402	-0.1514963	5.490966	-4.572167
35.13885	-0.06346728	-0.3371557	0	0	-5.489071	4.570589
35.15541	-0.06346728	-0.3371557	0	0	0	0
35.17197	-0.06351969	-0.3371557	-0.003164494	0	-0.09554863	0
35.18855	-0.06351969	-0.3371557	0	0	0.09550463	0
35.20511	-0.06351969	-0.3371557	0	0	0	0
35.22198	-0.05334408	-0.3482849	0.6032283	-0.659757	18.04344	-19.73429
35.23824	-0.05334408	-0.3482849	0	0	-18.20756	19.9138
35.2548	-0.05334408	-0.3482849	0	0	0	0
35.27137	-0.03932182	-0.4020928	0.8463851	-3.24785	25.54689	-98.03161
35.28794	-0.03932182	-0.4020928	0	0	-25.54395	98.02032
35.30526	-0.03932182	-0.4020928	0	0	0	0
35.32126	-0.04620393	-0.4421223	-0.4300604	-2.501426	-12.90496	-75.06112
35.33764	-0.04620393	-0.4421223	0	0	13.28358	77.26334
35.3542	-0.04620393	-0.4421223	0	0	0	0
35.37124	-0.05053588	-0.4463541	-0.2542756	-0.2483976	-7.5669	-7.391979
35.38734	-0.05053588	-0.4463541	0	0	7.674053	7.496655
35.40393	-0.05053588	-0.4463541	0	0	0	0
35.42047	-0.05087711	-0.4459561	-0.02063442	0.02406646	-0.6227479	0.7263274
35.43709	-0.05087711	-0.4459561	0	0	0.622318	-0.725826
35.4536	-0.05087711	-0.4459561	0	0	0	0
35.47017	-0.05127082	-0.4455114	-0.02376422	0.02684097	-0.7184463	0.8114633
35.48674	-0.05127082	-0.4455114	0	0	0.7172056	-0.810062
35.50361	-0.05127082	-0.4455114	0	0	0	0
35.51987	-0.05232063	-0.444108	-0.06458605	0.08633903	-1.949435	2.606017
35.53671	-0.05232063	-0.444108	0	0	1.951233	-2.60842
35.553	-0.05232063	-0.444108	0	0	0	0
35.56957	-0.06582581	-0.4276264	-0.8151747	0.9948336	-24.81054	30.27861
35.58628	-0.06582581	-0.4276264	0	0	24.49767	-29.89679
35.6027	-0.06582581	-0.4276264	0	0	0	0
35.61927	-0.09213316	-0.3827571	-1.58828	2.70894	-48.14502	82.11522
35.63583	-0.09213316	-0.3827571	0	0	47.93991	-81.7654
35.6524	-0.09213316	-0.3827571	0	0	0	0
35.66912	-0.1116911	-0.344048	-1.169747	2.315159	-35.14121	69.55135
35.68554	-0.1116911	-0.344048	0	0	35.30304	-69.87165
35.70216	-0.1116911	-0.344048	0	0	0	0
35.71867	-0.1201293	-0.3226309	-0.5109774	1.296922	-15.42133	39.14118
35.73529	-0.1201293	-0.3226309	0	0	15.41955	-39.13668
35.7518	-0.1201293	-0.3226309	0	0	0	0
35.76855	-0.1308791	-0.3090638	-0.6416216	0.8097749	-19.29089	24.34656
35.78493	-0.1308791	-0.3090638	0	0	19.36418	-24.43905
35.8015	-0.1308791	-0.3090638	0	0	0	0
35.81807	-0.1399734	-0.3015164	-0.5489293	0.4555625	-16.56672	13.7489
35.83464	-0.1399734	-0.3015164	0	0	16.56672	-13.7489
35.85139	-0.1399734	-0.3015164	0	0	0	0
35.86777	-0.1404378	-0.3011313	-0.02836582	0.02352123	-0.8561807	0.7099539
35.88433	-0.1404378	-0.3011313	0	0	0.8611383	-0.7140648
35.90106	-0.1404378	-0.3011313	0	0	0	0
35.91754	-0.1404378	-0.3011313	0	0	0	0
35.93403	-0.1404378	-0.3011313	0	0	0	0
35.95061	-0.1404378	-0.3011313	0	0	0	0
35.96716	-0.1404636	-0.3012382	-0.001559619	-0.006463592	-0.0470748	-0.195094
35.98373	-0.1404636	-0.3012382	0	0	0.04709649	0.1951839
36.00029	-0.1404636	-0.3012382	0	0	0	0
36.01686	-0.1404636	-0.301281	0	-0.00258318	0	-0.07796052
36.03343	-0.1404636	-0.301281	0	0	0	0.07796052
36.05016	-0.1404636	-0.301281	0	0	0	0
36.07065	-0.1404636	-0.301281	0	0	0	0
36.0877	-0.1404636	-0.301281	0	0	0	0
36.10379	-0.1404636	-0.301281	0	0	0	0
36.12036	-0.1404636	-0.301281	0	0	0	0
36.13696	-0.1404636	-0.301281	0	0	0	0
36.15349	-0.1404894	-0.3013024	-0.001560517	-0.001294571	-0.04710191	-0.03907472
36.17006	-0.1404894	-0.3013024	0	0	0.04715077	0.03911525
36.18688	-0.1404894	-0.3013024	0	0	0	0
36.20319	-0.1404894	-0.301388	0	-0.005245483	0	-0.158309
36.21976	-0.1404894	-0.301388	0	0	0	0.1595396
36.23632	-0.1404894	-0.301388	0	0	0	0
36.25289	-0.1403346	-0.3016447	0.00934334	-0.01549728	0.2819826	-0.4677089
36.26946	-0.1403346	-0.3016447	0	0	-0.2819826	0.4677089
36.28628	-0.1403346	-0.3016447	0	0	0	0
36.30259	-0.1367465	-0.3047073	0.2199741	-0.1877521	6.638833	-5.66637
36.31939	-0.1367465	-0.3047073	0	0	-6.644187	5.67094
36.33573	-0.1367465	-0.3047073	0	0	0	0
36.35229	-0.1186765	-0.3198183	1.090954	-0.9123118	33.15793	-27.72836
36.36886	-0.1186765	-0.3198183	0	0	-32.92886	27.53679
36.38543	-0.1186765	-0.3198183	0	0	0	0
36.4021	-0.09771413	-0.3373304	1.2569	-1.050024	37.8071	-31.58432
36.41856	-0.09771413	-0.3373304	0	0	-37.93333	31.68977
36.43518	-0.09771413	-0.3373304	0	0	0	0
36.45176	-0.09059345	-0.3433028	0.4297064	-0.3604073	12.94472	-10.85712
36.46874	-0.09059345	-0.3433028	0	0	-12.80493	10.73987
36.48525	-0.09059345	-0.3433028	0	0	0	0
36.50139	-0.09056735	-0.3432809	0.001617064	0.00135717	0.04952723	0.04156724
36.51796	-0.09056735	-0.3432809	0	0	-0.04944059	-0.04149452
36.53453	-0.09056735	-0.3432809	0	0	0	0
36.55109	-0.09059345	-0.3432589	-0.001575725	0.001324275	-0.04756095	0.03997129
36.56792	-0.09059345	-0.3432589	0	0	0.04719146	-0.03966076
36.58423	-0.09059345	-0.3432589	0	0	0	0
36.60122	-0.09059345	-0.3432589	0	0	0	0
36.61739	-0.09059345	-0.3432589	0	0	0	0
36.63393	-0.09059345	-0.3432589	0	0	0	0
36.651	-0.09061955	-0.343237	-0.00152821	0.001282597	-0.045462	0.03815537
36.66706	-0.09061955	-0.343237	0	0	0.04612678	-0.03871332
36.68363	-0.09061955	-0.343237	0	0	0	0
36.70019	-0.09061955	-0.343237	0	0	0	0
36.71727	-0.09061955	-0.343237	0	0	0	0
36.73333	-0.09061955	-0.343237	0	0	0	0
36.75488	-0.09067175	-0.3431932	-0.002421875	0.002034015	-0.06438945	0.05407758
36.77145	-0.09067175	-0.3431932	0	0	0.06352612	-0.05335251
36.78812	-0.09075005	-0.3430836	-0.004696258	0.006570293	-0.1412617	0.197632
36.80458	-0.09075005	-0.3430836	0	0	0.1417333	-0.1982918
36.82115	-0.09075005	-0.3430836	0	0	0	0
36.83772	-0.09168956	-0.3420321	-0.05670853	0.06346779	-1.711664	1.915682
36.8548	-0.09168956	-0.3420321	0	0	1.685083	-1.885933
36.87085	-0.09168956	-0.3420321	0	0	0	0
36.88741	-0.09148079	-0.3222195	0.012604	1.196167	0.3864853	36.67891
36.90398	-0.09148079	-0.3222195	0	0	-0.3804332	-36.10455
36.9208	-0.09148079	-0.3222195	0	0	0	0
36.93711	-0.08137255	-0.2830593	0.6195498	2.400191	18.69805	72.43791
36.95368	-0.08137255	-0.2830593	0	0	-18.84121	-72.99254
36.97035	-0.08137255	-0.2830593	0	0	0	0
36.98689	-0.07839166	-0.2693412	0.1802592	0.8295524	5.428984	24.98417
37.00352	-0.07839166	-0.2693412	0	0	-5.433354	-25.00427
37.01995	-0.07839166	-0.2693412	0	0	0	0
37.03651	-0.07839166	-0.2694254	0	-0.005079384	0	-0.1539697
37.05308	-0.07839166	-0.2694254	0	0	0	0.1533138
37.06965	-0.07839166	-0.2694254	0	0	0	0
37.08654	-0.07841781	-0.2694043	-0.001548209	0.001245624	-0.04627222	0.0372287
37.10278	-0.07841781	-0.2694043	0	0	0.04672504	-0.03759302
37.11974	-0.07841781	-0.2694043	0	0	0	0
37.13591	-0.07841781	-0.2693623	0	0.002599254	0	0.07845468
37.15248	-0.07841781	-0.2693623	0	0	0	-0.07936854
37.16905	-0.07841781	-0.2693623	0	0	0	0
37.18562	-0.0879828	-0.2616813	-0.5773438	0.463625	-17.42427	13.99223
37.20219	-0.0879828	-0.2616813	0	0	17.42427	-13.99223
37.21878	-0.0879828	-0.2616813	0	0	0	0
37.23566	-0.1255985	-0.231586	-2.227911	1.782488	-66.55654	53.24998
37.25188	-0.1255985	-0.231586	0	0	67.29273	-53.83899
37.26845	-0.1255985	-0.231586	0	0	0	0
37.28502	-0.1560113	-0.2069595	-1.835718	1.486461	-55.40208	44.86148
37.30159	-0.1560113	-0.2069595	0	0	55.40208	-44.86148
37.31815	-0.1560113	-0.2069595	0	0	0	0
37.33472	-0.1556261	-0.1975422	0.02325757	0.5685609	0.7019957	17.16118
37.35128	-0.1556261	-0.1975422	0	0	-0.7019957	-17.16118
37.36785	-0.1556261	-0.1975422	0	0	0	0
37.38442	-0.1574747	-0.1959192	-0.1115858	0.09796566	-3.367666	2.956609
37.40099	-0.1574747	-0.1959192	0	0	3.367666	-2.956609
37.4178	-0.1574747	-0.1959192	0	0	0	0
37.43489	-0.1574234	-0.1958786	0.003003802	0.002373396	0.08860455	0.07000916
37.45093	-0.1574234	-0.1958786	0	0	-0.09065492	-0.07162923
37.4675	-0.1574234	-0.1958786	0	0	0	0
37.48407	-0.1573464	-0.1958178	0.004646145	0.003669807	0.1401886	0.1107295
37.50074	-0.1573464	-0.1958178	0	0	-0.1397864	-0.1104118
37.5173	-0.1573464	-0.1958178	0	0	0	0
37.53445	-0.1466244	-0.1873778	0.62502	0.4919921	18.53662	14.59133
37.55103	-0.1466244	-0.1873778	0	0	-18.53243	-14.58803
37.56759	-0.1466244	-0.1873778	0	0	0	0
37.58416	-0.1229296	-0.1689705	1.430216	1.111068	43.164	33.53209
37.60073	-0.1229296	-0.1689705	0	0	-43.164	-33.53209
37.61761	-0.1229296	-0.1689705	0	0	0	0
37.63386	-0.1182095	-0.165407	0.2905295	0.2193342	8.769208	6.620283
37.65065	-0.1182095	-0.165407	0	0	-8.792493	-6.637862
37.667	-0.1182095	-0.165407	0	0	0	0
37.68356	-0.1181576	-0.165487	0.003132735	-0.004829971	0.09519274	-0.1467657
37.70013	-0.1181576	-0.165487	0	0	-0.09454613	0.1457688
37.7167	-0.1181576	-0.165487	0	0	0	0
37.73326	-0.1181576	-0.165447	0	0.002415542	0	0.07290959
37.74983	-0.1181576	-0.165447	0	0	0	-0.07290119
37.7664	-0.1181576	-0.165447	0	0	0	0
37.78299	-0.1181316	-0.165307	0.001563847	0.008438398	0.04715899	0.2544663
37.79953	-0.1181316	-0.165307	0	0	-0.047197	-0.2546714
37.8161	-0.1181316	-0.165307	0	0	0	0
37.83266	-0.1222038	-0.1591343	-0.2458549	0.3726699	-7.42077	11.2485
37.84923	-0.1222038	-0.1591343	0	0	7.42077	-11.2485
37.8658	-0.1222038	-0.1591343	0	0	0	0
37.88236	-0.1461092	-0.1398426	-1.443598	1.164987	-43.5729	35.16341
37.89893	-0.1461092	-0.1398426	0	0	43.57792	-35.16746
37.91627	-0.1461092	-0.1398426	0	0	0	0
37.93206	-0.1580907	-0.1293384	-0.7588487	0.6652856	-22.90474	20.08067
37.94866	-0.1580907	-0.1293384	0	0	23.42806	-20.53947
37.96538	-0.1580907	-0.1293384	0	0	0	0
37.98176	-0.1534936	-0.1262864	0.2807141	0.1863635	8.481732	5.630945
37.99833	-0.1534936	-0.1262864	0	0	-8.520031	-5.656371
38.01522	-0.1534936	-0.1262864	0	0	0	0
38.03206	-0.1507168	-0.1241227	0.1649147	0.1284969	4.889324	3.809625
38.04807	-0.1507168	-0.1241227	0	0	-5.019903	-3.911368
38.06459	-0.1507168	-0.1241227	0	0	0	0
38.08116	-0.1312154	-0.1093028	1.177375	0.8947368	35.58652	27.04369
38.09864	-0.1312154	-0.1093028	0	0	-34.58173	-26.2801
38.11469	-0.1312154	-0.1093028	0	0	0	0
38.13086	-0.09901723	-0.08513892	1.991166	1.494321	61.80845	46.38571
38.14742	-0.09901723	-0.08513892	0	0	-60.82176	-45.64523
38.16399	-0.09901723	-0.08513892	0	0	0	0
38.1808	-0.06244502	-0.05790749	2.175445	1.619822	65.17484	48.52876
38.19712	-0.06244502	-0.05790749	0	0	-65.66261	-48.89196
38.21384	-0.06244502	-0.05790749	0	0	0	0
38.23033	-0.04415549	-0.01992736	1.109322	2.303624	33.4025	69.36379
38.24736	-0.04415549	-0.01992736	0	0	-33.10213	-68.74004
38.26394	-0.04415549	-0.01992736	0	0	0	0
38.27995	-0.04680789	0.008188383	-0.1656685	1.756105	-5.082386	53.8739
38.29652	-0.04680789	0.008188383	0	0	5.085362	-53.90544
38.31309	-0.04680789	0.008188383	0	0	0	0
38.32965	-0.04352513	0.01702119	0.198148	0.5331493	5.980117	16.09048
38.34622	-0.04352513	0.01702119	0	0	-5.980117	-16.09048
38.36295	-0.04352513	0.01702119	0	0	0	0
38.37936	-0.04349886	0.01700246	0.001601335	-0.001141897	0.0483284	-0.03446252
38.39592	-0.04349886	0.01700246	0	0	-0.04856884	0.03463397
38.41249	-0.04349886	0.01700246	0	0	0	0
38.42906	-0.04347259	0.01702119	0.001585481	0.001130591	0.0478499	0.0341213
38.44563	-0.04347259	0.01702119	0	0	-0.0478499	-0.0341213
38.46234	-0.04347259	0.01702119	0	0	0	0
38.47884	-0.04349886	0.01700246	-0.001591343	-0.001134772	-0.0479055	-0.03416095
38.49533	-0.04349886	0.01700246	0	0	0.04823787	0.03439796
38.51252	-0.04349886	0.01700246	0	0	0	0
38.52846	-0.04347259	0.01702119	0.001647701	0.00117496	0.04972771	0.03546035
38.54503	-0.04347259	0.01702119	0	0	-0.05068469	-0.03614276
38.5616	-0.04347259	0.01702119	0	0	0	0
38.57816	-0.04347259	0.01702119	0	0	0	0
38.59473	-0.04347259	0.01702119	0	0	0	0
38.6113	-0.04347259	0.01702119	0	0	0	0
38.62786	-0.04326246	0.01717102	0.01268632	0.009045911	0.3829179	0.2730376
38.64458	-0.04326246	0.01717102	0	0	-0.3811187	-0.2717547
38.66187	-0.04326246	0.01717102	0	0	0	0
38.67756	-0.04310486	0.01728339	0.01004729	0.007163675	0.3047011	0.2172506
38.69413	-0.04310486	0.01728339	0	0	-0.3115123	-0.222107
38.71069	-0.04310486	0.01728339	0	0	0	0
38.72726	-0.04076688	0.01894979	0.141121	0.100584	4.259042	3.035632
38.74417	-0.04076688	0.01894979	0	0	-4.215845	-3.004843
38.76039	-0.04076688	0.01894979	0	0	0	0
38.77696	-0.02107583	0.03298021	1.188554	0.8468777	36.2462	25.82642
38.79353	-0.02107583	0.03298021	0	0	-35.87064	-25.55882
38.81028	-0.02107583	0.03298021	0	0	0	0
38.82679	-0.01631434	0.03631634	0.2884665	0.2021141	8.671989	6.076033
38.84322	-0.01631434	0.03631634	0	0	-8.757354	-6.135843
38.85979	-0.01631434	0.03631634	0	0	0	0
38.87636	-0.01607756	0.03629771	0.01429215	-0.00112452	0.4313379	-0.03393807
38.89306	-0.01607756	0.03629771	0	0	-0.4295576	0.03379799
38.90949	-0.01607756	0.03629771	0	0	0	0
38.92616	-0.01544614	0.03607415	0.03789456	-0.01341678	1.14511	-0.4054326
38.94268	-0.01544614	0.03607415	0	0	-1.141688	0.4042211
38.95919	-0.01544614	0.03607415	0	0	0	0
38.97576	-0.01055224	0.0336514	0.2953964	-0.1462375	8.931533	-4.421601
38.99232	-0.01055224	0.0336514	0	0	-8.915081	4.413456
39.00927	-0.01055224	0.0336514	0	0	0	0
39.02546	-0.00173684	0.02792361	0.5445108	-0.3537951	16.43337	-10.67756
39.04203	-0.00173684	0.02792361	0	0	-16.62283	10.80066
39.05861	-0.00173684	0.02792361	0	0	0	0
39.12951	0.008894502	0.020447	0.1499566	-0.1054586	1.714208	-1.205536
39.14631	0.008894502	0.020447	0	0	-1.709883	1.202494
39.16278	0.01113112	0.01885619	0.1357841	-0.09657735	4.08059	-2.902347
39.17921	0.01113112	0.01885619	0	0	-4.127433	2.935665
39.19577	0.01113112	0.01885619	0	0	0	0
39.21234	0.01110481	0.01883747	-0.001588235	-0.001129916	-0.04793303	-0.03410094
39.22926	0.01110481	0.01883747	0	0	0.04743606	0.03374738
39.246	0.01110481	0.01883747	0	0	0	0
39.26205	0.01110481	0.01883747	0	0	0	0
39.27861	0.01110481	0.01883747	0	0	0	0
39.29528	0.01110481	0.01883747	0	0	0	0
39.31174	0.01110481	0.01883747	0	0	0	0
39.32831	0.01110481	0.01883747	0	0	0	0
39.34488	0.01110481	0.01883747	0	0	0	0
39.36216	0.01110481	0.01883747	0	0	0	0
39.37801	0.01110481	0.01883747	0	0	0	0
39.39458	0.01110481	0.01883747	0	0	0	0
39.41122	0.01110481	0.01883747	0	0	0	0
39.42771	0.01110481	0.01883747	0	0	0	0
39.44477	0.01110481	0.01883747	0	0	0	0
39.46194	0.01107849	0.01881875	-0.001532823	-0.001090495	-0.04478605	-0.03186209
39.47876	0.01107849	0.01881875	0	0	0.04510275	0.0320874
39.49507	0.01107849	0.01881875	0	0	0	0
39.51178	0.01107849	0.01881875	0	0	0	0
39.52821	0.01107849	0.01881875	0	0	0	0
39.54478	0.01107849	0.01881875	0	0	0	0
39.56134	0.01105218	0.01880003	-0.001588179	-0.001130029	-0.04793134	-0.03410434
39.57791	0.01105218	0.01880003	0	0	0.04793134	0.03410434
39.59447	0.01105218	0.01880003	0	0	0	0
39.61104	0.01105218	0.01880003	0	0	0	0
39.62787	0.01105218	0.01880003	0	0	0	0
39.64454	0.01105218	0.01880003	0	0	0	0
39.66111	0.01102587	0.01878131	-0.001587869	-0.001129656	-0.04776801	-0.03398354
