Time	Pos X	Pos Y	Vel X	Vel Y	Acc X	Acc Y
0.01669304	-0.002421048	-0.3357806	2.931793E-05	0.004066171	-3.550998E-07	-4.92496E-05
0.06713058	-0.002421048	-0.3357806	0	0	3.552456E-07	4.926981E-05
0.08509354	-0.002421048	-0.3357806	0	0	0	0
0.1016646	-0.002421048	-0.3357806	0	0	0	0
0.1182301	-0.002421048	-0.3357806	0	0	0	0
0.1347949	-0.002421048	-0.3357806	0	0	0	0
0.1513644	-0.002421048	-0.3357806	0	0	0	0
0.1679516	-0.002421048	-0.3357806	0	0	0	0
0.184497	-0.002421048	-0.3357806	0	0	0	0
0.2010641	-0.002421048	-0.3357806	0	0	0	0
0.2176324	-0.002421048	-0.3357806	0	0	0	0
0.2341944	-0.002421048	-0.3357806	0	0	0	0
0.2507623	-0.002421048	-0.3357806	0	0	0	0
0.2673306	-0.002421048	-0.3357806	0	0	0	0
0.2838957	-0.002394732	-0.3358024	0.001588618	-0.00131694	0.04794605	-0.03974654
0.3004644	-0.002394732	-0.3358024	0	0	-0.04794548	0.03974608
0.3170311	-0.002394732	-0.3358024	0	0	0	0
0.3335951	-0.002394732	-0.3358024	0	0	0	0
0.3501634	-0.002394732	-0.3358024	0	0	0	0
0.3667297	-0.002394732	-0.3358024	0	0	0	0
0.383656	-0.002394732	-0.3358024	0	0	0	0
0.3998639	-0.002394732	-0.3358024	0	0	0	0
0.4164306	-0.002394732	-0.3358024	0	0	0	0
0.432995	-0.002394732	-0.3358024	0	0	0	0
0.449643	-0.002394732	-0.3358024	0	0	0	0
0.4664991	-0.002394732	-0.3358024	0	0	0	0
0.4826955	-0.002394732	-0.3358024	0	0	0	0
0.4992638	-0.002394732	-0.3358024	0	0	0	0
0.5158309	-0.002394732	-0.3358024	0	0	0	0
0.5323964	-0.002394732	-0.3358024	0	0	0	0
0.5489639	-0.002394732	-0.3358024	0	0	0	0
0.5655302	-0.002394732	-0.3358024	0	0	0	0
0.5825955	-0.002394732	-0.3358024	0	0	0	0
0.598664	-0.002394732	-0.3358024	0	0	0	0
0.6152288	-0.002394732	-0.3358024	0	0	0	0
0.6323292	-0.002394732	-0.3358024	0	0	0	0
0.6493112	-0.002394732	-0.3358024	0	0	0	0
0.6653178	-0.002394732	-0.3358024	0	0	0	0
0.6823337	-0.002394732	-0.3358024	0	0	0	0
0.6980636	-0.002394732	-0.3358024	0	0	0	0
0.7146299	-0.002394732	-0.3358024	0	0	0	0
0.7314252	-0.002394732	-0.3358024	0	0	0	0
0.7477649	-0.002394732	-0.3358024	0	0	0	0
0.7644733	-0.002394732	-0.3358024	0	0	0	0
0.7808948	-0.002394732	-0.3358024	0	0	0	0
0.7974638	-0.002394732	-0.3358024	0	0	0	0
0.8147371	-0.002394732	-0.3358024	0	0	0	0
0.8307875	-0.002394732	-0.3358024	0	0	0	0
0.8471616	-0.002394732	-0.3358024	0	0	0	0
0.8637311	-0.002394732	-0.3358024	0	0	0	0
0.8802946	-0.002394732	-0.3358024	0	0	0	0
0.8969581	-0.002394732	-0.3358024	0	0	0	0
0.91343	-0.002394732	-0.3358024	0	0	0	0
0.9299976	-0.002394732	-0.3358024	0	0	0	0
0.9465627	-0.002394732	-0.3358024	0	0	0	0
0.9633355	-0.002394732	-0.3358024	0	0	0	0
0.9796954	-0.002394732	-0.3358024	0	0	0	0
0.9962637	-0.002394732	-0.3358024	0	0	0	0
1.013038	-0.002394732	-0.3358024	0	0	0	0
1.030061	-0.002394732	-0.3358024	0	0	0	0
1.045965	-0.002394732	-0.3358024	0	0	0	0
1.062728	-0.002394732	-0.3358024	0	0	0	0
1.079126	-0.002394732	-0.3358024	0	0	0	0
1.095663	-0.002394732	-0.3358024	0	0	0	0
1.112231	-0.002394732	-0.3358024	0	0	0	0
1.128795	-0.002394732	-0.3358024	0	0	0	0
1.145364	-0.002394732	-0.3358024	0	0	0	0
1.16193	-0.002394732	-0.3358024	0	0	0	0
1.178497	-0.002394732	-0.3358024	0	0	0	0
1.195065	-0.002394732	-0.3358024	0	0	0	0
1.212385	-0.002394732	-0.3358024	0	0	0	0
1.228198	-0.002394732	-0.3358024	0	0	0	0
1.244764	-0.002394732	-0.3358024	0	0	0	0
1.261331	-0.002394732	-0.3358024	0	0	0	0
1.277894	-0.002394732	-0.3358024	0	0	0	0
1.294465	-0.002394732	-0.3358024	0	0	0	0
1.311229	-0.002394732	-0.3358024	0	0	0	0
1.327597	-0.002394732	-0.3358024	0	0	0	0
1.344451	-0.002394732	-0.3358024	0	0	0	0
1.360731	-0.002394732	-0.3358024	0	0	0	0
1.381044	-0.002394732	-0.3358024	0	0	0	0
1.397614	-0.002394732	-0.3358024	0	0	0	0
1.414181	-0.002394732	-0.3358024	0	0	0	0
1.431244	-0.002394732	-0.3358024	0	0	0	0
1.447315	-0.002394732	-0.3358024	0	0	0	0
1.463881	-0.002394732	-0.3358024	0	0	0	0
1.480484	-0.002394732	-0.3358024	0	0	0	0
1.497014	-0.002394732	-0.3358024	0	0	0	0
1.513579	-0.002394732	-0.3358024	0	0	0	0
1.530151	-0.002394732	-0.3358024	0	0	0	0
1.547195	-0.002394732	-0.3358024	0	0	0	0
1.563281	-0.002368417	-0.3358243	0.001635951	-0.001356178	0.04937878	-0.04093426
1.579891	-0.002368417	-0.3358243	0	0	-0.05003519	0.04147841
1.596414	-0.002368417	-0.3358243	0	0	0	0
1.612979	-0.002368417	-0.3358243	0	0	0	0
1.629548	-0.002368417	-0.3358243	0	0	0	0
1.646115	-0.002368417	-0.3358243	0	0	0	0
1.662681	-0.002368417	-0.3358243	0	0	0	0
1.679248	-0.002368417	-0.3358243	0	0	0	0
1.695814	-0.002368417	-0.3358243	0	0	0	0
1.712378	-0.002368417	-0.3358243	0	0	0	0
1.728947	-0.002368417	-0.3358243	0	0	0	0
1.745606	-0.002368417	-0.3358243	0	0	0	0
1.762078	-0.002368417	-0.3358243	0	0	0	0
1.778647	-0.002368417	-0.3358243	0	0	0	0
1.795213	-0.002368417	-0.3358243	0	0	0	0
1.811779	-0.002368417	-0.3358243	0	0	0	0
1.828348	-0.002368417	-0.3358243	0	0	0	0
1.844915	-0.002368417	-0.3358243	0	0	0	0
1.861482	-0.002368417	-0.3358243	0	0	0	0
1.878075	-0.002368417	-0.3358243	0	0	0	0
1.894614	-0.002368417	-0.3358243	0	0	0	0
1.911181	-0.002368417	-0.3358243	0	0	0	0
1.928215	-0.002368417	-0.3358243	0	0	0	0
1.94437	-0.002368417	-0.3358243	0	0	0	0
1.96088	-0.002342101	-0.3358461	0.0015939	-0.001321319	0.0487955	-0.04045073
1.977556	-0.002342101	-0.3358461	0	0	-0.04802831	0.03981474
1.994135	-0.002342101	-0.3358461	0	0	0	0
2.010627	-0.002342101	-0.3358461	0	0	0	0
2.027373	-0.002342101	-0.3358461	0	0	0	0
2.044491	-0.002342101	-0.3358461	0	0	0	0
2.065574	-0.002342101	-0.3358461	0	0	0	0
2.082643	-0.002342101	-0.3358461	0	0	0	0
2.098712	-0.002342101	-0.3358461	0	0	0	0
2.115655	-0.002342101	-0.3358461	0	0	0	0
2.131845	-0.002342101	-0.3358461	0	0	0	0
2.1492	-0.002342101	-0.3358461	0	0	0	0
2.164978	-0.002342101	-0.3358461	0	0	0	0
2.181544	-0.002342101	-0.3358461	0	0	0	0
2.198111	-0.002342101	-0.3358461	0	0	0	0
2.214678	-0.002342101	-0.3358461	0	0	0	0
2.231244	-0.002342101	-0.3358461	0	0	0	0
2.247812	-0.002342101	-0.3358461	0	0	0	0
2.264379	-0.002342101	-0.3358461	0	0	0	0
2.281299	-0.002342101	-0.3358461	0	0	0	0
2.297799	-0.002342101	-0.3358461	0	0	0	0
2.314079	-0.002342101	-0.3358461	0	0	0	0
2.330791	-0.002342101	-0.3358461	0	0	0	0
2.347317	-0.002342101	-0.3358461	0	0	0	0
2.363919	-0.002342101	-0.3358461	0	0	0	0
2.380342	-0.002342101	-0.3358461	0	0	0	0
2.397099	-0.002342101	-0.3358461	0	0	0	0
2.413475	-0.002342101	-0.3358461	0	0	0	0
2.430162	-0.002342101	-0.3358461	0	0	0	0
2.446639	-0.002342101	-0.3358461	0	0	0	0
2.463177	-0.002342101	-0.3358461	0	0	0	0
2.479742	-0.002342101	-0.3358461	0	0	0	0
2.496308	-0.002342101	-0.3358461	0	0	0	0
2.512876	-0.002342101	-0.3358461	0	0	0	0
2.529444	-0.002342101	-0.3358461	0	0	0	0
2.546019	-0.002342101	-0.3358461	0	0	0	0
2.562577	-0.002342101	-0.3358461	0	0	0	0
2.579581	-0.002342101	-0.3358461	0	0	0	0
2.595708	-0.002342101	-0.3358461	0	0	0	0
2.612799	-0.002342101	-0.3358461	0	0	0	0
2.628844	-0.002342101	-0.3358461	0	0	0	0
2.645408	-0.002342101	-0.3358461	0	0	0	0
2.661977	-0.002342101	-0.3358461	0	0	0	0
2.678544	-0.002342101	-0.3358461	0	0	0	0
2.695108	-0.002342101	-0.3358461	0	0	0	0
2.711679	-0.002342101	-0.3358461	0	0	0	0
2.728245	-0.002342101	-0.3358461	0	0	0	0
2.747277	-0.002342101	-0.3358461	0	0	0	0
2.763846	-0.002342101	-0.3358461	0	0	0	0
2.780414	-0.002342101	-0.3358461	0	0	0	0
2.80186	-0.002342101	-0.3358461	0	0	0	0
2.818428	-0.002342101	-0.3358461	0	0	0	0
2.834996	-0.002342101	-0.3358461	0	0	0	0
2.851563	-0.002342101	-0.3358461	0	0	0	0
2.868129	-0.002342101	-0.3358461	0	0	0	0
2.884695	-0.002342101	-0.3358461	0	0	0	0
2.901488	-0.002342101	-0.3358461	0	0	0	0
2.918125	-0.002342101	-0.3358461	0	0	0	0
2.934398	-0.002342101	-0.3358461	0	0	0	0
2.950964	-0.002342101	-0.3358461	0	0	0	0
2.967531	-0.002342101	-0.3358461	0	0	0	0
2.984096	-0.002342101	-0.3358461	0	0	0	0
3.000663	-0.002342101	-0.3358461	0	0	0	0
3.017229	-0.002342101	-0.3358461	0	0	0	0
3.033796	-0.002342101	-0.3358461	0	0	0	0
3.050364	-0.002342101	-0.3358461	0	0	0	0
3.066931	-0.002342101	-0.3358461	0	0	0	0
3.083496	-0.002315785	-0.3358679	0.001588624	-0.001316945	0.04794821	-0.03974833
3.100064	-0.002315785	-0.3358679	0	0	-0.04794579	0.03974633
3.116629	-0.002315785	-0.3358679	0	0	0	0
3.133196	-0.002315785	-0.3358679	0	0	0	0
3.149763	-0.002315785	-0.3358679	0	0	0	0
3.166792	-0.002315785	-0.3358679	0	0	0	0
3.182897	-0.002315785	-0.3358679	0	0	0	0
3.199487	-0.002315785	-0.3358679	0	0	0	0
3.21603	-0.002315785	-0.3358679	0	0	0	0
3.232598	-0.002315785	-0.3358679	0	0	0	0
3.249164	-0.002315785	-0.3358679	0	0	0	0
3.26573	-0.002315785	-0.3358679	0	0	0	0
3.282804	-0.002315785	-0.3358679	0	0	0	0
3.298885	-0.002315785	-0.3358679	0	0	0	0
3.316164	-0.002315785	-0.3358679	0	0	0	0
3.331997	-0.002315785	-0.3358679	0	0	0	0
3.348564	-0.002315785	-0.3358679	0	0	0	0
3.365214	-0.002315785	-0.3358679	0	0	0	0
3.381696	-0.002315785	-0.3358679	0	0	0	0
3.398264	-0.002315785	-0.3358679	0	0	0	0
3.414831	-0.002315785	-0.3358679	0	0	0	0
3.431833	-0.002315785	-0.3358679	0	0	0	0
3.447964	-0.002315785	-0.3358679	0	0	0	0
3.46453	-0.002315785	-0.3358679	0	0	0	0
3.481331	-0.002315785	-0.3358679	0	0	0	0
3.497664	-0.002315785	-0.3358679	0	0	0	0
3.514229	-0.002315785	-0.3358679	0	0	0	0
3.530795	-0.002315785	-0.3358679	0	0	0	0
3.547364	-0.002315785	-0.3358679	0	0	0	0
3.56393	-0.002315785	-0.3358679	0	0	0	0
3.580495	-0.002315785	-0.3358679	0	0	0	0
3.597063	-0.002315785	-0.3358679	0	0	0	0
3.61363	-0.002315785	-0.3358679	0	0	0	0
3.630195	-0.002315785	-0.3358679	0	0	0	0
3.647142	-0.002315785	-0.3358679	0	0	0	0
3.663762	-0.002315785	-0.3358679	0	0	0	0
3.679895	-0.002315785	-0.3358679	0	0	0	0
3.696463	-0.002315785	-0.3358679	0	0	0	0
3.713031	-0.002315785	-0.3358679	0	0	0	0
3.729595	-0.002315785	-0.3358679	0	0	0	0
3.746164	-0.002315785	-0.3358679	0	0	0	0
3.76297	-0.002315785	-0.3358679	0	0	0	0
3.779519	-0.002315785	-0.3358679	0	0	0	0
3.795861	-0.002315785	-0.3358679	0	0	0	0
3.812429	-0.002315785	-0.3358679	0	0	0	0
3.828995	-0.002315785	-0.3358679	0	0	0	0
3.845562	-0.002315785	-0.3358679	0	0	0	0
3.862131	-0.002315785	-0.3358679	0	0	0	0
3.878697	-0.002210523	-0.3359552	0.006354023	-0.005269199	0.1917593	-0.1590202
3.895262	-0.002210523	-0.3359552	0	0	-0.1917841	0.1590407
3.911884	-0.002210523	-0.3359552	0	0	0	0
3.928397	-0.0005789473	-0.3373086	0.09880771	-0.08196227	2.98198	-2.473591
3.944962	-0.0005789473	-0.3373086	0	0	-2.987138	2.47787
3.961531	-0.0005789473	-0.3373086	0	0	0	0
3.978537	0.002236838	-0.3396468	0.1655791	-0.1374988	4.931645	-4.095294
3.994663	0.002236838	-0.3396468	0	0	-4.997655	4.150109
4.011231	0.002236838	-0.3396468	0	0	0	0
4.027795	0.003999979	-0.3410689	0.1064448	-0.08585046	3.212672	-2.591103
4.044364	0.003999979	-0.3410689	0	0	-3.212649	2.591084
4.06093	0.003999979	-0.3410689	0	0	0	0
4.077495	0.03947948	-0.370457	2.141793	-1.774075	64.64689	-53.54786
4.094065	0.03947948	-0.370457	0	0	-64.63759	53.54016
4.110785	0.03947948	-0.370457	0	0	0	0
4.127295	0.06899557	-0.3954927	1.78777	-1.516394	53.80015	-45.63352
4.143881	0.06899557	-0.3954927	0	0	-54.01719	45.81761
4.160431	0.06899557	-0.3954927	0	0	0	0
4.176986	0.08706878	-0.4111659	1.091718	-0.9467441	32.97801	-28.59872
4.193464	0.08706878	-0.4111659	0	0	-33.04942	28.66065
4.21003	0.08706878	-0.4111659	0	0	0	0
4.226597	0.1099755	-0.4313992	1.382614	-1.221249	41.72857	-36.85844
4.243163	0.1099755	-0.4313992	0	0	-41.72917	36.85897
4.25973	0.1099755	-0.4313992	0	0	0	0
4.276876	0.1295079	-0.4487209	1.139204	-1.010269	33.7909	-29.96645
4.293427	0.1295079	-0.4487209	0	0	-33.80763	29.98129
4.310022	0.1295079	-0.4487209	0	0	0	0
4.325995	0.1335167	-0.4510446	0.2509646	-0.1454745	7.705757	-4.46673
4.342562	0.1335167	-0.4510446	0	0	-7.712419	4.470592
4.359129	0.1335167	-0.4510446	0	0	0	0
4.375697	0.134137	-0.450434	0.03744351	0.03685888	1.130048	1.112403
4.392264	0.134137	-0.450434	0	0	-1.130031	-1.112387
4.408831	0.134137	-0.450434	0	0	0	0
4.425397	0.1372371	-0.4474315	0.1871393	0.181243	5.648201	5.470239
4.441965	0.1372371	-0.4474315	0	0	-5.648038	-5.470082
4.45853	0.1372371	-0.4474315	0	0	0	0
4.475098	0.1518483	-0.4336953	0.8819084	0.8290941	26.61681	25.02283
4.491665	0.1518483	-0.4336953	0	0	-26.61605	-25.02211
4.508331	0.1518483	-0.4336953	0	0	0	0
4.524831	0.1706656	-0.4145077	1.140472	1.162919	34.38686	35.06365
4.541366	0.1706656	-0.4145077	0	0	-34.52386	-35.20334
4.557933	0.1706656	-0.4145077	0	0	0	0
4.574501	0.1801823	-0.4015247	0.5744145	0.7836379	17.33562	23.6499
4.591387	0.1801823	-0.4015247	0	0	-17.17006	-23.42405
4.6079	0.1801823	-0.4015247	0	0	0	0
4.624197	0.1821683	-0.3997535	0.1218628	0.1086842	3.714282	3.312608
4.640766	0.1821683	-0.3997535	0	0	-3.707869	-3.306889
4.657331	0.1821683	-0.3997535	0	0	0	0
4.673902	0.1824992	-0.3994584	0.01996705	0.01780344	0.6025808	0.5372858
4.690466	0.1824992	-0.3994584	0	0	-0.6025894	-0.5372936
4.707033	0.1824992	-0.3994584	0	0	0	0
4.723597	0.1824992	-0.3994584	0	0	0	0
4.740503	0.1824992	-0.3994584	0	0	0	0
4.756928	0.1824992	-0.3994584	0	0	0	0
4.773297	0.1824992	-0.3994584	0	0	0	0
4.789866	0.1824992	-0.3994584	0	0	0	0
4.806433	0.1824992	-0.3994584	0	0	0	0
4.822997	0.1824992	-0.3994584	0	0	0	0
4.839664	0.1824992	-0.3994584	0	0	0	0
4.85626	0.1824992	-0.3994584	0	0	0	0
4.8727	0.1824992	-0.3994584	0	0	0	0
4.889266	0.1824992	-0.3994584	0	0	0	0
4.905833	0.1824992	-0.3994584	0	0	0	0
4.9224	0.1824992	-0.3994584	0	0	0	0
4.938969	0.1824992	-0.3994584	0	0	0	0
4.956318	0.1824992	-0.3994584	0	0	0	0
4.972097	0.1824992	-0.3994584	0	0	0	0
4.988666	0.1824992	-0.3994584	0	0	0	0
5.005391	0.1824992	-0.3994584	0	0	0	0
5.0218	0.1824737	-0.3994811	-0.001551058	-0.001383965	-0.04681169	-0.04176874
5.038367	0.1824737	-0.3994811	0	0	0.04703642	0.04196927
5.054934	0.1824737	-0.3994811	0	0	0	0
5.071895	0.1824737	-0.3994811	0	0	0	0
5.088067	0.1824737	-0.3994811	0	0	0	0
5.1052	0.1824737	-0.3994811	0	0	0	0
5.123982	0.1824483	-0.3994584	-0.001355074	0.001209094	-0.03773013	0.03366553
5.140553	0.1824483	-0.3994584	0	0	0.03833013	-0.03420089
5.157229	0.1824483	-0.3994584	0	0	0	0
5.173682	0.1821429	-0.3991862	-0.01856253	0.01654833	-0.5602988	0.4995013
5.190252	0.1821429	-0.3991862	0	0	0.5621111	-0.501117
5.206833	0.1821429	-0.3991862	0	0	0	0
5.223382	0.1821174	-0.3991635	-0.001538007	0.001370519	-0.04642383	0.04136831
5.239952	0.1821174	-0.3991635	0	0	0.04643987	-0.0413826
5.256518	0.1821174	-0.3991635	0	0	0	0
5.273083	0.1821174	-0.3991635	0	0	0	0
5.289866	0.1821174	-0.3991635	0	0	0	0
5.306379	0.1821174	-0.3991635	0	0	0	0
5.323795	0.1819901	-0.3990954	-0.007306839	0.003906678	-0.2153576	0.1151432
5.340412	0.1819901	-0.3990954	0	0	0.2146998	-0.1147915
5.409065	0.1819901	-0.3990954	0	0	0	0
5.427199	0.1521312	-0.3728872	-1.646606	1.445285	-18.97301	16.65329
5.444598	0.1521312	-0.3728872	0	0	46.34026	-40.6745
5.460466	0.1521312	-0.3728872	0	0	0	0
5.481341	0.1385797	-0.3614149	-0.6491583	0.5495586	-17.66746	14.95676
5.497909	0.1385797	-0.3614149	0	0	17.33717	-14.67714
5.515183	0.1345764	-0.3591787	-0.2317496	0.1294494	-6.847971	3.8251
5.53146	0.1345764	-0.3591787	0	0	6.907437	-3.858316
5.547612	0.1345764	-0.3591787	0	0	0	0
5.564178	0.1283692	-0.3616143	-0.3747014	-0.1470237	-11.45239	-4.493639
5.580743	0.1283692	-0.3616143	0	0	11.30965	4.437631
5.597314	0.1283692	-0.3616143	0	0	0	0
5.618545	0.1203627	-0.3681639	-0.3771147	-0.3084993	-9.976121	-8.160982
5.635112	0.1203627	-0.3681639	0	0	9.977253	8.161908
5.658115	0.1142113	-0.3733558	-0.2674171	-0.2257014	-6.758102	-5.703873
5.674877	0.1142113	-0.3733558	0	0	6.724876	5.67583
5.691247	0.1141594	-0.3733112	-0.003173152	0.002725307	-0.09577145	0.08225466
5.707815	0.1141594	-0.3733112	0	0	0.09633712	-0.08274049
5.724383	0.1141594	-0.3733112	0	0	0	0
5.740948	0.1135879	-0.3728202	-0.03450022	0.02963793	-1.041279	0.8945261
5.757598	0.1135879	-0.3728202	0	0	1.038693	-0.8923044
5.774083	0.1135879	-0.3728202	0	0	0	0
5.790648	0.1128864	-0.3722626	-0.04234614	0.03366533	-1.28131	1.018646
5.807215	0.1128864	-0.3722626	0	0	1.278101	-1.016095
5.823782	0.1128864	-0.3722626	0	0	0	0
5.840348	0.1090395	-0.369722	-0.2322305	0.1533679	-7.009033	4.628851
5.856916	0.1090395	-0.369722	0	0	7.008831	-4.628718
5.873483	0.1090395	-0.369722	0	0	0	0
5.890071	0.05504959	-0.3585815	-3.254714	0.671593	-98.16672	20.25618
5.906615	0.05504959	-0.3585815	0	0	98.23454	-20.27017
5.923183	0.05504959	-0.3585815	0	0	0	0
5.939747	-0.001763156	-0.3331862	-3.429816	1.533125	-103.5195	46.27313
5.956316	-0.001763156	-0.3331862	0	0	103.515	-46.27113
5.973428	-0.001763156	-0.3331862	0	0	0	0
5.989447	-0.0244162	-0.3163413	-1.414106	1.051539	-42.6827	31.73915
6.006015	-0.0244162	-0.3163413	0	0	43.39471	-32.2686
6.022974	-0.0244162	-0.3163413	0	0	0	0
6.039147	-0.02851858	-0.3129787	-0.2536506	0.2079058	-7.65563	6.274971
6.055716	-0.02851858	-0.3129787	0	0	7.746943	-6.349816
6.072283	-0.02851858	-0.3129787	0	0	0	0
6.088848	-0.02862376	-0.3128926	-0.006349287	0.005201137	-0.1916356	0.1569819
6.105418	-0.02862376	-0.3128926	0	0	0.1916191	-0.1569684
6.122247	-0.02862376	-0.3128926	0	0	0	0
6.138548	-0.02872894	-0.3128064	-0.006451877	0.005283441	-0.1947404	0.1594729
6.155115	-0.02872894	-0.3128064	0	0	0.1962972	-0.1607477
6.172111	-0.02872894	-0.3128064	0	0	0	0
6.188249	-0.02872894	-0.3128064	0	0	0	0
6.204815	-0.02872894	-0.3128064	0	0	0	0
6.221383	-0.02872894	-0.3128064	0	0	0	0
6.238762	-0.02870264	-0.312828	0.001513006	-0.001239814	0.04457029	-0.03652257
6.254839	-0.02870264	-0.312828	0	0	-0.04522332	0.03705769
6.271085	-0.02870264	-0.312828	0	0	0	0
6.28765	-0.02867635	-0.3128495	0.001587283	-0.001298972	0.04837701	-0.03958991
6.304217	-0.02867635	-0.3128495	0	0	-0.04790774	0.03920588
6.320786	-0.02867635	-0.3128495	0	0	0	0
6.337352	-0.02865005	-0.312871	0.001587304	-0.001300697	0.04790424	-0.03925454
6.353918	-0.02865005	-0.312871	0	0	-0.04790838	0.03925793
6.370512	-0.02865005	-0.312871	0	0	0	0
6.387051	-0.02865005	-0.312871	0	0	0	0
6.403805	-0.02865005	-0.312871	0	0	0	0
6.420186	-0.02865005	-0.312871	0	0	0	0
6.436753	-0.02865005	-0.312871	0	0	0	0
6.453757	-0.02865005	-0.312871	0	0	0	0
6.470122	-0.02865005	-0.312871	0	0	0	0
6.486454	-0.02865005	-0.312871	0	0	0	0
6.503839	-0.02865005	-0.312871	0	0	0	0
6.519588	-0.02865005	-0.312871	0	0	0	0
6.536232	-0.02865005	-0.312871	0	0	0	0
6.552827	-0.02865005	-0.312871	0	0	0	0
6.569471	-0.02865005	-0.312871	0	0	0	0
6.585849	-0.02865005	-0.312871	0	0	0	0
6.602437	-0.02865005	-0.312871	0	0	0	0
6.619161	-0.02865005	-0.312871	0	0	0	0
6.636092	-0.02859746	-0.3129141	0.003105924	-0.002543441	0.09228801	-0.07557464
6.652118	-0.02859746	-0.3129141	0	0	-0.09424149	0.07717435
6.669042	-0.02859746	-0.3129141	0	0	0	0
6.685543	-0.02859746	-0.3129141	0	0	0	0
6.701818	-0.02859746	-0.3129141	0	0	0	0
6.718385	-0.02859746	-0.3129141	0	0	0	0
6.735226	-0.02857117	-0.3129357	0.001561416	-0.001279483	0.04673889	-0.03829961
6.751519	-0.02857117	-0.3129357	0	0	-0.04712431	0.03861543
6.768084	-0.02857117	-0.3129357	0	0	0	0
6.78465	-0.02857117	-0.3129357	0	0	0	0
6.801219	-0.02857117	-0.3129357	0	0	0	0
6.818334	-0.02857117	-0.3129357	0	0	0	0
6.83893	-0.02857117	-0.3129357	0	0	0	0
6.8555	-0.02857117	-0.3129357	0	0	0	0
6.872066	-0.02857117	-0.3129357	0	0	0	0
6.888634	-0.02857117	-0.3129357	0	0	0	0
6.9052	-0.02857117	-0.3129357	0	0	0	0
6.922599	-0.02854488	-0.3129572	0.001511157	-0.001236674	0.04449084	-0.03640962
6.93917	-0.02854488	-0.3129572	0	0	-0.04448522	0.03640502
6.955766	-0.02854488	-0.3129572	0	0	0	0
6.972308	-0.02851858	-0.3129787	0.001589546	-0.001302534	0.04796707	-0.03930602
6.988869	-0.02851858	-0.3129787	0	0	-0.04801751	0.03934735
7.005834	-0.02851858	-0.3129787	0	0	0	0
7.022	-0.02851858	-0.3129787	0	0	0	0
7.038568	-0.02851858	-0.3129787	0	0	0	0
7.055384	-0.02851858	-0.3129787	0	0	0	0
7.0738	-0.02849229	-0.3130002	0.001427838	-0.001168406	0.04052721	-0.03316358
7.090369	-0.02849229	-0.3130002	0	0	-0.04081334	0.03339773
7.106936	-0.02849229	-0.3130002	0	0	0	0
7.123501	-0.02849229	-0.3130002	0	0	0	0
7.140144	-0.02849229	-0.3130002	0	0	0	0
7.156636	-0.02849229	-0.3130002	0	0	0	0
7.221786	-0.02849229	-0.3130002	0	0	0	0
7.238357	-0.02849229	-0.3130002	0	0	0	0
7.255489	-0.02846599	-0.3130218	0.001534711	-0.001257689	0.04553653	-0.03731699
7.272059	-0.02846599	-0.3130218	0	0	-0.04553717	0.03731751
7.288627	-0.02846599	-0.3130218	0	0	0	0
7.305189	-0.02846599	-0.3130218	0	0	0	0
7.32176	-0.02846599	-0.3130218	0	0	0	0
7.338345	-0.02846599	-0.3130218	0	0	0	0
7.354894	-0.0284397	-0.3130433	0.001588905	-0.001300207	0.04795393	-0.0392409
7.371459	-0.0284397	-0.3130433	0	0	-0.04798225	0.03926407
7.388025	-0.0284397	-0.3130433	0	0	0	0
7.404592	-0.0284134	-0.3130648	0.001587258	-0.001300659	0.04790631	-0.03925623
7.421159	-0.0284134	-0.3130648	0	0	-0.04790424	0.03925453
7.437737	-0.0284134	-0.3130648	0	0	0	0
7.454292	-0.0284134	-0.3130648	0	0	0	0
7.470858	-0.0284134	-0.3130648	0	0	0	0
7.487426	-0.0284134	-0.3130648	0	0	0	0
7.504296	-0.02838711	-0.3130864	0.00155868	-0.001277241	0.0466144	-0.03819759
7.521354	-0.02838711	-0.3130864	0	0	-0.04594027	0.03764518
7.537122	-0.02838711	-0.3130864	0	0	0	0
7.553691	-0.02836081	-0.3131079	0.001586939	-0.001298598	0.04907472	-0.04015805
7.570634	-0.02836081	-0.3131079	0	0	-0.0473535	0.03874957
7.586826	-0.02836081	-0.3131079	0	0	0	0
7.603563	-0.02830823	-0.313151	0.003142027	-0.002574786	0.09541979	-0.07819332
7.619989	-0.02830823	-0.313151	0	0	-0.09474476	0.07764017
7.636525	-0.02830823	-0.313151	0	0	0	0
7.65309	-0.02825564	-0.3131941	0.0031747	-0.002599669	0.09590786	-0.07853615
7.669659	-0.02825564	-0.3131941	0	0	-0.09581538	0.07846043
7.686225	-0.02825564	-0.3131941	0	0	0	0
7.702792	-0.02817675	-0.3132587	0.004761501	-0.003899954	0.1437065	-0.1177042
7.71936	-0.02817675	-0.3132587	0	0	-0.1436983	0.1176975
7.735929	-0.02817675	-0.3132587	0	0	0	0
7.752863	-0.02815046	-0.3132802	0.001552711	-0.00127235	0.04634536	-0.03797713
7.769099	-0.02815046	-0.3132802	0	0	-0.04681039	0.03835819
7.78574	-0.02815046	-0.3132802	0	0	0	0
7.802193	-0.02807157	-0.3133448	0.004794482	-0.003926967	0.1448729	-0.1186595
7.818762	-0.02807157	-0.3133448	0	0	-0.1451887	0.1189183
7.83533	-0.02807157	-0.3133448	0	0	0	0
7.852309	-0.02801898	-0.3133879	0.003097311	-0.002536298	0.09232904	-0.07560556
7.868462	-0.02801898	-0.3133879	0	0	-0.09348242	0.07655003
7.885026	-0.02801898	-0.3133879	0	0	0	0
7.901589	-0.0279138	-0.3134741	0.00635006	-0.005201586	0.1916866	-0.1570181
7.918159	-0.0279138	-0.3134741	0	0	-0.1916535	0.156991
7.934897	-0.0279138	-0.3134741	0	0	0	0
7.951289	-0.02783491	-0.3135387	0.004812473	-0.003941704	0.1452575	-0.1189745
7.967905	-0.02783491	-0.3135387	0	0	-0.1457988	0.119418
7.984425	-0.02783491	-0.3135387	0	0	0	0
8.001149	-0.02778232	-0.3135818	0.003144579	-0.002576695	0.0945905	-0.07750826
8.017558	-0.02778232	-0.3135818	0	0	-0.09490632	0.07776705
8.034125	-0.02778232	-0.3135818	0	0	0	0
8.050691	-0.02772973	-0.3136249	0.0031747	-0.002601468	0.09581814	-0.07851698
8.06726	-0.02772973	-0.3136249	0	0	-0.09581263	0.07851246
8.083824	-0.02772973	-0.3136249	0	0	0	0
8.100705	-0.02767714	-0.3136679	0.003115445	-0.002551056	0.09315029	-0.07627535
8.116959	-0.02767714	-0.3136679	0	0	-0.09402431	0.07699104
8.133525	-0.02767714	-0.3136679	0	0	0	0
8.15009	-0.02765085	-0.3136895	0.00158735	-0.001300734	0.04791045	-0.03925962
8.166658	-0.02765085	-0.3136895	0	0	-0.04790769	0.03925736
8.183313	-0.02765085	-0.3136895	0	0	0	0
8.2031	-0.02762455	-0.313711	0.001329006	-0.00108896	0.03646928	-0.02988217
8.21968	-0.02762455	-0.313711	0	0	-0.03654483	0.02994408
8.236378	-0.02762455	-0.313711	0	0	0	0
8.252897	-0.02757196	-0.3137541	0.00318361	-0.002608677	0.09584153	-0.07853337
8.26937	-0.02757196	-0.3137541	0	0	-0.09649535	0.07906912
8.285937	-0.02757196	-0.3137541	0	0	0	0
8.302504	-0.02751937	-0.3137972	0.003174517	-0.002601318	0.09580987	-0.0785102
8.319075	-0.02751937	-0.3137972	0	0	-0.09579884	0.07850116
8.335875	-0.02751937	-0.3137972	0	0	0	0
8.352576	-0.02749307	-0.3138188	0.0015745	-0.001290113	0.04699772	-0.03850897
8.368773	-0.02749307	-0.3138188	0	0	-0.04785874	0.03921447
8.385629	-0.02749307	-0.3138188	0	0	0	0
8.401903	-0.02744048	-0.3138618	0.003231555	-0.002646132	0.09754256	-0.07987193
8.418475	-0.02744048	-0.3138618	0	0	-0.09838369	0.08056068
8.435209	-0.02744048	-0.3138618	0	0	0	0
8.451603	-0.02744048	-0.3138618	0	0	0	0
8.468172	-0.02744048	-0.3138618	0	0	0	0
8.484738	-0.02744048	-0.3138618	0	0	0	0
8.501307	-0.02741418	-0.3138834	0.001587188	-0.001300509	0.04790143	-0.03924945
8.517873	-0.02741418	-0.3138834	0	0	-0.04790143	0.03924945
8.534439	-0.02741418	-0.3138834	0	0	0	0
8.551005	-0.02738789	-0.3139049	0.001587258	-0.001300659	0.04790631	-0.03925623
8.56781	-0.02738789	-0.3139049	0	0	-0.04756404	0.03897576
8.58449	-0.02738789	-0.3139049	0	0	0	0
8.600707	-0.02738789	-0.3139049	0	0	0	0
8.617273	-0.02738789	-0.3139049	0	0	0	0
8.633839	-0.02738789	-0.3139049	0	0	0	0
8.650508	-0.02738789	-0.3139049	0	0	0	0
8.667038	-0.02738789	-0.3139049	0	0	0	0
8.683539	-0.02738789	-0.3139049	0	0	0	0
8.700104	-0.02736159	-0.3139265	0.001587554	-0.001300809	0.04801196	-0.03934001
8.717106	-0.02736159	-0.3139265	0	0	-0.04729581	0.03875322
8.733239	-0.02736159	-0.3139265	0	0	0	0
8.749804	-0.02736159	-0.3139265	0	0	0	0
8.766372	-0.02736159	-0.3139265	0	0	0	0
8.78294	-0.02736159	-0.3139265	0	0	0	0
8.799504	-0.02736159	-0.3139265	0	0	0	0
8.816072	-0.02736159	-0.3139265	0	0	0	0
8.832638	-0.02736159	-0.3139265	0	0	0	0
8.849442	-0.02736159	-0.3139265	0	0	0	0
8.865802	-0.02736159	-0.3139265	0	0	0	0
8.882337	-0.02736159	-0.3139265	0	0	0	0
8.898904	-0.02736159	-0.3139265	0	0	0	0
8.915471	-0.02736159	-0.3139265	0	0	0	0
8.932036	-0.02736159	-0.3139265	0	0	0	0
8.949393	-0.02736159	-0.3139265	0	0	0	0
8.965171	-0.02736159	-0.3139265	0	0	0	0
8.981737	-0.02736159	-0.3139265	0	0	0	0
8.998588	-0.02736159	-0.3139265	0	0	0	0
9.014872	-0.02736159	-0.3139265	0	0	0	0
9.031454	-0.02736159	-0.3139265	0	0	0	0
9.048203	-0.02736159	-0.3139265	0	0	0	0
9.06476	-0.02736159	-0.3139265	0	0	0	0
9.081138	-0.02736159	-0.3139265	0	0	0	0
9.097703	-0.02736159	-0.3139265	0	0	0	0
9.114582	-0.02736159	-0.3139265	0	0	0	0
9.130847	-0.02736159	-0.3139265	0	0	0	0
9.147663	-0.0273353	-0.313948	0.001563674	-0.001281333	0.04726796	-0.03873314
9.164291	-0.0273353	-0.313948	0	0	-0.04675443	0.03831233
9.181214	-0.0273353	-0.313948	0	0	0	0
9.197106	-0.0273353	-0.313948	0	0	0	0
9.213715	-0.0273353	-0.313948	0	0	0	0
9.230239	-0.0273353	-0.313948	0	0	0	0
9.246903	-0.0273353	-0.313948	0	0	0	0
9.263372	-0.0273353	-0.313948	0	0	0	0
9.279938	-0.0273353	-0.313948	0	0	0	0
9.296505	-0.0273353	-0.313948	0	0	0	0
9.313071	-0.0273353	-0.313948	0	0	0	0
9.329638	-0.0273353	-0.313948	0	0	0	0
9.346203	-0.0273353	-0.313948	0	0	0	0
9.363403	-0.0273353	-0.313948	0	0	0	0
9.379339	-0.0273353	-0.313948	0	0	0	0
9.395906	-0.0273353	-0.313948	0	0	0	0
9.412473	-0.0273353	-0.313948	0	0	0	0
9.429039	-0.0273353	-0.313948	0	0	0	0
9.445695	-0.0273353	-0.313948	0	0	0	0
9.462172	-0.0273353	-0.313948	0	0	0	0
9.479034	-0.0273353	-0.313948	0	0	0	0
9.495713	-0.0273353	-0.313948	0	0	0	0
9.511871	-0.0273353	-0.313948	0	0	0	0
9.528944	-0.0273353	-0.313948	0	0	0	0
9.545006	-0.0273353	-0.313948	0	0	0	0
9.561569	-0.0273353	-0.313948	0	0	0	0
9.578138	-0.0273353	-0.313948	0	0	0	0
9.594702	-0.0273353	-0.313948	0	0	0	0
9.611272	-0.0273353	-0.313948	0	0	0	0
9.627837	-0.0273353	-0.313948	0	0	0	0
9.644403	-0.0273353	-0.313948	0	0	0	0
9.660972	-0.0273353	-0.313948	0	0	0	0
9.677893	-0.0273353	-0.313948	0	0	0	0
9.694103	-0.0273353	-0.313948	0	0	0	0
9.710674	-0.0273353	-0.313948	0	0	0	0
9.72724	-0.0273353	-0.313948	0	0	0	0
9.743804	-0.0273353	-0.313948	0	0	0	0
9.760371	-0.0273353	-0.313948	0	0	0	0
9.776938	-0.0273353	-0.313948	0	0	0	0
9.793504	-0.0273353	-0.313948	0	0	0	0
9.810212	-0.0273353	-0.313948	0	0	0	0
9.826639	-0.0273353	-0.313948	0	0	0	0
9.843204	-0.0273353	-0.313948	0	0	0	0
9.859815	-0.0273353	-0.313948	0	0	0	0
9.876338	-0.0273353	-0.313948	0	0	0	0
9.892902	-0.0273353	-0.313948	0	0	0	0
9.90947	-0.0273353	-0.313948	0	0	0	0
9.926037	-0.0273353	-0.313948	0	0	0	0
9.942603	-0.0273353	-0.313948	0	0	0	0
9.959172	-0.0273353	-0.313948	0	0	0	0
9.976357	-0.0273353	-0.313948	0	0	0	0
9.994406	-0.0273353	-0.313948	0	0	0	0
10.01097	-0.0273353	-0.313948	0	0	0	0
10.02754	-0.0273353	-0.313948	0	0	0	0
10.04423	-0.0273353	-0.313948	0	0	0	0
10.06068	-0.0273353	-0.313948	0	0	0	0
10.07724	-0.0273353	-0.313948	0	0	0	0
10.09418	-0.0273353	-0.313948	0	0	0	0
10.11038	-0.0273353	-0.313948	0	0	0	0
10.12694	-0.0273353	-0.313948	0	0	0	0
10.14375	-0.0273353	-0.313948	0	0	0	0
10.16008	-0.0273353	-0.313948	0	0	0	0
10.17693	-0.0273353	-0.313948	0	0	0	0
10.19321	-0.0273353	-0.313948	0	0	0	0
10.20977	-0.0273353	-0.313948	0	0	0	0
10.22634	-0.0273353	-0.313948	0	0	0	0
10.24344	-0.0273353	-0.313948	0	0	0	0
10.25948	-0.0273353	-0.313948	0	0	0	0
10.27604	-0.0273353	-0.313948	0	0	0	0
10.29306	-0.0273353	-0.313948	0	0	0	0
10.30924	-0.0273353	-0.313948	0	0	0	0
10.32574	-0.0273353	-0.313948	0	0	0	0
10.34254	-0.0273353	-0.313948	0	0	0	0
10.35887	-0.0273353	-0.313948	0	0	0	0
10.37544	-0.0273353	-0.313948	0	0	0	0
10.39201	-0.0273353	-0.313948	0	0	0	0
10.40858	-0.0273353	-0.313948	0	0	0	0
10.42514	-0.0273353	-0.313948	0	0	0	0
10.44174	-0.0273353	-0.313948	0	0	0	0
10.45834	-0.0273353	-0.313948	0	0	0	0
10.47484	-0.0273353	-0.313948	0	0	0	0
10.49141	-0.0273353	-0.313948	0	0	0	0
10.50842	-0.0273353	-0.313948	0	0	0	0
10.52506	-0.0273353	-0.313948	0	0	0	0
10.54111	-0.02736159	-0.3139696	-0.00163867	-0.001342788	-0.05013481	-0.04108234
10.55768	-0.02736159	-0.3139696	0	0	0.05024182	0.04117004
10.57424	-0.02736159	-0.3139696	0	0	0	0
10.59111	-0.02741418	-0.3138834	-0.003118263	0.005110263	-0.09327179	0.1528554
10.60738	-0.02741418	-0.3138834	0	0	0.09411208	-0.1542325
10.62419	-0.02741418	-0.3138834	0	0	0	0
10.64051	-0.02825564	-0.3131941	-0.05155593	0.04223333	-1.556095	1.274715
10.65707	-0.02825564	-0.3131941	0	0	1.567556	-1.284103
10.67397	-0.02825564	-0.3131941	0	0	0	0
10.69044	-0.0558891	-0.2905942	-1.677714	1.372105	-50.28326	41.12378
10.70695	-0.0558891	-0.2905942	0	0	50.87363	-41.60661
10.72334	-0.0558891	-0.2905942	0	0	0	0
10.74059	-0.112029	-0.2452675	-3.255013	2.628062	-96.75772	78.12112
10.75648	-0.112029	-0.2452675	0	0	98.23649	-79.31507
10.77325	-0.112029	-0.2452675	0	0	0	0
10.78961	-0.1500994	-0.2147199	-2.327001	1.867182	-70.23306	56.3549
10.80618	-0.1500994	-0.2147199	0	0	70.66836	-56.70417
10.82278	-0.1500994	-0.2147199	0	0	0	0
10.83935	-0.1702822	-0.1981917	-1.218591	0.9979316	-36.73802	30.0856
10.85588	-0.1702822	-0.1981917	0	0	36.82272	-30.15496
10.87244	-0.1702822	-0.1981917	0	0	0	0
10.88927	-0.196611	-0.1758731	-1.564799	1.326462	-46.86156	39.724
10.90558	-0.196611	-0.1758731	0	0	47.22573	-40.0327
10.92259	-0.196611	-0.1758731	0	0	0	0
10.93871	-0.2231672	-0.1487636	-1.647702	1.682035	-49.72919	50.76538
10.95528	-0.2231672	-0.1487636	0	0	50.41556	-51.46605
10.97197	-0.2231672	-0.1487636	0	0	0	0
10.98851	-0.2240179	-0.1375879	-0.05142846	0.675579	-1.547304	20.32583
11.00498	-0.2240179	-0.1375879	0	0	1.558213	-20.46914
11.02154	-0.2240179	-0.1375879	0	0	0	0
11.03811	-0.2245432	-0.1359081	-0.03171057	0.1014042	-0.9570543	3.060472
11.05468	-0.2245432	-0.1359081	0	0	0.9570819	-3.06056
11.07197	-0.2245432	-0.1359081	0	0	0	0
11.0879	-0.2109963	-0.124752	0.8502433	0.7001865	25.59336	21.07647
11.10438	-0.2109963	-0.124752	0	0	-26.23193	-21.60234
11.12095	-0.2109963	-0.124752	0	0	0	0
11.13751	-0.1954717	-0.111356	0.9376566	0.8090948	28.29935	24.41923
11.15408	-0.1954717	-0.111356	0	0	-28.30831	-24.42697
11.17064	-0.1954717	-0.111356	0	0	0	0
11.18721	-0.1889046	-0.07362028	0.3963913	2.277732	11.96311	68.7421
11.20378	-0.1889046	-0.07362028	0	0	-11.96346	-68.74408
11.22035	-0.1889046	-0.07362028	0	0	0	0
11.23691	-0.1809209	-0.04735891	0.4820125	1.585505	14.54884	47.85613
11.25366	-0.1809209	-0.04735891	0	0	-14.46888	-47.59309
11.27004	-0.1809209	-0.04735891	0	0	0	0
11.28661	-0.1631167	-0.03403085	1.074786	0.8045757	32.6183	24.41778
11.30318	-0.1631167	-0.03403085	0	0	-32.43897	-24.28354
11.31974	-0.1631167	-0.03403085	0	0	0	0
11.33631	-0.1589118	-0.03095032	0.2538494	0.1859738	7.66185	5.613186
11.35322	-0.1589118	-0.03095032	0	0	-7.583702	-5.555933
11.36944	-0.1589118	-0.03095032	0	0	0	0
11.38601	-0.1589118	-0.03095032	0	0	0	0
11.40258	-0.1589118	-0.03095032	0	0	0	0
11.4196	-0.1589118	-0.03095032	0	0	0	0
11.43571	-0.1589375	-0.03093131	-0.001592557	0.001179505	-0.04806761	0.0356006
11.45228	-0.1589375	-0.03093131	0	0	0.04872967	-0.03609094
11.46884	-0.1589375	-0.03093131	0	0	0	0
11.48541	-0.1588092	-0.03060823	0.007744581	0.01950482	0.2337521	0.5887076
11.50213	-0.1588092	-0.03060823	0	0	-0.2326405	-0.585908
11.51854	-0.1588092	-0.03060823	0	0	0	0
11.53512	-0.1641926	-0.02586087	-0.3247558	0.286386	-9.845641	8.68238
11.55168	-0.1641926	-0.02586087	0	0	9.800587	-8.642649
11.56838	-0.1641926	-0.02586087	0	0	0	0
11.58481	-0.1649865	-0.02531065	-0.04831417	0.03348527	-1.458292	1.010704
11.60138	-0.1649865	-0.02531065	0	0	1.463939	-1.014617
11.61825	-0.1649865	-0.02531065	0	0	0	0
11.63451	-0.1649609	-0.02532962	0.001574875	-0.001167177	0.04753667	-0.03523054
11.65108	-0.1649609	-0.02532962	0	0	-0.04797584	0.03555602
11.66765	-0.1649609	-0.02532962	0	0	0	0
11.68421	-0.1649097	-0.02536756	0.003092073	-0.002290716	0.0933297	-0.0691419
11.70078	-0.1649097	-0.02536756	0	0	-0.09332164	0.06913593
11.71746	-0.1649097	-0.02536756	0	0	0	0
11.73395	-0.1649353	-0.02538654	-0.001553104	-0.001150372	-0.0468202	-0.03467936
11.75048	-0.1649353	-0.02538654	0	0	0.0470325	0.03483661
11.76705	-0.1649353	-0.02538654	0	0	0	0
11.78486	-0.1649097	-0.02540551	0.00143756	-0.001064685	0.04181158	-0.03096647
11.80143	-0.1649097	-0.02540551	0	0	-0.04180346	0.03096046
11.818	-0.1649097	-0.02540551	0	0	0	0
11.83457	-0.1648841	-0.02542448	0.001544964	-0.001145009	0.04662174	-0.03455246
11.85114	-0.1648841	-0.02542448	0	0	-0.04662308	0.03455345
11.86786	-0.1648841	-0.02542448	0	0	0	0
11.88427	-0.1648585	-0.0254814	0.001560956	-0.003468451	0.04711924	-0.1046992
11.90084	-0.1648585	-0.0254814	0	0	-0.0473277	0.1051624
11.91741	-0.1648585	-0.0254814	0	0	0	0
11.93426	-0.1648073	-0.02551934	0.003038023	-0.002250894	0.09089243	-0.0673429
11.95075	-0.1648073	-0.02551934	0	0	-0.09112121	0.06751241
11.96759	-0.1648073	-0.02551934	0	0	0	0
11.98367	-0.164756	-0.02559523	0.003185617	-0.004720496	0.09676597	-0.1433893
12.00058	-0.164756	-0.02559523	0	0	-0.0965506	0.1430702
12.01689	-0.164756	-0.02559523	0	0	0	0
12.03337	-0.1646024	-0.02574703	0.009323459	-0.009210884	0.2844113	-0.2809772
12.04994	-0.1646024	-0.02574703	0	0	-0.2821133	0.278707
12.0665	-0.1646024	-0.02574703	0	0	0	0
12.08307	-0.1639365	-0.02635426	0.0401972	-0.0366548	1.213224	-1.106308
12.09963	-0.1639365	-0.02635426	0	0	-1.213224	1.106308
12.11628	-0.1639365	-0.02635426	0	0	0	0
12.13277	-0.1573977	-0.03412598	0.3965065	-0.4712725	11.96659	-14.22303
12.14933	-0.1573977	-0.03412598	0	0	-11.99455	14.25627
12.1659	-0.1573977	-0.03412598	0	0	0	0
12.23473	-0.140412	-0.1039528	0.2467692	-1.014447	2.889614	-11.87896
12.2513	-0.140412	-0.1039528	0	0	-2.889452	11.87829
12.26791	-0.1436871	-0.1356513	-0.197266	-1.909255	-5.946482	-57.55352
12.28443	-0.1436871	-0.1356513	0	0	5.954356	57.62973
12.30101	-0.1436871	-0.1356513	0	0	0	0
12.31782	-0.1429911	-0.1690105	0.04139695	-1.984104	1.239941	-59.42881
12.33423	-0.1429911	-0.1690105	0	0	-1.24592	59.71537
12.35077	-0.1429911	-0.1690105	0	0	0	0
12.36727	-0.134809	-0.1948649	0.4959016	-1.566973	15.00867	-47.42511
12.38384	-0.134809	-0.1948649	0	0	-14.99828	47.39228
12.40081	-0.134809	-0.1948649	0	0	0	0
12.41739	-0.1219705	-0.216255	0.7744415	-1.290293	23.08499	-38.4618
12.43354	-0.1219705	-0.216255	0	0	-23.66282	39.42452
12.45039	-0.1219705	-0.216255	0	0	0	0
12.46667	-0.1007629	-0.2331131	1.302513	-1.035378	39.31333	-31.25045
12.48324	-0.1007629	-0.2331131	0	0	-39.65117	31.519
12.5001	-0.1007629	-0.2331131	0	0	0	0
12.52086	-0.08045752	-0.2492384	0.9781187	-0.7767674	25.99498	-20.64376
12.53763	-0.08045752	-0.2492384	0	0	-26.06301	20.69779
12.554	-0.07132617	-0.256515	0.5579137	-0.444586	16.8369	-13.41686
12.57067	-0.07132617	-0.256515	0	0	-16.88696	13.45675
12.58713	-0.07132617	-0.256515	0	0	0	0
12.6037	-0.07077632	-0.2569537	0.03319638	-0.02648549	1.005167	-0.801965
12.62027	-0.07077632	-0.2569537	0	0	-1.001898	0.7993567
12.63723	-0.07077632	-0.2569537	0	0	0	0
12.6534	-0.07077632	-0.2569955	0	-0.002586652	0	-0.07807205
12.66997	-0.07077632	-0.2569955	0	0	0	0.07902054
12.68653	-0.07077632	-0.2569955	0	0	0	0
12.70324	-0.07072395	-0.2570373	0.003135259	-0.002501427	0.09423985	-0.0751881
12.71982	-0.07072395	-0.2570373	0	0	-0.09417237	0.07513425
12.73623	-0.07072395	-0.2570373	0	0	0	0
12.75283	-0.07072395	-0.2570373	0	0	0	0
12.76937	-0.07072395	-0.2570373	0	0	0	0
12.78593	-0.07072395	-0.2570373	0	0	0	0
12.8025	-0.07072395	-0.2570373	0	0	0	0
12.81937	-0.07072395	-0.2570373	0	0	0	0
12.83563	-0.07072395	-0.2570373	0	0	0	0
12.8522	-0.07072395	-0.2570373	0	0	0	0
12.86876	-0.07072395	-0.2570373	0	0	0	0
12.8855	-0.07072395	-0.2570373	0	0	0	0
12.90748	-0.07072395	-0.2570373	0	0	0	0
12.92404	-0.07072395	-0.2570373	0	0	0	0
12.94061	-0.07072395	-0.2570373	0	0	0	0
12.95718	-0.07072395	-0.2570373	0	0	0	0
12.97375	-0.07072395	-0.2570373	0	0	0	0
12.99031	-0.07069777	-0.2570999	0.001580582	-0.003783681	0.04770343	-0.114195
13.0073	-0.07069777	-0.2570999	0	0	-0.04711086	0.1127765
13.02423	-0.07069777	-0.2570999	0	0	0	0
13.04026	-0.07069777	-0.2570999	0	0	0	0
13.05658	-0.07069777	-0.2570999	0	0	0	0
13.07314	-0.07069777	-0.2570999	0	0	0	0
13.08971	-0.07067158	-0.2571208	0.001580941	-0.001261154	0.047717	-0.038065
13.10628	-0.07067158	-0.2571208	0	0	-0.04771151	0.03806062
13.12285	-0.07067158	-0.2571208	0	0	0	0
13.13988	-0.07067158	-0.2571208	0	0	0	0
13.1563	-0.07067158	-0.2571208	0	0	0	0
13.17283	-0.07067158	-0.2571208	0	0	0	0
13.18911	-0.0706454	-0.2571417	0.001608456	-0.001283469	0.04902303	-0.03911798
13.20569	-0.0706454	-0.2571417	0	0	-0.04895473	0.03906348
13.22224	-0.0706454	-0.2571417	0	0	0	0
13.23881	-0.0706454	-0.2571417	0	0	0	0
13.25538	-0.0706454	-0.2571417	0	0	0	0
13.27194	-0.0706454	-0.2571417	0	0	0	0
13.28851	-0.0706454	-0.2571835	0	-0.002523817	0	-0.07616895
13.30508	-0.0706454	-0.2571835	0	0	0	0.07617114
13.32189	-0.0706454	-0.2571835	0	0	0	0
13.33843	-0.0706454	-0.2571835	0	0	0	0
13.35478	-0.0706454	-0.2571835	0	0	0	0
13.37134	-0.0706454	-0.2571835	0	0	0	0
13.38791	-0.0706454	-0.2571835	0	0	0	0
13.40448	-0.0706454	-0.2571835	0	0	0	0
13.42111	-0.0706454	-0.2571835	0	0	0	0
13.43768	-0.0706454	-0.2571835	0	0	0	0
13.45418	-0.0706454	-0.2571835	0	0	0	0
13.47075	-0.0706454	-0.2571835	0	0	0	0
13.48731	-0.0706454	-0.2571835	0	0	0	0
13.50395	-0.0706454	-0.2571835	0	0	0	0
13.52044	-0.0706454	-0.2571835	0	0	0	0
13.53701	-0.0706454	-0.2571835	0	0	0	0
13.55358	-0.0706454	-0.2571835	0	0	0	0
13.57074	-0.0706454	-0.2571835	0	0	0	0
13.58671	-0.07067158	-0.2572044	-0.001639874	-0.001308539	-0.04949291	-0.03949292
13.60328	-0.07067158	-0.2572044	0	0	0.05040399	0.04021992
13.62013	-0.07067158	-0.2572044	0	0	0	0
13.64194	-0.07067158	-0.2572044	0	0	0	0
13.65862	-0.07067158	-0.2572044	0	0	0	0
13.67511	-0.07067158	-0.2572044	0	0	0	0
13.69165	-0.07067158	-0.2572044	0	0	0	0
13.70821	-0.07067158	-0.2572044	0	0	0	0
13.72626	-0.0706454	-0.2572253	0.001451011	-0.001157836	0.04192371	-0.03345307
13.74283	-0.0706454	-0.2572253	0	0	-0.04191909	0.03344938
13.75947	-0.0706454	-0.2572253	0	0	0	0
13.77596	-0.0706454	-0.2572253	0	0	0	0
13.79279	-0.0706454	-0.2572253	0	0	0	0
13.80909	-0.0706454	-0.2572253	0	0	0	0
13.82566	-0.07059303	-0.2572671	0.003161249	-0.002522163	0.09618741	-0.07674192
13.84223	-0.07059303	-0.2572671	0	0	-0.09541219	0.07612342
13.85889	-0.07059303	-0.2572671	0	0	0	0
13.87536	-0.07054066	-0.2573507	0.003179553	-0.005075343	0.09595634	-0.1531698
13.89193	-0.07054066	-0.2573507	0	0	-0.09624442	0.1536296
13.90849	-0.07054066	-0.2573507	0	0	0	0
13.9253	-0.07043592	-0.2574343	0.00623103	-0.004973122	0.1866987	-0.1490083
13.94163	-0.07043592	-0.2574343	0	0	-0.1880474	0.1500848
13.95819	-0.07043592	-0.2574343	0	0	0	0
13.9749	-0.07033117	-0.2575179	0.006268459	-0.00500264	0.1883746	-0.1503353
13.99133	-0.07033117	-0.2575179	0	0	-0.1891879	0.1509843
14.00789	-0.07033117	-0.2575179	0	0	0	0
14.02446	-0.0702788	-0.2576015	0.003161613	-0.005046707	0.09542867	-0.1523274
14.04103	-0.0702788	-0.2576015	0	0	-0.09541768	0.1523099
14.05759	-0.0702788	-0.2576015	0	0	0	0
14.07416	-0.07025262	-0.2576224	0.001580309	-0.001261009	0.04769793	-0.03806062
14.09073	-0.07025262	-0.2576224	0	0	-0.04769244	0.03805624
14.10729	-0.07025262	-0.2576224	0	0	0	0
14.12386	-0.07025262	-0.2576224	0	0	0	0
14.14043	-0.07025262	-0.2576224	0	0	0	0
14.15735	-0.07025262	-0.2576224	0	0	0	0
14.17386	-0.07022643	-0.2576433	0.001586054	-0.001267038	0.04743712	-0.03789572
14.19013	-0.07022643	-0.2576433	0	0	-0.04838948	0.03865652
14.20669	-0.07022643	-0.2576433	0	0	0	0
14.2235	-0.07022643	-0.2576433	0	0	0	0
14.23983	-0.07022643	-0.2576433	0	0	0	0
14.25639	-0.07022643	-0.2576433	0	0	0	0
14.27296	-0.07025262	-0.2576642	-0.00158085	-0.001261082	-0.04771425	-0.03806281
14.28952	-0.07025262	-0.2576642	0	0	0.04771151	0.03806062
14.30615	-0.07025262	-0.2576642	0	0	0	0
14.32266	-0.07025262	-0.2576642	0	0	0	0
14.33923	-0.07025262	-0.2576642	0	0	0	0
14.3558	-0.07025262	-0.2576642	0	0	0	0
14.37236	-0.07025262	-0.2576642	0	0	0	0
14.38916	-0.07025262	-0.2576642	0	0	0	0
14.40588	-0.07025262	-0.2576642	0	0	0	0
14.42206	-0.07022643	-0.2576851	0.001618777	-0.001291338	0.04921601	-0.03926079
14.43862	-0.07022643	-0.2576851	0	0	-0.04943388	0.03943459
14.45519	-0.07022643	-0.2576851	0	0	0	0
14.47176	-0.07022643	-0.2576851	0	0	0	0
14.48833	-0.07022643	-0.2576851	0	0	0	0
14.50489	-0.07022643	-0.2576851	0	0	0	0
14.52146	-0.07025262	-0.257706	-0.001581032	-0.001263026	-0.04772112	-0.03812259
14.53831	-0.07025262	-0.257706	0	0	0.04731255	0.0377962
14.55534	-0.07025262	-0.257706	0	0	0	0
14.57125	-0.07025262	-0.257706	0	0	0	0
14.58775	-0.07025262	-0.257706	0	0	0	0
14.60429	-0.07025262	-0.257706	0	0	0	0
14.62086	-0.07025262	-0.257706	0	0	0	0
14.63743	-0.07025262	-0.257706	0	0	0	0
14.65399	-0.07025262	-0.257706	0	0	0	0
14.67056	-0.07022643	-0.2577269	0.001580668	-0.001260936	0.04770602	-0.03805624
14.68735	-0.07022643	-0.2577269	0	0	-0.04739092	0.03780488
14.70407	-0.07022643	-0.2577269	0	0	0	0
14.72026	-0.07022643	-0.2577269	0	0	0	0
14.73746	-0.07022643	-0.2577269	0	0	0	0
14.75339	-0.07022643	-0.2577269	0	0	0	0
14.77011	-0.07022643	-0.2577269	0	0	0	0
14.78652	-0.07022643	-0.2577269	0	0	0	0
14.80346	-0.07022643	-0.2577269	0	0	0	0
14.82151	-0.07025262	-0.2577478	-0.001450964	-0.001157469	-0.04147097	-0.03308239
14.83808	-0.07025262	-0.2577478	0	0	0.04191195	0.03343417
14.85465	-0.07025262	-0.2577478	0	0	0	0
14.87122	-0.07025262	-0.2577478	0	0	0	0
14.88778	-0.07025262	-0.2577478	0	0	0	0
14.90435	-0.07025262	-0.2577478	0	0	0	0
14.92118	-0.07025262	-0.2577478	0	0	0	0
14.93748	-0.07025262	-0.2577478	0	0	0	0
14.95405	-0.07025262	-0.2577478	0	0	0	0
14.97082	-0.07025262	-0.2577478	0	0	0	0
14.98718	-0.07025262	-0.2577478	0	0	0	0
15.00375	-0.07025262	-0.2577478	0	0	0	0
15.02031	-0.07025262	-0.2577478	0	0	0	0
15.03689	-0.07025262	-0.2577478	0	0	0	0
15.05345	-0.07025262	-0.2577478	0	0	0	0
15.07001	-0.0702788	-0.2577687	-0.001580582	-0.001263026	-0.04772128	-0.03813357
15.08732	-0.0702788	-0.2577687	0	0	0.04665991	0.03728544
15.10315	-0.0702788	-0.2577687	0	0	0	0
15.12269	-0.0702788	-0.2577687	0	0	0	0
15.13926	-0.0702788	-0.2577687	0	0	0	0
15.15583	-0.0702788	-0.2577687	0	0	0	0
15.17239	-0.0702788	-0.2577687	0	0	0	0
15.18896	-0.0702788	-0.2577687	0	0	0	0
15.20553	-0.0702788	-0.2577687	0	0	0	0
15.22209	-0.0702788	-0.2577687	0	0	0	0
15.23866	-0.0702788	-0.2577687	0	0	0	0
15.25522	-0.0702788	-0.2577687	0	0	0	0
15.27183	-0.0702788	-0.2577687	0	0	0	0
15.28836	-0.0702788	-0.2577687	0	0	0	0
15.30493	-0.0702788	-0.2577687	0	0	0	0
15.32149	-0.0702788	-0.2577687	0	0	0	0
15.33806	-0.0702788	-0.2577687	0	0	0	0
15.35463	-0.0702788	-0.2577687	0	0	0	0
15.37119	-0.07030499	-0.2577896	-0.001581032	-0.001261227	-0.04771975	-0.03806719
15.38776	-0.07030499	-0.2577896	0	0	0.04771838	0.0380661
15.40433	-0.07030499	-0.2577896	0	0	0	0
15.42504	-0.07030499	-0.2577896	0	0	0	0
15.4416	-0.07030499	-0.2577896	0	0	0	0
15.45817	-0.07030499	-0.2577896	0	0	0	0
15.47474	-0.07030499	-0.2577896	0	0	0	0
15.49131	-0.07030499	-0.2577896	0	0	0	0
15.51364	-0.07030499	-0.2577896	0	0	0	0
15.53161	-0.07030499	-0.2577896	0	0	0	0
15.54837	-0.07030499	-0.2577896	0	0	0	0
15.56475	-0.07030499	-0.2577896	0	0	0	0
15.58132	-0.07030499	-0.2577896	0	0	0	0
15.59801	-0.07030499	-0.2577896	0	0	0	0
15.6145	-0.07030499	-0.2577896	0	0	0	0
15.63102	-0.07030499	-0.2577896	0	0	0	0
15.65147	-0.07033117	-0.2578105	-0.001279926	-0.001021318	-0.03461517	-0.02762121
15.66804	-0.07033117	-0.2578105	0	0	0.03456881	0.02758422
15.68461	-0.07033117	-0.2578105	0	0	0	0
15.70117	-0.07033117	-0.2578105	0	0	0	0
15.71774	-0.07033117	-0.2578105	0	0	0	0
15.73431	-0.07033117	-0.2578105	0	0	0	0
15.75087	-0.07033117	-0.2578105	0	0	0	0
15.76744	-0.07033117	-0.2578105	0	0	0	0
15.78401	-0.07033117	-0.2578105	0	0	0	0
15.80067	-0.07033117	-0.2578105	0	0	0	0
15.81714	-0.07033117	-0.2578105	0	0	0	0
15.83371	-0.07033117	-0.2578105	0	0	0	0
15.85028	-0.07033117	-0.2578105	0	0	0	0
15.86684	-0.07033117	-0.2578105	0	0	0	0
15.88341	-0.07035736	-0.2578314	-0.00158085	-0.001262881	-0.04771563	-0.0381182
15.89997	-0.07035736	-0.2578314	0	0	0.04771151	0.03811491
15.91654	-0.07035736	-0.2578314	0	0	0	0
15.93311	-0.07035736	-0.2578314	0	0	0	0
15.94968	-0.07035736	-0.2578314	0	0	0	0
15.96624	-0.07035736	-0.2578314	0	0	0	0
15.98281	-0.07035736	-0.2578314	0	0	0	0
15.99937	-0.07035736	-0.2578314	0	0	0	0
16.01619	-0.07035736	-0.2578314	0	0	0	0
16.03275	-0.07038355	-0.2578523	-0.001581669	-0.001261735	-0.04739249	-0.03780613
16.04917	-0.07038355	-0.2578523	0	0	0.04796125	0.03825985
16.06564	-0.07038355	-0.2578523	0	0	0	0
16.08222	-0.07040973	-0.2578732	-0.001578855	-0.001259849	-0.04776541	-0.03811446
16.09877	-0.07040973	-0.2578732	0	0	0.04765267	0.0380245
16.11534	-0.07040973	-0.2578732	0	0	0	0
16.1319	-0.07067158	-0.2580822	-0.01580898	-0.01262199	-0.4771433	-0.3809544
16.14847	-0.07067158	-0.2580822	0	0	0.4771433	0.3809544
16.16504	-0.07067158	-0.2580822	0	0	0	0
16.1816	-0.08850502	-0.2723928	-1.076553	-0.8638853	-32.49229	-26.07361
16.19817	-0.08850502	-0.2723928	0	0	32.49229	26.07361
16.21474	-0.08850502	-0.2723928	0	0	0	0
16.2313	-0.1099495	-0.2898075	-1.294393	-1.051153	-39.06711	-31.72568
16.24787	-0.1099495	-0.2898075	0	0	39.06261	31.72202
16.26444	-0.1099495	-0.2898075	0	0	0	0
16.281	-0.12521	-0.302351	-0.9213334	-0.7573051	-27.8091	-22.85814
16.29799	-0.12521	-0.302351	0	0	27.46129	22.57226
16.31414	-0.12521	-0.302351	0	0	0	0
16.33078	-0.1275149	-0.3042572	-0.1385187	-0.1145565	-4.224765	-3.493926
16.34748	-0.1275149	-0.3042572	0	0	4.154199	3.435567
16.36384	-0.1275149	-0.3042572	0	0	0	0
16.38041	-0.127489	-0.3042358	0.00156232	0.001293389	0.04745138	0.03928329
16.39697	-0.127489	-0.3042358	0	0	-0.04715092	-0.03903455
16.41381	-0.127489	-0.3042358	0	0	0	0
16.43011	-0.1274631	-0.3042144	0.001588456	0.001314269	0.04793971	0.03966473
16.44668	-0.1274631	-0.3042144	0	0	-0.04832358	-0.03998234
16.46349	-0.1274631	-0.3042144	0	0	0	0
16.48011	-0.1274372	-0.3041929	0.0015573	0.001289233	0.04657845	0.03856063
16.49637	-0.1274372	-0.3041929	0	0	-0.04735652	-0.03920476
16.51301	-0.1274372	-0.3041929	0	0	0	0
16.52951	-0.1274631	-0.3041715	-0.001569004	0.001298922	-0.04735535	0.0392038
16.54608	-0.1274631	-0.3041715	0	0	0.04745096	-0.03928295
16.56271	-0.1274631	-0.3041715	0	0	0	0
16.57939	-0.1274631	-0.3041715	0	0	0	0
16.59578	-0.1274631	-0.3041715	0	0	0	0
16.61234	-0.1274631	-0.3041715	0	0	0	0
16.62891	-0.1274372	-0.3037644	0.0015625	0.02457542	0.04715906	0.7417303
16.64548	-0.1274372	-0.3037644	0	0	-0.04716177	-0.741773
16.66204	-0.1274372	-0.3037644	0	0	0	0
16.67861	-0.1264014	-0.3015378	0.06251979	0.1343991	1.886742	4.05594
16.69518	-0.1264014	-0.3015378	0	0	-1.88696	-4.056406
16.71204	-0.1264014	-0.3015378	0	0	0	0
16.72855	-0.1266604	-0.3013238	-0.01567823	0.01295468	-0.4697358	0.3881354
16.74488	-0.1266604	-0.3013238	0	0	0.4774019	-0.3944698
16.76144	-0.1266604	-0.3013238	0	0	0	0
16.77801	-0.1265568	-0.3013666	0.006251979	-0.00258318	0.1886851	-0.07796052
16.79468	-0.1265568	-0.3013666	0	0	-0.1881112	0.0777234
16.81143	-0.1265568	-0.3013666	0	0	0	0
16.82771	-0.1253654	-0.300511	0.07316955	0.05254517	2.215147	1.590761
16.84428	-0.1253654	-0.300511	0	0	-2.227366	-1.599536
16.86118	-0.1253654	-0.300511	0	0	0	0
16.87741	-0.1086234	-0.2868548	1.031449	0.8413392	31.12741	25.39021
16.89437	-0.1086234	-0.2868548	0	0	-31.08268	-25.35372
16.91055	-0.1086234	-0.2868548	0	0	0	0
16.92711	-0.06582581	-0.2523417	2.583564	2.083452	78.89403	63.62216
16.94378	-0.06582581	-0.2523417	0	0	-77.73942	-62.69105
16.96025	-0.06582581	-0.2523417	0	0	0	0
16.97681	-0.002447363	-0.2023575	3.825971	3.0174	115.8281	91.34926
16.99338	-0.002447363	-0.2023575	0	0	-115.4747	-91.07055
17.00995	-0.002447363	-0.2023575	0	0	0	0
17.02651	0.06207803	-0.1524607	3.895658	3.01247	117.5779	90.92176
17.04309	0.06207803	-0.1524607	0	0	-117.5441	-90.8956
17.05965	0.06207803	-0.1524607	0	0	0	0
17.07621	0.09093274	-0.1299098	1.741674	1.361176	52.58501	41.09692
17.09278	0.09093274	-0.1299098	0	0	-52.5608	-41.078
17.10935	0.09093274	-0.1299098	0	0	0	0
17.12591	0.09987709	-0.1231989	0.5400062	0.4051677	16.2993	12.22939
17.14257	0.09987709	-0.1231989	0	0	-16.25625	-12.19709
17.15905	0.09987709	-0.1231989	0	0	0	0
17.17561	0.1000334	-0.1232382	0.009435532	-0.002372712	0.2855374	-0.07180285
17.19218	0.1000334	-0.1232382	0	0	-0.2847485	0.07160447
17.20875	0.1000334	-0.1232382	0	0	0	0
17.22532	0.1077651	-0.117447	0.4666854	0.3495581	14.0854	10.55029
17.24188	0.1077651	-0.117447	0	0	-14.08378	-10.54908
17.25845	0.1077651	-0.117447	0	0	0	0
17.27502	0.1127565	-0.1142723	0.301284	0.1916194	9.093294	5.783418
17.29159	0.1127565	-0.1142723	0	0	-9.092247	-5.782753
17.30847	0.1127565	-0.1142723	0	0	0	0
17.32472	0.11351	-0.1148403	0.0463579	-0.03494813	1.399165	-1.054797
17.34129	0.11351	-0.1148403	0	0	-1.4125	1.064851
17.35818	0.11351	-0.1148403	0	0	0	0
17.37468	0.1149645	-0.1159767	0.08815093	-0.06886984	2.640036	-2.062586
17.39099	0.1149645	-0.1159767	0	0	-2.686536	2.098915
17.40755	0.1149645	-0.1159767	0	0	0	0
17.42412	0.1272301	-0.1253027	0.7404361	-0.5629799	22.34769	-16.99174
17.44069	0.1272301	-0.1253027	0	0	-22.34769	16.99174
17.45725	0.1272301	-0.1253027	0	0	0	0
17.47382	0.1356099	-0.1324731	0.5058085	-0.4328049	15.26533	-13.06208
17.49039	0.1356099	-0.1324731	0	0	-15.26621	13.06283
17.50729	0.1356099	-0.1324731	0	0	0	0
17.5243	0.1588605	-0.167108	1.3669	-2.036182	40.31102	-60.04871
17.5403	0.1588605	-0.167108	0	0	-41.39849	61.66864
17.55666	0.1588605	-0.167108	0	0	0	0
17.57322	0.1740371	-0.2025609	0.9162712	-2.140438	27.8374	-65.02902
17.5907	0.1740371	-0.2025609	0	0	-26.91713	62.87925
17.60635	0.1740371	-0.2025609	0	0	0	0
17.67851	0.1757724	-0.2116532	0.02404877	-0.1260065	0.2738593	-1.43492
17.69508	0.1757724	-0.2116532	0	0	-0.2710394	1.420145
17.71561	0.1757724	-0.2116532	0	0	0	0
17.74252	0.1757724	-0.2116532	0	0	0	0
17.75923	0.1757724	-0.2116532	0	0	0	0
17.77565	0.1757724	-0.2116532	0	0	0	0
17.79277	0.1757724	-0.2116532	0	0	0	0
17.80879	0.1757724	-0.2116532	0	0	0	0
17.82536	0.1757724	-0.2116532	0	0	0	0
17.84192	0.1757724	-0.2116532	0	0	0	0
17.85897	0.1757724	-0.2116532	0	0	0	0
17.87529	0.1757724	-0.2116532	0	0	0	0
17.89162	0.1757724	-0.2116532	0	0	0	0
17.9084	0.1757724	-0.2116532	0	0	0	0
17.92484	0.1757724	-0.2116532	0	0	0	0
17.94132	0.1757724	-0.2116532	0	0	0	0
17.95789	0.1757469	-0.2116327	-0.001540011	0.001233269	-0.04659297	0.03731247
17.97446	0.1757469	-0.2116327	0	0	0.04648031	-0.03722226
17.99103	0.1757469	-0.2116327	0	0	0	0
18.00759	0.1757469	-0.2116327	0	0	0	0
18.02416	0.1757469	-0.2116327	0	0	0	0
18.04117	0.1757469	-0.2116327	0	0	0	0
18.05729	0.1757469	-0.2116327	0	0	0	0
18.07386	0.1757469	-0.2116327	0	0	0	0
18.09043	0.1757469	-0.2116327	0	0	0	0
18.10699	0.1757469	-0.2116327	0	0	0	0
18.12356	0.1757469	-0.2116327	0	0	0	0
18.14037	0.1757469	-0.2116327	0	0	0	0
18.15669	0.1756959	-0.2116327	-0.003125365	0	-0.09433457	0
18.17344	0.1756959	-0.2116327	0	0	0.09449778	0
18.19012	0.1756959	-0.2116327	0	0	0	0
18.20662	0.1755683	-0.2117349	-0.007729426	-0.006189862	-0.2329527	-0.1865527
18.22296	0.1755683	-0.2117349	0	0	0.2353473	0.1884703
18.23953	0.1755683	-0.2117349	0	0	0	0
18.25609	0.1752621	-0.2119801	-0.01848496	-0.01480363	-0.5579416	-0.4468257
18.27266	0.1752621	-0.2119801	0	0	0.5579095	0.4468
18.28922	0.1752621	-0.2119801	0	0	0	0
18.30579	0.1619122	-0.2227146	-0.8057082	-0.6478637	-24.31632	-19.55257
18.32236	0.1619122	-0.2227146	0	0	24.31632	19.55257
18.33952	0.1619122	-0.2227146	0	0	0	0
18.35549	0.1306722	-0.2477822	-1.955442	-1.569082	-59.01875	-47.35772
18.37227	0.1306722	-0.2477822	0	0	59.70269	47.90653
18.38863	0.1306722	-0.2477822	0	0	0	0
18.40553	0.1176126	-0.2580822	-0.7725371	-0.6092948	-23.22431	-18.31685
18.42176	0.1176126	-0.2580822	0	0	23.31656	18.38961
18.43839	0.1176126	-0.2580822	0	0	0	0
18.4549	0.1164185	-0.2571626	-0.07232994	0.0557084	-2.182922	1.681283
18.47164	0.1164185	-0.2571626	0	0	2.175408	-1.675496
18.48803	0.1164185	-0.2571626	0	0	0	0
18.50469	0.1056577	-0.2591278	-0.6456609	-0.1179135	-19.53218	-3.567055
18.52116	0.1056577	-0.2591278	0	0	19.48609	3.558636
18.53821	0.1056577	-0.2591278	0	0	0	0
18.55429	0.07713612	-0.2711084	-1.773215	-0.7448472	-53.51881	-22.48083
18.57086	0.07713612	-0.2711084	0	0	54.30663	22.81176
18.58743	0.07713612	-0.2711084	0	0	0	0
18.60399	0.03997869	-0.3012596	-2.243085	-1.820141	-67.70035	-54.93512
18.62056	0.03997869	-0.3012596	0	0	67.70035	54.93512
18.63762	0.03997869	-0.3012596	0	0	0	0
18.65369	-0.008920816	-0.3417037	-3.041934	-2.515938	-91.80576	-75.93117
18.67026	-0.008920816	-0.3417037	0	0	93.18432	77.07136
18.68683	-0.008920816	-0.3417037	0	0	0	0
18.70339	-0.03766639	-0.3660741	-1.735286	-1.471168	-52.37706	-44.40505
18.71996	-0.03766639	-0.3660741	0	0	52.37405	44.40249
18.73668	-0.03766639	-0.3660741	0	0	0	0
18.75309	-0.04475956	-0.3720395	-0.4320745	-0.3633816	-13.04078	-10.96751
18.76966	-0.04475956	-0.3720395	0	0	13.0996	11.01698
18.78623	-0.04475956	-0.3720395	0	0	0	0
18.80285	-0.0447333	-0.3720172	0.001580525	0.00134154	0.04762905	0.04042726
18.81936	-0.0447333	-0.3720172	0	0	-0.04770308	-0.0404901
18.83593	-0.0447333	-0.3720172	0	0	0	0
18.85249	-0.04470703	-0.3720395	0.001585621	-0.001345866	0.04785689	-0.04062065
18.86906	-0.04470703	-0.3720395	0	0	-0.04785964	0.04062299
18.88563	-0.04470703	-0.3720395	0	0	0	0
18.90303	-0.04470703	-0.3720395	0	0	0	0
18.91959	-0.04470703	-0.3720395	0	0	0	0
18.93616	-0.04470703	-0.3720395	0	0	0	0
18.95282	-0.04470703	-0.3720395	0	0	0	0
18.9693	-0.04470703	-0.3720395	0	0	0	0
18.98586	-0.04470703	-0.3720395	0	0	0	0
19.00265	-0.04470703	-0.3720395	0	0	0	0
19.01976	-0.04470703	-0.3720395	0	0	0	0
19.03556	-0.04470703	-0.3720395	0	0	0	0
19.05213	-0.04468077	-0.3720172	0.001585438	0.001345711	0.04897922	0.04157328
19.06915	-0.04468077	-0.3720172	0	0	-0.04720999	-0.04007157
19.08527	-0.04468077	-0.3720172	0	0	0	0
19.10183	-0.04465451	-0.3720395	0.001585438	-0.001345711	0.0485076	-0.04117297
19.11842	-0.04465451	-0.3720395	0	0	-0.04781834	0.04058794
19.13496	-0.04465451	-0.3720395	0	0	0	0
19.15184	-0.04462824	-0.3720618	0.001556055	-0.001322536	0.04655981	-0.03957254
19.1681	-0.04462824	-0.3720618	0	0	-0.04696183	0.03991423
19.18477	-0.04462824	-0.3720618	0	0	0	0
19.20123	-0.04457572	-0.3720618	0.003191455	0	0.09633493	0
19.2178	-0.04457572	-0.3720618	0	0	-0.09662979	0
19.23436	-0.04457572	-0.3720618	0	0	0	0
19.25093	-0.04452319	-0.3720618	0.003171101	0	0.09570954	0
19.2675	-0.04452319	-0.3720618	0	0	-0.09570403	0
19.28407	-0.04452319	-0.3720618	0	0	0	0
19.301	-0.0444444	-0.3720841	0.004652393	-0.001316308	0.1388667	-0.03928976
19.31796	-0.0444444	-0.3720841	0	0	-0.137257	0.03883431
19.33377	-0.0444444	-0.3720841	0	0	0	0
19.35033	-0.04436561	-0.3720618	0.004755767	0.001345556	0.1469121	0.04156604
19.3669	-0.04436561	-0.3720618	0	0	-0.1435293	-0.04060896
19.38347	-0.04436561	-0.3720618	0	0	0	0
19.40045	-0.04433934	-0.3720841	0.001546315	-0.001312318	0.04608428	-0.03911053
19.4166	-0.04433934	-0.3720841	0	0	-0.04666789	0.03960582
19.43317	-0.04433934	-0.3720841	0	0	0	0
19.44973	-0.04431308	-0.3721064	0.001585438	-0.001345711	0.04785138	-0.04061598
19.4663	-0.04431308	-0.3721064	0	0	-0.04784862	0.04061364
19.4831	-0.04431308	-0.3721064	0	0	0	0
19.49944	-0.04431308	-0.3721064	0	0	0	0
19.516	-0.04431308	-0.3721064	0	0	0	0
19.53262	-0.04431308	-0.3721064	0	0	0	0
19.54914	-0.04428681	-0.3720841	0.001589832	0.00134944	0.04798121	0.04072618
19.56575	-0.04428681	-0.3720841	0	0	-0.04798121	-0.04072618
19.58246	-0.04428681	-0.3720841	0	0	0	0
19.59883	-0.04423428	-0.3720395	0.003208039	0.002724592	0.09696952	0.08235636
19.61541	-0.04423428	-0.3720395	0	0	-0.09737373	-0.08269965
19.63197	-0.04423428	-0.3720395	0	0	0	0
19.64924	-0.04418176	-0.3719503	0.00304131	0.005164619	0.08987781	0.1526266
19.66511	-0.04418176	-0.3719503	0	0	-0.09178692	-0.1558685
19.68167	-0.04418176	-0.3719503	0	0	0	0
19.69865	-0.04402417	-0.371772	0.009283269	0.01050737	0.276776	0.3132721
19.71497	-0.04402417	-0.371772	0	0	-0.2788374	-0.3156053
19.73137	-0.04402417	-0.371772	0	0	0	0
19.74794	-0.04389284	-0.3716605	0.007923304	0.006726481	0.2402738	0.2039802
19.76451	-0.04389284	-0.3716605	0	0	-0.2390707	-0.2029589
19.78107	-0.04389284	-0.3716605	0	0	0	0
19.79764	-0.04376152	-0.371549	0.007927641	0.006728555	0.2393118	0.203115
19.81452	-0.04376152	-0.371549	0	0	-0.2370326	-0.2011805
19.83077	-0.04376152	-0.371549	0	0	0	0
19.8477	-0.04376152	-0.371549	0	0	0	0
19.8639	-0.04376152	-0.371549	0	0	0	0
19.88067	-0.04376152	-0.371549	0	0	0	0
19.89703	-0.04376152	-0.371549	0	0	0	0
19.9136	-0.04376152	-0.371549	0	0	0	0
19.93017	-0.04376152	-0.371549	0	0	0	0
19.94688	-0.04376152	-0.371549	0	0	0	0
19.9633	-0.04376152	-0.371549	0	0	0	0
19.98059	-0.04376152	-0.371549	0	0	0	0
19.99644	-0.04373525	-0.3715713	0.001657218	-0.001406438	0.05001783	-0.04244883
20.013	-0.04373525	-0.3715713	0	0	-0.05111841	0.04338287
20.0297	-0.04373525	-0.3715713	0	0	0	0
20.04613	-0.04373525	-0.3715713	0	0	0	0
20.06293	-0.04373525	-0.3715713	0	0	0	0
20.07927	-0.04373525	-0.3715713	0	0	0	0
20.09583	-0.04370899	-0.3715936	0.001585621	-0.001345866	0.04818699	-0.04090085
20.11313	-0.04370899	-0.3715936	0	0	-0.04682976	0.03974884
20.12897	-0.04370899	-0.3715936	0	0	0	0
20.14631	-0.04368272	-0.3716159	0.001515348	-0.001286037	0.04567808	-0.0387658
20.1621	-0.04368272	-0.3716159	0	0	-0.04573857	0.03881713
20.17867	-0.04368272	-0.3716159	0	0	0	0
20.19523	-0.04370899	-0.3716382	-0.001585663	-0.001345711	-0.04785816	-0.04061598
20.2118	-0.04370899	-0.3716382	0	0	0.04785816	0.04061598
20.22864	-0.04370899	-0.3716382	0	0	0	0
20.24493	-0.04370899	-0.3716382	0	0	0	0
20.26229	-0.04370899	-0.3716382	0	0	0	0
20.27884	-0.04370899	-0.3716382	0	0	0	0
20.29487	-0.04370899	-0.3716382	0	0	0	0
20.3112	-0.04370899	-0.3716382	0	0	0	0
20.32782	-0.04370899	-0.3716382	0	0	0	0
20.34436	-0.04370899	-0.3716382	0	0	0	0
20.3609	-0.04370899	-0.3716382	0	0	0	0
20.37747	-0.04370899	-0.3716382	0	0	0	0
20.39404	-0.04370899	-0.3716382	0	0	0	0
20.4106	-0.04370899	-0.3716382	0	0	0	0
20.42764	-0.04370899	-0.3716382	0	0	0	0
20.44374	-0.04368272	-0.3716605	0.001631886	-0.001384939	0.04925041	-0.04179754
20.4603	-0.04368272	-0.3716605	0	0	-0.04996077	0.0424004
20.47687	-0.04368272	-0.3716605	0	0	0	0
20.49369	-0.04368272	-0.3716605	0	0	0	0
20.51028	-0.04368272	-0.3716605	0	0	0	0
20.52657	-0.04368272	-0.3716605	0	0	0	0
20.54313	-0.04368272	-0.3716605	0	0	0	0
20.5597	-0.04368272	-0.3716605	0	0	0	0
20.57696	-0.04368272	-0.3716605	0	0	0	0
20.59283	-0.04368272	-0.3716605	0	0	0	0
20.6094	-0.04368272	-0.3716605	0	0	0	0
20.62597	-0.04368272	-0.3716605	0	0	0	0
20.64667	-0.04365645	-0.3716828	0.00126891	-0.001076891	0.0340468	-0.02889463
20.66324	-0.04365645	-0.3716828	0	0	-0.03404854	0.02889611
20.67999	-0.04365645	-0.3716828	0	0	0	0
20.69637	-0.04365645	-0.3716828	0	0	0	0
20.71294	-0.04365645	-0.3716828	0	0	0	0
20.7295	-0.04365645	-0.3716828	0	0	0	0
20.74607	-0.04365645	-0.3716828	0	0	0	0
20.76275	-0.04365645	-0.3716828	0	0	0	0
20.77921	-0.04365645	-0.3716828	0	0	0	0
20.79591	-0.04365645	-0.3716828	0	0	0	0
20.81248	-0.04365645	-0.3716828	0	0	0	0
20.8289	-0.04365645	-0.3716828	0	0	0	0
20.84547	-0.04365645	-0.3716828	0	0	0	0
20.86263	-0.04365645	-0.3716828	0	0	0	0
20.87864	-0.04365645	-0.3716828	0	0	0	0
20.89559	-0.04365645	-0.3716828	0	0	0	0
20.91174	-0.04365645	-0.3716828	0	0	0	0
20.9283	-0.04365645	-0.3716828	0	0	0	0
20.945	-0.04365645	-0.3716828	0	0	0	0
20.96144	-0.04365645	-0.3716828	0	0	0	0
20.9781	-0.04365645	-0.3716828	0	0	0	0
20.99466	-0.04365645	-0.3716828	0	0	0	0
21.01124	-0.04365645	-0.3716828	0	0	0	0
21.0277	-0.04363019	-0.3717051	0.001594988	-0.001353817	0.04826463	-0.04096675
21.04427	-0.04363019	-0.3717051	0	0	-0.04828414	0.0409833
21.06084	-0.04363019	-0.3717051	0	0	0	0
21.0774	-0.04363019	-0.3717051	0	0	0	0
21.09397	-0.04363019	-0.3717051	0	0	0	0
21.11054	-0.04363019	-0.3717051	0	0	0	0
21.1271	-0.04363019	-0.3717051	0	0	0	0
21.14367	-0.04363019	-0.3717051	0	0	0	0
21.16023	-0.04363019	-0.3717051	0	0	0	0
21.1768	-0.04363019	-0.3717051	0	0	0	0
21.19379	-0.04363019	-0.3717051	0	0	0	0
21.21028	-0.04363019	-0.3717051	0	0	0	0
21.22654	-0.04363019	-0.3717051	0	0	0	0
21.24307	-0.04363019	-0.3717051	0	0	0	0
21.25994	-0.04363019	-0.3717051	0	0	0	0
21.2762	-0.04363019	-0.3717051	0	0	0	0
21.29291	-0.04363019	-0.3717051	0	0	0	0
21.31013	-0.04363019	-0.3717051	0	0	0	0
21.3259	-0.04363019	-0.3717051	0	0	0	0
21.34312	-0.04363019	-0.3717051	0	0	0	0
21.35904	-0.04363019	-0.3717051	0	0	0	0
21.3756	-0.04363019	-0.3717051	0	0	0	0
21.39217	-0.04363019	-0.3717051	0	0	0	0
21.40874	-0.04363019	-0.3717051	0	0	0	0
21.42597	-0.04363019	-0.3717051	0	0	0	0
21.44187	-0.04363019	-0.3717051	0	0	0	0
21.45844	-0.04363019	-0.3717051	0	0	0	0
21.475	-0.04363019	-0.3717051	0	0	0	0
21.49157	-0.04363019	-0.3717051	0	0	0	0
21.50814	-0.04363019	-0.3717051	0	0	0	0
21.5247	-0.04363019	-0.3717051	0	0	0	0
21.54127	-0.04363019	-0.3717051	0	0	0	0
21.55784	-0.04363019	-0.3717051	0	0	0	0
21.57444	-0.04363019	-0.3717051	0	0	0	0
21.59097	-0.04363019	-0.3717051	0	0	0	0
21.60754	-0.04363019	-0.3717051	0	0	0	0
21.6241	-0.04363019	-0.3717051	0	0	0	0
21.64067	-0.04363019	-0.3717051	0	0	0	0
21.65724	-0.04363019	-0.3717051	0	0	0	0
21.67381	-0.04363019	-0.3717051	0	0	0	0
21.69037	-0.04363019	-0.3717051	0	0	0	0
21.70694	-0.04363019	-0.3717051	0	0	0	0
21.72881	-0.04363019	-0.3717051	0	0	0	0
21.7454	-0.04363019	-0.3717051	0	0	0	0
21.76245	-0.04363019	-0.3717051	0	0	0	0
21.77855	-0.04363019	-0.3717051	0	0	0	0
21.79557	-0.04363019	-0.3717051	0	0	0	0
21.81216	-0.04363019	-0.3717051	0	0	0	0
21.82822	-0.04363019	-0.3717051	0	0	0	0
21.84518	-0.04363019	-0.3717051	0	0	0	0
21.86175	-0.04363019	-0.3717051	0	0	0	0
21.87792	-0.04363019	-0.3717051	0	0	0	0
21.89463	-0.04363019	-0.3717051	0	0	0	0
21.91119	-0.04363019	-0.3717051	0	0	0	0
21.92778	-0.04363019	-0.3717051	0	0	0	0
21.94473	-0.04363019	-0.3717051	0	0	0	0
21.96075	-0.04363019	-0.3717051	0	0	0	0
21.97776	-0.04363019	-0.3717051	0	0	0	0
21.9944	-0.04363019	-0.3717051	0	0	0	0
22.01081	-0.04363019	-0.3717051	0	0	0	0
22.02701	-0.04363019	-0.3717051	0	0	0	0
22.04358	-0.04363019	-0.3717051	0	0	0	0
22.06052	-0.04363019	-0.3717051	0	0	0	0
22.07671	-0.04363019	-0.3717051	0	0	0	0
22.09328	-0.04363019	-0.3717051	0	0	0	0
22.10985	-0.04363019	-0.3717051	0	0	0	0
22.12642	-0.04363019	-0.3717051	0	0	0	0
22.14298	-0.04363019	-0.3717051	0	0	0	0
22.15956	-0.04363019	-0.3717051	0	0	0	0
22.17611	-0.04363019	-0.3717051	0	0	0	0
22.19268	-0.04363019	-0.3717051	0	0	0	0
22.20975	-0.04363019	-0.3717051	0	0	0	0
22.22581	-0.04363019	-0.3717051	0	0	0	0
22.24269	-0.04363019	-0.3717051	0	0	0	0
22.25898	-0.04363019	-0.3717051	0	0	0	0
22.27551	-0.04363019	-0.3717051	0	0	0	0
22.29208	-0.04363019	-0.3717051	0	0	0	0
22.30865	-0.04363019	-0.3717051	0	0	0	0
22.32521	-0.04363019	-0.3717051	0	0	0	0
22.34178	-0.04363019	-0.3717051	0	0	0	0
22.35835	-0.04363019	-0.3717051	0	0	0	0
22.37562	-0.04363019	-0.3717051	0	0	0	0
22.39168	-0.04363019	-0.3717051	0	0	0	0
22.41384	-0.04363019	-0.3717051	0	0	0	0
22.43041	-0.04363019	-0.3717051	0	0	0	0
22.44697	-0.04363019	-0.3717051	0	0	0	0
22.46401	-0.04363019	-0.3717051	0	0	0	0
22.48028	-0.04363019	-0.3717051	0	0	0	0
22.49667	-0.04363019	-0.3717051	0	0	0	0
22.51324	-0.04363019	-0.3717051	0	0	0	0
22.52982	-0.04363019	-0.3717051	0	0	0	0
22.54637	-0.04363019	-0.3717051	0	0	0	0
22.56294	-0.04363019	-0.3717051	0	0	0	0
22.5799	-0.04363019	-0.3717051	0	0	0	0
22.59607	-0.04363019	-0.3717051	0	0	0	0
22.61278	-0.04363019	-0.3717051	0	0	0	0
22.62984	-0.04363019	-0.3717051	0	0	0	0
22.64585	-0.04363019	-0.3717051	0	0	0	0
22.66239	-0.04363019	-0.3717051	0	0	0	0
22.67925	-0.04363019	-0.3717051	0	0	0	0
22.69548	-0.04363019	-0.3717051	0	0	0	0
22.71204	-0.04363019	-0.3717051	0	0	0	0
22.72861	-0.04363019	-0.3717051	0	0	0	0
22.74517	-0.04363019	-0.3717051	0	0	0	0
22.76261	-0.04363019	-0.3717051	0	0	0	0
22.77846	-0.04363019	-0.3717051	0	0	0	0
22.79504	-0.04363019	-0.3717051	0	0	0	0
22.81151	-0.04363019	-0.3717051	0	0	0	0
22.82804	-0.04363019	-0.3717051	0	0	0	0
22.84458	-0.04363019	-0.3717051	0	0	0	0
22.86115	-0.04363019	-0.3717051	0	0	0	0
22.87771	-0.04363019	-0.3717051	0	0	0	0
22.89428	-0.04363019	-0.3717051	0	0	0	0
22.91084	-0.04363019	-0.3717051	0	0	0	0
22.92741	-0.04363019	-0.3717051	0	0	0	0
22.94424	-0.04363019	-0.3717051	0	0	0	0
22.96054	-0.04363019	-0.3717051	0	0	0	0
22.97711	-0.04363019	-0.3717051	0	0	0	0
22.99372	-0.04363019	-0.3717051	0	0	0	0
23.01024	-0.04363019	-0.3717051	0	0	0	0
23.02681	-0.04363019	-0.3717051	0	0	0	0
23.04338	-0.04363019	-0.3717051	0	0	0	0
23.05996	-0.04363019	-0.3717051	0	0	0	0
23.08835	-0.04363019	-0.3717051	0	0	0	0
23.10497	-0.04368272	-0.3717497	-0.003160185	-0.00268395	-0.07020242	-0.05962302
23.12149	-0.04368272	-0.3717497	0	0	0.09536909	0.08099711
23.13805	-0.04368272	-0.3717497	0	0	0	0
23.15462	-0.0439979	-0.3718835	-0.01902661	-0.008076065	-0.5742903	-0.2437642
23.17119	-0.0439979	-0.3718835	0	0	0.5742573	0.2437502
23.18775	-0.0439979	-0.3718835	0	0	0	0
23.20432	-0.04686041	-0.3736013	-0.172821	-0.1037144	-5.216348	-3.130469
23.22089	-0.04686041	-0.3736013	0	0	5.216047	3.130288
23.23745	-0.04686041	-0.3736013	0	0	0	0
23.25402	-0.09424628	-0.4018883	-2.860217	-1.707403	-86.32648	-51.53248
23.27059	-0.09424628	-0.4018883	0	0	86.32151	51.52951
23.28739	-0.09424628	-0.4018883	0	0	0	0
23.30392	-0.1769712	-0.4257551	-5.003075	-1.443432	-150.0688	-43.29618
23.32029	-0.1769712	-0.4257551	0	0	152.0874	43.87859
23.33754	-0.1769712	-0.4257551	0	0	0	0
23.35342	-0.2505683	-0.4421456	-4.63441	-1.032108	-139.8587	-31.14728
23.36999	-0.2505683	-0.4421456	0	0	142.835	31.8101
23.38655	-0.2505683	-0.4421456	0	0	0	0
23.40312	-0.304658	-0.4528075	-3.265236	-0.6436295	-98.5507	-19.4259
23.41969	-0.304658	-0.4528075	0	0	98.5507	19.4259
23.43646	-0.304658	-0.4528075	0	0	0	0
23.45282	-0.3420567	-0.4415387	-2.285547	0.6886711	-68.97793	20.78414
23.46959	-0.3420567	-0.4415387	0	0	68.98985	-20.78773
23.48596	-0.3420567	-0.4415387	0	0	0	0
23.50252	-0.3656511	-0.4144619	-1.424324	1.634544	-43.24506	49.62774
23.51909	-0.3656511	-0.4144619	0	0	42.99112	-49.33632
23.53575	-0.3656511	-0.4144619	0	0	0	0
23.55227	-0.3727009	-0.4001393	-0.426609	0.8667114	-12.85511	26.11681
23.56879	-0.3727009	-0.4001393	0	0	12.91076	-26.22988
23.58603	-0.3727009	-0.4001393	0	0	0	0
23.60192	-0.3700046	-0.387884	0.1696067	0.7708833	5.119035	23.26664
23.61849	-0.3700046	-0.387884	0	0	-5.224297	-23.74507
23.63506	-0.3700046	-0.387884	0	0	0	0
23.65163	-0.3736137	-0.3477574	-0.2178703	2.422323	-6.575337	73.10585
23.66819	-0.3736137	-0.3477574	0	0	6.575716	-73.11006
23.68476	-0.3736137	-0.3477574	0	0	0	0
23.70132	-0.3667523	-0.313431	0.4142001	2.072186	12.50202	62.54591
23.71789	-0.3667523	-0.313431	0	0	-12.5013	-62.5423
23.73446	-0.3667523	-0.313431	0	0	0	0
23.75131	-0.3651231	-0.3005752	0.09666775	0.7628063	2.892298	22.82316
23.76759	-0.3651231	-0.3005752	0	0	-2.917774	-23.02419
23.78416	-0.3651231	-0.3005752	0	0	0	0
23.80098	-0.3638827	-0.299549	0.07374525	0.06100819	2.208726	1.827242
23.81763	-0.3638827	-0.299549	0	0	-2.202937	-1.822452
23.83386	-0.3638827	-0.299549	0	0	0	0
23.85042	-0.3638137	-0.2996131	0.004163548	-0.003872063	0.1269865	-0.1180964
23.86699	-0.3638137	-0.2996131	0	0	-0.1256634	0.1168658
23.88356	-0.3638137	-0.2996131	0	0	0	0
23.90025	-0.3637218	-0.2996986	0.005508299	-0.005122629	0.1656211	-0.1540249
23.91669	-0.3637218	-0.2996986	0	0	-0.1662504	0.1546102
23.93375	-0.3637218	-0.2996986	0	0	0	0
23.94982	-0.3636068	-0.2998482	0.007151335	-0.009310089	0.2158526	-0.2810114
23.96639	-0.3636068	-0.2998482	0	0	-0.2190942	0.2852316
23.98304	-0.3636068	-0.2998482	0	0	0	0
24.00007	-0.3635149	-0.2999337	0.005399032	-0.005021134	0.160304	-0.1490837
24.01609	-0.3635149	-0.2999337	0	0	-0.1633474	0.1519142
24.03266	-0.3635149	-0.2999337	0	0	0	0
24.04922	-0.3634459	-0.2999979	0.004162589	-0.003871172	0.1256272	-0.1168322
24.06579	-0.3634459	-0.2999979	0	0	-0.1256272	0.1168322
24.08236	-0.3634459	-0.2999979	0	0	0	0
24.09892	-0.363308	-0.3001261	0.008327936	-0.007743236	0.2513666	-0.2337182
24.11549	-0.363308	-0.3001261	0	0	-0.2513376	0.2336913
24.13206	-0.363308	-0.3001261	0	0	0	0
24.14916	-0.363285	-0.3001475	0.001343618	-0.001249512	0.0399095	-0.03711428
24.16519	-0.363285	-0.3001475	0	0	-0.04055046	0.03771035
24.18176	-0.363285	-0.3001475	0	0	0	0
24.19832	-0.363216	-0.3002116	0.004164388	-0.003871172	0.1256887	-0.1168389
24.21489	-0.363216	-0.3002116	0	0	-0.1256815	0.1168322
24.23146	-0.363216	-0.3002116	0	0	0	0
24.24808	-0.36271	-0.3005966	0.03043433	-0.02315426	0.9169792	-0.6976323
24.26467	-0.36271	-0.3005966	0	0	-0.9164525	0.6972316
24.28116	-0.36271	-0.3005966	0	0	0	0
24.29773	-0.3525964	-0.2979467	0.6105282	0.1599669	18.46724	4.838674
24.31429	-0.3525964	-0.2979467	0	0	-18.42578	-4.827811
24.33086	-0.3525964	-0.2979467	0	0	0	0
24.34742	-0.3386662	-0.2851787	0.840929	0.7707649	25.38367	23.26575
24.36418	-0.3386662	-0.2851787	0	0	-25.23837	-23.13257
24.38056	-0.3386662	-0.2851787	0	0	0	0
24.39758	-0.3194593	-0.2679749	1.128407	1.01073	33.78121	30.25829
24.41369	-0.3194593	-0.2679749	0	0	-34.05932	-30.50739
24.43026	-0.3194593	-0.2679749	0	0	0	0
24.44682	-0.2983232	-0.2495506	1.276219	1.112474	38.51857	33.57646
24.46339	-0.2983232	-0.2495506	0	0	-38.51857	-33.57646
24.47996	-0.2983232	-0.2495506	0	0	0	0
24.49652	-0.2740089	-0.2503001	1.467953	-0.04524665	44.30801	-1.365704
24.51326	-0.2740089	-0.2503001	0	0	-44.08467	1.35882
24.52966	-0.2740089	-0.2503001	0	0	0	0
24.54622	-0.2283666	-0.2804557	2.755612	-1.820617	83.59763	-55.23246
24.56279	-0.2283666	-0.2804557	0	0	-83.16932	54.94948
24.57936	-0.2283666	-0.2804557	0	0	0	0
24.59593	-0.1935465	-0.3099665	2.101263	-1.780863	63.41624	-53.74656
24.61305	-0.1935465	-0.3099665	0	0	-62.36792	52.85809
24.62906	-0.1935465	-0.3099665	0	0	0	0
24.64562	-0.1748028	-0.3258818	1.131629	-0.9608745	34.74262	-29.5002
24.66219	-0.1748028	-0.3258818	0	0	-34.15461	29.00092
24.67875	-0.1748028	-0.3258818	0	0	0	0
24.69532	-0.1645768	-0.334581	0.6173152	-0.5251439	18.63168	-15.84979
24.71189	-0.1645768	-0.334581	0	0	-18.63168	15.84979
24.72845	-0.1645768	-0.334581	0	0	0	0
24.74543	-0.155061	-0.3426454	0.5604393	-0.4749582	16.70637	-14.15823
24.76159	-0.155061	-0.3426454	0	0	-16.91507	14.33509
24.77815	-0.155061	-0.3426454	0	0	0	0
24.79472	-0.1396379	-0.3556867	0.9311521	-0.7873514	28.10546	-23.76505
24.81151	-0.1396379	-0.3556867	0	0	-27.91582	23.60469
24.82804	-0.1396379	-0.3556867	0	0	0	0
24.84462	-0.1302841	-0.3620132	0.5638807	-0.3813851	17.02874	-11.51752
24.86134	-0.1302841	-0.3620132	0	0	-16.93121	11.45156
24.87777	-0.1302841	-0.3620132	0	0	0	0
24.89412	-0.1064904	-0.3429083	1.455635	1.168779	44.41177	35.65973
24.91068	-0.1064904	-0.3429083	0	0	-44.2239	-35.50889
24.92725	-0.1064904	-0.3429083	0	0	0	0
24.94382	-0.08443038	-0.324429	1.33185	1.115671	40.19993	33.67488
24.96038	-0.08443038	-0.324429	0	0	-40.19993	-33.67488
24.97695	-0.08443038	-0.324429	0	0	0	0
24.99352	-0.08064053	-0.3211591	0.2287821	0.1973931	6.905056	5.95768
25.01008	-0.08064053	-0.3211591	0	0	-6.905056	-5.95768
25.02665	-0.08064053	-0.3211591	0	0	0	0
25.04321	-0.08030064	-0.3208779	0.02051849	0.01697791	0.6193207	0.5124533
25.05978	-0.08030064	-0.3208779	0	0	-0.619285	-0.5124238
25.07635	-0.08030064	-0.3208779	0	0	0	0
25.09544	-0.07998688	-0.3205751	0.01643685	0.01586231	0.4609598	0.4448472
25.11201	-0.07998688	-0.3205751	0	0	-0.4609351	-0.4448234
25.12914	-0.07998688	-0.3205751	0	0	0	0
25.14514	-0.07006931	-0.3121821	0.6198927	0.524598	18.71055	15.83422
25.16171	-0.07006931	-0.3121821	0	0	-19.03493	-16.10873
25.17828	-0.07006931	-0.3121821	0	0	0	0
25.19519	-0.04633523	-0.2927223	1.403507	1.150748	41.92115	34.37152
25.21141	-0.04633523	-0.2927223	0	0	-42.36037	-34.73164
25.22798	-0.04633523	-0.2927223	0	0	0	0
25.24454	-0.03737732	-0.2854332	0.5408251	0.4400748	16.32307	13.28225
25.26111	-0.03737732	-0.2854332	0	0	-16.32401	-13.28301
25.27768	-0.03737732	-0.2854332	0	0	0	0
25.29424	-0.03737732	-0.2854332	0	0	0	0
25.3112	-0.03737732	-0.2854332	0	0	0	0
25.32737	-0.03737732	-0.2854332	0	0	0	0
25.3443	-0.03737732	-0.2854332	0	0	0	0
25.36051	-0.03737732	-0.2854332	0	0	0	0
25.37742	-0.03737732	-0.2854332	0	0	0	0
25.39364	-0.03735104	-0.2854544	0.001620102	-0.001308208	0.0489004	-0.03948634
25.41024	-0.03735104	-0.2854544	0	0	-0.04936649	0.0398627
25.42677	-0.03735104	-0.2854544	0	0	0	0
25.44334	-0.03735104	-0.2854968	0	-0.002560384	0	-0.07734824
25.45996	-0.03735104	-0.2854968	0	0	0	0.07715263
25.47666	-0.03735104	-0.2854968	0	0	0	0
25.49304	-0.03735104	-0.2854968	0	0	0	0
25.50961	-0.03735104	-0.2854968	0	0	0	0
25.52619	-0.03735104	-0.2854968	0	0	0	0
25.54274	-0.03735104	-0.2854968	0	0	0	0
25.55931	-0.03735104	-0.2854968	0	0	0	0
25.57601	-0.03735104	-0.2854968	0	0	0	0
25.59244	-0.03737732	-0.2855181	-0.001599784	-0.001291802	-0.04828715	-0.03899116
25.60946	-0.03737732	-0.2855181	0	0	0.04783278	0.03862426
25.62614	-0.03737732	-0.2855181	0	0	0	0
25.64265	-0.03737732	-0.2855181	0	0	0	0
25.65897	-0.03737732	-0.2855181	0	0	0	0
25.67527	-0.03737732	-0.2855181	0	0	0	0
25.69209	-0.03737732	-0.2855605	0	-0.00252119	0	-0.07610281
25.70885	-0.03737732	-0.2855605	0	0	0	0.07509116
25.72538	-0.03737732	-0.2855605	0	0	0	0
25.74154	-0.03737732	-0.2855605	0	0	0	0
25.75846	-0.03737732	-0.2855605	0	0	0	0
25.77467	-0.03737732	-0.2855605	0	0	0	0
25.79123	-0.0374036	-0.2855817	-0.001586703	-0.001281239	-0.04841352	-0.03909319
25.8078	-0.0374036	-0.2855817	0	0	0.04789231	0.03867233
25.82437	-0.0374036	-0.2855817	0	0	0	0
25.84093	-0.03742988	-0.2856029	-0.001586745	-0.001279292	-0.04789358	-0.03861357
25.8575	-0.03742988	-0.2856029	0	0	0.04789358	0.03861357
25.87407	-0.03742988	-0.2856029	0	0	0	0
25.89297	-0.03745616	-0.2856241	-0.001389966	-0.001122377	-0.03918392	-0.03164043
25.90954	-0.03745616	-0.2856241	0	0	0.03918181	0.03163873
25.92611	-0.03745616	-0.2856241	0	0	0	0
25.94267	-0.03742988	-0.2856453	0.001586338	-0.001280944	0.04787853	-0.0386612
25.95924	-0.03742988	-0.2856453	0	0	-0.04787853	0.0386612
25.97581	-0.03742988	-0.2856453	0	0	0	0
25.99237	-0.03745616	-0.2856665	-0.001586338	-0.001280944	-0.04787853	-0.0386612
26.0091	-0.03745616	-0.2856665	0	0	0.04764539	0.03847294
26.02551	-0.03745616	-0.2856665	0	0	0	0
26.04208	-0.03748244	-0.2856877	-0.001585608	-0.001278556	-0.04808068	-0.0387699
26.05877	-0.03748244	-0.2856877	0	0	0.04767535	0.03844306
26.07521	-0.03748244	-0.2856877	0	0	0	0
26.09215	-0.03750871	-0.2857089	-0.001550979	-0.001252392	-0.0464583	-0.03751438
26.10868	-0.03750871	-0.2857089	0	0	0.04633388	0.03741391
26.12491	-0.03750871	-0.2857089	0	0	0	0
26.14148	-0.03750871	-0.2857089	0	0	0	0
26.15804	-0.03750871	-0.2857089	0	0	0	0
26.17461	-0.03750871	-0.2857089	0	0	0	0
26.19118	-0.03750871	-0.2857089	0	0	0	0
26.20774	-0.03750871	-0.2857089	0	0	0	0
26.22431	-0.03750871	-0.2857089	0	0	0	0
26.24091	-0.03750871	-0.2857089	0	0	0	0
26.25745	-0.03750871	-0.2857089	0	0	0	0
26.27401	-0.03750871	-0.2857089	0	0	0	0
26.29058	-0.03753499	-0.2857302	-0.001586155	-0.001280797	-0.04787301	-0.03865675
26.30715	-0.03753499	-0.2857302	0	0	0.04787026	0.03865452
26.32398	-0.03753499	-0.2857302	0	0	0	0
26.34028	-0.03753499	-0.2857302	0	0	0	0
26.35685	-0.03753499	-0.2857302	0	0	0	0
26.37391	-0.03753499	-0.2857302	0	0	0	0
26.38998	-0.03753499	-0.2857302	0	0	0	0
26.40654	-0.03753499	-0.2857302	0	0	0	0
26.42311	-0.03753499	-0.2857302	0	0	0	0
26.43968	-0.03753499	-0.2857302	0	0	0	0
26.45625	-0.03753499	-0.2857302	0	0	0	0
26.47281	-0.03753499	-0.2857302	0	0	0	0
26.48968	-0.03750871	-0.2857514	0.001557466	-0.001257631	0.0465781	-0.03761112
26.50594	-0.03750871	-0.2857514	0	0	-0.04700712	0.03795755
26.52273	-0.03750871	-0.2857514	0	0	0	0
26.5422	-0.03753499	-0.2857726	-0.001349926	-0.001090045	-0.03723236	-0.03006458
26.55926	-0.03753499	-0.2857726	0	0	0.03695822	0.02984321
26.57533	-0.03753499	-0.2857726	0	0	0	0
26.5919	-0.03753499	-0.2857726	0	0	0	0
26.60847	-0.03753499	-0.2857726	0	0	0	0
26.62539	-0.03753499	-0.2857726	0	0	0	0
26.6416	-0.03753499	-0.2857726	0	0	0	0
26.65817	-0.03753499	-0.2857726	0	0	0	0
26.67474	-0.03753499	-0.2857726	0	0	0	0
26.69131	-0.03753499	-0.2857726	0	0	0	0
26.70787	-0.03753499	-0.2857726	0	0	0	0
26.72444	-0.03753499	-0.2857726	0	0	0	0
26.74127	-0.03753499	-0.2857726	0	0	0	0
26.75778	-0.03753499	-0.2857726	0	0	0	0
26.77414	-0.03753499	-0.2857726	0	0	0	0
26.7907	-0.03750871	-0.2857938	0.00158652	-0.001279292	0.04818082	-0.03885065
26.80727	-0.03750871	-0.2857938	0	0	-0.0478868	0.03861357
26.82384	-0.03750871	-0.2857938	0	0	0	0
26.8404	-0.03750871	-0.2857938	0	0	0	0
26.85697	-0.03750871	-0.2857938	0	0	0	0
26.87368	-0.03750871	-0.2857938	0	0	0	0
26.8901	-0.03750871	-0.2857938	0	0	0	0
26.90667	-0.03750871	-0.2857938	0	0	0	0
26.92324	-0.03750871	-0.2857938	0	0	0	0
26.9398	-0.03753499	-0.285815	-0.001586338	-0.001280944	-0.04787853	-0.0386612
26.95722	-0.03753499	-0.285815	0	0	0.04668526	0.03769765
26.97371	-0.03753499	-0.285815	0	0	0	0
26.9895	-0.03753499	-0.285815	0	0	0	0
27.00607	-0.03753499	-0.285815	0	0	0	0
27.02276	-0.03753499	-0.285815	0	0	0	0
27.0392	-0.03753499	-0.285815	0	0	0	0
27.05577	-0.03753499	-0.285815	0	0	0	0
27.07283	-0.03753499	-0.285815	0	0	0	0
27.0921	-0.03756127	-0.2858362	-0.001363688	-0.001101158	-0.03753494	-0.0303089
27.10867	-0.03756127	-0.2858362	0	0	0.03804829	0.03072343
27.12524	-0.03756127	-0.2858362	0	0	0	0
27.14189	-0.03756127	-0.2858362	0	0	0	0
27.15837	-0.03756127	-0.2858362	0	0	0	0
27.17494	-0.03756127	-0.2858362	0	0	0	0
27.19151	-0.03756127	-0.2858362	0	0	0	0
27.20807	-0.03756127	-0.2858362	0	0	0	0
27.22464	-0.03756127	-0.2858362	0	0	0	0
27.24121	-0.03756127	-0.2858787	0	-0.002561888	0	-0.07732239
27.25777	-0.03756127	-0.2858787	0	0	0	0.07731795
27.27434	-0.03756127	-0.2858787	0	0	0	0
27.2909	-0.03764011	-0.2859423	-0.004759786	-0.003841476	-0.1436672	-0.1159493
27.30747	-0.03764011	-0.2859423	0	0	0.1436672	0.1159493
27.32404	-0.03764011	-0.2859423	0	0	0	0
27.34101	-0.03769267	-0.2860272	-0.003097076	-0.005001686	-0.09234829	-0.1491397
27.35748	-0.03769267	-0.2860272	0	0	0.09260108	0.149548
27.37374	-0.03769267	-0.2860272	0	0	0	0
27.3903	-0.03774522	-0.2860696	-0.003173041	-0.002560384	-0.09668084	-0.07801352
27.40687	-0.03774522	-0.2860696	0	0	0.09577359	0.07728145
27.42344	-0.03774522	-0.2860696	0	0	0	0
27.44001	-0.0377715	-0.2861332	-0.001586155	-0.00384239	-0.04787026	-0.1159636
27.45694	-0.0377715	-0.2861332	0	0	0.04734427	0.1146894
27.47314	-0.0377715	-0.2861332	0	0	0	0
27.49005	-0.03779778	-0.2861544	-0.001553777	-0.001254652	-0.04692551	-0.03789165
27.50659	-0.03779778	-0.2861544	0	0	0.04645189	0.03750921
27.52284	-0.03779778	-0.2861544	0	0	0	0
27.5394	-0.03779778	-0.2861544	0	0	0	0
27.55597	-0.03779778	-0.2861544	0	0	0	0
27.57254	-0.03779778	-0.2861544	0	0	0	0
27.58939	-0.03779778	-0.2861544	0	0	0	0
27.60567	-0.03779778	-0.2861544	0	0	0	0
27.62239	-0.03779778	-0.2861544	0	0	0	0
27.64256	-0.03782406	-0.2861757	-0.001303315	-0.001052408	-0.03533705	-0.02853414
27.65913	-0.03782406	-0.2861757	0	0	0.03548016	0.0286497
27.68177	-0.03782406	-0.2861757	0	0	0	0
27.69909	-0.03782406	-0.2861757	0	0	0	0
27.71491	-0.03782406	-0.2861757	0	0	0	0
27.73164	-0.03782406	-0.2861757	0	0	0	0
27.74827	-0.03782406	-0.2861757	0	0	0	0
27.77105	-0.03782406	-0.2861757	0	0	0	0
27.80382	-0.03782406	-0.2861757	0	0	0	0
27.82039	-0.03782406	-0.2861757	0	0	0	0
27.83695	-0.03782406	-0.2861757	0	0	0	0
27.85365	-0.03782406	-0.2861757	0	0	0	0
27.87008	-0.03782406	-0.2861757	0	0	0	0
27.88665	-0.03782406	-0.2861757	0	0	0	0
27.90338	-0.03782406	-0.2861757	0	0	0	0
27.92002	-0.03782406	-0.2861757	0	0	0	0
27.93635	-0.03782406	-0.2861757	0	0	0	0
27.95298	-0.03782406	-0.2861757	0	0	0	0
27.96948	-0.03782406	-0.2861757	0	0	0	0
27.98608	-0.03782406	-0.2861757	0	0	0	0
28.00262	-0.03782406	-0.2861757	0	0	0	0
28.01918	-0.03782406	-0.2861757	0	0	0	0
28.03575	-0.03782406	-0.2861757	0	0	0	0
28.05232	-0.03782406	-0.2861757	0	0	0	0
28.06889	-0.03782406	-0.2861757	0	0	0	0
28.08545	-0.03782406	-0.2861757	0	0	0	0
28.10202	-0.03782406	-0.2861757	0	0	0	0
28.11901	-0.03782406	-0.2861757	0	0	0	0
28.13515	-0.03782406	-0.2861757	0	0	0	0
28.15172	-0.03782406	-0.2861757	0	0	0	0
28.16829	-0.03785034	-0.2861969	-0.00158652	-0.001281092	-0.0478868	-0.03866788
28.18485	-0.03785034	-0.2861969	0	0	0.04788404	0.03866565
28.20142	-0.03785034	-0.2861969	0	0	0	0
28.21799	-0.03787661	-0.2862181	-0.001586155	-0.001280797	-0.04787026	-0.03865452
28.23455	-0.03787661	-0.2862181	0	0	0.04787301	0.03865675
28.25112	-0.03787661	-0.2862181	0	0	0	0
28.26769	-0.03790289	-0.2862393	-0.001586338	-0.001280944	-0.04787853	-0.0386612
28.28426	-0.03790289	-0.2862393	0	0	0.04787577	0.03865897
28.30082	-0.03790289	-0.2862393	0	0	0	0
28.31739	-0.03790289	-0.2862818	0	-0.002561593	0	-0.07730904
28.33396	-0.03790289	-0.2862818	0	0	0	0.07731349
28.35052	-0.03790289	-0.2862818	0	0	0	0
28.36709	-0.03792917	-0.286303	-0.001586338	-0.001280944	-0.04787853	-0.0386612
28.38366	-0.03792917	-0.286303	0	0	0.04787026	0.03865452
28.40042	-0.03792917	-0.286303	0	0	0	0
28.4171	-0.03792917	-0.286303	0	0	0	0
28.43336	-0.03792917	-0.286303	0	0	0	0
28.52344	-0.03792917	-0.286303	0	0	0	0
28.54431	-0.03795545	-0.2863242	-0.001258895	-0.001016539	-0.01134568	-0.009161465
28.56088	-0.03795545	-0.2863242	0	0	0.03362149	0.02714885
28.57745	-0.03795545	-0.2863242	0	0	0	0
28.59446	-0.03795545	-0.2863242	0	0	0	0
28.61059	-0.03795545	-0.2863242	0	0	0	0
28.63723	-0.03798173	-0.2863454	-0.0009864211	-0.0007965204	-0.02306215	-0.01862234
28.6541	-0.03798173	-0.2863454	0	0	0.02266892	0.01830482
28.67201	-0.03795545	-0.2863666	0.00146708	-0.001184645	0.04217415	-0.034055
28.68889	-0.03795545	-0.2863666	0	0	-0.04216953	0.03405127
28.70515	-0.03795545	-0.2863666	0	0	0	0
28.72171	-0.03795545	-0.2863666	0	0	0	0
28.73874	-0.03795545	-0.2863666	0	0	0	0
28.75525	-0.03795545	-0.2863666	0	0	0	0
28.77142	-0.03795545	-0.2863666	0	0	0	0
28.78799	-0.03795545	-0.2863666	0	0	0	0
28.8049	-0.03795545	-0.2863666	0	0	0	0
28.82112	-0.03795545	-0.2863666	0	0	0	0
28.83769	-0.03795545	-0.2863666	0	0	0	0
28.85425	-0.03795545	-0.2863666	0	0	0	0
28.87125	-0.03795545	-0.2863666	0	0	0	0
28.88746	-0.03795545	-0.2863666	0	0	0	0
28.90395	-0.03795545	-0.2863666	0	0	0	0
28.92052	-0.03798173	-0.2863879	-0.001585973	-0.001280649	-0.04797244	-0.03873703
28.93709	-0.03798173	-0.2863879	0	0	0.04786199	0.03864785
28.95365	-0.03798173	-0.2863879	0	0	0	0
28.97022	-0.03798173	-0.2863879	0	0	0	0
28.98679	-0.03798173	-0.2863879	0	0	0	0
29.00336	-0.03798173	-0.2863879	0	0	0	0
29.01992	-0.03803428	-0.2864303	-0.003173912	-0.002563069	-0.09580541	-0.07736693
29.03649	-0.03803428	-0.2864303	0	0	0.09582196	0.0773803
29.05305	-0.03803428	-0.2864303	0	0	0	0
29.06999	-0.03871748	-0.2870246	-0.04032823	-0.03507973	-1.203529	-1.046897
29.08618	-0.03871748	-0.2870246	0	0	1.217248	1.05883
29.10307	-0.03871748	-0.2870246	0	0	0	0
29.11961	-0.04187025	-0.2897437	-0.1906527	-0.1644283	-5.703676	-4.919133
29.13589	-0.04187025	-0.2897437	0	0	5.810436	5.011208
29.15254	-0.04187025	-0.2897437	0	0	0	0
29.16906	-0.04102959	-0.2904241	0.05088882	-0.04118859	1.53415	-1.241716
29.18572	-0.04102959	-0.2904241	0	0	-1.533621	1.241288
29.20231	-0.04102959	-0.2904241	0	0	0	0
29.22239	-0.04087196	-0.2906793	0.007848298	-0.01270626	0.2140099	-0.3464783
29.24534	-0.04087196	-0.2906793	0	0	-0.1823599	0.2952374
29.26192	-0.04105587	-0.2908282	-0.01109783	-0.008985095	-0.2807866	-0.2273322
29.27849	-0.04105587	-0.2908282	0	0	0.3348562	0.2711083
29.29505	-0.04105587	-0.2908282	0	0	0	0
29.31161	-0.0510346	-0.3010671	-0.6024561	-0.6181645	-18.1853	-18.65947
29.32819	-0.0510346	-0.3010671	0	0	18.18216	18.65624
29.34476	-0.0510346	-0.3010671	0	0	0	0
29.36132	-0.07805164	-0.3520037	-1.632067	-3.077018	-49.26157	-92.87527
29.37788	-0.07805164	-0.3520037	0	0	49.27575	92.90202
29.39486	-0.07805164	-0.3520037	0	0	0	0
29.41102	-0.08372487	-0.4209376	-0.3510038	-4.264956	-10.59332	-128.7166
29.428	-0.08372487	-0.4209376	0	0	10.59027	128.6796
29.44415	-0.08372487	-0.4209376	0	0	0	0
29.46092	-0.08688596	-0.4810543	-0.1885247	-3.585307	-5.726606	-108.9069
29.47731	-0.08688596	-0.4810543	0	0	5.686412	108.1425
29.49404	-0.08688596	-0.4810543	0	0	0	0
29.51042	-0.08952323	-0.523156	-0.1610402	-2.570862	-4.863283	-77.63793
29.5271	-0.08952323	-0.523156	0	0	4.871983	77.77681
29.54355	-0.08952323	-0.523156	0	0	0	0
29.56012	-0.09043685	-0.5818101	-0.05513307	-3.539555	-1.669397	-107.1757
29.57669	-0.09043685	-0.5818101	0	0	1.663919	106.824
29.59329	-0.09043685	-0.5818101	0	0	0	0
29.60982	-0.09987709	-0.6569258	-0.5711952	-4.54498	-17.24069	-137.1835
29.62639	-0.09987709	-0.6569258	0	0	17.25857	137.3259
29.64295	-0.09987709	-0.6569258	0	0	0	0
29.65952	-0.1107554	-0.70989	-0.6567686	-3.197662	-19.8236	-96.51675
29.67609	-0.1107554	-0.70989	0	0	19.82246	96.5112
29.69265	-0.1107554	-0.70989	0	0	0	0
29.70922	-0.1169896	-0.7174715	-0.3763421	-0.4576713	-11.35868	-13.81334
29.72579	-0.1169896	-0.7174715	0	0	11.35868	13.81334
29.74236	-0.1169896	-0.7174715	0	0	0	0
29.75892	-0.1170156	-0.717442	-0.001566817	0.001777285	-0.04728392	0.05363549
29.77593	-0.1170156	-0.717442	0	0	0.04666081	-0.05292867
29.79208	-0.1170156	-0.717442	0	0	0	0
29.80864	-0.1170156	-0.717383	0	0.003563407	0	0.1089487
29.82552	-0.1170156	-0.717383	0	0	0	-0.1065745
29.84175	-0.1170156	-0.717383	0	0	0	0
29.85832	-0.1169896	-0.7174125	0.001566637	-0.001780678	0.04775401	-0.05427838
29.87489	-0.1169896	-0.7174125	0	0	-0.04727848	0.05373788
29.89146	-0.1169896	-0.7174125	0	0	0	0
29.91055	-0.1164445	-0.7180322	0.02854375	-0.03244532	0.8003608	-0.9097601
29.92747	-0.1164445	-0.7180322	0	0	-0.7926875	0.9010378
29.94369	-0.1164445	-0.7180322	0	0	0	0
29.96026	-0.09820934	-0.7390119	1.100677	-1.266337	33.5663	-38.61828
29.97682	-0.09820934	-0.7390119	0	0	-33.2185	38.21814
29.99339	-0.09820934	-0.7390119	0	0	0	0
30.00998	-0.0812157	-0.7588683	1.02397	-1.196472	30.87859	-36.08051
30.02652	-0.0812157	-0.7588683	0	0	-30.90525	36.11167
30.044	-0.0812157	-0.7588683	0	0	0	0
30.06001	-0.08129413	-0.7587141	-0.004898402	0.009631136	-0.1462847	0.2876218
30.07622	-0.08129413	-0.7587141	0	0	0.1519989	-0.2988571
30.09279	-0.08129413	-0.7587141	0	0	0	0
30.10935	-0.08129413	-0.7587141	0	0	0	0
30.12592	-0.08129413	-0.7587141	0	0	0	0
30.14249	-0.08129413	-0.7587141	0	0	0	0
30.15905	-0.08129413	-0.7587141	0	0	0	0
30.17562	-0.08129413	-0.7587141	0	0	0	0
30.19243	-0.08129413	-0.7587141	0	0	0	0
30.20875	-0.08126798	-0.7586833	0.001602037	0.001888295	0.04835515	0.05699541
30.22532	-0.08126798	-0.7586833	0	0	-0.04871413	-0.05741853
30.24266	-0.08126798	-0.7586833	0	0	0	0
30.25846	-0.0813987	-0.7585292	-0.008275721	0.009758785	-0.2497618	0.2945207
30.27524	-0.0813987	-0.7585292	0	0	0.2540466	-0.2995734
30.29175	-0.0813987	-0.7585292	0	0	0	0
30.30855	-0.08171239	-0.7580978	-0.01867009	0.02567687	-0.5604641	0.7708029
30.32472	-0.08171239	-0.7580978	0	0	0.5662023	-0.7786946
30.34167	-0.08171239	-0.7580978	0	0	0	0
30.35818	-0.08199993	-0.757759	-0.01742014	0.02052519	-0.5206459	0.6134484
30.37442	-0.08199993	-0.757759	0	0	0.5319571	-0.6267757
30.39138	-0.08199993	-0.757759	0	0	0	0
30.40755	-0.08199993	-0.757759	0	0	0	0
30.42412	-0.08199993	-0.757759	0	0	0	0
30.44106	-0.08199993	-0.757759	0	0	0	0
30.45756	-0.08199993	-0.757759	0	0	0	0
30.47383	-0.08199993	-0.757759	0	0	0	0
30.49039	-0.08199993	-0.757759	0	0	0	0
30.50696	-0.08186923	-0.7579129	0.007890769	-0.009295112	0.2381713	-0.2805593
30.52353	-0.08186923	-0.7579129	0	0	-0.2381576	0.2805432
30.54009	-0.08186923	-0.7579129	0	0	0	0
30.56186	-0.08158168	-0.7583135	0.01320931	-0.01840007	0.3445684	-0.4799709
30.57846	-0.08158168	-0.7583135	0	0	-0.3443115	0.479613
30.59847	-0.07525236	-0.765926	0.3162778	-0.3803999	8.639643	-10.39124
30.61504	-0.07525236	-0.765926	0	0	-8.645949	10.39883
30.63249	-0.05544312	-0.7898645	1.135178	-1.37181	33.36849	-40.32425
30.64817	-0.05544312	-0.7898645	0	0	-34.25975	41.4013
30.66511	-0.05544312	-0.7898645	0	0	0	0
30.6813	-0.03393434	-0.8165591	1.328245	-1.648484	40.09112	-49.75706
30.69787	-0.03393434	-0.8165591	0	0	-40.54158	50.31613
30.71444	-0.03393434	-0.8165591	0	0	0	0
30.731	-0.03398691	-0.8265058	-0.003173575	-0.6004534	-0.09578419	-18.12276
30.74757	-0.03398691	-0.8265058	0	0	0.09578419	18.12276
30.76428	-0.03398691	-0.8265058	0	0	0	0
30.7807	-0.05140205	-0.8814422	-1.060336	-3.344853	-32.00468	-100.9595
30.79744	-0.05140205	-0.8814422	0	0	31.97339	100.8608
30.8139	-0.05140205	-0.8814422	0	0	0	0
30.83105	-0.06459422	-0.9277418	-0.7691835	-2.699545	-22.88857	-80.33028
30.84697	-0.06459422	-0.9277418	0	0	23.2555	81.61809
30.86354	-0.06459422	-0.9277418	0	0	0	0
30.88017	-0.0722163	-0.9412802	-0.4582757	-0.8139944	-13.80377	-24.51841
30.89667	-0.0722163	-0.9412802	0	0	13.83158	24.56781
30.91324	-0.0722163	-0.9412802	0	0	0	0
30.93027	-0.06750255	-0.9484089	0.2767794	-0.4185764	8.237987	-12.45839
30.94637	-0.06750255	-0.9484089	0	0	-8.3537	12.63339
30.96321	-0.06750255	-0.9484089	0	0	0	0
30.97951	-0.06752875	-0.9483695	-0.001607488	0.002417632	-0.04851408	0.07296428
30.99607	-0.06752875	-0.9483695	0	0	0.04891106	-0.07356134
31.01264	-0.06752875	-0.9483695	0	0	0	0
31.02958	-0.06750255	-0.9484089	0.001546141	-0.002325369	0.04614204	-0.06939679
31.04577	-0.06750255	-0.9484089	0	0	-0.04666802	0.07018784
31.06234	-0.06750255	-0.9484089	0	0	0	0
31.0789	-0.06742396	-0.948527	0.004744717	-0.00713237	0.1432041	-0.2152677
31.09547	-0.06742396	-0.948527	0	0	-0.1432041	0.2152677
31.11254	-0.06742396	-0.948527	0	0	0	0
31.1288	-0.06721438	-0.948921	0.01289356	-0.02423874	0.3869234	-0.7273813
31.14517	-0.06721438	-0.948921	0	0	-0.3951332	0.742815
31.16174	-0.06721438	-0.948921	0	0	0	0
31.1783	-0.06758114	-0.949473	-0.02213991	-0.03332254	-0.6682224	-1.005734
31.19487	-0.06758114	-0.949473	0	0	0.6682224	1.005734
31.21144	-0.06758114	-0.949473	0	0	0	0
31.22827	-0.07561869	-0.9613737	-0.4774521	-0.7069312	-14.29515	-21.16587
31.24457	-0.07561869	-0.9613737	0	0	14.40953	21.33523
31.26127	-0.07561869	-0.9613737	0	0	0	0
31.27771	-0.07760698	-0.9633046	-0.1209179	-0.1174313	-3.648891	-3.543675
31.29428	-0.07760698	-0.9633046	0	0	3.663228	3.557599
31.31084	-0.07760698	-0.9633046	0	0	0	0
31.3275	-0.07831319	-0.9621373	-0.042398	0.07007901	-1.276048	2.109161
31.34397	-0.07831319	-0.9621373	0	0	1.279869	-2.115476
31.36054	-0.07831319	-0.9621373	0	0	0	0
31.37711	-0.08192151	-0.9566113	-0.2177733	0.3335156	-6.571655	10.06436
31.39367	-0.08192151	-0.9566113	0	0	6.57279	-10.0661
31.4106	-0.08192151	-0.9566113	0	0	0	0
31.4268	-0.08194765	-0.9565714	-0.001613271	0.002461296	-0.04869423	0.07429062
31.44337	-0.08194765	-0.9565714	0	0	0.04922989	-0.07510786
31.45994	-0.08194765	-0.9565714	0	0	0	0
31.47651	-0.08199993	-0.9564916	-0.003156034	0.004814335	-0.09525478	0.1453053
31.49337	-0.08199993	-0.9564916	0	0	0.09441235	-0.1440202
31.50964	-0.08199993	-0.9564916	0	0	0	0
31.52657	-0.08210448	-0.9563322	-0.006176496	0.009419014	-0.1860215	0.2836785
31.54311	-0.08210448	-0.9563322	0	0	0.1845795	-0.2814795
31.55934	-0.08210448	-0.9563322	0	0	0	0
31.57591	-0.0870949	-0.9487634	-0.301222	0.4568523	-9.182874	13.92733
31.59248	-0.0870949	-0.9487634	0	0	9.090374	-13.78703
31.60905	-0.0870949	-0.9487634	0	0	0	0
31.62561	-0.09742741	-0.9333404	-0.6236715	0.9309341	-18.82244	28.09565
31.64285	-0.09742741	-0.9333404	0	0	18.44655	-27.53456
31.65874	-0.09742741	-0.9333404	0	0	0	0
31.67531	-0.1024558	-0.9259492	-0.3035832	0.4462373	-9.354394	13.75004
31.69188	-0.1024558	-0.9259492	0	0	9.162685	-13.46824
31.70855	-0.1024558	-0.9259492	0	0	0	0
31.72501	-0.1024558	-0.9259492	0	0	0	0
31.74173	-0.1024558	-0.9259492	0	0	0	0
31.75883	-0.1024558	-0.9259492	0	0	0	0
31.77485	-0.1024558	-0.9259492	0	0	0	0
31.79135	-0.1024558	-0.9259492	0	0	0	0
31.80785	-0.1024558	-0.9259492	0	0	0	0
31.82441	-0.1024558	-0.9259492	0	0	0	0
31.84098	-0.1024558	-0.9259492	0	0	0	0
31.85766	-0.1024558	-0.9259492	0	0	0	0
31.87411	-0.1024558	-0.9259492	0	0	0	0
31.89068	-0.1024558	-0.9259492	0	0	0	0
31.90725	-0.1024558	-0.9259492	0	0	0	0
31.92904	-0.1024558	-0.9259492	0	0	0	0
31.9456	-0.1024558	-0.9259492	0	0	0	0
31.96276	-0.1024558	-0.9259492	0	0	0	0
31.97874	-0.1024558	-0.9259492	0	0	0	0
31.99531	-0.1024558	-0.9259492	0	0	0	0
32.01187	-0.1024558	-0.9259492	0	0	0	0
32.02844	-0.1024558	-0.9259492	0	0	0	0
32.04501	-0.1024558	-0.9259492	0	0	0	0
32.06157	-0.1024818	-0.9259111	-0.001571764	0.002298958	-0.04743594	0.0693827
32.07904	-0.1024818	-0.9259111	0	0	0.04618119	-0.06754742
32.09471	-0.1024818	-0.9259111	0	0	0	0
32.11127	-0.1024818	-0.9259111	0	0	0	0
32.12784	-0.1024818	-0.9259111	0	0	0	0
32.14441	-0.1024818	-0.9259111	0	0	0	0
32.16097	-0.1024818	-0.9259111	0	0	0	0
32.17754	-0.1024818	-0.9259111	0	0	0	0
32.1944	-0.1024818	-0.9259111	0	0	0	0
32.21067	-0.1024818	-0.9259111	0	0	0	0
32.22789	-0.1024818	-0.9259111	0	0	0	0
32.24381	-0.1024818	-0.9259111	0	0	0	0
32.26037	-0.1024818	-0.9259111	0	0	0	0
32.27694	-0.1024818	-0.9259111	0	0	0	0
32.29359	-0.1024818	-0.9259111	0	0	0	0
32.31007	-0.1024818	-0.9259111	0	0	0	0
32.32664	-0.1024818	-0.9259111	0	0	0	0
32.34336	-0.1024818	-0.9259111	0	0	0	0
32.35977	-0.1024818	-0.9259111	0	0	0	0
32.37634	-0.1024818	-0.9259111	0	0	0	0
32.39341	-0.1024818	-0.9259111	0	0	0	0
32.40947	-0.102586	-0.9256827	-0.006484134	0.01422242	-0.1956915	0.4292336
32.42604	-0.102586	-0.9256827	0	0	0.1987113	-0.4358573
32.44271	-0.102586	-0.9256827	0	0	0	0
32.45917	-0.1027422	-0.9251498	-0.009496181	0.03238755	-0.2866283	0.9775708
32.47573	-0.1027422	-0.9251498	0	0	0.2876218	-0.9809592
32.49249	-0.1027422	-0.9251498	0	0	0	0
32.50903	-0.1029505	-0.9246174	-0.01259061	0.0321831	-0.3781135	0.9665033
32.52615	-0.1029505	-0.9246174	0	0	0.3740003	-0.9559895
32.542	-0.1029505	-0.9246174	0	0	0	0
32.55856	-0.1031067	-0.9235537	-0.009429686	0.06420173	-0.2909186	1.980711
32.57513	-0.1031067	-0.9235537	0	0	0.2845557	-1.937389
32.5917	-0.1031067	-0.9235537	0	0	0	0
32.60826	-0.1163407	-0.8531969	-0.7988011	4.246747	-24.11064	128.1819
32.62483	-0.1163407	-0.8531969	0	0	24.10787	-128.1671
32.64146	-0.1163407	-0.8531969	0	0	0	0
32.65796	-0.1339303	-0.7539788	-1.066129	6.013736	-32.17954	181.5158
32.67504	-0.1339303	-0.7539788	0	0	31.7518	-179.103
32.69154	-0.1339303	-0.7539788	0	0	0	0
32.70766	-0.1273336	-0.7085737	0.4091977	2.816538	12.54312	86.33517
32.72435	-0.1273336	-0.7085737	0	0	-12.47311	-85.85331
32.7408	-0.1273336	-0.7085737	0	0	0	0
32.7574	-0.1046687	-0.6594852	1.364914	2.95618	41.29302	89.4339
32.77393	-0.1046687	-0.6594852	0	0	-41.19319	-89.21767
32.79052	-0.1046687	-0.6594852	0	0	0	0
32.80706	-0.08487456	-0.6375687	1.196707	1.325019	36.12084	39.99375
32.82363	-0.08487456	-0.6375687	0	0	-36.14997	-40.02601
32.8402	-0.08487456	-0.6375687	0	0	0	0
32.85682	-0.08071897	-0.5955558	0.2500255	2.527757	7.532777	76.15635
32.87333	-0.08071897	-0.5955558	0	0	-7.546655	-76.29665
32.8899	-0.08071897	-0.5955558	0	0	0	0
32.90646	-0.08615462	-0.5552437	-0.3280967	2.433244	-9.901977	73.43544
32.92303	-0.08615462	-0.5552437	0	0	9.901977	-73.43544
32.9396	-0.08615462	-0.5552437	0	0	0	0
32.95616	-0.09239408	-0.53911	-0.3767012	0.9740543	-11.37017	29.4004
32.97273	-0.09239408	-0.53911	0	0	11.37017	-29.4004
32.98967	-0.09239408	-0.53911	0	0	0	0
33.00586	-0.1067505	-0.511	-0.8865628	1.735895	-26.75652	52.38942
33.02243	-0.1067505	-0.511	0	0	27.06184	-52.98725
33.039	-0.1067505	-0.511	0	0	0	0
33.05602	-0.1080512	-0.4842259	-0.07639769	1.572632	-2.274267	46.81536
33.07213	-0.1080512	-0.4842259	0	0	2.305687	-47.46213
33.0887	-0.1080512	-0.4842259	0	0	0	0
33.10527	-0.1083113	-0.4837449	-0.0156992	0.02903379	-0.4738029	0.8762415
33.12257	-0.1083113	-0.4837449	0	0	0.463504	-0.8571949
33.1384	-0.1083113	-0.4837449	0	0	0	0
33.15496	-0.1082593	-0.4838892	0.003140654	-0.008710343	0.09695049	-0.2688842
33.1717	-0.1082593	-0.4838892	0	0	-0.09430739	0.2615538
33.18815	-0.1082593	-0.4838892	0	0	0	0
33.20506	-0.1082853	-0.4839132	-0.001537745	-0.001421896	-0.04609611	-0.04262339
33.22171	-0.1082853	-0.4839132	0	0	0.04582363	0.04237144
33.2378	-0.1082853	-0.4839132	0	0	0	0
33.25437	-0.1082333	-0.4839613	0.003140654	-0.002904048	0.09615785	-0.08891365
33.27094	-0.1082333	-0.4839613	0	0	-0.09478512	0.08764433
33.28751	-0.1082333	-0.4839613	0	0	0	0
33.30407	-0.1082333	-0.4839613	0	0	0	0
33.32064	-0.1082333	-0.4839613	0	0	0	0
33.33808	-0.1082333	-0.4839613	0	0	0	0
33.35439	-0.1082333	-0.4839613	0	0	0	0
33.37038	-0.1082333	-0.4839613	0	0	0	0
33.38691	-0.1082333	-0.4839613	0	0	0	0
33.40393	-0.1081553	-0.4840816	0.004581793	-0.007063452	0.136565	-0.2105334
33.42004	-0.1081553	-0.4840816	0	0	-0.1382788	0.2131754
33.4366	-0.1081553	-0.4840816	0	0	0	0
33.45317	-0.1079992	-0.4843222	0.009419792	-0.01451869	0.2843226	-0.4382255
33.46974	-0.1079992	-0.4843222	0	0	-0.2842899	0.4381751
33.48631	-0.1079992	-0.4843222	0	0	0	0
33.50298	-0.1079732	-0.4843943	0.001559908	-0.004328958	0.04692686	-0.1302284
33.51955	-0.1079732	-0.4843943	0	0	-0.04692686	0.1302284
33.53618	-0.1079732	-0.4843943	0	0	0	0
33.55268	-0.1079732	-0.4844906	0	-0.005832731	0	-0.1760525
33.56942	-0.1079732	-0.4844906	0	0	0	0.1754464
33.58582	-0.1079732	-0.4844906	0	0	0	0
33.60239	-0.1079992	-0.4845146	-0.001569965	-0.00145169	-0.04762289	-0.04403514
33.61895	-0.1079992	-0.4845146	0	0	0.04739802	0.04382721
33.63602	-0.1079992	-0.4845146	0	0	0	0
33.65208	-0.1079992	-0.4845628	0	-0.002998381	0	-0.09050174
33.66931	-0.1079992	-0.4845628	0	0	0	0.09008683
33.68521	-0.1079992	-0.4845628	0	0	0	0
33.70198	-0.1080252	-0.4846349	-0.001550684	-0.00430336	-0.04745536	-0.1316951
33.71884	-0.1080252	-0.4846349	0	0	0.04610964	0.1279605
33.73491	-0.1080252	-0.4846349	0	0	0	0
33.75148	-0.1079212	-0.4848275	0.006279861	-0.01162071	0.1924063	-0.3560425
33.76805	-0.1079212	-0.4848275	0	0	-0.1895266	0.3507138
33.78461	-0.1079212	-0.4848275	0	0	0	0
33.8012	-0.1077651	-0.48502	0.009411573	-0.01161182	0.2839111	-0.350284
33.81786	-0.1077651	-0.48502	0	0	-0.2830642	0.3492391
33.83432	-0.1077651	-0.48502	0	0	0	0
33.85088	-0.1077131	-0.4850681	0.003139931	-0.002905178	0.09509172	-0.08798232
33.86745	-0.1077131	-0.4850681	0	0	-0.09476329	0.08767844
33.88402	-0.1077131	-0.4850681	0	0	0	0
33.9012	-0.1076871	-0.4851404	0.001514615	-0.004203795	0.04488439	-0.124576
33.91715	-0.1076871	-0.4851404	0	0	-0.04571644	0.1268854
33.93385	-0.1076871	-0.4851404	0	0	0	0
33.95045	-0.1076871	-0.4851404	0	0	0	0
33.96685	-0.1076871	-0.4851404	0	0	0	0
34.03639	-0.1076871	-0.4851404	0	0	0	0
34.05637	-0.1076871	-0.4851885	0	-0.002410731	0	-0.02692968
34.07357	-0.1076871	-0.4851885	0	0	0	0.06484288
34.08971	-0.1076871	-0.4851885	0	0	0	0
34.10607	-0.1076871	-0.4851885	0	0	0	0
34.12272	-0.1076871	-0.4851885	0	0	0	0
34.1392	-0.1076871	-0.4851885	0	0	0	0
34.15588	-0.107661	-0.4852607	0.001558838	-0.004327775	0.04700795	-0.1305073
34.17233	-0.107661	-0.4852607	0	0	-0.04704584	0.1306125
34.1889	-0.107661	-0.4852607	0	0	0	0
34.20549	-0.107635	-0.485333	0.00156816	-0.004355451	0.04729993	-0.1313721
34.22203	-0.107635	-0.485333	0	0	-0.04732716	0.1314478
34.23864	-0.107635	-0.485333	0	0	0	0
34.25517	-0.107661	-0.4854052	-0.001574315	-0.004370743	-0.0475184	-0.1319245
34.27188	-0.107661	-0.4854052	0	0	0.04736026	0.1314854
34.2883	-0.107661	-0.4854052	0	0	0	0
34.30487	-0.107661	-0.4855497	0	-0.008720931	0	-0.2644159
34.3215	-0.107661	-0.4855497	0	0	0	0.2627143
34.338	-0.107661	-0.4855497	0	0	0	0
34.35485	-0.1078431	-0.4858145	-0.01080364	-0.01571695	-0.3238546	-0.4711384
34.37113	-0.1078431	-0.4858145	0	0	0.3260919	0.4743932
34.3877	-0.1078431	-0.4858145	0	0	0	0
34.40426	-0.1079212	-0.4859831	-0.004711431	-0.01017856	-0.1422076	-0.307225
34.42083	-0.1079212	-0.4859831	0	0	0.1422076	0.307225
34.4374	-0.1079212	-0.4859831	0	0	0	0
34.45396	-0.1079472	-0.4860072	-0.001570327	-0.001453823	-0.04739802	-0.04388152
34.47053	-0.1079472	-0.4860072	0	0	0.04739802	0.04388152
34.48709	-0.1079472	-0.4860072	0	0	0	0
34.50366	-0.1079472	-0.4860072	0	0	0	0
34.52023	-0.1079472	-0.4860072	0	0	0	0
34.53679	-0.1079472	-0.4860072	0	0	0	0
34.55336	-0.1079472	-0.4860554	0	-0.002908776	0	-0.08778702
34.57028	-0.1079472	-0.4860554	0	0	0	0.08686695
34.58649	-0.1079472	-0.4860554	0	0	0	0
34.60306	-0.1079472	-0.4860554	0	0	0	0
34.61963	-0.1079472	-0.4860554	0	0	0	0
34.63625	-0.1079472	-0.4860554	0	0	0	0
34.65894	-0.1079732	-0.4860795	-0.001146328	-0.001061281	-0.02915807	-0.02699481
34.6757	-0.1079732	-0.4860795	0	0	0.02905376	0.02689824
34.69207	-0.1079732	-0.4860795	0	0	0	0
34.70864	-0.1079732	-0.4860795	0	0	0	0
34.72521	-0.1079732	-0.4860795	0	0	0	0
34.74177	-0.1079472	-0.4861036	0.001570327	-0.001453823	0.04739802	-0.04388152
34.75834	-0.1079472	-0.4861036	0	0	-0.04739802	0.04388152
34.7749	-0.1079472	-0.4861036	0	0	0	0
34.79147	-0.1079472	-0.4861036	0	0	0	0
34.80804	-0.1079472	-0.4861036	0	0	0	0
34.8246	-0.1079472	-0.4861036	0	0	0	0
34.84117	-0.1079472	-0.4861036	0	0	0	0
34.85795	-0.1079472	-0.4861036	0	0	0	0
34.87458	-0.1079472	-0.4861036	0	0	0	0
34.89087	-0.1079472	-0.4861036	0	0	0	0
34.90744	-0.1079472	-0.4861036	0	0	0	0
34.92401	-0.1079472	-0.4861036	0	0	0	0
34.94089	-0.1079472	-0.4861036	0	0	0	0
34.95714	-0.1079472	-0.4861036	0	0	0	0
34.97371	-0.1079472	-0.4861036	0	0	0	0
34.99035	-0.1079472	-0.4861036	0	0	0	0
35.00684	-0.1079472	-0.4861036	0	0	0	0
35.02362	-0.1079472	-0.4861036	0	0	0	0
35.03997	-0.1079472	-0.4861036	0	0	0	0
35.05728	-0.1079472	-0.4861036	0	0	0	0
35.0732	-0.1079472	-0.4861036	0	0	0	0
35.08967	-0.1079472	-0.4861036	0	0	0	0
35.10624	-0.1079472	-0.4861036	0	0	0	0
35.12281	-0.1079472	-0.4861036	0	0	0	0
35.13937	-0.1079472	-0.4861036	0	0	0	0
35.15604	-0.1079472	-0.4861036	0	0	0	0
35.1725	-0.1079472	-0.4861036	0	0	0	0
35.1892	-0.1079472	-0.4861036	0	0	0	0
35.20564	-0.1079472	-0.4861036	0	0	0	0
35.22221	-0.1079472	-0.4861036	0	0	0	0
35.23877	-0.1079472	-0.4861036	0	0	0	0
35.25534	-0.1079472	-0.4861036	0	0	0	0
35.27191	-0.1079472	-0.4861036	0	0	0	0
35.28848	-0.1079472	-0.4861036	0	0	0	0
35.30504	-0.1079472	-0.4861036	0	0	0	0
35.32176	-0.1079472	-0.4861036	0	0	0	0
35.34227	-0.1079472	-0.4861036	0	0	0	0
35.35884	-0.1079472	-0.4861036	0	0	0	0
35.37541	-0.1079472	-0.4861036	0	0	0	0
35.39231	-0.1079472	-0.4861036	0	0	0	0
35.40854	-0.1079472	-0.4861036	0	0	0	0
35.42511	-0.1079472	-0.4861036	0	0	0	0
35.44167	-0.1079472	-0.4861036	0	0	0	0
35.45846	-0.1079472	-0.4861036	0	0	0	0
35.47481	-0.1079472	-0.4861036	0	0	0	0
35.49138	-0.1079472	-0.4861036	0	0	0	0
35.50795	-0.1079472	-0.4861036	0	0	0	0
35.52451	-0.1079472	-0.4861036	0	0	0	0
35.54108	-0.1079472	-0.4861036	0	0	0	0
35.55792	-0.1079472	-0.4861036	0	0	0	0
35.57502	-0.1079472	-0.4861036	0	0	0	0
35.59078	-0.1079472	-0.4861036	0	0	0	0
35.60735	-0.1079472	-0.4861036	0	0	0	0
35.62391	-0.1079472	-0.4861036	0	0	0	0
35.64048	-0.1079472	-0.4861036	0	0	0	0
35.65769	-0.1079472	-0.4861036	0	0	0	0
35.67373	-0.1079472	-0.4861036	0	0	0	0
35.69018	-0.1079472	-0.4861036	0	0	0	0
35.70675	-0.1079472	-0.4861036	0	0	0	0
35.72388	-0.1079472	-0.4861036	0	0	0	0
35.73989	-0.1079472	-0.4861036	0	0	0	0
35.75679	-0.1079472	-0.4861036	0	0	0	0
35.77332	-0.1079472	-0.4861036	0	0	0	0
35.78958	-0.1079472	-0.4861036	0	0	0	0
35.80614	-0.1079472	-0.4861036	0	0	0	0
35.82271	-0.1079472	-0.4861036	0	0	0	0
35.83928	-0.1079472	-0.4861036	0	0	0	0
35.85585	-0.1079472	-0.4861036	0	0	0	0
35.87248	-0.1079472	-0.4861036	0	0	0	0
35.8891	-0.1079472	-0.4861036	0	0	0	0
35.90554	-0.1079472	-0.4861036	0	0	0	0
35.92211	-0.1079472	-0.4861036	0	0	0	0
35.93868	-0.1079472	-0.4861036	0	0	0	0
35.95524	-0.1079472	-0.4861036	0	0	0	0
35.97181	-0.1079472	-0.4861036	0	0	0	0
35.98838	-0.1079472	-0.4861036	0	0	0	0
36.00494	-0.1079472	-0.4861036	0	0	0	0
36.02151	-0.1079472	-0.4861036	0	0	0	0
36.03808	-0.1079472	-0.4861036	0	0	0	0
36.05465	-0.1079472	-0.4861036	0	0	0	0
36.07121	-0.1079472	-0.4861036	0	0	0	0
36.08778	-0.1079472	-0.4861036	0	0	0	0
36.10435	-0.1079472	-0.4861036	0	0	0	0
36.12355	-0.1079472	-0.4861036	0	0	0	0
36.14012	-0.1079472	-0.4861036	0	0	0	0
36.15688	-0.1079472	-0.4861036	0	0	0	0
36.17325	-0.1079472	-0.4861036	0	0	0	0
36.18982	-0.1079472	-0.4861036	0	0	0	0
36.20638	-0.1079472	-0.4861036	0	0	0	0
36.22295	-0.1079472	-0.4861036	0	0	0	0
36.23951	-0.1079472	-0.4861036	0	0	0	0
36.25608	-0.1079472	-0.4861036	0	0	0	0
36.27264	-0.1072448	-0.4867541	0.04239311	-0.03926937	1.279574	-1.185288
36.28921	-0.1072448	-0.4867541	0	0	-1.279427	1.185152
36.30607	-0.1072448	-0.4867541	0	0	0	0
36.32234	-0.09046295	-0.5023161	1.03124	-0.9562767	31.12648	-28.86381
36.33891	-0.09046295	-0.5023161	0	0	-31.40126	29.11862
36.35548	-0.09046295	-0.5023161	0	0	0	0
36.37204	-0.05557429	-0.5352277	2.105883	-1.986548	63.55568	-59.95414
36.38861	-0.05557429	-0.5352277	0	0	-63.55568	59.95414
36.40518	-0.05557429	-0.5352277	0	0	0	0
36.42305	-0.01718252	-0.5720043	2.148628	-2.05823	62.39614	-59.77098
36.43986	-0.01718252	-0.5720043	0	0	-61.95006	59.34367
36.45637	-0.01718252	-0.5720043	0	0	0	0
36.47289	-0.00347367	-0.5825897	0.8301438	-0.6410076	25.13772	-19.41045
36.48932	-0.00347367	-0.5825897	0	0	-25.19593	19.4554
36.50588	-0.00347367	-0.5825897	0	0	0	0
36.52245	0.02023408	-0.5593931	1.431003	1.400152	43.19272	42.26153
36.53902	0.02023408	-0.5593931	0	0	-43.18775	-42.25667
36.55558	0.02023408	-0.5593931	0	0	0	0
36.57215	0.06517074	-0.5162134	2.712382	2.606335	81.85986	78.65935
36.58872	0.06517074	-0.5162134	0	0	-81.85986	-78.65935
36.60542	0.06517074	-0.5162134	0	0	0	0
36.62189	0.1006847	-0.4812223	2.155539	2.123802	64.97948	64.02277
36.63842	0.1006847	-0.4812223	0	0	-65.31749	-64.3558
36.65498	0.1006847	-0.4812223	0	0	0	0
36.67155	0.1374954	-0.4372976	2.222408	2.651908	67.08013	80.04397
36.68811	0.1374954	-0.4372976	0	0	-67.08013	-80.04397
36.70479	0.1374954	-0.4372976	0	0	0	0
36.72124	0.1507682	-0.388695	0.8067217	2.954063	24.34971	89.16408
36.73843	0.1507682	-0.388695	0	0	-23.97973	-87.80927
36.75444	0.1507682	-0.388695	0	0	0	0
36.77095	0.1528767	-0.351365	0.1277721	2.262102	3.929919	69.57601
36.78751	0.1528767	-0.351365	0	0	-3.863732	-68.40424
36.80408	0.1528767	-0.351365	0	0	0	0
36.82065	0.1607329	-0.3309655	0.4742015	1.231313	14.31143	37.16111
36.83755	0.1607329	-0.3309655	0	0	-14.16951	-36.79259
36.85378	0.1607329	-0.3309655	0	0	0	0
36.87035	0.1612457	-0.3305739	0.03095942	0.02364082	0.9439201	0.7207838
36.88692	0.1612457	-0.3305739	0	0	-0.934357	-0.7134813
36.90348	0.1612457	-0.3305739	0	0	0	0
36.92005	0.1612457	-0.3305739	0	0	0	0
36.93695	0.1612457	-0.3305739	0	0	0	0
36.95366	0.1612457	-0.3305739	0	0	0	0
36.96975	0.1612714	-0.3305957	0.001593253	-0.001352413	0.04857098	-0.04122885
36.98685	0.1612714	-0.3305957	0	0	-0.04801263	0.0407549
37.00289	0.1612714	-0.3305957	0	0	0	0
37.01945	0.1612714	-0.3305957	0	0	0	0
37.03602	0.1612714	-0.3305957	0	0	0	0
37.05293	0.1612714	-0.3305957	0	0	0	0
37.06916	0.1612714	-0.3305957	0	0	0	0
37.08572	0.1612714	-0.3305957	0	0	0	0
37.10261	0.1612714	-0.3305957	0	0	0	0
37.12236	0.1612201	-0.3306392	-0.002595868	-0.002202829	-0.07084024	-0.06011435
37.13894	0.1612201	-0.3306392	0	0	0.07146517	0.06064466
37.1555	0.1612201	-0.3306392	0	0	0	0
37.17207	0.1612201	-0.3306392	0	0	0	0
37.18863	0.1612201	-0.3306392	0	0	0	0
37.2052	0.1612201	-0.3306392	0	0	0	0
37.22177	0.1612201	-0.3306392	0	0	0	0
37.23833	0.1612201	-0.3306392	0	0	0	0
37.2549	0.1612201	-0.3306392	0	0	0	0
37.27147	0.1611688	-0.3306827	-0.003095672	-0.002625158	-0.09343831	-0.07923656
37.28803	0.1611688	-0.3306827	0	0	0.09343831	0.07923656
37.3046	0.1611688	-0.3306827	0	0	0	0
37.32117	0.1610919	-0.330748	-0.004641988	-0.003939529	-0.1400955	-0.1188952
37.33773	0.1610919	-0.330748	0	0	0.1400955	0.1188952
37.35468	0.1610919	-0.330748	0	0	0	0
37.37086	0.1610663	-0.3308132	-0.001584038	-0.004031427	-0.04781186	-0.1216827
37.38743	0.1610663	-0.3308132	0	0	0.04835752	0.1230714
37.404	0.1610663	-0.3308132	0	0	0	0
37.42056	0.1609893	-0.3308785	-0.004643957	-0.003940437	-0.1401872	-0.11895
37.43713	0.1609893	-0.3308785	0	0	0.1401549	0.1189226
37.4537	0.1609893	-0.3308785	0	0	0	0
37.47026	0.1608611	-0.3309873	-0.007739629	-0.006567394	-0.2336094	-0.1982272
37.48683	0.1608611	-0.3309873	0	0	0.2335825	0.1982043
37.5034	0.1608611	-0.3309873	0	0	0	0
37.5204	0.1608099	-0.3310308	-0.003015996	-0.002560355	-0.08983358	-0.07626198
37.53653	0.1608099	-0.3310308	0	0	0.09103344	0.07728057
37.55343	0.1608099	-0.3310308	0	0	0	0
37.56966	0.1607842	-0.3310526	-0.001579025	-0.001340335	-0.04766055	-0.04045605
37.58623	0.1607842	-0.3310526	0	0	0.04813721	0.04086065
37.6028	0.1607842	-0.3310526	0	0	0	0
37.61937	0.1605022	-0.3313355	-0.01702632	-0.01707489	-0.5138554	-0.5153212
37.63593	0.1605022	-0.3313355	0	0	0.5138554	0.5153212
37.6525	0.1605022	-0.3313355	0	0	0	0
37.66907	0.1580907	-0.3333823	-0.1455548	-0.1235465	-4.392853	-3.728641
37.68563	0.1580907	-0.3333823	0	0	4.392853	3.728641
37.70224	0.1580907	-0.3333823	0	0	0	0
37.71877	0.1577314	-0.334254	-0.02173815	-0.05274023	-0.6561342	-1.591887
37.73533	0.1577314	-0.334254	0	0	0.6568149	1.593538
37.7519	0.1577314	-0.334254	0	0	0	0
37.76918	0.1577057	-0.3361952	-0.001484892	-0.1123344	-0.04386967	-3.31881
37.78503	0.1577057	-0.3361952	0	0	0.04481414	3.39026
37.80191	0.1577057	-0.3361952	0	0	0	0
37.81816	0.124355	-0.3654965	-2.051795	-1.802663	-61.93042	-54.41075
37.83473	0.124355	-0.3654965	0	0	62.51345	54.92299
37.85147	0.124355	-0.3654965	0	0	0	0
37.86802	0.07059303	-0.4124468	-3.250318	-2.838503	-97.6563	-85.28327
37.88467	0.07059303	-0.4124468	0	0	97.92567	85.51851
37.901	0.07059303	-0.4124468	0	0	0	0
37.91756	0.03196279	-0.4466116	-2.331726	-2.062192	-70.87753	-62.68453
37.93423	0.03196279	-0.4466116	0	0	70.15355	62.04423
37.95124	0.03196279	-0.4466116	0	0	0	0
37.96774	-0.01486733	-0.4889249	-2.838436	-2.564664	-84.71808	-76.54689
37.98383	-0.01486733	-0.4889249	0	0	87.10828	78.70654
38.00039	-0.01486733	-0.4889249	0	0	0	0
38.02236	-0.05995438	-0.5309584	-2.052318	-1.913323	-53.25706	-49.65019
38.03893	-0.05995438	-0.5309584	0	0	53.25179	49.64527
38.0555	-0.07964694	-0.5498425	-1.188646	-1.139844	-35.86927	-34.39661
38.07255	-0.07964694	-0.5498425	0	0	35.35645	33.90484
38.0887	-0.07964694	-0.5498425	0	0	0	0
38.11335	-0.1124967	-0.5821479	-1.33241	-1.310331	-32.65857	-32.11739
38.12992	-0.1124967	-0.5821479	0	0	32.3201	31.78454
38.14649	-0.1256503	-0.5953981	-0.7939546	-0.799782	-23.95884	-24.13469
38.16306	-0.1256503	-0.5953981	0	0	23.9616	24.13747
38.17962	-0.1256503	-0.5953981	0	0	0	0
38.19619	-0.1390443	-0.6090941	-0.8086486	-0.8268871	-24.40788	-24.95837
38.21276	-0.1390443	-0.6090941	0	0	24.40506	24.9555
38.22932	-0.1390443	-0.6090941	0	0	0	0
38.24589	-0.1413665	-0.6114907	-0.1401986	-0.1446878	-4.231688	-4.367189
38.26245	-0.1413665	-0.6114907	0	0	4.231688	4.367189
38.27902	-0.1413665	-0.6114907	0	0	0	0
38.29559	-0.1413665	-0.6114907	0	0	0	0
38.31215	-0.1413665	-0.6114907	0	0	0	0
38.32872	-0.1413665	-0.6114907	0	0	0	0
38.34528	-0.1413665	-0.6114907	0	0	0	0
38.36185	-0.1413665	-0.6114907	0	0	0	0
38.37842	-0.1413665	-0.6114907	0	0	0	0
38.39502	-0.1413665	-0.6114907	0	0	0	0
38.41156	-0.1413665	-0.6114907	0	0	0	0
38.42834	-0.1413665	-0.6114907	0	0	0	0
38.4448	-0.1413665	-0.6114907	0	0	0	0
38.46163	-0.1413665	-0.6114907	0	0	0	0
38.47794	-0.1413665	-0.6114907	0	0	0	0
38.4945	-0.1413665	-0.6114907	0	0	0	0
38.51107	-0.1413665	-0.6114907	0	0	0	0
38.52764	-0.1413665	-0.6114907	0	0	0	0
38.5442	-0.1413665	-0.6114907	0	0	0	0
38.56077	-0.1413665	-0.6114907	0	0	0	0
38.57734	-0.1413665	-0.6114907	0	0	0	0
38.5939	-0.1413665	-0.6114907	0	0	0	0
38.61047	-0.1413665	-0.6114907	0	0	0	0
38.62703	-0.1413665	-0.6114907	0	0	0	0
38.6436	-0.1413665	-0.6114907	0	0	0	0
38.66032	-0.1413665	-0.6114907	0	0	0	0
38.67673	-0.1413665	-0.6114907	0	0	0	0
38.69717	-0.1413407	-0.6115173	0.001262221	-0.001303785	0.03424942	-0.03537722
38.71374	-0.1413407	-0.6115173	0	0	-0.03410821	0.03523135
38.73053	-0.1413407	-0.6115173	0	0	0	0
38.74688	-0.1413407	-0.6115173	0	0	0	0
38.76344	-0.1413407	-0.6115173	0	0	0	0
38.78025	-0.1413407	-0.6115173	0	0	0	0
38.79677	-0.1413407	-0.6115173	0	0	0	0
38.81328	-0.1413407	-0.6115173	0	0	0	0
38.82979	-0.1413407	-0.6115173	0	0	0	0
38.8463	-0.1413407	-0.6115173	0	0	0	0
38.86332	-0.1413407	-0.6115173	0	0	0	0
38.87982	-0.1413407	-0.6115173	0	0	0	0
38.89632	-0.1413407	-0.6115173	0	0	0	0
38.91254	-0.1413407	-0.6115173	0	0	0	0
38.92955	-0.1413407	-0.6115173	0	0	0	0
38.94585	-0.1413407	-0.6115173	0	0	0	0
38.96224	-0.1413407	-0.6115173	0	0	0	0
38.9788	-0.1413407	-0.6115173	0	0	0	0
38.99537	-0.1413407	-0.6115173	0	0	0	0
39.01196	-0.1413407	-0.6115173	0	0	0	0
39.0285	-0.1413407	-0.6115173	0	0	0	0
39.04507	-0.1413407	-0.6115173	0	0	0	0
39.0621	-0.1413407	-0.6115173	0	0	0	0
39.0782	-0.1413407	-0.6115173	0	0	0	0
39.09477	-0.1413407	-0.6115173	0	0	0	0
39.11134	-0.1413407	-0.6115173	0	0	0	0
39.12848	-0.1413407	-0.6115173	0	0	0	0
39.14505	-0.1413407	-0.6115173	0	0	0	0
39.16162	-0.1413407	-0.6115173	0	0	0	0
39.17818	-0.1413407	-0.6115173	0	0	0	0
39.19501	-0.1413407	-0.6115173	0	0	0	0
39.21132	-0.1413407	-0.6115173	0	0	0	0
39.22789	-0.1413407	-0.6115173	0	0	0	0
39.24446	-0.1413407	-0.6115173	0	0	0	0
39.26102	-0.1413407	-0.6115173	0	0	0	0
39.27798	-0.1413407	-0.6115173	0	0	0	0
39.29417	-0.1413407	-0.6115173	0	0	0	0
39.31072	-0.1413407	-0.6115173	0	0	0	0
39.32742	-0.1413407	-0.6115173	0	0	0	0
39.34407	-0.1413407	-0.6115173	0	0	0	0
39.36042	-0.1413407	-0.6115173	0	0	0	0
39.37703	-0.1413407	-0.6115173	0	0	0	0
39.39359	-0.1413407	-0.6115173	0	0	0	0
39.41012	-0.1413407	-0.6115173	0	0	0	0
39.42669	-0.1413407	-0.6115173	0	0	0	0
39.47961	-0.1413407	-0.6115173	0	0	0	0
39.49676	-0.1413407	-0.6115173	0	0	0	0
39.51368	-0.1413407	-0.6115173	0	0	0	0
39.53025	-0.1413407	-0.6115173	0	0	0	0
39.54682	-0.1413407	-0.6115173	0	0	0	0
39.56389	-0.1412891	-0.611464	0.003021322	0.003124302	0.08980853	0.09286959
39.57995	-0.1412891	-0.611464	0	0	-0.09118368	-0.09429161
39.59653	-0.1412891	-0.611464	0	0	0	0
39.61355	-0.140154	-0.610132	0.0667031	0.0782686	1.98522	2.329433
39.62999	-0.140154	-0.610132	0	0	-1.994049	-2.339793
39.64622	-0.140154	-0.610132	0	0	0	0
39.66355	-0.1341629	-0.6039191	0.3456275	0.3584259	10.2971	10.6784
39.67948	-0.1341629	-0.6039191	0	0	-10.39039	-10.77514
39.69592	-0.1341629	-0.6039191	0	0	0	0
39.71248	-0.1117691	-0.5812646	1.351692	1.367427	40.9592	41.43599
39.72905	-0.1117691	-0.5812646	0	0	-40.79416	-41.26902
39.74562	-0.1117691	-0.5812646	0	0	0	0
39.76218	-0.08790446	-0.5577112	1.440804	1.422012	43.48854	42.92134
39.77885	-0.08790446	-0.5577112	0	0	-43.34879	-42.78341
39.79532	-0.08790446	-0.5577112	0	0	0	0
39.81188	-0.06040013	-0.5312327	1.660547	1.598619	50.27748	48.40244
39.82845	-0.06040013	-0.5312327	0	0	-50.12118	-48.25197
39.84502	-0.06040013	-0.5312327	0	0	0	0
39.86158	-0.0351697	-0.5073972	1.523262	1.439044	45.97744	43.43543
39.87817	-0.0351697	-0.5073972	0	0	-45.94041	-43.40045
39.89471	-0.0351697	-0.5073972	0	0	0	0
39.91128	-0.01357811	-0.4861518	1.303271	1.282376	39.36905	38.73787
39.92785	-0.01357811	-0.4861518	0	0	-39.33279	-38.70219
39.94441	-0.01357811	-0.4861518	0	0	0	0
39.96098	0.00939446	-0.4638578	1.386627	1.345666	41.84849	40.61227
39.97755	0.00939446	-0.4638578	0	0	-41.84849	-40.61227
39.99429	0.00939446	-0.4638578	0	0	0	0
40.0113	0.02047082	-0.4517965	0.6510319	0.7089213	19.28844	21.00356
40.02724	0.02047082	-0.4517965	0	0	-19.75279	-21.5092
40.04381	0.02047082	-0.4517965	0	0	0	0
40.06408	-0.00173684	-0.4265865	-1.095935	1.244099	-29.75585	33.77869
40.08078	-0.00173684	-0.4265865	0	0	29.64837	-33.65668
40.09721	-0.01452529	-0.4154017	-0.7781839	0.6806015	-23.48564	20.54059
40.11385	-0.01452529	-0.4154017	0	0	23.53169	-20.58087
40.13034	-0.01452529	-0.4154017	0	0	0	0
40.14691	-0.01886618	-0.411669	-0.2620166	0.2253087	-7.924097	6.81395
40.16348	-0.01886618	-0.411669	0	0	7.907676	-6.799829
40.18005	-0.01886618	-0.411669	0	0	0	0
40.19661	-0.01883988	-0.4117833	0.001587954	-0.00690407	0.04792455	-0.2083652
40.21318	-0.01883988	-0.4117833	0	0	-0.04792455	0.2083652
40.22975	-0.01883988	-0.4117833	0	0	0	0
40.24631	-0.01883988	-0.4119663	0	-0.01104762	0	-0.3334561
40.26289	-0.01883988	-0.4119663	0	0	0	0.3333794
40.27945	-0.01883988	-0.4119663	0	0	0	0
40.29601	-0.01905033	-0.4124697	-0.01270577	-0.03038994	-0.3835934	-0.9174871
40.31258	-0.01905033	-0.4124697	0	0	0.3835051	0.9172758
40.32914	-0.01905033	-0.4124697	0	0	0	0
40.34571	-0.01968167	-0.4132937	-0.03811664	-0.04975206	-1.150495	-1.501693
40.36256	-0.01968167	-0.4132937	0	0	1.140645	1.488836
40.37884	-0.01968167	-0.4132937	0	0	0	0
40.39541	-0.02002364	-0.4137747	-0.02064138	-0.02902839	-0.6283839	-0.8837091
40.41198	-0.02002364	-0.4137747	0	0	0.6229581	0.8760787
40.42868	-0.02002364	-0.4137747	0	0	0	0
40.44511	-0.01999733	-0.4137976	0.001601	-0.001393081	0.04832384	-0.04204811
40.46218	-0.01999733	-0.4137976	0	0	-0.04777921	0.04157421
40.47824	-0.01999733	-0.4137976	0	0	0	0
40.49481	-0.01997103	-0.4138205	0.001587842	-0.001383332	0.04866634	-0.04239826
40.51138	-0.01997103	-0.4138205	0	0	-0.04792115	0.04174906
40.52795	-0.01997103	-0.4138205	0	0	0	0
40.54451	-0.01999733	-0.4138434	-0.001588207	-0.001381852	-0.04793771	-0.04170917
40.56133	-0.01999733	-0.4138434	0	0	0.0475816	0.04139933
40.57765	-0.01999733	-0.4138434	0	0	0	0
40.59421	-0.01999733	-0.4138434	0	0	0	0
40.61078	-0.01999733	-0.4138434	0	0	0	0
40.62735	-0.01999733	-0.4138434	0	0	0	0
40.64391	-0.01997103	-0.4138663	0.001587842	-0.001383332	0.04792115	-0.04174906
40.66048	-0.01997103	-0.4138663	0	0	-0.04792115	0.04174906
40.67705	-0.01997103	-0.4138663	0	0	0	0
40.69361	-0.01999733	-0.4138892	-0.001588207	-0.001381852	-0.04793771	-0.04170917
40.71018	-0.01999733	-0.4138892	0	0	0.04793771	0.04170917
40.72675	-0.01999733	-0.4138892	0	0	0	0
40.74354	-0.01999733	-0.413935	0	-0.002727808	0	-0.08177
40.75988	-0.01999733	-0.413935	0	0	0	0.0823349
40.77644	-0.01999733	-0.413935	0	0	0	0
40.79301	-0.01999733	-0.4139808	0	-0.002767302	0	-0.08352695
40.80957	-0.01999733	-0.4139808	0	0	0	0.08352695
40.82614	-0.01999733	-0.4139808	0	0	0	0
40.84271	-0.01999733	-0.4139808	0	0	0	0
40.85941	-0.01999733	-0.4139808	0	0	0	0
40.87584	-0.01999733	-0.4139808	0	0	0	0
40.89242	-0.01999733	-0.4139808	0	0	0	0
40.90928	-0.01999733	-0.4139808	0	0	0	0
40.92554	-0.01999733	-0.4139808	0	0	0	0
40.94211	-0.01999733	-0.4140266	0	-0.002764866	0	-0.08422929
40.95892	-0.01999733	-0.4140266	0	0	0	0.08283349
40.97524	-0.01999733	-0.4140266	0	0	0	0
40.99181	-0.02002364	-0.4140495	-0.001587729	-0.001383332	-0.04827345	-0.04205895
41.00838	-0.02002364	-0.4140495	0	0	0.04791776	0.04174906
41.02528	-0.02002364	-0.4140495	0	0	0	0
41.04187	-0.02002364	-0.4140953	0	-0.002761051	0	-0.08243656
41.05807	-0.02002364	-0.4140953	0	0	0	0.08419135
41.07465	-0.02002364	-0.4140953	0	0	0	0
41.09121	-0.02002364	-0.4140953	0	0	0	0
41.10778	-0.02002364	-0.4140953	0	0	0	0
41.12435	-0.02002364	-0.4140953	0	0	0	0
41.14091	-0.02002364	-0.4141411	0	-0.00276614	0	-0.08351111
41.15756	-0.02002364	-0.4141411	0	0	0	0.08329049
41.17404	-0.02002364	-0.4141411	0	0	0	0
41.19061	-0.02002364	-0.4141411	0	0	0	0
41.20718	-0.02002364	-0.4141411	0	0	0	0
41.22433	-0.02002364	-0.4141411	0	0	0	0
41.24031	-0.02002364	-0.4141411	0	0	0	0
41.25688	-0.02002364	-0.4141411	0	0	0	0
41.27344	-0.02002364	-0.4141411	0	0	0	0
41.29001	-0.02002364	-0.414187	0	-0.002766665	0	-0.08350772
41.30706	-0.02002364	-0.414187	0	0	0	0.08230419
41.32319	-0.02002364	-0.414187	0	0	0	0
41.33971	-0.01999733	-0.4142099	0.001592496	-0.001387486	0.04876908	-0.04249077
41.35628	-0.01999733	-0.4142099	0	0	-0.04813367	0.04193716
41.37284	-0.01999733	-0.4142099	0	0	0	0
41.38941	-0.01997103	-0.4142328	0.001587842	-0.001381533	0.04792668	-0.04169956
41.40598	-0.01997103	-0.4142328	0	0	-0.04792115	0.04169476
41.42254	-0.01997103	-0.4142328	0	0	0	0
41.43911	-0.01994472	-0.4142557	0.001587729	-0.001383332	0.04791776	-0.04174906
41.45568	-0.01994472	-0.4142557	0	0	-0.04791776	0.04174906
41.47224	-0.01994472	-0.4142557	0	0	0	0
41.48885	-0.01994472	-0.4142557	0	0	0	0
