Time	Pos X	Pos Y	Vel X	Vel Y	Acc X	Acc Y
0.01656592	0.03422565	-0.01527931	-0.0005457095	0.0002436203	8.703343E-06	-3.885421E-06
0.03313343	0.03422565	-0.01527931	0	0	-8.703343E-06	3.885421E-06
0.04999424	0.03422565	-0.01527931	0	0	0	0
0.06626686	0.03422565	-0.01527931	0	0	0	0
0.08283397	0.03422565	-0.01527931	0	0	0	0
0.09940068	0.03422565	-0.01527931	0	0	0	0
0.1159682	0.03422565	-0.01527931	0	0	0	0
0.1325341	0.03422565	-0.01527931	0	0	0	0
0.1491012	0.03422565	-0.01527931	0	0	0	0
0.1656679	0.03422565	-0.01527931	0	0	0	0
0.1822346	0.03422565	-0.01527931	0	0	0	0
0.1988002	0.03422565	-0.01527931	0	0	0	0
0.2153673	0.03422565	-0.01527931	0	0	0	0
0.2320852	0.03422565	-0.01527931	0	0	0	0
0.2485007	0.03422565	-0.01527931	0	0	0	0
0.2650678	0.03422565	-0.01527931	0	0	0	0
0.2816337	0.03422565	-0.01527931	0	0	0	0
0.2987215	0.03422565	-0.01527931	0	0	0	0
0.3147691	0.03422565	-0.01527931	0	0	0	0
0.3313354	0.03422565	-0.01527931	0	0	0	0
0.3479025	0.03422565	-0.01527931	0	0	0	0
0.3644693	0.03422565	-0.01527931	0	0	0	0
0.3810356	0.03422565	-0.01527931	0	0	0	0
0.3976043	0.03422565	-0.01527931	0	0	0	0
0.4141694	0.03422565	-0.01527931	0	0	0	0
0.4346257	0.03422565	-0.01527931	0	0	0	0
0.451413	0.03422565	-0.01527931	0	0	0	0
0.4678345	0.03422565	-0.01527931	0	0	0	0
0.4843305	0.03422565	-0.01527931	0	0	0	0
0.5008976	0.03422565	-0.01527931	0	0	0	0
0.5177379	0.03422565	-0.01527931	0	0	0	0
0.5340311	0.03422565	-0.01527931	0	0	0	0
0.5505982	0.03422565	-0.01527931	0	0	0	0
0.5671626	0.03422565	-0.01527931	0	0	0	0
0.5837324	0.03422565	-0.01527931	0	0	0	0
0.6002964	0.03422565	-0.01527931	0	0	0	0
0.6168627	0.03422565	-0.01527931	0	0	0	0
0.6334286	0.03422565	-0.01527931	0	0	0	0
0.6499941	0.03422565	-0.01527931	0	0	0	0
0.6665608	0.03422565	-0.01527931	0	0	0	0
0.683638	0.03422565	-0.01527931	0	0	0	0
0.6996962	0.03422565	-0.01527931	0	0	0	0
0.7162617	0.03422565	-0.01527931	0	0	0	0
0.7328289	0.03422565	-0.01527931	0	0	0	0
0.7493952	0.03422565	-0.01527931	0	0	0	0
0.7659667	0.03422565	-0.01527931	0	0	0	0
0.7825282	0.03422565	-0.01527931	0	0	0	0
0.7990965	0.03422565	-0.01527931	0	0	0	0
0.8156632	0.03422565	-0.01527931	0	0	0	0
0.8322299	0.03422565	-0.01527931	0	0	0	0
0.8493268	0.03422565	-0.01527931	0	0	0	0
0.8653634	0.03422565	-0.01527931	0	0	0	0
0.8819297	0.03422565	-0.01527931	0	0	0	0
0.8984968	0.03422565	-0.01527931	0	0	0	0
0.9150631	0.03422565	-0.01527931	0	0	0	0
0.9318659	0.03422565	-0.01527931	0	0	0	0
0.9481958	0.03422565	-0.01527931	0	0	0	0
0.9647629	0.03422565	-0.01527931	0	0	0	0
0.9813305	0.03422565	-0.01527931	0	0	0	0
0.9978948	0.03422565	-0.01527931	0	0	0	0
1.014462	0.03422565	-0.01527931	0	0	0	0
1.031029	0.03422565	-0.01527931	0	0	0	0
1.047765	0.03422565	-0.01527931	0	0	0	0
1.064162	0.03422565	-0.01527931	0	0	0	0
1.081272	0.03422565	-0.01527931	0	0	0	0
1.098901	0.03422565	-0.01527931	0	0	0	0
1.115882	0.03422565	-0.01527931	0	0	0	0
1.13247	0.03422565	-0.01527931	0	0	0	0
1.148638	0.03422565	-0.01527931	0	0	0	0
1.165521	0.03422565	-0.01527931	0	0	0	0
1.182047	0.03422565	-0.01527931	0	0	0	0
1.198306	0.03422565	-0.01527931	0	0	0	0
1.214872	0.03422565	-0.01527931	0	0	0	0
1.231438	0.03422565	-0.01527931	0	0	0	0
1.248004	0.03422565	-0.01527931	0	0	0	0
1.265059	0.03422565	-0.01527931	0	0	0	0
1.281139	0.03422565	-0.01527931	0	0	0	0
1.297704	0.03422565	-0.01527931	0	0	0	0
1.314537	0.03422565	-0.01527931	0	0	0	0
1.331144	0.03422565	-0.01527931	0	0	0	0
1.347406	0.03422565	-0.01527931	0	0	0	0
1.363973	0.03422565	-0.01527931	0	0	0	0
1.380539	0.03422565	-0.01527931	0	0	0	0
1.397106	0.03422565	-0.01527931	0	0	0	0
1.413673	0.03422565	-0.01527931	0	0	0	0
1.430239	0.03422565	-0.01527931	0	0	0	0
1.446878	0.03422565	-0.01527931	0	0	0	0
1.463443	0.03422565	-0.01527931	0	0	0	0
1.479939	0.03422565	-0.01527931	0	0	0	0
1.496505	0.03422565	-0.01527931	0	0	0	0
1.513311	0.03422565	-0.01527931	0	0	0	0
1.52968	0.03422565	-0.01527931	0	0	0	0
1.546405	0.03422565	-0.01527931	0	0	0	0
1.563468	0.03422565	-0.01527931	0	0	0	0
1.57934	0.03422565	-0.01527931	0	0	0	0
1.595904	0.03422565	-0.01527931	0	0	0	0
1.612487	0.03422565	-0.01527931	0	0	0	0
1.629039	0.03422565	-0.01527931	0	0	0	0
1.645609	0.03422565	-0.01527931	0	0	0	0
1.662353	0.03422565	-0.01527931	0	0	0	0
1.678741	0.03422565	-0.01527931	0	0	0	0
1.695309	0.03422565	-0.01527931	0	0	0	0
1.711884	0.03422565	-0.01527931	0	0	0	0
1.728519	0.03422565	-0.01527931	0	0	0	0
1.747663	0.03422565	-0.01527931	0	0	0	0
1.765228	0.03422565	-0.01527931	0	0	0	0
1.78135	0.03422565	-0.01527931	0	0	0	0
1.797367	0.03422565	-0.01527931	0	0	0	0
1.813934	0.03422565	-0.01527931	0	0	0	0
1.8305	0.03422565	-0.01527931	0	0	0	0
1.847067	0.03422565	-0.01527931	0	0	0	0
1.895027	0.03422565	-0.01527931	0	0	0	0
1.911601	0.03422565	-0.01527931	0	0	0	0
1.928168	0.03422565	-0.01527931	0	0	0	0
1.944734	0.03422565	-0.01527931	0	0	0	0
1.961301	0.03422565	-0.01527931	0	0	0	0
1.977865	0.03422565	-0.01527931	0	0	0	0
1.994431	0.03422565	-0.01527931	0	0	0	0
2.011	0.03422565	-0.01527931	0	0	0	0
2.027568	0.03422565	-0.01527931	0	0	0	0
2.044129	0.03422565	-0.01527931	0	0	0	0
2.060696	0.03422565	-0.01527931	0	0	0	0
2.077531	0.03422565	-0.01527931	0	0	0	0
2.093829	0.03422565	-0.01527931	0	0	0	0
2.110396	0.03422565	-0.01527931	0	0	0	0
2.126962	0.03422565	-0.01527931	0	0	0	0
2.143529	0.03422565	-0.01527931	0	0	0	0
2.160098	0.03422565	-0.01527931	0	0	0	0
2.176663	0.03422565	-0.01527931	0	0	0	0
2.193453	0.03422565	-0.01527931	0	0	0	0
2.209799	0.03422565	-0.01527931	0	0	0	0
2.226963	0.03422565	-0.01527931	0	0	0	0
2.242932	0.03422565	-0.01527931	0	0	0	0
2.260063	0.03422565	-0.01527931	0	0	0	0
2.276461	0.03422565	-0.01527931	0	0	0	0
2.292632	0.03422565	-0.01527931	0	0	0	0
2.309219	0.03422565	-0.01527931	0	0	0	0
2.325767	0.03422565	-0.01527931	0	0	0	0
2.342332	0.03422565	-0.01527931	0	0	0	0
2.359352	0.03422565	-0.01527931	0	0	0	0
2.375463	0.03422565	-0.01527931	0	0	0	0
2.39203	0.03422565	-0.01527931	0	0	0	0
2.408597	0.03422565	-0.01527931	0	0	0	0
2.425163	0.03422565	-0.01527931	0	0	0	0
2.441726	0.03422565	-0.01527931	0	0	0	0
2.458295	0.03422565	-0.01527931	0	0	0	0
2.474863	0.03422565	-0.01527931	0	0	0	0
2.491703	0.03422565	-0.01527931	0	0	0	0
2.507997	0.03422565	-0.01527931	0	0	0	0
2.524563	0.03422565	-0.01527931	0	0	0	0
2.541177	0.03422565	-0.01527931	0	0	0	0
2.557696	0.03422565	-0.01527931	0	0	0	0
2.574263	0.03422565	-0.01527931	0	0	0	0
2.590927	0.03422565	-0.01527931	0	0	0	0
2.607395	0.03422565	-0.01527931	0	0	0	0
2.624731	0.03422565	-0.01527931	0	0	0	0
2.640704	0.03422565	-0.01038993	0	0.3060964	0	9.189671
2.657098	0.02811392	0.0262804	-0.3728156	2.236893	-11.51848	59.65371
2.673809	0.01711282	0.1020658	-0.6583056	4.534995	-8.62386	69.41927
2.690231	0.001222344	0.1839628	-0.9676457	4.987096	-9.336307	13.64505
2.706797	-0.01222344	0.2524141	-0.8116478	4.132026	4.728952	-25.92077
2.723639	-0.02444689	0.3013079	-0.7257558	2.903023	2.570972	-36.78724
2.73993	-0.03055861	0.3306442	-0.3751563	1.80075	10.58142	-33.26763
2.756498	-0.03178096	0.3538688	-0.07377989	1.401817	9.171916	-12.14089
2.773148	-0.03178096	0.3575357	0	0.2202406	2.22112	-35.57098
2.789631	-0.03178096	0.3587581	0	0.07415423	0	-4.408989
2.806198	-0.03178096	0.3587581	0	0	0	-2.243694
2.822764	-0.03178096	0.3587581	0	0	0	0
2.839331	-0.03178096	0.3587581	0	0	0	0
2.856013	-0.03178096	0.3587581	0	0	0	0
2.872464	-0.03178096	0.3587581	0	0	0	0
2.889031	-0.03178096	0.3587581	0	0	0	0
2.905598	-0.03178096	0.3587581	0	0	0	0
2.922168	-0.03178096	0.3587581	0	0	0	0
2.93873	-0.03178096	0.3587581	0	0	0	0
2.955456	-0.03178096	0.3587581	0	0	0	0
2.971864	-0.03178096	0.3587581	0	0	0	0
2.989065	-0.03178096	0.3587581	0	0	0	0
3.005706	-0.03178096	0.3587581	0	0	0	0
3.021564	-0.03178096	0.3587581	0	0	0	0
3.038131	-0.03178096	0.3587581	0	0	0	0
3.054923	-0.03178096	0.3587581	0	0	0	0
3.072189	-0.03178096	0.3587581	0	0	0	0
3.087855	-0.03178096	0.3587581	0	0	0	0
3.108557	-0.03178096	0.3587581	0	0	0	0
3.126066	-0.03178096	0.3587581	0	0	0	0
3.141694	-0.03178096	0.3587581	0	0	0	0
3.15826	-0.03178096	0.3587581	0	0	0	0
3.174984	-0.03178096	0.3587581	0	0	0	0
3.191393	-0.03178096	0.3587581	0	0	0	0
3.20796	-0.03178096	0.3587581	0	0	0	0
3.22453	-0.03178096	0.3587581	0	0	0	0
3.241096	-0.03178096	0.3587581	0	0	0	0
3.257662	-0.03178096	0.3587581	0	0	0	0
3.27423	-0.03178096	0.3587581	0	0	0	0
3.290797	-0.03178096	0.3587581	0	0	0	0
3.307363	-0.03178096	0.3587581	0	0	0	0
3.323929	-0.03178096	0.3587581	0	0	0	0
3.340496	-0.03178096	0.3587581	0	0	0	0
3.35774	-0.03178096	0.3587581	0	0	0	0
3.373702	-0.03178096	0.3587581	0	0	0	0
3.390196	-0.03178096	0.3587581	0	0	0	0
3.406766	-0.03178096	0.3587581	0	0	0	0
3.42333	-0.03178096	0.3587581	0	0	0	0
3.439896	-0.03178096	0.3587581	0	0	0	0
3.456463	-0.03178096	0.3587581	0	0	0	0
3.473485	-0.03178096	0.3587581	0	0	0	0
3.48961	-0.03178096	0.3587581	0	0	0	0
3.506421	-0.03178096	0.3587581	0	0	0	0
3.523008	-0.03178096	0.3587581	0	0	0	0
3.539296	-0.03178096	0.3587581	0	0	0	0
3.555863	-0.03178096	0.3587581	0	0	0	0
3.572429	-0.03178096	0.3587581	0	0	0	0
3.588997	-0.03178096	0.3587581	0	0	0	0
3.605677	-0.03178096	0.3587581	0	0	0	0
3.622126	-0.03178096	0.3587581	0	0	0	0
3.638693	-0.03178096	0.3587581	0	0	0	0
3.655309	-0.03178096	0.3587581	0	0	0	0
3.671827	-0.03178096	0.3587581	0	0	0	0
3.688394	-0.03178096	0.3587581	0	0	0	0
3.704961	-0.03178096	0.3587581	0	0	0	0
3.721577	-0.03178096	0.3587581	0	0	0	0
3.738094	-0.03178096	0.3587581	0	0	0	0
3.75466	-0.03178096	0.3587581	0	0	0	0
3.771224	-0.03178096	0.3587581	0	0	0	0
3.7878	-0.03178096	0.3587581	0	0	0	0
3.80436	-0.03178096	0.3587581	0	0	0	0
3.821151	-0.03178096	0.3587581	0	0	0	0
3.837492	-0.03178096	0.3587581	0	0	0	0
3.854587	-0.03178096	0.3587581	0	0	0	0
3.870627	-0.03178096	0.3587581	0	0	0	0
3.887193	-0.03178096	0.3587581	0	0	0	0
3.90376	-0.03178096	0.3587581	0	0	0	0
3.920326	-0.03178096	0.3587581	0	0	0	0
3.936893	-0.03178096	0.3587581	0	0	0	0
3.953482	-0.03178096	0.3587581	0	0	0	0
3.970121	-0.03178096	0.3587581	0	0	0	0
3.986593	-0.03178096	0.3587581	0	0	0	0
4.003162	-0.03178096	0.3587581	0	0	0	0
4.019729	-0.03178096	0.3575357	0	-0.07378285	0	-2.226691
4.036395	-0.02933627	0.3502017	0.146692	-0.4400751	4.414152	-11.0222
4.052863	-0.02811392	0.3367559	0.07422519	-0.8164777	-2.187117	-11.36018
4.06943	-0.0220022	0.3184207	0.3689043	-1.106713	8.920134	-8.785607
4.085995	-0.01344579	0.2805281	0.5165403	-2.287535	4.455986	-35.63986
4.10256	-0.0110011	0.2683046	0.1475787	-0.7378922	-11.13673	46.77438
4.119127	-0.002444689	0.2365236	0.516466	-1.918305	11.13368	-35.62699
4.136095	0.003667034	0.2084097	0.360206	-1.656946	-4.659675	7.793721
4.152261	0.01222344	0.1778511	0.5292775	-1.890277	5.102734	-7.042134
4.168826	0.01711282	0.1497372	0.2951574	-1.697156	-7.152738	5.900161
4.185394	0.0220022	0.1167339	0.295115	-1.992025	-0.001281751	-8.899569
4.202179	0.02322455	0.1069551	0.0728209	-0.5825677	-6.664824	42.25838
4.218527	0.02566923	0.08984232	0.1495459	-1.046822	2.315666	-14.01182
4.235096	0.02689158	0.0837306	0.07377245	-0.3688616	-2.301987	20.59633
4.251713	0.02811392	0.07761887	0.07356065	-0.3678036	-0.006382371	0.03188222
4.268227	0.02811393	0.07395184	1.127898E-07	-0.222052	-2.220285	4.399233
4.284793	0.02811392	0.07028481	-2.248719E-07	-0.2213554	-1.020725E-05	0.02105991
4.30136	0.02811392	0.06784012	0	-0.1475657	6.786941E-06	2.227073
4.317928	0.02811392	0.06539543	1.124262E-07	-0.1475576	3.393031E-06	0.0002428477
4.334495	0.02933627	0.06417308	0.07378072	-0.07378118	2.226671	2.226546
4.35106	0.02933627	0.06417308	0	0	-2.226835	2.226849
4.367628	0.02933627	0.06417308	0	0	0	0
4.384195	0.02933627	0.06417308	0	0	0	0
4.400758	0.02933627	0.06417308	0	0	0	0
4.417327	0.02933627	0.06417308	0	0	0	0
4.433895	0.02933627	0.06417308	0	0	0	0
4.450461	0.02933627	0.06417308	0	0	0	0
4.467194	0.02933627	0.06417308	0	0	0	0
4.483596	0.02933627	0.06417308	0	0	0	0
4.500163	0.02933627	0.06417308	0	0	0	0
4.51734	0.02933627	0.06417308	0	0	0	0
4.533297	0.02933627	0.06417308	0	0	0	0
4.549864	0.02933627	0.06295075	1.124295E-07	-0.07378028	3.456805E-06	-2.26848
4.566493	0.02933627	0.06295075	0	0	-3.386841E-06	2.222567
4.582998	0.02933627	0.06295075	0	0	0	0
4.599562	0.02933627	0.06295075	0	0	0	0
4.616128	0.02933627	0.06295075	0	0	0	0
4.632695	0.02933627	0.06295075	0	0	0	0
4.649335	0.02933627	0.06295075	0	0	0	0
4.665883	0.02933627	0.06295075	0	0	0	0
4.682436	0.02933627	0.06295075	0	0	0	0
4.699402	0.02933627	0.06295075	0	0	0	0
4.715531	0.02933627	0.06295075	0	0	0	0
4.732098	0.02933627	0.06295075	0	0	0	0
4.748726	0.02933627	0.06295075	0	0	0	0
4.765231	0.02933627	0.06295075	0	0	0	0
4.781797	0.02933627	0.06295075	0	0	0	0
4.798364	0.02933627	0.06295075	0	0	0	0
4.815385	0.02933627	0.06295075	0	0	0	0
4.831498	0.02933627	0.06295075	0	0	0	0
4.848064	0.02933627	0.06295075	0	0	0	0
4.864632	0.02933627	0.06295075	0	0	0	0
4.881198	0.02933627	0.06295075	0	0	0	0
4.897798	0.02933627	0.0617284	0	-0.07363895	0	-2.220319
4.914331	0.02933627	0.0617284	0	0	0	2.222556
4.930898	0.02933627	0.0617284	0	0	0	0
4.947464	0.02933627	0.0617284	0	0	0	0
4.964163	0.02933627	0.0617284	0	0	0	0
4.980596	0.02933627	0.0617284	0	0	0	0
4.997163	0.02933627	0.05928371	0	-0.1475617	0	-4.471567
5.013731	0.02933627	0.05928371	0	0	0	4.453292
5.030297	0.02933627	0.05683902	0	-0.1475746	0	-4.453876
5.046956	0.02933627	0.05561667	-1.118116E-07	-0.07337546	-3.365328E-06	2.233262
5.069548	0.02933627	0.05439433	1.648937E-07	-0.05410476	7.049665E-06	0.4909626
5.08612	0.02933627	0.05317198	-2.247878E-07	-0.07375805	-9.949855E-06	-0.5018132
5.102686	0.02933627	0.05317198	0	0	6.783231E-06	2.225734
5.119529	0.02933627	0.0507273	1.105897E-07	-0.1451468	3.310166E-06	-4.344526
5.136652	0.02933627	0.0507273	0	0	-3.25598E-06	4.273408
5.152786	0.02933627	0.04950495	0	-0.07576066	0	-2.278069
5.169024	0.02933627	0.04950495	0	0	0	2.340245
5.18657	0.02933627	0.0482826	0	-0.06966852	0	-2.06218
5.203142	0.02933627	0.04706026	-1.123939E-07	-0.07375737	-3.294299E-06	-0.1198456
5.21971	0.02933627	0.04583792	3.372787E-07	-0.07377882	1.35688E-05	-0.0006472572
5.2363	0.02933627	0.04583792	0	0	-1.017177E-05	2.225048
5.253124	0.02933627	0.04583792	0	0	0	0
5.269815	0.02933627	0.04461557	-3.347832E-07	-0.0732327	-9.989204E-06	-2.185105
5.286805	0.02933627	0.04461557	0	0	9.939708E-06	2.174278
5.302904	0.02933627	0.04461557	0	0	0	0
5.31911	0.02933627	0.04461557	0	0	0	0
5.335675	0.02933627	0.04461557	0	0	0	0
5.352243	0.02933627	0.04461557	0	0	0	0
5.36881	0.02933627	0.04339323	0	-0.07378307	0	-2.226745
5.385375	0.02933627	0.04339323	0	0	0	2.226906
5.401943	0.02933627	0.04339323	0	0	0	0
5.418512	0.02933627	0.04339323	0	0	0	0
5.435076	0.02933627	0.04339323	0	0	0	0
5.451826	0.02933627	0.04339323	0	0	0	0
5.46821	0.02933627	0.04094854	1.13686E-07	-0.1492108	3.431148E-06	-4.50332
5.484775	0.02933627	0.03850385	-1.124457E-07	-0.1475829	-6.863087E-06	0.04940601
5.501815	0.02933627	0.03728151	2.186171E-07	-0.07173264	9.851563E-06	2.257106
5.51801	0.02933627	0.03605916	-1.150149E-07	-0.07547782	-1.003855E-05	-0.1126875
5.534475	0.02933627	0.03483682	-1.13123E-07	-0.07423583	5.792556E-08	0.03802705
5.551042	0.02933627	0.03483682	0	0	3.424655E-06	2.247396
5.567608	0.02933627	0.03483682	0	0	0	0
5.584358	0.02933627	0.03483682	0	0	0	0
5.600741	0.02933627	0.03483682	0	0	0	0
5.617307	0.02933627	0.03483682	0	0	0	0
5.634052	0.02933627	0.03483682	0	0	0	0
5.651071	0.02933627	0.03483682	0	0	0	0
5.667006	0.02933627	0.03483682	0	0	0	0
5.683917	0.02933627	0.03483682	0	0	0	0
5.700501	0.02933627	0.03483682	0	0	0	0
5.716708	0.02933627	0.03116979	2.298538E-07	-0.2262591	7.009529E-06	-6.899907
5.735233	0.02933627	0.0287251	-1.00547E-07	-0.1319662	-9.512769E-06	2.714844
5.751803	0.02933627	0.02750275	0	-0.07376821	2.864977E-06	1.658288
5.768371	0.02933627	0.02750275	0	0	0	2.226137
5.784937	0.02933627	0.02750275	0	0	0	0
5.801504	0.02933627	0.02750275	0	0	0	0
5.81807	0.02933627	0.02750275	0	0	0	0
5.834908	0.02933627	0.02750275	0	0	0	0
5.851388	0.02933627	0.02750275	0	0	0	0
5.867772	0.02933627	0.02750275	0	0	0	0
5.88504	0.02933627	0.02750275	0	0	0	0
5.900905	0.02933627	0.02750275	0	0	0	0
5.91747	0.02933627	0.02750275	0	0	0	0
5.934107	0.02933627	0.02750275	0	0	0	0
5.986973	0.02933627	0.02750275	0	0	0	0
6.003563	0.03055861	0.02383572	0.07367704	-0.2210308	1.060764	-3.182287
6.020113	0.03055861	0.02139103	-1.125526E-07	-0.1477235	-2.223229	2.212069
6.036808	0.03055861	0.02139103	0	0	3.385637E-06	4.443595
6.053245	0.03055861	0.02139103	0	0	0	0
6.06983	0.03055861	0.02139103	0	0	0	0
6.086378	0.03055861	0.02139103	0	0	0	0
6.102946	0.03055861	0.02139103	0	0	0	0
6.119512	0.03055861	0.02139103	0	0	0	0
6.136078	0.03055861	0.02139103	0	0	0	0
6.152645	0.03055861	0.02139103	0	0	0	0
6.169212	0.03055861	0.02016869	0	-0.07378061	0	-2.226735
6.185779	0.03055861	0.02016869	0	0	0	2.226735
6.202346	0.03055861	0.02016869	0	0	0	0
6.218912	0.03055861	0.02016869	0	0	0	0
6.235479	0.03055861	0.01894634	0	-0.07378095	0	-2.22681
6.252046	0.03055861	0.01894634	0	0	0	2.226778
6.268611	0.03055861	0.01894634	0	0	0	0
6.285179	0.03055861	0.01894634	0	0	0	0
6.301745	0.03055861	0.01894634	0	0	0	0
6.318312	0.03055861	0.01894634	0	0	0	0
6.334879	0.03055861	0.01894634	0	0	0	0
6.351444	0.03055861	0.01894634	0	0	0	0
6.368012	0.03055861	0.01894634	0	0	0	0
6.384578	0.03055861	0.01894634	0	0	0	0
6.401145	0.03055861	0.01894634	0	0	0	0
6.41771	0.03055861	0.01894634	0	0	0	0
6.439035	0.03055861	0.01894634	0	0	0	0
6.455606	0.03055861	0.01894634	0	0	0	0
6.472174	0.03055861	0.01894634	0	0	0	0
6.494198	0.03055861	0.01894634	0	0	0	0
6.510824	0.03055861	0.01894634	0	0	0	0
6.52734	0.03055861	0.01894634	0	0	0	0
6.543908	0.03055861	0.01894634	0	0	0	0
6.560472	0.03055861	0.01894634	0	0	0	0
6.577042	0.03055861	0.01894634	0	0	0	0
6.593617	0.03055861	0.01894634	0	0	0	0
6.610183	0.03055861	0.01894634	0	0	0	0
6.626737	0.03055861	0.01894634	0	0	0	0
6.643302	0.03055861	0.01894634	0	0	0	0
6.659868	0.03055861	0.01894634	0	0	0	0
6.676638	0.03055861	0.01894634	0	0	0	0
6.693004	0.03055861	0.01894634	0	0	0	0
6.709569	0.03055861	0.01894634	0	0	0	0
6.726561	0.03055861	0.01894634	0	0	0	0
6.743216	0.03055861	0.01894634	0	0	0	0
6.759271	0.03055861	0.01894634	0	0	0	0
6.775873	0.03055861	0.01894634	0	0	0	0
6.792645	0.03055861	0.01894634	0	0	0	0
6.808971	0.03055861	0.01894634	0	0	0	0
6.825538	0.03055861	0.01894634	0	0	0	0
6.842105	0.03055861	0.01894634	0	0	0	0
6.858673	0.03055861	0.01894634	0	0	0	0
6.875486	0.03055861	0.01894634	0	0	0	0
6.892111	0.03055861	0.01894634	0	0	0	0
6.908369	0.03055861	0.01894634	0	0	0	0
6.925001	0.03055861	0.01894634	0	0	0	0
6.941977	0.03055861	0.01894634	0	0	0	0
6.958125	0.03055861	0.01894634	0	0	0	0
6.974728	0.03055861	0.01894634	0	0	0	0
6.991205	0.03055861	0.01894634	0	0	0	0
7.007771	0.03055861	0.01894634	0	0	0	0
7.024441	0.03055861	0.01894634	0	0	0	0
7.040903	0.03055861	0.01894634	0	0	0	0
7.057513	0.03055861	0.01894634	0	0	0	0
7.077286	0.03055861	0.01894634	0	0	0	0
7.093861	0.03055861	0.01894634	0	0	0	0
7.110426	0.03055861	0.01894634	0	0	0	0
7.126996	0.03055861	0.01894634	0	0	0	0
7.14356	0.03055861	0.01894634	0	0	0	0
7.160129	0.03055861	0.01894634	0	0	0	0
7.176973	0.03055861	0.01894634	0	0	0	0
7.19326	0.03055861	0.01894634	0	0	0	0
7.210022	0.03055861	0.01894634	0	0	0	0
7.226666	0.03055861	0.01894634	0	0	0	0
7.242964	0.03055861	0.01894634	0	0	0	0
7.259524	0.03055861	0.01894634	0	0	0	0
7.276091	0.03055861	0.01894634	0	0	0	0
7.292656	0.03055861	0.01894634	0	0	0	0
7.309224	0.03055861	0.01894634	0	0	0	0
7.325792	0.03055861	0.01894634	0	0	0	0
7.342401	0.03055861	0.01894634	0	0	0	0
7.358998	0.03055861	0.01894634	0	0	0	0
7.375491	0.03055861	0.01894634	0	0	0	0
7.392057	0.03055861	0.01894634	0	0	0	0
7.408624	0.03055861	0.01894634	0	0	0	0
7.425507	0.03055861	0.01894634	0	0	0	0
7.441868	0.03055861	0.01894634	0	0	0	0
7.458324	0.03055861	0.01894634	0	0	0	0
7.474892	0.03055861	0.01894634	0	0	0	0
7.491457	0.03055861	0.01894634	0	0	0	0
7.508387	0.03055861	0.01894634	0	0	0	0
7.524589	0.03055861	0.01894634	0	0	0	0
7.541319	0.03055861	0.01894634	0	0	0	0
7.557727	0.03055861	0.01894634	0	0	0	0
7.575152	0.03055861	0.01894634	0	0	0	0
7.591141	0.03055861	0.01894634	0	0	0	0
7.607805	0.03055861	0.01894634	0	0	0	0
7.62399	0.03055861	0.01894634	0	0	0	0
7.640721	0.03055861	0.01894634	0	0	0	0
7.657123	0.03055861	0.01894634	0	0	0	0
7.674314	0.03055861	0.01894634	0	0	0	0
7.690261	0.03055861	0.01894634	0	0	0	0
7.706822	0.03055861	0.01894634	0	0	0	0
7.723388	0.03055861	0.01894634	0	0	0	0
7.739956	0.03055861	0.01894634	0	0	0	0
7.75681	0.03055861	0.01894634	0	0	0	0
7.773089	0.03055861	0.01894634	0	0	0	0
7.789656	0.03055861	0.01894634	0	0	0	0
7.806225	0.03055861	0.01894634	0	0	0	0
7.82279	0.03055861	0.01894634	0	0	0	0
7.839357	0.03055861	0.01894634	0	0	0	0
7.855925	0.03055861	0.01894634	0	0	0	0
7.872491	0.03055861	0.01894634	0	0	0	0
7.889058	0.03055861	0.01894634	0	0	0	0
7.905934	0.03055861	0.01894634	0	0	0	0
7.922208	0.03055861	0.01894634	0	0	0	0
7.938757	0.03055861	0.01894634	0	0	0	0
7.955322	0.03055861	0.01894634	0	0	0	0
7.972119	0.03055861	0.01894634	0	0	0	0
7.988747	0.03055861	0.01894634	0	0	0	0
8.005024	0.03055861	0.01894634	0	0	0	0
8.021592	0.03055861	0.01894634	0	0	0	0
8.038158	0.03055861	0.01894634	0	0	0	0
8.054729	0.03055861	0.01894634	0	0	0	0
8.07129	0.03055861	0.01894634	0	0	0	0
8.087857	0.03055861	0.01894634	0	0	0	0
8.104424	0.03055861	0.01894634	0	0	0	0
8.121329	0.03055861	0.01894634	0	0	0	0
8.137556	0.03055861	0.01894634	0	0	0	0
8.154134	0.03055861	0.01894634	0	0	0	0
8.170689	0.03055861	0.01894634	0	0	0	0
8.187255	0.03055861	0.01894634	0	0	0	0
8.203821	0.03055861	0.01894634	0	0	0	0
8.22039	0.03055861	0.01894634	0	0	0	0
8.236958	0.03055861	0.01894634	0	0	0	0
8.253565	0.03055861	0.01894634	0	0	0	0
8.270148	0.03055861	0.01894634	0	0	0	0
8.286654	0.03055861	0.01894634	0	0	0	0
8.303223	0.03055861	0.01894634	0	0	0	0
8.319858	0.03055861	0.01894634	0	0	0	0
8.336353	0.03055861	0.01894634	0	0	0	0
8.352921	0.03055861	0.01894634	0	0	0	0
8.369488	0.03055861	0.01894634	0	0	0	0
8.386051	0.03055861	0.01894634	0	0	0	0
8.40262	0.03055861	0.01894634	0	0	0	0
8.419188	0.03055861	0.01894634	0	0	0	0
8.435755	0.03055861	0.01894634	0	0	0	0
8.452321	0.03055861	0.01894634	0	0	0	0
8.468887	0.03055861	0.01894634	0	0	0	0
8.4857	0.03055861	0.01894634	0	0	0	0
8.502317	0.03055861	0.01894634	0	0	0	0
8.518588	0.03055861	0.01894634	0	0	0	0
8.535378	0.03055861	0.01894634	0	0	0	0
8.551723	0.03055861	0.01894634	0	0	0	0
8.568289	0.03055861	0.01894634	0	0	0	0
8.584856	0.03055861	0.01894634	0	0	0	0
8.601422	0.03055861	0.01894634	0	0	0	0
8.618243	0.03055861	0.01894634	0	0	0	0
8.634808	0.03055861	0.01894634	0	0	0	0
8.6513	0.03055861	0.01894634	0	0	0	0
8.667688	0.03055861	0.01894634	0	0	0	0
8.684258	0.03055861	0.01894634	0	0	0	0
8.700825	0.03055861	0.01894634	0	0	0	0
8.717566	0.03055861	0.01894634	0	0	0	0
8.734236	0.03055861	0.01894634	0	0	0	0
8.750523	0.03055861	0.01894634	0	0	0	0
8.767088	0.03055861	0.01894634	0	0	0	0
8.783653	0.03055861	0.01894634	0	0	0	0
8.800222	0.03055861	0.01894634	0	0	0	0
8.816789	0.03055861	0.01894634	0	0	0	0
8.833355	0.03055861	0.01894634	0	0	0	0
8.849922	0.03055861	0.01894634	0	0	0	0
8.866537	0.03055861	0.01894634	0	0	0	0
8.883054	0.03055861	0.01894634	0	0	0	0
8.899675	0.03055861	0.01894634	0	0	0	0
8.916188	0.03055861	0.01894634	0	0	0	0
8.932755	0.03055861	0.01894634	0	0	0	0
8.949347	0.03055861	0.01894634	0	0	0	0
8.965886	0.03055861	0.01894634	0	0	0	0
8.982454	0.03055861	0.01894634	0	0	0	0
8.999021	0.03055861	0.01894634	0	0	0	0
9.015587	0.03055861	0.01894634	0	0	0	0
9.032299	0.03055861	0.01894634	0	0	0	0
9.048717	0.02811392	0.01894634	-0.1488988	0	-4.494291	0
9.065286	0.02077986	0.02628041	-0.4426596	0.4426596	-8.90545	13.41936
9.081852	0.01589048	0.03728151	-0.2951406	0.6640659	4.452135	6.682054
9.098422	-0.004889378	0.06539543	-1.254058	1.696667	-28.93852	31.16216
9.114988	-0.03544799	0.1118445	-1.844628	2.803834	-17.8224	33.41245
9.132289	-0.06356191	0.1521819	-1.625025	2.331558	6.484283	-13.94508
9.148121	-0.08556411	0.1839629	-1.389735	2.007395	7.101491	-9.783813
9.164688	-0.1161227	0.2304119	-1.844521	2.803672	-14.03698	24.57708
9.181254	-0.1320132	0.2548588	-0.9592065	1.475702	26.71962	-40.07936
9.19829	-0.1442367	0.2707493	-0.7175289	0.9327888	7.192408	-16.15729
9.214612	-0.1540154	0.2829728	-0.5991099	0.7488862	3.549983	-5.51306
9.230954	-0.1650165	0.2927515	-0.6731725	0.5983748	-2.267388	-4.607827
9.24752	-0.1784623	0.308642	-0.8116365	0.9592083	-4.207552	10.96477
9.26409	-0.1931304	0.3220878	-0.8852677	0.8114945	-2.222129	-4.45788
9.280848	-0.1980198	0.3257548	-0.2917657	0.2188247	17.80839	-17.78342
9.297365	-0.1980198	0.3269771	1.804273E-06	0.07400043	8.768209	-4.352265
9.313787	-0.1980198	0.3269771	0	0	-5.477625E-05	-2.246593
9.330785	-0.1980198	0.3269771	0	0	0	0
9.347264	-0.1980198	0.3269771	0	0	0	0
9.363485	-0.1980198	0.3257548	-1.837263E-06	-0.07535349	-5.618448E-05	-2.30435
9.380053	-0.1980198	0.3257548	0	0	5.603413E-05	2.298184
9.396619	-0.1980198	0.3257548	0	0	0	0
9.41379	-0.1980198	0.3257548	0	0	0	0
9.429751	-0.1980198	0.3257548	0	0	0	0
9.44666	-0.1980198	0.3257548	0	0	0	0
9.462886	-0.1931304	0.3208654	0.3013336	-0.3013346	9.094267	-9.094296
9.479494	-0.1821293	0.3074196	0.6623896	-0.8095859	10.99639	-15.4794
9.496021	-0.1650165	0.2866398	1.035434	-1.257312	11.25816	-13.51201
9.512588	-0.1259015	0.2475248	2.361124	-2.361124	40.05898	-33.35438
9.529152	-0.1014546	0.2243002	1.475873	-1.402079	-26.72001	28.94734
9.54572	-0.08067474	0.2035204	1.254202	-1.254203	-6.690403	4.463182
9.562287	-0.06356192	0.1851852	1.032932	-1.106713	-6.677763	4.451133
9.579062	-0.05256081	0.1717394	0.6558356	-0.801577	-11.31015	9.151855
9.596074	-0.04889378	0.1656277	0.2155482	-0.3592471	-13.03135	13.09181
9.611984	-0.04644909	0.1607383	0.1536559	-0.3073113	-1.879925	1.577505
9.628551	-0.04522675	0.1570713	0.07378497	-0.2213558	-2.459351	2.646705
9.645122	-0.0440044	0.1521819	0.07376397	-0.295055	-0.0006338227	-2.224053
9.661689	-0.04155971	0.1448478	0.1475617	-0.4426852	2.226963	-4.454978
9.691806	-0.03667033	0.1289573	0.162346	-0.5276243	0.3166878	-1.819437
9.708375	-0.03055861	0.1118445	0.3688618	-1.032813	4.42349	-10.82096
9.724941	-0.02811392	0.1069551	0.1475702	-0.2951403	-6.678403	22.26238
9.742103	-0.02566923	0.1008434	0.1424531	-0.3561324	-0.1517175	-1.808369
9.758074	-0.0220022	0.092287	0.229603	-0.535741	2.630342	-5.420913
9.775426	-0.01711282	0.0837306	0.2817744	-0.4931046	1.565612	1.279477
9.791207	-0.01344579	0.0727295	0.2323643	-0.6970928	-1.491242	-6.156553
9.807774	-0.008556413	0.06295075	0.2951403	-0.5902807	1.940666	3.302004
9.824399	-0.003667034	0.05317198	0.2940908	-0.5881818	-0.03161903	0.06323447
9.840982	0.001222344	0.04461557	0.2948349	-0.5159611	0.02240591	2.174744
9.857475	0.002444689	0.04217089	0.07411364	-0.1482272	-6.673097	11.11775
9.874042	0.003667034	0.03972619	0.07378511	-0.1475704	-0.009937527	0.01986829
9.890606	0.004889378	0.03850385	0.07379362	-0.07379347	0.0002568185	2.226848
9.907175	0.006111722	0.03605916	0.07377232	-0.1475449	-0.0006428903	-2.225887
9.923835	0.007334067	0.03483682	0.07337121	-0.07337105	-0.01207111	2.232211
9.940583	0.008556412	0.03361447	0.07298265	-0.07298273	-0.01163077	0.01162341
9.956875	0.009778756	0.03239213	0.07502902	-0.0750289	0.06193602	-0.06193016
9.973531	0.0110011	0.02994744	0.07338796	-0.146776	-0.04980819	-2.177617
9.99001	0.01344579	0.0262804	0.1483474	-0.2225211	2.262216	-2.285924
10.00685	0.01589048	0.02383572	0.1451387	-0.1451388	-0.09628948	2.322168
10.02314	0.01833517	0.02016868	0.1500669	-0.2251002	0.148733	-2.413241
10.03989	0.02077986	0.01650165	0.1460068	-0.2190103	-0.1229061	0.1843515
10.05628	0.02077986	0.01527931	1.136595E-07	-0.07458803	-4.406871	4.359049
10.07284	0.0220022	0.01527931	0.07377648	-5.62115E-08	2.238624	2.263251
10.08941	0.0220022	0.01405696	1.124619E-07	-0.07380202	-2.226831	-2.227604
10.10605	0.0220022	0.01405696	0	0	-3.386989E-06	2.222679
10.12261	0.0220022	0.01283462	0	-0.07379358	0	-2.222298
10.13916	0.0220022	0.01283462	0	0	0	2.22857
10.15568	0.0220022	0.01283462	0	0	0	0
10.17224	0.0220022	0.01283462	0	0	0	0
10.18881	0.0220022	0.01283462	0	0	0	0
10.20546	0.0220022	0.01283462	0	0	0	0
10.22194	0.0220022	0.01283462	0	0	0	0
10.23851	0.0220022	0.01283462	0	0	0	0
10.2551	0.0220022	0.01283462	0	0	0	0
10.27164	0.0220022	0.01283462	0	0	0	0
10.28821	0.0220022	0.01283462	0	0	0	0
10.30478	0.0220022	0.01283462	0	0	0	0
10.32134	0.0220022	0.01283462	0	0	0	0
10.33791	0.0220022	0.01283462	0	0	0	0
10.35447	0.0220022	0.01283462	0	0	0	0
10.37104	0.0220022	0.01283462	0	0	0	0
10.38775	0.0220022	0.01283462	0	0	0	0
10.40418	0.0220022	0.01283462	0	0	0	0
10.42074	0.0220022	0.01283462	0	0	0	0
10.43731	0.02322455	0.01283462	0.07378508	-5.621798E-08	2.226966	-1.69676E-06
10.45387	0.02322455	0.01283462	0	0	-2.227031	1.696808E-06
10.47044	0.02322455	0.01283462	0	0	0	0
10.48701	0.02322455	0.01283462	0	0	0	0
10.50373	0.02322455	0.01283462	0	0	0	0
10.52014	0.02322455	0.01161227	0	-0.07447535	0	-2.2478
10.53682	0.02322455	0.01161227	0	0	0	2.250585
10.55328	0.02322455	0.01161227	0	0	0	0
10.56992	0.02322455	0.01161227	0	0	0	0
10.58641	0.02322455	0.01161227	0	0	0	0
10.60297	0.02322455	0.01161227	0	0	0	0
10.61954	0.02322455	0.01038993	0	-0.07378508	0	-2.226966
10.63619	0.02322455	0.01038993	0	0	0	2.22134
10.65267	0.02322455	0.01038993	0	0	0	0
10.66966	0.02322455	0.01038993	0	0	0	0
10.68581	0.02322455	0.01038993	0	0	0	0
10.70238	0.02322455	0.009167584	0	-0.07377665	0	-2.254749
10.71894	0.02322455	0.009167584	0	0	0	2.22652
10.73551	0.02322455	0.009167584	0	0	0	0
10.75213	0.02322455	0.009167584	0	0	0	0
10.76864	0.02322455	0.009167584	0	0	0	0
10.78521	0.02322455	0.009167584	0	0	0	0
10.80178	0.02322455	0.009167584	0	0	0	0
10.81844	0.02322455	0.009167584	0	0	0	0
10.83491	0.02322455	0.009167584	0	0	0	0
10.85148	0.02322455	0.009167584	0	0	0	0
10.86804	0.02322455	0.009167584	0	0	0	0
10.88461	0.02322455	0.009167584	0	0	0	0
10.90118	0.02322455	0.009167584	0	0	0	0
10.91774	0.02322455	0.009167584	0	0	0	0
10.93431	0.02322455	0.009167584	0	0	0	0
10.95087	0.02322455	0.009167584	0	0	0	0
10.96744	0.02322455	0.009167584	0	0	0	0
10.98401	0.02322455	0.009167584	0	0	0	0
11.00058	0.02322455	0.009167584	0	0	0	0
11.01746	0.02322455	0.009167584	0	0	0	0
11.03371	0.02322455	0.009167584	0	0	0	0
11.05027	0.02322455	0.009167584	0	0	0	0
11.06689	0.02322455	0.009167584	0	0	0	0
11.08341	0.02322455	0.009167584	0	0	0	0
11.09997	0.02322455	0.009167584	0	0	0	0
11.11687	0.02322455	0.009167584	0	0	0	0
11.13311	0.02322455	0.009167584	0	0	0	0
11.14976	0.02322455	0.009167584	0	0	0	0
11.16624	0.02322455	0.009167584	0	0	0	0
11.18287	0.02322455	0.009167584	0	0	0	0
11.19937	0.02322455	0.009167584	0	0	0	0
11.21643	0.02322455	0.009167584	0	0	0	0
11.23251	0.02322455	0.009167584	0	0	0	0
11.24907	0.02322455	0.009167584	0	0	0	0
11.26564	0.02322455	0.009167584	0	0	0	0
11.28222	0.02322455	0.009167584	0	0	0	0
11.29877	0.02322455	0.009167584	0	0	0	0
11.31534	0.02322455	0.009167584	0	0	0	0
11.3321	0.02322455	0.009167584	0	0	0	0
11.34849	0.02322455	0.009167584	0	0	0	0
11.36504	0.02322455	0.009167584	0	0	0	0
11.38205	0.02322455	0.009167584	0	0	0	0
11.39817	0.02322455	0.009167584	0	0	0	0
11.41515	0.02322455	0.009167584	0	0	0	0
11.43131	0.02322455	0.009167584	0	0	0	0
11.44788	0.02322455	0.009167584	0	0	0	0
11.46444	0.02322455	0.009167584	0	0	0	0
11.48101	0.02322455	0.009167584	0	0	0	0
11.49757	0.02322455	0.009167584	0	0	0	0
11.51449	0.02322455	0.009167584	0	0	0	0
11.53116	0.02322455	0.009167584	0	0	0	0
11.54727	0.02444689	0.009167584	0.07585043	0	2.313407	0
11.58029	0.02689158	0.00794524	0.07405371	-0.03702683	-0.03657258	-0.7536873
11.59686	0.02689158	0.00794524	0	0	-1.493517	0.746758
11.61342	0.02689158	0.00794524	0	0	0	0
11.62999	0.02689158	0.00794524	0	0	0	0
11.64656	0.02689158	0.00794524	0	0	0	0
11.66312	0.02689158	0.00794524	0	0	0	0
11.67969	0.02689158	0.00794524	0	0	0	0
11.69679	0.02689158	0.00794524	0	0	0	0
11.71291	0.02689158	0.00794524	0	0	0	0
11.72939	0.02689158	0.00794524	0	0	0	0
11.74596	0.02689158	0.00794524	0	0	0	0
11.76252	0.02689158	0.00794524	0	0	0	0
11.77909	0.02689158	0.00794524	0	0	0	0
11.79584	0.02689158	0.00794524	0	0	0	0
11.81223	0.02689158	0.00794524	0	0	0	0
11.82915	0.02689158	0.00794524	0	0	0	0
11.84536	0.02689158	0.00794524	0	0	0	0
11.86196	0.02689158	0.00794524	0	0	0	0
11.87878	0.02689158	0.00794524	0	0	0	0
11.89506	0.02689158	0.00794524	0	0	0	0
11.91162	0.02689158	0.00794524	0	0	0	0
11.92862	0.02689158	0.00794524	0	0	0	0
11.94476	0.02689158	0.00794524	0	0	0	0
11.96132	0.02689158	0.00794524	0	0	0	0
11.97789	0.02689158	0.00794524	0	0	0	0
11.99471	0.02689158	0.00794524	0	0	0	0
12.01102	0.02689158	0.00794524	0	0	0	0
12.02768	0.02689158	0.00794524	0	0	0	0
12.04435	0.02689158	0.00794524	0	0	0	0
12.06072	0.02689158	0.00794524	0	0	0	0
12.07791	0.02689158	0.00794524	0	0	0	0
12.09407	0.02689158	0.00794524	0	0	0	0
12.11042	0.02689158	0.00794524	0	0	0	0
12.12714	0.02689158	0.00794524	0	0	0	0
12.14356	0.02689158	0.00794524	0	0	0	0
12.16012	0.02689158	0.00794524	0	0	0	0
12.17669	0.02689158	0.00794524	0	0	0	0
12.19346	0.02689158	0.00794524	0	0	0	0
12.20983	0.02689158	0.00794524	0	0	0	0
12.22704	0.02689158	0.00794524	0	0	0	0
12.24296	0.02689158	0.00794524	0	0	0	0
12.25953	0.02689158	0.00794524	0	0	0	0
12.27609	0.02689158	0.00794524	0	0	0	0
12.29266	0.02689158	0.00794524	0	0	0	0
12.30922	0.02689158	0.00794524	0	0	0	0
12.32874	0.02689158	0.00794524	0	0	0	0
12.34531	0.02689158	0.00794524	0	0	0	0
12.36219	0.02689158	0.00794524	0	0	0	0
12.37847	0.02689158	0.00794524	0	0	0	0
12.39501	0.02689158	0.00794524	0	0	0	0
12.41158	0.02689158	0.00794524	0	0	0	0
12.42815	0.02689158	0.00794524	0	0	0	0
12.44471	0.02689158	0.00794524	0	0	0	0
12.46128	0.02689158	0.00794524	0	0	0	0
12.47785	0.02689158	0.00794524	0	0	0	0
12.49441	0.02689158	0.00794524	0	0	0	0
12.51098	0.02689158	0.00794524	0	0	0	0
12.52754	0.02689158	0.00794524	0	0	0	0
12.54411	0.02689158	0.00794524	0	0	0	0
12.56068	0.02689158	0.00794524	0	0	0	0
12.57725	0.02689158	0.00794524	0	0	0	0
12.59417	0.02689158	0.00794524	0	0	0	0
12.61038	0.02689158	0.00794524	0	0	0	0
12.62694	0.02689158	0.00794524	0	0	0	0
12.64351	0.02689158	0.00794524	0	0	0	0
12.66008	0.02689158	0.00794524	0	0	0	0
12.67691	0.02689158	0.00794524	0	0	0	0
12.69325	0.02689158	0.00794524	0	0	0	0
12.70978	0.02689158	0.00794524	0	0	0	0
12.72647	0.02689158	0.00794524	0	0	0	0
12.74298	0.02689158	0.00794524	0	0	0	0
12.75948	0.02689158	0.00794524	0	0	0	0
12.77604	0.02689158	0.00794524	0	0	0	0
12.79261	0.02689158	0.00794524	0	0	0	0
12.80918	0.02689158	0.00794524	0	0	0	0
12.82575	0.02689158	0.00794524	0	0	0	0
12.84231	0.02689158	0.00794524	0	0	0	0
12.85888	0.02689158	0.00794524	0	0	0	0
12.87544	0.02689158	0.00794524	0	0	0	0
12.89259	0.02689158	0.00794524	0	0	0	0
12.90858	0.02689158	0.00794524	0	0	0	0
12.92514	0.02689158	0.00794524	0	0	0	0
12.94171	0.02689158	0.00794524	0	0	0	0
12.95828	0.02689158	0.00794524	0	0	0	0
12.97484	0.02689158	0.00794524	0	0	0	0
12.99141	0.02689158	0.00794524	0	0	0	0
13.00893	0.02689158	0.00794524	0	0	0	0
13.02497	0.02689158	0.00794524	0	0	0	0
13.04111	0.02689158	0.00794524	0	0	0	0
13.05768	0.02689158	0.00794524	0	0	0	0
13.07437	0.02689158	0.00794524	0	0	0	0
13.09081	0.02689158	0.00794524	0	0	0	0
13.10738	0.02689158	0.00794524	0	0	0	0
13.12395	0.02689158	0.00794524	0	0	0	0
13.14051	0.02689158	0.00794524	0	0	0	0
13.15708	0.02689158	0.00794524	0	0	0	0
13.17364	0.02689158	0.00794524	0	0	0	0
13.19034	0.02689158	0.00794524	0	0	0	0
13.20765	0.02689158	0.00794524	0	0	0	0
13.22334	0.02689158	0.00794524	0	0	0	0
13.23991	0.02689158	0.00794524	0	0	0	0
13.25648	0.02689158	0.00794524	0	0	0	0
13.27304	0.02689158	0.00794524	0	0	0	0
13.28961	0.02689158	0.00794524	0	0	0	0
13.30625	0.02689158	0.00794524	0	0	0	0
13.32278	0.02689158	0.00794524	0	0	0	0
13.3395	0.02689158	0.00794524	0	0	0	0
13.35588	0.02689158	0.00794524	0	0	0	0
13.37244	0.02689158	0.00794524	0	0	0	0
13.38901	0.02689158	0.00794524	0	0	0	0
13.40558	0.02689158	0.00794524	0	0	0	0
13.42223	0.02689158	0.00794524	0	0	0	0
13.43871	0.02689158	0.00794524	0	0	0	0
13.45528	0.02689158	0.00794524	0	0	0	0
13.47184	0.02689158	0.00794524	0	0	0	0
13.48855	0.02689158	0.00794524	0	0	0	0
13.5053	0.02689158	0.00794524	0	0	0	0
13.5219	0.02689158	0.00794524	0	0	0	0
13.53811	0.02689158	0.00794524	0	0	0	0
13.55468	0.02689158	0.00794524	0	0	0	0
13.57131	0.02689158	0.00794524	0	0	0	0
13.58781	0.02689158	0.00794524	0	0	0	0
13.60437	0.02689158	0.00794524	0	0	0	0
13.62094	0.02689158	0.00794524	0	0	0	0
13.63751	0.02689158	0.00794524	0	0	0	0
13.65455	0.02689158	0.00794524	0	0	0	0
13.67064	0.02689158	0.00794524	0	0	0	0
13.68739	0.02689158	0.00794524	0	0	0	0
13.70378	0.02689158	0.00794524	0	0	0	0
13.72034	0.02811392	0.00794524	0.07378508	0	2.239148	0
13.73705	0.0440044	0.01283462	0.9511031	0.2926471	26.36671	8.795149
13.75348	0.07211833	0.01527931	1.711442	0.148821	22.94707	-4.34068
13.77004	0.106344	0.01527931	2.065983	-5.621798E-08	10.74584	-4.510644
13.78674	0.1601271	0.01527931	3.221325	0	34.73433	1.690143E-06
13.80326	0.2212444	0.01772399	3.699265	0.1479705	14.38822	4.454605
13.81974	0.2615817	0.017724	2.447447	1.13015E-07	-37.93059	-4.483564
13.83631	0.294585	0.017724	1.992083	0	-13.7786	-3.419657E-06
13.85288	0.3006968	0.01772399	0.3689054	-1.124295E-07	-48.9876	-3.393129E-06
13.87008	0.3019191	0.01772399	0.07106274	0	-8.820342	3.329498E-06
13.88601	0.3019191	0.01772399	0	0	-2.144739	0
13.90258	0.3019191	0.01772399	0	0	0	0
13.91914	0.3019191	0.01772399	0	0	0	0
13.93571	0.3031414	0.01772399	0.07378922	0	2.227155	0
13.95228	0.3031414	0.01772399	0	0	-2.227027	0
13.96884	0.3043638	0.01650165	0.07378253	-0.07378072	2.226697	-2.226643
13.98541	0.3068085	0.01527931	0.1475784	-0.07378945	2.227293	-0.000263325
14.00198	0.3080308	0.01405696	0.07378072	-0.07378083	-2.227348	0.0002599519
14.01905	0.3092532	0.01405696	0.0716004	-5.455352E-08	-0.06481542	2.193314
14.03511	0.3092532	0.01405696	0	0	-2.161091	1.646571E-06
14.05211	0.3092532	0.01405696	0	0	0	0
14.06824	0.3092532	0.01405696	0	0	0	0
14.08481	0.3092532	0.01405696	0	0	0	0
14.10137	0.3092532	0.01405696	0	0	0	0
14.11794	0.3092532	0.01405696	0	0	0	0
14.13618	0.3092532	0.01405696	0	0	0	0
14.15279	0.3092532	0.01405696	0	0	0	0
14.16932	0.3092532	0.01405696	0	0	0	0
14.18588	0.3092532	0.01405696	0	0	0	0
14.20245	0.3092532	0.01405696	0	0	0	0
14.21902	0.3092532	0.01405696	0	0	0	0
14.23572	0.3092532	0.01405696	0	0	0	0
14.2522	0.3092532	0.01405696	0	0	0	0
14.27597	0.3092532	0.01405696	0	0	0	0
14.29254	0.3092532	0.01405696	0	0	0	0
14.30916	0.3092532	0.01405696	0	0	0	0
14.32567	0.3092532	0.01405696	0	0	0	0
14.34238	0.3092532	0.01405696	0	0	0	0
14.3588	0.3092532	0.01405696	0	0	0	0
14.37537	0.3092532	0.01405696	0	0	0	0
14.39204	0.3092532	0.01405696	0	0	0	0
14.4085	0.3092532	0.01405696	0	0	0	0
14.4251	0.3092532	0.01405696	0	0	0	0
14.44176	0.3092532	0.01405696	0	0	0	0
14.4582	0.3092532	0.01405696	0	0	0	0
14.47477	0.3092532	0.01405696	0	0	0	0
14.49173	0.3092532	0.01405696	0	0	0	0
14.50794	0.3092532	0.01405696	0	0	0	0
14.52448	0.3092532	0.01405696	0	0	0	0
14.54129	0.3092532	0.01405696	0	0	0	0
14.55761	0.3092532	0.01405696	0	0	0	0
14.57418	0.3092532	0.01405696	0	0	0	0
14.59074	0.3092532	0.01405696	0	0	0	0
14.60745	0.3092532	0.01405696	0	0	0	0
14.62388	0.3092532	0.01405696	0	0	0	0
14.6407	0.3092532	0.01405696	0	0	0	0
14.657	0.3092532	0.01405696	0	0	0	0
14.67365	0.3068085	0.01283462	-0.146843	-0.07342154	-4.456356	-2.22818
14.69014	0.3006967	0.01161227	-0.3707193	-0.07414367	-6.756602	-0.02179401
14.70676	0.2933627	0.01161227	-0.4411353	5.601804E-08	-2.126629	2.239209
14.72399	0.2860286	0.01038993	-0.4256569	-0.07094275	0.457191	-2.095463
14.73984	0.2786945	0.009167584	-0.4628536	-0.07714238	-1.124604	-0.1874396
14.75641	0.2652487	0.009167584	-0.8115898	0	-10.7593	2.380017
14.77297	0.2395795	0.009167585	-1.549486	5.621798E-08	-22.2704	1.696711E-06
14.78966	0.2175773	0.01038993	-1.318417	0.07324531	6.948473	2.202558
14.8061	0.1992421	0.01161227	-1.114993	0.07433287	6.139705	0.03282455
14.82298	0.184574	0.01283462	-0.8691592	0.07242997	7.377878	-0.05710913
14.83924	0.1711282	0.01405696	-0.8271121	0.07519182	1.269055	0.08335754
14.85581	0.1625718	0.01527931	-0.5164047	0.07377251	9.465436	-0.04323794
14.87301	0.1564601	0.01527931	-0.3553035	0	4.770464	-2.184521
14.88894	0.1479037	0.01527931	-0.5371518	0	-5.488825	0
14.90551	0.1356802	0.01650165	-0.7377241	0.0737724	-6.171767	2.270035
14.92207	0.1210121	0.01772399	-0.8854215	0.07378497	-4.457386	0.0003793262
14.94181	0.1038993	0.01894634	-0.8668225	0.06191598	0.5122498	-0.3268948
14.95864	0.07578536	0.02139103	-1.671084	0.1453116	-21.99491	2.2807
14.97523	0.06967364	0.02139103	-0.3683109	1.122486E-07	38.98451	-4.348338
14.99159	0.06233957	0.02261337	-0.4483893	0.07473154	-2.430271	2.267998
15.00809	0.05622784	0.02261337	-0.3704613	-1.129039E-07	2.371943	-2.274654
15.02497	0.05256081	0.02261337	-0.217253	1.103523E-07	4.590278	6.688985E-06
15.04204	0.05256081	0.02261337	0	0	6.399231	-3.250449E-06
15.05779	0.05133847	0.02261337	-0.07760021	-1.182494E-07	-2.36423	-3.602681E-06
15.07436	0.05133847	0.02261337	0	0	2.400924	3.658596E-06
15.09092	0.05133847	0.02261337	0	0	0	0
15.10777	0.05133847	0.02261337	0	0	0	0
15.12405	0.05133847	0.02261337	0	0	0	0
15.14062	0.05133847	0.02261337	0	0	0	0
15.15719	0.05133847	0.02261337	0	0	0	0
15.17376	0.05133847	0.02261337	0	0	0	0
15.19032	0.05133847	0.02261337	0	0	0	0
15.20689	0.05133847	0.02261337	0	0	0	0
15.22345	0.05133847	0.02261337	0	0	0	0
15.24002	0.05133847	0.02261337	0	0	0	0
15.25684	0.05133847	0.02261337	0	0	0	0
15.27322	0.05133847	0.02261337	0	0	0	0
15.28972	0.05133847	0.02261337	0	0	0	0
15.30629	0.05133847	0.02261337	0	0	0	0
15.32304	0.05133847	0.02261337	0	0	0	0
15.33942	0.05133847	0.02261337	0	0	0	0
15.35599	0.05133847	0.02261337	0	0	0	0
15.37256	0.05133847	0.02261337	0	0	0	0
15.38938	0.05133847	0.02261337	0	0	0	0
15.40569	0.05133847	0.02261337	0	0	0	0
15.42225	0.05133847	0.02261337	0	0	0	0
15.43882	0.05133847	0.02261337	0	0	0	0
15.45544	0.05133847	0.02261337	0	0	0	0
15.47195	0.05133847	0.02261337	0	0	0	0
15.48852	0.05133847	0.02261337	0	0	0	0
15.50508	0.05133847	0.02261337	0	0	0	0
15.52165	0.05133847	0.02261337	0	0	0	0
15.53822	0.05133847	0.02261337	0	0	0	0
15.55478	0.05133847	0.02261337	0	0	0	0
15.57135	0.05133847	0.02261337	0	0	0	0
15.58792	0.05133847	0.02261337	0	0	0	0
15.60448	0.05133847	0.02261337	0	0	0	0
15.62105	0.05133847	0.02261337	0	0	0	0
15.63762	0.05133847	0.02261337	0	0	0	0
15.65418	0.05133847	0.02261337	0	0	0	0
15.6713	0.05133847	0.02261337	0	0	0	0
15.68732	0.05133847	0.02261337	0	0	0	0
15.70473	0.05133847	0.02261337	0	0	0	0
15.72045	0.05133847	0.02261337	0	0	0	0
15.73749	0.05133847	0.02261337	0	0	0	0
15.75406	0.05133847	0.02261337	0	0	0	0
15.77015	0.05133847	0.02261337	0	0	0	0
15.78693	0.05133847	0.02261337	0	0	0	0
15.80329	0.05133847	0.02261337	0	0	0	0
15.81985	0.05133847	0.02261337	0	0	0	0
15.83642	0.05133847	0.02261337	0	0	0	0
15.85299	0.05133847	0.02261337	0	0	0	0
15.86955	0.05133847	0.02261337	0	0	0	0
15.88612	0.05133847	0.02261337	0	0	0	0
15.90269	0.05133847	0.02261337	0	0	0	0
15.91925	0.05133847	0.02261337	0	0	0	0
15.93582	0.05133847	0.02261337	0	0	0	0
15.95238	0.05133847	0.02261337	0	0	0	0
15.96895	0.05133847	0.02261337	0	0	0	0
15.98552	0.05133847	0.02261337	0	0	0	0
16.00209	0.05133847	0.02261337	0	0	0	0
16.01865	0.05133847	0.02261337	0	0	0	0
16.03522	0.05133847	0.02261337	0	0	0	0
16.05179	0.05133847	0.02261337	0	0	0	0
16.06835	0.05133847	0.02261337	0	0	0	0
16.08518	0.05133847	0.02261337	0	0	0	0
16.10175	0.05133847	0.02261337	0	0	0	0
16.11832	0.05133847	0.02261337	0	0	0	0
16.13464	0.05133847	0.02261337	0	0	0	0
16.15119	0.05133847	0.02261337	0	0	0	0
16.16775	0.05133847	0.02261337	0	0	0	0
16.18572	0.05133847	0.02261337	0	0	0	0
16.20229	0.05133847	0.02261337	0	0	0	0
16.21886	0.05133847	0.02261337	0	0	0	0
16.23542	0.05133847	0.02261337	0	0	0	0
16.25199	0.05133847	0.02261337	0	0	0	0
16.26856	0.05133847	0.02261337	0	0	0	0
16.28512	0.05133847	0.02261337	0	0	0	0
16.30169	0.05133847	0.02261337	0	0	0	0
16.31826	0.05133847	0.02261337	0	0	0	0
16.33483	0.05133847	0.02261337	0	0	0	0
16.35139	0.05133847	0.02261337	0	0	0	0
16.36796	0.05133847	0.02261337	0	0	0	0
16.38453	0.05133847	0.02261337	0	0	0	0
16.40144	0.05133847	0.02261337	0	0	0	0
16.41766	0.05133847	0.02261337	0	0	0	0
16.43423	0.05133847	0.02261337	0	0	0	0
16.45115	0.05133847	0.02261337	0	0	0	0
16.46742	0.05133847	0.02261337	0	0	0	0
16.48393	0.05133847	0.02261337	0	0	0	0
16.5005	0.05133847	0.02261337	0	0	0	0
16.51706	0.05133847	0.02261337	0	0	0	0
16.53363	0.05133847	0.02261337	0	0	0	0
16.5502	0.05133847	0.02261337	0	0	0	0
16.56676	0.05133847	0.02261337	0	0	0	0
16.58344	0.05133847	0.02261337	0	0	0	0
16.59997	0.05133847	0.02261337	0	0	0	0
16.61646	0.05133847	0.02261337	0	0	0	0
16.63302	0.05133847	0.02261337	0	0	0	0
16.64959	0.05133847	0.02261337	0	0	0	0
16.66616	0.05133847	0.02261337	0	0	0	0
16.68273	0.05133847	0.02261337	0	0	0	0
16.69935	0.05133847	0.02261337	0	0	0	0
16.71586	0.05133847	0.02261337	0	0	0	0
16.73243	0.05133847	0.02261337	0	0	0	0
16.74899	0.05133847	0.02261337	0	0	0	0
16.76558	0.05133847	0.02261337	0	0	0	0
16.7822	0.05133847	0.02261337	0	0	0	0
16.79885	0.05133847	0.02261337	0	0	0	0
16.81526	0.05133847	0.02261337	0	0	0	0
16.83183	0.05133847	0.02261337	0	0	0	0
16.84862	0.05133847	0.02261337	0	0	0	0
16.86496	0.05133847	0.02261337	0	0	0	0
16.88178	0.05133847	0.02261337	0	0	0	0
16.90007	0.05133847	0.02261337	0	0	0	0
16.91664	0.05133847	0.02261337	0	0	0	0
16.9332	0.05133847	0.02261337	0	0	0	0
16.95016	0.05133847	0.02261337	0	0	0	0
16.96634	0.05133847	0.02261337	0	0	0	0
16.98298	0.05133847	0.02261337	0	0	0	0
16.99947	0.05133847	0.02261337	0	0	0	0
17.01615	0.05133847	0.02261337	0	0	0	0
17.03261	0.05133847	0.02261337	0	0	0	0
17.04917	0.05133847	0.02261337	0	0	0	0
17.06574	0.05133847	0.02261337	0	0	0	0
17.08237	0.05133847	0.02261337	0	0	0	0
17.09896	0.05133847	0.02261337	0	0	0	0
17.11544	0.05133847	0.02261337	0	0	0	0
17.13237	0.05133847	0.02261337	0	0	0	0
17.14857	0.05133847	0.02261337	0	0	0	0
17.16514	0.05133847	0.02261337	0	0	0	0
17.18214	0.05133847	0.02261337	0	0	0	0
17.19873	0.05133847	0.02261337	0	0	0	0
17.21484	0.05133847	0.02261337	0	0	0	0
17.23141	0.05133847	0.02261337	0	0	0	0
17.24798	0.05133847	0.02261337	0	0	0	0
17.2646	0.05133847	0.02261337	0	0	0	0
17.28111	0.05133847	0.02261337	0	0	0	0
17.29768	0.05133847	0.02261337	0	0	0	0
17.31473	0.05133847	0.02261337	0	0	0	0
17.33081	0.05133847	0.02261337	0	0	0	0
17.34741	0.05133847	0.02261337	0	0	0	0
17.36403	0.05133847	0.02261337	0	0	0	0
17.38081	0.05133847	0.02261337	0	0	0	0
17.39708	0.05133847	0.02261337	0	0	0	0
17.4138	0.05133847	0.02261337	0	0	0	0
17.43059	0.05133847	0.02261337	0	0	0	0
17.44678	0.05133847	0.02261337	0	0	0	0
17.46358	0.05133847	0.02261337	0	0	0	0
17.47991	0.05133847	0.02261337	0	0	0	0
17.49648	0.05133847	0.02261337	0	0	0	0
17.51332	0.05133847	0.02261337	0	0	0	0
17.52961	0.05133847	0.02261337	0	0	0	0
17.55205	0.05133847	0.02261337	0	0	0	0
17.56862	0.05133847	0.02261337	0	0	0	0
17.58532	0.05133847	0.02261337	0	0	0	0
17.60176	0.05133847	0.02261337	0	0	0	0
17.61832	0.05133847	0.02261337	0	0	0	0
17.63511	0.05133847	0.02261337	0	0	0	0
17.65145	0.05133847	0.02261337	0	0	0	0
17.66815	0.05133847	0.02261337	0	0	0	0
17.68459	0.05133847	0.02261337	0	0	0	0
17.70124	0.05133847	0.02261337	0	0	0	0
17.71772	0.05133847	0.02261337	0	0	0	0
17.73445	0.05133847	0.02261337	0	0	0	0
17.75103	0.05133847	0.02261337	0	0	0	0
17.76742	0.05133847	0.02261337	0	0	0	0
17.78417	0.05133847	0.02261337	0	0	0	0
17.8013	0.05133847	0.02261337	0	0	0	0
17.81712	0.05133847	0.02261337	0	0	0	0
17.83369	0.05133847	0.02261337	0	0	0	0
17.85026	0.05133847	0.02261337	0	0	0	0
17.86683	0.05133847	0.02261337	0	0	0	0
17.88339	0.05133847	0.02261337	0	0	0	0
17.89996	0.05133847	0.02261337	0	0	0	0
17.91653	0.05133847	0.02261337	0	0	0	0
17.93309	0.05133847	0.02261337	0	0	0	0
17.94966	0.05133847	0.02261337	0	0	0	0
17.96623	0.05133847	0.02261337	0	0	0	0
17.9828	0.05133847	0.02261337	0	0	0	0
17.99936	0.05133847	0.02261337	0	0	0	0
18.01593	0.05133847	0.02261337	0	0	0	0
18.03275	0.05133847	0.02261337	0	0	0	0
18.04906	0.05133847	0.02261337	0	0	0	0
18.06563	0.05133847	0.02261337	0	0	0	0
18.08219	0.05133847	0.02261337	0	0	0	0
18.09876	0.05133847	0.02261337	0	0	0	0
18.11533	0.04889378	0.02261337	-0.1475619	0	-4.453683	0
18.13247	0.04889378	0.02261337	0	0	4.377082	0
18.14846	0.04889378	0.02261337	0	0	0	0
18.16503	0.04889378	0.02261337	0	0	0	0
18.18159	0.05867253	0.02261337	0.5903829	0	17.81882	0
18.19882	0.08923115	0.02383572	1.773469	0.07093871	35.00833	2.099126
18.2494	0.1356802	0.02505806	0.9183805	0.02416794	-12.6104	-0.6897515
18.26597	0.2860286	0.01038993	9.072956	-0.8851666	121.4414	-13.5422
18.28254	0.2884733	0.009167583	0.1475632	-0.07378089	-269.3379	24.48485
18.2991	0.2933627	0.00794524	0.2951229	-0.07378078	4.453359	3.372885E-06
18.31567	0.2994744	0.007945239	0.3689036	-5.621474E-08	2.226707	2.226707
18.33224	0.3190319	0.009167584	1.180629	0.07378939	24.49934	2.227098
18.3488	0.3508129	0.01038993	1.918525	0.07378939	22.2723	0
18.36537	0.3960396	0.01405696	2.729892	0.2213426	24.48852	4.45342
18.38194	0.43271	0.01405696	2.213425	0	-15.587	-6.680132
18.3985	0.4559345	0.01405696	1.402158	0	-24.48691	0
18.41507	0.4571569	0.01405696	0.07377403	0	-40.09303	0
18.43207	0.4571569	0.01405696	0	0	-2.197911	0
18.4482	0.4571569	0.01405696	0	0	0	0
18.46508	0.4571569	0.01405696	0	0	0	0
18.48133	0.4583792	0.01405696	0.07521641	0	2.270166	0
18.4979	0.4583792	0.01405696	0	0	-2.291803	0
18.51465	0.4583792	0.01405696	0	0	0	0
18.53104	0.4583792	0.01405696	0	0	0	0
18.54789	0.4583792	0.01405696	0	0	0	0
18.56497	0.4583792	0.01405696	0	0	0	0
18.58073	0.4583792	0.01405696	0	0	0	0
18.5973	0.4583792	0.01405696	0	0	0	0
18.61387	0.4583792	0.01405696	0	0	0	0
18.63043	0.4583792	0.01283462	0	-0.07378089	0	-2.226712
18.647	0.4510451	0.01038993	-0.4426844	-0.1475617	-13.36024	-2.22671
18.66357	0.436377	0.006722894	-0.8853705	-0.2213426	-13.36029	-2.22671
18.68014	0.4131525	0.001833517	-1.401836	-0.2951234	-15.58695	-2.226711
18.6967	0.3740374	-0.004278206	-2.360717	-0.3688618	-28.93743	-2.225301
18.71331	0.3459235	-0.006722894	-1.693449	-0.1472565	20.11618	6.680754
18.72984	0.3202543	-0.00794524	-1.552975	-0.07395117	4.240019	2.212615
18.7464	0.2958074	-0.00794524	-1.475618	0	2.337313	2.234423
18.76297	0.2676934	-0.00794524	-1.697156	0	-6.686403	0
18.77954	0.2420242	-0.00794524	-1.549398	0	4.459595	0
18.79639	0.2090209	-0.006722895	-1.958043	0.07252015	-12.22666	2.169802
18.81278	0.1711282	-0.00550055	-2.311422	0.07456202	-10.62828	0.06141162
18.82925	0.1356802	-0.004278205	-2.152283	0.07421666	4.842412	-0.01050901
18.84599	0.1051216	-0.001833517	-1.825606	0.1460484	9.837035	2.163031
18.86237	0.08434176	-0.0006111722	-1.268883	0.07464018	16.81161	-2.156346
18.88415	0.06845129	0.0006111723	-0.7296535	0.05612722	14.13275	-0.4852092
18.90087	0.05745019	0.0006111722	-0.6579676	-3.481357E-09	1.862071	-1.457929
18.91729	0.05745019	0.0006111722	0	0	19.85522	1.050555E-07
18.93385	0.05745019	0.0006111722	0	0	0	0
18.95042	0.05745019	0.0006111722	0	0	0	0
18.96702	0.05745019	0.0006111722	0	0	0	0
18.98355	0.05745019	0.0006111722	0	0	0	0
19.00012	0.05745019	0.0006111722	0	0	0	0
19.01687	0.05745019	0.0006111722	0	0	0	0
19.03325	0.05745019	0.0006111722	0	0	0	0
19.04982	0.05745019	0.0006111722	0	0	0	0
19.0666	0.05745019	0.0006111722	0	0	0	0
19.0833	0.05745019	0.0006111722	0	0	0	0
19.09952	0.05745019	0.0006111722	0	0	0	0
19.11609	0.05745019	0.0006111722	0	0	0	0
19.13266	0.05745019	0.0006111722	0	0	0	0
19.14922	0.05745019	0.0006111722	0	0	0	0
19.16579	0.05745019	0.0006111722	0	0	0	0
19.18236	0.05745019	0.0006111722	0	0	0	0
19.19893	0.0550055	0.0006111722	-0.1475619	0	-4.453427	0
19.21564	0.04889378	-0.0006111722	-0.3657045	-0.0731409	-6.55488	-2.197782
19.23213	0.04767144	-0.0006111722	-0.07413064	0	8.782022	2.202958
19.24862	0.04522675	-0.0006111722	-0.148176	0	-2.244643	0
19.26519	0.0440044	-0.0006111723	-0.07378072	-3.513421E-09	2.249917	-1.062555E-07
19.28176	0.0440044	-0.0006111723	0	0	2.226707	1.060353E-07
19.29833	0.0440044	-0.0006111723	0	0	0	0
19.31491	0.0440044	-0.0006111723	0	0	0	0
19.33146	0.0440044	-0.0006111723	0	0	0	0
19.34802	0.0440044	-0.0006111723	0	0	0	0
19.36459	0.0440044	-0.0006111723	0	0	0	0
19.38116	0.0440044	-0.0006111723	0	0	0	0
19.39773	0.0440044	-0.0006111723	0	0	0	0
19.41429	0.0440044	-0.0006111723	0	0	0	0
19.43086	0.0440044	-0.0006111723	0	0	0	0
19.44742	0.0440044	-0.0006111723	0	0	0	0
19.46399	0.0440044	-0.0006111723	0	0	0	0
19.48056	0.0440044	-0.0006111723	0	0	0	0
19.49712	0.0440044	-0.0006111723	0	0	0	0
19.51369	0.0440044	-0.0006111723	0	0	0	0
19.53026	0.0440044	-0.0006111723	0	0	0	0
19.5502	0.0440044	-0.0006111723	0	0	0	0
19.5668	0.0440044	-0.0006111723	0	0	0	0
19.58334	0.0440044	-0.0006111723	0	0	0	0
19.59991	0.0440044	-0.0006111723	0	0	0	0
19.61652	0.0440044	-0.0006111723	0	0	0	0
19.63344	0.0440044	-0.0006111723	0	0	0	0
19.64961	0.0440044	-0.0006111723	0	0	0	0
19.66618	0.0440044	-0.0006111723	0	0	0	0
19.68274	0.0440044	-0.0006111723	0	0	0	0
19.69931	0.0440044	-0.0006111723	0	0	0	0
19.71588	0.0440044	-0.0006111723	0	0	0	0
19.73244	0.0440044	-0.0006111723	0	0	0	0
19.74901	0.0440044	-0.0006111723	0	0	0	0
19.76582	0.0440044	-0.0006111723	0	0	0	0
19.78214	0.0440044	-0.0006111723	0	0	0	0
19.79895	0.0440044	-0.0006111723	0	0	0	0
19.81528	0.04278206	-0.0006111722	-0.074858	3.564721E-09	-2.259219	1.075835E-07
19.83184	0.04155971	-0.0006111722	-0.07378945	0	0.03248466	-1.083695E-07
19.84841	0.04155971	-0.0006111722	0	0	2.227098	0
19.86498	0.04033737	-0.0006111722	-0.07378095	0	-2.226713	0
19.88164	0.04033737	-0.0006111722	0	0	2.22045	0
19.89838	0.04033737	-0.0006111722	0	0	0	0
19.91489	0.03911502	-0.0006111722	-0.07401956	0	-2.22597	0
19.93125	0.03911502	-0.0006111722	0	0	2.252064	0
19.94793	0.03667033	-0.0006111722	-0.1465159	0	-4.434621	0
19.96444	0.03667033	-0.0006111722	0	0	4.413981	0
19.98094	0.03667033	-0.0006111722	0	0	0	0
19.99751	0.03667033	-0.0006111722	0	0	0	0
20.01413	0.03667033	-0.0006111722	0	0	0	0
20.03064	0.03667033	-0.0006111722	0	0	0	0
20.0475	0.03667033	-0.0006111722	0	0	0	0
20.06378	0.03544799	-0.0006111722	-0.07512125	0	-2.267294	0
20.08034	0.03544799	-0.0006111722	0	0	2.287574	0
20.09707	0.03544799	-0.0006111722	0	0	0	0
20.11414	0.03544799	-0.0006111722	0	0	0	0
20.13005	0.03544799	-0.0006111722	0	0	0	0
20.14692	0.03544799	-0.0006111722	0	0	0	0
20.1635	0.03422564	-0.0006111722	-0.07371328	0	-2.203614	0
20.17975	0.03422564	-0.0006111722	0	0	2.245221	0
20.19641	0.03422564	-0.0006111722	0	0	0	0
20.22416	0.03422564	-0.0006111722	0	0	0	0
20.24073	0.03422564	-0.0006111722	0	0	0	0
20.25739	0.03422564	-0.0006111722	0	0	0	0
20.2741	0.03422564	-0.0006111722	0	0	0	0
20.29043	0.03422564	-0.0006111722	0	0	0	0
20.30736	0.03422564	-0.0006111722	0	0	0	0
20.3238	0.0330033	-0.0006111722	-0.07431115	0	-2.22682	0
20.34013	0.0330033	-0.0006111722	0	0	2.267119	0
20.35701	0.0330033	-0.0006111722	0	0	0	0
20.37327	0.0330033	-0.0006111722	0	0	0	0
20.38987	0.0330033	-0.0006111722	0	0	0	0
20.4064	0.0330033	-0.0006111722	0	0	0	0
20.42297	0.0330033	-0.0006111722	0	0	0	0
20.43953	0.0330033	-0.0006111722	0	0	0	0
20.4561	0.0330033	-0.0006111722	0	0	0	0
20.47295	0.0330033	-0.0006111722	0	0	0	0
20.48926	0.0330033	-0.0006111722	0	0	0	0
20.50604	0.0330033	-0.0006111722	0	0	0	0
20.52244	0.0330033	-0.0006111722	0	0	0	0
20.54576	0.0330033	-0.0006111722	0	0	0	0
20.56232	0.0330033	-0.0006111722	0	0	0	0
20.57889	0.0330033	-0.0006111722	0	0	0	0
20.59567	0.0330033	-0.0006111722	0	0	0	0
20.61213	0.0330033	-0.0006111722	0	0	0	0
20.62859	0.0330033	-0.0006111722	0	0	0	0
20.64516	0.0330033	-0.0006111722	0	0	0	0
20.66218	0.0330033	-0.0006111722	0	0	0	0
20.67829	0.0330033	-0.0006111722	0	0	0	0
20.69486	0.0330033	-0.0006111722	0	0	0	0
20.71155	0.0330033	-0.0006111722	0	0	0	0
20.72799	0.0330033	-0.0006111722	0	0	0	0
20.74456	0.0330033	-0.0006111722	0	0	0	0
20.76113	0.0330033	-0.0006111722	0	0	0	0
20.7777	0.0330033	-0.0006111722	0	0	0	0
20.79426	0.0330033	-0.0006111722	0	0	0	0
20.81083	0.0330033	-0.0006111722	0	0	0	0
20.8274	0.0330033	-0.0006111722	0	0	0	0
20.84397	0.0330033	-0.0006111722	0	0	0	0
20.86416	0.0330033	-0.0006111722	0	0	0	0
20.88073	0.0330033	-0.0006111722	0	0	0	0
20.8973	0.0330033	-0.0006111722	0	0	0	0
20.91387	0.0330033	-0.0006111722	0	0	0	0
20.93043	0.0330033	-0.0006111722	0	0	0	0
20.947	0.0330033	-0.0006111722	0	0	0	0
20.96357	0.0330033	-0.0006111722	0	0	0	0
20.98019	0.0330033	-0.0006111722	0	0	0	0
20.9967	0.0330033	-0.0006111722	0	0	0	0
21.01327	0.0330033	-0.0006111722	0	0	0	0
21.03038	0.0330033	-0.0006111722	0	0	0	0
21.0464	0.0330033	-0.0006111722	0	0	0	0
21.06305	0.0330033	-0.0006111722	0	0	0	0
21.07955	0.0330033	-0.0006111722	0	0	0	0
21.0961	0.0330033	-0.0006111722	0	0	0	0
21.11267	0.0330033	-0.0006111722	0	0	0	0
21.12924	0.0330033	-0.0006111722	0	0	0	0
21.1458	0.0330033	-0.0006111722	0	0	0	0
21.16237	0.0330033	-0.0006111722	0	0	0	0
21.17911	0.0330033	-0.0006111722	0	0	0	0
21.1955	0.0330033	-0.0006111722	0	0	0	0
21.21207	0.0330033	-0.0006111722	0	0	0	0
21.22864	0.0330033	-0.0006111722	0	0	0	0
21.2452	0.0330033	-0.0006111722	0	0	0	0
21.26177	0.0330033	-0.0006111722	0	0	0	0
21.27834	0.0330033	-0.0006111722	0	0	0	0
21.29491	0.0330033	-0.0006111722	0	0	0	0
21.31147	0.0330033	-0.0006111722	0	0	0	0
21.32804	0.0330033	-0.0006111722	0	0	0	0
21.34461	0.0330033	-0.0006111722	0	0	0	0
21.36118	0.0330033	-0.0006111722	0	0	0	0
21.37774	0.0330033	-0.0006111722	0	0	0	0
21.39431	0.0330033	-0.0006111722	0	0	0	0
21.41088	0.0330033	-0.0006111722	0	0	0	0
21.42744	0.0330033	-0.0006111722	0	0	0	0
21.44401	0.0330033	-0.0006111722	0	0	0	0
21.46058	0.0330033	-0.0006111722	0	0	0	0
21.47714	0.0330033	-0.0006111722	0	0	0	0
21.49371	0.0330033	-0.0006111722	0	0	0	0
21.51028	0.0330033	-0.0006111722	0	0	0	0
21.52699	0.0330033	-0.0006111722	0	0	0	0
21.5436	0.0330033	-0.0006111722	0	0	0	0
21.56013	0.0330033	-0.0006111722	0	0	0	0
21.5767	0.0330033	-0.0006111722	0	0	0	0
21.59354	0.0330033	-0.0006111722	0	0	0	0
21.60983	0.0330033	-0.0006111722	0	0	0	0
21.6264	0.0330033	-0.0006111722	0	0	0	0
21.64296	0.0330033	-0.0006111722	0	0	0	0
21.65953	0.0330033	-0.0006111722	0	0	0	0
21.6761	0.0330033	-0.0006111722	0	0	0	0
21.69267	0.0330033	-0.0006111722	0	0	0	0
21.70951	0.0330033	-0.0006111722	0	0	0	0
21.7258	0.0330033	-0.0006111722	0	0	0	0
21.74242	0.0330033	-0.0006111722	0	0	0	0
21.75893	0.0330033	-0.0006111722	0	0	0	0
21.7755	0.0330033	-0.0006111722	0	0	0	0
21.7924	0.0330033	-0.0006111722	0	0	0	0
21.80863	0.0330033	-0.0006111722	0	0	0	0
21.8252	0.0330033	-0.0006111722	0	0	0	0
21.84176	0.0330033	-0.0006111722	0	0	0	0
21.85833	0.0330033	-0.0006111722	0	0	0	0
21.8749	0.0330033	-0.0006111722	0	0	0	0
21.89146	0.0330033	-0.0006111722	0	0	0	0
21.90803	0.0330033	-0.0006111722	0	0	0	0
21.9246	0.0330033	-0.0006111722	0	0	0	0
21.94117	0.0330033	-0.0006111722	0	0	0	0
21.95773	0.0330033	-0.0006111722	0	0	0	0
21.9743	0.0330033	-0.0006111722	0	0	0	0
21.99086	0.0330033	-0.0006111722	0	0	0	0
22.00743	0.0330033	-0.0006111722	0	0	0	0
22.024	0.0330033	-0.0006111722	0	0	0	0
22.04057	0.0330033	-0.0006111722	0	0	0	0
22.05713	0.0330033	-0.0006111722	0	0	0	0
22.0737	0.0330033	-0.0006111722	0	0	0	0
22.09027	0.0330033	-0.0006111722	0	0	0	0
22.10684	0.0330033	-0.0006111722	0	0	0	0
22.1234	0.0330033	-0.0006111722	0	0	0	0
22.13997	0.0330033	-0.0006111722	0	0	0	0
22.15654	0.0330033	-0.0006111722	0	0	0	0
22.17378	0.0330033	-0.0006111722	0	0	0	0
22.19035	0.0330033	-0.0006111722	0	0	0	0
22.20692	0.0330033	-0.0006111722	0	0	0	0
22.22349	0.0330033	-0.0006111722	0	0	0	0
22.24005	0.0330033	-0.0006111722	0	0	0	0
22.25662	0.03422565	0.009167584	0.07378095	0.5902469	2.226713	17.81369
22.27319	0.03544799	0.01650165	0.07378072	0.4426851	-6.745769E-06	-4.453422
22.28975	0.03911502	0.03483682	0.2213426	1.106713	4.453427	20.0404
22.34544	0.04033737	0.04706026	0.02195106	0.2195104	-2.759658	-12.27923
22.36237	0.05622785	0.2181885	0.9387254	10.10935	12.62553	136.1997
22.37902	0.05989487	0.2487471	0.2202266	1.835223	-21.39735	-246.4087
22.39514	0.06967364	0.3367559	0.6064451	5.458004	11.78362	110.5319
22.41171	0.07211833	0.3587581	0.1475619	1.328057	-14.03658	-126.3292
22.42828	0.0770077	0.3929837	0.2951233	2.065862	4.453413	22.26701
22.44484	0.0794524	0.414986	0.1475789	1.32821	-4.453156	-22.26368
22.46141	0.08189708	0.4235424	0.1475614	0.5164669	-0.00052665	-24.49985
22.47798	0.08189708	0.4259871	0	0.1475784	-4.45367	-11.13372
22.49454	0.08189708	0.4259871	0	0	0	-4.454182
22.51111	0.08189708	0.4259871	0	0	0	0
22.52768	0.08189708	0.4259871	0	0	0	0
22.54424	0.08189708	0.4259871	0	0	0	0
22.56086	0.08189708	0.4259871	0	0	0	0
22.57739	0.08189708	0.4259871	0	0	0	0
22.59394	0.08189708	0.4259871	0	0	0	0
22.61095	0.08189708	0.4259871	0	0	0	0
22.62708	0.08189708	0.4259871	0	0	0	0
22.64364	0.08189708	0.4247647	0	-0.07378253	0	-2.257033
22.66021	0.08311942	0.4137636	0.07377223	-0.6639501	2.226322	-17.81027
22.67692	0.08434177	0.3893167	0.07315791	-1.463153	-0.0184606	-24.0163
22.69341	0.08556411	0.3697592	0.07413064	-1.18609	0.02930148	8.34591
22.70991	0.08678646	0.347757	0.07407922	-1.333431	-0.00155857	-4.466307
22.72648	0.08678645	0.3233101	-4.497179E-07	-1.475616	-2.240242	-4.29981
22.74304	0.0880088	0.2976409	0.07378118	-1.549397	2.226734	-2.226705
22.75996	0.08800881	0.2744163	4.403393E-07	-1.372603	-2.203244	5.279436
22.77618	0.08678646	0.2499695	-0.07539568	-1.507906	-2.27559	-4.083699
22.79322	0.08434177	0.2145215	-0.1434492	-2.080018	-2.046438	-17.20398
22.80943	0.08067474	0.2035204	-0.2261329	-0.6783983	-2.486097	42.14328
22.82588	0.0770077	0.1729617	-0.2230115	-1.858429	0.09557457	-36.13128
22.85056	0.07334068	0.1509596	-0.1485993	-0.8915972	1.809611	23.51214
22.86712	0.0660066	0.1106222	-0.4426857	-2.434769	-7.130316	-37.4152
22.88369	0.0660066	0.1045105	0	-0.3688616	13.35951	62.34562
22.90026	0.06478426	0.09595404	-0.07378072	-0.5164664	-2.226578	-4.454466
22.91732	0.06233957	0.08128591	-0.1432731	-0.8596383	-2.066356	-10.20422
22.93339	0.05989488	0.06539543	-0.1521152	-0.9887476	-0.2668563	-3.896527
22.94996	0.05867254	0.06050605	-0.07378899	-0.2951573	2.399947	21.25189
22.96653	0.05745019	0.05683902	-0.07378118	-0.2213426	0.0002358906	2.227861
22.98319	0.05622785	0.05194964	-0.07334165	-0.2933671	0.01322529	-2.167215
22.99966	0.05622784	0.04950495	-2.262394E-07	-0.1484678	2.213576	4.37332
23.01623	0.0550055	0.04706026	-0.07378072	-0.1475619	-2.233514	0.02742427
23.03279	0.05500551	0.04583792	2.24859E-07	-0.0737805	2.226713	2.226727
23.04936	0.0550055	0.04339323	-2.24859E-07	-0.1475617	-1.357251E-05	-2.22672
23.06593	0.0550055	0.04217088	0	-0.07378118	6.786257E-06	2.2267
23.0825	0.0550055	0.04217088	0	0	0	2.226464
23.09944	0.05378316	0.04094854	-0.07214469	-0.07214448	-2.152672	-2.152665
23.11563	0.05378316	0.03972619	0	-0.07550204	2.177457	-0.1013372
23.1322	0.05378316	0.03972619	0	0	0	2.304927
23.14877	0.05378316	0.03972619	0	0	0	0
23.16533	0.05378316	0.03972619	0	0	0	0
23.1819	0.05378316	0.03972619	0	0	0	0
23.19855	0.05378316	0.03972619	0	0	0	0
23.21503	0.05378316	0.03972619	0	0	0	0
23.2316	0.05378316	0.03972619	0	0	0	0
23.24817	0.05378316	0.03972619	0	0	0	0
23.26473	0.05378316	0.03972619	0	0	0	0
23.28134	0.05378316	0.03972619	0	0	0	0
23.29786	0.05378316	0.03972619	0	0	0	0
23.31443	0.05378316	0.03972619	0	0	0	0
23.331	0.05378316	0.03972619	0	0	0	0
23.34756	0.05378316	0.03972619	0	0	0	0
23.36414	0.05378316	0.03972619	0	0	0	0
23.3807	0.05378316	0.03972619	0	0	0	0
23.39726	0.05378316	0.03972619	0	0	0	0
23.41383	0.05378316	0.03972619	0	0	0	0
23.4304	0.05378316	0.03972619	0	0	0	0
23.44696	0.05378316	0.03972619	0	0	0	0
23.46353	0.05378316	0.03972619	0	0	0	0
23.48046	0.05378316	0.03972619	0	0	0	0
23.49666	0.05378316	0.03972619	0	0	0	0
23.51339	0.05378316	0.03972619	0	0	0	0
23.52996	0.05378316	0.03972619	0	0	0	0
23.54653	0.05378316	0.03972619	0	0	0	0
23.5631	0.05378316	0.03972619	0	0	0	0
23.57967	0.05378316	0.03972619	0	0	0	0
23.59631	0.05378316	0.03972619	0	0	0	0
23.6128	0.05378316	0.03972619	0	0	0	0
23.62936	0.05378316	0.03972619	0	0	0	0
23.64593	0.05378316	0.03972619	0	0	0	0
23.6625	0.05378316	0.03972619	0	0	0	0
23.67906	0.05378316	0.03972619	0	0	0	0
23.69627	0.05378316	0.03972619	0	0	0	0
23.7122	0.05378316	0.03972619	0	0	0	0
23.72945	0.05378316	0.03972619	0	0	0	0
23.74582	0.05378316	0.03972619	0	0	0	0
23.7619	0.05378316	0.03972619	0	0	0	0
23.77847	0.05378316	0.03972619	0	0	0	0
23.79504	0.05378316	0.03972619	0	0	0	0
23.8116	0.05378316	0.03972619	0	0	0	0
23.82817	0.05378316	0.03972619	0	0	0	0
23.84474	0.05378316	0.03972619	0	0	0	0
23.86131	0.05378316	0.03972619	0	0	0	0
23.87787	0.05378316	0.03972619	0	0	0	0
23.89444	0.05378316	0.03972619	0	0	0	0
23.91101	0.05378316	0.03972619	0	0	0	0
23.92776	0.05378316	0.03972619	0	0	0	0
23.94429	0.05378316	0.03972619	0	0	0	0
23.96078	0.05378316	0.03972619	0	0	0	0
23.97731	0.05378316	0.03972619	0	0	0	0
23.99384	0.05378316	0.03972619	0	0	0	0
24.01041	0.05378316	0.03972619	0	0	0	0
24.02697	0.05378316	0.03972619	0	0	0	0
24.04354	0.05378316	0.03972619	0	0	0	0
24.06011	0.05378316	0.03972619	0	0	0	0
24.07668	0.05378316	0.03972619	0	0	0	0
24.09324	0.05378316	0.03972619	0	0	0	0
24.10997	0.05378316	0.03972619	0	0	0	0
24.12637	0.05378316	0.03972619	0	0	0	0
24.14294	0.05378316	0.03972619	0	0	0	0
24.15951	0.05378316	0.03972619	0	0	0	0
24.1809	0.05378316	0.03972619	0	0	0	0
24.19747	0.05378316	0.03972619	0	0	0	0
24.21404	0.05378316	0.03972619	0	0	0	0
24.2306	0.05378316	0.03972619	0	0	0	0
24.24717	0.05378316	0.03972619	0	0	0	0
24.26374	0.05378316	0.03972619	0	0	0	0
24.28055	0.05378316	0.03972619	0	0	0	0
24.29687	0.05378316	0.03972619	0	0	0	0
24.31344	0.05378316	0.03972619	0	0	0	0
24.33001	0.05378316	0.03972619	0	0	0	0
24.34657	0.05378316	0.03972619	0	0	0	0
24.36314	0.05378316	0.03972619	0	0	0	0
24.3797	0.05378316	0.03972619	0	0	0	0
24.39627	0.05378316	0.03972619	0	0	0	0
24.41284	0.05378316	0.03972619	0	0	0	0
24.42941	0.05378316	0.03972619	0	0	0	0
24.44597	0.05378316	0.03972619	0	0	0	0
24.46254	0.05378316	0.03972619	0	0	0	0
24.47911	0.05378316	0.03972619	0	0	0	0
24.49568	0.05378316	0.03972619	0	0	0	0
24.51224	0.05378316	0.03972619	0	0	0	0
24.52881	0.05378316	0.03972619	0	0	0	0
24.5454	0.05378316	0.03972619	0	0	0	0
24.56445	0.05378316	0.03972619	0	0	0	0
24.58102	0.05378316	0.03972619	0	0	0	0
24.59758	0.05378316	0.03972619	0	0	0	0
24.61415	0.05378316	0.03972619	0	0	0	0
24.63071	0.05378316	0.03972619	0	0	0	0
24.64761	0.05378316	0.03972619	0	0	0	0
24.66385	0.05378316	0.03972619	0	0	0	0
24.68052	0.05378316	0.03972619	0	0	0	0
24.69698	0.05378316	0.03972619	0	0	0	0
24.71355	0.05378316	0.03972619	0	0	0	0
24.73012	0.05378316	0.03972619	0	0	0	0
24.74695	0.05378316	0.03972619	0	0	0	0
24.76341	0.05378316	0.03972619	0	0	0	0
24.77982	0.05378316	0.03972619	0	0	0	0
24.79638	0.05378316	0.03972619	0	0	0	0
24.81394	0.05378316	0.03972619	0	0	0	0
24.83121	0.05378316	0.03972619	0	0	0	0
24.84708	0.05378316	0.03972619	0	0	0	0
24.86365	0.05378316	0.03972619	0	0	0	0
24.88022	0.05378316	0.03972619	0	0	0	0
24.89678	0.05378316	0.03972619	0	0	0	0
24.91335	0.05378316	0.03972619	0	0	0	0
24.92992	0.05378316	0.03972619	0	0	0	0
24.94648	0.05378316	0.03972619	0	0	0	0
24.96307	0.05378316	0.03972619	0	0	0	0
24.97962	0.05378316	0.03972619	0	0	0	0
24.99618	0.05378316	0.03972619	0	0	0	0
25.01276	0.05378316	0.03972619	0	0	0	0
25.02932	0.05378316	0.03972619	0	0	0	0
25.04588	0.05378316	0.03972619	0	0	0	0
25.06245	0.05378316	0.03972619	0	0	0	0
25.07902	0.05378316	0.03972619	0	0	0	0
25.09558	0.05378316	0.03972619	0	0	0	0
25.11215	0.05378316	0.03972619	0	0	0	0
25.12872	0.05378316	0.03972619	0	0	0	0
25.14529	0.05378316	0.03972619	0	0	0	0
25.16185	0.05378316	0.03972619	0	0	0	0
25.17842	0.05378316	0.03972619	0	0	0	0
25.19499	0.05378316	0.03972619	0	0	0	0
25.21156	0.05378316	0.03972619	0	0	0	0
25.22812	0.05378316	0.03972619	0	0	0	0
25.24469	0.05378316	0.03972619	0	0	0	0
25.26133	0.05378316	0.03972619	0	0	0	0
25.27782	0.05378316	0.03972619	0	0	0	0
25.29439	0.05378316	0.03972619	0	0	0	0
25.31096	0.05378316	0.03972619	0	0	0	0
25.32752	0.05378316	0.03972619	0	0	0	0
25.34409	0.05378316	0.03972619	0	0	0	0
25.36066	0.05378316	0.03972619	0	0	0	0
25.37722	0.05378316	0.03972619	0	0	0	0
25.39379	0.05378316	0.03972619	0	0	0	0
25.41036	0.05378316	0.03972619	0	0	0	0
25.42693	0.05378316	0.03972619	0	0	0	0
25.44349	0.05378316	0.03972619	0	0	0	0
25.46006	0.05378316	0.03972619	0	0	0	0
25.48234	0.05378316	0.03972619	0	0	0	0
25.49892	0.05378316	0.03972619	0	0	0	0
25.51548	0.05378316	0.03972619	0	0	0	0
25.53233	0.05378316	0.03972619	0	0	0	0
25.54889	0.05378316	0.03972619	0	0	0	0
25.56552	0.05378316	0.03972619	0	0	0	0
25.58212	0.05378316	0.03972619	0	0	0	0
25.59831	0.05378316	0.03972619	0	0	0	0
25.61488	0.05378316	0.03972619	0	0	0	0
25.63145	0.05378316	0.03972619	0	0	0	0
25.64801	0.05378316	0.03972619	0	0	0	0
25.66458	0.05378316	0.03972619	0	0	0	0
25.68115	0.05378316	0.03972619	0	0	0	0
25.69771	0.05378316	0.03972619	0	0	0	0
25.71428	0.05378316	0.03972619	0	0	0	0
25.73085	0.05378316	0.03972619	0	0	0	0
25.74742	0.05378316	0.03972619	0	0	0	0
25.76398	0.05378316	0.03972619	0	0	0	0
25.78074	0.05378316	0.03972619	0	0	0	0
25.79722	0.05378316	0.03972619	0	0	0	0
25.81368	0.05378316	0.03972619	0	0	0	0
25.83025	0.05378316	0.03972619	0	0	0	0
25.847	0.05378316	0.03972619	0	0	0	0
25.86346	0.05378316	0.03972619	0	0	0	0
25.87999	0.05378316	0.03972619	0	0	0	0
25.89652	0.05378316	0.03972619	0	0	0	0
25.91308	0.05378316	0.03972619	0	0	0	0
25.92965	0.05378316	0.03972619	0	0	0	0
25.94622	0.05378316	0.03972619	0	0	0	0
25.96278	0.05378316	0.03972619	0	0	0	0
25.97935	0.05378316	0.03972619	0	0	0	0
25.99592	0.05378316	0.03972619	0	0	0	0
26.01249	0.05378316	0.03972619	0	0	0	0
26.02924	0.05378316	0.03972619	0	0	0	0
26.04562	0.05378316	0.03972619	0	0	0	0
26.06219	0.05378316	0.03972619	0	0	0	0
26.07875	0.05378316	0.03972619	0	0	0	0
26.09532	0.05378316	0.03972619	0	0	0	0
26.11189	0.05378316	0.03972619	0	0	0	0
26.13196	0.05378316	0.03972619	0	0	0	0
26.14853	0.05378316	0.03972619	0	0	0	0
26.1651	0.05378316	0.03972619	0	0	0	0
26.18215	0.05378316	0.03972619	0	0	0	0
26.19823	0.05378316	0.03972619	0	0	0	0
26.2148	0.05378316	0.03972619	0	0	0	0
26.23136	0.05378316	0.03850386	2.24859E-07	-0.0737805	6.786257E-06	-2.2267
26.24837	0.05256081	0.03728151	-0.07187789	-0.07187789	-2.14094	0.05667058
26.26449	0.05256081	0.03483681	0	-0.1516114	2.169529	-2.406639
26.28132	0.05133847	0.03483682	-0.07263508	2.213674E-07	-2.204185	4.600807
26.29763	0.04767144	0.03361447	-0.2248895	-0.07496331	-4.595047	-2.262404
26.31448	0.03911502	0.03116979	-0.5078136	-0.1450894	-8.533265	-2.11507
26.33076	0.02689158	0.03116978	-0.750598	-1.143784E-07	-7.327245	4.378803
26.34733	0.001222344	0.03361447	-1.549398	0.1475617	-24.31499	4.49169
26.36389	-0.06233957	0.05683902	-3.837488	1.40216	-69.06265	37.8682
26.38046	-0.110011	0.07150715	-2.877122	0.8852679	28.98559	-15.60072
26.45347	-0.1332356	0.07884122	-0.3181282	0.1004616	28.56884	-8.761648
26.47004	-0.149126	0.08739763	-0.9587088	0.5162278	-7.151043	4.641355
26.4866	-0.1601271	0.09839873	-0.6642578	0.6642573	8.886039	4.467282
26.50317	-0.17724	0.1179563	-1.032694	1.180223	-11.12007	15.57276
26.51974	-0.1857964	0.1289573	-0.516584	0.6641803	15.57624	-15.57418
26.5363	-0.2090209	0.1534042	-1.401998	1.475787	-26.72646	24.49857
26.55287	-0.2334678	0.1766288	-1.475617	1.401836	-2.221961	-2.231989
26.56944	-0.2542477	0.1925193	-1.25442	0.9592625	6.67612	-13.35765
26.58601	-0.2628041	0.2010757	-0.5162867	0.5162877	22.27435	-13.36747
26.60257	-0.2664711	0.2035204	-0.2214186	0.1476124	8.899137	-11.12664
26.61913	-0.2664711	0.2035204	0	0	6.683967	-4.455978
26.6357	-0.2664711	0.2035204	0	0	0	0
26.65227	-0.2664711	0.2035204	0	0	0	0
26.66883	-0.2664711	0.2035204	0	0	0	0
26.6854	-0.2664711	0.2035204	0	0	0	0
26.70236	-0.2664711	0.2035204	0	0	0	0
26.71853	-0.2579147	0.1766288	0.5289489	-1.662414	15.96463	-50.17463
26.7351	-0.2383572	0.1093998	1.180629	-4.058414	19.90378	-73.17922
26.75242	-0.2053539	-0.00550055	1.905853	-6.63519	21.40431	-76.05116
26.76823	-0.1711282	-0.1093998	2.164025	-6.569362	7.792082	1.986832
26.7848	-0.1442367	-0.1839629	1.623179	-4.500633	-16.70157	63.88325
26.80137	-0.1307909	-0.2255226	0.8115898	-2.508549	-24.4938	60.1212
26.81794	-0.1246791	-0.2524141	0.3688187	-1.622805	-13.36132	26.72874
26.8345	-0.1234568	-0.273194	0.07380711	-1.254707	-8.903979	11.10985
26.85801	-0.1234568	-0.2829728	0	-0.4159074	-1.841798	20.93159
26.87458	-0.1246791	-0.2866398	-0.07376419	-0.2212912	-1.840289	4.855339
26.89115	-0.1246791	-0.2866398	0	0	2.226079	6.678198
26.90802	-0.1246791	-0.2866398	0	0	0	0
26.92428	-0.1246791	-0.2866398	0	0	0	0
26.94085	-0.1246791	-0.2866398	0	0	0	0
26.95759	-0.1246791	-0.2866398	0	0	0	0
26.97418	-0.1246791	-0.2866398	0	0	0	0
26.99055	-0.1246791	-0.2866398	0	0	0	0
27.00711	-0.1246791	-0.2866398	0	0	0	0
27.02368	-0.1246791	-0.2866398	0	0	0	0
27.04025	-0.1246791	-0.2866398	0	0	0	0
27.05682	-0.1259015	-0.2866398	-0.07378118	0	-2.22672	0
27.07338	-0.1283462	-0.2854174	-0.1475614	0.07378072	-2.226693	2.226707
27.08995	-0.1344579	-0.2817504	-0.3688621	0.2213167	-6.678482	4.452388
27.10659	-0.1405696	-0.2780834	-0.3672546	0.2203546	0.04840053	-0.02896978
27.12308	-0.1466813	-0.2756387	-0.3706541	0.1482613	-0.1026078	-2.176031
27.14038	-0.1503484	-0.273194	-0.2120421	0.1413608	4.695029	-0.2042581
27.15622	-0.1552377	-0.2719716	-0.3086619	0.07716548	-2.915992	-1.93742
27.17279	-0.1637942	-0.269527	-0.5164065	0.1475445	-6.409957	2.171543
27.18941	-0.1686836	-0.2670823	-0.2941426	0.1470704	6.696374	-0.01428176
27.20629	-0.1699059	-0.2670823	-0.07239625	0	6.618032	-4.389324
27.22248	-0.1699059	-0.2670823	0	0	2.188829	0
27.23905	-0.1699059	-0.2670823	0	0	0	0
27.25567	-0.1699059	-0.2670823	0	0	0	0
27.27282	-0.1699059	-0.2670823	0	0	0	0
27.28875	-0.1699059	-0.2670823	0	0	0	0
27.3054	-0.1699059	-0.2670823	0	0	0	0
27.32189	-0.1699059	-0.2670823	0	0	0	0
27.33893	-0.1699059	-0.2670823	0	0	0	0
27.35502	-0.1699059	-0.2670823	0	0	0	0
27.37159	-0.1699059	-0.2670823	0	0	0	0
27.38851	-0.1699059	-0.2670823	0	0	0	0
27.40472	-0.1699059	-0.2670823	0	0	0	0
27.42129	-0.1699059	-0.2670823	0	0	0	0
27.43785	-0.1699059	-0.2670823	0	0	0	0
27.45444	-0.1699059	-0.2670823	0	0	0	0
27.47099	-0.1699059	-0.2670823	0	0	0	0
27.49605	-0.1686835	-0.2658599	0.04877224	0.04877283	1.172054	1.172068
27.51262	-0.1625718	-0.2621929	0.3688187	0.2212894	7.687214	4.143686
27.52921	-0.1601271	-0.2597482	0.1473579	0.1473579	-6.678319	-2.229462
27.54576	-0.152793	-0.2560812	0.4432986	0.2216502	8.931508	2.242146
27.56236	-0.1442367	-0.2487471	0.5152786	0.4416683	2.171363	6.637103
27.57889	-0.1332355	-0.2401907	0.6655608	0.517657	4.535526	2.293344
27.59546	-0.1149004	-0.2206332	1.10684	1.18063	13.33395	20.03279
27.6124	-0.1026769	-0.2059651	0.7212025	0.8654423	-11.50675	-9.404658
27.62859	-0.09412052	-0.1949639	0.5287628	0.6798394	-5.808511	-5.60215
27.64541	-0.0794524	-0.1741841	0.8716224	1.234798	10.38639	16.8116
27.66172	-0.06233957	-0.1558489	1.049608	1.12458	5.371925	-3.3266
27.67839	-0.04767144	-0.1387361	0.8797994	1.026433	-5.149437	-2.976304
27.69485	-0.03422565	-0.124068	0.8167613	0.891012	-1.902492	-4.087001
27.71142	-0.02566923	-0.1130669	0.5164661	0.6640279	-9.091713	-6.87215
27.72801	-0.01833517	-0.1057328	0.4421761	0.4421762	-2.240787	-6.691645
27.74455	-0.01589048	-0.1020658	0.1477318	0.2215973	-8.886347	-6.657084
27.76129	-0.01466813	-0.1008434	0.07305755	0.07305783	-2.243855	-4.463403
27.77788	-0.01466813	-0.1008434	0	0	-2.192387	-2.192396
27.79425	-0.01466813	-0.1008434	0	0	0	0
27.81082	-0.01466813	-0.1008434	0	0	0	0
27.82822	-0.01466813	-0.1008434	0	0	0	0
27.84401	-0.01466813	-0.1008434	0	0	0	0
27.86052	-0.01466813	-0.1008434	0	0	0	0
27.87784	-0.01466813	-0.1008434	0	0	0	0
27.89387	-0.01466813	-0.1008434	0	0	0	0
27.91028	-0.01466813	-0.09962107	5.67439E-08	0.07447568	1.749391E-06	2.296055
27.92682	-0.01344579	-0.09839873	0.07389989	0.07389984	2.242565	-0.01747469
27.94335	-0.01222344	-0.09839874	0.07393411	-4.506518E-07	0.001034458	-2.234431
27.95992	-0.01222344	-0.09839874	0	0	-2.23365	1.361481E-05
27.97649	-0.01222344	-0.09839874	0	0	0	0
27.99306	-0.01222344	-0.09839874	0	0	0	0
28.00962	-0.01222344	-0.09839874	0	0	0	0
28.02671	-0.01222344	-0.09839874	0	0	0	0
28.0429	-0.01222344	-0.09839874	0	0	0	0
28.05932	-0.01222344	-0.09717639	0	0.07444108	0	2.282906
28.07589	-0.01222344	-0.09595405	0	0.07378072	0	-0.02001843
28.09246	-0.0110011	-0.0947317	0.07378083	0.07378072	2.22671	0
28.10902	-0.0110011	-0.0947317	0	0	-2.22671	-2.226707
28.12559	-0.0110011	-0.0947317	0	0	0	0
28.14216	-0.0110011	-0.0947317	0	0	0	0
28.16664	-0.0110011	-0.0947317	0	0	0	0
28.18321	-0.0110011	-0.0947317	0	0	0	0
28.19978	-0.0110011	-0.0947317	0	0	0	0
28.21659	-0.0110011	-0.0947317	0	0	0	0
28.23291	-0.0110011	-0.0947317	0	0	0	0
28.24981	-0.0110011	-0.0947317	0	0	0	0
28.26621	-0.0110011	-0.09350935	5.677689E-08	0.07451899	1.704894E-06	2.237652
28.28261	-0.0110011	-0.092287	0	0.07455366	-1.731068E-06	0.001057204
28.29922	-0.0110011	-0.092287	0	0	0	-2.258484
28.31574	-0.0110011	-0.092287	0	0	0	0
28.33276	-0.0110011	-0.092287	0	0	0	0
28.34888	-0.0110011	-0.092287	0	0	0	0
28.36544	-0.0110011	-0.092287	0	0	0	0
28.38225	-0.0110011	-0.092287	0	0	0	0
28.39861	-0.0110011	-0.092287	0	0	0	0
28.4152	-0.0110011	-0.092287	0	0	0	0
28.43205	-0.0110011	-0.092287	0	0	0	0
28.44828	-0.0110011	-0.092287	0	0	0	0
28.46485	-0.0110011	-0.092287	0	0	0	0
28.48141	-0.0110011	-0.092287	0	0	0	0
28.49798	-0.0110011	-0.092287	0	0	0	0
28.51455	-0.009778756	-0.09106466	0.07378083	0.07378072	2.22671	2.226707
28.53196	-0.008556412	-0.08861998	0.07022358	0.1404469	-0.1047062	1.962289
28.54769	-0.008556412	-0.08739763	0	0.07770818	-2.11923	-1.89335
28.56425	-0.008556412	-0.08617529	0	0.07379816	0	-0.1210783
28.58082	-0.008556412	-0.08617529	0	0	0	-2.227489
28.59738	-0.007334067	-0.0837306	0.07378939	0.1475784	2.227096	4.454182
28.61395	-0.007334067	-0.0837306	0	0	-2.227225	-4.454439
28.63051	-0.006111722	-0.08250825	0.07378083	0.07378118	2.226838	2.226849
28.64708	-0.006111722	-0.08128591	0	0.07378072	-2.22671	-1.37164E-05
28.66365	-0.004889378	-0.07761887	0.07378086	0.2213426	2.226711	4.453427
28.68022	-0.003667034	-0.07639653	0.07377234	0.07377223	-0.0002572238	-4.453427
28.69678	-0.003667034	-0.07395184	1.405692E-08	0.1475959	-2.226581	2.228131
28.71335	-0.001222345	-0.07028481	0.1475447	0.2213167	4.453165	2.225027
28.72992	-0.001222344	-0.06661778	7.026843E-09	0.2213426	-4.452652	0.0007824642
28.74648	0	-0.06417309	0.07379785	0.1475959	2.22748	-2.225937
28.76305	0.001222345	-0.05806136	0.07377237	0.3688621	-0.000769062	6.678211
28.77962	0.002444689	-0.05439433	0.07378934	0.2213679	0.0005122288	-4.451383
28.79618	0.004889378	-0.04828261	0.1475617	0.3689043	2.226583	4.452914
28.81275	0.007334067	-0.04461557	0.1475447	0.2213171	-0.0005121992	-4.453933
28.8326	0.008556412	-0.04094854	0.0615916	0.1847748	-2.360371	-1.003494
28.84917	0.01222345	-0.03361448	0.2212917	0.4425831	4.385316	7.079338
28.86574	0.01222345	-0.03361448	0	0	-6.677827	-13.35565
28.88237	0.01222344	-0.03239213	-5.598914E-08	0.07348485	-1.686358E-06	2.213318
28.89887	0.01344579	-0.03116979	0.07408796	0.0740879	2.236109	0.01820136
28.91544	0.01466813	-0.03116979	0.07378089	-1.124295E-07	-0.009286357	-2.240624
28.932	0.01589048	-0.0287251	0.07378934	0.1475789	0.0002547799	4.4542
28.94872	0.01589048	-0.02750275	-1.114289E-07	0.07312419	-2.217143	-2.237132
28.96513	0.01589048	-0.02750275	0	0	3.363123E-06	-2.207019
28.9817	0.01589048	-0.02750275	0	0	0	0
28.99911	0.01711282	-0.02505806	0.07023138	0.1404625	2.067228	4.13445
29.01484	0.01833517	-0.02505806	0.07771772	1.184286E-07	0.2259513	-4.239408
29.0314	0.01833517	-0.02505806	0	0	-2.406477	-3.667063E-06
29.0488	0.01833517	-0.02505806	0	0	0	0
29.06454	0.01833517	-0.02505806	0	0	0	0
29.08145	0.01955751	-0.02383572	0.07228303	0.07228281	2.214264	2.214257
29.09792	0.01955751	-0.02261337	-1.130412E-07	0.07418235	-2.164935	0.0568929
29.11423	0.01955751	-0.02261337	0	0	3.447509E-06	-2.2624
29.1309	0.01955751	-0.02261337	0	0	0	0
29.14737	0.01955751	-0.02261337	0	0	0	0
29.16446	0.01955751	-0.02261337	0	0	0	0
29.1805	0.01955751	-0.02261337	0	0	0	0
29.19707	0.02077986	-0.02139103	0.07378083	0.07378083	2.262658	2.262658
29.21363	0.02077986	-0.02139103	0	0	-2.22671	-2.22671
29.2302	0.02077986	-0.02139103	0	0	0	0
29.24677	0.02077986	-0.02139103	0	0	0	0
29.26333	0.02077986	-0.02139103	0	0	0	0
29.2799	0.02077986	-0.02139103	0	0	0	0
29.29655	0.02077986	-0.02139103	0	0	0	0
29.31303	0.02077986	-0.02139103	0	0	0	0
29.3296	0.02077986	-0.02139103	0	0	0	0
29.34617	0.02077986	-0.02139103	0	0	0	0
29.36273	0.02077986	-0.02139103	0	0	0	0
29.3793	0.02077986	-0.02139103	0	0	0	0
29.39587	0.02077986	-0.02139103	0	0	0	0
29.41244	0.02077986	-0.02139103	0	0	0	0
29.429	0.02077986	-0.02139103	0	0	0	0
29.44596	0.02077986	-0.02139103	0	0	0	0
29.46227	0.02077986	-0.02139103	0	0	0	0
29.4787	0.02077986	-0.02139103	0	0	0	0
29.49527	0.02077986	-0.02139103	0	0	0	0
29.51209	0.02077986	-0.02139103	0	0	0	0
29.5284	0.02077986	-0.02139103	0	0	0	0
29.54497	0.02077986	-0.02139103	0	0	0	0
29.56155	0.02077986	-0.02139103	0	0	0	0
29.5781	0.02077986	-0.02139103	0	0	0	0
29.59473	0.02077986	-0.02139103	0	0	0	0
29.61124	0.02077986	-0.02139103	0	0	0	0
29.6278	0.02077986	-0.02139103	0	0	0	0
29.64442	0.02077986	-0.02139103	0	0	0	0
29.6613	0.02077986	-0.02139103	0	0	0	0
29.67761	0.02077986	-0.02139103	0	0	0	0
29.69407	0.02077986	-0.02139103	0	0	0	0
29.71072	0.02077986	-0.02139103	0	0	0	0
29.7272	0.02077986	-0.02139103	0	0	0	0
29.74377	0.02077986	-0.02139103	0	0	0	0
29.76067	0.02077986	-0.02139103	0	0	0	0
29.77691	0.02077986	-0.02139103	0	0	0	0
29.79375	0.02077986	-0.02139103	0	0	0	0
29.81004	0.02077986	-0.02139103	0	0	0	0
29.8266	0.02077986	-0.02139103	0	0	0	0
29.84317	0.02077986	-0.02139103	0	0	0	0
29.85974	0.02077986	-0.02139103	0	0	0	0
29.8763	0.02077986	-0.02139103	0	0	0	0
29.89287	0.02077986	-0.02139103	0	0	0	0
29.90944	0.02077986	-0.02139103	0	0	0	0
29.926	0.02077986	-0.02139103	0	0	0	0
29.94279	0.02077986	-0.02139103	0	0	0	0
29.95914	0.02077986	-0.02139103	0	0	0	0
29.97579	0.02077986	-0.02139103	0	0	0	0
29.99227	0.02077986	-0.02139103	0	0	0	0
30.00884	0.02077986	-0.02139103	0	0	0	0
30.02541	0.02077986	-0.02139103	0	0	0	0
30.04197	0.02077986	-0.02139103	0	0	0	0
30.05854	0.02077986	-0.02139103	0	0	0	0
30.07514	0.02077986	-0.02139103	0	0	0	0
30.0919	0.02077986	-0.02139103	0	0	0	0
30.10824	0.02077986	-0.02139103	0	0	0	0
30.1248	0.02077986	-0.02139103	0	0	0	0
30.14185	0.02077986	-0.02139103	0	0	0	0
30.15794	0.02077986	-0.02139103	0	0	0	0
30.17451	0.02077986	-0.02139103	0	0	0	0
30.19124	0.02077986	-0.02139103	0	0	0	0
30.20764	0.02077986	-0.02139103	0	0	0	0
30.22439	0.02077986	-0.02139103	0	0	0	0
30.24077	0.02077986	-0.02139103	0	0	0	0
30.25767	0.02077986	-0.02139103	0	0	0	0
30.27437	0.02077986	-0.02139103	0	0	0	0
30.29047	0.02077986	-0.02139103	0	0	0	0
30.30798	0.02077986	-0.02139103	0	0	0	0
30.32365	0.02077986	-0.02139103	0	0	0	0
30.34053	0.02077986	-0.02139103	0	0	0	0
30.35689	0.02077986	-0.02139103	0	0	0	0
30.3733	0.02077986	-0.02139103	0	0	0	0
30.38991	0.02077986	-0.02139103	0	0	0	0
30.40644	0.02077986	-0.02139103	0	0	0	0
30.42301	0.02077986	-0.02139103	0	0	0	0
30.43995	0.02077986	-0.02139103	0	0	0	0
30.45614	0.02077986	-0.02139103	0	0	0	0
30.47271	0.02077986	-0.02139103	0	0	0	0
30.51884	0.02077986	-0.02139103	0	0	0	0
30.53541	0.02077986	-0.02139103	0	0	0	0
30.55198	0.02077986	-0.02139103	0	0	0	0
30.56854	0.02077986	-0.02139103	0	0	0	0
30.58512	0.02077986	-0.02139103	0	0	0	0
30.60187	0.02077986	-0.02139103	0	0	0	0
30.61824	0.02077986	-0.02139103	0	0	0	0
30.63481	0.02077986	-0.02139103	0	0	0	0
30.65137	0.02077986	-0.02139103	0	0	0	0
30.66853	0.02077986	-0.02139103	0	0	0	0
30.68451	0.02077986	-0.02016868	0	0.07649324	0	2.308703
30.70143	0.02689158	-0.01405696	0.3611704	0.3611703	10.97723	8.652334
30.71776	0.03667033	-0.001833517	0.5987951	0.748494	7.146025	11.64788
30.73421	0.04889378	0.01283462	0.7431126	0.8917355	4.40265	4.369825
30.75146	0.06478426	0.04094854	0.921286	1.629967	5.287496	21.90785
30.76734	0.08189708	0.07395184	1.077335	2.077718	4.709841	13.51392
30.78391	0.1014546	0.1191786	1.180222	2.729263	3.170086	20.07508
30.80652	0.113678	0.1485149	0.5406737	1.297617	-16.32381	-36.54131
30.82309	0.152793	0.2071874	2.360715	3.541073	46.45696	57.26471
30.83965	0.152793	0.2071874	0	0	-71.24243	-106.8637
30.85622	0.1637942	0.2243002	0.6640283	1.032933	20.04041	31.17398
30.87286	0.1686835	0.2304119	0.2939385	0.3674231	-11.14688	-20.04474
30.88936	0.1711282	0.234079	0.1481594	0.2222386	-4.399623	-4.381678
30.90592	0.1723506	0.2365237	0.07378922	0.1475793	-2.249156	-2.2579
30.92249	0.1760176	0.2450801	0.2213431	0.5164651	4.453441	11.13363
30.93905	0.1760176	0.2450801	0	0	-6.680532	-15.58784
30.95562	0.1760176	0.2450801	0	0	0	0
30.97221	0.1760176	0.2450801	0	0	0	0
30.98875	0.1674612	0.2365237	-0.5172998	-0.5172998	-15.61304	-15.61304
31.00532	0.1173451	0.1570713	-3.025016	-4.795756	-75.74405	-129.2282
31.02189	0.03789268	0.03116978	-4.795756	-7.599428	-53.44106	-84.61498
31.03846	-0.03422565	-0.06784012	-4.353071	-5.97625	13.36028	48.98763
31.05502	-0.07578537	-0.1204009	-2.50855	-3.172577	55.66775	84.615
31.07159	-0.09534288	-0.1485149	-1.180494	-1.69696	40.08081	44.53423
31.08816	-0.1124557	-0.1717394	-1.03305	-1.401997	4.450107	8.90251
31.10472	-0.1271238	-0.198631	-0.8853705	-1.62318	4.457245	-6.675688
31.12129	-0.1466813	-0.2279672	-1.180357	-1.770536	-8.902212	-4.44698
31.13786	-0.1662388	-0.2548588	-1.180493	-1.623179	-0.004101192	4.447008
31.15443	-0.1857964	-0.2829728	-1.180493	-1.69696	0	-2.226733
31.17099	-0.1955751	-0.2951962	-0.5903835	-0.737979	17.8116	28.94544
31.18756	-0.2016868	-0.3000856	-0.3689045	-0.2951229	6.685019	13.36696
31.20412	-0.2053539	-0.3025303	-0.2213668	-0.1475784	4.452955	4.453157
31.22069	-0.2102432	-0.3049749	-0.2951578	-0.1475784	-2.227274	0
31.2378	-0.2139103	-0.308642	-0.2143351	-0.214336	2.400134	-1.982451
31.25382	-0.2175773	-0.3135314	-0.2288248	-0.3050985	-0.4372994	-2.739218
31.27039	-0.2187997	-0.3159761	-0.07378072	-0.1475614	4.757008	4.833496
31.28706	-0.220022	-0.3159761	-0.07333326	0	0.01346328	4.439868
31.30352	-0.220022	-0.3159761	0	0	2.213202	0
31.32014	-0.220022	-0.3159761	0	0	0	0
31.33666	-0.2187997	-0.3159761	0.07399369	0	2.233263	0
31.35322	-0.2187997	-0.3159761	0	0	-2.236352	0
31.36993	-0.2175773	-0.3159761	0.07315657	0	2.198505	0
31.38636	-0.216355	-0.3159761	0.07441651	0	0.038025	0
31.40305	-0.2151326	-0.3159761	0.07324855	0	-0.03527145	0
31.41949	-0.2090209	-0.3110867	0.3715998	0.2972791	9.004258	8.971901
31.43606	-0.1980198	-0.2964185	0.6640274	0.8853705	8.857606	17.81323
31.45263	-0.1637942	-0.2524141	2.065864	2.656111	42.30751	53.44107
31.46919	-0.1552378	-0.2389683	0.516466	0.8115898	-46.76092	-55.66778
31.48605	-0.1393473	-0.2071874	0.9427629	1.885523	12.7548	32.13208
31.50294	-0.1234568	-0.1717394	0.9407389	2.098573	-0.05997428	6.313196
31.51895	-0.1014546	-0.1191786	1.374583	3.283723	13.18756	36.02505
31.53547	-0.07211833	-0.06784011	1.776056	3.1081	12.34389	-5.399785
31.55242	-0.05256081	-0.03239213	1.153794	2.091252	-18.59261	-30.38247
31.5686	-0.03178095	-0.00550055	1.284138	1.661826	3.934021	-12.96085
31.58517	-0.02444689	0.00550055	0.442583	0.6638749	-25.694	-30.469
31.60194	-0.0220022	0.007945239	0.1457331	0.1457329	-8.902067	-15.53827
31.6183	-0.01833517	0.01038993	0.22426	0.1495067	2.370492	0.1139213
31.63486	-0.01833517	0.01038993	0	0	-6.812889	-4.541927
31.65143	-0.01833517	0.01038993	0	0	0	0
31.668	-0.01833517	0.01038993	0	0	0	0
31.68457	-0.01833517	0.01038993	0	0	0	0
31.70145	-0.01833517	0.01038993	0	0	0	0
31.7177	-0.01833517	0.01038993	0	0	0	0
31.73483	-0.01833517	0.01038993	0	0	0	0
31.75083	-0.01833517	0.01038993	0	0	0	0
31.7674	-0.01833517	0.01038993	0	0	0	0
31.78396	-0.01833517	0.01038993	0	0	0	0
31.80053	-0.01833517	0.01038993	0	0	0	0
31.81719	-0.01833517	0.01038993	0	0	0	0
31.83383	-0.01833517	0.01038993	0	0	0	0
31.85023	-0.01833517	0.01038993	0	0	0	0
31.86724	-0.01833517	0.01038993	0	0	0	0
31.88337	-0.01833517	0.01038993	0	0	0	0
31.89993	-0.01833517	0.01038993	0	0	0	0
31.91671	-0.01833517	0.01038993	0	0	0	0
31.93307	-0.01833517	0.01038993	0	0	0	0
31.94963	-0.01833517	0.01038993	0	0	0	0
31.96673	-0.01833517	0.01038993	0	0	0	0
31.98324	-0.01833517	0.01038993	0	0	0	0
31.99933	-0.01833517	0.01038993	0	0	0	0
32.0159	-0.01833517	0.01038993	0	0	0	0
32.03247	-0.01833517	0.01038993	0	0	0	0
32.04913	-0.01833517	0.01038993	0	0	0	0
32.06579	-0.01833517	0.01038993	0	0	0	0
32.08262	-0.01833517	0.01038993	0	0	0	0
32.11195	-0.01833517	0.01038993	0	0	0	0
32.12852	-0.01833517	0.01038993	0	0	0	0
32.14509	-0.01833517	0.01038993	0	0	0	0
32.16171	-0.01833517	0.01038993	0	0	0	0
32.17822	-0.01833517	0.01038993	0	0	0	0
32.19479	-0.01833517	0.01038993	0	0	0	0
32.21135	-0.01833517	0.01038993	0	0	0	0
32.22812	-0.01833517	0.01038993	0	0	0	0
32.24471	-0.01833517	0.01038993	0	0	0	0
32.26105	-0.01833517	0.01038993	0	0	0	0
32.27762	-0.01833517	0.01038993	0	0	0	0
32.29419	-0.01833517	0.01038993	0	0	0	0
32.31101	-0.01833517	0.01038993	0	0	0	0
32.32732	-0.01833517	0.01038993	0	0	0	0
32.34415	-0.01833517	0.01038993	0	0	0	0
32.36046	-0.01833517	0.01038993	0	0	0	0
32.37757	-0.01833517	0.01038993	0	0	0	0
32.39359	-0.01833517	0.01038993	0	0	0	0
32.41015	-0.01833517	0.01038993	0	0	0	0
32.42714	-0.01833517	0.01038993	0	0	0	0
32.44329	-0.01833517	0.01038993	0	0	0	0
32.45985	-0.01833517	0.01038993	0	0	0	0
32.47642	-0.01833517	0.01038993	0	0	0	0
32.49299	-0.01833517	0.01038993	0	0	0	0
32.50972	-0.01833517	0.01038993	0	0	0	0
32.52624	-0.01833517	0.01038993	0	0	0	0
32.54269	-0.01833517	0.01038993	0	0	0	0
32.55926	-0.01833517	0.01038993	0	0	0	0
32.57599	-0.01833517	0.01038993	0	0	0	0
32.59239	-0.01833517	0.01038993	0	0	0	0
32.60896	-0.01833517	0.01038993	0	0	0	0
32.62553	-0.01833517	0.01038993	0	0	0	0
32.64221	-0.01833517	0.01038993	0	0	0	0
32.65929	-0.01833517	0.01038993	0	0	0	0
32.67563	-0.01833517	0.01038993	0	0	0	0
32.6921	-0.01833517	0.01038993	0	0	0	0
32.70836	-0.01833517	0.01038993	0	0	0	0
32.72509	-0.01833517	0.01038993	0	0	0	0
32.74149	-0.01833517	0.01038993	0	0	0	0
32.75811	-0.01833517	0.01038993	0	0	0	0
32.77463	-0.01833517	0.01038993	0	0	0	0
32.79119	-0.01833517	0.01038993	0	0	0	0
32.80776	-0.01833517	0.01038993	0	0	0	0
32.82466	-0.01833517	0.01038993	0	0	0	0
32.8409	-0.01833517	0.01038993	0	0	0	0
32.85746	-0.01833517	0.01038993	0	0	0	0
32.87403	-0.01833517	0.01038993	0	0	0	0
32.8906	-0.01833517	0.01038993	0	0	0	0
32.90783	-0.01833517	0.01038993	0	0	0	0
32.92373	-0.01833517	0.01038993	0	0	0	0
32.94072	-0.01833517	0.01038993	0	0	0	0
32.95722	-0.01833517	0.01038993	0	0	0	0
32.97343	-0.01466813	0.01038993	0.2262392	5.745837E-08	6.916298	1.756544E-06
32.99	-0.0110011	0.00794524	0.2213426	-0.1475617	-0.1493968	-4.502146
33.00658	-0.007334067	0.006722894	0.2211898	-0.07372999	-0.004610265	2.227477
33.02326	-0.004889378	0.00550055	0.1465494	-0.07327465	-2.244127	0.01369024
33.03978	-0.004889378	0.004278206	0	-0.07396821	-4.413216	-0.02088599
33.05626	-0.004889378	0.004278206	0	0	0	2.241138
33.07283	-0.003667033	0.004278206	0.07376391	0	2.231852	0
33.08981	-0.002444689	0.004278206	0.07200679	0	-0.05237858	0
33.10597	-0.001222344	0.004278206	0.07564454	0	0.1097874	0
33.12286	-0.001222344	0.003055861	0	-0.07238092	-2.289018	-2.19026
33.13944	0	0.003055861	0.07371297	0	2.202349	2.162551
33.15566	0	0.003055861	0	0	-2.246908	0
33.17223	0	0.003055861	0	0	0	0
33.18882	0	0.003055861	0	0	0	0
33.20583	0	0.003055861	0	0	0	0
33.22234	0	0.003055861	0	0	0	0
33.23849	0	0.003055861	0	0	0	0
33.25506	0	0.003055861	0	0	0	0
33.27163	0	0.003055861	0	0	0	0
33.28819	0	0.003055861	0	0	0	0
33.30478	0.001222344	0.003055861	0.07367907	0	2.222104	0
33.32133	0.001222344	0.003055861	0	0	-2.223639	0
33.33814	0.001222344	0.003055861	0	0	0	0
33.35471	0.001222344	0.003055861	0	0	0	0
33.37159	0.001222344	0.003055861	0	0	0	0
33.38784	0.001222344	0.003055861	0	0	0	0
33.40441	0.001222344	0.003055861	0	0	0	0
33.42125	0.001222344	0.001833517	0	-0.07257764	0	-2.17239
33.4376	0.001222344	0.001833517	0	0	0	2.186873
33.45415	0.001222344	0.001833517	0	0	0	0
33.47068	0.001222344	0.001833517	0	0	0	0
33.48727	0.001222344	0.001833517	0	0	0	0
33.50381	0.001222344	0.001833517	0	0	0	0
33.52038	0.001222344	0.001833517	0	0	0	0
33.53695	0.001222344	0.001833517	0	0	0	0
33.55351	0.001222344	0.001833517	0	0	0	0
33.57008	0.001222344	0.001833517	0	0	0	0
33.58672	0.001222344	0.001833517	0	0	0	0
33.60322	0.001222344	0.001833517	0	0	0	0
33.61978	0.001222344	0.001833517	0	0	0	0
33.63689	0.001222344	0.001833517	0	0	0	0
33.65291	0.001222344	0.001833517	0	0	0	0
33.66948	0.001222344	0.001833517	0	0	0	0
33.68617	0.001222344	0.001833517	0	0	0	0
33.70269	0.001222344	0.001833517	0	0	0	0
33.71926	0.002444689	0.001833517	0.07376388	0	2.229278	0
33.73574	0.003667033	-0.0006111722	0.07413934	-0.1482787	0.01135769	-4.485388
33.75264	0.004889378	-0.001833517	0.07234823	-0.07234823	-0.05365436	2.274565
33.76888	0.006111722	-0.003055861	0.07527139	-0.07527138	0.08822117	-0.08822095
33.78548	0.008556412	-0.00550055	0.1472227	-0.1472227	2.190664	-2.190663
33.80268	0.0110011	-0.006722895	0.1421607	-0.07108039	-0.1497547	2.252596
33.81858	0.01344579	-0.01038993	0.1537942	-0.2306914	0.3515436	-4.823176
33.83514	0.01589048	-0.01161227	0.1475617	-0.07378083	-0.1919878	4.833508
33.8518	0.01711282	-0.01405696	0.07340909	-0.146818	-2.232275	-2.198698
33.86828	0.01955751	-0.01527931	0.1483131	-0.07415649	2.260607	2.192929
33.88485	0.02077986	-0.01650165	0.07374676	-0.07374687	-2.25561	0.0123906
33.90141	0.0220022	-0.01650165	0.07383195	-1.125072E-07	0.002571333	2.225938
33.91798	0.02322455	-0.01650165	0.07374687	1.123777E-07	-0.00256796	6.787822E-06
33.93455	0.02322455	-0.01772399	0	-0.07379783	-2.225429	-2.22697
33.95111	0.02444689	-0.01772399	0.07379794	0	2.227739	2.227736
33.96794	0.02444689	-0.01894634	-1.106963E-07	-0.07264343	-2.210181	-2.175601
33.98425	0.02444689	-0.01894634	0	0	3.34082E-06	2.192383
34.00081	0.02444689	-0.01894634	0	0	0	0
34.01748	0.02444689	-0.01894634	0	0	0	0
34.03395	0.02444689	-0.01894634	0	0	0	0
34.05067	0.02444689	-0.01894634	0	0	0	0
34.06749	0.02444689	-0.01894634	0	0	0	0
34.08364	0.02444689	-0.01894634	0	0	0	0
34.1005	0.02444689	-0.01894634	0	0	0	0
34.11695	0.02444689	-0.01894634	0	0	0	0
34.13334	0.02444689	-0.01894634	0	0	0	0
34.14991	0.02444689	-0.01894634	0	0	0	0
34.16664	0.02444689	-0.01894634	0	0	0	0
34.18304	0.02444689	-0.01894634	0	0	0	0
34.19987	0.02444689	-0.01894634	0	0	0	0
34.21618	0.02444689	-0.01894634	0	0	0	0
34.2331	0.02444689	-0.01894634	0	0	0	0
34.24931	0.02444689	-0.01894634	0	0	0	0
34.26588	0.02444689	-0.01894634	0	0	0	0
34.28244	0.02444689	-0.01894634	0	0	0	0
34.29901	0.02444689	-0.01894634	0	0	0	0
34.31567	0.02444689	-0.01894634	0	0	0	0
34.33215	0.02444689	-0.01894634	0	0	0	0
34.34871	0.02444689	-0.01894634	0	0	0	0
34.36528	0.02444689	-0.01894634	0	0	0	0
34.38186	0.02444689	-0.01894634	0	0	0	0
34.39853	0.02444689	-0.01894634	0	0	0	0
34.415	0.02444689	-0.01894634	0	0	0	0
34.43209	0.02444689	-0.01894634	0	0	0	0
34.44811	0.02444689	-0.01894634	0	0	0	0
34.46468	0.02444689	-0.01894634	0	0	0	0
34.48125	0.02444689	-0.01894634	0	0	0	0
34.49781	0.02444689	-0.01894634	0	0	0	0
34.51438	0.02444689	-0.01894634	0	0	0	0
34.53095	0.02444689	-0.01894634	0	0	0	0
34.54759	0.02444689	-0.01894634	0	0	0	0
34.60038	0.02444689	-0.01894634	0	0	0	0
34.61695	0.02444689	-0.01894634	0	0	0	0
34.63352	0.02444689	-0.01894634	0	0	0	0
34.6502	0.02444689	-0.01894634	0	0	0	0
34.66665	0.02444689	-0.01894634	0	0	0	0
34.68321	0.02444689	-0.01894634	0	0	0	0
34.69978	0.02444689	-0.01894634	0	0	0	0
34.71635	0.02444689	-0.01894634	0	0	0	0
34.733	0.02444689	-0.01894634	0	0	0	0
34.74948	0.02444689	-0.01894634	0	0	0	0
34.76605	0.02444689	-0.01894634	0	0	0	0
34.78262	0.02444689	-0.01894634	0	0	0	0
34.79918	0.02444689	-0.01894634	0	0	0	0
34.81575	0.02444689	-0.01894634	0	0	0	0
34.83232	0.02566923	-0.02016868	0.07378083	-0.07378083	2.226454	-2.226454
34.84888	0.02566924	-0.02261337	1.124554E-07	-0.1475959	-2.226963	-2.227999
34.86545	0.02811392	-0.02750275	0.1475617	-0.2951233	4.453929	-4.4529
34.88202	0.03055861	-0.03361448	0.1475618	-0.3689044	3.597743E-06	-2.226717
34.89859	0.0330033	-0.03728151	0.1475616	-0.2213424	-6.745769E-06	4.45343
34.91605	0.03789268	-0.04583792	0.2800353	-0.4900618	3.893184	-7.897217
34.932	0.04644909	-0.05439433	0.5362208	-0.5362208	7.666381	-1.381316
34.94829	0.05989488	-0.06539543	0.8256576	-0.6755381	8.977059	-4.32101
34.96505	0.06967364	-0.0727295	0.5835294	-0.4376467	-7.327692	7.199468
34.98142	0.07211833	-0.0727295	0.1493149	0	-13.10613	13.20973
34.99799	0.07823005	-0.07639652	0.3689041	-0.2213422	6.666358	-6.719574
35.01455	0.08556411	-0.07761887	0.4426852	-0.07378118	2.22672	4.4534
35.03164	0.08923115	-0.07761887	0.2145739	0	-6.777516	2.192145
35.04769	0.0904535	-0.07761888	0.07618441	-4.643664E-07	-4.176602	-1.401461E-05
35.06425	0.0904535	-0.07761888	0	0	-2.336096	1.423919E-05
35.08082	0.0904535	-0.07761888	0	0	0	0
35.09739	0.0904535	-0.07761888	0	0	0	0
35.11396	0.0904535	-0.07761888	0	0	0	0
35.13052	0.0904535	-0.07761888	0	0	0	0
35.14709	0.0904535	-0.07761888	0	0	0	0
35.16366	0.0904535	-0.07761888	0	0	0	0
35.18023	0.0904535	-0.07761888	0	0	0	0
35.19691	0.0904535	-0.07761888	0	0	0	0
35.21338	0.0904535	-0.07761888	0	0	0	0
35.22993	0.0904535	-0.07761888	0	0	0	0
35.24649	0.0904535	-0.07761888	0	0	0	0
35.26319	0.0904535	-0.07761888	0	0	0	0
35.27963	0.0904535	-0.07761888	0	0	0	0
35.29629	0.0904535	-0.07761888	0	0	0	0
35.31337	0.09534287	-0.08006357	0.2862262	-0.1431129	8.483038	-4.241512
35.32932	0.110011	-0.08739763	0.9196752	-0.4598379	19.17714	-9.588586
35.34591	0.141792	-0.1069551	1.916096	-1.179136	30.6256	-22.10806
35.36282	0.2016868	-0.1472925	3.541066	-2.3848	48.50559	-35.98925
35.37902	0.2750275	-0.1827405	4.527983	-2.188524	29.80581	5.927714
35.39559	0.3581469	-0.2145215	5.017098	-1.918302	14.92824	8.247406
35.41507	0.3667033	-0.2169661	0.4392026	-0.1254865	-126.9913	49.7329
35.43164	0.369148	-0.2169661	0.1475614	0	-8.090158	3.481008
35.4482	0.369148	-0.2169661	0	0	-4.453413	0
35.46477	0.369148	-0.2169661	0	0	0	0
35.48144	0.369148	-0.2169661	0	0	0	0
35.49791	0.369148	-0.2169661	0	0	0	0
35.51447	0.369148	-0.2169661	0	0	0	0
35.53172	0.369148	-0.2169661	0	0	0	0
35.54784	0.369148	-0.2169661	0	0	0	0
35.56417	0.369148	-0.2169661	0	0	0	0
35.58075	0.369148	-0.2169661	0	0	0	0
35.59731	0.369148	-0.2169661	0	0	0	0
35.61387	0.369148	-0.2169661	0	0	0	0
35.63044	0.369148	-0.2169661	0	0	0	0
35.64724	0.369148	-0.2169661	0	0	0	0
35.66357	0.369148	-0.2169661	0	0	0	0
35.68014	0.369148	-0.2169661	0	0	0	0
35.69718	0.369148	-0.2169661	0	0	0	0
35.71342	0.3679257	-0.2169662	-0.07525357	-9.173908E-07	-2.261005	-2.756315E-05
35.72984	0.3667033	-0.2157438	-0.07444928	0.07444928	0.02462507	2.279453
35.74641	0.365481	-0.2145215	-0.07378072	0.07378162	0.02026805	-0.02024072
35.76297	0.3605916	-0.2108544	-0.2951909	0.2213932	-6.682941	4.455438
35.77954	0.3495905	-0.198631	-0.6640265	0.7378091	-11.13276	15.58726
35.7961	0.3410341	-0.1925192	-0.5164669	0.3689045	4.453359	-11.13356
35.81267	0.3251436	-0.1790735	-0.9591512	0.8115889	-13.36024	13.36024
35.82924	0.294585	-0.1509595	-1.844522	1.69696	-26.72054	26.72056
35.84591	0.2713605	-0.1338467	-1.392857	1.026315	13.58746	-20.17507
35.86271	0.2505806	-0.1167339	-1.23718	1.018856	4.651225	-0.2228673
35.87894	0.2310231	-0.1008434	-1.205192	0.9792176	0.9686417	-1.200286
35.89606	0.2151326	-0.08739763	-0.9281635	0.785369	8.307179	-5.812886
35.91207	0.2029092	-0.08006357	-0.7632931	0.4579752	4.975796	-9.880765
35.92897	0.1955751	-0.07395184	-0.4339897	0.3616597	10.00521	-2.92635
35.94544	0.1894634	-0.07028481	-0.3711272	0.2226757	1.883962	-4.165292
35.96177	0.1857964	-0.06661778	-0.2245478	0.2245478	4.469053	0.05707768
35.97843	0.1833517	-0.06295075	-0.1467178	0.2200758	2.358963	-0.1355427
35.99495	0.1796846	-0.06050605	-0.222058	0.1480393	-2.270896	-2.171314
36.01147	0.1760176	-0.05928371	-0.2218539	0.073951	0.006176403	-2.242186
36.02804	0.1723506	-0.05561667	-0.2213932	0.2213936	0.01392336	4.455469
36.04461	0.1686835	-0.05317198	-0.2213422	0.1475617	0.001538662	-2.228509
36.06128	0.1637942	-0.05072729	-0.2933004	0.1466502	-2.164973	-0.0274231
36.07778	0.1515707	-0.04339323	-0.7405363	0.4443217	-13.48054	8.972382
36.09431	0.1356802	-0.03361448	-0.9615867	0.5917457	-6.692116	4.463137
36.11106	0.1112333	-0.01894634	-1.459487	0.875692	-14.96292	8.533169
36.12746	0.08923115	-0.00550055	-1.341024	0.8195148	3.572754	-1.694261
36.14438	0.07089598	0.003055861	-1.083755	0.5057524	7.719941	-9.41517
36.16057	0.05989488	0.009167584	-0.6795174	0.3775097	12.20976	-3.873494
36.17807	0.0550055	0.01161227	-0.2794246	0.1397124	11.87656	-7.058901
36.19371	0.05378316	0.01161227	-0.07817265	0	6.073796	-4.216527
36.21027	0.05378316	0.01161227	0	0	2.427445	0
36.22763	0.05378316	0.01161227	0	0	0	0
36.2434	0.05378316	0.01161227	0	0	0	0
36.25997	0.05378316	0.01161227	0	0	0	0
36.2774	0.05378316	0.01161227	0	0	0	0
36.2931	0.05378316	0.01161227	0	0	0	0
36.30967	0.05378316	0.01161227	0	0	0	0
36.32624	0.05378316	0.01161227	0	0	0	0
36.3428	0.05378316	0.01161227	0	0	0	0
36.35937	0.05378316	0.01161227	0	0	0	0
36.37594	0.05378316	0.01161227	0	0	0	0
36.39251	0.05378316	0.01161227	0	0	0	0
36.40907	0.05378316	0.01161227	0	0	0	0
36.42564	0.05378316	0.01161227	0	0	0	0
36.44221	0.05378316	0.01161227	0	0	0	0
36.4591	0.05378316	0.01161227	0	0	0	0
36.47543	0.05378316	0.01161227	0	0	0	0
36.49192	0.05378316	0.01161227	0	0	0	0
36.50847	0.05378316	0.01161227	0	0	0	0
36.52504	0.05378316	0.01161227	0	0	0	0
36.54161	0.05378316	0.01161227	0	0	0	0
36.55817	0.05378316	0.01161227	0	0	0	0
36.57482	0.05378316	0.01161227	0	0	0	0
36.59133	0.05378316	0.01161227	0	0	0	0
36.60787	0.05378316	0.01161227	0	0	0	0
36.62444	0.05378316	0.01161227	0	0	0	0
36.64101	0.05378316	0.01161227	0	0	0	0
36.65792	0.05378316	0.01161227	0	0	0	0
36.67414	0.05378316	0.01161227	0	0	0	0
36.69107	0.05378316	0.01161227	0	0	0	0
36.71127	0.05378316	0.01161227	0	0	0	0
36.72784	0.05378316	0.01161227	0	0	0	0
36.7444	0.05378316	0.01161227	0	0	0	0
36.76097	0.05378316	0.01161227	0	0	0	0
36.77756	0.05378316	0.01161227	0	0	0	0
36.79411	0.05378316	0.01161227	0	0	0	0
36.81067	0.05378316	0.01161227	0	0	0	0
36.82735	0.05378316	0.01161227	0	0	0	0
36.8438	0.05378316	0.01161227	0	0	0	0
36.86066	0.05378316	0.01161227	0	0	0	0
36.877	0.05378316	0.01161227	0	0	0	0
36.89351	0.05378316	0.01161227	0	0	0	0
36.91007	0.05378316	0.01161227	0	0	0	0
36.92664	0.05378316	0.01161227	0	0	0	0
36.94321	0.05378316	0.01161227	0	0	0	0
36.96034	0.05378316	0.01161227	0	0	0	0
36.97634	0.05378316	0.01161227	0	0	0	0
36.99293	0.05378316	0.01161227	0	0	0	0
37.00947	0.05378316	0.01161227	0	0	0	0
37.02604	0.05378316	0.01161227	0	0	0	0
37.04283	0.05378316	0.01161227	0	0	0	0
37.05917	0.05378316	0.01161227	0	0	0	0
37.07587	0.05378316	0.01161227	0	0	0	0
37.09262	0.05378316	0.01161227	0	0	0	0
37.10888	0.05378316	0.01161227	0	0	0	0
37.12576	0.05378316	0.01161227	0	0	0	0
37.14202	0.05378316	0.01161227	0	0	0	0
37.15858	0.05378316	0.01161227	0	0	0	0
37.17514	0.05378316	0.01161227	0	0	0	0
37.19171	0.05378316	0.01161227	0	0	0	0
37.20828	0.05378316	0.01161227	0	0	0	0
37.22491	0.05378316	0.01161227	0	0	0	0
37.24148	0.05378316	0.01161227	0	0	0	0
37.25798	0.05378316	0.01161227	0	0	0	0
37.27455	0.05378316	0.01161227	0	0	0	0
37.29111	0.05378316	0.01161227	0	0	0	0
37.30768	0.05378316	0.01161227	0	0	0	0
37.32425	0.05378316	0.01161227	0	0	0	0
37.34153	0.05378316	0.01161227	0	0	0	0
37.3574	0.05378316	0.01161227	0	0	0	0
37.3785	0.05378316	0.01161227	0	0	0	0
37.39512	0.05378316	0.01161227	0	0	0	0
37.41164	0.05378316	0.01161227	0	0	0	0
37.42821	0.05378316	0.01161227	0	0	0	0
37.44477	0.05378316	0.01161227	0	0	0	0
37.4687	0.05378316	0.01161227	0	0	0	0
37.48526	0.05378316	0.01161227	0	0	0	0
37.50191	0.05378316	0.01161227	0	0	0	0
37.5185	0.05378316	0.01161227	0	0	0	0
37.53497	0.05378316	0.01161227	0	0	0	0
37.55153	0.05378316	0.01161227	0	0	0	0
37.56843	0.05378316	0.01161227	0	0	0	0
37.58466	0.05378316	0.01161227	0	0	0	0
37.60135	0.05378316	0.01161227	0	0	0	0
37.6178	0.05378316	0.01161227	0	0	0	0
37.63444	0.05378316	0.01161227	0	0	0	0
37.65167	0.05378316	0.01161227	0	0	0	0
37.66752	0.05378316	0.01161227	0	0	0	0
37.68406	0.05378316	0.01161227	0	0	0	0
37.70063	0.05378316	0.01161227	0	0	0	0
37.7172	0.05378316	0.01161227	0	0	0	0
37.73404	0.05378316	0.01161227	0	0	0	0
37.75033	0.05378316	0.01161227	0	0	0	0
37.7669	0.05378316	0.01161227	0	0	0	0
37.78347	0.05378316	0.01161227	0	0	0	0
37.80004	0.05378316	0.01161227	0	0	0	0
37.81696	0.05378316	0.01161227	0	0	0	0
37.83318	0.05378316	0.01161227	0	0	0	0
37.84974	0.05378316	0.01161227	0	0	0	0
37.86631	0.05378316	0.01161227	0	0	0	0
37.88287	0.05378316	0.01161227	0	0	0	0
37.89944	0.05378316	0.01161227	0	0	0	0
37.91601	0.05378316	0.01161227	0	0	0	0
37.93258	0.05378316	0.01161227	0	0	0	0
37.94933	0.05378316	0.01161227	0	0	0	0
37.9657	0.05378316	0.01161227	0	0	0	0
37.98233	0.05378316	0.01161227	0	0	0	0
37.99883	0.05378316	0.01161227	0	0	0	0
38.0154	0.05378316	0.01161227	0	0	0	0
38.03241	0.05378316	0.01161227	0	0	0	0
38.04853	0.05378316	0.01161227	0	0	0	0
38.06509	0.05378316	0.01161227	0	0	0	0
38.08167	0.05378316	0.01161227	0	0	0	0
38.09823	0.05378316	0.01161227	0	0	0	0
38.1148	0.05378316	0.01161227	0	0	0	0
38.13137	0.05378316	0.01161227	0	0	0	0
38.14793	0.05378316	0.01161227	0	0	0	0
38.1645	0.05378316	0.01161227	0	0	0	0
38.18118	0.05378316	0.01161227	0	0	0	0
38.19778	0.05378316	0.01161227	0	0	0	0
38.2142	0.05378316	0.01161227	0	0	0	0
38.23077	0.05378316	0.01161227	0	0	0	0
38.24734	0.05378316	0.01161227	0	0	0	0
38.26391	0.05378316	0.01161227	0	0	0	0
38.28047	0.05378316	0.01161227	0	0	0	0
38.29704	0.05378316	0.01161227	0	0	0	0
38.31409	0.05378316	0.01161227	0	0	0	0
38.33103	0.05378316	0.01161227	0	0	0	0
38.34674	0.05378316	0.01161227	0	0	0	0
38.36335	0.05378316	0.01161227	0	0	0	0
38.37987	0.05378316	0.01161227	0	0	0	0
38.39644	0.05378316	0.01161227	0	0	0	0
38.41341	0.05378316	0.01161227	0	0	0	0
38.42957	0.05378316	0.01161227	0	0	0	0
38.44645	0.05378316	0.01161227	0	0	0	0
38.4627	0.05378316	0.01161227	0	0	0	0
38.47944	0.05378316	0.01161227	0	0	0	0
38.49601	0.05378316	0.01161227	0	0	0	0
38.51253	0.05378316	0.01161227	0	0	0	0
38.52916	0.05378316	0.01161227	0	0	0	0
38.54613	0.05378316	0.01161227	0	0	0	0
38.56211	0.05378316	0.01161227	0	0	0	0
38.57867	0.05378316	0.01161227	0	0	0	0
38.59524	0.05378316	0.01161227	0	0	0	0
38.6118	0.05378316	0.01161227	0	0	0	0
38.62837	0.05378316	0.01161227	0	0	0	0
38.64494	0.05378316	0.01161227	0	0	0	0
38.70253	0.05378316	0.01161227	0	0	0	0
38.72956	0.05378316	0.01161227	0	0	0	0
38.74612	0.05378316	0.01161227	0	0	0	0
38.76269	0.05378316	0.01161227	0	0	0	0
38.77926	0.05378316	0.01161227	0	0	0	0
38.79587	0.05378316	0.01161227	0	0	0	0
38.81294	0.05378316	0.01161227	0	0	0	0
38.82896	0.05378316	0.01161227	0	0	0	0
38.84553	0.05378316	0.01161227	0	0	0	0
38.86211	0.05378316	0.01161227	0	0	0	0
38.87866	0.05378316	0.01161227	0	0	0	0
38.89523	0.05378316	0.01161227	0	0	0	0
38.91204	0.05378316	0.01161227	0	0	0	0
38.92836	0.05378316	0.01161227	0	0	0	0
38.94498	0.05378316	0.01161227	0	0	0	0
38.96149	0.05378316	0.01161227	0	0	0	0
38.97806	0.05378316	0.01161227	0	0	0	0
38.99507	0.05378316	0.01161227	0	0	0	0
39.01119	0.05378316	0.01161227	0	0	0	0
39.02776	0.05378316	0.01161227	0	0	0	0
39.04432	0.05378316	0.01283462	0	0.07378083	0	2.22671
39.06089	0.05745019	0.0287251	0.2213424	0.9591512	6.680127	26.72053
39.07746	0.05989488	0.04828261	0.1475619	1.180494	-2.2267	6.680134
39.09402	0.06233957	0.06539543	0.1475617	1.032932	-6.745769E-06	-4.453427
39.11059	0.06233957	0.07517418	-2.24859E-07	0.5902467	-4.453427	-13.36027
39.12716	0.06356191	0.08250825	0.07378072	0.4426852	2.226713	-4.453413
39.14446	0.06478426	0.08861998	0.07065748	0.3532861	-0.09222125	-2.639722
39.16029	0.07578535	0.1350691	0.6947413	2.933353	18.83489	77.86658
39.17686	0.1014546	0.2181885	1.549398	5.017098	26.37665	64.30908
39.19343	0.1271238	0.308642	1.549398	5.459785	0	13.36032
39.21	0.1442366	0.383205	1.032931	4.500631	-15.58702	-28.94733
39.22656	0.1515707	0.4259871	0.4426852	2.582331	-17.81365	-57.89443
39.24313	0.152793	0.4430999	0.07378072	1.03293	-11.13356	-46.761
39.2597	0.152793	0.4467669	0	0.2213422	-2.226707	-24.49377
39.27626	0.152793	0.4467669	0	0	0	-6.68012
39.29311	0.152793	0.4467669	0	0	0	0
39.30939	0.152793	0.4467669	0	0	0	0
39.32596	0.152793	0.4467669	0	0	0	0
39.34253	0.152793	0.4467669	0	0	0	0
39.3591	0.152793	0.4467669	0	0	0	0
39.37566	0.152793	0.4467669	0	0	0	0
39.39223	0.149126	0.4455446	-0.2212903	-0.07376194	-6.678555	-2.22614
39.40894	0.149126	0.4455446	0	0	6.650227	2.216697
39.42544	0.1442366	0.4455446	-0.2962845	0	-8.922366	0
39.44193	0.1356802	0.4455446	-0.5187345	0	-6.741495	0
39.45859	0.1234568	0.4455446	-0.7337538	0	-6.485563	0
39.47527	0.1002323	0.4479893	-1.392219	0.1465491	-19.74975	4.395535
39.49163	0.07089598	0.4528786	-1.793453	0.2989083	-12.14422	4.611481
39.5082	0.04033737	0.454101	-1.844521	0.07378072	-1.551055	-6.83766
39.52477	0.01955751	0.4553233	-1.254275	0.07378072	17.81368	0
39.54133	0.009778756	0.4553233	-0.5902469	1.798872E-06	20.0404	-2.226652
39.5579	0.007334067	0.4553233	-0.1475617	-1.798872E-06	13.36026	-0.0001085801
39.57498	0.007334067	0.4553233	0	0	4.385264	5.345918E-05
39.59103	0.007334067	0.4553233	0	0	0	0
39.6076	0.007334067	0.4553233	0	0	0	0
39.62417	0.007334067	0.4553233	0	0	0	0
39.64074	0.007334067	0.4553233	0	0	0	0
39.6573	0.007334067	0.4553233	0	0	0	0
39.67387	0.007334067	0.4553233	0	0	0	0
39.69044	0.007334067	0.454101	0	-0.07377893	0	-2.226652
39.707	0.007334067	0.4467669	0	-0.442688	0	-11.1337
39.72357	0.01222344	0.4296541	0.2951234	-1.03293	8.906843	-17.81354
39.74014	0.02322455	0.4015402	0.6640278	-1.696958	11.13355	-20.04041
39.75671	0.04278206	0.3563134	1.180494	-2.729892	15.58697	-31.17401
39.7738	0.06356192	0.3098643	1.215376	-2.716723	1.036169	0.3911969
39.78984	0.0880088	0.2573035	1.524406	-3.277476	9.32655	-16.92356
39.80641	0.106344	0.2108544	1.106714	-2.803672	-12.811	14.53197
39.82298	0.1295685	0.1399584	1.401836	-4.27929	8.906815	-44.53424
39.83954	0.1381249	0.1069551	0.516466	-1.992083	-26.72052	69.02805
39.85611	0.145459	0.07884122	0.4426852	-1.696959	-2.226707	8.906855
39.87268	0.1479037	0.06050605	0.1475614	-1.106713	-8.906855	17.81366
39.88924	0.1503484	0.0507273	0.1475624	-0.5902467	2.743279E-05	15.58699
39.90581	0.1503484	0.04461557	0	-0.3689043	-4.453441	6.680126
39.92238	0.1503484	0.04094854	-8.994359E-07	-0.2213424	-2.714503E-05	4.453427
39.93895	0.1503484	0.03728151	8.994359E-07	-0.2213428	5.429006E-05	-1.349154E-05
39.95559	0.1503484	0.03605916	-8.953128E-07	-0.07344273	-5.404119E-05	4.45338
39.97258	0.1503484	0.03239213	0	-0.2158747	2.662215E-05	-4.235219
39.98864	0.149126	0.02750275	-0.07607543	-0.3043023	-2.301525	-2.675217
40.00521	0.145459	0.02383572	-0.2213422	-0.2213426	-4.451292	2.542066
40.02355	0.141792	0.01772399	-0.1999777	-0.3332955	0.6120829	-3.207406
40.04026	0.1356802	0.01038993	-0.3657047	-0.4388454	-4.728377	-3.011458
40.05704	0.1320132	0.006722895	-0.2185733	-0.2185745	4.393397	6.577365
40.07384	0.1295685	0.00550055	-0.1455185	-0.07275892	2.175742	4.342727
40.08982	0.1246791	0.0006111722	-0.3058999	-0.3059	-4.892138	-7.111537
40.10639	0.1197898	-0.003055861	-0.2950559	-0.2212916	0.3331032	2.598967
40.12333	0.1185674	-0.003055861	-0.07218467	0	6.651981	6.604836
40.13952	0.113678	-0.00550055	-0.3018659	-0.1509328	-6.932591	-4.555684
40.15609	0.1112334	-0.00794524	-0.1475614	-0.1475618	4.709511	0.102886
40.17265	0.1075663	-0.01038993	-0.221394	-0.1475957	-2.228529	-0.001023226
40.18948	0.1051216	-0.01038993	-0.1453196	-5.536069E-08	2.278618	4.420853
40.20579	0.1051216	-0.01161227	0	-0.0749369	4.385754	-2.261598
40.22235	0.1051216	-0.01161227	0	0	0	2.279181
40.23892	0.1051216	-0.01161227	0	0	0	0
40.25549	0.1051216	-0.01161227	0	0	0	0
40.27206	0.1051216	-0.01161227	0	0	0	0
40.28903	0.1051216	-0.01161227	0	0	0	0
40.30519	0.1051216	-0.01161227	0	0	0	0
40.32176	0.1051216	-0.01161227	0	0	0	0
40.33833	0.1051216	-0.01161227	0	0	0	0
40.35489	0.1051216	-0.01161227	0	0	0	0
40.37146	0.1051216	-0.01161227	0	0	0	0
40.38803	0.1051216	-0.01161227	0	0	0	0
40.40503	0.1051216	-0.01161227	0	0	0	0
40.42176	0.1051216	-0.01161227	0	0	0	0
40.43773	0.1051216	-0.01161227	0	0	0	0
40.45429	0.1051216	-0.01161227	0	0	0	0
40.47086	0.1051216	-0.01161227	0	0	0	0
40.48746	0.1051216	-0.01161227	0	0	0	0
40.50399	0.1051216	-0.01161227	0	0	0	0
40.52056	0.1051216	-0.01161227	0	0	0	0
40.53713	0.1051216	-0.01161227	0	0	0	0
40.5537	0.1051216	-0.01161227	0	0	0	0
40.57026	0.1026769	-0.01283462	-0.1475614	-0.07378089	-4.453413	-2.226712
40.58683	0.1026769	-0.01283462	0	0	4.453413	2.226712
40.6034	0.1026769	-0.01283462	0	0	0	0
40.61996	0.1014546	-0.01405696	-0.07378118	-0.07378083	-2.22672	-2.22671
40.63653	0.1002323	-0.01405696	-0.07378072	0	1.37164E-05	2.22671
40.6531	0.1002323	-0.01405696	0	0	2.226707	0
40.66985	0.09778756	-0.01405696	-0.1459156	5.558757E-08	-4.379038	1.668225E-06
40.6864	0.09534287	-0.01405696	-0.147732	0	-0.05454208	-1.669181E-06
40.70291	0.09534287	-0.01405696	0	0	4.46885	0
40.71971	0.09289818	-0.01405696	-0.1455506	0	-4.370086	0
40.73593	0.08923114	-0.01405696	-0.226027	-5.740433E-08	-2.4372	-1.738471E-06
40.7525	0.08678646	-0.01405696	-0.147561	0	2.392904	1.750605E-06
40.76907	0.08189708	-0.01405696	-0.2951238	0	-4.453454	0
40.78598	0.0794524	-0.01405696	-0.1445656	5.507345E-08	4.497256	1.645075E-06
40.8022	0.07823005	-0.01405696	-0.0753425	-5.740433E-08	2.089158	-3.394586E-06
40.81877	0.0770077	-0.01405696	-0.07378072	0	0.04762799	1.750605E-06
40.83533	0.07578536	-0.01405696	-0.07378072	-5.621474E-08	0	-1.696564E-06
40.85194	0.07578536	-0.01405696	0	0	2.22389	1.694418E-06
40.86847	0.07578536	-0.01405696	0	0	0	0
40.88504	0.07578536	-0.01405696	0	0	0	0
40.90206	0.07578536	-0.01405696	0	0	0	0
40.91817	0.07578536	-0.01405696	0	0	0	0
40.93474	0.07578536	-0.01405696	0	0	0	0
40.95131	0.07578536	-0.01405696	0	0	0	0
40.96787	0.07578536	-0.01405696	0	0	0	0
40.98474	0.07578536	-0.01405696	0	0	0	0
41.00101	0.07578536	-0.01405696	0	0	0	0
41.01757	0.07578536	-0.01405696	0	0	0	0
41.03448	0.07578536	-0.01405696	0	0	0	0
41.05096	0.07578536	-0.01405696	0	0	0	0
41.06727	0.07578536	-0.01405696	0	0	0	0
41.08384	0.07578536	-0.01405696	0	0	0	0
41.10056	0.07456301	-0.01405696	-0.07310784	1.671052E-07	-2.196285	5.020125E-06
41.11697	0.06967364	-0.01405696	-0.2978668	-1.134746E-07	-6.783238	-8.467914E-06
41.13388	0.06600661	-0.01405696	-0.2168484	0	2.431144	3.40507E-06
41.15049	0.05378316	-0.01405696	-0.7361139	0	-15.49309	0
41.16697	0.04155971	-0.01405696	-0.7419087	5.652712E-08	-0.1751705	1.708746E-06
41.18324	0.03055861	-0.01405696	-0.6760132	-5.72294E-08	2.012129	-3.473569E-06
41.19981	0.02077986	-0.01405696	-0.5902468	5.621474E-08	2.611586	3.454374E-06
41.21637	0.01466813	-0.01405696	-0.3689043	-5.621474E-08	6.68013	-3.393129E-06
41.23294	0.01222344	-0.01405696	-0.1475278	5.62018E-08	6.680386	3.392347E-06
41.25004	0.0110011	-0.01405696	-0.07149268	-5.447136E-08	2.258345	-3.287141E-06
41.26609	0.008556412	-0.01405696	-0.152332	5.8032E-08	-2.438892	3.394186E-06
41.28265	0.008556412	-0.01405696	0	0	4.672155	-1.779893E-06
41.29961	0.008556412	-0.01405696	0	0	0	0
41.31577	0.008556412	-0.01405696	0	0	0	0
41.3324	0.008556412	-0.01405696	0	0	0	0
41.3489	0.008556412	-0.01405696	0	0	0	0
41.36547	0.008556412	-0.01405696	0	0	0	0
41.38212	0.008556412	-0.01405696	0	0	0	0
41.39861	0.008556412	-0.01405696	0	0	0	0
41.41517	0.008556412	-0.01405696	0	0	0	0
41.43174	0.008556412	-0.01405696	0	0	0	0
41.44876	0.008556412	-0.01405696	0	0	0	0
41.4649	0.008556412	-0.01405696	0	0	0	0
41.48143	0.008556412	-0.01405696	0	0	0	0
41.49813	0.008556412	-0.01405696	0	0	0	0
41.51457	0.008556412	-0.01405696	0	0	0	0
41.53119	0.008556412	-0.01405696	0	0	0	0
41.5477	0.008556412	-0.01405696	0	0	0	0
41.56428	0.008556412	-0.01405696	0	0	0	0
41.59811	0.008556412	-0.01405696	0	0	0	0
41.61469	0.008556412	-0.01405696	0	0	0	0
41.63131	0.008556412	-0.01405696	0	0	0	0
41.64782	0.008556412	-0.01405696	0	0	0	0
41.66438	0.008556412	-0.01405696	0	0	0	0
41.68095	0.008556412	-0.01405696	0	0	0	0
41.69751	0.008556412	-0.01405696	0	0	0	0
41.71411	0.008556412	-0.01405696	0	0	0	0
41.73065	0.008556412	-0.01405696	0	0	0	0
41.74722	0.008556412	-0.01405696	0	0	0	0
41.76379	0.008556412	-0.01405696	0	0	0	0
41.78035	0.008556412	-0.01405696	0	0	0	0
41.79692	0.008556412	-0.01405696	0	0	0	0
41.81386	0.008556412	-0.01405696	0	0	0	0
41.83005	0.008556412	-0.01405696	0	0	0	0
41.84689	0.008556412	-0.01405696	0	0	0	0
41.8632	0.008556412	-0.01405696	0	0	0	0
41.87975	0.008556412	-0.01405696	0	0	0	0
41.89645	0.008556412	-0.01405696	0	0	0	0
41.91296	0.008556412	-0.01405696	0	0	0	0
41.92949	0.008556412	-0.01405696	0	0	0	0
41.94601	0.008556412	-0.01405696	0	0	0	0
41.96258	0.008556412	-0.01405696	0	0	0	0
41.98328	0.008556412	-0.01405696	0	0	0	0
41.99985	0.008556412	-0.01405696	0	0	0	0
42.01642	0.008556412	-0.01405696	0	0	0	0
42.03299	0.008556412	-0.01405696	0	0	0	0
42.04955	0.008556412	-0.01405696	0	0	0	0
42.06612	0.008556412	-0.01405696	0	0	0	0
42.08296	0.008556412	-0.01405696	0	0	0	0
42.09925	0.008556412	-0.01405696	0	0	0	0
42.11582	0.008556412	-0.01405696	0	0	0	0
42.13258	0.008556412	-0.01405696	0	0	0	0
42.14895	0.008556412	-0.01405696	0	0	0	0
42.16552	0.008556412	-0.01405696	0	0	0	0
42.18209	0.008556412	-0.01405696	0	0	0	0
42.19866	0.008556412	-0.01405696	0	0	0	0
42.21533	0.008556412	-0.01405696	0	0	0	0
42.23179	0.008556412	-0.01405696	0	0	0	0
42.24836	0.008556412	-0.01405696	0	0	0	0
42.26492	0.008556412	-0.01405696	0	0	0	0
42.28149	0.008556412	-0.01405696	0	0	0	0
42.29805	0.008556412	-0.01405696	0	0	0	0
42.3147	0.008556412	-0.01405696	0	0	0	0
42.33125	0.008556412	-0.01405696	0	0	0	0
42.34807	0.008556412	-0.01405696	0	0	0	0
42.36432	0.008556412	-0.01405696	0	0	0	0
42.38088	0.008556412	-0.01405696	0	0	0	0
42.39745	0.008556412	-0.01405696	0	0	0	0
42.41411	0.008556412	-0.01405696	0	0	0	0
42.43108	0.008556412	-0.01405696	0	0	0	0
42.44715	0.008556412	-0.01405696	0	0	0	0
42.46458	0.008556412	-0.01405696	0	0	0	0
42.48028	0.008556412	-0.01405696	0	0	0	0
42.49751	0.008556412	-0.01405696	0	0	0	0
42.51342	0.008556412	-0.01405696	0	0	0	0
42.53019	0.008556412	-0.01405696	0	0	0	0
42.5466	0.008556412	-0.01405696	0	0	0	0
42.56322	0.008556412	-0.01405696	0	0	0	0
42.57978	0.008556412	-0.01405696	0	0	0	0
42.59625	0.008556412	-0.01405696	0	0	0	0
42.61282	0.008556412	-0.01405696	0	0	0	0
42.62938	0.008556412	-0.01405696	0	0	0	0
42.64635	0.008556412	-0.01405696	0	0	0	0
42.66252	0.008556412	-0.01405696	0	0	0	0
42.67908	0.008556412	-0.01405696	0	0	0	0
42.69565	0.008556412	-0.01405696	0	0	0	0
42.71222	0.008556412	-0.01405696	0	0	0	0
42.72879	0.008556412	-0.01405696	0	0	0	0
42.74626	0.008556412	-0.01405696	0	0	0	0
42.78535	0.008556412	-0.01405696	0	0	0	0
42.80193	0.008556412	-0.01405696	0	0	0	0
42.8185	0.008556412	-0.01405696	0	0	0	0
42.83506	0.008556412	-0.01405696	0	0	0	0
42.85163	0.008556412	-0.01405696	0	0	0	0
42.86858	0.008556412	-0.01405696	0	0	0	0
42.88476	0.008556412	-0.01405696	0	0	0	0
42.90133	0.008556412	-0.01405696	0	0	0	0
42.91797	0.008556412	-0.01405696	0	0	0	0
42.93446	0.008556412	-0.01405696	0	0	0	0
42.95103	0.008556412	-0.01405696	0	0	0	0
42.9676	0.008556412	-0.01405696	0	0	0	0
42.98417	0.008556412	-0.01405696	0	0	0	0
43.00153	0.008556412	-0.01405696	0	0	0	0
43.0173	0.008556412	-0.01405696	0	0	0	0
43.03397	0.008556412	-0.01405696	0	0	0	0
43.05043	0.008556412	-0.01405696	0	0	0	0
43.06702	0.008556412	-0.01405696	0	0	0	0
43.08372	0.008556412	-0.01405696	0	0	0	0
43.10035	0.008556412	-0.01405696	0	0	0	0
43.11702	0.008556412	-0.01405696	0	0	0	0
43.13326	0.008556412	-0.01527931	0	-0.07527136	0	-2.28723
43.14983	0.008556411	-0.01650165	-5.621474E-08	-0.07378089	-1.71353E-06	0.04543218
43.16653	0.008556411	-0.01650165	0	0	1.689755E-06	2.217775
43.18296	0.008556411	-0.01772399	0	-0.07438026	0	-2.244801
43.20031	0.008556411	-0.01772399	0	0	0	2.202207
43.21635	0.008556411	-0.01772399	0	0	0	0
43.23266	0.008556411	-0.01894634	0	-0.0749369	0	-2.315994
43.24952	0.008556411	-0.01894634	0	0	0	2.259519
43.2658	0.008556411	-0.02016868	0	-0.07507736	0	-2.265839
43.28244	0.007334067	-0.02016868	-0.07345943	-1.119398E-07	-2.231396	2.280539
43.29902	0.007334067	-0.02016868	0	0	2.211409	3.369814E-06
43.31693	0.007334067	-0.02016868	0	0	0	0
43.3335	0.007334067	-0.02016868	0	0	0	0
43.3506	0.007334067	-0.02016868	0	0	0	0
43.36665	0.007334067	-0.02016868	0	0	0	0
43.3832	0.007334067	-0.02016868	0	0	0	0
43.39977	0.007334067	-0.02016868	0	0	0	0
43.41638	0.007334067	-0.02016868	0	0	0	0
43.4329	0.007334067	-0.02016868	0	0	0	0
43.44947	0.007334067	-0.02016868	0	0	0	0
43.46626	0.007334067	-0.02016868	0	0	0	0
43.4826	0.007334067	-0.02016868	0	0	0	0
43.49928	0.007334067	-0.02016868	0	0	0	0
43.51597	0.007334067	-0.02016868	0	0	0	0
43.5323	0.007334067	-0.02016868	0	0	0	0
43.54893	0.007334067	-0.02016868	0	0	0	0
43.56544	0.007334067	-0.02016868	0	0	0	0
43.58201	0.007334067	-0.02016868	0	0	0	0
43.59857	0.007334067	-0.02016868	0	0	0	0
43.61515	0.007334067	-0.02016868	0	0	0	0
